File: XRD/Ni3Fe_FD0917.xy
TT I
1.27165 7.13217
1.31627 7.10143
1.36089 6.63458
1.40551 5.36893
1.45013 6.19288
1.49476 6.29825
1.53938 6.08419
1.584 4.95913
1.62863 5.27178
1.67325 4.67608
1.71787 5.25779
1.7625 4.95129
1.80712 4.43024
1.85174 4.36253
1.89636 5.34751
1.94099 4.61188
1.98562 4.94988
2.03025 4.24979
2.07487 4.23079
2.11949 5.14658
2.16411 4.8079
2.20874 9.05144
2.25338 12.3032
2.298 5.20964
2.34263 5.39837
2.38725 5.89572
2.43188 6.58453
2.4765 7.16984
2.52115 7.52043
2.56577 7.76478
2.6104 8.04309
2.65503 8.74662
2.69965 8.94619
2.7443 9.07635
2.78893 8.13753
2.83356 8.80255
2.87818 9.1626
2.92281 8.87762
2.96744 10.1748
3.01209 10.3211
3.05672 11.202
3.10135 12.5725
3.14599 12.7766
3.19062 14.487
3.23527 14.9924
3.2799 15.6323
3.32454 16.6348
3.36917 17.243
3.4138 18.4294
3.45844 19.6414
3.50309 20.5987
3.54773 21.6661
3.59237 22.8872
3.637 53.7665
3.68164 38.892
3.7263 25.2989
3.77094 26.065
3.81558 26.4194
3.86022 26.8513
3.90486 28.4054
3.9495 29.2928
3.99416 30.1355
4.0388 31.4652
4.08344 33.0677
4.12809 34.0643
4.17273 35.4505
4.21738 38.9727
4.26204 133.752
4.30669 116.492
4.35133 44.1575
4.39598 42.6337
4.44063 48.9137
4.4853 55.0363
4.52995 54.9315
4.5746 55.9863
4.61925 52.5139
4.6639 55.0033
4.70855 57.3895
4.75322 60.6368
4.79788 66.6214
4.84253 67.3099
4.88719 73.8517
4.93184 75.4638
4.97652 79.8982
5.02118 85.5945
5.06583 93.0949
5.11049 103.824
5.15515 153.78
5.19981 357.938
5.24449 2719.35
5.28916 13654.3
5.33382 2672.24
5.37848 186.644
5.42315 127.393
5.46783 116.831
5.5125 109.488
5.55716 100.608
5.60183 96.4642
5.6465 94.5038
5.69117 92.5765
5.73586 91.3831
5.78053 95.9196
5.8252 95.5677
5.86988 97.9872
5.91455 93.0853
5.95924 101.414
6.00392 218.205
6.0486 910.299
6.09328 4629.53
6.13795 3002.2
6.18263 195.326
6.22733 88.0314
6.27201 79.0463
6.3167 84.4642
6.36138 73.8364
6.40606 68.7902
6.45075 68.5434
6.49545 64.4445
6.54014 62.7445
6.58483 61.954
6.62952 62.434
6.67421 74.3854
6.71892 94.8657
6.76361 61.8525
6.8083 58.2506
6.853 58.4961
6.89769 55.9218
6.94239 55.1906
6.98711 54.6326
7.03181 55.1012
7.07651 54.2254
7.12121 53.8362
7.16591 54.7972
7.21063 54.5205
7.25533 60.7967
7.30004 106.586
7.34475 69.3904
7.38945 54.2968
7.43416 52.895
7.47889 52.9531
7.5236 53.6893
7.56831 54.1326
7.61303 54.8766
7.65774 55.0454
7.70247 55.9736
7.74719 55.5712
7.79191 55.6217
7.83663 55.8506
7.88135 56.6071
7.92607 57.4742
7.97081 58.5253
8.01553 59.7414
8.06026 61.7934
8.10498 62.9556
8.14971 69.6055
8.19446 70.125
8.23919 68.3151
8.28392 70.6548
8.32865 72.859
8.37339 76.9651
8.41812 82.7187
8.46288 101.506
8.50761 167.708
8.55235 362.639
8.59709 1201.99
8.64183 2277.73
8.68658 837.522
8.73134 141.105
8.77609 95.4128
8.82083 90.6267
8.86558 90.3863
8.91033 90.4156
8.9551 88.5368
8.99985 84.0454
9.04461 82.582
9.08936 82.6101
9.13412 81.8057
9.17888 80.8939
9.22365 80.8778
9.26841 80.6564
9.31318 83.1326
9.35794 85.0179
9.4027 84.4838
9.44749 83.9862
9.49226 83.4411
9.53703 84.3384
9.5818 87.5956
9.62657 92.8544
9.67134 94.1526
9.71614 91.3073
9.76091 93.3173
9.80569 96.9785
9.85047 99.9766
9.89525 111.865
9.94005 125.65
9.98484 181.199
10.0296 327.293
10.0744 817.688
10.1192 1836.73
10.164 1467.08
10.2088 326.223
10.2536 117.964
10.2984 107.777
10.3432 107.114
10.388 102.881
10.4328 118.446
10.4776 157.145
10.5224 287.034
10.5672 542.404
10.612 486.456
10.6568 180.485
10.7017 91.5069
10.7465 84.7262
10.7913 81.8822
10.8361 79.5281
10.8809 77.6584
10.9257 76.7723
10.9706 76.8609
11.0154 73.9481
11.0602 71.5221
11.105 70.3533
11.1499 71.529
11.1947 73.9074
11.2395 69.7383
11.2844 67.4152
11.3292 65.8059
11.374 65.0106
11.4189 64.4187
11.4637 63.8737
11.5086 63.7054
11.5534 64.7223
11.5983 63.1679
11.6431 62.3159
11.688 61.776
11.7328 61.8021
11.7777 61.7228
11.8225 61.49
11.8674 61.3649
11.9122 61.7189
11.9571 61.8864
12.002 63.2165
12.0468 67.3509
12.0917 76.8822
12.1366 101.104
12.1814 158.672
12.2263 212.534
12.2712 155.341
12.3161 86.7563
12.3609 66.1614
12.4058 63.0952
12.4507 62.9868
12.4956 63.2772
12.5405 63.5329
12.5853 63.915
12.6302 67.4746
12.6751 70.4274
12.72 67.3018
12.7649 66.319
12.8098 67.3961
12.8547 68.7528
12.8996 70.3154
12.9445 71.8034
12.9894 72.944
13.0343 74.7112
13.0792 78.678
13.1242 89.822
13.1691 109.022
13.214 144.516
13.2589 243.839
13.3038 391.053
13.3487 424.61
13.3937 231.028
13.4386 114.545
13.4835 104.045
13.5285 117.444
13.5734 156.324
13.6183 257.438
13.6633 378.135
13.7082 330.128
13.7531 167.857
13.7981 91.8341
13.843 79.9138
13.888 78.1774
13.9329 75.9267
13.9779 74.3488
14.0228 73.0142
14.0678 71.7053
14.1127 71.24
14.1577 70.7408
14.2027 70.0865
14.2476 69.1529
14.2926 68.8437
14.3376 68.9425
14.3825 68.5828
14.4275 67.7091
14.4725 67.6007
14.5175 67.6327
14.5624 67.7924
14.6074 68.9521
14.6524 69.2749
14.6974 69.277
14.7424 72.1789
14.7874 78.1165
14.8324 87.0394
14.8774 109.791
14.9224 158.721
14.9674 218.915
15.0124 214.197
15.0574 138.007
15.1024 83.8854
15.1474 70.3083
15.1924 68.9365
15.2374 68.3799
15.2824 67.6051
15.3274 66.2586
15.3725 65.3486
15.4175 65.3779
15.4625 64.755
15.5076 64.8312
15.5526 64.5316
15.5976 64.7911
15.6426 66.6675
15.6877 71.3037
15.7327 78.6132
15.7778 93.4559
15.8228 128.089
15.8679 177.359
15.9129 195.656
15.958 147.177
16.003 87.6876
16.0481 64.9343
16.0931 61.9179
16.1382 60.5324
16.1833 58.9718
16.2283 57.6657
16.2734 57.2686
16.3185 56.9545
16.3636 56.6512
16.4086 55.9884
16.4537 55.0931
16.4988 54.4678
16.5439 54.3812
16.589 53.9636
16.6341 53.7795
16.6792 53.3946
16.7243 53.7309
16.7694 53.6944
16.8145 53.5076
16.8596 53.7041
16.9047 54.6756
16.9498 54.8959
16.9949 54.4366
17.04 54.876
17.0851 56.1381
17.1302 57.4375
17.1754 60.4384
17.2205 65.8727
17.2656 74.8644
17.3108 83.0835
17.3559 80.107
17.401 67.6657
17.4462 60.1048
17.4913 58.0675
17.5365 58.0481
17.5815 58.1897
17.6268 58.626
17.6718 59.2613
17.7171 59.6158
17.7622 60.2666
17.8074 61.218
17.8525 63.91
17.8977 67.1466
17.9428 72.1639
17.9881 81.5103
18.0331 100.541
18.0784 126.133
18.1237 140.073
18.1688 125.703
18.214 97.0545
18.2591 83.6488
18.3044 90.6899
18.3495 101.935
18.3948 105.675
18.4399 91.2173
18.4852 73.1764
18.5303 63.9955
18.5756 60.8349
18.6207 60.2043
18.666 59.3829
18.7112 58.3889
18.7565 57.9244
18.8016 57.605
18.8469 56.9531
18.892 56.6477
18.9374 56.3961
18.9825 55.8791
19.0278 55.8707
19.073 55.9509
19.1183 56.3075
19.1635 56.6562
19.2088 58.1968
19.254 61.3317
19.2993 66.2846
19.3447 71.9929
19.3898 75.0154
19.4352 69.0431
19.4804 60.395
19.5257 55.0432
19.5709 53.1252
19.6163 52.8908
19.6615 52.708
19.7068 52.4765
19.752 52.2328
19.7974 52.5682
19.8426 53.5308
19.888 53.7355
19.9332 55.0871
19.9786 58.0242
20.0238 62.3139
20.0692 67.3906
20.1144 69.4513
20.1598 66.2019
20.205 61.6774
20.2504 61.3145
20.2957 64.0421
20.3411 65.5414
20.3863 62.4743
20.4318 56.1224
20.477 52.0239
20.5224 50.2195
20.5677 49.6456
20.6131 49.2632
20.6586 48.7388
20.7038 48.4385
20.7493 48.1057
20.7945 48.0848
20.84 47.9328
20.8853 47.9564
20.9307 47.8342
20.976 47.81
21.0215 47.7375
21.0668 48.1617
21.1122 48.6668
21.1575 49.3484
21.203 50.2017
21.2483 50.8615
21.2938 50.5505
21.3391 48.9723
21.3846 47.91
21.4299 47.4972
21.4754 47.7046
21.5207 47.684
21.5662 48.0932
21.6116 48.5573
21.6571 49.0909
21.7024 49.9828
21.7479 51.883
21.7933 54.8018
21.8388 58.8727
21.8843 62.8581
21.9297 64.1417
21.9752 61.567
22.0206 57.5934
22.0661 55.5056
22.1115 55.6189
22.157 55.0522
22.2024 52.6067
22.248 50.041
22.2933 48.5828
22.3389 48.1706
22.3843 48.1811
22.4299 47.8741
22.4753 47.8711
22.5208 47.617
22.5662 47.6703
22.6118 47.7759
22.6572 48.0607
22.7028 48.5666
22.7483 48.9402
22.7939 49.5491
22.8393 51.1543
22.8849 53.6394
22.9303 55.8545
22.9759 57.4259
23.0214 56.0425
23.067 52.7712
23.1126 49.7352
23.1581 48.1012
23.2037 48.053
23.2492 48.1001
23.2948 47.9809
23.3403 48.4327
23.3859 48.9017
23.4314 50.1492
23.477 52.1475
23.5225 54.6526
23.5682 56.987
23.6137 57.4265
23.6593 54.1784
23.7048 49.8331
23.7505 47.1855
23.796 45.684
23.8417 45.1021
23.8872 44.7996
23.9329 44.5179
23.9784 44.046
24.0241 43.9409
24.0697 43.7092
24.1154 43.2923
24.1609 43.1384
24.2066 42.9154
24.2522 42.8995
24.2979 42.6761
24.3434 42.4616
24.3892 42.3016
24.4349 42.3323
24.4805 42.1571
24.5262 42.3794
24.5718 42.2966
24.6175 42.152
24.6631 41.9767
24.7089 41.6669
24.7545 41.7054
24.8002 41.5654
24.8458 41.4723
24.8916 41.3671
24.9372 41.5046
24.983 41.8261
25.0286 42.1033
25.0744 42.6031
25.12 43.1501
25.1658 43.7893
25.2114 44.072
25.2572 44.0979
25.3029 44.3006
25.3487 44.3296
25.3943 43.8905
25.4402 42.5048
25.4858 41.414
25.5316 40.7772
25.5773 40.1985
25.6231 40.1022
25.669 39.9302
25.7147 39.8225
25.7605 39.7912
25.8062 39.6685
25.8521 39.8977
25.8977 39.9508
25.9436 40.2125
25.9893 40.3584
26.0352 40.9925
26.0809 41.0416
26.1268 41.0529
26.1725 40.6407
26.2184 39.9346
26.2641 39.5002
26.31 39.415
26.3557 39.4317
26.4017 39.4749
26.4474 39.7802
26.4933 40.1753
26.5391 40.6084
26.585 41.0847
26.6308 41.5383
26.6767 41.4404
26.7225 41.2843
26.7684 40.6751
26.8142 40.1933
26.8601 39.7441
26.9059 39.233
26.9519 38.7458
26.9979 38.4583
27.0437 38.2765
27.0896 37.9515
27.1354 38.0952
27.1814 37.9167
27.2272 37.9473
27.2732 37.9162
27.3191 37.6831
27.3651 37.8392
27.4109 37.6405
27.4569 37.8508
27.5027 37.8563
27.5488 38.1196
27.5946 37.7596
27.6407 37.5876
27.6865 37.3137
27.7326 37.042
27.7784 37.24
27.8245 37.0473
27.8703 37.3307
27.9164 37.7744
27.9623 37.8557
28.0084 38.2388
28.0543 38.7124
28.1003 38.3393
28.1462 38.103
28.1923 37.818
28.2384 37.2888
28.2843 36.8114
28.3304 36.5589
28.3764 35.9962
28.4225 35.7365
28.4684 35.6421
28.5145 35.3688
28.5605 35.2464
28.6066 35.02
28.6526 34.9867
28.6987 35.0359
28.7447 34.9339
28.7908 34.8736
28.8368 34.8777
28.8829 34.8111
28.9289 34.7264
28.9751 34.5354
29.0211 34.4423
29.0673 33.9901
29.1133 33.8868
29.1595 33.9201
29.2055 33.8683
29.2517 33.7572
29.2977 33.7772
29.3439 33.7818
29.3899 33.6927
29.4361 33.6389
29.4824 33.2827
29.5284 33.0807
29.5746 32.8321
29.6207 32.5816
29.6669 32.5849
29.713 32.4748
29.7593 32.2895
29.8053 32.2005
29.8516 32.2819
29.8977 32.2368
29.9439 31.9934
29.99 31.9868
30.0363 31.8602
30.0824 32.0051
30.1287 31.9241
30.1748 31.9537
30.2211 31.8838
30.2673 31.7483
30.3136 31.7494
30.3597 31.7214
30.406 31.6285
30.4522 31.5152
30.4985 31.4405
30.5447 31.6106
30.591 31.5758
30.6372 31.7081
30.6835 31.6037
30.7297 31.7131
30.7761 31.5918
30.8224 31.3949
30.8686 31.2292
30.915 30.98
30.9612 30.9667
31.0076 30.7984
31.0538 30.7164
31.1002 30.5158
31.1464 30.3232
31.1928 30.4324
31.2391 30.4515
31.2855 30.4063
31.3317 30.3539
31.3781 30.4592
31.4244 30.3819
31.4708 30.3196
31.5171 30.3601
31.5636 30.1334
31.6098 30.0621
31.6563 29.7773
31.7026 29.7564
31.7491 29.6239
31.7953 29.6798
31.8418 29.6993
31.8881 29.6209
31.9346 29.5882
31.9809 29.5171
32.0275 29.4225
32.074 29.2663
32.1203 29.1089
32.1668 29.0727
32.2132 28.8927
32.2597 28.7915
32.306 28.5724
32.3526 28.4538
32.399 28.4268
32.4455 28.3062
32.4919 28.28
32.5385 28.1061
32.5848 28.0386
32.6314 27.963
32.6778 27.973
32.7244 27.8175
32.7708 27.6841
32.8174 27.6976
32.8638 27.4521
32.9104 27.5558
32.9569 27.5223
33.0035 27.4136
33.0499 27.4439
33.0966 27.3973
33.143 27.3359
33.1897 27.2744
33.2361 27.0981
33.2828 27.0655
33.3293 26.8597
33.3759 26.8382
33.4226 26.9026
33.4691 26.5728
33.5158 26.5818
33.5623 26.4731
33.609 26.2715
33.6555 26.2777
33.7022 26.1735
33.7487 26.1113
33.7954 26.0657
33.842 25.8986
33.8887 25.8806
33.9353 25.8348
33.982 25.6594
34.0286 25.5892
34.0753 25.4521
34.1219 25.3887
34.1687 25.3889
34.2152 25.3482
34.262 25.1964
34.3086 25.0819
34.3554 25.1259
34.402 24.9521
34.4488 24.8848
34.4954 24.7726
34.5422 24.7451
34.5889 24.6524
34.6357 24.5907
34.6825 24.535
34.7292 24.3721
34.776 24.3524
34.8227 24.3111
34.8695 24.1936
34.9162 24.1968
34.9631 24.0803
35.0098 24.1323
35.0566 23.9315
35.1033 23.9186
35.1502 23.8838
35.1969 23.8338
35.2438 23.7763
35.2906 23.6517
35.3375 23.7012
35.3842 23.568
35.4311 23.5765
35.4779 23.5639
35.5248 23.5484
35.5716 23.3793
35.6185 23.3225
35.6653 23.215
35.7123 23.1651
35.759 23.0086
35.806 22.9463
35.8528 22.8089
35.8998 22.8512
35.9468 22.7872
35.9936 22.781
36.0406 22.6313
36.0874 22.6641
36.1345 22.5127
36.1813 22.5121
36.2283 22.292
36.2752 22.2296
36.3222 22.269
36.3691 22.2678
36.4161 22.0708
36.463 22.1203
36.5101 22.072
36.557 22.0432
36.6041 21.9225
36.651 21.8575
36.6981 21.7572
36.745 21.7525
36.7921 21.6307
36.839 21.4351
36.8861 21.4356
36.9331 21.3911
36.9802 21.2062
37.0272 21.2038
37.0743 21.1322
37.1213 21.0912
37.1684 21.1199
37.2154 20.9938
37.2626 20.9493
37.3098 20.8804
37.3568 20.7466
37.404 20.7779
37.451 20.595
37.4982 20.5859
37.5452 20.5013
37.5924 20.4273
37.6395 20.515
37.6867 20.3359
37.7337 20.2841
37.781 20.185
37.8281 20.159
37.8753 20.0747
37.9224 19.9878
37.9697 19.9397
38.0168 19.8465
38.064 19.7997
38.1111 19.7437
38.1584 19.6448
38.2056 19.5797
38.2529 19.562
38.3 19.5118
38.3473 19.5242
38.3945 19.3618
38.4418 19.3219
38.489 19.2337
38.5363 19.1444
38.5837 19.1384
38.6309 19.061
38.6782 19.0443
38.7254 18.905
38.7728 18.8631
38.82 18.7741
38.8674 18.7307
38.9146 18.6603
38.9621 18.6668
39.0093 18.6142
39.0567 18.4979
39.104 18.4716
39.1514 18.3664
39.1987 18.3968
39.2461 18.3366
39.2934 18.2713
39.3409 18.2334
39.3882 18.1084
39.4356 18.0781
39.483 17.9922
39.5304 17.9598
39.5778 17.9076
39.6253 17.8742
39.6726 17.8142
39.7201 17.7631
39.7675 17.6836
39.815 17.5723
39.8624 17.562
39.9099 17.5023
39.9575 17.4152
40.0049 17.3655
40.0525 17.3292
40.0999 17.3112
40.1474 17.2731
40.1949 17.1708
40.2425 17.1391
40.2899 17.1182
40.3375 16.9847
40.385 17.0028
40.4326 16.9046
40.48 16.809
40.5277 16.8196
40.5752 16.743
40.6228 16.6268
40.6703 16.6772
40.718 16.6255
40.7655 16.5949
40.8132 16.4583
40.8607 16.4431
40.9084 16.4077
40.9559 16.3669
41.0036 16.2778
41.0512 16.2388
41.0989 16.1855
41.1465 16.0756
41.1942 16.0491
41.242 15.9816
41.2896 15.8967
41.3373 15.9181
41.3849 15.8563
41.4327 15.7641
41.4803 15.7414
41.5281 15.6506
41.5758 15.5922
41.6236 15.6166
41.6712 15.5345
41.7191 15.4883
41.7667 15.4067
41.8146 15.4513
41.8622 15.2738
41.9101 15.2189
41.9578 15.1761
42.0057 15.1111
42.0534 15.1214
42.1013 15.0648
42.149 15.0052
42.1969 14.92
42.2446 14.9031
42.2925 14.8909
42.3403 14.8295
42.3882 14.7474
42.436 14.7556
42.4839 14.626
42.5319 14.6633
42.5797 14.5817
42.6277 14.5792
42.6755 14.5115
42.7235 14.3698
42.7713 14.3878
42.8193 14.3437
42.8671 14.2423
42.9152 14.2444
42.963 14.2044
43.0111 14.1392
43.0589 14.0475
43.107 14.0097
43.1549 14.0429
43.2029 13.9357
43.2508 13.9124
43.2989 13.8404
43.3468 13.8063
43.3949 13.7296
43.4429 13.7022
43.491 13.6281
43.5389 13.6111
43.5871 13.5907
43.635 13.5472
43.6832 13.4698
43.7312 13.3877
43.7793 13.3745
43.8273 13.3167
43.8755 13.2387
43.9237 13.1814
43.9717 13.2219
44.0199 13.164
44.068 13.1106
44.1162 13.0553
44.1642 13.0372
44.2125 12.9769
44.2606 12.9176
44.3088 12.8523
44.3569 12.8322
44.4052 12.8007
44.4533 12.7194
44.5016 12.7029
44.5497 12.621
44.598 12.6513
44.6461 12.5114
44.6945 12.5221
44.7426 12.4939
44.791 12.4116
44.8391 12.4082
44.8875 12.3332
44.9357 12.335
44.984 12.2283
45.0322 12.2312
45.0806 12.1268
45.1288 12.1143
45.1773 12.0753
45.2257 12.0574
45.2739 11.97
45.3224 12.0091
45.3706 11.9056
45.4191 11.8431
45.4673 11.8136
45.5158 11.7987
45.5641 11.7068
45.6126 11.7117
45.6609 11.6292
45.7094 11.6018
45.7577 11.6147
45.8063 11.4953
45.8546 11.5199
45.9031 11.4614
45.9515 11.3758
46.0001 11.3529
46.0484 11.3084
46.097 11.3004
46.1454 11.2657
46.194 11.2129
46.2424 11.1856
46.291 11.0949
46.3395 11.0751
46.3881 11.0133
46.4365 11.0527
46.4852 10.9512
46.5337 10.9283
46.5823 10.9553
46.631 10.8221
46.6795 10.8025
46.7282 10.7514
46.7767 10.7149
46.8254 10.7105
46.8739 10.6822
46.9226 10.584
46.9712 10.5722
47.0199 10.5112
47.0685 10.5301
47.1173 10.4705
47.1658 10.3986
47.2146 10.4172
47.2632 10.3145
47.312 10.3325
47.3606 10.2513
47.4095 10.2547
47.4581 10.2007
47.5069 10.1714
47.5556 10.0956
47.6044 10.0546
47.6531 10.0159
47.702 9.98756
47.7507 9.94871
47.7996 9.94611
47.8483 9.87993
47.8972 9.85568
47.9461 9.82825
47.9948 9.77743
48.0438 9.72356
48.0925 9.7349
48.1415 9.67193
48.1902 9.65641
48.2392 9.64277
48.288 9.62937
48.337 9.5299
48.3858 9.51931
48.4348 9.46078
48.4837 9.45912
48.5327 9.39484
48.5815 9.3571
48.6306 9.33803
48.6795 9.32394
48.7285 9.25632
48.7774 9.26317
48.8265 9.21636
48.8754 9.1573
48.9245 9.12596
48.9734 9.11265
49.0226 9.0703
49.0715 9.04621
49.1206 8.96138
49.1696 8.98664
49.2188 8.92436
49.2679 8.86778
49.3169 8.83431
49.3661 8.81808
49.4151 8.77024
49.4643 8.77617
49.5134 8.74903
49.5626 8.67106
49.6117 8.65395
49.6609 8.62841
49.71 8.56101
49.7592 8.54749
49.8083 8.54986
49.8576 8.5215
49.9067 8.42196
49.956 8.40754
50.0052 8.35748
50.0545 8.33893
50.1036 8.34827
50.153 8.3273
50.2022 8.26325
50.2515 8.19822
50.3007 8.19267
50.3501 8.16429
50.3993 8.11327
50.4487 8.12422
50.498 8.07225
50.5474 8.02635
50.5966 7.99636
50.6461 7.97408
50.6955 7.92943
50.7448 7.91392
50.7943 7.8853
50.8436 7.87018
50.8931 7.84684
50.9424 7.78575
50.9919 7.77
51.0413 7.71975
51.0908 7.68742
51.1402 7.70341
51.1897 7.64916
51.2391 7.62861
51.2887 7.59397
51.3381 7.5686
51.3877 7.54802
51.4371 7.50117
51.4867 7.44773
51.5362 7.43702
51.5858 7.3914
51.6353 7.36585
51.6849 7.28925
51.7344 7.28941
51.7841 7.31538
51.8336 7.22821
51.8833 7.19641
51.9328 7.16323
51.9826 7.11756
52.0323 7.09338
52.0818 7.09996
52.1316 7.06424
52.1812 7.01905
52.231 7.02536
52.2806 7.0042
52.3304 6.9769
52.38 6.93998
52.4298 6.9041
52.4794 6.86133
52.5293 6.84711
52.5789 6.76864
52.6288 6.78608
52.6785 6.722
52.7284 6.71724
52.7781 6.73399
52.828 6.70175
52.8777 6.61792
52.9276 6.5751
52.9774 6.58593
53.0273 6.56692
53.0771 6.51362
53.1271 6.52768
53.1769 6.46217
53.2269 6.46809
53.2767 6.40956
53.3267 6.41412
53.3765 6.33676
53.4266 6.38365
53.4766 6.32556
53.5265 6.27614
53.5765 6.24705
53.6264 6.20766
53.6765 6.22821
53.7264 6.16069
53.7765 6.16224
53.8265 6.10757
53.8766 6.12054
53.9266 6.08314
53.9767 6.04098
54.0267 6.00375
54.0769 6.00582
54.1269 5.95121
54.1771 5.96719
54.2271 5.91821
54.2773 5.86731
54.3274 5.83822
54.3776 5.8046
54.4277 5.80062
54.478 5.76837
54.528 5.73762
54.5783 5.65051
54.6285 5.65789
54.6788 5.61
54.7289 5.55273
54.7792 5.54256
54.8296 5.42359
54.8798 5.39224
54.9301 5.44184
54.9803 5.36323
55.0307 5.34681
55.0809 5.27817
55.1314 5.28352
55.1816 5.20501
55.232 5.16873
55.2823 5.14019
55.3328 5.0724
55.383 5.03554
55.4335 4.99557
55.4838 4.9599
55.5344 4.88218
55.5847 4.83455
55.6352 4.81951
55.6856 4.76782
55.7361 4.70068