File: XRD/Ni3Fe_FD0812.xy
TT I
1.27165 7.64838
1.31627 7.0216
1.36089 7.09757
1.40551 6.18742
1.45013 6.23154
1.49476 5.77768
1.53938 5.70524
1.584 5.4837
1.62863 5.6502
1.67325 5.14913
1.71787 5.12456
1.7625 4.93226
1.80712 4.71657
1.85174 4.82366
1.89636 5.21961
1.94099 4.44898
1.98562 4.86676
2.03025 4.64164
2.07487 4.36247
2.11949 5.61049
2.16411 5.05033
2.20874 8.77589
2.25338 11.5009
2.298 5.29497
2.34263 5.39891
2.38725 5.91242
2.43188 6.19019
2.4765 7.29177
2.52115 6.96318
2.56577 7.34802
2.6104 8.54719
2.65503 7.90706
2.69965 8.22898
2.7443 8.31283
2.78893 8.18169
2.83356 8.59742
2.87818 8.75833
2.92281 9.08446
2.96744 9.56212
3.01209 10.3964
3.05672 11.2808
3.10135 12.5597
3.14599 13.1919
3.19062 14.7401
3.23527 14.8633
3.2799 15.3361
3.32454 16.494
3.36917 17.6985
3.4138 18.9227
3.45844 19.4795
3.50309 20.4148
3.54773 21.3832
3.59237 23.0093
3.637 51.2342
3.68164 37.2833
3.7263 25.4968
3.77094 25.9823
3.81558 26.0948
3.86022 27.2499
3.90486 29.065
3.9495 29.3133
3.99416 30.7457
4.0388 31.1062
4.08344 32.8594
4.12809 34.1401
4.17273 35.6807
4.21738 39.286
4.26204 124.512
4.30669 109.285
4.35133 44.2084
4.39598 43.1395
4.44063 48.263
4.4853 54.3764
4.52995 56.2332
4.5746 56.7879
4.61925 53.6109
4.6639 55.2603
4.70855 57.7886
4.75322 61.3001
4.79788 67.8426
4.84253 67.9952
4.88719 74.5979
4.93184 76.4098
4.97652 80.6856
5.02118 87.0119
5.06583 94.4535
5.11049 105.703
5.15515 156.305
5.19981 399.033
5.24449 2858.82
5.28916 12321.9
5.33382 2467.25
5.37848 189.585
5.42315 129.404
5.46783 118.235
5.5125 111.163
5.55716 101.644
5.60183 97.6029
5.6465 95.6723
5.69117 93.627
5.73586 92.5343
5.78053 97.3436
5.8252 97.4473
5.86988 99.6964
5.91455 94.7874
5.95924 104.184
6.00392 240.215
6.0486 971.095
6.09328 4567.84
6.13795 2996.55
6.18263 203.306
6.22733 89.448
6.27201 79.7107
6.3167 85.3738
6.36138 74.2693
6.40606 69.4006
6.45075 69.2876
6.49545 65.064
6.54014 62.7107
6.58483 62.2608
6.62952 62.5351
6.67421 74.256
6.71892 91.2855
6.76361 61.9651
6.8083 58.8525
6.853 59.429
6.89769 56.4892
6.94239 55.7749
6.98711 55.0873
7.03181 55.4167
7.07651 54.5167
7.12121 54.7316
7.16591 55.7609
7.21063 55.2328
7.25533 60.9256
7.30004 103.367
7.34475 68.1682
7.38945 54.674
7.43416 53.4773
7.47889 53.1613
7.5236 53.9657
7.56831 54.4995
7.61303 55.0545
7.65774 55.8964
7.70247 56.7324
7.74719 55.9012
7.79191 55.8986
7.83663 56.1208
7.88135 57.5066
7.92607 58.0719
7.97081 59.2548
8.01553 60.7521
8.06026 62.2137
8.10498 63.7826
8.14971 70.6053
8.19446 70.3522
8.23919 68.9556
8.28392 71.4588
8.32865 73.8501
8.37339 77.8862
8.41812 83.5934
8.46288 102.927
8.50761 177.815
8.55235 385.046
8.59709 1220.6
8.64183 2163.26
8.68658 836.708
8.73134 145.75
8.77609 96.8958
8.82083 91.8936
8.86558 91.9201
8.91033 91.4705
8.9551 89.0342
8.99985 84.9837
9.04461 83.6876
9.08936 83.5554
9.13412 82.5642
9.17888 81.7279
9.22365 81.9527
9.26841 81.8105
9.31318 84.1316
9.35794 85.7325
9.4027 85.5071
9.44749 84.8568
9.49226 84.3717
9.53703 85.6312
9.5818 88.7402
9.62657 94.2048
9.67134 95.3883
9.71614 92.1953
9.76091 94.7099
9.80569 98.9118
9.85047 100.937
9.89525 112.094
9.94005 127.401
9.98484 190.362
10.0296 345.673
10.0744 839.964
10.1192 1813.84
10.164 1497.05
10.2088 347.143
10.2536 119.941
10.2984 108.755
10.3432 107.993
10.388 104.89
10.4328 121.709
10.4776 161.871
10.5224 295.014
10.5672 538.277
10.612 483.641
10.6568 181.948
10.7017 93.604
10.7465 85.5567
10.7913 82.4896
10.8361 80.2459
10.8809 78.1688
10.9257 77.4704
10.9706 77.7687
11.0154 74.7161
11.0602 72.2918
11.105 70.9574
11.1499 71.6544
11.1947 73.9821
11.2395 69.8972
11.2844 68.1424
11.3292 66.7902
11.374 65.6001
11.4189 64.8987
11.4637 64.4211
11.5086 64.0617
11.5534 65.2018
11.5983 63.6262
11.6431 62.7762
11.688 62.1937
11.7328 62.5373
11.7777 62.3253
11.8225 62.353
11.8674 62.0038
11.9122 62.3793
11.9571 62.5032
12.002 64.2471
12.0468 68.457
12.0917 78.3232
12.1366 103.265
12.1814 159.324
12.2263 217.165
12.2712 164.195
12.3161 86.8877
12.3609 66.2061
12.4058 63.7772
12.4507 63.6231
12.4956 64.0825
12.5405 64.6878
12.5853 64.9392
12.6302 67.8748
12.6751 70.8355
12.72 67.5816
12.7649 67.088
12.8098 67.9156
12.8547 69.3407
12.8996 70.8954
12.9445 72.3906
12.9894 74.1415
13.0343 75.5269
13.0792 80.0371
13.1242 92.087
13.1691 111.328
13.214 149.844
13.2589 250.718
13.3038 391.451
13.3487 413.485
13.3937 234.673
13.4386 117.496
13.4835 105.826
13.5285 120.32
13.5734 161.377
13.6183 259.05
13.6633 367.623
13.7082 326.67
13.7531 167.232
13.7981 92.7398
13.843 80.8883
13.888 78.8702
13.9329 76.6299
13.9779 75.2414
14.0228 73.6808
14.0678 72.4921
14.1127 71.7549
14.1577 71.4636
14.2027 70.6704
14.2476 69.6312
14.2926 69.3345
14.3376 69.8075
14.3825 69.1199
14.4275 68.3815
14.4725 68.1203
14.5175 68.0376
14.5624 68.4569
14.6074 69.5323
14.6524 70.0924
14.6974 70.1591
14.7424 73.398
14.7874 79.1512
14.8324 88.6816
14.8774 112.195
14.9224 160.44
14.9674 219.224
15.0124 218.728
15.0574 138.656
15.1024 85.2436
15.1474 71.0583
15.1924 69.6146
15.2374 68.9501
15.2824 68.2708
15.3274 66.9726
15.3725 66.3361
15.4175 65.7245
15.4625 65.3943
15.5076 65.2919
15.5526 65.3414
15.5976 65.2349
15.6426 67.8705
15.6877 72.7119
15.7327 79.434
15.7778 95.326
15.8228 130.775
15.8679 179.492
15.9129 196.609
15.958 145.402
16.003 87.9089
16.0481 65.4696
16.0931 62.3026
16.1382 61.0213
16.1833 59.4896
16.2283 58.3101
16.2734 57.61
16.3185 57.288
16.3636 57.2304
16.4086 56.2816
16.4537 55.4685
16.4988 54.8748
16.5439 54.922
16.589 54.7212
16.6341 54.5455
16.6792 54.0435
16.7243 54.159
16.7694 54.2521
16.8145 54.1056
16.8596 54.4751
16.9047 55.1255
16.9498 55.3697
16.9949 54.9133
17.04 55.6583
17.0851 56.6768
17.1302 58.3552
17.1754 61.4032
17.2205 66.9024
17.2656 75.3249
17.3108 83.2712
17.3559 80.4767
17.401 68.3006
17.4462 60.4742
17.4913 58.8347
17.5365 58.6412
17.5815 58.8086
17.6268 59.2398
17.6718 59.7132
17.7171 60.2709
17.7622 60.8493
17.8074 62.1182
17.8525 64.8477
17.8977 67.909
17.9428 73.1904
17.9881 83.0063
18.0331 101.813
18.0784 125.657
18.1237 141.544
18.1688 126.662
18.214 98.5688
18.2591 84.8997
18.3044 91.2378
18.3495 101.912
18.3948 104.779
18.4399 91.7127
18.4852 73.9021
18.5303 64.6224
18.5756 61.2741
18.6207 60.681
18.666 59.77
18.7112 59.2035
18.7565 58.3433
18.8016 58.0525
18.8469 57.4599
18.892 57.0536
18.9374 56.8362
18.9825 56.5031
19.0278 56.4171
19.073 56.544
19.1183 56.7239
19.1635 57.3412
19.2088 58.6838
19.254 61.9076
19.2993 66.6111
19.3447 72.4096
19.3898 75.5203
19.4352 69.716
19.4804 60.9557
19.5257 55.4816
19.5709 53.5904
19.6163 53.244
19.6615 53.3885
19.7068 53.0173
19.752 52.7362
19.7974 53.1719
19.8426 53.8392
19.888 54.3864
19.9332 55.9547
19.9786 58.564
20.0238 62.8878
20.0692 67.8567
20.1144 69.735
20.1598 66.9385
20.205 62.2139
20.2504 61.7036
20.2957 64.2204
20.3411 65.3299
20.3863 62.7041
20.4318 56.5511
20.477 52.367
20.5224 50.5685
20.5677 50.2417
20.6131 49.6258
20.6586 48.9487
20.7038 49.0034
20.7493 48.6059
20.7945 48.4397
20.84 48.3894
20.8853 48.3103
20.9307 48.1424
20.976 48.2615
21.0215 47.9723
21.0668 48.5612
21.1122 48.9736
21.1575 49.6347
21.203 50.4567
21.2483 51.1699
21.2938 50.8023
21.3391 49.2232
21.3846 48.2077
21.4299 48.0308
21.4754 47.981
21.5207 48.1301
21.5662 48.4764
21.6116 48.8258
21.6571 49.542
21.7024 50.4271
21.7479 52.4603
21.7933 55.4844
21.8388 58.9673
21.8843 62.8519
21.9297 64.0393
21.9752 61.773
22.0206 57.8288
22.0661 55.8027
22.1115 55.6898
22.157 55.158
22.2024 53.2205
22.248 50.4913
22.2933 49.1726
22.3389 48.45
22.3843 48.3206
22.4299 48.1691
22.4753 48.0616
22.5208 48.1612
22.5662 48.0119
22.6118 48.3554
22.6572 48.411
22.7028 48.754
22.7483 49.3987
22.7939 50.0069
22.8393 51.6506
22.8849 54.0729
22.9303 56.1622
22.9759 57.3926
23.0214 56.318
23.067 53.2912
23.1126 50.0158
23.1581 48.6681
23.2037 48.3568
23.2492 48.4247
23.2948 48.3812
23.3403 48.6725
23.3859 49.4072
23.4314 50.5739
23.477 52.4617
23.5225 54.832
23.5682 57.0147
23.6137 57.5086
23.6593 54.3827
23.7048 50.3224
23.7505 47.304
23.796 46.033
23.8417 45.5084
23.8872 44.9336
23.9329 44.7605
23.9784 44.4499
24.0241 43.992
24.0697 44.0194
24.1154 43.6653
24.1609 43.65
24.2066 43.2369
24.2522 43.17
24.2979 42.9178
24.3434 42.7468
24.3892 42.7181
24.4349 42.6246
24.4805 42.4891
24.5262 42.7312
24.5718 42.4773
24.6175 42.4072
24.6631 42.3427
24.7089 42.0127
24.7545 41.9337
24.8002 41.8462
24.8458 41.9338
24.8916 41.564
24.9372 41.8799
24.983 42.194
25.0286 42.6302
25.0744 42.9883
25.12 43.502
25.1658 44.1701
25.2114 44.361
25.2572 44.3304
25.3029 44.5128
25.3487 44.4564
25.3943 44.2358
25.4402 42.7698
25.4858 41.7709
25.5316 40.9558
25.5773 40.5122
25.6231 40.5127
25.669 40.1118
25.7147 39.9869
25.7605 40.0591
25.8062 40.0061
25.8521 40.1784
25.8977 40.3703
25.9436 40.5151
25.9893 40.5619
26.0352 41.1573
26.0809 41.1706
26.1268 41.3073
26.1725 40.8575
26.2184 40.3917
26.2641 39.8425
26.31 39.6613
26.3557 39.6598
26.4017 39.8279
26.4474 40.0854
26.4933 40.3551
26.5391 40.9053
26.585 41.4528
26.6308 41.8565
26.6767 41.7198
26.7225 41.4932
26.7684 40.9075
26.8142 40.3776
26.8601 39.9624
26.9059 39.6115
26.9519 38.964
26.9979 38.8254
27.0437 38.4375
27.0896 38.1864
27.1354 38.3782
27.1814 38.2602
27.2272 38.1541
27.2732 38.1341
27.3191 37.8937
27.3651 38.0719
27.4109 38.0944
27.4569 38.1798
27.5027 38.2292
27.5488 38.2827
27.5946 38.0017
27.6407 37.7777
27.6865 37.6897
27.7326 37.5223
27.7784 37.6242
27.8245 37.5189
27.8703 37.7357
27.9164 37.9652
27.9623 38.1148
28.0084 38.4251
28.0543 38.8288
28.1003 38.6592
28.1462 38.5234
28.1923 38.0119
28.2384 37.5035
28.2843 37.1071
28.3304 36.679
28.3764 36.2614
28.4225 35.9562
28.4684 35.9126
28.5145 35.6137
28.5605 35.487
28.6066 35.2417
28.6526 35.2294
28.6987 35.2747
28.7447 35.0842
28.7908 35.0491
28.8368 35.1607
28.8829 35.0129
28.9289 35.0499
28.9751 34.7259
29.0211 34.6041
29.0673 34.216
29.1133 34.1336
29.1595 34.0722
29.2055 34.0062
29.2517 33.8634
29.2977 33.8811
29.3439 33.9327
29.3899 33.8607
29.4361 33.7046
29.4824 33.6106
29.5284 33.2594
29.5746 33.1269
29.6207 32.8642
29.6669 32.7719
29.713 32.6219
29.7593 32.5197
29.8053 32.5963
29.8516 32.3413
29.8977 32.4469
29.9439 32.3565
29.99 32.27
30.0363 32.0895
30.0824 32.1625
30.1287 32.1263
30.1748 32.1747
30.2211 32.0468
30.2673 31.9091
30.3136 31.9822
30.3597 31.9364
30.406 31.7943
30.4522 31.7714
30.4985 31.7117
30.5447 31.8571
30.591 31.841
30.6372 31.8544
30.6835 31.8767
30.7297 31.9423
30.7761 31.8409
30.8224 31.6522
30.8686 31.5389
30.915 31.2111
30.9612 31.2464
31.0076 30.9446
31.0538 30.9049
31.1002 30.8735
31.1464 30.5072
31.1928 30.5494
31.2391 30.6763
31.2855 30.582
31.3317 30.5977
31.3781 30.6617
31.4244 30.6055
31.4708 30.4857
31.5171 30.4602
31.5636 30.352
31.6098 30.198
31.6563 30.0577
31.7026 29.9838
31.7491 29.9167
31.7953 29.8292
31.8418 29.9336
31.8881 29.9128
31.9346 29.7354
31.9809 29.7128
32.0275 29.6209
32.074 29.5185
32.1203 29.3147
32.1668 29.2524
32.2132 29.0357
32.2597 28.9049
32.306 28.9494
32.3526 28.6834
32.399 28.6115
32.4455 28.442
32.4919 28.3613
32.5385 28.2869
32.5848 28.2706
32.6314 28.2631
32.6778 28.1823
32.7244 28.0284
32.7708 27.825
32.8174 27.913
32.8638 27.7133
32.9104 27.8802
32.9569 27.8082
33.0035 27.601
33.0499 27.5981
33.0966 27.4843
33.143 27.55
33.1897 27.3622
33.2361 27.2748
33.2828 27.2882
33.3293 27.1159
33.3759 27.0576
33.4226 27.0164
33.4691 26.8349
33.5158 26.7382
33.5623 26.6238
33.609 26.4699
33.6555 26.451
33.7022 26.2745
33.7487 26.3598
33.7954 26.2393
33.842 26.0705
33.8887 26.0279
33.9353 25.9516
33.982 25.8729
34.0286 25.7805
34.0753 25.6745
34.1219 25.5801
34.1687 25.5612
34.2152 25.4497
34.262 25.3518
34.3086 25.2485
34.3554 25.2845
34.402 25.1067
34.4488 25.0223
34.4954 24.8752
34.5422 24.9342
34.5889 24.8414
34.6357 24.8012
34.6825 24.6961
34.7292 24.6183
34.776 24.4434
34.8227 24.44
34.8695 24.4175
34.9162 24.3358
34.9631 24.2267
35.0098 24.3083
35.0566 24.1245
35.1033 24.1544
35.1502 24.1084
35.1969 23.9347
35.2438 23.9084
35.2906 23.7935
35.3375 23.8257
35.3842 23.7524
35.4311 23.7424
35.4779 23.704
35.5248 23.6134
35.5716 23.4323
35.6185 23.4657
35.6653 23.3483
35.7123 23.2505
35.759 23.2217
35.806 23.1514
35.8528 22.8963
35.8998 22.9535
35.9468 22.894
35.9936 22.8719
36.0406 22.7622
36.0874 22.756
36.1345 22.6731
36.1813 22.6731
36.2283 22.5157
36.2752 22.3799
36.3222 22.3563
36.3691 22.3365
36.4161 22.18
36.463 22.2052
36.5101 22.2207
36.557 22.1249
36.6041 21.9986
36.651 21.9354
36.6981 21.9032
36.745 21.7959
36.7921 21.7636
36.839 21.6312
36.8861 21.5966
36.9331 21.5122
36.9802 21.4263
37.0272 21.3515
37.0743 21.3194
37.1213 21.2459
37.1684 21.2319
37.2154 21.1032
37.2626 21.0202
37.3098 20.9772
37.3568 20.9507
37.404 20.8832
37.451 20.7477
37.4982 20.7452
37.5452 20.5768
37.5924 20.5159
37.6395 20.6124
37.6867 20.4822
37.7337 20.3882
37.781 20.3085
37.8281 20.2982
37.8753 20.0849
37.9224 20.1354
37.9697 20.0228
38.0168 20.0555
38.064 19.8644
38.1111 19.9302
38.1584 19.8425
38.2056 19.7489
38.2529 19.6798
38.3 19.6771
38.3473 19.6434
38.3945 19.4483
38.4418 19.4562
38.489 19.464
38.5363 19.3764
38.5837 19.2012
38.6309 19.2302
38.6782 19.1409
38.7254 18.9999
38.7728 19.0082
38.82 18.943
38.8674 18.8948
38.9146 18.8227
38.9621 18.7508
39.0093 18.7332
39.0567 18.6957
39.104 18.6181
39.1514 18.5022
39.1987 18.5106
39.2461 18.3788
39.2934 18.4211
39.3409 18.2818
39.3882 18.1643
39.4356 18.1751
39.483 18.0801
39.5304 18.0939
39.5778 18.089
39.6253 17.9038
39.6726 17.9015
39.7201 17.8369
39.7675 17.7983
39.815 17.728
39.8624 17.7089
39.9099 17.7013
39.9575 17.5542
40.0049 17.4253
40.0525 17.3851
40.0999 17.4029
40.1474 17.3611
40.1949 17.2508
40.2425 17.2284
40.2899 17.1958
40.3375 17.1274
40.385 17.004
40.4326 17.0425
40.48 16.9546
40.5277 16.9035
40.5752 16.846
40.6228 16.7601
40.6703 16.7199
40.718 16.729
40.7655 16.6602
40.8132 16.5769
40.8607 16.5591
40.9084 16.5037
40.9559 16.4582
41.0036 16.4377
41.0512 16.3857
41.0989 16.3003
41.1465 16.2374
41.1942 16.1641
41.242 16.0377
41.2896 16.0532
41.3373 15.9986
41.3849 15.9598
41.4327 15.9283
41.4803 15.7808
41.5281 15.8359
41.5758 15.7353
41.6236 15.6214
41.6712 15.6732
41.7191 15.5703
41.7667 15.4701
41.8146 15.4868
41.8622 15.4167
41.9101 15.3805
41.9578 15.2415
42.0057 15.2709
42.0534 15.1862
42.1013 15.1963
42.149 15.1038
42.1969 15.0914
42.2446 14.9907
42.2925 14.968
42.3403 14.9021
42.3882 14.9031
42.436 14.8432
42.4839 14.7253
42.5319 14.7324
42.5797 14.6714
42.6277 14.618
42.6755 14.5741
42.7235 14.5113
42.7713 14.4755
42.8193 14.4262
42.8671 14.3802
42.9152 14.3387
42.963 14.2895
43.0111 14.241
43.0589 14.1598
43.107 14.0904
43.1549 14.091
43.2029 14.0119
43.2508 14.0123
43.2989 13.8594
43.3468 13.8711
43.3949 13.8428
43.4429 13.8264
43.491 13.7344
43.5389 13.6794
43.5871 13.6411
43.635 13.6419
43.6832 13.5402
43.7312 13.5008
43.7793 13.4513
43.8273 13.4322
43.8755 13.3527
43.9237 13.3298
43.9717 13.2742
44.0199 13.2714
44.068 13.2206
44.1162 13.0979
44.1642 13.1425
44.2125 13.0771
44.2606 12.9836
44.3088 12.9052
44.3569 12.9036
44.4052 12.8418
44.4533 12.792
44.5016 12.7205
44.5497 12.7302
44.598 12.6704
44.6461 12.6493
44.6945 12.549
44.7426 12.5495
44.791 12.541
44.8391 12.4676
44.8875 12.4304
44.9357 12.3509
44.984 12.3442
45.0322 12.308
45.0806 12.2492
45.1288 12.1829
45.1773 12.1752
45.2257 12.1011
45.2739 12.0556
45.3224 12.0574
45.3706 11.9728
45.4191 11.9124
45.4673 11.9178
45.5158 11.8252
45.5641 11.8207
45.6126 11.7726
45.6609 11.7156
45.7094 11.6408
45.7577 11.6338
45.8063 11.5699
45.8546 11.5987
45.9031 11.4674
45.9515 11.5048
46.0001 11.4328
46.0484 11.4146
46.097 11.3683
46.1454 11.3062
46.194 11.3088
46.2424 11.2537
46.291 11.1819
46.3395 11.1558
46.3881 11.0692
46.4365 11.1143
46.4852 11.0715
46.5337 10.9613
46.5823 10.9928
46.631 10.8986
46.6795 10.8853
46.7282 10.8049
46.7767 10.8044
46.8254 10.7756
46.8739 10.7366
46.9226 10.6566
46.9712 10.6167
47.0199 10.5823
47.0685 10.5787
47.1173 10.4965
47.1658 10.5053
47.2146 10.4566
47.2632 10.3837
47.312 10.3777
47.3606 10.3333
47.4095 10.2668
47.4581 10.2674
47.5069 10.2319
47.5556 10.1369
47.6044 10.1262
47.6531 10.074
47.702 10.0374
47.7507 10.0114
47.7996 9.97488
47.8483 9.98247
47.8972 9.91038
47.9461 9.85646
47.9948 9.85376
48.0438 9.78148
48.0925 9.78422
48.1415 9.70844
48.1902 9.69576
48.2392 9.65824
48.288 9.6153
48.337 9.62252
48.3858 9.55451
48.4348 9.55231
48.4837 9.54155
48.5327 9.49577
48.5815 9.40241
48.6306 9.37465
48.6795 9.39341
48.7285 9.32899
48.7774 9.29963
48.8265 9.26891
48.8754 9.18856
48.9245 9.20402
48.9734 9.16452
49.0226 9.15074
49.0715 9.11909
49.1206 9.04538
49.1696 9.01163
49.2188 8.99794
49.2679 8.94222
49.3169 8.88794
49.3661 8.90222
49.4151 8.83776
49.4643 8.80543
49.5134 8.76311
49.5626 8.68159
49.6117 8.6826
49.6609 8.65689
49.71 8.62509
49.7592 8.60336
49.8083 8.54316
49.8576 8.55582
49.9067 8.47804
49.956 8.47623
50.0052 8.4547
50.0545 8.3936
50.1036 8.36451
50.153 8.32669
50.2022 8.29964
50.2515 8.26369
50.3007 8.2164
50.3501 8.19544
50.3993 8.18068
50.4487 8.1805
50.498 8.10478
50.5474 8.09637
50.5966 8.03872
50.6461 8.01008
50.6955 8.00868
50.7448 7.95585
50.7943 7.92889
50.8436 7.89636
50.8931 7.8771
50.9424 7.87887
50.9919 7.8017
51.0413 7.7694
51.0908 7.77085
51.1402 7.73245
51.1897 7.69035
51.2391 7.65663
51.2887 7.60232
51.3381 7.58119
51.3877 7.58875
51.4371 7.52994
51.4867 7.48697
51.5362 7.449
51.5858 7.46448
51.6353 7.40048
51.6849 7.37102
51.7344 7.35308
51.7841 7.3169
51.8336 7.26976
51.8833 7.27732
51.9328 7.19969
51.9826 7.20088
52.0323 7.1775
52.0818 7.15296
52.1316 7.08604
52.1812 7.06435
52.231 6.99451
52.2806 7.01362
52.3304 6.99691
52.38 6.96498
52.4298 6.93736
52.4794 6.89703
52.5293 6.86604
52.5789 6.81843
52.6288 6.80729
52.6785 6.76813
52.7284 6.77146
52.7781 6.74115
52.828 6.69665
52.8777 6.66667
52.9276 6.66983
52.9774 6.61851
53.0273 6.5906
53.0771 6.52718
53.1271 6.56503
53.1769 6.50641
53.2269 6.49574
53.2767 6.48882
53.3267 6.44575
53.3765 6.42151
53.4266 6.37713
53.4766 6.34487
53.5265 6.30195
53.5765 6.31388
53.6264 6.27265
53.6765 6.23302
53.7264 6.2425
53.7765 6.16214
53.8265 6.16364
53.8766 6.1499
53.9266 6.11895
53.9767 6.07326
54.0267 6.00125
54.0769 6.02981
54.1269 5.99246
54.1771 5.92202
54.2271 5.95119
54.2773 5.89133
54.3274 5.87455
54.3776 5.8339
54.4277 5.79424
54.478 5.77443
54.528 5.74405
54.5783 5.68318
54.6285 5.61241
54.6788 5.65021
54.7289 5.55266
54.7792 5.55671
54.8296 5.46079
54.8798 5.47272
54.9301 5.45165
54.9803 5.43891
55.0307 5.39277
55.0809 5.32193
55.1314 5.27452
55.1816 5.21131
55.232 5.16575
55.2823 5.13246
55.3328 5.125
55.383 4.99073
55.4335 5.0248
55.4838 4.91673
55.5344 4.92787
55.5847 4.87245
55.6352 4.8552
55.6856 4.82478
55.7361 4.70661