File: XRD/Ni3Fe_FD0082.xy
TT I
1.27165 10.4006
1.31627 8.79273
1.36089 8.81649
1.40551 8.51551
1.45013 7.10026
1.49476 7.85111
1.53938 7.42419
1.584 7.14628
1.62863 6.78804
1.67325 7.40537
1.71787 6.869
1.7625 6.50883
1.80712 6.3585
1.85174 6.94123
1.89636 6.20982
1.94099 6.3678
1.98562 6.84645
2.03025 6.45924
2.07487 5.69633
2.11949 6.27858
2.16411 5.75017
2.20874 5.37588
2.25338 5.506
2.298 5.41824
2.34263 5.16805
2.38725 4.99831
2.43188 4.48895
2.4765 4.71415
2.52115 4.50705
2.56577 4.96915
2.6104 5.02637
2.65503 4.30281
2.69965 5.54356
2.7443 5.81795
2.78893 6.12758
2.83356 7.24725
2.87818 7.8376
2.92281 7.98726
2.96744 9.30047
3.01209 10.1557
3.05672 11.4945
3.10135 12.2963
3.14599 13.6944
3.19062 14.3684
3.23527 15.1477
3.2799 16.0936
3.32454 16.719
3.36917 17.079
3.4138 18.5375
3.45844 19.2078
3.50309 20.375
3.54773 20.5918
3.59237 21.3176
3.637 22.4927
3.68164 23.1803
3.7263 24.0012
3.77094 24.5547
3.81558 25.1348
3.86022 25.8433
3.90486 27.2893
3.9495 28.2665
3.99416 29.2508
4.0388 30.5848
4.08344 31.6564
4.12809 32.4175
4.17273 33.5151
4.21738 34.4674
4.26204 36.1646
4.30669 37.1236
4.35133 39.5116
4.39598 40.7823
4.44063 42.629
4.4853 44.1766
4.52995 46.482
4.5746 48.1861
4.61925 50.942
4.6639 53.1654
4.70855 56.2875
4.75322 58.9209
4.79788 62.4678
4.84253 66.3857
4.88719 71.6032
4.93184 77.8526
4.97652 86.2857
5.02118 98.7529
5.06583 113.181
5.11049 137.228
5.15515 197.522
5.19981 762.773
5.24449 3443.61
5.28916 4825.96
5.33382 8226.16
5.37848 1222.76
5.42315 251.777
5.46783 160.346
5.5125 132.795
5.55716 120.233
5.60183 110.862
5.6465 106.473
5.69117 104.572
5.73586 101.776
5.78053 102.004
5.8252 103.999
5.86988 109.721
5.91455 121.926
5.95924 155.804
6.00392 385.268
6.0486 1340.67
6.09328 1531.04
6.13795 3490.36
6.18263 1277.36
6.22733 196.184
6.27201 109.035
6.3167 87.3693
6.36138 76.8047
6.40606 70.8981
6.45075 67.9509
6.49545 64.7148
6.54014 61.8438
6.58483 60.2124
6.62952 58.8343
6.67421 57.651
6.71892 56.4695
6.76361 55.6863
6.8083 54.4116
6.853 53.4818
6.89769 53.2242
6.94239 52.9042
6.98711 51.9546
7.03181 52.1368
7.07651 51.7163
7.12121 51.2232
7.16591 51.0055
7.21063 50.5238
7.25533 50.5549
7.30004 50.9126
7.34475 50.7716
7.38945 51.2831
7.43416 50.9926
7.47889 52.5624
7.5236 69.9605
7.56831 122.772
7.61303 75.5877
7.65774 54.6355
7.70247 53.4579
7.74719 52.7801
7.79191 53.4864
7.83663 53.8103
7.88135 54.3532
7.92607 55.6327
7.97081 56.2497
8.01553 57.3381
8.06026 58.9
8.10498 60.0293
8.14971 61.817
8.19446 63.4577
8.23919 66.4691
8.28392 69.5856
8.32865 72.6055
8.37339 78.0518
8.41812 85.3094
8.46288 102.273
8.50761 202.934
8.55235 634.385
8.59709 593.444
8.64183 769.769
8.68658 1773.9
8.73134 784.162
8.77609 156.347
8.82083 106.973
8.86558 94.3438
8.91033 89.0274
8.9551 85.4602
8.99985 84.0384
9.04461 82.3418
9.08936 82.042
9.13412 81.4954
9.17888 83.4142
9.22365 111.86
9.26841 195.034
9.31318 132.765
9.35794 86.475
9.4027 81.9325
9.44749 81.8893
9.49226 82.0321
9.53703 82.9186
9.5818 83.9729
9.62657 84.8783
9.67134 86.4329
9.71614 88.3365
9.76091 90.9483
9.80569 93.6903
9.85047 97.6916
9.89525 105.104
9.94005 119.789
9.98484 211.788
10.0296 582.293
10.0744 566.322
10.1192 490.462
10.164 1188.05
10.2088 1453.88
10.2536 389.913
10.2984 134.271
10.3432 113.074
10.388 107.103
10.4328 127.847
10.4776 227.067
10.5224 217.621
10.5672 187.461
10.612 346.124
10.6568 484.138
10.7017 218.66
10.7465 110.461
10.7913 85.5425
10.8361 79.615
10.8809 76.4094
10.9257 74.0068
10.9706 72.4312
11.0154 70.6957
11.0602 69.3433
11.105 67.9933
11.1499 66.5419
11.1947 65.2908
11.2395 64.3923
11.2844 64.1645
11.3292 63.1129
11.374 62.1929
11.4189 61.8386
11.4637 61.4284
11.5086 60.5523
11.5534 60.1648
11.5983 60.0069
11.6431 60.2287
11.688 59.5124
11.7328 59.4335
11.7777 59.709
11.8225 59.3697
11.8674 60.1465
11.9122 64.647
11.9571 84.261
12.002 85.3879
12.0468 73.8904
12.0917 92.3812
12.1366 100.659
12.1814 88.7165
12.2263 97.9529
12.2712 159.199
12.3161 175.816
12.3609 93.1194
12.4058 65.4115
12.4507 62.1253
12.4956 61.4004
12.5405 60.9179
12.5853 61.6334
12.6302 61.465
12.6751 62.0249
12.72 62.5274
12.7649 63.748
12.8098 64.4702
12.8547 65.5495
12.8996 66.8783
12.9445 68.3348
12.9894 70.2792
13.0343 72.6004
13.0792 79.2961
13.1242 91.8583
13.1691 141.143
13.214 187.955
13.2589 158.674
13.3038 146.252
13.3487 213.099
13.3937 383.255
13.4386 312.919
13.4835 151.108
13.5285 165.244
13.5734 176.001
13.6183 140.504
13.6633 140.609
13.7082 225.478
13.7531 349.202
13.7981 230.306
13.843 101.47
13.888 81.0369
13.9329 76.3296
13.9779 74.3506
14.0228 72.9263
14.0678 71.5948
14.1127 74.1882
14.1577 87.6338
14.2027 87.3584
14.2476 74.5585
14.2926 68.5136
14.3376 67.4339
14.3825 66.695
14.4275 66.1462
14.4725 65.8903
14.5175 65.8546
14.5624 65.978
14.6074 66.132
14.6524 66.6907
14.6974 67.5589
14.7424 69.6983
14.7874 80.5944
14.8324 108.87
14.8774 114.061
14.9224 98.326
14.9674 97.6152
15.0124 127.681
15.0574 201.408
15.1024 187.284
15.1474 101.318
15.1924 73.764
15.2374 68.2151
15.2824 66.0737
15.3274 64.974
15.3725 64.2737
15.4175 63.9513
15.4625 63.2877
15.5076 62.9717
15.5526 63.2485
15.5976 63.5792
15.6426 64.9971
15.6877 73.4513
15.7327 96.8438
15.7778 103.466
15.8228 90.0517
15.8679 85.4662
15.9129 99.2327
15.958 155.854
16.003 187.224
16.0481 124.11
16.0931 77.8629
16.1382 65.229
16.1833 60.0569
16.2283 57.5033
16.2734 56.3784
16.3185 55.5248
16.3636 54.7031
16.4086 54.0837
16.4537 53.6686
16.4988 53.199
16.5439 53.2161
16.589 52.9966
16.6341 52.5739
16.6792 52.2745
16.7243 52.3071
16.7694 52.1419
16.8145 52.1265
16.8596 52.4156
16.9047 53.4736
16.9498 55.2839
16.9949 55.1771
17.04 54.3191
17.0851 55.0362
17.1302 59.6657
17.1754 62.5147
17.2205 60.2324
17.2656 58.5993
17.3108 60.5901
17.3559 66.3978
17.401 78.6079
17.4462 77.9855
17.4913 64.1548
17.5365 57.802
17.5815 56.9309
17.6268 56.9865
17.6718 57.3624
17.7171 58.0234
17.7622 60.3236
17.8074 61.7923
17.8525 63.2256
17.8977 71.0313
17.9428 83.345
17.9881 83.829
18.0331 76.7385
18.0784 75.0585
18.1237 82.746
18.1688 111.841
18.214 149.918
18.2591 133.035
18.3044 88.9802
18.3495 73.7164
18.3948 75.5382
18.4399 90.1669
18.4852 102.911
18.5303 88.6078
18.5756 69.0414
18.6207 62.2581
18.666 59.6914
18.7112 58.1638
18.7565 57.1918
18.8016 56.8217
18.8469 56.0635
18.892 55.7566
18.9374 55.3157
18.9825 54.9496
19.0278 54.9081
19.073 55.0788
19.1183 55.5711
19.1635 58.1774
19.2088 60.2373
19.254 59.3442
19.2993 58.4604
19.3447 60.0358
19.3898 61.6101
19.4352 65.7735
19.4804 72.9637
19.5257 69.8599
19.5709 58.8262
19.6163 53.5002
19.6615 52.0828
19.7068 51.6405
19.752 51.5793
19.7974 51.5632
19.8426 52.8691
19.888 55.1436
19.9332 56.2388
19.9786 55.0446
20.0238 53.9331
20.0692 55.1152
20.1144 58.6005
20.1598 64.7823
20.205 69.8344
20.2504 66.7395
20.2957 58.2705
20.3411 54.8578
20.3863 57.2025
20.4318 63.1035
20.477 62.7157
20.5224 55.3776
20.5677 50.1192
20.6131 48.8397
20.6586 48.1733
20.7038 48.0383
20.7493 47.9036
20.7945 48.4772
20.84 48.2321
20.8853 47.5496
20.9307 46.9548
20.976 47.0453
21.0215 47.2931
21.0668 47.6451
21.1122 47.4507
21.1575 46.96
21.203 46.8135
21.2483 46.9976
21.2938 48.0897
21.3391 49.1023
21.3846 49.8559
21.4299 48.5283
21.4754 47.2722
21.5207 47.1191
21.5662 47.2041
21.6116 47.458
21.6571 49.689
21.7024 51.5669
21.7479 51.8991
21.7933 50.5452
21.8388 50.4237
21.8843 51.9223
21.9297 53.9093
21.9752 58.072
22.0206 63.7463
22.0661 62.7906
22.1115 56.2889
22.157 52.5686
22.2024 53.5071
22.248 54.8685
22.2933 53.363
22.3389 50.0096
22.3843 47.8237
22.4299 47.0971
22.4753 46.9487
22.5208 47.0634
22.5662 46.884
22.6118 46.9366
22.6572 47.2514
22.7028 48.4745
22.7483 49.8668
22.7939 50.295
22.8393 49.3813
22.8849 48.7799
22.9303 48.6721
22.9759 49.1674
23.0214 50.9729
23.067 55.1177
23.1126 57.184
23.1581 54.2074
23.2037 49.6739
23.2492 47.9121
23.2948 48.1694
23.3403 49.5731
23.3859 50.3842
23.4314 49.738
23.477 48.9261
23.5225 48.1762
23.5682 48.1978
23.6137 49.147
23.6593 52.1632
23.7048 56.3909
23.7505 56.133
23.796 50.8803
23.8417 46.4942
23.8872 44.8542
23.9329 44.2537
23.9784 43.6785
24.0241 43.5409
24.0697 43.3803
24.1154 42.8579
24.1609 42.5951
24.2066 42.3838
24.2522 42.359
24.2979 42.0905
24.3434 41.9085
24.3892 41.7903
24.4349 41.5415
24.4805 41.3887
24.5262 41.4215
24.5718 41.1888
24.6175 41.4146
24.6631 41.5943
24.7089 41.7709
24.7545 41.5597
24.8002 41.0924
24.8458 41.0513
24.8916 41.0599
24.9372 41.2384
24.983 41.3702
25.0286 41.3346
25.0744 41.5671
25.12 41.7801
25.1658 41.6933
25.2114 41.7502
25.2572 42.4146
25.3029 42.9271
25.3487 42.6155
25.3943 42.1074
25.4402 42.6137
25.4858 43.7806
25.5316 43.0473
25.5773 41.261
25.6231 40.3728
25.669 39.5017
25.7147 39.4377
25.7605 39.3733
25.8062 39.6879
25.8521 39.8509
25.8977 39.5713
25.9436 39.4582
25.9893 39.0663
26.0352 39.1711
26.0809 38.9873
26.1268 39.2605
26.1725 39.6199
26.2184 40.5136
26.2641 40.5946
26.31 40.1553
26.3557 39.8021
26.4017 39.4126
26.4474 39.3737
26.4933 39.0522
26.5391 39.1819
26.585 39.2606
26.6308 39.185
26.6767 39.2774
26.7225 39.881
26.7684 40.8933
26.8142 41.1271
26.8601 40.332
26.9059 39.5792
26.9519 39.2763
26.9979 39.1293
27.0437 38.5699
27.0896 37.9725
27.1354 37.6506
27.1814 37.639
27.2272 37.5608
27.2732 37.4666
27.3191 37.2094
27.3651 37.2559
27.4109 37.1175
27.4569 37.0614
27.5027 37.017
27.5488 36.9921
27.5946 36.9488
27.6407 37.2459
27.6865 37.5668
27.7326 37.3787
27.7784 37.3307
27.8245 37.081
27.8703 36.7746
27.9164 36.8679
27.9623 36.6476
28.0084 36.821
28.0543 36.9196
28.1003 36.846
28.1462 37.1728
28.1923 37.707
28.2384 37.7479
28.2843 37.1708
28.3304 36.7414
28.3764 36.6004
28.4225 36.2705
28.4684 35.8972
28.5145 35.2047
28.5605 35.0721
28.6066 34.8346
28.6526 34.7414
28.6987 34.5614
28.7447 34.3082
28.7908 34.2466
28.8368 34.0285
28.8829 34.0156
28.9289 33.9901
28.9751 33.9012
29.0211 33.9913
29.0673 33.9522
29.1133 33.9735
29.1595 33.5976
29.2055 33.3009
29.2517 33.1091
29.2977 32.8475
29.3439 32.8375
29.3899 32.7582
29.4361 32.5927
29.4824 32.7718
29.5284 32.8269
29.5746 32.8908
29.6207 32.537
29.6669 32.1934
29.713 32.0387
29.7593 31.8433
29.8053 31.784
29.8516 31.6629
29.8977 31.6784
29.9439 31.6401
29.99 31.4841
30.0363 31.4033
30.0824 31.4171
30.1287 31.32
30.1748 31.2885
30.2211 31.2221
30.2673 30.967
30.3136 31.3174
30.3597 31.3926
30.406 31.4163
30.4522 31.1476
30.4985 30.9797
30.5447 30.978
30.591 30.8837
30.6372 30.8402
30.6835 30.6583
30.7297 30.6993
30.7761 30.7838
30.8224 30.9964
30.8686 31.1094
30.915 30.9317
30.9612 30.7515
31.0076 30.6568
31.0538 30.4413
31.1002 30.4286
31.1464 30.0402
31.1928 30.0883
31.2391 29.9681
31.2855 29.814
31.3317 29.779
31.3781 29.7979
31.4244 29.759
31.4708 29.6511
31.5171 29.5449
31.5636 29.6683
31.6098 29.7159
31.6563 29.6504
31.7026 29.6464
31.7491 29.3133
31.7953 29.1838
31.8418 29.1051
31.8881 28.9733
31.9346 28.8843
31.9809 28.8643
32.0275 28.8154
32.074 28.9318
32.1203 28.9365
32.1668 28.8059
32.2132 28.6659
32.2597 28.4752
32.306 28.382
32.3526 28.1331
32.399 28.0709
32.4455 27.8726
32.4919 27.702
32.5385 27.6616
32.5848 27.5543
32.6314 27.6202
32.6778 27.4248
32.7244 27.3048
32.7708 27.3009
32.8174 27.2507
32.8638 27.1511
32.9104 27.1056
32.9569 27.092
33.0035 26.9441
33.0499 26.9886
33.0966 26.8032
33.143 26.7386
33.1897 26.6613
33.2361 26.5543
33.2828 26.6427
33.3293 26.4954
33.3759 26.4622
33.4226 26.4764
33.4691 26.3618
33.5158 26.2937
33.5623 26.1721
33.609 25.8941
33.6555 25.8783
33.7022 25.7745
33.7487 25.6101
33.7954 25.5827
33.842 25.4801
33.8887 25.4404
33.9353 25.3784
33.982 25.2526
34.0286 25.1883
34.0753 25.1865
34.1219 25.032
34.1687 24.9637
34.2152 24.8545
34.262 24.7528
34.3086 24.6362
34.3554 24.6435
34.402 24.4316
34.4488 24.4371
34.4954 24.3262
34.5422 24.2901
34.5889 24.2271
34.6357 24.1077
34.6825 24.0184
34.7292 23.9982
34.776 23.8654
34.8227 23.8084
34.8695 23.807
34.9162 23.6528
34.9631 23.5738
35.0098 23.6497
35.0566 23.4769
35.1033 23.5027
35.1502 23.384
35.1969 23.422
35.2438 23.3035
35.2906 23.251
35.3375 23.1491
35.3842 23.1001
35.4311 23.1264
35.4779 22.9437
35.5248 23.0705
35.5716 22.9115
35.6185 22.8896
35.6653 22.838
35.7123 22.7923
35.759 22.778
35.806 22.6298
35.8528 22.4402
35.8998 22.4267
35.9468 22.3163
35.9936 22.2673
36.0406 22.2114
36.0874 22.222
36.1345 22.1317
36.1813 22.0487
36.2283 21.9228
36.2752 21.845
36.3222 21.9307
36.3691 21.8554
36.4161 21.6986
36.463 21.7145
36.5101 21.6473
36.557 21.5285
36.6041 21.434
36.651 21.4066
36.6981 21.372
36.745 21.4188
36.7921 21.2569
36.839 21.1123
36.8861 21.0985
36.9331 21.0971
36.9802 20.9566
37.0272 20.8694
37.0743 20.745
37.1213 20.721
37.1684 20.6806
37.2154 20.6034
37.2626 20.5505
37.3098 20.4503
37.3568 20.4676
37.404 20.4263
37.451 20.2735
37.4982 20.2329
37.5452 20.1409
37.5924 20.1088
37.6395 20.0991
37.6867 19.9314
37.7337 19.9266
37.781 19.8399
37.8281 19.8385
37.8753 19.7421
37.9224 19.658
37.9697 19.5992
38.0168 19.5358
38.064 19.4522
38.1111 19.3583
38.1584 19.3857
38.2056 19.2826
38.2529 19.2251
38.3 19.123
38.3473 19.0982
38.3945 18.9196
38.4418 18.9839
38.489 18.9958
38.5363 18.8527
38.5837 18.7555
38.6309 18.72
38.6782 18.6903
38.7254 18.5964
38.7728 18.5665
38.82 18.4903
38.8674 18.4203
38.9146 18.3582
38.9621 18.3451
39.0093 18.3101
39.0567 18.2385
39.104 18.1017
39.1514 17.9984
39.1987 18.0448
39.2461 17.9559
39.2934 17.9205
39.3409 17.868
39.3882 17.7677
39.4356 17.7627
39.483 17.6413
39.5304 17.6587
39.5778 17.6309
39.6253 17.5541
39.6726 17.4997
39.7201 17.4701
39.7675 17.4218
39.815 17.3036
39.8624 17.2566
39.9099 17.2258
39.9575 17.1589
40.0049 17.1127
40.0525 17.0201
40.0999 17.0135
40.1474 16.9364
40.1949 16.8214
40.2425 16.8046
40.2899 16.7647
40.3375 16.7493
40.385 16.6956
40.4326 16.6484
40.48 16.5577
40.5277 16.4877
40.5752 16.5462
40.6228 16.3644
40.6703 16.3206
40.718 16.3353
40.7655 16.2691
40.8132 16.1784
40.8607 16.204
40.9084 16.0906
40.9559 16.0654
41.0036 16.0134
41.0512 15.9842
41.0989 15.916
41.1465 15.8805
41.1942 15.7916
41.242 15.7527
41.2896 15.6994
41.3373 15.6343
41.3849 15.5939
41.4327 15.5097
41.4803 15.4315
41.5281 15.4281
41.5758 15.4125
41.6236 15.2829
41.6712 15.2686
41.7191 15.2217
41.7667 15.1975
41.8146 15.0976
41.8622 15.0465
41.9101 15.0607
41.9578 14.916
42.0057 14.9063
42.0534 14.8455
42.1013 14.8497
42.149 14.8048
42.1969 14.7479
42.2446 14.7217
42.2925 14.641
42.3403 14.6205
42.3882 14.5345
42.436 14.4718
42.4839 14.4149
42.5319 14.4314
42.5797 14.3542
42.6277 14.2713
42.6755 14.2292
42.7235 14.1949
42.7713 14.1676
42.8193 14.1165
42.8671 14.0084
42.9152 13.9988
42.963 13.9419
43.0111 13.9062
43.0589 13.8283
43.107 13.8149
43.1549 13.7687
43.2029 13.6758
43.2508 13.6776
43.2989 13.6526
43.3468 13.5667
43.3949 13.5037
43.4429 13.4785
43.491 13.4713
43.5389 13.3821
43.5871 13.3858
43.635 13.3046
43.6832 13.2509
43.7312 13.185
43.7793 13.1756
43.8273 13.1044
43.8755 13.0427
43.9237 13.0054
43.9717 13.048
44.0199 12.9139
44.068 12.8856
44.1162 12.849
44.1642 12.8163
44.2125 12.7429
44.2606 12.7163
44.3088 12.6679
44.3569 12.6393
44.4052 12.6243
44.4533 12.5461
44.5016 12.4827
44.5497 12.4666
44.598 12.4564
44.6461 12.3886
44.6945 12.3328
44.7426 12.2751
44.791 12.2604
44.8391 12.2151
44.8875 12.1421
44.9357 12.0819
44.984 12.0851
45.0322 12.0049
45.0806 11.964
45.1288 11.9572
45.1773 11.8919
45.2257 11.854
45.2739 11.8127
45.3224 11.7531
45.3706 11.742
45.4191 11.688
45.4673 11.6613
45.5158 11.6099
45.5641 11.5626
45.6126 11.5556
45.6609 11.4546
45.7094 11.4878
45.7577 11.4194
45.8063 11.3326
45.8546 11.3771
45.9031 11.2857
45.9515 11.2752
46.0001 11.2064
46.0484 11.1917
46.097 11.1333
46.1454 11.1121
46.194 11.07
46.2424 10.9969
46.291 10.9322
46.3395 10.9182
46.3881 10.8664
46.4365 10.8597
46.4852 10.7737
46.5337 10.7253
46.5823 10.7808
46.631 10.6687
46.6795 10.6681
46.7282 10.6499
46.7767 10.5828
46.8254 10.5098
46.8739 10.4866
46.9226 10.4218
46.9712 10.423
47.0199 10.3703
47.0685 10.342
47.1173 10.307
47.1658 10.243
47.2146 10.2445
47.2632 10.1775
47.312 10.1801
47.3606 10.1309
47.4095 10.0644
47.4581 10.0446
47.5069 9.96905
47.5556 9.96869
47.6044 9.92736
47.6531 9.89217
47.702 9.84719
47.7507 9.80664
47.7996 9.78221
47.8483 9.75538
47.8972 9.71302
47.9461 9.64209
47.9948 9.63032
48.0438 9.62698
48.0925 9.5884
48.1415 9.53416
48.1902 9.5008
48.2392 9.48168
48.288 9.449
48.337 9.40045
48.3858 9.3494
48.4348 9.38931
48.4837 9.33979
48.5327 9.26462
48.5815 9.20186
48.6306 9.27797
48.6795 9.18699
48.7285 9.17496
48.7774 9.05097
48.8265 9.07072
48.8754 9.02156
48.9245 9.03173
48.9734 8.96686
49.0226 8.93633
49.0715 8.89812
49.1206 8.86091
49.1696 8.83196
49.2188 8.79335
49.2679 8.75168
49.3169 8.7553
49.3661 8.68555
49.4151 8.65902
49.4643 8.65379
49.5134 8.60919
49.5626 8.54217
49.6117 8.56073
49.6609 8.51593
49.71 8.49646
49.7592 8.45565
49.8083 8.38768
49.8576 8.38664
49.9067 8.34512
49.956 8.3468
50.0052 8.3101
50.0545 8.24967
50.1036 8.24365
50.153 8.2174
50.2022 8.18445
50.2515 8.15193
50.3007 8.0732
50.3501 8.07396
50.3993 8.00736
50.4487 8.02313
50.498 7.99873
50.5474 7.93338
50.5966 7.89373
50.6461 7.89022
50.6955 7.86001
50.7448 7.87075
50.7943 7.7935
50.8436 7.76436
50.8931 7.7525
50.9424 7.71578
50.9919 7.70136
51.0413 7.64528
51.0908 7.67059
51.1402 7.5753
51.1897 7.57491
51.2391 7.56173
51.2887 7.45979
51.3381 7.47351
51.3877 7.44177
51.4371 7.40894
51.4867 7.36784
51.5362 7.34605
51.5858 7.29646
51.6353 7.28708
51.6849 7.23652
51.7344 7.22587
51.7841 7.20929
51.8336 7.16253
51.8833 7.11429
51.9328 7.0555
51.9826 7.05665
52.0323 7.02423
52.0818 6.99684
52.1316 6.95071
52.1812 6.93906
52.231 6.898
52.2806 6.87026
52.3304 6.87378
52.38 6.82871
52.4298 6.80642
52.4794 6.77605
52.5293 6.76896
52.5789 6.71961
52.6288 6.72252
52.6785 6.65587
52.7284 6.61595
52.7781 6.61067
52.828 6.58744
52.8777 6.53053
52.9276 6.51
52.9774 6.48126
53.0273 6.49559
53.0771 6.42497
53.1271 6.41194
53.1769 6.39961
53.2269 6.38597
53.2767 6.33248
53.3267 6.28607
53.3765 6.30526
53.4266 6.22294
53.4766 6.19314
53.5265 6.18549
53.5765 6.17534
53.6264 6.13145
53.6765 6.11044
53.7264 6.09921
53.7765 6.11044
53.8265 6.02228
53.8766 5.98853
53.9266 5.98143
53.9767 5.94515
54.0267 5.96108
54.0769 5.87913
54.1269 5.8189
54.1771 5.79936
54.2271 5.79267
54.2773 5.74069
54.3274 5.69133
54.3776 5.68069
54.4277 5.65873
54.478 5.60617
54.528 5.54615
54.5783 5.43689
54.6285 5.4347
54.6788 5.39724
54.7289 5.41743
54.7792 5.29792
54.8296 5.26171
54.8798 5.23174
54.9301 5.22989
54.9803 5.1417
55.0307 5.15193
55.0809 5.07652
55.1314 5.03213
55.1816 4.97683
55.232 4.93808
55.2823 4.92009
55.3328 4.76565
55.383 4.81239
55.4335 4.78405
55.4838 4.65666
55.5344 4.68035
55.5847 4.58727
55.6352 4.6647
55.6856 4.61832
55.7361 4.59012