File: XRD/Ni3Fe_FD0349.xy
TT I
1.27165 7.98748
1.31627 7.00976
1.36089 7.30554
1.40551 5.75432
1.45013 6.13719
1.49476 5.96824
1.53938 5.71637
1.584 5.42528
1.62863 4.78725
1.67325 5.76946
1.71787 4.7608
1.7625 4.94886
1.80712 5.28712
1.85174 5.20953
1.89636 5.05197
1.94099 4.93507
1.98562 4.57021
2.03025 4.82908
2.07487 4.44197
2.11949 4.7947
2.16411 4.90836
2.20874 9.86876
2.25338 13.7308
2.298 5.59489
2.34263 5.34916
2.38725 5.65456
2.43188 4.89513
2.4765 5.98639
2.52115 5.70809
2.56577 6.71554
2.6104 6.85966
2.65503 6.72601
2.69965 7.82847
2.7443 7.31916
2.78893 7.49336
2.83356 7.72908
2.87818 8.4411
2.92281 8.94253
2.96744 9.27993
3.01209 9.96986
3.05672 11.7102
3.10135 12.0666
3.14599 13.1056
3.19062 14.2029
3.23527 15.0678
3.2799 15.5545
3.32454 16.6321
3.36917 17.9995
3.4138 19.1353
3.45844 19.9745
3.50309 20.9229
3.54773 21.7396
3.59237 23.3616
3.637 59.962
3.68164 42.2849
3.7263 26.0332
3.77094 26.4072
3.81558 27.1149
3.86022 27.9649
3.90486 29.2977
3.9495 30.0898
3.99416 31.0078
4.0388 32.4386
4.08344 34.2343
4.12809 34.8324
4.17273 37.5284
4.21738 41.5652
4.26204 151.254
4.30669 132.659
4.35133 46.3903
4.39598 44.8425
4.44063 50.3346
4.4853 57.6066
4.52995 52.2065
4.5746 52.9332
4.61925 54.6256
4.6639 57.1904
4.70855 59.5806
4.75322 63.0117
4.79788 66.4215
4.84253 69.2889
4.88719 74.5957
4.93184 78.3633
4.97652 84.4944
5.02118 91.8753
5.06583 101.335
5.11049 115.354
5.15515 174.281
5.19981 599.958
5.24449 3665.1
5.28916 11412.5
5.33382 3487.54
5.37848 223.653
5.42315 139.632
5.46783 121.344
5.5125 111.686
5.55716 106.426
5.60183 102.338
5.6465 100.138
5.69117 98.6749
5.73586 96.0141
5.78053 96.861
5.8252 97.2183
5.86988 98.5085
5.91455 101.873
5.95924 116.34
6.00392 320.131
6.0486 1273.04
6.09328 4015.49
6.13795 3428.54
6.18263 287.336
6.22733 99.9289
6.27201 85.6568
6.3167 92.2516
6.36138 78.2032
6.40606 71.3185
6.45075 69.1599
6.49545 67.0044
6.54014 65.2571
6.58483 64.2903
6.62952 63.8718
6.67421 79.3979
6.71892 105.174
6.76361 65.4719
6.8083 60.0546
6.853 58.666
6.89769 57.9891
6.94239 57.6125
6.98711 57.0638
7.03181 56.6161
7.07651 56.2993
7.12121 56.2464
7.16591 56.2605
7.21063 55.8484
7.25533 63.8289
7.30004 120.195
7.34475 75.7542
7.38945 57.075
7.43416 55.2173
7.47889 55.1673
7.5236 55.6753
7.56831 56.3803
7.61303 57.2206
7.65774 57.4529
7.70247 56.9283
7.74719 57.3983
7.79191 58.0771
7.83663 58.0909
7.88135 59.454
7.92607 60.074
7.97081 61.3694
8.01553 62.1418
8.06026 64.2573
8.10498 65.2225
8.14971 71.5365
8.19446 72.1593
8.23919 71.6063
8.28392 74.1457
8.32865 76.6802
8.37339 81.4483
8.41812 87.8784
8.46288 112.788
8.50761 223.867
8.55235 500.397
8.59709 1183.62
8.64183 2103.79
8.68658 1055.09
8.73134 183.86
8.77609 104.33
8.82083 96.3471
8.86558 93.0727
8.91033 92.0241
8.9551 91.6275
8.99985 87.5902
9.04461 86.2051
9.08936 85.493
9.13412 84.424
9.17888 84.3127
9.22365 84.7744
9.26841 84.3855
9.31318 85.9122
9.35794 85.4695
9.4027 86.3387
9.44749 86.9765
9.49226 87.2937
9.53703 88.4736
9.5818 90.6024
9.62657 94.0261
9.67134 97.2876
9.71614 95.9311
9.76091 96.9511
9.80569 99.8619
9.85047 103.326
9.89525 118.824
9.94005 138.181
9.98484 234.506
10.0296 440.175
10.0744 867.784
10.1192 1589.7
10.164 1648.48
10.2088 475.302
10.2536 135.371
10.2984 115.224
10.3432 114.296
10.388 109.788
10.4328 136.827
10.4776 187.844
10.5224 297.928
10.5672 484.68
10.612 518.842
10.6568 214.37
10.7017 100.022
10.7465 89.1326
10.7913 85.3974
10.8361 83.0869
10.8809 80.8543
10.9257 79.8672
10.9706 79.8982
11.0154 76.2946
11.0602 74.8052
11.105 73.604
11.1499 75.3667
11.1947 78.5484
11.2395 73.2006
11.2844 70.9942
11.3292 68.8436
11.374 67.8782
11.4189 67.1956
11.4637 66.62
11.5086 66.1681
11.5534 68.0698
11.5983 66.2452
11.6431 64.9838
11.688 64.4497
11.7328 64.5182
11.7777 64.232
11.8225 64.2645
11.8674 63.9164
11.9122 64.4796
11.9571 64.7885
12.002 66.3065
12.0468 73.4901
12.0917 86.9541
12.1366 109.768
12.1814 149.736
12.2263 199.165
12.2712 172.563
12.3161 97.5724
12.3609 70.4773
12.4058 66.1092
12.4507 66.0425
12.4956 66.2121
12.5405 66.2387
12.5853 67.1259
12.6302 71.1219
12.6751 74.5697
12.72 70.2859
12.7649 69.488
12.8098 70.4685
12.8547 71.7149
12.8996 73.2013
12.9445 74.7123
12.9894 76.5144
13.0343 78.3814
13.0792 82.7608
13.1242 99.221
13.1691 127.723
13.214 168.362
13.2589 246.118
13.3038 351.498
13.3487 421.126
13.3937 279.482
13.4386 133.153
13.4835 118.051
13.5285 136.844
13.5734 174.366
13.6183 244.875
13.6633 333.94
13.7082 347.14
13.7531 200.509
13.7981 102.201
13.843 84.3028
13.888 81.9185
13.9329 79.6076
13.9779 77.9285
14.0228 76.5164
14.0678 75.2838
14.1127 74.4282
14.1577 74.1063
14.2027 73.3941
14.2476 72.3594
14.2926 72.2732
14.3376 72.5854
14.3825 71.9569
14.4275 70.8073
14.4725 70.6749
14.5175 71.1235
14.5624 71.1634
14.6074 72.1746
14.6524 72.8907
14.6974 72.7564
14.7424 77.0633
14.7874 86.4643
14.8324 98.3739
14.8774 120.08
14.9224 154.723
14.9674 200.393
15.0124 218.429
15.0574 154.612
15.1024 94.9059
15.1474 74.4396
15.1924 72.4932
15.2374 71.8445
15.2824 71.3133
15.3274 69.6622
15.3725 68.9266
15.4175 68.3086
15.4625 67.94
15.5076 67.7501
15.5526 67.9533
15.5976 68.0964
15.6426 71.1443
15.6877 78.6939
15.7327 87.462
15.7778 102.955
15.8228 129.163
15.8679 164.039
15.9129 191.543
15.958 163.18
16.003 102.484
16.0481 69.8585
16.0931 65.5664
16.1382 63.4075
16.1833 61.965
16.2283 60.655
16.2734 60.0006
16.3185 59.694
16.3636 59.6869
16.4086 58.7506
16.4537 57.6663
16.4988 57.0442
16.5439 57.0033
16.589 56.8274
16.6341 56.3396
16.6792 55.9663
16.7243 56.3282
16.7694 56.2678
16.8145 56.2358
16.8596 56.7099
16.9047 57.612
16.9498 57.6619
16.9949 57.2133
17.04 57.9864
17.0851 59.5975
17.1302 61.3908
17.1754 64.646
17.2205 69.0709
17.2656 75.0375
17.3108 82.9531
17.3559 84.497
17.401 73.4714
17.4462 64.4236
17.4913 60.8429
17.5365 60.6238
17.5815 60.9888
17.6268 61.0937
17.6718 61.9854
17.7171 62.5525
17.7622 63.3215
17.8074 64.2185
17.8525 68.3887
17.8977 72.939
17.9428 79.0619
17.9881 88.1048
18.0331 102.281
18.0784 119.728
18.1237 139.612
18.1688 136.946
18.214 111.237
18.2591 91.1666
18.3044 91.768
18.3495 99.345
18.3948 106.008
18.4399 98.8158
18.4852 79.8532
18.5303 68.0047
18.5756 64.0703
18.6207 62.9838
18.666 62.0215
18.7112 61.3405
18.7565 60.5824
18.8016 60.3494
18.8469 59.6003
18.892 59.3662
18.9374 58.9504
18.9825 58.6586
19.0278 58.5409
19.073 58.8999
19.1183 59.5771
19.1635 60.0777
19.2088 61.9203
19.254 64.6158
19.2993 68.0413
19.3447 72.4349
19.3898 76.7812
19.4352 74.4778
19.4804 65.8924
19.5257 58.3636
19.5709 55.8541
19.6163 55.4976
19.6615 55.4827
19.7068 54.896
19.752 54.9187
19.7974 55.6117
19.8426 56.6006
19.888 57.1769
19.9332 58.7144
19.9786 60.9951
20.0238 63.8761
20.0692 68.0007
20.1144 71.4065
20.1598 71.0515
20.205 66.2699
20.2504 63.6954
20.2957 64.4703
20.3411 66.5978
20.3863 65.8303
20.4318 60.2435
20.477 55.239
20.5224 52.8437
20.5677 52.222
20.6131 51.6894
20.6586 51.1273
20.7038 50.7927
20.7493 50.5068
20.7945 50.5005
20.84 50.4145
20.8853 50.1623
20.9307 50.0431
20.976 50.2979
21.0215 50.0963
21.0668 50.5049
21.1122 50.9804
21.1575 51.5636
21.203 52.0854
21.2483 52.6707
21.2938 53.081
21.3391 51.6702
21.3846 50.5767
21.4299 50.0008
21.4754 50.0005
21.5207 50.1152
21.5662 50.6199
21.6116 51.2357
21.6571 51.8517
21.7024 52.8256
21.7479 54.791
21.7933 57.2583
21.8388 60.1499
21.8843 63.2682
21.9297 66.1459
21.9752 65.461
22.0206 61.6854
22.0661 57.8639
22.1115 57.2645
22.157 57.337
22.2024 55.7901
22.248 53.1388
22.2933 51.3271
22.3389 50.5302
22.3843 50.3925
22.4299 50.1339
22.4753 50.1864
22.5208 49.9977
22.5662 49.9343
22.6118 50.3485
22.6572 50.5892
22.7028 51.1242
22.7483 51.4956
22.7939 52.4563
22.8393 53.8216
22.8849 55.455
22.9303 56.9864
22.9759 58.8434
23.0214 59.0205
23.067 56.3825
23.1126 52.7538
23.1581 50.7117
23.2037 50.2286
23.2492 50.6424
23.2948 50.6967
23.3403 50.9081
23.3859 51.6115
23.4314 52.6519
23.477 54.115
23.5225 55.6312
23.5682 57.6983
23.6137 59.188
23.6593 57.4339
23.7048 53.4535
23.7505 49.7677
23.796 48.0178
23.8417 47.254
23.8872 47.0803
23.9329 46.4932
23.9784 46.2559
24.0241 45.9372
24.0697 45.7336
24.1154 45.2843
24.1609 45.2637
24.2066 44.9213
24.2522 44.933
24.2979 44.5487
24.3434 44.4907
24.3892 44.2433
24.4349 44.3243
24.4805 43.9809
24.5262 44.2698
24.5718 44.0663
24.6175 44.1056
24.6631 44.1029
24.7089 43.6928
24.7545 43.7209
24.8002 43.5401
24.8458 43.401
24.8916 43.4464
24.9372 43.7012
24.983 43.9197
25.0286 44.147
25.0744 44.5881
25.12 44.8402
25.1658 45.5656
25.2114 45.8732
25.2572 46.0817
25.3029 45.7966
25.3487 46.0736
25.3943 45.8474
25.4402 44.8708
25.4858 43.7087
25.5316 42.6568
25.5773 42.0921
25.6231 41.995
25.669 41.8087
25.7147 41.7508
25.7605 41.551
25.8062 41.8204
25.8521 41.8834
25.8977 41.8358
25.9436 42.0185
25.9893 42.0929
26.0352 42.477
26.0809 42.5567
26.1268 42.8345
26.1725 42.5964
26.2184 42.096
26.2641 41.6941
26.31 41.3872
26.3557 41.3183
26.4017 41.2643
26.4474 41.6556
26.4933 41.9654
26.5391 42.4265
26.585 42.6476
26.6308 43.1499
26.6767 43.3021
26.7225 43.1874
26.7684 42.7187
26.8142 42.0139
26.8601 41.5437
26.9059 41.1993
26.9519 40.6411
26.9979 40.3846
27.0437 40.0615
27.0896 39.8867
27.1354 39.8519
27.1814 39.6431
27.2272 39.6133
27.2732 39.7716
27.3191 39.4809
27.3651 39.6431
27.4109 39.5624
27.4569 39.5407
27.5027 39.6458
27.5488 39.6867
27.5946 39.5051
27.6407 39.3816
27.6865 39.24
27.7326 38.9213
27.7784 39.085
27.8245 39.024
27.8703 39.1504
27.9164 39.4479
27.9623 39.5399
28.0084 39.7669
28.0543 40.2173
28.1003 40.1281
28.1462 39.9215
28.1923 39.5251
28.2384 39.0385
28.2843 38.73
28.3304 38.218
28.3764 37.6545
28.4225 37.468
28.4684 37.2766
28.5145 36.9548
28.5605 36.786
28.6066 36.6056
28.6526 36.7697
28.6987 36.6082
28.7447 36.4679
28.7908 36.4594
28.8368 36.4534
28.8829 36.4147
28.9289 36.2994
28.9751 36.3233
29.0211 35.9922
29.0673 35.6395
29.1133 35.4911
29.1595 35.4395
29.2055 35.2876
29.2517 35.3001
29.2977 35.1365
29.3439 35.2129
29.3899 35.1531
29.4361 35.0382
29.4824 34.8861
29.5284 34.6567
29.5746 34.3666
29.6207 34.0263
29.6669 34.1086
29.713 33.8636
29.7593 33.7883
29.8053 33.7769
29.8516 33.7451
29.8977 33.6795
29.9439 33.6293
29.99 33.4267
30.0363 33.3864
30.0824 33.3817
30.1287 33.3362
30.1748 33.2668
30.2211 33.3138
30.2673 33.2331
30.3136 33.3263
30.3597 33.1603
30.406 33.1576
30.4522 32.9911
30.4985 32.9604
30.5447 33.112
30.591 33.1034
30.6372 33.0524
30.6835 32.9933
30.7297 33.118
30.7761 33.0987
30.8224 32.8587
30.8686 32.6306
30.915 32.5779
30.9612 32.4967
31.0076 32.2355
31.0538 32.1084
31.1002 31.9807
31.1464 31.8407
31.1928 31.7939
31.2391 31.7456
31.2855 31.7901
31.3317 31.746
31.3781 31.8588
31.4244 31.7801
31.4708 31.653
31.5171 31.6376
31.5636 31.6411
31.6098 31.4646
31.6563 31.1267
31.7026 31.0941
31.7491 30.9842
31.7953 31.0627
31.8418 30.9202
31.8881 30.9988
31.9346 30.8736
31.9809 30.8918
32.0275 30.8187
32.074 30.6803
32.1203 30.5047
32.1668 30.4125
32.2132 30.1822
32.2597 30.1128
32.306 29.9647
32.3526 29.7607
32.399 29.794
32.4455 29.5527
32.4919 29.4393
32.5385 29.3775
32.5848 29.2605
32.6314 29.3209
32.6778 29.2583
32.7244 29.0576
32.7708 28.9582
32.8174 29.0408
32.8638 28.8426
32.9104 28.8242
32.9569 28.7774
33.0035 28.6397
33.0499 28.6043
33.0966 28.5781
33.143 28.5797
33.1897 28.3787
33.2361 28.3681
33.2828 28.3863
33.3293 28.2671
33.3759 28.1716
33.4226 28.0308
33.4691 27.889
33.5158 27.8376
33.5623 27.6903
33.609 27.5296
33.6555 27.4038
33.7022 27.2713
33.7487 27.2785
33.7954 27.2311
33.842 27.0854
33.8887 27.0702
33.9353 27.0642
33.982 26.8777
34.0286 26.8527
34.0753 26.7108
34.1219 26.6478
34.1687 26.5174
34.2152 26.4506
34.262 26.3363
34.3086 26.3597
34.3554 26.1782
34.402 26.0738
34.4488 26.0089
34.4954 25.9661
34.5422 25.9278
34.5889 25.7283
34.6357 25.7126
34.6825 25.5719
34.7292 25.5824
34.776 25.3915
34.8227 25.5166
34.8695 25.3491
34.9162 25.3484
34.9631 25.2347
35.0098 25.2199
35.0566 25.0739
35.1033 24.9826
35.1502 24.9469
35.1969 24.8508
35.2438 24.8199
35.2906 24.7639
35.3375 24.6913
35.3842 24.5956
35.4311 24.6079
35.4779 24.6272
35.5248 24.4622
35.5716 24.4202
35.6185 24.4095
35.6653 24.2594
35.7123 24.1008
35.759 24.131
35.806 23.9741
35.8528 23.8937
35.8998 23.8374
35.9468 23.7689
35.9936 23.7307
36.0406 23.5892
36.0874 23.6391
36.1345 23.5582
36.1813 23.5417
36.2283 23.3684
36.2752 23.2574
36.3222 23.3213
36.3691 23.1808
36.4161 23.03
36.463 23.109
36.5101 23.0111
36.557 22.9056
36.6041 22.7424
36.651 22.8551
36.6981 22.6908
36.745 22.6554
36.7921 22.5939
36.839 22.497
36.8861 22.3495
36.9331 22.3391
36.9802 22.3057
37.0272 22.1913
37.0743 22.1433
37.1213 22.0312
37.1684 21.9511
37.2154 21.9153
37.2626 21.8418
37.3098 21.7738
37.3568 21.7473
37.404 21.7077
37.451 21.5372
37.4982 21.5002
37.5452 21.4397
37.5924 21.3756
37.6395 21.3723
37.6867 21.3158
37.7337 21.1951
37.781 21.1136
37.8281 21.0675
37.8753 20.9429
37.9224 20.9269
37.9697 20.8193
38.0168 20.7578
38.064 20.7139
38.1111 20.714
38.1584 20.5347
38.2056 20.503
38.2529 20.4302
38.3 20.3692
38.3473 20.3947
38.3945 20.2161
38.4418 20.195
38.489 20.1232
38.5363 20.0019
38.5837 19.9437
38.6309 19.9121
38.6782 19.8269
38.7254 19.8112
38.7728 19.7149
38.82 19.6619
38.8674 19.607
38.9146 19.6202
38.9621 19.5013
39.0093 19.4601
39.0567 19.3471
39.104 19.3485
39.1514 19.1636
39.1987 19.2227
39.2461 19.1233
39.2934 19.0976
39.3409 18.9647
39.3882 18.8876
39.4356 18.8234
39.483 18.8274
39.5304 18.7295
39.5778 18.6334
39.6253 18.7124
39.6726 18.5618
39.7201 18.5575
39.7675 18.5746
39.815 18.4534
39.8624 18.3387
39.9099 18.3526
39.9575 18.2459
40.0049 18.1747
40.0525 18.1744
40.0999 18.1278
40.1474 18.0222
40.1949 17.9194
40.2425 17.9011
40.2899 17.8581
40.3375 17.804
40.385 17.7101
40.4326 17.7222
40.48 17.5976
40.5277 17.5311
40.5752 17.4696
40.6228 17.3938
40.6703 17.3704
40.718 17.3047
40.7655 17.2808
40.8132 17.1996
40.8607 17.1691
40.9084 17.1298
40.9559 17.0936
41.0036 17.0582
41.0512 16.9751
41.0989 16.9118
41.1465 16.8202
41.1942 16.8412
41.242 16.734
41.2896 16.6773
41.3373 16.6056
41.3849 16.6593
41.4327 16.5018
41.4803 16.4093
41.5281 16.3496
41.5758 16.3453
41.6236 16.2685
41.6712 16.1702
41.7191 16.1388
41.7667 16.1176
41.8146 16.0988
41.8622 16.0104
41.9101 15.9384
41.9578 15.9096
42.0057 15.8371
42.0534 15.8
42.1013 15.76
42.149 15.6595
42.1969 15.6079
42.2446 15.6085
42.2925 15.4871
42.3403 15.4826
42.3882 15.3916
42.436 15.4122
42.4839 15.3384
42.5319 15.2539
42.5797 15.2952
42.6277 15.175
42.6755 15.127
42.7235 15.077
42.7713 15.0481
42.8193 14.9444
42.8671 14.9196
42.9152 14.8738
42.963 14.8272
43.0111 14.7685
43.0589 14.7187
43.107 14.6742
43.1549 14.5779
43.2029 14.5424
43.2508 14.5226
43.2989 14.4145
43.3468 14.3964
43.3949 14.3671
43.4429 14.2985
43.491 14.2814
43.5389 14.2121
43.5871 14.1968
43.635 14.1392
43.6832 14.0644
43.7312 14.0155
43.7793 13.9367
43.8273 13.922
43.8755 13.8978
43.9237 13.8267
43.9717 13.7838
44.0199 13.7803
44.068 13.664
44.1162 13.6373
44.1642 13.6234
44.2125 13.5025
44.2606 13.5064
44.3088 13.4845
44.3569 13.4057
44.4052 13.3568
44.4533 13.3016
44.5016 13.2345
44.5497 13.2272
44.598 13.1601
44.6461 13.0944
44.6945 13.0384
44.7426 13.0341
44.791 12.9627
44.8391 12.9005
44.8875 12.9231
44.9357 12.8716
44.984 12.8199
45.0322 12.7918
45.0806 12.6848
45.1288 12.6719
45.1773 12.6211
45.2257 12.5901
45.2739 12.5713
45.3224 12.4992
45.3706 12.4687
45.4191 12.3633
45.4673 12.3759
45.5158 12.3259
45.5641 12.2053
45.6126 12.2138
45.6609 12.1339
45.7094 12.1175
45.7577 12.0683
45.8063 11.9795
45.8546 12.0263
45.9031 11.9616
45.9515 11.9114
46.0001 11.8652
46.0484 11.8405
46.097 11.8066
46.1454 11.7587
46.194 11.7193
46.2424 11.6823
46.291 11.6078
46.3395 11.5969
46.3881 11.5118
46.4365 11.4665
46.4852 11.4674
46.5337 11.3947
46.5823 11.3884
46.631 11.3076
46.6795 11.2513
46.7282 11.2719
46.7767 11.1801
46.8254 11.1433
46.8739 11.1007
46.9226 11.0635
46.9712 11.0519
47.0199 10.9985
47.0685 10.9475
47.1173 10.9056
47.1658 10.8634
47.2146 10.8355
47.2632 10.821
47.312 10.7754
47.3606 10.7266
47.4095 10.6619
47.4581 10.6442
47.5069 10.5845
47.5556 10.5862
47.6044 10.529
47.6531 10.4438
47.702 10.3989
47.7507 10.3905
47.7996 10.3471
47.8483 10.3375
47.8972 10.3084
47.9461 10.3008
47.9948 10.1772
48.0438 10.1796
48.0925 10.1653
48.1415 10.1051
48.1902 10.0619
48.2392 10.0553
48.288 9.98966
48.337 9.99588
48.3858 9.92997
48.4348 9.90877
48.4837 9.85511
48.5327 9.84846
48.5815 9.75461
48.6306 9.71136
48.6795 9.7293
48.7285 9.67245
48.7774 9.65497
48.8265 9.61539
48.8754 9.5228
48.9245 9.55006
48.9734 9.52421
49.0226 9.48536
49.0715 9.3964
49.1206 9.36619
49.1696 9.36992
49.2188 9.33274
49.2679 9.26135
49.3169 9.26497
49.3661 9.22486
49.4151 9.16061
49.4643 9.12335
49.5134 9.1247
49.5626 8.98847
49.6117 9.06288
49.6609 9.02945
49.71 8.97367
49.7592 8.95563
49.8083 8.88136
49.8576 8.85602
49.9067 8.82755
49.956 8.78239
50.0052 8.73094
50.0545 8.72555
50.1036 8.70759
50.153 8.66418
50.2022 8.66646
50.2515 8.59833
50.3007 8.53653
50.3501 8.51
50.3993 8.4918
50.4487 8.44283
50.498 8.45071
50.5474 8.3982
50.5966 8.37693
50.6461 8.33644
50.6955 8.32269
50.7448 8.26289
50.7943 8.2412
50.8436 8.22161
50.8931 8.17368
50.9424 8.12495
50.9919 8.12763
51.0413 8.07912
51.0908 8.02941
51.1402 8.01648
51.1897 7.96352
51.2391 7.91214
51.2887 7.93424
51.3381 7.88604
51.3877 7.87976
51.4371 7.78042
51.4867 7.78198
51.5362 7.75781
51.5858 7.75751
51.6353 7.66664
51.6849 7.66087
51.7344 7.64367
51.7841 7.62752
51.8336 7.55218
51.8833 7.54707
51.9328 7.46788
51.9826 7.43828
52.0323 7.41562
52.0818 7.37994
52.1316 7.35181
52.1812 7.37449
52.231 7.31494
52.2806 7.28177
52.3304 7.26938
52.38 7.2022
52.4298 7.18416
52.4794 7.15925
52.5293 7.13912
52.5789 7.11294
52.6288 7.09851
52.6785 7.05811
52.7284 7.02769
52.7781 6.9682
52.828 6.9481
52.8777 6.93109
52.9276 6.86557
52.9774 6.88744
53.0273 6.83366
53.0771 6.82214
53.1271 6.80387
53.1769 6.77833
53.2269 6.698
53.2767 6.71376
53.3267 6.66833
53.3765 6.64695
53.4266 6.6366
53.4766 6.55822
53.5265 6.52487
53.5765 6.55012
53.6264 6.48396
53.6765 6.47008
53.7264 6.41463
53.7765 6.40725
53.8265 6.37014
53.8766 6.29381
53.9266 6.32891
53.9767 6.29148
54.0267 6.30166
54.0769 6.24597
54.1269 6.19957
54.1771 6.15206
54.2271 6.14123
54.2773 6.09909
54.3274 6.08162
54.3776 6.07323
54.4277 6.01562
54.478 5.95946
54.528 5.97978
54.5783 5.90455
54.6285 5.81896
54.6788 5.82104
54.7289 5.78656
54.7792 5.7475
54.8296 5.68486
54.8798 5.6452
54.9301 5.58465
54.9803 5.59223
55.0307 5.58371
55.0809 5.46714
55.1314 5.4598
55.1816 5.45143
55.232 5.39299
55.2823 5.35582
55.3328 5.28489
55.383 5.21555
55.4335 5.20572
55.4838 5.13268
55.5344 5.11501
55.5847 5.07337
55.6352 5.02941
55.6856 4.95269
55.7361 4.95384