File: XRD/Ni3Fe_FD0412.xy
TT I
1.27165 7.64948
1.31627 6.34543
1.36089 6.87917
1.40551 5.95287
1.45013 5.66124
1.49476 5.37092
1.53938 5.66026
1.584 5.51921
1.62863 5.85734
1.67325 5.23995
1.71787 4.71815
1.7625 5.20874
1.80712 4.74872
1.85174 5.02744
1.89636 4.92719
1.94099 4.88435
1.98562 4.33323
2.03025 4.85122
2.07487 4.5615
2.11949 4.90842
2.16411 5.08251
2.20874 16.5101
2.25338 29.0834
2.298 6.22931
2.34263 5.23498
2.38725 5.69275
2.43188 5.85659
2.4765 6.12002
2.52115 6.19347
2.56577 6.14324
2.6104 7.02646
2.65503 7.494
2.69965 7.29792
2.7443 7.74622
2.78893 6.95411
2.83356 8.0901
2.87818 8.41564
2.92281 8.59468
2.96744 9.11935
3.01209 10.3947
3.05672 10.9235
3.10135 12.3701
3.14599 12.7285
3.19062 13.9405
3.23527 15.3351
3.2799 15.605
3.32454 16.8424
3.36917 18.1122
3.4138 19.3186
3.45844 19.7906
3.50309 21.3024
3.54773 22.2475
3.59237 24.6528
3.637 115.326
3.68164 71.9134
3.7263 27.2703
3.77094 26.4024
3.81558 27.2269
3.86022 28.389
3.90486 29.596
3.9495 30.537
3.99416 31.2853
4.0388 32.852
4.08344 34.1153
4.12809 35.4524
4.17273 38.2569
4.21738 45.5851
4.26204 313.36
4.30669 277.937
4.35133 51.5199
4.39598 45.984
4.44063 56.9045
4.4853 73.1677
4.52995 52.106
4.5746 51.8232
4.61925 54.1508
4.6639 56.207
4.70855 59.0558
4.75322 61.5055
4.79788 64.7697
4.84253 67.9247
4.88719 72.3212
4.93184 76.4991
4.97652 81.9411
5.02118 88.4579
5.06583 96.7238
5.11049 110.025
5.15515 198.842
5.19981 421.198
5.24449 2875.42
5.28916 11525.1
5.33382 3597.71
5.37848 224.613
5.42315 137.799
5.46783 118.889
5.5125 109.521
5.55716 105.014
5.60183 100.927
5.6465 99.2266
5.69117 96.3671
5.73586 94.1135
5.78053 93.9997
5.8252 93.3552
5.86988 94.5601
5.91455 96.9442
5.95924 106.526
6.00392 228.507
6.0486 1015.04
6.09328 3903.06
6.13795 3504.47
6.18263 312.287
6.22733 100.475
6.27201 86.8391
6.3167 113.497
6.36138 85.8128
6.40606 71.4022
6.45075 68.7421
6.49545 67.1016
6.54014 65.3956
6.58483 64.5147
6.62952 64.8563
6.67421 104.571
6.71892 173.184
6.76361 73.2559
6.8083 59.9596
6.853 58.5968
6.89769 58.2648
6.94239 58.1719
6.98711 56.9945
7.03181 56.7807
7.07651 56.3614
7.12121 56.5362
7.16591 56.8301
7.21063 57.1028
7.25533 75.3884
7.30004 220.987
7.34475 105.925
7.38945 58.6291
7.43416 55.9247
7.47889 56.0918
7.5236 56.0027
7.56831 56.7231
7.61303 59.0632
7.65774 59.2434
7.70247 57.6565
7.74719 57.4143
7.79191 58.2548
7.83663 58.1561
7.88135 59.4463
7.92607 59.6154
7.97081 61.008
8.01553 62.1874
8.06026 63.416
8.10498 65.1157
8.14971 77.3799
8.19446 75.7075
8.23919 71.1885
8.28392 73.1084
8.32865 75.6164
8.37339 79.5345
8.41812 87.6801
8.46288 124.113
8.50761 176.187
8.55235 403.589
8.59709 1061.87
8.64183 2116.88
8.68658 1137.38
8.73134 195.267
8.77609 104.446
8.82083 95.6627
8.86558 92.2619
8.91033 92.6831
8.9551 95.2721
8.99985 87.3006
9.04461 84.9293
9.08936 84.4998
9.13412 83.3218
9.17888 83.4899
9.22365 84.6635
9.26841 83.4685
9.31318 84.3322
9.35794 84.0423
9.4027 84.4673
9.44749 85.6002
9.49226 86.0329
9.53703 87.04
9.5818 88.988
9.62657 94.7447
9.67134 103.063
9.71614 95.9822
9.76091 95.7037
9.80569 97.9925
9.85047 101.745
9.89525 132.094
9.94005 148.067
9.98484 184.305
10.0296 356.285
10.0744 753.463
10.1192 1592.21
10.164 1770.09
10.2088 513.715
10.2536 141.213
10.2984 119.299
10.3432 121.258
10.388 108.197
10.4328 121.666
10.4776 164.071
10.5224 264.011
10.5672 471.365
10.612 534.818
10.6568 233.171
10.7017 102.467
10.7465 88.641
10.7913 85.1343
10.8361 82.8249
10.8809 80.5035
10.9257 80.5822
10.9706 82.1178
11.0154 76.8202
11.0602 74.3896
11.105 73.4151
11.1499 79.3969
11.1947 89.8306
11.2395 77.9228
11.2844 73.1177
11.3292 68.9331
11.374 67.5365
11.4189 67.1118
11.4637 66.1544
11.5086 67.0749
11.5534 71.4191
11.5983 67.2673
11.6431 65.008
11.688 64.4981
11.7328 64.1585
11.7777 64.3241
11.8225 63.7086
11.8674 63.4772
11.9122 64.0871
11.9571 64.0402
12.002 65.174
12.0468 69.4067
12.0917 81.3314
12.1366 102.263
12.1814 142.288
12.2263 199.166
12.2712 185.146
12.3161 109.035
12.3609 74.6242
12.4058 66.6289
12.4507 65.866
12.4956 65.8671
12.5405 65.8557
12.5853 67.1637
12.6302 76.8983
12.6751 84.3437
12.72 72.7059
12.7649 69.3235
12.8098 70.0291
12.8547 71.0467
12.8996 72.3722
12.9445 73.6247
12.9894 75.2042
13.0343 76.9022
13.0792 80.3097
13.1242 90.0896
13.1691 115.639
13.214 150.185
13.2589 223.452
13.3038 338.025
13.3487 430.363
13.3937 298.172
13.4386 138.855
13.4835 109.379
13.5285 123.835
13.5734 156.634
13.6183 227.807
13.6633 328.579
13.7082 360.305
13.7531 217.637
13.7981 106.4
13.843 84.5393
13.888 81.467
13.9329 78.9119
13.9779 77.6672
14.0228 75.8198
14.0678 74.6041
14.1127 74.0624
14.1577 74.2722
14.2027 73.2291
14.2476 71.97
14.2926 72.1615
14.3376 74.0629
14.3825 72.063
14.4275 70.1836
14.4725 69.7911
14.5175 70.3314
14.5624 70.4267
14.6074 73.4965
14.6524 73.9818
14.6974 71.6231
14.7424 73.1151
14.7874 80.3913
14.8324 91.2293
14.8774 109.507
14.9224 143.832
14.9674 194.337
15.0124 222.263
15.0574 165.267
15.1024 99.648
15.1474 75.0058
15.1924 72.304
15.2374 73.4963
15.2824 72.8059
15.3274 69.8618
15.3725 68.3828
15.4175 67.934
15.4625 67.3061
15.5076 67.7566
15.5526 67.643
15.5976 67.3877
15.6426 68.0835
15.6877 73.7411
15.7327 81.8575
15.7778 94.9357
15.8228 120.417
15.8679 159.049
15.9129 192.548
15.958 171.076
16.003 107.758
16.0481 71.9212
16.0931 67.1982
16.1382 64.9341
16.1833 62.1789
16.2283 60.3313
16.2734 59.7757
16.3185 60.3603
16.3636 61.6734
16.4086 59.6357
16.4537 57.6094
16.4988 56.9955
16.5439 56.7308
16.589 56.3564
16.6341 56.1009
16.6792 55.6512
16.7243 56.033
16.7694 56.4577
16.8145 55.9994
16.8596 56.5308
16.9047 58.3131
16.9498 58.8319
16.9949 56.9845
17.04 56.9797
17.0851 58.0957
17.1302 60.1418
17.1754 63.0029
17.2205 66.782
17.2656 73.0262
17.3108 81.1854
17.3559 83.3706
17.401 74.461
17.4462 64.3924
17.4913 60.4834
17.5365 60.2661
17.5815 60.5557
17.6268 61.0404
17.6718 61.7884
17.7171 62.2648
17.7622 62.3691
17.8074 63.1886
17.8525 65.396
17.8977 69.5905
17.9428 75.3026
17.9881 82.7776
18.0331 96.4971
18.0784 115.754
18.1237 137.282
18.1688 138.252
18.214 111.868
18.2591 89.8813
18.3044 89.1769
18.3495 97.6978
18.3948 106.58
18.4399 101.863
18.4852 82.3869
18.5303 68.7692
18.5756 63.8169
18.6207 62.5537
18.666 61.7312
18.7112 61.0735
18.7565 60.4477
18.8016 59.9519
18.8469 59.1699
18.892 58.9648
18.9374 58.6194
18.9825 58.372
19.0278 58.2933
19.073 58.1535
19.1183 58.7451
19.1635 59.7213
19.2088 60.9442
19.254 62.8585
19.2993 66.3085
19.3447 72.1919
19.3898 77.5349
19.4352 75.2309
19.4804 66.5756
19.5257 58.9867
19.5709 55.4469
19.6163 55.0194
19.6615 54.9335
19.7068 54.4741
19.752 54.2624
19.7974 54.5677
19.8426 55.5774
19.888 56.2725
19.9332 57.3346
19.9786 59.4217
20.0238 62.2758
20.0692 66.8669
20.1144 70.5747
20.1598 70.5594
20.205 65.5748
20.2504 63.2871
20.2957 63.6747
20.3411 66.2844
20.3863 66.0945
20.4318 61.1045
20.477 55.6062
20.5224 53.2012
20.5677 52.5177
20.6131 51.4321
20.6586 50.7339
20.7038 50.6073
20.7493 50.2971
20.7945 49.9074
20.84 49.844
20.8853 49.6884
20.9307 49.5852
20.976 49.7198
21.0215 49.8481
21.0668 50.163
21.1122 50.5255
21.1575 50.8031
21.203 51.4262
21.2483 52.2724
21.2938 52.8248
21.3391 51.6198
21.3846 49.9886
21.4299 49.574
21.4754 49.4318
21.5207 49.6221
21.5662 49.7281
21.6116 50.25
21.6571 50.9001
21.7024 51.865
21.7479 53.4353
21.7933 55.7005
21.8388 58.7976
21.8843 62.3787
21.9297 65.4914
21.9752 65.6818
22.0206 61.9256
22.0661 57.837
22.1115 56.9693
22.157 57.2364
22.2024 55.9659
22.248 53.2778
22.2933 51.3004
22.3389 50.2735
22.3843 50.1525
22.4299 50.1005
22.4753 50.1087
22.5208 49.8237
22.5662 49.599
22.6118 49.6849
22.6572 49.9071
22.7028 50.1683
22.7483 50.7431
22.7939 51.3483
22.8393 52.6328
22.8849 54.2875
22.9303 56.1936
22.9759 58.3968
23.0214 59.0471
23.067 56.6137
23.1126 53.0972
23.1581 50.4549
23.2037 49.9816
23.2492 49.951
23.2948 49.7769
23.3403 50.1347
23.3859 50.7705
23.4314 51.5201
23.477 53.1747
23.5225 54.7581
23.5682 57.1583
23.6137 58.9922
23.6593 57.675
23.7048 53.8726
23.7505 50.0478
23.796 47.867
23.8417 47.0208
23.8872 46.5758
23.9329 46.1831
23.9784 45.8892
24.0241 45.6362
24.0697 45.3779
24.1154 45.0774
24.1609 45.003
24.2066 44.8865
24.2522 44.6533
24.2979 44.4247
24.3434 44.2547
24.3892 43.9447
24.4349 44.0079
24.4805 43.8938
24.5262 43.9174
24.5718 43.852
24.6175 43.7935
24.6631 43.8574
24.7089 43.5288
24.7545 43.2991
24.8002 43.2837
24.8458 43.1943
24.8916 42.9827
24.9372 43.0745
24.983 43.377
25.0286 43.6395
25.0744 44.0873
25.12 44.5096
25.1658 44.9101
25.2114 45.4104
25.2572 45.4827
25.3029 45.5472
25.3487 45.7156
25.3943 45.609
25.4402 44.7694
25.4858 43.6955
25.5316 42.5358
25.5773 41.9463
25.6231 41.8423
25.669 41.3612
25.7147 41.3767
25.7605 41.3688
25.8062 41.4521
25.8521 41.5622
25.8977 41.5008
25.9436 41.6045
25.9893 41.7801
26.0352 42.1208
26.0809 42.3381
26.1268 42.5683
26.1725 42.3985
26.2184 41.9013
26.2641 41.2919
26.31 41.0875
26.3557 41.0346
26.4017 40.9805
26.4474 41.2744
26.4933 41.6406
26.5391 41.9665
26.585 42.3052
26.6308 42.7005
26.6767 43.0803
26.7225 43.0098
26.7684 42.3303
26.8142 41.9184
26.8601 41.3275
26.9059 40.8982
26.9519 40.4694
26.9979 40.184
27.0437 39.7887
27.0896 39.5908
27.1354 39.5589
27.1814 39.4528
27.2272 39.3346
27.2732 39.3366
27.3191 39.0872
27.3651 39.1626
27.4109 39.2858
27.4569 39.3375
27.5027 39.3421
27.5488 39.3987
27.5946 39.3789
27.6407 39.0572
27.6865 38.8974
27.7326 38.6605
27.7784 38.7038
27.8245 38.581
27.8703 38.7354
27.9164 39.0607
27.9623 38.9582
28.0084 39.4067
28.0543 39.8129
28.1003 39.7441
28.1462 39.6653
28.1923 39.2804
28.2384 38.8483
28.2843 38.52
28.3304 38.2094
28.3764 37.6126
28.4225 37.2805
28.4684 37.0549
28.5145 36.7242
28.5605 36.7588
28.6066 36.5083
28.6526 36.4198
28.6987 36.3902
28.7447 36.3338
28.7908 36.1234
28.8368 36.2203
28.8829 36.1443
28.9289 36.0387
28.9751 36.0281
29.0211 35.772
29.0673 35.4751
29.1133 35.36
29.1595 35.2158
29.2055 35.1448
29.2517 35.0257
29.2977 35.0317
29.3439 34.8594
29.3899 34.9892
29.4361 34.8349
29.4824 34.7383
29.5284 34.5332
29.5746 34.2387
29.6207 33.816
29.6669 33.8978
29.713 33.7725
29.7593 33.6203
29.8053 33.6236
29.8516 33.4381
29.8977 33.4541
29.9439 33.337
29.99 33.3857
30.0363 33.1732
30.0824 33.272
30.1287 33.0552
30.1748 33.1442
30.2211 33.1061
30.2673 33.0001
30.3136 33.1552
30.3597 33.0845
30.406 32.9209
30.4522 32.7002
30.4985 32.7149
30.5447 32.7787
30.591 32.7444
30.6372 32.8623
30.6835 32.823
30.7297 32.9258
30.7761 32.8314
30.8224 32.7183
30.8686 32.6617
30.915 32.3431
30.9612 32.2216
31.0076 32.0669
31.0538 31.8828
31.1002 31.8168
31.1464 31.6586
31.1928 31.6608
31.2391 31.6332
31.2855 31.4844
31.3317 31.5139
31.3781 31.651
31.4244 31.465
31.4708 31.382
31.5171 31.5613
31.5636 31.461
31.6098 31.2634
31.6563 31.021
31.7026 30.8731
31.7491 30.8089
31.7953 30.8671
31.8418 30.7286
31.8881 30.79
31.9346 30.6591
31.9809 30.6534
32.0275 30.6033
32.074 30.4783
32.1203 30.3261
32.1668 30.1937
32.2132 30.0818
32.2597 29.8848
32.306 29.824
32.3526 29.5757
32.399 29.6521
32.4455 29.4829
32.4919 29.3775
32.5385 29.3527
32.5848 29.1447
32.6314 29.1348
32.6778 29.098
32.7244 28.9493
32.7708 28.7642
32.8174 28.7642
32.8638 28.6742
32.9104 28.674
32.9569 28.607
33.0035 28.4607
33.0499 28.4737
33.0966 28.4128
33.143 28.3808
33.1897 28.3033
33.2361 28.321
33.2828 28.1655
33.3293 28.0586
33.3759 28.0078
33.4226 27.9717
33.4691 27.7945
33.5158 27.6665
33.5623 27.4722
33.609 27.2559
33.6555 27.283
33.7022 27.1984
33.7487 27.0852
33.7954 27.0167
33.842 26.9614
33.8887 26.912
33.9353 26.7968
33.982 26.7347
34.0286 26.6841
34.0753 26.6343
34.1219 26.5585
34.1687 26.3845
34.2152 26.3806
34.262 26.2024
34.3086 26.0942
34.3554 26.1133
34.402 26.0025
34.4488 25.8253
34.4954 25.8362
34.5422 25.6864
34.5889 25.6754
34.6357 25.473
34.6825 25.4282
34.7292 25.3426
34.776 25.2733
34.8227 25.2451
34.8695 25.2515
34.9162 25.1603
34.9631 25.0716
35.0098 24.9947
35.0566 24.8597
35.1033 24.8127
35.1502 24.7891
35.1969 24.7329
35.2438 24.6402
35.2906 24.5877
35.3375 24.5927
35.3842 24.5086
35.4311 24.4849
35.4779 24.4058
35.5248 24.4128
35.5716 24.3126
35.6185 24.1871
35.6653 24.1364
35.7123 24.0749
35.759 23.9173
35.806 23.8681
35.8528 23.7002
35.8998 23.6922
35.9468 23.6486
35.9936 23.6163
36.0406 23.5421
36.0874 23.4632
36.1345 23.3612
36.1813 23.3123
36.2283 23.1503
36.2752 23.1471
36.3222 23.1074
36.3691 23.0964
36.4161 22.9046
36.463 22.8815
36.5101 22.9912
36.557 22.8433
36.6041 22.6585
36.651 22.6907
36.6981 22.5807
36.745 22.5185
36.7921 22.4968
36.839 22.3947
36.8861 22.2569
36.9331 22.1918
36.9802 22.2039
37.0272 22.0352
37.0743 21.9972
37.1213 21.9417
37.1684 21.8484
37.2154 21.8425
37.2626 21.7085
37.3098 21.6837
37.3568 21.5399
37.404 21.5116
37.451 21.5211
37.4982 21.424
37.5452 21.3058
37.5924 21.2337
37.6395 21.2934
37.6867 21.1667
37.7337 21.0086
37.781 20.987
37.8281 20.9016
37.8753 20.8325
37.9224 20.731
37.9697 20.7703
38.0168 20.6819
38.064 20.5517
38.1111 20.5198
38.1584 20.422
38.2056 20.3766
38.2529 20.3308
38.3 20.2753
38.3473 20.1794
38.3945 20.0968
38.4418 20.1168
38.489 20.175
38.5363 19.8932
38.5837 19.9004
38.6309 19.7922
38.6782 19.7972
38.7254 19.7146
38.7728 19.5821
38.82 19.5178
38.8674 19.4873
38.9146 19.4445
38.9621 19.3688
39.0093 19.3967
39.0567 19.2837
39.104 19.2044
39.1514 19.125
39.1987 19.1397
39.2461 18.9533
39.2934 18.9513
39.3409 18.861
39.3882 18.8217
39.4356 18.8343
39.483 18.7093
39.5304 18.614
39.5778 18.5945
39.6253 18.5449
39.6726 18.4683
39.7201 18.3785
39.7675 18.3879
39.815 18.3567
39.8624 18.2318
39.9099 18.2048
39.9575 18.0968
40.0049 17.9953
40.0525 18.0196
40.0999 17.9359
40.1474 17.9447
40.1949 17.8585
40.2425 17.7594
40.2899 17.7966
40.3375 17.6918
40.385 17.6217
40.4326 17.6118
40.48 17.5038
40.5277 17.501
40.5752 17.4462
40.6228 17.3379
40.6703 17.3376
40.718 17.2472
40.7655 17.1724
40.8132 17.0858
40.8607 17.0581
40.9084 17.082
40.9559 16.9572
41.0036 16.9338
41.0512 16.8612
41.0989 16.8764
41.1465 16.7733
41.1942 16.6716
41.242 16.62
41.2896 16.5809
41.3373 16.4922
41.3849 16.4509
41.4327 16.4111
41.4803 16.3539
41.5281 16.3282
41.5758 16.2103
41.6236 16.1839
41.6712 16.1329
41.7191 16.0995
41.7667 15.991
41.8146 15.9298
41.8622 15.9565
41.9101 15.8314
41.9578 15.7917
42.0057 15.7883
42.0534 15.7107
42.1013 15.6986
42.149 15.6153
42.1969 15.5389
42.2446 15.4931
42.2925 15.4547
42.3403 15.3996
42.3882 15.4393
42.436 15.3326
42.4839 15.2346
42.5319 15.2047
42.5797 15.1533
42.6277 15.1069
42.6755 15.092
42.7235 15.0443
42.7713 14.9435
42.8193 14.8228
42.8671 14.82
42.9152 14.8286
42.963 14.7545
43.0111 14.6648
43.0589 14.6166
43.107 14.607
43.1549 14.5157
43.2029 14.523
43.2508 14.4501
43.2989 14.4059
43.3468 14.2673
43.3949 14.2968
43.4429 14.2333
43.491 14.1627
43.5389 14.1524
43.5871 14.0723
43.635 14.0104
43.6832 14.0031
43.7312 13.9223
43.7793 13.8992
43.8273 13.8795
43.8755 13.7678
43.9237 13.7647
43.9717 13.7411
44.0199 13.6988
44.068 13.6278
44.1162 13.557
44.1642 13.5165
44.2125 13.5114
44.2606 13.4392
44.3088 13.3349
44.3569 13.3563
44.4052 13.3446
44.4533 13.2809
44.5016 13.158
44.5497 13.1406
44.598 13.0914
44.6461 13.0314
44.6945 13.013
44.7426 12.934
44.791 12.8981
44.8391 12.8677
44.8875 12.7879
44.9357 12.7855
44.984 12.7272
45.0322 12.6994
45.0806 12.6638
45.1288 12.583
45.1773 12.6084
45.2257 12.5003
45.2739 12.4913
45.3224 12.4456
45.3706 12.4034
45.4191 12.3567
45.4673 12.321
45.5158 12.2438
45.5641 12.2155
45.6126 12.149
45.6609 12.0791
45.7094 12.0619
45.7577 12.0439
45.8063 11.9264
45.8546 11.9589
45.9031 11.913
45.9515 11.8516
46.0001 11.8425
46.0484 11.7695
46.097 11.7334
46.1454 11.7089
46.194 11.6864
46.2424 11.6174
46.291 11.5642
46.3395 11.5297
46.3881 11.4485
46.4365 11.4384
46.4852 11.3866
46.5337 11.3333
46.5823 11.3614
46.631 11.2364
46.6795 11.2408
46.7282 11.2138
46.7767 11.1598
46.8254 11.1264
46.8739 11.0599
46.9226 11.0384
46.9712 11.004
47.0199 10.9389
47.0685 10.893
47.1173 10.8666
47.1658 10.7871
47.2146 10.7888
47.2632 10.7082
47.312 10.7101
47.3606 10.682
47.4095 10.6222
47.4581 10.5935
47.5069 10.5467
47.5556 10.507
47.6044 10.4598
47.6531 10.4269
47.702 10.353
47.7507 10.3671
47.7996 10.2965
47.8483 10.2868
47.8972 10.2562
47.9461 10.2103
47.9948 10.1317
48.0438 10.0932
48.0925 10.1326
48.1415 10.0869
48.1902 10.0337
48.2392 10.0303
48.288 9.98283
48.337 9.91573
48.3858 9.91253
48.4348 9.8575
48.4837 9.82192
48.5327 9.79024
48.5815 9.74247
48.6306 9.72715
48.6795 9.70295
48.7285 9.66754
48.7774 9.61647
48.8265 9.61564
48.8754 9.50736
48.9245 9.46234
48.9734 9.44509
49.0226 9.39977
49.0715 9.39511
49.1206 9.34911
49.1696 9.30395
49.2188 9.29749
49.2679 9.25376
49.3169 9.22352
49.3661 9.14927
49.4151 9.1189
49.4643 9.12229
49.5134 9.06388
49.5626 9.02021
49.6117 9.00885
49.6609 8.97671
49.71 8.91599
49.7592 8.90971
49.8083 8.81073
49.8576 8.84421
49.9067 8.7681
49.956 8.76039
50.0052 8.73031
50.0545 8.69694
50.1036 8.62287
50.153 8.64176
50.2022 8.59733
50.2515 8.52679
50.3007 8.50719
50.3501 8.48212
50.3993 8.47079
50.4487 8.39638
50.498 8.3897
50.5474 8.35043
50.5966 8.32001
50.6461 8.29875
50.6955 8.30822
50.7448 8.20451
50.7943 8.22285
50.8436 8.17627
50.8931 8.17134
50.9424 8.11936
50.9919 8.09306
51.0413 8.01945
51.0908 8.02705
51.1402 7.96188
51.1897 7.91047
51.2391 7.95234
51.2887 7.87292
51.3381 7.84273
51.3877 7.7935
51.4371 7.78444
51.4867 7.76475
51.5362 7.70431
51.5858 7.69349
51.6353 7.63957
51.6849 7.61903
51.7344 7.59598
51.7841 7.57858
51.8336 7.53407
51.8833 7.51369
51.9328 7.39544
51.9826 7.41945
52.0323 7.42326
52.0818 7.36583
52.1316 7.30518
52.1812 7.3055
52.231 7.28527
52.2806 7.23415
52.3304 7.21367
52.38 7.17155
52.4298 7.16092
52.4794 7.11594
52.5293 7.11246
52.5789 7.07044
52.6288 7.0443
52.6785 6.98943
52.7284 6.98606
52.7781 6.96206
52.828 6.89135
52.8777 6.8872
52.9276 6.90878
52.9774 6.85451
53.0273 6.81907
53.0771 6.8251
53.1271 6.7643
53.1769 6.71527
53.2269 6.73224
53.2767 6.6302
53.3267 6.62493
53.3765 6.63691
53.4266 6.56701
53.4766 6.53778
53.5265 6.51785
53.5765 6.54089
53.6264 6.50209
53.6765 6.44115
53.7264 6.40608
53.7765 6.41158
53.8265 6.35779
53.8766 6.34714
53.9266 6.29128
53.9767 6.24916
54.0267 6.28009
54.0769 6.23223
54.1269 6.1909
54.1771 6.11344
54.2271 6.1583
54.2773 6.09156
54.3274 6.04805
54.3776 6.04379
54.4277 6.07202
54.478 5.98789
54.528 5.90842
54.5783 5.91926
54.6285 5.84732
54.6788 5.79653
54.7289 5.79714
54.7792 5.73341
54.8296 5.7115
54.8798 5.66014
54.9301 5.62491
54.9803 5.59315
55.0307 5.49733
55.0809 5.49115
55.1314 5.45264
55.1816 5.35685
55.232 5.40171
55.2823 5.37746
55.3328 5.2824
55.383 5.18667
55.4335 5.11211
55.4838 5.07462
55.5344 5.06438
55.5847 5.06924
55.6352 5.0013
55.6856 4.95318
55.7361 4.97158