File: XRD/Ni3Fe_FD0503.xy
TT I
1.27165 7.54971
1.31627 7.4234
1.36089 6.19691
1.40551 6.87108
1.45013 6.25095
1.49476 5.74546
1.53938 6.26945
1.584 5.43453
1.62863 5.36298
1.67325 4.96963
1.71787 4.97639
1.7625 4.88021
1.80712 4.56796
1.85174 4.65809
1.89636 5.00923
1.94099 5.33757
1.98562 4.40605
2.03025 4.70803
2.07487 4.48724
2.11949 4.88009
2.16411 4.65629
2.20874 13.8126
2.25338 22.3311
2.298 6.01858
2.34263 5.0995
2.38725 5.99228
2.43188 5.51431
2.4765 6.09477
2.52115 7.13268
2.56577 6.72345
2.6104 7.73319
2.65503 7.76719
2.69965 7.28342
2.7443 7.367
2.78893 7.99656
2.83356 7.95529
2.87818 8.91365
2.92281 9.14895
2.96744 9.53212
3.01209 10.5015
3.05672 10.7344
3.10135 12.3188
3.14599 13.3789
3.19062 13.8642
3.23527 15.2874
3.2799 15.955
3.32454 16.6879
3.36917 18.1633
3.4138 18.8628
3.45844 20.2458
3.50309 21.1747
3.54773 21.9202
3.59237 24.6091
3.637 90.7903
3.68164 57.7596
3.7263 26.3964
3.77094 26.3979
3.81558 26.9764
3.86022 28.0552
3.90486 29.0985
3.9495 29.863
3.99416 30.6052
4.0388 32.5509
4.08344 33.3457
4.12809 35.0741
4.17273 37.3758
4.21738 43.4053
4.26204 239.544
4.30669 208.406
4.35133 49.2026
4.39598 44.8679
4.44063 54.5292
4.4853 65.4353
4.52995 51.38
4.5746 51.3268
4.61925 53.6298
4.6639 55.7996
4.70855 58.5768
4.75322 61.6969
4.79788 64.2344
4.84253 68.3473
4.88719 72.1831
4.93184 76.216
4.97652 81.9177
5.02118 88.3761
5.06583 96.4317
5.11049 109.008
5.15515 177.687
5.19981 395.222
5.24449 3058.14
5.28916 11891.3
5.33382 3241.76
5.37848 205.202
5.42315 134.071
5.46783 117.218
5.5125 108.314
5.55716 103.993
5.60183 100.201
5.6465 98.0968
5.69117 95.5879
5.73586 93.732
5.78053 93.441
5.8252 93.1095
5.86988 93.5364
5.91455 96.3679
5.95924 105.418
6.00392 223.367
6.0486 1039.22
6.09328 4148.7
6.13795 3441.08
6.18263 293.343
6.22733 97.5059
6.27201 85.3365
6.3167 102.667
6.36138 81.41
6.40606 70.1453
6.45075 68.3802
6.49545 66.0847
6.54014 64.6622
6.58483 63.7767
6.62952 63.6707
6.67421 94.1732
6.71892 141.867
6.76361 68.9793
6.8083 59.5481
6.853 58.1587
6.89769 57.585
6.94239 57.3698
6.98711 56.4573
7.03181 56.0105
7.07651 55.8378
7.12121 55.938
7.16591 56.1945
7.21063 56.3416
7.25533 70.7243
7.30004 173.357
7.34475 90.3357
7.38945 57.351
7.43416 55.5117
7.47889 55.1733
7.5236 55.6385
7.56831 55.9448
7.61303 57.7037
7.65774 58.2935
7.70247 56.9869
7.74719 57.0021
7.79191 57.4915
7.83663 57.5216
7.88135 58.5721
7.92607 59.6039
7.97081 60.5255
8.01553 61.4946
8.06026 63.0565
8.10498 64.7949
8.14971 74.1793
8.19446 72.8209
8.23919 70.3924
8.28392 72.5526
8.32865 75.2934
8.37339 79.6322
8.41812 86.4944
8.46288 115.019
8.50761 170.971
8.55235 410.068
8.59709 1173.21
8.64183 2142.44
8.68658 1055.65
8.73134 181.125
8.77609 101.907
8.82083 94.2743
8.86558 90.8013
8.91033 91.4134
8.9551 92.5075
8.99985 86.6708
9.04461 84.6274
9.08936 84.2908
9.13412 82.8041
9.17888 83.4363
9.22365 83.9916
9.26841 82.9107
9.31318 83.6343
9.35794 83.8012
9.4027 84.0701
9.44749 84.9431
9.49226 85.8131
9.53703 86.7692
9.5818 88.5606
9.62657 93.1837
9.67134 99.6592
9.71614 94.9747
9.76091 95.3104
9.80569 98.0063
9.85047 101.211
9.89525 124.929
9.94005 137.606
9.98484 183.147
10.0296 360.546
10.0744 820.588
10.1192 1649.78
10.164 1634.03
10.2088 445.228
10.2536 135.762
10.2984 115.584
10.3432 116.404
10.388 106.429
10.4328 120.956
10.4776 165.028
10.5224 284.483
10.5672 500.355
10.612 508.959
10.6568 225.974
10.7017 99.7725
10.7465 88.0451
10.7913 84.679
10.8361 82.5135
10.8809 79.953
10.9257 79.4204
10.9706 79.991
11.0154 75.7166
11.0602 73.7053
11.105 72.7189
11.1499 76.5239
11.1947 83.6103
11.2395 74.8335
11.2844 71.1858
11.3292 68.1308
11.374 66.8412
11.4189 66.6817
11.4637 65.8927
11.5086 66.2386
11.5534 69.1791
11.5983 66.4322
11.6431 64.4089
11.688 63.8135
11.7328 63.9835
11.7777 63.6329
11.8225 63.0318
11.8674 63.1185
11.9122 63.4771
11.9571 63.6221
12.002 64.4525
12.0468 68.8079
12.0917 80.8512
12.1366 106.169
12.1814 153.978
12.2263 200.423
12.2712 171.156
12.3161 102.258
12.3609 71.8935
12.4058 65.7164
12.4507 65.1854
12.4956 65.4548
12.5405 65.3794
12.5853 66.4935
12.6302 73.7018
12.6751 79.1744
12.72 70.6261
12.7649 68.4893
12.8098 69.2646
12.8547 70.4027
12.8996 71.8737
12.9445 72.9134
12.9894 75.1316
13.0343 76.796
13.0792 80.1696
13.1242 89.6885
13.1691 115.09
13.214 153.033
13.2589 238.8
13.3038 360.798
13.3487 422.247
13.3937 278.66
13.4386 131.988
13.4835 108.314
13.5285 124.124
13.5734 162.023
13.6183 245.214
13.6633 335.369
13.7082 338.598
13.7531 201.677
13.7981 102.918
13.843 83.2469
13.888 81.0263
13.9329 78.0681
13.9779 76.8918
14.0228 75.2416
14.0678 73.8681
14.1127 73.349
14.1577 73.1641
14.2027 72.6252
14.2476 71.339
14.2926 71.7529
14.3376 72.6441
14.3825 71.2839
14.4275 69.7257
14.4725 69.4144
14.5175 69.875
14.5624 70.0458
14.6074 71.9509
14.6524 72.5641
14.6974 71.3704
14.7424 72.879
14.7874 80.2586
14.8324 90.8591
14.8774 112.43
14.9224 152.579
14.9674 200.22
15.0124 214.221
15.0574 155.66
15.1024 95.7452
15.1474 73.7705
15.1924 71.6197
15.2374 71.8548
15.2824 71.2097
15.3274 69.1167
15.3725 67.729
15.4175 67.4286
15.4625 66.9718
15.5076 67.2391
15.5526 67.0797
15.5976 66.6657
15.6426 67.6889
15.6877 73.7039
15.7327 81.6108
15.7778 96.6243
15.8228 127.281
15.8679 168.067
15.9129 189.783
15.958 160.272
16.003 102.537
16.0481 70.4032
16.0931 65.6932
16.1382 63.6261
16.1833 61.5575
16.2283 59.9715
16.2734 59.1593
16.3185 59.5474
16.3636 60.0074
16.4086 58.5803
16.4537 56.8556
16.4988 56.3281
16.5439 56.4019
16.589 55.9155
16.6341 55.7629
16.6792 55.1465
16.7243 55.7477
16.7694 55.573
16.8145 55.5356
16.8596 55.9822
16.9047 57.6109
16.9498 57.6001
16.9949 56.4953
17.04 56.5021
17.0851 57.8834
17.1302 59.5342
17.1754 62.779
17.2205 67.4514
17.2656 74.5995
17.3108 81.8777
17.3559 82.4205
17.401 72.966
17.4462 63.539
17.4913 60.3803
17.5365 59.6919
17.5815 59.904
17.6268 60.1849
17.6718 61.1876
17.7171 61.6672
17.7622 62.1872
17.8074 62.6023
17.8525 65.159
17.8977 69.3623
17.9428 75.0688
17.9881 83.6858
18.0331 100.305
18.0784 120.499
18.1237 136.606
18.1688 132.935
18.214 107.295
18.2591 89.0832
18.3044 91.3886
18.3495 99.4008
18.3948 105.516
18.4399 98.5308
18.4852 80.4943
18.5303 67.7671
18.5756 62.9976
18.6207 62.2009
18.666 61.4115
18.7112 60.6408
18.7565 59.7085
18.8016 59.4403
18.8469 58.9038
18.892 58.5081
18.9374 57.9991
18.9825 57.8351
19.0278 57.5339
19.073 57.7785
19.1183 58.206
19.1635 59.2674
19.2088 60.2745
19.254 63.0105
19.2993 66.92
19.3447 72.6589
19.3898 76.5676
19.4352 73.5371
19.4804 65.0851
19.5257 57.8417
19.5709 54.9711
19.6163 54.6225
19.6615 54.4737
19.7068 53.9986
19.752 54.1136
19.7974 54.3233
19.8426 55.3065
19.888 55.7319
19.9332 57.1592
19.9786 59.6144
20.0238 62.7788
20.0692 67.3198
20.1144 70.2006
20.1598 69.1019
20.205 64.9817
20.2504 63.0371
20.2957 64.002
20.3411 65.6832
20.3863 64.7473
20.4318 59.7451
20.477 54.8138
20.5224 52.481
20.5677 51.6686
20.6131 50.9332
20.6586 50.2826
20.7038 50.2582
20.7493 49.7293
20.7945 49.6376
20.84 49.5374
20.8853 49.5802
20.9307 49.176
20.976 49.3494
21.0215 49.3869
21.0668 49.6996
21.1122 50.0852
21.1575 50.7394
21.203 51.3626
21.2483 51.9537
21.2938 52.2357
21.3391 50.9103
21.3846 49.7244
21.4299 49.1154
21.4754 48.9613
21.5207 49.1546
21.5662 49.435
21.6116 49.903
21.6571 50.523
21.7024 51.7978
21.7479 53.2341
21.7933 55.903
21.8388 59.2972
21.8843 62.8046
21.9297 64.8247
21.9752 64.2895
22.0206 60.9452
22.0661 57.5625
22.1115 56.5214
22.157 56.5233
22.2024 55.2845
22.248 52.3687
22.2933 50.65
22.3389 49.9151
22.3843 49.6565
22.4299 49.6335
22.4753 49.7104
22.5208 49.1513
22.5662 49.0925
22.6118 49.2358
22.6572 49.4847
22.7028 49.9692
22.7483 50.4145
22.7939 51.1789
22.8393 52.7682
22.8849 54.7768
22.9303 56.4211
22.9759 58.0707
23.0214 57.9891
23.067 55.5243
23.1126 52.065
23.1581 50.0681
23.2037 49.5277
23.2492 49.6713
23.2948 49.5421
23.3403 49.8606
23.3859 50.5144
23.4314 51.4007
23.477 53.0608
23.5225 55.2348
23.5682 57.0707
23.6137 58.1087
23.6593 56.5334
23.7048 52.6323
23.7505 49.1733
23.796 47.4262
23.8417 46.6501
23.8872 46.1662
23.9329 45.9119
23.9784 45.5154
24.0241 45.243
24.0697 45.1195
24.1154 44.6681
24.1609 44.742
24.2066 44.377
24.2522 44.4112
24.2979 44.0365
24.3434 43.9859
24.3892 43.7691
24.4349 43.5809
24.4805 43.562
24.5262 43.5575
24.5718 43.5158
24.6175 43.5091
24.6631 43.4683
24.7089 43.1909
24.7545 43.0821
24.8002 42.7033
24.8458 42.9392
24.8916 42.6976
24.9372 42.8859
24.983 43.1266
25.0286 43.5095
25.0744 43.8037
25.12 44.2883
25.1658 44.8195
25.2114 45.2509
25.2572 45.4397
25.3029 45.4741
25.3487 45.3551
25.3943 45.1844
25.4402 44.2562
25.4858 43.1724
25.5316 42.1586
25.5773 41.5786
25.6231 41.5477
25.669 41.0527
25.7147 41.003
25.7605 41.1042
25.8062 40.9873
25.8521 41.3084
25.8977 41.2061
25.9436 41.5331
25.9893 41.5864
26.0352 41.7979
26.0809 42.1266
26.1268 42.2779
26.1725 41.979
26.2184 41.4293
26.2641 40.8086
26.31 40.6703
26.3557 40.6854
26.4017 40.6713
26.4474 41.0259
26.4933 41.2322
26.5391 41.7763
26.585 42.2335
26.6308 42.3614
26.6767 42.7207
26.7225 42.6106
26.7684 41.9931
26.8142 41.4163
26.8601 41.0776
26.9059 40.714
26.9519 40.1133
26.9979 39.9024
27.0437 39.4032
27.0896 39.1656
27.1354 39.2834
27.1814 39.2147
27.2272 39.0585
27.2732 39.0837
27.3191 38.9469
27.3651 39.0683
27.4109 38.8805
27.4569 39.0689
27.5027 39.0541
27.5488 39.1633
27.5946 39.0207
27.6407 38.7028
27.6865 38.7807
27.7326 38.4891
27.7784 38.4682
27.8245 38.2411
27.8703 38.5427
27.9164 38.7865
27.9623 38.8652
28.0084 39.0837
28.0543 39.5503
28.1003 39.5245
28.1462 39.3837
28.1923 38.9052
28.2384 38.5286
28.2843 38.2324
28.3304 37.7209
28.3764 37.23
28.4225 37.0449
28.4684 36.8473
28.5145 36.4551
28.5605 36.3321
28.6066 36.0722
28.6526 36.1917
28.6987 36.2373
28.7447 36.0139
28.7908 35.8895
28.8368 35.9107
28.8829 35.905
28.9289 35.7973
28.9751 35.6776
29.0211 35.4657
29.0673 35.1887
29.1133 34.9953
29.1595 34.9502
29.2055 34.8463
29.2517 34.834
29.2977 34.7264
29.3439 34.6522
29.3899 34.6889
29.4361 34.5953
29.4824 34.4021
29.5284 34.2357
29.5746 34.0145
29.6207 33.6766
29.6669 33.5687
29.713 33.4451
29.7593 33.2573
29.8053 33.3557
29.8516 33.2643
29.8977 33.2394
29.9439 33.0815
29.99 33.0627
30.0363 32.803
30.0824 32.9246
30.1287 32.751
30.1748 32.8704
30.2211 32.8825
30.2673 32.6463
30.3136 32.8381
30.3597 32.7613
30.406 32.6432
30.4522 32.4905
30.4985 32.5063
30.5447 32.6689
30.591 32.5037
30.6372 32.6248
30.6835 32.4817
30.7297 32.5841
30.7761 32.6517
30.8224 32.4046
30.8686 32.2354
30.915 32.0699
30.9612 31.9094
31.0076 31.715
31.0538 31.6577
31.1002 31.5693
31.1464 31.3777
31.1928 31.4341
31.2391 31.3688
31.2855 31.2576
31.3317 31.22
31.3781 31.2083
31.4244 31.3363
31.4708 31.2242
31.5171 31.2016
31.5636 31.1606
31.6098 31.0121
31.6563 30.7617
31.7026 30.6265
31.7491 30.6507
31.7953 30.6703
31.8418 30.5531
31.8881 30.6116
31.9346 30.5226
31.9809 30.4024
32.0275 30.2832
32.074 30.2798
32.1203 30.0447
32.1668 29.855
32.2132 29.7786
32.2597 29.7602
32.306 29.6609
32.3526 29.351
32.399 29.2058
32.4455 29.2341
32.4919 29.0735
32.5385 29.1294
32.5848 28.8578
32.6314 28.8581
32.6778 28.9506
32.7244 28.6598
32.7708 28.5168
32.8174 28.5144
32.8638 28.4211
32.9104 28.4178
32.9569 28.422
33.0035 28.2461
33.0499 28.1923
33.0966 28.2255
33.143 28.1801
33.1897 28.029
33.2361 27.9864
33.2828 28.0085
33.3293 27.7913
33.3759 27.7511
33.4226 27.5594
33.4691 27.4866
33.5158 27.4711
33.5623 27.4099
33.609 27.1096
33.6555 27.1091
33.7022 27.0009
33.7487 26.7994
33.7954 26.8647
33.842 26.8109
33.8887 26.7147
33.9353 26.6633
33.982 26.5477
34.0286 26.4106
34.0753 26.4145
34.1219 26.2447
34.1687 26.1961
34.2152 26.1532
34.262 25.9939
34.3086 25.8952
34.3554 25.8409
34.402 25.7206
34.4488 25.6566
34.4954 25.6017
34.5422 25.474
34.5889 25.4716
34.6357 25.4247
34.6825 25.2893
34.7292 25.2602
34.776 25.0433
34.8227 24.9648
34.8695 25.0177
34.9162 24.9041
34.9631 24.7983
35.0098 24.8304
35.0566 24.7473
35.1033 24.6869
35.1502 24.6189
35.1969 24.5468
35.2438 24.4266
35.2906 24.3962
35.3375 24.3716
35.3842 24.2554
35.4311 24.3358
35.4779 24.3215
35.5248 24.2664
35.5716 24.0356
35.6185 23.9992
35.6653 23.9192
35.7123 23.8998
35.759 23.7818
35.806 23.6828
35.8528 23.5997
35.8998 23.5926
35.9468 23.3572
35.9936 23.4175
36.0406 23.3448
36.0874 23.2961
36.1345 23.2375
36.1813 23.1784
36.2283 23.065
36.2752 22.9447
36.3222 22.9986
36.3691 22.8634
36.4161 22.6972
36.463 22.7339
36.5101 22.7065
36.557 22.6402
36.6041 22.4229
36.651 22.5043
36.6981 22.4368
36.745 22.3763
36.7921 22.2708
36.839 22.1499
36.8861 22.1177
36.9331 22.1192
36.9802 21.9956
37.0272 21.814
37.0743 21.7523
37.1213 21.8107
37.1684 21.7155
37.2154 21.5848
37.2626 21.5708
37.3098 21.4938
37.3568 21.4405
37.404 21.4219
37.451 21.3396
37.4982 21.2143
37.5452 21.0765
37.5924 21.1176
37.6395 21.1408
37.6867 21.0311
37.7337 20.8706
37.781 20.8086
37.8281 20.7403
37.8753 20.6502
37.9224 20.5985
37.9697 20.5436
38.0168 20.4922
38.064 20.377
38.1111 20.4394
38.1584 20.3226
38.2056 20.2327
38.2529 20.1191
38.3 20.0884
38.3473 20.0587
38.3945 19.9787
38.4418 19.9509
38.489 19.8411
38.5363 19.8318
38.5837 19.7698
38.6309 19.7033
38.6782 19.5877
38.7254 19.5197
38.7728 19.4938
38.82 19.4025
38.8674 19.3349
38.9146 19.2593
38.9621 19.1706
39.0093 19.2103
39.0567 19.0688
39.104 19.048
39.1514 19.0109
39.1987 18.9715
39.2461 18.8736
39.2934 18.7931
39.3409 18.6927
39.3882 18.7475
39.4356 18.6327
39.483 18.5395
39.5304 18.5425
39.5778 18.4924
39.6253 18.3802
39.6726 18.3912
39.7201 18.2552
39.7675 18.2536
39.815 18.1866
39.8624 18.0279
39.9099 18.1017
39.9575 17.9371
40.0049 17.9565
40.0525 17.9026
40.0999 17.8472
40.1474 17.7896
40.1949 17.691
40.2425 17.6443
40.2899 17.5752
40.3375 17.5291
40.385 17.4578
40.4326 17.4963
40.48 17.3628
40.5277 17.3543
40.5752 17.2481
40.6228 17.1434
40.6703 17.1678
40.718 17.0682
40.7655 17.1007
40.8132 17.0115
40.8607 17.005
40.9084 16.9007
40.9559 16.8508
41.0036 16.766
41.0512 16.7334
41.0989 16.7224
41.1465 16.5868
41.1942 16.6035
41.242 16.4265
41.2896 16.4452
41.3373 16.3731
41.3849 16.3306
41.4327 16.3315
41.4803 16.2508
41.5281 16.1641
41.5758 16.104
41.6236 16.0431
41.6712 16.031
41.7191 15.9373
41.7667 15.8684
41.8146 15.8357
41.8622 15.8119
41.9101 15.7791
41.9578 15.6248
42.0057 15.6052
42.0534 15.53
42.1013 15.5324
42.149 15.4519
42.1969 15.4311
42.2446 15.432
42.2925 15.3328
42.3403 15.283
42.3882 15.2741
42.436 15.2048
42.4839 15.071
42.5319 15.0486
42.5797 15.0395
42.6277 14.9651
42.6755 14.9585
42.7235 14.8695
42.7713 14.7847
42.8193 14.7387
42.8671 14.7468
42.9152 14.7123
42.963 14.6104
43.0111 14.5592
43.0589 14.4795
43.107 14.4237
43.1549 14.441
43.2029 14.3701
43.2508 14.3143
43.2989 14.2541
43.3468 14.1566
43.3949 14.2367
43.4429 14.1407
43.491 14.0726
43.5389 14.0647
43.5871 13.9838
43.635 13.9235
43.6832 13.8776
43.7312 13.8449
43.7793 13.7845
43.8273 13.6983
43.8755 13.6537
43.9237 13.6629
43.9717 13.6455
44.0199 13.5105
44.068 13.5266
44.1162 13.4391
44.1642 13.4501
44.2125 13.3637
44.2606 13.3318
44.3088 13.2801
44.3569 13.2098
44.4052 13.2098
44.4533 13.1101
44.5016 13.0595
44.5497 13.0883
44.598 13.0458
44.6461 12.9178
44.6945 12.9103
44.7426 12.8458
44.791 12.8137
44.8391 12.776
44.8875 12.7592
44.9357 12.7105
44.984 12.6607
45.0322 12.5785
45.0806 12.467
45.1288 12.4916
45.1773 12.4193
45.2257 12.4285
45.2739 12.3917
45.3224 12.3145
45.3706 12.2932
45.4191 12.1939
45.4673 12.1594
45.5158 12.1603
45.5641 12.0883
45.6126 12.0654
45.6609 11.9955
45.7094 11.9869
45.7577 11.9287
45.8063 11.8525
45.8546 11.8798
45.9031 11.7776
45.9515 11.8038
46.0001 11.7403
46.0484 11.6695
46.097 11.6245
46.1454 11.6138
46.194 11.5312
46.2424 11.5191
46.291 11.4349
46.3395 11.4163
46.3881 11.33
46.4365 11.3868
46.4852 11.3176
46.5337 11.218
46.5823 11.2233
46.631 11.1377
46.6795 11.1545
46.7282 11.1303
46.7767 11.0581
46.8254 11.016
46.8739 10.9643
46.9226 10.9325
46.9712 10.8803
47.0199 10.8585
47.0685 10.7823
47.1173 10.744
47.1658 10.7027
47.2146 10.6962
47.2632 10.6116
47.312 10.6001
47.3606 10.5885
47.4095 10.5092
47.4581 10.4854
47.5069 10.4232
47.5556 10.4241
47.6044 10.3487
47.6531 10.3584
47.702 10.3115
47.7507 10.2706
47.7996 10.2166
47.8483 10.2048
47.8972 10.1524
47.9461 10.1387
47.9948 10.0488
48.0438 10.0239
48.0925 10.0502
48.1415 9.98813
48.1902 9.93205
48.2392 9.89598
48.288 9.88651
48.337 9.83619
48.3858 9.81357
48.4348 9.79692
48.4837 9.75674
48.5327 9.69085
48.5815 9.63723
48.6306 9.62439
48.6795 9.58786
48.7285 9.55146
48.7774 9.51799
48.8265 9.49873
48.8754 9.45832
48.9245 9.46254
48.9734 9.39632
49.0226 9.34008
49.0715 9.32573
49.1206 9.25995
49.1696 9.20606
49.2188 9.21091
49.2679 9.13871
49.3169 9.12275
49.3661 9.07746
49.4151 9.03695
49.4643 9.05825
49.5134 8.98715
49.5626 8.91277
49.6117 8.91441
49.6609 8.89929
49.71 8.81952
49.7592 8.82613
49.8083 8.77274
49.8576 8.75643
49.9067 8.68123
49.956 8.65751
50.0052 8.65486
50.0545 8.61851
50.1036 8.57159
50.153 8.55528
50.2022 8.52273
50.2515 8.49159
50.3007 8.42052
50.3501 8.42344
50.3993 8.383
50.4487 8.36942
50.498 8.32029
50.5474 8.27167
50.5966 8.24387
50.6461 8.21403
50.6955 8.16235
50.7448 8.15488
50.7943 8.06581
50.8436 8.09904
50.8931 8.06274
50.9424 8.03733
50.9919 7.99851
51.0413 7.97789
51.0908 7.94296
51.1402 7.91915
51.1897 7.85153
51.2391 7.87525
51.2887 7.8069
51.3381 7.77477
51.3877 7.73497
51.4371 7.73483
51.4867 7.70253
51.5362 7.66633
51.5858 7.60487
51.6353 7.57294
51.6849 7.52969
51.7344 7.49262
51.7841 7.51112
51.8336 7.49391
51.8833 7.44065
51.9328 7.38181
51.9826 7.3522
52.0323 7.34473
52.0818 7.29722
52.1316 7.25781
52.1812 7.28173
52.231 7.21578
52.2806 7.20965
52.3304 7.18377
52.38 7.17673
52.4298 7.05482
52.4794 7.04769
52.5293 7.08524
52.5789 6.97045
52.6288 7.00977
52.6785 6.9416
52.7284 6.92611
52.7781 6.84894
52.828 6.86584
52.8777 6.82304
52.9276 6.76785
52.9774 6.80821
53.0273 6.78465
53.0771 6.74275
53.1271 6.69703
53.1769 6.68825
53.2269 6.63748
53.2767 6.59527
53.3267 6.57969
53.3765 6.56366
53.4266 6.56353
53.4766 6.55978
53.5265 6.46066
53.5765 6.47038
53.6264 6.40298
53.6765 6.3659
53.7264 6.35577
53.7765 6.35929
53.8265 6.31333
53.8766 6.27631
53.9266 6.25216
53.9767 6.18499
54.0267 6.20103
54.0769 6.13244
54.1269 6.11408
54.1771 6.12566
54.2271 6.06982
54.2773 6.07988
54.3274 6.01715
54.3776 5.99283
54.4277 5.92432
54.478 5.92582
54.528 5.89018
54.5783 5.8117
54.6285 5.79434
54.6788 5.74353
54.7289 5.71047
54.7792 5.68015
54.8296 5.60559
54.8798 5.54467
54.9301 5.53618
54.9803 5.50435
55.0307 5.5324
55.0809 5.48681
55.1314 5.43687
55.1816 5.36428
55.232 5.38072
55.2823 5.31113
55.3328 5.18367
55.383 5.18322
55.4335 5.09225
55.4838 5.06199
55.5344 5.04122
55.5847 4.94176
55.6352 4.97551
55.6856 4.89815
55.7361 4.84415