File: XRD/Ni3Fe_FD0183.xy
TT I
1.27165 7.60695
1.31627 6.93386
1.36089 7.69771
1.40551 5.41118
1.45013 6.63246
1.49476 6.89654
1.53938 6.16728
1.584 5.47354
1.62863 6.02025
1.67325 5.31693
1.71787 5.19458
1.7625 4.97626
1.80712 5.16
1.85174 4.83471
1.89636 4.93313
1.94099 5.16644
1.98562 4.88345
2.03025 5.05684
2.07487 4.70454
2.11949 4.88937
2.16411 4.77699
2.20874 4.6004
2.25338 4.14893
2.298 4.90459
2.34263 4.47256
2.38725 4.67611
2.43188 4.18378
2.4765 4.46186
2.52115 4.84709
2.56577 5.43737
2.6104 5.40132
2.65503 5.53603
2.69965 5.61517
2.7443 5.76909
2.78893 7.16007
2.83356 7.27314
2.87818 8.08003
2.92281 8.72908
2.96744 9.46659
3.01209 10.8281
3.05672 11.153
3.10135 12.5223
3.14599 13.0774
3.19062 14.1268
3.23527 15.0462
3.2799 15.5317
3.32454 16.7023
3.36917 17.4632
3.4138 18.4047
3.45844 19.8563
3.50309 20.5185
3.54773 21.0224
3.59237 22.0127
3.637 22.4508
3.68164 23.184
3.7263 24.7078
3.77094 25.1387
3.81558 26.3017
3.86022 26.668
3.90486 27.8001
3.9495 28.6146
3.99416 29.7184
4.0388 30.5705
4.08344 31.9337
4.12809 33.0947
4.17273 34.6148
4.21738 36.4304
4.26204 36.7465
4.30669 37.7842
4.35133 40.1085
4.39598 41.6455
4.44063 43.5046
4.4853 45.6728
4.52995 47.4692
4.5746 49.6327
4.61925 51.8911
4.6639 53.9998
4.70855 57.3496
4.75322 60.0498
4.79788 63.3296
4.84253 66.5304
4.88719 70.826
4.93184 75.8093
4.97652 83.3015
5.02118 90.8225
5.06583 101.368
5.11049 116.339
5.15515 151.723
5.19981 519.599
5.24449 3757.73
5.28916 8616.54
5.33382 6145.18
5.37848 408.011
5.42315 159.502
5.46783 126.875
5.5125 113.653
5.55716 107.829
5.60183 101.688
5.6465 99.1742
5.69117 97.6732
5.73586 95.8892
5.78053 95.1209
5.8252 95.5528
5.86988 98.7674
5.91455 104.901
5.95924 122.464
6.00392 278.521
6.0486 1368.58
6.09328 2902.41
6.13795 4030.28
6.18263 634.189
6.22733 118.876
6.27201 88.5804
6.3167 78.4333
6.36138 73.0137
6.40606 68.8472
6.45075 66.5017
6.49545 64.6459
6.54014 63.0091
6.58483 61.629
6.62952 60.3535
6.67421 58.3949
6.71892 57.8384
6.76361 57.2603
6.8083 56.1416
6.853 55.2845
6.89769 55.1058
6.94239 54.6928
6.98711 53.9915
7.03181 53.6005
7.07651 53.228
7.12121 53.0672
7.16591 52.9805
7.21063 52.1726
7.25533 52.6766
7.30004 52.5013
7.34475 52.3483
7.38945 52.953
7.43416 52.2454
7.47889 52.4474
7.5236 55.7837
7.56831 61.883
7.61303 55.0691
7.65774 54.0951
7.70247 54.2651
7.74719 54.3855
7.79191 55.4786
7.83663 55.6238
7.88135 56.7017
7.92607 57.3396
7.97081 59.1103
8.01553 59.6483
8.06026 61.1492
8.10498 62.2853
8.14971 64.2719
8.19446 65.9372
8.23919 68.1756
8.28392 71.2963
8.32865 73.8808
8.37339 78.6405
8.41812 84.144
8.46288 95.3857
8.50761 171.306
8.55235 590.703
8.59709 926.072
8.64183 1596.33
8.68658 1618.37
8.73134 385.222
8.77609 114.579
8.82083 97.2945
8.86558 91.5848
8.91033 88.1952
8.9551 85.9947
8.99985 84.6306
9.04461 83.6299
9.08936 82.8848
9.13412 81.8238
9.17888 81.7669
9.22365 86.9181
9.26841 94.3985
9.31318 85.7979
9.35794 82.899
9.4027 82.6687
9.44749 83.7229
9.49226 84.6313
9.53703 85.2169
9.5818 86.907
9.62657 88.0511
9.67134 89.3659
9.71614 91.257
9.76091 93.382
9.80569 96.2247
9.85047 99.5539
9.89525 104.198
9.94005 114.034
9.98484 184.199
10.0296 534.915
10.0744 757.463
10.1192 1102.71
10.164 1702.65
10.2088 927.123
10.2536 202.988
10.2984 116.129
10.3432 108.234
10.388 104.916
10.4328 121.375
10.4776 212.542
10.5224 266.62
10.5672 346.881
10.612 511.219
10.6568 366.312
10.7017 129.724
10.7465 90.7839
10.7913 84.3899
10.8361 81.2895
10.8809 78.3667
10.9257 76.5208
10.9706 75.0593
11.0154 73.4885
11.0602 72.0432
11.105 70.6672
11.1499 69.2772
11.1947 68.2034
11.2395 67.5552
11.2844 66.7413
11.3292 66.0036
11.374 65.1631
11.4189 64.8488
11.4637 64.127
11.5086 63.2006
11.5534 62.5623
11.5983 62.7088
11.6431 62.8539
11.688 62.169
11.7328 62.051
11.7777 61.8949
11.8225 61.5556
11.8674 61.8039
11.9122 62.8619
11.9571 65.4732
12.002 65.2434
12.0468 67.8326
12.0917 90.3217
12.1366 108.612
12.1814 122.153
12.2263 157.182
12.2712 194.865
12.3161 135.06
12.3609 74.2278
12.4058 64.4104
12.4507 63.82
12.4956 63.5426
12.5405 63.5687
12.5853 64.2222
12.6302 64.408
12.6751 65.2716
12.72 65.7018
12.7649 67.0269
12.8098 67.5215
12.8547 68.6433
12.8996 70.6731
12.9445 71.5454
12.9894 73.9846
13.0343 75.7071
13.0792 79.6842
13.1242 86.7765
13.1691 132.426
13.214 185.569
13.2589 210.54
13.3038 259.726
13.3487 367.486
13.3937 375.379
13.4386 200.016
13.4835 117.526
13.5285 153.016
13.5734 182.192
13.6183 199.926
13.6633 250.549
13.7082 339.511
13.7531 300.306
13.7981 148.628
13.843 87.7503
13.888 81.3224
13.9329 78.206
13.9779 76.8352
14.0228 75.1003
14.0678 73.6567
14.1127 73.3377
14.1577 74.3619
14.2027 73.0312
14.2476 70.7818
14.2926 69.7704
14.3376 69.6301
14.3825 69.2198
14.4275 68.9235
14.4725 68.5166
14.5175 69.0463
14.5624 68.9219
14.6074 69.0411
14.6524 69.4384
14.6974 70.306
14.7424 71.9516
14.7874 80.9296
14.8324 106.505
14.8774 121.557
14.9224 131.01
14.9674 155.896
15.0124 200.463
15.0574 204.001
15.1024 132.987
15.1474 80.9962
15.1924 71.5897
15.2374 69.4554
15.2824 68.3007
15.3274 67.5257
15.3725 67.0127
15.4175 66.7247
15.4625 66.2647
15.5076 66.0397
15.5526 65.8286
15.5976 66.2271
15.6426 66.714
15.6877 74.0748
15.7327 94.6448
15.7778 107.918
15.8228 113.681
15.8679 130.032
15.9129 162.208
15.958 187.598
16.003 148.218
16.0481 86.7026
16.0931 66.3869
16.1382 62.0538
16.1833 60.7273
16.2283 59.3083
16.2734 58.7279
16.3185 57.916
16.3636 57.121
16.4086 56.4953
16.4537 56.2212
16.4988 55.5939
16.5439 55.3452
16.589 55.2164
16.6341 54.8956
16.6792 54.644
16.7243 54.735
16.7694 54.4973
16.8145 54.5345
16.8596 54.8768
16.9047 55.0932
16.9498 55.2896
16.9949 55.2146
17.04 55.8668
17.0851 57.2368
17.1302 61.2119
17.1754 64.5456
17.2205 66.0665
17.2656 68.6705
17.3108 74.1936
17.3559 81.0361
17.401 81.9328
17.4462 70.877
17.4913 61.5194
17.5365 59.6426
17.5815 59.5242
17.6268 59.808
17.6718 60.1157
17.7171 60.8227
17.7622 61.821
17.8074 62.7575
17.8525 64.3254
17.8977 72.2803
17.9428 83.7901
17.9881 89.0865
18.0331 93.172
18.0784 101.335
18.1237 119.123
18.1688 143.434
18.214 141.204
18.2591 109.936
18.3044 89.3717
18.3495 88.9725
18.3948 97.5235
18.4399 104.661
18.4852 94.5368
18.5303 75.5563
18.5756 65.1675
18.6207 62.5847
18.666 61.6096
18.7112 60.2656
18.7565 59.8676
18.8016 59.3959
18.8469 58.6043
18.892 58.4885
18.9374 57.6951
18.9825 57.4359
19.0278 57.2173
19.073 57.3637
19.1183 57.9284
19.1635 60.0674
19.2088 62.1747
19.254 63.0758
19.2993 64.271
19.3447 66.5525
19.3898 70.3123
19.4352 74.878
19.4804 72.5191
19.5257 63.37
19.5709 56.4097
19.6163 54.7541
19.6615 54.3635
19.7068 53.9075
19.752 53.7753
19.7974 53.9743
19.8426 54.9943
19.888 57.2709
19.9332 58.6117
19.9786 59.1862
20.0238 60.1019
20.0692 63.1248
20.1144 68.4007
20.1598 73.3434
20.205 71.2001
20.2504 65.7738
20.2957 61.8346
20.3411 62.6244
20.3863 65.7151
20.4318 64.4972
20.477 58.9923
20.5224 53.594
20.5677 51.3742
20.6131 51.0036
20.6586 50.3768
20.7038 50.0915
20.7493 49.7841
20.7945 49.4946
20.84 49.4103
20.8853 49.3835
20.9307 49.0199
20.976 49.2147
21.0215 49.3039
21.0668 49.7988
21.1122 50.2801
21.1575 50.0162
21.203 50.3011
21.2483 51.0439
21.2938 51.8297
21.3391 51.9404
21.3846 51.0204
21.4299 49.6484
21.4754 49.1256
21.5207 49.2143
21.5662 49.458
21.6116 49.8734
21.6571 51.6981
21.7024 53.4248
21.7479 54.3999
21.7933 55.209
21.8388 56.7086
21.8843 59.5997
21.9297 63.3099
21.9752 66.6287
22.0206 65.9122
22.0661 60.8348
22.1115 56.9439
22.157 56.3798
22.2024 57.0988
22.248 55.2894
22.2933 52.7535
22.3389 50.4407
22.3843 49.9025
22.4299 49.3604
22.4753 49.2959
22.5208 49.2555
22.5662 49.2377
22.6118 49.3884
22.6572 49.6152
22.7028 50.6842
22.7483 51.891
22.7939 52.3169
22.8393 52.8071
22.8849 53.5024
22.9303 54.2847
22.9759 56.0258
23.0214 58.1636
23.067 58.9876
23.1126 56.1305
23.1581 52.4892
23.2037 50.265
23.2492 49.7369
23.2948 50.1549
23.3403 51.2445
23.3859 52.1566
23.4314 52.2791
23.477 52.6032
23.5225 53.21
23.5682 54.6281
23.6137 56.8376
23.6593 58.5927
23.7048 57.4084
23.7505 53.4632
23.796 49.1897
23.8417 47.3604
23.8872 46.4529
23.9329 46.1173
23.9784 45.6493
24.0241 45.4097
24.0697 45.1625
24.1154 44.7028
24.1609 44.573
24.2066 44.4169
24.2522 44.3236
24.2979 44.1195
24.3434 44.0172
24.3892 43.8667
24.4349 43.687
24.4805 43.5364
24.5262 43.5649
24.5718 43.3687
24.6175 43.5443
24.6631 43.5988
24.7089 43.4648
24.7545 43.1428
24.8002 42.877
24.8458 42.819
24.8916 42.8838
24.9372 43.1404
24.983 43.3703
25.0286 43.4605
25.0744 44.0313
25.12 44.2898
25.1658 44.8652
25.2114 45.1017
25.2572 45.5776
25.3029 45.5832
25.3487 45.3306
25.3943 45.5978
25.4402 45.4318
25.4858 44.7377
25.5316 43.3569
25.5773 42.1404
25.6231 41.6715
25.669 41.2456
25.7147 41.2131
25.7605 41.1433
25.8062 41.4104
25.8521 41.4477
25.8977 41.3938
25.9436 41.3767
25.9893 41.3543
26.0352 41.6832
26.0809 41.8068
26.1268 42.2725
26.1725 42.4829
26.2184 42.2847
26.2641 41.8765
26.31 41.2113
26.3557 41.3135
26.4017 41.2752
26.4474 41.3993
26.4933 41.4009
26.5391 41.6798
26.585 41.8512
26.6308 42.1989
26.6767 42.6177
26.7225 43.1936
26.7684 43.1765
26.8142 42.4063
26.8601 41.7934
26.9059 41.243
26.9519 40.8369
26.9979 40.3304
27.0437 39.9833
27.0896 39.6411
27.1354 39.4815
27.1814 39.4218
27.2272 39.3823
27.2732 39.3482
27.3191 39.1054
27.3651 39.1158
27.4109 39.0384
27.4569 39.0758
27.5027 39.1612
27.5488 39.2747
27.5946 39.1325
27.6407 39.1502
27.6865 39.1866
27.7326 38.9853
27.7784 38.8694
27.8245 38.6674
27.8703 38.6473
27.9164 38.893
27.9623 38.9212
28.0084 39.1916
28.0543 39.6532
28.1003 39.7552
28.1462 39.8555
28.1923 39.7489
28.2384 39.333
28.2843 38.8821
28.3304 38.4781
28.3764 38.1031
28.4225 37.5633
28.4684 37.1261
28.5145 36.6718
28.5605 36.5439
28.6066 36.4413
28.6526 36.447
28.6987 36.3563
28.7447 36.0773
28.7908 36.0236
28.8368 35.9235
28.8829 35.9396
28.9289 35.9506
28.9751 35.8086
29.0211 35.8581
29.0673 35.5286
29.1133 35.2646
29.1595 35.139
29.2055 35.0283
29.2517 34.9504
29.2977 34.826
29.3439 34.7846
29.3899 34.7028
29.4361 34.6701
29.4824 34.6618
29.5284 34.5699
29.5746 34.3251
29.6207 33.8493
29.6669 33.7062
29.713 33.5515
29.7593 33.4661
29.8053 33.4697
29.8516 33.364
29.8977 33.3829
29.9439 33.2956
29.99 33.1857
30.0363 33.0918
30.0824 32.9736
30.1287 32.9627
30.1748 32.8653
30.2211 32.9443
30.2673 32.7311
30.3136 33.0222
30.3597 32.9974
30.406 32.9989
30.4522 32.6735
30.4985 32.6598
30.5447 32.8345
30.591 32.6653
30.6372 32.7028
30.6835 32.6362
30.7297 32.5745
30.7761 32.679
30.8224 32.7921
30.8686 32.7132
30.915 32.4157
30.9612 32.2166
31.0076 32.1391
31.0538 31.9205
31.1002 31.8048
31.1464 31.5721
31.1928 31.5421
31.2391 31.5767
31.2855 31.4701
31.3317 31.4662
31.3781 31.4549
31.4244 31.4523
31.4708 31.3589
31.5171 31.4893
31.5636 31.5433
31.6098 31.3559
31.6563 31.1174
31.7026 31.0067
31.7491 30.8064
31.7953 30.8774
31.8418 30.702
31.8881 30.7276
31.9346 30.5969
31.9809 30.6341
32.0275 30.6058
32.074 30.5466
32.1203 30.3344
32.1668 30.2613
32.2132 29.9881
32.2597 29.8868
32.306 29.8529
32.3526 29.5673
32.399 29.4741
32.4455 29.2739
32.4919 29.2185
32.5385 29.1687
32.5848 28.988
32.6314 28.942
32.6778 28.9692
32.7244 28.922
32.7708 28.6948
32.8174 28.7036
32.8638 28.5983
32.9104 28.6459
32.9569 28.562
33.0035 28.3358
33.0499 28.295
33.0966 28.2836
33.143 28.2446
33.1897 28.1356
33.2361 28.1133
33.2828 28.1661
33.3293 27.9561
33.3759 28.0511
33.4226 27.8623
33.4691 27.6692
33.5158 27.5867
33.5623 27.371
33.609 27.2761
33.6555 27.1653
33.7022 27.1479
33.7487 27.0209
33.7954 26.9164
33.842 26.8719
33.8887 26.7557
33.9353 26.7573
33.982 26.7346
34.0286 26.5327
34.0753 26.6108
34.1219 26.441
34.1687 26.3294
34.2152 26.1862
34.262 26.0529
34.3086 25.9884
34.3554 25.9854
34.402 25.9073
34.4488 25.7752
34.4954 25.7557
34.5422 25.7095
34.5889 25.5365
34.6357 25.4575
34.6825 25.3606
34.7292 25.2706
34.776 25.21
34.8227 25.1748
34.8695 25.1274
34.9162 25.067
34.9631 24.9709
35.0098 24.985
35.0566 24.837
35.1033 24.7765
35.1502 24.707
35.1969 24.6821
35.2438 24.5908
35.2906 24.5015
35.3375 24.4616
35.3842 24.3773
35.4311 24.3753
35.4779 24.3682
35.5248 24.3645
35.5716 24.212
35.6185 24.0884
35.6653 24.1105
35.7123 24.0532
35.759 23.969
35.806 23.8265
35.8528 23.6898
35.8998 23.693
35.9468 23.5644
35.9936 23.566
36.0406 23.396
36.0874 23.4632
36.1345 23.3131
36.1813 23.2353
36.2283 23.1386
36.2752 23.1372
36.3222 23.0871
36.3691 22.957
36.4161 22.8441
36.463 22.9111
36.5101 22.7853
36.557 22.8105
36.6041 22.5794
36.651 22.6473
36.6981 22.5272
36.745 22.4717
36.7921 22.4668
36.839 22.321
36.8861 22.2306
36.9331 22.1198
36.9802 22.0168
37.0272 21.9041
37.0743 21.9596
37.1213 21.8713
37.1684 21.8208
37.2154 21.6913
37.2626 21.6082
37.3098 21.6066
37.3568 21.5475
37.404 21.5111
37.451 21.3586
37.4982 21.3774
37.5452 21.275
37.5924 21.1595
37.6395 21.3179
37.6867 21.0567
37.7337 21.0517
37.781 20.9116
37.8281 20.9039
37.8753 20.7875
37.9224 20.7271
37.9697 20.6054
38.0168 20.6196
38.064 20.4117
38.1111 20.4631
38.1584 20.4049
38.2056 20.2533
38.2529 20.3032
38.3 20.1205
38.3473 20.2015
38.3945 20.0881
38.4418 20.0205
38.489 19.9759
38.5363 19.8919
38.5837 19.867
38.6309 19.7588
38.6782 19.7238
38.7254 19.5955
38.7728 19.5417
38.82 19.5008
38.8674 19.5255
38.9146 19.3957
38.9621 19.1865
39.0093 19.3181
39.0567 19.1886
39.104 19.1167
39.1514 19.0102
39.1987 19.0178
39.2461 18.9322
39.2934 18.9087
39.3409 18.8148
39.3882 18.76
39.4356 18.7226
39.483 18.6522
39.5304 18.5435
39.5778 18.5555
39.6253 18.4504
39.6726 18.4186
39.7201 18.3744
39.7675 18.3088
39.815 18.2601
39.8624 18.2098
39.9099 18.1366
39.9575 18.0316
40.0049 17.9771
40.0525 17.9625
40.0999 17.8576
40.1474 17.8502
40.1949 17.7842
40.2425 17.7499
40.2899 17.6659
40.3375 17.6562
40.385 17.5032
40.4326 17.5167
40.48 17.4422
40.5277 17.4372
40.5752 17.3535
40.6228 17.2726
40.6703 17.2128
40.718 17.1724
40.7655 17.1122
40.8132 17.1142
40.8607 17.0304
40.9084 17.0154
40.9559 16.8868
41.0036 16.896
41.0512 16.7725
41.0989 16.7399
41.1465 16.6941
41.1942 16.6397
41.242 16.5717
41.2896 16.5083
41.3373 16.4475
41.3849 16.3502
41.4327 16.3513
41.4803 16.2933
41.5281 16.2605
41.5758 16.185
41.6236 16.1616
41.6712 16.1005
41.7191 16.0108
41.7667 15.9643
41.8146 15.9362
41.8622 15.8537
41.9101 15.8175
41.9578 15.7453
42.0057 15.7102
42.0534 15.7065
42.1013 15.5759
42.149 15.5553
42.1969 15.4978
42.2446 15.4076
42.2925 15.396
42.3403 15.3588
42.3882 15.317
42.436 15.2438
42.4839 15.1089
42.5319 15.159
42.5797 15.0978
42.6277 14.9952
42.6755 14.9558
42.7235 14.8795
42.7713 14.8188
42.8193 14.8004
42.8671 14.7606
42.9152 14.6955
42.963 14.6637
43.0111 14.646
43.0589 14.5281
43.107 14.5203
43.1549 14.479
43.2029 14.4413
43.2508 14.3606
43.2989 14.3149
43.3468 14.2513
43.3949 14.2366
43.4429 14.2185
43.491 14.0625
43.5389 14.1111
43.5871 14.0365
43.635 13.9542
43.6832 13.936
43.7312 13.8658
43.7793 13.8338
43.8273 13.8022
43.8755 13.6915
43.9237 13.6713
43.9717 13.6945
44.0199 13.5909
44.068 13.5089
44.1162 13.4813
44.1642 13.499
44.2125 13.4403
44.2606 13.3705
44.3088 13.3318
44.3569 13.2635
44.4052 13.2334
44.4533 13.1415
44.5016 13.1228
44.5497 13.1382
44.598 13.0131
44.6461 13.0128
44.6945 12.9434
44.7426 12.9104
44.791 12.8567
44.8391 12.8394
44.8875 12.7451
44.9357 12.7128
44.984 12.7165
45.0322 12.654
45.0806 12.5915
45.1288 12.6003
45.1773 12.507
45.2257 12.4763
45.2739 12.4378
45.3224 12.3818
45.3706 12.3605
45.4191 12.2774
45.4673 12.2573
45.5158 12.2368
45.5641 12.1608
45.6126 12.1143
45.6609 12.0645
45.7094 11.9927
45.7577 11.974
45.8063 11.935
45.8546 11.9249
45.9031 11.8621
45.9515 11.8007
46.0001 11.7826
46.0484 11.7177
46.097 11.6663
46.1454 11.6757
46.194 11.5912
46.2424 11.5812
46.291 11.5074
46.3395 11.4756
46.3881 11.3975
46.4365 11.3961
46.4852 11.3072
46.5337 11.2946
46.5823 11.2457
46.631 11.1944
46.6795 11.191
46.7282 11.1661
46.7767 11.104
46.8254 11.0296
46.8739 11.0379
46.9226 10.9525
46.9712 10.9871
47.0199 10.8948
47.0685 10.8365
47.1173 10.7818
47.1658 10.7747
47.2146 10.7051
47.2632 10.6927
47.312 10.6535
47.3606 10.6222
47.4095 10.5617
47.4581 10.524
47.5069 10.4972
47.5556 10.4417
47.6044 10.3971
47.6531 10.3638
47.702 10.3174
47.7507 10.3068
47.7996 10.2442
47.8483 10.2282
47.8972 10.1746
47.9461 10.1559
47.9948 10.1062
48.0438 10.061
48.0925 10.0496
48.1415 10.0049
48.1902 9.96047
48.2392 9.94673
48.288 9.91498
48.337 9.8839
48.3858 9.82514
48.4348 9.77948
48.4837 9.79074
48.5327 9.72912
48.5815 9.69208
48.6306 9.67384
48.6795 9.60602
48.7285 9.5665
48.7774 9.57025
48.8265 9.5081
48.8754 9.4395
48.9245 9.45302
48.9734 9.3994
49.0226 9.39464
49.0715 9.34669
49.1206 9.29831
49.1696 9.26564
49.2188 9.24697
49.2679 9.24103
49.3169 9.16226
49.3661 9.11843
49.4151 9.09103
49.4643 9.07354
49.5134 9.02354
49.5626 8.93158
49.6117 8.93921
49.6609 8.92088
49.71 8.84128
49.7592 8.85413
49.8083 8.81454
49.8576 8.82662
49.9067 8.73386
49.956 8.74666
50.0052 8.67597
50.0545 8.68182
50.1036 8.6154
50.153 8.59032
50.2022 8.55844
50.2515 8.5245
50.3007 8.46126
50.3501 8.44024
50.3993 8.39311
50.4487 8.37264
50.498 8.36027
50.5474 8.30816
50.5966 8.27629
50.6461 8.26803
50.6955 8.22008
50.7448 8.20692
50.7943 8.15197
50.8436 8.13984
50.8931 8.12564
50.9424 8.06737
50.9919 8.01971
51.0413 8.02827
51.0908 7.98585
51.1402 7.97696
51.1897 7.91351
51.2391 7.87617
51.2887 7.83085
51.3381 7.79417
51.3877 7.80188
51.4371 7.73816
51.4867 7.70977
51.5362 7.70504
51.5858 7.65823
51.6353 7.57966
51.6849 7.54215
51.7344 7.54502
51.7841 7.5445
51.8336 7.48325
51.8833 7.46684
51.9328 7.40525
51.9826 7.40607
52.0323 7.36311
52.0818 7.3343
52.1316 7.31878
52.1812 7.28619
52.231 7.25746
52.2806 7.19687
52.3304 7.22313
52.38 7.18514
52.4298 7.15495
52.4794 7.09875
52.5293 7.05347
52.5789 7.04219
52.6288 7.02769
52.6785 6.98758
52.7284 6.93858
52.7781 6.91781
52.828 6.92264
52.8777 6.87296
52.9276 6.87744
52.9774 6.82687
53.0273 6.79176
53.0771 6.76161
53.1271 6.75266
53.1769 6.69265
53.2269 6.71201
53.2767 6.65703
53.3267 6.62696
53.3765 6.5945
53.4266 6.56083
53.4766 6.53695
53.5265 6.50648
53.5765 6.50982
53.6264 6.42561
53.6765 6.4229
53.7264 6.40027
53.7765 6.40614
53.8265 6.37002
53.8766 6.29023
53.9266 6.29159
53.9767 6.20828
54.0267 6.18498
54.0769 6.19909
54.1269 6.17094
54.1771 6.1308
54.2271 6.08977
54.2773 6.03168
54.3274 6.02914
54.3776 5.92521
54.4277 5.9521
54.478 5.88494
54.528 5.85881
54.5783 5.82489
54.6285 5.76323
54.6788 5.76132
54.7289 5.69553
54.7792 5.63666
54.8296 5.59478
54.8798 5.52786
54.9301 5.59465
54.9803 5.468
55.0307 5.48371
55.0809 5.39696
55.1314 5.37256
55.1816 5.30624
55.232 5.27014
55.2823 5.23911
55.3328 5.11601
55.383 5.10888
55.4335 5.02467
55.4838 5.00427
55.5344 4.97412
55.5847 4.96101
55.6352 4.91814
55.6856 4.91923
55.7361 4.84862