File: XRD/Ni3Fe_FD0629.xy
TT I
1.27165 7.51182
1.31627 6.47923
1.36089 7.11177
1.40551 6.09494
1.45013 6.64134
1.49476 5.68269
1.53938 6.28636
1.584 5.12511
1.62863 5.8112
1.67325 5.59984
1.71787 5.79921
1.7625 5.10355
1.80712 4.80196
1.85174 5.12169
1.89636 5.21026
1.94099 5.11267
1.98562 5.17388
2.03025 4.71979
2.07487 4.46748
2.11949 4.64916
2.16411 5.41297
2.20874 15.0777
2.25338 24.6159
2.298 6.09395
2.34263 4.91341
2.38725 5.21015
2.43188 5.81474
2.4765 6.53054
2.52115 6.42389
2.56577 8.25457
2.6104 8.08352
2.65503 8.08762
2.69965 7.28811
2.7443 8.78663
2.78893 8.0688
2.83356 8.37748
2.87818 8.69245
2.92281 8.79771
2.96744 9.80198
3.01209 10.3312
3.05672 11.0029
3.10135 12.2943
3.14599 13.0701
3.19062 13.769
3.23527 15.166
3.2799 15.9126
3.32454 16.6207
3.36917 17.9243
3.4138 18.7824
3.45844 20.1341
3.50309 21.1019
3.54773 22.2453
3.59237 24.3513
3.637 99.4313
3.68164 63.014
3.7263 26.5803
3.77094 26.0804
3.81558 26.7128
3.86022 27.6456
3.90486 29.2769
3.9495 30.3052
3.99416 30.9872
4.0388 32.2834
4.08344 33.9307
4.12809 34.3483
4.17273 37.4196
4.21738 43.2449
4.26204 267.892
4.30669 234.635
4.35133 49.4068
4.39598 44.8826
4.44063 55.1663
4.4853 67.5824
4.52995 50.421
4.5746 51.1199
4.61925 53.3996
4.6639 55.3492
4.70855 58.4666
4.75322 60.8862
4.79788 63.825
4.84253 66.9977
4.88719 71.015
4.93184 75.0921
4.97652 80.2558
5.02118 87.171
5.06583 94.1286
5.11049 105.313
5.15515 176.754
5.19981 344.452
5.24449 2781.96
5.28916 12571.5
5.33382 3025.19
5.37848 195.25
5.42315 130.605
5.46783 114.348
5.5125 106.869
5.55716 102.465
5.60183 98.4104
5.6465 96.8805
5.69117 94.4141
5.73586 92.3008
5.78053 91.5912
5.8252 91.0995
5.86988 91.7289
5.91455 93.8543
5.95924 101.69
6.00392 199.136
6.0486 951.807
6.09328 4352.88
6.13795 3551.43
6.18263 258.401
6.22733 94.815
6.27201 84.1292
6.3167 105.475
6.36138 81.9317
6.40606 69.7515
6.45075 67.7375
6.49545 65.9451
6.54014 64.3874
6.58483 63.1032
6.62952 63.338
6.67421 97.6517
6.71892 154.011
6.76361 70.1114
6.8083 58.9307
6.853 58.0314
6.89769 57.308
6.94239 56.8482
6.98711 56.0288
7.03181 55.7701
7.07651 55.5813
7.12121 55.4413
7.16591 55.9164
7.21063 56.1055
7.25533 71.9242
7.30004 194.944
7.34475 96.5447
7.38945 57.2078
7.43416 55.3214
7.47889 54.6472
7.5236 54.9709
7.56831 55.8038
7.61303 57.2951
7.65774 58.041
7.70247 56.5869
7.74719 56.2816
7.79191 56.9534
7.83663 57.2629
7.88135 58.3883
7.92607 58.6267
7.97081 60.0044
8.01553 61.147
8.06026 62.366
8.10498 64.1236
8.14971 74.0583
8.19446 73.1213
8.23919 69.7263
8.28392 72.0722
8.32865 74.1369
8.37339 77.974
8.41812 85.2471
8.46288 116.09
8.50761 159.331
8.55235 376.219
8.59709 1137.63
8.64183 2192.05
8.68658 1023.56
8.73134 172.442
8.77609 100.177
8.82083 93.3125
8.86558 89.8217
8.91033 90.302
8.9551 92.5022
8.99985 85.8258
9.04461 83.5629
9.08936 83.2376
9.13412 82.1567
9.17888 82.3014
9.22365 82.9763
9.26841 82.316
9.31318 82.5066
9.35794 82.614
9.4027 83.2116
9.44749 84.0446
9.49226 84.3001
9.53703 85.9181
9.5818 87.0583
9.62657 92.3418
9.67134 99.7546
9.71614 94.2093
9.76091 94.3026
9.80569 96.5672
9.85047 99.597
9.89525 125.921
9.94005 138.816
9.98484 170.163
10.0296 332.04
10.0744 794.98
10.1192 1710.12
10.164 1635.37
10.2088 428.036
10.2536 130.206
10.2984 115.201
10.3432 116.62
10.388 105.395
10.4328 116.128
10.4776 157.093
10.5224 273.055
10.5672 504.16
10.612 509.641
10.6568 213.359
10.7017 98.3587
10.7465 87.0728
10.7913 83.8486
10.8361 81.3048
10.8809 79.5976
10.9257 79.0627
10.9706 79.7789
11.0154 75.692
11.0602 73.0302
11.105 71.961
11.1499 77.1755
11.1947 85.4074
11.2395 75.4961
11.2844 71.0061
11.3292 67.5479
11.374 66.4788
11.4189 65.8704
11.4637 65.2096
11.5086 65.6657
11.5534 69.3575
11.5983 66.1475
11.6431 63.9499
11.688 63.2925
11.7328 63.1708
11.7777 63.0721
11.8225 62.89
11.8674 62.6948
11.9122 62.9934
11.9571 63.1998
12.002 63.7337
12.0468 67.5935
12.0917 78.661
12.1366 101.602
12.1814 150.452
12.2263 206.598
12.2712 172.717
12.3161 100.559
12.3609 72.1046
12.4058 64.9836
12.4507 64.6985
12.4956 64.6165
12.5405 64.8542
12.5853 66.0071
12.6302 74.0016
12.6751 80.2934
12.72 70.6471
12.7649 68.0482
12.8098 68.476
12.8547 69.9495
12.8996 71.1709
12.9445 72.2183
12.9894 74.2238
13.0343 75.9685
13.0792 78.7808
13.1242 87.0983
13.1691 110.267
13.214 146.29
13.2589 232.593
13.3038 362.327
13.3487 426.399
13.3937 274.746
13.4386 128.025
13.4835 105.151
13.5285 118.55
13.5734 156.01
13.6183 243.089
13.6633 345.659
13.7082 343.964
13.7531 196.432
13.7981 100.624
13.843 82.5813
13.888 79.9713
13.9329 77.3158
13.9779 76.0876
14.0228 74.6265
14.0678 73.3926
14.1127 72.9722
14.1577 72.9029
14.2027 71.8034
14.2476 70.6157
14.2926 70.7993
14.3376 72.1899
14.3825 70.6812
14.4275 69.146
14.4725 68.9744
14.5175 69.0617
14.5624 69.3918
14.6074 71.5092
14.6524 72.1994
14.6974 70.8692
14.7424 71.8032
14.7874 78.0425
14.8324 87.9715
14.8774 109.271
14.9224 151.394
14.9674 202.956
15.0124 216.622
15.0574 152.087
15.1024 93.1082
15.1474 72.8966
15.1924 70.773
15.2374 71.5804
15.2824 70.9303
15.3274 68.7591
15.3725 66.9908
15.4175 66.5086
15.4625 66.1679
15.5076 66.7038
15.5526 66.4634
15.5976 66.0348
15.6426 66.6408
15.6877 71.6047
15.7327 79.1353
15.7778 94.0509
15.8228 124.295
15.8679 166.453
15.9129 193.085
15.958 158.491
16.003 99.9834
16.0481 69.1674
16.0931 65.3302
16.1382 63.2923
16.1833 61.1959
16.2283 59.2872
16.2734 58.61
16.3185 59.2786
16.3636 59.8828
16.4086 58.2902
16.4537 56.6627
16.4988 55.8705
16.5439 55.5803
16.589 55.6806
16.6341 55.4224
16.6792 54.8478
16.7243 55.0547
16.7694 55.2065
16.8145 54.9956
16.8596 55.2924
16.9047 57.253
16.9498 57.4484
16.9949 56.1216
17.04 55.8614
17.0851 57.1763
17.1302 58.8096
17.1754 61.5612
17.2205 66.6467
17.2656 73.8194
17.3108 82.3679
17.3559 82.9248
17.401 72.734
17.4462 62.7866
17.4913 59.5126
17.5365 59.4127
17.5815 59.4749
17.6268 59.5789
17.6718 60.6183
17.7171 61.1107
17.7622 61.4355
17.8074 61.804
17.8525 63.828
17.8977 67.9542
17.9428 73.4088
17.9881 82.1727
18.0331 98.6605
18.0784 120.191
18.1237 138.602
18.1688 132.122
18.214 105.47
18.2591 87.4516
18.3044 90.3329
18.3495 99.8602
18.3948 105.996
18.4399 97.5686
18.4852 78.9439
18.5303 66.5919
18.5756 62.5732
18.6207 61.5337
18.666 60.7643
18.7112 59.9745
18.7565 59.1691
18.8016 58.991
18.8469 58.3857
18.892 57.8778
18.9374 57.3732
18.9825 57.2712
19.0278 57.4014
19.073 57.1133
19.1183 57.7421
19.1635 58.4895
19.2088 59.6833
19.254 62.0289
19.2993 66.4419
19.3447 72.7022
19.3898 76.7308
19.4352 72.8185
19.4804 64.0959
19.5257 57.3662
19.5709 54.6099
19.6163 54.2063
19.6615 53.9709
19.7068 53.6289
19.752 53.6214
19.7974 53.7447
19.8426 54.7725
19.888 55.0872
19.9332 56.3285
19.9786 58.641
20.0238 62.1963
20.0692 67.058
20.1144 69.8314
20.1598 68.6025
20.205 63.7941
20.2504 62.5089
20.2957 64.1203
20.3411 65.8471
20.3863 64.6843
20.4318 58.9495
20.477 54.1753
20.5224 52.0505
20.5677 51.2837
20.6131 50.3869
20.6586 49.9787
20.7038 49.7939
20.7493 49.4681
20.7945 49.2131
20.84 49.0113
20.8853 49.0464
20.9307 48.6938
20.976 48.8509
21.0215 48.7783
21.0668 49.23
21.1122 49.6989
21.1575 50.1952
21.203 50.9137
21.2483 51.3632
21.2938 51.4374
21.3391 50.2932
21.3846 49.1555
21.4299 48.6335
21.4754 48.6049
21.5207 48.7603
21.5662 48.8887
21.6116 49.2555
21.6571 50.0329
21.7024 50.8175
21.7479 52.6735
21.7933 55.4072
21.8388 58.7457
21.8843 62.4964
21.9297 64.7396
21.9752 63.5065
22.0206 60.0181
22.0661 56.8983
22.1115 56.4021
22.157 56.2476
22.2024 54.6585
22.248 51.8524
22.2933 50.2703
22.3389 49.3701
22.3843 49.0941
22.4299 49.1922
22.4753 49.0529
22.5208 48.9329
22.5662 48.6488
22.6118 48.8197
22.6572 48.9215
22.7028 49.3448
22.7483 49.8213
22.7939 50.56
22.8393 52.0558
22.8849 54.1285
22.9303 56.1496
22.9759 58.0055
23.0214 57.8555
23.067 55.1718
23.1126 51.6252
23.1581 49.6192
23.2037 48.8883
23.2492 49.0447
23.2948 49.0522
23.3403 49.2115
23.3859 49.9637
23.4314 50.9393
23.477 52.7185
23.5225 54.759
23.5682 56.8049
23.6137 57.9857
23.6593 56.0937
23.7048 52.059
23.7505 48.9063
23.796 46.9118
23.8417 46.2962
23.8872 45.7263
23.9329 45.5633
23.9784 45.0274
24.0241 44.8471
24.0697 44.6888
24.1154 44.3733
24.1609 44.3295
24.2066 43.9189
24.2522 43.975
24.2979 43.5962
24.3434 43.5217
24.3892 43.2522
24.4349 43.3162
24.4805 43.0362
24.5262 43.3382
24.5718 43.0888
24.6175 43.1172
24.6631 43.0882
24.7089 42.6389
24.7545 42.6058
24.8002 42.4227
24.8458 42.3821
24.8916 42.2847
24.9372 42.3069
24.983 42.6934
25.0286 43.0674
25.0744 43.3761
25.12 43.8094
25.1658 44.5247
25.2114 44.8992
25.2572 44.8839
25.3029 45.0706
25.3487 45.0823
25.3943 44.883
25.4402 43.8487
25.4858 42.7084
25.5316 41.6048
25.5773 41.0293
25.6231 41.1295
25.669 40.7989
25.7147 40.8007
25.7605 40.6367
25.8062 40.7235
25.8521 40.7629
25.8977 40.78
25.9436 40.9868
25.9893 41.1151
26.0352 41.614
26.0809 41.6141
26.1268 41.933
26.1725 41.5542
26.2184 41.1008
26.2641 40.4479
26.31 40.3187
26.3557 40.3924
26.4017 40.195
26.4474 40.6014
26.4933 40.8101
26.5391 41.2859
26.585 41.8526
26.6308 42.2005
26.6767 42.3717
26.7225 42.1727
26.7684 41.7398
26.8142 41.0528
26.8601 40.8072
26.9059 40.2707
26.9519 39.6619
26.9979 39.3879
27.0437 39.102
27.0896 38.8986
27.1354 38.8813
27.1814 38.7595
27.2272 38.6106
27.2732 38.6544
27.3191 38.4651
27.3651 38.7513
27.4109 38.5357
27.4569 38.5884
27.5027 38.7309
27.5488 38.6723
27.5946 38.5644
27.6407 38.3631
27.6865 38.2479
27.7326 38.0611
27.7784 38.0091
27.8245 37.8185
27.8703 38.1533
27.9164 38.4011
27.9623 38.6092
28.0084 38.9288
28.0543 39.1983
28.1003 39.2054
28.1462 38.916
28.1923 38.629
28.2384 38.1218
28.2843 37.7855
28.3304 37.4457
28.3764 36.9018
28.4225 36.6834
28.4684 36.4036
28.5145 36.0984
28.5605 36.0483
28.6066 35.82
28.6526 35.7505
28.6987 35.6759
28.7447 35.6903
28.7908 35.5627
28.8368 35.5265
28.8829 35.5876
28.9289 35.5101
28.9751 35.383
29.0211 35.0475
29.0673 34.922
29.1133 34.7241
29.1595 34.5763
29.2055 34.4507
29.2517 34.5244
29.2977 34.4132
29.3439 34.4745
29.3899 34.4699
29.4361 34.3213
29.4824 34.1146
29.5284 33.9523
29.5746 33.6047
29.6207 33.3721
29.6669 33.2645
29.713 33.1463
29.7593 33.0405
29.8053 33.0649
29.8516 32.8148
29.8977 32.919
29.9439 32.7578
29.99 32.6715
30.0363 32.6689
30.0824 32.6356
30.1287 32.6114
30.1748 32.553
30.2211 32.6771
30.2673 32.5203
30.3136 32.5643
30.3597 32.4077
30.406 32.2675
30.4522 32.3089
30.4985 32.2476
30.5447 32.2997
30.591 32.2405
30.6372 32.3669
30.6835 32.3232
30.7297 32.3689
30.7761 32.423
30.8224 32.1195
30.8686 32.019
30.915 31.7722
30.9612 31.7217
31.0076 31.48
31.0538 31.3197
31.1002 31.3038
31.1464 31.1384
31.1928 31.1318
31.2391 31.1232
31.2855 30.9993
31.3317 30.9776
31.3781 31.1052
31.4244 31.0877
31.4708 30.9182
31.5171 30.9492
31.5636 30.8911
31.6098 30.663
31.6563 30.4848
31.7026 30.3851
31.7491 30.2749
31.7953 30.2902
31.8418 30.3174
31.8881 30.2666
31.9346 30.2165
31.9809 30.2239
32.0275 30.0746
32.074 29.9148
32.1203 29.814
32.1668 29.6879
32.2132 29.6302
32.2597 29.3891
32.306 29.3007
32.3526 29.1445
32.399 29.0851
32.4455 28.9664
32.4919 28.8472
32.5385 28.7464
32.5848 28.6006
32.6314 28.5821
32.6778 28.592
32.7244 28.3104
32.7708 28.295
32.8174 28.3155
32.8638 28.0365
32.9104 28.151
32.9569 28.1588
33.0035 27.9574
33.0499 27.9717
33.0966 27.9205
33.143 27.8935
33.1897 27.8036
33.2361 27.8027
33.2828 27.7397
33.3293 27.5812
33.3759 27.5641
33.4226 27.3866
33.4691 27.2387
33.5158 27.2725
33.5623 27.1241
33.609 26.9403
33.6555 26.8057
33.7022 26.7239
33.7487 26.6727
33.7954 26.5919
33.842 26.4607
33.8887 26.4728
33.9353 26.4188
33.982 26.2619
34.0286 26.2395
34.0753 26.1546
34.1219 25.911
34.1687 25.9458
34.2152 25.9149
34.262 25.7264
34.3086 25.7382
34.3554 25.6698
34.402 25.555
34.4488 25.3922
34.4954 25.3453
34.5422 25.2582
34.5889 25.1849
34.6357 25.0549
34.6825 25.1213
34.7292 24.991
34.776 24.9005
34.8227 24.8516
34.8695 24.7165
34.9162 24.682
34.9631 24.6213
35.0098 24.6239
35.0566 24.5
35.1033 24.455
35.1502 24.416
35.1969 24.3655
35.2438 24.3096
35.2906 24.1955
35.3375 24.1931
35.3842 24.053
35.4311 24.0997
35.4779 24.0469
35.5248 24.0218
35.5716 23.8954
35.6185 23.8607
35.6653 23.7215
35.7123 23.6568
35.759 23.5914
35.806 23.4855
35.8528 23.3463
35.8998 23.3771
35.9468 23.2409
35.9936 23.2207
36.0406 23.149
36.0874 23.1324
36.1345 23.0164
36.1813 22.9511
36.2283 22.8078
36.2752 22.7551
36.3222 22.7244
36.3691 22.6694
36.4161 22.5331
36.463 22.5769
36.5101 22.4841
36.557 22.3726
36.6041 22.2782
36.651 22.2817
36.6981 22.2915
36.745 22.1785
36.7921 22.0669
36.839 21.9533
36.8861 21.8642
36.9331 21.8307
36.9802 21.7466
37.0272 21.6753
37.0743 21.6611
37.1213 21.5575
37.1684 21.4971
37.2154 21.4785
37.2626 21.3861
37.3098 21.3073
37.3568 21.2151
37.404 21.2063
37.451 21.1556
37.4982 21.0831
37.5452 21.0272
37.5924 20.8476
37.6395 20.8697
37.6867 20.7801
37.7337 20.7426
37.781 20.6757
37.8281 20.5732
37.8753 20.4726
37.9224 20.4466
37.9697 20.3507
38.0168 20.3468
38.064 20.253
38.1111 20.2618
38.1584 20.1681
38.2056 20.1434
38.2529 19.9786
38.3 19.9765
38.3473 19.8927
38.3945 19.7319
38.4418 19.724
38.489 19.7119
38.5363 19.6614
38.5837 19.5205
38.6309 19.5499
38.6782 19.4658
38.7254 19.3466
38.7728 19.352
38.82 19.2903
38.8674 19.2023
38.9146 19.0628
38.9621 19.0348
39.0093 19.0388
39.0567 18.9821
39.104 18.8985
39.1514 18.7961
39.1987 18.7732
39.2461 18.7322
39.2934 18.7241
39.3409 18.5942
39.3882 18.5144
39.4356 18.5073
39.483 18.4473
39.5304 18.3409
39.5778 18.283
39.6253 18.2578
39.6726 18.2301
39.7201 18.2073
39.7675 18.0538
39.815 17.9769
39.8624 17.866
39.9099 17.9793
39.9575 17.8466
40.0049 17.805
40.0525 17.7632
40.0999 17.6479
40.1474 17.6169
40.1949 17.5737
40.2425 17.4722
40.2899 17.4522
40.3375 17.4109
40.385 17.3431
40.4326 17.3023
40.48 17.1786
40.5277 17.1934
40.5752 17.0734
40.6228 17.033
40.6703 17.0638
40.718 16.978
40.7655 16.9498
40.8132 16.8292
40.8607 16.8982
40.9084 16.7403
40.9559 16.6629
41.0036 16.6825
41.0512 16.6074
41.0989 16.5502
41.1465 16.4742
41.1942 16.4749
41.242 16.2649
41.2896 16.3187
41.3373 16.2921
41.3849 16.1896
41.4327 16.1765
41.4803 16.0468
41.5281 16.0897
41.5758 15.958
41.6236 15.9592
41.6712 15.9101
41.7191 15.8313
41.7667 15.7474
41.8146 15.7263
41.8622 15.7021
41.9101 15.5962
41.9578 15.5159
42.0057 15.4768
42.0534 15.4552
42.1013 15.4471
42.149 15.3629
42.1969 15.2837
42.2446 15.2678
42.2925 15.2518
42.3403 15.1527
42.3882 15.1518
42.436 15.1297
42.4839 14.9911
42.5319 14.9584
42.5797 14.9188
42.6277 14.8634
42.6755 14.8571
42.7235 14.7403
42.7713 14.6679
42.8193 14.7011
42.8671 14.5882
42.9152 14.5746
42.963 14.5072
43.0111 14.4135
43.0589 14.4182
43.107 14.3184
43.1549 14.2994
43.2029 14.2641
43.2508 14.2761
43.2989 14.1405
43.3468 14.0461
43.3949 14.0815
43.4429 13.9911
43.491 13.9876
43.5389 13.9294
43.5871 13.8789
43.635 13.8279
43.6832 13.7711
43.7312 13.7296
43.7793 13.6973
43.8273 13.6204
43.8755 13.5891
43.9237 13.5614
43.9717 13.474
44.0199 13.4636
44.068 13.3697
44.1162 13.3494
44.1642 13.3274
44.2125 13.2642
44.2606 13.2539
44.3088 13.1705
44.3569 13.0999
44.4052 13.0664
44.4533 12.977
44.5016 12.9664
44.5497 12.9725
44.598 12.9289
44.6461 12.8376
44.6945 12.8208
44.7426 12.7875
44.791 12.7071
44.8391 12.671
44.8875 12.6342
44.9357 12.5599
44.984 12.5205
45.0322 12.4719
45.0806 12.4263
45.1288 12.4203
45.1773 12.3126
45.2257 12.3235
45.2739 12.2317
45.3224 12.2524
45.3706 12.1918
45.4191 12.104
45.4673 12.0945
45.5158 12.03
45.5641 11.9738
45.6126 11.9838
45.6609 11.9043
45.7094 11.877
45.7577 11.8562
45.8063 11.7734
45.8546 11.7673
45.9031 11.7107
45.9515 11.6606
46.0001 11.6494
46.0484 11.5852
46.097 11.5859
46.1454 11.5476
46.194 11.4996
46.2424 11.4436
46.291 11.3494
46.3395 11.3659
46.3881 11.273
46.4365 11.2892
46.4852 11.1908
46.5337 11.1784
46.5823 11.172
46.631 11.1011
46.6795 11.0246
46.7282 11.044
46.7767 10.9878
46.8254 10.9012
46.8739 10.8791
46.9226 10.9153
46.9712 10.839
47.0199 10.7962
47.0685 10.7446
47.1173 10.7017
47.1658 10.6626
47.2146 10.645
47.2632 10.5935
47.312 10.5184
47.3606 10.5072
47.4095 10.4434
47.4581 10.4121
47.5069 10.384
47.5556 10.3567
47.6044 10.2805
47.6531 10.2736
47.702 10.2093
47.7507 10.1736
47.7996 10.1313
47.8483 10.1037
47.8972 10.1015
47.9461 10.0157
47.9948 10.0118
48.0438 9.93057
48.0925 9.98531
48.1415 9.88044
48.1902 9.86472
48.2392 9.81488
48.288 9.79056
48.337 9.76184
48.3858 9.73351
48.4348 9.69675
48.4837 9.67963
48.5327 9.60905
48.5815 9.62051
48.6306 9.55988
48.6795 9.50418
48.7285 9.45184
48.7774 9.42019
48.8265 9.41514
48.8754 9.34692
48.9245 9.36799
48.9734 9.2964
49.0226 9.2791
49.0715 9.2472
49.1206 9.22247
49.1696 9.11822
49.2188 9.12982
49.2679 9.09805
49.3169 9.05998
49.3661 9.02811
49.4151 9.00914
49.4643 8.95152
49.5134 8.89706
49.5626 8.85596
49.6117 8.84772
49.6609 8.80273
49.71 8.78618
49.7592 8.76332
49.8083 8.68928
49.8576 8.70121
49.9067 8.65719
49.956 8.61022
50.0052 8.55841
50.0545 8.56653
50.1036 8.46146
50.153 8.5231
50.2022 8.48205
50.2515 8.41078
50.3007 8.3792
50.3501 8.33434
50.3993 8.30159
50.4487 8.29805
50.498 8.24806
50.5474 8.22797
50.5966 8.21943
50.6461 8.12835
50.6955 8.10883
50.7448 8.13079
50.7943 8.06368
50.8436 8.04906
50.8931 7.98189
50.9424 7.9734
50.9919 7.90661
51.0413 7.90252
51.0908 7.88914
51.1402 7.87157
51.1897 7.8078
51.2391 7.78674
51.2887 7.71883
51.3381 7.7167
51.3877 7.63041
51.4371 7.66479
51.4867 7.59892
51.5362 7.61968
51.5858 7.56035
51.6353 7.51923
51.6849 7.50577
51.7344 7.46932
51.7841 7.42074
51.8336 7.43759
51.8833 7.35824
51.9328 7.34419
51.9826 7.3517
52.0323 7.25625
52.0818 7.25566
52.1316 7.22941
52.1812 7.20301
52.231 7.16861
52.2806 7.09248
52.3304 7.11423
52.38 7.07434
52.4298 7.04992
52.4794 6.98446
52.5293 7.01653
52.5789 6.98137
52.6288 6.94359
52.6785 6.88512
52.7284 6.86903
52.7781 6.84619
52.828 6.78147
52.8777 6.76972
52.9276 6.747
52.9774 6.74114
53.0273 6.67215
53.0771 6.69012
53.1271 6.6821
53.1769 6.61756
53.2269 6.58353
53.2767 6.52608
53.3267 6.52494
53.3765 6.52185
53.4266 6.47359
53.4766 6.40916
53.5265 6.37787
53.5765 6.4151
53.6264 6.34301
53.6765 6.33206
53.7264 6.32616
53.7765 6.29369
53.8265 6.28022
53.8766 6.24625
53.9266 6.23199
53.9767 6.17924
54.0267 6.13849
54.0769 6.13607
54.1269 6.07319
54.1771 6.07665
54.2271 6.03011
54.2773 5.98881
54.3274 5.98821
54.3776 5.93758
54.4277 5.93386
54.478 5.88409
54.528 5.83776
54.5783 5.76295
54.6285 5.76958
54.6788 5.73551
54.7289 5.67031
54.7792 5.64049
54.8296 5.57266
54.8798 5.51661
54.9301 5.51926
54.9803 5.4962
55.0307 5.45149
55.0809 5.39913
55.1314 5.40678
55.1816 5.28842
55.232 5.27804
55.2823 5.26672
55.3328 5.1738
55.383 5.10595
55.4335 5.09209
55.4838 5.0539
55.5344 5.0218
55.5847 4.95647
55.6352 4.94039
55.6856 4.88173
55.7361 4.80848