File: XRD/Ni3Fe_FD0798.xy
TT I
1.27165 7.32534
1.31627 6.03846
1.36089 7.23364
1.40551 6.23177
1.45013 5.8009
1.49476 6.07705
1.53938 5.64744
1.584 5.12538
1.62863 5.59854
1.67325 5.00834
1.71787 5.09745
1.7625 5.00348
1.80712 5.1031
1.85174 4.97867
1.89636 4.95569
1.94099 4.53054
1.98562 3.99436
2.03025 4.50527
2.07487 4.48261
2.11949 4.62988
2.16411 4.70808
2.20874 9.89785
2.25338 13.9142
2.298 5.81473
2.34263 4.91021
2.38725 5.49874
2.43188 6.31022
2.4765 6.81725
2.52115 7.40048
2.56577 8.00129
2.6104 8.47336
2.65503 8.2195
2.69965 8.83789
2.7443 8.18366
2.78893 8.04519
2.83356 8.42931
2.87818 9.103
2.92281 8.87279
2.96744 9.39857
3.01209 10.498
3.05672 11.0597
3.10135 11.9644
3.14599 13.2397
3.19062 14.6073
3.23527 15.2852
3.2799 15.7591
3.32454 17.0244
3.36917 17.9065
3.4138 18.7735
3.45844 19.329
3.50309 20.5016
3.54773 21.5952
3.59237 23.299
3.637 60.3103
3.68164 42.0514
3.7263 25.4579
3.77094 26.0321
3.81558 26.3791
3.86022 26.7303
3.90486 28.521
3.9495 29.7345
3.99416 30.3392
4.0388 31.6574
4.08344 32.7189
4.12809 34.336
4.17273 36.3607
4.21738 40.1215
4.26204 153.488
4.30669 133.523
4.35133 44.7763
4.39598 43.092
4.44063 49.7738
4.4853 57.2704
4.52995 53.5152
4.5746 53.9714
4.61925 52.8468
4.6639 55.099
4.70855 57.8059
4.75322 61.0009
4.79788 65.5115
4.84253 67.2137
4.88719 72.9553
4.93184 75.1148
4.97652 80.7193
5.02118 86.6391
5.06583 93.5177
5.11049 104.672
5.15515 157.672
5.19981 376.582
5.24449 2813.21
5.28916 12353.7
5.33382 2527.39
5.37848 182.091
5.42315 126.449
5.46783 114.874
5.5125 107.874
5.55716 101.371
5.60183 96.9385
5.6465 95.8109
5.69117 93.2703
5.73586 91.9857
5.78053 94.737
5.8252 93.7298
5.86988 95.7533
5.91455 93.8648
5.95924 103.541
6.00392 229.77
6.0486 960.753
6.09328 4546.73
6.13795 3076.32
6.18263 203.834
6.22733 88.9479
6.27201 79.8441
6.3167 88.0775
6.36138 75.1539
6.40606 68.6961
6.45075 67.811
6.49545 64.7446
6.54014 62.6436
6.58483 62.1448
6.62952 62.0771
6.67421 78.435
6.71892 103.333
6.76361 63.4059
6.8083 58.4356
6.853 57.9545
6.89769 56.0672
6.94239 55.6284
6.98711 54.956
7.03181 54.9695
7.07651 54.6083
7.12121 54.4319
7.16591 54.7439
7.21063 54.1597
7.25533 62.8448
7.30004 119.54
7.34475 73.9142
7.38945 54.9168
7.43416 53.5253
7.47889 53.0984
7.5236 54.1603
7.56831 54.5546
7.61303 55.5074
7.65774 55.6667
7.70247 55.7256
7.74719 55.9546
7.79191 55.6514
7.83663 55.9393
7.88135 56.9353
7.92607 57.9098
7.97081 59.1485
8.01553 60.0217
8.06026 61.9811
8.10498 63.145
8.14971 70.3664
8.19446 70.1871
8.23919 68.7725
8.28392 71.3754
8.32865 73.3425
8.37339 76.9788
8.41812 83.1825
8.46288 104.409
8.50761 174.266
8.55235 382.894
8.59709 1213.22
8.64183 2194.04
8.68658 848.179
8.73134 147.443
8.77609 96.7648
8.82083 91.3774
8.86558 89.6738
8.91033 89.3996
8.9551 88.5395
8.99985 84.526
9.04461 82.6359
9.08936 82.4238
9.13412 81.7508
9.17888 81.4175
9.22365 81.1632
9.26841 81.4324
9.31318 82.9188
9.35794 83.9839
9.4027 83.9293
9.44749 83.396
9.49226 83.7679
9.53703 84.781
9.5818 87.4073
9.62657 91.6478
9.67134 94.5743
9.71614 91.9172
9.76091 93.0955
9.80569 97.179
9.85047 100.103
9.89525 113.31
9.94005 127.912
9.98484 185.521
10.0296 343.132
10.0744 825.294
10.1192 1788.07
10.164 1509.53
10.2088 341.414
10.2536 119.468
10.2984 108.696
10.3432 108.778
10.388 103.618
10.4328 120.566
10.4776 161.382
10.5224 290.147
10.5672 536.414
10.612 488.164
10.6568 185.77
10.7017 93.703
10.7465 85.2871
10.7913 81.9133
10.8361 80.2708
10.8809 78.1259
10.9257 77.0685
10.9706 77.0523
11.0154 74.0781
11.0602 72.1462
11.105 70.8383
11.1499 72.6706
11.1947 75.812
11.2395 70.6867
11.2844 68.4069
11.3292 66.0559
11.374 65.1055
11.4189 64.7377
11.4637 63.9674
11.5086 63.981
11.5534 65.3291
11.5983 64.1413
11.6431 62.7332
11.688 62.2595
11.7328 61.9821
11.7777 62.1447
11.8225 61.7127
11.8674 61.8837
11.9122 62.0321
11.9571 61.991
12.002 63.4951
12.0468 68.1537
12.0917 77.6934
12.1366 101.907
12.1814 157.437
12.2263 213.578
12.2712 165.88
12.3161 88.2024
12.3609 67.0121
12.4058 63.485
12.4507 63.7912
12.4956 63.9868
12.5405 64.0276
12.5853 64.6248
12.6302 68.8551
12.6751 72.0175
12.72 67.5917
12.7649 66.7139
12.8098 67.8158
12.8547 69.2735
12.8996 70.4049
12.9445 71.8432
12.9894 73.7232
13.0343 75.2876
13.0792 79.0793
13.1242 90.5191
13.1691 110.821
13.214 148.8
13.2589 246.74
13.3038 387.425
13.3487 418.825
13.3937 240.774
13.4386 116.901
13.4835 105.345
13.5285 119.779
13.5734 159.286
13.6183 255.574
13.6633 362.971
13.7082 326.361
13.7531 167.431
13.7981 92.5155
13.843 80.6293
13.888 78.6384
13.9329 76.1641
13.9779 74.9003
14.0228 73.7151
14.0678 72.0701
14.1127 71.758
14.1577 71.0755
14.2027 70.6789
14.2476 69.8939
14.2926 69.4718
14.3376 69.8018
14.3825 69.1274
14.4275 68.0861
14.4725 67.9408
14.5175 68.1383
14.5624 68.1939
14.6074 69.5246
14.6524 70.1087
14.6974 69.9821
14.7424 72.301
14.7874 79.1742
14.8324 88.4155
14.8774 111.059
14.9224 158.353
14.9674 215.687
15.0124 219.666
15.0574 141.643
15.1024 86.2894
15.1474 71.3121
15.1924 69.3546
15.2374 69.0143
15.2824 68.3377
15.3274 66.8757
15.3725 65.8999
15.4175 65.5779
15.4625 65.1448
15.5076 65.1474
15.5526 65.1005
15.5976 65.2856
15.6426 67.0917
15.6877 72.1702
15.7327 79.2867
15.7778 94.5982
15.8228 129.155
15.8679 178.704
15.9129 197.58
15.958 146.468
16.003 88.8689
16.0481 65.5727
16.0931 62.5971
16.1382 61.0054
16.1833 59.645
16.2283 58.0015
16.2734 57.5881
16.3185 57.5152
16.3636 57.4281
16.4086 56.3308
16.4537 55.2038
16.4988 54.859
16.5439 54.7906
16.589 54.3497
16.6341 54.153
16.6792 53.7429
16.7243 53.97
16.7694 54.0798
16.8145 53.9329
16.8596 54.2314
16.9047 55.3948
16.9498 55.5269
16.9949 54.9389
17.04 55.5374
17.0851 56.6817
17.1302 58.0711
17.1754 61.0955
17.2205 66.7042
17.2656 75.4218
17.3108 83.3682
17.3559 81.3107
17.401 68.753
17.4462 60.9201
17.4913 58.6549
17.5365 58.4994
17.5815 58.4621
17.6268 59.0663
17.6718 59.5898
17.7171 60.0874
17.7622 60.6837
17.8074 61.5462
17.8525 64.5678
17.8977 68.0392
17.9428 73.1965
17.9881 82.6721
18.0331 101.304
18.0784 125.187
18.1237 141.829
18.1688 127.204
18.214 98.8473
18.2591 84.6798
18.3044 91.2262
18.3495 101.625
18.3948 105.291
18.4399 92.6424
18.4852 74.0888
18.5303 64.3358
18.5756 61.4378
18.6207 60.3412
18.666 59.7512
18.7112 58.8769
18.7565 58.348
18.8016 57.9968
18.8469 57.4335
18.892 57.1501
18.9374 56.6443
18.9825 56.296
19.0278 55.9772
19.073 56.4195
19.1183 56.8546
19.1635 57.4537
19.2088 58.8595
19.254 61.7327
19.2993 66.4062
19.3447 72.6517
19.3898 75.8218
19.4352 70.1109
19.4804 61.1885
19.5257 55.4625
19.5709 53.5066
19.6163 53.2435
19.6615 53.1904
19.7068 52.7928
19.752 52.8219
19.7974 53.1643
19.8426 53.893
19.888 54.4685
19.9332 55.7081
19.9786 58.457
20.0238 62.503
20.0692 67.8364
20.1144 69.8935
20.1598 67.0138
20.205 62.2584
20.2504 61.7688
20.2957 64.0631
20.3411 65.3294
20.3863 62.7443
20.4318 56.9673
20.477 52.3507
20.5224 50.8495
20.5677 50.1604
20.6131 49.6332
20.6586 49.19
20.7038 48.9034
20.7493 48.5963
20.7945 48.4253
20.84 48.2442
20.8853 48.0547
20.9307 48.0828
20.976 48.1551
21.0215 48.199
21.0668 48.4861
21.1122 48.9857
21.1575 49.6371
21.203 50.3969
21.2483 51.1788
21.2938 50.9727
21.3391 49.4279
21.3846 48.2459
21.4299 47.9299
21.4754 47.8932
21.5207 48.1251
21.5662 48.5594
21.6116 48.9235
21.6571 49.4258
21.7024 50.5263
21.7479 52.2031
21.7933 55.2625
21.8388 59.2995
21.8843 62.7322
21.9297 64.3079
21.9752 61.9653
22.0206 58.1613
22.0661 55.903
22.1115 55.7731
22.157 55.3202
22.2024 53.25
22.248 50.4895
22.2933 48.9754
22.3389 48.426
22.3843 48.3676
22.4299 48.1724
22.4753 48.2784
22.5208 47.9985
22.5662 47.9425
22.6118 48.3527
22.6572 48.4883
22.7028 48.7939
22.7483 49.1116
22.7939 49.771
22.8393 51.5341
22.8849 53.9931
22.9303 56.1932
22.9759 57.665
23.0214 56.5795
23.067 53.4005
23.1126 50.31
23.1581 48.3749
23.2037 48.2098
23.2492 48.468
23.2948 48.4286
23.3403 48.5843
23.3859 49.3213
23.4314 50.4908
23.477 52.3903
23.5225 54.7249
23.5682 57.0629
23.6137 57.3747
23.6593 54.5779
23.7048 50.5274
23.7505 47.369
23.796 46.0258
23.8417 45.4961
23.8872 45.0109
23.9329 44.6588
23.9784 44.5018
24.0241 44.1968
24.0697 44.0418
24.1154 43.6745
24.1609 43.5154
24.2066 43.3222
24.2522 43.3713
24.2979 43.0374
24.3434 42.7234
24.3892 42.7178
24.4349 42.7331
24.4805 42.5678
24.5262 42.6551
24.5718 42.4886
24.6175 42.3753
24.6631 42.2263
24.7089 42.0697
24.7545 41.9648
24.8002 41.7726
24.8458 41.8594
24.8916 41.681
24.9372 41.7671
24.983 42.1435
25.0286 42.5254
25.0744 42.887
25.12 43.4258
25.1658 43.9658
25.2114 44.1526
25.2572 44.353
25.3029 44.5415
25.3487 44.5179
25.3943 44.125
25.4402 42.855
25.4858 41.8882
25.5316 40.9969
25.5773 40.5183
25.6231 40.5138
25.669 40.1707
25.7147 40.1609
25.7605 40.1033
25.8062 40.0253
25.8521 40.1281
25.8977 40.2121
25.9436 40.4049
25.9893 40.53
26.0352 41.0707
26.0809 41.1502
26.1268 41.3329
26.1725 40.8841
26.2184 40.3711
26.2641 39.8351
26.31 39.5875
26.3557 39.715
26.4017 39.7323
26.4474 40.0789
26.4933 40.4542
26.5391 40.8403
26.585 41.3521
26.6308 41.7793
26.6767 41.7035
26.7225 41.465
26.7684 40.8879
26.8142 40.3821
26.8601 39.9496
26.9059 39.6631
26.9519 39.0244
26.9979 38.7213
27.0437 38.5241
27.0896 38.3001
27.1354 38.331
27.1814 38.2375
27.2272 38.1859
27.2732 38.0909
27.3191 37.9202
27.3651 38.1798
27.4109 38.0772
27.4569 38.1933
27.5027 38.1684
27.5488 38.1962
27.5946 37.9877
27.6407 37.7639
27.6865 37.7319
27.7326 37.4246
27.7784 37.5265
27.8245 37.4554
27.8703 37.7049
27.9164 37.9938
27.9623 38.1338
28.0084 38.5385
28.0543 38.7952
28.1003 38.6886
28.1462 38.5537
28.1923 37.9711
28.2384 37.5629
28.2843 37.1904
28.3304 36.6543
28.3764 36.2333
28.4225 36.0073
28.4684 35.945
28.5145 35.5604
28.5605 35.5661
28.6066 35.2518
28.6526 35.291
28.6987 35.1896
28.7447 35.0864
28.7908 34.9154
28.8368 35.0382
28.8829 34.9977
28.9289 35.0058
28.9751 34.7041
29.0211 34.5949
29.0673 34.3342
29.1133 34.1146
29.1595 33.9847
29.2055 33.9527
29.2517 34.0583
29.2977 33.9121
29.3439 33.8961
29.3899 33.8816
29.4361 33.8071
29.4824 33.6405
29.5284 33.3426
29.5746 32.9901
29.6207 32.7348
29.6669 32.64
29.713 32.5849
29.7593 32.5127
29.8053 32.5895
29.8516 32.4598
29.8977 32.4829
29.9439 32.2819
29.99 32.2282
30.0363 32.0359
30.0824 32.2951
30.1287 32.1061
30.1748 32.0628
30.2211 32.1539
30.2673 31.9312
30.3136 32.0093
30.3597 31.8963
30.406 31.8763
30.4522 31.7387
30.4985 31.7375
30.5447 31.8432
30.591 31.8419
30.6372 31.9642
30.6835 31.9019
30.7297 31.9346
30.7761 31.8274
30.8224 31.7259
30.8686 31.456
30.915 31.2282
30.9612 31.1496
31.0076 30.9838
31.0538 30.8914
31.1002 30.8061
31.1464 30.6816
31.1928 30.6031
31.2391 30.5975
31.2855 30.5881
31.3317 30.5133
31.3781 30.6509
31.4244 30.6339
31.4708 30.438
31.5171 30.4341
31.5636 30.5692
31.6098 30.0896
31.6563 30.02
31.7026 29.9612
31.7491 29.928
31.7953 29.8389
31.8418 29.8235
31.8881 29.9215
31.9346 29.9199
31.9809 29.7391
32.0275 29.69
32.074 29.5345
32.1203 29.1868
32.1668 29.2266
32.2132 29.0795
32.2597 28.9044
32.306 28.8798
32.3526 28.6388
32.399 28.6353
32.4455 28.4851
32.4919 28.3782
32.5385 28.3188
32.5848 28.1391
32.6314 28.1351
32.6778 28.1995
32.7244 27.9514
32.7708 27.8804
32.8174 27.8669
32.8638 27.7445
32.9104 27.7812
32.9569 27.8134
33.0035 27.6215
33.0499 27.4939
33.0966 27.5293
33.143 27.4567
33.1897 27.439
33.2361 27.2727
33.2828 27.2981
33.3293 27.2149
33.3759 27.1256
33.4226 26.9718
33.4691 26.802
33.5158 26.7647
33.5623 26.704
33.609 26.3686
33.6555 26.3751
33.7022 26.2114
33.7487 26.2801
33.7954 26.2119
33.842 26.14
33.8887 26.1137
33.9353 25.9184
33.982 25.92
34.0286 25.7255
34.0753 25.7761
34.1219 25.645
34.1687 25.6145
34.2152 25.4927
34.262 25.3622
34.3086 25.2996
34.3554 25.3019
34.402 25.2233
34.4488 24.9729
34.4954 24.9487
34.5422 24.9775
34.5889 24.8196
34.6357 24.7311
34.6825 24.598
34.7292 24.5846
34.776 24.5411
34.8227 24.475
34.8695 24.372
34.9162 24.3405
34.9631 24.2603
35.0098 24.2775
35.0566 24.0919
35.1033 24.0336
35.1502 24.0504
35.1969 23.9514
35.2438 23.9108
35.2906 23.7854
35.3375 23.8103
35.3842 23.6892
35.4311 23.7713
35.4779 23.745
35.5248 23.6783
35.5716 23.532
35.6185 23.4547
35.6653 23.4137
35.7123 23.2606
35.759 23.196
35.806 23.207
35.8528 23.0754
35.8998 23.0213
35.9468 22.848
35.9936 22.9191
36.0406 22.7405
36.0874 22.7367
36.1345 22.6567
36.1813 22.6019
36.2283 22.4873
36.2752 22.4553
36.3222 22.4422
36.3691 22.2727
36.4161 22.2629
36.463 22.2356
36.5101 22.1836
36.557 22.1511
36.6041 22.0725
36.651 22.005
36.6981 21.8971
36.745 21.8389
36.7921 21.761
36.839 21.696
36.8861 21.5645
36.9331 21.5372
36.9802 21.5124
37.0272 21.3549
37.0743 21.3011
37.1213 21.2444
37.1684 21.2084
37.2154 21.11
37.2626 21.0982
37.3098 20.9363
37.3568 20.9495
37.404 20.9271
37.451 20.8017
37.4982 20.729
37.5452 20.6579
37.5924 20.6121
37.6395 20.6297
37.6867 20.4817
37.7337 20.4268
37.781 20.3015
37.8281 20.3135
37.8753 20.1374
37.9224 20.0749
37.9697 20.0627
38.0168 20.0154
38.064 19.9686
38.1111 19.8852
38.1584 19.8102
38.2056 19.7642
38.2529 19.6912
38.3 19.6163
38.3473 19.7307
38.3945 19.4664
38.4418 19.4639
38.489 19.4161
38.5363 19.2958
38.5837 19.2075
38.6309 19.2331
38.6782 19.1267
38.7254 19.1239
38.7728 18.9847
38.82 18.9141
38.8674 18.9225
38.9146 18.8053
38.9621 18.7754
39.0093 18.7111
39.0567 18.698
39.104 18.5946
39.1514 18.5351
39.1987 18.4523
39.2461 18.4434
39.2934 18.3876
39.3409 18.3027
39.3882 18.2204
39.4356 18.1966
39.483 18.1455
39.5304 18.0763
39.5778 18.0228
39.6253 17.9892
39.6726 17.8933
39.7201 17.8779
39.7675 17.7595
39.815 17.7636
39.8624 17.6424
39.9099 17.6631
39.9575 17.5481
40.0049 17.514
40.0525 17.4671
40.0999 17.3632
40.1474 17.3343
40.1949 17.289
40.2425 17.2053
40.2899 17.179
40.3375 17.1267
40.385 17.0417
40.4326 17.019
40.48 16.9303
40.5277 16.8959
40.5752 16.8752
40.6228 16.7656
40.6703 16.7858
40.718 16.6913
40.7655 16.7006
40.8132 16.6095
40.8607 16.5316
40.9084 16.5206
40.9559 16.4875
41.0036 16.4
41.0512 16.3591
41.0989 16.2789
41.1465 16.1996
41.1942 16.1976
41.242 16.0811
41.2896 16.0401
41.3373 16.0098
41.3849 15.9746
41.4327 15.8799
41.4803 15.8204
41.5281 15.832
41.5758 15.7021
41.6236 15.6989
41.6712 15.6377
41.7191 15.5524
41.7667 15.4926
41.8146 15.4961
41.8622 15.444
41.9101 15.3877
41.9578 15.2796
42.0057 15.279
42.0534 15.1812
42.1013 15.1602
42.149 15.0937
42.1969 15.0578
42.2446 15.0678
42.2925 14.9698
42.3403 14.8864
42.3882 14.8866
42.436 14.8699
42.4839 14.6991
42.5319 14.7482
42.5797 14.6763
42.6277 14.5965
42.6755 14.521
42.7235 14.5017
42.7713 14.5197
42.8193 14.3854
42.8671 14.3865
42.9152 14.3326
42.963 14.301
43.0111 14.205
43.0589 14.1687
43.107 14.1234
43.1549 14.1151
43.2029 13.9814
43.2508 14.0237
43.2989 13.9071
43.3468 13.8548
43.3949 13.8778
43.4429 13.8225
43.491 13.7321
43.5389 13.6944
43.5871 13.65
43.635 13.624
43.6832 13.6014
43.7312 13.5393
43.7793 13.4795
43.8273 13.4416
43.8755 13.3811
43.9237 13.2663
43.9717 13.2901
44.0199 13.2425
44.068 13.2088
44.1162 13.1205
44.1642 13.1096
44.2125 13.0644
44.2606 12.9791
44.3088 12.9342
44.3569 12.9528
44.4052 12.8602
44.4533 12.8168
44.5016 12.744
44.5497 12.7464
44.598 12.69
44.6461 12.6255
44.6945 12.6156
44.7426 12.5667
44.791 12.5021
44.8391 12.4318
44.8875 12.3821
44.9357 12.3946
44.984 12.3572
45.0322 12.3062
45.0806 12.2122
45.1288 12.1963
45.1773 12.1559
45.2257 12.1353
45.2739 12.082
45.3224 12.0326
45.3706 11.9992
45.4191 11.8875
45.4673 11.9177
45.5158 11.865
45.5641 11.8092
45.6126 11.8067
45.6609 11.7378
45.7094 11.6618
45.7577 11.6879
45.8063 11.59
45.8546 11.5814
45.9031 11.5518
45.9515 11.4689
46.0001 11.4544
46.0484 11.3789
46.097 11.3683
46.1454 11.3019
46.194 11.2841
46.2424 11.2458
46.291 11.2087
46.3395 11.1757
46.3881 11.1053
46.4365 11.1212
46.4852 11.0646
46.5337 11.0161
46.5823 10.9531
46.631 10.9377
46.6795 10.9101
46.7282 10.8902
46.7767 10.8042
46.8254 10.7718
46.8739 10.6962
46.9226 10.6846
46.9712 10.6126
47.0199 10.592
47.0685 10.5433
47.1173 10.5272
47.1658 10.4864
47.2146 10.4277
47.2632 10.419
47.312 10.3973
47.3606 10.3068
47.4095 10.2662
47.4581 10.2612
47.5069 10.229
47.5556 10.1919
47.6044 10.1286
47.6531 10.1084
47.702 10.0419
47.7507 10.0408
47.7996 9.95699
47.8483 9.9508
47.8972 9.92971
47.9461 9.86508
47.9948 9.82191
48.0438 9.81851
48.0925 9.81601
48.1415 9.77538
48.1902 9.68155
48.2392 9.69284
48.288 9.66556
48.337 9.60681
48.3858 9.58658
48.4348 9.54848
48.4837 9.51843
48.5327 9.46842
48.5815 9.4561
48.6306 9.39338
48.6795 9.3646
48.7285 9.35275
48.7774 9.30381
48.8265 9.25604
48.8754 9.1928
48.9245 9.19315
48.9734 9.13151
49.0226 9.12379
49.0715 9.06231
49.1206 9.01835
49.1696 9.00722
49.2188 8.96275
49.2679 8.94345
49.3169 8.89597
49.3661 8.8493
49.4151 8.83424
49.4643 8.83313
49.5134 8.75413
49.5626 8.69284
49.6117 8.67758
49.6609 8.70037
49.71 8.62773
49.7592 8.59146
49.8083 8.55586
49.8576 8.57561
49.9067 8.4925
49.956 8.51065
50.0052 8.44106
50.0545 8.43717
50.1036 8.37237
50.153 8.35035
50.2022 8.31272
50.2515 8.27213
50.3007 8.25278
50.3501 8.20163
50.3993 8.18361
50.4487 8.17371
50.498 8.13741
50.5474 8.09418
50.5966 8.0587
50.6461 8.05536
50.6955 7.99706
50.7448 8.00112
50.7943 7.92968
50.8436 7.91191
50.8931 7.89869
50.9424 7.8802
50.9919 7.80604
51.0413 7.7738
51.0908 7.7561
51.1402 7.72065
51.1897 7.68083
51.2391 7.65641
51.2887 7.63362
51.3381 7.60745
51.3877 7.5847
51.4371 7.5248
51.4867 7.50621
51.5362 7.44687
51.5858 7.44351
51.6353 7.41835
51.6849 7.41608
51.7344 7.33745
51.7841 7.33051
51.8336 7.30111
51.8833 7.22291
51.9328 7.22845
51.9826 7.16956
52.0323 7.13344
52.0818 7.14048
52.1316 7.10118
52.1812 7.09819
52.231 7.03167
52.2806 6.97708
52.3304 7.00633
52.38 6.95652
52.4298 6.95028
52.4794 6.91563
52.5293 6.88564
52.5789 6.86963
52.6288 6.84861
52.6785 6.79678
52.7284 6.74211
52.7781 6.72324
52.828 6.7162
52.8777 6.64648
52.9276 6.66917
52.9774 6.66802
53.0273 6.59798
53.0771 6.53028
53.1271 6.56995
53.1769 6.51331
53.2269 6.50655
53.2767 6.46336
53.3267 6.44349
53.3765 6.41767
53.4266 6.4058
53.4766 6.35332
53.5265 6.29989
53.5765 6.335
53.6264 6.27386
53.6765 6.26545
53.7264 6.19807
53.7765 6.22157
53.8265 6.19321
53.8766 6.10887
53.9266 6.11719
53.9767 6.10871
54.0267 5.98028
54.0769 6.02331
54.1269 5.98019
54.1771 5.93742
54.2271 5.93115
54.2773 5.86177
54.3274 5.88072
54.3776 5.90331
54.4277 5.78755
54.478 5.79405
54.528 5.75639
54.5783 5.7054
54.6285 5.64256
54.6788 5.64596
54.7289 5.55479
54.7792 5.53814
54.8296 5.49867
54.8798 5.47863
54.9301 5.43606
54.9803 5.39879
55.0307 5.36347
55.0809 5.24877
55.1314 5.29358
55.1816 5.24078
55.232 5.22835
55.2823 5.17609
55.3328 5.06467
55.383 5.05125
55.4335 5.04533
55.4838 4.9742
55.5344 4.90267
55.5847 4.84755
55.6352 4.84629
55.6856 4.83765
55.7361 4.82706