File: XRD/Ni3Fe_FD0561.xy
TT I
1.27165 7.52454
1.31627 6.50086
1.36089 6.77944
1.40551 6.79534
1.45013 6.71357
1.49476 6.24568
1.53938 5.87996
1.584 5.66929
1.62863 5.93923
1.67325 4.68409
1.71787 5.61577
1.7625 4.98941
1.80712 4.7313
1.85174 4.87249
1.89636 5.05859
1.94099 5.14624
1.98562 4.90614
2.03025 4.61389
2.07487 4.33071
2.11949 4.93481
2.16411 4.54576
2.20874 11.2791
2.25338 16.7325
2.298 5.34158
2.34263 5.46697
2.38725 4.9174
2.43188 5.97225
2.4765 6.60373
2.52115 6.36644
2.56577 7.15435
2.6104 7.90802
2.65503 7.15598
2.69965 7.93768
2.7443 8.41785
2.78893 8.30269
2.83356 8.47205
2.87818 8.06473
2.92281 8.75909
2.96744 9.21494
3.01209 10.2897
3.05672 11.107
3.10135 11.8284
3.14599 12.8271
3.19062 13.915
3.23527 15.061
3.2799 15.4575
3.32454 16.6421
3.36917 17.807
3.4138 19.2873
3.45844 19.367
3.50309 20.7439
3.54773 21.3913
3.59237 23.5286
3.637 69.2185
3.68164 46.7822
3.7263 26.0438
3.77094 26.0186
3.81558 26.6257
3.86022 27.4572
3.90486 28.8077
3.9495 30.0315
3.99416 30.9012
4.0388 32.4965
4.08344 33.6477
4.12809 34.7555
4.17273 36.3475
4.21738 41.4526
4.26204 179.584
4.30669 152.61
4.35133 46.341
4.39598 44.1682
4.44063 51.3211
4.4853 59.0138
4.52995 50.796
4.5746 52.2842
4.61925 53.3908
4.6639 55.9014
4.70855 58.1803
4.75322 61.6093
4.79788 65.0706
4.84253 68.4048
4.88719 72.205
4.93184 76.006
4.97652 81.8076
5.02118 88.6553
5.06583 96.3012
5.11049 109.033
5.15515 166.341
5.19981 430.419
5.24449 3166.52
5.28916 12250.4
5.33382 2942.72
5.37848 198.556
5.42315 130.425
5.46783 115.226
5.5125 107.264
5.55716 103.646
5.60183 99.0802
5.6465 97.5177
5.69117 95.207
5.73586 93.3091
5.78053 93.4968
5.8252 92.8202
5.86988 94.3613
5.91455 96.8152
5.95924 107.516
6.00392 251.734
6.0486 1094.72
6.09328 4448.84
6.13795 3393.75
6.18263 250.889
6.22733 94.0434
6.27201 82.9161
6.3167 93.4987
6.36138 77.8347
6.40606 69.3213
6.45075 67.8967
6.49545 65.8071
6.54014 63.7946
6.58483 63.0807
6.62952 62.5627
6.67421 83.3831
6.71892 115.36
6.76361 65.5429
6.8083 58.3922
6.853 57.8146
6.89769 56.9913
6.94239 56.7764
6.98711 56.2449
7.03181 55.9926
7.07651 55.581
7.12121 55.0351
7.16591 55.4151
7.21063 55.2384
7.25533 66.1535
7.30004 138.6
7.34475 79.5462
7.38945 56.1432
7.43416 54.6594
7.47889 54.2056
7.5236 54.7171
7.56831 55.503
7.61303 56.3671
7.65774 56.8709
7.70247 56.3634
7.74719 56.6477
7.79191 57.0609
7.83663 57.2784
7.88135 57.987
7.92607 58.8296
7.97081 59.9299
8.01553 61.1823
8.06026 62.7519
8.10498 64.4559
8.14971 71.3137
8.19446 71.2752
8.23919 69.9754
8.28392 72.6144
8.32865 74.8883
8.37339 79.3487
8.41812 85.8468
8.46288 109.77
8.50761 186.424
8.55235 432.326
8.59709 1227.42
8.64183 2205.69
8.68658 954.214
8.73134 162.867
8.77609 100.254
8.82083 93.2705
8.86558 90.4254
8.91033 90.0027
8.9551 90.0449
8.99985 85.4761
9.04461 84.0946
9.08936 83.3664
9.13412 82.7504
9.17888 82.4742
9.22365 83.5575
9.26841 83.0159
9.31318 83.1526
9.35794 83.8389
9.4027 84.0924
9.44749 84.9114
9.49226 85.1535
9.53703 86.0604
9.5818 88.2807
9.62657 92.4443
9.67134 96.6126
9.71614 94.3213
9.76091 94.9771
9.80569 97.6838
9.85047 100.955
9.89525 118.884
9.94005 133.929
9.98484 200.155
10.0296 377.825
10.0744 852.47
10.1192 1711.68
10.164 1529.91
10.2088 387.186
10.2536 125.736
10.2984 112.275
10.3432 112.628
10.388 105.991
10.4328 124.892
10.4776 169.674
10.5224 295.58
10.5672 519.024
10.612 501.635
10.6568 194.291
10.7017 95.9563
10.7465 86.8508
10.7913 83.325
10.8361 81.4724
10.8809 79.085
10.9257 78.5861
10.9706 78.5771
11.0154 75.0165
11.0602 72.6725
11.105 71.8541
11.1499 74.5599
11.1947 79.0363
11.2395 72.5869
11.2844 69.8464
11.3292 67.4543
11.374 66.4879
11.4189 66.0461
11.4637 65.2163
11.5086 65.2665
11.5534 67.0212
11.5983 65.2163
11.6431 64.1067
11.688 63.4021
11.7328 63.234
11.7777 62.8426
11.8225 62.6544
11.8674 62.8616
11.9122 62.9691
11.9571 63.4789
12.002 64.3219
12.0468 69.9388
12.0917 81.3593
12.1366 105.747
12.1814 155.447
12.2263 201.115
12.2712 159.578
12.3161 91.7916
12.3609 68.8836
12.4058 64.9063
12.4507 64.55
12.4956 64.752
12.5405 64.9076
12.5853 65.5158
12.6302 70.8655
12.6751 74.8143
12.72 69.1438
12.7649 68.1068
12.8098 68.8176
12.8547 70.0812
12.8996 71.6797
12.9445 72.8609
12.9894 74.7246
13.0343 76.6162
13.0792 80.3097
13.1242 92.1146
13.1691 117.457
13.214 156.891
13.2589 248.437
13.3038 373.397
13.3487 425.537
13.3937 257.218
13.4386 122.609
13.4835 109.394
13.5285 125.666
13.5734 166.336
13.6183 254.738
13.6633 351.028
13.7082 337.388
13.7531 181.736
13.7981 96.9392
13.843 82.2541
13.888 80.1239
13.9329 77.7254
13.9779 76.283
14.0228 74.7755
14.0678 73.5366
14.1127 73.0441
14.1577 72.5469
14.2027 71.6856
14.2476 70.6462
14.2926 70.7712
14.3376 71.2208
14.3825 70.4185
14.4275 69.168
14.4725 69.0995
14.5175 69.3334
14.5624 69.544
14.6074 71.1693
14.6524 71.5608
14.6974 71.0688
14.7424 73.604
14.7874 81.5133
14.8324 92.2333
14.8774 115.248
14.9224 157.64
14.9674 209.774
15.0124 217.51
15.0574 143.894
15.1024 88.8498
15.1474 72.2888
15.1924 70.6528
15.2374 70.7699
15.2824 70.0101
15.3274 68.2501
15.3725 67.1403
15.4175 66.8303
15.4625 66.5542
15.5076 66.4403
15.5526 66.767
15.5976 66.5242
15.6426 68.296
15.6877 74.4295
15.7327 82.3749
15.7778 98.5138
15.8228 130.804
15.8679 172.869
15.9129 194.98
15.958 152.558
16.003 94.6647
16.0481 67.3853
16.0931 64.0782
16.1382 62.5917
16.1833 60.913
16.2283 59.3731
16.2734 58.5448
16.3185 58.6037
16.3636 58.8062
16.4086 57.8019
16.4537 56.3492
16.4988 55.8347
16.5439 55.8753
16.589 55.4354
16.6341 55.3424
16.6792 54.6789
16.7243 55.3367
16.7694 54.9803
16.8145 55.0849
16.8596 55.3031
16.9047 56.5026
16.9498 56.7876
16.9949 55.9227
17.04 56.3048
17.0851 57.5118
17.1302 59.5635
17.1754 62.7521
17.2205 67.7722
17.2656 75.008
17.3108 82.4653
17.3559 81.7433
17.401 71.0519
17.4462 62.141
17.4913 59.3791
17.5365 59.6801
17.5815 59.6948
17.6268 60.0966
17.6718 60.5453
17.7171 61.1962
17.7622 61.5383
17.8074 62.956
17.8525 65.4199
17.8977 69.7676
17.9428 75.3571
17.9881 84.9525
18.0331 102.34
18.0784 123.184
18.1237 141.807
18.1688 132.894
18.214 103.282
18.2591 87.361
18.3044 91.8085
18.3495 101.051
18.3948 106.272
18.4399 95.6359
18.4852 77.055
18.5303 66.0566
18.5756 62.6028
18.6207 61.5251
18.666 60.7119
18.7112 59.8941
18.7565 59.2647
18.8016 58.9918
18.8469 58.3969
18.892 58.1004
18.9374 57.541
18.9825 57.4258
19.0278 57.1958
19.073 57.4495
19.1183 57.8543
19.1635 58.5765
19.2088 60.1871
19.254 62.903
19.2993 67.166
19.3447 73.0345
19.3898 76.2529
19.4352 71.9583
19.4804 62.9606
19.5257 56.7862
19.5709 54.4779
19.6163 54.1238
19.6615 53.8749
19.7068 53.4932
19.752 53.6353
19.7974 54.0699
19.8426 54.8075
19.888 55.5356
19.9332 56.9879
19.9786 59.5643
20.0238 63.2492
20.0692 67.7002
20.1144 70.3283
20.1598 68.3355
20.205 63.7732
20.2504 62.3236
20.2957 64.0575
20.3411 65.79
20.3863 64.168
20.4318 58.1199
20.477 53.6915
20.5224 51.6234
20.5677 51.2286
20.6131 50.5224
20.6586 49.9769
20.7038 49.9496
20.7493 49.26
20.7945 49.3469
20.84 49.2691
20.8853 49.1059
20.9307 49.0309
20.976 49.2645
21.0215 48.8745
21.0668 49.4869
21.1122 49.9238
21.1575 50.391
21.203 51.2785
21.2483 51.7102
21.2938 51.5934
21.3391 50.497
21.3846 49.2757
21.4299 48.6476
21.4754 48.6427
21.5207 48.871
21.5662 49.4136
21.6116 49.7177
21.6571 50.3199
21.7024 51.2948
21.7479 53.3454
21.7933 56.1645
21.8388 59.6297
21.8843 63.3868
21.9297 65.1072
21.9752 63.4633
22.0206 59.7655
22.0661 56.6491
22.1115 56.47
22.157 56.1558
22.2024 54.4188
22.248 51.7784
22.2933 50.1576
22.3389 49.5155
22.3843 49.2999
22.4299 49.0209
22.4753 49.1196
22.5208 48.9164
22.5662 48.9094
22.6118 49.0149
22.6572 49.2839
22.7028 49.6386
22.7483 50.2891
22.7939 50.9508
22.8393 52.473
22.8849 54.6803
22.9303 56.6017
22.9759 58.304
23.0214 57.5895
23.067 54.6695
23.1126 51.3111
23.1581 49.4889
23.2037 48.9258
23.2492 49.2495
23.2948 49.1067
23.3403 49.5178
23.3859 50.14
23.4314 51.3983
23.477 53.2243
23.5225 55.3751
23.5682 57.4148
23.6137 58.2461
23.6593 55.8256
23.7048 51.6245
23.7505 48.4225
23.796 46.7379
23.8417 46.2245
23.8872 45.7634
23.9329 45.5728
23.9784 45.1133
24.0241 44.9006
24.0697 44.8765
24.1154 44.3823
24.1609 44.2923
24.2066 43.9664
24.2522 43.9651
24.2979 43.7184
24.3434 43.4929
24.3892 43.414
24.4349 43.2516
24.4805 43.1224
24.5262 43.3177
24.5718 43.1994
24.6175 43.1562
24.6631 43.1034
24.7089 42.6559
24.7545 42.7188
24.8002 42.5167
24.8458 42.6012
24.8916 42.464
24.9372 42.6036
24.983 42.9421
25.0286 43.4033
25.0744 43.5258
25.12 44.0848
25.1658 44.6431
25.2114 45.0351
25.2572 44.9972
25.3029 45.1317
25.3487 45.1271
25.3943 44.8641
25.4402 43.6412
25.4858 42.5451
25.5316 41.6377
25.5773 41.0596
25.6231 41.0539
25.669 40.8461
25.7147 40.7673
25.7605 40.5923
25.8062 40.7708
25.8521 40.99
25.8977 40.95
25.9436 41.1863
25.9893 41.3454
26.0352 41.7051
26.0809 41.8681
26.1268 41.9357
26.1725 41.5506
26.2184 41.0105
26.2641 40.5432
26.31 40.4656
26.3557 40.383
26.4017 40.3142
26.4474 40.7357
26.4933 41.0449
26.5391 41.6696
26.585 41.9654
26.6308 42.3863
26.6767 42.4361
26.7225 42.2462
26.7684 41.7181
26.8142 41.1418
26.8601 40.7298
26.9059 40.4047
26.9519 39.8142
26.9979 39.443
27.0437 39.1061
27.0896 38.9641
27.1354 39.0328
27.1814 38.9409
27.2272 38.7735
27.2732 38.814
27.3191 38.7321
27.3651 38.7797
27.4109 38.6755
27.4569 38.7202
27.5027 38.8792
27.5488 38.8763
27.5946 38.6723
27.6407 38.4387
27.6865 38.3265
27.7326 38.2039
27.7784 38.2134
27.8245 38.1058
27.8703 38.3118
27.9164 38.6149
27.9623 38.7372
28.0084 38.9573
28.0543 39.4127
28.1003 39.3479
28.1462 39.0742
28.1923 38.6512
28.2384 38.1023
28.2843 37.9123
28.3304 37.5589
28.3764 36.9014
28.4225 36.6653
28.4684 36.5714
28.5145 36.243
28.5605 36.1704
28.6066 35.8849
28.6526 35.9461
28.6987 35.9107
28.7447 35.7919
28.7908 35.6767
28.8368 35.7964
28.8829 35.6924
28.9289 35.5553
28.9751 35.4228
29.0211 35.1679
29.0673 34.9455
29.1133 34.8204
29.1595 34.6119
29.2055 34.5151
29.2517 34.605
29.2977 34.5526
29.3439 34.5572
29.3899 34.5412
29.4361 34.4545
29.4824 34.0974
29.5284 33.9021
29.5746 33.6144
29.6207 33.3023
29.6669 33.2593
29.713 33.2458
29.7593 33.0311
29.8053 33.1861
29.8516 33.0761
29.8977 33.0899
29.9439 32.8446
29.99 32.8157
30.0363 32.6222
30.0824 32.7651
30.1287 32.5446
30.1748 32.5805
30.2211 32.6536
30.2673 32.4215
30.3136 32.6237
30.3597 32.5488
30.406 32.4071
30.4522 32.1659
30.4985 32.2583
30.5447 32.4643
30.591 32.3779
30.6372 32.4512
30.6835 32.3541
30.7297 32.3207
30.7761 32.5223
30.8224 32.18
30.8686 32.0014
30.915 31.8052
30.9612 31.766
31.0076 31.4971
31.0538 31.292
31.1002 31.4541
31.1464 31.1807
31.1928 31.1702
31.2391 31.1444
31.2855 31.0959
31.3317 31.0996
31.3781 31.2179
31.4244 31.0975
31.4708 31.0587
31.5171 31.0495
31.5636 30.9466
31.6098 30.7929
31.6563 30.4982
31.7026 30.5356
31.7491 30.1862
31.7953 30.369
31.8418 30.3318
31.8881 30.3467
31.9346 30.2117
31.9809 30.2556
32.0275 30.1085
32.074 29.9868
32.1203 29.767
32.1668 29.728
32.2132 29.5713
32.2597 29.4641
32.306 29.3459
32.3526 29.1279
32.399 29.1072
32.4455 28.8443
32.4919 28.9214
32.5385 28.8675
32.5848 28.6928
32.6314 28.6505
32.6778 28.5371
32.7244 28.4463
32.7708 28.2572
32.8174 28.3386
32.8638 28.2562
32.9104 28.2804
32.9569 28.1197
33.0035 28.0647
33.0499 27.9615
33.0966 27.9248
33.143 27.9027
33.1897 27.8646
33.2361 27.8215
33.2828 27.7271
33.3293 27.5356
33.3759 27.5984
33.4226 27.4164
33.4691 27.2349
33.5158 27.3004
33.5623 27.0503
33.609 27.0111
33.6555 26.8764
33.7022 26.7341
33.7487 26.6911
33.7954 26.6652
33.842 26.5399
33.8887 26.5367
33.9353 26.4542
33.982 26.3382
34.0286 26.2584
34.0753 26.1432
34.1219 26.0645
34.1687 26.062
34.2152 25.9009
34.262 25.7878
34.3086 25.7437
34.3554 25.6912
34.402 25.5496
34.4488 25.4357
34.4954 25.3991
34.5422 25.2699
34.5889 25.214
34.6357 25.1285
34.6825 25.0817
34.7292 25.0033
34.776 24.8895
34.8227 24.8186
34.8695 24.7485
34.9162 24.6739
34.9631 24.5801
35.0098 24.6559
35.0566 24.5184
35.1033 24.4184
35.1502 24.4357
35.1969 24.3737
35.2438 24.2605
35.2906 24.247
35.3375 24.2126
35.3842 24.0995
35.4311 24.0942
35.4779 24.1153
35.5248 23.9704
35.5716 23.9021
35.6185 23.8322
35.6653 23.7919
35.7123 23.6928
35.759 23.6293
35.806 23.3817
35.8528 23.3273
35.8998 23.3478
35.9468 23.2713
35.9936 23.2049
36.0406 23.2021
36.0874 23.1088
36.1345 23.0444
36.1813 22.9823
36.2283 22.7765
36.2752 22.7918
36.3222 22.7962
36.3691 22.7171
36.4161 22.613
36.463 22.5411
36.5101 22.5644
36.557 22.5095
36.6041 22.3235
36.651 22.2783
36.6981 22.2108
36.745 22.1409
36.7921 22.0828
36.839 21.9621
36.8861 21.894
36.9331 21.8999
36.9802 21.8433
37.0272 21.7253
37.0743 21.5506
37.1213 21.5921
37.1684 21.5691
37.2154 21.5321
37.2626 21.4213
37.3098 21.3452
37.3568 21.2587
37.404 21.2232
37.451 21.1388
37.4982 21.0426
37.5452 20.9471
37.5924 20.9141
37.6395 20.9468
37.6867 20.8477
37.7337 20.7227
37.781 20.6479
37.8281 20.5609
37.8753 20.4957
37.9224 20.455
37.9697 20.3304
38.0168 20.3392
38.064 20.2494
38.1111 20.1652
38.1584 20.1576
38.2056 20.0959
38.2529 20.0331
38.3 20.0042
38.3473 19.9548
38.3945 19.7617
38.4418 19.7716
38.489 19.7273
38.5363 19.5502
38.5837 19.5433
38.6309 19.5003
38.6782 19.4478
38.7254 19.3419
38.7728 19.3813
38.82 19.3274
38.8674 19.2203
38.9146 19.1638
38.9621 19.0977
39.0093 19.1084
39.0567 18.9874
39.104 18.8819
39.1514 18.8501
39.1987 18.8314
39.2461 18.7934
39.2934 18.6957
39.3409 18.5696
39.3882 18.5144
39.4356 18.4895
39.483 18.4124
39.5304 18.4408
39.5778 18.3034
39.6253 18.257
39.6726 18.1377
39.7201 18.1687
39.7675 18.1098
39.815 18.0454
39.8624 17.9586
39.9099 17.9766
39.9575 17.8162
40.0049 17.8163
40.0525 17.7329
40.0999 17.6588
40.1474 17.6731
40.1949 17.4941
40.2425 17.4788
40.2899 17.4123
40.3375 17.3825
40.385 17.3116
40.4326 17.3226
40.48 17.2166
40.5277 17.142
40.5752 17.1293
40.6228 17.0282
40.6703 17.0422
40.718 16.9884
40.7655 16.9846
40.8132 16.8311
40.8607 16.8487
40.9084 16.7272
40.9559 16.7103
41.0036 16.6547
41.0512 16.6141
41.0989 16.546
41.1465 16.4949
41.1942 16.436
41.242 16.3613
41.2896 16.2723
41.3373 16.2369
41.3849 16.1661
41.4327 16.1095
41.4803 16.0696
41.5281 16.062
41.5758 15.9593
41.6236 15.9411
41.6712 15.9002
41.7191 15.8346
41.7667 15.772
41.8146 15.742
41.8622 15.6753
41.9101 15.6049
41.9578 15.5655
42.0057 15.5078
42.0534 15.4489
42.1013 15.3989
42.149 15.3825
42.1969 15.3078
42.2446 15.2816
42.2925 15.2312
42.3403 15.1692
42.3882 15.1156
42.436 15.1065
42.4839 14.9908
42.5319 14.9555
42.5797 14.9215
42.6277 14.8651
42.6755 14.8223
42.7235 14.738
42.7713 14.7206
42.8193 14.6343
42.8671 14.61
42.9152 14.544
42.963 14.5009
43.0111 14.4548
43.0589 14.3861
43.107 14.3913
43.1549 14.2869
43.2029 14.2586
43.2508 14.2224
43.2989 14.182
43.3468 14.0952
43.3949 14.0549
43.4429 14.0496
43.491 13.9828
43.5389 13.9182
43.5871 13.8703
43.635 13.8219
43.6832 13.7779
43.7312 13.6998
43.7793 13.6306
43.8273 13.66
43.8755 13.5493
43.9237 13.5143
43.9717 13.4853
44.0199 13.4461
44.068 13.3831
44.1162 13.2827
44.1642 13.355
44.2125 13.2601
44.2606 13.1959
44.3088 13.1503
44.3569 13.1088
44.4052 13.1289
44.4533 13.0238
44.5016 12.9382
44.5497 12.9171
44.598 12.9295
44.6461 12.8415
44.6945 12.8026
44.7426 12.748
44.791 12.666
44.8391 12.6658
44.8875 12.6202
44.9357 12.6039
44.984 12.5287
45.0322 12.493
45.0806 12.417
45.1288 12.435
45.1773 12.329
45.2257 12.3358
45.2739 12.2618
45.3224 12.2507
45.3706 12.1449
45.4191 12.1134
45.4673 12.1249
45.5158 12.0554
45.5641 11.9914
45.6126 12.0089
45.6609 11.9384
45.7094 11.8748
45.7577 11.7816
45.8063 11.7444
45.8546 11.7648
45.9031 11.7233
45.9515 11.6854
46.0001 11.6421
46.0484 11.6152
46.097 11.5819
46.1454 11.4696
46.194 11.4891
46.2424 11.4482
46.291 11.3684
46.3395 11.3401
46.3881 11.2549
46.4365 11.256
46.4852 11.1813
46.5337 11.1904
46.5823 11.1456
46.631 11.0979
46.6795 11.0167
46.7282 11.0321
46.7767 10.9729
46.8254 10.8949
46.8739 10.9047
46.9226 10.8495
46.9712 10.8026
47.0199 10.767
47.0685 10.7247
47.1173 10.6719
47.1658 10.6477
47.2146 10.6201
47.2632 10.5559
47.312 10.5358
47.3606 10.5046
47.4095 10.4698
47.4581 10.4186
47.5069 10.3365
47.5556 10.349
47.6044 10.3031
47.6531 10.2826
47.702 10.2142
47.7507 10.176
47.7996 10.1569
47.8483 10.1056
47.8972 10.0861
47.9461 10.0901
47.9948 9.99902
48.0438 9.96825
48.0925 9.95347
48.1415 9.88003
48.1902 9.82579
48.2392 9.86247
48.288 9.83395
48.337 9.74613
48.3858 9.71304
48.4348 9.6944
48.4837 9.65879
48.5327 9.62722
48.5815 9.57697
48.6306 9.56233
48.6795 9.54523
48.7285 9.47194
48.7774 9.47688
48.8265 9.39604
48.8754 9.34688
48.9245 9.33218
48.9734 9.30544
49.0226 9.28041
49.0715 9.25247
49.1206 9.20826
49.1696 9.15049
49.2188 9.12257
49.2679 9.0971
49.3169 9.05872
49.3661 9.00909
49.4151 8.9751
49.4643 8.98542
49.5134 8.94842
49.5626 8.88084
49.6117 8.87006
49.6609 8.80767
49.71 8.79065
49.7592 8.77782
49.8083 8.67056
49.8576 8.64351
49.9067 8.62813
49.956 8.65405
50.0052 8.60458
50.0545 8.54418
50.1036 8.51118
50.153 8.44203
50.2022 8.44908
50.2515 8.42846
50.3007 8.36849
50.3501 8.34779
50.3993 8.32503
50.4487 8.28023
50.498 8.24895
50.5474 8.17475
50.5966 8.19983
50.6461 8.14296
50.6955 8.12641
50.7448 8.11563
50.7943 8.07925
50.8436 8.03779
50.8931 8.01042
50.9424 7.96479
50.9919 7.93839
51.0413 7.93474
51.0908 7.89133
51.1402 7.85042
51.1897 7.79118
51.2391 7.78233
51.2887 7.7291
51.3381 7.72331
51.3877 7.68971
51.4371 7.64192
51.4867 7.61674
51.5362 7.58608
51.5858 7.5667
51.6353 7.52055
51.6849 7.48592
51.7344 7.48719
51.7841 7.47496
51.8336 7.43227
51.8833 7.37022
51.9328 7.30658
51.9826 7.31793
52.0323 7.29295
52.0818 7.25826
52.1316 7.22967
52.1812 7.23078
52.231 7.18676
52.2806 7.14756
52.3304 7.1105
52.38 7.07039
52.4298 7.04313
52.4794 7.02196
52.5293 6.98872
52.5789 6.9948
52.6288 6.90648
52.6785 6.88362
52.7284 6.90069
52.7781 6.85812
52.828 6.78591
52.8777 6.78555
52.9276 6.77701
52.9774 6.744
53.0273 6.73652
53.0771 6.67791
53.1271 6.71968
53.1769 6.58563
53.2269 6.61497
53.2767 6.53102
53.3267 6.51846
53.3765 6.48095
53.4266 6.49251
53.4766 6.48021
53.5265 6.40409
53.5765 6.41925
53.6264 6.36104
53.6765 6.36942
53.7264 6.28595
53.7765 6.29474
53.8265 6.26922
53.8766 6.20279
53.9266 6.16927
53.9767 6.19018
54.0267 6.14686
54.0769 6.15947
54.1269 6.07198
54.1771 6.05035
54.2271 6.06371
54.2773 5.98281
54.3274 5.97683
54.3776 5.92683
54.4277 5.87774
54.478 5.87412
54.528 5.83682
54.5783 5.84339
54.6285 5.73607
54.6788 5.75551
54.7289 5.66801
54.7792 5.65544
54.8296 5.58013
54.8798 5.54899
54.9301 5.53565
54.9803 5.53654
55.0307 5.47618
55.0809 5.43133
55.1314 5.3688
55.1816 5.28358
55.232 5.26182
55.2823 5.20578
55.3328 5.14537
55.383 5.11817
55.4335 5.12715
55.4838 5.06671
55.5344 5.00482
55.5847 4.97355
55.6352 4.92265
55.6856 4.91612
55.7361 4.87323