File: XRD/Ni3Fe_FD0500.xy
TT I
1.27165 7.5725
1.31627 6.90983
1.36089 6.52113
1.40551 5.80348
1.45013 5.67478
1.49476 6.12997
1.53938 6.35377
1.584 5.60291
1.62863 5.66598
1.67325 5.10852
1.71787 4.49025
1.7625 5.08678
1.80712 5.09897
1.85174 4.58883
1.89636 5.23674
1.94099 5.14962
1.98562 4.87725
2.03025 5.08715
2.07487 4.33521
2.11949 5.22733
2.16411 5.10506
2.20874 13.8893
2.25338 21.5666
2.298 5.85518
2.34263 5.52736
2.38725 5.73573
2.43188 5.94079
2.4765 6.8197
2.52115 5.85415
2.56577 7.34859
2.6104 7.67797
2.65503 7.80487
2.69965 7.64409
2.7443 7.70693
2.78893 8.62963
2.83356 8.13441
2.87818 8.59416
2.92281 8.78761
2.96744 9.25217
3.01209 10.471
3.05672 11.1458
3.10135 12.2548
3.14599 12.7006
3.19062 14.2186
3.23527 14.9535
3.2799 15.611
3.32454 16.7607
3.36917 18.428
3.4138 19.0252
3.45844 20.3728
3.50309 21.1464
3.54773 21.7971
3.59237 24.7382
3.637 87.6781
3.68164 55.4319
3.7263 26.1765
3.77094 26.3161
3.81558 26.7506
3.86022 28.0465
3.90486 29.5748
3.9495 30.6498
3.99416 31.1863
4.0388 32.7265
4.08344 34.0548
4.12809 35.0111
4.17273 37.5007
4.21738 43.5627
4.26204 233.906
4.30669 199.744
4.35133 48.7219
4.39598 44.6053
4.44063 54.0142
4.4853 64.3677
4.52995 51.3354
4.5746 51.9774
4.61925 53.8736
4.6639 56.3392
4.70855 58.9129
4.75322 61.9642
4.79788 64.7365
4.84253 67.9381
4.88719 72.3315
4.93184 76.3205
4.97652 82.0845
5.02118 88.7576
5.06583 96.5267
5.11049 109.131
5.15515 176.357
5.19981 403.309
5.24449 3073.63
5.28916 11939.1
5.33382 3216.68
5.37848 205.038
5.42315 134.465
5.46783 117.141
5.5125 108.655
5.55716 104.357
5.60183 100.524
5.6465 98.9437
5.69117 95.9237
5.73586 93.7446
5.78053 93.3214
5.8252 93.2645
5.86988 93.7975
5.91455 96.8975
5.95924 105.948
6.00392 227.229
6.0486 1047.77
6.09328 4140.56
6.13795 3415.79
6.18263 291.627
6.22733 97.0871
6.27201 84.8078
6.3167 101.521
6.36138 81.0728
6.40606 70.3357
6.45075 68.7194
6.49545 66.1604
6.54014 64.8599
6.58483 63.887
6.62952 63.6423
6.67421 93.6981
6.71892 137.028
6.76361 68.3021
6.8083 59.552
6.853 58.134
6.89769 57.0533
6.94239 57.2554
6.98711 56.2771
7.03181 56.4641
7.07651 55.9203
7.12121 55.7543
7.16591 56.2857
7.21063 55.91
7.25533 70.3973
7.30004 166.939
7.34475 88.4705
7.38945 57.53
7.43416 55.1854
7.47889 55.1768
7.5236 55.6566
7.56831 56.2359
7.61303 58.0406
7.65774 58.2025
7.70247 57.0085
7.74719 57.0435
7.79191 57.6503
7.83663 57.5924
7.88135 58.8912
7.92607 59.6567
7.97081 60.7831
8.01553 61.3828
8.06026 63.3431
8.10498 64.5785
8.14971 73.998
8.19446 72.5991
8.23919 70.2665
8.28392 72.9085
8.32865 75.2999
8.37339 79.3544
8.41812 87.0497
8.46288 114.556
8.50761 173.54
8.55235 415.516
8.59709 1194.07
8.64183 2129.95
8.68658 1038.08
8.73134 179.651
8.77609 102.261
8.82083 94.7337
8.86558 91.0376
8.91033 90.7917
8.9551 92.3494
8.99985 86.5486
9.04461 84.8398
9.08936 84.1568
9.13412 83.0507
9.17888 83.3466
9.22365 83.7726
9.26841 83.2161
9.31318 83.7371
9.35794 84.2021
9.4027 84.5329
9.44749 85.1184
9.49226 85.7038
9.53703 86.5386
9.5818 88.6768
9.62657 93.0511
9.67134 99.8026
9.71614 94.751
9.76091 95.454
9.80569 98.094
9.85047 101.508
9.89525 124.147
9.94005 136.848
9.98484 185.666
10.0296 364.912
10.0744 829.391
10.1192 1655.44
10.164 1656.27
10.2088 444.463
10.2536 135.313
10.2984 115.502
10.3432 115.748
10.388 106.695
10.4328 121.728
10.4776 166.246
10.5224 288.475
10.5672 499.217
10.612 503.752
10.6568 225.054
10.7017 99.6122
10.7465 88.3149
10.7913 84.6712
10.8361 82.4962
10.8809 80.2381
10.9257 79.3976
10.9706 80.0378
11.0154 75.6544
11.0602 74.0634
11.105 72.6686
11.1499 76.7451
11.1947 83.3251
11.2395 74.9863
11.2844 71.316
11.3292 67.9031
11.374 67.2172
11.4189 66.2912
11.4637 65.7289
11.5086 66.3876
11.5534 69.0207
11.5983 66.38
11.6431 64.3751
11.688 63.7743
11.7328 63.776
11.7777 63.6823
11.8225 63.3045
11.8674 63.2491
11.9122 63.6692
11.9571 63.9339
12.002 64.6676
12.0468 69.2378
12.0917 81.2816
12.1366 106.205
12.1814 155.043
12.2263 199.144
12.2712 170.784
12.3161 102.328
12.3609 71.576
12.4058 65.804
12.4507 65.253
12.4956 65.388
12.5405 65.4221
12.5853 66.2428
12.6302 73.7038
12.6751 78.331
12.72 70.7011
12.7649 68.6444
12.8098 69.5525
12.8547 70.8491
12.8996 72.2171
12.9445 73.2472
12.9894 75.0347
13.0343 76.987
13.0792 80.068
13.1242 90.0958
13.1691 115.333
13.214 153.423
13.2589 241.18
13.3038 360.036
13.3487 418.065
13.3937 276.829
13.4386 131.863
13.4835 108.641
13.5285 124.671
13.5734 163.23
13.6183 247.013
13.6633 334.159
13.7082 338.146
13.7531 199.806
13.7981 102.714
13.843 83.2219
13.888 80.8088
13.9329 78.1327
13.9779 76.8185
14.0228 75.1958
14.0678 74.1684
14.1127 73.6768
14.1577 73.4571
14.2027 72.4671
14.2476 71.5264
14.2926 71.5999
14.3376 72.539
14.3825 71.2608
14.4275 69.5467
14.4725 69.4938
14.5175 69.8421
14.5624 70.2195
14.6074 72.0701
14.6524 72.6238
14.6974 71.3583
14.7424 73.2131
14.7874 80.7621
14.8324 91.3316
14.8774 112.984
14.9224 154.492
14.9674 200.283
15.0124 213.637
15.0574 155.699
15.1024 95.7084
15.1474 73.9483
15.1924 71.4091
15.2374 72.11
15.2824 71.0571
15.3274 69.0483
15.3725 67.956
15.4175 67.4655
15.4625 67.0944
15.5076 67.2383
15.5526 67.2289
15.5976 66.7583
15.6426 67.8199
15.6877 73.5302
15.7327 81.9554
15.7778 97.39
15.8228 127.448
15.8679 167.646
15.9129 189.083
15.958 159.359
16.003 102.366
16.0481 70.2661
16.0931 65.6308
16.1382 63.4586
16.1833 61.6042
16.2283 59.8657
16.2734 59.3011
16.3185 59.5124
16.3636 60.0675
16.4086 58.46
16.4537 57.1114
16.4988 56.3382
16.5439 56.225
16.589 55.8516
16.6341 55.6827
16.6792 55.3541
16.7243 55.7687
16.7694 55.6268
16.8145 55.7187
16.8596 56.1317
16.9047 57.335
16.9498 57.6516
16.9949 56.5295
17.04 56.6381
17.0851 58.0425
17.1302 59.6457
17.1754 62.7618
17.2205 67.905
17.2656 74.7464
17.3108 81.9653
17.3559 82.256
17.401 72.4305
17.4462 63.547
17.4913 60.2862
17.5365 60.0711
17.5815 60.1272
17.6268 60.3497
17.6718 61.3053
17.7171 61.7888
17.7622 61.9232
17.8074 62.9617
17.8525 65.2708
17.8977 69.6079
17.9428 75.3384
17.9881 84.0162
18.0331 100.955
18.0784 120.057
18.1237 137.048
18.1688 132.61
18.214 107.045
18.2591 89.2105
18.3044 91.3965
18.3495 99.5881
18.3948 105.667
18.4399 98.0922
18.4852 80.4262
18.5303 67.7214
18.5756 63.2234
18.6207 62.2456
18.666 61.3961
18.7112 60.6411
18.7565 59.8778
18.8016 59.6237
18.8469 58.9432
18.892 58.4286
18.9374 57.9972
18.9825 57.7643
19.0278 57.7175
19.073 57.8979
19.1183 58.4003
19.1635 59.0266
19.2088 60.4852
19.254 63.2396
19.2993 67.2325
19.3447 72.7045
19.3898 76.2729
19.4352 73.0453
19.4804 64.6655
19.5257 57.861
19.5709 55.1777
19.6163 54.8548
19.6615 54.6209
19.7068 54.1266
19.752 54.122
19.7974 54.3657
19.8426 55.3192
19.888 55.8859
19.9332 57.2321
19.9786 59.5994
20.0238 63.0871
20.0692 67.3623
20.1144 69.9579
20.1598 69.3552
20.205 65.0313
20.2504 63.2713
20.2957 63.93
20.3411 65.6639
20.3863 64.609
20.4318 59.6029
20.477 54.9492
20.5224 52.7224
20.5677 51.7185
20.6131 51.0309
20.6586 50.3814
20.7038 50.1547
20.7493 49.7867
20.7945 49.7347
20.84 49.7317
20.8853 49.4081
20.9307 49.2543
20.976 49.5393
21.0215 49.1636
21.0668 49.7145
21.1122 50.2735
21.1575 50.7249
21.203 51.4117
21.2483 51.9464
21.2938 52.2964
21.3391 51.0586
21.3846 49.7669
21.4299 49.2307
21.4754 49.0383
21.5207 49.2146
21.5662 49.4466
21.6116 49.8067
21.6571 50.6687
21.7024 51.7956
21.7479 53.5357
21.7933 56.0753
21.8388 59.646
21.8843 62.5916
21.9297 64.7044
21.9752 64.1303
22.0206 61.0104
22.0661 57.6132
22.1115 56.5274
22.157 56.4495
22.2024 55.1815
22.248 52.3988
22.2933 50.8304
22.3389 49.8508
22.3843 49.7661
22.4299 49.7871
22.4753 49.4976
22.5208 49.3723
22.5662 49.1844
22.6118 49.387
22.6572 49.5776
22.7028 50.1001
22.7483 50.5533
22.7939 51.1333
22.8393 52.7356
22.8849 54.5494
22.9303 56.5059
22.9759 57.9782
23.0214 57.9855
23.067 55.586
23.1126 52.2557
23.1581 50.1909
23.2037 49.5583
23.2492 49.5552
23.2948 49.4418
23.3403 49.8469
23.3859 50.5261
23.4314 51.5262
23.477 53.2233
23.5225 55.0519
23.5682 57.1385
23.6137 57.9027
23.6593 56.3727
23.7048 52.6258
23.7505 49.3725
23.796 47.2779
23.8417 46.7492
23.8872 46.309
23.9329 45.85
23.9784 45.5217
24.0241 45.3384
24.0697 45.1463
24.1154 44.7309
24.1609 44.6243
24.2066 44.4712
24.2522 44.4951
24.2979 44.1486
24.3434 44.0472
24.3892 43.8596
24.4349 43.7466
24.4805 43.4288
24.5262 43.74
24.5718 43.5056
24.6175 43.4667
24.6631 43.4912
24.7089 43.1738
24.7545 42.9849
24.8002 42.9017
24.8458 42.934
24.8916 42.6589
24.9372 42.8177
24.983 43.1097
25.0286 43.4761
25.0744 43.9296
25.12 44.3089
25.1658 44.7684
25.2114 45.192
25.2572 45.4098
25.3029 45.3765
25.3487 45.3424
25.3943 45.1737
25.4402 44.3027
25.4858 43.2167
25.5316 42.243
25.5773 41.581
25.6231 41.4565
25.669 41.0638
25.7147 41.0647
25.7605 41.0452
25.8062 41.0662
25.8521 41.2072
25.8977 41.2584
25.9436 41.4553
25.9893 41.5347
26.0352 42.1523
26.0809 42.024
26.1268 42.2319
26.1725 41.9893
26.2184 41.5126
26.2641 40.9732
26.31 40.738
26.3557 40.7815
26.4017 40.6412
26.4474 40.9724
26.4933 41.3662
26.5391 41.7516
26.585 42.196
26.6308 42.5318
26.6767 42.6958
26.7225 42.6068
26.7684 42.0626
26.8142 41.4993
26.8601 41.0699
26.9059 40.6357
26.9519 40.1683
26.9979 39.7744
27.0437 39.4373
27.0896 39.3137
27.1354 39.402
27.1814 39.1633
27.2272 39.1218
27.2732 39.2154
27.3191 38.9422
27.3651 38.9388
27.4109 38.9563
27.4569 39.0681
27.5027 39.0785
27.5488 39.1138
27.5946 38.9603
27.6407 38.5657
27.6865 38.6636
27.7326 38.3471
27.7784 38.4138
27.8245 38.2918
27.8703 38.6239
27.9164 38.8033
27.9623 38.9211
28.0084 39.276
28.0543 39.4235
28.1003 39.6155
28.1462 39.3363
28.1923 39.0683
28.2384 38.5334
28.2843 38.2696
28.3304 37.6941
28.3764 37.2731
28.4225 36.9142
28.4684 36.8139
28.5145 36.5445
28.5605 36.4474
28.6066 36.2263
28.6526 36.1562
28.6987 36.0599
28.7447 36.0232
28.7908 36.0077
28.8368 35.9397
28.8829 35.9059
28.9289 35.7768
28.9751 35.6799
29.0211 35.4589
29.0673 35.2385
29.1133 35.084
29.1595 34.9629
29.2055 34.883
29.2517 34.9107
29.2977 34.7679
29.3439 34.6464
29.3899 34.7134
29.4361 34.5638
29.4824 34.4291
29.5284 34.2894
29.5746 33.8229
29.6207 33.7484
29.6669 33.6244
29.713 33.5043
29.7593 33.3255
29.8053 33.2752
29.8516 33.3037
29.8977 33.2414
29.9439 33.0425
29.99 33.0496
30.0363 32.8403
30.0824 32.8439
30.1287 32.8906
30.1748 32.9039
30.2211 32.8473
30.2673 32.7527
30.3136 32.7764
30.3597 32.7232
30.406 32.6264
30.4522 32.532
30.4985 32.5665
30.5447 32.6739
30.591 32.5809
30.6372 32.567
30.6835 32.5492
30.7297 32.6815
30.7761 32.6911
30.8224 32.4215
30.8686 32.2893
30.915 31.9939
30.9612 32.0089
31.0076 31.8406
31.0538 31.5698
31.1002 31.433
31.1464 31.3906
31.1928 31.3659
31.2391 31.3584
31.2855 31.3968
31.3317 31.2317
31.3781 31.4081
31.4244 31.3298
31.4708 31.2156
31.5171 31.1799
31.5636 31.2103
31.6098 30.9967
31.6563 30.7891
31.7026 30.6933
31.7491 30.5401
31.7953 30.5934
31.8418 30.5838
31.8881 30.5879
31.9346 30.5695
31.9809 30.5327
32.0275 30.4443
32.074 30.199
32.1203 30.0999
32.1668 29.9279
32.2132 29.8155
32.2597 29.7983
32.306 29.6454
32.3526 29.4527
32.399 29.375
32.4455 29.1385
32.4919 29.089
32.5385 29.0324
32.5848 28.9306
32.6314 28.9436
32.6778 28.806
32.7244 28.6415
32.7708 28.4596
32.8174 28.6426
32.8638 28.401
32.9104 28.4557
32.9569 28.4837
33.0035 28.2588
33.0499 28.1964
33.0966 28.2171
33.143 28.1468
33.1897 28.0424
33.2361 28.0347
33.2828 27.9971
33.3293 27.7722
33.3759 27.7413
33.4226 27.6444
33.4691 27.4761
33.5158 27.4367
33.5623 27.3557
33.609 27.0662
33.6555 27.1024
33.7022 27.0311
33.7487 26.8369
33.7954 26.7971
33.842 26.7706
33.8887 26.7464
33.9353 26.5458
33.982 26.5346
34.0286 26.4553
34.0753 26.3906
34.1219 26.2312
34.1687 26.2626
34.2152 26.1517
34.262 26.0363
34.3086 25.986
34.3554 25.9549
34.402 25.7801
34.4488 25.5699
34.4954 25.5587
34.5422 25.4994
34.5889 25.4023
34.6357 25.3559
34.6825 25.2823
34.7292 25.2056
34.776 25.074
34.8227 25.1045
34.8695 25.053
34.9162 24.9035
34.9631 24.8774
35.0098 24.8276
35.0566 24.7092
35.1033 24.6018
35.1502 24.5736
35.1969 24.5057
35.2438 24.5331
35.2906 24.4567
35.3375 24.389
35.3842 24.2819
35.4311 24.4086
35.4779 24.3043
35.5248 24.2741
35.5716 24.0237
35.6185 24.0395
35.6653 24.0033
35.7123 23.8493
35.759 23.7983
35.806 23.6715
35.8528 23.6179
35.8998 23.5459
35.9468 23.4217
35.9936 23.3342
36.0406 23.3526
36.0874 23.3212
36.1345 23.2123
36.1813 23.0832
36.2283 23.026
36.2752 22.9419
36.3222 22.9812
36.3691 22.9505
36.4161 22.8405
36.463 22.6831
36.5101 22.7181
36.557 22.6389
36.6041 22.4246
36.651 22.527
36.6981 22.3935
36.745 22.3857
36.7921 22.2337
36.839 22.2307
36.8861 22.0973
36.9331 22.1056
36.9802 21.9969
37.0272 21.8849
37.0743 21.864
37.1213 21.7703
37.1684 21.7153
37.2154 21.6252
37.2626 21.5631
37.3098 21.475
37.3568 21.4192
37.404 21.376
37.451 21.3008
37.4982 21.2921
37.5452 21.1559
37.5924 21.0862
37.6395 21.1738
37.6867 21.0286
37.7337 20.9481
37.781 20.7998
37.8281 20.7614
37.8753 20.6127
37.9224 20.6568
37.9697 20.6356
38.0168 20.4464
38.064 20.452
38.1111 20.3615
38.1584 20.3024
38.2056 20.1608
38.2529 20.2548
38.3 20.0939
38.3473 20.1201
38.3945 19.9904
38.4418 19.9299
38.489 19.9068
38.5363 19.7895
38.5837 19.7272
38.6309 19.6602
38.6782 19.6598
38.7254 19.568
38.7728 19.481
38.82 19.4057
38.8674 19.3207
38.9146 19.3252
38.9621 19.233
39.0093 19.1852
39.0567 19.1345
39.104 19.1127
39.1514 18.982
39.1987 18.9372
39.2461 18.8763
39.2934 18.8137
39.3409 18.7592
39.3882 18.68
39.4356 18.614
39.483 18.584
39.5304 18.5105
39.5778 18.5196
39.6253 18.4004
39.6726 18.3796
39.7201 18.3329
39.7675 18.2528
39.815 18.1413
39.8624 18.0492
39.9099 18.1047
39.9575 17.9515
40.0049 17.96
40.0525 17.8627
40.0999 17.8483
40.1474 17.7315
40.1949 17.7231
40.2425 17.6703
40.2899 17.5735
40.3375 17.5908
40.385 17.5266
40.4326 17.4093
40.48 17.3291
40.5277 17.3563
40.5752 17.2779
40.6228 17.1853
40.6703 17.0817
40.718 17.1028
40.7655 17.0737
40.8132 16.9892
40.8607 16.9909
40.9084 16.9121
40.9559 16.8656
41.0036 16.7618
41.0512 16.7013
41.0989 16.6864
41.1465 16.6697
41.1942 16.5467
41.242 16.5211
41.2896 16.48
41.3373 16.4505
41.3849 16.3548
41.4327 16.3241
41.4803 16.2253
41.5281 16.2257
41.5758 16.1986
41.6236 16.0764
41.6712 16.0333
41.7191 15.9249
41.7667 15.9045
41.8146 15.8259
41.8622 15.8115
41.9101 15.7593
41.9578 15.6428
42.0057 15.6193
42.0534 15.6105
42.1013 15.5956
42.149 15.4488
42.1969 15.4513
42.2446 15.3804
42.2925 15.3304
42.3403 15.3115
42.3882 15.2548
42.436 15.2017
42.4839 15.1005
42.5319 15.0875
42.5797 15.028
42.6277 14.9646
42.6755 14.9243
42.7235 14.8636
42.7713 14.7917
42.8193 14.7526
42.8671 14.7455
42.9152 14.6551
42.963 14.6355
43.0111 14.5321
43.0589 14.5189
43.107 14.4503
43.1549 14.4
43.2029 14.3877
43.2508 14.3164
43.2989 14.2962
43.3468 14.211
43.3949 14.1911
43.4429 14.1372
43.491 14.0668
43.5389 14.0381
43.5871 13.9848
43.635 13.9242
43.6832 13.8871
43.7312 13.8503
43.7793 13.7544
43.8273 13.7465
43.8755 13.7214
43.9237 13.5997
43.9717 13.5571
44.0199 13.5308
44.068 13.4969
44.1162 13.439
44.1642 13.442
44.2125 13.3879
44.2606 13.3079
44.3088 13.3064
44.3569 13.2349
44.4052 13.208
44.4533 13.1658
44.5016 13.1022
44.5497 13.097
44.598 13.0066
44.6461 12.969
44.6945 12.9107
44.7426 12.8527
44.791 12.7742
44.8391 12.7734
44.8875 12.7141
44.9357 12.6948
44.984 12.5967
45.0322 12.6269
45.0806 12.5803
45.1288 12.4718
45.1773 12.4555
45.2257 12.4234
45.2739 12.3505
45.3224 12.3054
45.3706 12.2802
45.4191 12.2525
45.4673 12.2191
45.5158 12.1849
45.5641 12.0824
45.6126 12.0476
45.6609 12.0056
45.7094 12.0048
45.7577 11.9153
45.8063 11.8827
45.8546 11.883
45.9031 11.7716
45.9515 11.744
46.0001 11.7227
46.0484 11.6889
46.097 11.6509
46.1454 11.5989
46.194 11.5912
46.2424 11.5193
46.291 11.4371
46.3395 11.4517
46.3881 11.3678
46.4365 11.3538
46.4852 11.3005
46.5337 11.272
46.5823 11.2715
46.631 11.1483
46.6795 11.1226
46.7282 11.0809
46.7767 11.0747
46.8254 11.0216
46.8739 10.9789
46.9226 10.944
46.9712 10.8827
47.0199 10.8568
47.0685 10.7784
47.1173 10.8121
47.1658 10.7525
47.2146 10.6916
47.2632 10.633
47.312 10.6717
47.3606 10.5639
47.4095 10.5497
47.4581 10.5016
47.5069 10.4866
47.5556 10.4035
47.6044 10.3612
47.6531 10.3468
47.702 10.2931
47.7507 10.3347
47.7996 10.2694
47.8483 10.1982
47.8972 10.1952
47.9461 10.097
47.9948 10.0505
48.0438 10.0582
48.0925 10.037
48.1415 9.96678
48.1902 9.94946
48.2392 9.90667
48.288 9.88361
48.337 9.86824
48.3858 9.79699
48.4348 9.7487
48.4837 9.78434
48.5327 9.74347
48.5815 9.65763
48.6306 9.66973
48.6795 9.60053
48.7285 9.56841
48.7774 9.54253
48.8265 9.47813
48.8754 9.45299
48.9245 9.41028
48.9734 9.39711
49.0226 9.36553
49.0715 9.30145
49.1206 9.25924
49.1696 9.26244
49.2188 9.21238
49.2679 9.16508
49.3169 9.12726
49.3661 9.09616
49.4151 9.07419
49.4643 9.04908
49.5134 9.00464
49.5626 8.95132
49.6117 8.95912
49.6609 8.89788
49.71 8.85285
49.7592 8.83887
49.8083 8.77342
49.8576 8.75204
49.9067 8.71689
49.956 8.69507
50.0052 8.65429
50.0545 8.64669
50.1036 8.58139
50.153 8.59359
50.2022 8.48939
50.2515 8.47196
50.3007 8.41714
50.3501 8.42459
50.3993 8.3814
50.4487 8.37744
50.498 8.346
50.5474 8.27403
50.5966 8.25329
50.6461 8.24514
50.6955 8.21354
50.7448 8.20091
50.7943 8.13528
50.8436 8.12897
50.8931 8.07763
50.9424 8.05701
50.9919 7.98885
51.0413 7.96925
51.0908 7.92364
51.1402 7.89734
51.1897 7.86024
51.2391 7.86098
51.2887 7.81417
51.3381 7.80846
51.3877 7.72894
51.4371 7.72624
51.4867 7.70055
51.5362 7.63907
51.5858 7.62714
51.6353 7.60275
51.6849 7.56631
51.7344 7.54286
51.7841 7.51368
51.8336 7.48392
51.8833 7.44012
51.9328 7.39984
51.9826 7.3693
52.0323 7.34587
52.0818 7.30429
52.1316 7.2444
52.1812 7.27828
52.231 7.20772
52.2806 7.1677
52.3304 7.16468
52.38 7.16381
52.4298 7.13188
52.4794 7.08274
52.5293 7.06321
52.5789 7.04521
52.6288 7.00303
52.6785 6.91633
52.7284 6.92659
52.7781 6.92302
52.828 6.87087
52.8777 6.82106
52.9276 6.80328
52.9774 6.75284
53.0273 6.76037
53.0771 6.77098
53.1271 6.69992
53.1769 6.63047
53.2269 6.66482
53.2767 6.6504
53.3267 6.56764
53.3765 6.55845
53.4266 6.54865
53.4766 6.50181
53.5265 6.47222
53.5765 6.44694
53.6264 6.433
53.6765 6.37982
53.7264 6.32999
53.7765 6.35764
53.8265 6.31405
53.8766 6.28979
53.9266 6.24208
53.9767 6.19729
54.0267 6.20417
54.0769 6.18607
54.1269 6.1444
54.1771 6.09143
54.2271 6.09448
54.2773 6.10924
54.3274 6.02668
54.3776 5.96365
54.4277 5.97263
54.478 5.90252
54.528 5.85266
54.5783 5.85441
54.6285 5.79959
54.6788 5.76308
54.7289 5.7185
54.7792 5.67037
54.8296 5.61402
54.8798 5.60077
54.9301 5.52257
54.9803 5.52026
55.0307 5.48711
55.0809 5.47565
55.1314 5.45744
55.1816 5.3342
55.232 5.33104
55.2823 5.25394
55.3328 5.21622
55.383 5.14721
55.4335 5.14454
55.4838 5.09976
55.5344 5.01134
55.5847 4.99175
55.6352 5.00697
55.6856 4.8879
55.7361 4.90221