File: XRD/Ni3Fe_FD0927.xy
TT I
1.27165 7.37913
1.31627 6.36126
1.36089 6.82605
1.40551 5.8979
1.45013 5.84901
1.49476 6.56248
1.53938 5.74303
1.584 5.48908
1.62863 5.58916
1.67325 4.65705
1.71787 4.76929
1.7625 4.69184
1.80712 4.72885
1.85174 4.77022
1.89636 4.4485
1.94099 4.55536
1.98562 4.90929
2.03025 4.49114
2.07487 4.6159
2.11949 5.15091
2.16411 4.4355
2.20874 7.90142
2.25338 10.4758
2.298 5.05868
2.34263 5.06549
2.38725 6.11685
2.43188 6.32673
2.4765 7.09043
2.52115 7.94647
2.56577 7.81591
2.6104 8.16093
2.65503 8.19694
2.69965 9.00108
2.7443 8.53142
2.78893 8.17288
2.83356 8.53634
2.87818 9.03623
2.92281 9.38829
2.96744 9.97217
3.01209 10.7255
3.05672 10.936
3.10135 12.4771
3.14599 12.946
3.19062 14.7256
3.23527 14.8111
3.2799 15.5004
3.32454 16.7707
3.36917 17.4579
3.4138 18.4248
3.45844 19.3993
3.50309 20.9626
3.54773 21.5235
3.59237 23.0551
3.637 48.0276
3.68164 36.0501
3.7263 25.3482
3.77094 25.4462
3.81558 26.4949
3.86022 27.127
3.90486 28.1143
3.9495 29.3515
3.99416 30.2271
4.0388 31.4602
4.08344 32.7339
4.12809 33.9142
4.17273 35.5039
4.21738 38.6788
4.26204 114.379
4.30669 99.789
4.35133 43.8262
4.39598 42.9308
4.44063 47.8963
4.4853 53.2742
4.52995 57.1536
4.5746 58.2259
4.61925 52.8933
4.6639 55.0817
4.70855 58.155
4.75322 60.8684
4.79788 68.2649
4.84253 68.0173
4.88719 75.2855
4.93184 75.6963
4.97652 79.7033
5.02118 86.0804
5.06583 93.4549
5.11049 104.284
5.15515 153.767
5.19981 369.61
5.24449 2764.93
5.28916 13574.7
5.33382 2702.21
5.37848 193.317
5.42315 129.245
5.46783 118.81
5.5125 112.049
5.55716 101.199
5.60183 96.7081
5.6465 94.8196
5.69117 92.9803
5.73586 91.6705
5.78053 97.6962
5.8252 97.8529
5.86988 101.235
5.91455 93.5978
5.95924 101.998
6.00392 226.447
6.0486 907.291
6.09328 4656.06
6.13795 2995.81
6.18263 194.205
6.22733 87.6231
6.27201 78.6157
6.3167 82.4165
6.36138 72.9197
6.40606 69.0476
6.45075 69.8237
6.49545 64.401
6.54014 62.6648
6.58483 61.8847
6.62952 62.1103
6.67421 71.6439
6.71892 87.2809
6.76361 61.2926
6.8083 59.175
6.853 59.6233
6.89769 56.2932
6.94239 55.3252
6.98711 54.7721
7.03181 55.2028
7.07651 54.3914
7.12121 53.9506
7.16591 55.7158
7.21063 54.5994
7.25533 59.8968
7.30004 95.2908
7.34475 66.6747
7.38945 53.9973
7.43416 53.1801
7.47889 52.7692
7.5236 53.3235
7.56831 54.3449
7.61303 54.956
7.65774 55.5102
7.70247 56.4113
7.74719 55.7132
7.79191 55.5813
7.83663 55.6055
7.88135 56.9949
7.92607 57.5547
7.97081 58.9677
8.01553 59.9379
8.06026 61.7458
8.10498 63.625
8.14971 70.1207
8.19446 70.2762
8.23919 68.3946
8.28392 70.5243
8.32865 73.1353
8.37339 77.3315
8.41812 81.9192
8.46288 100.134
8.50761 169.681
8.55235 364.007
8.59709 1204.52
8.64183 2215.46
8.68658 840.233
8.73134 139.395
8.77609 95.7028
8.82083 91.0753
8.86558 92.0022
8.91033 91.8916
8.9551 88.7538
8.99985 84.3463
9.04461 82.9434
9.08936 83.3693
9.13412 82.2731
9.17888 81.2462
9.22365 81.0657
9.26841 81.0786
9.31318 83.9643
9.35794 86.0511
9.4027 85.3373
9.44749 84.286
9.49226 83.2976
9.53703 84.7018
9.5818 88.5861
9.62657 94.0183
9.67134 94.6159
9.71614 91.5756
9.76091 93.8457
9.80569 98.314
9.85047 100.169
9.89525 110.341
9.94005 124.941
9.98484 183.751
10.0296 328.477
10.0744 822.824
10.1192 1849.56
10.164 1463.58
10.2088 324.592
10.2536 118.0
10.2984 107.144
10.3432 106.204
10.388 103.241
10.4328 119.268
10.4776 157.141
10.5224 288.469
10.5672 541.171
10.612 484.131
10.6568 178.538
10.7017 91.8428
10.7465 84.7667
10.7913 81.886
10.8361 79.5619
10.8809 77.2985
10.9257 76.866
10.9706 76.8055
11.0154 74.2347
11.0602 71.6735
11.105 70.1255
11.1499 70.9586
11.1947 72.7866
11.2395 69.0162
11.2844 67.3539
11.3292 65.9098
11.374 64.8232
11.4189 64.602
11.4637 63.7634
11.5086 63.4571
11.5534 64.2172
11.5983 63.16
11.6431 62.3711
11.688 61.9479
11.7328 61.8824
11.7777 61.6527
11.8225 61.6879
11.8674 61.4309
11.9122 61.6243
11.9571 61.8384
12.002 63.3306
12.0468 67.3958
12.0917 76.8323
12.1366 101.166
12.1814 159.735
12.2263 210.721
12.2712 153.73
12.3161 86.2048
12.3609 65.4366
12.4058 63.0786
12.4507 63.1836
12.4956 63.8906
12.5405 63.8905
12.5853 64.3517
12.6302 66.8028
12.6751 69.6071
12.72 67.2529
12.7649 66.8194
12.8098 67.1417
12.8547 68.7984
12.8996 70.2943
12.9445 71.7561
12.9894 73.4701
13.0343 74.8055
13.0792 79.3583
13.1242 91.0254
13.1691 108.945
13.214 145.462
13.2589 244.956
13.3038 392.312
13.3487 420.487
13.3937 228.717
13.4386 114.33
13.4835 104.032
13.5285 117.381
13.5734 157.074
13.6183 258.543
13.6633 371.689
13.7082 324.252
13.7531 165.887
13.7981 91.6624
13.843 80.1742
13.888 78.5259
13.9329 75.9948
13.9779 74.6297
14.0228 72.9446
14.0678 71.7311
14.1127 71.2198
14.1577 70.6825
14.2027 70.1066
14.2476 69.1444
14.2926 68.6177
14.3376 69.1107
14.3825 68.5235
14.4275 67.783
14.4725 67.6482
14.5175 67.8068
14.5624 67.8095
14.6074 68.6596
14.6524 69.1726
14.6974 69.5045
14.7424 72.4956
14.7874 77.9727
14.8324 87.1107
14.8774 110.323
14.9224 158.919
14.9674 219.923
15.0124 214.309
15.0574 137.424
15.1024 84.0513
15.1474 70.3057
15.1924 69.1661
15.2374 68.4124
15.2824 67.452
15.3274 66.3169
15.3725 65.4716
15.4175 65.1614
15.4625 64.7667
15.5076 64.6263
15.5526 64.8592
15.5976 64.8758
15.6426 66.8231
15.6877 71.3117
15.7327 78.3237
15.7778 93.5081
15.8228 127.985
15.8679 177.302
15.9129 195.558
15.958 145.627
16.003 87.0683
16.0481 64.5669
16.0931 61.819
16.1382 60.2874
16.1833 59.0705
16.2283 57.6448
16.2734 57.0065
16.3185 56.732
16.3636 56.5375
16.4086 55.7928
16.4537 55.0542
16.4988 54.5328
16.5439 54.318
16.589 54.1015
16.6341 53.7959
16.6792 53.3235
16.7243 53.8028
16.7694 53.5385
16.8145 53.4697
16.8596 53.8062
16.9047 54.5299
16.9498 54.6676
16.9949 54.3347
17.04 54.9206
17.0851 56.166
17.1302 57.7347
17.1754 60.4194
17.2205 66.1417
17.2656 74.687
17.3108 83.1949
17.3559 80.2568
17.401 67.5144
17.4462 60.0037
17.4913 58.0292
17.5365 58.0891
17.5815 58.1735
17.6268 58.551
17.6718 59.2093
17.7171 59.5407
17.7622 60.2811
17.8074 61.3998
17.8525 63.9802
17.8977 66.9228
17.9428 72.0853
17.9881 81.631
18.0331 100.851
18.0784 126.292
18.1237 140.458
18.1688 126.088
18.214 96.6747
18.2591 83.7076
18.3044 90.6497
18.3495 101.393
18.3948 104.91
18.4399 90.8809
18.4852 72.8248
18.5303 63.8564
18.5756 60.9946
18.6207 60.2313
18.666 59.146
18.7112 58.5574
18.7565 57.8213
18.8016 57.7281
18.8469 56.9727
18.892 56.723
18.9374 56.1093
18.9825 55.9134
19.0278 55.6377
19.073 56.0731
19.1183 56.2091
19.1635 56.8038
19.2088 58.0629
19.254 61.2976
19.2993 66.0553
19.3447 72.2785
19.3898 74.7324
19.4352 69.0948
19.4804 60.2684
19.5257 54.8903
19.5709 53.0628
19.6163 52.9191
19.6615 52.7118
19.7068 52.4775
19.752 52.4382
19.7974 52.6861
19.8426 53.3175
19.888 54.055
19.9332 55.2329
19.9786 58.1969
20.0238 62.1414
20.0692 67.4612
20.1144 69.3282
20.1598 66.2777
20.205 61.3841
20.2504 61.4113
20.2957 63.9745
20.3411 65.3593
20.3863 62.2559
20.4318 56.245
20.477 51.722
20.5224 50.0647
20.5677 49.6497
20.6131 49.2646
20.6586 48.7778
20.7038 48.564
20.7493 48.176
20.7945 48.1168
20.84 47.9521
20.8853 47.8216
20.9307 47.8344
20.976 47.882
21.0215 47.7927
21.0668 48.1237
21.1122 48.4705
21.1575 49.4149
21.203 50.1056
21.2483 50.5673
21.2938 50.5025
21.3391 48.8525
21.3846 47.845
21.4299 47.4095
21.4754 47.7051
21.5207 47.866
21.5662 48.1008
21.6116 48.6699
21.6571 49.0136
21.7024 50.0284
21.7479 51.8804
21.7933 54.9188
21.8388 59.0257
21.8843 63.0424
21.9297 64.182
21.9752 61.1162
22.0206 57.5555
22.0661 55.4224
22.1115 55.49
22.157 55.0038
22.2024 52.6807
22.248 50.0393
22.2933 48.6321
22.3389 48.0897
22.3843 47.7902
22.4299 47.7668
22.4753 47.9072
22.5208 47.6435
22.5662 47.7377
22.6118 47.806
22.6572 48.0602
22.7028 48.289
22.7483 48.8668
22.7939 49.6607
22.8393 51.2822
22.8849 53.7017
22.9303 55.8645
22.9759 57.1658
23.0214 56.1338
23.067 52.8277
23.1126 49.629
23.1581 48.3155
23.2037 47.9222
23.2492 48.0237
23.2948 47.9884
23.3403 48.277
23.3859 48.8904
23.4314 50.1316
23.477 52.213
23.5225 54.8599
23.5682 56.9364
23.6137 57.1247
23.6593 54.0431
23.7048 49.8616
23.7505 46.7762
23.796 45.6874
23.8417 45.182
23.8872 44.673
23.9329 44.5096
23.9784 44.056
24.0241 43.8219
24.0697 43.5909
24.1154 43.2234
24.1609 43.104
24.2066 43.0585
24.2522 43.028
24.2979 42.6068
24.3434 42.4673
24.3892 42.4188
24.4349 42.4896
24.4805 42.2656
24.5262 42.4574
24.5718 42.3166
24.6175 42.1096
24.6631 42.1592
24.7089 41.7972
24.7545 41.5495
24.8002 41.4904
24.8458 41.6019
24.8916 41.3221
24.9372 41.4189
24.983 41.69
25.0286 42.2177
25.0744 42.6024
25.12 43.3101
25.1658 43.5948
25.2114 43.9971
25.2572 44.0282
25.3029 44.1941
25.3487 44.3087
25.3943 43.7997
25.4402 42.3653
25.4858 41.4046
25.5316 40.5969
25.5773 40.1896
25.6231 40.0608
25.669 39.819
25.7147 39.7964
25.7605 39.7408
25.8062 39.8067
25.8521 39.8849
25.8977 39.8439
25.9436 40.1389
25.9893 40.333
26.0352 40.9217
26.0809 40.9532
26.1268 41.1398
26.1725 40.5095
26.2184 39.9731
26.2641 39.6843
26.31 39.3598
26.3557 39.3962
26.4017 39.3609
26.4474 39.7591
26.4933 40.0327
26.5391 40.5827
26.585 41.1765
26.6308 41.5463
26.6767 41.4153
26.7225 41.1053
26.7684 40.5233
26.8142 40.1441
26.8601 39.7485
26.9059 39.2527
26.9519 38.7287
26.9979 38.5566
27.0437 38.2376
27.0896 38.0377
27.1354 38.0781
27.1814 37.9138
27.2272 37.9118
27.2732 37.8635
27.3191 37.7283
27.3651 37.8347
27.4109 37.8133
27.4569 37.908
27.5027 37.9072
27.5488 37.9961
27.5946 37.7212
27.6407 37.4704
27.6865 37.3361
27.7326 37.3953
27.7784 37.1924
27.8245 37.1315
27.8703 37.2617
27.9164 37.6911
27.9623 37.8126
28.0084 38.0617
28.0543 38.5791
28.1003 38.329
28.1462 38.1608
28.1923 37.7605
28.2384 37.2294
28.2843 36.9583
28.3304 36.4029
28.3764 36.1182
28.4225 35.6443
28.4684 35.5236
28.5145 35.32
28.5605 35.2496
28.6066 35.0375
28.6526 34.9913
28.6987 34.9831
28.7447 34.8952
28.7908 34.7486
28.8368 34.8509
28.8829 34.8616
28.9289 34.6827
28.9751 34.5234
29.0211 34.2528
29.0673 33.9601
29.1133 33.8628
29.1595 33.7544
29.2055 33.8282
29.2517 33.7394
29.2977 33.7213
29.3439 33.7223
29.3899 33.7298
29.4361 33.4672
29.4824 33.1963
29.5284 33.1042
29.5746 32.8512
29.6207 32.5266
29.6669 32.4334
29.713 32.2779
29.7593 32.2586
29.8053 32.3472
29.8516 32.1723
29.8977 32.2008
29.9439 31.9118
29.99 32.0163
30.0363 31.7285
30.0824 31.9126
30.1287 31.8819
30.1748 31.8227
30.2211 31.8251
30.2673 31.6748
30.3136 31.7988
30.3597 31.7539
30.406 31.5977
30.4522 31.5624
30.4985 31.5293
30.5447 31.5763
30.591 31.6914
30.6372 31.8164
30.6835 31.7293
30.7297 31.6096
30.7761 31.5607
30.8224 31.3556
30.8686 31.3266
30.915 31.0896
30.9612 31.0075
31.0076 30.7197
31.0538 30.6585
31.1002 30.6564
31.1464 30.3556
31.1928 30.3547
31.2391 30.3764
31.2855 30.384
31.3317 30.3662
31.3781 30.4396
31.4244 30.3359
31.4708 30.3627
31.5171 30.2966
31.5636 30.214
31.6098 29.9209
31.6563 29.7784
31.7026 29.6646
31.7491 29.4985
31.7953 29.6883
31.8418 29.679
31.8881 29.5621
31.9346 29.6836
31.9809 29.5616
32.0275 29.3801
32.074 29.293
32.1203 29.0434
32.1668 29.0041
32.2132 28.8542
32.2597 28.7051
32.306 28.6667
32.3526 28.4313
32.399 28.3893
32.4455 28.2821
32.4919 28.2569
32.5385 28.1585
32.5848 27.9684
32.6314 27.9759
32.6778 27.8682
32.7244 27.8261
32.7708 27.7138
32.8174 27.7021
32.8638 27.5049
32.9104 27.6403
32.9569 27.3883
33.0035 27.4985
33.0499 27.3046
33.0966 27.3878
33.143 27.3676
33.1897 27.2414
33.2361 27.124
33.2828 27.0485
33.3293 26.864
33.3759 26.8958
33.4226 26.7615
33.4691 26.6008
33.5158 26.5714
33.5623 26.4588
33.609 26.2884
33.6555 26.2129
33.7022 26.2095
33.7487 26.0347
33.7954 26.0447
33.842 25.9041
33.8887 25.8439
33.9353 25.8598
33.982 25.6838
34.0286 25.4985
34.0753 25.4587
34.1219 25.4359
34.1687 25.4269
34.2152 25.3159
34.262 25.2384
34.3086 25.1405
34.3554 25.1063
34.402 24.9943
34.4488 24.8962
34.4954 24.8272
34.5422 24.694
34.5889 24.5812
34.6357 24.467
34.6825 24.5024
34.7292 24.3436
34.776 24.3747
34.8227 24.3064
34.8695 24.2168
34.9162 24.1072
34.9631 23.999
35.0098 24.027
35.0566 23.9317
35.1033 23.8901
35.1502 23.7909
35.1969 23.8102
35.2438 23.675
35.2906 23.6683
35.3375 23.6383
35.3842 23.5966
35.4311 23.6016
35.4779 23.5411
35.5248 23.4835
35.5716 23.383
35.6185 23.2826
35.6653 23.1221
35.7123 23.1048
35.759 23.0804
35.806 22.9712
35.8528 22.8048
35.8998 22.8663
35.9468 22.7057
35.9936 22.7273
36.0406 22.526
36.0874 22.6692
36.1345 22.4754
36.1813 22.3975
36.2283 22.3268
36.2752 22.2333
36.3222 22.2712
36.3691 22.2455
36.4161 22.0084
36.463 22.0857
36.5101 22.1007
36.557 22.0037
36.6041 21.8178
36.651 21.8129
36.6981 21.7771
36.745 21.6613
36.7921 21.5198
36.839 21.4247
36.8861 21.4429
36.9331 21.3618
36.9802 21.2774
37.0272 21.2633
37.0743 21.1327
37.1213 21.0894
37.1684 21.05
37.2154 20.9381
37.2626 20.8946
37.3098 20.8522
37.3568 20.7856
37.404 20.7722
37.451 20.5953
37.4982 20.581
37.5452 20.4588
37.5924 20.4089
37.6395 20.4822
37.6867 20.3775
37.7337 20.2914
37.781 20.1719
37.8281 20.1619
37.8753 20.0467
37.9224 19.9534
37.9697 19.8823
38.0168 19.8855
38.064 19.8127
38.1111 19.7531
38.1584 19.6791
38.2056 19.608
38.2529 19.5533
38.3 19.4024
38.3473 19.4594
38.3945 19.4034
38.4418 19.2973
38.489 19.2462
38.5363 19.1883
38.5837 19.0663
38.6309 19.0733
38.6782 19.0372
38.7254 18.9807
38.7728 18.8714
38.82 18.7657
38.8674 18.7797
38.9146 18.6839
38.9621 18.5755
39.0093 18.5292
39.0567 18.5393
39.104 18.4827
39.1514 18.3829
39.1987 18.2895
39.2461 18.3568
39.2934 18.2445
39.3409 18.0929
39.3882 18.057
39.4356 18.0943
39.483 18.0095
39.5304 17.9349
39.5778 17.922
39.6253 17.8191
39.6726 17.8319
39.7201 17.6852
39.7675 17.6645
39.815 17.6465
39.8624 17.5565
39.9099 17.476
39.9575 17.4023
40.0049 17.4067
40.0525 17.2872
40.0999 17.3157
40.1474 17.1781
40.1949 17.068
40.2425 17.0452
40.2899 17.0716
40.3375 17.009
40.385 16.9475
40.4326 16.8879
40.48 16.7901
40.5277 16.8265
40.5752 16.7973
40.6228 16.6838
40.6703 16.7036
40.718 16.6105
40.7655 16.5216
40.8132 16.423
40.8607 16.4735
40.9084 16.3089
40.9559 16.2999
41.0036 16.2236
41.0512 16.2326
41.0989 16.102
41.1465 16.0962
41.1942 16.0729
41.242 15.9583
41.2896 15.9648
41.3373 15.8516
41.3849 15.8233
41.4327 15.7771
41.4803 15.7198
41.5281 15.6811
41.5758 15.5545
41.6236 15.5899
41.6712 15.4662
41.7191 15.4496
41.7667 15.3807
41.8146 15.3382
41.8622 15.2633
41.9101 15.2764
41.9578 15.2217
42.0057 15.2117
42.0534 15.0924
42.1013 15.0984
42.149 14.9759
42.1969 14.9744
42.2446 14.8931
42.2925 14.8701
42.3403 14.725
42.3882 14.7609
42.436 14.7471
42.4839 14.6298
42.5319 14.6381
42.5797 14.5726
42.6277 14.4806
42.6755 14.5125
42.7235 14.3829
42.7713 14.3573
42.8193 14.3229
42.8671 14.2302
42.9152 14.1845
42.963 14.162
43.0111 14.1322
43.0589 14.0571
43.107 14.0194
43.1549 13.9898
43.2029 13.9203
43.2508 13.8921
43.2989 13.8264
43.3468 13.7225
43.3949 13.7311
43.4429 13.6837
43.491 13.6819
43.5389 13.6658
43.5871 13.5866
43.635 13.4908
43.6832 13.4932
43.7312 13.3936
43.7793 13.3466
43.8273 13.303
43.8755 13.2706
43.9237 13.1792
43.9717 13.1732
44.0199 13.1273
44.068 13.1453
44.1162 13.0317
44.1642 13.0255
44.2125 12.9185
44.2606 12.9283
44.3088 12.8558
44.3569 12.8179
44.4052 12.786
44.4533 12.7063
44.5016 12.6603
44.5497 12.6243
44.598 12.6058
44.6461 12.5518
44.6945 12.5016
44.7426 12.4702
44.791 12.3875
44.8391 12.417
44.8875 12.3195
44.9357 12.2902
44.984 12.25
45.0322 12.1708
45.0806 12.148
45.1288 12.0896
45.1773 12.0832
45.2257 12.0351
45.2739 11.9914
45.3224 11.9275
45.3706 11.8855
45.4191 11.8413
45.4673 11.8359
45.5158 11.7324
45.5641 11.6938
45.6126 11.7009
45.6609 11.6458
45.7094 11.5857
45.7577 11.5938
45.8063 11.4774
45.8546 11.493
45.9031 11.4313
45.9515 11.3982
46.0001 11.3685
46.0484 11.3399
46.097 11.3408
46.1454 11.2398
46.194 11.2176
46.2424 11.1747
46.291 11.1387
46.3395 11.119
46.3881 10.9857
46.4365 11.0446
46.4852 10.9694
46.5337 10.911
46.5823 10.8785
46.631 10.848
46.6795 10.7861
46.7282 10.7733
46.7767 10.6961
46.8254 10.6557
46.8739 10.679
46.9226 10.611
46.9712 10.5157
47.0199 10.4837
47.0685 10.4863
47.1173 10.438
47.1658 10.3851
47.2146 10.3732
47.2632 10.286
47.312 10.2837
47.3606 10.2514
47.4095 10.1949
47.4581 10.1752
47.5069 10.1235
47.5556 10.0981
47.6044 10.0434
47.6531 9.97665
47.702 9.96301
47.7507 9.93154
47.7996 9.91539
47.8483 9.87745
47.8972 9.88227
47.9461 9.79139
47.9948 9.74548
48.0438 9.75119
48.0925 9.68767
48.1415 9.65639
48.1902 9.62391
48.2392 9.61139
48.288 9.59365
48.337 9.56981
48.3858 9.50324
48.4348 9.45551
48.4837 9.42999
48.5327 9.41109
48.5815 9.33677
48.6306 9.32027
48.6795 9.35752
48.7285 9.243
48.7774 9.23947
48.8265 9.16386
48.8754 9.15952
48.9245 9.13911
48.9734 9.06787
49.0226 9.05856
49.0715 9.02217
49.1206 8.95582
49.1696 8.92747
49.2188 8.88457
49.2679 8.86355
49.3169 8.82497
49.3661 8.83019
49.4151 8.79454
49.4643 8.74657
49.5134 8.68138
49.5626 8.61886
49.6117 8.64142
49.6609 8.6174
49.71 8.5439
49.7592 8.52765
49.8083 8.46208
49.8576 8.50027
49.9067 8.45698
49.956 8.40933
50.0052 8.38778
50.0545 8.33311
50.1036 8.31694
50.153 8.29815
50.2022 8.26309
50.2515 8.19881
50.3007 8.17891
50.3501 8.18171
50.3993 8.10223
50.4487 8.12016
50.498 8.05612
50.5474 8.02593
50.5966 8.0016
50.6461 7.96338
50.6955 7.88559
50.7448 7.89202
50.7943 7.87666
50.8436 7.83701
50.8931 7.80914
50.9424 7.75596
50.9919 7.73597
51.0413 7.72595
51.0908 7.66348
51.1402 7.65336
51.1897 7.65703
51.2391 7.63106
51.2887 7.55219
51.3381 7.5378
51.3877 7.50759
51.4371 7.46834
51.4867 7.44233
51.5362 7.4493
51.5858 7.39357
51.6353 7.35291
51.6849 7.31723
51.7344 7.3104
51.7841 7.24142
51.8336 7.2565
51.8833 7.20406
51.9328 7.16183
51.9826 7.12597
52.0323 7.09376
52.0818 7.10975
52.1316 7.03897
52.1812 7.02458
52.231 7.0025
52.2806 6.96106
52.3304 6.9517
52.38 6.92031
52.4298 6.90104
52.4794 6.83778
52.5293 6.82922
52.5789 6.80903
52.6288 6.78895
52.6785 6.76355
52.7284 6.72201
52.7781 6.71353
52.828 6.62774
52.8777 6.63233
52.9276 6.6019
52.9774 6.57318
53.0273 6.5555
53.0771 6.55699
53.1271 6.50727
53.1769 6.47142
53.2269 6.45328
53.2767 6.35999
53.3267 6.37363
53.3765 6.34138
53.4266 6.31036
53.4766 6.27819
53.5265 6.29063
53.5765 6.23139
53.6264 6.22638
53.6765 6.19008
53.7264 6.17821
53.7765 6.17635
53.8265 6.12124
53.8766 6.08595
53.9266 6.06441
53.9767 6.03083
54.0267 6.02707
54.0769 5.96702
54.1269 5.94469
54.1771 5.93083
54.2271 5.90937
54.2773 5.85901
54.3274 5.83613
54.3776 5.78568
54.4277 5.74903
54.478 5.70738
54.528 5.71445
54.5783 5.63948
54.6285 5.62517
54.6788 5.55105
54.7289 5.55909
54.7792 5.50374
54.8296 5.45853
54.8798 5.44361
54.9301 5.39353
54.9803 5.38135
55.0307 5.34115
55.0809 5.25699
55.1314 5.21553
55.1816 5.18454
55.232 5.16457
55.2823 5.08569
55.3328 5.05147
55.383 5.01345
55.4335 4.94063
55.4838 4.91438
55.5344 4.82206
55.5847 4.82071
55.6352 4.81192
55.6856 4.79677
55.7361 4.77434