File: XRD/Ni3Fe_FD0371.xy
TT I
1.27165 7.79297
1.31627 6.94976
1.36089 6.8681
1.40551 5.8477
1.45013 5.80395
1.49476 5.82711
1.53938 6.46371
1.584 4.9898
1.62863 5.14231
1.67325 4.80365
1.71787 5.39246
1.7625 5.14253
1.80712 4.8071
1.85174 4.71574
1.89636 4.60841
1.94099 5.00611
1.98562 4.68746
2.03025 4.75947
2.07487 4.24035
2.11949 4.7626
2.16411 4.92512
2.20874 9.65641
2.25338 13.8472
2.298 5.39714
2.34263 4.52015
2.38725 5.70636
2.43188 5.19947
2.4765 6.2677
2.52115 6.28285
2.56577 6.90376
2.6104 6.75669
2.65503 7.02059
2.69965 7.28589
2.7443 7.86219
2.78893 7.3848
2.83356 7.90708
2.87818 8.15173
2.92281 8.85326
2.96744 9.64816
3.01209 10.1859
3.05672 10.9587
3.10135 12.3636
3.14599 12.9126
3.19062 14.1133
3.23527 14.9825
3.2799 15.9328
3.32454 16.7672
3.36917 18.0499
3.4138 18.8959
3.45844 19.6411
3.50309 20.7712
3.54773 21.3458
3.59237 23.8087
3.637 62.0607
3.68164 43.0238
3.7263 26.318
3.77094 25.8859
3.81558 26.9212
3.86022 27.7086
3.90486 29.3092
3.9495 30.1261
3.99416 31.5521
4.0388 32.6853
4.08344 33.9585
4.12809 35.105
4.17273 37.2375
4.21738 42.3054
4.26204 157.559
4.30669 135.282
4.35133 47.2582
4.39598 45.1987
4.44063 50.9002
4.4853 58.0434
4.52995 53.7787
4.5746 53.1918
4.61925 54.5745
4.6639 57.0142
4.70855 59.4612
4.75322 63.2671
4.79788 66.5306
4.84253 69.4042
4.88719 74.5636
4.93184 78.3841
4.97652 84.2186
5.02118 91.302
5.06583 99.834
5.11049 114.524
5.15515 172.649
5.19981 543.698
5.24449 3582.27
5.28916 11120.3
5.33382 3577.65
5.37848 231.533
5.42315 139.833
5.46783 121.94
5.5125 112.406
5.55716 106.75
5.60183 102.256
5.6465 100.444
5.69117 98.3409
5.73586 96.4829
5.78053 97.1795
5.8252 96.6125
5.86988 98.2128
5.91455 101.049
5.95924 114.3
6.00392 294.601
6.0486 1259.17
6.09328 3988.02
6.13795 3403.33
6.18263 308.576
6.22733 100.71
6.27201 85.6513
6.3167 92.5761
6.36138 78.902
6.40606 71.574
6.45075 69.3744
6.49545 67.1235
6.54014 65.3208
6.58483 64.2022
6.62952 63.9358
6.67421 80.7544
6.71892 106.597
6.76361 65.7915
6.8083 60.0912
6.853 58.4497
6.89769 58.3901
6.94239 57.9141
6.98711 56.9005
7.03181 56.5442
7.07651 56.4357
7.12121 56.4404
7.16591 56.6009
7.21063 56.3556
7.25533 64.9836
7.30004 123.152
7.34475 75.9936
7.38945 56.7407
7.43416 55.2213
7.47889 55.5147
7.5236 55.8061
7.56831 56.3423
7.61303 57.6896
7.65774 57.6614
7.70247 57.5559
7.74719 57.6293
7.79191 57.9988
7.83663 58.2579
7.88135 59.1675
7.92607 60.259
7.97081 61.6143
8.01553 62.3857
8.06026 64.2522
8.10498 65.385
8.14971 72.3951
8.19446 72.2954
8.23919 71.4975
8.28392 74.1896
8.32865 76.592
8.37339 81.783
8.41812 88.0331
8.46288 111.45
8.50761 206.434
8.55235 487.367
8.59709 1193.96
8.64183 2036.42
8.68658 1115.39
8.73134 199.627
8.77609 105.046
8.82083 96.8152
8.86558 92.9398
8.91033 92.1486
8.9551 92.0688
8.99985 87.584
9.04461 86.2624
9.08936 86.0791
9.13412 84.688
9.17888 84.3901
9.22365 84.8787
9.26841 84.4163
9.31318 85.7884
9.35794 86.1018
9.4027 85.9269
9.44749 86.8945
9.49226 87.0773
9.53703 88.369
9.5818 90.5723
9.62657 94.1881
9.67134 98.0023
9.71614 95.9562
9.76091 97.7649
9.80569 100.491
9.85047 103.372
9.89525 119.414
9.94005 134.948
9.98484 218.458
10.0296 429.766
10.0744 874.662
10.1192 1552.28
10.164 1647.63
10.2088 512.885
10.2536 141.713
10.2984 116.063
10.3432 114.287
10.388 109.536
10.4328 132.137
10.4776 184.636
10.5224 302.041
10.5672 472.375
10.612 511.725
10.6568 231.657
10.7017 102.304
10.7465 90.0036
10.7913 85.9623
10.8361 83.6111
10.8809 81.4431
10.9257 80.0859
10.9706 80.0757
11.0154 76.6888
11.0602 74.6635
11.105 73.3798
11.1499 75.5702
11.1947 79.0091
11.2395 73.4878
11.2844 71.1301
11.3292 69.0539
11.374 67.8638
11.4189 67.5706
11.4637 66.389
11.5086 66.7381
11.5534 68.0127
11.5983 66.4309
11.6431 65.4668
11.688 64.5932
11.7328 64.4187
11.7777 64.3398
11.8225 64.3045
11.8674 64.4364
11.9122 64.4619
11.9571 64.6732
12.002 65.9782
12.0468 72.5149
12.0917 85.9832
12.1366 110.302
12.1814 150.214
12.2263 196.982
12.2712 178.384
12.3161 101.456
12.3609 71.0998
12.4058 66.2032
12.4507 65.8054
12.4956 66.2244
12.5405 66.3443
12.5853 67.1546
12.6302 71.5204
12.6751 74.8516
12.72 70.5412
12.7649 69.775
12.8098 70.2509
12.8547 71.5178
12.8996 73.2862
12.9445 74.391
12.9894 76.5633
13.0343 78.3925
13.0792 82.6182
13.1242 96.6676
13.1691 124.784
13.214 167.475
13.2589 248.235
13.3038 345.284
13.3487 410.151
13.3937 293.988
13.4386 139.224
13.4835 116.144
13.5285 134.713
13.5734 174.847
13.6183 245.212
13.6633 321.195
13.7082 342.274
13.7531 214.602
13.7981 107.633
13.843 84.9325
13.888 82.4061
13.9329 79.6638
13.9779 78.4475
14.0228 76.7875
14.0678 75.298
14.1127 74.6043
14.1577 74.2166
14.2027 73.7143
14.2476 72.655
14.2926 72.5394
14.3376 73.0104
14.3825 72.0223
14.4275 70.9942
14.4725 70.8215
14.5175 71.1369
14.5624 71.0771
14.6074 72.6821
14.6524 72.9898
14.6974 72.8294
14.7424 75.975
14.7874 84.893
14.8324 97.3652
14.8774 120.422
14.9224 155.521
14.9674 193.396
15.0124 212.23
15.0574 160.521
15.1024 98.9196
15.1474 75.2876
15.1924 72.6116
15.2374 72.1155
15.2824 71.3755
15.3274 69.694
15.3725 68.7538
15.4175 68.4318
15.4625 68.1347
15.5076 68.0939
15.5526 68.2138
15.5976 67.8738
15.6426 70.541
15.6877 77.4849
15.7327 86.9084
15.7778 103.378
15.8228 129.979
15.8679 161.6
15.9129 186.336
15.958 166.705
16.003 108.473
16.0481 71.7714
16.0931 65.9702
16.1382 63.6966
16.1833 62.1664
16.2283 60.6841
16.2734 59.8273
16.3185 59.9102
16.3636 59.8768
16.4086 58.7709
16.4537 57.7266
16.4988 57.0895
16.5439 57.0365
16.589 56.8316
16.6341 56.6288
16.6792 56.1732
16.7243 56.4742
16.7694 56.3256
16.8145 56.3022
16.8596 56.675
16.9047 57.3776
16.9498 57.8039
16.9949 57.1916
17.04 57.6801
17.0851 59.1043
17.1302 61.0969
17.1754 64.7043
17.2205 69.2447
17.2656 74.9419
17.3108 81.4828
17.3559 83.2652
17.401 74.5118
17.4462 65.5703
17.4913 61.2581
17.5365 61.0716
17.5815 61.0302
17.6268 61.4386
17.6718 62.1238
17.7171 62.6599
17.7622 63.0103
17.8074 64.1648
17.8525 67.797
17.8977 72.3041
17.9428 78.6456
17.9881 87.8975
18.0331 102.52
18.0784 117.739
18.1237 134.729
18.1688 135.758
18.214 113.857
18.2591 93.117
18.3044 92.3697
18.3495 98.0711
18.3948 103.738
18.4399 99.0301
18.4852 81.4527
18.5303 68.8402
18.5756 64.0957
18.6207 63.1115
18.666 62.3233
18.7112 61.3526
18.7565 60.7631
18.8016 60.5922
18.8469 59.7983
18.892 59.6124
18.9374 58.8487
18.9825 58.7165
19.0278 58.617
19.073 58.9445
19.1183 59.2705
19.1635 60.1977
19.2088 61.7728
19.254 64.5158
19.2993 67.9338
19.3447 71.9477
19.3898 75.684
19.4352 74.2038
19.4804 66.3122
19.5257 59.4188
19.5709 56.077
19.6163 55.3584
19.6615 55.2177
19.7068 54.9558
19.752 55.0279
19.7974 55.3837
19.8426 56.3542
19.888 57.0485
19.9332 58.5565
19.9786 61.2428
20.0238 63.9114
20.0692 67.5109
20.1144 70.5754
20.1598 71.1095
20.205 66.74
20.2504 64.171
20.2957 64.184
20.3411 65.7387
20.3863 65.8713
20.4318 61.0685
20.477 55.8727
20.5224 53.175
20.5677 52.1956
20.6131 51.6373
20.6586 51.0837
20.7038 51.0345
20.7493 50.5737
20.7945 50.464
20.84 50.467
20.8853 50.1802
20.9307 50.005
20.976 50.2715
21.0215 50.1719
21.0668 50.5648
21.1122 51.0702
21.1575 51.4429
21.203 51.9957
21.2483 52.5941
21.2938 52.925
21.3391 51.7168
21.3846 50.6963
21.4299 50.0753
21.4754 50.0729
21.5207 50.0019
21.5662 50.5319
21.6116 50.9982
21.6571 51.8546
21.7024 53.0263
21.7479 54.7806
21.7933 57.1437
21.8388 60.113
21.8843 62.9257
21.9297 65.4023
21.9752 65.4968
22.0206 62.1681
22.0661 58.366
22.1115 57.0249
22.157 57.2701
22.2024 56.178
22.248 53.3597
22.2933 51.602
22.3389 50.5455
22.3843 50.4512
22.4299 50.185
22.4753 50.2838
22.5208 50.0521
22.5662 50.0561
22.6118 50.3876
22.6572 50.5933
22.7028 51.0804
22.7483 51.5938
22.7939 52.2899
22.8393 53.7915
22.8849 55.3764
22.9303 56.7678
22.9759 58.2691
23.0214 58.7348
23.067 56.8096
23.1126 53.2736
23.1581 51.014
23.2037 50.41
23.2492 50.5874
23.2948 50.6247
23.3403 50.7462
23.3859 51.7928
23.4314 52.5801
23.477 53.9951
23.5225 55.8696
23.5682 57.2914
23.6137 58.5027
23.6593 57.4552
23.7048 53.8542
23.7505 50.1365
23.796 48.2364
23.8417 47.37
23.8872 46.9118
23.9329 46.5244
23.9784 46.1243
24.0241 46.0255
24.0697 45.6002
24.1154 45.3289
24.1609 45.227
24.2066 45.0436
24.2522 44.9445
24.2979 44.724
24.3434 44.7233
24.3892 44.5533
24.4349 44.3661
24.4805 44.3708
24.5262 44.2481
24.5718 44.2522
24.6175 44.2324
24.6631 44.0306
24.7089 43.737
24.7545 43.7183
24.8002 43.5327
24.8458 43.4887
24.8916 43.3453
24.9372 43.5256
24.983 43.9829
25.0286 44.1013
25.0744 44.5929
25.12 45.0008
25.1658 45.5986
25.2114 45.944
25.2572 46.0867
25.3029 45.7728
25.3487 45.7482
25.3943 45.6798
25.4402 45.0309
25.4858 43.8194
25.5316 42.9706
25.5773 42.0283
25.6231 42.1298
25.669 41.6637
25.7147 41.7946
25.7605 41.6276
25.8062 41.8281
25.8521 41.8164
25.8977 41.7591
25.9436 42.0752
25.9893 42.1394
26.0352 42.4733
26.0809 42.5998
26.1268 42.8279
26.1725 42.6327
26.2184 42.1132
26.2641 41.6013
26.31 41.3383
26.3557 41.439
26.4017 41.4832
26.4474 41.7156
26.4933 42.0159
26.5391 42.3527
26.585 42.6202
26.6308 43.0038
26.6767 43.2932
26.7225 43.1831
26.7684 42.7797
26.8142 41.9256
26.8601 41.6989
26.9059 41.2525
26.9519 40.7875
26.9979 40.5643
27.0437 40.0632
27.0896 39.7299
27.1354 39.9222
27.1814 39.8083
27.2272 39.6281
27.2732 39.6925
27.3191 39.4777
27.3651 39.5648
27.4109 39.5731
27.4569 39.5546
27.5027 39.5994
27.5488 39.7169
27.5946 39.4342
27.6407 39.2776
27.6865 39.3906
27.7326 38.8981
27.7784 39.0755
27.8245 39.0769
27.8703 39.2052
27.9164 39.4994
27.9623 39.5082
28.0084 39.6398
28.0543 40.0714
28.1003 40.1227
28.1462 39.9313
28.1923 39.7422
28.2384 39.008
28.2843 38.7198
28.3304 38.2911
28.3764 37.7051
28.4225 37.5396
28.4684 37.3009
28.5145 36.9696
28.5605 36.8972
28.6066 36.8097
28.6526 36.6085
28.6987 36.6073
28.7447 36.5024
28.7908 36.5383
28.8368 36.3455
28.8829 36.272
28.9289 36.2134
28.9751 36.2394
29.0211 35.9247
29.0673 35.7535
29.1133 35.6062
29.1595 35.3814
29.2055 35.3072
29.2517 35.3096
29.2977 35.1035
29.3439 35.1427
29.3899 35.0773
29.4361 35.0804
29.4824 35.0104
29.5284 34.7456
29.5746 34.2934
29.6207 34.0347
29.6669 34.0022
29.713 33.8722
29.7593 33.7979
29.8053 33.7465
29.8516 33.8189
29.8977 33.7028
29.9439 33.4764
29.99 33.5236
30.0363 33.3948
30.0824 33.4321
30.1287 33.3008
30.1748 33.3118
30.2211 33.3928
30.2673 33.2005
30.3136 33.3419
30.3597 33.1095
30.406 33.1159
30.4522 32.9974
30.4985 32.9272
30.5447 33.0685
30.591 32.9518
30.6372 33.0182
30.6835 32.9838
30.7297 33.0922
30.7761 33.0333
30.8224 32.9258
30.8686 32.7896
30.915 32.5621
30.9612 32.4515
31.0076 32.2052
31.0538 32.1368
31.1002 32.0751
31.1464 31.8301
31.1928 31.8656
31.2391 31.9307
31.2855 31.6804
31.3317 31.7158
31.3781 31.7373
31.4244 31.833
31.4708 31.7514
31.5171 31.6611
31.5636 31.5843
31.6098 31.4806
31.6563 31.2561
31.7026 31.0374
31.7491 31.0345
31.7953 31.0501
31.8418 31.0227
31.8881 31.0497
31.9346 30.9202
31.9809 30.8495
32.0275 30.7832
32.074 30.5831
32.1203 30.446
32.1668 30.4412
32.2132 30.2611
32.2597 30.1347
32.306 30.0654
32.3526 29.8328
32.399 29.7549
32.4455 29.6096
32.4919 29.5588
32.5385 29.4725
32.5848 29.2341
32.6314 29.2332
32.6778 29.2433
32.7244 29.1705
32.7708 28.9677
32.8174 28.9277
32.8638 28.766
32.9104 28.8312
32.9569 28.8853
33.0035 28.6898
33.0499 28.6358
33.0966 28.5856
33.143 28.5687
33.1897 28.4901
33.2361 28.3524
33.2828 28.235
33.3293 28.1073
33.3759 28.148
33.4226 28.027
33.4691 27.8177
33.5158 27.7105
33.5623 27.7032
33.609 27.4792
33.6555 27.4133
33.7022 27.433
33.7487 27.3118
33.7954 27.2778
33.842 27.162
33.8887 26.9963
33.9353 27.027
33.982 26.8444
34.0286 26.8062
34.0753 26.7676
34.1219 26.6353
34.1687 26.5803
34.2152 26.5415
34.262 26.3066
34.3086 26.3047
34.3554 26.2607
34.402 26.1335
34.4488 26.0331
34.4954 25.9923
34.5422 25.8629
34.5889 25.7788
34.6357 25.7357
34.6825 25.6721
34.7292 25.5341
34.776 25.4779
34.8227 25.4075
34.8695 25.3196
34.9162 25.2535
34.9631 25.2061
35.0098 25.2502
35.0566 25.0765
35.1033 24.9621
35.1502 24.9423
35.1969 24.9617
35.2438 24.854
35.2906 24.7779
35.3375 24.7041
35.3842 24.6818
35.4311 24.5948
35.4779 24.5197
35.5248 24.5471
35.5716 24.4356
35.6185 24.3458
35.6653 24.2546
35.7123 24.2405
35.759 24.1069
35.806 24.0357
35.8528 23.9005
35.8998 23.9456
35.9468 23.7284
35.9936 23.7495
36.0406 23.5612
36.0874 23.6366
36.1345 23.5744
36.1813 23.4224
36.2283 23.3777
36.2752 23.277
36.3222 23.2898
36.3691 23.2286
36.4161 23.0855
36.463 23.0326
36.5101 23.0093
36.557 22.9742
36.6041 22.7935
36.651 22.7748
36.6981 22.7341
36.745 22.6399
36.7921 22.6355
36.839 22.527
36.8861 22.4102
36.9331 22.3729
36.9802 22.2739
37.0272 22.2002
37.0743 22.117
37.1213 22.0705
37.1684 21.9818
37.2154 21.8914
37.2626 21.8152
37.3098 21.8022
37.3568 21.6801
37.404 21.649
37.451 21.5247
37.4982 21.5042
37.5452 21.4376
37.5924 21.3864
37.6395 21.3927
37.6867 21.2841
37.7337 21.2138
37.781 21.1014
37.8281 21.1195
37.8753 20.9957
37.9224 20.8795
37.9697 20.9372
38.0168 20.764
38.064 20.6952
38.1111 20.6676
38.1584 20.5405
38.2056 20.486
38.2529 20.448
38.3 20.4468
38.3473 20.3259
38.3945 20.1936
38.4418 20.171
38.489 20.189
38.5363 20.0787
38.5837 19.9903
38.6309 19.9423
38.6782 19.8573
38.7254 19.8011
38.7728 19.7532
38.82 19.6709
38.8674 19.6602
38.9146 19.5705
38.9621 19.5216
39.0093 19.5467
39.0567 19.3757
39.104 19.3098
39.1514 19.2521
39.1987 19.2232
39.2461 19.1811
39.2934 19.0297
39.3409 18.918
39.3882 18.9371
39.4356 18.8411
39.483 18.9051
39.5304 18.7763
39.5778 18.7752
39.6253 18.7275
39.6726 18.5897
39.7201 18.5454
39.7675 18.4973
39.815 18.4217
39.8624 18.3915
39.9099 18.3619
39.9575 18.2157
40.0049 18.2018
40.0525 18.0663
40.0999 18.1023
40.1474 18.0512
40.1949 17.9835
40.2425 17.8967
40.2899 17.8994
40.3375 17.8159
40.385 17.713
40.4326 17.6004
40.48 17.5892
40.5277 17.576
40.5752 17.4794
40.6228 17.4816
40.6703 17.3938
40.718 17.3371
40.7655 17.3075
40.8132 17.1952
40.8607 17.149
40.9084 17.1255
40.9559 17.0597
41.0036 17.0544
41.0512 16.9796
41.0989 16.9065
41.1465 16.8224
41.1942 16.7676
41.242 16.6807
41.2896 16.6368
41.3373 16.6223
41.3849 16.577
41.4327 16.4848
41.4803 16.4563
41.5281 16.4327
41.5758 16.3255
41.6236 16.2288
41.6712 16.2102
41.7191 16.1868
41.7667 16.1243
41.8146 16.1114
41.8622 15.9884
41.9101 16.0572
41.9578 15.8984
42.0057 15.8869
42.0534 15.8124
42.1013 15.7096
42.149 15.6775
42.1969 15.5929
42.2446 15.6384
42.2925 15.5385
42.3403 15.5121
42.3882 15.4957
42.436 15.3886
42.4839 15.3483
42.5319 15.2731
42.5797 15.2108
42.6277 15.1551
42.6755 15.1271
42.7235 15.0875
42.7713 15.0346
42.8193 14.944
42.8671 14.9495
42.9152 14.8214
42.963 14.8385
43.0111 14.7696
43.0589 14.6932
43.107 14.6104
43.1549 14.6442
43.2029 14.5979
43.2508 14.48
43.2989 14.5042
43.3468 14.3922
43.3949 14.3848
43.4429 14.3092
43.491 14.251
43.5389 14.1892
43.5871 14.1405
43.635 14.0896
43.6832 14.0575
43.7312 13.9619
43.7793 13.9904
43.8273 13.9218
43.8755 13.8923
43.9237 13.8621
43.9717 13.7722
44.0199 13.7429
44.068 13.6926
44.1162 13.6681
44.1642 13.6077
44.2125 13.5302
44.2606 13.5049
44.3088 13.4227
44.3569 13.3748
44.4052 13.3347
44.4533 13.3059
44.5016 13.2232
44.5497 13.2418
44.598 13.2057
44.6461 13.0995
44.6945 13.0634
44.7426 13.001
44.791 12.9564
44.8391 12.9782
44.8875 12.8974
44.9357 12.8747
44.984 12.8217
45.0322 12.7583
45.0806 12.7063
45.1288 12.6826
45.1773 12.5769
45.2257 12.5673
45.2739 12.5561
45.3224 12.4876
45.3706 12.4339
45.4191 12.3763
45.4673 12.3507
45.5158 12.3751
45.5641 12.2691
45.6126 12.2124
45.6609 12.1497
45.7094 12.0963
45.7577 12.083
45.8063 12.0509
45.8546 11.9871
45.9031 11.938
45.9515 11.9161
46.0001 11.9025
46.0484 11.8674
46.097 11.8039
46.1454 11.7858
46.194 11.7346
46.2424 11.6467
46.291 11.6391
46.3395 11.5785
46.3881 11.5367
46.4365 11.5286
46.4852 11.4764
46.5337 11.4272
46.5823 11.3899
46.631 11.3327
46.6795 11.2586
46.7282 11.2823
46.7767 11.2153
46.8254 11.1586
46.8739 11.0832
46.9226 11.0519
46.9712 11.0299
47.0199 11.0149
47.0685 10.9352
47.1173 10.9188
47.1658 10.8831
47.2146 10.8623
47.2632 10.7806
47.312 10.769
47.3606 10.7082
47.4095 10.6413
47.4581 10.6094
47.5069 10.5861
47.5556 10.5961
47.6044 10.5286
47.6531 10.4716
47.702 10.4274
47.7507 10.367
47.7996 10.3938
47.8483 10.2995
47.8972 10.3007
47.9461 10.2655
47.9948 10.1675
48.0438 10.1553
48.0925 10.1621
48.1415 10.1387
48.1902 10.0497
48.2392 10.0301
48.288 10.0125
48.337 9.98511
48.3858 9.9021
48.4348 9.87784
48.4837 9.88313
48.5327 9.83014
48.5815 9.78191
48.6306 9.76524
48.6795 9.72385
48.7285 9.71066
48.7774 9.65037
48.8265 9.61394
48.8754 9.525
48.9245 9.54572
48.9734 9.50096
49.0226 9.44331
49.0715 9.44605
49.1206 9.36755
49.1696 9.32701
49.2188 9.34129
49.2679 9.28636
49.3169 9.23965
49.3661 9.17202
49.4151 9.18269
49.4643 9.1648
49.5134 9.12898
49.5626 9.05282
49.6117 9.04664
49.6609 9.00689
49.71 8.93437
49.7592 8.94096
49.8083 8.85825
49.8576 8.8502
49.9067 8.8172
49.956 8.86156
50.0052 8.78849
50.0545 8.74153
50.1036 8.68283
50.153 8.66888
50.2022 8.63405
50.2515 8.58707
50.3007 8.55533
50.3501 8.54212
50.3993 8.50412
50.4487 8.44023
50.498 8.43498
50.5474 8.40726
50.5966 8.35699
50.6461 8.32913
50.6955 8.31851
50.7448 8.22325
50.7943 8.22094
50.8436 8.19439
50.8931 8.18941
50.9424 8.16866
50.9919 8.14274
51.0413 8.08496
51.0908 8.03351
51.1402 8.007
51.1897 7.98758
51.2391 7.94229
51.2887 7.93642
51.3381 7.87899
51.3877 7.87113
51.4371 7.79364
51.4867 7.781
51.5362 7.74124
51.5858 7.73414
51.6353 7.66506
51.6849 7.65775
51.7344 7.60955
51.7841 7.56693
51.8336 7.5871
51.8833 7.54796
51.9328 7.48012
51.9826 7.45224
52.0323 7.46231
52.0818 7.41294
52.1316 7.3622
52.1812 7.38865
52.231 7.32474
52.2806 7.25773
52.3304 7.25084
52.38 7.20698
52.4298 7.21585
52.4794 7.12023
52.5293 7.10217
52.5789 7.0707
52.6288 7.12152
52.6785 7.03928
52.7284 6.98085
52.7781 6.98824
52.828 6.97931
52.8777 6.93922
52.9276 6.91197
52.9774 6.90761
53.0273 6.84448
53.0771 6.79165
53.1271 6.7833
53.1769 6.75094
53.2269 6.73398
53.2767 6.69186
53.3267 6.63426
53.3765 6.6379
53.4266 6.63385
53.4766 6.57066
53.5265 6.53998
53.5765 6.51418
53.6264 6.48979
53.6765 6.46123
53.7264 6.42773
53.7765 6.43271
53.8265 6.42557
53.8766 6.34424
53.9266 6.27856
53.9767 6.25676
54.0267 6.27243
54.0769 6.1888
54.1269 6.20162
54.1771 6.2054
54.2271 6.11921
54.2773 6.12263
54.3274 6.1153
54.3776 6.05502
54.4277 6.00186
54.478 5.97893
54.528 5.9534
54.5783 5.89461
54.6285 5.85453
54.6788 5.82412
54.7289 5.7701
54.7792 5.72801
54.8296 5.64302
54.8798 5.64974
54.9301 5.60831
54.9803 5.61808
55.0307 5.59281
55.0809 5.51945
55.1314 5.46323
55.1816 5.43283
55.232 5.38911
55.2823 5.34152
55.3328 5.29973
55.383 5.21399
55.4335 5.22183
55.4838 5.16376
55.5344 5.11428
55.5847 5.07826
55.6352 5.01241
55.6856 4.96916
55.7361 4.94036