File: XRD/Ni3Fe_FD0552.xy
TT I
1.27165 7.63403
1.31627 6.57449
1.36089 6.51549
1.40551 6.17398
1.45013 5.99796
1.49476 6.37679
1.53938 5.86743
1.584 5.17429
1.62863 5.18872
1.67325 5.13328
1.71787 5.8388
1.7625 4.67553
1.80712 4.72743
1.85174 4.78286
1.89636 4.82361
1.94099 4.65097
1.98562 4.88185
2.03025 3.90092
2.07487 4.26561
2.11949 4.68973
2.16411 4.92032
2.20874 12.0371
2.25338 19.0437
2.298 6.00257
2.34263 5.20231
2.38725 5.92306
2.43188 5.54809
2.4765 6.32737
2.52115 6.48279
2.56577 7.73958
2.6104 7.49789
2.65503 7.67528
2.69965 7.73002
2.7443 7.57508
2.78893 8.00498
2.83356 8.42372
2.87818 8.57502
2.92281 8.58699
2.96744 9.27515
3.01209 10.0229
3.05672 11.5458
3.10135 12.1328
3.14599 12.8797
3.19062 14.1025
3.23527 14.7036
3.2799 15.5366
3.32454 16.5249
3.36917 17.5355
3.4138 18.7196
3.45844 19.8976
3.50309 20.8331
3.54773 22.124
3.59237 23.9507
3.637 79.866
3.68164 52.2309
3.7263 26.2927
3.77094 26.3174
3.81558 27.187
3.86022 27.693
3.90486 29.0703
3.9495 29.7536
3.99416 30.7915
4.0388 32.1802
4.08344 33.7568
4.12809 34.9458
4.17273 36.5937
4.21738 42.1414
4.26204 207.893
4.30669 178.272
4.35133 47.6528
4.39598 44.3364
4.44063 52.8496
4.4853 61.4392
4.52995 50.3369
4.5746 51.7926
4.61925 53.5229
4.6639 55.9989
4.70855 58.7543
4.75322 61.755
4.79788 64.5752
4.84253 67.8765
4.88719 71.4445
4.93184 76.2097
4.97652 81.8573
5.02118 88.0248
5.06583 96.0242
5.11049 108.498
5.15515 171.458
5.19981 399.663
5.24449 3073.05
5.28916 12202.1
5.33382 3109.19
5.37848 196.129
5.42315 130.381
5.46783 114.044
5.5125 106.732
5.55716 103.012
5.60183 99.5785
5.6465 97.3407
5.69117 95.1656
5.73586 93.019
5.78053 92.6553
5.8252 92.2595
5.86988 93.5149
5.91455 96.205
5.95924 106.181
6.00392 234.562
6.0486 1068.26
6.09328 4393.07
6.13795 3408.91
6.18263 257.257
6.22733 94.3931
6.27201 82.9506
6.3167 97.1316
6.36138 78.823
6.40606 69.131
6.45075 67.7619
6.49545 65.542
6.54014 64.1214
6.58483 62.7283
6.62952 62.903
6.67421 88.1871
6.71892 127.888
6.76361 66.9412
6.8083 58.8319
6.853 57.2632
6.89769 56.8864
6.94239 56.7266
6.98711 56.0339
7.03181 55.8047
7.07651 55.3875
7.12121 55.0878
7.16591 55.5552
7.21063 55.6272
7.25533 68.1575
7.30004 153.966
7.34475 84.1729
7.38945 56.495
7.43416 54.6703
7.47889 54.1566
7.5236 55.0538
7.56831 55.5144
7.61303 56.7325
7.65774 56.9156
7.70247 56.2572
7.74719 56.5008
7.79191 57.2094
7.83663 57.0119
7.88135 58.0944
7.92607 58.7898
7.97081 60.4978
8.01553 61.2798
8.06026 62.6493
8.10498 64.3421
8.14971 72.1434
8.19446 71.447
8.23919 70.22
8.28392 72.5947
8.32865 74.6307
8.37339 79.1892
8.41812 85.7794
8.46288 112.1
8.50761 176.657
8.55235 422.803
8.59709 1219.34
8.64183 2226.6
8.68658 945.506
8.73134 172.668
8.77609 100.267
8.82083 93.0109
8.86558 90.2109
8.91033 89.6742
8.9551 90.9323
8.99985 85.9459
9.04461 83.9949
9.08936 83.3868
9.13412 82.6887
9.17888 82.602
9.22365 83.1106
9.26841 82.6817
9.31318 83.2271
9.35794 83.1845
9.4027 83.6314
9.44749 84.1629
9.49226 84.949
9.53703 86.3885
9.5818 87.8887
9.62657 92.0453
9.67134 97.5649
9.71614 93.6386
9.76091 94.7843
9.80569 97.2274
9.85047 100.718
9.89525 121.271
9.94005 134.635
9.98484 190.128
10.0296 367.325
10.0744 836.002
10.1192 1721.94
10.164 1583.14
10.2088 390.273
10.2536 126.264
10.2984 112.966
10.3432 113.258
10.388 105.451
10.4328 122.041
10.4776 167.288
10.5224 290.503
10.5672 513.849
10.612 498.001
10.6568 192.422
10.7017 95.4775
10.7465 86.8799
10.7913 83.6046
10.8361 81.6715
10.8809 79.6134
10.9257 78.1583
10.9706 78.5626
11.0154 74.9795
11.0602 72.9538
11.105 72.4585
11.1499 75.59
11.1947 81.1265
11.2395 73.4266
11.2844 69.9422
11.3292 67.3871
11.374 66.4571
11.4189 65.7461
11.4637 65.4441
11.5086 65.5927
11.5534 67.4825
11.5983 65.6612
11.6431 64.0174
11.688 63.1759
11.7328 63.3031
11.7777 63.2362
11.8225 62.6713
11.8674 62.6737
11.9122 63.1991
11.9571 63.4336
12.002 64.2639
12.0468 69.2418
12.0917 81.1689
12.1366 105.413
12.1814 154.326
12.2263 204.086
12.2712 162.998
12.3161 92.6757
12.3609 69.6454
12.4058 64.7085
12.4507 64.7931
12.4956 64.4515
12.5405 64.7176
12.5853 65.8115
12.6302 72.1636
12.6751 76.4575
12.72 70.0434
12.7649 68.2149
12.8098 68.7109
12.8547 69.9417
12.8996 71.6301
12.9445 72.8534
12.9894 74.5234
13.0343 76.5372
13.0792 80.1242
13.1242 90.4885
13.1691 115.823
13.214 154.668
13.2589 245.42
13.3038 374.065
13.3487 432.5
13.3937 261.41
13.4386 122.645
13.4835 107.859
13.5285 124.123
13.5734 164.134
13.6183 252.704
13.6633 349.304
13.7082 342.662
13.7531 182.716
13.7981 96.7571
13.843 82.2436
13.888 80.1326
13.9329 77.5574
13.9779 76.1296
14.0228 74.9631
14.0678 73.6441
14.1127 72.916
14.1577 72.586
14.2027 71.8554
14.2476 70.9474
14.2926 70.9039
14.3376 71.8569
14.3825 70.5911
14.4275 69.1168
14.4725 68.963
14.5175 69.3263
14.5624 69.4625
14.6074 71.2458
14.6524 71.7599
14.6974 71.101
14.7424 73.0621
14.7874 80.4838
14.8324 91.0384
14.8774 113.745
14.9224 156.076
14.9674 208.705
15.0124 219.889
15.0574 147.628
15.1024 89.2059
15.1474 72.4709
15.1924 70.7412
15.2374 71.0685
15.2824 70.2668
15.3274 68.4206
15.3725 67.0925
15.4175 66.8465
15.4625 66.419
15.5076 66.7267
15.5526 66.6321
15.5976 66.2188
15.6426 67.6446
15.6877 73.7036
15.7327 81.8825
15.7778 97.7205
15.8228 128.958
15.8679 172.208
15.9129 194.999
15.958 154.783
16.003 95.1887
16.0481 67.6063
16.0931 64.3943
16.1382 62.4846
16.1833 60.8384
16.2283 59.2494
16.2734 58.7606
16.3185 58.7534
16.3636 59.2596
16.4086 57.8923
16.4537 56.6256
16.4988 55.7218
16.5439 55.7057
16.589 55.3228
16.6341 55.3584
16.6792 54.8608
16.7243 55.2232
16.7694 55.2914
16.8145 55.067
16.8596 55.4524
16.9047 56.9888
16.9498 57.0904
16.9949 55.9062
17.04 56.2195
17.0851 57.7821
17.1302 59.3865
17.1754 62.5892
17.2205 67.3305
17.2656 74.9349
17.3108 82.5245
17.3559 81.715
17.401 71.3068
17.4462 62.1657
17.4913 59.4627
17.5365 59.4826
17.5815 59.6103
17.6268 60.0659
17.6718 60.6907
17.7171 61.2415
17.7622 61.9283
17.8074 62.5523
17.8525 65.1558
17.8977 69.5032
17.9428 75.0906
17.9881 84.0746
18.0331 101.094
18.0784 122.754
18.1237 141.228
18.1688 132.165
18.214 103.215
18.2591 86.9319
18.3044 91.4434
18.3495 101.054
18.3948 106.979
18.4399 96.3118
18.4852 77.5863
18.5303 66.2542
18.5756 62.6306
18.6207 61.604
18.666 60.7557
18.7112 60.043
18.7565 59.3817
18.8016 58.8248
18.8469 58.4404
18.892 58.0756
18.9374 57.5321
18.9825 57.4059
19.0278 57.3593
19.073 57.601
19.1183 58.0225
19.1635 58.788
19.2088 60.0666
19.254 62.7701
19.2993 67.3618
19.3447 73.1453
19.3898 76.7456
19.4352 72.187
19.4804 62.8744
19.5257 56.8221
19.5709 54.5147
19.6163 54.0657
19.6615 54.1213
19.7068 53.6728
19.752 53.5821
19.7974 54.069
19.8426 54.8029
19.888 55.6436
19.9332 56.7364
19.9786 59.2292
20.0238 63.0277
20.0692 67.8174
20.1144 70.4807
20.1598 68.4343
20.205 63.7957
20.2504 62.5577
20.2957 64.3419
20.3411 66.0621
20.3863 64.6151
20.4318 58.4189
20.477 53.842
20.5224 51.811
20.5677 51.1473
20.6131 50.4481
20.6586 50.1312
20.7038 49.8025
20.7493 49.4555
20.7945 49.3826
20.84 49.0831
20.8853 49.0952
20.9307 48.9816
20.976 49.0925
21.0215 48.8612
21.0668 49.3956
21.1122 49.7089
21.1575 50.5442
21.203 51.1862
21.2483 51.8459
21.2938 51.5976
21.3391 50.1569
21.3846 49.2872
21.4299 48.672
21.4754 48.8066
21.5207 48.8387
21.5662 49.0524
21.6116 49.5673
21.6571 50.3529
21.7024 51.4658
21.7479 53.2967
21.7933 55.9289
21.8388 59.4795
21.8843 63.0562
21.9297 65.0821
21.9752 63.5631
22.0206 59.81
22.0661 56.8611
22.1115 56.3754
22.157 56.2513
22.2024 54.5338
22.248 51.6793
22.2933 49.984
22.3389 49.3502
22.3843 49.3583
22.4299 49.2428
22.4753 49.1009
22.5208 48.819
22.5662 48.9049
22.6118 48.9517
22.6572 49.1499
22.7028 49.6955
22.7483 50.2054
22.7939 50.8052
22.8393 52.2968
22.8849 54.679
22.9303 56.6366
22.9759 58.3171
23.0214 57.6385
23.067 54.6124
23.1126 51.2622
23.1581 49.4573
23.2037 49.085
23.2492 49.2314
23.2948 49.1991
23.3403 49.6048
23.3859 50.1727
23.4314 51.3012
23.477 53.2244
23.5225 55.1959
23.5682 57.284
23.6137 58.3447
23.6593 55.8942
23.7048 51.7228
23.7505 48.1994
23.796 46.786
23.8417 46.2049
23.8872 45.8211
23.9329 45.5005
23.9784 45.0783
24.0241 44.8757
24.0697 44.6712
24.1154 44.3379
24.1609 44.2586
24.2066 44.1082
24.2522 43.9447
24.2979 43.8111
24.3434 43.5721
24.3892 43.437
24.4349 43.3204
24.4805 43.1758
24.5262 43.3762
24.5718 43.5343
24.6175 43.2689
24.6631 43.1177
24.7089 42.7739
24.7545 42.6823
24.8002 42.4656
24.8458 42.6386
24.8916 42.4198
24.9372 42.5579
24.983 42.8188
25.0286 43.2376
25.0744 43.6693
25.12 44.0589
25.1658 44.6547
25.2114 44.9801
25.2572 45.0223
25.3029 45.1023
25.3487 45.1656
25.3943 44.7793
25.4402 43.6487
25.4858 42.5602
25.5316 41.739
25.5773 41.2451
25.6231 41.2025
25.669 40.8173
25.7147 40.9577
25.7605 40.7346
25.8062 40.76
25.8521 40.9572
25.8977 40.8111
25.9436 41.0943
25.9893 41.2147
26.0352 41.7212
26.0809 41.9065
26.1268 42.0962
26.1725 41.609
26.2184 41.0641
26.2641 40.5665
26.31 40.4672
26.3557 40.4351
26.4017 40.3644
26.4474 40.7112
26.4933 41.0836
26.5391 41.3987
26.585 41.9529
26.6308 42.4793
26.6767 42.5127
26.7225 42.3038
26.7684 41.6965
26.8142 41.0501
26.8601 40.7238
26.9059 40.2441
26.9519 39.625
26.9979 39.4477
27.0437 39.1328
27.0896 38.9748
27.1354 39.011
27.1814 38.9053
27.2272 38.7216
27.2732 38.775
27.3191 38.6406
27.3651 38.8704
27.4109 38.626
27.4569 38.7875
27.5027 38.686
27.5488 38.8683
27.5946 38.5859
27.6407 38.4241
27.6865 38.442
27.7326 38.1214
27.7784 38.0701
27.8245 38.0857
27.8703 38.2111
27.9164 38.6051
27.9623 38.6361
28.0084 38.974
28.0543 39.2748
28.1003 39.2395
28.1462 39.0638
28.1923 38.6514
28.2384 38.2241
28.2843 37.8075
28.3304 37.3893
28.3764 36.9181
28.4225 36.5599
28.4684 36.5002
28.5145 36.1233
28.5605 36.0524
28.6066 35.9376
28.6526 35.6813
28.6987 35.8812
28.7447 35.6829
28.7908 35.6959
28.8368 35.7796
28.8829 35.7815
28.9289 35.6049
28.9751 35.3609
29.0211 35.1193
29.0673 34.8099
29.1133 34.7048
29.1595 34.689
29.2055 34.5271
29.2517 34.5165
29.2977 34.596
29.3439 34.5228
29.3899 34.3333
29.4361 34.3763
29.4824 34.1812
29.5284 33.909
29.5746 33.5959
29.6207 33.286
29.6669 33.2561
29.713 33.2152
29.7593 33.0992
29.8053 33.056
29.8516 32.9595
29.8977 32.9472
29.9439 32.6823
29.99 32.754
30.0363 32.6238
30.0824 32.7762
30.1287 32.6219
30.1748 32.5656
30.2211 32.615
30.2673 32.4831
30.3136 32.6206
30.3597 32.5608
30.406 32.4294
30.4522 32.3724
30.4985 32.2366
30.5447 32.4271
30.591 32.2685
30.6372 32.4494
30.6835 32.3261
30.7297 32.4039
30.7761 32.3633
30.8224 32.1374
30.8686 32.1307
30.915 31.7699
30.9612 31.7051
31.0076 31.5329
31.0538 31.2627
31.1002 31.3834
31.1464 31.1577
31.1928 31.1315
31.2391 31.1805
31.2855 31.147
31.3317 30.948
31.3781 31.0708
31.4244 31.1618
31.4708 30.9927
31.5171 31.0063
31.5636 30.9168
31.6098 30.6679
31.6563 30.5066
31.7026 30.4625
31.7491 30.3389
31.7953 30.3031
31.8418 30.3457
31.8881 30.3319
31.9346 30.2781
31.9809 30.1861
32.0275 30.0759
32.074 29.9524
32.1203 29.7689
32.1668 29.6613
32.2132 29.5816
32.2597 29.4182
32.306 29.2479
32.3526 29.2016
32.399 29.1275
32.4455 29.0098
32.4919 28.9024
32.5385 28.7997
32.5848 28.725
32.6314 28.6454
32.6778 28.6045
32.7244 28.4317
32.7708 28.2916
32.8174 28.3564
32.8638 28.2321
32.9104 28.3033
32.9569 28.1482
33.0035 27.9838
33.0499 27.9871
33.0966 27.9434
33.143 27.9403
33.1897 27.8699
33.2361 27.7438
33.2828 27.7227
33.3293 27.5984
33.3759 27.5331
33.4226 27.3928
33.4691 27.3113
33.5158 27.2425
33.5623 27.0549
33.609 26.9571
33.6555 26.8366
33.7022 26.791
33.7487 26.7126
33.7954 26.6542
33.842 26.5139
33.8887 26.5017
33.9353 26.4422
33.982 26.2722
34.0286 26.1545
34.0753 26.1292
34.1219 26.0724
34.1687 26.0247
34.2152 25.8919
34.262 25.8254
34.3086 25.6628
34.3554 25.6259
34.402 25.5036
34.4488 25.4323
34.4954 25.4812
34.5422 25.2046
34.5889 25.2755
34.6357 25.0839
34.6825 25.0689
34.7292 25.036
34.776 24.9059
34.8227 24.928
34.8695 24.8011
34.9162 24.7363
34.9631 24.605
35.0098 24.6476
35.0566 24.4338
35.1033 24.4275
35.1502 24.3756
35.1969 24.3452
35.2438 24.3502
35.2906 24.2336
35.3375 24.1883
35.3842 24.1521
35.4311 24.0926
35.4779 24.1135
35.5248 24.0336
35.5716 23.8881
35.6185 23.8974
35.6653 23.7365
35.7123 23.6948
35.759 23.6562
35.806 23.5184
35.8528 23.3844
35.8998 23.3203
35.9468 23.2489
35.9936 23.2274
36.0406 23.163
36.0874 23.1167
36.1345 23.0707
36.1813 22.9951
36.2283 22.8945
36.2752 22.7056
36.3222 22.8761
36.3691 22.7229
36.4161 22.6626
36.463 22.5262
36.5101 22.6118
36.557 22.556
36.6041 22.2234
36.651 22.3718
36.6981 22.2913
36.745 22.1931
36.7921 22.1498
36.839 21.9691
36.8861 21.907
36.9331 21.8593
36.9802 21.7792
37.0272 21.7176
37.0743 21.6542
37.1213 21.6257
37.1684 21.5349
37.2154 21.4226
37.2626 21.3359
37.3098 21.369
37.3568 21.3207
37.404 21.2824
37.451 21.1237
37.4982 21.0237
37.5452 20.9188
37.5924 20.9146
37.6395 20.9695
37.6867 20.8396
37.7337 20.6967
37.781 20.6807
37.8281 20.6591
37.8753 20.514
37.9224 20.4888
37.9697 20.3558
38.0168 20.3773
38.064 20.2273
38.1111 20.2086
38.1584 20.1841
38.2056 20.1222
38.2529 20.0214
38.3 19.9563
38.3473 19.9188
38.3945 19.7604
38.4418 19.7703
38.489 19.6585
38.5363 19.6256
38.5837 19.5712
38.6309 19.5284
38.6782 19.4528
38.7254 19.4067
38.7728 19.3655
38.82 19.2733
38.8674 19.2518
38.9146 19.2257
38.9621 19.0802
39.0093 19.0185
39.0567 18.9769
39.104 18.9218
39.1514 18.8165
39.1987 18.7947
39.2461 18.7324
39.2934 18.657
39.3409 18.5808
39.3882 18.4948
39.4356 18.5148
39.483 18.4095
39.5304 18.3623
39.5778 18.3392
39.6253 18.3347
39.6726 18.2295
39.7201 18.1814
39.7675 18.1265
39.815 18.0314
39.8624 18.0208
39.9099 17.9353
39.9575 17.806
40.0049 17.788
40.0525 17.755
40.0999 17.7154
40.1474 17.6704
40.1949 17.5734
40.2425 17.4508
40.2899 17.5142
40.3375 17.4259
40.385 17.4164
40.4326 17.2952
40.48 17.2173
40.5277 17.2174
40.5752 17.0995
40.6228 17.0991
40.6703 17.0137
40.718 17.0047
40.7655 16.9335
40.8132 16.836
40.8607 16.7995
40.9084 16.7853
40.9559 16.7207
41.0036 16.6831
41.0512 16.5909
41.0989 16.5551
41.1465 16.4745
41.1942 16.4428
41.242 16.3536
41.2896 16.3647
41.3373 16.24
41.3849 16.2363
41.4327 16.1409
41.4803 16.0577
41.5281 16.0319
41.5758 15.9581
41.6236 15.96
41.6712 15.8891
41.7191 15.8092
41.7667 15.7319
41.8146 15.7714
41.8622 15.6519
41.9101 15.6416
41.9578 15.5781
42.0057 15.5218
42.0534 15.4862
42.1013 15.3834
42.149 15.4068
42.1969 15.3253
42.2446 15.305
42.2925 15.2376
42.3403 15.2042
42.3882 15.1494
42.436 15.0713
42.4839 15.0759
42.5319 14.958
42.5797 14.898
42.6277 14.8668
42.6755 14.806
42.7235 14.8143
42.7713 14.7225
42.8193 14.6513
42.8671 14.6001
42.9152 14.5696
42.963 14.5148
43.0111 14.479
43.0589 14.4028
43.107 14.3626
43.1549 14.3167
43.2029 14.218
43.2508 14.2162
43.2989 14.1621
43.3468 14.1019
43.3949 14.0405
43.4429 14.0413
43.491 13.9136
43.5389 13.9688
43.5871 13.9154
43.635 13.8479
43.6832 13.7677
43.7312 13.7025
43.7793 13.6177
43.8273 13.6547
43.8755 13.5886
43.9237 13.5036
43.9717 13.484
44.0199 13.4422
44.068 13.4157
44.1162 13.3325
44.1642 13.3448
44.2125 13.2842
44.2606 13.2512
44.3088 13.1906
44.3569 13.1727
44.4052 13.0646
44.4533 13.0117
44.5016 13.0029
44.5497 12.9751
44.598 12.9103
44.6461 12.8746
44.6945 12.8488
44.7426 12.7639
44.791 12.7093
44.8391 12.6754
44.8875 12.6096
44.9357 12.5766
44.984 12.5341
45.0322 12.5324
45.0806 12.4547
45.1288 12.4274
45.1773 12.4001
45.2257 12.3209
45.2739 12.2729
45.3224 12.2848
45.3706 12.2397
45.4191 12.137
45.4673 12.1279
45.5158 12.1023
45.5641 12.0023
45.6126 11.9697
45.6609 11.9052
45.7094 11.8471
45.7577 11.8818
45.8063 11.7901
45.8546 11.7769
45.9031 11.7472
45.9515 11.6762
46.0001 11.6397
46.0484 11.5914
46.097 11.5719
46.1454 11.5424
46.194 11.5195
46.2424 11.4859
46.291 11.3847
46.3395 11.3613
46.3881 11.2683
46.4365 11.2853
46.4852 11.2876
46.5337 11.2096
46.5823 11.1693
46.631 11.1175
46.6795 11.0794
46.7282 11.0119
46.7767 11.0101
46.8254 10.9322
46.8739 10.904
46.9226 10.8338
46.9712 10.7959
47.0199 10.778
47.0685 10.6968
47.1173 10.711
47.1658 10.6391
47.2146 10.6037
47.2632 10.5865
47.312 10.5812
47.3606 10.5077
47.4095 10.4533
47.4581 10.4508
47.5069 10.382
47.5556 10.3192
47.6044 10.2816
47.6531 10.2622
47.702 10.2339
47.7507 10.2047
47.7996 10.1371
47.8483 10.0913
47.8972 10.0905
47.9461 10.0783
47.9948 9.97594
48.0438 9.96446
48.0925 9.94042
48.1415 9.90629
48.1902 9.86706
48.2392 9.82069
48.288 9.79752
48.337 9.76222
48.3858 9.69951
48.4348 9.73802
48.4837 9.68114
48.5327 9.59829
48.5815 9.55804
48.6306 9.60866
48.6795 9.54636
48.7285 9.48734
48.7774 9.45255
48.8265 9.42914
48.8754 9.35044
48.9245 9.37573
48.9734 9.29993
49.0226 9.28707
49.0715 9.25039
49.1206 9.21546
49.1696 9.15613
49.2188 9.1425
49.2679 9.09539
49.3169 9.05837
49.3661 9.02325
49.4151 8.99115
49.4643 8.96966
49.5134 8.93994
49.5626 8.83491
49.6117 8.86975
49.6609 8.82447
49.71 8.76331
49.7592 8.77011
49.8083 8.74168
49.8576 8.67851
49.9067 8.65402
49.956 8.64744
50.0052 8.5773
50.0545 8.58101
50.1036 8.50459
50.153 8.48239
50.2022 8.47893
50.2515 8.42977
50.3007 8.34396
50.3501 8.34204
50.3993 8.32971
50.4487 8.28026
50.498 8.2671
50.5474 8.21915
50.5966 8.18644
50.6461 8.17303
50.6955 8.16702
50.7448 8.10449
50.7943 8.06924
50.8436 8.05928
50.8931 8.00608
50.9424 7.99524
50.9919 7.95697
51.0413 7.95165
51.0908 7.8604
51.1402 7.85454
51.1897 7.83541
51.2391 7.79061
51.2887 7.73714
51.3381 7.71321
51.3877 7.70652
51.4371 7.64474
51.4867 7.6226
51.5362 7.57549
51.5858 7.59678
51.6353 7.47896
51.6849 7.52951
51.7344 7.47309
51.7841 7.45851
51.8336 7.41246
51.8833 7.37985
51.9328 7.32648
51.9826 7.30216
52.0323 7.28204
52.0818 7.22778
52.1316 7.24336
52.1812 7.2067
52.231 7.14983
52.2806 7.16542
52.3304 7.13254
52.38 7.09065
52.4298 7.0476
52.4794 7.03244
52.5293 6.94478
52.5789 6.95546
52.6288 6.93401
52.6785 6.88144
52.7284 6.85788
52.7781 6.85664
52.828 6.84483
52.8777 6.79825
52.9276 6.77612
52.9774 6.74806
53.0273 6.69286
53.0771 6.70873
53.1271 6.64024
53.1769 6.62116
53.2269 6.59912
53.2767 6.57887
53.3267 6.5433
53.3765 6.56148
53.4266 6.48483
53.4766 6.4563
53.5265 6.3957
53.5765 6.41917
53.6264 6.39016
53.6765 6.36363
53.7264 6.30293
53.7765 6.2597
53.8265 6.25632
53.8766 6.19243
53.9266 6.19259
53.9767 6.16325
54.0267 6.16567
54.0769 6.11115
54.1269 6.12748
54.1771 6.06976
54.2271 6.04117
54.2773 6.01945
54.3274 5.95224
54.3776 5.94311
54.4277 5.9229
54.478 5.86932
54.528 5.81361
54.5783 5.81456
54.6285 5.74194
54.6788 5.71298
54.7289 5.73009
54.7792 5.6593
54.8296 5.56366
54.8798 5.53737
54.9301 5.50849
54.9803 5.50515
55.0307 5.46875
55.0809 5.35588
55.1314 5.32979
55.1816 5.30241
55.232 5.28255
55.2823 5.21172
55.3328 5.18263
55.383 5.10045
55.4335 5.0805
55.4838 5.04958
55.5344 5.02627
55.5847 4.95213
55.6352 4.91333
55.6856 4.8818
55.7361 4.87852