File: XRD/Ni3Fe_FD0938.xy
TT I
1.27165 6.62148
1.31627 6.42244
1.36089 6.70077
1.40551 5.07463
1.45013 5.82458
1.49476 4.96774
1.53938 5.25424
1.584 5.32688
1.62863 4.71514
1.67325 4.92467
1.71787 5.05857
1.7625 4.96313
1.80712 5.13276
1.85174 4.58055
1.89636 4.7315
1.94099 4.5722
1.98562 4.44072
2.03025 4.35346
2.07487 4.0893
2.11949 4.60076
2.16411 4.58218
2.20874 7.83602
2.25338 9.64719
2.298 5.88038
2.34263 6.00235
2.38725 5.53339
2.43188 6.07758
2.4765 6.82843
2.52115 7.23777
2.56577 7.88686
2.6104 8.61662
2.65503 8.26888
2.69965 8.10694
2.7443 8.24723
2.78893 8.69083
2.83356 8.52036
2.87818 8.8596
2.92281 8.90348
2.96744 9.55046
3.01209 10.1782
3.05672 10.8266
3.10135 12.5322
3.14599 12.835
3.19062 14.3023
3.23527 15.5286
3.2799 15.5036
3.32454 16.6588
3.36917 17.0113
3.4138 18.6941
3.45844 19.3483
3.50309 20.643
3.54773 21.3371
3.59237 22.8032
3.637 42.9942
3.68164 33.5931
3.7263 25.0209
3.77094 25.5744
3.81558 26.6582
3.86022 27.0362
3.90486 28.2119
3.9495 29.1951
3.99416 29.8607
4.0388 31.3097
4.08344 32.9484
4.12809 33.9403
4.17273 35.1874
4.21738 37.8356
4.26204 101.405
4.30669 88.3612
4.35133 43.5385
4.39598 42.9502
4.44063 47.6158
4.4853 52.0395
4.52995 59.0555
4.5746 59.5199
4.61925 53.3378
4.6639 54.8398
4.70855 58.1791
4.75322 61.6296
4.79788 69.4816
4.84253 67.8666
4.88719 76.1776
4.93184 76.494
4.97652 79.953
5.02118 86.0648
5.06583 93.0347
5.11049 105.372
5.15515 154.034
5.19981 373.024
5.24449 2781.66
5.28916 13480.7
5.33382 2657.06
5.37848 196.593
5.42315 130.571
5.46783 120.507
5.5125 113.705
5.55716 101.284
5.60183 96.8536
5.6465 95.2097
5.69117 93.2253
5.73586 92.1352
5.78053 99.9024
5.8252 99.6195
5.86988 102.846
5.91455 94.0781
5.95924 102.693
6.00392 229.33
6.0486 913.019
6.09328 4695.51
6.13795 2964.84
6.18263 191.142
6.22733 87.7016
6.27201 78.4047
6.3167 80.6516
6.36138 72.3768
6.40606 69.8734
6.45075 69.833
6.49545 64.4691
6.54014 62.4501
6.58483 62.2035
6.62952 62.2319
6.67421 69.68
6.71892 82.0224
6.76361 60.5381
6.8083 59.5272
6.853 60.3264
6.89769 56.1569
6.94239 55.2296
6.98711 54.9521
7.03181 55.1552
7.07651 54.0244
7.12121 53.9959
7.16591 56.0204
7.21063 55.0485
7.25533 59.037
7.30004 88.2522
7.34475 63.9245
7.38945 54.0393
7.43416 53.0918
7.47889 53.0195
7.5236 53.57
7.56831 54.0638
7.61303 54.5067
7.65774 55.4219
7.70247 56.7232
7.74719 55.5828
7.79191 55.6911
7.83663 56.1237
7.88135 56.8048
7.92607 57.5182
7.97081 58.9034
8.01553 59.8657
8.06026 62.1286
8.10498 63.17
8.14971 70.654
8.19446 70.2757
8.23919 68.6097
8.28392 70.9107
8.32865 73.0645
8.37339 77.6165
8.41812 82.057
8.46288 99.3193
8.50761 171.478
8.55235 367.472
8.59709 1209.51
8.64183 2241.98
8.68658 825.125
8.73134 139.695
8.77609 95.3758
8.82083 91.4501
8.86558 92.1661
8.91033 92.1403
8.9551 88.8233
8.99985 84.4553
9.04461 83.1631
9.08936 83.5863
9.13412 82.2341
9.17888 81.2607
9.22365 81.0227
9.26841 81.0052
9.31318 84.7552
9.35794 86.9319
9.4027 85.814
9.44749 84.7848
9.49226 83.7633
9.53703 84.8159
9.5818 88.9834
9.62657 94.5585
9.67134 94.3892
9.71614 91.7406
9.76091 94.0113
9.80569 99.3115
9.85047 101.056
9.89525 109.158
9.94005 123.94
9.98484 184.908
10.0296 331.264
10.0744 835.81
10.1192 1846.28
10.164 1461.33
10.2088 321.781
10.2536 118.043
10.2984 107.143
10.3432 105.879
10.388 103.501
10.4328 119.46
10.4776 157.65
10.5224 291.897
10.5672 552.375
10.612 480.558
10.6568 175.511
10.7017 91.8964
10.7465 84.9442
10.7913 81.6512
10.8361 80.0477
10.8809 77.8257
10.9257 76.9639
10.9706 77.257
11.0154 74.7096
11.0602 72.0839
11.105 70.5256
11.1499 70.7665
11.1947 71.9515
11.2395 68.4928
11.2844 67.0132
11.3292 65.6859
11.374 65.2936
11.4189 64.5426
11.4637 63.7957
11.5086 63.6525
11.5534 63.8909
11.5983 62.9025
11.6431 62.4097
11.688 61.8695
11.7328 61.7803
11.7777 61.5256
11.8225 61.8655
11.8674 61.5102
11.9122 62.0091
11.9571 62.2416
12.002 63.5521
12.0468 67.8325
12.0917 77.1999
12.1366 102.492
12.1814 159.645
12.2263 209.51
12.2712 153.526
12.3161 84.9301
12.3609 65.4456
12.4058 62.8335
12.4507 63.0329
12.4956 63.793
12.5405 64.3236
12.5853 64.2743
12.6302 66.6705
12.6751 68.8447
12.72 66.6843
12.7649 66.5446
12.8098 67.6903
12.8547 69.0354
12.8996 70.733
12.9445 72.3221
12.9894 73.2262
13.0343 75.0212
13.0792 79.7594
13.1242 91.3187
13.1691 109.577
13.214 146.067
13.2589 247.392
13.3038 392.8
13.3487 417.865
13.3937 225.129
13.4386 114.094
13.4835 104.173
13.5285 117.951
13.5734 158.375
13.6183 259.679
13.6633 373.24
13.7082 322.46
13.7531 165.34
13.7981 91.67
13.843 80.4137
13.888 78.3811
13.9329 75.9589
13.9779 74.4509
14.0228 73.2859
14.0678 71.9853
14.1127 71.3452
14.1577 70.5917
14.2027 69.8804
14.2476 69.267
14.2926 68.8649
14.3376 69.1724
14.3825 68.6999
14.4275 67.6579
14.4725 67.9297
14.5175 67.9396
14.5624 67.8308
14.6074 68.4005
14.6524 69.2226
14.6974 69.5473
14.7424 72.6676
14.7874 78.139
14.8324 87.6711
14.8774 110.936
14.9224 160.249
14.9674 218.728
15.0124 211.291
15.0574 135.094
15.1024 83.6986
15.1474 70.4729
15.1924 69.0378
15.2374 68.3177
15.2824 67.0502
15.3274 66.2294
15.3725 65.7816
15.4175 65.3943
15.4625 64.7573
15.5076 64.7061
15.5526 64.8725
15.5976 64.9355
15.6426 67.0998
15.6877 71.4707
15.7327 78.6153
15.7778 93.9484
15.8228 128.972
15.8679 178.326
15.9129 195.488
15.958 144.058
16.003 86.6893
16.0481 64.7777
16.0931 61.9544
16.1382 60.0715
16.1833 59.0081
16.2283 57.7082
16.2734 57.106
16.3185 56.7839
16.3636 56.5068
16.4086 55.5739
16.4537 55.1177
16.4988 54.4132
16.5439 54.4147
16.589 54.2122
16.6341 54.0823
16.6792 53.3833
16.7243 53.6371
16.7694 53.5458
16.8145 53.6266
16.8596 53.8618
16.9047 54.4563
16.9498 54.5729
16.9949 54.4053
17.04 55.1318
17.0851 56.2836
17.1302 57.5793
17.1754 60.5149
17.2205 66.1245
17.2656 74.6632
17.3108 83.0157
17.3559 79.8815
17.401 67.4765
17.4462 60.2231
17.4913 58.2232
17.5365 58.1074
17.5815 58.1338
17.6268 58.5433
17.6718 59.1471
17.7171 59.5614
17.7622 60.2871
17.8074 61.5036
17.8525 64.0981
17.8977 67.2674
17.9428 72.4739
17.9881 82.1145
18.0331 101.431
18.0784 126.545
18.1237 140.602
18.1688 125.079
18.214 96.4254
18.2591 83.9261
18.3044 90.9515
18.3495 101.863
18.3948 105.401
18.4399 90.3609
18.4852 72.5109
18.5303 63.6498
18.5756 61.0888
18.6207 60.1467
18.666 59.2852
18.7112 58.561
18.7565 57.8708
18.8016 57.6654
18.8469 57.0722
18.892 56.8369
18.9374 56.3176
18.9825 55.8021
19.0278 55.6502
19.073 55.9152
19.1183 56.2576
19.1635 56.7968
19.2088 58.2248
19.254 61.2074
19.2993 66.4113
19.3447 72.1194
19.3898 74.7554
19.4352 69.0876
19.4804 60.1737
19.5257 54.8095
19.5709 53.3159
19.6163 52.861
19.6615 52.8382
19.7068 52.3104
19.752 52.5191
19.7974 52.7525
19.8426 53.3951
19.888 53.9269
19.9332 55.2523
19.9786 58.1695
20.0238 62.5757
20.0692 67.7927
20.1144 69.4218
20.1598 66.2835
20.205 61.6132
20.2504 61.4996
20.2957 64.254
20.3411 65.4379
20.3863 62.1992
20.4318 56.018
20.477 51.6661
20.5224 50.1708
20.5677 49.6095
20.6131 49.4021
20.6586 48.6473
20.7038 48.6456
20.7493 48.0504
20.7945 48.1891
20.84 47.9522
20.8853 47.9891
20.9307 47.7556
20.976 47.8417
21.0215 47.8148
21.0668 48.0621
21.1122 48.6182
21.1575 49.2993
21.203 50.483
21.2483 50.7188
21.2938 50.3805
21.3391 49.0341
21.3846 47.8826
21.4299 47.4872
21.4754 47.749
21.5207 47.8258
21.5662 48.0871
21.6116 48.4813
21.6571 48.9532
21.7024 49.9644
21.7479 51.9611
21.7933 55.155
21.8388 58.9651
21.8843 62.977
21.9297 64.1238
21.9752 61.2472
22.0206 57.332
22.0661 55.4526
22.1115 55.3969
22.157 55.051
22.2024 52.7503
22.248 50.0372
22.2933 48.654
22.3389 48.1559
22.3843 48.023
22.4299 47.6973
22.4753 47.7987
22.5208 47.6529
22.5662 47.8054
22.6118 47.9901
22.6572 48.219
22.7028 48.4037
22.7483 48.8429
22.7939 49.5328
22.8393 51.2859
22.8849 53.5122
22.9303 55.9038
22.9759 57.3116
23.0214 56.0373
23.067 52.4924
23.1126 49.5353
23.1581 48.2465
23.2037 47.8861
23.2492 48.048
23.2948 47.9798
23.3403 48.1777
23.3859 48.869
23.4314 49.9642
23.477 52.1003
23.5225 54.7312
23.5682 56.9623
23.6137 57.1379
23.6593 53.9193
23.7048 49.8206
23.7505 46.8571
23.796 45.6768
23.8417 45.242
23.8872 44.6313
23.9329 44.4103
23.9784 44.0484
24.0241 43.9075
24.0697 43.638
24.1154 43.3488
24.1609 43.1996
24.2066 43.0979
24.2522 42.9129
24.2979 42.6537
24.3434 42.6268
24.3892 42.3733
24.4349 42.3805
24.4805 42.262
24.5262 42.4471
24.5718 42.1791
24.6175 42.1966
24.6631 42.0976
24.7089 41.6523
24.7545 41.5788
24.8002 41.463
24.8458 41.5572
24.8916 41.3837
24.9372 41.5702
24.983 41.81
25.0286 42.0025
25.0744 42.7347
25.12 43.2559
25.1658 43.8278
25.2114 43.9484
25.2572 44.0108
25.3029 44.2993
25.3487 44.3263
25.3943 43.6811
25.4402 42.4875
25.4858 41.4213
25.5316 40.6936
25.5773 40.0391
25.6231 40.2467
25.669 39.7481
25.7147 39.7264
25.7605 39.6311
25.8062 39.6737
25.8521 39.7604
25.8977 39.7905
25.9436 40.1601
25.9893 40.3328
26.0352 41.0264
26.0809 40.9191
26.1268 41.0275
26.1725 40.4922
26.2184 40.0301
26.2641 39.5072
26.31 39.3268
26.3557 39.4199
26.4017 39.375
26.4474 39.7216
26.4933 40.0667
26.5391 40.5543
26.585 41.2051
26.6308 41.5801
26.6767 41.5159
26.7225 41.1155
26.7684 40.6563
26.8142 40.0583
26.8601 39.8044
26.9059 39.2837
26.9519 38.7697
26.9979 38.4561
27.0437 38.2545
27.0896 37.9579
27.1354 38.0375
27.1814 37.9192
27.2272 37.8003
27.2732 37.9139
27.3191 37.7869
27.3651 37.808
27.4109 37.8054
27.4569 37.8533
27.5027 37.9239
27.5488 38.0578
27.5946 37.8099
27.6407 37.4763
27.6865 37.3401
27.7326 37.1265
27.7784 37.2584
27.8245 37.0651
27.8703 37.4267
27.9164 37.6828
27.9623 37.8451
28.0084 38.1834
28.0543 38.634
28.1003 38.4484
28.1462 38.1568
28.1923 37.7606
28.2384 37.3189
28.2843 36.8066
28.3304 36.4835
28.3764 35.9664
28.4225 35.6605
28.4684 35.6476
28.5145 35.3738
28.5605 35.0664
28.6066 35.0299
28.6526 35.1359
28.6987 35.0908
28.7447 34.9704
28.7908 34.8758
28.8368 34.8122
28.8829 34.9065
28.9289 34.8001
28.9751 34.6312
29.0211 34.2391
29.0673 34.0658
29.1133 33.8099
29.1595 33.7208
29.2055 33.7752
29.2517 33.7596
29.2977 33.7858
29.3439 33.7092
29.3899 33.7136
29.4361 33.6669
29.4824 33.3687
29.5284 33.2039
29.5746 32.8741
29.6207 32.5442
29.6669 32.4896
29.713 32.3998
29.7593 32.2545
29.8053 32.2914
29.8516 32.2692
29.8977 32.2075
29.9439 32.0911
29.99 31.9872
30.0363 31.9201
30.0824 31.9652
30.1287 31.9094
30.1748 31.8328
30.2211 31.8813
30.2673 31.812
30.3136 31.8123
30.3597 31.7773
30.406 31.6573
30.4522 31.488
30.4985 31.4948
30.5447 31.6074
30.591 31.5384
30.6372 31.6446
30.6835 31.6077
30.7297 31.7368
30.7761 31.6425
30.8224 31.425
30.8686 31.1686
30.915 31.0572
30.9612 30.9895
31.0076 30.79
31.0538 30.6164
31.1002 30.6527
31.1464 30.3497
31.1928 30.462
31.2391 30.5316
31.2855 30.3476
31.3317 30.4047
31.3781 30.4844
31.4244 30.4195
31.4708 30.3751
31.5171 30.3
31.5636 30.1839
31.6098 30.0172
31.6563 29.7626
31.7026 29.8315
31.7491 29.5947
31.7953 29.6296
31.8418 29.6046
31.8881 29.549
31.9346 29.6381
31.9809 29.503
32.0275 29.361
32.074 29.3181
32.1203 29.0996
32.1668 29.0058
32.2132 28.8508
32.2597 28.7415
32.306 28.6417
32.3526 28.4907
32.399 28.4523
32.4455 28.3281
32.4919 28.2612
32.5385 28.1153
32.5848 28.0071
32.6314 27.9892
32.6778 27.8781
32.7244 27.8388
32.7708 27.7028
32.8174 27.6924
32.8638 27.574
32.9104 27.526
32.9569 27.5899
33.0035 27.388
33.0499 27.324
33.0966 27.3188
33.143 27.362
33.1897 27.1515
33.2361 27.1223
33.2828 27.1723
33.3293 26.8567
33.3759 26.8742
33.4226 26.7189
33.4691 26.649
33.5158 26.6248
33.5623 26.4363
33.609 26.232
33.6555 26.3346
33.7022 26.1955
33.7487 26.0594
33.7954 26.0436
33.842 25.9898
33.8887 25.9324
33.9353 25.8216
33.982 25.6541
34.0286 25.5996
34.0753 25.4649
34.1219 25.4691
34.1687 25.3527
34.2152 25.2972
34.262 25.2438
34.3086 25.1515
34.3554 25.1314
34.402 24.8889
34.4488 24.8671
34.4954 24.8164
34.5422 24.7016
34.5889 24.6707
34.6357 24.5646
34.6825 24.4845
34.7292 24.4006
34.776 24.3204
34.8227 24.3415
34.8695 24.1974
34.9162 24.1866
34.9631 24.0606
35.0098 24.0737
35.0566 23.8564
35.1033 23.8789
35.1502 23.795
35.1969 23.7082
35.2438 23.7102
35.2906 23.6323
35.3375 23.6159
35.3842 23.6447
35.4311 23.5335
35.4779 23.595
35.5248 23.4705
35.5716 23.3151
35.6185 23.2875
35.6653 23.2246
35.7123 23.1227
35.759 23.0425
35.806 22.951
35.8528 22.9056
35.8998 22.8242
35.9468 22.7692
35.9936 22.6968
36.0406 22.6365
36.0874 22.6449
36.1345 22.5063
36.1813 22.4514
36.2283 22.2852
36.2752 22.2518
36.3222 22.2765
36.3691 22.2212
36.4161 22.1041
36.463 22.1566
36.5101 22.0574
36.557 21.956
36.6041 21.8204
36.651 21.8279
36.6981 21.7787
36.745 21.7319
36.7921 21.5582
36.839 21.468
36.8861 21.481
36.9331 21.4016
36.9802 21.3191
37.0272 21.251
37.0743 21.1692
37.1213 21.0926
37.1684 21.0665
37.2154 21.0732
37.2626 20.8722
37.3098 20.8091
37.3568 20.7214
37.404 20.7748
37.451 20.6389
37.4982 20.5756
37.5452 20.5346
37.5924 20.4162
37.6395 20.4655
37.6867 20.3668
37.7337 20.1895
37.781 20.1248
37.8281 20.155
37.8753 19.9526
37.9224 20.0239
37.9697 19.8871
38.0168 19.8995
38.064 19.8337
38.1111 19.7041
38.1584 19.6367
38.2056 19.5794
38.2529 19.5541
38.3 19.465
38.3473 19.4756
38.3945 19.4006
38.4418 19.344
38.489 19.2904
38.5363 19.2375
38.5837 19.0873
38.6309 19.0656
38.6782 19.0162
38.7254 18.9439
38.7728 18.9271
38.82 18.7797
38.8674 18.795
38.9146 18.7042
38.9621 18.6118
39.0093 18.6166
39.0567 18.5995
39.104 18.4448
39.1514 18.3872
39.1987 18.3728
39.2461 18.3336
39.2934 18.2676
39.3409 18.1499
39.3882 18.0478
39.4356 18.0237
39.483 17.968
39.5304 17.9284
39.5778 17.8795
39.6253 17.823
39.6726 17.7591
39.7201 17.711
39.7675 17.6779
39.815 17.604
39.8624 17.4886
39.9099 17.5032
39.9575 17.4475
40.0049 17.3712
40.0525 17.3529
40.0999 17.3066
40.1474 17.2154
40.1949 17.1742
40.2425 17.1072
40.2899 17.0374
40.3375 17.0114
40.385 16.9655
40.4326 16.8576
40.48 16.7612
40.5277 16.8563
40.5752 16.7351
40.6228 16.6691
40.6703 16.7069
40.718 16.5545
40.7655 16.5837
40.8132 16.457
40.8607 16.3854
40.9084 16.4241
40.9559 16.2788
41.0036 16.2183
41.0512 16.173
41.0989 16.1768
41.1465 16.0889
41.1942 16.0975
41.242 15.9768
41.2896 15.878
41.3373 15.9139
41.3849 15.8271
41.4327 15.7882
41.4803 15.7832
41.5281 15.687
41.5758 15.6162
41.6236 15.5485
41.6712 15.5107
41.7191 15.4787
41.7667 15.3824
41.8146 15.406
41.8622 15.2712
41.9101 15.2402
41.9578 15.1506
42.0057 15.1984
42.0534 15.1194
42.1013 15.1095
42.149 14.9967
42.1969 14.9883
42.2446 14.8872
42.2925 14.8315
42.3403 14.8134
42.3882 14.8331
42.436 14.6998
42.4839 14.6494
42.5319 14.6297
42.5797 14.5932
42.6277 14.5325
42.6755 14.4812
42.7235 14.4032
42.7713 14.3739
42.8193 14.3242
42.8671 14.2783
42.9152 14.2058
42.963 14.1825
43.0111 14.0828
43.0589 14.0501
43.107 14.0068
43.1549 14.0119
43.2029 13.8986
43.2508 13.8748
43.2989 13.8224
43.3468 13.7951
43.3949 13.7567
43.4429 13.6429
43.491 13.5939
43.5389 13.5829
43.5871 13.5077
43.635 13.453
43.6832 13.395
43.7312 13.398
43.7793 13.3397
43.8273 13.2763
43.8755 13.2317
43.9237 13.2064
43.9717 13.1651
44.0199 13.17
44.068 13.1323
44.1162 13.0063
44.1642 13.0092
44.2125 12.9827
44.2606 12.9348
44.3088 12.8269
44.3569 12.8269
44.4052 12.7647
44.4533 12.7201
44.5016 12.6991
44.5497 12.6409
44.598 12.5636
44.6461 12.526
44.6945 12.4791
44.7426 12.442
44.791 12.4146
44.8391 12.3898
44.8875 12.3246
44.9357 12.3153
44.984 12.2331
45.0322 12.2274
45.0806 12.1193
45.1288 12.097
45.1773 12.1299
45.2257 12.0598
45.2739 12.0014
45.3224 11.9436
45.3706 11.9162
45.4191 11.8689
45.4673 11.8201
45.5158 11.7766
45.5641 11.7461
45.6126 11.6741
45.6609 11.6355
45.7094 11.5951
45.7577 11.5394
45.8063 11.4891
45.8546 11.5093
45.9031 11.4251
45.9515 11.3948
46.0001 11.3741
46.0484 11.3105
46.097 11.2705
46.1454 11.2449
46.194 11.2181
46.2424 11.1665
46.291 11.1436
46.3395 11.1407
46.3881 11.024
46.4365 10.9801
46.4852 10.9791
46.5337 10.9127
46.5823 10.8579
46.631 10.7703
46.6795 10.7899
46.7282 10.7847
46.7767 10.7348
46.8254 10.7123
46.8739 10.6358
46.9226 10.6452
46.9712 10.5263
47.0199 10.5245
47.0685 10.5113
47.1173 10.4498
47.1658 10.4025
47.2146 10.3574
47.2632 10.3313
47.312 10.3066
47.3606 10.2215
47.4095 10.1679
47.4581 10.189
47.5069 10.1502
47.5556 10.0683
47.6044 10.052
47.6531 10.0277
47.702 9.96082
47.7507 9.91687
47.7996 9.91593
47.8483 9.88816
47.8972 9.84278
47.9461 9.8368
47.9948 9.75264
48.0438 9.7328
48.0925 9.70972
48.1415 9.66693
48.1902 9.61888
48.2392 9.56721
48.288 9.57467
48.337 9.52276
48.3858 9.50712
48.4348 9.48199
48.4837 9.44478
48.5327 9.38113
48.5815 9.32383
48.6306 9.34773
48.6795 9.30922
48.7285 9.26836
48.7774 9.21485
48.8265 9.20522
48.8754 9.16744
48.9245 9.16372
48.9734 9.08398
49.0226 9.0575
49.0715 8.9763
49.1206 8.96442
49.1696 8.9293
49.2188 8.93444
49.2679 8.90939
49.3169 8.86722
49.3661 8.76346
49.4151 8.79282
49.4643 8.72762
49.5134 8.6883
49.5626 8.6731
49.6117 8.63321
49.6609 8.58881
49.71 8.54194
49.7592 8.51486
49.8083 8.47557
49.8576 8.4816
49.9067 8.41314
49.956 8.40118
50.0052 8.36756
50.0545 8.32956
50.1036 8.31575
50.153 8.28595
50.2022 8.22088
50.2515 8.19929
50.3007 8.18288
50.3501 8.12689
50.3993 8.14908
50.4487 8.0787
50.498 8.05369
50.5474 8.04611
50.5966 7.99341
50.6461 7.96064
50.6955 7.94082
50.7448 7.91705
50.7943 7.87223
50.8436 7.80865
50.8931 7.7986
50.9424 7.77029
50.9919 7.75214
51.0413 7.73515
51.0908 7.70975
51.1402 7.67538
51.1897 7.63216
51.2391 7.63276
51.2887 7.55039
51.3381 7.53921
51.3877 7.48905
51.4371 7.46618
51.4867 7.41315
51.5362 7.40856
51.5858 7.41965
51.6353 7.365
51.6849 7.29963
51.7344 7.28885
51.7841 7.26853
51.8336 7.22813
51.8833 7.18212
51.9328 7.17052
51.9826 7.12301
52.0323 7.11823
52.0818 7.12353
52.1316 7.04107
52.1812 6.99969
52.231 6.99169
52.2806 6.95921
52.3304 6.95996
52.38 6.92079
52.4298 6.87315
52.4794 6.85802
52.5293 6.8358
52.5789 6.8062
52.6288 6.76019
52.6785 6.71814
52.7284 6.73379
52.7781 6.70221
52.828 6.64983
52.8777 6.61789
52.9276 6.63399
52.9774 6.60395
53.0273 6.57645
53.0771 6.53723
53.1271 6.53349
53.1769 6.44998
53.2269 6.45801
53.2767 6.44993
53.3267 6.38022
53.3765 6.36605
53.4266 6.31757
53.4766 6.31522
53.5265 6.22792
53.5765 6.22167
53.6264 6.23556
53.6765 6.21912
53.7264 6.19102
53.7765 6.11359
53.8265 6.13712
53.8766 6.09672
53.9266 6.07033
53.9767 6.08382
54.0267 6.05349
54.0769 5.98626
54.1269 5.96237
54.1771 5.91522
54.2271 5.89696
54.2773 5.87685
54.3274 5.84251
54.3776 5.82415
54.4277 5.75065
54.478 5.75556
54.528 5.6713
54.5783 5.68787
54.6285 5.63268
54.6788 5.5726
54.7289 5.54549
54.7792 5.51434
54.8296 5.41592
54.8798 5.39183
54.9301 5.4009
54.9803 5.38992
55.0307 5.28002
55.0809 5.31621
55.1314 5.29019
55.1816 5.20643
55.232 5.13211
55.2823 5.12158
55.3328 5.03909
55.383 5.0004
55.4335 4.95322
55.4838 4.90552
55.5344 4.83904
55.5847 4.84528
55.6352 4.82847
55.6856 4.79628
55.7361 4.76969