File: XRD/Ni3Fe_FD0315.xy
TT I
1.27165 7.44866
1.31627 7.15867
1.36089 6.90601
1.40551 6.04239
1.45013 6.60794
1.49476 6.58387
1.53938 5.79536
1.584 5.62525
1.62863 5.30643
1.67325 4.89048
1.71787 5.3943
1.7625 5.37599
1.80712 4.88327
1.85174 4.73278
1.89636 5.04703
1.94099 5.35009
1.98562 4.50685
2.03025 4.52362
2.07487 4.51863
2.11949 5.00884
2.16411 4.77425
2.20874 16.3241
2.25338 25.5771
2.298 5.65481
2.34263 4.37087
2.38725 5.12103
2.43188 5.10139
2.4765 5.29949
2.52115 5.85453
2.56577 6.13056
2.6104 6.31005
2.65503 6.19467
2.69965 7.22504
2.7443 7.25662
2.78893 7.71049
2.83356 8.15981
2.87818 8.4367
2.92281 8.52574
2.96744 8.66868
3.01209 10.562
3.05672 11.2133
3.10135 12.9042
3.14599 13.1163
3.19062 13.2347
3.23527 15.0471
3.2799 15.8568
3.32454 16.8434
3.36917 17.6538
3.4138 19.0525
3.45844 19.6586
3.50309 21.4759
3.54773 22.388
3.59237 25.1758
3.637 103.972
3.68164 64.7353
3.7263 26.9381
3.77094 26.5493
3.81558 27.3101
3.86022 28.237
3.90486 29.35
3.9495 30.3321
3.99416 31.6471
4.0388 32.9101
4.08344 34.0509
4.12809 35.51
4.17273 38.2506
4.21738 44.445
4.26204 287.658
4.30669 248.722
4.35133 50.6442
4.39598 45.6693
4.44063 56.5014
4.4853 69.4757
4.52995 52.8138
4.5746 52.9493
4.61925 54.6544
4.6639 57.093
4.70855 59.7856
4.75322 62.8354
4.79788 65.8318
4.84253 69.16
4.88719 73.9612
4.93184 77.3981
4.97652 83.5613
5.02118 91.0209
5.06583 100.135
5.11049 114.318
5.15515 203.187
5.19981 500.472
5.24449 3183.73
5.28916 11350.3
5.33382 3865.88
5.37848 235.154
5.42315 141.36
5.46783 121.053
5.5125 111.083
5.55716 106.015
5.60183 102.555
5.6465 100.802
5.69117 97.885
5.73586 95.943
5.78053 96.3847
5.8252 96.1862
5.86988 97.1825
5.91455 100.61
5.95924 112.313
6.00392 261.051
6.0486 1097.26
6.09328 3943.94
6.13795 3606.6
6.18263 313.411
6.22733 102.676
6.27201 88.204
6.3167 110.572
6.36138 84.7175
6.40606 71.7261
6.45075 69.8605
6.49545 67.9134
6.54014 65.9933
6.58483 65.0805
6.62952 65.0597
6.67421 100.527
6.71892 161.739
6.76361 71.9127
6.8083 60.8937
6.853 59.3074
6.89769 58.6062
6.94239 58.2009
6.98711 57.9648
7.03181 57.4197
7.07651 57.0966
7.12121 56.8312
7.16591 57.1157
7.21063 57.4693
7.25533 74.5621
7.30004 204.793
7.34475 101.082
7.38945 58.4177
7.43416 56.1314
7.47889 55.9397
7.5236 56.5686
7.56831 57.0673
7.61303 59.1778
7.65774 59.7749
7.70247 58.1578
7.74719 57.6275
7.79191 58.4692
7.83663 58.7594
7.88135 59.9178
7.92607 60.4249
7.97081 61.5106
8.01553 62.6181
8.06026 64.088
8.10498 65.8973
8.14971 77.0404
8.19446 75.6503
8.23919 71.3669
8.28392 73.5835
8.32865 76.6726
8.37339 81.154
8.41812 88.9389
8.46288 124.136
8.50761 191.209
8.55235 437.413
8.59709 1083.6
8.64183 2117.04
8.68658 1149.58
8.73134 195.879
8.77609 105.43
8.82083 96.5425
8.86558 92.9175
8.91033 93.132
8.9551 95.4537
8.99985 88.2063
9.04461 86.1007
9.08936 85.0251
9.13412 84.3232
9.17888 84.6687
9.22365 85.1212
9.26841 84.4473
9.31318 85.4082
9.35794 85.4722
9.4027 85.5128
9.44749 86.5281
9.49226 87.0754
9.53703 87.7549
9.5818 90.2156
9.62657 95.1582
9.67134 102.974
9.71614 96.6761
9.76091 97.0497
9.80569 99.7929
9.85047 103.106
9.89525 131.804
9.94005 147.864
9.98484 200.071
10.0296 384.731
10.0744 773.181
10.1192 1598.39
10.164 1768.18
10.2088 514.683
10.2536 142.163
10.2984 119.593
10.3432 120.961
10.388 109.396
10.4328 127.0
10.4776 172.714
10.5224 271.892
10.5672 476.464
10.612 534.823
10.6568 231.827
10.7017 101.97
10.7465 89.4816
10.7913 85.8357
10.8361 83.4884
10.8809 81.3722
10.9257 81.3733
10.9706 81.8445
11.0154 77.4736
11.0602 75.0354
11.105 73.8787
11.1499 79.0261
11.1947 88.3401
11.2395 77.794
11.2844 73.0776
11.3292 69.5125
11.374 68.3451
11.4189 67.6141
11.4637 66.7696
11.5086 67.6844
11.5534 71.1757
11.5983 67.901
11.6431 65.6497
11.688 64.7926
11.7328 64.8742
11.7777 64.9496
11.8225 64.664
11.8674 64.466
11.9122 65.0429
11.9571 64.8165
12.002 65.708
12.0468 71.0735
12.0917 83.9118
12.1366 104.435
12.1814 144.65
12.2263 205.952
12.2712 184.997
12.3161 105.995
12.3609 74.3888
12.4058 66.9474
12.4507 66.5496
12.4956 66.5845
12.5405 66.7138
12.5853 67.7744
12.6302 76.7587
12.6751 83.4277
12.72 73.0951
12.7649 70.0427
12.8098 70.4444
12.8547 71.7919
12.8996 73.2594
12.9445 74.5999
12.9894 76.2307
13.0343 78.0045
13.0792 81.3446
13.1242 92.9104
13.1691 120.757
13.214 155.671
13.2589 226.812
13.3038 346.389
13.3487 439.791
13.3937 299.382
13.4386 137.872
13.4835 112.99
13.5285 129.053
13.5734 161.193
13.6183 229.595
13.6633 328.733
13.7082 356.581
13.7531 213.474
13.7981 105.698
13.843 85.0947
13.888 82.2853
13.9329 79.6792
13.9779 77.8972
14.0228 76.4492
14.0678 75.1797
14.1127 74.9102
14.1577 75.1032
14.2027 73.6228
14.2476 72.7949
14.2926 73.0793
14.3376 74.3348
14.3825 72.5075
14.4275 70.7286
14.4725 70.5663
14.5175 70.902
14.5624 70.9734
14.6074 73.6421
14.6524 74.3793
14.6974 72.8115
14.7424 74.5112
14.7874 83.0374
14.8324 93.977
14.8774 112.312
14.9224 146.636
14.9674 196.587
15.0124 226.45
15.0574 162.624
15.1024 97.4478
15.1474 75.3672
15.1924 73.0335
15.2374 73.6636
15.2824 72.851
15.3274 70.7614
15.3725 68.9987
15.4175 68.451
15.4625 67.9674
15.5076 68.4059
15.5526 68.3808
15.5976 68.0045
15.6426 68.9972
15.6877 75.8073
15.7327 84.3859
15.7778 96.9971
15.8228 121.951
15.8679 160.809
15.9129 197.32
15.958 172.66
16.003 107.342
16.0481 71.5372
16.0931 67.4011
16.1382 65.4337
16.1833 62.899
16.2283 60.7493
16.2734 60.2143
16.3185 60.8379
16.3636 61.6931
16.4086 60.0241
16.4537 58.2186
16.4988 57.2103
16.5439 57.3893
16.589 56.9133
16.6341 56.7862
16.6792 56.2415
16.7243 56.7932
16.7694 56.9344
16.8145 56.747
16.8596 57.0721
16.9047 58.7718
16.9498 59.1255
16.9949 57.6662
17.04 57.8753
17.0851 59.0748
17.1302 61.0701
17.1754 63.8125
17.2205 67.9658
17.2656 73.8437
17.3108 82.6543
17.3559 84.7946
17.401 75.0359
17.4462 64.8568
17.4913 61.166
17.5365 60.9542
17.5815 61.3848
17.6268 61.5752
17.6718 62.3796
17.7171 62.7654
17.7622 63.2644
17.8074 63.919
17.8525 66.568
17.8977 71.5478
17.9428 77.1823
17.9881 84.2564
18.0331 98.2524
18.0784 117.343
18.1237 140.418
18.1688 140.24
18.214 112.706
18.2591 90.6028
18.3044 90.3159
18.3495 98.9944
18.3948 108.315
18.4399 102.068
18.4852 82.0696
18.5303 68.6538
18.5756 64.2163
18.6207 63.4949
18.666 62.3973
18.7112 61.6781
18.7565 61.0352
18.8016 60.4122
18.8469 59.9378
18.892 59.5362
18.9374 59.1875
18.9825 58.8241
19.0278 58.8342
19.073 58.707
19.1183 59.5342
19.1635 60.5921
19.2088 61.8843
19.254 63.5902
19.2993 66.8287
19.3447 72.7077
19.3898 78.3392
19.4352 76.2451
19.4804 67.1035
19.5257 59.2192
19.5709 56.0893
19.6163 55.6757
19.6615 55.4936
19.7068 54.9412
19.752 55.1157
19.7974 55.4665
19.8426 56.4542
19.888 57.1037
19.9332 58.0743
19.9786 60.2882
20.0238 62.9438
20.0692 67.7402
20.1144 71.6346
20.1598 71.2744
20.205 66.1932
20.2504 63.62
20.2957 64.4216
20.3411 67.1006
20.3863 66.8322
20.4318 61.3015
20.477 56.0813
20.5224 53.4847
20.5677 52.848
20.6131 52.0792
20.6586 51.3793
20.7038 51.2532
20.7493 50.8225
20.7945 50.6899
20.84 50.317
20.8853 50.2954
20.9307 50.2083
20.976 50.4111
21.0215 50.3292
21.0668 50.6535
21.1122 50.9591
21.1575 51.4996
21.203 52.2181
21.2483 53.1156
21.2938 53.5395
21.3391 52.1424
21.3846 50.6823
21.4299 50.0528
21.4754 49.936
21.5207 50.0594
21.5662 50.5073
21.6116 50.9802
21.6571 51.8236
21.7024 52.7278
21.7479 54.1665
21.7933 56.3285
21.8388 59.5803
21.8843 63.2819
21.9297 66.5279
21.9752 66.3309
22.0206 62.3928
22.0661 58.2417
22.1115 57.4499
22.157 57.8018
22.2024 56.4267
22.248 53.5004
22.2933 51.7356
22.3389 50.8062
22.3843 50.692
22.4299 50.7649
22.4753 50.5833
22.5208 50.3093
22.5662 50.0277
22.6118 50.2
22.6572 50.6687
22.7028 51.0688
22.7483 51.4673
22.7939 51.9935
22.8393 53.3808
22.8849 54.9482
22.9303 56.9889
22.9759 59.1001
23.0214 59.6567
23.067 57.0943
23.1126 53.1782
23.1581 51.0216
23.2037 50.3345
23.2492 50.6611
23.2948 50.5779
23.3403 50.8755
23.3859 51.4997
23.4314 52.0087
23.477 53.598
23.5225 55.4681
23.5682 57.6134
23.6137 59.5336
23.6593 58.2035
23.7048 54.2225
23.7505 50.368
23.796 48.4815
23.8417 47.6239
23.8872 46.9863
23.9329 46.7317
23.9784 46.5602
24.0241 46.0435
24.0697 46.0309
24.1154 45.5033
24.1609 45.3595
24.2066 45.2595
24.2522 45.1979
24.2979 44.8458
24.3434 44.6532
24.3892 44.5522
24.4349 44.4824
24.4805 44.3635
24.5262 44.4394
24.5718 44.3029
24.6175 44.3175
24.6631 44.3266
24.7089 44.0567
24.7545 43.8699
24.8002 43.6775
24.8458 43.6792
24.8916 43.4682
24.9372 43.6389
24.983 44.0288
25.0286 44.3027
25.0744 44.5569
25.12 44.9801
25.1658 45.6543
25.2114 45.9273
25.2572 46.0972
25.3029 46.0128
25.3487 46.2824
25.3943 46.1289
25.4402 45.2642
25.4858 44.1329
25.5316 43.0644
25.5773 42.3252
25.6231 42.3213
25.669 41.806
25.7147 41.7954
25.7605 41.9356
25.8062 41.8458
25.8521 42.1073
25.8977 41.9967
25.9436 42.0247
25.9893 42.2038
26.0352 42.5664
26.0809 42.8058
26.1268 43.0336
26.1725 42.9389
26.2184 42.1902
26.2641 41.6757
26.31 41.3537
26.3557 41.5303
26.4017 41.5782
26.4474 41.7674
26.4933 41.9776
26.5391 42.4695
26.585 42.7199
26.6308 43.2018
26.6767 43.4962
26.7225 43.464
26.7684 42.8502
26.8142 42.2178
26.8601 41.7396
26.9059 41.3676
26.9519 40.8782
26.9979 40.5188
27.0437 40.2305
27.0896 40.0343
27.1354 39.9659
27.1814 39.6565
27.2272 39.8678
27.2732 39.8487
27.3191 39.4872
27.3651 39.7004
27.4109 39.7513
27.4569 39.6529
27.5027 39.7031
27.5488 39.8306
27.5946 39.5647
27.6407 39.4184
27.6865 39.2736
27.7326 39.0792
27.7784 39.119
27.8245 38.9259
27.8703 39.1905
27.9164 39.3864
27.9623 39.4721
28.0084 39.8141
28.0543 40.1846
28.1003 40.2354
28.1462 40.0873
28.1923 39.6546
28.2384 39.2588
28.2843 38.9275
28.3304 38.4388
28.3764 37.9832
28.4225 37.6649
28.4684 37.4748
28.5145 37.0424
28.5605 36.9698
28.6066 36.799
28.6526 36.778
28.6987 36.7271
28.7447 36.5852
28.7908 36.4446
28.8368 36.5742
28.8829 36.5921
28.9289 36.4824
28.9751 36.2174
29.0211 36.108
29.0673 35.8386
29.1133 35.8003
29.1595 35.5266
29.2055 35.4517
29.2517 35.3485
29.2977 35.3679
29.3439 35.3137
29.3899 35.3086
29.4361 35.2622
29.4824 35.1139
29.5284 34.882
29.5746 34.5652
29.6207 34.2402
29.6669 34.1989
29.713 34.1467
29.7593 33.801
29.8053 34.084
29.8516 33.8691
29.8977 33.7888
29.9439 33.6495
29.99 33.6975
30.0363 33.4157
30.0824 33.4743
30.1287 33.4313
30.1748 33.5048
30.2211 33.4402
30.2673 33.2821
30.3136 33.4045
30.3597 33.3089
30.406 33.1939
30.4522 33.0811
30.4985 33.0728
30.5447 33.0952
30.591 33.087
30.6372 33.1496
30.6835 33.1468
30.7297 33.2154
30.7761 33.2224
30.8224 33.0427
30.8686 32.9741
30.915 32.5345
30.9612 32.6027
31.0076 32.3225
31.0538 32.1429
31.1002 32.0473
31.1464 31.9721
31.1928 31.9843
31.2391 31.9815
31.2855 31.8463
31.3317 31.8309
31.3781 31.9952
31.4244 31.845
31.4708 31.7405
31.5171 31.858
31.5636 31.7747
31.6098 31.4658
31.6563 31.3604
31.7026 31.2287
31.7491 31.0878
31.7953 31.0549
31.8418 31.0361
31.8881 31.1225
31.9346 31.081
31.9809 30.9059
32.0275 30.8537
32.074 30.7321
32.1203 30.6679
32.1668 30.5331
32.2132 30.321
32.2597 30.2688
32.306 30.0972
32.3526 29.9977
32.399 29.8555
32.4455 29.7357
32.4919 29.5683
32.5385 29.6022
32.5848 29.3968
32.6314 29.4529
32.6778 29.3189
32.7244 29.1745
32.7708 29.0379
32.8174 29.0836
32.8638 28.8651
32.9104 29.039
32.9569 28.9002
33.0035 28.672
33.0499 28.757
33.0966 28.6256
33.143 28.6766
33.1897 28.5714
33.2361 28.5313
33.2828 28.4461
33.3293 28.2727
33.3759 28.2431
33.4226 28.0193
33.4691 27.9764
33.5158 27.9255
33.5623 27.7725
33.609 27.5888
33.6555 27.4811
33.7022 27.4815
33.7487 27.398
33.7954 27.3231
33.842 27.2599
33.8887 27.1792
33.9353 27.1305
33.982 27.0295
34.0286 26.8818
34.0753 26.8313
34.1219 26.8188
34.1687 26.7266
34.2152 26.6622
34.262 26.486
34.3086 26.3271
34.3554 26.3539
34.402 26.1969
34.4488 26.1245
34.4954 26.1879
34.5422 26.0035
34.5889 25.8104
34.6357 25.7805
34.6825 25.7688
34.7292 25.6582
34.776 25.5177
34.8227 25.4429
34.8695 25.419
34.9162 25.4476
34.9631 25.2154
35.0098 25.2569
35.0566 25.1222
35.1033 25.0676
35.1502 25.0013
35.1969 25.0139
35.2438 24.9192
35.2906 24.8404
35.3375 24.821
35.3842 24.7829
35.4311 24.8196
35.4779 24.6981
35.5248 24.6515
35.5716 24.4993
35.6185 24.4568
35.6653 24.3363
35.7123 24.3207
35.759 24.1854
35.806 24.0854
35.8528 24.0499
35.8998 23.9265
35.9468 23.7993
35.9936 23.8196
36.0406 23.773
36.0874 23.6988
36.1345 23.61
36.1813 23.5199
36.2283 23.499
36.2752 23.3861
36.3222 23.3588
36.3691 23.2969
36.4161 23.1712
36.463 23.1772
36.5101 23.0914
36.557 23.0431
36.6041 22.9307
36.651 22.8647
36.6981 22.8247
36.745 22.7467
36.7921 22.7452
36.839 22.6136
36.8861 22.4977
36.9331 22.4465
36.9802 22.3048
37.0272 22.2489
37.0743 22.1663
37.1213 22.1872
37.1684 22.059
37.2154 22.0092
37.2626 22.0137
37.3098 21.8639
37.3568 21.8568
37.404 21.8175
37.451 21.694
37.4982 21.598
37.5452 21.544
37.5924 21.4976
37.6395 21.5028
37.6867 21.3565
37.7337 21.2512
37.781 21.2689
37.8281 21.1673
37.8753 21.0567
37.9224 20.9752
37.9697 20.9552
38.0168 20.9017
38.064 20.7405
38.1111 20.815
38.1584 20.6675
38.2056 20.6338
38.2529 20.5521
38.3 20.4586
38.3473 20.4505
38.3945 20.3377
38.4418 20.2851
38.489 20.2205
38.5363 20.1221
38.5837 20.0996
38.6309 20.0726
38.6782 19.9635
38.7254 19.9407
38.7728 19.8536
38.82 19.7627
38.8674 19.7218
38.9146 19.6552
38.9621 19.5791
39.0093 19.5096
39.0567 19.4633
39.104 19.2881
39.1514 19.3267
39.1987 19.293
39.2461 19.2579
39.2934 19.1623
39.3409 19.0492
39.3882 18.9987
39.4356 18.9424
39.483 18.9329
39.5304 18.8911
39.5778 18.8027
39.6253 18.6949
39.6726 18.7119
39.7201 18.7169
39.7675 18.5362
39.815 18.5227
39.8624 18.4708
39.9099 18.4222
39.9575 18.3648
40.0049 18.3168
40.0525 18.1768
40.0999 18.1659
40.1474 18.102
40.1949 18.0334
40.2425 17.9915
40.2899 17.9268
40.3375 17.8788
40.385 17.8393
40.4326 17.7518
40.48 17.655
40.5277 17.6182
40.5752 17.566
40.6228 17.5406
40.6703 17.5218
40.718 17.3845
40.7655 17.3624
40.8132 17.2904
40.8607 17.3076
40.9084 17.2566
40.9559 17.1525
41.0036 17.128
41.0512 17.025
41.0989 16.971
41.1465 16.9241
41.1942 16.9015
41.242 16.7712
41.2896 16.7953
41.3373 16.6381
41.3849 16.6439
41.4327 16.6349
41.4803 16.5021
41.5281 16.5009
41.5758 16.3395
41.6236 16.357
41.6712 16.2835
41.7191 16.2203
41.7667 16.139
41.8146 16.1635
41.8622 16.1106
41.9101 16.0813
41.9578 15.9919
42.0057 15.9018
42.0534 15.8792
42.1013 15.8629
42.149 15.7871
42.1969 15.7029
42.2446 15.6959
42.2925 15.5843
42.3403 15.5657
42.3882 15.5635
42.436 15.4239
42.4839 15.3934
42.5319 15.3036
42.5797 15.3375
42.6277 15.2809
42.6755 15.2151
42.7235 15.1139
42.7713 15.1108
42.8193 15.0371
42.8671 14.9688
42.9152 14.9657
42.963 14.9584
43.0111 14.8415
43.0589 14.7875
43.107 14.7097
43.1549 14.6844
43.2029 14.6455
43.2508 14.6203
43.2989 14.5416
43.3468 14.4319
43.3949 14.4009
43.4429 14.4251
43.491 14.3296
43.5389 14.2732
43.5871 14.2513
43.635 14.154
43.6832 14.1711
43.7312 14.0885
43.7793 14.04
43.8273 13.9971
43.8755 13.8892
43.9237 13.9266
43.9717 13.8433
44.0199 13.7942
44.068 13.7128
44.1162 13.7198
44.1642 13.6767
44.2125 13.586
44.2606 13.5813
44.3088 13.4628
44.3569 13.4944
44.4052 13.4412
44.4533 13.3813
44.5016 13.34
44.5497 13.2569
44.598 13.2021
44.6461 13.1967
44.6945 13.1443
44.7426 13.1093
44.791 13.0237
44.8391 13.0128
44.8875 12.9839
44.9357 12.9484
44.984 12.8757
45.0322 12.7465
45.0806 12.7764
45.1288 12.7738
45.1773 12.6771
45.2257 12.6293
45.2739 12.5879
45.3224 12.5689
45.3706 12.5158
45.4191 12.4017
45.4673 12.438
45.5158 12.4054
45.5641 12.2969
45.6126 12.2875
45.6609 12.1761
45.7094 12.15
45.7577 12.1214
45.8063 12.0841
45.8546 12.0411
45.9031 12.0538
45.9515 11.9925
46.0001 11.9352
46.0484 11.9201
46.097 11.9185
46.1454 11.8018
46.194 11.7829
46.2424 11.7112
46.291 11.67
46.3395 11.6515
46.3881 11.5941
46.4365 11.5618
46.4852 11.518
46.5337 11.4837
46.5823 11.4605
46.631 11.3352
46.6795 11.3532
46.7282 11.3155
46.7767 11.278
46.8254 11.223
46.8739 11.1339
46.9226 11.1364
46.9712 11.1316
47.0199 11.0014
47.0685 11.0364
47.1173 10.9563
47.1658 10.8943
47.2146 10.8832
47.2632 10.8126
47.312 10.8056
47.3606 10.7974
47.4095 10.715
47.4581 10.687
47.5069 10.6533
47.5556 10.6178
47.6044 10.5601
47.6531 10.5338
47.702 10.5098
47.7507 10.4422
47.7996 10.4063
47.8483 10.393
47.8972 10.3286
47.9461 10.3147
47.9948 10.2702
48.0438 10.2329
48.0925 10.2116
48.1415 10.1663
48.1902 10.1507
48.2392 10.0835
48.288 10.0453
48.337 10.025
48.3858 9.9782
48.4348 9.93117
48.4837 9.89146
48.5327 9.83652
48.5815 9.83103
48.6306 9.83218
48.6795 9.78499
48.7285 9.71858
48.7774 9.70346
48.8265 9.62633
48.8754 9.6012
48.9245 9.57697
48.9734 9.54815
49.0226 9.52253
49.0715 9.47975
49.1206 9.42907
49.1696 9.40514
49.2188 9.40277
49.2679 9.32507
49.3169 9.27719
49.3661 9.22868
49.4151 9.23255
49.4643 9.2172
49.5134 9.14621
49.5626 9.10271
49.6117 9.08602
49.6609 9.05848
49.71 9.00706
49.7592 8.97447
49.8083 8.93722
49.8576 8.89323
49.9067 8.87305
49.956 8.88967
50.0052 8.80162
50.0545 8.78978
50.1036 8.70765
50.153 8.71414
50.2022 8.66708
50.2515 8.62938
50.3007 8.6092
50.3501 8.58749
50.3993 8.54605
50.4487 8.46993
50.498 8.46922
50.5474 8.40451
50.5966 8.41877
50.6461 8.35747
50.6955 8.35024
50.7448 8.3303
50.7943 8.28926
50.8436 8.21705
50.8931 8.20793
50.9424 8.20958
50.9919 8.10123
51.0413 8.11758
51.0908 8.09455
51.1402 8.0469
51.1897 8.02445
51.2391 7.98765
51.2887 7.98926
51.3381 7.945
51.3877 7.87815
51.4371 7.84794
51.4867 7.81345
51.5362 7.78341
51.5858 7.76981
51.6353 7.72926
51.6849 7.68576
51.7344 7.65352
51.7841 7.61908
51.8336 7.60814
51.8833 7.61979
51.9328 7.52054
51.9826 7.44093
52.0323 7.45537
52.0818 7.43566
52.1316 7.38674
52.1812 7.38041
52.231 7.3236
52.2806 7.29218
52.3304 7.28876
52.38 7.23713
52.4298 7.23236
52.4794 7.20385
52.5293 7.1788
52.5789 7.13951
52.6288 7.11222
52.6785 7.10575
52.7284 7.05982
52.7781 7.04489
52.828 6.9983
52.8777 6.92856
52.9276 6.93549
52.9774 6.88357
53.0273 6.88348
53.0771 6.81302
53.1271 6.87261
53.1769 6.77481
53.2269 6.74269
53.2767 6.71176
53.3267 6.71072
53.3765 6.673
53.4266 6.69133
53.4766 6.6017
53.5265 6.56927
53.5765 6.5563
53.6264 6.51029
53.6765 6.49707
53.7264 6.45161
53.7765 6.45981
53.8265 6.42804
53.8766 6.36596
53.9266 6.37478
53.9767 6.32883
54.0267 6.32739
54.0769 6.29258
54.1269 6.23291
54.1771 6.20384
54.2271 6.1702
54.2773 6.13901
54.3274 6.14234
54.3776 6.03654
54.4277 6.06096
54.478 6.07692
54.528 5.98649
54.5783 5.94359
54.6285 5.89575
54.6788 5.86051
54.7289 5.84676
54.7792 5.77409
54.8296 5.6888
54.8798 5.68141
54.9301 5.59132
54.9803 5.67683
55.0307 5.60114
55.0809 5.52737
55.1314 5.50514
55.1816 5.42494
55.232 5.41967
55.2823 5.34712
55.3328 5.33971
55.383 5.25408
55.4335 5.20963
55.4838 5.17598
55.5344 5.12818
55.5847 5.05876
55.6352 5.02911
55.6856 4.91703
55.7361 4.98278