File: XRD/Ni3Fe_FD0551.xy
TT I
1.27165 7.39387
1.31627 7.10941
1.36089 6.78731
1.40551 5.85577
1.45013 6.05259
1.49476 5.99554
1.53938 6.79271
1.584 5.22165
1.62863 5.01447
1.67325 5.56236
1.71787 4.97241
1.7625 4.72223
1.80712 5.21703
1.85174 4.60063
1.89636 4.51663
1.94099 5.40394
1.98562 4.54635
2.03025 4.29182
2.07487 4.4567
2.11949 5.03639
2.16411 4.85957
2.20874 13.3055
2.25338 19.7202
2.298 5.10127
2.34263 5.93643
2.38725 5.42193
2.43188 5.85298
2.4765 6.58142
2.52115 6.08446
2.56577 6.67001
2.6104 7.7527
2.65503 7.94061
2.69965 8.13919
2.7443 8.47532
2.78893 7.76965
2.83356 8.00782
2.87818 8.42585
2.92281 8.98039
2.96744 10.0721
3.01209 10.0664
3.05672 11.3796
3.10135 11.8428
3.14599 13.1484
3.19062 13.7433
3.23527 15.2329
3.2799 15.9376
3.32454 16.6445
3.36917 17.6699
3.4138 18.9123
3.45844 19.7942
3.50309 20.8061
3.54773 21.7849
3.59237 23.7308
3.637 82.0912
3.68164 52.9807
3.7263 26.1187
3.77094 26.3339
3.81558 27.0646
3.86022 27.4092
3.90486 29.3215
3.9495 30.02
3.99416 30.8881
4.0388 32.3153
4.08344 33.9088
4.12809 35.1262
4.17273 37.0914
4.21738 42.249
4.26204 212.274
4.30669 182.496
4.35133 47.9176
4.39598 44.2868
4.44063 53.5149
4.4853 63.1837
4.52995 50.2993
4.5746 51.4162
4.61925 53.5949
4.6639 55.9925
4.70855 58.4713
4.75322 61.5471
4.79788 64.3284
4.84253 67.7941
4.88719 71.9787
4.93184 76.2227
4.97652 82.1525
5.02118 88.3398
5.06583 96.7133
5.11049 108.331
5.15515 172.327
5.19981 397.631
5.24449 3082.88
5.28916 12254.0
5.33382 3102.0
5.37848 197.75
5.42315 130.535
5.46783 114.677
5.5125 107.241
5.55716 103.333
5.60183 99.5292
5.6465 97.3665
5.69117 95.4729
5.73586 93.3184
5.78053 92.7581
5.8252 92.2538
5.86988 93.5407
5.91455 96.2894
5.95924 106.276
6.00392 233.924
6.0486 1060.99
6.09328 4377.64
6.13795 3372.53
6.18263 258.864
6.22733 94.4681
6.27201 83.1484
6.3167 97.7706
6.36138 79.1751
6.40606 69.1511
6.45075 67.3786
6.49545 65.6684
6.54014 64.0609
6.58483 63.227
6.62952 62.9178
6.67421 89.2063
6.71892 128.923
6.76361 67.3112
6.8083 58.4689
6.853 57.5485
6.89769 57.0892
6.94239 56.827
6.98711 55.9624
7.03181 56.0754
7.07651 55.7106
7.12121 55.5521
7.16591 55.4868
7.21063 55.7652
7.25533 68.2195
7.30004 157.562
7.34475 85.1162
7.38945 56.3566
7.43416 55.063
7.47889 54.4995
7.5236 54.7666
7.56831 56.1524
7.61303 56.9702
7.65774 57.3715
7.70247 56.3312
7.74719 56.1881
7.79191 57.0894
7.83663 57.2996
7.88135 58.3476
7.92607 58.902
7.97081 60.2786
8.01553 61.3768
8.06026 62.905
8.10498 64.24
8.14971 72.2492
8.19446 71.7719
8.23919 70.117
8.28392 72.5454
8.32865 74.7656
8.37339 78.9263
8.41812 86.0373
8.46288 112.42
8.50761 176.271
8.55235 420.7
8.59709 1220.76
8.64183 2209.41
8.68658 936.469
8.73134 165.301
8.77609 100.331
8.82083 93.0103
8.86558 90.2812
8.91033 89.755
8.9551 91.0381
8.99985 85.9811
9.04461 83.6072
9.08936 83.3243
9.13412 82.7278
9.17888 82.9221
9.22365 83.6443
9.26841 82.8024
9.31318 82.8726
9.35794 83.4275
9.4027 83.8319
9.44749 84.3248
9.49226 85.2745
9.53703 85.8713
9.5818 88.0492
9.62657 91.8276
9.67134 98.069
9.71614 94.3419
9.76091 94.8385
9.80569 97.4091
9.85047 100.71
9.89525 121.962
9.94005 135.504
9.98484 189.4
10.0296 365.999
10.0744 838.544
10.1192 1722.53
10.164 1570.79
10.2088 386.026
10.2536 125.574
10.2984 113.249
10.3432 113.772
10.388 105.759
10.4328 122.042
10.4776 166.789
10.5224 291.992
10.5672 514.126
10.612 502.004
10.6568 191.559
10.7017 95.6629
10.7465 87.1409
10.7913 83.7048
10.8361 81.6987
10.8809 79.2549
10.9257 78.6995
10.9706 78.9433
11.0154 74.9597
11.0602 73.1581
11.105 72.1169
11.1499 75.7565
11.1947 81.3824
11.2395 73.541
11.2844 70.6175
11.3292 67.6494
11.374 66.8163
11.4189 66.1598
11.4637 65.3247
11.5086 65.7152
11.5534 68.1802
11.5983 65.7887
11.6431 64.0117
11.688 63.2416
11.7328 63.439
11.7777 63.3281
11.8225 62.7547
11.8674 62.8474
11.9122 63.311
11.9571 63.5333
12.002 64.34
12.0468 68.9098
12.0917 80.9125
12.1366 105.067
12.1814 153.082
12.2263 204.175
12.2712 163.295
12.3161 93.4614
12.3609 69.9545
12.4058 64.9102
12.4507 64.6242
12.4956 64.586
12.5405 64.8972
12.5853 66.1331
12.6302 72.5385
12.6751 76.9558
12.72 70.0309
12.7649 68.2175
12.8098 68.8674
12.8547 70.1359
12.8996 71.6822
12.9445 72.8139
12.9894 74.849
13.0343 76.282
13.0792 79.9243
13.1242 90.371
13.1691 115.668
13.214 154.677
13.2589 245.873
13.3038 371.603
13.3487 427.891
13.3937 258.58
13.4386 122.215
13.4835 107.451
13.5285 124.128
13.5734 164.185
13.6183 254.391
13.6633 352.29
13.7082 342.641
13.7531 182.323
13.7981 96.6803
13.843 82.1759
13.888 80.1458
13.9329 77.521
13.9779 76.2167
14.0228 74.7955
14.0678 73.4704
14.1127 72.9026
14.1577 73.0011
14.2027 72.0465
14.2476 70.839
14.2926 70.747
14.3376 71.8461
14.3825 70.4984
14.4275 69.4906
14.4725 69.2527
14.5175 69.3491
14.5624 69.4919
14.6074 71.2814
14.6524 72.047
14.6974 71.048
14.7424 72.9061
14.7874 80.4211
14.8324 91.3525
14.8774 113.828
14.9224 156.623
14.9674 208.874
15.0124 218.886
15.0574 147.188
15.1024 89.2112
15.1474 72.292
15.1924 70.6999
15.2374 71.128
15.2824 70.5524
15.3274 68.4288
15.3725 67.3415
15.4175 66.9112
15.4625 66.5061
15.5076 66.5663
15.5526 66.6782
15.5976 66.5382
15.6426 67.5015
15.6877 73.6942
15.7327 81.5669
15.7778 97.437
15.8228 129.065
15.8679 171.556
15.9129 194.73
15.958 154.506
16.003 95.1502
16.0481 67.6926
16.0931 64.5291
16.1382 62.8474
16.1833 60.9758
16.2283 59.1337
16.2734 58.647
16.3185 58.8525
16.3636 59.356
16.4086 58.1658
16.4537 56.6175
16.4988 55.8459
16.5439 55.8334
16.589 55.6137
16.6341 55.3376
16.6792 54.9222
16.7243 55.2921
16.7694 55.1899
16.8145 55.2605
16.8596 55.5095
16.9047 57.0161
16.9498 57.1559
16.9949 56.1733
17.04 56.2781
17.0851 57.6792
17.1302 59.3341
17.1754 62.4396
17.2205 67.4851
17.2656 74.9883
17.3108 82.8071
17.3559 81.9491
17.401 71.2714
17.4462 62.1451
17.4913 59.555
17.5365 59.602
17.5815 59.502
17.6268 60.1126
17.6718 60.8801
17.7171 61.2493
17.7622 61.8819
17.8074 62.5191
17.8525 65.1284
17.8977 69.4004
17.9428 74.9502
17.9881 84.2797
18.0331 101.515
18.0784 122.772
18.1237 141.538
18.1688 132.26
18.214 102.915
18.2591 86.7499
18.3044 91.3244
18.3495 101.293
18.3948 106.933
18.4399 95.8113
18.4852 77.3568
18.5303 66.1924
18.5756 62.6577
18.6207 61.8019
18.666 60.8192
18.7112 59.9865
18.7565 59.422
18.8016 59.0705
18.8469 58.5729
18.892 58.1271
18.9374 57.6687
18.9825 57.6007
19.0278 57.0307
19.073 57.4384
19.1183 58.07
19.1635 58.6242
19.2088 60.2694
19.254 62.7018
19.2993 67.4795
19.3447 73.1998
19.3898 76.7107
19.4352 72.2417
19.4804 63.0997
19.5257 56.8147
19.5709 54.5069
19.6163 54.3489
19.6615 53.9758
19.7068 53.5914
19.752 53.8313
19.7974 54.0435
19.8426 55.0148
19.888 55.7028
19.9332 56.9305
19.9786 59.4061
20.0238 63.1585
20.0692 68.1365
20.1144 70.4741
20.1598 68.4855
20.205 63.7708
20.2504 62.4796
20.2957 64.2994
20.3411 66.0657
20.3863 64.2436
20.4318 58.332
20.477 53.5909
20.5224 51.8162
20.5677 51.2739
20.6131 50.6392
20.6586 50.0972
20.7038 49.9293
20.7493 49.5504
20.7945 49.4801
20.84 49.1804
20.8853 49.2183
20.9307 48.8701
20.976 48.951
21.0215 49.0503
21.0668 49.5355
21.1122 49.9857
21.1575 50.5217
21.203 51.3234
21.2483 51.8361
21.2938 51.5823
21.3391 50.3365
21.3846 49.2981
21.4299 48.8823
21.4754 48.7742
21.5207 48.9948
21.5662 49.201
21.6116 49.5799
21.6571 50.3262
21.7024 51.3876
21.7479 53.3518
21.7933 56.0962
21.8388 59.5332
21.8843 63.2339
21.9297 65.1341
21.9752 63.3638
22.0206 59.9288
22.0661 56.9001
22.1115 56.3886
22.157 56.3678
22.2024 54.6408
22.248 51.816
22.2933 50.1172
22.3389 49.5005
22.3843 49.4139
22.4299 49.2073
22.4753 49.1673
22.5208 48.9122
22.5662 48.8905
22.6118 49.1112
22.6572 49.412
22.7028 49.7831
22.7483 50.1304
22.7939 50.92
22.8393 52.5875
22.8849 54.5412
22.9303 56.7144
22.9759 58.3783
23.0214 57.8451
23.067 54.6138
23.1126 51.2005
23.1581 49.5289
23.2037 49.1738
23.2492 49.216
23.2948 49.4178
23.3403 49.7232
23.3859 50.2957
23.4314 51.3343
23.477 53.2346
23.5225 55.0954
23.5682 57.5124
23.6137 58.3507
23.6593 55.772
23.7048 51.7039
23.7505 48.4902
23.796 46.9179
23.8417 46.4149
23.8872 45.866
23.9329 45.4588
23.9784 45.2382
24.0241 44.8992
24.0697 44.8368
24.1154 44.3128
24.1609 44.3225
24.2066 44.0059
24.2522 44.0273
24.2979 43.7638
24.3434 43.5965
24.3892 43.3501
24.4349 43.611
24.4805 43.3714
24.5262 43.419
24.5718 43.2422
24.6175 43.3047
24.6631 43.1308
24.7089 42.8325
24.7545 42.8217
24.8002 42.5811
24.8458 42.511
24.8916 42.3083
24.9372 42.5053
24.983 43.0265
25.0286 43.2664
25.0744 43.6388
25.12 44.1127
25.1658 44.6994
25.2114 44.9128
25.2572 45.1722
25.3029 45.1018
25.3487 45.2042
25.3943 44.9616
25.4402 43.7587
25.4858 42.7123
25.5316 41.5132
25.5773 41.2129
25.6231 41.2205
25.669 40.9375
25.7147 40.8348
25.7605 40.6357
25.8062 40.7519
25.8521 40.9023
25.8977 40.8457
25.9436 41.29
25.9893 41.2648
26.0352 41.834
26.0809 41.9755
26.1268 41.9764
26.1725 41.5973
26.2184 41.1842
26.2641 40.536
26.31 40.4697
26.3557 40.3702
26.4017 40.4642
26.4474 40.6775
26.4933 41.14
26.5391 41.5744
26.585 42.0396
26.6308 42.3567
26.6767 42.4913
26.7225 42.3112
26.7684 41.7954
26.8142 41.02
26.8601 40.8247
26.9059 40.3434
26.9519 39.7514
26.9979 39.4984
27.0437 39.1032
27.0896 38.9764
27.1354 39.0332
27.1814 38.9031
27.2272 38.9096
27.2732 38.863
27.3191 38.6915
27.3651 38.8463
27.4109 38.7319
27.4569 38.7959
27.5027 38.8713
27.5488 38.785
27.5946 38.6858
27.6407 38.4859
27.6865 38.3588
27.7326 38.1174
27.7784 38.1506
27.8245 38.1898
27.8703 38.3021
27.9164 38.6228
27.9623 38.6858
28.0084 39.0173
28.0543 39.3082
28.1003 39.2283
28.1462 39.114
28.1923 38.7342
28.2384 38.1414
28.2843 37.9296
28.3304 37.4205
28.3764 37.014
28.4225 36.6611
28.4684 36.5807
28.5145 36.1751
28.5605 36.1993
28.6066 36.0051
28.6526 35.8804
28.6987 35.8334
28.7447 35.6507
28.7908 35.748
28.8368 35.6414
28.8829 35.6901
28.9289 35.7319
28.9751 35.4964
29.0211 35.0177
29.0673 34.8811
29.1133 34.8942
29.1595 34.6952
29.2055 34.7001
29.2517 34.6576
29.2977 34.4796
29.3439 34.5121
29.3899 34.4212
29.4361 34.3496
29.4824 34.1345
29.5284 34.0329
29.5746 33.6057
29.6207 33.331
29.6669 33.3164
29.713 33.1579
29.7593 33.1037
29.8053 33.125
29.8516 32.937
29.8977 33.029
29.9439 32.8773
29.99 32.8399
30.0363 32.7084
30.0824 32.6877
30.1287 32.7351
30.1748 32.6133
30.2211 32.5785
30.2673 32.488
30.3136 32.5897
30.3597 32.4354
30.406 32.369
30.4522 32.4154
30.4985 32.3085
30.5447 32.4015
30.591 32.3393
30.6372 32.4278
30.6835 32.3866
30.7297 32.4866
30.7761 32.3574
30.8224 32.1741
30.8686 32.0486
30.915 31.8547
30.9612 31.681
31.0076 31.5088
31.0538 31.4139
31.1002 31.3316
31.1464 31.1231
31.1928 31.1977
31.2391 31.1853
31.2855 31.1273
31.3317 31.0853
31.3781 31.0801
31.4244 31.0183
31.4708 30.9417
31.5171 31.019
31.5636 31.0393
31.6098 30.694
31.6563 30.6042
31.7026 30.4054
31.7491 30.3515
31.7953 30.3282
31.8418 30.3747
31.8881 30.431
31.9346 30.3492
31.9809 30.2515
32.0275 30.0866
32.074 30.0019
32.1203 29.796
32.1668 29.7667
32.2132 29.5548
32.2597 29.4685
32.306 29.3822
32.3526 29.2622
32.399 29.2027
32.4455 29.0245
32.4919 28.9264
32.5385 28.7736
32.5848 28.712
32.6314 28.7165
32.6778 28.6262
32.7244 28.495
32.7708 28.303
32.8174 28.3969
32.8638 28.2427
32.9104 28.2519
32.9569 28.2245
33.0035 28.0428
33.0499 28.0442
33.0966 27.9711
33.143 27.922
33.1897 27.8749
33.2361 27.847
33.2828 27.7994
33.3293 27.6013
33.3759 27.5188
33.4226 27.3223
33.4691 27.26
33.5158 27.2307
33.5623 27.0322
33.609 26.9299
33.6555 26.809
33.7022 26.7258
33.7487 26.7297
33.7954 26.7925
33.842 26.5803
33.8887 26.4537
33.9353 26.5186
33.982 26.3898
34.0286 26.3096
34.0753 26.0676
34.1219 26.035
34.1687 25.9349
34.2152 25.9183
34.262 25.8747
34.3086 25.67
34.3554 25.6802
34.402 25.6088
34.4488 25.4972
34.4954 25.415
34.5422 25.3009
34.5889 25.2899
34.6357 25.1158
34.6825 25.0435
34.7292 24.9858
34.776 24.8336
34.8227 24.8602
34.8695 24.7866
34.9162 24.7499
34.9631 24.6091
35.0098 24.6939
35.0566 24.5418
35.1033 24.4598
35.1502 24.3457
35.1969 24.3451
35.2438 24.4257
35.2906 24.2493
35.3375 24.1881
35.3842 24.1364
35.4311 24.1692
35.4779 24.1597
35.5248 24.0793
35.5716 23.9605
35.6185 23.8849
35.6653 23.7119
35.7123 23.712
35.759 23.6309
35.806 23.506
35.8528 23.3766
35.8998 23.409
35.9468 23.3053
35.9936 23.246
36.0406 23.1524
36.0874 23.135
36.1345 23.0667
36.1813 23.0204
36.2283 22.8913
36.2752 22.8606
36.3222 22.7423
36.3691 22.7774
36.4161 22.5994
36.463 22.5907
36.5101 22.5589
36.557 22.4831
36.6041 22.4016
36.651 22.3175
36.6981 22.3271
36.745 22.16
36.7921 22.1705
36.839 21.9574
36.8861 21.9247
36.9331 21.8554
36.9802 21.8598
37.0272 21.7384
37.0743 21.64
37.1213 21.6924
37.1684 21.5836
37.2154 21.5016
37.2626 21.392
37.3098 21.379
37.3568 21.2389
37.404 21.2346
37.451 21.1407
37.4982 21.0765
37.5452 20.9668
37.5924 20.9369
37.6395 20.9549
37.6867 20.8874
37.7337 20.6952
37.781 20.6852
37.8281 20.6067
37.8753 20.5169
37.9224 20.4831
37.9697 20.4856
38.0168 20.391
38.064 20.2715
38.1111 20.2269
38.1584 20.1308
38.2056 20.0426
38.2529 20.0763
38.3 19.9743
38.3473 20.0477
38.3945 19.83
38.4418 19.8671
38.489 19.7425
38.5363 19.6432
38.5837 19.584
38.6309 19.5321
38.6782 19.4792
38.7254 19.3786
38.7728 19.3528
38.82 19.231
38.8674 19.208
38.9146 19.1714
38.9621 19.0776
39.0093 19.0861
39.0567 18.9783
39.104 18.9613
39.1514 18.8329
39.1987 18.861
39.2461 18.751
39.2934 18.6356
39.3409 18.5661
39.3882 18.5513
39.4356 18.4874
39.483 18.4923
39.5304 18.3596
39.5778 18.3822
39.6253 18.2447
39.6726 18.2638
39.7201 18.1492
39.7675 18.1562
39.815 18.0263
39.8624 17.9605
39.9099 17.9916
39.9575 17.8526
40.0049 17.8234
40.0525 17.765
40.0999 17.6828
40.1474 17.695
40.1949 17.6384
40.2425 17.5265
40.2899 17.5013
40.3375 17.4321
40.385 17.416
40.4326 17.3498
40.48 17.2667
40.5277 17.2314
40.5752 17.137
40.6228 17.0845
40.6703 17.1057
40.718 17.0055
40.7655 16.9364
40.8132 16.8963
40.8607 16.9016
40.9084 16.8051
40.9559 16.7361
41.0036 16.6571
41.0512 16.6184
41.0989 16.6099
41.1465 16.5911
41.1942 16.4633
41.242 16.387
41.2896 16.3488
41.3373 16.3046
41.3849 16.2089
41.4327 16.1717
41.4803 16.0947
41.5281 16.0026
41.5758 16.0391
41.6236 15.9406
41.6712 15.8916
41.7191 15.8695
41.7667 15.7469
41.8146 15.7981
41.8622 15.694
41.9101 15.6538
41.9578 15.5553
42.0057 15.5455
42.0534 15.4987
42.1013 15.4506
42.149 15.3556
42.1969 15.3077
42.2446 15.2845
42.2925 15.1787
42.3403 15.2256
42.3882 15.1243
42.436 15.072
42.4839 14.967
42.5319 15.0252
42.5797 14.9535
42.6277 14.8694
42.6755 14.8362
42.7235 14.8003
42.7713 14.737
42.8193 14.681
42.8671 14.5956
42.9152 14.5926
42.963 14.507
43.0111 14.4686
43.0589 14.3977
43.107 14.393
43.1549 14.3381
43.2029 14.2336
43.2508 14.2372
43.2989 14.1808
43.3468 14.1025
43.3949 14.0707
43.4429 14.0481
43.491 14.0369
43.5389 13.965
43.5871 13.9006
43.635 13.8573
43.6832 13.8411
43.7312 13.7504
43.7793 13.6913
43.8273 13.6811
43.8755 13.5747
43.9237 13.5783
43.9717 13.5419
44.0199 13.5063
44.068 13.4376
44.1162 13.3514
44.1642 13.3387
44.2125 13.3194
44.2606 13.241
44.3088 13.1621
44.3569 13.1232
44.4052 13.1389
44.4533 13.04
44.5016 12.9781
44.5497 12.962
44.598 12.9434
44.6461 12.9086
44.6945 12.8116
44.7426 12.8203
44.791 12.7043
44.8391 12.7023
44.8875 12.6315
44.9357 12.617
44.984 12.5796
45.0322 12.5395
45.0806 12.4611
45.1288 12.4139
45.1773 12.348
45.2257 12.2992
45.2739 12.2581
45.3224 12.2388
45.3706 12.2141
45.4191 12.1501
45.4673 12.1569
45.5158 12.0858
45.5641 12.007
45.6126 11.966
45.6609 11.8886
45.7094 11.8606
45.7577 11.8929
45.8063 11.7731
45.8546 11.7965
45.9031 11.7546
45.9515 11.693
46.0001 11.6509
46.0484 11.6148
46.097 11.5618
46.1454 11.5362
46.194 11.4962
46.2424 11.4778
46.291 11.3311
46.3395 11.3706
46.3881 11.3141
46.4365 11.2853
46.4852 11.2628
46.5337 11.1953
46.5823 11.1683
46.631 11.1283
46.6795 11.0692
46.7282 11.0789
46.7767 10.9919
46.8254 10.9532
46.8739 10.9279
46.9226 10.8569
46.9712 10.8078
47.0199 10.7666
47.0685 10.7303
47.1173 10.6722
47.1658 10.6909
47.2146 10.623
47.2632 10.554
47.312 10.575
47.3606 10.4699
47.4095 10.4837
47.4581 10.4287
47.5069 10.376
47.5556 10.3858
47.6044 10.3283
47.6531 10.2568
47.702 10.2168
47.7507 10.2251
47.7996 10.1678
47.8483 10.1612
47.8972 10.0826
47.9461 10.039
47.9948 10.019
48.0438 9.97642
48.0925 9.97425
48.1415 9.9021
48.1902 9.86736
48.2392 9.83889
48.288 9.82545
48.337 9.75567
48.3858 9.73753
48.4348 9.72528
48.4837 9.6945
48.5327 9.62062
48.5815 9.56019
48.6306 9.55683
48.6795 9.51597
48.7285 9.47953
48.7774 9.46893
48.8265 9.44258
48.8754 9.39956
48.9245 9.35382
48.9734 9.31297
49.0226 9.25859
49.0715 9.24611
49.1206 9.2149
49.1696 9.17749
49.2188 9.16434
49.2679 9.11516
49.3169 9.06952
49.3661 9.02537
49.4151 8.96228
49.4643 8.98152
49.5134 8.92267
49.5626 8.86812
49.6117 8.9001
49.6609 8.82917
49.71 8.79096
49.7592 8.75765
49.8083 8.71418
49.8576 8.73243
49.9067 8.62301
49.956 8.61614
50.0052 8.60689
50.0545 8.57348
50.1036 8.50683
50.153 8.45267
50.2022 8.47106
50.2515 8.39578
50.3007 8.36996
50.3501 8.35229
50.3993 8.32825
50.4487 8.31424
50.498 8.27892
50.5474 8.22848
50.5966 8.17929
50.6461 8.18648
50.6955 8.11977
50.7448 8.101
50.7943 8.0755
50.8436 8.04759
50.8931 8.00033
50.9424 7.9893
50.9919 7.96079
51.0413 7.92376
51.0908 7.91079
51.1402 7.86202
51.1897 7.81715
51.2391 7.80156
51.2887 7.7598
51.3381 7.72141
51.3877 7.7304
51.4371 7.65675
51.4867 7.6438
51.5362 7.58981
51.5858 7.57322
51.6353 7.53267
51.6849 7.53711
51.7344 7.48945
51.7841 7.47729
51.8336 7.43335
51.8833 7.40169
51.9328 7.33831
51.9826 7.3244
52.0323 7.30355
52.0818 7.26113
52.1316 7.21226
52.1812 7.2135
52.231 7.17215
52.2806 7.14448
52.3304 7.08464
52.38 7.0864
52.4298 7.03219
52.4794 7.00303
52.5293 6.99277
52.5789 6.96832
52.6288 6.9399
52.6785 6.9156
52.7284 6.90091
52.7781 6.86318
52.828 6.83452
52.8777 6.77415
52.9276 6.76651
52.9774 6.74824
53.0273 6.73545
53.0771 6.68325
53.1271 6.67392
53.1769 6.58949
53.2269 6.59526
53.2767 6.57915
53.3267 6.57803
53.3765 6.55123
53.4266 6.46171
53.4766 6.45772
53.5265 6.44305
53.5765 6.39834
53.6264 6.38269
53.6765 6.34058
53.7264 6.35596
53.7765 6.28905
53.8265 6.25375
53.8766 6.23333
53.9266 6.19505
53.9767 6.18227
54.0267 6.10466
54.0769 6.13055
54.1269 6.07056
54.1771 6.09877
54.2271 5.99011
54.2773 5.97485
54.3274 5.98823
54.3776 5.94746
54.4277 5.89454
54.478 5.88642
54.528 5.82072
54.5783 5.82427
54.6285 5.78657
54.6788 5.70635
54.7289 5.68164
54.7792 5.65702
54.8296 5.56795
54.8798 5.54327
54.9301 5.50047
54.9803 5.51457
55.0307 5.45337
55.0809 5.4422
55.1314 5.34791
55.1816 5.35328
55.232 5.29004
55.2823 5.22531
55.3328 5.1433
55.383 5.15075
55.4335 5.1389
55.4838 5.03688
55.5344 4.97594
55.5847 5.00486
55.6352 4.91636
55.6856 4.90512
55.7361 4.87092