File: XRD/Ni3Fe_FD0175.xy
TT I
1.27165 8.05958
1.31627 7.06893
1.36089 7.66753
1.40551 7.10176
1.45013 6.65302
1.49476 6.13378
1.53938 6.14289
1.584 5.61966
1.62863 5.61023
1.67325 5.56893
1.71787 5.61389
1.7625 5.17827
1.80712 5.48648
1.85174 5.0813
1.89636 5.61708
1.94099 5.36543
1.98562 4.17586
2.03025 5.15399
2.07487 4.78843
2.11949 4.84227
2.16411 4.51348
2.20874 5.01477
2.25338 4.62125
2.298 4.07831
2.34263 4.79012
2.38725 4.56098
2.43188 3.95248
2.4765 4.26919
2.52115 4.45484
2.56577 4.83227
2.6104 6.04631
2.65503 5.4205
2.69965 5.87588
2.7443 6.44418
2.78893 7.0087
2.83356 7.53521
2.87818 7.95937
2.92281 8.52104
2.96744 9.58759
3.01209 10.8472
3.05672 11.4059
3.10135 12.5266
3.14599 13.7714
3.19062 14.3027
3.23527 14.912
3.2799 15.7346
3.32454 16.6042
3.36917 17.7903
3.4138 18.8317
3.45844 19.6382
3.50309 20.6485
3.54773 20.9064
3.59237 22.1002
3.637 22.6488
3.68164 23.3894
3.7263 24.4376
3.77094 25.0946
3.81558 25.9969
3.86022 26.678
3.90486 27.875
3.9495 28.839
3.99416 29.9116
4.0388 31.0735
4.08344 31.9314
4.12809 33.0931
4.17273 34.2112
4.21738 35.7786
4.26204 36.3907
4.30669 37.7622
4.35133 39.9972
4.39598 41.3825
4.44063 43.7924
4.4853 45.2123
4.52995 47.0076
4.5746 49.3532
4.61925 51.5607
4.6639 53.9914
4.70855 56.8905
4.75322 60.0658
4.79788 62.9513
4.84253 66.7059
4.88719 70.9693
4.93184 75.7232
4.97652 82.2738
5.02118 90.9485
5.06583 101.045
5.11049 116.773
5.15515 152.406
5.19981 521.611
5.24449 3740.07
5.28916 8560.67
5.33382 6103.8
5.37848 414.176
5.42315 159.672
5.46783 126.552
5.5125 113.955
5.55716 107.58
5.60183 101.944
5.6465 99.1832
5.69117 97.4617
5.73586 95.7852
5.78053 94.9785
5.8252 95.5822
5.86988 98.387
5.91455 104.707
5.95924 122.742
6.00392 279.792
6.0486 1371.62
6.09328 2858.45
6.13795 4036.22
6.18263 650.909
6.22733 119.481
6.27201 88.8392
6.3167 78.5825
6.36138 72.967
6.40606 68.6601
6.45075 66.734
6.49545 64.4352
6.54014 62.5602
6.58483 61.4499
6.62952 60.2041
6.67421 58.7475
6.71892 57.7617
6.76361 56.9033
6.8083 56.2238
6.853 55.343
6.89769 54.9819
6.94239 54.6188
6.98711 54.1362
7.03181 53.5492
7.07651 52.8312
7.12121 53.0334
7.16591 52.9331
7.21063 52.1958
7.25533 52.5766
7.30004 52.4611
7.34475 52.4323
7.38945 52.6885
7.43416 51.8301
7.47889 52.2703
7.5236 55.4553
7.56831 61.9515
7.61303 55.3119
7.65774 53.5958
7.70247 54.2684
7.74719 54.5439
7.79191 55.3215
7.83663 55.2339
7.88135 56.5199
7.92607 57.1882
7.97081 58.8232
8.01553 59.5706
8.06026 60.9697
8.10498 62.2539
8.14971 63.8292
8.19446 65.8696
8.23919 68.121
8.28392 71.1179
8.32865 73.9213
8.37339 78.7609
8.41812 83.6466
8.46288 95.5888
8.50761 170.006
8.55235 589.718
8.59709 915.641
8.64183 1573.13
8.68658 1636.67
8.73134 390.159
8.77609 115.234
8.82083 97.1067
8.86558 91.7729
8.91033 88.0498
8.9551 85.6271
8.99985 84.3476
9.04461 83.4407
9.08936 82.7991
9.13412 81.7847
9.17888 81.8721
9.22365 86.7271
9.26841 94.9547
9.31318 86.2209
9.35794 82.687
9.4027 82.4171
9.44749 83.2988
9.49226 84.3004
9.53703 85.038
9.5818 86.4655
9.62657 87.1213
9.67134 89.3003
9.71614 91.0399
9.76091 93.1765
9.80569 95.9838
9.85047 98.9644
9.89525 104.528
9.94005 113.977
9.98484 182.786
10.0296 535.333
10.0744 751.957
10.1192 1081.54
10.164 1713.17
10.2088 947.022
10.2536 207.18
10.2984 116.262
10.3432 107.943
10.388 104.877
10.4328 120.835
10.4776 212.782
10.5224 266.329
10.5672 343.62
10.612 495.193
10.6568 364.154
10.7017 133.073
10.7465 90.407
10.7913 83.9866
10.8361 81.1389
10.8809 78.3246
10.9257 76.2739
10.9706 74.77
11.0154 73.2415
11.0602 71.8942
11.105 70.3899
11.1499 69.1828
11.1947 68.1215
11.2395 66.997
11.2844 66.7158
11.3292 65.9992
11.374 64.8303
11.4189 64.403
11.4637 64.075
11.5086 63.0602
11.5534 62.6399
11.5983 62.4487
11.6431 62.4752
11.688 61.8631
11.7328 61.7563
11.7777 61.6598
11.8225 61.4824
11.8674 61.7459
11.9122 62.3826
11.9571 65.567
12.002 65.1765
12.0468 67.6547
12.0917 90.3983
12.1366 108.107
12.1814 120.913
12.2263 156.095
12.2712 194.536
12.3161 134.978
12.3609 74.3522
12.4058 64.4653
12.4507 63.5574
12.4956 63.4885
12.5405 63.384
12.5853 64.112
12.6302 64.5957
12.6751 64.7149
12.72 65.537
12.7649 66.2064
12.8098 67.2961
12.8547 68.7133
12.8996 69.9504
12.9445 71.4265
12.9894 73.5338
13.0343 75.4675
13.0792 79.3164
13.1242 86.5438
13.1691 132.24
13.214 185.321
13.2589 209.526
13.3038 255.663
13.3487 363.476
13.3937 378.075
13.4386 203.673
13.4835 118.608
13.5285 153.161
13.5734 182.046
13.6183 198.609
13.6633 248.314
13.7082 339.267
13.7531 303.407
13.7981 150.003
13.843 88.2097
13.888 81.0157
13.9329 78.0017
13.9779 76.5282
14.0228 74.5854
14.0678 73.4308
14.1127 73.0375
14.1577 74.2084
14.2027 72.4459
14.2476 70.7792
14.2926 69.8299
14.3376 69.2754
14.3825 68.8091
14.4275 68.4923
14.4725 68.7817
14.5175 68.7185
14.5624 68.6881
14.6074 68.8698
14.6524 69.5204
14.6974 70.131
14.7424 71.6117
14.7874 80.5003
14.8324 106.533
14.8774 121.299
14.9224 130.143
14.9674 153.991
15.0124 197.882
15.0574 204.923
15.1024 135.066
15.1474 81.529
15.1924 71.3703
15.2374 69.3731
15.2824 68.0434
15.3274 67.2782
15.3725 66.6127
15.4175 66.641
15.4625 65.9506
15.5076 65.97
15.5526 65.8051
15.5976 66.0757
15.6426 66.9225
15.6877 73.817
15.7327 94.6332
15.7778 107.351
15.8228 113.193
15.8679 128.95
15.9129 159.609
15.958 187.065
16.003 148.788
16.0481 87.0016
16.0931 66.2272
16.1382 62.0969
16.1833 60.6652
16.2283 59.1025
16.2734 58.5406
16.3185 57.584
16.3636 56.8378
16.4086 56.2543
16.4537 55.765
16.4988 55.4879
16.5439 55.4094
16.589 54.9449
16.6341 54.81
16.6792 54.3784
16.7243 54.5912
16.7694 54.4272
16.8145 54.4002
16.8596 54.3847
16.9047 55.0106
16.9498 55.2883
16.9949 55.1649
17.04 55.6596
17.0851 56.9133
17.1302 61.1288
17.1754 64.6684
17.2205 65.8418
17.2656 68.1588
17.3108 73.6599
17.3559 80.5746
17.401 81.2586
17.4462 70.759
17.4913 61.5132
17.5365 59.5
17.5815 59.3848
17.6268 59.648
17.6718 60.1071
17.7171 60.5285
17.7622 61.5626
17.8074 62.4721
17.8525 64.0881
17.8977 72.4871
17.9428 83.8196
17.9881 88.9152
18.0331 92.6394
18.0784 100.569
18.1237 118.04
18.1688 142.945
18.214 140.968
18.2591 109.877
18.3044 89.0416
18.3495 88.3024
18.3948 96.7532
18.4399 104.646
18.4852 94.9034
18.5303 75.7669
18.5756 65.3188
18.6207 62.4674
18.666 61.1809
18.7112 60.3506
18.7565 59.6514
18.8016 59.265
18.8469 58.5279
18.892 58.2674
18.9374 57.5864
18.9825 57.3722
19.0278 57.058
19.073 57.1508
19.1183 57.5123
19.1635 59.8699
19.2088 61.9188
19.254 62.8154
19.2993 64.0842
19.3447 66.1022
19.3898 70.3161
19.4352 74.5249
19.4804 72.3948
19.5257 63.6464
19.5709 56.6198
19.6163 54.7601
19.6615 54.1255
19.7068 53.8064
19.752 53.8121
19.7974 53.882
19.8426 55.0085
19.888 57.0931
19.9332 58.4925
19.9786 59.1433
20.0238 59.9919
20.0692 62.7991
20.1144 67.9272
20.1598 72.9037
20.205 71.1779
20.2504 65.755
20.2957 61.917
20.3411 62.5627
20.3863 65.4634
20.4318 64.5544
20.477 59.0688
20.5224 53.5145
20.5677 51.273
20.6131 50.746
20.6586 50.0654
20.7038 49.8107
20.7493 49.5734
20.7945 49.4597
20.84 49.2407
20.8853 49.0888
20.9307 48.9207
20.976 49.1189
21.0215 49.1149
21.0668 49.7537
21.1122 49.8391
21.1575 49.8797
21.203 50.1651
21.2483 50.5708
21.2938 51.705
21.3391 51.6244
21.3846 50.811
21.4299 49.5524
21.4754 48.9943
21.5207 49.0877
21.5662 49.2647
21.6116 49.7931
21.6571 51.672
21.7024 53.4313
21.7479 54.5013
21.7933 55.0527
21.8388 56.6544
21.8843 59.4374
21.9297 63.1533
21.9752 66.4596
22.0206 65.9008
22.0661 60.8871
22.1115 56.8806
22.157 56.2265
22.2024 56.9278
22.248 55.1901
22.2933 52.6142
22.3389 50.4812
22.3843 49.706
22.4299 49.0892
22.4753 49.2892
22.5208 49.164
22.5662 48.9853
22.6118 49.1949
22.6572 49.342
22.7028 50.7051
22.7483 51.7201
22.7939 52.1823
22.8393 52.6373
22.8849 53.2841
22.9303 54.0304
22.9759 55.8665
23.0214 57.8108
23.067 58.8101
23.1126 56.2698
23.1581 52.4907
23.2037 50.1017
23.2492 49.5616
23.2948 50.0459
23.3403 51.2717
23.3859 51.9121
23.4314 52.1007
23.477 52.2225
23.5225 52.9964
23.5682 54.3328
23.6137 56.6913
23.6593 58.3951
23.7048 57.356
23.7505 53.4676
23.796 49.4028
23.8417 47.2186
23.8872 46.221
23.9329 46.0345
23.9784 45.5717
24.0241 45.4394
24.0697 45.057
24.1154 44.5777
24.1609 44.3643
24.2066 44.344
24.2522 44.3169
24.2979 43.996
24.3434 43.8489
24.3892 43.7112
24.4349 43.4485
24.4805 43.1795
24.5262 43.4726
24.5718 43.2224
24.6175 43.263
24.6631 43.4476
24.7089 43.315
24.7545 42.9562
24.8002 42.6965
24.8458 42.7631
24.8916 42.7025
24.9372 42.891
24.983 43.1456
25.0286 43.3171
25.0744 43.8985
25.12 44.2683
25.1658 44.7243
25.2114 45.1544
25.2572 45.4185
25.3029 45.4704
25.3487 45.2517
25.3943 45.3095
25.4402 45.3241
25.4858 44.7132
25.5316 43.377
25.5773 42.0038
25.6231 41.4851
25.669 41.0171
25.7147 41.2117
25.7605 41.0174
25.8062 41.3136
25.8521 41.5187
25.8977 41.4156
25.9436 41.3117
25.9893 41.1893
26.0352 41.4369
26.0809 41.5028
26.1268 42.0177
26.1725 42.2715
26.2184 42.2727
26.2641 41.6036
26.31 41.2686
26.3557 41.0639
26.4017 41.0869
26.4474 41.2758
26.4933 41.3532
26.5391 41.5077
26.585 41.7914
26.6308 42.1541
26.6767 42.5494
26.7225 43.1297
26.7684 42.9764
26.8142 42.3401
26.8601 41.57
26.9059 41.261
26.9519 40.754
26.9979 40.2888
27.0437 39.8984
27.0896 39.4156
27.1354 39.4789
27.1814 39.2648
27.2272 39.3215
27.2732 39.3406
27.3191 38.9858
27.3651 39.1479
27.4109 38.8792
27.4569 38.9377
27.5027 38.9274
27.5488 39.1318
27.5946 39.0427
27.6407 39.0409
27.6865 39.1462
27.7326 38.8929
27.7784 38.7957
27.8245 38.6513
27.8703 38.6363
27.9164 38.9312
27.9623 38.8586
28.0084 39.0378
28.0543 39.362
28.1003 39.5075
28.1462 39.7892
28.1923 39.648
28.2384 39.1577
28.2843 38.7141
28.3304 38.3704
28.3764 37.9582
28.4225 37.5241
28.4684 37.0108
28.5145 36.5305
28.5605 36.4112
28.6066 36.315
28.6526 36.1982
28.6987 36.2004
28.7447 35.9952
28.7908 35.7439
28.8368 35.8992
28.8829 35.8469
28.9289 35.8447
28.9751 35.7423
29.0211 35.7471
29.0673 35.4624
29.1133 35.3146
29.1595 35.0239
29.2055 35.0097
29.2517 34.7795
29.2977 34.5719
29.3439 34.6353
29.3899 34.5908
29.4361 34.6041
29.4824 34.5548
29.5284 34.4793
29.5746 34.2539
29.6207 33.8468
29.6669 33.6171
29.713 33.4576
29.7593 33.2966
29.8053 33.3537
29.8516 33.274
29.8977 33.2501
29.9439 33.1154
29.99 33.0246
30.0363 33.0054
30.0824 32.9905
30.1287 32.8776
30.1748 32.8429
30.2211 32.9116
30.2673 32.6769
30.3136 32.9284
30.3597 32.8361
30.406 32.8389
30.4522 32.7597
30.4985 32.6416
30.5447 32.7063
30.591 32.4367
30.6372 32.6469
30.6835 32.5071
30.7297 32.6597
30.7761 32.6931
30.8224 32.741
30.8686 32.5762
30.915 32.4013
30.9612 32.2392
31.0076 32.0037
31.0538 31.7495
31.1002 31.7788
31.1464 31.5077
31.1928 31.5478
31.2391 31.4463
31.2855 31.344
31.3317 31.2954
31.3781 31.3584
31.4244 31.312
31.4708 31.2067
31.5171 31.2924
31.5636 31.2922
31.6098 31.2982
31.6563 31.0385
31.7026 30.9496
31.7491 30.7701
31.7953 30.7605
31.8418 30.6141
31.8881 30.5655
31.9346 30.6223
31.9809 30.6026
32.0275 30.4999
32.074 30.3825
32.1203 30.3424
32.1668 30.1465
32.2132 30.0361
32.2597 29.8431
32.306 29.7913
32.3526 29.5295
32.399 29.3091
32.4455 29.2832
32.4919 29.2374
32.5385 29.0926
32.5848 28.8982
32.6314 28.916
32.6778 28.9135
32.7244 28.7536
32.7708 28.5833
32.8174 28.5835
32.8638 28.4527
32.9104 28.5469
32.9569 28.4029
33.0035 28.4147
33.0499 28.3234
33.0966 28.1545
33.143 28.2567
33.1897 28.047
33.2361 28.0566
33.2828 28.0307
33.3293 27.8447
33.3759 27.9251
33.4226 27.6983
33.4691 27.6941
33.5158 27.5834
33.5623 27.343
33.609 27.122
33.6555 27.0713
33.7022 27.042
33.7487 26.8669
33.7954 26.8886
33.842 26.7499
33.8887 26.6483
33.9353 26.6477
33.982 26.5434
34.0286 26.5301
34.0753 26.4299
34.1219 26.2625
34.1687 26.259
34.2152 26.185
34.262 26.0972
34.3086 25.9847
34.3554 25.9071
34.402 25.7611
34.4488 25.7235
34.4954 25.6548
34.5422 25.5369
34.5889 25.4569
34.6357 25.3263
34.6825 25.2791
34.7292 25.1867
34.776 25.0975
34.8227 24.9464
34.8695 25.0367
34.9162 24.9267
34.9631 24.8765
35.0098 24.9248
35.0566 24.7381
35.1033 24.7209
35.1502 24.6878
35.1969 24.5498
35.2438 24.5142
35.2906 24.4736
35.3375 24.4691
35.3842 24.3587
35.4311 24.3664
35.4779 24.2426
35.5248 24.2832
35.5716 24.1927
35.6185 24.1469
35.6653 24.0006
35.7123 23.9354
35.759 23.9029
35.806 23.7437
35.8528 23.614
35.8998 23.5776
35.9468 23.4902
35.9936 23.4328
36.0406 23.4046
36.0874 23.3861
36.1345 23.2616
36.1813 23.2156
36.2283 23.1147
36.2752 23.0606
36.3222 23.0669
36.3691 22.9174
36.4161 22.8213
36.463 22.7605
36.5101 22.7361
36.557 22.5846
36.6041 22.5091
36.651 22.5481
36.6981 22.5784
36.745 22.4204
36.7921 22.3719
36.839 22.245
36.8861 22.2624
36.9331 22.1143
36.9802 22.01
37.0272 21.9781
37.0743 21.8715
37.1213 21.7759
37.1684 21.7692
37.2154 21.6458
37.2626 21.5723
37.3098 21.5839
37.3568 21.484
37.404 21.43
37.451 21.3333
37.4982 21.2975
37.5452 21.2055
37.5924 21.1466
37.6395 21.2447
37.6867 21.0293
37.7337 21.0023
37.781 20.91
37.8281 20.802
37.8753 20.7435
37.9224 20.645
37.9697 20.5874
38.0168 20.5324
38.064 20.4537
38.1111 20.3765
38.1584 20.3335
38.2056 20.3042
38.2529 20.1476
38.3 20.1019
38.3473 20.1222
38.3945 19.9539
38.4418 19.9901
38.489 19.8916
38.5363 19.7985
38.5837 19.7791
38.6309 19.7111
38.6782 19.5903
38.7254 19.5818
38.7728 19.546
38.82 19.4708
38.8674 19.3956
38.9146 19.3081
38.9621 19.2086
39.0093 19.2441
39.0567 19.1336
39.104 19.0671
39.1514 18.9988
39.1987 18.9855
39.2461 18.8977
39.2934 18.8808
39.3409 18.7184
39.3882 18.6993
39.4356 18.7077
39.483 18.6258
39.5304 18.5652
39.5778 18.5208
39.6253 18.4038
39.6726 18.3677
39.7201 18.339
39.7675 18.2985
39.815 18.188
39.8624 18.1242
39.9099 18.085
39.9575 17.9506
40.0049 17.9233
40.0525 17.8896
40.0999 17.8749
40.1474 17.7559
40.1949 17.7365
40.2425 17.6673
40.2899 17.6383
40.3375 17.5408
40.385 17.4693
40.4326 17.4722
40.48 17.449
40.5277 17.3802
40.5752 17.3102
40.6228 17.1845
40.6703 17.1786
40.718 17.1897
40.7655 17.1051
40.8132 17.0123
40.8607 16.9688
40.9084 16.9012
40.9559 16.8598
41.0036 16.8092
41.0512 16.7365
41.0989 16.7456
41.1465 16.6535
41.1942 16.6131
41.242 16.4947
41.2896 16.4994
41.3373 16.3866
41.3849 16.3831
41.4327 16.3579
41.4803 16.159
41.5281 16.1492
41.5758 16.1216
41.6236 16.1339
41.6712 16.0441
41.7191 15.983
41.7667 15.9036
41.8146 15.8659
41.8622 15.8197
41.9101 15.818
41.9578 15.7643
42.0057 15.635
42.0534 15.5873
42.1013 15.604
42.149 15.5069
42.1969 15.4615
42.2446 15.4473
42.2925 15.3867
42.3403 15.2961
42.3882 15.2979
42.436 15.3104
42.4839 15.1088
42.5319 15.0861
42.5797 15.0992
42.6277 14.9679
42.6755 14.9296
42.7235 14.8691
42.7713 14.8413
42.8193 14.8481
42.8671 14.7349
42.9152 14.6435
42.963 14.6691
43.0111 14.5712
43.0589 14.5434
43.107 14.4305
43.1549 14.4505
43.2029 14.3677
43.2508 14.3753
43.2989 14.2492
43.3468 14.2405
43.3949 14.2631
43.4429 14.1486
43.491 14.1136
43.5389 14.034
43.5871 14.0191
43.635 13.9214
43.6832 13.8788
43.7312 13.8529
43.7793 13.8108
43.8273 13.7747
43.8755 13.6598
43.9237 13.7009
43.9717 13.62
44.0199 13.5685
44.068 13.5181
44.1162 13.4376
44.1642 13.459
44.2125 13.368
44.2606 13.364
44.3088 13.2201
44.3569 13.2235
44.4052 13.2303
44.4533 13.106
44.5016 13.0694
44.5497 13.0887
44.598 12.938
44.6461 12.9371
44.6945 12.9054
44.7426 12.8348
44.791 12.7783
44.8391 12.8071
44.8875 12.7624
44.9357 12.7066
44.984 12.6559
45.0322 12.6368
45.0806 12.5446
45.1288 12.5559
45.1773 12.4877
45.2257 12.4481
45.2739 12.3792
45.3224 12.3648
45.3706 12.2753
45.4191 12.2066
45.4673 12.2223
45.5158 12.1242
45.5641 12.1207
45.6126 12.0633
45.6609 12.0468
45.7094 11.9964
45.7577 11.9489
45.8063 11.8851
45.8546 11.8759
45.9031 11.8698
45.9515 11.7616
46.0001 11.7395
46.0484 11.7198
46.097 11.6746
46.1454 11.5828
46.194 11.5928
46.2424 11.532
46.291 11.4427
46.3395 11.4337
46.3881 11.3701
46.4365 11.3641
46.4852 11.3024
46.5337 11.2877
46.5823 11.2566
46.631 11.1881
46.6795 11.154
46.7282 11.163
46.7767 11.0872
46.8254 11.0068
46.8739 11.0025
46.9226 10.9498
46.9712 10.899
47.0199 10.8521
47.0685 10.831
47.1173 10.7416
47.1658 10.731
47.2146 10.7415
47.2632 10.6783
47.312 10.6362
47.3606 10.6242
47.4095 10.5568
47.4581 10.5013
47.5069 10.4806
47.5556 10.4444
47.6044 10.425
47.6531 10.3333
47.702 10.2876
47.7507 10.2533
47.7996 10.2523
47.8483 10.2122
47.8972 10.1676
47.9461 10.1147
47.9948 10.0664
48.0438 10.036
48.0925 10.0603
48.1415 10.0043
48.1902 9.96055
48.2392 9.93131
48.288 9.87963
48.337 9.89387
48.3858 9.79634
48.4348 9.78182
48.4837 9.71716
48.5327 9.69959
48.5815 9.67656
48.6306 9.61988
48.6795 9.61185
48.7285 9.59165
48.7774 9.50988
48.8265 9.50373
48.8754 9.44619
48.9245 9.43575
48.9734 9.38127
49.0226 9.3739
49.0715 9.28756
49.1206 9.26252
49.1696 9.25522
49.2188 9.24039
49.2679 9.17324
49.3169 9.15475
49.3661 9.09182
49.4151 9.08511
49.4643 9.06193
49.5134 8.99611
49.5626 8.95402
49.6117 8.93198
49.6609 8.96446
49.71 8.84207
49.7592 8.86127
49.8083 8.78303
49.8576 8.75835
49.9067 8.7057
49.956 8.69461
50.0052 8.66079
50.0545 8.63264
50.1036 8.59607
50.153 8.58808
50.2022 8.55189
50.2515 8.46781
50.3007 8.43559
50.3501 8.40609
50.3993 8.40061
50.4487 8.34931
50.498 8.33417
50.5474 8.32987
50.5966 8.25231
50.6461 8.25238
50.6955 8.21737
50.7448 8.17974
50.7943 8.1462
50.8436 8.10843
50.8931 8.08998
50.9424 8.07491
50.9919 8.06301
51.0413 8.01973
51.0908 7.93268
51.1402 7.92609
51.1897 7.88253
51.2391 7.85558
51.2887 7.83062
51.3381 7.77227
51.3877 7.77469
51.4371 7.71006
51.4867 7.69673
51.5362 7.67875
51.5858 7.63669
51.6353 7.59905
51.6849 7.54692
51.7344 7.5331
51.7841 7.52964
51.8336 7.48451
51.8833 7.42905
51.9328 7.45789
51.9826 7.37922
52.0323 7.38097
52.0818 7.36602
52.1316 7.23736
52.1812 7.25966
52.231 7.21815
52.2806 7.20897
52.3304 7.22144
52.38 7.14243
52.4298 7.12927
52.4794 7.06594
52.5293 7.0549
52.5789 7.02749
52.6288 6.98315
52.6785 6.95403
52.7284 6.93571
52.7781 6.91037
52.828 6.87986
52.8777 6.82706
52.9276 6.83169
52.9774 6.76515
53.0273 6.77637
53.0771 6.73146
53.1271 6.7465
53.1769 6.69228
53.2269 6.65064
53.2767 6.6106
53.3267 6.61352
53.3765 6.55907
53.4266 6.56922
53.4766 6.4791
53.5265 6.48245
53.5765 6.4356
53.6264 6.40229
53.6765 6.4449
53.7264 6.40589
53.7765 6.35406
53.8265 6.31718
53.8766 6.3192
53.9266 6.29139
53.9767 6.2688
54.0267 6.18008
54.0769 6.19342
54.1269 6.15969
54.1771 6.09738
54.2271 6.09433
54.2773 6.01534
54.3274 6.02669
54.3776 5.96161
54.4277 5.93426
54.478 5.9092
54.528 5.85082
54.5783 5.7963
54.6285 5.75703
54.6788 5.74343
54.7289 5.65517
54.7792 5.65278
54.8296 5.60999
54.8798 5.53979
54.9301 5.49993
54.9803 5.45903
55.0307 5.45825
55.0809 5.34506
55.1314 5.34706
55.1816 5.30223
55.232 5.19914
55.2823 5.24372
55.3328 5.15198
55.383 5.06205
55.4335 5.06427
55.4838 4.99798
55.5344 4.94049
55.5847 4.90837
55.6352 4.87741
55.6856 4.85974
55.7361 4.81905