File: XRD/Ni3Fe_FD0313.xy
TT I
1.27165 7.7444
1.31627 6.97284
1.36089 6.81451
1.40551 6.97917
1.45013 6.17599
1.49476 5.80592
1.53938 6.72001
1.584 5.73048
1.62863 5.41843
1.67325 5.0898
1.71787 4.4186
1.7625 5.11801
1.80712 5.08747
1.85174 4.68691
1.89636 5.18516
1.94099 5.29791
1.98562 4.95064
2.03025 3.95669
2.07487 4.09988
2.11949 5.22951
2.16411 5.0553
2.20874 16.9294
2.25338 28.5363
2.298 5.83765
2.34263 4.44266
2.38725 5.22531
2.43188 4.74585
2.4765 6.1006
2.52115 5.8891
2.56577 6.72443
2.6104 6.5011
2.65503 6.35533
2.69965 7.03381
2.7443 7.35444
2.78893 7.64109
2.83356 7.89501
2.87818 8.61296
2.92281 8.95901
2.96744 9.45511
3.01209 10.2954
3.05672 11.1536
3.10135 12.442
3.14599 13.1325
3.19062 14.3597
3.23527 15.1347
3.2799 15.9829
3.32454 17.2082
3.36917 17.9593
3.4138 19.4149
3.45844 19.8618
3.50309 21.5415
3.54773 22.3451
3.59237 25.2827
3.637 114.335
3.68164 70.9014
3.7263 27.0288
3.77094 26.1423
3.81558 27.5678
3.86022 28.4097
3.90486 29.5328
3.9495 30.4513
3.99416 31.4421
4.0388 33.1776
4.08344 34.561
4.12809 35.6881
4.17273 38.3344
4.21738 45.2444
4.26204 312.346
4.30669 276.487
4.35133 51.8893
4.39598 46.6585
4.44063 57.392
4.4853 72.9184
4.52995 53.423
4.5746 53.3845
4.61925 54.6472
4.6639 56.8834
4.70855 59.5729
4.75322 62.5107
4.79788 65.572
4.84253 69.237
4.88719 73.7009
4.93184 77.1009
4.97652 83.2914
5.02118 90.695
5.06583 99.2603
5.11049 114.175
5.15515 210.798
5.19981 485.237
5.24449 3051.92
5.28916 11405.4
5.33382 3902.25
5.37848 237.18
5.42315 141.466
5.46783 120.859
5.5125 110.861
5.55716 106.267
5.60183 102.218
5.6465 100.546
5.69117 97.9735
5.73586 95.5293
5.78053 95.9377
5.8252 95.629
5.86988 97.031
5.91455 99.8711
5.95924 111.457
6.00392 253.446
6.0486 1051.8
6.09328 3841.75
6.13795 3635.79
6.18263 317.002
6.22733 102.946
6.27201 88.3179
6.3167 114.016
6.36138 86.3988
6.40606 71.6133
6.45075 69.7544
6.49545 68.1372
6.54014 65.9722
6.58483 64.9068
6.62952 65.1248
6.67421 103.916
6.71892 173.064
6.76361 73.7381
6.8083 60.6981
6.853 59.7308
6.89769 58.8136
6.94239 58.7653
6.98711 57.5217
7.03181 57.4177
7.07651 57.1205
7.12121 57.4731
7.16591 57.6113
7.21063 57.7436
7.25533 75.524
7.30004 220.501
7.34475 106.596
7.38945 58.5646
7.43416 56.2313
7.47889 56.0982
7.5236 56.3489
7.56831 57.3055
7.61303 59.1607
7.65774 60.0997
7.70247 57.7893
7.74719 57.91
7.79191 58.1853
7.83663 58.549
7.88135 59.5475
7.92607 60.489
7.97081 61.5623
8.01553 62.629
8.06026 64.0967
8.10498 65.9267
8.14971 78.1772
8.19446 76.1919
8.23919 71.8494
8.28392 73.9865
8.32865 76.1804
8.37339 81.158
8.41812 89.187
8.46288 127.161
8.50761 187.736
8.55235 423.752
8.59709 1048.63
8.64183 2098.98
8.68658 1174.66
8.73134 198.193
8.77609 105.731
8.82083 96.4507
8.86558 92.7646
8.91033 93.2357
8.9551 96.4012
8.99985 88.3194
9.04461 85.9475
9.08936 84.9787
9.13412 84.4342
9.17888 84.2093
9.22365 85.5541
9.26841 84.0837
9.31318 85.1864
9.35794 85.2453
9.4027 85.5659
9.44749 86.2591
9.49226 86.7025
9.53703 87.8521
9.5818 90.1183
9.62657 95.8433
9.67134 104.417
9.71614 96.8659
9.76091 96.8425
9.80569 99.1682
9.85047 103.022
9.89525 133.391
9.94005 151.196
9.98484 195.575
10.0296 373.06
10.0744 737.495
10.1192 1565.72
10.164 1783.96
10.2088 521.101
10.2536 142.503
10.2984 119.889
10.3432 123.063
10.388 109.492
10.4328 125.434
10.4776 169.253
10.5224 263.2
10.5672 474.77
10.612 540.691
10.6568 235.085
10.7017 102.354
10.7465 89.4536
10.7913 86.0604
10.8361 83.6526
10.8809 81.4523
10.9257 81.3691
10.9706 82.7968
11.0154 77.5081
11.0602 75.0359
11.105 74.2152
11.1499 79.9365
11.1947 90.6057
11.2395 78.7635
11.2844 73.151
11.3292 69.323
11.374 68.3108
11.4189 67.8145
11.4637 66.8753
11.5086 67.9924
11.5534 71.9959
11.5983 68.1593
11.6431 65.5158
11.688 64.7873
11.7328 64.958
11.7777 64.9054
11.8225 64.3234
11.8674 64.4338
11.9122 64.7492
11.9571 64.94
12.002 65.7231
12.0468 70.7956
12.0917 83.2237
12.1366 102.799
12.1814 141.864
12.2263 202.616
12.2712 186.656
12.3161 108.337
12.3609 75.4573
12.4058 67.0317
12.4507 66.5054
12.4956 66.4664
12.5405 66.5891
12.5853 67.86
12.6302 77.5935
12.6751 85.3209
12.72 73.4146
12.7649 69.6973
12.8098 70.4681
12.8547 71.7755
12.8996 73.1091
12.9445 74.4923
12.9894 76.0669
13.0343 77.9182
13.0792 81.2493
13.1242 92.0031
13.1691 119.513
13.214 152.872
13.2589 220.339
13.3038 339.762
13.3487 441.331
13.3937 304.915
13.4386 139.105
13.4835 112.005
13.5285 127.885
13.5734 157.323
13.6183 223.219
13.6633 325.866
13.7082 362.769
13.7531 216.886
13.7981 106.259
13.843 85.0184
13.888 82.4783
13.9329 79.4487
13.9779 78.0797
14.0228 76.7802
14.0678 75.185
14.1127 74.6988
14.1577 75.1915
14.2027 73.879
14.2476 72.533
14.2926 72.9576
14.3376 74.2355
14.3825 72.6074
14.4275 70.9785
14.4725 70.5837
14.5175 71.0182
14.5624 71.2936
14.6074 73.9492
14.6524 74.6815
14.6974 72.5155
14.7424 74.195
14.7874 82.0292
14.8324 93.0407
14.8774 110.598
14.9224 142.622
14.9674 193.867
15.0124 227.657
15.0574 165.743
15.1024 98.7926
15.1474 75.3026
15.1924 73.1894
15.2374 74.1874
15.2824 73.2718
15.3274 70.5044
15.3725 69.322
15.4175 68.5128
15.4625 68.0443
15.5076 68.4837
15.5526 68.6356
15.5976 67.9013
15.6426 68.9838
15.6877 75.5445
15.7327 83.6894
15.7778 95.6307
15.8228 119.143
15.8679 159.4
15.9129 199.276
15.958 176.661
16.003 109.331
16.0481 72.1764
16.0931 67.794
16.1382 65.5429
16.1833 62.9234
16.2283 61.0502
16.2734 60.398
16.3185 60.8387
16.3636 61.9212
16.4086 60.2847
16.4537 58.2269
16.4988 57.4177
16.5439 57.1925
16.589 56.8757
16.6341 56.6137
16.6792 56.374
16.7243 56.6787
16.7694 56.7099
16.8145 56.6386
16.8596 56.9989
16.9047 59.1191
16.9498 59.2685
16.9949 57.8081
17.04 57.6436
17.0851 58.9745
17.1302 60.7477
17.1754 63.5761
17.2205 67.3553
17.2656 73.515
17.3108 82.8707
17.3559 85.1457
17.401 75.6727
17.4462 65.2378
17.4913 61.29
17.5365 61.0657
17.5815 61.179
17.6268 61.4174
17.6718 62.4871
17.7171 62.9357
17.7622 63.1807
17.8074 63.8124
17.8525 66.4815
17.8977 70.9998
17.9428 76.6465
17.9881 83.3891
18.0331 96.5139
18.0784 116.188
18.1237 141.054
18.1688 141.367
18.214 113.812
18.2591 90.2682
18.3044 89.7708
18.3495 98.5379
18.3948 109.04
18.4399 103.531
18.4852 83.1396
18.5303 69.0105
18.5756 64.2781
18.6207 63.3898
18.666 62.4703
18.7112 61.7723
18.7565 60.731
18.8016 60.5161
18.8469 59.9394
18.892 59.5326
18.9374 59.367
18.9825 58.8235
19.0278 58.8847
19.073 59.0316
19.1183 59.5797
19.1635 60.571
19.2088 61.7121
19.254 63.2484
19.2993 66.7098
19.3447 72.6638
19.3898 78.6062
19.4352 76.7998
19.4804 67.4301
19.5257 59.2876
19.5709 56.0296
19.6163 55.6791
19.6615 55.3404
19.7068 54.8744
19.752 55.0789
19.7974 55.344
19.8426 56.2729
19.888 57.2496
19.9332 57.89
19.9786 59.8125
20.0238 62.8677
20.0692 67.4235
20.1144 71.7771
20.1598 71.6161
20.205 66.2751
20.2504 63.1338
20.2957 64.2023
20.3411 67.3323
20.3863 67.1341
20.4318 61.4519
20.477 56.1494
20.5224 53.657
20.5677 52.7421
20.6131 52.0081
20.6586 51.2594
20.7038 51.3799
20.7493 51.0085
20.7945 50.5277
20.84 50.2913
20.8853 50.3407
20.9307 50.1607
20.976 50.3563
21.0215 50.232
21.0668 50.5742
21.1122 50.9185
21.1575 51.4124
21.203 52.1264
21.2483 52.9836
21.2938 53.4747
21.3391 52.0127
21.3846 50.5768
21.4299 50.0005
21.4754 49.8839
21.5207 50.1578
21.5662 50.3194
21.6116 50.9664
21.6571 51.6801
21.7024 52.5404
21.7479 53.9279
21.7933 56.1272
21.8388 59.2472
21.8843 63.2016
21.9297 66.7497
21.9752 66.6197
22.0206 62.5556
22.0661 58.2639
22.1115 57.2511
22.157 57.9846
22.2024 56.6632
22.248 53.6214
22.2933 51.8337
22.3389 50.8326
22.3843 50.6262
22.4299 50.6455
22.4753 50.5728
22.5208 50.1782
22.5662 49.9517
22.6118 50.218
22.6572 50.4627
22.7028 50.9
22.7483 51.2272
22.7939 51.8761
22.8393 53.1114
22.8849 54.7438
22.9303 56.8591
22.9759 59.1407
23.0214 59.8017
23.067 57.2602
23.1126 53.343
23.1581 51.1006
23.2037 50.4215
23.2492 50.5234
23.2948 50.6155
23.3403 50.7706
23.3859 51.4159
23.4314 51.8918
23.477 53.4306
23.5225 55.318
23.5682 57.7566
23.6137 59.6393
23.6593 58.3966
23.7048 54.2644
23.7505 50.3482
23.796 48.3354
23.8417 47.6042
23.8872 47.1216
23.9329 46.7051
23.9784 46.3777
24.0241 46.2056
24.0697 45.8634
24.1154 45.6637
24.1609 45.4786
24.2066 45.191
24.2522 45.1904
24.2979 44.8742
24.3434 44.714
24.3892 44.532
24.4349 44.5303
24.4805 44.2047
24.5262 44.378
24.5718 44.5077
24.6175 44.2456
24.6631 44.4148
24.7089 44.117
24.7545 43.9111
24.8002 43.6194
24.8458 43.6462
24.8916 43.3433
24.9372 43.5883
24.983 43.915
25.0286 44.0612
25.0744 44.4601
25.12 44.8953
25.1658 45.6938
25.2114 45.9474
25.2572 46.0163
25.3029 46.0119
25.3487 46.2008
25.3943 46.2763
25.4402 45.3518
25.4858 44.2082
25.5316 42.9028
25.5773 42.2141
25.6231 42.296
25.669 41.9307
25.7147 41.9145
25.7605 41.836
25.8062 41.8962
25.8521 42.0869
25.8977 41.924
25.9436 42.1122
25.9893 42.0069
26.0352 42.6248
26.0809 42.6811
26.1268 43.0507
26.1725 42.6865
26.2184 42.2654
26.2641 41.7303
26.31 41.4301
26.3557 41.4512
26.4017 41.4327
26.4474 41.59
26.4933 41.912
26.5391 42.4905
26.585 42.775
26.6308 43.179
26.6767 43.4661
26.7225 43.4918
26.7684 42.6971
26.8142 42.2519
26.8601 41.8734
26.9059 41.3879
26.9519 40.8506
26.9979 40.6124
27.0437 40.1712
27.0896 39.9573
27.1354 40.0642
27.1814 39.8883
27.2272 39.7753
27.2732 39.6602
27.3191 39.5654
27.3651 39.7984
27.4109 39.4674
27.4569 39.6392
27.5027 39.6988
27.5488 39.7732
27.5946 39.7619
27.6407 39.4363
27.6865 39.3921
27.7326 39.0654
27.7784 38.9753
27.8245 39.0279
27.8703 39.2522
27.9164 39.3939
27.9623 39.4085
28.0084 39.8199
28.0543 40.2621
28.1003 40.3282
28.1462 40.1206
28.1923 39.6173
28.2384 39.2226
28.2843 38.8958
28.3304 38.4247
28.3764 38.0133
28.4225 37.702
28.4684 37.4299
28.5145 37.0616
28.5605 36.9403
28.6066 36.8694
28.6526 36.8014
28.6987 36.7315
28.7447 36.6717
28.7908 36.612
28.8368 36.5882
28.8829 36.5742
28.9289 36.482
28.9751 36.3342
29.0211 36.1529
29.0673 35.8699
29.1133 35.5828
29.1595 35.5157
29.2055 35.3347
29.2517 35.4151
29.2977 35.3787
29.3439 35.3571
29.3899 35.3607
29.4361 35.2968
29.4824 35.0906
29.5284 34.7667
29.5746 34.5477
29.6207 34.2774
29.6669 34.1303
29.713 34.0726
29.7593 33.9308
29.8053 34.032
29.8516 33.8119
29.8977 33.8631
29.9439 33.6529
29.99 33.5702
30.0363 33.5458
30.0824 33.6321
30.1287 33.392
30.1748 33.5521
30.2211 33.4542
30.2673 33.2483
30.3136 33.4283
30.3597 33.3548
30.406 33.2582
30.4522 33.1001
30.4985 33.1041
30.5447 33.1824
30.591 33.072
30.6372 33.1324
30.6835 33.2365
30.7297 33.3187
30.7761 33.2248
30.8224 33.0313
30.8686 32.9401
30.915 32.6392
30.9612 32.5615
31.0076 32.3737
31.0538 32.1719
31.1002 32.1312
31.1464 31.8939
31.1928 31.8919
31.2391 31.9948
31.2855 31.8419
31.3317 31.7901
31.3781 31.9173
31.4244 31.8868
31.4708 31.8668
31.5171 31.8429
31.5636 31.7539
31.6098 31.5726
31.6563 31.3888
31.7026 31.1853
31.7491 30.932
31.7953 31.1037
31.8418 31.0838
31.8881 31.0259
31.9346 31.0332
31.9809 31.1144
32.0275 30.8575
32.074 30.8761
32.1203 30.6335
32.1668 30.4748
32.2132 30.3384
32.2597 30.2815
32.306 30.1093
32.3526 29.9069
32.399 29.9206
32.4455 29.6938
32.4919 29.5189
32.5385 29.549
32.5848 29.5132
32.6314 29.4375
32.6778 29.4225
32.7244 29.1964
32.7708 29.0942
32.8174 29.1091
32.8638 28.9409
32.9104 29.0156
32.9569 28.9339
33.0035 28.8297
33.0499 28.7831
33.0966 28.6738
33.143 28.6964
33.1897 28.6342
33.2361 28.4612
33.2828 28.5269
33.3293 28.3179
33.3759 28.2739
33.4226 28.1355
33.4691 27.9048
33.5158 27.9717
33.5623 27.8042
33.609 27.5919
33.6555 27.6334
33.7022 27.4615
33.7487 27.332
33.7954 27.3181
33.842 27.2935
33.8887 27.1201
33.9353 27.1219
33.982 26.909
34.0286 26.916
34.0753 26.8492
34.1219 26.7035
34.1687 26.7948
34.2152 26.6109
34.262 26.4576
34.3086 26.3042
34.3554 26.3439
34.402 26.1371
34.4488 26.0349
34.4954 26.1461
34.5422 25.9054
34.5889 25.9002
34.6357 25.8848
34.6825 25.683
34.7292 25.6509
34.776 25.566
34.8227 25.5197
34.8695 25.4829
34.9162 25.3772
34.9631 25.2658
35.0098 25.2664
35.0566 25.1498
35.1033 25.0291
35.1502 25.0868
35.1969 25.0462
35.2438 24.9635
35.2906 24.855
35.3375 24.7936
35.3842 24.7649
35.4311 24.7711
35.4779 24.698
35.5248 24.6926
35.5716 24.5242
35.6185 24.4818
35.6653 24.4261
35.7123 24.2456
35.759 24.1724
35.806 24.1122
35.8528 23.9852
35.8998 23.9176
35.9468 23.8213
35.9936 23.8859
36.0406 23.7653
36.0874 23.7186
36.1345 23.6128
36.1813 23.5824
36.2283 23.4314
36.2752 23.3553
36.3222 23.3514
36.3691 23.3407
36.4161 23.1748
36.463 23.1707
36.5101 23.1316
36.557 23.0175
36.6041 22.9293
36.651 22.9164
36.6981 22.8388
36.745 22.7192
36.7921 22.6792
36.839 22.6054
36.8861 22.4983
36.9331 22.5171
36.9802 22.3629
37.0272 22.2655
37.0743 22.2449
37.1213 22.1822
37.1684 22.1129
37.2154 22.086
37.2626 21.9487
37.3098 21.9006
37.3568 21.8262
37.404 21.7844
37.451 21.6671
37.4982 21.538
37.5452 21.5336
37.5924 21.4711
37.6395 21.4548
37.6867 21.4523
37.7337 21.3015
37.781 21.2454
37.8281 21.1284
37.8753 21.0584
37.9224 21.0066
37.9697 20.9326
38.0168 20.9011
38.064 20.775
38.1111 20.7698
38.1584 20.6642
38.2056 20.6131
38.2529 20.5097
38.3 20.4662
38.3473 20.4559
38.3945 20.2754
38.4418 20.3123
38.489 20.2645
38.5363 20.1676
38.5837 20.1428
38.6309 20.0461
38.6782 19.9503
38.7254 19.9411
38.7728 19.868
38.82 19.8175
38.8674 19.7617
38.9146 19.6838
38.9621 19.5468
39.0093 19.5384
39.0567 19.4718
39.104 19.4697
39.1514 19.293
39.1987 19.3305
39.2461 19.2834
39.2934 19.1675
39.3409 19.0206
39.3882 19.0084
39.4356 19.0028
39.483 18.9003
39.5304 18.8709
39.5778 18.8538
39.6253 18.7192
39.6726 18.6613
39.7201 18.6511
39.7675 18.5582
39.815 18.5313
39.8624 18.4472
39.9099 18.5069
39.9575 18.32
40.0049 18.2586
40.0525 18.1984
40.0999 18.1753
40.1474 18.1189
40.1949 18.005
40.2425 18.0011
40.2899 17.9044
40.3375 17.8682
40.385 17.867
40.4326 17.7565
40.48 17.7094
40.5277 17.662
40.5752 17.6207
40.6228 17.4928
40.6703 17.5148
40.718 17.3927
40.7655 17.4335
40.8132 17.3438
40.8607 17.2746
40.9084 17.2519
40.9559 17.1981
41.0036 17.0853
41.0512 17.0065
41.0989 17.0212
41.1465 16.9619
41.1942 16.951
41.242 16.8203
41.2896 16.7875
41.3373 16.7023
41.3849 16.6388
41.4327 16.581
41.4803 16.5274
41.5281 16.4355
41.5758 16.4164
41.6236 16.3501
41.6712 16.269
41.7191 16.2182
41.7667 16.194
41.8146 16.1473
41.8622 16.0804
41.9101 16.0923
41.9578 15.9191
42.0057 15.9285
42.0534 15.8604
42.1013 15.8394
42.149 15.7311
42.1969 15.7221
42.2446 15.6556
42.2925 15.6197
42.3403 15.6077
42.3882 15.5209
42.436 15.4982
42.4839 15.3669
42.5319 15.4225
42.5797 15.3063
42.6277 15.1739
42.6755 15.1775
42.7235 15.1488
42.7713 15.1264
42.8193 15.0812
42.8671 14.9368
42.9152 14.9735
42.963 14.8589
43.0111 14.8799
43.0589 14.7744
43.107 14.7332
43.1549 14.6509
43.2029 14.6322
43.2508 14.6114
43.2989 14.539
43.3468 14.4592
43.3949 14.4536
43.4429 14.4173
43.491 14.3309
43.5389 14.2515
43.5871 14.2543
43.635 14.2544
43.6832 14.2135
43.7312 14.0664
43.7793 14.0394
43.8273 14.0025
43.8755 13.951
43.9237 13.8997
43.9717 13.8418
44.0199 13.7879
44.068 13.7902
44.1162 13.6897
44.1642 13.7241
44.2125 13.6204
44.2606 13.526
44.3088 13.5199
44.3569 13.4689
44.4052 13.4522
44.4533 13.333
44.5016 13.3089
44.5497 13.3182
44.598 13.2182
44.6461 13.1695
44.6945 13.1611
44.7426 13.1252
44.791 13.0355
44.8391 13.0066
44.8875 12.9958
44.9357 12.931
44.984 12.8754
45.0322 12.8279
45.0806 12.7866
45.1288 12.718
45.1773 12.6957
45.2257 12.6619
45.2739 12.6066
45.3224 12.5564
45.3706 12.5155
45.4191 12.4651
45.4673 12.4443
45.5158 12.402
45.5641 12.3171
45.6126 12.2509
45.6609 12.2582
45.7094 12.1945
45.7577 12.1977
45.8063 12.0873
45.8546 12.0879
45.9031 12.0658
45.9515 11.9717
46.0001 11.9587
46.0484 11.8962
46.097 11.8199
46.1454 11.8319
46.194 11.8082
46.2424 11.7976
46.291 11.6816
46.3395 11.6567
46.3881 11.5777
46.4365 11.5852
46.4852 11.509
46.5337 11.457
46.5823 11.4564
46.631 11.3931
46.6795 11.3731
46.7282 11.3208
46.7767 11.2677
46.8254 11.2066
46.8739 11.1843
46.9226 11.13
46.9712 11.073
47.0199 11.0601
47.0685 10.9711
47.1173 10.9992
47.1658 10.9085
47.2146 10.9237
47.2632 10.8728
47.312 10.8126
47.3606 10.7645
47.4095 10.7434
47.4581 10.7055
47.5069 10.6937
47.5556 10.6098
47.6044 10.551
47.6531 10.5595
47.702 10.4707
47.7507 10.492
47.7996 10.4021
47.8483 10.3827
47.8972 10.3208
47.9461 10.2751
47.9948 10.235
48.0438 10.2567
48.0925 10.2146
48.1415 10.1643
48.1902 10.1127
48.2392 10.0983
48.288 10.0632
48.337 10.0885
48.3858 10.0018
48.4348 9.94627
48.4837 9.9257
48.5327 9.92606
48.5815 9.84084
48.6306 9.77594
48.6795 9.721
48.7285 9.74586
48.7774 9.70753
48.8265 9.65615
48.8754 9.61466
48.9245 9.62571
48.9734 9.54215
49.0226 9.50563
49.0715 9.51998
49.1206 9.44411
49.1696 9.39064
49.2188 9.41561
49.2679 9.31645
49.3169 9.28858
49.3661 9.27424
49.4151 9.19999
49.4643 9.19675
49.5134 9.15119
49.5626 9.10747
49.6117 9.09524
49.6609 9.07195
49.71 8.99217
49.7592 8.99076
49.8083 8.96033
49.8576 8.90803
49.9067 8.89588
49.956 8.83812
50.0052 8.84145
50.0545 8.78977
50.1036 8.73326
50.153 8.73483
50.2022 8.69657
50.2515 8.64626
50.3007 8.58471
50.3501 8.5516
50.3993 8.53457
50.4487 8.50533
50.498 8.49487
50.5474 8.41516
50.5966 8.3897
50.6461 8.39463
50.6955 8.3553
50.7448 8.31997
50.7943 8.28221
50.8436 8.25645
50.8931 8.24101
50.9424 8.18491
50.9919 8.13632
51.0413 8.13174
51.0908 8.11145
51.1402 8.07585
51.1897 8.05386
51.2391 8.01939
51.2887 7.93274
51.3381 7.9149
51.3877 7.89121
51.4371 7.85551
51.4867 7.8099
51.5362 7.78278
51.5858 7.75774
51.6353 7.71653
51.6849 7.69943
51.7344 7.68811
51.7841 7.62238
51.8336 7.6153
51.8833 7.59064
51.9328 7.55124
51.9826 7.49957
52.0323 7.49355
52.0818 7.43933
52.1316 7.47488
52.1812 7.39886
52.231 7.33083
52.2806 7.36096
52.3304 7.29443
52.38 7.25337
52.4298 7.2371
52.4794 7.1881
52.5293 7.15845
52.5789 7.12721
52.6288 7.11318
52.6785 7.06635
52.7284 7.06713
52.7781 7.03686
52.828 6.99789
52.8777 6.96459
52.9276 6.94708
52.9774 6.89315
53.0273 6.89009
53.0771 6.89571
53.1271 6.8347
53.1769 6.74393
53.2269 6.77482
53.2767 6.70282
53.3267 6.71713
53.3765 6.67071
53.4266 6.6607
53.4766 6.61297
53.5265 6.61791
53.5765 6.57737
53.6264 6.51165
53.6765 6.49483
53.7264 6.46105
53.7765 6.4457
53.8265 6.39866
53.8766 6.39086
53.9266 6.33497
53.9767 6.32118
54.0267 6.3042
54.0769 6.27413
54.1269 6.23723
54.1771 6.17943
54.2271 6.18528
54.2773 6.14477
54.3274 6.15717
54.3776 6.10619
54.4277 6.0742
54.478 5.98898
54.528 5.9628
54.5783 5.92186
54.6285 5.89242
54.6788 5.87366
54.7289 5.77591
54.7792 5.77774
54.8296 5.73929
54.8798 5.65374
54.9301 5.63227
54.9803 5.62946
55.0307 5.61342
55.0809 5.58521
55.1314 5.53712
55.1816 5.4822
55.232 5.37342
55.2823 5.33454
55.3328 5.30662
55.383 5.25482
55.4335 5.20985
55.4838 5.15933
55.5344 5.09957
55.5847 5.08338
55.6352 5.0431
55.6856 4.98674
55.7361 4.97948