File: XRD/Ni3Fe_FD0134.xy
TT I
1.27165 7.84319
1.31627 7.13421
1.36089 7.3694
1.40551 6.38884
1.45013 6.90695
1.49476 6.96006
1.53938 6.35678
1.584 6.19796
1.62863 5.74067
1.67325 5.56961
1.71787 5.38714
1.7625 4.96741
1.80712 5.49427
1.85174 5.29733
1.89636 5.10546
1.94099 5.5727
1.98562 5.55198
2.03025 5.35062
2.07487 4.81191
2.11949 5.19033
2.16411 4.73087
2.20874 4.80122
2.25338 5.04219
2.298 5.16717
2.34263 4.02661
2.38725 4.59319
2.43188 3.73599
2.4765 4.72312
2.52115 4.31163
2.56577 4.80172
2.6104 5.32299
2.65503 5.18493
2.69965 6.00467
2.7443 5.81178
2.78893 6.17149
2.83356 7.27397
2.87818 8.1374
2.92281 8.73754
2.96744 8.79466
3.01209 10.8555
3.05672 10.9673
3.10135 12.3064
3.14599 13.2159
3.19062 14.1598
3.23527 15.1433
3.2799 15.6574
3.32454 16.7163
3.36917 17.7517
3.4138 18.9684
3.45844 19.4939
3.50309 20.4042
3.54773 20.9104
3.59237 22.0846
3.637 22.2893
3.68164 23.0013
3.7263 23.7702
3.77094 25.0684
3.81558 25.875
3.86022 26.1134
3.90486 27.811
3.9495 28.3908
3.99416 29.5307
4.0388 30.655
4.08344 31.5688
4.12809 32.8059
4.17273 33.4452
4.21738 35.0904
4.26204 36.1556
4.30669 37.2907
4.35133 39.1957
4.39598 40.8507
4.44063 42.7548
4.4853 44.6799
4.52995 46.8578
4.5746 48.8625
4.61925 51.0758
4.6639 53.2944
4.70855 56.0909
4.75322 59.6122
4.79788 62.0801
4.84253 65.7578
4.88719 69.7262
4.93184 74.9845
4.97652 81.9593
5.02118 90.9587
5.06583 101.195
5.11049 117.939
5.15515 156.498
5.19981 566.21
5.24449 3761.7
5.28916 7852.55
5.33382 6550.78
5.37848 483.173
5.42315 166.709
5.46783 128.477
5.5125 114.684
5.55716 107.81
5.60183 101.487
5.6465 98.485
5.69117 97.6987
5.73586 95.3544
5.78053 95.0451
5.8252 95.3698
5.86988 98.5916
5.91455 105.962
5.95924 125.622
6.00392 294.849
6.0486 1389.23
6.09328 2590.18
6.13795 3934.35
6.18263 719.05
6.22733 125.549
6.27201 89.8986
6.3167 78.2878
6.36138 72.4018
6.40606 68.2861
6.45075 66.3854
6.49545 63.9077
6.54014 61.9216
6.58483 60.7139
6.62952 59.2994
6.67421 57.9337
6.71892 56.765
6.76361 56.0731
6.8083 55.2593
6.853 54.5195
6.89769 53.9279
6.94239 53.7386
6.98711 52.8116
7.03181 52.6813
7.07651 52.4132
7.12121 52.0745
7.16591 51.9904
7.21063 51.8107
7.25533 51.6613
7.30004 51.5829
7.34475 51.7923
7.38945 51.935
7.43416 51.3912
7.47889 51.4256
7.5236 56.1569
7.56831 64.6991
7.61303 55.2519
7.65774 53.071
7.70247 53.3893
7.74719 53.6404
7.79191 54.4893
7.83663 54.7498
7.88135 55.8029
7.92607 56.4202
7.97081 57.6376
8.01553 58.6915
8.06026 59.9543
8.10498 61.5991
8.14971 62.9855
8.19446 64.7514
8.23919 67.2421
8.28392 70.2116
8.32865 72.7213
8.37339 77.763
8.41812 83.3686
8.46288 95.3531
8.50761 173.46
8.55235 608.775
8.59709 857.994
8.64183 1414.44
8.68658 1683.66
8.73134 444.918
8.77609 117.698
8.82083 97.0418
8.86558 90.7208
8.91033 87.4386
8.9551 85.0198
8.99985 83.4824
9.04461 82.1989
9.08936 81.5108
9.13412 80.9193
9.17888 81.0245
9.22365 87.2702
9.26841 99.5438
9.31318 87.3993
9.35794 81.8249
9.4027 81.5916
9.44749 82.0391
9.49226 82.7975
9.53703 83.9381
9.5818 85.7263
9.62657 86.3242
9.67134 87.9157
9.71614 90.0185
9.76091 92.2953
9.80569 94.4448
9.85047 97.9358
9.89525 103.314
9.94005 113.48
9.98484 185.793
10.0296 552.145
10.0744 722.092
10.1192 977.119
10.164 1642.89
10.2088 1024.27
10.2536 225.954
10.2984 116.612
10.3432 107.583
10.388 104.066
10.4328 120.171
10.4776 215.885
10.5224 256.518
10.5672 315.492
10.612 474.54
10.6568 389.488
10.7017 140.754
10.7465 90.8086
10.7913 83.3219
10.8361 80.189
10.8809 77.5185
10.9257 75.2605
10.9706 73.9317
11.0154 72.0266
11.0602 70.9323
11.105 69.5914
11.1499 68.037
11.1947 67.2807
11.2395 66.1853
11.2844 65.3764
11.3292 65.0154
11.374 64.0236
11.4189 63.6009
11.4637 62.5634
11.5086 62.3015
11.5534 61.786
11.5983 61.6427
11.6431 61.4099
11.688 60.9927
11.7328 61.1962
11.7777 60.724
11.8225 60.5943
11.8674 60.7218
11.9122 62.0101
11.9571 66.0514
12.002 65.6452
12.0468 67.1694
12.0917 90.5768
12.1366 107.103
12.1814 114.183
12.2263 144.372
12.2712 188.697
12.3161 143.236
12.3609 76.6178
12.4058 63.8517
12.4507 62.5749
12.4956 62.6042
12.5405 62.6483
12.5853 63.2195
12.6302 63.0515
12.6751 64.0841
12.72 64.4898
12.7649 65.6486
12.8098 66.1865
12.8547 67.7816
12.8996 69.2002
12.9445 70.5201
12.9894 72.4564
13.0343 74.4283
13.0792 78.6393
13.1242 86.1139
13.1691 132.73
13.214 187.948
13.2589 199.654
13.3038 234.721
13.3487 335.721
13.3937 385.196
13.4386 222.059
13.4835 120.759
13.5285 154.843
13.5734 182.082
13.6183 187.005
13.6633 227.352
13.7082 320.636
13.7531 313.249
13.7981 161.235
13.843 88.729
13.888 80.4096
13.9329 77.0843
13.9779 75.4568
14.0228 73.8191
14.0678 72.4322
14.1127 72.2911
14.1577 74.2466
14.2027 72.9049
14.2476 70.0862
14.2926 68.9505
14.3376 68.4264
14.3825 68.241
14.4275 67.7752
14.4725 67.7544
14.5175 67.8578
14.5624 67.6137
14.6074 67.9715
14.6524 68.4975
14.6974 68.947
14.7424 71.065
14.7874 79.9484
14.8324 107.092
14.8774 120.538
14.9224 124.05
14.9674 142.835
15.0124 185.417
15.0574 205.731
15.1024 142.151
15.1474 82.6279
15.1924 70.9551
15.2374 68.6929
15.2824 67.3813
15.3274 66.4667
15.3725 65.9066
15.4175 65.6968
15.4625 65.4419
15.5076 64.8649
15.5526 64.8163
15.5976 65.2123
15.6426 66.1091
15.6877 72.989
15.7327 94.7467
15.7778 107.154
15.8228 108.723
15.8679 120.042
15.9129 149.195
15.958 183.566
16.003 155.705
16.0481 90.774
16.0931 66.4901
16.1382 61.6085
16.1833 59.8249
16.2283 58.3861
16.2734 57.6044
16.3185 56.7157
16.3636 56.2228
16.4086 55.4903
16.4537 55.0679
16.4988 54.58
16.5439 54.624
16.589 54.1812
16.6341 54.2058
16.6792 53.607
16.7243 54.0279
16.7694 53.729
16.8145 53.7249
16.8596 53.8712
16.9047 54.3658
16.9498 54.6597
16.9949 54.6417
17.04 54.9362
17.0851 56.3227
17.1302 60.6357
17.1754 63.7902
17.2205 64.7598
17.2656 65.7978
17.3108 71.0534
17.3559 77.9941
17.401 81.2519
17.4462 71.9092
17.4913 61.6101
17.5365 58.8123
17.5815 58.4937
17.6268 58.8601
17.6718 59.2908
17.7171 59.9271
17.7622 60.8603
17.8074 61.7739
17.8525 63.3202
17.8977 71.3467
17.9428 83.615
17.9881 88.0537
18.0331 89.0735
18.0784 95.6378
18.1237 111.476
18.1688 138.527
18.214 143.964
18.2591 113.371
18.3044 87.7953
18.3495 85.1786
18.3948 92.9822
18.4399 102.235
18.4852 95.961
18.5303 77.0127
18.5756 65.17
18.6207 61.9435
18.666 60.4032
18.7112 59.5933
18.7565 58.9118
18.8016 58.3569
18.8469 57.9234
18.892 57.5807
18.9374 56.7365
18.9825 56.7404
19.0278 56.134
19.073 56.2869
19.1183 56.8871
19.1635 59.2557
19.2088 61.5111
19.254 62.1987
19.2993 62.3646
19.3447 64.3354
19.3898 67.7887
19.4352 72.8347
19.4804 72.6374
19.5257 64.2261
19.5709 56.3096
19.6163 54.0118
19.6615 53.4741
19.7068 53.0849
19.752 52.8719
19.7974 53.0483
19.8426 54.2598
19.888 56.606
19.9332 57.7639
19.9786 58.1683
20.0238 58.6229
20.0692 60.8542
20.1144 66.1338
20.1598 71.6265
20.205 71.0521
20.2504 65.1176
20.2957 60.6872
20.3411 60.7065
20.3863 63.9938
20.4318 64.593
20.477 59.5159
20.5224 53.2755
20.5677 50.6788
20.6131 50.0696
20.6586 49.4042
20.7038 49.2943
20.7493 48.9311
20.7945 48.853
20.84 48.6671
20.8853 48.616
20.9307 48.2448
20.976 48.4906
21.0215 48.7412
21.0668 49.109
21.1122 49.1674
21.1575 49.1977
21.203 49.3578
21.2483 49.8743
21.2938 50.9472
21.3391 51.0161
21.3846 50.2814
21.4299 49.0262
21.4754 48.4253
21.5207 48.4945
21.5662 48.7473
21.6116 49.1342
21.6571 50.7803
21.7024 52.8353
21.7479 53.7263
21.7933 53.9366
21.8388 55.2193
21.8843 57.8862
21.9297 61.0611
21.9752 65.1295
22.0206 65.5478
22.0661 60.7267
22.1115 56.028
22.157 54.9782
22.2024 55.9971
22.248 54.9798
22.2933 52.3075
22.3389 49.8423
22.3843 49.031
22.4299 48.5321
22.4753 48.5511
22.5208 48.5151
22.5662 48.3151
22.6118 48.4613
22.6572 48.7151
22.7028 49.9105
22.7483 51.2494
22.7939 51.6278
22.8393 51.5761
22.8849 52.0242
22.9303 52.8484
22.9759 54.4176
23.0214 56.6213
23.067 57.8866
23.1126 56.1496
23.1581 52.3475
23.2037 49.5624
23.2492 48.918
23.2948 49.3711
23.3403 50.6935
23.3859 51.5032
23.4314 51.4824
23.477 51.5224
23.5225 51.8125
23.5682 53.013
23.6137 54.951
23.6593 57.3202
23.7048 57.143
23.7505 53.4592
23.796 49.1844
23.8417 46.7468
23.8872 45.7547
23.9329 45.3704
23.9784 45.0008
24.0241 44.8538
24.0697 44.4696
24.1154 44.1908
24.1609 43.8657
24.2066 43.6478
24.2522 43.6924
24.2979 43.4303
24.3434 43.188
24.3892 43.1449
24.4349 42.972
24.4805 42.8229
24.5262 42.8283
24.5718 42.672
24.6175 42.7217
24.6631 42.8099
24.7089 42.7554
24.7545 42.439
24.8002 42.0412
24.8458 42.1273
24.8916 42.1739
24.9372 42.5516
24.983 42.584
25.0286 42.7961
25.0744 43.1058
25.12 43.6022
25.1658 43.9266
25.2114 44.2752
25.2572 44.6328
25.3029 44.6879
25.3487 44.4472
25.3943 44.5491
25.4402 44.6695
25.4858 44.339
25.5316 43.0475
25.5773 41.6398
25.6231 41.1568
25.669 40.6702
25.7147 40.6501
25.7605 40.5691
25.8062 40.6677
25.8521 40.8671
25.8977 40.8894
25.9436 40.8422
25.9893 40.638
26.0352 41.0037
26.0809 40.9615
26.1268 41.4053
26.1725 41.815
26.2184 41.7265
26.2641 41.227
26.31 40.7086
26.3557 40.6419
26.4017 40.5746
26.4474 40.6207
26.4933 40.6535
26.5391 41.0465
26.585 41.1267
26.6308 41.3744
26.6767 41.7212
26.7225 42.3087
26.7684 42.5259
26.8142 41.9571
26.8601 41.1145
26.9059 40.551
26.9519 40.2842
26.9979 39.9328
27.0437 39.3511
27.0896 38.8989
27.1354 38.7586
27.1814 38.7545
27.2272 38.7725
27.2732 38.8339
27.3191 38.5189
27.3651 38.4917
27.4109 38.2407
27.4569 38.4136
27.5027 38.4154
27.5488 38.5985
27.5946 38.5046
27.6407 38.5018
27.6865 38.6515
27.7326 38.5099
27.7784 38.3548
27.8245 38.0796
27.8703 38.1085
27.9164 38.2743
27.9623 38.2032
28.0084 38.3949
28.0543 38.706
28.1003 38.8032
28.1462 39.089
28.1923 39.0916
28.2384 38.6905
28.2843 38.204
28.3304 37.853
28.3764 37.4116
28.4225 36.9935
28.4684 36.7151
28.5145 36.0594
28.5605 35.9339
28.6066 35.6927
28.6526 35.9883
28.6987 35.766
28.7447 35.5133
28.7908 35.3487
28.8368 35.3406
28.8829 35.2948
28.9289 35.2506
28.9751 35.243
29.0211 35.2793
29.0673 34.8941
29.1133 34.8942
29.1595 34.5005
29.2055 34.382
29.2517 34.3819
29.2977 34.2542
29.3439 34.181
29.3899 34.1001
29.4361 34.0447
29.4824 34.0345
29.5284 34.066
29.5746 33.6874
29.6207 33.4197
29.6669 33.2453
29.713 33.0401
29.7593 32.8229
29.8053 32.8927
29.8516 32.8128
29.8977 32.7337
29.9439 32.6594
29.99 32.5465
30.0363 32.5469
30.0824 32.5947
30.1287 32.3774
30.1748 32.3739
30.2211 32.3707
30.2673 32.2022
30.3136 32.3865
30.3597 32.39
30.406 32.4757
30.4522 32.2192
30.4985 32.1004
30.5447 32.1475
30.591 32.0881
30.6372 32.0781
30.6835 32.0552
30.7297 32.0631
30.7761 32.2941
30.8224 32.2372
30.8686 32.1498
30.915 31.9905
30.9612 31.8127
31.0076 31.5354
31.0538 31.363
31.1002 31.2657
31.1464 31.1729
31.1928 31.1286
31.2391 31.1469
31.2855 30.9583
31.3317 30.8808
31.3781 30.8703
31.4244 30.8229
31.4708 30.7407
31.5171 30.7942
31.5636 30.8662
31.6098 30.9032
31.6563 30.749
31.7026 30.4361
31.7491 30.3049
31.7953 30.1768
31.8418 30.2643
31.8881 30.1568
31.9346 30.0902
31.9809 29.9754
32.0275 29.986
32.074 29.9895
32.1203 29.8991
32.1668 29.751
32.2132 29.5585
32.2597 29.4223
32.306 29.4025
32.3526 29.0756
32.399 28.9935
32.4455 28.809
32.4919 28.7409
32.5385 28.7083
32.5848 28.4583
32.6314 28.596
32.6778 28.4731
32.7244 28.3481
32.7708 28.2746
32.8174 28.2911
32.8638 28.1152
32.9104 28.0629
32.9569 28.1036
33.0035 27.8956
33.0499 27.8478
33.0966 27.7747
33.143 27.7615
33.1897 27.6699
33.2361 27.6707
33.2828 27.6642
33.3293 27.4244
33.3759 27.517
33.4226 27.3999
33.4691 27.2662
33.5158 27.1957
33.5623 27.0408
33.609 26.7923
33.6555 26.7578
33.7022 26.6032
33.7487 26.5246
33.7954 26.5213
33.842 26.4589
33.8887 26.3703
33.9353 26.235
33.982 26.2324
34.0286 26.1154
34.0753 26.1151
34.1219 25.9234
34.1687 25.8191
34.2152 25.8254
34.262 25.6375
34.3086 25.5547
34.3554 25.5803
34.402 25.4304
34.4488 25.2922
34.4954 25.3749
34.5422 25.2623
34.5889 25.074
34.6357 25.0133
34.6825 24.9221
34.7292 24.8862
34.776 24.8075
34.8227 24.6992
34.8695 24.6728
34.9162 24.6069
34.9631 24.5543
35.0098 24.5223
35.0566 24.4035
35.1033 24.269
35.1502 24.3329
35.1969 24.2153
35.2438 24.1895
35.2906 24.0913
35.3375 24.016
35.3842 23.9938
35.4311 24.0101
35.4779 23.9765
35.5248 23.8866
35.5716 23.8103
35.6185 23.7476
35.6653 23.6979
35.7123 23.5627
35.759 23.4987
35.806 23.4519
35.8528 23.2911
35.8998 23.1779
35.9468 23.2313
35.9936 23.1374
36.0406 23.0068
36.0874 23.0577
36.1345 22.9861
36.1813 22.905
36.2283 22.7155
36.2752 22.7202
36.3222 22.686
36.3691 22.633
36.4161 22.4881
36.463 22.437
36.5101 22.4843
36.557 22.3754
36.6041 22.2359
36.651 22.2
36.6981 22.2229
36.745 22.1119
36.7921 22.0765
36.839 21.9074
36.8861 21.8882
36.9331 21.818
36.9802 21.7369
37.0272 21.6486
37.0743 21.5951
37.1213 21.5021
37.1684 21.4393
37.2154 21.4315
37.2626 21.2429
37.3098 21.2498
37.3568 21.2327
37.404 21.1218
37.451 20.9832
37.4982 20.907
37.5452 20.9076
37.5924 20.8509
37.6395 20.878
37.6867 20.7306
37.7337 20.6374
37.781 20.6397
37.8281 20.5828
37.8753 20.464
37.9224 20.3082
37.9697 20.2404
38.0168 20.2198
38.064 20.1446
38.1111 20.0796
38.1584 20.0093
38.2056 20.0379
38.2529 19.9097
38.3 19.8161
38.3473 19.8624
38.3945 19.7136
38.4418 19.6809
38.489 19.629
38.5363 19.5549
38.5837 19.4372
38.6309 19.4424
38.6782 19.3668
38.7254 19.2627
38.7728 19.2106
38.82 19.1494
38.8674 19.1344
38.9146 19.0615
38.9621 18.9464
39.0093 18.9394
39.0567 18.8547
39.104 18.7949
39.1514 18.7526
39.1987 18.7037
39.2461 18.6243
39.2934 18.5707
39.3409 18.5259
39.3882 18.4089
39.4356 18.3798
39.483 18.3106
39.5304 18.257
39.5778 18.2345
39.6253 18.1548
39.6726 18.0645
39.7201 18.0099
39.7675 18.0021
39.815 17.9872
39.8624 17.8406
39.9099 17.8483
39.9575 17.7528
40.0049 17.7476
40.0525 17.6841
40.0999 17.6467
40.1474 17.6046
40.1949 17.4719
40.2425 17.3823
40.2899 17.387
40.3375 17.3261
40.385 17.2898
40.4326 17.2354
40.48 17.1341
40.5277 17.1347
40.5752 17.0703
40.6228 16.9085
40.6703 16.9169
40.718 16.9041
40.7655 16.8054
40.8132 16.7808
40.8607 16.7547
40.9084 16.7217
40.9559 16.6215
41.0036 16.6125
41.0512 16.5613
41.0989 16.5357
41.1465 16.4479
41.1942 16.4086
41.242 16.336
41.2896 16.2688
41.3373 16.1378
41.3849 16.1751
41.4327 16.1142
41.4803 15.9624
41.5281 15.9934
41.5758 15.9504
41.6236 15.7936
41.6712 15.8195
41.7191 15.7211
41.7667 15.7599
41.8146 15.6798
41.8622 15.6038
41.9101 15.5966
41.9578 15.5171
42.0057 15.4801
42.0534 15.4125
42.1013 15.3094
42.149 15.2631
42.1969 15.2151
42.2446 15.1455
42.2925 15.1364
42.3403 15.1238
42.3882 15.0556
42.436 15.0485
42.4839 14.9537
42.5319 14.9322
42.5797 14.8509
42.6277 14.7537
42.6755 14.7193
42.7235 14.705
42.7713 14.6555
42.8193 14.5977
42.8671 14.5672
42.9152 14.4859
42.963 14.418
43.0111 14.3659
43.0589 14.3189
43.107 14.2632
43.1549 14.2267
43.2029 14.2004
43.2508 14.1507
43.2989 14.0673
43.3468 14.0494
43.3949 13.9835
43.4429 13.9832
43.491 13.8879
43.5389 13.8531
43.5871 13.8034
43.635 13.747
43.6832 13.7338
43.7312 13.6493
43.7793 13.5689
43.8273 13.6077
43.8755 13.5436
43.9237 13.485
43.9717 13.4205
44.0199 13.3943
44.068 13.3449
44.1162 13.2969
44.1642 13.2964
44.2125 13.236
44.2606 13.146
44.3088 13.0552
44.3569 13.0417
44.4052 13.0589
44.4533 12.9214
44.5016 12.9172
44.5497 12.8659
44.598 12.8662
44.6461 12.801
44.6945 12.7449
44.7426 12.6644
44.791 12.5992
44.8391 12.5981
44.8875 12.5661
44.9357 12.5547
44.984 12.472
45.0322 12.4235
45.0806 12.3698
45.1288 12.3228
45.1773 12.2831
45.2257 12.2705
45.2739 12.2139
45.3224 12.1725
45.3706 12.1453
45.4191 12.0604
45.4673 12.0005
45.5158 12.06
45.5641 11.9181
45.6126 11.9276
45.6609 11.8988
45.7094 11.788
45.7577 11.7727
45.8063 11.697
45.8546 11.6859
45.9031 11.6845
45.9515 11.6497
46.0001 11.5322
46.0484 11.5133
46.097 11.4901
46.1454 11.4528
46.194 11.4305
46.2424 11.4011
46.291 11.3354
46.3395 11.2447
46.3881 11.2533
46.4365 11.2017
46.4852 11.1804
46.5337 11.1494
46.5823 11.0918
46.631 10.9935
46.6795 10.9877
46.7282 10.9652
46.7767 10.854
46.8254 10.8565
46.8739 10.8104
46.9226 10.7663
46.9712 10.7414
47.0199 10.7005
47.0685 10.6654
47.1173 10.6159
47.1658 10.61
47.2146 10.5753
47.2632 10.4836
47.312 10.4937
47.3606 10.4226
47.4095 10.4001
47.4581 10.3733
47.5069 10.328
47.5556 10.3055
47.6044 10.2444
47.6531 10.1958
47.702 10.1465
47.7507 10.1367
47.7996 10.1039
47.8483 10.0569
47.8972 10.077
47.9461 9.99014
47.9948 9.96267
48.0438 9.91555
48.0925 9.89902
48.1415 9.84101
48.1902 9.81581
48.2392 9.7803
48.288 9.75446
48.337 9.71078
48.3858 9.66408
48.4348 9.61657
48.4837 9.60085
48.5327 9.59902
48.5815 9.51803
48.6306 9.51523
48.6795 9.48862
48.7285 9.45259
48.7774 9.40317
48.8265 9.35959
48.8754 9.32769
48.9245 9.30411
48.9734 9.28527
49.0226 9.20935
49.0715 9.18228
49.1206 9.16403
49.1696 9.13086
49.2188 9.04517
49.2679 9.04718
49.3169 8.99912
49.3661 8.97412
49.4151 8.94284
49.4643 8.87672
49.5134 8.90298
49.5626 8.80987
49.6117 8.83
49.6609 8.7831
49.71 8.7487
49.7592 8.67268
49.8083 8.68358
49.8576 8.66032
49.9067 8.58524
49.956 8.60339
50.0052 8.54694
50.0545 8.53234
50.1036 8.48605
50.153 8.42791
50.2022 8.42156
50.2515 8.3813
50.3007 8.32967
50.3501 8.2912
50.3993 8.2706
50.4487 8.26395
50.498 8.22812
50.5474 8.17592
50.5966 8.13965
50.6461 8.151
50.6955 8.12103
50.7448 8.0682
50.7943 8.04209
50.8436 8.01565
50.8931 7.97216
50.9424 7.95407
50.9919 7.89776
51.0413 7.90766
51.0908 7.82636
51.1402 7.80056
51.1897 7.76811
51.2391 7.79096
51.2887 7.71195
51.3381 7.66242
51.3877 7.69609
51.4371 7.58119
51.4867 7.56277
51.5362 7.60127
51.5858 7.54005
51.6353 7.46624
51.6849 7.46077
51.7344 7.45621
51.7841 7.39991
51.8336 7.39605
51.8833 7.35816
51.9328 7.28545
51.9826 7.27843
52.0323 7.272
52.0818 7.2239
52.1316 7.15929
52.1812 7.18929
52.231 7.11795
52.2806 7.1118
52.3304 7.07626
52.38 7.04607
52.4298 6.99025
52.4794 6.97551
52.5293 6.96206
52.5789 6.9167
52.6288 6.92916
52.6785 6.85151
52.7284 6.83133
52.7781 6.79972
52.828 6.80749
52.8777 6.75937
52.9276 6.74235
52.9774 6.71588
53.0273 6.68115
53.0771 6.63147
53.1271 6.63123
53.1769 6.60807
53.2269 6.60555
53.2767 6.55291
53.3267 6.57011
53.3765 6.49404
53.4266 6.50056
53.4766 6.40802
53.5265 6.36484
53.5765 6.39273
53.6264 6.34117
53.6765 6.32152
53.7264 6.30001
53.7765 6.26964
53.8265 6.19024
53.8766 6.20393
53.9266 6.19179
53.9767 6.1695
54.0267 6.10316
54.0769 6.07801
54.1269 6.07858
54.1771 6.03016
54.2271 5.95934
54.2773 5.95983
54.3274 5.90909
54.3776 5.87029
54.4277 5.8359
54.478 5.804
54.528 5.72905
54.5783 5.7098
54.6285 5.66339
54.6788 5.65789
54.7289 5.59342
54.7792 5.50028
54.8296 5.45534
54.8798 5.43416
54.9301 5.4138
54.9803 5.38419
55.0307 5.3436
55.0809 5.30361
55.1314 5.24405
55.1816 5.18755
55.232 5.1419
55.2823 5.10222
55.3328 5.04965
55.383 4.99397
55.4335 4.93724
55.4838 4.89381
55.5344 4.84117
55.5847 4.8072
55.6352 4.78582
55.6856 4.81658
55.7361 4.67242