File: XRD/Ni3Fe_FD0338.xy
TT I
1.27165 7.12784
1.31627 6.88361
1.36089 7.44688
1.40551 6.06234
1.45013 6.79977
1.49476 6.56889
1.53938 6.18168
1.584 5.61364
1.62863 5.55426
1.67325 5.55745
1.71787 5.37186
1.7625 5.49176
1.80712 5.2156
1.85174 5.45272
1.89636 5.34487
1.94099 5.40354
1.98562 5.09961
2.03025 4.71221
2.07487 4.62037
2.11949 4.78516
2.16411 4.82773
2.20874 11.7136
2.25338 16.1705
2.298 5.12003
2.34263 5.00542
2.38725 5.22674
2.43188 4.74302
2.4765 6.30514
2.52115 6.14008
2.56577 7.07571
2.6104 6.91
2.65503 7.06495
2.69965 7.27415
2.7443 6.99662
2.78893 7.67062
2.83356 8.28512
2.87818 7.95793
2.92281 9.17473
2.96744 9.69757
3.01209 10.2963
3.05672 11.4667
3.10135 12.4833
3.14599 12.7425
3.19062 14.2017
3.23527 14.8534
3.2799 16.0674
3.32454 16.8982
3.36917 18.2676
3.4138 18.8564
3.45844 19.8905
3.50309 21.8006
3.54773 21.9413
3.59237 23.6685
3.637 68.8677
3.68164 46.747
3.7263 26.3955
3.77094 26.7049
3.81558 27.5371
3.86022 28.1089
3.90486 29.2586
3.9495 29.907
3.99416 31.3874
4.0388 33.0887
4.08344 34.3664
4.12809 35.3899
4.17273 37.3425
4.21738 42.1434
4.26204 177.11
4.30669 152.03
4.35133 47.4858
4.39598 44.8436
4.44063 51.6868
4.4853 60.2851
4.52995 51.9256
4.5746 52.9704
4.61925 54.9413
4.6639 56.9087
4.70855 59.9204
4.75322 63.3531
4.79788 66.1151
4.84253 70.0554
4.88719 74.194
4.93184 78.4724
4.97652 84.5234
5.02118 91.6343
5.06583 101.187
5.11049 115.628
5.15515 178.729
5.19981 579.104
5.24449 3619.7
5.28916 11403.0
5.33382 3514.66
5.37848 226.569
5.42315 139.213
5.46783 121.692
5.5125 111.399
5.55716 106.408
5.60183 102.032
5.6465 100.339
5.69117 98.3844
5.73586 96.0533
5.78053 97.2832
5.8252 96.6155
5.86988 98.0071
5.91455 101.64
5.95924 115.77
6.00392 309.353
6.0486 1263.77
6.09328 4081.48
6.13795 3429.09
6.18263 287.871
6.22733 100.484
6.27201 86.345
6.3167 95.6614
6.36138 79.5405
6.40606 71.3264
6.45075 69.7517
6.49545 67.4844
6.54014 65.591
6.58483 64.658
6.62952 64.198
6.67421 83.9572
6.71892 115.754
6.76361 66.1647
6.8083 60.0706
6.853 59.041
6.89769 58.0327
6.94239 57.6159
6.98711 57.2153
7.03181 56.3519
7.07651 56.5387
7.12121 56.4838
7.16591 56.551
7.21063 56.5503
7.25533 66.5247
7.30004 136.89
7.34475 80.0716
7.38945 57.1665
7.43416 55.5873
7.47889 55.4182
7.5236 55.7568
7.56831 56.579
7.61303 57.973
7.65774 58.11
7.70247 57.593
7.74719 57.612
7.79191 58.0192
7.83663 58.4356
7.88135 59.1461
7.92607 60.3678
7.97081 61.388
8.01553 62.5895
8.06026 63.9695
8.10498 65.8982
8.14971 72.9574
8.19446 72.4863
8.23919 72.02
8.28392 74.376
8.32865 76.8987
8.37339 81.3769
8.41812 88.7116
8.46288 114.718
8.50761 217.694
8.55235 493.297
8.59709 1168.65
8.64183 2118.14
8.68658 1060.57
8.73134 183.504
8.77609 104.656
8.82083 96.2702
8.86558 92.6011
8.91033 92.3398
8.9551 92.0237
8.99985 87.9009
9.04461 86.0216
9.08936 85.6816
9.13412 84.5928
9.17888 84.6263
9.22365 85.0771
9.26841 84.4512
9.31318 85.9367
9.35794 85.6775
9.4027 86.123
9.44749 87.1211
9.49226 87.7435
9.53703 88.264
9.5818 90.2301
9.62657 94.1344
9.67134 98.5192
9.71614 96.1322
9.76091 97.3797
9.80569 100.328
9.85047 103.77
9.89525 121.817
9.94005 138.885
9.98484 227.237
10.0296 432.617
10.0744 861.939
10.1192 1600.36
10.164 1665.79
10.2088 485.751
10.2536 136.666
10.2984 116.079
10.3432 115.639
10.388 109.787
10.4328 134.774
10.4776 185.75
10.5224 295.026
10.5672 482.414
10.612 524.78
10.6568 216.103
10.7017 100.892
10.7465 89.7018
10.7913 85.9454
10.8361 83.6493
10.8809 81.2161
10.9257 80.2535
10.9706 80.1776
11.0154 76.8143
11.0602 74.7074
11.105 74.0679
11.1499 75.9759
11.1947 80.6101
11.2395 73.9848
11.2844 71.6505
11.3292 69.2265
11.374 67.9629
11.4189 67.3429
11.4637 66.8796
11.5086 66.7066
11.5534 68.6501
11.5983 66.7335
11.6431 65.2464
11.688 64.5313
11.7328 64.8644
11.7777 64.5447
11.8225 64.2421
11.8674 64.2794
11.9122 64.5082
11.9571 65.0532
12.002 66.3009
12.0468 73.1159
12.0917 86.6513
12.1366 109.261
12.1814 149.339
12.2263 200.095
12.2712 176.052
12.3161 98.6995
12.3609 71.5072
12.4058 66.2883
12.4507 66.2553
12.4956 66.0974
12.5405 66.4634
12.5853 67.2661
12.6302 72.3194
12.6751 76.3452
12.72 70.9251
12.7649 69.8917
12.8098 70.3317
12.8547 71.8333
12.8996 73.5436
12.9445 74.7723
12.9894 76.5923
13.0343 78.5499
13.0792 82.6935
13.1242 97.8528
13.1691 126.524
13.214 166.787
13.2589 244.984
13.3038 351.392
13.3487 424.075
13.3937 282.633
13.4386 133.251
13.4835 117.019
13.5285 135.466
13.5734 172.748
13.6183 242.538
13.6633 331.94
13.7082 343.552
13.7531 202.932
13.7981 102.676
13.843 84.6295
13.888 82.0408
13.9329 79.4643
13.9779 78.2132
14.0228 76.5959
14.0678 75.1125
14.1127 74.8129
14.1577 74.3117
14.2027 73.3836
14.2476 72.6853
14.2926 72.43
14.3376 73.3944
14.3825 71.8739
14.4275 71.1601
14.4725 70.7575
14.5175 71.0366
14.5624 71.1739
14.6074 72.8297
14.6524 73.5744
14.6974 72.8852
14.7424 76.3047
14.7874 85.7385
14.8324 97.634
14.8774 119.16
14.9224 153.676
14.9674 198.894
15.0124 218.279
15.0574 155.834
15.1024 94.9448
15.1474 74.5475
15.1924 72.2916
15.2374 72.5117
15.2824 71.9704
15.3274 69.6294
15.3725 68.8768
15.4175 68.5405
15.4625 68.0387
15.5076 68.081
15.5526 68.072
15.5976 68.1363
15.6426 70.6042
15.6877 78.1657
15.7327 87.1175
15.7778 102.596
15.8228 128.369
15.8679 163.058
15.9129 191.698
15.958 165.055
16.003 103.096
16.0481 70.2082
16.0931 65.9212
16.1382 63.9518
16.1833 62.142
16.2283 60.6051
16.2734 60.1209
16.3185 59.9167
16.3636 60.1239
16.4086 58.9396
16.4537 57.824
16.4988 57.1514
16.5439 56.9808
16.589 56.7149
16.6341 56.5282
16.6792 56.092
16.7243 56.4276
16.7694 56.3164
16.8145 56.323
16.8596 56.6874
16.9047 57.9171
16.9498 58.1826
16.9949 57.2227
17.04 57.8534
17.0851 59.5453
17.1302 61.3322
17.1754 64.5032
17.2205 68.9226
17.2656 74.7919
17.3108 82.8791
17.3559 84.4501
17.401 74.2915
17.4462 64.444
17.4913 61.2162
17.5365 60.7847
17.5815 61.0603
17.6268 61.4262
17.6718 62.2479
17.7171 62.8205
17.7622 63.3162
17.8074 64.4522
17.8525 68.1586
17.8977 72.7693
17.9428 78.941
17.9881 87.8542
18.0331 102.124
18.0784 119.533
18.1237 139.904
18.1688 138.11
18.214 111.18
18.2591 91.1262
18.3044 91.5703
18.3495 99.03
18.3948 106.525
18.4399 99.3101
18.4852 80.3375
18.5303 68.058
18.5756 64.1524
18.6207 63.2822
18.666 62.1919
18.7112 61.5777
18.7565 60.9131
18.8016 60.5157
18.8469 59.6336
18.892 59.3884
18.9374 59.0976
18.9825 58.7083
19.0278 58.4446
19.073 58.9437
19.1183 59.5184
19.1635 60.5429
19.2088 62.0122
19.254 64.3837
19.2993 67.9718
19.3447 72.6414
19.3898 77.1306
19.4352 74.8389
19.4804 66.0502
19.5257 58.8233
19.5709 55.9415
19.6163 55.4198
19.6615 55.3417
19.7068 55.0117
19.752 55.049
19.7974 55.5733
19.8426 56.648
19.888 57.3026
19.9332 58.3273
19.9786 60.8725
20.0238 64.0016
20.0692 67.8418
20.1144 71.3654
20.1598 71.1656
20.205 66.4059
20.2504 63.635
20.2957 64.4395
20.3411 66.6863
20.3863 65.9203
20.4318 60.2614
20.477 55.5307
20.5224 52.9909
20.5677 52.5117
20.6131 51.7704
20.6586 51.1453
20.7038 51.0433
20.7493 50.5844
20.7945 50.4945
20.84 50.4563
20.8853 50.1632
20.9307 50.167
20.976 50.2615
21.0215 50.2691
21.0668 50.4991
21.1122 51.0317
21.1575 51.5451
21.203 52.0006
21.2483 53.0713
21.2938 53.1272
21.3391 51.877
21.3846 50.7386
21.4299 49.9932
21.4754 49.9848
21.5207 50.2192
21.5662 50.5583
21.6116 51.2238
21.6571 51.9818
21.7024 53.1402
21.7479 54.6232
21.7933 57.2233
21.8388 59.9882
21.8843 63.4043
21.9297 66.2674
21.9752 65.9206
22.0206 61.7953
22.0661 57.9495
22.1115 57.4149
22.157 57.4527
22.2024 56.1602
22.248 53.2119
22.2933 51.5635
22.3389 50.7868
22.3843 50.4507
22.4299 50.3541
22.4753 50.3404
22.5208 49.988
22.5662 50.0299
22.6118 50.345
22.6572 50.5478
22.7028 51.0956
22.7483 51.6531
22.7939 52.3558
22.8393 53.6301
22.8849 55.3992
22.9303 57.0326
22.9759 59.0347
23.0214 59.0474
23.067 56.4381
23.1126 53.0036
23.1581 50.6975
23.2037 50.276
23.2492 50.7697
23.2948 50.8052
23.3403 50.8924
23.3859 51.7055
23.4314 52.6351
23.477 54.0974
23.5225 55.7719
23.5682 57.6039
23.6137 59.1013
23.6593 57.5637
23.7048 53.4896
23.7505 49.7774
23.796 48.0555
23.8417 47.4387
23.8872 46.9999
23.9329 46.7087
23.9784 46.2675
24.0241 46.0355
24.0697 45.8418
24.1154 45.342
24.1609 45.4807
24.2066 45.1493
24.2522 45.1497
24.2979 44.7673
24.3434 44.7
24.3892 44.4878
24.4349 44.324
24.4805 44.2372
24.5262 44.3889
24.5718 44.2246
24.6175 44.2882
24.6631 44.1933
24.7089 43.6921
24.7545 43.6175
24.8002 43.6276
24.8458 43.4259
24.8916 43.5268
24.9372 43.7964
24.983 43.9296
25.0286 44.1709
25.0744 44.5763
25.12 45.1497
25.1658 45.7819
25.2114 45.9614
25.2572 46.072
25.3029 45.8679
25.3487 46.0156
25.3943 45.9916
25.4402 45.1213
25.4858 43.874
25.5316 42.7327
25.5773 42.0891
25.6231 42.1462
25.669 41.6643
25.7147 41.8257
25.7605 41.7428
25.8062 41.8664
25.8521 41.9261
25.8977 41.9702
25.9436 42.1265
25.9893 42.1731
26.0352 42.5437
26.0809 42.6623
26.1268 42.9034
26.1725 42.6583
26.2184 41.969
26.2641 41.506
26.31 41.454
26.3557 41.4495
26.4017 41.5474
26.4474 41.7853
26.4933 42.0122
26.5391 42.4369
26.585 42.7778
26.6308 43.0819
26.6767 43.4062
26.7225 43.2793
26.7684 42.6315
26.8142 42.0109
26.8601 41.7015
26.9059 41.2625
26.9519 40.6751
26.9979 40.4611
27.0437 40.0712
27.0896 39.9441
27.1354 39.9488
27.1814 39.8317
27.2272 39.6235
27.2732 39.7336
27.3191 39.5099
27.3651 39.6386
27.4109 39.5436
27.4569 39.6362
27.5027 39.6611
27.5488 39.7321
27.5946 39.5653
27.6407 39.4241
27.6865 39.3898
27.7326 39.0234
27.7784 39.1278
27.8245 39.0655
27.8703 39.1908
27.9164 39.5011
27.9623 39.496
28.0084 39.8077
28.0543 40.2377
28.1003 40.2146
28.1462 40.1077
28.1923 39.4939
28.2384 39.0272
28.2843 38.7405
28.3304 38.2357
28.3764 37.9084
28.4225 37.4859
28.4684 37.2625
28.5145 37.0948
28.5605 36.8758
28.6066 36.77
28.6526 36.7876
28.6987 36.6845
28.7447 36.534
28.7908 36.4384
28.8368 36.4382
28.8829 36.4425
28.9289 36.3685
28.9751 36.2034
29.0211 36.0152
29.0673 35.6903
29.1133 35.6193
29.1595 35.4407
29.2055 35.3305
29.2517 35.2696
29.2977 35.2913
29.3439 35.204
29.3899 35.1541
29.4361 35.1394
29.4824 35.0117
29.5284 34.7714
29.5746 34.3069
29.6207 34.1816
29.6669 34.0228
29.713 33.9352
29.7593 33.8353
29.8053 33.8304
29.8516 33.7492
29.8977 33.729
29.9439 33.6176
29.99 33.6355
30.0363 33.432
30.0824 33.5025
30.1287 33.4515
30.1748 33.3882
30.2211 33.4425
30.2673 33.1928
30.3136 33.2467
30.3597 33.2393
30.406 33.3007
30.4522 33.0283
30.4985 32.9777
30.5447 33.0793
30.591 33.0597
30.6372 33.0883
30.6835 33.0746
30.7297 33.234
30.7761 33.1013
30.8224 32.9413
30.8686 32.8858
30.915 32.5626
30.9612 32.484
31.0076 32.2211
31.0538 32.051
31.1002 32.0623
31.1464 31.9175
31.1928 31.8701
31.2391 31.9501
31.2855 31.8109
31.3317 31.7567
31.3781 31.7039
31.4244 31.7279
31.4708 31.6549
31.5171 31.6874
31.5636 31.7113
31.6098 31.3978
31.6563 31.2386
31.7026 31.1256
31.7491 30.9196
31.7953 31.1147
31.8418 31.1096
31.8881 31.0775
31.9346 30.8834
31.9809 30.8519
32.0275 30.8111
32.074 30.7007
32.1203 30.4913
32.1668 30.3924
32.2132 30.2447
32.2597 30.2126
32.306 29.943
32.3526 29.8017
32.399 29.7885
32.4455 29.649
32.4919 29.5351
32.5385 29.5164
32.5848 29.3058
32.6314 29.2982
32.6778 29.3334
32.7244 29.1633
32.7708 29.0609
32.8174 28.8951
32.8638 28.8719
32.9104 28.906
32.9569 28.8024
33.0035 28.6057
33.0499 28.7615
33.0966 28.5887
33.143 28.617
33.1897 28.5189
33.2361 28.4975
33.2828 28.434
33.3293 28.1941
33.3759 28.1278
33.4226 28.0368
33.4691 27.8713
33.5158 27.7945
33.5623 27.7231
33.609 27.5115
33.6555 27.4713
33.7022 27.417
33.7487 27.3092
33.7954 27.3109
33.842 27.2282
33.8887 27.1572
33.9353 26.9795
33.982 26.9756
34.0286 26.8117
34.0753 26.7601
34.1219 26.7073
34.1687 26.5424
34.2152 26.5983
34.262 26.4387
34.3086 26.4058
34.3554 26.2192
34.402 26.17
34.4488 25.9628
34.4954 26.0457
34.5422 25.8582
34.5889 25.76
34.6357 25.688
34.6825 25.7164
34.7292 25.6029
34.776 25.4567
34.8227 25.3884
34.8695 25.3873
34.9162 25.3912
34.9631 25.237
35.0098 25.2175
35.0566 25.1074
35.1033 25.0798
35.1502 25.0329
35.1969 24.9521
35.2438 24.8844
35.2906 24.8719
35.3375 24.748
35.3842 24.715
35.4311 24.6549
35.4779 24.6291
35.5248 24.5786
35.5716 24.5113
35.6185 24.4874
35.6653 24.3077
35.7123 24.1864
35.759 24.192
35.806 24.0283
35.8528 23.8684
35.8998 23.9269
35.9468 23.7844
35.9936 23.8703
36.0406 23.6769
36.0874 23.6305
36.1345 23.5599
36.1813 23.4992
36.2283 23.4069
36.2752 23.3691
36.3222 23.3622
36.3691 23.1324
36.4161 23.019
36.463 23.0679
36.5101 23.0762
36.557 23.0351
36.6041 22.7809
36.651 22.8471
36.6981 22.7314
36.745 22.646
36.7921 22.7053
36.839 22.5194
36.8861 22.49
36.9331 22.2846
36.9802 22.3239
37.0272 22.205
37.0743 22.1079
37.1213 22.1202
37.1684 22.0821
37.2154 21.9838
37.2626 21.8127
37.3098 21.8524
37.3568 21.7107
37.404 21.571
37.451 21.6265
37.4982 21.5736
37.5452 21.4037
37.5924 21.3815
37.6395 21.405
37.6867 21.2843
37.7337 21.212
37.781 21.1989
37.8281 21.1261
37.8753 20.9889
37.9224 20.9032
37.9697 20.7831
38.0168 20.7522
38.064 20.773
38.1111 20.625
38.1584 20.551
38.2056 20.5838
38.2529 20.5489
38.3 20.4049
38.3473 20.3922
38.3945 20.3079
38.4418 20.2584
38.489 20.1648
38.5363 20.0862
38.5837 20.0356
38.6309 20.0028
38.6782 19.8533
38.7254 19.7394
38.7728 19.8152
38.82 19.7271
38.8674 19.6301
38.9146 19.558
38.9621 19.4676
39.0093 19.3964
39.0567 19.3725
39.104 19.3175
39.1514 19.272
39.1987 19.2194
39.2461 19.1421
39.2934 19.1925
39.3409 18.9482
39.3882 18.9537
39.4356 18.9139
39.483 18.8913
39.5304 18.7879
39.5778 18.7636
39.6253 18.6077
39.6726 18.6335
39.7201 18.5316
39.7675 18.5237
39.815 18.4922
39.8624 18.3818
39.9099 18.3606
39.9575 18.2881
40.0049 18.2078
40.0525 18.1736
40.0999 18.0766
40.1474 18.0806
40.1949 17.9579
40.2425 17.8931
40.2899 17.9212
40.3375 17.8449
40.385 17.7105
40.4326 17.709
40.48 17.6099
40.5277 17.6488
40.5752 17.5172
40.6228 17.4509
40.6703 17.428
40.718 17.3127
40.7655 17.3188
40.8132 17.2165
40.8607 17.2192
40.9084 17.1667
40.9559 17.1327
41.0036 17.0584
41.0512 17.0006
41.0989 16.942
41.1465 16.8464
41.1942 16.8472
41.242 16.7293
41.2896 16.6639
41.3373 16.6266
41.3849 16.6128
41.4327 16.5002
41.4803 16.4258
41.5281 16.3882
41.5758 16.3507
41.6236 16.3014
41.6712 16.3104
41.7191 16.1917
41.7667 16.2035
41.8146 16.1284
41.8622 16.0129
41.9101 15.9729
41.9578 15.8959
42.0057 15.8873
42.0534 15.8201
42.1013 15.7982
42.149 15.7068
42.1969 15.6041
42.2446 15.611
42.2925 15.567
42.3403 15.5337
42.3882 15.4632
42.436 15.4409
42.4839 15.3208
42.5319 15.3201
42.5797 15.2778
42.6277 15.1755
42.6755 15.1834
42.7235 15.1139
42.7713 15.0521
42.8193 14.9841
42.8671 14.935
42.9152 14.8807
42.963 14.8448
43.0111 14.7258
43.0589 14.7194
43.107 14.6861
43.1549 14.6638
43.2029 14.583
43.2508 14.5388
43.2989 14.4918
43.3468 14.4513
43.3949 14.3831
43.4429 14.362
43.491 14.2815
43.5389 14.2197
43.5871 14.1632
43.635 14.1036
43.6832 14.052
43.7312 14.0337
43.7793 13.9989
43.8273 13.9436
43.8755 13.875
43.9237 13.8175
43.9717 13.7946
44.0199 13.7368
44.068 13.7328
44.1162 13.6152
44.1642 13.6188
44.2125 13.5938
44.2606 13.4861
44.3088 13.4694
44.3569 13.3721
44.4052 13.3782
44.4533 13.3029
44.5016 13.2504
44.5497 13.2419
44.598 13.2033
44.6461 13.1304
44.6945 13.0866
44.7426 13.0847
44.791 12.9563
44.8391 12.9376
44.8875 12.9063
44.9357 12.869
44.984 12.778
45.0322 12.7458
45.0806 12.7336
45.1288 12.6937
45.1773 12.6219
45.2257 12.5696
45.2739 12.5568
45.3224 12.5168
45.3706 12.4717
45.4191 12.3541
45.4673 12.3623
45.5158 12.3849
45.5641 12.2835
45.6126 12.2117
45.6609 12.1726
45.7094 12.1284
45.7577 12.1088
45.8063 12.0624
45.8546 12.0523
45.9031 11.9923
45.9515 11.9499
46.0001 11.9056
46.0484 11.8458
46.097 11.8557
46.1454 11.7641
46.194 11.724
46.2424 11.6456
46.291 11.6182
46.3395 11.5931
46.3881 11.5468
46.4365 11.5232
46.4852 11.4736
46.5337 11.4265
46.5823 11.3943
46.631 11.3487
46.6795 11.3356
46.7282 11.259
46.7767 11.2388
46.8254 11.1585
46.8739 11.1413
46.9226 11.0974
46.9712 11.0307
47.0199 11.0092
47.0685 10.9512
47.1173 10.9029
47.1658 10.8833
47.2146 10.8334
47.2632 10.7775
47.312 10.7672
47.3606 10.7068
47.4095 10.6711
47.4581 10.6481
47.5069 10.6262
47.5556 10.5353
47.6044 10.5288
47.6531 10.4996
47.702 10.4125
47.7507 10.4242
47.7996 10.3624
47.8483 10.3427
47.8972 10.3337
47.9461 10.3175
47.9948 10.1972
48.0438 10.2091
48.0925 10.2004
48.1415 10.0725
48.1902 10.0462
48.2392 10.0246
48.288 10.067
48.337 9.94893
48.3858 9.95278
48.4348 9.93301
48.4837 9.89375
48.5327 9.83474
48.5815 9.79535
48.6306 9.77477
48.6795 9.71154
48.7285 9.67487
48.7774 9.67854
48.8265 9.60527
48.8754 9.59271
48.9245 9.54339
48.9734 9.51248
49.0226 9.52125
49.0715 9.44261
49.1206 9.4289
49.1696 9.35186
49.2188 9.35032
49.2679 9.28753
49.3169 9.22264
49.3661 9.25285
49.4151 9.19134
49.4643 9.16452
49.5134 9.09776
49.5626 9.05289
49.6117 9.01394
49.6609 9.04421
49.71 8.95861
49.7592 8.97508
49.8083 8.9271
49.8576 8.89009
49.9067 8.81593
49.956 8.81679
50.0052 8.77085
50.0545 8.73241
50.1036 8.721
50.153 8.68835
50.2022 8.63994
50.2515 8.6334
50.3007 8.54154
50.3501 8.51899
50.3993 8.50292
50.4487 8.44826
50.498 8.48259
50.5474 8.41675
50.5966 8.36634
50.6461 8.32732
50.6955 8.27121
50.7448 8.31088
50.7943 8.25191
50.8436 8.2237
50.8931 8.1708
50.9424 8.15813
50.9919 8.13962
51.0413 8.08847
51.0908 8.06447
51.1402 8.02244
51.1897 7.98165
51.2391 7.95761
51.2887 7.95264
51.3381 7.88906
51.3877 7.87344
51.4371 7.8028
51.4867 7.75781
51.5362 7.76769
51.5858 7.74704
51.6353 7.62922
51.6849 7.67404
51.7344 7.64781
51.7841 7.61242
51.8336 7.57383
51.8833 7.53347
51.9328 7.50156
51.9826 7.44506
52.0323 7.45581
52.0818 7.43909
52.1316 7.40453
52.1812 7.35524
52.231 7.33141
52.2806 7.3084
52.3304 7.27964
52.38 7.24603
52.4298 7.18067
52.4794 7.17829
52.5293 7.1255
52.5789 7.11594
52.6288 7.12043
52.6785 7.02475
52.7284 7.06203
52.7781 7.01487
52.828 6.96186
52.8777 6.93223
52.9276 6.96492
52.9774 6.8832
53.0273 6.8909
53.0771 6.81563
53.1271 6.76567
53.1769 6.79025
53.2269 6.76071
53.2767 6.71207
53.3267 6.68097
53.3765 6.67215
53.4266 6.65058
53.4766 6.57776
53.5265 6.58103
53.5765 6.5495
53.6264 6.52468
53.6765 6.47576
53.7264 6.43635
53.7765 6.44285
53.8265 6.36157
53.8766 6.33664
53.9266 6.33479
53.9767 6.31092
54.0267 6.30045
54.0769 6.2433
54.1269 6.23175
54.1771 6.15862
54.2271 6.18822
54.2773 6.1388
54.3274 6.14832
54.3776 6.04512
54.4277 6.06877
54.478 5.96875
54.528 5.95758
54.5783 5.91079
54.6285 5.89728
54.6788 5.83125
54.7289 5.75324
54.7792 5.73548
54.8296 5.71188
54.8798 5.65338
54.9301 5.59428
54.9803 5.59894
55.0307 5.55012
55.0809 5.50533
55.1314 5.53974
55.1816 5.44101
55.232 5.39901
55.2823 5.36763
55.3328 5.27721
55.383 5.28456
55.4335 5.17417
55.4838 5.13665
55.5344 5.09726
55.5847 5.10017
55.6352 5.01107
55.6856 5.06716
55.7361 4.96895