File: XRD/Ni3Fe_FD0169.xy
TT I
1.27165 7.55078
1.31627 6.84472
1.36089 6.77958
1.40551 5.65555
1.45013 6.50002
1.49476 6.10941
1.53938 6.18312
1.584 6.03884
1.62863 5.58267
1.67325 5.31671
1.71787 5.11192
1.7625 4.78306
1.80712 5.22802
1.85174 4.72731
1.89636 4.90047
1.94099 5.49948
1.98562 5.28321
2.03025 4.58736
2.07487 4.79423
2.11949 4.91789
2.16411 4.82138
2.20874 4.97972
2.25338 4.52911
2.298 4.14321
2.34263 4.43701
2.38725 4.31619
2.43188 4.09846
2.4765 4.82787
2.52115 4.46405
2.56577 4.759
2.6104 5.16864
2.65503 5.41654
2.69965 5.53043
2.7443 6.5833
2.78893 6.71194
2.83356 7.17043
2.87818 7.4041
2.92281 8.99852
2.96744 9.03255
3.01209 10.4192
3.05672 11.6721
3.10135 12.8573
3.14599 12.9854
3.19062 14.076
3.23527 14.986
3.2799 15.9709
3.32454 17.0203
3.36917 17.9079
3.4138 18.9847
3.45844 19.2892
3.50309 20.6266
3.54773 21.1401
3.59237 21.761
3.637 22.8722
3.68164 23.5001
3.7263 24.3429
3.77094 25.1901
3.81558 25.9087
3.86022 26.629
3.90486 28.1467
3.9495 28.7739
3.99416 30.0837
4.0388 30.9971
4.08344 32.4451
4.12809 32.7217
4.17273 34.7246
4.21738 35.7509
4.26204 36.3714
4.30669 38.067
4.35133 40.1533
4.39598 41.7084
4.44063 43.4898
4.4853 44.907
4.52995 48.0279
4.5746 49.1608
4.61925 51.8364
4.6639 53.9321
4.70855 56.7351
4.75322 59.7509
4.79788 62.8001
4.84253 66.8579
4.88719 70.5656
4.93184 75.2825
4.97652 82.5794
5.02118 91.0773
5.06583 101.012
5.11049 117.2
5.15515 152.569
5.19981 530.349
5.24449 3751.75
5.28916 8456.63
5.33382 6140.68
5.37848 418.735
5.42315 160.677
5.46783 126.657
5.5125 113.887
5.55716 108.081
5.60183 101.569
5.6465 98.9642
5.69117 97.2188
5.73586 95.7495
5.78053 95.5747
5.8252 95.5887
5.86988 98.8427
5.91455 104.914
5.95924 122.907
6.00392 282.777
6.0486 1375.0
6.09328 2856.06
6.13795 4015.02
6.18263 659.912
6.22733 119.983
6.27201 88.8922
6.3167 78.4769
6.36138 72.8361
6.40606 68.6604
6.45075 66.5347
6.49545 64.3835
6.54014 62.6665
6.58483 61.4899
6.62952 60.1186
6.67421 58.419
6.71892 57.8154
6.76361 56.8145
6.8083 55.8265
6.853 55.0471
6.89769 54.8584
6.94239 54.6393
6.98711 53.9465
7.03181 53.3832
7.07651 53.0157
7.12121 52.7945
7.16591 52.8334
7.21063 52.2383
7.25533 52.3119
7.30004 52.2885
7.34475 52.2355
7.38945 52.5717
7.43416 52.0804
7.47889 52.5058
7.5236 55.7467
7.56831 62.5221
7.61303 55.3626
7.65774 53.5196
7.70247 54.0167
7.74719 54.6941
7.79191 55.406
7.83663 55.4124
7.88135 56.6445
7.92607 57.2916
7.97081 58.4317
8.01553 59.6105
8.06026 60.6514
8.10498 62.1375
8.14971 63.9485
8.19446 65.6214
8.23919 68.3787
8.28392 71.3889
8.32865 73.9238
8.37339 78.1405
8.41812 83.7865
8.46288 95.6592
8.50761 171.694
8.55235 594.28
8.59709 907.24
8.64183 1553.73
8.68658 1635.0
8.73134 396.523
8.77609 115.88
8.82083 97.1107
8.86558 91.4324
8.91033 87.7779
8.9551 85.234
8.99985 84.2861
9.04461 83.1096
9.08936 83.0067
9.13412 82.0173
9.17888 81.5792
9.22365 86.8209
9.26841 95.2497
9.31318 86.0923
9.35794 82.7938
9.4027 82.3676
9.44749 83.1943
9.49226 84.0138
9.53703 84.9783
9.5818 86.3282
9.62657 87.3775
9.67134 89.0176
9.71614 90.9249
9.76091 93.2685
9.80569 95.5916
9.85047 99.3431
9.89525 104.284
9.94005 113.908
9.98484 184.253
10.0296 539.477
10.0744 749.211
10.1192 1069.68
10.164 1682.95
10.2088 958.892
10.2536 210.664
10.2984 116.402
10.3432 108.211
10.388 104.85
10.4328 121.027
10.4776 213.106
10.5224 264.731
10.5672 343.984
10.612 507.088
10.6568 367.484
10.7017 132.756
10.7465 90.8394
10.7913 83.6875
10.8361 81.4314
10.8809 78.5772
10.9257 75.965
10.9706 74.7384
11.0154 73.103
11.0602 71.4288
11.105 70.4727
11.1499 69.17
11.1947 68.2863
11.2395 67.2038
11.2844 66.5026
11.3292 65.6979
11.374 64.877
11.4189 64.4361
11.4637 63.9968
11.5086 62.8967
11.5534 62.6069
11.5983 62.4003
11.6431 62.2763
11.688 61.6681
11.7328 61.8392
11.7777 61.6633
11.8225 61.5918
11.8674 61.7713
11.9122 62.6715
11.9571 65.8818
12.002 65.209
12.0468 67.6142
12.0917 90.4436
12.1366 108.604
12.1814 120.336
12.2263 155.208
12.2712 195.226
12.3161 136.603
12.3609 74.8701
12.4058 64.2715
12.4507 63.7881
12.4956 63.2414
12.5405 63.2958
12.5853 64.0432
12.6302 64.2247
12.6751 64.7549
12.72 65.5858
12.7649 66.6351
12.8098 67.3262
12.8547 68.5637
12.8996 70.2266
12.9445 71.5143
12.9894 73.262
13.0343 75.5529
13.0792 79.6671
13.1242 86.5705
13.1691 132.398
13.214 186.133
13.2589 208.671
13.3038 253.928
13.3487 360.175
13.3937 380.25
13.4386 205.917
13.4835 118.856
13.5285 153.172
13.5734 181.838
13.6183 197.343
13.6633 245.909
13.7082 338.47
13.7531 303.661
13.7981 150.574
13.843 88.1497
13.888 81.0003
13.9329 77.9319
13.9779 76.5393
14.0228 74.9327
14.0678 73.3147
14.1127 73.1026
14.1577 74.565
14.2027 72.7972
14.2476 70.5998
14.2926 69.7577
14.3376 69.2992
14.3825 69.0594
14.4275 68.5112
14.4725 68.6984
14.5175 68.718
14.5624 68.7949
14.6074 68.987
14.6524 69.3651
14.6974 70.0983
14.7424 71.7499
14.7874 81.0479
14.8324 106.732
14.8774 121.342
14.9224 129.837
14.9674 152.399
15.0124 196.862
15.0574 205.594
15.1024 135.364
15.1474 81.7496
15.1924 71.4547
15.2374 69.3585
15.2824 68.1994
15.3274 67.4727
15.3725 66.7829
15.4175 66.617
15.4625 66.0682
15.5076 65.8328
15.5526 65.7813
15.5976 65.8205
15.6426 66.4822
15.6877 73.8569
15.7327 94.5926
15.7778 107.637
15.8228 112.748
15.8679 127.863
15.9129 158.525
15.958 187.049
16.003 149.525
16.0481 87.5561
16.0931 66.1829
16.1382 61.9209
16.1833 60.7236
16.2283 59.0709
16.2734 58.2705
16.3185 57.5966
16.3636 56.9137
16.4086 56.2511
16.4537 55.9367
16.4988 55.1996
16.5439 55.3739
16.589 54.9493
16.6341 54.7459
16.6792 54.2649
16.7243 54.3839
16.7694 54.4709
16.8145 54.2637
16.8596 54.4522
16.9047 54.8427
16.9498 55.1432
16.9949 55.3682
17.04 55.5038
17.0851 57.1043
17.1302 61.2586
17.1754 64.4639
17.2205 65.6066
17.2656 67.8757
17.3108 73.7421
17.3559 80.3125
17.401 81.1641
17.4462 70.933
17.4913 61.6968
17.5365 59.3556
17.5815 59.3026
17.6268 59.5067
17.6718 60.1265
17.7171 60.5628
17.7622 61.7761
17.8074 62.5295
17.8525 63.9353
17.8977 72.3803
17.9428 83.8648
17.9881 88.8808
18.0331 92.1298
18.0784 100.418
18.1237 117.165
18.1688 142.497
18.214 141.711
18.2591 110.328
18.3044 89.1157
18.3495 87.9387
18.3948 96.6289
18.4399 104.273
18.4852 94.7525
18.5303 75.6744
18.5756 65.0759
18.6207 62.3046
18.666 61.1796
18.7112 60.2765
18.7565 59.6061
18.8016 59.1542
18.8469 58.743
18.892 58.5117
18.9374 57.6766
18.9825 57.2647
19.0278 57.2284
19.073 56.9756
19.1183 57.659
19.1635 59.8279
19.2088 61.9152
19.254 62.9496
19.2993 63.8385
19.3447 66.1017
19.3898 69.8854
19.4352 74.2596
19.4804 72.1986
19.5257 63.5781
19.5709 56.4024
19.6163 54.4993
19.6615 54.0348
19.7068 53.446
19.752 53.6591
19.7974 53.9364
19.8426 55.1
19.888 57.0171
19.9332 58.4697
19.9786 59.0125
20.0238 59.7741
20.0692 62.6909
20.1144 67.8106
20.1598 72.8873
20.205 71.3336
20.2504 65.5763
20.2957 61.6322
20.3411 62.5361
20.3863 65.3649
20.4318 64.3694
20.477 58.8328
20.5224 53.5869
20.5677 51.2723
20.6131 50.5299
20.6586 50.2043
20.7038 50.0143
20.7493 49.4681
20.7945 49.3303
20.84 49.3279
20.8853 49.0853
20.9307 48.7618
20.976 49.0962
21.0215 49.2414
21.0668 49.6743
21.1122 50.0253
21.1575 49.8736
21.203 50.1978
21.2483 50.7836
21.2938 51.8194
21.3391 51.647
21.3846 50.6809
21.4299 49.3111
21.4754 48.9979
21.5207 48.9181
21.5662 49.2395
21.6116 49.6774
21.6571 51.3186
21.7024 53.4343
21.7479 54.3078
21.7933 54.9803
21.8388 56.4434
21.8843 59.1778
21.9297 62.8107
21.9752 66.3633
22.0206 65.9976
22.0661 60.8191
22.1115 56.5901
22.157 56.0197
22.2024 56.7415
22.248 55.2384
22.2933 52.4925
22.3389 50.2258
22.3843 49.4483
22.4299 49.0379
22.4753 49.2137
22.5208 48.9872
22.5662 49.1315
22.6118 49.1803
22.6572 49.3661
22.7028 50.6635
22.7483 51.5511
22.7939 52.1033
22.8393 52.5908
22.8849 53.0969
22.9303 54.0517
22.9759 55.6559
23.0214 57.7702
23.067 58.7461
23.1126 56.137
23.1581 52.3141
23.2037 50.0448
23.2492 49.4262
23.2948 50.0954
23.3403 51.2778
23.3859 51.8827
23.4314 51.9996
23.477 52.3873
23.5225 52.8385
23.5682 54.2288
23.6137 56.3368
23.6593 58.2895
23.7048 57.1347
23.7505 53.2727
23.796 49.4494
23.8417 47.2722
23.8872 46.3148
23.9329 45.8676
23.9784 45.5665
24.0241 45.3526
24.0697 45.0339
24.1154 44.7325
24.1609 44.4647
24.2066 44.3491
24.2522 44.1125
24.2979 43.7957
24.3434 43.6024
24.3892 43.6951
24.4349 43.4139
24.4805 43.2323
24.5262 43.4559
24.5718 43.3076
24.6175 43.2329
24.6631 43.4268
24.7089 43.2937
24.7545 42.9181
24.8002 42.8065
24.8458 42.7472
24.8916 42.6976
24.9372 42.7519
24.983 43.1537
25.0286 43.285
25.0744 43.9166
25.12 44.1535
25.1658 44.6252
25.2114 44.9496
25.2572 45.2103
25.3029 45.2364
25.3487 45.1083
25.3943 45.2047
25.4402 45.3136
25.4858 44.7247
25.5316 43.3123
25.5773 42.0346
25.6231 41.6253
25.669 41.2607
25.7147 41.1238
25.7605 41.0005
25.8062 41.1902
25.8521 41.4779
25.8977 41.3516
25.9436 41.244
25.9893 41.2255
26.0352 41.659
26.0809 41.4715
26.1268 42.0089
26.1725 42.3322
26.2184 42.1663
26.2641 41.6122
26.31 41.1089
26.3557 41.1348
26.4017 41.0004
26.4474 41.1064
26.4933 41.2311
26.5391 41.4501
26.585 41.8856
26.6308 42.0113
26.6767 42.4122
26.7225 43.0619
26.7684 42.8399
26.8142 42.2963
26.8601 41.5309
26.9059 41.0281
26.9519 40.5743
26.9979 40.3251
27.0437 39.912
27.0896 39.5289
27.1354 39.3904
27.1814 39.2119
27.2272 39.2682
27.2732 39.2711
27.3191 38.9512
27.3651 38.937
27.4109 38.8653
27.4569 38.982
27.5027 39.0152
27.5488 39.0943
27.5946 39.1157
27.6407 39.0147
27.6865 38.9614
27.7326 38.6827
27.7784 38.8005
27.8245 38.5733
27.8703 38.6256
27.9164 38.8253
27.9623 38.766
28.0084 39.0032
28.0543 39.2449
28.1003 39.5576
28.1462 39.6788
28.1923 39.6817
28.2384 39.1274
28.2843 38.5773
28.3304 38.4058
28.3764 37.8204
28.4225 37.4448
28.4684 37.0023
28.5145 36.7377
28.5605 36.4508
28.6066 36.135
28.6526 36.2827
28.6987 36.1852
28.7447 35.9818
28.7908 35.7759
28.8368 35.9063
28.8829 35.7723
28.9289 35.8143
28.9751 35.5981
29.0211 35.5008
29.0673 35.3999
29.1133 35.1545
29.1595 34.9651
29.2055 34.811
29.2517 34.7976
29.2977 34.6993
29.3439 34.5763
29.3899 34.5214
29.4361 34.5101
29.4824 34.4719
29.5284 34.3978
29.5746 34.1371
29.6207 33.6962
29.6669 33.5817
29.713 33.5311
29.7593 33.3518
29.8053 33.1762
29.8516 33.2691
29.8977 33.291
29.9439 33.0243
29.99 33.1186
30.0363 32.9311
30.0824 32.7382
30.1287 32.7402
30.1748 32.6344
30.2211 32.7311
30.2673 32.7299
30.3136 32.8428
30.3597 32.9318
30.406 32.855
30.4522 32.6142
30.4985 32.514
30.5447 32.5312
30.591 32.491
30.6372 32.4707
30.6835 32.5388
30.7297 32.6058
30.7761 32.6611
30.8224 32.5924
30.8686 32.5887
30.915 32.3306
30.9612 32.1032
31.0076 32.0431
31.0538 31.7775
31.1002 31.6716
31.1464 31.5645
31.1928 31.4712
31.2391 31.5589
31.2855 31.3073
31.3317 31.3977
31.3781 31.28
31.4244 31.253
31.4708 31.1869
31.5171 31.1062
31.5636 31.3055
31.6098 31.1277
31.6563 31.1351
31.7026 30.9124
31.7491 30.6605
31.7953 30.6797
31.8418 30.5375
31.8881 30.5198
31.9346 30.508
31.9809 30.4985
32.0275 30.3352
32.074 30.425
32.1203 30.1164
32.1668 30.0595
32.2132 29.8944
32.2597 29.8123
32.306 29.7966
32.3526 29.4418
32.399 29.3904
32.4455 29.206
32.4919 29.176
32.5385 29.0353
32.5848 28.9085
32.6314 28.9125
32.6778 28.8232
32.7244 28.7335
32.7708 28.5754
32.8174 28.6132
32.8638 28.5023
32.9104 28.468
32.9569 28.4659
33.0035 28.2265
33.0499 28.2164
33.0966 28.219
33.143 28.2048
33.1897 28.0337
33.2361 27.9753
33.2828 27.9479
33.3293 27.7635
33.3759 27.894
33.4226 27.7767
33.4691 27.6892
33.5158 27.4847
33.5623 27.4161
33.609 27.167
33.6555 27.0758
33.7022 26.985
33.7487 26.9425
33.7954 26.9016
33.842 26.7864
33.8887 26.6818
33.9353 26.5695
33.982 26.4974
34.0286 26.3958
34.0753 26.4443
34.1219 26.2423
34.1687 26.0874
34.2152 26.1181
34.262 26.0635
34.3086 25.8586
34.3554 25.8309
34.402 25.7504
34.4488 25.7013
34.4954 25.6559
34.5422 25.6081
34.5889 25.4024
34.6357 25.3934
34.6825 25.3205
34.7292 25.146
34.776 25.0796
34.8227 24.9801
34.8695 24.9337
34.9162 24.8553
34.9631 24.806
35.0098 24.7983
35.0566 24.6815
35.1033 24.6404
35.1502 24.6739
35.1969 24.5807
35.2438 24.5238
35.2906 24.4094
35.3375 24.3958
35.3842 24.2782
35.4311 24.2949
35.4779 24.24
35.5248 24.2066
35.5716 24.1299
35.6185 24.0669
35.6653 24.0259
35.7123 23.9583
35.759 23.7667
35.806 23.754
35.8528 23.5265
35.8998 23.5532
35.9468 23.4536
35.9936 23.4033
36.0406 23.3951
36.0874 23.2897
36.1345 23.2616
36.1813 23.1539
36.2283 23.0889
36.2752 23.0103
36.3222 23.0046
36.3691 22.9444
36.4161 22.826
36.463 22.825
36.5101 22.7996
36.557 22.5725
36.6041 22.5353
36.651 22.5178
36.6981 22.4658
36.745 22.4328
36.7921 22.3135
36.839 22.2853
36.8861 22.089
36.9331 22.137
36.9802 21.989
37.0272 21.9419
37.0743 21.7894
37.1213 21.7429
37.1684 21.7061
37.2154 21.6703
37.2626 21.5783
37.3098 21.5315
37.3568 21.3977
37.404 21.4707
37.451 21.2828
37.4982 21.2485
37.5452 21.1396
37.5924 21.0534
37.6395 21.198
37.6867 20.9917
37.7337 20.9229
37.781 20.8544
37.8281 20.8298
37.8753 20.6679
37.9224 20.6642
37.9697 20.5888
38.0168 20.5724
38.064 20.4444
38.1111 20.4181
38.1584 20.3615
38.2056 20.2258
38.2529 20.1768
38.3 20.0193
38.3473 20.1041
38.3945 19.9378
38.4418 19.9196
38.489 19.8104
38.5363 19.839
38.5837 19.6963
38.6309 19.6675
38.6782 19.5847
38.7254 19.53
38.7728 19.4411
38.82 19.4189
38.8674 19.4424
38.9146 19.2684
38.9621 19.2829
39.0093 19.194
39.0567 19.1458
39.104 19.0674
39.1514 19.0036
39.1987 18.9059
39.2461 18.8211
39.2934 18.8202
39.3409 18.7166
39.3882 18.6265
39.4356 18.6925
39.483 18.5538
39.5304 18.5198
39.5778 18.478
39.6253 18.392
39.6726 18.3591
39.7201 18.3912
39.7675 18.2517
39.815 18.213
39.8624 18.1108
39.9099 18.0846
39.9575 18.0356
40.0049 17.9261
40.0525 17.8476
40.0999 17.857
40.1474 17.8168
40.1949 17.7072
40.2425 17.6281
40.2899 17.6308
40.3375 17.571
40.385 17.5062
40.4326 17.4422
40.48 17.3929
40.5277 17.4084
40.5752 17.3439
40.6228 17.242
40.6703 17.1418
40.718 17.123
40.7655 17.0755
40.8132 17.0529
40.8607 16.9671
40.9084 16.9049
40.9559 16.8818
41.0036 16.8119
41.0512 16.7596
41.0989 16.6901
41.1465 16.6341
41.1942 16.5816
41.242 16.505
41.2896 16.4932
41.3373 16.4278
41.3849 16.3654
41.4327 16.2979
41.4803 16.182
41.5281 16.1861
41.5758 16.1167
41.6236 16.0687
41.6712 15.9492
41.7191 15.9745
41.7667 15.9235
41.8146 15.8605
41.8622 15.8036
41.9101 15.7394
41.9578 15.612
42.0057 15.602
42.0534 15.6573
42.1013 15.6031
42.149 15.4973
42.1969 15.4851
42.2446 15.3393
42.2925 15.3776
42.3403 15.3116
42.3882 15.2098
42.436 15.2093
42.4839 15.1322
42.5319 15.1355
42.5797 15.0385
42.6277 14.9592
42.6755 14.8873
42.7235 14.8764
42.7713 14.8795
42.8193 14.8242
42.8671 14.755
42.9152 14.6768
42.963 14.5796
43.0111 14.5691
43.0589 14.4951
43.107 14.4416
43.1549 14.4106
43.2029 14.3362
43.2508 14.3302
43.2989 14.2982
43.3468 14.2352
43.3949 14.161
43.4429 14.1283
43.491 14.0755
43.5389 14.0073
43.5871 13.9669
43.635 13.9315
43.6832 13.8801
43.7312 13.8361
43.7793 13.8293
43.8273 13.7166
43.8755 13.6887
43.9237 13.6297
43.9717 13.6299
44.0199 13.548
44.068 13.5547
44.1162 13.4647
44.1642 13.4564
44.2125 13.3626
44.2606 13.4006
44.3088 13.2687
44.3569 13.2715
44.4052 13.1938
44.4533 13.1569
44.5016 13.0413
44.5497 13.0743
44.598 13.0018
44.6461 12.9926
44.6945 12.9246
44.7426 12.8651
44.791 12.8167
44.8391 12.7885
44.8875 12.7497
44.9357 12.6623
44.984 12.6158
45.0322 12.5816
45.0806 12.4999
45.1288 12.5151
45.1773 12.4596
45.2257 12.4041
45.2739 12.3653
45.3224 12.3446
45.3706 12.2741
45.4191 12.222
45.4673 12.2075
45.5158 12.2009
45.5641 12.0607
45.6126 12.0957
45.6609 12.0169
45.7094 11.966
45.7577 11.965
45.8063 11.9153
45.8546 11.8621
45.9031 11.8291
45.9515 11.7759
46.0001 11.7013
46.0484 11.6737
46.097 11.6622
46.1454 11.6013
46.194 11.567
46.2424 11.512
46.291 11.4926
46.3395 11.4711
46.3881 11.3376
46.4365 11.3681
46.4852 11.3112
46.5337 11.2354
46.5823 11.2155
46.631 11.2407
46.6795 11.1482
46.7282 11.1098
46.7767 11.1106
46.8254 11.0352
46.8739 10.9653
46.9226 10.9441
46.9712 10.8843
47.0199 10.8897
47.0685 10.797
47.1173 10.7664
47.1658 10.7564
47.2146 10.6995
47.2632 10.6442
47.312 10.6247
47.3606 10.5622
47.4095 10.5408
47.4581 10.4858
47.5069 10.4568
47.5556 10.4174
47.6044 10.3877
47.6531 10.3512
47.702 10.3106
47.7507 10.2725
47.7996 10.239
47.8483 10.2063
47.8972 10.1729
47.9461 10.0698
47.9948 10.0608
48.0438 10.0396
48.0925 10.0459
48.1415 9.97166
48.1902 9.90301
48.2392 9.93786
48.288 9.87672
48.337 9.82423
48.3858 9.78494
48.4348 9.75011
48.4837 9.73219
48.5327 9.7041
48.5815 9.64497
48.6306 9.63878
48.6795 9.63056
48.7285 9.54927
48.7774 9.53304
48.8265 9.47549
48.8754 9.44555
48.9245 9.39429
48.9734 9.42795
49.0226 9.3707
49.0715 9.32407
49.1206 9.2185
49.1696 9.21188
49.2188 9.23983
49.2679 9.14864
49.3169 9.11664
49.3661 9.10852
49.4151 9.04357
49.4643 9.05778
49.5134 9.01518
49.5626 8.91469
49.6117 8.908
49.6609 8.88438
49.71 8.82579
49.7592 8.81404
49.8083 8.80806
49.8576 8.76607
49.9067 8.70788
49.956 8.70669
50.0052 8.65954
50.0545 8.638
50.1036 8.58284
50.153 8.58233
50.2022 8.53056
50.2515 8.50528
50.3007 8.44176
50.3501 8.38761
50.3993 8.39497
50.4487 8.39656
50.498 8.33839
50.5474 8.29196
50.5966 8.24822
50.6461 8.24568
50.6955 8.21184
50.7448 8.14864
50.7943 8.14075
50.8436 8.1299
50.8931 8.09207
50.9424 8.05114
50.9919 8.05336
51.0413 7.99158
51.0908 7.90774
51.1402 7.9327
51.1897 7.87384
51.2391 7.82894
51.2887 7.81823
51.3381 7.77125
51.3877 7.7622
51.4371 7.69021
51.4867 7.69241
51.5362 7.64197
51.5858 7.65765
51.6353 7.56345
51.6849 7.55618
51.7344 7.56773
51.7841 7.51545
51.8336 7.43406
51.8833 7.44942
51.9328 7.40137
51.9826 7.35529
52.0323 7.33539
52.0818 7.29287
52.1316 7.25841
52.1812 7.24442
52.231 7.21592
52.2806 7.17431
52.3304 7.16376
52.38 7.12162
52.4298 7.10829
52.4794 7.08019
52.5293 7.08075
52.5789 7.00007
52.6288 6.99434
52.6785 6.89517
52.7284 6.93485
52.7781 6.8918
52.828 6.861
52.8777 6.86047
52.9276 6.78763
52.9774 6.77749
53.0273 6.7802
53.0771 6.7444
53.1271 6.70794
53.1769 6.70101
53.2269 6.66265
53.2767 6.63047
53.3267 6.59457
53.3765 6.59553
53.4266 6.53608
53.4766 6.50253
53.5265 6.47856
53.5765 6.47157
53.6264 6.43685
53.6765 6.41978
53.7264 6.33346
53.7765 6.33322
53.8265 6.28214
53.8766 6.28817
53.9266 6.23407
53.9767 6.20902
54.0267 6.2011
54.0769 6.17268
54.1269 6.14234
54.1771 6.06042
54.2271 6.08519
54.2773 6.01002
54.3274 5.96076
54.3776 5.96692
54.4277 5.92332
54.478 5.89479
54.528 5.81588
54.5783 5.77486
54.6285 5.73003
54.6788 5.70453
54.7289 5.65595
54.7792 5.61512
54.8296 5.5658
54.8798 5.53429
54.9301 5.51143
54.9803 5.47557
55.0307 5.42579
55.0809 5.37493
55.1314 5.31263
55.1816 5.26398
55.232 5.23022
55.2823 5.15733
55.3328 5.13479
55.383 5.09052
55.4335 5.0354
55.4838 4.9563
55.5344 4.89425
55.5847 4.89548
55.6352 4.90286
55.6856 4.82474
55.7361 4.84243