File: XRD/Ni3Fe_FD0993.xy
TT I
1.27165 7.58493
1.31627 6.59344
1.36089 5.79742
1.40551 6.47601
1.45013 6.06837
1.49476 5.71523
1.53938 5.31665
1.584 4.89879
1.62863 5.35112
1.67325 5.29986
1.71787 4.44694
1.7625 4.10896
1.80712 4.56378
1.85174 4.51559
1.89636 4.85625
1.94099 4.88143
1.98562 3.7911
2.03025 4.26595
2.07487 4.3011
2.11949 5.25815
2.16411 5.30985
2.20874 15.5164
2.25338 25.4206
2.298 6.31528
2.34263 5.90786
2.38725 6.3755
2.43188 6.48086
2.4765 6.99494
2.52115 7.00066
2.56577 8.22759
2.6104 9.30377
2.65503 9.14821
2.69965 8.44944
2.7443 8.92457
2.78893 8.61183
2.83356 8.64902
2.87818 8.74511
2.92281 9.25648
2.96744 9.47156
3.01209 10.5713
3.05672 11.3351
3.10135 12.6719
3.14599 13.1365
3.19062 14.489
3.23527 15.1977
3.2799 15.7809
3.32454 17.3436
3.36917 17.5163
3.4138 18.8788
3.45844 19.7802
3.50309 21.3345
3.54773 22.1356
3.59237 24.2683
3.637 102.284
3.68164 65.8202
3.7263 26.2248
3.77094 26.1309
3.81558 26.9829
3.86022 27.4876
3.90486 29.1044
3.9495 29.8369
3.99416 30.8761
4.0388 31.9428
4.08344 33.1895
4.12809 34.3737
4.17273 36.953
4.21738 43.1144
4.26204 280.043
4.30669 251.027
4.35133 48.9188
4.39598 44.213
4.44063 54.6476
4.4853 68.232
4.52995 49.6197
4.5746 50.2903
4.61925 51.7967
4.6639 54.4607
4.70855 56.9808
4.75322 59.4788
4.79788 61.8874
4.84253 65.1981
4.88719 69.6379
4.93184 73.2481
4.97652 77.8704
5.02118 83.7242
5.06583 90.3757
5.11049 99.931
5.15515 168.478
5.19981 267.546
5.24449 2189.78
5.28916 13375.8
5.33382 2750.38
5.37848 173.58
5.42315 123.613
5.46783 109.615
5.5125 102.952
5.55716 99.138
5.60183 95.9117
5.6465 94.7529
5.69117 92.0327
5.73586 89.2309
5.78053 88.7387
5.8252 87.8851
5.86988 88.2666
5.91455 90.0694
5.95924 95.097
6.00392 161.052
6.0486 751.499
6.09328 4523.05
6.13795 3269.68
6.18263 214.809
6.22733 89.3307
6.27201 80.9271
6.3167 104.373
6.36138 81.0901
6.40606 67.6618
6.45075 66.0063
6.49545 64.285
6.54014 62.7994
6.58483 61.8957
6.62952 61.9223
6.67421 97.6753
6.71892 157.762
6.76361 70.5368
6.8083 58.1101
6.853 56.4399
6.89769 56.3771
6.94239 55.6836
6.98711 55.077
7.03181 54.6886
7.07651 55.0651
7.12121 54.2061
7.16591 54.5975
7.21063 55.0931
7.25533 71.5432
7.30004 197.095
7.34475 98.5388
7.38945 56.2041
7.43416 54.1001
7.47889 53.5213
7.5236 53.8612
7.56831 54.6461
7.61303 56.518
7.65774 57.0991
7.70247 55.5657
7.74719 55.4725
7.79191 55.7321
7.83663 55.7821
7.88135 56.7068
7.92607 57.8828
7.97081 58.8192
8.01553 59.5282
8.06026 61.5041
8.10498 62.6205
8.14971 73.4311
8.19446 72.0495
8.23919 68.0362
8.28392 70.3607
8.32865 72.3683
8.37339 75.9548
8.41812 83.064
8.46288 113.217
8.50761 138.506
8.55235 311.795
8.59709 1107.4
8.64183 2338.39
8.68658 956.476
8.73134 162.179
8.77609 96.5352
8.82083 90.2465
8.86558 87.6457
8.91033 88.2429
8.9551 91.2224
8.99985 83.9719
9.04461 81.7564
9.08936 80.9365
9.13412 80.3288
9.17888 80.4032
9.22365 81.1248
9.26841 80.01
9.31318 80.4804
9.35794 80.6688
9.4027 81.1918
9.44749 82.1991
9.49226 82.4057
9.53703 83.6858
9.5818 85.0928
9.62657 90.4556
9.67134 98.1859
9.71614 91.9129
9.76091 91.4677
9.80569 93.555
9.85047 97.2255
9.89525 123.735
9.94005 135.958
9.98484 150.812
10.0296 283.066
10.0744 728.587
10.1192 1764.78
10.164 1587.91
10.2088 374.905
10.2536 123.103
10.2984 111.266
10.3432 113.839
10.388 102.211
10.4328 109.159
10.4776 143.39
10.5224 261.645
10.5672 528.667
10.612 517.673
10.6568 197.896
10.7017 94.9178
10.7465 84.5724
10.7913 81.5291
10.8361 79.139
10.8809 77.0626
10.9257 76.9405
10.9706 78.0675
11.0154 73.5336
11.0602 71.398
11.105 70.599
11.1499 75.6941
11.1947 84.5579
11.2395 74.3878
11.2844 69.5598
11.3292 65.7855
11.374 64.6727
11.4189 64.4358
11.4637 63.7954
11.5086 64.218
11.5534 67.6029
11.5983 64.6072
11.6431 62.2809
11.688 61.4723
11.7328 61.8015
11.7777 61.5831
11.8225 61.2249
11.8674 61.2855
11.9122 61.4399
11.9571 61.403
12.002 61.9247
12.0468 64.6887
12.0917 74.2623
12.1366 96.6562
12.1814 148.898
12.2263 205.374
12.2712 163.547
12.3161 95.073
12.3609 70.295
12.4058 63.542
12.4507 63.2875
12.4956 63.2238
12.5405 63.0954
12.5853 64.1839
12.6302 72.8582
12.6751 79.5459
12.72 69.5664
12.7649 66.3712
12.8098 66.8283
12.8547 68.2676
12.8996 69.2051
12.9445 70.5708
12.9894 72.1198
13.0343 73.7998
13.0792 76.3932
13.1242 82.903
13.1691 102.174
13.214 134.464
13.2589 222.618
13.3038 374.688
13.3487 436.495
13.3937 255.113
13.4386 121.652
13.4835 98.8025
13.5285 110.729
13.5734 144.959
13.6183 237.417
13.6633 356.33
13.7082 338.078
13.7531 179.869
13.7981 94.6631
13.843 79.9365
13.888 77.8003
13.9329 75.264
13.9779 74.1315
14.0228 72.6307
14.0678 71.4813
14.1127 71.0265
14.1577 70.8464
14.2027 70.0463
14.2476 68.8257
14.2926 68.9277
14.3376 70.5179
14.3825 69.0218
14.4275 67.5167
14.4725 67.2533
14.5175 67.3598
14.5624 67.5717
14.6074 69.7568
14.6524 70.3968
14.6974 68.5831
14.7424 69.5599
14.7874 74.0527
14.8324 82.8567
14.8774 102.603
14.9224 146.634
14.9674 210.247
15.0124 219.844
15.0574 150.786
15.1024 89.253
15.1474 70.5928
15.1924 68.853
15.2374 70.0232
15.2824 69.0856
15.3274 66.7853
15.3725 65.3839
15.4175 64.815
15.4625 64.5226
15.5076 64.9866
15.5526 64.8047
15.5976 64.2273
15.6426 64.4321
15.6877 68.2277
15.7327 74.3365
15.7778 88.3145
15.8228 119.247
15.8679 169.56
15.9129 196.807
15.958 154.286
16.003 94.6779
16.0481 67.1086
16.0931 63.7569
16.1382 61.9858
16.1833 59.4557
16.2283 57.8841
16.2734 57.216
16.3185 57.5335
16.3636 58.4989
16.4086 56.9558
16.4537 55.2697
16.4988 54.3157
16.5439 54.3055
16.589 54.1547
16.6341 53.5541
16.6792 53.318
16.7243 53.8289
16.7694 53.8768
16.8145 53.6531
16.8596 54.0972
16.9047 55.762
16.9498 56.125
16.9949 54.6137
17.04 54.6251
17.0851 55.1287
17.1302 56.7324
17.1754 59.5089
17.2205 64.5527
17.2656 72.8718
17.3108 82.157
17.3559 80.4798
17.401 68.9761
17.4462 60.4473
17.4913 57.7964
17.5365 57.7402
17.5815 57.9716
17.6268 58.048
17.6718 59.072
17.7171 59.5209
17.7622 59.8472
17.8074 60.1675
17.8525 61.8201
17.8977 65.063
17.9428 69.9195
17.9881 78.2308
18.0331 95.7834
18.0784 119.993
18.1237 138.485
18.1688 127.807
18.214 100.203
18.2591 83.251
18.3044 87.8841
18.3495 99.4715
18.3948 106.22
18.4399 94.5673
18.4852 75.9224
18.5303 64.5792
18.5756 60.9846
18.6207 59.869
18.666 59.0298
18.7112 58.534
18.7565 57.7435
18.8016 57.2841
18.8469 56.6121
18.892 56.3808
18.9374 56.0372
18.9825 55.9099
19.0278 55.6569
19.073 55.8217
19.1183 56.0215
19.1635 56.5506
19.2088 57.75
19.254 60.1141
19.2993 64.9516
19.3447 71.8561
19.3898 75.283
19.4352 71.0996
19.4804 61.5476
19.5257 55.3741
19.5709 53.0291
19.6163 52.8261
19.6615 52.5489
19.7068 52.0652
19.752 51.9295
19.7974 52.208
19.8426 53.0563
19.888 53.5361
19.9332 54.4936
19.9786 57.0952
20.0238 60.7951
20.0692 66.0933
20.1144 69.0467
20.1598 66.4675
20.205 61.86
20.2504 60.6312
20.2957 62.9347
20.3411 65.0167
20.3863 62.921
20.4318 57.0102
20.477 52.6012
20.5224 50.6931
20.5677 50.0516
20.6131 49.3134
20.6586 48.6092
20.7038 48.4561
20.7493 47.9176
20.7945 47.9747
20.84 47.7679
20.8853 47.6942
20.9307 47.4531
20.976 47.6398
21.0215 47.4084
21.0668 47.8639
21.1122 48.295
21.1575 48.9894
21.203 49.9748
21.2483 50.6941
21.2938 50.2925
21.3391 48.9696
21.3846 47.8628
21.4299 47.2542
21.4754 47.4696
21.5207 47.4962
21.5662 47.5533
21.6116 47.9304
21.6571 48.4675
21.7024 49.4473
21.7479 50.8703
21.7933 53.7412
21.8388 57.6128
21.8843 61.6617
21.9297 63.6654
21.9752 61.4332
22.0206 57.9836
22.0661 55.5071
22.1115 55.3906
22.157 54.9236
22.2024 52.9931
22.248 50.3307
22.2933 48.7833
22.3389 48.2006
22.3843 47.89
22.4299 47.9626
22.4753 47.9156
22.5208 47.6169
22.5662 47.464
22.6118 47.5921
22.6572 47.6855
22.7028 47.9856
22.7483 48.3087
22.7939 49.1562
22.8393 50.6133
22.8849 52.7472
22.9303 55.3927
22.9759 57.0649
23.0214 56.3767
23.067 53.3916
23.1126 50.0899
23.1581 48.0661
23.2037 47.761
23.2492 47.6545
23.2948 47.6122
23.3403 47.7521
23.3859 48.3368
23.4314 49.3778
23.477 51.3465
23.5225 53.9478
23.5682 56.3796
23.6137 57.0412
23.6593 54.5532
23.7048 50.6567
23.7505 47.2213
23.796 45.7134
23.8417 45.1793
23.8872 44.7629
23.9329 44.2193
23.9784 43.9468
24.0241 43.7598
24.0697 43.6436
24.1154 43.1357
24.1609 43.0418
24.2066 42.85
24.2522 42.9076
24.2979 42.5473
24.3434 42.4442
24.3892 42.1571
24.4349 42.2687
24.4805 41.9797
24.5262 42.2312
24.5718 42.0747
24.6175 42.0592
24.6631 41.8137
24.7089 41.5767
24.7545 41.5078
24.8002 41.3436
24.8458 41.1834
24.8916 41.1538
24.9372 41.2992
24.983 41.473
25.0286 41.8175
25.0744 42.253
25.12 42.883
25.1658 43.4301
25.2114 43.651
25.2572 43.8214
25.3029 44.0868
25.3487 44.3251
25.3943 43.9207
25.4402 42.6246
25.4858 41.553
25.5316 40.7296
25.5773 40.1614
25.6231 40.1188
25.669 39.6446
25.7147 39.657
25.7605 39.6574
25.8062 39.7286
25.8521 39.7975
25.8977 39.686
25.9436 40.0174
25.9893 40.0804
26.0352 40.5855
26.0809 40.8917
26.1268 41.0158
26.1725 40.5864
26.2184 39.9115
26.2641 39.4015
26.31 39.3092
26.3557 39.2077
26.4017 39.0643
26.4474 39.5094
26.4933 39.9577
26.5391 40.3818
26.585 40.9359
26.6308 41.1951
26.6767 41.3222
26.7225 41.234
26.7684 40.5782
26.8142 40.0351
26.8601 39.616
26.9059 39.1406
26.9519 38.7188
26.9979 38.4312
27.0437 38.1474
27.0896 37.8648
27.1354 37.8803
27.1814 37.683
27.2272 37.6123
27.2732 37.681
27.3191 37.5141
27.3651 37.6941
27.4109 37.6197
27.4569 37.8314
27.5027 37.7792
27.5488 37.6844
27.5946 37.6789
27.6407 37.3672
27.6865 37.2679
27.7326 37.2231
27.7784 37.0054
27.8245 37.0609
27.8703 37.1176
27.9164 37.4292
27.9623 37.6319
28.0084 37.9394
28.0543 38.3679
28.1003 38.3603
28.1462 38.026
28.1923 37.7781
28.2384 37.2355
28.2843 36.7864
28.3304 36.4766
28.3764 35.9813
28.4225 35.6915
28.4684 35.5635
28.5145 35.3319
28.5605 35.0669
28.6066 34.9169
28.6526 34.9792
28.6987 34.8168
28.7447 34.8811
28.7908 34.713
28.8368 34.8267
28.8829 34.7598
28.9289 34.602
28.9751 34.4219
29.0211 34.2289
29.0673 33.9752
29.1133 33.9315
29.1595 33.7851
29.2055 33.5388
29.2517 33.6282
29.2977 33.6366
29.3439 33.7308
29.3899 33.5443
29.4361 33.5231
29.4824 33.2932
29.5284 33.0388
29.5746 32.7258
29.6207 32.5037
29.6669 32.4919
29.713 32.3285
29.7593 32.1125
29.8053 32.2249
29.8516 32.0899
29.8977 32.115
29.9439 31.9391
29.99 31.8784
30.0363 31.706
30.0824 31.8569
30.1287 31.6601
30.1748 31.8567
30.2211 31.6649
30.2673 31.6728
30.3136 31.7194
30.3597 31.6186
30.406 31.5146
30.4522 31.442
30.4985 31.3412
30.5447 31.5493
30.591 31.492
30.6372 31.5569
30.6835 31.5534
30.7297 31.5309
30.7761 31.5381
30.8224 31.4166
30.8686 31.2368
30.915 30.9648
30.9612 30.8165
31.0076 30.7506
31.0538 30.5372
31.1002 30.4939
31.1464 30.3498
31.1928 30.2953
31.2391 30.3388
31.2855 30.1756
31.3317 30.2172
31.3781 30.4085
31.4244 30.2287
31.4708 30.2744
31.5171 30.2419
31.5636 30.1892
31.6098 29.9107
31.6563 29.7956
31.7026 29.726
31.7491 29.4454
31.7953 29.5683
31.8418 29.569
31.8881 29.5797
31.9346 29.5046
31.9809 29.4594
32.0275 29.3725
32.074 29.1876
32.1203 29.0442
32.1668 28.9148
32.2132 28.7997
32.2597 28.6565
32.306 28.5706
32.3526 28.3858
32.399 28.3726
32.4455 28.2453
32.4919 28.132
32.5385 28.046
32.5848 27.8992
32.6314 28.0022
32.6778 27.8612
32.7244 27.7363
32.7708 27.6219
32.8174 27.6047
32.8638 27.4702
32.9104 27.517
32.9569 27.5096
33.0035 27.2958
33.0499 27.3371
33.0966 27.2425
33.143 27.2379
33.1897 27.1479
33.2361 27.1095
33.2828 27.0133
33.3293 26.8438
33.3759 26.8835
33.4226 26.7889
33.4691 26.6083
33.5158 26.5146
33.5623 26.4133
33.609 26.2288
33.6555 26.1655
33.7022 26.0091
33.7487 25.9921
33.7954 26.0302
33.842 25.8737
33.8887 25.7983
33.9353 25.7239
33.982 25.6508
34.0286 25.4914
34.0753 25.4984
34.1219 25.465
34.1687 25.3754
34.2152 25.2596
34.262 25.129
34.3086 25.1129
34.3554 25.1023
34.402 24.9115
34.4488 24.8233
34.4954 24.7879
34.5422 24.7091
34.5889 24.5143
34.6357 24.5425
34.6825 24.346
34.7292 24.3484
34.776 24.2909
34.8227 24.2063
34.8695 24.1199
34.9162 24.1937
34.9631 23.967
35.0098 24.0363
35.0566 23.8963
35.1033 23.831
35.1502 23.7795
35.1969 23.7985
35.2438 23.7
35.2906 23.5885
35.3375 23.5905
35.3842 23.5265
35.4311 23.5669
35.4779 23.5176
35.5248 23.4368
35.5716 23.3221
35.6185 23.308
35.6653 23.1415
35.7123 22.997
35.759 22.987
35.806 22.8754
35.8528 22.775
35.8998 22.7354
35.9468 22.5612
35.9936 22.6522
36.0406 22.5559
36.0874 22.5792
36.1345 22.5339
36.1813 22.3534
36.2283 22.3516
36.2752 22.269
36.3222 22.2216
36.3691 22.1658
36.4161 21.9825
36.463 22.05
36.5101 21.9958
36.557 21.9016
36.6041 21.788
36.651 21.7941
36.6981 21.7123
36.745 21.6415
36.7921 21.652
36.839 21.4391
36.8861 21.3827
36.9331 21.3332
36.9802 21.2304
37.0272 21.1869
37.0743 21.0728
37.1213 20.9802
37.1684 21.0204
37.2154 20.9084
37.2626 20.8995
37.3098 20.7499
37.3568 20.8402
37.404 20.7467
37.451 20.5904
37.4982 20.5145
37.5452 20.4583
37.5924 20.3933
37.6395 20.4541
37.6867 20.3131
37.7337 20.1411
37.781 20.1345
37.8281 20.1156
37.8753 20.0078
37.9224 19.9572
37.9697 19.8736
38.0168 19.8378
38.064 19.7624
38.1111 19.7211
38.1584 19.6684
38.2056 19.5668
38.2529 19.5563
38.3 19.448
38.3473 19.4295
38.3945 19.2962
38.4418 19.2733
38.489 19.265
38.5363 19.1182
38.5837 19.014
38.6309 19.0297
38.6782 18.9679
38.7254 18.9351
38.7728 18.8299
38.82 18.7758
38.8674 18.6959
38.9146 18.6641
38.9621 18.6326
39.0093 18.6321
39.0567 18.4702
39.104 18.4721
39.1514 18.3998
39.1987 18.3395
39.2461 18.2929
39.2934 18.233
39.3409 18.107
39.3882 18.0641
39.4356 18.0228
39.483 17.9972
39.5304 17.908
39.5778 17.8524
39.6253 17.8445
39.6726 17.7421
39.7201 17.6719
39.7675 17.6367
39.815 17.5745
39.8624 17.537
39.9099 17.5239
39.9575 17.4706
40.0049 17.3239
40.0525 17.3095
40.0999 17.2028
40.1474 17.2232
40.1949 17.1396
40.2425 17.0333
40.2899 17.0045
40.3375 16.9657
40.385 16.9331
40.4326 16.8507
40.48 16.83
40.5277 16.7678
40.5752 16.7237
40.6228 16.6091
40.6703 16.5889
40.718 16.5742
40.7655 16.5191
40.8132 16.4306
40.8607 16.4776
40.9084 16.3411
40.9559 16.2619
41.0036 16.2476
41.0512 16.2115
41.0989 16.138
41.1465 16.071
41.1942 16.0452
41.242 15.9454
41.2896 15.8834
41.3373 15.845
41.3849 15.8005
41.4327 15.7421
41.4803 15.6804
41.5281 15.6641
41.5758 15.5894
41.6236 15.5347
41.6712 15.5039
41.7191 15.4701
41.7667 15.404
41.8146 15.3683
41.8622 15.3145
41.9101 15.2558
41.9578 15.1879
42.0057 15.1282
42.0534 15.0831
42.1013 14.9969
42.149 14.9665
42.1969 14.9557
42.2446 14.8899
42.2925 14.9001
42.3403 14.8117
42.3882 14.7494
42.436 14.7006
42.4839 14.6423
42.5319 14.5559
42.5797 14.5536
42.6277 14.5471
42.6755 14.4823
42.7235 14.3637
42.7713 14.3823
42.8193 14.2713
42.8671 14.2374
42.9152 14.21
42.963 14.2093
43.0111 14.1221
43.0589 14.0793
43.107 14.0079
43.1549 13.9694
43.2029 13.9321
43.2508 13.8407
43.2989 13.8306
43.3468 13.7349
43.3949 13.7456
43.4429 13.7307
43.491 13.6483
43.5389 13.6537
43.5871 13.5573
43.635 13.5275
43.6832 13.5135
43.7312 13.3846
43.7793 13.3289
43.8273 13.3089
43.8755 13.2399
43.9237 13.2892
43.9717 13.1797
44.0199 13.1148
44.068 13.0773
44.1162 13.0366
44.1642 13.0121
44.2125 12.8894
44.2606 12.8935
44.3088 12.8545
44.3569 12.7995
44.4052 12.8009
44.4533 12.7008
44.5016 12.6685
44.5497 12.6602
44.598 12.5849
44.6461 12.5034
44.6945 12.4866
44.7426 12.4766
44.791 12.4041
44.8391 12.4082
44.8875 12.3251
44.9357 12.2765
44.984 12.2174
45.0322 12.1927
45.0806 12.1563
45.1288 12.1086
45.1773 12.0023
45.2257 12.0414
45.2739 11.9786
45.3224 11.9481
45.3706 11.9063
45.4191 11.8419
45.4673 11.833
45.5158 11.7993
45.5641 11.725
45.6126 11.7001
45.6609 11.6325
45.7094 11.6054
45.7577 11.5685
45.8063 11.4868
45.8546 11.4739
45.9031 11.4618
45.9515 11.3631
46.0001 11.3232
46.0484 11.3232
46.097 11.3047
46.1454 11.2398
46.194 11.2392
46.2424 11.1577
46.291 11.1153
46.3395 11.0742
46.3881 11.0341
46.4365 11.0412
46.4852 10.9669
46.5337 10.9294
46.5823 10.8814
46.631 10.8263
46.6795 10.8452
46.7282 10.8024
46.7767 10.7507
46.8254 10.6526
46.8739 10.62
46.9226 10.5637
46.9712 10.568
47.0199 10.475
47.0685 10.4851
47.1173 10.4522
47.1658 10.4225
47.2146 10.3783
47.2632 10.328
47.312 10.2922
47.3606 10.2665
47.4095 10.2434
47.4581 10.1697
47.5069 10.1378
47.5556 10.0904
47.6044 10.0756
47.6531 10.0095
47.702 9.96902
47.7507 9.95787
47.7996 9.89041
47.8483 9.88697
47.8972 9.8862
47.9461 9.78669
47.9948 9.76276
48.0438 9.73782
48.0925 9.7379
48.1415 9.65782
48.1902 9.62376
48.2392 9.63366
48.288 9.59633
48.337 9.55985
48.3858 9.5117
48.4348 9.47374
48.4837 9.46681
48.5327 9.37571
48.5815 9.34943
48.6306 9.34097
48.6795 9.29064
48.7285 9.27062
48.7774 9.26352
48.8265 9.20866
48.8754 9.14109
48.9245 9.11597
48.9734 9.07633
49.0226 9.08701
49.0715 9.07607
49.1206 8.99303
49.1696 8.94316
49.2188 8.88403
49.2679 8.87942
49.3169 8.81182
49.3661 8.79411
49.4151 8.74885
49.4643 8.75958
49.5134 8.7138
49.5626 8.66059
49.6117 8.64402
49.6609 8.63257
49.71 8.56105
49.7592 8.54842
49.8083 8.51533
49.8576 8.46282
49.9067 8.46245
49.956 8.43925
50.0052 8.38471
50.0545 8.34819
50.1036 8.28593
50.153 8.28013
50.2022 8.27114
50.2515 8.20398
50.3007 8.15859
50.3501 8.14774
50.3993 8.15738
50.4487 8.08287
50.498 8.05362
50.5474 8.0478
50.5966 8.03064
50.6461 7.96962
50.6955 7.97742
50.7448 7.91865
50.7943 7.85592
50.8436 7.82225
50.8931 7.81559
50.9424 7.80478
50.9919 7.75358
51.0413 7.73414
51.0908 7.68935
51.1402 7.65581
51.1897 7.66588
51.2391 7.62128
51.2887 7.55195
51.3381 7.54756
51.3877 7.53887
51.4371 7.49281
51.4867 7.44212
51.5362 7.44823
51.5858 7.42047
51.6353 7.31554
51.6849 7.33984
51.7344 7.30776
51.7841 7.29507
51.8336 7.19877
51.8833 7.21994
51.9328 7.16065
51.9826 7.16631
52.0323 7.12427
52.0818 7.1067
52.1316 7.04044
52.1812 7.02159
52.231 7.01014
52.2806 6.98834
52.3304 6.9473
52.38 6.88109
52.4298 6.87665
52.4794 6.86669
52.5293 6.855
52.5789 6.80334
52.6288 6.77543
52.6785 6.78337
52.7284 6.72176
52.7781 6.66312
52.828 6.64103
52.8777 6.65604
52.9276 6.58763
52.9774 6.57693
53.0273 6.58484
53.0771 6.52534
53.1271 6.52858
53.1769 6.47382
53.2269 6.47259
53.2767 6.41499
53.3267 6.40437
53.3765 6.34762
53.4266 6.33815
53.4766 6.3137
53.5265 6.29298
53.5765 6.22765
53.6264 6.21252
53.6765 6.19292
53.7264 6.19918
53.7765 6.18166
53.8265 6.11979
53.8766 6.13918
53.9266 6.03533
53.9767 6.02545
54.0267 6.03382
54.0769 5.98528
54.1269 5.97719
54.1771 5.92477
54.2271 5.86691
54.2773 5.87602
54.3274 5.83476
54.3776 5.84889
54.4277 5.74441
54.478 5.753
54.528 5.7057
54.5783 5.67031
54.6285 5.64694
54.6788 5.60045
54.7289 5.56193
54.7792 5.49028
54.8296 5.47648
54.8798 5.39304
54.9301 5.36505
54.9803 5.37955
55.0307 5.33556
55.0809 5.24622
55.1314 5.23454
55.1816 5.17493
55.232 5.14231
55.2823 5.12278
55.3328 5.01482
55.383 4.98624
55.4335 4.98685
55.4838 4.90605
55.5344 4.94608
55.5847 4.85558
55.6352 4.82476
55.6856 4.72766
55.7361 4.72419