File: XRD/Ni3Fe_FD0167.xy
TT I
1.27165 8.48145
1.31627 7.24591
1.36089 8.02163
1.40551 6.72969
1.45013 6.7605
1.49476 6.60503
1.53938 6.18729
1.584 5.82026
1.62863 5.30178
1.67325 5.25789
1.71787 4.89459
1.7625 5.57473
1.80712 5.48005
1.85174 5.13784
1.89636 5.25009
1.94099 5.33396
1.98562 4.62252
2.03025 4.72444
2.07487 4.61351
2.11949 5.42584
2.16411 4.16044
2.20874 5.1724
2.25338 4.69842
2.298 4.49202
2.34263 4.64567
2.38725 4.39848
2.43188 4.02286
2.4765 4.71992
2.52115 4.39589
2.56577 5.15753
2.6104 5.46068
2.65503 5.20336
2.69965 6.15467
2.7443 6.54857
2.78893 6.84293
2.83356 7.08932
2.87818 7.70884
2.92281 9.1698
2.96744 9.45603
3.01209 10.6056
3.05672 11.5273
3.10135 12.7887
3.14599 13.5199
3.19062 14.2313
3.23527 15.1047
3.2799 16.2612
3.32454 16.6971
3.36917 17.6256
3.4138 18.9262
3.45844 19.2673
3.50309 20.3081
3.54773 21.0342
3.59237 21.9172
3.637 22.7994
3.68164 23.1544
3.7263 24.6911
3.77094 25.6726
3.81558 25.6855
3.86022 26.3688
3.90486 27.9774
3.9495 28.7383
3.99416 30.0069
4.0388 30.7816
4.08344 32.312
4.12809 33.2269
4.17273 34.3622
4.21738 35.9605
4.26204 36.9279
4.30669 37.9
4.35133 39.809
4.39598 41.7034
4.44063 43.5615
4.4853 45.181
4.52995 47.1496
4.5746 49.8914
4.61925 52.2158
4.6639 54.0786
4.70855 56.9727
4.75322 60.1706
4.79788 62.6258
4.84253 66.8668
4.88719 70.7544
4.93184 76.0336
4.97652 82.6035
5.02118 90.7995
5.06583 100.961
5.11049 117.335
5.15515 153.009
5.19981 529.435
5.24449 3761.29
5.28916 8450.2
5.33382 6237.68
5.37848 425.661
5.42315 161.036
5.46783 127.277
5.5125 113.793
5.55716 107.394
5.60183 102.071
5.6465 99.3594
5.69117 97.6284
5.73586 95.6206
5.78053 94.9528
5.8252 95.4547
5.86988 97.9827
5.91455 104.956
5.95924 123.167
6.00392 282.676
6.0486 1375.05
6.09328 2827.25
6.13795 4065.4
6.18263 663.03
6.22733 120.387
6.27201 88.8126
6.3167 78.6294
6.36138 72.5879
6.40606 68.9247
6.45075 66.7826
6.49545 64.2134
6.54014 62.5066
6.58483 61.4729
6.62952 59.9979
6.67421 58.9307
6.71892 57.8304
6.76361 56.9168
6.8083 55.8624
6.853 55.1441
6.89769 54.6827
6.94239 54.8075
6.98711 53.735
7.03181 53.3941
7.07651 52.7764
7.12121 52.6782
7.16591 52.6471
7.21063 52.0515
7.25533 52.2806
7.30004 52.1673
7.34475 52.2412
7.38945 52.7875
7.43416 52.1403
7.47889 52.1393
7.5236 55.8683
7.56831 62.5936
7.61303 55.3899
7.65774 53.7415
7.70247 53.8751
7.74719 54.412
7.79191 54.9339
7.83663 55.4654
7.88135 56.528
7.92607 56.9839
7.97081 58.7092
8.01553 59.3827
8.06026 60.8947
8.10498 62.0782
8.14971 63.8206
8.19446 65.6461
8.23919 68.4044
8.28392 70.6619
8.32865 73.576
8.37339 78.4836
8.41812 83.6685
8.46288 95.3908
8.50761 171.311
8.55235 593.972
8.59709 906.1
8.64183 1538.2
8.68658 1640.56
8.73134 405.784
8.77609 115.755
8.82083 97.4495
8.86558 91.5515
8.91033 88.1902
8.9551 85.5704
8.99985 84.0563
9.04461 83.0064
9.08936 82.6589
9.13412 81.4884
9.17888 81.542
9.22365 86.7548
9.26841 95.1924
9.31318 86.2341
9.35794 82.6961
9.4027 82.1105
9.44749 83.3409
9.49226 83.8339
9.53703 84.9674
9.5818 85.941
9.62657 87.5683
9.67134 88.7873
9.71614 90.9089
9.76091 93.0802
9.80569 95.7068
9.85047 98.9654
9.89525 103.89
9.94005 114.039
9.98484 183.711
10.0296 539.078
10.0744 748.479
10.1192 1067.3
10.164 1677.92
10.2088 966.474
10.2536 211.111
10.2984 116.447
10.3432 107.983
10.388 104.779
10.4328 120.965
10.4776 213.091
10.5224 265.073
10.5672 342.408
10.612 503.141
10.6568 370.709
10.7017 133.355
10.7465 90.5766
10.7913 83.8444
10.8361 80.7032
10.8809 78.1009
10.9257 75.9512
10.9706 74.6033
11.0154 72.8293
11.0602 71.738
11.105 70.401
11.1499 69.0597
11.1947 67.978
11.2395 66.9942
11.2844 66.3033
11.3292 65.8281
11.374 64.598
11.4189 64.437
11.4637 63.8202
11.5086 63.0382
11.5534 62.5159
11.5983 62.2277
11.6431 62.4256
11.688 61.8412
11.7328 61.7351
11.7777 61.0038
11.8225 61.3677
11.8674 61.3791
11.9122 62.5369
11.9571 65.7331
12.002 65.3697
12.0468 67.7503
12.0917 90.2337
12.1366 108.443
12.1814 120.124
12.2263 153.377
12.2712 194.901
12.3161 140.595
12.3609 75.147
12.4058 64.3016
12.4507 63.4114
12.4956 63.2588
12.5405 63.2819
12.5853 63.9055
12.6302 64.2121
12.6751 64.8272
12.72 65.2921
12.7649 66.6396
12.8098 67.3197
12.8547 68.3726
12.8996 69.8758
12.9445 71.1812
12.9894 73.5846
13.0343 75.1665
13.0792 79.4038
13.1242 86.5123
13.1691 131.882
13.214 186.456
13.2589 208.06
13.3038 252.608
13.3487 357.595
13.3937 379.274
13.4386 207.525
13.4835 118.927
13.5285 153.162
13.5734 182.085
13.6183 196.625
13.6633 245.204
13.7082 337.157
13.7531 305.38
13.7981 154.716
13.843 88.5484
13.888 80.7479
13.9329 77.6696
13.9779 76.3451
14.0228 74.8362
14.0678 73.4499
14.1127 72.9492
14.1577 74.4091
14.2027 72.699
14.2476 70.7434
14.2926 69.8461
14.3376 69.0426
14.3825 68.9255
14.4275 68.4553
14.4725 68.4273
14.5175 68.4996
14.5624 68.5721
14.6074 68.9993
14.6524 69.3311
14.6974 69.947
14.7424 71.4433
14.7874 80.8795
14.8324 106.69
14.8774 121.444
14.9224 129.109
14.9674 151.918
15.0124 196.757
15.0574 206.31
15.1024 137.455
15.1474 82.215
15.1924 71.4451
15.2374 69.343
15.2824 68.0663
15.3274 67.0795
15.3725 66.7258
15.4175 66.5747
15.4625 65.9124
15.5076 65.6772
15.5526 65.7519
15.5976 66.1143
15.6426 66.8169
15.6877 73.7465
15.7327 94.7972
15.7778 107.521
15.8228 112.729
15.8679 127.244
15.9129 158.013
15.958 186.426
16.003 149.785
16.0481 87.9044
16.0931 66.1343
16.1382 61.9941
16.1833 60.682
16.2283 58.9215
16.2734 58.5315
16.3185 57.5987
16.3636 57.0086
16.4086 56.189
16.4537 55.8498
16.4988 55.245
16.5439 55.2048
16.589 55.0345
16.6341 54.6698
16.6792 54.3879
16.7243 54.3447
16.7694 54.4686
16.8145 54.1899
16.8596 54.5488
16.9047 54.7934
16.9498 55.1757
16.9949 55.0025
17.04 55.5164
17.0851 57.1396
17.1302 61.0729
17.1754 64.5462
17.2205 65.4934
17.2656 67.61
17.3108 73.2544
17.3559 80.162
17.401 81.4241
17.4462 71.0414
17.4913 61.5129
17.5365 59.3628
17.5815 59.243
17.6268 59.594
17.6718 59.925
17.7171 60.3497
17.7622 61.6013
17.8074 62.3389
17.8525 64.0578
17.8977 72.0944
17.9428 83.764
17.9881 88.6769
18.0331 92.1919
18.0784 100.035
18.1237 117.137
18.1688 141.85
18.214 141.786
18.2591 110.491
18.3044 88.9975
18.3495 87.5722
18.3948 96.441
18.4399 104.362
18.4852 94.9692
18.5303 75.8295
18.5756 64.9783
18.6207 62.2294
18.666 60.8918
18.7112 60.3234
18.7565 59.3865
18.8016 59.0231
18.8469 58.5337
18.892 58.1772
18.9374 57.5854
18.9825 57.2889
19.0278 56.9375
19.073 56.9321
19.1183 57.4916
19.1635 59.7728
19.2088 61.886
19.254 62.8057
19.2993 63.5078
19.3447 65.8333
19.3898 69.8266
19.4352 74.3067
19.4804 72.5274
19.5257 63.6985
19.5709 56.4321
19.6163 54.4849
19.6615 54.0863
19.7068 53.5629
19.752 53.563
19.7974 53.7341
19.8426 54.9073
19.888 57.1292
19.9332 58.2205
19.9786 59.0386
20.0238 59.8799
20.0692 62.6301
20.1144 67.6564
20.1598 73.2167
20.205 71.1637
20.2504 65.6546
20.2957 61.6052
20.3411 62.3239
20.3863 65.361
20.4318 64.4736
20.477 59.0978
20.5224 53.3688
20.5677 51.3511
20.6131 50.4349
20.6586 50.2459
20.7038 49.7834
20.7493 49.4541
20.7945 49.3959
20.84 49.1574
20.8853 49.1491
20.9307 48.7898
20.976 49.1
21.0215 49.2274
21.0668 49.5593
21.1122 49.7885
21.1575 49.7844
21.203 49.9181
21.2483 50.5859
21.2938 51.7464
21.3391 51.7864
21.3846 50.7798
21.4299 49.4463
21.4754 48.9085
21.5207 49.0058
21.5662 49.2126
21.6116 49.6308
21.6571 51.5171
21.7024 52.9795
21.7479 54.3728
21.7933 54.7246
21.8388 56.3422
21.8843 59.1917
21.9297 62.7245
21.9752 66.417
22.0206 66.0708
22.0661 60.8497
22.1115 56.7571
22.157 56.034
22.2024 56.6771
22.248 55.2538
22.2933 52.7117
22.3389 50.065
22.3843 49.3965
22.4299 49.0684
22.4753 49.259
22.5208 49.11
22.5662 49.0002
22.6118 49.0854
22.6572 49.3157
22.7028 50.5891
22.7483 51.6844
22.7939 52.1337
22.8393 52.3916
22.8849 53.0045
22.9303 53.9953
22.9759 55.5984
23.0214 57.7883
23.067 58.7678
23.1126 56.2487
23.1581 52.4112
23.2037 50.1274
23.2492 49.5549
23.2948 49.757
23.3403 51.0817
23.3859 51.8851
23.4314 51.8425
23.477 52.3133
23.5225 52.9482
23.5682 54.1594
23.6137 56.3555
23.6593 58.0427
23.7048 57.266
23.7505 53.3254
23.796 49.1818
23.8417 47.0705
23.8872 46.306
23.9329 45.8592
23.9784 45.4835
24.0241 45.1734
24.0697 44.9694
24.1154 44.6438
24.1609 44.5241
24.2066 44.3041
24.2522 44.091
24.2979 43.9313
24.3434 43.6404
24.3892 43.6261
24.4349 43.562
24.4805 43.0508
24.5262 43.1743
24.5718 43.1468
24.6175 43.3352
24.6631 43.4012
24.7089 43.3065
24.7545 42.9728
24.8002 42.7401
24.8458 42.6366
24.8916 42.697
24.9372 43.0156
24.983 43.2374
25.0286 43.3121
25.0744 43.7745
25.12 44.3442
25.1658 44.6822
25.2114 44.98
25.2572 45.3891
25.3029 45.1709
25.3487 45.0416
25.3943 45.2847
25.4402 45.2346
25.4858 44.7187
25.5316 43.3526
25.5773 42.0251
25.6231 41.5409
25.669 41.1516
25.7147 41.1617
25.7605 40.91
25.8062 41.1744
25.8521 41.3218
25.8977 41.1619
25.9436 41.1599
25.9893 41.1377
26.0352 41.5522
26.0809 41.5225
26.1268 41.989
26.1725 42.2876
26.2184 42.2469
26.2641 41.6537
26.31 41.1451
26.3557 41.1521
26.4017 40.9792
26.4474 41.031
26.4933 41.137
26.5391 41.4522
26.585 41.7331
26.6308 42.061
26.6767 42.3242
26.7225 43.0482
26.7684 42.7727
26.8142 42.0748
26.8601 41.5439
26.9059 41.0359
26.9519 40.6916
26.9979 40.3212
27.0437 39.764
27.0896 39.3906
27.1354 39.443
27.1814 39.1887
27.2272 39.1808
27.2732 39.1557
27.3191 39.0108
27.3651 39.0179
27.4109 38.9663
27.4569 38.8749
27.5027 38.8308
27.5488 38.9487
27.5946 39.0364
27.6407 39.0843
27.6865 38.9732
27.7326 38.7534
27.7784 38.7181
27.8245 38.4855
27.8703 38.5942
27.9164 38.7974
27.9623 38.6502
28.0084 39.0329
28.0543 39.2681
28.1003 39.3399
28.1462 39.7015
28.1923 39.7204
28.2384 39.0161
28.2843 38.6388
28.3304 38.2075
28.3764 38.0371
28.4225 37.4201
28.4684 37.0633
28.5145 36.5082
28.5605 36.4212
28.6066 36.2859
28.6526 36.1707
28.6987 36.1075
28.7447 35.8968
28.7908 35.7604
28.8368 35.6704
28.8829 35.6464
28.9289 35.723
28.9751 35.6167
29.0211 35.4522
29.0673 35.3888
29.1133 35.1699
29.1595 35.0526
29.2055 34.8294
29.2517 34.6751
29.2977 34.6305
29.3439 34.6667
29.3899 34.5712
29.4361 34.4886
29.4824 34.2888
29.5284 34.5066
29.5746 34.0462
29.6207 33.7697
29.6669 33.5527
29.713 33.332
29.7593 33.3279
29.8053 33.2771
29.8516 33.1187
29.8977 33.1669
29.9439 32.9538
29.99 33.0019
30.0363 32.8497
30.0824 32.9625
30.1287 32.7337
30.1748 32.8471
30.2211 32.7801
30.2673 32.6051
30.3136 32.7429
30.3597 32.8495
30.406 32.8125
30.4522 32.6049
30.4985 32.497
30.5447 32.5271
30.591 32.4497
30.6372 32.4676
30.6835 32.4914
30.7297 32.622
30.7761 32.6155
30.8224 32.5704
30.8686 32.5786
30.915 32.3318
30.9612 32.1079
31.0076 31.9739
31.0538 31.6818
31.1002 31.6802
31.1464 31.4496
31.1928 31.3725
31.2391 31.5009
31.2855 31.4232
31.3317 31.305
31.3781 31.3206
31.4244 31.2375
31.4708 31.2141
31.5171 31.2113
31.5636 31.2895
31.6098 31.2412
31.6563 31.0887
31.7026 30.9991
31.7491 30.6467
31.7953 30.6614
31.8418 30.5449
31.8881 30.4469
31.9346 30.4082
31.9809 30.4668
32.0275 30.3361
32.074 30.3068
32.1203 30.2754
32.1668 30.0875
32.2132 29.9536
32.2597 29.8243
32.306 29.7095
32.3526 29.4768
32.399 29.3608
32.4455 29.2658
32.4919 29.172
32.5385 28.9922
32.5848 28.7774
32.6314 28.932
32.6778 28.8069
32.7244 28.736
32.7708 28.516
32.8174 28.5114
32.8638 28.3663
32.9104 28.4833
32.9569 28.4851
33.0035 28.2578
33.0499 28.2509
33.0966 28.1478
33.143 28.1655
33.1897 28.1282
33.2361 28.0361
33.2828 28.0489
33.3293 27.8723
33.3759 27.8349
33.4226 27.7585
33.4691 27.6395
33.5158 27.5747
33.5623 27.4289
33.609 27.2464
33.6555 27.0841
33.7022 26.9561
33.7487 26.8005
33.7954 26.835
33.842 26.7095
33.8887 26.6042
33.9353 26.6615
33.982 26.5962
34.0286 26.3713
34.0753 26.3226
34.1219 26.2691
34.1687 26.1797
34.2152 26.0953
34.262 26.0032
34.3086 25.8607
34.3554 25.8595
34.402 25.7603
34.4488 25.6608
34.4954 25.5657
34.5422 25.5102
34.5889 25.3358
34.6357 25.2915
34.6825 25.2143
34.7292 25.1682
34.776 25.1943
34.8227 25.0106
34.8695 25.0496
34.9162 24.9493
34.9631 24.8938
35.0098 24.8663
35.0566 24.6557
35.1033 24.5696
35.1502 24.6598
35.1969 24.4955
35.2438 24.5038
35.2906 24.4703
35.3375 24.3512
35.3842 24.2733
35.4311 24.315
35.4779 24.2373
35.5248 24.1485
35.5716 24.1092
35.6185 24.0909
35.6653 23.9882
35.7123 23.8634
35.759 23.8585
35.806 23.7567
35.8528 23.6212
35.8998 23.6137
35.9468 23.4155
35.9936 23.4292
36.0406 23.2777
36.0874 23.3812
36.1345 23.1862
36.1813 23.1497
36.2283 23.0606
36.2752 22.9511
36.3222 22.943
36.3691 22.9041
36.4161 22.7495
36.463 22.7037
36.5101 22.6917
36.557 22.6961
36.6041 22.4757
36.651 22.4674
36.6981 22.4815
36.745 22.3661
36.7921 22.3179
36.839 22.2071
36.8861 22.116
36.9331 22.0485
36.9802 22.014
37.0272 21.8425
37.0743 21.7666
37.1213 21.7621
37.1684 21.6667
37.2154 21.6461
37.2626 21.5464
37.3098 21.534
37.3568 21.4659
37.404 21.4318
37.451 21.2839
37.4982 21.229
37.5452 21.1342
37.5924 21.0673
37.6395 21.1797
37.6867 20.9986
37.7337 20.9123
37.781 20.819
37.8281 20.8497
37.8753 20.6919
37.9224 20.6442
37.9697 20.623
38.0168 20.5027
38.064 20.4016
38.1111 20.3764
38.1584 20.3475
38.2056 20.2489
38.2529 20.1592
38.3 20.0988
38.3473 20.1328
38.3945 19.9756
38.4418 19.8767
38.489 19.9363
38.5363 19.8189
38.5837 19.6761
38.6309 19.6636
38.6782 19.5866
38.7254 19.5525
38.7728 19.5259
38.82 19.3701
38.8674 19.3542
38.9146 19.3114
38.9621 19.2265
39.0093 19.2043
39.0567 19.1424
39.104 19.0597
39.1514 18.9595
39.1987 18.9903
39.2461 18.8803
39.2934 18.7745
39.3409 18.7379
39.3882 18.6425
39.4356 18.5904
39.483 18.5798
39.5304 18.5075
39.5778 18.4398
39.6253 18.3545
39.6726 18.3805
39.7201 18.2799
39.7675 18.182
39.815 18.1388
39.8624 18.1453
39.9099 18.1282
39.9575 17.9916
40.0049 17.9629
40.0525 17.8586
40.0999 17.8121
40.1474 17.7547
40.1949 17.7146
40.2425 17.5876
40.2899 17.5986
40.3375 17.5132
40.385 17.4807
40.4326 17.3676
40.48 17.3497
40.5277 17.3164
40.5752 17.1992
40.6228 17.1904
40.6703 17.1215
40.718 17.0759
40.7655 17.069
40.8132 17.0059
40.8607 16.9508
40.9084 16.9457
40.9559 16.8165
41.0036 16.8128
41.0512 16.7114
41.0989 16.6428
41.1465 16.6209
41.1942 16.5883
41.242 16.4533
41.2896 16.4094
41.3373 16.3772
41.3849 16.3238
41.4327 16.2712
41.4803 16.2536
41.5281 16.1778
41.5758 16.0682
41.6236 16.0454
41.6712 15.9915
41.7191 15.9643
41.7667 15.8912
41.8146 15.8349
41.8622 15.8199
41.9101 15.7562
41.9578 15.6439
42.0057 15.6428
42.0534 15.5618
42.1013 15.5728
42.149 15.4709
42.1969 15.4445
42.2446 15.3884
42.2925 15.3407
42.3403 15.3026
42.3882 15.2376
42.436 15.222
42.4839 15.0818
42.5319 15.0621
42.5797 15.0466
42.6277 14.9915
42.6755 14.8667
42.7235 14.8762
42.7713 14.8323
42.8193 14.7601
42.8671 14.702
42.9152 14.6768
42.963 14.6099
43.0111 14.5529
43.0589 14.4897
43.107 14.4545
43.1549 14.4392
43.2029 14.4205
43.2508 14.3572
43.2989 14.2725
43.3468 14.1557
43.3949 14.177
43.4429 14.1027
43.491 14.0657
43.5389 14.0597
43.5871 13.976
43.635 13.8921
43.6832 13.882
43.7312 13.883
43.7793 13.7815
43.8273 13.6875
43.8755 13.6365
43.9237 13.6158
43.9717 13.577
44.0199 13.499
44.068 13.5239
44.1162 13.3993
44.1642 13.4079
44.2125 13.3948
44.2606 13.2853
44.3088 13.2398
44.3569 13.2476
44.4052 13.1524
44.4533 13.123
44.5016 13.0405
44.5497 13.0001
44.598 12.9962
44.6461 12.9401
44.6945 12.9457
44.7426 12.8562
44.791 12.8168
44.8391 12.786
44.8875 12.6953
44.9357 12.6729
44.984 12.6478
45.0322 12.5964
45.0806 12.5433
45.1288 12.5252
45.1773 12.4238
45.2257 12.3854
45.2739 12.3451
45.3224 12.3108
45.3706 12.297
45.4191 12.1957
45.4673 12.221
45.5158 12.1394
45.5641 12.0493
45.6126 12.0206
45.6609 11.9847
45.7094 11.9462
45.7577 11.917
45.8063 11.8631
45.8546 11.8571
45.9031 11.7802
45.9515 11.7564
46.0001 11.6803
46.0484 11.7056
46.097 11.6883
46.1454 11.592
46.194 11.5471
46.2424 11.4877
46.291 11.4385
46.3395 11.4766
46.3881 11.3549
46.4365 11.361
46.4852 11.2961
46.5337 11.2691
46.5823 11.2504
46.631 11.1703
46.6795 11.1524
46.7282 11.1086
46.7767 11.0699
46.8254 10.988
46.8739 10.9722
46.9226 10.9112
46.9712 10.8692
47.0199 10.8359
47.0685 10.8018
47.1173 10.7472
47.1658 10.7255
47.2146 10.6877
47.2632 10.6236
47.312 10.6224
47.3606 10.5708
47.4095 10.5672
47.4581 10.4625
47.5069 10.4367
47.5556 10.4084
47.6044 10.3366
47.6531 10.3595
47.702 10.2836
47.7507 10.2564
47.7996 10.1885
47.8483 10.174
47.8972 10.1888
47.9461 10.1144
47.9948 10.029
48.0438 10.0346
48.0925 10.0569
48.1415 9.98371
48.1902 9.92215
48.2392 9.89182
48.288 9.89271
48.337 9.84515
48.3858 9.76223
48.4348 9.71865
48.4837 9.74966
48.5327 9.66814
48.5815 9.62063
48.6306 9.63357
48.6795 9.55827
48.7285 9.55417
48.7774 9.53177
48.8265 9.52035
48.8754 9.45575
48.9245 9.42218
48.9734 9.34623
49.0226 9.38578
49.0715 9.23477
49.1206 9.2725
49.1696 9.19971
49.2188 9.19204
49.2679 9.17837
49.3169 9.12646
49.3661 9.09824
49.4151 9.05889
49.4643 9.05879
49.5134 8.95459
49.5626 8.92821
49.6117 8.92753
49.6609 8.86633
49.71 8.84946
49.7592 8.82139
49.8083 8.74712
49.8576 8.762
49.9067 8.71958
49.956 8.69175
50.0052 8.64907
50.0545 8.6104
50.1036 8.61955
50.153 8.54673
50.2022 8.51394
50.2515 8.47251
50.3007 8.4547
50.3501 8.41332
50.3993 8.37004
50.4487 8.3324
50.498 8.35358
50.5474 8.28222
50.5966 8.31212
50.6461 8.2399
50.6955 8.21626
50.7448 8.1667
50.7943 8.15508
50.8436 8.1283
50.8931 8.04997
50.9424 8.05912
50.9919 7.99674
51.0413 7.96592
51.0908 7.94047
51.1402 7.88159
51.1897 7.88694
51.2391 7.8469
51.2887 7.79961
51.3381 7.75595
51.3877 7.78345
51.4371 7.74002
51.4867 7.67619
51.5362 7.66421
51.5858 7.62966
51.6353 7.59866
51.6849 7.57136
51.7344 7.49559
51.7841 7.52078
51.8336 7.47367
51.8833 7.44678
51.9328 7.39763
51.9826 7.35361
52.0323 7.31872
52.0818 7.32194
52.1316 7.27154
52.1812 7.29301
52.231 7.22507
52.2806 7.21415
52.3304 7.20372
52.38 7.11544
52.4298 7.09825
52.4794 7.1076
52.5293 7.03541
52.5789 7.00675
52.6288 6.99369
52.6785 6.91309
52.7284 6.93592
52.7781 6.89281
52.828 6.91307
52.8777 6.83201
52.9276 6.81348
52.9774 6.7828
53.0273 6.75973
53.0771 6.73571
53.1271 6.73182
53.1769 6.6971
53.2269 6.65771
53.2767 6.64011
53.3267 6.60513
53.3765 6.57461
53.4266 6.54317
53.4766 6.51607
53.5265 6.42254
53.5765 6.44725
53.6264 6.41061
53.6765 6.37824
53.7264 6.38281
53.7765 6.32523
53.8265 6.31625
53.8766 6.29313
53.9266 6.26006
53.9767 6.24426
54.0267 6.15992
54.0769 6.14224
54.1269 6.10266
54.1771 6.06721
54.2271 6.08371
54.2773 6.00787
54.3274 5.9808
54.3776 5.94247
54.4277 5.93183
54.478 5.89668
54.528 5.8284
54.5783 5.80919
54.6285 5.7254
54.6788 5.73482
54.7289 5.58795
54.7792 5.61471
54.8296 5.54251
54.8798 5.52001
54.9301 5.49606
54.9803 5.45896
55.0307 5.45112
55.0809 5.37915
55.1314 5.34118
55.1816 5.26232
55.232 5.25138
55.2823 5.1704
55.3328 5.07037
55.383 5.05575
55.4335 5.03158
55.4838 4.98522
55.5344 4.936
55.5847 4.92207
55.6352 4.86608
55.6856 4.83881
55.7361 4.85771