File: XRD/Ni3Fe_FD0091.xy
TT I
1.27165 9.06381
1.31627 8.07991
1.36089 7.88396
1.40551 8.07382
1.45013 7.47623
1.49476 7.13673
1.53938 7.26658
1.584 6.96223
1.62863 5.91521
1.67325 6.53408
1.71787 5.9554
1.7625 5.64953
1.80712 5.84098
1.85174 5.6761
1.89636 5.6674
1.94099 5.87356
1.98562 5.62317
2.03025 6.02688
2.07487 5.28047
2.11949 5.45004
2.16411 5.59126
2.20874 4.86116
2.25338 5.12159
2.298 5.16967
2.34263 4.67059
2.38725 5.33456
2.43188 3.91115
2.4765 4.355
2.52115 3.8125
2.56577 4.59759
2.6104 4.86964
2.65503 4.19105
2.69965 4.62023
2.7443 5.42495
2.78893 6.33541
2.83356 6.77959
2.87818 7.68358
2.92281 8.07981
2.96744 9.25858
3.01209 10.2086
3.05672 10.7902
3.10135 11.9335
3.14599 12.8595
3.19062 14.1219
3.23527 14.8549
3.2799 16.0594
3.32454 17.002
3.36917 17.9008
3.4138 18.7116
3.45844 19.4244
3.50309 20.6
3.54773 20.6149
3.59237 21.0572
3.637 22.0953
3.68164 22.8018
3.7263 24.0325
3.77094 24.3065
3.81558 25.1835
3.86022 26.1364
3.90486 27.301
3.9495 27.9416
3.99416 28.935
4.0388 30.8426
4.08344 31.732
4.12809 32.2313
4.17273 33.7639
4.21738 35.1217
4.26204 36.3561
4.30669 38.0863
4.35133 39.2868
4.39598 40.6438
4.44063 41.8598
4.4853 44.5218
4.52995 46.5707
4.5746 48.7312
4.61925 51.0962
4.6639 53.1996
4.70855 56.6653
4.75322 59.2162
4.79788 62.3228
4.84253 66.1428
4.88719 71.2702
4.93184 76.591
4.97652 84.876
5.02118 95.897
5.06583 109.245
5.11049 129.723
5.15515 183.038
5.19981 723.598
5.24449 3759.28
5.28916 5898.8
5.33382 7518.61
5.37848 857.555
5.42315 210.591
5.46783 146.547
5.5125 124.69
5.55716 115.132
5.60183 107.483
5.6465 104.034
5.69117 101.888
5.73586 99.7433
5.78053 99.6651
5.8252 100.868
5.86988 105.518
5.91455 116.415
5.95924 144.85
6.00392 364.594
6.0486 1446.56
6.09328 1905.85
6.13795 3720.84
6.18263 1079.62
6.22733 164.626
6.27201 101.687
6.3167 84.1732
6.36138 75.427
6.40606 70.2021
6.45075 67.7668
6.49545 64.557
6.54014 62.3142
6.58483 61.03
6.62952 59.3753
6.67421 57.7907
6.71892 57.035
6.76361 56.0255
6.8083 55.0312
6.853 54.1375
6.89769 53.8577
6.94239 53.1256
6.98711 52.6335
7.03181 52.2746
7.07651 52.279
7.12121 51.6183
7.16591 51.97
7.21063 51.3403
7.25533 51.1689
7.30004 51.3469
7.34475 51.3525
7.38945 51.6687
7.43416 51.2607
7.47889 52.1151
7.5236 61.8835
7.56831 88.2906
7.61303 62.8875
7.65774 53.3112
7.70247 53.163
7.74719 53.4447
7.79191 54.0941
7.83663 54.2073
7.88135 55.2022
7.92607 56.2767
7.97081 57.4736
8.01553 58.4339
8.06026 59.5235
8.10498 61.1596
8.14971 62.7818
8.19446 64.4823
8.23919 67.1442
8.28392 70.1342
8.32865 73.1985
8.37339 78.6741
8.41812 85.2114
8.46288 100.544
8.50761 198.287
8.55235 665.215
8.59709 699.982
8.64183 998.143
8.68658 1767.47
8.73134 635.473
8.77609 138.72
8.82083 103.393
8.86558 93.9939
8.91033 88.4205
8.9551 85.6826
8.99985 84.0074
9.04461 82.8032
9.08936 81.9775
9.13412 81.251
9.17888 81.9067
9.22365 97.6669
9.26841 138.557
9.31318 104.229
9.35794 83.3904
9.4027 81.6964
9.44749 82.2122
9.49226 82.539
9.53703 83.1885
9.5818 84.9335
9.62657 86.1035
9.67134 87.6148
9.71614 89.8176
9.76091 92.1309
9.80569 94.7041
9.85047 98.5727
9.89525 105.36
9.94005 118.604
9.98484 208.395
10.0296 606.132
10.0744 639.087
10.1192 659.649
10.164 1360.11
10.2088 1302.47
10.2536 314.69
10.2984 126.585
10.3432 111.436
10.388 106.768
10.4328 126.93
10.4776 232.801
10.5224 237.483
10.5672 231.679
10.612 401.142
10.6568 457.094
10.7017 181.441
10.7465 99.4805
10.7913 84.3872
10.8361 80.4156
10.8809 77.0927
10.9257 74.9199
10.9706 73.4025
11.0154 71.6643
11.0602 70.0571
11.105 69.0856
11.1499 67.6963
11.1947 66.4429
11.2395 65.5172
11.2844 64.8932
11.3292 64.1438
11.374 63.6633
11.4189 63.0307
11.4637 62.2871
11.5086 61.64
11.5534 61.2339
11.5983 60.9783
11.6431 60.8796
11.688 60.4666
11.7328 60.4801
11.7777 60.2141
11.8225 60.2951
11.8674 60.6731
11.9122 63.2788
11.9571 73.6285
12.002 73.9607
12.0468 70.7492
12.0917 94.2292
12.1366 105.947
12.1814 98.4099
12.2263 114.862
12.2712 172.783
12.3161 163.753
12.3609 85.681
12.4058 65.194
12.4507 62.7299
12.4956 62.0686
12.5405 62.216
12.5853 62.5127
12.6302 62.4634
12.6751 63.1779
12.72 63.991
12.7649 65.0408
12.8098 65.5047
12.8547 66.9504
12.8996 68.406
12.9445 69.6191
12.9894 71.8458
13.0343 73.9588
13.0792 79.3641
13.1242 89.4896
13.1691 142.231
13.214 195.884
13.2589 175.949
13.3038 176.783
13.3487 259.777
13.3937 393.073
13.4386 278.109
13.4835 139.143
13.5285 166.734
13.5734 184.083
13.6183 157.873
13.6633 171.091
13.7082 264.103
13.7531 342.509
13.7981 202.309
13.843 95.8566
13.888 80.9622
13.9329 77.0888
13.9779 75.4536
14.0228 73.7638
14.0678 72.4665
14.1127 73.2394
14.1577 80.0727
14.2027 78.5844
14.2476 71.742
14.2926 68.4952
14.3376 68.136
14.3825 67.6903
14.4275 67.159
14.4725 67.153
14.5175 67.2696
14.5624 67.0141
14.6074 67.3589
14.6524 67.853
14.6974 68.5276
14.7424 70.6732
14.7874 81.6535
14.8324 112.091
14.8774 119.919
14.9224 108.221
14.9674 113.555
15.0124 150.436
15.0574 207.976
15.1024 171.105
15.1474 93.0412
15.1924 72.7515
15.2374 68.807
15.2824 67.305
15.3274 65.934
15.3725 65.3379
15.4175 64.9445
15.4625 64.6335
15.5076 64.2881
15.5526 64.4639
15.5976 64.6686
15.6426 65.9638
15.6877 74.5845
15.7327 99.2808
15.7778 108.052
15.8228 97.4604
15.8679 98.0187
15.9129 117.569
15.958 169.578
16.003 178.634
16.0481 109.361
16.0931 71.8604
16.1382 63.3183
16.1833 60.1362
16.2283 58.2469
16.2734 57.1418
16.3185 56.372
16.3636 55.8317
16.4086 55.1732
16.4537 54.5505
16.4988 53.8627
16.5439 53.9082
16.589 53.4988
16.6341 53.4766
16.6792 52.943
16.7243 53.1927
16.7694 53.057
16.8145 53.0686
16.8596 53.3733
16.9047 54.0872
16.9498 54.9621
16.9949 54.8159
17.04 54.6651
17.0851 56.02
17.1302 60.8631
17.1754 63.9678
17.2205 62.7018
17.2656 61.6943
17.3108 64.7752
17.3559 71.4154
17.401 80.998
17.4462 76.5015
17.4913 63.3824
17.5365 58.338
17.5815 57.9573
17.6268 58.0764
17.6718 58.4661
17.7171 59.2548
17.7622 60.6861
17.8074 61.8266
17.8525 63.4619
17.8977 72.8028
17.9428 85.7969
17.9881 87.3126
18.0331 82.1829
18.0784 82.6749
18.1237 93.7441
18.1688 124.254
18.214 151.719
18.2591 126.44
18.3044 88.2146
18.3495 77.9241
18.3948 82.3088
18.4399 96.3295
18.4852 101.768
18.5303 84.2615
18.5756 67.1877
18.6207 62.2496
18.666 60.2901
18.7112 59.0993
18.7565 58.3697
18.8016 57.8466
18.8469 57.433
18.892 56.924
18.9374 56.2523
18.9825 56.03
19.0278 55.9116
19.073 55.9224
19.1183 56.567
19.1635 59.3132
19.2088 61.4217
19.254 60.6821
19.2993 60.2423
19.3447 61.2567
19.3898 63.6491
19.4352 68.9002
19.4804 73.7533
19.5257 67.8075
19.5709 58.0592
19.6163 53.8675
19.6615 52.9708
19.7068 52.4646
19.752 52.5168
19.7974 52.5711
19.8426 53.8583
19.888 56.441
19.9332 57.7748
19.9786 56.8215
20.0238 55.9052
20.0692 57.6551
20.1144 61.9393
20.1598 68.3948
20.205 71.2375
20.2504 66.7123
20.2957 59.343
20.3411 57.2752
20.3863 60.3144
20.4318 64.2692
20.477 61.9418
20.5224 54.6682
20.5677 50.7267
20.6131 49.5457
20.6586 48.9724
20.7038 48.8617
20.7493 48.4175
20.7945 48.7589
20.84 48.4835
20.8853 48.0526
20.9307 47.8828
20.976 47.9866
21.0215 48.2449
21.0668 48.4701
21.1122 48.5159
21.1575 48.2985
21.203 48.1845
21.2483 48.261
21.2938 49.453
21.3391 50.346
21.3846 50.3264
21.4299 49.0251
21.4754 48.062
21.5207 48.1389
21.5662 48.0084
21.6116 48.5749
21.6571 50.7931
21.7024 52.6487
21.7479 53.2102
21.7933 52.2299
21.8388 52.5558
21.8843 54.3683
21.9297 57.0336
21.9752 61.2185
22.0206 65.3095
22.0661 62.3489
22.1115 56.2991
22.157 53.5538
22.2024 54.7084
22.248 55.3885
22.2933 53.4785
22.3389 50.1706
22.3843 48.5273
22.4299 48.0507
22.4753 48.0073
22.5208 47.6883
22.5662 47.7403
22.6118 47.8401
22.6572 48.1172
22.7028 49.5695
22.7483 51.0551
22.7939 51.1304
22.8393 50.6612
22.8849 50.3603
22.9303 50.4599
22.9759 51.3757
23.0214 53.3995
23.067 56.9044
23.1126 57.2466
23.1581 53.7287
23.2037 49.878
23.2492 48.6603
23.2948 49.0145
23.3403 50.7125
23.3859 51.3603
23.4314 50.886
23.477 50.0749
23.5225 49.6843
23.5682 50.076
23.6137 51.6395
23.6593 54.4861
23.7048 57.4108
23.7505 55.386
23.796 50.2634
23.8417 46.8712
23.8872 45.3624
23.9329 44.9526
23.9784 44.5389
24.0241 44.2948
24.0697 44.021
24.1154 43.6369
24.1609 43.5414
24.2066 43.1572
24.2522 43.2653
24.2979 42.9023
24.3434 42.7615
24.3892 42.5311
24.4349 42.3228
24.4805 42.1362
24.5262 42.3329
24.5718 42.0441
24.6175 42.159
24.6631 42.3946
24.7089 42.4179
24.7545 42.1217
24.8002 41.9066
24.8458 41.7346
24.8916 41.9356
24.9372 41.9348
24.983 42.1142
25.0286 42.1179
25.0744 42.5383
25.12 42.7644
25.1658 43.0379
25.2114 43.0736
25.2572 43.5264
25.3029 43.774
25.3487 43.6623
25.3943 43.2937
25.4402 43.81
25.4858 44.3742
25.5316 43.2832
25.5773 41.7254
25.6231 40.7665
25.669 40.2644
25.7147 40.0726
25.7605 40.1246
25.8062 40.3296
25.8521 40.5067
25.8977 40.3878
25.9436 40.2276
25.9893 39.8993
26.0352 39.9476
26.0809 40.0906
26.1268 40.2632
26.1725 40.7118
26.2184 41.3552
26.2641 41.1809
26.31 40.6424
26.3557 40.4678
26.4017 40.1554
26.4474 40.0424
26.4933 39.9429
26.5391 40.1288
26.585 40.1729
26.6308 40.2391
26.6767 40.495
26.7225 41.1367
26.7684 41.8269
26.8142 41.6783
26.8601 40.9141
26.9059 40.2258
26.9519 39.9996
26.9979 39.5865
27.0437 39.1351
27.0896 38.5976
27.1354 38.4609
27.1814 38.2659
27.2272 38.1912
27.2732 38.2383
27.3191 38.0457
27.3651 38.0125
27.4109 37.7803
27.4569 37.822
27.5027 37.8183
27.5488 37.7765
27.5946 37.8054
27.6407 38.0569
27.6865 38.1833
27.7326 38.0449
27.7784 38.1392
27.8245 37.8007
27.8703 37.5026
27.9164 37.6499
27.9623 37.5718
28.0084 37.6582
28.0543 37.7488
28.1003 37.8623
28.1462 38.2323
28.1923 38.6305
28.2384 38.3156
28.2843 37.8164
28.3304 37.3911
28.3764 37.2775
28.4225 36.7726
28.4684 36.3844
28.5145 35.8575
28.5605 35.5272
28.6066 35.4204
28.6526 35.4316
28.6987 35.2769
28.7447 34.9486
28.7908 34.8975
28.8368 34.7783
28.8829 34.724
28.9289 34.8046
28.9751 34.6857
29.0211 34.6959
29.0673 34.6502
29.1133 34.5603
29.1595 34.1415
29.2055 33.9781
29.2517 33.807
29.2977 33.6163
29.3439 33.5009
29.3899 33.5117
29.4361 33.4755
29.4824 33.4888
29.5284 33.6086
29.5746 33.3979
29.6207 33.1133
29.6669 32.829
29.713 32.5644
29.7593 32.425
29.8053 32.4129
29.8516 32.3831
29.8977 32.3383
29.9439 32.1642
29.99 32.1693
30.0363 31.9894
30.0824 32.0138
30.1287 31.8575
30.1748 31.8391
30.2211 31.8699
30.2673 31.7755
30.3136 31.9131
30.3597 31.9388
30.406 32.0118
30.4522 31.8894
30.4985 31.7143
30.5447 31.7038
30.591 31.4757
30.6372 31.4745
30.6835 31.4881
30.7297 31.5199
30.7761 31.5503
30.8224 31.7206
30.8686 31.7332
30.915 31.5796
30.9612 31.3587
31.0076 31.1794
31.0538 31.0113
31.1002 30.9105
31.1464 30.6757
31.1928 30.6134
31.2391 30.6025
31.2855 30.4687
31.3317 30.3185
31.3781 30.3721
31.4244 30.2435
31.4708 30.2839
31.5171 30.3032
31.5636 30.3831
31.6098 30.3743
31.6563 30.3066
31.7026 30.2021
31.7491 29.8775
31.7953 29.842
31.8418 29.7778
31.8881 29.5752
31.9346 29.5531
31.9809 29.5425
32.0275 29.5034
32.074 29.5333
32.1203 29.4144
32.1668 29.291
32.2132 29.1208
32.2597 29.0332
32.306 28.9457
32.3526 28.6855
32.399 28.5924
32.4455 28.4625
32.4919 28.3189
32.5385 28.3385
32.5848 28.1241
32.6314 28.125
32.6778 28.076
32.7244 27.8731
32.7708 27.8094
32.8174 27.7537
32.8638 27.6664
32.9104 27.7011
32.9569 27.6125
33.0035 27.4788
33.0499 27.4534
33.0966 27.3976
33.143 27.3389
33.1897 27.1809
33.2361 27.1537
33.2828 27.1779
33.3293 27.0595
33.3759 27.1533
33.4226 26.9187
33.4691 26.9344
33.5158 26.8688
33.5623 26.6109
33.609 26.3811
33.6555 26.4093
33.7022 26.2479
33.7487 26.2167
33.7954 26.132
33.842 25.9735
33.8887 25.9243
33.9353 25.8554
33.982 25.8671
34.0286 25.7715
34.0753 25.6743
34.1219 25.6543
34.1687 25.5023
34.2152 25.4205
34.262 25.2747
34.3086 25.1931
34.3554 25.1944
34.402 24.9995
34.4488 24.9165
34.4954 24.964
34.5422 24.8159
34.5889 24.8099
34.6357 24.7132
34.6825 24.5339
34.7292 24.4549
34.776 24.3685
34.8227 24.3056
34.8695 24.2493
34.9162 24.2656
34.9631 24.0744
35.0098 24.1374
35.0566 23.9874
35.1033 23.8973
35.1502 23.959
35.1969 23.8282
35.2438 23.8448
35.2906 23.7484
35.3375 23.6413
35.3842 23.6178
35.4311 23.5816
35.4779 23.4986
35.5248 23.4764
35.5716 23.4093
35.6185 23.4326
35.6653 23.4392
35.7123 23.3055
35.759 23.1463
35.806 23.1028
35.8528 22.9917
35.8998 22.8807
35.9468 22.7811
35.9936 22.7653
36.0406 22.6612
36.0874 22.6772
36.1345 22.5716
36.1813 22.4958
36.2283 22.4363
36.2752 22.3484
36.3222 22.3896
36.3691 22.3127
36.4161 22.1174
36.463 22.136
36.5101 22.0594
36.557 22.0886
36.6041 21.8988
36.651 21.9229
36.6981 21.8347
36.745 21.758
36.7921 21.7825
36.839 21.5877
36.8861 21.5863
36.9331 21.4955
36.9802 21.4154
37.0272 21.2567
37.0743 21.2263
37.1213 21.1606
37.1684 21.0947
37.2154 21.0317
37.2626 20.986
37.3098 20.8466
37.3568 20.8396
37.404 20.8088
37.451 20.7331
37.4982 20.626
37.5452 20.5247
37.5924 20.4936
37.6395 20.5469
37.6867 20.4389
37.7337 20.3284
37.781 20.2268
37.8281 20.2027
37.8753 20.1206
37.9224 20.051
37.9697 19.9406
38.0168 19.9129
38.064 19.9127
38.1111 19.8706
38.1584 19.77
38.2056 19.6544
38.2529 19.6514
38.3 19.5208
38.3473 19.6061
38.3945 19.491
38.4418 19.35
38.489 19.2997
38.5363 19.2928
38.5837 19.1385
38.6309 19.1463
38.6782 19.0291
38.7254 19.0334
38.7728 18.9507
38.82 18.8723
38.8674 18.848
38.9146 18.7884
38.9621 18.7706
39.0093 18.6777
39.0567 18.5923
39.104 18.5937
39.1514 18.4857
39.1987 18.4031
39.2461 18.3341
39.2934 18.2463
39.3409 18.1437
39.3882 18.2056
39.4356 18.0747
39.483 18.0884
39.5304 18.0205
39.5778 18.0141
39.6253 17.8849
39.6726 17.8384
39.7201 17.8117
39.7675 17.7304
39.815 17.7064
39.8624 17.5948
39.9099 17.6078
39.9575 17.4619
40.0049 17.5057
40.0525 17.4221
40.0999 17.3994
40.1474 17.3267
40.1949 17.2763
40.2425 17.1754
40.2899 17.1552
40.3375 17.0986
40.385 16.9897
40.4326 17.0203
40.48 16.8651
40.5277 16.9069
40.5752 16.8015
40.6228 16.7503
40.6703 16.7125
40.718 16.585
40.7655 16.6006
40.8132 16.5671
40.8607 16.5552
40.9084 16.4973
40.9559 16.3952
41.0036 16.3524
41.0512 16.3414
41.0989 16.2194
41.1465 16.1847
41.1942 16.1654
41.242 16.1019
41.2896 16.0325
41.3373 15.9299
41.3849 15.9549
41.4327 15.8659
41.4803 15.8043
41.5281 15.7694
41.5758 15.6454
41.6236 15.6436
41.6712 15.5391
41.7191 15.5403
41.7667 15.4476
41.8146 15.5406
41.8622 15.431
41.9101 15.3497
41.9578 15.2345
42.0057 15.1844
42.0534 15.1983
42.1013 15.2018
42.149 15.0509
42.1969 15.081
42.2446 14.9999
42.2925 14.957
42.3403 14.8959
42.3882 14.8454
42.436 14.863
42.4839 14.6972
42.5319 14.7192
42.5797 14.6442
42.6277 14.6227
42.6755 14.5604
42.7235 14.4434
42.7713 14.4645
42.8193 14.4304
42.8671 14.3493
42.9152 14.3129
42.963 14.2405
43.0111 14.1927
43.0589 14.1615
43.107 14.0933
43.1549 14.0452
43.2029 14.0084
43.2508 13.9407
43.2989 13.8527
43.3468 13.8724
43.3949 13.8392
43.4429 13.7513
43.491 13.6947
43.5389 13.6898
43.5871 13.6848
43.635 13.572
43.6832 13.5791
43.7312 13.4669
43.7793 13.4037
43.8273 13.4067
43.8755 13.3331
43.9237 13.354
43.9717 13.2637
44.0199 13.2081
44.068 13.1751
44.1162 13.0634
44.1642 13.1386
44.2125 13.0252
44.2606 13.0256
44.3088 13.0023
44.3569 12.8838
44.4052 12.8669
44.4533 12.7429
44.5016 12.7484
44.5497 12.6963
44.598 12.6471
44.6461 12.6157
44.6945 12.5486
44.7426 12.5358
44.791 12.4619
44.8391 12.4272
44.8875 12.4223
44.9357 12.3319
44.984 12.3249
45.0322 12.2453
45.0806 12.1937
45.1288 12.1483
45.1773 12.1617
45.2257 12.096
45.2739 12.0275
45.3224 12.011
45.3706 11.9393
45.4191 11.8923
45.4673 11.8441
45.5158 11.8758
45.5641 11.8249
45.6126 11.7462
45.6609 11.7171
45.7094 11.6514
45.7577 11.6026
45.8063 11.5746
45.8546 11.5279
45.9031 11.4964
45.9515 11.4846
46.0001 11.4255
46.0484 11.3669
46.097 11.3702
46.1454 11.3253
46.194 11.2455
46.2424 11.246
46.291 11.1805
46.3395 11.112
46.3881 11.083
46.4365 11.0888
46.4852 10.9979
46.5337 10.9539
46.5823 10.952
46.631 10.8646
46.6795 10.9269
46.7282 10.8405
46.7767 10.7969
46.8254 10.7294
46.8739 10.667
46.9226 10.6511
46.9712 10.6011
47.0199 10.5771
47.0685 10.5271
47.1173 10.5059
47.1658 10.5067
47.2146 10.4083
47.2632 10.3809
47.312 10.3751
47.3606 10.3178
47.4095 10.2543
47.4581 10.2395
47.5069 10.1862
47.5556 10.1465
47.6044 10.0986
47.6531 10.0807
47.702 10.0539
47.7507 10.0219
47.7996 9.96659
47.8483 9.94314
47.8972 9.93
47.9461 9.85977
47.9948 9.81579
48.0438 9.7834
48.0925 9.76305
48.1415 9.71788
48.1902 9.66371
48.2392 9.67924
48.288 9.65814
48.337 9.59338
48.3858 9.52946
48.4348 9.52529
48.4837 9.50019
48.5327 9.46054
48.5815 9.41247
48.6306 9.36169
48.6795 9.35169
48.7285 9.30677
48.7774 9.30859
48.8265 9.2406
48.8754 9.18264
48.9245 9.20372
48.9734 9.12859
49.0226 9.16527
49.0715 9.04703
49.1206 9.03193
49.1696 8.99202
49.2188 8.98323
49.2679 8.95155
49.3169 8.89625
49.3661 8.87136
49.4151 8.8204
49.4643 8.83107
49.5134 8.74342
49.5626 8.69289
49.6117 8.67393
49.6609 8.65316
49.71 8.65474
49.7592 8.59869
49.8083 8.59043
49.8576 8.52973
49.9067 8.50412
49.956 8.49035
50.0052 8.43664
50.0545 8.4251
50.1036 8.35707
50.153 8.34544
50.2022 8.30876
50.2515 8.26847
50.3007 8.23545
50.3501 8.2333
50.3993 8.20731
50.4487 8.16255
50.498 8.13817
50.5474 8.09477
50.5966 8.04793
50.6461 8.0376
50.6955 8.00774
50.7448 8.00733
50.7943 7.95332
50.8436 7.89591
50.8931 7.90115
50.9424 7.86459
50.9919 7.83695
51.0413 7.81599
51.0908 7.75343
51.1402 7.75769
51.1897 7.69951
51.2391 7.67425
51.2887 7.60165
51.3381 7.62593
51.3877 7.61026
51.4371 7.50476
51.4867 7.50826
51.5362 7.51014
51.5858 7.42354
51.6353 7.40049
51.6849 7.38537
51.7344 7.37311
51.7841 7.30694
51.8336 7.28012
51.8833 7.25355
51.9328 7.2233
51.9826 7.18407
52.0323 7.15327
52.0818 7.12346
52.1316 7.11447
52.1812 7.06171
52.231 7.03607
52.2806 7.03702
52.3304 7.02915
52.38 6.9597
52.4298 6.93696
52.4794 6.91084
52.5293 6.91233
52.5789 6.87174
52.6288 6.83116
52.6785 6.77349
52.7284 6.76213
52.7781 6.75027
52.828 6.72634
52.8777 6.66648
52.9276 6.6372
52.9774 6.62514
53.0273 6.56153
53.0771 6.60498
53.1271 6.57411
53.1769 6.5198
53.2269 6.50759
53.2767 6.45198
53.3267 6.42982
53.3765 6.39842
53.4266 6.36061
53.4766 6.35273
53.5265 6.31267
53.5765 6.30684
53.6264 6.27202
53.6765 6.18581
53.7264 6.21671
53.7765 6.16684
53.8265 6.17483
53.8766 6.11563
53.9266 6.07985
53.9767 6.02562
54.0267 6.05241
54.0769 5.97995
54.1269 5.94725
54.1771 5.9383
54.2271 5.90611
54.2773 5.81411
54.3274 5.84213
54.3776 5.76241
54.4277 5.73743
54.478 5.72151
54.528 5.6387
54.5783 5.59118
54.6285 5.56999
54.6788 5.55101
54.7289 5.48836
54.7792 5.45288
54.8296 5.39425
54.8798 5.36484
54.9301 5.34125
54.9803 5.26901
55.0307 5.27002
55.0809 5.20506
55.1314 5.11945
55.1816 5.0618
55.232 5.06233
55.2823 5.01712
55.3328 4.94848
55.383 4.88337
55.4335 4.86971
55.4838 4.77986
55.5344 4.79737
55.5847 4.74684
55.6352 4.75428
55.6856 4.71005
55.7361 4.65295