File: XRD/Ni3Fe_FD0571.xy
TT I
1.27165 7.19992
1.31627 6.35615
1.36089 7.01081
1.40551 5.64634
1.45013 6.41044
1.49476 5.36061
1.53938 6.13423
1.584 5.19015
1.62863 5.66728
1.67325 4.87481
1.71787 5.27403
1.7625 4.71902
1.80712 4.64788
1.85174 5.17725
1.89636 4.81383
1.94099 4.84497
1.98562 4.48153
2.03025 4.89829
2.07487 4.78132
2.11949 4.60139
2.16411 4.34962
2.20874 10.8155
2.25338 14.8248
2.298 5.54084
2.34263 5.39397
2.38725 5.41126
2.43188 6.14794
2.4765 6.95036
2.52115 6.60378
2.56577 6.01406
2.6104 7.89486
2.65503 8.01108
2.69965 8.22682
2.7443 7.80056
2.78893 7.69559
2.83356 8.13561
2.87818 8.35932
2.92281 8.81542
2.96744 9.40474
3.01209 10.6169
3.05672 11.1176
3.10135 12.3466
3.14599 12.8306
3.19062 14.6729
3.23527 15.019
3.2799 15.8291
3.32454 16.1191
3.36917 17.3802
3.4138 19.1022
3.45844 19.8676
3.50309 21.0109
3.54773 21.5097
3.59237 23.16
3.637 62.1089
3.68164 42.8532
3.7263 25.7001
3.77094 26.123
3.81558 26.691
3.86022 27.5181
3.90486 29.109
3.9495 29.8161
3.99416 30.7648
4.0388 32.1197
4.08344 34.0594
4.12809 34.6619
4.17273 36.6657
4.21738 40.878
4.26204 158.608
4.30669 134.805
4.35133 45.7508
4.39598 44.328
4.44063 50.3743
4.4853 57.5771
4.52995 51.853
4.5746 53.6928
4.61925 54.1654
4.6639 55.9915
4.70855 58.8412
4.75322 61.9883
4.79788 65.5982
4.84253 68.8542
4.88719 73.7002
4.93184 77.0387
4.97652 82.4514
5.02118 88.7885
5.06583 97.0857
5.11049 109.484
5.15515 164.889
5.19981 458.826
5.24449 3253.53
5.28916 12308.6
5.33382 2783.69
5.37848 196.563
5.42315 130.644
5.46783 116.744
5.5125 109.112
5.55716 103.791
5.60183 99.8691
5.6465 97.283
5.69117 95.5979
5.73586 93.5464
5.78053 95.034
5.8252 94.6528
5.86988 96.3543
5.91455 97.0227
5.95924 108.423
6.00392 265.031
6.0486 1117.66
6.09328 4472.31
6.13795 3335.01
6.18263 244.926
6.22733 93.9746
6.27201 82.62
6.3167 90.6225
6.36138 76.6725
6.40606 69.7303
6.45075 67.9794
6.49545 65.6679
6.54014 64.1934
6.58483 63.2455
6.62952 63.0042
6.67421 80.6938
6.71892 106.421
6.76361 64.1875
6.8083 59.1881
6.853 58.433
6.89769 57.2794
6.94239 56.7799
6.98711 55.9311
7.03181 55.8373
7.07651 55.2145
7.12121 55.091
7.16591 55.8778
7.21063 55.7024
7.25533 64.039
7.30004 125.268
7.34475 75.0957
7.38945 55.6842
7.43416 54.1449
7.47889 54.5332
7.5236 54.9147
7.56831 55.557
7.61303 56.6183
7.65774 56.8692
7.70247 56.6593
7.74719 56.545
7.79191 57.3745
7.83663 57.2562
7.88135 58.0611
7.92607 59.1271
7.97081 60.5406
8.01553 61.5516
8.06026 62.8795
8.10498 64.135
8.14971 70.8205
8.19446 71.1883
8.23919 70.0521
8.28392 72.4668
8.32865 75.3026
8.37339 79.4717
8.41812 85.7992
8.46288 108.751
8.50761 193.911
8.55235 441.318
8.59709 1235.26
8.64183 2151.28
8.68658 931.507
8.73134 158.104
8.77609 100.018
8.82083 93.696
8.86558 91.1159
8.91033 90.5119
8.9551 90.0848
8.99985 85.7548
9.04461 84.5618
9.08936 84.2844
9.13412 83.0395
9.17888 83.2433
9.22365 83.1898
9.26841 83.1822
9.31318 83.9826
9.35794 84.7159
9.4027 84.9538
9.44749 85.5606
9.49226 85.9358
9.53703 86.3414
9.5818 88.74
9.62657 92.6052
9.67134 96.8456
9.71614 94.3414
9.76091 95.4424
9.80569 98.4035
9.85047 101.343
9.89525 117.192
9.94005 133.293
9.98484 207.179
10.0296 382.751
10.0744 863.621
10.1192 1703.54
10.164 1501.95
10.2088 367.346
10.2536 125.199
10.2984 111.731
10.3432 111.58
10.388 106.409
10.4328 127.321
10.4776 171.459
10.5224 300.579
10.5672 524.287
10.612 502.111
10.6568 190.693
10.7017 95.8631
10.7465 87.1252
10.7913 84.0609
10.8361 81.8657
10.8809 79.3969
10.9257 78.5592
10.9706 78.4764
11.0154 75.2034
11.0602 73.0295
11.105 71.9035
11.1499 74.1855
11.1947 77.6233
11.2395 72.0829
11.2844 69.7937
11.3292 67.5646
11.374 66.7925
11.4189 66.2826
11.4637 65.1546
11.5086 65.4014
11.5534 66.7835
11.5983 64.8296
11.6431 64.0418
11.688 63.4227
11.7328 63.429
11.7777 63.3568
11.8225 62.963
11.8674 62.7442
11.9122 63.1943
11.9571 63.4435
12.002 64.749
12.0468 70.3173
12.0917 82.2939
12.1366 107.027
12.1814 156.532
12.2263 201.507
12.2712 158.941
12.3161 89.7712
12.3609 68.5301
12.4058 64.9405
12.4507 65.1003
12.4956 64.6947
12.5405 65.2925
12.5853 65.8925
12.6302 70.4257
12.6751 73.807
12.72 68.9955
12.7649 68.3388
12.8098 68.9276
12.8547 70.3082
12.8996 71.9332
12.9445 73.3383
12.9894 75.2373
13.0343 76.9407
13.0792 80.8584
13.1242 94.0779
13.1691 118.344
13.214 158.633
13.2589 252.217
13.3038 374.57
13.3487 420.567
13.3937 249.413
13.4386 121.311
13.4835 110.416
13.5285 126.801
13.5734 168.684
13.6183 258.337
13.6633 354.967
13.7082 333.321
13.7531 179.827
13.7981 96.586
13.843 82.2235
13.888 80.258
13.9329 77.547
13.9779 76.4124
14.0228 75.0613
14.0678 73.7291
14.1127 73.0863
14.1577 72.8044
14.2027 72.0789
14.2476 70.9835
14.2926 70.9414
14.3376 71.5401
14.3825 70.5477
14.4275 69.3645
14.4725 69.4662
14.5175 69.5765
14.5624 69.9918
14.6074 70.8867
14.6524 71.4618
14.6974 71.2861
14.7424 74.2276
14.7874 82.3382
14.8324 92.9261
14.8774 116.173
14.9224 158.492
14.9674 210.438
15.0124 217.451
15.0574 144.498
15.1024 88.9111
15.1474 72.7091
15.1924 70.9638
15.2374 70.5988
15.2824 69.6017
15.3274 68.2112
15.3725 67.302
15.4175 67.0304
15.4625 66.6003
15.5076 66.5176
15.5526 66.6722
15.5976 66.8602
15.6426 68.8483
15.6877 74.9378
15.7327 82.6121
15.7778 99.3059
15.8228 131.085
15.8679 172.308
15.9129 193.618
15.958 150.19
16.003 93.7653
16.0481 67.3514
16.0931 63.8284
16.1382 62.3025
16.1833 60.8412
16.2283 59.2185
16.2734 58.8846
16.3185 58.5271
16.3636 58.7689
16.4086 57.6114
16.4537 56.4044
16.4988 56.0337
16.5439 55.9804
16.589 55.7356
16.6341 55.3399
16.6792 54.8896
16.7243 55.0981
16.7694 55.3233
16.8145 55.228
16.8596 55.4782
16.9047 56.4844
16.9498 56.7249
16.9949 55.8976
17.04 56.4605
17.0851 58.0201
17.1302 59.6256
17.1754 62.8335
17.2205 68.4406
17.2656 75.4157
17.3108 82.923
17.3559 81.6836
17.401 70.8372
17.4462 62.204
17.4913 59.7071
17.5365 59.5685
17.5815 59.5674
17.6268 60.0549
17.6718 60.6746
17.7171 61.4618
17.7622 61.9011
17.8074 62.9919
17.8525 66.1862
17.8977 70.0265
17.9428 75.6528
17.9881 85.1363
18.0331 102.989
18.0784 124.024
18.1237 141.298
18.1688 131.545
18.214 102.479
18.2591 87.4361
18.3044 92.1292
18.3495 101.238
18.3948 105.922
18.4399 95.0924
18.4852 76.4041
18.5303 65.8579
18.5756 62.5558
18.6207 61.743
18.666 60.8549
18.7112 60.2512
18.7565 59.4477
18.8016 59.1767
18.8469 58.5257
18.892 58.2938
18.9374 57.8202
18.9825 57.6065
19.0278 57.3519
19.073 57.5216
19.1183 58.0617
19.1635 58.6909
19.2088 60.2336
19.254 63.0579
19.2993 67.5139
19.3447 72.9017
19.3898 76.1753
19.4352 71.8383
19.4804 62.9409
19.5257 56.7103
19.5709 54.4485
19.6163 54.2791
19.6615 54.1366
19.7068 53.8698
19.752 53.7649
19.7974 54.3929
19.8426 55.0745
19.888 55.6175
19.9332 57.083
19.9786 59.8269
20.0238 63.5744
20.0692 67.6965
20.1144 70.2155
20.1598 68.2501
20.205 63.8573
20.2504 62.62
20.2957 64.2639
20.3411 65.8026
20.3863 64.2066
20.4318 58.1589
20.477 53.4586
20.5224 51.6831
20.5677 51.1629
20.6131 50.6072
20.6586 50.1697
20.7038 49.8504
20.7493 49.4749
20.7945 49.4486
20.84 49.3297
20.8853 49.1275
20.9307 49.0014
20.976 49.1805
21.0215 48.9838
21.0668 49.5901
21.1122 49.9603
21.1575 50.6434
21.203 51.4091
21.2483 51.7211
21.2938 51.8213
21.3391 50.3829
21.3846 49.2171
21.4299 48.7418
21.4754 48.7525
21.5207 48.9912
21.5662 49.4287
21.6116 49.9367
21.6571 50.6499
21.7024 51.4284
21.7479 53.5728
21.7933 56.2596
21.8388 59.8484
21.8843 63.2823
21.9297 64.877
21.9752 63.2991
22.0206 59.4408
22.0661 56.807
22.1115 56.2062
22.157 56.1337
22.2024 54.3097
22.248 51.5842
22.2933 50.1082
22.3389 49.3648
22.3843 49.2887
22.4299 49.2309
22.4753 49.2608
22.5208 48.8546
22.5662 48.9555
22.6118 49.1423
22.6572 49.3945
22.7028 49.8032
22.7483 50.2919
22.7939 50.9928
22.8393 52.5113
22.8849 54.7572
22.9303 56.7241
22.9759 58.1142
23.0214 57.554
23.067 54.3764
23.1126 51.2789
23.1581 49.468
23.2037 49.0264
23.2492 49.2733
23.2948 49.3089
23.3403 49.6069
23.3859 50.2288
23.4314 51.4919
23.477 53.2436
23.5225 55.4084
23.5682 57.3255
23.6137 58.026
23.6593 55.5885
23.7048 51.4735
23.7505 48.3789
23.796 46.7529
23.8417 46.3384
23.8872 45.92
23.9329 45.595
23.9784 45.2174
24.0241 44.9375
24.0697 44.7335
24.1154 44.3615
24.1609 44.2527
24.2066 44.1703
24.2522 44.2049
24.2979 43.8499
24.3434 43.6038
24.3892 43.5429
24.4349 43.4178
24.4805 43.2777
24.5262 43.4001
24.5718 43.2751
24.6175 43.3448
24.6631 43.0906
24.7089 42.885
24.7545 42.6961
24.8002 42.5042
24.8458 42.4706
24.8916 42.5176
24.9372 42.7047
24.983 42.9808
25.0286 43.3154
25.0744 43.8081
25.12 44.0549
25.1658 44.6342
25.2114 45.0131
25.2572 45.1796
25.3029 45.0777
25.3487 45.1866
25.3943 44.8475
25.4402 43.7231
25.4858 42.6453
25.5316 41.7611
25.5773 41.239
25.6231 41.1984
25.669 40.7087
25.7147 40.9084
25.7605 40.7472
25.8062 40.8735
25.8521 40.892
25.8977 40.9197
25.9436 41.2665
25.9893 41.3243
26.0352 41.9095
26.0809 41.7676
26.1268 42.0627
26.1725 41.5973
26.2184 41.041
26.2641 40.5924
26.31 40.3697
26.3557 40.4276
26.4017 40.4404
26.4474 40.6886
26.4933 40.9829
26.5391 41.6632
26.585 42.1333
26.6308 42.3365
26.6767 42.3614
26.7225 42.1741
26.7684 41.6673
26.8142 41.0458
26.8601 40.8111
26.9059 40.3834
26.9519 39.729
26.9979 39.5031
27.0437 39.1485
27.0896 39.0225
27.1354 39.2034
27.1814 38.8915
27.2272 38.8297
27.2732 38.8868
27.3191 38.6238
27.3651 38.6831
27.4109 38.7403
27.4569 38.8084
27.5027 38.8153
27.5488 38.8558
27.5946 38.5702
27.6407 38.4746
27.6865 38.3847
27.7326 38.1759
27.7784 38.1687
27.8245 38.0809
27.8703 38.3757
27.9164 38.531
27.9623 38.6375
28.0084 39.0946
28.0543 39.3387
28.1003 39.2263
28.1462 39.0234
28.1923 38.639
28.2384 38.122
28.2843 37.7764
28.3304 37.399
28.3764 36.9623
28.4225 36.5582
28.4684 36.5818
28.5145 36.136
28.5605 36.1138
28.6066 35.8564
28.6526 35.8985
28.6987 35.8423
28.7447 35.8165
28.7908 35.6113
28.8368 35.7838
28.8829 35.6439
28.9289 35.5207
28.9751 35.3359
29.0211 35.1902
29.0673 34.8127
29.1133 34.8197
29.1595 34.6302
29.2055 34.551
29.2517 34.5876
29.2977 34.4793
29.3439 34.5583
29.3899 34.4865
29.4361 34.4409
29.4824 34.2078
29.5284 33.9331
29.5746 33.6093
29.6207 33.4146
29.6669 33.3391
29.713 33.1365
29.7593 33.1497
29.8053 33.0233
29.8516 33.0589
29.8977 32.9669
29.9439 32.7648
29.99 32.8817
30.0363 32.6835
30.0824 32.8251
30.1287 32.681
30.1748 32.615
30.2211 32.5855
30.2673 32.4975
30.3136 32.5933
30.3597 32.4681
30.406 32.4116
30.4522 32.2074
30.4985 32.2887
30.5447 32.4696
30.591 32.4152
30.6372 32.4405
30.6835 32.3534
30.7297 32.4251
30.7761 32.382
30.8224 32.1881
30.8686 32.0678
30.915 31.8774
30.9612 31.7516
31.0076 31.4405
31.0538 31.4864
31.1002 31.4132
31.1464 31.1635
31.1928 31.2049
31.2391 31.117
31.2855 31.1094
31.3317 31.1255
31.3781 31.1462
31.4244 31.1235
31.4708 30.9805
31.5171 31.0083
31.5636 30.9431
31.6098 30.6433
31.6563 30.5747
31.7026 30.4171
31.7491 30.363
31.7953 30.4396
31.8418 30.3251
31.8881 30.4561
31.9346 30.2401
31.9809 30.242
32.0275 30.1324
32.074 29.957
32.1203 29.7813
32.1668 29.8075
32.2132 29.6415
32.2597 29.4639
32.306 29.4237
32.3526 29.1743
32.399 29.1773
32.4455 28.9721
32.4919 28.9539
32.5385 28.7873
32.5848 28.6607
32.6314 28.7396
32.6778 28.6318
32.7244 28.5451
32.7708 28.2944
32.8174 28.4548
32.8638 28.219
32.9104 28.1668
32.9569 28.1811
33.0035 28.0576
33.0499 28.0119
33.0966 27.9924
33.143 27.9923
33.1897 27.8878
33.2361 27.9159
33.2828 27.774
33.3293 27.5502
33.3759 27.5479
33.4226 27.3713
33.4691 27.2733
33.5158 27.2514
33.5623 27.089
33.609 26.8785
33.6555 26.8728
33.7022 26.7162
33.7487 26.6532
33.7954 26.652
33.842 26.5354
33.8887 26.4627
33.9353 26.4912
33.982 26.3054
34.0286 26.2663
34.0753 26.1727
34.1219 26.1272
34.1687 26.0758
34.2152 25.965
34.262 25.8333
34.3086 25.7414
34.3554 25.6953
34.402 25.5643
34.4488 25.416
34.4954 25.3542
34.5422 25.3312
34.5889 25.2598
34.6357 25.1565
34.6825 25.1224
34.7292 24.9831
34.776 24.9179
34.8227 24.8547
34.8695 24.8243
34.9162 24.7653
34.9631 24.581
35.0098 24.6722
35.0566 24.5261
35.1033 24.4158
35.1502 24.4447
35.1969 24.3541
35.2438 24.3632
35.2906 24.2246
35.3375 24.223
35.3842 24.1126
35.4311 24.1465
35.4779 24.0835
35.5248 24.1033
35.5716 23.9305
35.6185 23.8669
35.6653 23.7451
35.7123 23.6773
35.759 23.508
35.806 23.5562
35.8528 23.3875
35.8998 23.4214
35.9468 23.243
35.9936 23.261
36.0406 23.1298
36.0874 23.168
36.1345 23.1124
36.1813 22.8809
36.2283 22.8298
36.2752 22.7923
36.3222 22.7539
36.3691 22.7223
36.4161 22.5878
36.463 22.566
36.5101 22.52
36.557 22.5169
36.6041 22.34
36.651 22.3177
36.6981 22.2435
36.745 22.2172
36.7921 22.1515
36.839 21.9723
36.8861 21.9999
36.9331 21.881
36.9802 21.8599
37.0272 21.7894
37.0743 21.6547
37.1213 21.5736
37.1684 21.5936
37.2154 21.6191
37.2626 21.3794
37.3098 21.3655
37.3568 21.2926
37.404 21.2212
37.451 21.1303
37.4982 21.1139
37.5452 20.9854
37.5924 20.9006
37.6395 21.0205
37.6867 20.8119
37.7337 20.7501
37.781 20.6434
37.8281 20.622
37.8753 20.5196
37.9224 20.5006
37.9697 20.4223
38.0168 20.352
38.064 20.3048
38.1111 20.2551
38.1584 20.1626
38.2056 20.1032
38.2529 20.0015
38.3 19.924
38.3473 19.9594
38.3945 19.7
38.4418 19.8031
38.489 19.7208
38.5363 19.6355
38.5837 19.6079
38.6309 19.5001
38.6782 19.5015
38.7254 19.3796
38.7728 19.3237
38.82 19.2686
38.8674 19.2555
38.9146 19.1724
38.9621 19.0937
39.0093 19.069
39.0567 18.9588
39.104 18.8765
39.1514 18.8005
39.1987 18.7616
39.2461 18.7236
39.2934 18.7128
39.3409 18.552
39.3882 18.453
39.4356 18.5042
39.483 18.4635
39.5304 18.333
39.5778 18.3518
39.6253 18.2927
39.6726 18.1829
39.7201 18.2421
39.7675 18.141
39.815 18.1136
39.8624 17.9669
39.9099 17.9414
39.9575 17.9079
40.0049 17.809
40.0525 17.7566
40.0999 17.6761
40.1474 17.6782
40.1949 17.6064
40.2425 17.5135
40.2899 17.5032
40.3375 17.4211
40.385 17.3516
40.4326 17.2362
40.48 17.2075
40.5277 17.2491
40.5752 17.1187
40.6228 17.1152
40.6703 17.0241
40.718 16.9687
40.7655 16.9226
40.8132 16.8506
40.8607 16.7966
40.9084 16.7669
40.9559 16.7072
41.0036 16.6912
41.0512 16.6102
41.0989 16.5109
41.1465 16.4649
41.1942 16.4596
41.242 16.3738
41.2896 16.3706
41.3373 16.2786
41.3849 16.2467
41.4327 16.1488
41.4803 16.1104
41.5281 16.0592
41.5758 15.9883
41.6236 15.9194
41.6712 15.8827
41.7191 15.8455
41.7667 15.7488
41.8146 15.7493
41.8622 15.6831
41.9101 15.6213
41.9578 15.5892
42.0057 15.5466
42.0534 15.4409
42.1013 15.4082
42.149 15.3596
42.1969 15.3397
42.2446 15.2677
42.2925 15.1952
42.3403 15.1733
42.3882 15.1437
42.436 15.081
42.4839 15.0331
42.5319 14.9398
42.5797 14.9077
42.6277 14.8855
42.6755 14.8004
42.7235 14.7166
42.7713 14.7438
42.8193 14.6452
42.8671 14.6092
42.9152 14.5644
42.963 14.5191
43.0111 14.4661
43.0589 14.3892
43.107 14.378
43.1549 14.3037
43.2029 14.2183
43.2508 14.237
43.2989 14.1554
43.3468 14.0943
43.3949 14.0868
43.4429 14.0172
43.491 13.964
43.5389 13.921
43.5871 13.8727
43.635 13.8375
43.6832 13.7997
43.7312 13.7472
43.7793 13.652
43.8273 13.6403
43.8755 13.5657
43.9237 13.5492
43.9717 13.4648
44.0199 13.4393
44.068 13.4307
44.1162 13.3297
44.1642 13.3241
44.2125 13.267
44.2606 13.2142
44.3088 13.1279
44.3569 13.1118
44.4052 13.1116
44.4533 13.0239
44.5016 12.948
44.5497 12.9362
44.598 12.9091
44.6461 12.8508
44.6945 12.8535
44.7426 12.7239
44.791 12.712
44.8391 12.7088
44.8875 12.6133
44.9357 12.5972
44.984 12.5067
45.0322 12.4452
45.0806 12.4655
45.1288 12.4261
45.1773 12.3661
45.2257 12.345
45.2739 12.2902
45.3224 12.2484
45.3706 12.2319
45.4191 12.1001
45.4673 12.1256
45.5158 12.0241
45.5641 12.0297
45.6126 11.9555
45.6609 11.8986
45.7094 11.8927
45.7577 11.8287
45.8063 11.7803
45.8546 11.7717
45.9031 11.7125
45.9515 11.7158
46.0001 11.6475
46.0484 11.5504
46.097 11.5841
46.1454 11.518
46.194 11.486
46.2424 11.4463
46.291 11.3597
46.3395 11.3461
46.3881 11.3152
46.4365 11.3097
46.4852 11.1975
46.5337 11.1847
46.5823 11.1308
46.631 11.1216
46.6795 11.0505
46.7282 11.0507
46.7767 10.9899
46.8254 10.9707
46.8739 10.8776
46.9226 10.8405
46.9712 10.7901
47.0199 10.7972
47.0685 10.7455
47.1173 10.6947
47.1658 10.6455
47.2146 10.6493
47.2632 10.598
47.312 10.6058
47.3606 10.4872
47.4095 10.4627
47.4581 10.4537
47.5069 10.3901
47.5556 10.3544
47.6044 10.3397
47.6531 10.2835
47.702 10.2006
47.7507 10.1981
47.7996 10.1699
47.8483 10.1663
47.8972 10.0807
47.9461 10.018
47.9948 9.9889
48.0438 9.91682
48.0925 9.98497
48.1415 9.90695
48.1902 9.86179
48.2392 9.83772
48.288 9.83641
48.337 9.73273
48.3858 9.71968
48.4348 9.68335
48.4837 9.67546
48.5327 9.6301
48.5815 9.59478
48.6306 9.58067
48.6795 9.50462
48.7285 9.48439
48.7774 9.44957
48.8265 9.46005
48.8754 9.34388
48.9245 9.36102
48.9734 9.30712
49.0226 9.28184
49.0715 9.23251
49.1206 9.22225
49.1696 9.1709
49.2188 9.13369
49.2679 9.07269
49.3169 9.09081
49.3661 9.02377
49.4151 8.97933
49.4643 8.95576
49.5134 8.91706
49.5626 8.85565
49.6117 8.87079
49.6609 8.79056
49.71 8.74319
49.7592 8.73981
49.8083 8.65951
49.8576 8.63716
49.9067 8.67819
49.956 8.62336
50.0052 8.6104
50.0545 8.58826
50.1036 8.51001
50.153 8.51629
50.2022 8.46224
50.2515 8.45036
50.3007 8.37584
50.3501 8.37178
50.3993 8.32894
50.4487 8.28975
50.498 8.27167
50.5474 8.20461
50.5966 8.18207
50.6461 8.17137
50.6955 8.12929
50.7448 8.1117
50.7943 8.08165
50.8436 8.04065
50.8931 7.9999
50.9424 7.94686
50.9919 7.95784
51.0413 7.90185
51.0908 7.90052
51.1402 7.83854
51.1897 7.81676
51.2391 7.76511
51.2887 7.76429
51.3381 7.74705
51.3877 7.69526
51.4371 7.65603
51.4867 7.61108
51.5362 7.61132
51.5858 7.58201
51.6353 7.50319
51.6849 7.50625
51.7344 7.4766
51.7841 7.46992
51.8336 7.44434
51.8833 7.40146
51.9328 7.35284
51.9826 7.29972
52.0323 7.24064
52.0818 7.24109
52.1316 7.22994
52.1812 7.21307
52.231 7.19009
52.2806 7.12295
52.3304 7.09602
52.38 7.05912
52.4298 7.03319
52.4794 7.02084
52.5293 6.95916
52.5789 6.95832
52.6288 6.93285
52.6785 6.91638
52.7284 6.88695
52.7781 6.86092
52.828 6.79454
52.8777 6.80825
52.9276 6.73939
52.9774 6.70692
53.0273 6.68787
53.0771 6.6577
53.1271 6.67364
53.1769 6.61943
53.2269 6.58799
53.2767 6.54966
53.3267 6.56014
53.3765 6.53707
53.4266 6.5337
53.4766 6.45682
53.5265 6.39564
53.5765 6.40063
53.6264 6.37492
53.6765 6.36493
53.7264 6.29982
53.7765 6.27012
53.8265 6.26278
53.8766 6.20768
53.9266 6.1948
53.9767 6.21578
54.0267 6.12252
54.0769 6.09206
54.1269 6.08249
54.1771 6.02784
54.2271 6.03101
54.2773 5.98687
54.3274 5.97154
54.3776 5.90931
54.4277 5.91665
54.478 5.85602
54.528 5.81407
54.5783 5.79129
54.6285 5.72104
54.6788 5.70186
54.7289 5.63797
54.7792 5.61499
54.8296 5.55773
54.8798 5.54999
54.9301 5.5242
54.9803 5.46187
55.0307 5.47765
55.0809 5.40698
55.1314 5.37559
55.1816 5.33262
55.232 5.26972
55.2823 5.25263
55.3328 5.17714
55.383 5.13942
55.4335 5.09083
55.4838 5.01745
55.5344 4.99371
55.5847 4.9657
55.6352 4.91043
55.6856 4.86549
55.7361 4.86289