File: XRD/Ni3Fe_FD0345.xy
TT I
1.27165 7.82737
1.31627 7.46458
1.36089 7.02591
1.40551 5.96532
1.45013 6.54365
1.49476 6.57457
1.53938 5.83146
1.584 5.83396
1.62863 5.21149
1.67325 4.5722
1.71787 5.08958
1.7625 4.89963
1.80712 4.96552
1.85174 4.56121
1.89636 4.63162
1.94099 4.9164
1.98562 4.49159
2.03025 4.60586
2.07487 4.80367
2.11949 4.95292
2.16411 4.81482
2.20874 10.045
2.25338 14.9141
2.298 4.8393
2.34263 5.6019
2.38725 5.56623
2.43188 5.29094
2.4765 6.10702
2.52115 6.10579
2.56577 6.30565
2.6104 6.7435
2.65503 6.55977
2.69965 7.60466
2.7443 7.30169
2.78893 7.46171
2.83356 7.74004
2.87818 8.28065
2.92281 8.6111
2.96744 9.64912
3.01209 10.7687
3.05672 11.5953
3.10135 12.3895
3.14599 12.2825
3.19062 14.2863
3.23527 15.1367
3.2799 15.5025
3.32454 17.1052
3.36917 18.0389
3.4138 18.9901
3.45844 19.932
3.50309 20.984
3.54773 21.7834
3.59237 23.564
3.637 62.6884
3.68164 43.6946
3.7263 26.0323
3.77094 26.3137
3.81558 27.2147
3.86022 27.7651
3.90486 29.1658
3.9495 29.802
3.99416 31.1436
4.0388 32.6036
4.08344 34.0351
4.12809 34.9286
4.17273 37.0853
4.21738 42.013
4.26204 158.225
4.30669 138.439
4.35133 46.764
4.39598 45.0087
4.44063 51.1595
4.4853 58.3321
4.52995 52.5086
4.5746 53.1835
4.61925 54.8229
4.6639 57.1514
4.70855 59.6248
4.75322 62.3003
4.79788 66.0856
4.84253 69.397
4.88719 74.3326
4.93184 78.5064
4.97652 84.4488
5.02118 91.7492
5.06583 101.05
5.11049 115.888
5.15515 175.468
5.19981 594.155
5.24449 3671.65
5.28916 11471.6
5.33382 3496.55
5.37848 226.447
5.42315 139.831
5.46783 121.452
5.5125 111.836
5.55716 106.614
5.60183 102.216
5.6465 100.341
5.69117 98.0447
5.73586 96.3915
5.78053 96.9643
5.8252 96.7693
5.86988 98.5231
5.91455 101.949
5.95924 116.484
6.00392 317.51
6.0486 1277.65
6.09328 4027.11
6.13795 3387.69
6.18263 280.431
6.22733 100.316
6.27201 85.865
6.3167 93.3274
6.36138 79.1304
6.40606 71.2235
6.45075 69.3335
6.49545 67.2689
6.54014 65.4821
6.58483 64.3257
6.62952 64.0627
6.67421 80.7179
6.71892 108.168
6.76361 65.3593
6.8083 59.7825
6.853 58.7025
6.89769 57.9723
6.94239 57.7455
6.98711 57.152
7.03181 56.8315
7.07651 56.5718
7.12121 56.0107
7.16591 56.4611
7.21063 56.2596
7.25533 64.8829
7.30004 125.704
7.34475 76.4617
7.38945 56.6066
7.43416 55.2507
7.47889 55.2792
7.5236 55.8925
7.56831 56.552
7.61303 57.4136
7.65774 57.8118
7.70247 57.3426
7.74719 57.6201
7.79191 57.8494
7.83663 58.0981
7.88135 59.4418
7.92607 60.1128
7.97081 61.6235
8.01553 62.552
8.06026 63.8165
8.10498 65.6914
8.14971 71.9081
8.19446 72.0772
8.23919 71.6399
8.28392 74.4433
8.32865 77.0005
8.37339 81.7691
8.41812 88.5195
8.46288 113.8
8.50761 222.753
8.55235 498.755
8.59709 1177.63
8.64183 2097.71
8.68658 1059.2
8.73134 183.646
8.77609 104.329
8.82083 95.9805
8.86558 92.998
8.91033 91.9114
8.9551 91.9992
8.99985 87.5951
9.04461 86.0827
9.08936 85.6761
9.13412 84.8285
9.17888 84.3809
9.22365 85.1457
9.26841 84.6947
9.31318 85.7112
9.35794 85.7478
9.4027 86.0215
9.44749 86.8227
9.49226 87.0824
9.53703 88.1954
9.5818 90.4227
9.62657 93.6248
9.67134 97.7592
9.71614 96.0563
9.76091 97.0866
9.80569 100.284
9.85047 103.514
9.89525 120.173
9.94005 138.13
9.98484 232.172
10.0296 438.652
10.0744 870.129
10.1192 1603.34
10.164 1650.83
10.2088 476.84
10.2536 135.347
10.2984 115.403
10.3432 114.702
10.388 109.713
10.4328 136.383
10.4776 186.935
10.5224 296.836
10.5672 486.595
10.612 526.764
10.6568 216.669
10.7017 100.679
10.7465 89.5446
10.7913 85.9268
10.8361 83.3168
10.8809 81.1157
10.9257 80.0164
10.9706 79.8167
11.0154 76.4475
11.0602 74.8654
11.105 73.642
11.1499 75.6171
11.1947 79.0319
11.2395 73.3876
11.2844 70.8944
11.3292 68.829
11.374 67.8798
11.4189 67.4943
11.4637 66.7138
11.5086 66.5962
11.5534 68.2622
11.5983 66.6852
11.6431 65.2217
11.688 64.4469
11.7328 64.5894
11.7777 64.4894
11.8225 64.112
11.8674 64.1143
11.9122 64.7346
11.9571 64.7696
12.002 66.3228
12.0468 73.4295
12.0917 87.0436
12.1366 110.094
12.1814 150.688
12.2263 197.784
12.2712 173.483
12.3161 96.9381
12.3609 70.4624
12.4058 66.4145
12.4507 66.0427
12.4956 66.2593
12.5405 66.341
12.5853 66.9824
12.6302 71.6795
12.6751 75.5752
12.72 70.6605
12.7649 69.666
12.8098 70.2185
12.8547 71.8272
12.8996 73.3218
12.9445 74.7657
12.9894 76.582
13.0343 78.8518
13.0792 82.6404
13.1242 98.8789
13.1691 127.895
13.214 168.571
13.2589 246.969
13.3038 351.967
13.3487 421.583
13.3937 279.608
13.4386 133.026
13.4835 117.742
13.5285 136.262
13.5734 174.026
13.6183 244.017
13.6633 332.825
13.7082 343.801
13.7531 201.717
13.7981 102.166
13.843 84.3613
13.888 82.0789
13.9329 79.7136
13.9779 78.2157
14.0228 76.6085
14.0678 75.302
14.1127 74.7321
14.1577 74.0636
14.2027 73.3761
14.2476 72.5781
14.2926 72.5091
14.3376 72.6658
14.3825 71.8292
14.4275 70.9181
14.4725 70.8499
14.5175 71.1714
14.5624 71.1865
14.6074 72.5445
14.6524 73.2394
14.6974 72.9565
14.7424 76.6456
14.7874 86.2312
14.8324 98.1201
14.8774 119.587
14.9224 154.527
14.9674 198.854
15.0124 217.834
15.0574 154.606
15.1024 95.0034
15.1474 74.703
15.1924 72.438
15.2374 72.0743
15.2824 70.7366
15.3274 69.8618
15.3725 68.8034
15.4175 68.6144
15.4625 67.8805
15.5076 67.9826
15.5526 67.9312
15.5976 67.9646
15.6426 70.9682
15.6877 78.7188
15.7327 87.4292
15.7778 102.75
15.8228 128.823
15.8679 162.732
15.9129 190.554
15.958 163.807
16.003 102.703
16.0481 70.0822
16.0931 65.4156
16.1382 63.5556
16.1833 61.8251
16.2283 60.6817
16.2734 59.9501
16.3185 59.6744
16.3636 59.797
16.4086 58.6315
16.4537 57.4616
16.4988 57.0714
16.5439 56.9428
16.589 56.7748
16.6341 56.4893
16.6792 56.2765
16.7243 56.3209
16.7694 56.3824
16.8145 56.267
16.8596 56.4388
16.9047 57.6047
16.9498 57.7743
16.9949 57.1942
17.04 58.0039
17.0851 59.4299
17.1302 61.4148
17.1754 64.5591
17.2205 69.1291
17.2656 75.0802
17.3108 82.9309
17.3559 84.4741
17.401 73.556
17.4462 64.0372
17.4913 60.9283
17.5365 60.7757
17.5815 61.0412
17.6268 61.2642
17.6718 62.0857
17.7171 62.7075
17.7622 63.4271
17.8074 64.5449
17.8525 68.4232
17.8977 72.8701
17.9428 78.9589
17.9881 88.2138
18.0331 102.021
18.0784 119.773
18.1237 139.975
18.1688 137.359
18.214 110.506
18.2591 91.2133
18.3044 91.8922
18.3495 99.6964
18.3948 105.975
18.4399 99.0687
18.4852 79.9536
18.5303 68.0589
18.5756 63.9594
18.6207 63.1717
18.666 62.2154
18.7112 61.6251
18.7565 60.6358
18.8016 60.4704
18.8469 59.8551
18.892 59.3912
18.9374 58.9183
18.9825 58.6642
19.0278 58.6361
19.073 59.0101
19.1183 59.6632
19.1635 60.4558
19.2088 61.8989
19.254 64.2855
19.2993 67.6665
19.3447 72.5087
19.3898 76.673
19.4352 74.5086
19.4804 65.7393
19.5257 58.5939
19.5709 55.5279
19.6163 55.4432
19.6615 55.3019
19.7068 54.875
19.752 54.9913
19.7974 55.4442
19.8426 56.5536
19.888 57.2792
19.9332 58.5672
19.9786 60.9295
20.0238 64.0424
20.0692 67.9169
20.1144 71.2673
20.1598 71.0209
20.205 66.1904
20.2504 63.5257
20.2957 64.53
20.3411 66.5543
20.3863 65.6212
20.4318 60.3089
20.477 55.2035
20.5224 52.8516
20.5677 52.3742
20.6131 51.7254
20.6586 51.1604
20.7038 50.9336
20.7493 50.5381
20.7945 50.3271
20.84 50.2608
20.8853 50.0964
20.9307 50.1823
20.976 50.4715
21.0215 50.1945
21.0668 50.5834
21.1122 51.1185
21.1575 51.4431
21.203 51.9581
21.2483 52.8197
21.2938 53.1694
21.3391 51.7566
21.3846 50.4927
21.4299 49.9936
21.4754 49.6813
21.5207 50.1016
21.5662 50.5457
21.6116 51.2775
21.6571 51.965
21.7024 52.9384
21.7479 54.669
21.7933 57.0617
21.8388 60.2391
21.8843 63.5499
21.9297 66.1082
21.9752 65.5137
22.0206 61.6959
22.0661 57.8148
22.1115 57.0018
22.157 57.47
22.2024 55.8962
22.248 53.2818
22.2933 51.2738
22.3389 50.4753
22.3843 50.3505
22.4299 50.023
22.4753 50.1903
22.5208 49.973
22.5662 49.9476
22.6118 50.3568
22.6572 50.6661
22.7028 51.1021
22.7483 51.692
22.7939 52.4058
22.8393 53.8781
22.8849 55.2777
22.9303 57.1013
22.9759 58.9631
23.0214 58.9111
23.067 56.1482
23.1126 52.6781
23.1581 50.6944
23.2037 50.3253
23.2492 50.528
23.2948 50.6713
23.3403 50.8518
23.3859 51.6196
23.4314 52.7549
23.477 53.9595
23.5225 55.7129
23.5682 57.5094
23.6137 59.1651
23.6593 57.5054
23.7048 53.5065
23.7505 49.8018
23.796 48.0867
23.8417 47.3881
23.8872 46.8829
23.9329 46.4616
23.9784 46.2006
24.0241 46.1352
24.0697 45.6456
24.1154 45.4955
24.1609 45.3237
24.2066 45.043
24.2522 44.9
24.2979 44.7688
24.3434 44.5721
24.3892 44.5231
24.4349 44.3756
24.4805 44.1447
24.5262 44.3494
24.5718 44.2764
24.6175 44.1435
24.6631 44.108
24.7089 43.9713
24.7545 43.5319
24.8002 43.4547
24.8458 43.4498
24.8916 43.3268
24.9372 43.4649
24.983 43.9443
25.0286 44.2908
25.0744 44.5548
25.12 45.0158
25.1658 45.6633
25.2114 45.9618
25.2572 46.0187
25.3029 45.9547
25.3487 45.8768
25.3943 45.9144
25.4402 45.0643
25.4858 43.8321
25.5316 42.7453
25.5773 42.1871
25.6231 42.0305
25.669 41.7351
25.7147 41.7508
25.7605 41.5846
25.8062 41.8134
25.8521 41.8659
25.8977 41.7731
25.9436 42.0288
25.9893 42.0848
26.0352 42.5444
26.0809 42.6512
26.1268 42.8679
26.1725 42.5194
26.2184 42.0415
26.2641 41.6379
26.31 41.3298
26.3557 41.3665
26.4017 41.4349
26.4474 41.6423
26.4933 41.9859
26.5391 42.2877
26.585 42.8178
26.6308 43.111
26.6767 43.3094
26.7225 43.268
26.7684 42.814
26.8142 42.011
26.8601 41.5994
26.9059 41.0688
26.9519 40.6725
26.9979 40.4064
27.0437 39.9419
27.0896 39.9419
27.1354 39.8928
27.1814 39.6898
27.2272 39.814
27.2732 39.6637
27.3191 39.511
27.3651 39.6339
27.4109 39.5179
27.4569 39.5995
27.5027 39.5761
27.5488 39.7228
27.5946 39.4834
27.6407 39.2166
27.6865 39.239
27.7326 38.9903
27.7784 38.9277
27.8245 38.9587
27.8703 39.128
27.9164 39.3406
27.9623 39.4225
28.0084 39.8183
28.0543 40.1113
28.1003 40.0877
28.1462 39.8291
28.1923 39.6015
28.2384 38.8954
28.2843 38.7747
28.3304 38.156
28.3764 37.6509
28.4225 37.4753
28.4684 37.3511
28.5145 36.9486
28.5605 36.9028
28.6066 36.6431
28.6526 36.6525
28.6987 36.6412
28.7447 36.4945
28.7908 36.2913
28.8368 36.4107
28.8829 36.3807
28.9289 36.4186
28.9751 36.0743
29.0211 35.9181
29.0673 35.6794
29.1133 35.5421
29.1595 35.4225
29.2055 35.3661
29.2517 35.2699
29.2977 35.1768
29.3439 35.2248
29.3899 35.0657
29.4361 35.0693
29.4824 34.9756
29.5284 34.6533
29.5746 34.249
29.6207 34.1614
29.6669 34.0545
29.713 33.9337
29.7593 33.7776
29.8053 33.8295
29.8516 33.6417
29.8977 33.7195
29.9439 33.6013
29.99 33.4502
30.0363 33.43
30.0824 33.4511
30.1287 33.3696
30.1748 33.3027
30.2211 33.2878
30.2673 33.2219
30.3136 33.2866
30.3597 33.2474
30.406 33.1533
30.4522 32.9651
30.4985 33.0069
30.5447 33.1554
30.591 33.064
30.6372 33.0613
30.6835 33.0063
30.7297 33.1195
30.7761 33.1124
30.8224 32.9762
30.8686 32.8133
30.915 32.4104
30.9612 32.3776
31.0076 32.199
31.0538 32.0408
31.1002 32.0437
31.1464 31.8583
31.1928 31.9213
31.2391 31.8973
31.2855 31.6687
31.3317 31.7052
31.3781 31.8105
31.4244 31.6738
31.4708 31.6952
31.5171 31.6048
31.5636 31.7442
31.6098 31.3785
31.6563 31.2554
31.7026 31.0056
31.7491 31.1212
31.7953 31.0727
31.8418 30.9684
31.8881 30.9878
31.9346 30.853
31.9809 30.9684
32.0275 30.7691
32.074 30.6235
32.1203 30.3876
32.1668 30.3357
32.2132 30.277
32.2597 30.0717
32.306 30.0158
32.3526 29.8064
32.399 29.7594
32.4455 29.6453
32.4919 29.4641
32.5385 29.4464
32.5848 29.297
32.6314 29.357
32.6778 29.2507
32.7244 29.1101
32.7708 28.9569
32.8174 28.9746
32.8638 28.7925
32.9104 28.8495
32.9569 28.8066
33.0035 28.6907
33.0499 28.6411
33.0966 28.5532
33.143 28.6217
33.1897 28.4885
33.2361 28.3803
33.2828 28.425
33.3293 28.1975
33.3759 28.1462
33.4226 27.9566
33.4691 27.8426
33.5158 27.7862
33.5623 27.681
33.609 27.5223
33.6555 27.5087
33.7022 27.4028
33.7487 27.2571
33.7954 27.3319
33.842 27.0974
33.8887 27.0764
33.9353 27.133
33.982 26.9062
34.0286 26.8211
34.0753 26.6892
34.1219 26.637
34.1687 26.5622
34.2152 26.5419
34.262 26.378
34.3086 26.3145
34.3554 26.2271
34.402 26.0866
34.4488 26.0547
34.4954 25.9343
34.5422 25.8691
34.5889 25.7644
34.6357 25.6607
34.6825 25.6614
34.7292 25.6013
34.776 25.4028
34.8227 25.3456
34.8695 25.2963
34.9162 25.2809
34.9631 25.1528
35.0098 25.2375
35.0566 25.033
35.1033 24.9186
35.1502 24.9859
35.1969 24.8933
35.2438 24.8278
35.2906 24.8353
35.3375 24.7665
35.3842 24.6799
35.4311 24.5602
35.4779 24.5959
35.5248 24.5219
35.5716 24.4059
35.6185 24.3997
35.6653 24.2888
35.7123 24.1974
35.759 24.1291
35.806 23.9682
35.8528 23.9067
35.8998 23.9416
35.9468 23.7881
35.9936 23.724
36.0406 23.6925
36.0874 23.5409
36.1345 23.5021
36.1813 23.4855
36.2283 23.4313
36.2752 23.2133
36.3222 23.2706
36.3691 23.1398
36.4161 23.0519
36.463 23.0535
36.5101 23.0265
36.557 22.9549
36.6041 22.8197
36.651 22.8138
36.6981 22.7661
36.745 22.7293
36.7921 22.5949
36.839 22.455
36.8861 22.4791
36.9331 22.3732
36.9802 22.2243
37.0272 22.1447
37.0743 22.1049
37.1213 22.0522
37.1684 21.9721
37.2154 21.9428
37.2626 21.8896
37.3098 21.7675
37.3568 21.7558
37.404 21.7099
37.451 21.5369
37.4982 21.4712
37.5452 21.4438
37.5924 21.3928
37.6395 21.4389
37.6867 21.3357
37.7337 21.2799
37.781 21.1221
37.8281 21.046
37.8753 20.9264
37.9224 20.906
37.9697 20.7838
38.0168 20.7468
38.064 20.7108
38.1111 20.6512
38.1584 20.5671
38.2056 20.5341
38.2529 20.5378
38.3 20.3832
38.3473 20.4007
38.3945 20.2276
38.4418 20.253
38.489 20.1411
38.5363 20.0441
38.5837 19.9466
38.6309 19.9805
38.6782 19.8537
38.7254 19.7934
38.7728 19.7857
38.82 19.6734
38.8674 19.6182
38.9146 19.5203
38.9621 19.4929
39.0093 19.4043
39.0567 19.402
39.104 19.3321
39.1514 19.245
39.1987 19.1405
39.2461 19.1439
39.2934 19.0683
39.3409 18.9944
39.3882 18.965
39.4356 18.8509
39.483 18.8935
39.5304 18.7423
39.5778 18.753
39.6253 18.6477
39.6726 18.5675
39.7201 18.5373
39.7675 18.5186
39.815 18.4701
39.8624 18.3524
39.9099 18.3216
39.9575 18.2236
40.0049 18.1205
40.0525 18.0913
40.0999 18.0447
40.1474 18.0069
40.1949 18.0339
40.2425 17.9066
40.2899 17.8698
40.3375 17.7559
40.385 17.7088
40.4326 17.6356
40.48 17.5863
40.5277 17.5871
40.5752 17.5314
40.6228 17.4514
40.6703 17.3568
40.718 17.3582
40.7655 17.275
40.8132 17.2177
40.8607 17.1811
40.9084 17.1536
40.9559 17.047
41.0036 17.0477
41.0512 16.9694
41.0989 16.9681
41.1465 16.85
41.1942 16.7733
41.242 16.6891
41.2896 16.6626
41.3373 16.6048
41.3849 16.5952
41.4327 16.5263
41.4803 16.3987
41.5281 16.3964
41.5758 16.3411
41.6236 16.3022
41.6712 16.2081
41.7191 16.1677
41.7667 16.1056
41.8146 16.0705
41.8622 16.0078
41.9101 15.9067
41.9578 15.8561
42.0057 15.8767
42.0534 15.8026
42.1013 15.7813
42.149 15.625
42.1969 15.6541
42.2446 15.5911
42.2925 15.5641
42.3403 15.4367
42.3882 15.4813
42.436 15.3817
42.4839 15.3086
42.5319 15.2809
42.5797 15.2296
42.6277 15.159
42.6755 15.1034
42.7235 15.023
42.7713 15.0675
42.8193 14.9692
42.8671 14.9416
42.9152 14.9127
42.963 14.7688
43.0111 14.7502
43.0589 14.7155
43.107 14.675
43.1549 14.5976
43.2029 14.5793
43.2508 14.5472
43.2989 14.4397
43.3468 14.3694
43.3949 14.3603
43.4429 14.3283
43.491 14.2285
43.5389 14.1385
43.5871 14.1869
43.635 14.1395
43.6832 14.0306
43.7312 14.0137
43.7793 13.9465
43.8273 13.9231
43.8755 13.8743
43.9237 13.7967
43.9717 13.7418
44.0199 13.7616
44.068 13.7528
44.1162 13.6403
44.1642 13.595
44.2125 13.5466
44.2606 13.4841
44.3088 13.4078
44.3569 13.3632
44.4052 13.3864
44.4533 13.3041
44.5016 13.251
44.5497 13.2136
44.598 13.1518
44.6461 13.1618
44.6945 13.0863
44.7426 13.0423
44.791 12.9868
44.8391 12.9552
44.8875 12.898
44.9357 12.8588
44.984 12.8081
45.0322 12.774
45.0806 12.7332
45.1288 12.6473
45.1773 12.6173
45.2257 12.5624
45.2739 12.512
45.3224 12.475
45.3706 12.4465
45.4191 12.3588
45.4673 12.3568
45.5158 12.2981
45.5641 12.2924
45.6126 12.208
45.6609 12.189
45.7094 12.1283
45.7577 12.0954
45.8063 12.0331
45.8546 11.9872
45.9031 11.9312
45.9515 11.9065
46.0001 11.8723
46.0484 11.8019
46.097 11.7977
46.1454 11.7552
46.194 11.7217
46.2424 11.6867
46.291 11.6065
46.3395 11.5862
46.3881 11.5002
46.4365 11.5225
46.4852 11.4749
46.5337 11.4016
46.5823 11.3797
46.631 11.3019
46.6795 11.2662
46.7282 11.2354
46.7767 11.1946
46.8254 11.1761
46.8739 11.1035
46.9226 11.0447
46.9712 11.0347
47.0199 10.9896
47.0685 10.9587
47.1173 10.8912
47.1658 10.8398
47.2146 10.8257
47.2632 10.7784
47.312 10.7736
47.3606 10.7101
47.4095 10.6767
47.4581 10.6645
47.5069 10.5649
47.5556 10.496
47.6044 10.5134
47.6531 10.4428
47.702 10.4091
47.7507 10.4306
47.7996 10.3814
47.8483 10.3118
47.8972 10.3002
47.9461 10.2559
47.9948 10.1902
48.0438 10.1916
48.0925 10.0926
48.1415 10.0884
48.1902 10.0859
48.2392 10.0659
48.288 9.98703
48.337 9.96322
48.3858 9.95589
48.4348 9.86924
48.4837 9.86037
48.5327 9.8235
48.5815 9.73088
48.6306 9.7489
48.6795 9.71751
48.7285 9.66256
48.7774 9.64738
48.8265 9.60838
48.8754 9.5651
48.9245 9.55265
48.9734 9.45133
49.0226 9.50575
49.0715 9.43066
49.1206 9.39352
49.1696 9.35859
49.2188 9.31313
49.2679 9.30068
49.3169 9.24231
49.3661 9.1856
49.4151 9.17754
49.4643 9.1495
49.5134 9.08207
49.5626 9.02402
49.6117 9.0223
49.6609 9.02965
49.71 8.96059
49.7592 8.92898
49.8083 8.86373
49.8576 8.86144
49.9067 8.80405
49.956 8.8199
50.0052 8.74681
50.0545 8.75035
50.1036 8.70016
50.153 8.66262
50.2022 8.62174
50.2515 8.58324
50.3007 8.5287
50.3501 8.50248
50.3993 8.465
50.4487 8.47352
50.498 8.40144
50.5474 8.37234
50.5966 8.35599
50.6461 8.36849
50.6955 8.30499
50.7448 8.30658
50.7943 8.2178
50.8436 8.16274
50.8931 8.16136
50.9424 8.14941
50.9919 8.11871
51.0413 8.098
51.0908 8.06704
51.1402 8.0075
51.1897 7.97406
51.2391 7.91743
51.2887 7.92095
51.3381 7.84205
51.3877 7.8553
51.4371 7.79912
51.4867 7.77588
51.5362 7.7562
51.5858 7.72262
51.6353 7.6591
51.6849 7.6415
51.7344 7.64077
51.7841 7.58208
51.8336 7.55177
51.8833 7.53067
51.9328 7.5124
51.9826 7.45852
52.0323 7.42313
52.0818 7.41413
52.1316 7.37471
52.1812 7.35194
52.231 7.32329
52.2806 7.32865
52.3304 7.26077
52.38 7.22775
52.4298 7.17367
52.4794 7.17372
52.5293 7.12366
52.5789 7.09752
52.6288 7.0802
52.6785 7.04122
52.7284 7.03736
52.7781 6.97152
52.828 6.95519
52.8777 6.92257
52.9276 6.84892
52.9774 6.87067
53.0273 6.85188
53.0771 6.79094
53.1271 6.79094
53.1769 6.74316
53.2269 6.74431
53.2767 6.66861
53.3267 6.64981
53.3765 6.6509
53.4266 6.60681
53.4766 6.57116
53.5265 6.55358
53.5765 6.50805
53.6264 6.49897
53.6765 6.45796
53.7264 6.43393
53.7765 6.43834
53.8265 6.36778
53.8766 6.34587
53.9266 6.3251
53.9767 6.30729
54.0267 6.29069
54.0769 6.27243
54.1269 6.2117
54.1771 6.16695
54.2271 6.17406
54.2773 6.10127
54.3274 6.08633
54.3776 6.02241
54.4277 6.01205
54.478 5.97922
54.528 5.94779
54.5783 5.89334
54.6285 5.86379
54.6788 5.83458
54.7289 5.82153
54.7792 5.77651
54.8296 5.66518
54.8798 5.65032
54.9301 5.64426
54.9803 5.61561
55.0307 5.56731
55.0809 5.54026
55.1314 5.49019
55.1816 5.39928
55.232 5.34434
55.2823 5.34159
55.3328 5.25107
55.383 5.23255
55.4335 5.16128
55.4838 5.13772
55.5344 5.06372
55.5847 4.99431
55.6352 5.0239
55.6856 4.98412
55.7361 4.91758