File: XRD/Ni3Fe_FD0284.xy
TT I
1.27165 7.22851
1.31627 6.78706
1.36089 7.69525
1.40551 6.05098
1.45013 6.21769
1.49476 6.72826
1.53938 6.19918
1.584 5.11146
1.62863 5.26704
1.67325 5.61149
1.71787 5.47008
1.7625 5.24815
1.80712 5.35529
1.85174 5.21717
1.89636 4.89789
1.94099 4.93069
1.98562 5.18087
2.03025 5.08539
2.07487 4.93827
2.11949 5.21215
2.16411 4.6532
2.20874 15.0581
2.25338 26.662
2.298 6.0341
2.34263 4.85579
2.38725 5.71105
2.43188 5.14214
2.4765 5.29524
2.52115 5.83554
2.56577 6.16103
2.6104 6.94651
2.65503 6.46639
2.69965 7.00936
2.7443 7.24491
2.78893 6.97771
2.83356 7.9764
2.87818 8.56886
2.92281 9.07059
2.96744 10.142
3.01209 10.4555
3.05672 11.4785
3.10135 12.2645
3.14599 13.1919
3.19062 14.7314
3.23527 15.8304
3.2799 15.8998
3.32454 17.5919
3.36917 18.0791
3.4138 19.2914
3.45844 19.6846
3.50309 21.6862
3.54773 22.124
3.59237 24.7452
3.637 104.472
3.68164 66.5808
3.7263 26.9147
3.77094 26.949
3.81558 27.6801
3.86022 28.1581
3.90486 29.8656
3.9495 30.7047
3.99416 31.6914
4.0388 33.302
4.08344 35.0437
4.12809 36.4645
4.17273 38.3206
4.21738 45.4705
4.26204 279.883
4.30669 255.335
4.35133 52.0233
4.39598 46.1501
4.44063 56.4877
4.4853 70.0383
4.52995 53.3945
4.5746 53.3176
4.61925 54.8147
4.6639 57.3185
4.70855 59.921
4.75322 63.3376
4.79788 66.7208
4.84253 69.9167
4.88719 74.4782
4.93184 78.3069
4.97652 84.7
5.02118 91.82
5.06583 100.428
5.11049 115.448
5.15515 202.684
5.19981 506.972
5.24449 3198.95
5.28916 10914.6
5.33382 4153.53
5.37848 262.014
5.42315 147.696
5.46783 124.859
5.5125 113.931
5.55716 108.195
5.60183 104.277
5.6465 101.794
5.69117 99.2814
5.73586 96.7706
5.78053 97.5889
5.8252 97.172
5.86988 98.2747
5.91455 101.352
5.95924 113.854
6.00392 263.254
6.0486 1104.81
6.09328 3680.87
6.13795 3715.24
6.18263 391.74
6.22733 107.104
6.27201 89.9498
6.3167 111.226
6.36138 86.0669
6.40606 73.0734
6.45075 70.9077
6.49545 68.5424
6.54014 66.8189
6.58483 65.6456
6.62952 65.4551
6.67421 99.7103
6.71892 161.888
6.76361 73.1044
6.8083 60.9338
6.853 59.6864
6.89769 59.1373
6.94239 58.8912
6.98711 57.7891
7.03181 57.8319
7.07651 58.0806
7.12121 57.2436
7.16591 58.0393
7.21063 58.146
7.25533 74.0838
7.30004 204.038
7.34475 102.231
7.38945 59.2648
7.43416 57.0753
7.47889 56.1293
7.5236 56.5388
7.56831 57.5797
7.61303 59.4726
7.65774 60.006
7.70247 58.5619
7.74719 58.0357
7.79191 58.9703
7.83663 59.3291
7.88135 60.1828
7.92607 60.8257
7.97081 62.0564
8.01553 63.1547
8.06026 64.432
8.10498 66.5414
8.14971 77.2635
8.19446 76.1554
8.23919 72.4238
8.28392 74.5897
8.32865 77.0245
8.37339 81.9394
8.41812 89.7514
8.46288 124.872
8.50761 192.997
8.55235 453.264
8.59709 1036.05
8.64183 2058.52
8.68658 1286.11
8.73134 231.803
8.77609 109.114
8.82083 98.6572
8.86558 94.6591
8.91033 94.5981
8.9551 96.5054
8.99985 89.1783
9.04461 86.6817
9.08936 86.1136
9.13412 85.4271
9.17888 85.6545
9.22365 86.2039
9.26841 85.0732
9.31318 86.318
9.35794 86.1034
9.4027 86.6151
9.44749 87.1728
9.49226 87.3911
9.53703 88.709
9.5818 90.8137
9.62657 96.3151
9.67134 103.958
9.71614 97.9682
9.76091 97.7893
9.80569 100.73
9.85047 104.589
9.89525 131.713
9.94005 148.522
9.98484 201.254
10.0296 398.633
10.0744 736.931
10.1192 1495.79
10.164 1774.03
10.2088 607.732
10.2536 152.456
10.2984 121.958
10.3432 122.89
10.388 110.667
10.4328 127.803
10.4776 176.656
10.5224 260.976
10.5672 453.564
10.612 551.313
10.6568 266.151
10.7017 108.191
10.7465 91.4629
10.7913 87.2214
10.8361 84.5704
10.8809 82.509
10.9257 81.638
10.9706 83.0532
11.0154 77.9718
11.0602 75.9552
11.105 74.7332
11.1499 79.8454
11.1947 89.0871
11.2395 78.2388
11.2844 73.9541
11.3292 69.9156
11.374 68.9463
11.4189 68.465
11.4637 67.5062
11.5086 68.2586
11.5534 71.4993
11.5983 68.7159
11.6431 66.4328
11.688 65.2649
11.7328 65.2956
11.7777 65.4091
11.8225 65.2397
11.8674 64.9691
11.9122 65.2328
11.9571 65.4969
12.002 66.2221
12.0468 71.4852
12.0917 85.3726
12.1366 103.569
12.1814 140.006
12.2263 198.268
12.2712 191.613
12.3161 114.117
12.3609 76.5527
12.4058 67.9153
12.4507 67.033
12.4956 66.9829
12.5405 67.0155
12.5853 68.5453
12.6302 76.7948
12.6751 83.8741
12.72 73.6043
12.7649 70.8622
12.8098 71.3097
12.8547 72.4373
12.8996 73.8478
12.9445 75.0142
12.9894 76.8821
13.0343 78.818
13.0792 82.2419
13.1242 93.2063
13.1691 123.182
13.214 157.536
13.2589 217.603
13.3038 327.278
13.3487 434.741
13.3937 322.428
13.4386 152.298
13.4835 115.399
13.5285 132.942
13.5734 160.749
13.6183 221.403
13.6633 318.156
13.7082 366.672
13.7531 239.66
13.7981 113.339
13.843 86.5347
13.888 83.2487
13.9329 80.4845
13.9779 78.9009
14.0228 77.4327
14.0678 76.0257
14.1127 75.3701
14.1577 75.7428
14.2027 74.5885
14.2476 73.0735
14.2926 73.4615
14.3376 74.8395
14.3825 73.3119
14.4275 71.5491
14.4725 71.6416
14.5175 71.3682
14.5624 71.8662
14.6074 74.1471
14.6524 74.7523
14.6974 73.4975
14.7424 75.2951
14.7874 83.6246
14.8324 96.074
14.8774 111.719
14.9224 141.127
14.9674 189.427
15.0124 223.092
15.0574 175.556
15.1024 105.916
15.1474 77.2641
15.1924 73.925
15.2374 74.3639
15.2824 73.9261
15.3274 70.9858
15.3725 69.7615
15.4175 69.1218
15.4625 68.6122
15.5076 69.0973
15.5526 69.0564
15.5976 68.5279
15.6426 69.8691
15.6877 76.57
15.7327 86.0017
15.7778 97.1538
15.8228 117.655
15.8679 154.329
15.9129 192.119
15.958 176.814
16.003 117.371
16.0481 74.9486
16.0931 68.3419
16.1382 65.8832
16.1833 63.2706
16.2283 61.5079
16.2734 61.0442
16.3185 61.2989
16.3636 62.2338
16.4086 60.4989
16.4537 58.7454
16.4988 57.9332
16.5439 57.8938
16.589 57.5735
16.6341 57.3596
16.6792 56.6749
16.7243 57.1518
16.7694 57.2309
16.8145 57.1305
16.8596 57.6067
16.9047 59.1679
16.9498 59.6509
16.9949 58.2159
17.04 58.2314
17.0851 59.5034
17.1302 61.5713
17.1754 64.3449
17.2205 67.5438
17.2656 73.4472
17.3108 81.9241
17.3559 86.0677
17.401 77.8185
17.4462 66.8511
17.4913 61.8953
17.5365 61.5681
17.5815 61.5862
17.6268 61.9288
17.6718 62.7674
17.7171 63.2819
17.7622 63.654
17.8074 64.4539
17.8525 66.7399
17.8977 72.0936
17.9428 78.1249
17.9881 84.1939
18.0331 96.0499
18.0784 114.424
18.1237 137.329
18.1688 142.494
18.214 118.442
18.2591 93.3946
18.3044 90.0135
18.3495 97.8039
18.3948 107.999
18.4399 104.843
18.4852 85.9377
18.5303 70.7016
18.5756 65.1838
18.6207 63.8376
18.666 62.8139
18.7112 62.2012
18.7565 61.5707
18.8016 61.1088
18.8469 60.5139
18.892 60.1582
18.9374 59.3936
18.9825 59.4394
19.0278 59.4512
19.073 59.258
19.1183 60.0798
19.1635 61.0069
19.2088 62.2529
19.254 63.6818
19.2993 66.7224
19.3447 72.4779
19.3898 77.9662
19.4352 77.5451
19.4804 68.9943
19.5257 60.6357
19.5709 56.7314
19.6163 56.2258
19.6615 56.1019
19.7068 55.4573
19.752 55.457
19.7974 55.6573
19.8426 57.1139
19.888 57.7161
19.9332 58.489
19.9786 60.2395
20.0238 62.7429
20.0692 67.0971
20.1144 71.5375
20.1598 72.547
20.205 67.4285
20.2504 64.1261
20.2957 64.5602
20.3411 67.2142
20.3863 67.7753
20.4318 62.8265
20.477 57.4158
20.5224 54.253
20.5677 53.261
20.6131 52.5163
20.6586 51.7109
20.7038 51.5984
20.7493 51.008
20.7945 51.0793
20.84 50.8327
20.8853 50.811
20.9307 50.6247
20.976 50.7216
21.0215 50.7961
21.0668 51.1473
21.1122 51.2257
21.1575 51.7616
21.203 52.3183
21.2483 53.1659
21.2938 53.7414
21.3391 52.3727
21.3846 51.1605
21.4299 50.643
21.4754 50.2214
21.5207 50.5662
21.5662 50.8465
21.6116 51.2334
21.6571 52.193
21.7024 53.2302
21.7479 54.4773
21.7933 56.4938
21.8388 59.2234
21.8843 63.1324
21.9297 66.4745
21.9752 67.0861
22.0206 63.5234
22.0661 59.0776
22.1115 57.7049
22.157 58.1848
22.2024 57.2172
22.248 54.652
22.2933 52.5077
22.3389 51.2737
22.3843 51.1882
22.4299 50.8771
22.4753 51.0131
22.5208 50.6983
22.5662 50.448
22.6118 50.5574
22.6572 50.7638
22.7028 51.3995
22.7483 51.9756
22.7939 52.4654
22.8393 53.3045
22.8849 54.9447
22.9303 56.7923
22.9759 59.0851
23.0214 59.9015
23.067 58.1523
23.1126 54.3184
23.1581 51.8396
23.2037 50.8786
23.2492 50.9988
23.2948 50.9986
23.3403 51.3468
23.3859 51.9936
23.4314 52.5106
23.477 53.5701
23.5225 55.4611
23.5682 57.7155
23.6137 59.6935
23.6593 58.933
23.7048 55.3578
23.7505 51.2541
23.796 48.8185
23.8417 48.0137
23.8872 47.4782
23.9329 47.0846
23.9784 46.7214
24.0241 46.4384
24.0697 46.2891
24.1154 45.8814
24.1609 45.9106
24.2066 45.7537
24.2522 45.589
24.2979 45.2255
24.3434 45.0697
24.3892 44.8921
24.4349 44.8327
24.4805 44.6096
24.5262 44.6796
24.5718 44.6424
24.6175 44.7103
24.6631 44.6332
24.7089 44.3028
24.7545 44.2805
24.8002 44.0286
24.8458 43.8192
24.8916 43.7497
24.9372 43.9286
24.983 44.2667
25.0286 44.477
25.0744 44.8237
25.12 45.2033
25.1658 45.8782
25.2114 46.2697
25.2572 46.3183
25.3029 46.2822
25.3487 46.5232
25.3943 46.4486
25.4402 45.7277
25.4858 44.6584
25.5316 43.3831
25.5773 42.7038
25.6231 42.5442
25.669 42.2125
25.7147 42.2662
25.7605 42.2085
25.8062 42.2294
25.8521 42.4119
25.8977 42.171
25.9436 42.432
25.9893 42.4442
26.0352 42.8223
26.0809 43.0283
26.1268 43.4026
26.1725 43.1272
26.2184 42.8426
26.2641 42.2123
26.31 41.8461
26.3557 41.9253
26.4017 41.7476
26.4474 42.1457
26.4933 42.2095
26.5391 42.6061
26.585 42.9491
26.6308 43.3953
26.6767 43.6073
26.7225 43.6888
26.7684 43.3004
26.8142 42.687
26.8601 42.2028
26.9059 41.6791
26.9519 41.3286
26.9979 40.9176
27.0437 40.4852
27.0896 40.3364
27.1354 40.3664
27.1814 40.0251
27.2272 40.0855
27.2732 40.1545
27.3191 39.863
27.3651 39.9973
27.4109 39.7346
27.4569 39.946
27.5027 39.9263
27.5488 40.0484
27.5946 39.8518
27.6407 39.7628
27.6865 39.7301
27.7326 39.4914
27.7784 39.3787
27.8245 39.2145
27.8703 39.48
27.9164 39.5564
27.9623 39.6051
28.0084 40.0143
28.0543 40.477
28.1003 40.5643
28.1462 40.4625
28.1923 40.0238
28.2384 39.6249
28.2843 39.2677
28.3304 38.7175
28.3764 38.395
28.4225 37.9718
28.4684 37.8198
28.5145 37.3998
28.5605 37.297
28.6066 37.2069
28.6526 37.0616
28.6987 37.0539
28.7447 36.9079
28.7908 36.7353
28.8368 36.8031
28.8829 36.7753
28.9289 36.7902
28.9751 36.7012
29.0211 36.3848
29.0673 36.109
29.1133 35.9911
29.1595 35.8014
29.2055 35.736
29.2517 35.7736
29.2977 35.5946
29.3439 35.5303
29.3899 35.5482
29.4361 35.4518
29.4824 35.3764
29.5284 35.114
29.5746 34.7064
29.6207 34.4747
29.6669 34.5198
29.713 34.3087
29.7593 34.2463
29.8053 34.2316
29.8516 34.0898
29.8977 34.0183
29.9439 33.8717
29.99 33.9678
30.0363 33.7729
30.0824 33.6951
30.1287 33.7028
30.1748 33.7457
30.2211 33.8476
30.2673 33.5403
30.3136 33.6735
30.3597 33.6265
30.406 33.5656
30.4522 33.4318
30.4985 33.4086
30.5447 33.3988
30.591 33.3723
30.6372 33.4323
30.6835 33.3382
30.7297 33.4363
30.7761 33.4126
30.8224 33.3272
30.8686 33.0887
30.915 32.9729
30.9612 32.8195
31.0076 32.6708
31.0538 32.4687
31.1002 32.3556
31.1464 32.1827
31.1928 32.2114
31.2391 32.1227
31.2855 32.0129
31.3317 31.9932
31.3781 32.082
31.4244 32.1066
31.4708 32.0174
31.5171 32.0168
31.5636 32.043
31.6098 31.7602
31.6563 31.5786
31.7026 31.516
31.7491 31.2963
31.7953 31.3178
31.8418 31.2961
31.8881 31.3039
31.9346 31.2298
31.9809 31.2005
32.0275 31.1897
32.074 30.9347
32.1203 30.819
32.1668 30.7655
32.2132 30.6345
32.2597 30.3833
32.306 30.3702
32.3526 30.1553
32.399 30.0157
32.4455 29.9066
32.4919 29.8958
32.5385 29.7967
32.5848 29.6352
32.6314 29.618
32.6778 29.5056
32.7244 29.4335
32.7708 29.3046
32.8174 29.28
32.8638 29.1322
32.9104 29.1601
32.9569 29.1085
33.0035 28.882
33.0499 28.9981
33.0966 28.9052
33.143 28.9382
33.1897 28.7781
33.2361 28.7304
33.2828 28.7787
33.3293 28.533
33.3759 28.4869
33.4226 28.3983
33.4691 28.2143
33.5158 28.153
33.5623 27.9388
33.609 27.886
33.6555 27.7921
33.7022 27.5696
33.7487 27.5299
33.7954 27.5632
33.842 27.4547
33.8887 27.395
33.9353 27.3025
33.982 27.2419
34.0286 27.1316
34.0753 27.08
34.1219 26.8674
34.1687 26.8741
34.2152 26.8053
34.262 26.7131
34.3086 26.6244
34.3554 26.5257
34.402 26.3838
34.4488 26.3436
34.4954 26.2663
34.5422 26.1366
34.5889 26.1437
34.6357 25.9539
34.6825 25.8719
34.7292 25.8696
34.776 25.7646
34.8227 25.7296
34.8695 25.6297
34.9162 25.6314
34.9631 25.4456
35.0098 25.5269
35.0566 25.282
35.1033 25.2546
35.1502 25.2937
35.1969 25.1522
35.2438 25.0834
35.2906 25.0496
35.3375 25.0247
35.3842 24.9046
35.4311 24.9069
35.4779 24.9129
35.5248 24.8431
35.5716 24.7667
35.6185 24.6693
35.6653 24.4902
35.7123 24.4046
35.759 24.4211
35.806 24.2331
35.8528 24.1501
35.8998 24.1394
35.9468 23.9092
35.9936 24.0321
36.0406 23.8817
36.0874 23.8733
36.1345 23.7358
36.1813 23.7269
36.2283 23.6377
36.2752 23.6391
36.3222 23.5675
36.3691 23.4938
36.4161 23.3412
36.463 23.3476
36.5101 23.3482
36.557 23.2313
36.6041 23.1045
36.651 23.1018
36.6981 22.9511
36.745 22.9694
36.7921 22.8068
36.839 22.7276
36.8861 22.6925
36.9331 22.6165
36.9802 22.5893
37.0272 22.4514
37.0743 22.3918
37.1213 22.2972
37.1684 22.2426
37.2154 22.1761
37.2626 22.1169
37.3098 22.0724
37.3568 21.9732
37.404 21.9524
37.451 21.872
37.4982 21.7465
37.5452 21.6884
37.5924 21.6842
37.6395 21.6259
37.6867 21.5426
37.7337 21.3931
37.781 21.4504
37.8281 21.291
37.8753 21.1938
37.9224 21.2101
37.9697 21.0933
38.0168 21.0099
38.064 20.9208
38.1111 20.902
38.1584 20.8201
38.2056 20.8186
38.2529 20.6616
38.3 20.6761
38.3473 20.6319
38.3945 20.404
38.4418 20.4154
38.489 20.4055
38.5363 20.2639
38.5837 20.1649
38.6309 20.1564
38.6782 20.1367
38.7254 20.0338
38.7728 19.9342
38.82 19.8674
38.8674 19.8751
38.9146 19.8162
38.9621 19.7697
39.0093 19.7062
39.0567 19.6135
39.104 19.5516
39.1514 19.4666
39.1987 19.4087
39.2461 19.4153
39.2934 19.2749
39.3409 19.2744
39.3882 19.1703
39.4356 19.0612
39.483 19.1077
39.5304 19.0234
39.5778 18.9816
39.6253 18.8819
39.6726 18.871
39.7201 18.7736
39.7675 18.7143
39.815 18.6004
39.8624 18.573
39.9099 18.5894
39.9575 18.4024
40.0049 18.4665
40.0525 18.2962
40.0999 18.3214
40.1474 18.214
40.1949 18.1391
40.2425 18.0818
40.2899 18.0693
40.3375 17.9238
40.385 17.9134
40.4326 17.8719
40.48 17.7949
40.5277 17.8086
40.5752 17.6647
40.6228 17.6902
40.6703 17.5826
40.718 17.5817
40.7655 17.5247
40.8132 17.4101
40.8607 17.4453
40.9084 17.3484
40.9559 17.2341
41.0036 17.2468
41.0512 17.1939
41.0989 17.1317
41.1465 17.0758
41.1942 16.977
41.242 16.8558
41.2896 16.8514
41.3373 16.832
41.3849 16.7914
41.4327 16.7358
41.4803 16.6063
41.5281 16.61
41.5758 16.533
41.6236 16.4953
41.6712 16.4044
41.7191 16.3567
41.7667 16.3022
41.8146 16.3268
41.8622 16.1938
41.9101 16.1405
41.9578 16.0935
42.0057 16.0571
42.0534 15.9684
42.1013 15.9457
42.149 15.8233
42.1969 15.8126
42.2446 15.779
42.2925 15.7186
42.3403 15.6673
42.3882 15.6369
42.436 15.6265
42.4839 15.5162
42.5319 15.4761
42.5797 15.3898
42.6277 15.3473
42.6755 15.2783
42.7235 15.2843
42.7713 15.2466
42.8193 15.0895
42.8671 15.0983
42.9152 15.0316
42.963 14.9872
43.0111 14.8947
43.0589 14.9144
43.107 14.803
43.1549 14.8224
43.2029 14.7432
43.2508 14.7101
43.2989 14.6788
43.3468 14.5352
43.3949 14.5571
43.4429 14.4649
43.491 14.4388
43.5389 14.3794
43.5871 14.344
43.635 14.2587
43.6832 14.2231
43.7312 14.2047
43.7793 14.0955
43.8273 14.0766
43.8755 14.0437
43.9237 14.007
43.9717 13.9619
44.0199 13.8613
44.068 13.8573
44.1162 13.7267
44.1642 13.7705
44.2125 13.745
44.2606 13.7032
44.3088 13.6385
44.3569 13.563
44.4052 13.5575
44.4533 13.3949
44.5016 13.4104
44.5497 13.3684
44.598 13.3051
44.6461 13.2542
44.6945 13.2212
44.7426 13.2185
44.791 13.1344
44.8391 13.0957
44.8875 13.0638
44.9357 12.9953
44.984 12.9617
45.0322 12.9023
45.0806 12.8492
45.1288 12.8137
45.1773 12.7732
45.2257 12.7265
45.2739 12.6867
45.3224 12.6467
45.3706 12.5989
45.4191 12.5408
45.4673 12.5722
45.5158 12.4879
45.5641 12.4145
45.6126 12.3615
45.6609 12.3306
45.7094 12.3295
45.7577 12.2685
45.8063 12.1558
45.8546 12.1601
45.9031 12.0898
45.9515 12.0677
46.0001 12.0099
46.0484 11.9899
46.097 11.9315
46.1454 11.8973
46.194 11.856
46.2424 11.7837
46.291 11.7542
46.3395 11.7264
46.3881 11.6765
46.4365 11.6126
46.4852 11.6138
46.5337 11.5642
46.5823 11.5377
46.631 11.4754
46.6795 11.3967
46.7282 11.3952
46.7767 11.3784
46.8254 11.2832
46.8739 11.2608
46.9226 11.2284
46.9712 11.1452
47.0199 11.1219
47.0685 11.1108
47.1173 11.0415
47.1658 11.0213
47.2146 10.9977
47.2632 10.9203
47.312 10.8764
47.3606 10.8308
47.4095 10.8113
47.4581 10.7382
47.5069 10.7271
47.5556 10.6802
47.6044 10.6294
47.6531 10.6024
47.702 10.5762
47.7507 10.5417
47.7996 10.49
47.8483 10.4681
47.8972 10.435
47.9461 10.3476
47.9948 10.3459
48.0438 10.2714
48.0925 10.2562
48.1415 10.2203
48.1902 10.2011
48.2392 10.1504
48.288 10.1194
48.337 10.0526
48.3858 10.0589
48.4348 10.0221
48.4837 10.0034
48.5327 9.92838
48.5815 9.91125
48.6306 9.90415
48.6795 9.81462
48.7285 9.80165
48.7774 9.78423
48.8265 9.74898
48.8754 9.68833
48.9245 9.65426
48.9734 9.62315
49.0226 9.60119
49.0715 9.55328
49.1206 9.52504
49.1696 9.4521
49.2188 9.45127
49.2679 9.38148
49.3169 9.36954
49.3661 9.31936
49.4151 9.2897
49.4643 9.2877
49.5134 9.23271
49.5626 9.20186
49.6117 9.16947
49.6609 9.12426
49.71 9.0829
49.7592 9.03421
49.8083 8.99932
49.8576 8.97441
49.9067 8.92736
49.956 8.90194
50.0052 8.8706
50.0545 8.87448
50.1036 8.81582
50.153 8.79296
50.2022 8.7474
50.2515 8.67677
50.3007 8.65552
50.3501 8.64025
50.3993 8.61417
50.4487 8.58673
50.498 8.53837
50.5474 8.47963
50.5966 8.46284
50.6461 8.42798
50.6955 8.41776
50.7448 8.36781
50.7943 8.34183
50.8436 8.33311
50.8931 8.32079
50.9424 8.19404
50.9919 8.23307
51.0413 8.16331
51.0908 8.13
51.1402 8.09733
51.1897 8.06324
51.2391 8.03628
51.2887 8.02923
51.3381 7.99224
51.3877 7.97036
51.4371 7.91884
51.4867 7.87221
51.5362 7.8494
51.5858 7.83405
51.6353 7.76158
51.6849 7.76043
51.7344 7.70036
51.7841 7.67156
51.8336 7.66648
51.8833 7.65695
51.9328 7.58035
51.9826 7.53059
52.0323 7.52232
52.0818 7.48227
52.1316 7.44067
52.1812 7.44634
52.231 7.40044
52.2806 7.35084
52.3304 7.32827
52.38 7.35543
52.4298 7.3032
52.4794 7.2554
52.5293 7.22668
52.5789 7.21871
52.6288 7.18107
52.6785 7.12171
52.7284 7.08971
52.7781 7.07358
52.828 7.04604
52.8777 7.00465
52.9276 6.95569
52.9774 7.00525
53.0273 6.93564
53.0771 6.92425
53.1271 6.84972
53.1769 6.83797
53.2269 6.84231
53.2767 6.80417
53.3267 6.73789
53.3765 6.74589
53.4266 6.72028
53.4766 6.72333
53.5265 6.65996
53.5765 6.61131
53.6264 6.5463
53.6765 6.57407
53.7264 6.53111
53.7765 6.53543
53.8265 6.47581
53.8766 6.47058
53.9266 6.40853
53.9767 6.42235
54.0267 6.38421
54.0769 6.34674
54.1269 6.29618
54.1771 6.25168
54.2271 6.29282
54.2773 6.19287
54.3274 6.16878
54.3776 6.11658
54.4277 6.11222
54.478 6.0526
54.528 6.03051
54.5783 5.97346
54.6285 5.93747
54.6788 5.9392
54.7289 5.84008
54.7792 5.82129
54.8296 5.76226
54.8798 5.74627
54.9301 5.6748
54.9803 5.67907
55.0307 5.64918
55.0809 5.59135
55.1314 5.56676
55.1816 5.44338
55.232 5.4155
55.2823 5.42233
55.3328 5.33001
55.383 5.28949
55.4335 5.20114
55.4838 5.14406
55.5344 5.18354
55.5847 5.12877
55.6352 5.08265
55.6856 5.05434
55.7361 5.03361