File: XRD/Ni3Fe_FD0025.xy
TT I
1.27165 34.4959
1.31627 32.658
1.36089 32.913
1.40551 29.5268
1.45013 28.7358
1.49476 28.0626
1.53938 27.4847
1.584 25.396
1.62863 25.4373
1.67325 24.7949
1.71787 24.6173
1.7625 23.7155
1.80712 23.5618
1.85174 23.4652
1.89636 23.2851
1.94099 23.6825
1.98562 23.0904
2.03025 23.3098
2.07487 24.4823
2.11949 25.0232
2.16411 25.1295
2.20874 25.9895
2.25338 26.146
2.298 27.2404
2.34263 26.0438
2.38725 25.277
2.43188 24.5723
2.4765 24.4846
2.52115 25.1542
2.56577 26.0107
2.6104 26.3519
2.65503 26.6213
2.69965 27.8333
2.7443 29.2199
2.78893 32.1048
2.83356 34.5906
2.87818 38.0895
2.92281 42.2661
2.96744 47.9432
3.01209 56.3883
3.05672 64.683
3.10135 75.2277
3.14599 81.3565
3.19062 81.7567
3.23527 75.3352
3.2799 64.2675
3.32454 54.1093
3.36917 45.9265
3.4138 40.9762
3.45844 38.0935
3.50309 37.0793
3.54773 37.063
3.59237 38.6756
3.637 41.102
3.68164 42.4851
3.7263 41.7792
3.77094 39.1847
3.81558 37.0865
3.86022 36.4771
3.90486 37.1318
3.9495 37.4311
3.99416 38.5335
4.0388 41.0689
4.08344 44.8565
4.12809 50.3335
4.17273 58.3812
4.21738 70.2332
4.26204 83.6022
4.30669 89.9879
4.35133 86.4018
4.39598 75.0168
4.44063 66.2326
4.4853 61.0308
4.52995 55.6846
4.5746 50.6689
4.61925 47.8344
4.6639 45.9373
4.70855 46.1948
4.75322 47.4265
4.79788 49.4341
4.84253 52.2913
4.88719 56.4115
4.93184 62.1951
4.97652 70.9404
5.02118 86.3717
5.06583 110.742
5.11049 135.481
5.15515 180.263
5.19981 277.434
5.24449 563.211
5.28916 1179.15
5.33382 3209.69
5.37848 3730.88
5.42315 1147.7
5.46783 364.728
5.5125 212.164
5.55716 155.439
5.60183 125.49
5.6465 112.024
5.69117 105.768
5.73586 100.213
5.78053 96.373
5.8252 96.8785
5.86988 101.117
5.91455 111.174
5.95924 130.143
6.00392 172.604
6.0486 272.407
6.09328 463.247
6.13795 826.537
6.18263 1307.39
6.22733 758.93
6.27201 307.404
6.3167 165.058
6.36138 108.581
6.40606 84.0181
6.45075 71.8779
6.49545 63.4615
6.54014 59.0183
6.58483 56.476
6.62952 55.7532
6.67421 56.4053
6.71892 57.681
6.76361 57.6036
6.8083 54.8494
6.853 52.0584
6.89769 49.0576
6.94239 46.5664
6.98711 45.1267
7.03181 44.2418
7.07651 44.5228
7.12121 45.6372
7.16591 47.5486
7.21063 51.3204
7.25533 57.3032
7.30004 68.653
7.34475 75.3458
7.38945 71.5715
7.43416 61.368
7.47889 54.645
7.5236 56.1823
7.56831 96.1989
7.61303 150.751
7.65774 75.2123
7.70247 45.5076
7.74719 40.2019
7.79191 38.3611
7.83663 37.8473
7.88135 37.4399
7.92607 37.8446
7.97081 38.1339
8.01553 38.5067
8.06026 39.1003
8.10498 40.1343
8.14971 41.496
8.19446 42.8494
8.23919 44.7587
8.28392 46.5452
8.32865 48.2883
8.37339 52.3182
8.41812 56.7059
8.46288 65.3374
8.50761 78.5205
8.55235 105.907
8.59709 160.541
8.64183 219.465
8.68658 391.506
8.73134 759.202
8.77609 642.194
8.82083 273.107
8.86558 134.009
8.91033 93.896
8.9551 77.5659
8.99985 69.5346
9.04461 64.2725
9.08936 60.874
9.13412 59.0122
9.17888 59.9917
9.22365 67.5448
9.26841 124.284
9.31318 249.389
9.35794 149.547
9.4027 69.6201
9.44749 56.4547
9.49226 53.0206
9.53703 52.0153
9.5818 52.1126
9.62657 52.4068
9.67134 53.3452
9.71614 54.5856
9.76091 56.2428
9.80569 58.222
9.85047 60.5842
9.89525 65.1603
9.94005 71.222
9.98484 80.8397
10.0296 101.134
10.0744 141.439
10.1192 183.538
10.164 248.963
10.2088 503.979
10.2536 822.8
10.2984 552.391
10.3432 242.586
10.388 129.55
10.4328 94.9813
10.4776 83.6419
10.5224 85.933
10.5672 91.5344
10.612 101.427
10.6568 157.166
10.7017 274.034
10.7465 264.058
10.7913 142.368
10.8361 73.5376
10.8809 55.2974
10.9257 49.1346
10.9706 46.6548
11.0154 44.8854
11.0602 43.8216
11.105 42.8684
11.1499 42.1482
11.1947 42.3484
11.2395 42.0298
11.2844 41.7573
11.3292 41.2387
11.374 40.0143
11.4189 39.1803
11.4637 38.599
11.5086 37.8612
11.5534 37.4955
11.5983 37.7169
11.6431 37.9165
11.688 37.258
11.7328 36.9064
11.7777 36.9297
11.8225 36.9176
11.8674 37.3196
11.9122 39.5096
11.9571 45.922
12.002 72.9234
12.0468 89.4109
12.0917 60.894
12.1366 46.8698
12.1814 46.8191
12.2263 49.6284
12.2712 55.7574
12.3161 71.9284
12.3609 95.0106
12.4058 90.1337
12.4507 64.979
12.4956 50.7959
12.5405 44.8591
12.5853 42.2601
12.6302 40.9492
12.6751 41.2028
12.72 41.5197
12.7649 41.5019
12.8098 40.7696
12.8547 40.2773
12.8996 40.1396
12.9445 39.7011
12.9894 40.2109
13.0343 40.841
13.0792 42.5085
13.1242 46.7846
13.1691 56.9057
13.214 62.353
13.2589 63.7872
13.3038 68.6662
13.3487 75.0515
13.3937 96.7193
13.4386 152.158
13.4835 222.594
13.5285 194.001
13.5734 123.126
13.6183 91.5208
13.6633 80.9197
13.7082 81.7012
13.7531 101.693
13.7981 161.979
13.843 212.831
13.888 156.29
13.9329 87.7629
13.9779 60.9759
14.0228 50.8197
14.0678 46.5187
14.1127 45.3923
14.1577 48.143
14.2027 66.2408
14.2476 86.1829
14.2926 67.9415
14.3376 47.1391
14.3825 41.0834
14.4275 39.4975
14.4725 38.7351
14.5175 38.3568
14.5624 38.141
14.6074 37.9062
14.6524 38.1248
14.6974 38.5265
14.7424 39.0319
14.7874 39.4204
14.8324 40.6543
14.8774 43.4401
14.9224 47.2081
14.9674 49.6134
15.0124 52.3304
15.0574 60.9851
15.1024 83.1965
15.1474 119.89
15.1924 124.915
15.2374 88.7656
15.2824 61.2695
15.3274 48.8102
15.3725 43.8414
15.4175 41.387
15.4625 39.8964
15.5076 39.1642
15.5526 38.7199
15.5976 38.301
15.6426 38.4202
15.6877 38.6482
15.7327 39.4204
15.7778 41.5273
15.8228 44.6201
15.8679 47.0764
15.9129 48.5958
15.958 54.5529
16.003 68.1673
16.0481 98.6453
16.0931 126.159
16.1382 113.895
16.1833 82.5929
16.2283 57.0152
16.2734 44.4896
16.3185 39.6466
16.3636 37.3053
16.4086 35.4983
16.4537 34.6512
16.4988 34.0203
16.5439 33.3048
16.589 32.8157
16.6341 32.4129
16.6792 32.1421
16.7243 31.919
16.7694 31.7403
16.8145 31.7506
16.8596 31.9123
16.9047 32.2124
16.9498 33.3118
16.9949 36.1335
17.04 39.6985
17.0851 38.0243
17.1302 34.6099
17.1754 33.3959
17.2205 33.7563
17.2656 34.1328
17.3108 34.6799
17.3559 34.9058
17.401 36.591
17.4462 40.4773
17.4913 47.4539
17.5365 51.9023
17.5815 46.852
17.6268 39.9071
17.6718 36.5317
17.7171 35.3552
17.7622 35.4169
17.8074 36.7623
17.8525 40.1304
17.8977 42.0836
17.9428 39.9919
17.9881 39.2749
18.0331 41.1276
18.0784 42.2462
18.1237 43.0909
18.1688 45.3092
18.214 51.969
18.2591 66.1632
18.3044 90.5918
18.3495 101.752
18.3948 83.6876
18.4399 62.8458
18.4852 55.7752
18.5303 60.0624
18.5756 70.7497
18.6207 74.1249
18.666 62.9299
18.7112 50.5333
18.7565 41.9989
18.8016 38.088
18.8469 36.2179
18.892 35.2031
18.9374 34.4413
18.9825 33.9353
19.0278 33.5376
19.073 33.6083
19.1183 33.347
19.1635 33.3382
19.2088 33.7726
19.254 34.3669
19.2993 35.2966
19.3447 36.439
19.3898 39.8829
19.4352 45.3762
19.4804 47.3219
19.5257 45.2588
19.5709 46.9227
19.6163 49.3162
19.6615 45.8707
19.7068 39.348
19.752 35.4926
19.7974 33.5067
19.8426 32.7207
19.888 31.9046
19.9332 32.0615
19.9786 32.3595
20.0238 32.3598
20.0692 32.4915
20.1144 32.6909
20.1598 33.3574
20.205 34.7368
20.2504 37.8342
20.2957 42.9581
20.3411 46.6487
20.3863 45.4281
20.4318 40.7754
20.477 38.8827
20.5224 40.9375
20.5677 44.6483
20.6131 43.4415
20.6586 38.2152
20.7038 34.2125
20.7493 31.8568
20.7945 31.3317
20.84 31.9412
20.8853 33.3513
20.9307 33.4788
20.976 31.651
21.0215 29.6635
21.0668 29.218
21.1122 28.9833
21.1575 28.9283
21.203 28.841
21.2483 28.7659
21.2938 28.9521
21.3391 28.8684
21.3846 29.3215
21.4299 30.1847
21.4754 31.7737
21.5207 32.5547
21.5662 32.2076
21.6116 30.8686
21.6571 29.8537
21.7024 29.6006
21.7479 29.69
21.7933 30.081
21.8388 30.5447
21.8843 30.9185
21.9297 31.2844
21.9752 32.0437
22.0206 33.8485
22.0661 36.4217
22.1115 41.0248
22.157 46.4601
22.2024 48.2364
22.248 45.0952
22.2933 41.5652
22.3389 40.0133
22.3843 39.444
22.4299 37.9596
22.4753 35.0945
22.5208 32.5545
22.5662 31.2127
22.6118 30.6184
22.6572 30.0256
22.7028 29.9941
22.7483 29.858
22.7939 29.8444
22.8393 30.4928
22.8849 31.3721
22.9303 31.9288
22.9759 31.815
23.0214 31.2635
23.067 31.5001
23.1126 32.6262
23.1581 34.9905
23.2037 39.2296
23.2492 42.435
23.2948 40.8285
23.3403 36.4897
23.3859 33.4684
23.4314 32.2339
23.477 32.4756
23.5225 33.2551
23.5682 34.197
23.6137 33.5004
23.6593 32.6808
23.7048 32.7554
23.7505 34.1983
23.796 37.4104
23.8417 41.9839
23.8872 43.7812
23.9329 40.4774
23.9784 35.1836
24.0241 31.646
24.0697 30.1126
24.1154 29.3102
24.1609 28.8624
24.2066 28.6109
24.2522 28.0955
24.2979 27.6907
24.3434 27.1634
24.3892 26.9322
24.4349 26.7583
24.4805 26.6164
24.5262 26.5745
24.5718 26.5339
24.6175 26.3159
24.6631 26.4347
24.7089 26.7909
24.7545 27.4577
24.8002 27.8729
24.8458 27.7817
24.8916 27.0614
24.9372 26.5892
24.983 26.4848
25.0286 26.2931
25.0744 26.263
25.12 26.1144
25.1658 26.3225
25.2114 26.384
25.2572 26.6703
25.3029 27.0676
25.3487 27.8639
25.3943 28.6571
25.4402 29.4762
25.4858 30.1407
25.5316 30.013
25.5773 30.3393
25.6231 31.4795
25.669 31.8014
25.7147 30.5313
25.7605 28.5197
25.8062 27.0222
25.8521 26.6118
25.8977 26.4357
25.9436 26.6971
25.9893 26.6308
26.0352 26.1873
26.0809 25.5984
26.1268 25.5674
26.1725 25.5584
26.2184 25.7234
26.2641 26.0323
26.31 26.6636
26.3557 27.7082
26.4017 28.3654
26.4474 28.4634
26.4933 27.6333
26.5391 26.9242
26.585 26.3457
26.6308 25.8971
26.6767 25.7178
26.7225 25.9962
26.7684 26.2705
26.8142 26.5623
26.8601 27.3562
26.9059 28.6145
26.9519 30.0697
26.9979 30.4936
27.0437 30.025
27.0896 29.5531
27.1354 28.9318
27.1814 27.9121
27.2272 26.6743
27.2732 25.8624
27.3191 25.2284
27.3651 24.9051
27.4109 24.8286
27.4569 24.5788
27.5027 24.5826
27.5488 24.5553
27.5946 24.6197
27.6407 24.6989
27.6865 24.7146
27.7326 24.7577
27.7784 24.9382
27.8245 25.2964
27.8703 25.7409
27.9164 25.4916
27.9623 25.0008
28.0084 24.8119
28.0543 24.9189
28.1003 25.1549
28.1462 25.4578
28.1923 25.844
28.2384 25.7656
28.2843 26.2236
28.3304 26.942
28.3764 28.0673
28.4225 28.3687
28.4684 27.7236
28.5145 26.8829
28.5605 26.6058
28.6066 26.0881
28.6526 25.4315
28.6987 24.8472
28.7447 24.1598
28.7908 23.5749
28.8368 23.1374
28.8829 22.9774
28.9289 22.8745
28.9751 22.7593
29.0211 22.6826
29.0673 22.639
29.1133 22.7201
29.1595 22.7974
29.2055 23.2258
29.2517 23.3408
29.2977 23.0934
29.3439 22.7298
29.3899 22.4084
29.4361 22.1467
29.4824 21.9532
29.5284 22.0285
29.5746 21.9632
29.6207 22.0996
29.6669 22.2747
29.713 22.5821
29.7593 22.7846
29.8053 22.5783
29.8516 22.1615
29.8977 21.8386
29.9439 21.4478
29.99 21.295
30.0363 21.2912
30.0824 21.2985
30.1287 21.2178
30.1748 21.4196
30.2211 21.4938
30.2673 21.2418
30.3136 21.2504
30.3597 21.0797
30.406 21.1391
30.4522 21.0115
30.4985 21.1624
30.5447 21.3883
30.591 21.4027
30.6372 21.3248
30.6835 21.2029
30.7297 20.9875
30.7761 21.0944
30.8224 20.9925
30.8686 21.1594
30.915 21.1475
30.9612 21.5299
31.0076 21.9814
31.0538 22.5417
31.1002 22.7585
31.1464 22.4783
31.1928 22.2774
31.2391 22.0296
31.2855 21.4716
31.3317 21.1484
31.3781 20.9623
31.4244 20.6262
31.4708 20.5463
31.5171 20.4391
31.5636 20.4991
31.6098 20.5599
31.6563 20.5745
31.7026 20.7859
31.7491 20.7713
31.7953 21.1234
31.8418 21.2906
31.8881 21.357
31.9346 21.1374
31.9809 20.7127
32.0275 20.377
32.074 20.244
32.1203 20.3392
32.1668 20.3267
32.2132 20.4124
32.2597 20.527
32.306 20.8522
32.3526 20.7557
32.399 20.6663
32.4455 20.3667
32.4919 20.166
32.5385 19.9644
32.5848 19.6207
32.6314 19.4817
32.6778 19.3067
32.7244 19.0866
32.7708 18.8898
32.8174 18.9095
32.8638 18.839
32.9104 18.8181
32.9569 18.7816
33.0035 18.7768
33.0499 18.8212
33.0966 18.8304
33.143 18.8571
33.1897 18.6003
33.2361 18.5055
33.2828 18.4902
33.3293 18.3975
33.3759 18.493
33.4226 18.5055
33.4691 18.6705
33.5158 18.8508
33.5623 18.8453
33.609 18.8977
33.6555 18.9637
33.7022 18.8342
33.7487 18.7042
33.7954 18.4312
33.842 18.0719
33.8887 18.0145
33.9353 17.945
33.982 17.7793
34.0286 17.6762
34.0753 17.6247
34.1219 17.5784
34.1687 17.6386
34.2152 17.6488
34.262 17.5843
34.3086 17.5553
34.3554 17.5051
34.402 17.3153
34.4488 17.219
34.4954 17.1601
34.5422 17.09
34.5889 16.9856
34.6357 17.0501
34.6825 17.005
34.7292 17.0838
34.776 17.0305
34.8227 16.8894
34.8695 16.7797
34.9162 16.7073
34.9631 16.5059
35.0098 16.549
35.0566 16.409
35.1033 16.3419
35.1502 16.3896
35.1969 16.3931
35.2438 16.2915
35.2906 16.3238
35.3375 16.3286
35.3842 16.3355
35.4311 16.3034
35.4779 16.2729
35.5248 16.2361
35.5716 16.2203
35.6185 16.2191
35.6653 16.2089
35.7123 16.3817
35.759 16.4256
35.806 16.5249
35.8528 16.5768
35.8998 16.6166
35.9468 16.4696
35.9936 16.4084
36.0406 16.3398
36.0874 16.1019
36.1345 16.0005
36.1813 15.8133
36.2283 15.7458
36.2752 15.6291
36.3222 15.6877
36.3691 15.554
36.4161 15.5078
36.463 15.5595
36.5101 15.6595
36.557 15.6796
36.6041 15.4871
36.651 15.5048
36.6981 15.3992
36.745 15.307
36.7921 15.2347
36.839 15.1789
36.8861 15.1348
36.9331 15.2129
36.9802 15.2159
37.0272 15.1961
37.0743 15.1264
37.1213 15.0426
37.1684 14.9899
37.2154 14.8876
37.2626 14.8003
37.3098 14.6809
37.3568 14.6207
37.404 14.6076
37.451 14.5707
37.4982 14.466
37.5452 14.4299
37.5924 14.4143
37.6395 14.4363
37.6867 14.2835
37.7337 14.2662
37.781 14.1877
37.8281 14.195
37.8753 14.1561
37.9224 14.0357
37.9697 14.0297
38.0168 13.9824
38.064 14.0182
38.1111 14.0242
38.1584 13.9079
38.2056 13.8874
38.2529 13.8426
38.3 13.7068
38.3473 13.7238
38.3945 13.5585
38.4418 13.6007
38.489 13.5691
38.5363 13.5298
38.5837 13.4822
38.6309 13.425
38.6782 13.4084
38.7254 13.4145
38.7728 13.3758
38.82 13.3134
38.8674 13.2965
38.9146 13.2067
38.9621 13.2409
39.0093 13.1656
39.0567 13.1765
39.104 13.1597
39.1514 13.1403
39.1987 13.1159
39.2461 13.0074
39.2934 12.9544
39.3409 12.8663
39.3882 12.7939
39.4356 12.7464
39.483 12.7298
39.5304 12.6518
39.5778 12.645
39.6253 12.6063
39.6726 12.546
39.7201 12.5292
39.7675 12.4842
39.815 12.4886
39.8624 12.4502
39.9099 12.423
39.9575 12.3269
40.0049 12.363
40.0525 12.3109
40.0999 12.2888
40.1474 12.284
40.1949 12.2201
40.2425 12.2508
40.2899 12.2016
40.3375 12.243
40.385 12.1544
40.4326 12.1007
40.48 12.0478
40.5277 11.9446
40.5752 11.9938
40.6228 11.9106
40.6703 11.9264
40.718 11.8488
40.7655 11.8472
40.8132 11.8189
40.8607 11.7962
40.9084 11.7217
40.9559 11.7262
41.0036 11.6938
41.0512 11.6646
41.0989 11.6274
41.1465 11.5651
41.1942 11.6205
41.242 11.545
41.2896 11.4541
41.3373 11.4141
41.3849 11.4188
41.4327 11.3734
41.4803 11.3037
41.5281 11.2496
41.5758 11.2202
41.6236 11.1634
41.6712 11.164
41.7191 11.0736
41.7667 11.081
41.8146 11.0447
41.8622 10.9811
41.9101 11.0085
41.9578 10.9542
42.0057 10.896
42.0534 10.9012
42.1013 10.8665
42.149 10.8162
42.1969 10.8381
42.2446 10.8092
42.2925 10.7571
42.3403 10.6874
42.3882 10.699
42.436 10.6236
42.4839 10.4908
42.5319 10.4806
42.5797 10.4475
42.6277 10.4386
42.6755 10.3733
42.7235 10.3193
42.7713 10.3193
42.8193 10.3304
42.8671 10.3192
42.9152 10.2461
42.963 10.2358
43.0111 10.0939
43.0589 10.1269
43.107 10.0842
43.1549 10.0282
43.2029 10.0505
43.2508 9.99212
43.2989 9.92301
43.3468 9.8935
43.3949 9.87371
43.4429 9.83716
43.491 9.79412
43.5389 9.82502
43.5871 9.76567
43.635 9.70782
43.6832 9.70201
43.7312 9.61739
43.7793 9.60278
43.8273 9.56569
43.8755 9.55194
43.9237 9.55068
43.9717 9.50545
44.0199 9.47117
44.068 9.46367
44.1162 9.4671
44.1642 9.44787
44.2125 9.38633
44.2606 9.39889
44.3088 9.26904
44.3569 9.31502
44.4052 9.24554
44.4533 9.18978
44.5016 9.13215
44.5497 9.13732
44.598 9.17653
44.6461 9.09728
44.6945 9.03951
44.7426 9.05709
44.791 9.01969
44.8391 8.98862
44.8875 8.98035
44.9357 8.90929
44.984 8.90853
45.0322 8.86223
45.0806 8.8876
45.1288 8.78064
45.1773 8.77583
45.2257 8.755
45.2739 8.6777
45.3224 8.7073
45.3706 8.6513
45.4191 8.59202
45.4673 8.64471
45.5158 8.59
45.5641 8.51943
45.6126 8.53292
45.6609 8.45634
45.7094 8.43708
45.7577 8.40852
45.8063 8.37999
45.8546 8.36871
45.9031 8.28808
45.9515 8.277
46.0001 8.28611
46.0484 8.31389
46.097 8.22175
46.1454 8.2282
46.194 8.19241
46.2424 8.14827
46.291 8.11305
46.3395 8.06793
46.3881 8.04992
46.4365 8.03015
46.4852 8.02758
46.5337 7.98691
46.5823 7.94633
46.631 7.92712
46.6795 7.8551
46.7282 7.89465
46.7767 7.87316
46.8254 7.79756
46.8739 7.79957
46.9226 7.76837
46.9712 7.72975
47.0199 7.70661
47.0685 7.65502
47.1173 7.6419
47.1658 7.60355
47.2146 7.58645
47.2632 7.55232
47.312 7.53157
47.3606 7.50445
47.4095 7.46
47.4581 7.47737
47.5069 7.43334
47.5556 7.35748
47.6044 7.33383
47.6531 7.32582
47.702 7.26903
47.7507 7.27383
47.7996 7.2357
47.8483 7.23694
47.8972 7.23398
47.9461 7.18714
47.9948 7.1469
48.0438 7.14207
48.0925 7.11583
48.1415 7.08695
48.1902 7.07081
48.2392 7.03309
48.288 7.0235
48.337 7.01957
48.3858 6.92995
48.4348 6.9369
48.4837 6.92283
48.5327 6.91972
48.5815 6.86215
48.6306 6.8536
48.6795 6.82516
48.7285 6.78432
48.7774 6.76851
48.8265 6.76738
48.8754 6.71535
48.9245 6.71764
48.9734 6.68405
49.0226 6.68154
49.0715 6.64548
49.1206 6.5959
49.1696 6.58478
49.2188 6.56453
49.2679 6.54211
49.3169 6.4936
49.3661 6.45844
49.4151 6.42912
49.4643 6.43001
49.5134 6.41786
49.5626 6.37405
49.6117 6.37053
49.6609 6.35299
49.71 6.3248
49.7592 6.30949
49.8083 6.3071
49.8576 6.27983
49.9067 6.24375
49.956 6.19788
50.0052 6.19744
50.0545 6.16993
50.1036 6.11528
50.153 6.12499
50.2022 6.11659
50.2515 6.07325
50.3007 6.03667
50.3501 6.02527
50.3993 6.01001
50.4487 5.98175
50.498 5.94798
50.5474 5.97332
50.5966 5.93009
50.6461 5.89315
50.6955 5.89486
50.7448 5.86541
50.7943 5.84901
50.8436 5.80768
50.8931 5.83049
50.9424 5.77283
50.9919 5.7484
51.0413 5.73415
51.0908 5.71316
51.1402 5.69
51.1897 5.68341
51.2391 5.64343
51.2887 5.61815
51.3381 5.58884
51.3877 5.58559
51.4371 5.58433
51.4867 5.54327
51.5362 5.51485
51.5858 5.52903
51.6353 5.46654
51.6849 5.43679
51.7344 5.45518
51.7841 5.41335
51.8336 5.37913
51.8833 5.37572
51.9328 5.34665
51.9826 5.33677
52.0323 5.32172
52.0818 5.26316
52.1316 5.26334
52.1812 5.24511
52.231 5.24486
52.2806 5.16176
52.3304 5.17629
52.38 5.16582
52.4298 5.1187
52.4794 5.12382
52.5293 5.11763
52.5789 5.08167
52.6288 5.07059
52.6785 5.06394
52.7284 5.02618
52.7781 5.01228
52.828 4.97722
52.8777 4.9339
52.9276 4.96685
52.9774 4.91883
53.0273 4.93306
53.0771 4.89919
53.1271 4.87121
53.1769 4.88516
53.2269 4.82147
53.2767 4.77517
53.3267 4.77834
53.3765 4.77546
53.4266 4.73619
53.4766 4.74534
53.5265 4.65379
53.5765 4.6953
53.6264 4.6504
53.6765 4.6739
53.7264 4.6362
53.7765 4.64614
53.8265 4.58307
53.8766 4.53934
53.9266 4.53177
53.9767 4.50537
54.0267 4.46771
54.0769 4.4523
54.1269 4.47521
54.1771 4.43763
54.2271 4.39995
54.2773 4.38461
54.3274 4.35303
54.3776 4.33884
54.4277 4.29604
54.478 4.27254
54.528 4.21706
54.5783 4.18084
54.6285 4.18272
54.6788 4.15553
54.7289 4.03247
54.7792 4.05551
54.8296 4.04583
54.8798 4.03874
54.9301 3.99999
54.9803 3.98722
55.0307 3.9765
55.0809 3.88989
55.1314 3.85592
55.1816 3.81085
55.232 3.76813
55.2823 3.71674
55.3328 3.71022
55.383 3.68486
55.4335 3.61086
55.4838 3.63604
55.5344 3.54776
55.5847 3.51779
55.6352 3.52122
55.6856 3.52817
55.7361 3.52293