File: XRD/Ni3Fe_FD0930.xy
TT I
1.27165 6.97761
1.31627 6.48369
1.36089 6.53722
1.40551 5.97488
1.45013 6.0142
1.49476 5.11029
1.53938 5.74571
1.584 5.10492
1.62863 5.8069
1.67325 4.98384
1.71787 5.37249
1.7625 4.26403
1.80712 5.09174
1.85174 4.59864
1.89636 4.66428
1.94099 4.84697
1.98562 4.39943
2.03025 4.56316
2.07487 4.23395
2.11949 4.47211
2.16411 5.04366
2.20874 8.18113
2.25338 11.0878
2.298 5.87827
2.34263 5.60969
2.38725 5.8337
2.43188 6.51511
2.4765 6.96156
2.52115 7.88158
2.56577 7.70786
2.6104 9.00357
2.65503 8.60927
2.69965 8.91768
2.7443 8.447
2.78893 8.81685
2.83356 9.07439
2.87818 8.83245
2.92281 9.32321
2.96744 9.29114
3.01209 10.4068
3.05672 10.9654
3.10135 12.2713
3.14599 13.3319
3.19062 14.5901
3.23527 15.2679
3.2799 15.6517
3.32454 16.7274
3.36917 18.0787
3.4138 18.8004
3.45844 18.7217
3.50309 20.5679
3.54773 21.2942
3.59237 22.6938
3.637 45.9605
3.68164 35.1015
3.7263 24.9227
3.77094 25.3929
3.81558 26.1962
3.86022 27.1574
3.90486 28.1012
3.9495 29.3712
3.99416 30.2792
4.0388 31.4606
4.08344 32.9272
4.12809 33.758
4.17273 35.1261
4.21738 38.709
4.26204 109.527
4.30669 96.3456
4.35133 43.7056
4.39598 43.1343
4.44063 47.6745
4.4853 52.8404
4.52995 57.7094
4.5746 58.5189
4.61925 53.1082
4.6639 54.8698
4.70855 57.9816
4.75322 60.8989
4.79788 68.2555
4.84253 67.7742
4.88719 74.6979
4.93184 76.1733
4.97652 80.132
5.02118 85.7165
5.06583 93.316
5.11049 104.454
5.15515 152.871
5.19981 369.802
5.24449 2769.56
5.28916 13530.3
5.33382 2689.28
5.37848 193.722
5.42315 130.097
5.46783 118.934
5.5125 112.515
5.55716 101.128
5.60183 96.9032
5.6465 94.4524
5.69117 93.1156
5.73586 91.8469
5.78053 98.7631
5.8252 98.3492
5.86988 101.734
5.91455 93.5732
5.95924 102.005
6.00392 227.027
6.0486 907.829
6.09328 4657.99
6.13795 2989.03
6.18263 194.019
6.22733 87.4694
6.27201 78.5342
6.3167 81.8106
6.36138 72.595
6.40606 69.4002
6.45075 69.7672
6.49545 64.501
6.54014 62.5778
6.58483 61.6791
6.62952 62.2369
6.67421 70.9896
6.71892 85.1542
6.76361 61.105
6.8083 58.783
6.853 59.7699
6.89769 55.9078
6.94239 55.1163
6.98711 55.0736
7.03181 55.1789
7.07651 54.1351
7.12121 53.6659
7.16591 56.143
7.21063 54.9031
7.25533 59.4634
7.30004 93.3507
7.34475 65.4875
7.38945 54.0894
7.43416 52.9809
7.47889 52.7095
7.5236 53.4234
7.56831 54.2763
7.61303 54.4154
7.65774 55.2559
7.70247 56.5763
7.74719 55.7564
7.79191 55.6724
7.83663 55.8794
7.88135 57.0002
7.92607 57.7588
7.97081 58.8232
8.01553 60.2856
8.06026 61.9527
8.10498 63.2902
8.14971 70.1547
8.19446 70.1028
8.23919 68.5766
8.28392 70.9387
8.32865 73.0423
8.37339 77.4148
8.41812 82.3071
8.46288 100.038
8.50761 169.948
8.55235 363.698
8.59709 1205.48
8.64183 2217.41
8.68658 841.74
8.73134 139.585
8.77609 95.8431
8.82083 90.9993
8.86558 92.0697
8.91033 91.9033
8.9551 88.7483
8.99985 84.0734
9.04461 83.031
9.08936 83.3647
9.13412 81.9907
9.17888 81.127
9.22365 81.1785
9.26841 81.3166
9.31318 84.0914
9.35794 86.4745
9.4027 85.6852
9.44749 84.4164
9.49226 83.6259
9.53703 84.8413
9.5818 88.7149
9.62657 94.3928
9.67134 94.8292
9.71614 91.9729
9.76091 93.6587
9.80569 99.378
9.85047 100.488
9.89525 109.761
9.94005 123.894
9.98484 184.329
10.0296 327.827
10.0744 823.617
10.1192 1852.34
10.164 1463.24
10.2088 326.044
10.2536 118.171
10.2984 107.552
10.3432 106.129
10.388 103.279
10.4328 119.304
10.4776 157.61
10.5224 288.404
10.5672 541.29
10.612 482.598
10.6568 178.009
10.7017 92.161
10.7465 84.9353
10.7913 81.543
10.8361 79.8763
10.8809 77.6699
10.9257 76.9061
10.9706 77.041
11.0154 74.4073
11.0602 71.6999
11.105 70.3369
11.1499 70.9322
11.1947 72.3884
11.2395 68.7076
11.2844 67.1809
11.3292 65.9151
11.374 65.0928
11.4189 64.4899
11.4637 63.4945
11.5086 63.4069
11.5534 64.2004
11.5983 63.0992
11.6431 62.2958
11.688 61.6202
11.7328 61.8874
11.7777 61.7455
11.8225 61.8535
11.8674 61.8051
11.9122 61.7239
11.9571 62.015
12.002 63.4172
12.0468 67.6265
12.0917 76.681
12.1366 101.114
12.1814 159.544
12.2263 210.544
12.2712 153.94
12.3161 86.0519
12.3609 65.3706
12.4058 62.9464
12.4507 63.2963
12.4956 63.9644
12.5405 63.6658
12.5853 64.1618
12.6302 66.6317
12.6751 68.9271
12.72 66.9118
12.7649 66.7598
12.8098 67.4396
12.8547 68.712
12.8996 70.5058
12.9445 72.1718
12.9894 73.9417
13.0343 74.9999
13.0792 79.3901
13.1242 91.3832
13.1691 108.706
13.214 145.327
13.2589 245.769
13.3038 392.732
13.3487 419.976
13.3937 229.263
13.4386 114.209
13.4835 104.04
13.5285 117.59
13.5734 157.259
13.6183 258.659
13.6633 370.175
13.7082 324.682
13.7531 165.768
13.7981 91.7722
13.843 80.2132
13.888 78.043
13.9329 76.0495
13.9779 74.5722
14.0228 73.137
14.0678 71.9891
14.1127 71.3181
14.1577 70.6632
14.2027 70.1172
14.2476 69.1864
14.2926 68.8575
14.3376 69.1289
14.3825 68.4597
14.4275 67.9096
14.4725 67.8834
14.5175 67.862
14.5624 67.9023
14.6074 68.8068
14.6524 69.0653
14.6974 69.5461
14.7424 72.668
14.7874 78.4974
14.8324 87.4116
14.8774 110.422
14.9224 159.532
14.9674 220.081
15.0124 214.115
15.0574 137.225
15.1024 84.2024
15.1474 70.5159
15.1924 68.9318
15.2374 68.1559
15.2824 67.3357
15.3274 66.2201
15.3725 65.7314
15.4175 65.237
15.4625 64.88
15.5076 64.5575
15.5526 64.7015
15.5976 65.108
15.6426 67.0478
15.6877 71.3327
15.7327 78.4269
15.7778 93.814
15.8228 128.013
15.8679 177.631
15.9129 195.923
15.958 145.454
16.003 87.2687
16.0481 64.6963
16.0931 61.805
16.1382 60.2283
16.1833 59.0833
16.2283 57.8074
16.2734 57.0321
16.3185 56.6414
16.3636 56.5753
16.4086 55.5775
16.4537 54.9742
16.4988 54.5296
16.5439 54.5143
16.589 54.0175
16.6341 53.9361
16.6792 53.5336
16.7243 53.797
16.7694 53.6542
16.8145 53.664
16.8596 54.0346
16.9047 54.6359
16.9498 54.5188
16.9949 54.343
17.04 55.1833
17.0851 56.0358
17.1302 57.596
17.1754 60.4267
17.2205 66.0227
17.2656 74.7738
17.3108 83.1083
17.3559 80.1796
17.401 67.3047
17.4462 60.1205
17.4913 58.2853
17.5365 58.0431
17.5815 58.2191
17.6268 58.7285
17.6718 59.3289
17.7171 59.5385
17.7622 60.2949
17.8074 61.4816
17.8525 64.2367
17.8977 66.9308
17.9428 72.1795
17.9881 81.8825
18.0331 100.813
18.0784 126.412
18.1237 140.824
18.1688 125.903
18.214 96.7803
18.2591 83.7595
18.3044 90.7602
18.3495 101.651
18.3948 104.68
18.4399 90.6921
18.4852 72.855
18.5303 63.6251
18.5756 61.018
18.6207 60.038
18.666 59.2344
18.7112 58.5749
18.7565 57.9052
18.8016 57.7327
18.8469 57.2771
18.892 56.7853
18.9374 56.3816
18.9825 56.0216
19.0278 55.7363
19.073 55.9704
19.1183 56.5719
19.1635 56.6949
19.2088 58.2648
19.254 61.0042
19.2993 66.235
19.3447 72.1364
19.3898 74.937
19.4352 69.2271
19.4804 60.1719
19.5257 54.8882
19.5709 53.1611
19.6163 52.8368
19.6615 52.7916
19.7068 52.413
19.752 52.3639
19.7974 52.8843
19.8426 53.3422
19.888 53.8674
19.9332 55.2371
19.9786 58.3026
20.0238 62.5522
20.0692 67.4084
20.1144 69.1977
20.1598 66.2693
20.205 61.7288
20.2504 61.4027
20.2957 64.1577
20.3411 65.3344
20.3863 62.3245
20.4318 56.1169
20.477 51.7675
20.5224 50.1547
20.5677 49.6694
20.6131 49.2671
20.6586 48.7611
20.7038 48.6044
20.7493 48.1583
20.7945 48.1229
20.84 47.9247
20.8853 47.9305
20.9307 47.8497
20.976 48.0646
21.0215 47.8027
21.0668 48.2047
21.1122 48.6287
21.1575 49.439
21.203 50.2938
21.2483 50.585
21.2938 50.499
21.3391 48.9273
21.3846 47.8082
21.4299 47.4141
21.4754 47.6526
21.5207 47.7654
21.5662 48.1461
21.6116 48.4276
21.6571 48.9808
21.7024 49.9639
21.7479 51.9452
21.7933 54.8565
21.8388 58.9401
21.8843 63.0686
21.9297 64.1674
21.9752 61.2097
22.0206 57.476
22.0661 55.4461
22.1115 55.4953
22.157 54.9483
22.2024 52.6717
22.248 50.1568
22.2933 48.7578
22.3389 48.186
22.3843 48.1025
22.4299 47.7008
22.4753 47.7818
22.5208 47.8342
22.5662 47.7004
22.6118 47.9939
22.6572 48.2023
22.7028 48.3628
22.7483 48.8374
22.7939 49.5558
22.8393 51.2362
22.8849 53.6796
22.9303 55.8488
22.9759 57.293
23.0214 56.0558
23.067 52.6914
23.1126 49.6293
23.1581 48.1863
23.2037 48.0168
23.2492 48.0523
23.2948 48.0072
23.3403 48.1971
23.3859 48.8439
23.4314 49.9877
23.477 52.0936
23.5225 54.6627
23.5682 56.9705
23.6137 57.2028
23.6593 54.1383
23.7048 49.9066
23.7505 46.9359
23.796 45.5798
23.8417 45.1286
23.8872 44.7665
23.9329 44.4315
23.9784 43.9569
24.0241 43.8694
24.0697 43.7634
24.1154 43.272
24.1609 43.0251
24.2066 42.9027
24.2522 42.926
24.2979 42.5824
24.3434 42.4166
24.3892 42.4551
24.4349 42.4384
24.4805 42.3147
24.5262 42.3802
24.5718 42.4562
24.6175 42.2845
24.6631 42.0932
24.7089 41.7203
24.7545 41.6772
24.8002 41.5226
24.8458 41.5005
24.8916 41.4008
24.9372 41.5668
24.983 41.7722
25.0286 42.1115
25.0744 42.7883
25.12 43.273
25.1658 43.8197
25.2114 43.8925
25.2572 44.0757
25.3029 44.2931
25.3487 44.3942
25.3943 43.8163
25.4402 42.5538
25.4858 41.4613
25.5316 40.5864
25.5773 40.2242
25.6231 40.1388
25.669 39.7744
25.7147 39.8575
25.7605 39.7301
25.8062 39.745
25.8521 39.8111
25.8977 39.9105
25.9436 40.0695
25.9893 40.3004
26.0352 40.9563
26.0809 41.0409
26.1268 41.3374
26.1725 40.4958
26.2184 40.0028
26.2641 39.4946
26.31 39.342
26.3557 39.4436
26.4017 39.3581
26.4474 39.7066
26.4933 40.0676
26.5391 40.6962
26.585 41.2032
26.6308 41.5031
26.6767 41.5562
26.7225 41.2529
26.7684 40.5238
26.8142 40.0616
26.8601 39.6652
26.9059 39.294
26.9519 38.7774
26.9979 38.4101
27.0437 38.114
27.0896 38.1065
27.1354 38.0992
27.1814 37.9646
27.2272 37.8772
27.2732 37.9476
27.3191 37.6177
27.3651 37.8822
27.4109 37.8033
27.4569 37.8374
27.5027 37.9147
27.5488 37.9352
27.5946 37.799
27.6407 37.4444
27.6865 37.5233
27.7326 37.2268
27.7784 37.2498
27.8245 37.1855
27.8703 37.4025
27.9164 37.6467
27.9623 37.9022
28.0084 38.3236
28.0543 38.5685
28.1003 38.391
28.1462 38.0866
28.1923 37.7671
28.2384 37.3025
28.2843 37.0755
28.3304 36.553
28.3764 35.9804
28.4225 35.8499
28.4684 35.6304
28.5145 35.3085
28.5605 35.2386
28.6066 34.9544
28.6526 35.0391
28.6987 35.1001
28.7447 34.9581
28.7908 34.8398
28.8368 34.8785
28.8829 34.8083
28.9289 34.7564
28.9751 34.537
29.0211 34.3612
29.0673 34.2313
29.1133 33.9002
29.1595 33.8136
29.2055 33.7227
29.2517 33.8211
29.2977 33.7076
29.3439 33.7443
29.3899 33.7309
29.4361 33.5898
29.4824 33.343
29.5284 33.0517
29.5746 32.7498
29.6207 32.5122
29.6669 32.5059
29.713 32.3468
29.7593 32.3194
29.8053 32.2158
29.8516 32.1772
29.8977 32.1354
29.9439 32.0044
29.99 32.1248
30.0363 31.9404
30.0824 31.9442
30.1287 31.859
30.1748 31.9263
30.2211 31.9213
30.2673 31.758
30.3136 31.8364
30.3597 31.7961
30.406 31.5746
30.4522 31.6236
30.4985 31.4434
30.5447 31.5997
30.591 31.5418
30.6372 31.6979
30.6835 31.6938
30.7297 31.6316
30.7761 31.6043
30.8224 31.5444
30.8686 31.2657
30.915 31.0084
30.9612 30.915
31.0076 30.7499
31.0538 30.5757
31.1002 30.5241
31.1464 30.4564
31.1928 30.4295
31.2391 30.4608
31.2855 30.3478
31.3317 30.3511
31.3781 30.4393
31.4244 30.3703
31.4708 30.3084
31.5171 30.3139
31.5636 30.2706
31.6098 30.0031
31.6563 29.7731
31.7026 29.7573
31.7491 29.5959
31.7953 29.6629
31.8418 29.5928
31.8881 29.7191
31.9346 29.7243
31.9809 29.5889
32.0275 29.4415
32.074 29.2872
32.1203 29.0649
32.1668 29.015
32.2132 28.9672
32.2597 28.7568
32.306 28.7126
32.3526 28.523
32.399 28.383
32.4455 28.2959
32.4919 28.1418
32.5385 28.1753
32.5848 28.0108
32.6314 27.9861
32.6778 27.9498
32.7244 27.7685
32.7708 27.6156
32.8174 27.6939
32.8638 27.4987
32.9104 27.5514
32.9569 27.4403
33.0035 27.3485
33.0499 27.4643
33.0966 27.4167
33.143 27.3523
33.1897 27.2352
33.2361 27.1451
33.2828 27.0547
33.3293 26.9347
33.3759 26.8767
33.4226 26.7739
33.4691 26.617
33.5158 26.5296
33.5623 26.4094
33.609 26.2774
33.6555 26.1912
33.7022 26.167
33.7487 26.1281
33.7954 26.0541
33.842 25.9251
33.8887 25.8707
33.9353 25.8658
33.982 25.7648
34.0286 25.6429
34.0753 25.5835
34.1219 25.4931
34.1687 25.3925
34.2152 25.3966
34.262 25.3052
34.3086 25.1396
34.3554 25.0833
34.402 24.9721
34.4488 24.8375
34.4954 24.7762
34.5422 24.7453
34.5889 24.5261
34.6357 24.5099
34.6825 24.4496
34.7292 24.429
34.776 24.3232
34.8227 24.2562
34.8695 24.196
34.9162 24.1629
34.9631 24.0162
35.0098 24.1308
35.0566 23.9515
35.1033 23.8204
35.1502 23.8644
35.1969 23.7747
35.2438 23.8218
35.2906 23.6994
35.3375 23.7572
35.3842 23.6091
35.4311 23.5722
35.4779 23.5295
35.5248 23.538
35.5716 23.4192
35.6185 23.2551
35.6653 23.2138
35.7123 23.0824
35.759 23.114
35.806 22.9279
35.8528 22.7049
35.8998 22.7926
35.9468 22.7024
35.9936 22.6441
36.0406 22.5901
36.0874 22.6643
36.1345 22.5656
36.1813 22.4737
36.2283 22.3211
36.2752 22.2227
36.3222 22.3034
36.3691 22.2749
36.4161 22.0897
36.463 22.0893
36.5101 22.0275
36.557 21.9615
36.6041 21.8304
36.651 21.7998
36.6981 21.7803
36.745 21.7046
36.7921 21.5825
36.839 21.4667
36.8861 21.4691
36.9331 21.4009
36.9802 21.3392
37.0272 21.2122
37.0743 21.1486
37.1213 21.1232
37.1684 21.0079
37.2154 20.9063
37.2626 20.802
37.3098 20.8241
37.3568 20.866
37.404 20.7753
37.451 20.6458
37.4982 20.4962
37.5452 20.4861
37.5924 20.4504
37.6395 20.4214
37.6867 20.2959
37.7337 20.2462
37.781 20.2046
37.8281 20.0192
37.8753 20.058
37.9224 20.0252
37.9697 19.9256
38.0168 19.8767
38.064 19.7789
38.1111 19.7553
38.1584 19.671
38.2056 19.6164
38.2529 19.5655
38.3 19.4542
38.3473 19.4841
38.3945 19.3497
38.4418 19.2763
38.489 19.234
38.5363 19.1272
38.5837 19.0746
38.6309 19.0372
38.6782 19.0296
38.7254 18.9618
38.7728 18.8889
38.82 18.8175
38.8674 18.7742
38.9146 18.7133
38.9621 18.6502
39.0093 18.5851
39.0567 18.5528
39.104 18.474
39.1514 18.3596
39.1987 18.3449
39.2461 18.2829
39.2934 18.2775
39.3409 18.1974
39.3882 18.0971
39.4356 18.1043
39.483 18.0343
39.5304 17.8837
39.5778 17.968
39.6253 17.8731
39.6726 17.7357
39.7201 17.6999
39.7675 17.672
39.815 17.6261
39.8624 17.5392
39.9099 17.5171
39.9575 17.3898
40.0049 17.4301
40.0525 17.2943
40.0999 17.2444
40.1474 17.2231
40.1949 17.181
40.2425 17.0877
40.2899 17.0276
40.3375 17.0357
40.385 16.9033
40.4326 16.8945
40.48 16.8036
40.5277 16.7899
40.5752 16.7512
40.6228 16.7242
40.6703 16.6014
40.718 16.6463
40.7655 16.5624
40.8132 16.4124
40.8607 16.4161
40.9084 16.3615
40.9559 16.2882
41.0036 16.3063
41.0512 16.2247
41.0989 16.2166
41.1465 16.0487
41.1942 16.0707
41.242 15.9984
41.2896 15.8995
41.3373 15.864
41.3849 15.8237
41.4327 15.7757
41.4803 15.7372
41.5281 15.6437
41.5758 15.5715
41.6236 15.5572
41.6712 15.5349
41.7191 15.4253
41.7667 15.4251
41.8146 15.3613
41.8622 15.3198
41.9101 15.2601
41.9578 15.2042
42.0057 15.1304
42.0534 15.0828
42.1013 15.0862
42.149 14.9962
42.1969 14.9394
42.2446 14.8642
42.2925 14.9098
42.3403 14.8101
42.3882 14.7722
42.436 14.7142
42.4839 14.6621
42.5319 14.6266
42.5797 14.61
42.6277 14.5021
42.6755 14.4564
42.7235 14.4017
42.7713 14.354
42.8193 14.3184
42.8671 14.2704
42.9152 14.2218
42.963 14.1756
43.0111 14.1525
43.0589 14.0527
43.107 14.0506
43.1549 13.9906
43.2029 13.8499
43.2508 13.8884
43.2989 13.8029
43.3468 13.763
43.3949 13.7409
43.4429 13.6946
43.491 13.6211
43.5389 13.6109
43.5871 13.5431
43.635 13.4819
43.6832 13.4131
43.7312 13.4399
43.7793 13.3668
43.8273 13.3712
43.8755 13.3054
43.9237 13.2085
43.9717 13.1737
44.0199 13.1558
44.068 13.1193
44.1162 13.0605
44.1642 13.0254
44.2125 12.9543
44.2606 12.9029
44.3088 12.8521
44.3569 12.7684
44.4052 12.7738
44.4533 12.688
44.5016 12.6708
44.5497 12.636
44.598 12.6518
44.6461 12.5273
44.6945 12.5117
44.7426 12.4782
44.791 12.3905
44.8391 12.396
44.8875 12.3391
44.9357 12.2853
44.984 12.2506
45.0322 12.1691
45.0806 12.1648
45.1288 12.0674
45.1773 12.0497
45.2257 11.9817
45.2739 11.9761
45.3224 11.9242
45.3706 11.874
45.4191 11.8383
45.4673 11.8417
45.5158 11.7482
45.5641 11.7134
45.6126 11.6886
45.6609 11.6338
45.7094 11.6273
45.7577 11.5275
45.8063 11.4985
45.8546 11.5485
45.9031 11.4204
45.9515 11.3748
46.0001 11.3667
46.0484 11.3125
46.097 11.3093
46.1454 11.2496
46.194 11.1963
46.2424 11.1795
46.291 11.1556
46.3395 11.061
46.3881 11.0567
46.4365 11.0256
46.4852 10.9572
46.5337 10.9429
46.5823 10.9187
46.631 10.7845
46.6795 10.792
46.7282 10.7443
46.7767 10.7295
46.8254 10.6606
46.8739 10.6323
46.9226 10.6063
46.9712 10.5629
47.0199 10.488
47.0685 10.467
47.1173 10.478
47.1658 10.3842
47.2146 10.3473
47.2632 10.274
47.312 10.3052
47.3606 10.2184
47.4095 10.2285
47.4581 10.1962
47.5069 10.1433
47.5556 10.1031
47.6044 10.0696
47.6531 10.0153
47.702 9.98454
47.7507 9.97518
47.7996 9.95273
47.8483 9.87591
47.8972 9.84932
47.9461 9.78708
47.9948 9.78524
48.0438 9.70321
48.0925 9.7067
48.1415 9.66741
48.1902 9.60766
48.2392 9.62653
48.288 9.57703
48.337 9.51654
48.3858 9.46774
48.4348 9.50501
48.4837 9.48049
48.5327 9.39752
48.5815 9.34854
48.6306 9.34018
48.6795 9.25099
48.7285 9.26257
48.7774 9.20296
48.8265 9.19464
48.8754 9.11011
48.9245 9.13302
48.9734 9.08703
49.0226 9.04522
49.0715 9.00664
49.1206 8.9664
49.1696 8.91452
49.2188 8.91435
49.2679 8.87199
49.3169 8.86493
49.3661 8.81542
49.4151 8.75624
49.4643 8.71849
49.5134 8.72635
49.5626 8.65035
49.6117 8.64721
49.6609 8.60576
49.71 8.5299
49.7592 8.51412
49.8083 8.51278
49.8576 8.49094
49.9067 8.41963
49.956 8.43237
50.0052 8.36923
50.0545 8.3116
50.1036 8.32071
50.153 8.30282
50.2022 8.25797
50.2515 8.19474
50.3007 8.19983
50.3501 8.15893
50.3993 8.10511
50.4487 8.08514
50.498 8.05129
50.5474 8.02798
50.5966 7.98942
50.6461 7.97104
50.6955 7.98444
50.7448 7.90711
50.7943 7.87395
50.8436 7.84271
50.8931 7.80059
50.9424 7.78251
50.9919 7.75218
51.0413 7.73669
51.0908 7.70245
51.1402 7.67344
51.1897 7.65229
51.2391 7.62357
51.2887 7.5623
51.3381 7.51807
51.3877 7.48216
51.4371 7.48911
51.4867 7.41674
51.5362 7.40148
51.5858 7.39908
51.6353 7.31898
51.6849 7.33122
51.7344 7.2689
51.7841 7.22805
51.8336 7.23042
51.8833 7.22746
51.9328 7.15561
51.9826 7.15131
52.0323 7.0856
52.0818 7.10181
52.1316 7.02559
52.1812 7.03993
52.231 6.98965
52.2806 6.95784
52.3304 6.90961
52.38 6.90186
52.4298 6.88275
52.4794 6.88048
52.5293 6.80426
52.5789 6.79955
52.6288 6.7454
52.6785 6.76416
52.7284 6.69259
52.7781 6.71881
52.828 6.6758
52.8777 6.60703
52.9276 6.57182
52.9774 6.56826
53.0273 6.57203
53.0771 6.51375
53.1271 6.51741
53.1769 6.45223
53.2269 6.44592
53.2767 6.40561
53.3267 6.35272
53.3765 6.35483
53.4266 6.35344
53.4766 6.26627
53.5265 6.27006
53.5765 6.23022
53.6264 6.20842
53.6765 6.21816
53.7264 6.18727
53.7765 6.11367
53.8265 6.12565
53.8766 6.06496
53.9266 6.04148
53.9767 6.03063
54.0267 6.03117
54.0769 5.96668
54.1269 5.97967
54.1771 5.92581
54.2271 5.89147
54.2773 5.82818
54.3274 5.83903
54.3776 5.78548
54.4277 5.74352
54.478 5.74279
54.528 5.65836
54.5783 5.63129
54.6285 5.60296
54.6788 5.59475
54.7289 5.54147
54.7792 5.48994
54.8296 5.45912
54.8798 5.36166
54.9301 5.35659
54.9803 5.35509
55.0307 5.34045
55.0809 5.28302
55.1314 5.22908
55.1816 5.17446
55.232 5.16017
55.2823 5.11609
55.3328 4.99289
55.383 4.98057
55.4335 4.97717
55.4838 4.90269
55.5344 4.84805
55.5847 4.84479
55.6352 4.83082
55.6856 4.75034
55.7361 4.7469