File: XRD/Ni3Fe_FD0755.xy
TT I
1.27165 7.01606
1.31627 6.58451
1.36089 6.6809
1.40551 6.62352
1.45013 5.88019
1.49476 5.38896
1.53938 6.15079
1.584 5.35825
1.62863 5.27165
1.67325 5.27054
1.71787 4.86528
1.7625 4.90473
1.80712 5.26522
1.85174 4.73094
1.89636 4.38158
1.94099 5.09868
1.98562 4.75131
2.03025 4.49367
2.07487 4.52597
2.11949 4.92504
2.16411 5.32964
2.20874 15.3117
2.25338 26.303
2.298 6.41641
2.34263 5.7725
2.38725 5.55904
2.43188 5.98445
2.4765 6.73803
2.52115 6.93212
2.56577 7.53192
2.6104 8.95719
2.65503 7.16656
2.69965 8.4318
2.7443 8.17146
2.78893 8.90724
2.83356 8.76894
2.87818 8.91026
2.92281 8.88814
2.96744 9.2929
3.01209 10.2603
3.05672 11.396
3.10135 12.3534
3.14599 13.1262
3.19062 14.2946
3.23527 15.1137
3.2799 16.1353
3.32454 16.624
3.36917 18.117
3.4138 18.8157
3.45844 19.5848
3.50309 20.853
3.54773 21.9995
3.59237 24.3242
3.637 103.124
3.68164 65.7563
3.7263 26.512
3.77094 26.3821
3.81558 26.9738
3.86022 27.6411
3.90486 28.7785
3.9495 29.9813
3.99416 30.8438
4.0388 32.4255
4.08344 33.9321
4.12809 35.2314
4.17273 37.4661
4.21738 43.8856
4.26204 278.877
4.30669 251.313
4.35133 50.018
4.39598 44.5665
4.44063 54.9018
4.4853 68.6129
4.52995 49.9742
4.5746 51.2176
4.61925 53.297
4.6639 54.8262
4.70855 57.9197
4.75322 60.2026
4.79788 63.4096
4.84253 66.4643
4.88719 70.103
4.93184 74.1819
4.97652 79.9282
5.02118 85.513
5.06583 92.9232
5.11049 103.02
5.15515 175.753
5.19981 308.238
5.24449 2536.37
5.28916 12973.4
5.33382 3003.19
5.37848 187.944
5.42315 127.85
5.46783 112.06
5.5125 105.075
5.55716 100.525
5.60183 97.8745
5.6465 96.0778
5.69117 93.0777
5.73586 91.4231
5.78053 90.6511
5.8252 89.5275
5.86988 89.8197
5.91455 92.1965
5.95924 98.621
6.00392 179.908
6.0486 849.201
6.09328 4265.26
6.13795 3204.68
6.18263 240.461
6.22733 92.1491
6.27201 82.7867
6.3167 105.954
6.36138 81.6221
6.40606 68.4108
6.45075 66.9779
6.49545 65.3029
6.54014 63.6541
6.58483 62.5473
6.62952 62.8293
6.67421 98.208
6.71892 158.498
6.76361 70.9297
6.8083 58.7628
6.853 57.0961
6.89769 56.7323
6.94239 56.573
6.98711 55.2744
7.03181 55.4983
7.07651 55.3456
7.12121 55.486
7.16591 55.2552
7.21063 55.728
7.25533 72.9753
7.30004 201.487
7.34475 98.974
7.38945 56.7132
7.43416 54.7552
7.47889 54.3395
7.5236 54.6595
7.56831 55.4268
7.61303 57.0672
7.65774 57.54
7.70247 55.873
7.74719 55.6158
7.79191 56.3109
7.83663 56.6474
7.88135 57.3289
7.92607 58.3129
7.97081 59.3888
8.01553 60.363
8.06026 61.994
8.10498 63.5522
8.14971 74.4268
8.19446 72.7648
8.23919 69.1017
8.28392 71.2499
8.32865 73.2066
8.37339 77.0416
8.41812 84.4128
8.46288 115.469
8.50761 151.325
8.55235 350.966
8.59709 1110.83
8.64183 2175.06
8.68658 1040.12
8.73134 166.736
8.77609 98.4581
8.82083 92.0639
8.86558 88.8121
8.91033 89.5084
8.9551 92.0228
8.99985 84.4777
9.04461 83.1097
9.08936 81.7613
9.13412 81.3446
9.17888 81.1596
9.22365 82.1787
9.26841 81.3353
9.31318 81.5699
9.35794 82.4293
9.4027 82.5527
9.44749 82.9735
9.49226 83.6186
9.53703 84.9202
9.5818 86.0503
9.62657 91.491
9.67134 99.2498
9.71614 93.0533
9.76091 93.2465
9.80569 95.3128
9.85047 98.6068
9.89525 125.551
9.94005 138.192
9.98484 160.375
10.0296 307.547
10.0744 758.148
10.1192 1744.6
10.164 1633.08
10.2088 410.302
10.2536 127.274
10.2984 113.389
10.3432 115.926
10.388 103.926
10.4328 112.907
10.4776 151.309
10.5224 267.708
10.5672 508.879
10.612 516.955
10.6568 210.596
10.7017 96.5572
10.7465 85.888
10.7913 82.714
10.8361 80.3504
10.8809 78.3649
10.9257 78.0024
10.9706 79.3456
11.0154 74.5714
11.0602 72.5579
11.105 71.3758
11.1499 76.8469
11.1947 85.6883
11.2395 75.3335
11.2844 70.5278
11.3292 67.1114
11.374 65.8227
11.4189 65.1225
11.4637 64.5429
11.5086 65.2773
11.5534 68.5954
11.5983 65.7562
11.6431 63.0693
11.688 62.7812
11.7328 62.6698
11.7777 62.5716
11.8225 62.2272
11.8674 61.9096
11.9122 62.3574
11.9571 62.3757
12.002 62.9004
12.0468 65.9518
12.0917 76.1107
12.1366 99.2819
12.1814 149.077
12.2263 206.067
12.2712 172.416
12.3161 100.842
12.3609 71.5632
12.4058 64.4443
12.4507 63.9043
12.4956 64.2223
12.5405 64.4206
12.5853 65.2257
12.6302 73.995
12.6751 80.3764
12.72 69.9885
12.7649 67.3205
12.8098 67.7043
12.8547 68.9809
12.8996 70.2699
12.9445 71.4261
12.9894 73.076
13.0343 74.9421
13.0792 77.791
13.1242 84.8016
13.1691 106.749
13.214 140.842
13.2589 228.111
13.3038 367.335
13.3487 429.37
13.3937 271.45
13.4386 127.174
13.4835 102.451
13.5285 114.401
13.5734 150.188
13.6183 239.456
13.6633 348.742
13.7082 345.788
13.7531 190.469
13.7981 98.1762
13.843 81.5089
13.888 79.1878
13.9329 76.4338
13.9779 75.2939
14.0228 73.5422
14.0678 72.3169
14.1127 72.2591
14.1577 72.2339
14.2027 71.1329
14.2476 69.8671
14.2926 70.0997
14.3376 71.5429
14.3825 70.1079
14.4275 68.2801
14.4725 67.9195
14.5175 68.317
14.5624 68.5365
14.6074 70.8693
14.6524 71.403
14.6974 69.5454
14.7424 70.6572
14.7874 76.3102
14.8324 85.7455
14.8774 106.276
14.9224 148.322
14.9674 206.184
15.0124 223.819
15.0574 153.476
15.1024 92.2806
15.1474 72.0638
15.1924 70.0768
15.2374 71.2935
15.2824 70.3478
15.3274 67.9594
15.3725 66.367
15.4175 65.972
15.4625 65.471
15.5076 65.9991
15.5526 65.9038
15.5976 65.2655
15.6426 65.556
15.6877 70.2118
15.7327 77.2157
15.7778 91.5102
15.8228 122.125
15.8679 167.559
15.9129 194.288
15.958 157.859
16.003 99.692
16.0481 68.5641
16.0931 64.7169
16.1382 62.9668
16.1833 60.4035
16.2283 58.6503
16.2734 58.0762
16.3185 58.577
16.3636 59.7655
16.4086 57.93
16.4537 55.9299
16.4988 55.1495
16.5439 55.1947
16.589 54.7469
16.6341 54.5799
16.6792 54.2329
16.7243 54.534
16.7694 54.6253
16.8145 54.638
16.8596 54.9335
16.9047 56.8021
16.9498 56.9335
16.9949 55.4268
17.04 55.2915
17.0851 56.2835
17.1302 57.9386
17.1754 60.9125
17.2205 65.5811
17.2656 73.5592
17.3108 82.8744
17.3559 82.6552
17.401 70.908
17.4462 61.9425
17.4913 58.7902
17.5365 58.7691
17.5815 58.8001
17.6268 59.0623
17.6718 60.0218
17.7171 60.5676
17.7622 60.4622
17.8074 61.0048
17.8525 62.9058
17.8977 66.8256
17.9428 71.9879
17.9881 80.3825
18.0331 96.9216
18.0784 119.504
18.1237 138.745
18.1688 131.059
18.214 103.446
18.2591 85.9806
18.3044 88.9284
18.3495 99.3099
18.3948 106.095
18.4399 96.6937
18.4852 77.9843
18.5303 66.007
18.5756 61.9724
18.6207 60.7812
18.666 60.2243
18.7112 59.4169
18.7565 58.7492
18.8016 58.3768
18.8469 57.7458
18.892 57.2758
18.9374 56.7428
18.9825 56.5835
19.0278 56.5996
19.073 56.5331
19.1183 56.9169
19.1635 57.7943
19.2088 58.8965
19.254 61.53
19.2993 65.6224
19.3447 72.1754
19.3898 76.7362
19.4352 72.7859
19.4804 63.6784
19.5257 56.5271
19.5709 53.8977
19.6163 53.3678
19.6615 53.2453
19.7068 53.0396
19.752 52.9673
19.7974 53.0954
19.8426 54.0404
19.888 54.5499
19.9332 55.5725
19.9786 58.0173
20.0238 61.6964
20.0692 66.7274
20.1144 69.4201
20.1598 67.7813
20.205 62.9473
20.2504 61.3798
20.2957 63.2615
20.3411 65.6281
20.3863 64.0104
20.4318 58.1731
20.477 53.4572
20.5224 51.6449
20.5677 50.8249
20.6131 50.112
20.6586 49.3513
20.7038 49.2316
20.7493 48.8269
20.7945 48.695
20.84 48.4878
20.8853 48.3809
20.9307 48.335
20.976 48.3229
21.0215 48.1152
21.0668 48.6244
21.1122 49.0909
21.1575 49.672
21.203 50.3606
21.2483 51.0843
21.2938 51.0486
21.3391 49.7642
21.3846 48.6094
21.4299 48.0619
21.4754 48.0093
21.5207 48.1717
21.5662 48.3255
21.6116 48.7056
21.6571 49.3178
21.7024 50.2105
21.7479 51.8584
21.7933 54.6298
21.8388 58.2396
21.8843 62.0842
21.9297 64.1642
21.9752 63.0491
22.0206 59.4191
22.0661 56.4445
22.1115 55.6636
22.157 55.7496
22.2024 54.0354
22.248 51.266
22.2933 49.5342
22.3389 48.9258
22.3843 48.773
22.4299 48.6428
22.4753 48.5563
22.5208 48.2824
22.5662 48.0977
22.6118 48.2685
22.6572 48.4494
22.7028 48.7215
22.7483 49.0835
22.7939 49.8383
22.8393 51.4126
22.8849 53.4481
22.9303 55.8361
22.9759 57.4086
23.0214 57.1922
23.067 54.3011
23.1126 51.0532
23.1581 49.1008
23.2037 48.3116
23.2492 48.4894
23.2948 48.3707
23.3403 48.4754
23.3859 49.1756
23.4314 50.19
23.477 51.9523
23.5225 54.385
23.5682 56.4445
23.6137 57.6346
23.6593 55.6643
23.7048 51.7231
23.7505 48.2689
23.796 46.3477
23.8417 45.7322
23.8872 45.2869
23.9329 44.9841
23.9784 44.6204
24.0241 44.3403
24.0697 44.1584
24.1154 43.8278
24.1609 43.7345
24.2066 43.5802
24.2522 43.5552
24.2979 43.2747
24.3434 43.008
24.3892 42.843
24.4349 43.0026
24.4805 42.5567
24.5262 42.7543
24.5718 42.7333
24.6175 42.6655
24.6631 42.6535
24.7089 42.2477
24.7545 42.2283
24.8002 42.0558
24.8458 42.0424
24.8916 41.7294
24.9372 41.7914
24.983 42.1086
25.0286 42.5077
25.0744 42.9795
25.12 43.3857
25.1658 43.9927
25.2114 44.261
25.2572 44.3668
25.3029 44.7743
25.3487 44.6395
25.3943 44.6651
25.4402 43.4411
25.4858 42.2753
25.5316 41.246
25.5773 40.7229
25.6231 40.6798
25.669 40.3302
25.7147 40.1997
25.7605 40.1906
25.8062 40.1456
25.8521 40.3429
25.8977 40.3106
25.9436 40.6783
25.9893 40.6761
26.0352 41.1411
26.0809 41.3434
26.1268 41.4995
26.1725 41.2811
26.2184 40.5603
26.2641 40.0255
26.31 39.7857
26.3557 39.8357
26.4017 39.712
26.4474 40.059
26.4933 40.3537
26.5391 40.9977
26.585 41.3155
26.6308 41.8259
26.6767 41.8764
26.7225 41.8435
26.7684 41.2793
26.8142 40.6889
26.8601 40.2872
26.9059 39.7661
26.9519 39.2865
26.9979 38.9404
27.0437 38.6734
27.0896 38.587
27.1354 38.6263
27.1814 38.2837
27.2272 38.3423
27.2732 38.2208
27.3191 38.0998
27.3651 38.203
27.4109 38.2305
27.4569 38.289
27.5027 38.2854
27.5488 38.4305
27.5946 38.1358
27.6407 37.9136
27.6865 37.8812
27.7326 37.5039
27.7784 37.6592
27.8245 37.5084
27.8703 37.7762
27.9164 38.0934
27.9623 38.1808
28.0084 38.4596
28.0543 38.8003
28.1003 38.85
28.1462 38.6104
28.1923 38.1875
28.2384 37.8325
28.2843 37.4439
28.3304 37.0499
28.3764 36.4905
28.4225 36.2147
28.4684 36.0268
28.5145 35.7495
28.5605 35.6717
28.6066 35.4766
28.6526 35.4226
28.6987 35.43
28.7447 35.3533
28.7908 35.2599
28.8368 35.2148
28.8829 35.1615
28.9289 35.1043
28.9751 35.0582
29.0211 34.7334
29.0673 34.4304
29.1133 34.2567
29.1595 34.1844
29.2055 34.1298
29.2517 34.1731
29.2977 34.0247
29.3439 34.0193
29.3899 34.069
29.4361 33.9713
29.4824 33.8786
29.5284 33.6458
29.5746 33.1837
29.6207 33.0007
29.6669 32.778
29.713 32.788
29.7593 32.662
29.8053 32.7105
29.8516 32.6434
29.8977 32.6099
29.9439 32.349
29.99 32.3977
30.0363 32.2592
30.0824 32.2681
30.1287 32.3505
30.1748 32.2269
30.2211 32.1975
30.2673 32.1271
30.3136 32.3208
30.3597 32.1122
30.406 32.0902
30.4522 31.9257
30.4985 31.8158
30.5447 31.9693
30.591 31.9677
30.6372 32.01
30.6835 31.989
30.7297 32.1194
30.7761 31.9893
30.8224 31.835
30.8686 31.7846
30.915 31.4243
30.9612 31.2537
31.0076 31.1364
31.0538 31.0204
31.1002 30.9341
31.1464 30.8126
31.1928 30.7262
31.2391 30.7506
31.2855 30.6433
31.3317 30.6987
31.3781 30.7942
31.4244 30.7666
31.4708 30.6603
31.5171 30.6338
31.5636 30.7147
31.6098 30.4998
31.6563 30.2385
31.7026 30.1136
31.7491 30.0369
31.7953 29.9787
31.8418 30.0111
31.8881 30.0217
31.9346 29.9469
31.9809 29.8485
32.0275 29.7444
32.074 29.6074
32.1203 29.5138
32.1668 29.4337
32.2132 29.3248
32.2597 29.0909
32.306 29.0391
32.3526 28.8703
32.399 28.7725
32.4455 28.6047
32.4919 28.5874
32.5385 28.5091
32.5848 28.3653
32.6314 28.335
32.6778 28.3099
32.7244 28.0996
32.7708 28.0037
32.8174 27.9924
32.8638 27.8571
32.9104 27.8824
32.9569 27.8974
33.0035 27.7545
33.0499 27.7457
33.0966 27.607
33.143 27.5971
33.1897 27.525
33.2361 27.4944
33.2828 27.4702
33.3293 27.2733
33.3759 27.3032
33.4226 27.0635
33.4691 27.0374
33.5158 26.8808
33.5623 26.7503
33.609 26.5789
33.6555 26.551
33.7022 26.4558
33.7487 26.3552
33.7954 26.3077
33.842 26.2481
33.8887 26.1738
33.9353 26.1596
33.982 26.0429
34.0286 25.9202
34.0753 25.8605
34.1219 25.8241
34.1687 25.6934
34.2152 25.5914
34.262 25.5002
34.3086 25.3757
34.3554 25.3686
34.402 25.3118
34.4488 25.1734
34.4954 25.0998
34.5422 25.0371
34.5889 24.948
34.6357 24.8854
34.6825 24.8555
34.7292 24.7055
34.776 24.6265
34.8227 24.577
34.8695 24.5154
34.9162 24.4243
34.9631 24.3529
35.0098 24.3613
35.0566 24.2143
35.1033 24.1685
35.1502 24.1049
35.1969 24.1118
35.2438 24.0912
35.2906 23.9215
35.3375 23.9401
35.3842 23.8071
35.4311 23.8218
35.4779 23.8655
35.5248 23.7514
35.5716 23.6391
35.6185 23.6216
35.6653 23.4955
35.7123 23.3715
35.759 23.3046
35.806 23.2015
35.8528 23.1929
35.8998 23.0415
35.9468 22.9933
35.9936 22.926
36.0406 22.8495
36.0874 22.8512
36.1345 22.7057
36.1813 22.7441
36.2283 22.6462
36.2752 22.5446
36.3222 22.5292
36.3691 22.3964
36.4161 22.2973
36.463 22.2955
36.5101 22.2865
36.557 22.191
36.6041 22.0491
36.651 22.0667
36.6981 21.9801
36.745 21.8564
36.7921 21.8984
36.839 21.7391
36.8861 21.6728
36.9331 21.613
36.9802 21.5527
37.0272 21.4563
37.0743 21.4526
37.1213 21.3657
37.1684 21.3453
37.2154 21.278
37.2626 21.107
37.3098 21.1493
37.3568 21.0788
37.404 20.9558
37.451 20.9083
37.4982 20.9117
37.5452 20.8454
37.5924 20.6752
37.6395 20.7222
37.6867 20.627
37.7337 20.5095
37.781 20.4708
37.8281 20.3103
37.8753 20.3174
37.9224 20.1972
37.9697 20.1629
38.0168 20.1366
38.064 20.093
38.1111 19.9636
38.1584 19.9632
38.2056 19.8799
38.2529 19.8518
38.3 19.695
38.3473 19.7562
38.3945 19.5644
38.4418 19.6134
38.489 19.4924
38.5363 19.4219
38.5837 19.3903
38.6309 19.3042
38.6782 19.2202
38.7254 19.1945
38.7728 19.0592
38.82 19.0773
38.8674 18.9577
38.9146 18.9632
38.9621 18.8393
39.0093 18.8317
39.0567 18.8242
39.104 18.7391
39.1514 18.5668
39.1987 18.5578
39.2461 18.5394
39.2934 18.4924
39.3409 18.3976
39.3882 18.3262
39.4356 18.221
39.483 18.2126
39.5304 18.1955
39.5778 18.1573
39.6253 17.9999
39.6726 18.0013
39.7201 17.9763
39.7675 17.9419
39.815 17.8461
39.8624 17.7312
39.9099 17.7342
39.9575 17.6424
40.0049 17.5634
40.0525 17.545
40.0999 17.5507
40.1474 17.4302
40.1949 17.4218
40.2425 17.2955
40.2899 17.2591
40.3375 17.2407
40.385 17.1457
40.4326 17.0956
40.48 17.0763
40.5277 17.0764
40.5752 16.9323
40.6228 16.8887
40.6703 16.8729
40.718 16.8276
40.7655 16.7674
40.8132 16.6524
40.8607 16.7159
40.9084 16.6172
40.9559 16.54
41.0036 16.5048
41.0512 16.4384
41.0989 16.4017
41.1465 16.3105
41.1942 16.2473
41.242 16.1601
41.2896 16.1369
41.3373 16.0879
41.3849 16.045
41.4327 16.0002
41.4803 15.9382
41.5281 15.8602
41.5758 15.8417
41.6236 15.7483
41.6712 15.6934
41.7191 15.6515
41.7667 15.5713
41.8146 15.5324
41.8622 15.5208
41.9101 15.4301
41.9578 15.3785
42.0057 15.3546
42.0534 15.2924
42.1013 15.2599
42.149 15.1876
42.1969 15.209
42.2446 15.1231
42.2925 15.0328
42.3403 14.9996
42.3882 14.9929
42.436 14.9355
42.4839 14.8774
42.5319 14.8127
42.5797 14.7642
42.6277 14.7226
42.6755 14.6645
42.7235 14.6089
42.7713 14.5512
42.8193 14.4739
42.8671 14.4662
42.9152 14.446
42.963 14.354
43.0111 14.2871
43.0589 14.2522
43.107 14.2243
43.1549 14.1804
43.2029 14.1481
43.2508 14.0628
43.2989 14.0528
43.3468 13.9672
43.3949 13.884
43.4429 13.8981
43.491 13.7954
43.5389 13.7952
43.5871 13.7308
43.635 13.6731
43.6832 13.6349
43.7312 13.5918
43.7793 13.5353
43.8273 13.5015
43.8755 13.4018
43.9237 13.4078
43.9717 13.4058
44.0199 13.3123
44.068 13.2332
44.1162 13.1974
44.1642 13.2204
44.2125 13.1212
44.2606 13.0986
44.3088 13.029
44.3569 12.9747
44.4052 12.9684
44.4533 12.9206
44.5016 12.8303
44.5497 12.8505
44.598 12.7746
44.6461 12.7158
44.6945 12.6806
44.7426 12.6364
44.791 12.579
44.8391 12.5295
44.8875 12.5139
44.9357 12.4929
44.984 12.4
45.0322 12.3226
45.0806 12.2836
45.1288 12.3164
45.1773 12.2626
45.2257 12.1768
45.2739 12.1663
45.3224 12.0985
45.3706 12.0767
45.4191 11.9903
45.4673 11.9833
45.5158 11.9518
45.5641 11.8821
45.6126 11.8619
45.6609 11.7768
45.7094 11.8013
45.7577 11.7247
45.8063 11.635
45.8546 11.6495
45.9031 11.5844
45.9515 11.5225
46.0001 11.5367
46.0484 11.5254
46.097 11.4576
46.1454 11.4127
46.194 11.3595
46.2424 11.3055
46.291 11.2799
46.3395 11.2132
46.3881 11.1969
46.4365 11.1729
46.4852 11.1017
46.5337 11.1073
46.5823 11.0189
46.631 10.9956
46.6795 10.9457
46.7282 10.8674
46.7767 10.8656
46.8254 10.7984
46.8739 10.8014
46.9226 10.7072
46.9712 10.6931
47.0199 10.674
47.0685 10.6399
47.1173 10.5798
47.1658 10.5397
47.2146 10.5371
47.2632 10.4543
47.312 10.4043
47.3606 10.3801
47.4095 10.3318
47.4581 10.3405
47.5069 10.2876
47.5556 10.2468
47.6044 10.2271
47.6531 10.2092
47.702 10.1468
47.7507 10.0985
47.7996 10.0206
47.8483 10.0481
47.8972 9.99939
47.9461 9.92794
47.9948 9.8833
48.0438 9.85012
48.0925 9.86611
48.1415 9.82417
48.1902 9.7647
48.2392 9.75866
48.288 9.69198
48.337 9.61749
48.3858 9.59797
48.4348 9.58589
48.4837 9.54219
48.5327 9.53907
48.5815 9.49148
48.6306 9.48317
48.6795 9.44146
48.7285 9.4021
48.7774 9.3493
48.8265 9.32292
48.8754 9.28376
48.9245 9.25432
48.9734 9.20783
49.0226 9.19407
49.0715 9.11649
49.1206 9.08222
49.1696 9.02014
49.2188 9.02415
49.2679 8.99965
49.3169 8.97003
49.3661 8.95406
49.4151 8.92662
49.4643 8.86893
49.5134 8.8468
49.5626 8.77201
49.6117 8.77559
49.6609 8.74576
49.71 8.66864
49.7592 8.69489
49.8083 8.61476
49.8576 8.60668
49.9067 8.57327
49.956 8.528
50.0052 8.48122
50.0545 8.47721
50.1036 8.46035
50.153 8.37868
50.2022 8.3509
50.2515 8.31294
50.3007 8.33538
50.3501 8.25389
50.3993 8.23234
50.4487 8.18964
50.498 8.15925
50.5474 8.11456
50.5966 8.13549
50.6461 8.08271
50.6955 8.04389
50.7448 8.00714
50.7943 7.96531
50.8436 7.96901
50.8931 7.8747
50.9424 7.88056
50.9919 7.85549
51.0413 7.82702
51.0908 7.81466
51.1402 7.78082
51.1897 7.73659
51.2391 7.68876
51.2887 7.66481
51.3381 7.64551
51.3877 7.61192
51.4371 7.59813
51.4867 7.5646
51.5362 7.53339
51.5858 7.52346
51.6353 7.45291
51.6849 7.41747
51.7344 7.40248
51.7841 7.37746
51.8336 7.35612
51.8833 7.30858
51.9328 7.30652
51.9826 7.26742
52.0323 7.21948
52.0818 7.16971
52.1316 7.14975
52.1812 7.12551
52.231 7.11212
52.2806 7.06223
52.3304 7.00276
52.38 7.01136
52.4298 6.98011
52.4794 6.93246
52.5293 6.91307
52.5789 6.89651
52.6288 6.8591
52.6785 6.82595
52.7284 6.83941
52.7781 6.77368
52.828 6.74178
52.8777 6.68999
52.9276 6.67244
52.9774 6.66624
53.0273 6.68156
53.0771 6.65136
53.1271 6.61423
53.1769 6.55397
53.2269 6.53579
53.2767 6.51475
53.3267 6.48881
53.3765 6.4426
53.4266 6.43323
53.4766 6.41696
53.5265 6.37554
53.5765 6.33745
53.6264 6.28062
53.6765 6.26914
53.7264 6.25474
53.7765 6.24836
53.8265 6.1925
53.8766 6.15225
53.9266 6.1649
53.9767 6.16357
54.0267 6.09999
54.0769 6.04631
54.1269 6.04806
54.1771 5.97071
54.2271 6.01558
54.2773 5.93296
54.3274 5.94389
54.3776 5.86539
54.4277 5.86385
54.478 5.79104
54.528 5.78348
54.5783 5.7768
54.6285 5.70246
54.6788 5.68445
54.7289 5.619
54.7792 5.61434
54.8296 5.56043
54.8798 5.47377
54.9301 5.47829
54.9803 5.40803
55.0307 5.40923
55.0809 5.35901
55.1314 5.30065
55.1816 5.23843
55.232 5.18269
55.2823 5.22173
55.3328 5.12891
55.383 5.07608
55.4335 5.07483
55.4838 5.02898
55.5344 4.89751
55.5847 4.93659
55.6352 4.83731
55.6856 4.77741
55.7361 4.84479