File: XRD/Ni3Fe_FD0637.xy
TT I
1.27165 7.36144
1.31627 5.96737
1.36089 6.13085
1.40551 5.91295
1.45013 5.96684
1.49476 5.51048
1.53938 5.27826
1.584 5.49735
1.62863 6.05674
1.67325 5.42987
1.71787 5.21617
1.7625 4.91367
1.80712 4.85559
1.85174 4.85811
1.89636 4.91073
1.94099 5.07749
1.98562 5.07186
2.03025 4.20444
2.07487 4.69224
2.11949 4.73398
2.16411 5.05531
2.20874 15.6729
2.25338 26.895
2.298 6.12156
2.34263 5.77198
2.38725 6.04434
2.43188 5.96063
2.4765 6.47455
2.52115 6.35967
2.56577 7.64561
2.6104 8.14371
2.65503 7.3054
2.69965 7.87933
2.7443 8.50503
2.78893 7.91129
2.83356 8.26238
2.87818 8.83211
2.92281 9.24135
2.96744 9.41889
3.01209 10.3493
3.05672 10.9436
3.10135 12.3133
3.14599 12.5995
3.19062 14.4346
3.23527 14.4038
3.2799 15.9034
3.32454 17.1638
3.36917 17.9749
3.4138 18.9445
3.45844 20.044
3.50309 21.2209
3.54773 22.5436
3.59237 24.215
3.637 106.656
3.68164 66.2278
3.7263 26.6175
3.77094 26.575
3.81558 27.3743
3.86022 27.9894
3.90486 29.12
3.9495 29.9046
3.99416 30.9893
4.0388 32.6363
4.08344 33.7215
4.12809 35.0597
4.17273 37.65
4.21738 44.835
4.26204 287.685
4.30669 250.836
4.35133 50.4023
4.39598 45.0962
4.44063 56.2669
4.4853 69.5375
4.52995 51.0198
4.5746 51.4613
4.61925 53.2715
4.6639 55.6594
4.70855 58.3783
4.75322 61.1714
4.79788 63.9384
4.84253 67.8254
4.88719 71.2889
4.93184 75.3054
4.97652 80.9123
5.02118 86.8042
5.06583 93.7594
5.11049 105.971
5.15515 182.539
5.19981 339.664
5.24449 2722.82
5.28916 12598.4
5.33382 3049.86
5.37848 195.309
5.42315 130.87
5.46783 114.244
5.5125 106.84
5.55716 102.036
5.60183 99.2101
5.6465 97.1181
5.69117 94.7756
5.73586 92.717
5.78053 91.8461
5.8252 91.1357
5.86988 91.9263
5.91455 94.0792
5.95924 101.396
6.00392 196.076
6.0486 928.766
6.09328 4406.37
6.13795 3509.31
6.18263 258.015
6.22733 94.9528
6.27201 84.1164
6.3167 108.215
6.36138 82.9572
6.40606 69.7129
6.45075 67.7812
6.49545 65.6278
6.54014 64.3111
6.58483 63.6721
6.62952 63.4258
6.67421 100.856
6.71892 161.265
6.76361 70.9378
6.8083 58.9929
6.853 58.1046
6.89769 57.197
6.94239 56.7116
6.98711 56.3129
7.03181 56.0491
7.07651 55.7364
7.12121 55.7838
7.16591 55.4386
7.21063 56.6547
7.25533 73.9577
7.30004 205.768
7.34475 99.3713
7.38945 57.2119
7.43416 55.3462
7.47889 54.8461
7.5236 55.3682
7.56831 55.6737
7.61303 57.8464
7.65774 58.0449
7.70247 56.2565
7.74719 56.4889
7.79191 57.0146
7.83663 57.1379
7.88135 58.1939
7.92607 59.031
7.97081 60.1905
8.01553 61.0565
8.06026 62.3451
8.10498 64.3154
8.14971 75.3459
8.19446 73.5135
8.23919 69.9795
8.28392 71.9248
8.32865 74.3447
8.37339 78.5969
8.41812 86.4367
8.46288 118.16
8.50761 158.325
8.55235 367.608
8.59709 1123.8
8.64183 2240.88
8.68658 1020.6
8.73134 176.262
8.77609 100.468
8.82083 93.431
8.86558 90.1977
8.91033 90.624
8.9551 93.0709
8.99985 85.8096
9.04461 83.7166
9.08936 83.2362
9.13412 82.1138
9.17888 82.6726
9.22365 83.3636
9.26841 82.3209
9.31318 82.4472
9.35794 83.0311
9.4027 83.3005
9.44749 83.997
9.49226 84.8237
9.53703 85.8237
9.5818 87.3644
9.62657 92.9615
9.67134 100.652
9.71614 94.2614
9.76091 94.1041
9.80569 96.3848
9.85047 100.097
9.89525 127.8
9.94005 140.545
9.98484 170.065
10.0296 328.8
10.0744 777.382
10.1192 1706.81
10.164 1645.34
10.2088 431.019
10.2536 130.862
10.2984 115.558
10.3432 117.557
10.388 105.227
10.4328 115.927
10.4776 155.204
10.5224 271.789
10.5672 496.895
10.612 518.806
10.6568 214.833
10.7017 99.0424
10.7465 87.1871
10.7913 83.7694
10.8361 81.409
10.8809 79.263
10.9257 79.2775
10.9706 79.8993
11.0154 75.3898
11.0602 73.014
11.105 72.2367
11.1499 77.6866
11.1947 87.1202
11.2395 76.0988
11.2844 71.419
11.3292 67.4786
11.374 66.278
11.4189 66.3048
11.4637 65.404
11.5086 66.0498
11.5534 69.4974
11.5983 66.5395
11.6431 64.2406
11.688 62.9268
11.7328 63.1517
11.7777 63.1075
11.8225 63.0178
11.8674 63.0285
11.9122 63.453
11.9571 63.0864
12.002 63.5174
12.0468 67.0347
12.0917 78.575
12.1366 100.777
12.1814 148.256
12.2263 202.83
12.2712 171.019
12.3161 102.338
12.3609 72.355
12.4058 65.1997
12.4507 64.4139
12.4956 64.6966
12.5405 64.8684
12.5853 66.0141
12.6302 75.2507
12.6751 81.5858
12.72 70.8331
12.7649 68.081
12.8098 68.451
12.8547 69.815
12.8996 71.1142
12.9445 72.1301
12.9894 74.0811
13.0343 75.756
13.0792 78.7974
13.1242 86.9702
13.1691 109.801
13.214 145.159
13.2589 231.329
13.3038 363.821
13.3487 431.491
13.3937 274.522
13.4386 127.571
13.4835 104.712
13.5285 118.412
13.5734 154.906
13.6183 241.83
13.6633 345.042
13.7082 344.201
13.7531 194.01
13.7981 100.551
13.843 82.2469
13.888 79.9886
13.9329 77.157
13.9779 75.9424
14.0228 74.7422
14.0678 73.3267
14.1127 72.7898
14.1577 72.8615
14.2027 71.7249
14.2476 70.5218
14.2926 71.0526
14.3376 72.3619
14.3825 70.6646
14.4275 69.1196
14.4725 68.9405
14.5175 68.8481
14.5624 69.0972
14.6074 71.6043
14.6524 72.3053
14.6974 70.5324
14.7424 71.752
14.7874 78.0347
14.8324 87.4495
14.8774 108.292
14.9224 149.917
14.9674 202.501
15.0124 216.911
15.0574 151.555
15.1024 92.76
15.1474 72.7287
15.1924 70.9237
15.2374 72.0236
15.2824 71.0839
15.3274 68.6135
15.3725 66.8296
15.4175 66.6021
15.4625 66.2301
15.5076 66.6641
15.5526 66.6337
15.5976 66.1694
15.6426 66.652
15.6877 71.613
15.7327 78.9072
15.7778 93.5126
15.8228 123.145
15.8679 166.126
15.9129 194.21
15.958 159.113
16.003 100.207
16.0481 69.4122
16.0931 65.4909
16.1382 63.4862
16.1833 61.2328
16.2283 59.3029
16.2734 58.7538
16.3185 59.1842
16.3636 60.0044
16.4086 58.4611
16.4537 56.5931
16.4988 55.758
16.5439 55.9631
16.589 55.3522
16.6341 55.158
16.6792 54.6759
16.7243 55.1131
16.7694 55.3598
16.8145 55.3012
16.8596 55.6005
16.9047 57.3353
16.9498 57.4612
16.9949 56.0433
17.04 55.8797
17.0851 57.0098
17.1302 58.6927
17.1754 61.6422
17.2205 66.4308
17.2656 73.7477
17.3108 82.6283
17.3559 83.1317
17.401 72.09
17.4462 62.6231
17.4913 59.5249
17.5365 59.3422
17.5815 59.5152
17.6268 59.7021
17.6718 60.6764
17.7171 61.2598
17.7622 61.2659
17.8074 61.8851
17.8525 63.8953
17.8977 68.0712
17.9428 73.11
17.9881 81.3977
18.0331 97.8922
18.0784 119.586
18.1237 138.642
18.1688 131.675
18.214 105.209
18.2591 87.2369
18.3044 89.9198
18.3495 99.4723
18.3948 105.754
18.4399 98.1398
18.4852 79.1326
18.5303 66.7942
18.5756 62.4916
18.6207 61.513
18.666 60.7498
18.7112 59.998
18.7565 59.0327
18.8016 58.8639
18.8469 58.2954
18.892 57.8584
18.9374 57.5387
18.9825 57.2469
19.0278 57.0975
19.073 57.0948
19.1183 57.5978
19.1635 58.2564
19.2088 59.7126
19.254 61.9002
19.2993 66.1724
19.3447 72.2773
19.3898 76.7273
19.4352 73.1013
19.4804 63.9255
19.5257 57.388
19.5709 54.5714
19.6163 54.0594
19.6615 53.9098
19.7068 53.4863
19.752 53.5375
19.7974 53.6997
19.8426 54.6017
19.888 55.2542
19.9332 56.2647
19.9786 58.8039
20.0238 61.9682
20.0692 67.0353
20.1144 69.8317
20.1598 68.6328
20.205 63.5386
20.2504 62.153
20.2957 63.5896
20.3411 65.6707
20.3863 64.5479
20.4318 59.0448
20.477 54.1234
20.5224 51.9737
20.5677 51.3579
20.6131 50.4172
20.6586 49.8598
20.7038 49.6988
20.7493 49.4783
20.7945 49.248
20.84 49.0692
20.8853 48.5863
20.9307 48.6526
20.976 48.8738
21.0215 48.6632
21.0668 49.1228
21.1122 49.3259
21.1575 50.2223
21.203 51.0272
21.2483 51.5884
21.2938 51.4047
21.3391 50.2043
21.3846 49.2231
21.4299 48.6907
21.4754 48.4065
21.5207 48.6872
21.5662 48.9195
21.6116 49.2898
21.6571 49.8911
21.7024 50.9037
21.7479 52.6233
21.7933 55.2109
21.8388 58.5441
21.8843 62.3187
21.9297 64.6479
21.9752 63.689
22.0206 59.9965
22.0661 56.9119
22.1115 56.0751
22.157 56.2201
22.2024 54.531
22.248 51.7847
22.2933 50.0418
22.3389 49.2349
22.3843 49.1758
22.4299 49.0467
22.4753 49.1371
22.5208 48.92
22.5662 48.6072
22.6118 48.6608
22.6572 48.9908
22.7028 49.4079
22.7483 49.7167
22.7939 50.3878
22.8393 51.7836
22.8849 53.8642
22.9303 56.1479
22.9759 57.8991
23.0214 57.673
23.067 54.9402
23.1126 51.5897
23.1581 49.412
23.2037 48.9963
23.2492 48.8858
23.2948 49.0298
23.3403 49.1052
23.3859 49.8661
23.4314 50.7719
23.477 52.5574
23.5225 54.593
23.5682 56.8141
23.6137 58.0917
23.6593 56.1222
23.7048 52.1398
23.7505 48.5765
23.796 46.9079
23.8417 46.033
23.8872 45.7047
23.9329 45.4095
23.9784 45.2078
24.0241 44.8028
24.0697 44.6121
24.1154 44.1972
24.1609 44.1445
24.2066 44.1881
24.2522 43.8425
24.2979 43.6066
24.3434 43.5776
24.3892 43.2854
24.4349 43.218
24.4805 43.0168
24.5262 43.255
24.5718 43.2126
24.6175 43.1085
24.6631 42.9655
24.7089 42.7577
24.7545 42.6455
24.8002 42.358
24.8458 42.4252
24.8916 42.1924
24.9372 42.2685
24.983 42.7098
25.0286 42.9765
25.0744 43.2632
25.12 43.7725
25.1658 44.4072
25.2114 44.6691
25.2572 44.8482
25.3029 44.9406
25.3487 45.0021
25.3943 44.7129
25.4402 43.7106
25.4858 42.7113
25.5316 41.6899
25.5773 41.174
25.6231 40.9697
25.669 40.7066
25.7147 40.6309
25.7605 40.666
25.8062 40.8038
25.8521 40.8173
25.8977 40.7237
25.9436 40.9002
25.9893 40.9659
26.0352 41.5857
26.0809 41.6117
26.1268 41.8398
26.1725 41.5004
26.2184 40.9852
26.2641 40.4985
26.31 40.278
26.3557 40.3261
26.4017 40.2133
26.4474 40.4835
26.4933 40.8649
26.5391 41.4309
26.585 41.7
26.6308 42.1497
26.6767 42.329
26.7225 42.2278
26.7684 41.544
26.8142 41.0191
26.8601 40.6518
26.9059 40.1506
26.9519 39.6036
26.9979 39.2741
27.0437 39.0285
27.0896 38.9072
27.1354 38.9214
27.1814 38.7609
27.2272 38.6738
27.2732 38.6721
27.3191 38.5023
27.3651 38.6878
27.4109 38.626
27.4569 38.4762
27.5027 38.6478
27.5488 38.7131
27.5946 38.5199
27.6407 38.1777
27.6865 38.216
27.7326 37.9244
27.7784 37.9123
27.8245 37.9303
27.8703 38.0913
27.9164 38.46
27.9623 38.5338
28.0084 38.8545
28.0543 39.1073
28.1003 39.1347
28.1462 38.9495
28.1923 38.5356
28.2384 38.1237
28.2843 37.919
28.3304 37.2824
28.3764 36.8402
28.4225 36.5342
28.4684 36.4878
28.5145 36.0676
28.5605 36.0284
28.6066 35.7805
28.6526 35.8519
28.6987 35.7715
28.7447 35.6681
28.7908 35.6079
28.8368 35.5633
28.8829 35.5776
28.9289 35.5603
28.9751 35.3364
29.0211 35.066
29.0673 34.7888
29.1133 34.7087
29.1595 34.5528
29.2055 34.559
29.2517 34.4466
29.2977 34.4066
29.3439 34.4863
29.3899 34.2936
29.4361 34.2373
29.4824 34.0706
29.5284 33.8048
29.5746 33.5895
29.6207 33.3428
29.6669 33.3079
29.713 33.1996
29.7593 33.0301
29.8053 33.0497
29.8516 32.9381
29.8977 33.0154
29.9439 32.8102
29.99 32.7302
30.0363 32.5606
30.0824 32.5573
30.1287 32.5246
30.1748 32.5436
30.2211 32.5204
30.2673 32.4946
30.3136 32.4852
30.3597 32.4049
30.406 32.3318
30.4522 32.2345
30.4985 32.1587
30.5447 32.2384
30.591 32.2225
30.6372 32.3173
30.6835 32.3136
30.7297 32.3435
30.7761 32.2952
30.8224 32.1281
30.8686 31.8799
30.915 31.7237
30.9612 31.6095
31.0076 31.3777
31.0538 31.338
31.1002 31.2328
31.1464 30.9939
31.1928 31.0178
31.2391 31.1107
31.2855 30.9646
31.3317 30.9508
31.3781 30.9912
31.4244 30.9757
31.4708 30.8488
31.5171 30.9528
31.5636 30.8693
31.6098 30.5893
31.6563 30.5803
31.7026 30.2505
31.7491 30.2967
31.7953 30.3065
31.8418 30.2645
31.8881 30.18
31.9346 30.2476
31.9809 30.1011
32.0275 30.0777
32.074 30.047
32.1203 29.7161
32.1668 29.7043
32.2132 29.4477
32.2597 29.3742
32.306 29.3005
32.3526 28.9838
32.399 29.0823
32.4455 28.8446
32.4919 28.8869
32.5385 28.7846
32.5848 28.6289
32.6314 28.6378
32.6778 28.5197
32.7244 28.3569
32.7708 28.3381
32.8174 28.267
32.8638 28.1734
32.9104 28.1259
32.9569 28.1749
33.0035 27.9503
33.0499 28.0476
33.0966 27.8012
33.143 27.9172
33.1897 27.7713
33.2361 27.7199
33.2828 27.8047
33.3293 27.5205
33.3759 27.5431
33.4226 27.4191
33.4691 27.2607
33.5158 27.15
33.5623 26.9813
33.609 26.897
33.6555 26.8082
33.7022 26.6837
33.7487 26.6719
33.7954 26.6091
33.842 26.5232
33.8887 26.3959
33.9353 26.3633
33.982 26.2811
34.0286 26.2106
34.0753 26.0823
34.1219 25.9937
34.1687 25.9262
34.2152 25.8884
34.262 25.6878
34.3086 25.681
34.3554 25.5957
34.402 25.4351
34.4488 25.4158
34.4954 25.3042
34.5422 25.2602
34.5889 25.107
34.6357 25.0861
34.6825 24.8766
34.7292 24.9617
34.776 24.8373
34.8227 24.8561
34.8695 24.6482
34.9162 24.7495
34.9631 24.5388
35.0098 24.5309
35.0566 24.4073
35.1033 24.3903
35.1502 24.435
35.1969 24.3229
35.2438 24.2676
35.2906 24.1961
35.3375 24.2076
35.3842 24.0858
35.4311 24.0205
35.4779 24.0144
35.5248 23.9747
35.5716 23.8659
35.6185 23.7893
35.6653 23.7043
35.7123 23.5855
35.759 23.5992
35.806 23.4117
35.8528 23.371
35.8998 23.2492
35.9468 23.2457
35.9936 23.1737
36.0406 23.1104
36.0874 23.0655
36.1345 22.9963
36.1813 22.918
36.2283 22.834
36.2752 22.7141
36.3222 22.7726
36.3691 22.6184
36.4161 22.5017
36.463 22.4832
36.5101 22.4712
36.557 22.4595
36.6041 22.2578
36.651 22.2844
36.6981 22.2092
36.745 22.0894
36.7921 22.1044
36.839 21.9265
36.8861 21.8996
36.9331 21.8197
36.9802 21.8094
37.0272 21.6885
37.0743 21.6602
37.1213 21.5656
37.1684 21.5261
37.2154 21.51
37.2626 21.3231
37.3098 21.3449
37.3568 21.2673
37.404 21.1883
37.451 21.1107
37.4982 21.0415
37.5452 20.9558
37.5924 20.8414
37.6395 20.9407
37.6867 20.8247
37.7337 20.6463
37.781 20.6393
37.8281 20.5566
37.8753 20.4411
37.9224 20.4178
37.9697 20.4073
38.0168 20.2647
38.064 20.1874
38.1111 20.1391
38.1584 20.1162
38.2056 20.008
38.2529 20.0643
38.3 19.9088
38.3473 19.8191
38.3945 19.7436
38.4418 19.6993
38.489 19.7111
38.5363 19.5498
38.5837 19.5529
38.6309 19.5015
38.6782 19.3946
38.7254 19.2702
38.7728 19.2862
38.82 19.2287
38.8674 19.1248
38.9146 19.1639
38.9621 19.0816
39.0093 18.9823
39.0567 18.9987
39.104 18.8851
39.1514 18.824
39.1987 18.7655
39.2461 18.686
39.2934 18.6261
39.3409 18.541
39.3882 18.5064
39.4356 18.4364
39.483 18.3842
39.5304 18.3465
39.5778 18.3438
39.6253 18.2488
39.6726 18.1718
39.7201 18.1559
39.7675 18.0309
39.815 18.0905
39.8624 17.917
39.9099 17.9789
39.9575 17.8017
40.0049 17.7773
40.0525 17.6724
40.0999 17.6585
40.1474 17.5923
40.1949 17.5701
40.2425 17.4631
40.2899 17.4474
40.3375 17.407
40.385 17.3268
40.4326 17.2844
40.48 17.1863
40.5277 17.1846
40.5752 17.0607
40.6228 17.0478
40.6703 16.9988
40.718 16.9667
40.7655 16.9393
40.8132 16.8161
40.8607 16.8059
40.9084 16.7448
40.9559 16.6497
41.0036 16.6247
41.0512 16.6513
41.0989 16.5595
41.1465 16.5127
41.1942 16.4499
41.242 16.3343
41.2896 16.2605
41.3373 16.1998
41.3849 16.1957
41.4327 16.1162
41.4803 16.0541
41.5281 16.0659
41.5758 15.942
41.6236 15.9328
41.6712 15.8397
41.7191 15.7887
41.7667 15.7987
41.8146 15.7399
41.8622 15.6593
41.9101 15.6162
41.9578 15.5305
42.0057 15.4585
42.0534 15.4381
42.1013 15.3959
42.149 15.3692
42.1969 15.2769
42.2446 15.2463
42.2925 15.1568
42.3403 15.1095
42.3882 15.1181
42.436 15.0486
42.4839 14.9908
42.5319 14.9864
42.5797 14.9025
42.6277 14.8275
42.6755 14.8099
42.7235 14.721
42.7713 14.6969
42.8193 14.6113
42.8671 14.5817
42.9152 14.514
42.963 14.5091
43.0111 14.4295
43.0589 14.3817
43.107 14.3045
43.1549 14.3106
43.2029 14.2088
43.2508 14.1916
43.2989 14.0914
43.3468 14.0896
43.3949 14.0414
43.4429 13.955
43.491 13.9292
43.5389 13.883
43.5871 13.8872
43.635 13.7728
43.6832 13.7215
43.7312 13.6779
43.7793 13.6478
43.8273 13.5774
43.8755 13.5565
43.9237 13.5256
43.9717 13.5177
44.0199 13.3872
44.068 13.4254
44.1162 13.2955
44.1642 13.3084
44.2125 13.2829
44.2606 13.2755
44.3088 13.1545
44.3569 13.0838
44.4052 13.0927
44.4533 13.0244
44.5016 12.9468
44.5497 12.9383
44.598 12.8828
44.6461 12.8293
44.6945 12.8261
44.7426 12.7116
44.791 12.6907
44.8391 12.6959
44.8875 12.6062
44.9357 12.5862
44.984 12.5049
45.0322 12.4983
45.0806 12.4099
45.1288 12.3923
45.1773 12.347
45.2257 12.3068
45.2739 12.2314
45.3224 12.23
45.3706 12.2004
45.4191 12.1284
45.4673 12.107
45.5158 12.0871
45.5641 12.0305
45.6126 11.955
45.6609 11.8854
45.7094 11.8712
45.7577 11.8079
45.8063 11.7416
45.8546 11.7551
45.9031 11.7193
45.9515 11.6555
46.0001 11.6112
46.0484 11.5766
46.097 11.5458
46.1454 11.476
46.194 11.466
46.2424 11.439
46.291 11.3623
46.3395 11.3273
46.3881 11.2636
46.4365 11.2404
46.4852 11.1754
46.5337 11.156
46.5823 11.1504
46.631 11.0819
46.6795 11.0125
46.7282 11.0163
46.7767 10.9812
46.8254 10.9264
46.8739 10.8663
46.9226 10.8059
46.9712 10.7934
47.0199 10.7354
47.0685 10.7009
47.1173 10.7093
47.1658 10.6211
47.2146 10.5646
47.2632 10.5411
47.312 10.5462
47.3606 10.5262
47.4095 10.4627
47.4581 10.4081
47.5069 10.3307
47.5556 10.3089
47.6044 10.2865
47.6531 10.2753
47.702 10.2193
47.7507 10.1807
47.7996 10.1411
47.8483 10.0975
47.8972 10.1158
47.9461 10.0384
47.9948 9.9915
48.0438 10.0129
48.0925 9.97764
48.1415 9.89224
48.1902 9.82251
48.2392 9.85719
48.288 9.79953
48.337 9.8049
48.3858 9.71764
48.4348 9.67874
48.4837 9.68028
48.5327 9.62855
48.5815 9.56575
48.6306 9.54898
48.6795 9.51517
48.7285 9.45149
48.7774 9.42849
48.8265 9.4263
48.8754 9.39029
48.9245 9.32322
48.9734 9.28251
49.0226 9.28354
49.0715 9.21434
49.1206 9.17612
49.1696 9.12881
49.2188 9.14217
49.2679 9.11539
49.3169 9.06229
49.3661 9.01878
49.4151 9.01116
49.4643 8.98505
49.5134 8.91949
49.5626 8.85146
49.6117 8.85225
49.6609 8.82944
49.71 8.7596
49.7592 8.76754
49.8083 8.66459
49.8576 8.68727
49.9067 8.62243
49.956 8.5981
50.0052 8.55084
50.0545 8.52112
50.1036 8.4753
50.153 8.51568
50.2022 8.43274
50.2515 8.39155
50.3007 8.33612
50.3501 8.32247
50.3993 8.31687
50.4487 8.27411
50.498 8.20538
50.5474 8.22918
50.5966 8.16223
50.6461 8.13867
50.6955 8.12851
50.7448 8.10525
50.7943 8.04622
50.8436 8.05017
50.8931 7.98608
50.9424 7.94109
50.9919 7.93683
51.0413 7.90149
51.0908 7.86765
51.1402 7.82493
51.1897 7.84264
51.2391 7.80539
51.2887 7.76171
51.3381 7.71276
51.3877 7.69438
51.4371 7.66127
51.4867 7.57508
51.5362 7.61875
51.5858 7.57479
51.6353 7.52812
51.6849 7.47744
51.7344 7.48867
51.7841 7.47811
51.8336 7.38029
51.8833 7.3763
51.9328 7.36505
51.9826 7.27168
52.0323 7.24101
52.0818 7.24612
52.1316 7.21954
52.1812 7.21111
52.231 7.14387
52.2806 7.13062
52.3304 7.09822
52.38 7.0731
52.4298 7.05507
52.4794 7.03795
52.5293 6.98814
52.5789 6.96993
52.6288 6.92792
52.6785 6.90868
52.7284 6.87591
52.7781 6.84988
52.828 6.84951
52.8777 6.73536
52.9276 6.74258
52.9774 6.72553
53.0273 6.73084
53.0771 6.65265
53.1271 6.68462
53.1769 6.60398
53.2269 6.61289
53.2767 6.55268
53.3267 6.51579
53.3765 6.50011
53.4266 6.48868
53.4766 6.46179
53.5265 6.44703
53.5765 6.38663
53.6264 6.38347
53.6765 6.33446
53.7264 6.31549
53.7765 6.27384
53.8265 6.27313
53.8766 6.21355
53.9266 6.15434
53.9767 6.13876
54.0267 6.17016
54.0769 6.10187
54.1269 6.09305
54.1771 6.0602
54.2271 6.00174
54.2773 5.97581
54.3274 5.95371
54.3776 5.95916
54.4277 5.85908
54.478 5.87232
54.528 5.81841
54.5783 5.77495
54.6285 5.77493
54.6788 5.68848
54.7289 5.6989
54.7792 5.61981
54.8296 5.58007
54.8798 5.46955
54.9301 5.55922
54.9803 5.46777
55.0307 5.43328
55.0809 5.37226
55.1314 5.34439
55.1816 5.33832
55.232 5.28333
55.2823 5.24504
55.3328 5.11279
55.383 5.12891
55.4335 5.02264
55.4838 5.03935
55.5344 4.99295
55.5847 4.96999
55.6352 4.90311
55.6856 4.84408
55.7361 4.80835