File: XRD/Ni3Fe_FD0989.xy
TT I
1.27165 7.26939
1.31627 6.42786
1.36089 6.47209
1.40551 5.88788
1.45013 5.99766
1.49476 5.11488
1.53938 5.82227
1.584 5.63574
1.62863 5.14982
1.67325 4.70436
1.71787 4.8046
1.7625 4.88687
1.80712 4.92519
1.85174 4.90745
1.89636 4.2126
1.94099 4.84861
1.98562 4.98115
2.03025 4.8778
2.07487 5.15708
2.11949 4.91938
2.16411 4.81419
2.20874 15.2882
2.25338 24.4537
2.298 6.86202
2.34263 5.7877
2.38725 6.4658
2.43188 6.89844
2.4765 7.01571
2.52115 7.45051
2.56577 8.04469
2.6104 8.5226
2.65503 8.40902
2.69965 9.1
2.7443 8.77568
2.78893 8.59372
2.83356 9.23425
2.87818 8.93366
2.92281 9.40835
2.96744 9.77108
3.01209 10.5565
3.05672 11.1359
3.10135 12.411
3.14599 13.3971
3.19062 14.672
3.23527 15.6536
3.2799 15.8646
3.32454 16.8674
3.36917 17.6835
3.4138 19.1252
3.45844 19.8545
3.50309 21.2796
3.54773 21.5521
3.59237 24.0907
3.637 100.266
3.68164 63.8451
3.7263 26.373
3.77094 26.3208
3.81558 26.538
3.86022 27.3018
3.90486 28.6424
3.9495 29.8485
3.99416 30.7353
4.0388 31.9782
4.08344 33.0734
4.12809 34.9726
4.17273 37.4538
4.21738 43.2579
4.26204 275.28
4.30669 243.362
4.35133 49.0769
4.39598 44.2579
4.44063 54.1395
4.4853 67.5868
4.52995 49.4832
4.5746 50.4235
4.61925 52.019
4.6639 54.627
4.70855 57.1471
4.75322 59.6666
4.79788 62.5732
4.84253 66.0787
4.88719 69.2778
4.93184 73.2733
4.97652 78.2764
5.02118 83.8422
5.06583 90.8135
5.11049 100.089
5.15515 167.565
5.19981 269.765
5.24449 2220.27
5.28916 13541.9
5.33382 2776.5
5.37848 172.625
5.42315 123.645
5.46783 109.686
5.5125 102.558
5.55716 98.9948
5.60183 96.0483
5.6465 94.3422
5.69117 91.9521
5.73586 89.4995
5.78053 88.9041
5.8252 87.9304
5.86988 88.6244
5.91455 90.1904
5.95924 95.2486
6.00392 163.668
6.0486 761.707
6.09328 4553.53
6.13795 3266.76
6.18263 213.623
6.22733 89.3475
6.27201 81.1289
6.3167 103.676
6.36138 80.6729
6.40606 67.764
6.45075 66.1109
6.49545 64.4848
6.54014 63.0046
6.58483 62.2512
6.62952 62.0679
6.67421 97.1046
6.71892 153.666
6.76361 69.4834
6.8083 57.3881
6.853 56.635
6.89769 55.844
6.94239 55.7291
6.98711 55.1618
7.03181 55.072
7.07651 54.5784
7.12121 54.2554
7.16591 54.8889
7.21063 54.9656
7.25533 72.108
7.30004 193.622
7.34475 96.5071
7.38945 56.1069
7.43416 53.8347
7.47889 54.018
7.5236 53.9563
7.56831 54.7759
7.61303 56.4361
7.65774 56.8558
7.70247 55.2112
7.74719 55.1722
7.79191 55.894
7.83663 55.9508
7.88135 56.908
7.92607 57.5135
7.97081 58.9774
8.01553 59.6751
8.06026 61.1353
8.10498 62.8917
8.14971 73.1111
8.19446 71.7678
8.23919 68.0678
8.28392 69.857
8.32865 72.4321
8.37339 76.2941
8.41812 83.0583
8.46288 112.221
8.50761 139.531
8.55235 316.032
8.59709 1115.77
8.64183 2331.47
8.68658 945.307
8.73134 161.877
8.77609 96.4636
8.82083 90.4233
8.86558 87.7017
8.91033 88.2939
8.9551 90.8836
8.99985 83.5716
9.04461 82.0071
9.08936 81.3457
9.13412 80.3972
9.17888 80.6637
9.22365 81.8137
9.26841 80.42
9.31318 80.894
9.35794 80.7921
9.4027 81.6137
9.44749 82.2329
9.49226 82.8791
9.53703 83.7045
9.5818 85.4395
9.62657 90.3594
9.67134 97.4586
9.71614 92.0916
9.76091 91.8385
9.80569 94.1878
9.85047 97.3128
9.89525 123.492
9.94005 135.196
9.98484 151.747
10.0296 287.934
10.0744 737.477
10.1192 1771.41
10.164 1575.54
10.2088 372.722
10.2536 122.675
10.2984 111.091
10.3432 113.3
10.388 101.93
10.4328 109.735
10.4776 143.515
10.5224 264.14
10.5672 533.818
10.612 516.4
10.6568 195.894
10.7017 94.6658
10.7465 84.4836
10.7913 81.3721
10.8361 79.7261
10.8809 77.0452
10.9257 76.9195
10.9706 77.921
11.0154 73.3073
11.0602 71.5768
11.105 70.706
11.1499 75.7776
11.1947 84.1215
11.2395 73.9589
11.2844 69.4374
11.3292 66.1242
11.374 64.7224
11.4189 64.3158
11.4637 63.6986
11.5086 64.5554
11.5534 67.7608
11.5983 64.5205
11.6431 62.5182
11.688 61.7075
11.7328 61.6939
11.7777 61.504
11.8225 61.0245
11.8674 61.0233
11.9122 61.0682
11.9571 61.3297
12.002 61.9479
12.0468 64.8021
12.0917 74.3718
12.1366 97.564
12.1814 150.559
12.2263 204.832
12.2712 161.803
12.3161 94.2048
12.3609 69.7101
12.4058 63.5273
12.4507 62.8472
12.4956 63.1337
12.5405 63.1235
12.5853 64.0354
12.6302 72.7364
12.6751 78.8723
12.72 69.2737
12.7649 66.4564
12.8098 66.9344
12.8547 67.961
12.8996 69.2526
12.9445 70.3488
12.9894 72.3631
13.0343 73.8325
13.0792 76.7561
13.1242 82.8211
13.1691 102.582
13.214 135.313
13.2589 225.305
13.3038 375.467
13.3487 434.714
13.3937 254.038
13.4386 121.158
13.4835 99.1692
13.5285 111.085
13.5734 146.738
13.6183 240.419
13.6633 358.821
13.7082 337.757
13.7531 178.707
13.7981 94.6448
13.843 80.0999
13.888 77.6778
13.9329 75.4002
13.9779 74.0034
14.0228 72.7673
14.0678 71.4341
14.1127 71.2392
14.1577 71.103
14.2027 69.8536
14.2476 68.906
14.2926 69.1869
14.3376 70.4453
14.3825 69.023
14.4275 67.2639
14.4725 67.1045
14.5175 67.4604
14.5624 67.7007
14.6074 70.0616
14.6524 70.4643
14.6974 68.8088
14.7424 69.517
14.7874 74.3827
14.8324 82.9448
14.8774 103.38
14.9224 147.84
14.9674 211.485
15.0124 219.434
15.0574 149.136
15.1024 88.6569
15.1474 70.7242
15.1924 69.0359
15.2374 69.5407
15.2824 69.2363
15.3274 66.8269
15.3725 65.2855
15.4175 64.9863
15.4625 64.8235
15.5076 65.0865
15.5526 64.8075
15.5976 64.2578
15.6426 64.4904
15.6877 68.245
15.7327 74.6614
15.7778 88.9579
15.8228 120.465
15.8679 171.726
15.9129 197.208
15.958 152.901
16.003 94.1037
16.0481 66.9613
16.0931 63.7039
16.1382 61.6548
16.1833 59.3929
16.2283 57.7868
16.2734 57.1054
16.3185 57.5134
16.3636 58.4156
16.4086 56.8307
16.4537 55.2705
16.4988 54.4595
16.5439 54.3222
16.589 53.9691
16.6341 53.7187
16.6792 53.4857
16.7243 53.7552
16.7694 53.713
16.8145 53.7095
16.8596 54.1805
16.9047 55.7849
16.9498 55.9117
16.9949 54.4609
17.04 54.4002
17.0851 55.276
17.1302 56.96
17.1754 59.577
17.2205 64.5919
17.2656 72.8608
17.3108 81.8269
17.3559 80.2436
17.401 68.8191
17.4462 60.3288
17.4913 57.8138
17.5365 57.7126
17.5815 57.8035
17.6268 58.2469
17.6718 59.0037
17.7171 59.5723
17.7622 59.7473
17.8074 60.0955
17.8525 61.8225
17.8977 65.1506
17.9428 69.9442
17.9881 78.377
18.0331 96.2276
18.0784 120.322
18.1237 138.022
18.1688 126.533
18.214 99.3173
18.2591 83.2334
18.3044 88.0924
18.3495 99.7026
18.3948 106.548
18.4399 94.4914
18.4852 75.673
18.5303 64.5541
18.5756 60.9725
18.6207 59.9418
18.666 59.3098
18.7112 58.4268
18.7565 57.4815
18.8016 57.4452
18.8469 56.8013
18.892 56.4728
18.9374 55.8858
18.9825 55.7566
19.0278 55.7213
19.073 55.7462
19.1183 55.9023
19.1635 56.638
19.2088 57.7961
19.254 60.0668
19.2993 65.1024
19.3447 71.6491
19.3898 75.318
19.4352 70.5355
19.4804 61.411
19.5257 55.2523
19.5709 53.1093
19.6163 52.6809
19.6615 52.5146
19.7068 52.2207
19.752 52.1344
19.7974 52.1337
19.8426 53.1686
19.888 53.4197
19.9332 54.6415
19.9786 57.0567
20.0238 60.8808
20.0692 66.2585
20.1144 68.8709
20.1598 66.5157
20.205 61.7973
20.2504 60.5543
20.2957 62.8712
20.3411 65.0459
20.3863 62.8527
20.4318 57.054
20.477 52.3498
20.5224 50.5961
20.5677 50.0598
20.6131 49.2779
20.6586 48.5677
20.7038 48.487
20.7493 48.011
20.7945 47.7567
20.84 47.8497
20.8853 47.7394
20.9307 47.5554
20.976 47.6211
21.0215 47.5714
21.0668 47.9956
21.1122 48.2839
21.1575 49.0738
21.203 49.8871
21.2483 50.5481
21.2938 50.1836
21.3391 48.9304
21.3846 47.7313
21.4299 47.2884
21.4754 47.3855
21.5207 47.3568
21.5662 47.8065
21.6116 47.947
21.6571 48.428
21.7024 49.36
21.7479 51.3228
21.7933 53.8631
21.8388 57.6481
21.8843 61.8046
21.9297 63.5278
21.9752 61.6855
22.0206 57.8565
22.0661 55.371
22.1115 55.1647
22.157 54.9053
22.2024 53.1228
22.248 50.2653
22.2933 48.9452
22.3389 48.3249
22.3843 47.9473
22.4299 47.793
22.4753 47.9284
22.5208 47.5758
22.5662 47.5226
22.6118 47.575
22.6572 47.7271
22.7028 48.0069
22.7483 48.3672
22.7939 49.1039
22.8393 50.6108
22.8849 52.9121
22.9303 55.2816
22.9759 57.0336
23.0214 56.4495
23.067 53.365
23.1126 49.7934
23.1581 48.1011
23.2037 47.7906
23.2492 47.6722
23.2948 47.6634
23.3403 47.8456
23.3859 48.3584
23.4314 49.4829
23.477 51.3582
23.5225 53.8799
23.5682 56.3237
23.6137 57.0259
23.6593 54.527
23.7048 50.3101
23.7505 47.3845
23.796 45.672
23.8417 45.1443
23.8872 44.5884
23.9329 44.3161
23.9784 44.0227
24.0241 43.6908
24.0697 43.6075
24.1154 43.362
24.1609 43.1316
24.2066 42.8441
24.2522 42.7703
24.2979 42.5744
24.3434 42.4096
24.3892 42.2113
24.4349 42.2313
24.4805 42.024
24.5262 42.3243
24.5718 42.1615
24.6175 42.1537
24.6631 41.9947
24.7089 41.5859
24.7545 41.5968
24.8002 41.3942
24.8458 41.3324
24.8916 41.159
24.9372 41.2371
24.983 41.5695
25.0286 41.9326
25.0744 42.2646
25.12 42.9633
25.1658 43.5616
25.2114 43.6357
25.2572 43.8876
25.3029 43.9889
25.3487 44.2209
25.3943 43.7795
25.4402 42.6179
25.4858 41.5973
25.5316 40.641
25.5773 40.0941
25.6231 40.022
25.669 39.5419
25.7147 39.6044
25.7605 39.5531
25.8062 39.6868
25.8521 39.9377
25.8977 39.6775
25.9436 39.9201
25.9893 40.0416
26.0352 40.741
26.0809 40.7965
26.1268 40.9438
26.1725 40.6087
26.2184 40.0363
26.2641 39.4172
26.31 39.1585
26.3557 39.3817
26.4017 39.1621
26.4474 39.5764
26.4933 39.8075
26.5391 40.3534
26.585 40.9446
26.6308 41.4245
26.6767 41.3275
26.7225 41.0559
26.7684 40.6182
26.8142 40.0029
26.8601 39.5247
26.9059 39.2702
26.9519 38.6807
26.9979 38.4969
27.0437 38.1415
27.0896 38.0108
27.1354 37.9128
27.1814 37.8816
27.2272 37.6911
27.2732 37.7665
27.3191 37.5514
27.3651 37.6637
27.4109 37.7134
27.4569 37.6871
27.5027 37.8457
27.5488 37.7963
27.5946 37.6374
27.6407 37.344
27.6865 37.2658
27.7326 37.02
27.7784 37.0875
27.8245 36.9888
27.8703 37.2511
27.9164 37.5045
27.9623 37.6444
28.0084 37.9481
28.0543 38.3558
28.1003 38.3348
28.1462 38.0544
28.1923 37.7211
28.2384 37.2191
28.2843 36.8081
28.3304 36.427
28.3764 35.9752
28.4225 35.6207
28.4684 35.6047
28.5145 35.2978
28.5605 35.1794
28.6066 34.9859
28.6526 34.8029
28.6987 34.7924
28.7447 34.8269
28.7908 34.7501
28.8368 34.8686
28.8829 34.802
28.9289 34.6915
28.9751 34.4707
29.0211 34.0758
29.0673 33.9532
29.1133 33.8422
29.1595 33.5857
29.2055 33.6932
29.2517 33.65
29.2977 33.694
29.3439 33.6234
29.3899 33.5368
29.4361 33.4115
29.4824 33.3596
29.5284 33.0128
29.5746 32.7282
29.6207 32.5278
29.6669 32.4654
29.713 32.3512
29.7593 32.1581
29.8053 32.2638
29.8516 32.1596
29.8977 32.0772
29.9439 31.976
29.99 32.0148
30.0363 31.7147
30.0824 31.8949
30.1287 31.7653
30.1748 31.8482
30.2211 31.7724
30.2673 31.6169
30.3136 31.6557
30.3597 31.636
30.406 31.6409
30.4522 31.4044
30.4985 31.4415
30.5447 31.6031
30.591 31.5078
30.6372 31.5894
30.6835 31.488
30.7297 31.6637
30.7761 31.4682
30.8224 31.3343
30.8686 31.2632
30.915 30.9447
30.9612 30.8391
31.0076 30.6785
31.0538 30.5438
31.1002 30.5706
31.1464 30.2234
31.1928 30.329
31.2391 30.3569
31.2855 30.2939
31.3317 30.1891
31.3781 30.3324
31.4244 30.2107
31.4708 30.1307
31.5171 30.21
31.5636 30.1697
31.6098 29.9493
31.6563 29.7461
31.7026 29.6159
31.7491 29.4918
31.7953 29.5441
31.8418 29.6466
31.8881 29.5874
31.9346 29.5719
31.9809 29.4793
32.0275 29.2404
32.074 29.1981
32.1203 28.9803
32.1668 28.8296
32.2132 28.7799
32.2597 28.6409
32.306 28.6377
32.3526 28.4485
32.399 28.4187
32.4455 28.2211
32.4919 28.2112
32.5385 28.0416
32.5848 27.8891
32.6314 28.0864
32.6778 27.8572
32.7244 27.712
32.7708 27.5961
32.8174 27.5322
32.8638 27.4224
32.9104 27.4776
32.9569 27.4231
33.0035 27.3573
33.0499 27.2946
33.0966 27.3367
33.143 27.2176
33.1897 27.2385
33.2361 27.1252
33.2828 27.0889
33.3293 26.9189
33.3759 26.8555
33.4226 26.7073
33.4691 26.5478
33.5158 26.5336
33.5623 26.3706
33.609 26.1616
33.6555 26.138
33.7022 26.0766
33.7487 25.9547
33.7954 25.9634
33.842 25.8815
33.8887 25.8231
33.9353 25.7171
33.982 25.614
34.0286 25.5546
34.0753 25.4855
34.1219 25.3242
34.1687 25.3235
34.2152 25.2233
34.262 25.0995
34.3086 25.0239
34.3554 25.0312
34.402 24.8254
34.4488 24.8156
34.4954 24.7392
34.5422 24.6779
34.5889 24.5609
34.6357 24.5301
34.6825 24.4627
34.7292 24.3644
34.776 24.2972
34.8227 24.2201
34.8695 24.178
34.9162 24.0137
34.9631 23.9327
35.0098 24.043
35.0566 23.8763
35.1033 23.8292
35.1502 23.7987
35.1969 23.6945
35.2438 23.6903
35.2906 23.7122
35.3375 23.5598
35.3842 23.5297
35.4311 23.5247
35.4779 23.4558
35.5248 23.4889
35.5716 23.349
35.6185 23.2529
35.6653 23.1462
35.7123 23.0783
35.759 23.0041
35.806 22.933
35.8528 22.7899
35.8998 22.8003
35.9468 22.7557
35.9936 22.5996
36.0406 22.543
36.0874 22.5076
36.1345 22.3965
36.1813 22.4318
36.2283 22.2711
36.2752 22.2311
36.3222 22.2095
36.3691 22.1059
36.4161 22.0262
36.463 22.021
36.5101 22.0642
36.557 21.9395
36.6041 21.8054
36.651 21.7238
36.6981 21.6793
36.745 21.5576
36.7921 21.5437
36.839 21.4367
36.8861 21.429
36.9331 21.3518
36.9802 21.2756
37.0272 21.2118
37.0743 21.1327
37.1213 21.0935
37.1684 21.07
37.2154 21.0005
37.2626 20.853
37.3098 20.7998
37.3568 20.6721
37.404 20.7172
37.451 20.5283
37.4982 20.6262
37.5452 20.4519
37.5924 20.3831
37.6395 20.4201
37.6867 20.3083
37.7337 20.2736
37.781 20.1338
37.8281 20.1029
37.8753 19.9928
37.9224 19.9422
37.9697 19.8315
38.0168 19.8323
38.064 19.7385
38.1111 19.776
38.1584 19.6527
38.2056 19.5441
38.2529 19.5914
38.3 19.5062
38.3473 19.3993
38.3945 19.2545
38.4418 19.2562
38.489 19.2698
38.5363 19.0926
38.5837 19.1127
38.6309 19.0325
38.6782 18.9108
38.7254 18.8651
38.7728 18.8005
38.82 18.7736
38.8674 18.6829
38.9146 18.6806
38.9621 18.5821
39.0093 18.5526
39.0567 18.5432
39.104 18.476
39.1514 18.4353
39.1987 18.3997
39.2461 18.2156
39.2934 18.1698
39.3409 18.1421
39.3882 18.0509
39.4356 18.0455
39.483 17.979
39.5304 17.9277
39.5778 17.8967
39.6253 17.8271
39.6726 17.7185
39.7201 17.7213
39.7675 17.6414
39.815 17.6426
39.8624 17.5398
39.9099 17.5197
39.9575 17.4113
40.0049 17.3482
40.0525 17.3231
40.0999 17.2825
40.1474 17.2383
40.1949 17.1173
40.2425 17.0657
40.2899 17.013
40.3375 16.93
40.385 16.9165
40.4326 16.8726
40.48 16.7708
40.5277 16.803
40.5752 16.7067
40.6228 16.6076
40.6703 16.6408
40.718 16.5291
40.7655 16.5134
40.8132 16.4253
40.8607 16.4023
40.9084 16.3661
40.9559 16.2716
41.0036 16.2628
41.0512 16.187
41.0989 16.1592
41.1465 16.0743
41.1942 16.0546
41.242 15.9961
41.2896 15.9147
41.3373 15.8911
41.3849 15.8441
41.4327 15.7996
41.4803 15.6851
41.5281 15.671
41.5758 15.7109
41.6236 15.4968
41.6712 15.4513
41.7191 15.4416
41.7667 15.3494
41.8146 15.41
41.8622 15.3042
41.9101 15.2174
41.9578 15.1464
42.0057 15.174
42.0534 15.0795
42.1013 15.0714
42.149 15.0045
42.1969 14.9099
42.2446 14.8357
42.2925 14.9072
42.3403 14.808
42.3882 14.7981
42.436 14.6703
42.4839 14.6098
42.5319 14.6135
42.5797 14.5556
42.6277 14.5031
42.6755 14.459
42.7235 14.3722
42.7713 14.3601
42.8193 14.3015
42.8671 14.2464
42.9152 14.2202
42.963 14.1986
43.0111 14.0707
43.0589 14.0745
43.107 14.0175
43.1549 13.9472
43.2029 13.9156
43.2508 13.8969
43.2989 13.7844
43.3468 13.724
43.3949 13.7404
43.4429 13.724
43.491 13.664
43.5389 13.5735
43.5871 13.5377
43.635 13.5032
43.6832 13.4231
43.7312 13.3784
43.7793 13.305
43.8273 13.2974
43.8755 13.2438
43.9237 13.2114
43.9717 13.1741
44.0199 13.1811
44.068 13.1036
44.1162 13.0218
44.1642 12.9822
44.2125 12.9754
44.2606 12.9011
44.3088 12.8734
44.3569 12.8329
44.4052 12.8004
44.4533 12.6948
44.5016 12.6456
44.5497 12.6273
44.598 12.576
44.6461 12.5475
44.6945 12.5097
44.7426 12.4455
44.791 12.3806
44.8391 12.3733
44.8875 12.3279
44.9357 12.3339
44.984 12.2057
45.0322 12.1946
45.0806 12.1386
45.1288 12.1361
45.1773 12.0959
45.2257 12.0351
45.2739 11.9484
45.3224 11.9754
45.3706 11.9171
45.4191 11.7884
45.4673 11.8083
45.5158 11.7608
45.5641 11.7075
45.6126 11.6696
45.6609 11.6235
45.7094 11.5817
45.7577 11.5895
45.8063 11.4858
45.8546 11.5243
45.9031 11.4243
45.9515 11.3803
46.0001 11.3613
46.0484 11.2828
46.097 11.2783
46.1454 11.2693
46.194 11.1881
46.2424 11.1451
46.291 11.0612
46.3395 11.0974
46.3881 11.0103
46.4365 11.0413
46.4852 10.935
46.5337 10.891
46.5823 10.8902
46.631 10.8008
46.6795 10.8388
46.7282 10.7522
46.7767 10.7566
46.8254 10.677
46.8739 10.6184
46.9226 10.5971
46.9712 10.5538
47.0199 10.5113
47.0685 10.4732
47.1173 10.4316
47.1658 10.4051
47.2146 10.3806
47.2632 10.3344
47.312 10.3187
47.3606 10.2607
47.4095 10.1705
47.4581 10.1467
47.5069 10.1319
47.5556 10.0945
47.6044 10.0502
47.6531 9.99275
47.702 9.96985
47.7507 9.9802
47.7996 9.89288
47.8483 9.87834
47.8972 9.87667
47.9461 9.82076
47.9948 9.71577
48.0438 9.7519
48.0925 9.72192
48.1415 9.68178
48.1902 9.62499
48.2392 9.61919
48.288 9.59513
48.337 9.52432
48.3858 9.45597
48.4348 9.45878
48.4837 9.46265
48.5327 9.38865
48.5815 9.3428
48.6306 9.35368
48.6795 9.29288
48.7285 9.28731
48.7774 9.22399
48.8265 9.18081
48.8754 9.13286
48.9245 9.1152
48.9734 9.10308
49.0226 9.08758
49.0715 9.00069
49.1206 8.98559
49.1696 8.94731
49.2188 8.87934
49.2679 8.88982
49.3169 8.78878
49.3661 8.7856
49.4151 8.79104
49.4643 8.71922
49.5134 8.6932
49.5626 8.65794
49.6117 8.63289
49.6609 8.59829
49.71 8.57325
49.7592 8.5598
49.8083 8.47933
49.8576 8.47081
49.9067 8.4238
49.956 8.40919
50.0052 8.39334
50.0545 8.35581
50.1036 8.29406
50.153 8.25254
50.2022 8.22573
50.2515 8.22563
50.3007 8.17361
50.3501 8.15898
50.3993 8.11775
50.4487 8.06357
50.498 8.04326
50.5474 8.01818
50.5966 7.98442
50.6461 7.98204
50.6955 7.91304
50.7448 7.86947
50.7943 7.85579
50.8436 7.84611
50.8931 7.81673
50.9424 7.77489
50.9919 7.76341
51.0413 7.70845
51.0908 7.70728
51.1402 7.70301
51.1897 7.60242
51.2391 7.60783
51.2887 7.58409
51.3381 7.49458
51.3877 7.50879
51.4371 7.50752
51.4867 7.42734
51.5362 7.43522
51.5858 7.39018
51.6353 7.33364
51.6849 7.329
51.7344 7.32494
51.7841 7.3139
51.8336 7.22342
51.8833 7.23412
51.9328 7.16012
51.9826 7.17029
52.0323 7.11011
52.0818 7.09959
52.1316 7.04384
52.1812 7.04282
52.231 6.97888
52.2806 6.98243
52.3304 6.96673
52.38 6.91164
52.4298 6.85566
52.4794 6.85909
52.5293 6.85192
52.5789 6.83153
52.6288 6.78976
52.6785 6.72937
52.7284 6.73788
52.7781 6.70086
52.828 6.66313
52.8777 6.60059
52.9276 6.59129
52.9774 6.59309
53.0273 6.53429
53.0771 6.48672
53.1271 6.50751
53.1769 6.47958
53.2269 6.45353
53.2767 6.44238
53.3267 6.34341
53.3765 6.37924
53.4266 6.35865
53.4766 6.32813
53.5265 6.27127
53.5765 6.27556
53.6264 6.24439
53.6765 6.21907
53.7264 6.15504
53.7765 6.15696
53.8265 6.15746
53.8766 6.07224
53.9266 6.08601
53.9767 5.98437
54.0267 6.05317
54.0769 6.0063
54.1269 5.93245
54.1771 5.89844
54.2271 5.85122
54.2773 5.81472
54.3274 5.84348
54.3776 5.81693
54.4277 5.79405
54.478 5.80536
54.528 5.72782
54.5783 5.63632
54.6285 5.63829
54.6788 5.55345
54.7289 5.61007
54.7792 5.53351
54.8296 5.4633
54.8798 5.44801
54.9301 5.4149
54.9803 5.32343
55.0307 5.3419
55.0809 5.28855
55.1314 5.22647
55.1816 5.21034
55.232 5.12931
55.2823 5.11541
55.3328 5.07207
55.383 5.04719
55.4335 4.95629
55.4838 4.93158
55.5344 4.8911
55.5847 4.82605
55.6352 4.81096
55.6856 4.71148
55.7361 4.74496