File: XRD/Ni3Fe_FD0053.xy
TT I
1.27165 33.2575
1.31627 30.6492
1.36089 30.1921
1.40551 28.2267
1.45013 26.6115
1.49476 25.4791
1.53938 24.8296
1.584 23.7556
1.62863 23.3058
1.67325 22.5159
1.71787 21.4712
1.7625 21.7594
1.80712 21.1901
1.85174 21.1523
1.89636 20.4472
1.94099 20.9988
1.98562 21.2681
2.03025 20.9303
2.07487 20.7706
2.11949 21.0767
2.16411 20.9086
2.20874 21.0573
2.25338 20.6077
2.298 21.2711
2.34263 21.6868
2.38725 21.1543
2.43188 21.182
2.4765 21.9321
2.52115 22.3487
2.56577 22.1583
2.6104 23.9297
2.65503 24.8901
2.69965 25.9181
2.7443 26.9329
2.78893 29.5363
2.83356 32.8542
2.87818 37.1808
2.92281 41.3819
2.96744 46.6165
3.01209 55.5065
3.05672 63.8761
3.10135 73.0337
3.14599 76.908
3.19062 74.3409
3.23527 66.7988
3.2799 55.7996
3.32454 46.4669
3.36917 38.9662
3.4138 34.425
3.45844 31.0455
3.50309 29.4028
3.54773 28.0417
3.59237 27.2808
3.637 26.5597
3.68164 26.008
3.7263 25.7142
3.77094 26.0179
3.81558 26.1328
3.86022 25.9542
3.90486 26.9977
3.9495 27.2217
3.99416 27.5037
4.0388 27.8043
4.08344 28.7626
4.12809 29.2241
4.17273 30.6045
4.21738 32.2655
4.26204 34.0306
4.30669 37.5476
4.35133 41.7195
4.39598 39.9741
4.44063 38.1655
4.4853 37.6022
4.52995 38.7393
4.5746 39.8691
4.61925 40.7814
4.6639 42.8153
4.70855 44.8853
4.75322 47.4018
4.79788 50.8896
4.84253 55.0922
4.88719 60.8254
4.93184 68.7633
4.97652 83.0404
5.02118 104.873
5.06583 122.019
5.11049 141.738
5.15515 188.083
5.19981 314.241
5.24449 723.507
5.28916 1647.56
5.33382 4103.78
5.37848 3114.72
5.42315 796.439
5.46783 303.027
5.5125 194.742
5.55716 150.598
5.60183 126.386
5.6465 115.547
5.69117 110.068
5.73586 103.022
5.78053 100.46
5.8252 101.717
5.86988 107.454
5.91455 118.684
5.95924 142.671
6.00392 199.399
6.0486 334.922
6.09328 573.8
6.13795 1053.12
6.18263 1109.64
6.22733 489.94
6.27201 218.419
6.3167 129.637
6.36138 92.0943
6.40606 73.6533
6.45075 64.3911
6.49545 57.9191
6.54014 52.9578
6.58483 49.8787
6.62952 47.3688
6.67421 45.3171
6.71892 44.0359
6.76361 42.7877
6.8083 42.1209
6.853 41.5558
6.89769 41.3142
6.94239 41.201
6.98711 40.743
7.03181 42.4758
7.07651 45.3342
7.12121 46.3948
7.16591 43.2542
7.21063 40.7404
7.25533 39.5132
7.30004 39.1904
7.34475 39.4691
7.38945 39.3636
7.43416 40.0304
7.47889 42.8463
7.5236 59.5178
7.56831 169.703
7.61303 170.447
7.65774 63.3524
7.70247 43.6698
7.74719 40.4137
7.79191 39.1012
7.83663 38.6143
7.88135 38.7661
7.92607 38.9736
7.97081 39.6749
8.01553 40.0015
8.06026 40.7866
8.10498 41.7808
8.14971 42.8314
8.19446 44.3795
8.23919 46.6901
8.28392 49.7008
8.32865 52.4267
8.37339 56.1781
8.41812 59.2744
8.46288 67.4276
8.50761 83.4891
8.55235 124.615
8.59709 186.788
8.64183 276.954
8.68658 581.635
8.73134 739.451
8.77609 364.698
8.82083 165.357
8.86558 103.777
8.91033 83.9964
8.9551 74.44
8.99985 69.5799
9.04461 66.8871
9.08936 65.2696
9.13412 65.2324
9.17888 69.2859
9.22365 92.6736
9.26841 257.545
9.31318 325.63
9.35794 121.137
9.4027 71.0845
9.44749 62.2101
9.49226 58.8277
9.53703 57.7883
9.5818 57.3072
9.62657 57.0734
9.67134 57.4987
9.71614 58.4394
9.76091 59.6827
9.80569 61.482
9.85047 63.809
9.89525 67.5447
9.94005 74.1795
9.98484 87.206
10.0296 120.385
10.0744 166.309
10.1192 210.748
10.164 360.145
10.2088 690.635
10.2536 617.308
10.2984 272.821
10.3432 145.229
10.388 99.6616
10.4328 85.2547
10.4776 84.8191
10.5224 92.5655
10.5672 98.8853
10.612 131.44
10.6568 226.119
10.7017 269.855
10.7465 196.602
10.7913 99.6928
10.8361 64.3886
10.8809 55.7508
10.9257 52.0401
10.9706 49.8572
11.0154 47.6173
11.0602 46.041
11.105 45.1497
11.1499 44.1661
11.1947 43.9069
11.2395 43.6677
11.2844 42.8361
11.3292 42.041
11.374 41.0107
11.4189 40.5606
11.4637 40.2672
11.5086 39.7026
11.5534 39.3183
11.5983 39.4696
11.6431 39.5016
11.688 39.305
11.7328 39.389
11.7777 39.8039
11.8225 39.8308
11.8674 41.0059
11.9122 44.6894
11.9571 67.2007
12.002 115.467
12.0468 91.6057
12.0917 54.1717
12.1366 49.2085
12.1814 50.5407
12.2263 54.5661
12.2712 66.0788
12.3161 85.4125
12.3609 85.4094
12.4058 64.4698
12.4507 50.8493
12.4956 45.3927
12.5405 42.278
12.5853 41.298
12.6302 40.1148
12.6751 40.2061
12.72 40.0252
12.7649 40.3322
12.8098 40.3899
12.8547 41.2504
12.8996 41.7149
12.9445 42.3326
12.9894 43.4915
13.0343 44.8162
13.0792 48.2969
13.1242 58.1088
13.1691 68.2881
13.214 66.6073
13.2589 68.9013
13.3038 73.3992
13.3487 88.1629
13.3937 130.586
13.4386 189.132
13.4835 172.664
13.5285 113.12
13.5734 88.2658
13.6183 80.5896
13.6633 79.8509
13.7082 95.0353
13.7531 139.282
13.7981 183.362
13.843 141.128
13.888 85.6477
13.9329 62.8153
13.9779 54.6775
14.0228 51.1343
14.0678 49.3252
14.1127 50.6421
14.1577 65.1715
14.2027 101.612
14.2476 94.561
14.2926 57.6861
14.3376 47.0696
14.3825 44.0277
14.4275 42.9333
14.4725 42.411
14.5175 42.0632
14.5624 41.8147
14.6074 41.5468
14.6524 41.7721
14.6974 41.7069
14.7424 42.234
14.7874 43.1422
14.8324 45.6481
14.8774 49.1562
14.9224 51.5452
14.9674 53.3284
15.0124 59.7861
15.0574 77.9696
15.1024 105.078
15.1474 106.436
15.1924 81.0743
15.2374 60.2278
15.2824 49.8134
15.3274 44.9735
15.3725 43.1518
15.4175 42.0553
15.4625 41.4352
15.5076 41.1665
15.5526 41.0171
15.5976 40.9508
15.6426 40.9195
15.6877 41.5715
15.7327 43.1267
15.7778 45.8451
15.8228 48.1787
15.8679 49.7594
15.9129 53.2873
15.958 64.8422
16.003 86.9427
16.0481 104.765
16.0931 96.9686
16.1382 79.2114
16.1833 58.7098
16.2283 45.1929
16.2734 40.6949
16.3185 38.5301
16.3636 37.0571
16.4086 36.378
16.4537 35.7109
16.4988 35.2491
16.5439 35.0003
16.589 34.4631
16.6341 34.3154
16.6792 34.0915
16.7243 34.148
16.7694 34.0461
16.8145 34.0148
16.8596 34.0831
16.9047 34.6408
16.9498 37.6825
16.9949 42.8483
17.04 42.0467
17.0851 36.9613
17.1302 35.2286
17.1754 35.5795
17.2205 35.7934
17.2656 36.1746
17.3108 36.8093
17.3559 38.1773
17.401 41.2588
17.4462 46.3403
17.4913 48.3053
17.5365 43.8013
17.5815 39.4586
17.6268 37.7979
17.6718 36.8281
17.7171 36.9589
17.7622 38.4021
17.8074 42.6262
17.8525 45.3918
17.8977 42.9016
17.9428 41.3231
17.9881 42.1038
18.0331 43.4039
18.0784 43.9549
18.1237 45.9917
18.1688 51.019
18.214 62.7372
18.2591 79.0047
18.3044 81.2666
18.3495 66.7682
18.3948 54.4692
18.4399 52.1648
18.4852 56.2128
18.5303 63.4775
18.5756 62.0452
18.6207 55.3229
18.666 48.5309
18.7112 42.4899
18.7565 39.3163
18.8016 38.1778
18.8469 37.4127
18.892 36.8731
18.9374 36.2385
18.9825 35.9591
19.0278 35.6565
19.073 35.4613
19.1183 35.4157
19.1635 35.467
19.2088 35.95
19.254 36.6083
19.2993 37.3334
19.3447 40.9227
19.3898 47.3444
19.4352 49.311
19.4804 45.5512
19.5257 44.9318
19.5709 44.411
19.6163 41.1684
19.6615 37.4082
19.7068 35.2948
19.752 34.5651
19.7974 33.811
19.8426 33.669
19.888 33.4146
19.9332 33.587
19.9786 33.859
20.0238 33.7244
20.0692 33.8067
20.1144 34.2917
20.1598 35.7006
20.205 37.8551
20.2504 41.3078
20.2957 42.59
20.3411 40.2837
20.3863 37.9193
20.4318 37.7845
20.477 39.4254
20.5224 40.5743
20.5677 38.5207
20.6131 35.43
20.6586 33.451
20.7038 32.5946
20.7493 32.1622
20.7945 33.0726
20.84 35.0843
20.8853 35.4297
20.9307 33.0035
20.976 31.3907
21.0215 30.5932
21.0668 30.3952
21.1122 30.3378
21.1575 30.3222
21.203 30.2989
21.2483 30.1606
21.2938 30.3977
21.3391 30.7224
21.3846 31.3428
21.4299 32.0291
21.4754 32.3192
21.5207 31.9887
21.5662 31.5634
21.6116 30.9914
21.6571 30.6781
21.7024 30.649
21.7479 31.1287
21.7933 31.4948
21.8388 31.6067
21.8843 31.9082
21.9297 32.3423
21.9752 33.6957
22.0206 35.905
22.0661 38.706
22.1115 40.9468
22.157 40.5081
22.2024 39.3792
22.248 38.4106
22.2933 37.4433
22.3389 36.1951
22.3843 34.6165
22.4299 32.8766
22.4753 31.7344
22.5208 31.2416
22.5662 30.9
22.6118 30.8542
22.6572 30.7401
22.7028 30.6968
22.7483 30.8694
22.7939 31.3133
22.8393 32.214
22.8849 32.8536
22.9303 32.2993
22.9759 31.9497
23.0214 31.8855
23.067 32.9289
23.1126 34.6436
23.1581 36.7821
23.2037 37.1158
23.2492 35.2116
23.2948 33.0455
23.3403 31.9865
23.3859 31.84
23.4314 32.2823
23.477 33.4855
23.5225 34.0813
23.5682 33.4177
23.6137 32.692
23.6593 32.493
23.7048 33.7062
23.7505 35.8828
23.796 37.4579
23.8417 36.6795
23.8872 33.7873
23.9329 31.6552
23.9784 30.4199
24.0241 30.03
24.0697 29.6662
24.1154 29.5065
24.1609 29.2501
24.2066 28.8646
24.2522 28.4347
24.2979 28.0546
24.3434 27.9738
24.3892 27.8276
24.4349 27.5345
24.4805 27.3115
24.5262 27.2978
24.5718 27.3153
24.6175 27.3184
24.6631 27.89
24.7089 28.238
24.7545 28.6207
24.8002 28.2266
24.8458 27.5677
24.8916 27.003
24.9372 27.0054
24.983 27.0303
25.0286 26.9346
25.0744 26.9123
25.12 26.9681
25.1658 27.0768
25.2114 27.1712
25.2572 27.5189
25.3029 28.0934
25.3487 28.5679
25.3943 28.6615
25.4402 28.3759
25.4858 28.5781
25.5316 28.9396
25.5773 29.1276
25.6231 28.7092
25.669 27.6861
25.7147 26.9967
25.7605 26.524
25.8062 26.5021
25.8521 26.6883
25.8977 26.8071
25.9436 26.7857
25.9893 26.2397
26.0352 26.1273
26.0809 25.8729
26.1268 25.8691
26.1725 25.9714
26.2184 26.3194
26.2641 26.6249
26.31 26.9176
26.3557 27.0642
26.4017 26.6513
26.4474 26.4681
26.4933 26.1838
26.5391 26.07
26.585 25.9176
26.6308 25.8968
26.6767 25.966
26.7225 26.1211
26.7684 26.3753
26.8142 26.9769
26.8601 27.5025
26.9059 27.8354
26.9519 27.6568
26.9979 27.6537
27.0437 27.5444
27.0896 26.9897
27.1354 26.4075
27.1814 25.8096
27.2272 25.5103
27.2732 25.3604
27.3191 25.1357
27.3651 25.1003
27.4109 24.9607
27.4569 24.884
27.5027 24.8369
27.5488 24.9683
27.5946 25.0303
27.6407 24.8362
27.6865 24.9127
27.7326 25.0293
27.7784 25.0787
27.8245 24.959
27.8703 24.8956
27.9164 24.7376
27.9623 24.5727
28.0084 24.8197
28.0543 25.1394
28.1003 25.3259
28.1462 25.2375
28.1923 25.1922
28.2384 25.2546
28.2843 25.7779
28.3304 25.685
28.3764 25.5393
28.4225 25.2557
28.4684 25.0532
28.5145 24.5975
28.5605 24.4083
28.6066 24.0995
28.6526 24.0389
28.6987 23.7043
28.7447 23.4667
28.7908 23.2497
28.8368 23.1586
28.8829 23.0694
28.9289 22.9297
28.9751 22.8877
29.0211 22.8243
29.0673 22.7195
29.1133 22.9752
29.1595 23.029
29.2055 22.8551
29.2517 22.6466
29.2977 22.4632
29.3439 22.3484
29.3899 22.228
29.4361 22.1189
29.4824 22.0678
29.5284 22.0895
29.5746 22.1657
29.6207 22.1084
29.6669 22.1269
29.713 21.9443
29.7593 21.8624
29.8053 21.7186
29.8516 21.5562
29.8977 21.5049
29.9439 21.4059
29.99 21.3897
30.0363 21.3213
30.0824 21.3876
30.1287 21.4488
30.1748 21.5454
30.2211 21.3503
30.2673 21.1448
30.3136 21.1395
30.3597 21.166
30.406 21.2301
30.4522 21.1966
30.4985 21.1222
30.5447 21.0639
30.591 21.0226
30.6372 20.9905
30.6835 20.9446
30.7297 20.9362
30.7761 20.9299
30.8224 20.8689
30.8686 21.0259
30.915 21.1743
30.9612 21.2534
31.0076 21.2788
31.0538 21.2575
31.1002 21.1216
31.1464 21.0305
31.1928 20.8212
31.2391 20.7228
31.2855 20.5742
31.3317 20.438
31.3781 20.4371
31.4244 20.3155
31.4708 20.3158
31.5171 20.2562
31.5636 20.4119
31.6098 20.277
31.6563 20.2866
31.7026 20.3795
31.7491 20.4076
31.7953 20.4199
31.8418 20.1933
31.8881 20.0511
31.9346 19.9631
31.9809 19.9037
32.0275 19.9133
32.074 19.8689
32.1203 19.943
32.1668 19.973
32.2132 19.8626
32.2597 19.784
32.306 19.8491
32.3526 19.6484
32.399 19.5275
32.4455 19.4284
32.4919 19.3638
32.5385 19.2361
32.5848 19.0493
32.6314 19.0416
32.6778 19.0229
32.7244 18.8975
32.7708 18.7755
32.8174 18.815
32.8638 18.6576
32.9104 18.7323
32.9569 18.7212
33.0035 18.6604
33.0499 18.6177
33.0966 18.5574
33.143 18.5137
33.1897 18.3632
33.2361 18.3411
33.2828 18.3011
33.3293 18.2223
33.3759 18.3171
33.4226 18.3344
33.4691 18.3082
33.5158 18.2422
33.5623 18.2447
33.609 18.1411
33.6555 18.0187
33.7022 17.9085
33.7487 17.7289
33.7954 17.7164
33.842 17.6155
33.8887 17.7199
33.9353 17.6033
33.982 17.457
34.0286 17.493
34.0753 17.3997
34.1219 17.3695
34.1687 17.3735
34.2152 17.3536
34.262 17.1967
34.3086 17.1327
34.3554 17.1153
34.402 17.0061
34.4488 16.969
34.4954 16.933
34.5422 16.8466
34.5889 16.8623
34.6357 16.7946
34.6825 16.8015
34.7292 16.6659
34.776 16.6155
34.8227 16.5786
34.8695 16.4558
34.9162 16.4941
34.9631 16.3868
35.0098 16.3572
35.0566 16.2921
35.1033 16.3032
35.1502 16.2402
35.1969 16.1549
35.2438 16.1797
35.2906 16.0927
35.3375 16.0868
35.3842 16.0235
35.4311 16.0449
35.4779 16.0333
35.5248 16.0244
35.5716 15.9148
35.6185 16.0334
35.6653 15.9552
35.7123 15.9891
35.759 15.9501
35.806 15.9495
35.8528 15.7658
35.8998 15.7664
35.9468 15.707
35.9936 15.6353
36.0406 15.5414
36.0874 15.4842
36.1345 15.4716
36.1813 15.444
36.2283 15.3924
36.2752 15.3037
36.3222 15.3492
36.3691 15.2328
36.4161 15.2098
36.463 15.1514
36.5101 15.1805
36.557 15.1402
36.6041 14.9476
36.651 15.0335
36.6981 14.9397
36.745 14.9047
36.7921 14.933
36.839 14.8608
36.8861 14.7813
36.9331 14.7039
36.9802 14.7687
37.0272 14.6713
37.0743 14.6296
37.1213 14.6053
37.1684 14.5006
37.2154 14.403
37.2626 14.3742
37.3098 14.4464
37.3568 14.2947
37.404 14.3093
37.451 14.172
37.4982 14.1586
37.5452 14.0823
37.5924 14.0995
37.6395 14.1154
37.6867 14.0364
37.7337 13.9682
37.781 13.9422
37.8281 13.8603
37.8753 13.8715
37.9224 13.8029
37.9697 13.7635
38.0168 13.7376
38.064 13.687
38.1111 13.7006
38.1584 13.5071
38.2056 13.5371
38.2529 13.4881
38.3 13.4592
38.3473 13.4338
38.3945 13.3907
38.4418 13.3628
38.489 13.344
38.5363 13.3099
38.5837 13.2341
38.6309 13.2383
38.6782 13.1099
38.7254 13.056
38.7728 13.066
38.82 13.0414
38.8674 13.0016
38.9146 12.954
38.9621 12.8447
39.0093 12.9524
39.0567 12.9005
39.104 12.7615
39.1514 12.7637
39.1987 12.7192
39.2461 12.6882
39.2934 12.6304
39.3409 12.577
39.3882 12.5617
39.4356 12.517
39.483 12.4865
39.5304 12.4257
39.5778 12.4329
39.6253 12.3855
39.6726 12.3356
39.7201 12.3191
39.7675 12.2544
39.815 12.2312
39.8624 12.148
39.9099 12.1261
39.9575 12.0745
40.0049 12.091
40.0525 12.0641
40.0999 12.0828
40.1474 11.9988
40.1949 11.9842
40.2425 11.8858
40.2899 11.8851
40.3375 11.8699
40.385 11.7932
40.4326 11.8065
40.48 11.6831
40.5277 11.6534
40.5752 11.695
40.6228 11.6376
40.6703 11.607
40.718 11.5517
40.7655 11.5342
40.8132 11.4743
40.8607 11.4979
40.9084 11.5011
40.9559 11.3937
41.0036 11.413
41.0512 11.358
41.0989 11.3157
41.1465 11.2523
41.1942 11.2872
41.242 11.1735
41.2896 11.1391
41.3373 11.0971
41.3849 11.0815
41.4327 11.0012
41.4803 10.9993
41.5281 10.9752
41.5758 10.9191
41.6236 10.9323
41.6712 10.8458
41.7191 10.8365
41.7667 10.8277
41.8146 10.7651
41.8622 10.6915
41.9101 10.6565
41.9578 10.6711
42.0057 10.6201
42.0534 10.5905
42.1013 10.5833
42.149 10.5219
42.1969 10.5379
42.2446 10.4522
42.2925 10.4284
42.3403 10.4487
42.3882 10.4045
42.436 10.3414
42.4839 10.2992
42.5319 10.2767
42.5797 10.189
42.6277 10.1812
42.6755 10.1984
42.7235 10.1142
42.7713 10.0886
42.8193 10.0379
42.8671 10.0247
42.9152 9.99087
42.963 9.98712
43.0111 9.93557
43.0589 9.92299
43.107 9.85834
43.1549 9.84793
43.2029 9.76869
43.2508 9.77283
43.2989 9.70088
43.3468 9.67163
43.3949 9.6598
43.4429 9.63252
43.491 9.56536
43.5389 9.56349
43.5871 9.5278
43.635 9.51057
43.6832 9.47432
43.7312 9.47628
43.7793 9.39363
43.8273 9.41508
43.8755 9.35975
43.9237 9.32061
43.9717 9.29038
44.0199 9.28157
44.068 9.2374
44.1162 9.17212
44.1642 9.20585
44.2125 9.18492
44.2606 9.09959
44.3088 9.06957
44.3569 9.01525
44.4052 9.02277
44.4533 9.01499
44.5016 8.94
44.5497 8.94455
44.598 8.876
44.6461 8.86654
44.6945 8.8538
44.7426 8.81164
44.791 8.78309
44.8391 8.77773
44.8875 8.71913
44.9357 8.70707
44.984 8.62482
45.0322 8.62698
45.0806 8.58548
45.1288 8.58951
45.1773 8.57557
45.2257 8.54607
45.2739 8.51036
45.3224 8.48443
45.3706 8.44267
45.4191 8.38685
45.4673 8.37585
45.5158 8.3885
45.5641 8.27866
45.6126 8.2578
45.6609 8.26708
45.7094 8.23089
45.7577 8.20968
45.8063 8.13618
45.8546 8.13948
45.9031 8.13364
45.9515 8.1036
46.0001 8.08736
46.0484 8.04132
46.097 7.99952
46.1454 7.9994
46.194 7.95908
46.2424 7.92878
46.291 7.89859
46.3395 7.83759
46.3881 7.82822
46.4365 7.81323
46.4852 7.77039
46.5337 7.77508
46.5823 7.74768
46.631 7.6876
46.6795 7.68327
46.7282 7.67364
46.7767 7.64206
46.8254 7.61132
46.8739 7.57643
46.9226 7.58211
46.9712 7.51704
47.0199 7.4953
47.0685 7.46877
47.1173 7.4141
47.1658 7.42096
47.2146 7.41172
47.2632 7.35919
47.312 7.34808
47.3606 7.28626
47.4095 7.28998
47.4581 7.26831
47.5069 7.22319
47.5556 7.19873
47.6044 7.14995
47.6531 7.15896
47.702 7.11372
47.7507 7.10798
47.7996 7.06782
47.8483 7.06445
47.8972 7.04762
47.9461 6.99806
47.9948 6.98372
48.0438 6.93095
48.0925 6.91374
48.1415 6.90787
48.1902 6.86294
48.2392 6.86536
48.288 6.83398
48.337 6.80899
48.3858 6.76277
48.4348 6.75371
48.4837 6.74137
48.5327 6.74164
48.5815 6.71152
48.6306 6.66611
48.6795 6.65638
48.7285 6.63748
48.7774 6.60689
48.8265 6.57855
48.8754 6.57133
48.9245 6.52105
48.9734 6.48276
49.0226 6.50455
49.0715 6.4389
49.1206 6.41496
49.1696 6.37638
49.2188 6.40515
49.2679 6.36981
49.3169 6.3283
49.3661 6.28558
49.4151 6.2705
49.4643 6.28906
49.5134 6.22644
49.5626 6.1979
49.6117 6.1941
49.6609 6.2177
49.71 6.16753
49.7592 6.09822
49.8083 6.08219
49.8576 6.09596
49.9067 6.05077
49.956 6.03467
50.0052 6.02482
50.0545 6.0305
50.1036 5.98835
50.153 5.9693
50.2022 5.93465
50.2515 5.9035
50.3007 5.88661
50.3501 5.88462
50.3993 5.85458
50.4487 5.82038
50.498 5.79476
50.5474 5.79356
50.5966 5.752
50.6461 5.7391
50.6955 5.74247
50.7448 5.72222
50.7943 5.68723
50.8436 5.6725
50.8931 5.65295
50.9424 5.63034
50.9919 5.58412
51.0413 5.59212
51.0908 5.55537
51.1402 5.53556
51.1897 5.50949
51.2391 5.51725
51.2887 5.42978
51.3381 5.46282
51.3877 5.43661
51.4371 5.3869
51.4867 5.38162
51.5362 5.37484
51.5858 5.33073
51.6353 5.30254
51.6849 5.29836
51.7344 5.28211
51.7841 5.27037
51.8336 5.24609
51.8833 5.20685
51.9328 5.20975
51.9826 5.17807
52.0323 5.17084
52.0818 5.1197
52.1316 5.09571
52.1812 5.12109
52.231 5.07374
52.2806 5.04767
52.3304 5.06331
52.38 5.02131
52.4298 4.99659
52.4794 4.96854
52.5293 4.94752
52.5789 4.97796
52.6288 4.92561
52.6785 4.87075
52.7284 4.89136
52.7781 4.83499
52.828 4.84619
52.8777 4.84704
52.9276 4.79162
52.9774 4.81173
53.0273 4.77577
53.0771 4.78872
53.1271 4.74704
53.1769 4.71151
53.2269 4.68579
53.2767 4.66979
53.3267 4.65921
53.3765 4.65357
53.4266 4.62405
53.4766 4.60275
53.5265 4.58888
53.5765 4.53496
53.6264 4.54267
53.6765 4.56761
53.7264 4.52003
53.7765 4.50422
53.8265 4.50429
53.8766 4.43839
53.9266 4.4223
53.9767 4.43583
54.0267 4.37104
54.0769 4.35629
54.1269 4.33321
54.1771 4.29187
54.2271 4.27418
54.2773 4.23369
54.3274 4.19822
54.3776 4.19419
54.4277 4.19031
54.478 4.15853
54.528 4.12614
54.5783 4.06359
54.6285 4.0346
54.6788 4.02263
54.7289 3.97406
54.7792 3.9412
54.8296 3.90286
54.8798 3.89381
54.9301 3.85817
54.9803 3.79705
55.0307 3.82467
55.0809 3.81491
55.1314 3.72958
55.1816 3.71643
55.232 3.62178
55.2823 3.62252
55.3328 3.6071
55.383 3.55576
55.4335 3.53348
55.4838 3.48415
55.5344 3.42223
55.5847 3.43128
55.6352 3.4015
55.6856 3.36795
55.7361 3.35702