File: XRD/Ni3Fe_FD0666.xy
TT I
1.27165 6.88357
1.31627 6.55227
1.36089 6.57083
1.40551 6.27778
1.45013 6.09533
1.49476 5.49925
1.53938 5.61791
1.584 5.64045
1.62863 5.28783
1.67325 5.21175
1.71787 5.46719
1.7625 4.81026
1.80712 4.66344
1.85174 5.01558
1.89636 4.70402
1.94099 5.27648
1.98562 5.36094
2.03025 4.76171
2.07487 4.88353
2.11949 5.09864
2.16411 4.68758
2.20874 13.1428
2.25338 18.7254
2.298 6.2269
2.34263 6.12816
2.38725 5.81652
2.43188 6.12924
2.4765 6.78747
2.52115 6.81687
2.56577 7.23858
2.6104 7.90132
2.65503 7.43559
2.69965 8.08856
2.7443 8.42018
2.78893 8.56146
2.83356 7.96784
2.87818 9.53513
2.92281 8.87587
2.96744 9.5953
3.01209 10.4526
3.05672 11.1912
3.10135 11.9886
3.14599 13.1231
3.19062 14.2538
3.23527 15.3156
3.2799 15.7034
3.32454 16.6787
3.36917 17.8883
3.4138 18.9332
3.45844 19.6328
3.50309 21.0628
3.54773 21.8479
3.59237 23.8686
3.637 81.026
3.68164 52.4496
3.7263 25.8271
3.77094 26.1477
3.81558 26.9093
3.86022 27.4892
3.90486 29.0472
3.9495 29.9573
3.99416 30.8331
4.0388 32.5335
4.08344 33.4064
4.12809 34.804
4.17273 36.5482
4.21738 42.1239
4.26204 213.952
4.30669 182.918
4.35133 47.4842
4.39598 44.0505
4.44063 52.225
4.4853 61.8855
4.52995 49.8205
4.5746 51.1815
4.61925 53.3791
4.6639 54.9901
4.70855 58.1998
4.75322 60.8014
4.79788 63.9651
4.84253 67.5122
4.88719 71.6881
4.93184 75.2368
4.97652 81.019
5.02118 87.0289
5.06583 94.9073
5.11049 105.771
5.15515 166.847
5.19981 359.627
5.24449 2915.84
5.28916 12551.3
5.33382 2834.7
5.37848 181.448
5.42315 127.169
5.46783 112.985
5.5125 105.269
5.55716 102.048
5.60183 98.5058
5.6465 96.7633
5.69117 94.0723
5.73586 91.8781
5.78053 91.7325
5.8252 91.0301
5.86988 92.0923
5.91455 94.7608
5.95924 103.447
6.00392 212.381
6.0486 988.819
6.09328 4493.4
6.13795 3240.37
6.18263 219.232
6.22733 91.7844
6.27201 82.4814
6.3167 97.358
6.36138 78.8146
6.40606 68.8368
6.45075 66.9814
6.49545 65.4115
6.54014 63.7525
6.58483 62.6453
6.62952 62.3756
6.67421 88.771
6.71892 128.6
6.76361 66.6006
6.8083 58.0828
6.853 56.9939
6.89769 56.7379
6.94239 56.8054
6.98711 55.6629
7.03181 55.2858
7.07651 54.9956
7.12121 54.8661
7.16591 54.9589
7.21063 54.7089
7.25533 68.0384
7.30004 157.226
7.34475 84.7107
7.38945 56.049
7.43416 54.5411
7.47889 54.2289
7.5236 54.5894
7.56831 55.3867
7.61303 56.749
7.65774 56.7089
7.70247 55.9064
7.74719 55.812
7.79191 56.5127
7.83663 57.0807
7.88135 57.9
7.92607 58.4174
7.97081 59.8748
8.01553 60.8937
8.06026 61.9228
8.10498 63.4625
8.14971 71.8627
8.19446 71.3032
8.23919 69.4107
8.28392 71.8631
8.32865 74.4699
8.37339 78.3437
8.41812 85.221
8.46288 111.188
8.50761 168.71
8.55235 398.618
8.59709 1201.28
8.64183 2171.38
8.68658 915.632
8.73134 153.838
8.77609 98.6239
8.82083 92.158
8.86558 89.0136
8.91033 89.0413
8.9551 90.235
8.99985 84.9408
9.04461 83.3177
9.08936 82.3998
9.13412 81.9762
9.17888 81.7493
9.22365 82.3312
9.26841 82.0885
9.31318 82.3739
9.35794 82.4561
9.4027 83.0644
9.44749 83.7352
9.49226 84.4718
9.53703 85.2073
9.5818 87.1334
9.62657 91.2066
9.67134 96.8474
9.71614 93.524
9.76091 93.9758
9.80569 96.7596
9.85047 99.7392
9.89525 120.214
9.94005 133.708
9.98484 180.569
10.0296 353.66
10.0744 831.212
10.1192 1795.37
10.164 1576.07
10.2088 369.816
10.2536 123.321
10.2984 111.791
10.3432 112.788
10.388 104.112
10.4328 119.093
10.4776 162.692
10.5224 286.709
10.5672 512.704
10.612 497.697
10.6568 189.386
10.7017 94.6249
10.7465 86.0338
10.7913 83.1091
10.8361 80.8551
10.8809 78.6431
10.9257 77.8166
10.9706 78.3736
11.0154 74.5134
11.0602 72.6217
11.105 71.5085
11.1499 75.2858
11.1947 80.9142
11.2395 73.1922
11.2844 69.7584
11.3292 66.9366
11.374 65.8101
11.4189 65.3706
11.4637 64.7941
11.5086 65.2125
11.5534 67.5244
11.5983 65.097
11.6431 63.4955
11.688 62.7393
11.7328 62.9084
11.7777 62.7374
11.8225 62.1094
11.8674 62.0922
11.9122 62.9974
11.9571 62.7118
12.002 63.6002
12.0468 67.607
12.0917 79.0872
12.1366 103.372
12.1814 154.145
12.2263 204.914
12.2712 161.932
12.3161 90.9192
12.3609 69.1187
12.4058 64.3802
12.4507 64.0727
12.4956 64.0407
12.5405 64.3815
12.5853 65.366
12.6302 71.582
12.6751 76.0977
12.72 69.0805
12.7649 67.478
12.8098 68.0477
12.8547 69.6152
12.8996 70.8769
12.9445 72.2804
12.9894 73.7301
13.0343 75.8411
13.0792 79.103
13.1242 88.4417
13.1691 113.051
13.214 150.732
13.2589 243.952
13.3038 380.462
13.3487 425.676
13.3937 253.912
13.4386 121.561
13.4835 105.444
13.5285 121.071
13.5734 160.307
13.6183 253.143
13.6633 355.677
13.7082 332.462
13.7531 174.646
13.7981 94.7168
13.843 81.0855
13.888 79.2881
13.9329 76.7373
13.9779 75.4262
14.0228 74.1955
14.0678 72.7899
14.1127 72.3286
14.1577 72.12
14.2027 71.0293
14.2476 70.2562
14.2926 70.307
14.3376 70.9274
14.3825 69.9554
14.4275 68.7266
14.4725 68.6559
14.5175 68.7159
14.5624 68.8568
14.6074 71.168
14.6524 71.4862
14.6974 70.3991
14.7424 71.8149
14.7874 79.3082
14.8324 89.5375
14.8774 111.285
14.9224 155.818
14.9674 211.441
15.0124 216.743
15.0574 142.551
15.1024 87.6015
15.1474 71.6935
15.1924 70.1207
15.2374 70.7231
15.2824 69.7461
15.3274 67.7048
15.3725 66.8567
15.4175 66.236
15.4625 65.948
15.5076 65.7565
15.5526 66.0433
15.5976 65.7789
15.6426 66.8678
15.6877 72.5041
15.7327 80.0446
15.7778 95.4853
15.8228 127.548
15.8679 174.778
15.9129 196.186
15.958 153.591
16.003 93.529
16.0481 66.763
16.0931 63.8142
16.1382 62.02
16.1833 60.1785
16.2283 58.9487
16.2734 58.2064
16.3185 58.2719
16.3636 58.7553
16.4086 57.4158
16.4537 56.0817
16.4988 55.4034
16.5439 55.2675
16.589 54.9862
16.6341 54.9163
16.6792 54.3545
16.7243 54.6709
16.7694 54.7275
16.8145 54.6444
16.8596 55.0698
16.9047 56.3428
16.9498 56.6096
16.9949 55.6096
17.04 55.6455
17.0851 56.848
17.1302 58.5849
17.1754 61.8888
17.2205 66.9133
17.2656 75.083
17.3108 83.7116
17.3559 81.7754
17.401 70.1256
17.4462 61.3755
17.4913 59.0356
17.5365 58.8471
17.5815 59.1559
17.6268 59.4772
17.6718 60.1815
17.7171 60.8217
17.7622 61.2681
17.8074 61.8941
17.8525 64.2072
17.8977 68.4496
17.9428 74.1465
17.9881 83.0613
18.0331 100.777
18.0784 124.363
18.1237 142.733
18.1688 129.874
18.214 101.113
18.2591 85.8773
18.3044 90.9566
18.3495 101.112
18.3948 106.361
18.4399 94.9654
18.4852 75.8389
18.5303 65.1756
18.5756 61.8793
18.6207 61.1656
18.666 60.1885
18.7112 59.6649
18.7565 58.6976
18.8016 58.4091
18.8469 57.8757
18.892 57.5997
18.9374 57.0833
18.9825 57.0934
19.0278 56.8235
19.073 56.715
19.1183 57.3252
19.1635 58.0203
19.2088 59.5823
19.254 62.2809
19.2993 66.9712
19.3447 73.3777
19.3898 76.7919
19.4352 71.7371
19.4804 62.3013
19.5257 56.2488
19.5709 54.0224
19.6163 53.8786
19.6615 53.6523
19.7068 53.0679
19.752 52.9113
19.7974 53.3693
19.8426 54.3355
19.888 54.8556
19.9332 56.3135
19.9786 58.8333
20.0238 62.6324
20.0692 67.5289
20.1144 69.9347
20.1598 67.7661
20.205 62.9169
20.2504 62.0202
20.2957 64.1364
20.3411 65.5015
20.3863 63.3227
20.4318 57.522
20.477 53.0802
20.5224 51.3419
20.5677 50.6697
20.6131 50.0834
20.6586 49.5853
20.7038 49.5705
20.7493 48.9146
20.7945 48.708
20.84 48.7991
20.8853 48.6893
20.9307 48.4877
20.976 48.6071
21.0215 48.4641
21.0668 49.0199
21.1122 49.2737
21.1575 50.0089
21.203 50.6194
21.2483 51.2785
21.2938 51.3653
21.3391 50.028
21.3846 48.7589
21.4299 48.4063
21.4754 48.3013
21.5207 48.5204
21.5662 48.6603
21.6116 49.1765
21.6571 49.9013
21.7024 50.8948
21.7479 52.7235
21.7933 55.5568
21.8388 59.1337
21.8843 63.231
21.9297 64.6939
21.9752 62.9016
22.0206 58.8535
22.0661 56.269
22.1115 56.1054
22.157 55.8109
22.2024 54.0634
22.248 51.1366
22.2933 49.6314
22.3389 49.0137
22.3843 48.8539
22.4299 48.803
22.4753 48.7695
22.5208 48.5994
22.5662 48.3941
22.6118 48.6626
22.6572 48.8718
22.7028 49.2946
22.7483 49.7349
22.7939 50.477
22.8393 52.0074
22.8849 54.2124
22.9303 56.3095
22.9759 58.2069
23.0214 57.1426
23.067 54.1212
23.1126 50.8378
23.1581 49.1285
23.2037 48.6835
23.2492 48.8034
23.2948 48.83
23.3403 49.1009
23.3859 49.8014
23.4314 50.8238
23.477 52.5862
23.5225 54.8727
23.5682 57.0972
23.6137 57.8856
23.6593 55.2473
23.7048 51.0482
23.7505 47.8841
23.796 46.4799
23.8417 46.0249
23.8872 45.5072
23.9329 45.1089
23.9784 44.8229
24.0241 44.5135
24.0697 44.3285
24.1154 44.0398
24.1609 43.7502
24.2066 43.8804
24.2522 43.7304
24.2979 43.399
24.3434 43.2585
24.3892 43.1459
24.4349 43.0923
24.4805 42.8626
24.5262 43.0518
24.5718 42.9115
24.6175 42.7843
24.6631 42.5903
24.7089 42.2899
24.7545 42.2417
24.8002 42.1006
24.8458 42.0494
24.8916 42.0476
24.9372 42.2044
24.983 42.6885
25.0286 42.7987
25.0744 43.3635
25.12 43.7755
25.1658 44.4072
25.2114 44.6623
25.2572 44.6397
25.3029 44.7765
25.3487 44.904
25.3943 44.5669
25.4402 43.238
25.4858 42.2718
25.5316 41.403
25.5773 40.7306
25.6231 40.7824
25.669 40.4586
25.7147 40.4114
25.7605 40.4244
25.8062 40.3876
25.8521 40.5622
25.8977 40.5033
25.9436 40.8199
25.9893 41.0334
26.0352 41.5111
26.0809 41.6338
26.1268 41.7656
26.1725 41.2745
26.2184 40.5976
26.2641 40.2675
26.31 39.9242
26.3557 40.1494
26.4017 39.9297
26.4474 40.2894
26.4933 40.8289
26.5391 41.2723
26.585 41.8387
26.6308 42.2235
26.6767 42.0729
26.7225 41.8558
26.7684 41.3632
26.8142 40.8631
26.8601 40.2838
26.9059 39.9643
26.9519 39.378
26.9979 39.2463
27.0437 38.8561
27.0896 38.643
27.1354 38.6721
27.1814 38.5068
27.2272 38.4779
27.2732 38.4537
27.3191 38.2556
27.3651 38.4277
27.4109 38.4682
27.4569 38.4173
27.5027 38.7357
27.5488 38.6042
27.5946 38.3554
27.6407 38.131
27.6865 38.0723
27.7326 37.7348
27.7784 37.7682
27.8245 37.7873
27.8703 37.9477
27.9164 38.2386
27.9623 38.341
28.0084 38.7961
28.0543 39.114
28.1003 38.9709
28.1462 38.8441
28.1923 38.3852
28.2384 37.8681
28.2843 37.5446
28.3304 36.9561
28.3764 36.4662
28.4225 36.3206
28.4684 36.1718
28.5145 35.9463
28.5605 35.78
28.6066 35.5571
28.6526 35.6308
28.6987 35.6307
28.7447 35.6335
28.7908 35.448
28.8368 35.3837
28.8829 35.4197
28.9289 35.4513
28.9751 35.117
29.0211 34.8879
29.0673 34.5774
29.1133 34.5578
29.1595 34.4022
29.2055 34.3364
29.2517 34.3057
29.2977 34.3808
29.3439 34.3192
29.3899 34.2186
29.4361 34.176
29.4824 33.8495
29.5284 33.6956
29.5746 33.2745
29.6207 33.0774
29.6669 33.0201
29.713 33.052
29.7593 32.7965
29.8053 32.8732
29.8516 32.7256
29.8977 32.743
29.9439 32.6404
29.99 32.5174
30.0363 32.3738
30.0824 32.4067
30.1287 32.3502
30.1748 32.3766
30.2211 32.3843
30.2673 32.2816
30.3136 32.2224
30.3597 32.3279
30.406 32.1124
30.4522 32.1148
30.4985 32.0321
30.5447 32.1736
30.591 32.163
30.6372 32.29
30.6835 32.0867
30.7297 32.3122
30.7761 32.1427
30.8224 31.9058
30.8686 31.7807
30.915 31.5659
30.9612 31.4528
31.0076 31.2761
31.0538 31.1916
31.1002 31.1479
31.1464 30.8953
31.1928 31.0016
31.2391 30.9944
31.2855 30.8981
31.3317 30.7311
31.3781 30.9399
31.4244 30.9117
31.4708 30.8439
31.5171 30.7808
31.5636 30.7518
31.6098 30.4465
31.6563 30.306
31.7026 30.0974
31.7491 30.1069
31.7953 30.1087
31.8418 30.0874
31.8881 30.2239
31.9346 30.0458
31.9809 30.0452
32.0275 29.9174
32.074 29.8092
32.1203 29.6072
32.1668 29.5035
32.2132 29.3503
32.2597 29.1212
32.306 29.2289
32.3526 28.9442
32.399 28.8719
32.4455 28.8433
32.4919 28.6459
32.5385 28.6455
32.5848 28.449
32.6314 28.4516
32.6778 28.4997
32.7244 28.2964
32.7708 28.1748
32.8174 28.1684
32.8638 28.0489
32.9104 28.0142
32.9569 27.9883
33.0035 27.8138
33.0499 27.8166
33.0966 27.7976
33.143 27.7792
33.1897 27.7084
33.2361 27.5393
33.2828 27.542
33.3293 27.3672
33.3759 27.3093
33.4226 27.1209
33.4691 27.0967
33.5158 27.0461
33.5623 26.8912
33.609 26.6859
33.6555 26.6799
33.7022 26.5501
33.7487 26.4789
33.7954 26.4328
33.842 26.3981
33.8887 26.3398
33.9353 26.235
33.982 26.0614
34.0286 26.14
34.0753 26.0404
34.1219 25.9203
34.1687 25.7638
34.2152 25.8293
34.262 25.6086
34.3086 25.5006
34.3554 25.5151
34.402 25.4535
34.4488 25.193
34.4954 25.2516
34.5422 25.1861
34.5889 25.0893
34.6357 24.9126
34.6825 24.8942
34.7292 24.8367
34.776 24.5904
34.8227 24.6378
34.8695 24.5934
34.9162 24.5485
34.9631 24.4107
35.0098 24.4978
35.0566 24.2939
35.1033 24.2364
35.1502 24.1989
35.1969 24.1792
35.2438 24.159
35.2906 24.0557
35.3375 24.0414
35.3842 23.9756
35.4311 23.8981
35.4779 23.9888
35.5248 23.8332
35.5716 23.7227
35.6185 23.6524
35.6653 23.5993
35.7123 23.4359
35.759 23.4728
35.806 23.3742
35.8528 23.168
35.8998 23.1991
35.9468 23.0391
35.9936 23.049
36.0406 22.929
36.0874 22.9931
36.1345 22.8631
36.1813 22.7901
36.2283 22.6916
36.2752 22.6393
36.3222 22.5904
36.3691 22.5105
36.4161 22.4144
36.463 22.4032
36.5101 22.4167
36.557 22.2584
36.6041 22.1353
36.651 22.1322
36.6981 22.0801
36.745 22.0447
36.7921 21.913
36.839 21.944
36.8861 21.7909
36.9331 21.6653
36.9802 21.6746
37.0272 21.5917
37.0743 21.5187
37.1213 21.4115
37.1684 21.4417
37.2154 21.3423
37.2626 21.2242
37.3098 21.1479
37.3568 21.157
37.404 21.0955
37.451 20.9107
37.4982 20.942
37.5452 20.8738
37.5924 20.7858
37.6395 20.8271
37.6867 20.6583
37.7337 20.609
37.781 20.4901
37.8281 20.4622
37.8753 20.3433
37.9224 20.3227
37.9697 20.2679
38.0168 20.2007
38.064 20.1053
38.1111 20.0814
38.1584 20.0208
38.2056 19.9645
38.2529 19.8404
38.3 19.8096
38.3473 19.7695
38.3945 19.6683
38.4418 19.5916
38.489 19.6598
38.5363 19.4914
38.5837 19.4669
38.6309 19.4309
38.6782 19.3899
38.7254 19.241
38.7728 19.1637
38.82 19.1081
38.8674 19.0751
38.9146 19.0159
38.9621 18.9424
39.0093 18.9341
39.0567 18.8235
39.104 18.7296
39.1514 18.644
39.1987 18.6461
39.2461 18.6509
39.2934 18.5513
39.3409 18.4386
39.3882 18.39
39.4356 18.2884
39.483 18.2892
39.5304 18.2299
39.5778 18.1746
39.6253 18.1389
39.6726 18.0711
39.7201 18.0261
39.7675 18.0112
39.815 17.8553
39.8624 17.7917
39.9099 17.7668
39.9575 17.7111
40.0049 17.694
40.0525 17.6148
40.0999 17.5952
40.1474 17.5336
40.1949 17.4481
40.2425 17.3587
40.2899 17.3087
40.3375 17.3271
40.385 17.2616
40.4326 17.18
40.48 17.2019
40.5277 17.1031
40.5752 17.0321
40.6228 16.9075
40.6703 16.9122
40.718 16.8678
40.7655 16.7676
40.8132 16.8095
40.8607 16.7099
40.9084 16.6769
40.9559 16.6201
41.0036 16.608
41.0512 16.4946
41.0989 16.434
41.1465 16.3907
41.1942 16.3291
41.242 16.2521
41.2896 16.2215
41.3373 16.1572
41.3849 16.1074
41.4327 16.063
41.4803 15.9552
41.5281 15.987
41.5758 15.8903
41.6236 15.8449
41.6712 15.7981
41.7191 15.7508
41.7667 15.6687
41.8146 15.6027
41.8622 15.5921
41.9101 15.5398
41.9578 15.4356
42.0057 15.353
42.0534 15.3658
42.1013 15.3139
42.149 15.298
42.1969 15.2241
42.2446 15.1823
42.2925 15.1314
42.3403 15.079
42.3882 15.0427
42.436 14.9936
42.4839 14.9405
42.5319 14.8865
42.5797 14.8182
42.6277 14.7821
42.6755 14.6756
42.7235 14.6354
42.7713 14.6165
42.8193 14.541
42.8671 14.4981
42.9152 14.4752
42.963 14.4
43.0111 14.3855
43.0589 14.2888
43.107 14.2448
43.1549 14.2261
43.2029 14.1816
43.2508 14.1416
43.2989 14.0764
43.3468 13.9702
43.3949 13.9629
43.4429 13.9199
43.491 13.8718
43.5389 13.8548
43.5871 13.7936
43.635 13.74
43.6832 13.7
43.7312 13.6154
43.7793 13.5653
43.8273 13.5798
43.8755 13.4883
43.9237 13.3959
43.9717 13.4214
44.0199 13.3528
44.068 13.3097
44.1162 13.3122
44.1642 13.1889
44.2125 13.155
44.2606 13.115
44.3088 13.0669
44.3569 13.0808
44.4052 13.0118
44.4533 12.9473
44.5016 12.8689
44.5497 12.8567
44.598 12.8683
44.6461 12.7509
44.6945 12.7301
44.7426 12.648
44.791 12.6805
44.8391 12.5934
44.8875 12.5707
44.9357 12.4892
44.984 12.3951
45.0322 12.4274
45.0806 12.3574
45.1288 12.335
45.1773 12.2829
45.2257 12.287
45.2739 12.1611
45.3224 12.1696
45.3706 12.1183
45.4191 12.0569
45.4673 12.0163
45.5158 11.9735
45.5641 11.9178
45.6126 11.9167
45.6609 11.8938
45.7094 11.7818
45.7577 11.7345
45.8063 11.6887
45.8546 11.7545
45.9031 11.6533
45.9515 11.6099
46.0001 11.5603
46.0484 11.5044
46.097 11.5015
46.1454 11.4485
46.194 11.3894
46.2424 11.3567
46.291 11.3209
46.3395 11.2021
46.3881 11.2073
46.4365 11.2001
46.4852 11.1604
46.5337 11.0933
46.5823 11.0808
46.631 11.038
46.6795 10.9788
46.7282 10.9201
46.7767 10.9086
46.8254 10.8337
46.8739 10.7917
46.9226 10.7792
46.9712 10.7102
47.0199 10.6924
47.0685 10.6667
47.1173 10.5973
47.1658 10.5555
47.2146 10.531
47.2632 10.4771
47.312 10.4614
47.3606 10.4065
47.4095 10.412
47.4581 10.3425
47.5069 10.3027
47.5556 10.2664
47.6044 10.2044
47.6531 10.1814
47.702 10.1453
47.7507 10.1152
47.7996 10.0938
47.8483 10.0004
47.8972 10.0152
47.9461 9.98412
47.9948 9.91266
48.0438 9.89466
48.0925 9.85883
48.1415 9.83242
48.1902 9.77333
48.2392 9.7751
48.288 9.72342
48.337 9.70622
48.3858 9.64682
48.4348 9.59939
48.4837 9.60726
48.5327 9.56516
48.5815 9.52432
48.6306 9.50455
48.6795 9.45285
48.7285 9.39576
48.7774 9.33908
48.8265 9.33466
48.8754 9.29645
48.9245 9.27415
48.9734 9.24577
49.0226 9.22236
49.0715 9.17708
49.1206 9.13021
49.1696 9.07226
49.2188 9.09764
49.2679 9.05033
49.3169 8.97978
49.3661 8.95457
49.4151 8.93383
49.4643 8.87191
49.5134 8.84715
49.5626 8.79591
49.6117 8.81106
49.6609 8.75523
49.71 8.68588
49.7592 8.67829
49.8083 8.62371
49.8576 8.67428
49.9067 8.57655
49.956 8.55468
50.0052 8.48658
50.0545 8.49469
50.1036 8.46205
50.153 8.41956
50.2022 8.39046
50.2515 8.40452
50.3007 8.31179
50.3501 8.25436
50.3993 8.31087
50.4487 8.24991
50.498 8.18975
50.5474 8.18756
50.5966 8.16638
50.6461 8.10292
50.6955 8.08388
50.7448 8.03119
50.7943 8.02996
50.8436 7.98806
50.8931 7.99714
50.9424 7.94536
50.9919 7.93009
51.0413 7.85893
51.0908 7.82854
51.1402 7.801
51.1897 7.76396
51.2391 7.76018
51.2887 7.68937
51.3381 7.6611
51.3877 7.66268
51.4371 7.58839
51.4867 7.57884
51.5362 7.54937
51.5858 7.51719
51.6353 7.47362
51.6849 7.46287
51.7344 7.41155
51.7841 7.4135
51.8336 7.38159
51.8833 7.30218
51.9328 7.28777
51.9826 7.2825
52.0323 7.26986
52.0818 7.21904
52.1316 7.16231
52.1812 7.1336
52.231 7.13438
52.2806 7.0918
52.3304 7.05918
52.38 7.01749
52.4298 7.03337
52.4794 6.95424
52.5293 6.94777
52.5789 6.93234
52.6288 6.91555
52.6785 6.81829
52.7284 6.85338
52.7781 6.79896
52.828 6.8054
52.8777 6.75988
52.9276 6.66889
52.9774 6.69177
53.0273 6.66635
53.0771 6.65029
53.1271 6.58882
53.1769 6.58051
53.2269 6.53424
53.2767 6.50313
53.3267 6.47969
53.3765 6.48353
53.4266 6.45271
53.4766 6.39776
53.5265 6.39307
53.5765 6.35182
53.6264 6.32479
53.6765 6.31688
53.7264 6.25623
53.7765 6.22467
53.8265 6.22437
53.8766 6.19354
53.9266 6.18573
53.9767 6.12734
54.0267 6.11614
54.0769 6.09573
54.1269 6.03561
54.1771 6.00803
54.2271 6.00297
54.2773 5.94963
54.3274 5.97385
54.3776 5.90759
54.4277 5.8854
54.478 5.80532
54.528 5.80634
54.5783 5.72162
54.6285 5.71157
54.6788 5.70184
54.7289 5.6074
54.7792 5.58835
54.8296 5.51218
54.8798 5.50842
54.9301 5.49865
54.9803 5.48601
55.0307 5.40366
55.0809 5.31455
55.1314 5.33958
55.1816 5.30883
55.232 5.25119
55.2823 5.18362
55.3328 5.21161
55.383 5.1069
55.4335 5.0112
55.4838 5.0102
55.5344 4.95639
55.5847 4.91324
55.6352 4.89507
55.6856 4.85655
55.7361 4.78317