File: XRD/Ni3Fe_FD0019.xy
TT I
1.27165 35.2602
1.31627 34.6427
1.36089 34.359
1.40551 30.1657
1.45013 30.0907
1.49476 29.6935
1.53938 28.1994
1.584 27.9411
1.62863 27.2007
1.67325 26.8576
1.71787 26.367
1.7625 24.9792
1.80712 24.981
1.85174 25.2149
1.89636 24.6761
1.94099 25.1278
1.98562 24.6818
2.03025 24.4467
2.07487 24.7405
2.11949 24.9219
2.16411 24.8455
2.20874 25.8581
2.25338 26.0782
2.298 25.7321
2.34263 26.428
2.38725 25.3381
2.43188 25.6421
2.4765 25.9279
2.52115 24.9816
2.56577 26.4904
2.6104 27.1264
2.65503 28.1043
2.69965 29.2343
2.7443 30.9324
2.78893 33.4544
2.83356 35.5705
2.87818 38.965
2.92281 43.3871
2.96744 48.8495
3.01209 57.3662
3.05672 65.6798
3.10135 76.0869
3.14599 82.9431
3.19062 84.3703
3.23527 77.9367
3.2799 67.6418
3.32454 56.3742
3.36917 48.2438
3.4138 43.0543
3.45844 39.7713
3.50309 38.4521
3.54773 37.9021
3.59237 38.6748
3.637 40.3375
3.68164 41.1216
3.7263 41.1969
3.77094 40.05
3.81558 39.0786
3.86022 39.3109
3.90486 40.0504
3.9495 40.6433
3.99416 42.0075
4.0388 44.7148
4.08344 48.0019
4.12809 52.332
4.17273 58.8806
4.21738 67.1318
4.26204 75.786
4.30669 81.2641
4.35133 80.4225
4.39598 74.192
4.44063 67.6891
4.4853 63.0514
4.52995 58.1059
4.5746 54.0845
4.61925 51.3221
4.6639 49.192
4.70855 48.7973
4.75322 49.9675
4.79788 51.7326
4.84253 54.7636
4.88719 58.8069
4.93184 64.8666
4.97652 73.1533
5.02118 87.7426
5.06583 110.399
5.11049 132.846
5.15515 173.032
5.19981 262.322
5.24449 529.049
5.28916 1102.54
5.33382 2989.32
5.37848 3908.66
5.42315 1278.36
5.46783 387.553
5.5125 219.213
5.55716 158.638
5.60183 126.138
5.6465 112.525
5.69117 105.808
5.73586 100.138
5.78053 96.0823
5.8252 95.8423
5.86988 100.666
5.91455 109.677
5.95924 127.424
6.00392 166.582
6.0486 259.667
6.09328 438.775
6.13795 770.896
6.18263 1298.04
6.22733 817.099
6.27201 330.085
6.3167 172.143
6.36138 111.682
6.40606 84.8684
6.45075 73.1824
6.49545 64.8541
6.54014 59.5574
6.58483 56.6018
6.62952 55.4778
6.67421 54.3829
6.71892 54.3382
6.76361 53.9876
6.8083 52.7767
6.853 50.8895
6.89769 49.2518
6.94239 47.7502
6.98711 46.2861
7.03181 45.9298
7.07651 46.0458
7.12121 46.933
7.16591 48.7498
7.21063 51.1242
7.25533 55.1258
7.30004 62.5747
7.34475 69.5758
7.38945 69.591
7.43416 63.6611
7.47889 58.805
7.5236 60.1917
7.56831 95.8077
7.61303 159.796
7.65774 84.49
7.70247 47.9974
7.74719 41.8611
7.79191 39.7179
7.83663 38.933
7.88135 38.2043
7.92607 37.8992
7.97081 38.6646
8.01553 38.6213
8.06026 39.5439
8.10498 40.4099
8.14971 41.4194
8.19446 42.7425
8.23919 43.9711
8.28392 46.1403
8.32865 47.7838
8.37339 51.0978
8.41812 55.865
8.46288 62.9058
8.50761 74.795
8.55235 99.0691
8.59709 151.855
8.64183 209.194
8.68658 353.842
8.73134 714.354
8.77609 697.33
8.82083 308.709
8.86558 144.594
8.91033 97.1866
8.9551 78.5057
8.99985 69.6096
9.04461 64.206
9.08936 60.8361
9.13412 58.9425
9.17888 59.3967
9.22365 66.5558
9.26841 116.588
9.31318 250.328
9.35794 168.859
9.4027 72.592
9.44749 56.6445
9.49226 52.5685
9.53703 51.1979
9.5818 51.005
9.62657 51.1501
9.67134 51.769
9.71614 53.2015
9.76091 54.2536
9.80569 55.8491
9.85047 58.507
9.89525 61.9018
9.94005 67.1167
9.98484 76.4581
10.0296 94.7193
10.0744 132.436
10.1192 177.09
10.164 230.769
10.2088 449.68
10.2536 806.196
10.2984 624.162
10.3432 275.666
10.388 138.187
10.4328 97.1647
10.4776 83.1267
10.5224 84.0873
10.5672 90.3131
10.612 98.051
10.6568 143.414
10.7017 260.502
10.7465 282.789
10.7913 160.337
10.8361 79.0623
10.8809 56.028
10.9257 48.6982
10.9706 46.015
11.0154 44.0456
11.0602 42.7168
11.105 42.0712
11.1499 41.0713
11.1947 41.1264
11.2395 41.0352
11.2844 40.8099
11.3292 40.1171
11.374 39.7521
11.4189 39.0587
11.4637 38.21
11.5086 37.7855
11.5534 37.4274
11.5983 37.1807
11.6431 37.3405
11.688 36.9099
11.7328 36.8195
11.7777 36.6558
11.8225 36.8169
11.8674 37.3162
11.9122 39.096
11.9571 45.279
12.002 70.1333
12.0468 93.2982
12.0917 65.6435
12.1366 47.2007
12.1814 46.2476
12.2263 48.8014
12.2712 54.1353
12.3161 68.0765
12.3609 92.4311
12.4058 94.5359
12.4507 68.8158
12.4956 52.6214
12.5405 44.9885
12.5853 42.1197
12.6302 40.3386
12.6751 39.9475
12.72 40.2691
12.7649 40.4621
12.8098 40.1956
12.8547 39.5329
12.8996 39.7233
12.9445 39.6327
12.9894 39.8232
13.0343 40.549
13.0792 42.1307
13.1242 45.5603
13.1691 55.7255
13.214 61.922
13.2589 62.5706
13.3038 67.1028
13.3487 72.673
13.3937 90.6089
13.4386 138.341
13.4835 216.171
13.5285 211.378
13.5734 136.084
13.6183 94.8558
13.6633 82.4366
13.7082 80.3734
13.7531 95.6193
13.7981 148.19
13.843 214.818
13.888 176.784
13.9329 98.528
13.9779 64.2227
14.0228 51.9867
14.0678 46.528
14.1127 44.9748
14.1577 47.0655
14.2027 63.1899
14.2476 86.7911
14.2926 73.7224
14.3376 48.4162
14.3825 40.6669
14.4275 38.6956
14.4725 38.1357
14.5175 37.5945
14.5624 37.1537
14.6074 37.262
14.6524 37.2129
14.6974 37.3869
14.7424 37.7797
14.7874 38.3674
14.8324 39.682
14.8774 42.2274
14.9224 45.9677
14.9674 48.8189
15.0124 51.0765
15.0574 58.2363
15.1024 76.9653
15.1474 114.25
15.1924 131.572
15.2374 99.2638
15.2824 66.3249
15.3274 50.1809
15.3725 43.8934
15.4175 41.1342
15.4625 39.6375
15.5076 38.6374
15.5526 38.1898
15.5976 37.8624
15.6426 37.6126
15.6877 37.9857
15.7327 38.663
15.7778 40.379
15.8228 43.8383
15.8679 46.7172
15.9129 47.7078
15.958 52.734
16.003 64.1235
16.0481 92.0822
16.0931 126.082
16.1382 124.483
16.1833 92.4756
16.2283 61.9926
16.2734 46.2442
16.3185 39.7519
16.3636 36.8543
16.4086 35.1272
16.4537 34.2256
16.4988 33.4051
16.5439 32.8652
16.589 32.2817
16.6341 31.995
16.6792 31.5784
16.7243 31.5657
16.7694 31.3683
16.8145 31.3979
16.8596 31.3796
16.9047 31.6459
16.9498 32.5242
16.9949 35.1265
17.04 39.2504
17.0851 38.6592
17.1302 34.7366
17.1754 33.0326
17.2205 33.2072
17.2656 33.6169
17.3108 34.2101
17.3559 34.4605
17.401 35.7994
17.4462 39.1607
17.4913 45.5631
17.5365 52.1212
17.5815 49.1627
17.6268 41.6886
17.6718 36.918
17.7171 35.0474
17.7622 34.5941
17.8074 35.9111
17.8525 39.3619
17.8977 42.0056
17.9428 40.2178
17.9881 38.621
18.0331 40.1137
18.0784 41.712
18.1237 42.7095
18.1688 44.2233
18.214 49.8825
18.2591 61.7725
18.3044 86.221
18.3495 105.475
18.3948 93.1639
18.4399 68.7351
18.4852 57.0004
18.5303 58.4322
18.5756 69.0517
18.6207 76.8903
18.666 68.4239
18.7112 54.2995
18.7565 43.6239
18.8016 38.4893
18.8469 36.0084
18.892 34.9411
18.9374 34.0281
18.9825 33.4607
19.0278 33.1743
19.073 32.9572
19.1183 32.8259
19.1635 32.7658
19.2088 33.1885
19.254 33.6982
19.2993 34.4227
19.3447 35.6851
19.3898 39.0187
19.4352 44.8304
19.4804 47.958
19.5257 45.7433
19.5709 46.231
19.6163 49.8544
19.6615 48.0877
19.7068 41.2206
19.752 36.2445
19.7974 33.7868
19.8426 32.4866
19.888 31.8285
19.9332 31.6077
19.9786 31.6993
20.0238 31.8197
20.0692 32.0741
20.1144 32.2212
20.1598 32.9733
20.205 34.0158
20.2504 36.7555
20.2957 41.5316
20.3411 46.7751
20.3863 47.07
20.4318 42.4334
20.477 39.0874
20.5224 40.3205
20.5677 44.2687
20.6131 45.163
20.6586 40.2558
20.7038 34.9954
20.7493 32.1031
20.7945 31.1868
20.84 31.448
20.8853 33.0796
20.9307 33.6239
20.976 32.0258
21.0215 29.6508
21.0668 28.871
21.1122 28.5024
21.1575 28.4478
21.203 28.2106
21.2483 28.199
21.2938 28.4015
21.3391 28.3829
21.3846 28.6666
21.4299 29.4822
21.4754 31.0292
21.5207 32.5716
21.5662 32.2853
21.6116 31.0601
21.6571 29.9578
21.7024 29.1624
21.7479 29.3081
21.7933 29.6881
21.8388 30.276
21.8843 30.5341
21.9297 30.7711
21.9752 31.5096
22.0206 33.2085
22.0661 35.6009
22.1115 39.752
22.157 46.0869
22.2024 49.9425
22.248 47.736
22.2933 43.8411
22.3389 40.7611
22.3843 40.0675
22.4299 39.1715
22.4753 36.3333
22.5208 33.1995
22.5662 31.1919
22.6118 30.4466
22.6572 29.7789
22.7028 29.6084
22.7483 29.6564
22.7939 29.6289
22.8393 30.0254
22.8849 30.9502
22.9303 31.8381
22.9759 31.7597
23.0214 31.0946
23.067 31.1401
23.1126 31.9488
23.1581 34.0643
23.2037 37.9731
23.2492 42.5194
23.2948 42.764
23.3403 38.5006
23.3859 34.4566
23.4314 32.4193
23.477 32.3432
23.5225 33.3772
23.5682 34.2357
23.6137 34.0856
23.6593 32.698
23.7048 32.44
23.7505 33.6644
23.796 36.4083
23.8417 41.5043
23.8872 45.0506
23.9329 43.4266
23.9784 37.7071
24.0241 32.875
24.0697 30.3716
24.1154 29.2448
24.1609 28.9353
24.2066 28.5739
24.2522 27.997
24.2979 27.2287
24.3434 26.7886
24.3892 26.5233
24.4349 26.4498
24.4805 26.2344
24.5262 26.1883
24.5718 26.1102
24.6175 26.0475
24.6631 26.1977
24.7089 26.3432
24.7545 27.0616
24.8002 27.6689
24.8458 27.7363
24.8916 27.0498
24.9372 26.4919
24.983 26.2361
25.0286 25.9583
25.0744 25.8462
25.12 25.8211
25.1658 25.855
25.2114 26.075
25.2572 26.4161
25.3029 26.7974
25.3487 27.5345
25.3943 28.5277
25.4402 29.4371
25.4858 30.2454
25.5316 30.3733
25.5773 30.3097
25.6231 31.5144
25.669 32.4785
25.7147 31.7471
25.7605 29.5273
25.8062 27.5399
25.8521 26.7751
25.8977 26.3777
25.9436 26.6287
25.9893 26.5176
26.0352 26.3147
26.0809 25.7616
26.1268 25.3972
26.1725 25.3926
26.2184 25.4978
26.2641 25.7638
26.31 26.1658
26.3557 27.3048
26.4017 28.4054
26.4474 28.8471
26.4933 28.1336
26.5391 27.2315
26.585 26.41
26.6308 26.0239
26.6767 25.8016
26.7225 25.723
26.7684 25.9871
26.8142 26.3832
26.8601 27.0953
26.9059 28.3337
26.9519 30.0394
26.9979 31.1778
27.0437 30.9612
27.0896 30.2324
27.1354 29.6461
27.1814 28.4509
27.2272 27.2166
27.2732 26.0758
27.3191 25.2444
27.3651 24.9229
27.4109 24.5859
27.4569 24.5064
27.5027 24.392
27.5488 24.3429
27.5946 24.3735
27.6407 24.4716
27.6865 24.6274
27.7326 24.633
27.7784 24.7733
27.8245 25.0065
27.8703 25.5184
27.9164 25.7658
27.9623 25.2455
28.0084 24.8819
28.0543 24.8214
28.1003 24.9866
28.1462 25.5558
28.1923 25.8933
28.2384 25.8369
28.2843 26.0693
28.3304 26.8572
28.3764 28.0007
28.4225 28.8619
28.4684 28.5285
28.5145 27.545
28.5605 27.1122
28.6066 26.7216
28.6526 25.9833
28.6987 25.2522
28.7447 24.3937
28.7908 23.6464
28.8368 23.2021
28.8829 23.0169
28.9289 22.7556
28.9751 22.5489
29.0211 22.5233
29.0673 22.491
29.1133 22.6174
29.1595 22.703
29.2055 23.1518
29.2517 23.2473
29.2977 23.2696
29.3439 22.8583
29.3899 22.5527
29.4361 22.1297
29.4824 21.8661
29.5284 21.9214
29.5746 21.8306
29.6207 21.8642
29.6669 22.1197
29.713 22.4716
29.7593 22.7581
29.8053 22.7263
29.8516 22.3142
29.8977 21.9601
29.9439 21.3608
29.99 21.2077
30.0363 21.0984
30.0824 21.0749
30.1287 21.0812
30.1748 21.19
30.2211 21.3525
30.2673 21.3718
30.3136 21.2709
30.3597 20.9524
30.406 20.948
30.4522 20.8915
30.4985 21.0242
30.5447 21.3923
30.591 21.368
30.6372 21.456
30.6835 21.247
30.7297 21.0816
30.7761 20.9866
30.8224 20.9021
30.8686 21.059
30.915 21.1326
30.9612 21.4447
31.0076 21.8226
31.0538 22.5167
31.1002 23.0072
31.1464 22.8489
31.1928 22.6086
31.2391 22.4265
31.2855 21.9427
31.3317 21.3747
31.3781 21.0206
31.4244 20.7458
31.4708 20.4872
31.5171 20.472
31.5636 20.441
31.6098 20.3806
31.6563 20.5274
31.7026 20.581
31.7491 20.8423
31.7953 21.1119
31.8418 21.3547
31.8881 21.673
31.9346 21.5002
31.9809 20.9634
32.0275 20.5849
32.074 20.3717
32.1203 20.2904
32.1668 20.3888
32.2132 20.3992
32.2597 20.6211
32.306 20.9275
32.3526 20.9972
32.399 20.9993
32.4455 20.6997
32.4919 20.3566
32.5385 20.1062
32.5848 19.8192
32.6314 19.5436
32.6778 19.3672
32.7244 19.1265
32.7708 18.9164
32.8174 18.8035
32.8638 18.7701
32.9104 18.7085
32.9569 18.6634
33.0035 18.6461
33.0499 18.7708
33.0966 18.8447
33.143 18.824
33.1897 18.5937
33.2361 18.5579
33.2828 18.4577
33.3293 18.3343
33.3759 18.4322
33.4226 18.43
33.4691 18.4931
33.5158 18.8232
33.5623 19.0352
33.609 19.0504
33.6555 19.0128
33.7022 19.1234
33.7487 18.9339
33.7954 18.6726
33.842 18.2564
33.8887 18.0305
33.9353 17.9316
33.982 17.8039
34.0286 17.7157
34.0753 17.6797
34.1219 17.6097
34.1687 17.5864
34.2152 17.6117
34.262 17.5355
34.3086 17.6341
34.3554 17.5113
34.402 17.4004
34.4488 17.3423
34.4954 17.1435
34.5422 17.0889
34.5889 17.0049
34.6357 16.9276
34.6825 16.9713
34.7292 17.0542
34.776 17.0659
34.8227 17.0193
34.8695 16.8223
34.9162 16.6627
34.9631 16.6079
35.0098 16.5834
35.0566 16.386
35.1033 16.3163
35.1502 16.3226
35.1969 16.3564
35.2438 16.3166
35.2906 16.3022
35.3375 16.2701
35.3842 16.313
35.4311 16.3009
35.4779 16.2493
35.5248 16.3102
35.5716 16.1642
35.6185 16.1944
35.6653 16.2188
35.7123 16.3498
35.759 16.4713
35.806 16.6365
35.8528 16.6885
35.8998 16.7733
35.9468 16.7006
35.9936 16.6376
36.0406 16.4389
36.0874 16.3715
36.1345 16.0908
36.1813 15.882
36.2283 15.7691
36.2752 15.6903
36.3222 15.6861
36.3691 15.6406
36.4161 15.4872
36.463 15.6096
36.5101 15.6448
36.557 15.6885
36.6041 15.6366
36.651 15.6428
36.6981 15.5391
36.745 15.4108
36.7921 15.364
36.839 15.2013
36.8861 15.2329
36.9331 15.2268
36.9802 15.1952
37.0272 15.2812
37.0743 15.2409
37.1213 15.2287
37.1684 15.172
37.2154 15.0125
37.2626 14.8349
37.3098 14.7518
37.3568 14.6549
37.404 14.6461
37.451 14.5618
37.4982 14.559
37.5452 14.3948
37.5924 14.4897
37.6395 14.4276
37.6867 14.3901
37.7337 14.3018
37.781 14.2851
37.8281 14.1827
37.8753 14.1148
37.9224 14.0565
37.9697 14.0522
38.0168 14.0074
38.064 14.02
38.1111 14.0517
38.1584 13.9973
38.2056 13.9716
38.2529 13.8909
38.3 13.7914
38.3473 13.7391
38.3945 13.6898
38.4418 13.6261
38.489 13.5518
38.5363 13.4888
38.5837 13.4611
38.6309 13.4705
38.6782 13.4424
38.7254 13.4643
38.7728 13.4653
38.82 13.3928
38.8674 13.3675
38.9146 13.2756
38.9621 13.2427
39.0093 13.2132
39.0567 13.1816
39.104 13.1868
39.1514 13.1359
39.1987 13.1639
39.2461 13.1275
39.2934 12.9647
39.3409 12.9265
39.3882 12.8463
39.4356 12.7612
39.483 12.767
39.5304 12.7226
39.5778 12.6569
39.6253 12.6318
39.6726 12.6028
39.7201 12.565
39.7675 12.5439
39.815 12.4561
39.8624 12.4811
39.9099 12.4247
39.9575 12.3685
40.0049 12.3409
40.0525 12.3251
40.0999 12.2944
40.1474 12.2571
40.1949 12.2758
40.2425 12.2294
40.2899 12.2761
40.3375 12.2937
40.385 12.2167
40.4326 12.1579
40.48 12.0277
40.5277 12.0374
40.5752 11.95
40.6228 11.9667
40.6703 11.9817
40.718 11.8563
40.7655 11.8601
40.8132 11.8284
40.8607 11.8115
40.9084 11.7718
40.9559 11.7362
41.0036 11.735
41.0512 11.655
41.0989 11.6702
41.1465 11.628
41.1942 11.6653
41.242 11.5969
41.2896 11.6181
41.3373 11.535
41.3849 11.484
41.4327 11.3876
41.4803 11.3348
41.5281 11.3354
41.5758 11.2332
41.6236 11.1511
41.6712 11.1326
41.7191 11.1485
41.7667 11.0908
41.8146 11.0636
41.8622 11.0598
41.9101 11.0353
41.9578 10.9701
42.0057 10.9029
42.0534 10.9123
42.1013 10.9096
42.149 10.9092
42.1969 10.859
42.2446 10.8994
42.2925 10.8419
42.3403 10.7817
42.3882 10.7037
42.436 10.6567
42.4839 10.5826
42.5319 10.5632
42.5797 10.53
42.6277 10.4781
42.6755 10.4634
42.7235 10.4255
42.7713 10.3578
42.8193 10.3379
42.8671 10.3192
42.9152 10.2807
42.963 10.2155
43.0111 10.1676
43.0589 10.1309
43.107 10.1089
43.1549 10.0721
43.2029 10.0513
43.2508 10.0278
43.2989 9.9569
43.3468 9.92974
43.3949 9.89762
43.4429 9.87591
43.491 9.84524
43.5389 9.83376
43.5871 9.7794
43.635 9.71008
43.6832 9.68716
43.7312 9.65015
43.7793 9.65808
43.8273 9.60552
43.8755 9.58223
43.9237 9.5295
43.9717 9.52562
44.0199 9.48844
44.068 9.47069
44.1162 9.44839
44.1642 9.44725
44.2125 9.40307
44.2606 9.4083
44.3088 9.33295
44.3569 9.30657
44.4052 9.26851
44.4533 9.24184
44.5016 9.18682
44.5497 9.16193
44.598 9.15933
44.6461 9.1372
44.6945 9.08047
44.7426 9.11849
44.791 9.01245
44.8391 8.98886
44.8875 8.99592
44.9357 8.92161
44.984 8.97908
45.0322 8.92868
45.0806 8.86975
45.1288 8.84192
45.1773 8.83973
45.2257 8.80955
45.2739 8.74315
45.3224 8.7062
45.3706 8.68346
45.4191 8.63386
45.4673 8.64314
45.5158 8.61187
45.5641 8.57285
45.6126 8.53246
45.6609 8.47049
45.7094 8.46539
45.7577 8.43997
45.8063 8.42468
45.8546 8.38677
45.9031 8.37114
45.9515 8.33634
46.0001 8.31744
46.0484 8.28378
46.097 8.25117
46.1454 8.25554
46.194 8.20896
46.2424 8.16331
46.291 8.14842
46.3395 8.08195
46.3881 8.09098
46.4365 8.06184
46.4852 8.03106
46.5337 8.0306
46.5823 7.99678
46.631 7.94303
46.6795 7.89683
46.7282 7.91409
46.7767 7.88171
46.8254 7.8241
46.8739 7.80171
46.9226 7.77485
46.9712 7.75242
47.0199 7.71265
47.0685 7.68006
47.1173 7.64351
47.1658 7.61698
47.2146 7.60809
47.2632 7.58846
47.312 7.53004
47.3606 7.52011
47.4095 7.48029
47.4581 7.47612
47.5069 7.45648
47.5556 7.44318
47.6044 7.40822
47.6531 7.33563
47.702 7.31635
47.7507 7.33552
47.7996 7.26789
47.8483 7.28771
47.8972 7.24081
47.9461 7.19846
47.9948 7.20357
48.0438 7.13715
48.0925 7.15323
48.1415 7.09501
48.1902 7.12193
48.2392 7.09343
48.288 7.0298
48.337 7.04179
48.3858 6.97594
48.4348 6.98731
48.4837 6.94005
48.5327 6.94584
48.5815 6.87898
48.6306 6.90124
48.6795 6.85586
48.7285 6.82383
48.7774 6.81282
48.8265 6.76316
48.8754 6.72724
48.9245 6.70511
48.9734 6.69903
49.0226 6.658
49.0715 6.67436
49.1206 6.63926
49.1696 6.6042
49.2188 6.55794
49.2679 6.52532
49.3169 6.51934
49.3661 6.4819
49.4151 6.43599
49.4643 6.44375
49.5134 6.43602
49.5626 6.39607
49.6117 6.40984
49.6609 6.38905
49.71 6.32625
49.7592 6.32757
49.8083 6.30849
49.8576 6.29302
49.9067 6.24211
49.956 6.24456
50.0052 6.20462
50.0545 6.20938
50.1036 6.17674
50.153 6.16082
50.2022 6.13112
50.2515 6.11652
50.3007 6.05986
50.3501 6.07187
50.3993 6.0589
50.4487 6.03469
50.498 5.99644
50.5474 5.98231
50.5966 5.93692
50.6461 5.93939
50.6955 5.93558
50.7448 5.90386
50.7943 5.88171
50.8436 5.88084
50.8931 5.84627
50.9424 5.80268
50.9919 5.80961
51.0413 5.7633
51.0908 5.71776
51.1402 5.72865
51.1897 5.68717
51.2391 5.63404
51.2887 5.67881
51.3381 5.60546
51.3877 5.62787
51.4371 5.61377
51.4867 5.5654
51.5362 5.54394
51.5858 5.51332
51.6353 5.46826
51.6849 5.46148
51.7344 5.44084
51.7841 5.43657
51.8336 5.42709
51.8833 5.38063
51.9328 5.35354
51.9826 5.3451
52.0323 5.3258
52.0818 5.29866
52.1316 5.24715
52.1812 5.23424
52.231 5.23438
52.2806 5.21263
52.3304 5.19715
52.38 5.15478
52.4298 5.1741
52.4794 5.13533
52.5293 5.10088
52.5789 5.09931
52.6288 5.08249
52.6785 5.06999
52.7284 5.03728
52.7781 4.99614
52.828 5.0251
52.8777 4.95995
52.9276 4.95371
52.9774 4.92726
53.0273 4.91733
53.0771 4.90774
53.1271 4.89143
53.1769 4.85583
53.2269 4.83339
53.2767 4.80942
53.3267 4.77527
53.3765 4.75893
53.4266 4.73752
53.4766 4.71385
53.5265 4.75384
53.5765 4.69855
53.6264 4.69193
53.6765 4.63022
53.7264 4.6442
53.7765 4.6408
53.8265 4.61363
53.8766 4.57104
53.9266 4.57014
53.9767 4.55159
54.0267 4.50708
54.0769 4.45702
54.1269 4.45996
54.1771 4.44009
54.2271 4.42854
54.2773 4.3547
54.3274 4.39191
54.3776 4.3086
54.4277 4.301
54.478 4.30418
54.528 4.24035
54.5783 4.23023
54.6285 4.1505
54.6788 4.14921
54.7289 4.08785
54.7792 4.08186
54.8296 4.06017
54.8798 4.00431
54.9301 3.97612
54.9803 3.98558
55.0307 3.94273
55.0809 3.92039
55.1314 3.88736
55.1816 3.81169
55.232 3.8008
55.2823 3.79155
55.3328 3.7605
55.383 3.72496
55.4335 3.6363
55.4838 3.56563
55.5344 3.55807
55.5847 3.54399
55.6352 3.51577
55.6856 3.51779
55.7361 3.48824