File: XRD/Ni3Fe_FD0687.xy
TT I
1.27165 7.68559
1.31627 6.48617
1.36089 7.00533
1.40551 6.53744
1.45013 6.1108
1.49476 5.90082
1.53938 6.00678
1.584 5.18199
1.62863 5.14909
1.67325 4.66361
1.71787 4.90272
1.7625 5.11097
1.80712 4.85171
1.85174 4.72305
1.89636 4.8019
1.94099 4.96947
1.98562 4.84281
2.03025 4.18513
2.07487 3.92907
2.11949 4.54981
2.16411 4.14112
2.20874 9.72075
2.25338 14.0037
2.298 5.8338
2.34263 5.01236
2.38725 5.59343
2.43188 5.78502
2.4765 6.82769
2.52115 6.79067
2.56577 7.43771
2.6104 8.21496
2.65503 7.47412
2.69965 8.03039
2.7443 8.00695
2.78893 7.81741
2.83356 7.84383
2.87818 8.79218
2.92281 8.61405
2.96744 9.47805
3.01209 10.5125
3.05672 10.9091
3.10135 11.5707
3.14599 12.8466
3.19062 14.1752
3.23527 15.08
3.2799 15.8422
3.32454 16.9705
3.36917 17.1914
3.4138 18.4974
3.45844 19.456
3.50309 20.4478
3.54773 21.5118
3.59237 23.0309
3.637 61.3964
3.68164 41.9306
3.7263 25.4801
3.77094 25.9462
3.81558 26.2214
3.86022 26.8589
3.90486 28.2901
3.9495 28.8764
3.99416 30.4356
4.0388 31.5647
4.08344 32.9621
4.12809 34.1982
4.17273 36.1326
4.21738 40.109
4.26204 151.618
4.30669 131.449
4.35133 45.1472
4.39598 43.5579
4.44063 49.8942
4.4853 56.6704
4.52995 53.2366
4.5746 54.0011
4.61925 53.5921
4.6639 55.5725
4.70855 57.987
4.75322 61.0831
4.79788 65.8913
4.84253 67.7581
4.88719 73.289
4.93184 76.2188
4.97652 80.8806
5.02118 87.4665
5.06583 95.8891
5.11049 106.791
5.15515 159.421
5.19981 418.402
5.24449 3024.19
5.28916 12739.6
5.33382 2682.73
5.37848 191.619
5.42315 129.459
5.46783 116.186
5.5125 108.815
5.55716 102.381
5.60183 97.943
5.6465 96.2835
5.69117 94.5536
5.73586 92.5885
5.78053 95.1764
5.8252 94.4232
5.86988 96.7149
5.91455 95.5344
5.95924 105.48
6.00392 244.701
6.0486 1019.09
6.09328 4585.38
6.13795 3146.1
6.18263 217.945
6.22733 91.2149
6.27201 80.9986
6.3167 88.5425
6.36138 76.2074
6.40606 69.4664
6.45075 68.098
6.49545 65.3902
6.54014 63.1995
6.58483 62.4706
6.62952 62.3869
6.67421 78.312
6.71892 104.307
6.76361 63.4341
6.8083 58.6298
6.853 58.3006
6.89769 56.5847
6.94239 56.3427
6.98711 55.5227
7.03181 55.2662
7.07651 54.8638
7.12121 54.4842
7.16591 55.3223
7.21063 55.321
7.25533 63.1832
7.30004 120.858
7.34475 73.3174
7.38945 55.2631
7.43416 53.7956
7.47889 53.7801
7.5236 54.6299
7.56831 54.905
7.61303 55.7169
7.65774 56.3209
7.70247 56.2052
7.74719 56.1736
7.79191 56.5095
7.83663 56.5991
7.88135 57.483
7.92607 58.6142
7.97081 59.6491
8.01553 60.8075
8.06026 62.3553
8.10498 63.7923
8.14971 70.7547
8.19446 70.8611
8.23919 69.3501
8.28392 72.0064
8.32865 73.987
8.37339 78.8906
8.41812 84.3895
8.46288 106.209
8.50761 184.465
8.55235 410.818
8.59709 1235.04
8.64183 2239.37
8.68658 869.606
8.73134 153.78
8.77609 98.2708
8.82083 92.2689
8.86558 90.8971
8.91033 90.1239
8.9551 89.2154
8.99985 84.8996
9.04461 83.4284
9.08936 83.4177
9.13412 82.2586
9.17888 82.2215
9.22365 82.336
9.26841 82.2269
9.31318 83.7643
9.35794 84.6428
9.4027 84.3703
9.44749 84.5656
9.49226 84.8528
9.53703 86.0877
9.5818 88.213
9.62657 92.3761
9.67134 95.5768
9.71614 93.1381
9.76091 94.7105
9.80569 97.802
9.85047 100.441
9.89525 114.586
9.94005 130.616
9.98484 197.3
10.0296 366.729
10.0744 851.655
10.1192 1795.97
10.164 1552.45
10.2088 361.005
10.2536 122.676
10.2984 110.178
10.3432 109.948
10.388 104.885
10.4328 123.834
10.4776 166.057
10.5224 293.301
10.5672 514.09
10.612 492.217
10.6568 193.132
10.7017 94.4502
10.7465 86.0818
10.7913 82.9605
10.8361 80.7301
10.8809 78.6393
10.9257 77.9894
10.9706 77.7352
11.0154 74.7272
11.0602 72.6277
11.105 71.4203
11.1499 72.9505
11.1947 76.5359
11.2395 71.1318
11.2844 68.8299
11.3292 66.828
11.374 65.6682
11.4189 65.3973
11.4637 64.5633
11.5086 64.5611
11.5534 66.0402
11.5983 64.396
11.6431 63.5515
11.688 62.6633
11.7328 62.5685
11.7777 62.6396
11.8225 62.2883
11.8674 62.3995
11.9122 62.6476
11.9571 63.2306
12.002 64.1827
12.0468 69.1001
12.0917 79.8996
12.1366 105.135
12.1814 154.763
12.2263 204.324
12.2712 157.763
12.3161 88.8985
12.3609 67.814
12.4058 64.1751
12.4507 63.9861
12.4956 64.2633
12.5405 64.7439
12.5853 65.2902
12.6302 69.3567
12.6751 72.5917
12.72 68.3641
12.7649 67.5847
12.8098 68.3024
12.8547 69.8035
12.8996 71.1844
12.9445 72.5053
12.9894 74.3342
13.0343 76.1717
13.0792 79.882
13.1242 92.4355
13.1691 114.325
13.214 153.726
13.2589 248.352
13.3038 380.315
13.3487 420.21
13.3937 247.813
13.4386 120.11
13.4835 108.256
13.5285 123.092
13.5734 164.082
13.6183 255.679
13.6633 354.531
13.7082 326.395
13.7531 171.178
13.7981 93.7183
13.843 81.4736
13.888 79.4669
13.9329 76.8087
13.9779 75.6154
14.0228 74.3482
14.0678 73.1523
14.1127 72.2699
14.1577 71.9413
14.2027 71.0524
14.2476 70.0778
14.2926 69.817
14.3376 70.7023
14.3825 69.8894
14.4275 68.8137
14.4725 68.3518
14.5175 68.7814
14.5624 69.132
14.6074 70.213
14.6524 70.8546
14.6974 70.6505
14.7424 73.6
14.7874 80.5261
14.8324 90.6014
14.8774 113.583
14.9224 159.573
14.9674 213.123
15.0124 217.109
15.0574 140.126
15.1024 87.0806
15.1474 71.7787
15.1924 70.0522
15.2374 70.1106
15.2824 69.1148
15.3274 67.3327
15.3725 66.4799
15.4175 66.1685
15.4625 65.8157
15.5076 65.9488
15.5526 65.9964
15.5976 65.9914
15.6426 67.9571
15.6877 73.5481
15.7327 81.0555
15.7778 96.9155
15.8228 130.458
15.8679 175.126
15.9129 194.85
15.958 149.774
16.003 91.503
16.0481 66.5996
16.0931 63.4768
16.1382 61.5932
16.1833 60.1018
16.2283 58.8122
16.2734 58.092
16.3185 58.1011
16.3636 58.3054
16.4086 56.9775
16.4537 55.9523
16.4988 55.4606
16.5439 55.3225
16.589 55.029
16.6341 54.6265
16.6792 54.3752
16.7243 54.6932
16.7694 54.6219
16.8145 54.5421
16.8596 54.863
16.9047 55.7453
16.9498 56.1185
16.9949 55.5352
17.04 56.0693
17.0851 57.2873
17.1302 58.6898
17.1754 61.9367
17.2205 67.4299
17.2656 75.2368
17.3108 83.0997
17.3559 81.3667
17.401 69.9085
17.4462 61.3682
17.4913 59.041
17.5365 59.0755
17.5815 59.2138
17.6268 59.4163
17.6718 60.2166
17.7171 60.5511
17.7622 61.2183
17.8074 62.3252
17.8525 65.0463
17.8977 69.0339
17.9428 74.7585
17.9881 84.0152
18.0331 102.528
18.0784 125.249
18.1237 142.623
18.1688 130.917
18.214 100.907
18.2591 86.0791
18.3044 91.3489
18.3495 101.264
18.3948 105.68
18.4399 94.3508
18.4852 75.5035
18.5303 64.9582
18.5756 61.9445
18.6207 60.9465
18.666 60.3483
18.7112 59.4753
18.7565 58.9515
18.8016 58.61
18.8469 58.0864
18.892 57.7871
18.9374 57.3189
18.9825 56.9887
19.0278 56.8188
19.073 57.0543
19.1183 57.1108
19.1635 57.8726
19.2088 59.3752
19.254 62.5236
19.2993 67.2265
19.3447 73.1922
19.3898 76.0563
19.4352 71.1319
19.4804 62.3847
19.5257 56.1457
19.5709 54.1166
19.6163 53.6409
19.6615 53.8018
19.7068 53.0772
19.752 53.0232
19.7974 53.6905
19.8426 54.4226
19.888 54.8703
19.9332 56.5061
19.9786 59.1828
20.0238 63.0918
20.0692 67.6174
20.1144 70.0801
20.1598 67.7514
20.205 62.9938
20.2504 62.0886
20.2957 64.1207
20.3411 65.4763
20.3863 63.2552
20.4318 57.839
20.477 52.8415
20.5224 51.1542
20.5677 50.7023
20.6131 50.1289
20.6586 49.6937
20.7038 49.3447
20.7493 48.9907
20.7945 48.7843
20.84 48.7417
20.8853 48.5885
20.9307 48.4516
20.976 48.773
21.0215 48.6028
21.0668 48.8205
21.1122 49.5572
21.1575 50.0349
21.203 50.8844
21.2483 51.3774
21.2938 51.3172
21.3391 49.7715
21.3846 48.7336
21.4299 48.4863
21.4754 48.3888
21.5207 48.6331
21.5662 48.8696
21.6116 49.3841
21.6571 49.9478
21.7024 51.0455
21.7479 52.8722
21.7933 55.8128
21.8388 59.541
21.8843 63.2254
21.9297 64.8544
21.9752 62.8633
22.0206 58.8551
22.0661 56.2978
22.1115 55.8733
22.157 55.9123
22.2024 53.6812
22.248 50.9245
22.2933 49.5706
22.3389 48.9173
22.3843 48.8031
22.4299 48.6349
22.4753 48.6663
22.5208 48.5166
22.5662 48.348
22.6118 48.8448
22.6572 48.9215
22.7028 49.3188
22.7483 49.7886
22.7939 50.4517
22.8393 52.2306
22.8849 54.1873
22.9303 56.5716
22.9759 58.1009
23.0214 57.067
23.067 54.057
23.1126 50.7853
23.1581 49.0032
23.2037 48.6755
23.2492 48.899
23.2948 48.8083
23.3403 48.9381
23.3859 49.8168
23.4314 50.9184
23.477 52.8532
23.5225 55.215
23.5682 57.1316
23.6137 57.6681
23.6593 54.9794
23.7048 51.0172
23.7505 47.9894
23.796 46.3441
23.8417 46.0674
23.8872 45.4318
23.9329 45.1569
23.9784 44.6889
24.0241 44.3824
24.0697 44.3958
24.1154 43.8924
24.1609 43.9488
24.2066 43.6537
24.2522 43.5739
24.2979 43.2907
24.3434 43.216
24.3892 43.0338
24.4349 42.9398
24.4805 42.8367
24.5262 43.1282
24.5718 42.7698
24.6175 42.8159
24.6631 42.6897
24.7089 42.3236
24.7545 42.1402
24.8002 42.2076
24.8458 42.1408
24.8916 41.9839
24.9372 42.172
24.983 42.5953
25.0286 42.7177
25.0744 43.2467
25.12 43.6895
25.1658 44.3043
25.2114 44.6158
25.2572 44.6506
25.3029 44.767
25.3487 44.9845
25.3943 44.4435
25.4402 43.1574
25.4858 42.1354
25.5316 41.2575
25.5773 40.778
25.6231 40.7495
25.669 40.5044
25.7147 40.4796
25.7605 40.4129
25.8062 40.339
25.8521 40.6438
25.8977 40.4853
25.9436 40.8761
25.9893 41.081
26.0352 41.4608
26.0809 41.6185
26.1268 41.6987
26.1725 41.246
26.2184 40.5253
26.2641 40.1986
26.31 39.9868
26.3557 40.0678
26.4017 40.1976
26.4474 40.4453
26.4933 40.5949
26.5391 41.2625
26.585 41.7789
26.6308 42.1611
26.6767 42.1558
26.7225 41.9386
26.7684 41.32
26.8142 40.6831
26.8601 40.2518
26.9059 39.8898
26.9519 39.5053
26.9979 39.0539
27.0437 38.6914
27.0896 38.7358
27.1354 38.659
27.1814 38.5304
27.2272 38.5928
27.2732 38.5219
27.3191 38.3369
27.3651 38.3732
27.4109 38.3924
27.4569 38.5072
27.5027 38.4148
27.5488 38.3955
27.5946 38.2727
27.6407 38.0198
27.6865 37.9384
27.7326 37.7288
27.7784 37.811
27.8245 37.7085
27.8703 37.9609
27.9164 38.2881
27.9623 38.4917
28.0084 38.848
28.0543 39.1586
28.1003 38.9348
28.1462 38.757
28.1923 38.2266
28.2384 37.8597
28.2843 37.4775
28.3304 37.0568
28.3764 36.6221
28.4225 36.2437
28.4684 36.1935
28.5145 35.9157
28.5605 35.7855
28.6066 35.6575
28.6526 35.628
28.6987 35.5088
28.7447 35.5312
28.7908 35.367
28.8368 35.3924
28.8829 35.2775
28.9289 35.307
28.9751 35.1062
29.0211 34.9485
29.0673 34.6915
29.1133 34.5061
29.1595 34.4221
29.2055 34.3399
29.2517 34.3457
29.2977 34.1534
29.3439 34.236
29.3899 34.1874
29.4361 34.1203
29.4824 33.8629
29.5284 33.6353
29.5746 33.3055
29.6207 33.0843
29.6669 33.0471
29.713 32.8606
29.7593 32.7237
29.8053 32.8867
29.8516 32.6519
29.8977 32.8078
29.9439 32.5335
29.99 32.6303
30.0363 32.3155
30.0824 32.398
30.1287 32.3845
30.1748 32.4238
30.2211 32.2734
30.2673 32.2797
30.3136 32.2692
30.3597 32.1495
30.406 32.1493
30.4522 32.0386
30.4985 32.0098
30.5447 32.1388
30.591 32.1357
30.6372 32.0613
30.6835 32.121
30.7297 32.2202
30.7761 32.1369
30.8224 31.9397
30.8686 31.7465
30.915 31.4848
30.9612 31.5035
31.0076 31.1571
31.0538 31.0528
31.1002 31.0261
31.1464 31.0181
31.1928 30.8486
31.2391 30.922
31.2855 30.7949
31.3317 30.9255
31.3781 30.9352
31.4244 30.8088
31.4708 30.758
31.5171 30.6872
31.5636 30.7019
31.6098 30.5781
31.6563 30.2497
31.7026 30.2544
31.7491 30.0376
31.7953 30.1052
31.8418 30.1518
31.8881 30.1883
31.9346 30.0879
31.9809 30.0119
32.0275 29.9449
32.074 29.6891
32.1203 29.5025
32.1668 29.4838
32.2132 29.3324
32.2597 29.1345
32.306 29.1784
32.3526 28.961
32.399 28.855
32.4455 28.6705
32.4919 28.7154
32.5385 28.687
32.5848 28.4757
32.6314 28.4587
32.6778 28.378
32.7244 28.195
32.7708 28.0511
32.8174 28.1534
32.8638 28.0069
32.9104 27.9329
32.9569 27.9909
33.0035 27.8534
33.0499 27.8175
33.0966 27.7902
33.143 27.7548
33.1897 27.622
33.2361 27.6252
33.2828 27.5294
33.3293 27.2933
33.3759 27.2642
33.4226 27.2626
33.4691 27.12
33.5158 26.9203
33.5623 26.8469
33.609 26.6866
33.6555 26.6427
33.7022 26.5757
33.7487 26.461
33.7954 26.4471
33.842 26.3029
33.8887 26.2444
33.9353 26.1923
33.982 26.0942
34.0286 26.0325
34.0753 25.9134
34.1219 25.8182
34.1687 25.8442
34.2152 25.7358
34.262 25.613
34.3086 25.4766
34.3554 25.4817
34.402 25.4348
34.4488 25.2593
34.4954 25.1998
34.5422 25.1047
34.5889 24.9684
34.6357 24.9483
34.6825 24.9089
34.7292 24.7791
34.776 24.6894
34.8227 24.6279
34.8695 24.6112
34.9162 24.5269
34.9631 24.4141
35.0098 24.462
35.0566 24.2853
35.1033 24.3623
35.1502 24.1787
35.1969 24.1101
35.2438 24.1222
35.2906 24.044
35.3375 24.02
35.3842 23.9149
35.4311 23.9939
35.4779 23.9302
35.5248 23.8358
35.5716 23.6779
35.6185 23.658
35.6653 23.5393
35.7123 23.4555
35.759 23.4168
35.806 23.2631
35.8528 23.1952
35.8998 23.135
35.9468 23.0955
35.9936 23.0316
36.0406 22.9933
36.0874 22.906
36.1345 22.9152
36.1813 22.7887
36.2283 22.6393
36.2752 22.5883
36.3222 22.7136
36.3691 22.5193
36.4161 22.3842
36.463 22.431
36.5101 22.3849
36.557 22.3297
36.6041 22.1343
36.651 22.2021
36.6981 22.1058
36.745 22.0411
36.7921 21.8829
36.839 21.8752
36.8861 21.7442
36.9331 21.6998
36.9802 21.6643
37.0272 21.5317
37.0743 21.4792
37.1213 21.3741
37.1684 21.3094
37.2154 21.3228
37.2626 21.1693
37.3098 21.1705
37.3568 21.0819
37.404 21.0471
37.451 20.9504
37.4982 20.9404
37.5452 20.8792
37.5924 20.8211
37.6395 20.8065
37.6867 20.6566
37.7337 20.5532
37.781 20.4111
37.8281 20.4523
37.8753 20.3639
37.9224 20.35
37.9697 20.1499
38.0168 20.236
38.064 20.0734
38.1111 20.077
38.1584 19.9237
38.2056 19.9247
38.2529 19.8595
38.3 19.7359
38.3473 19.819
38.3945 19.6168
38.4418 19.6532
38.489 19.5387
38.5363 19.4895
38.5837 19.4259
38.6309 19.3473
38.6782 19.287
38.7254 19.2814
38.7728 19.1524
38.82 19.1051
38.8674 19.0398
38.9146 18.9678
38.9621 18.8609
39.0093 18.9438
39.0567 18.7831
39.104 18.7459
39.1514 18.6563
39.1987 18.6901
39.2461 18.5728
39.2934 18.5795
39.3409 18.39
39.3882 18.3829
39.4356 18.3284
39.483 18.2623
39.5304 18.2629
39.5778 18.2318
39.6253 18.0845
39.6726 18.0942
39.7201 18.0208
39.7675 17.9542
39.815 17.9366
39.8624 17.8262
39.9099 17.8198
39.9575 17.7364
40.0049 17.652
40.0525 17.621
40.0999 17.5931
40.1474 17.5096
40.1949 17.3979
40.2425 17.3379
40.2899 17.3568
40.3375 17.299
40.385 17.1827
40.4326 17.1503
40.48 17.0858
40.5277 17.0864
40.5752 16.9533
40.6228 16.949
40.6703 16.8673
40.718 16.8922
40.7655 16.7849
40.8132 16.7643
40.8607 16.6814
40.9084 16.6854
40.9559 16.5182
41.0036 16.5087
41.0512 16.4994
41.0989 16.4375
41.1465 16.3557
41.1942 16.3634
41.242 16.1859
41.2896 16.2014
41.3373 16.0705
41.3849 16.0785
41.4327 16.0479
41.4803 15.9096
41.5281 15.9276
41.5758 15.8399
41.6236 15.8273
41.6712 15.7634
41.7191 15.7458
41.7667 15.6502
41.8146 15.6488
41.8622 15.5492
41.9101 15.4829
41.9578 15.4002
42.0057 15.3879
42.0534 15.3669
42.1013 15.261
42.149 15.2813
42.1969 15.2108
42.2446 15.1109
42.2925 15.1084
42.3403 15.0555
42.3882 15.021
42.436 14.9375
42.4839 14.9004
42.5319 14.8539
42.5797 14.7533
42.6277 14.7538
42.6755 14.6946
42.7235 14.572
42.7713 14.6011
42.8193 14.5103
42.8671 14.4894
42.9152 14.4617
42.963 14.3715
43.0111 14.3052
43.0589 14.2828
43.107 14.2295
43.1549 14.2275
43.2029 14.1332
43.2508 14.1122
43.2989 14.0688
43.3468 14.0089
43.3949 13.99
43.4429 13.9158
43.491 13.8857
43.5389 13.8509
43.5871 13.7598
43.635 13.6796
43.6832 13.6802
43.7312 13.592
43.7793 13.565
43.8273 13.5496
43.8755 13.4358
43.9237 13.4492
43.9717 13.3713
44.0199 13.3071
44.068 13.3047
44.1162 13.2192
44.1642 13.2357
44.2125 13.1841
44.2606 13.13
44.3088 13.0647
44.3569 13.0121
44.4052 12.9702
44.4533 12.8917
44.5016 12.8477
44.5497 12.8365
44.598 12.8125
44.6461 12.733
44.6945 12.6991
44.7426 12.6649
44.791 12.5743
44.8391 12.5318
44.8875 12.5307
44.9357 12.4827
44.984 12.4445
45.0322 12.4077
45.0806 12.3352
45.1288 12.2997
45.1773 12.2688
45.2257 12.1785
45.2739 12.1831
45.3224 12.1804
45.3706 12.1173
45.4191 11.994
45.4673 12.0515
45.5158 11.9755
45.5641 11.9091
45.6126 11.885
45.6609 11.8529
45.7094 11.7965
45.7577 11.7499
45.8063 11.7185
45.8546 11.6421
45.9031 11.6159
45.9515 11.5714
46.0001 11.5347
46.0484 11.5373
46.097 11.4877
46.1454 11.4334
46.194 11.3749
46.2424 11.3239
46.291 11.2714
46.3395 11.2698
46.3881 11.1988
46.4365 11.2041
46.4852 11.1529
46.5337 11.0737
46.5823 11.0689
46.631 10.9819
46.6795 10.9979
46.7282 10.9331
46.7767 10.9017
46.8254 10.839
46.8739 10.8262
46.9226 10.7437
46.9712 10.7258
47.0199 10.6841
47.0685 10.6373
47.1173 10.6136
47.1658 10.5873
47.2146 10.5465
47.2632 10.4965
47.312 10.4893
47.3606 10.4337
47.4095 10.3715
47.4581 10.3442
47.5069 10.2762
47.5556 10.2647
47.6044 10.2033
47.6531 10.1851
47.702 10.1541
47.7507 10.1383
47.7996 10.0861
47.8483 10.0603
47.8972 10.0104
47.9461 9.96404
47.9948 9.90398
48.0438 9.88607
48.0925 9.87776
48.1415 9.83253
48.1902 9.76214
48.2392 9.76984
48.288 9.76085
48.337 9.68649
48.3858 9.6583
48.4348 9.60589
48.4837 9.60749
48.5327 9.5404
48.5815 9.54984
48.6306 9.46962
48.6795 9.42025
48.7285 9.38058
48.7774 9.36405
48.8265 9.36505
48.8754 9.29637
48.9245 9.26136
48.9734 9.23033
49.0226 9.19618
49.0715 9.16441
49.1206 9.11856
49.1696 9.07161
49.2188 9.05849
49.2679 9.01986
49.3169 8.96931
49.3661 8.96201
49.4151 8.88324
49.4643 8.90258
49.5134 8.84955
49.5626 8.8398
49.6117 8.80422
49.6609 8.7652
49.71 8.69926
49.7592 8.66829
49.8083 8.66524
49.8576 8.60837
49.9067 8.56664
49.956 8.53524
50.0052 8.49072
50.0545 8.48708
50.1036 8.45542
50.153 8.43467
50.2022 8.41796
50.2515 8.34488
50.3007 8.33208
50.3501 8.29151
50.3993 8.22814
50.4487 8.21504
50.498 8.19914
50.5474 8.17862
50.5966 8.1012
50.6461 8.11297
50.6955 8.06229
50.7448 8.02259
50.7943 7.99691
50.8436 7.98986
50.8931 7.90597
50.9424 7.91122
50.9919 7.87663
51.0413 7.85939
51.0908 7.83431
51.1402 7.78172
51.1897 7.74788
51.2391 7.69329
51.2887 7.71625
51.3381 7.63121
51.3877 7.64372
51.4371 7.58981
51.4867 7.58836
51.5362 7.52802
51.5858 7.54905
51.6353 7.45351
51.6849 7.43406
51.7344 7.4044
51.7841 7.41299
51.8336 7.33675
51.8833 7.28171
51.9328 7.2696
51.9826 7.2393
52.0323 7.18853
52.0818 7.19447
52.1316 7.15995
52.1812 7.16143
52.231 7.13772
52.2806 7.06906
52.3304 7.06879
52.38 7.03265
52.4298 6.98779
52.4794 6.95833
52.5293 6.92335
52.5789 6.8745
52.6288 6.82955
52.6785 6.82481
52.7284 6.84037
52.7781 6.78422
52.828 6.76803
52.8777 6.69933
52.9276 6.69389
52.9774 6.68953
53.0273 6.64286
53.0771 6.65119
53.1271 6.62417
53.1769 6.54861
53.2269 6.54509
53.2767 6.53443
53.3267 6.48254
53.3765 6.42793
53.4266 6.43852
53.4766 6.36042
53.5265 6.37357
53.5765 6.34583
53.6264 6.27325
53.6765 6.24619
53.7264 6.25861
53.7765 6.23588
53.8265 6.21093
53.8766 6.19048
53.9266 6.18719
53.9767 6.08604
54.0267 6.12959
54.0769 6.08953
54.1269 6.06185
54.1771 5.98246
54.2271 5.9836
54.2773 5.91953
54.3274 5.92117
54.3776 5.90108
54.4277 5.86748
54.478 5.85224
54.528 5.77955
54.5783 5.76392
54.6285 5.75578
54.6788 5.66051
54.7289 5.62147
54.7792 5.59669
54.8296 5.50065
54.8798 5.48063
54.9301 5.49513
54.9803 5.38253
55.0307 5.4018
55.0809 5.41072
55.1314 5.37239
55.1816 5.27928
55.232 5.21454
55.2823 5.25044
55.3328 5.10373
55.383 5.08894
55.4335 5.07431
55.4838 4.977
55.5344 4.95991
55.5847 4.90803
55.6352 4.83991
55.6856 4.81508
55.7361 4.82433