File: XRD/Ni3Fe_FD0337.xy
TT I
1.27165 8.08175
1.31627 7.39241
1.36089 7.28231
1.40551 5.55901
1.45013 6.62953
1.49476 6.47417
1.53938 6.26387
1.584 5.55867
1.62863 5.3898
1.67325 5.34085
1.71787 5.6132
1.7625 5.32386
1.80712 4.64503
1.85174 5.24658
1.89636 4.6948
1.94099 4.81418
1.98562 5.12299
2.03025 4.71482
2.07487 4.6364
2.11949 5.43434
2.16411 4.38581
2.20874 11.2815
2.25338 15.7308
2.298 5.58201
2.34263 5.38833
2.38725 5.39347
2.43188 5.45401
2.4765 5.81915
2.52115 6.08505
2.56577 7.21867
2.6104 6.70504
2.65503 6.72196
2.69965 7.2718
2.7443 7.14611
2.78893 7.86388
2.83356 8.01061
2.87818 7.94664
2.92281 8.74081
2.96744 8.90486
3.01209 10.7031
3.05672 10.9844
3.10135 12.2623
3.14599 13.0299
3.19062 14.3428
3.23527 15.1677
3.2799 16.0315
3.32454 17.0149
3.36917 17.8988
3.4138 19.1601
3.45844 20.0183
3.50309 21.4203
3.54773 22.1011
3.59237 23.9742
3.637 69.5792
3.68164 46.7074
3.7263 26.5362
3.77094 26.3013
3.81558 26.8729
3.86022 27.6789
3.90486 29.7027
3.9495 30.4096
3.99416 31.4875
4.0388 32.7434
4.08344 34.4604
4.12809 35.7398
4.17273 37.4316
4.21738 42.4841
4.26204 182.012
4.30669 152.992
4.35133 47.4251
4.39598 45.2164
4.44063 52.302
4.4853 60.4598
4.52995 53.0099
4.5746 53.4862
4.61925 54.7154
4.6639 57.1708
4.70855 59.8607
4.75322 62.8675
4.79788 66.849
4.84253 70.0847
4.88719 74.738
4.93184 79.1157
4.97652 85.0937
5.02118 92.1247
5.06583 101.132
5.11049 116.444
5.15515 181.045
5.19981 581.185
5.24449 3630.18
5.28916 11427.5
5.33382 3488.78
5.37848 224.734
5.42315 139.937
5.46783 121.465
5.5125 111.92
5.55716 106.917
5.60183 102.792
5.6465 100.475
5.69117 99.0677
5.73586 96.4587
5.78053 96.9508
5.8252 96.693
5.86988 98.386
5.91455 102.044
5.95924 115.583
6.00392 311.463
6.0486 1267.08
6.09328 4107.9
6.13795 3401.03
6.18263 285.933
6.22733 100.738
6.27201 86.5352
6.3167 96.4458
6.36138 80.0821
6.40606 71.3364
6.45075 69.6226
6.49545 67.3499
6.54014 65.7665
6.58483 64.5881
6.62952 64.2728
6.67421 85.1843
6.71892 116.006
6.76361 66.64
6.8083 60.2079
6.853 58.9036
6.89769 58.3262
6.94239 57.876
6.98711 57.4864
7.03181 57.2351
7.07651 56.7069
7.12121 56.4767
7.16591 56.986
7.21063 56.4989
7.25533 67.4583
7.30004 138.235
7.34475 79.9502
7.38945 57.3157
7.43416 55.6487
7.47889 55.8592
7.5236 55.9509
7.56831 57.0311
7.61303 57.6555
7.65774 57.9883
7.70247 58.1526
7.74719 57.5518
7.79191 57.7921
7.83663 58.4987
7.88135 59.6024
7.92607 60.5293
7.97081 61.6819
8.01553 62.6491
8.06026 63.9699
8.10498 65.7637
8.14971 72.8341
8.19446 72.916
8.23919 71.7312
8.28392 74.6031
8.32865 77.1794
8.37339 81.9398
8.41812 89.1446
8.46288 115.767
8.50761 218.448
8.55235 493.525
8.59709 1176.39
8.64183 2122.54
8.68658 1049.71
8.73134 182.211
8.77609 104.787
8.82083 96.6465
8.86558 92.9421
8.91033 92.6895
8.9551 92.5039
8.99985 88.0822
9.04461 86.6061
9.08936 85.7324
9.13412 85.0981
9.17888 84.7091
9.22365 85.0039
9.26841 84.8219
9.31318 85.7354
9.35794 85.8514
9.4027 86.0072
9.44749 86.9443
9.49226 87.6343
9.53703 88.5831
9.5818 90.4826
9.62657 94.1244
9.67134 99.4962
9.71614 96.5851
9.76091 97.5772
9.80569 100.544
9.85047 103.981
9.89525 122.311
9.94005 139.447
9.98484 227.281
10.0296 433.094
10.0744 862.868
10.1192 1609.98
10.164 1661.77
10.2088 478.918
10.2536 136.578
10.2984 116.955
10.3432 115.618
10.388 109.951
10.4328 134.788
10.4776 186.418
10.5224 296.605
10.5672 484.504
10.612 523.951
10.6568 213.707
10.7017 100.559
10.7465 89.8085
10.7913 85.9751
10.8361 83.633
10.8809 81.4139
10.9257 80.1031
10.9706 80.5282
11.0154 76.8997
11.0602 74.8323
11.105 73.7816
11.1499 76.6379
11.1947 80.3962
11.2395 74.594
11.2844 71.6472
11.3292 69.286
11.374 68.051
11.4189 67.8285
11.4637 66.7716
11.5086 67.0311
11.5534 68.7779
11.5983 67.0027
11.6431 65.4986
11.688 64.8747
11.7328 65.0592
11.7777 64.605
11.8225 64.5315
11.8674 64.3418
11.9122 64.6154
11.9571 65.0981
12.002 66.2815
12.0468 73.3847
12.0917 86.5794
12.1366 109.829
12.1814 149.716
12.2263 198.955
12.2712 174.21
12.3161 98.2696
12.3609 71.355
12.4058 66.6995
12.4507 66.4343
12.4956 66.5937
12.5405 66.6446
12.5853 67.4214
12.6302 72.6056
12.6751 76.6374
12.72 71.0251
12.7649 70.0242
12.8098 70.6229
12.8547 71.9651
12.8996 73.378
12.9445 74.935
12.9894 76.7563
13.0343 78.794
13.0792 83.0367
13.1242 98.1191
13.1691 126.784
13.214 167.066
13.2589 245.968
13.3038 352.033
13.3487 423.357
13.3937 279.774
13.4386 132.482
13.4835 116.81
13.5285 135.875
13.5734 173.026
13.6183 242.594
13.6633 330.223
13.7082 341.197
13.7531 199.856
13.7981 102.323
13.843 84.725
13.888 82.0539
13.9329 79.5627
13.9779 78.0969
14.0228 76.7634
14.0678 75.2422
14.1127 74.7636
14.1577 74.21
14.2027 73.4855
14.2476 72.654
14.2926 72.4491
14.3376 73.01
14.3825 72.1942
14.4275 70.9077
14.4725 70.8063
14.5175 71.2315
14.5624 71.2004
14.6074 72.7603
14.6524 73.6991
14.6974 72.9845
14.7424 76.5581
14.7874 85.7737
14.8324 98.0511
14.8774 119.153
14.9224 154.005
14.9674 199.5
15.0124 217.643
15.0574 154.789
15.1024 94.3873
15.1474 74.7156
15.1924 72.6704
15.2374 72.6055
15.2824 71.6553
15.3274 69.7704
15.3725 68.684
15.4175 68.615
15.4625 68.1542
15.5076 68.1161
15.5526 68.4604
15.5976 68.3346
15.6426 70.8104
15.6877 78.1956
15.7327 87.0608
15.7778 102.532
15.8228 128.367
15.8679 162.701
15.9129 191.361
15.958 164.161
16.003 102.251
16.0481 70.2643
16.0931 65.8608
16.1382 63.9818
16.1833 62.4441
16.2283 60.9116
16.2734 60.091
16.3185 60.0145
16.3636 60.3564
16.4086 59.0874
16.4537 57.7328
16.4988 57.2135
16.5439 57.1086
16.589 56.8135
16.6341 56.6272
16.6792 56.0226
16.7243 56.4777
16.7694 56.8238
16.8145 56.4985
16.8596 56.8785
16.9047 57.7797
16.9498 57.8692
16.9949 57.2438
17.04 57.8538
17.0851 59.6143
17.1302 61.3394
17.1754 64.6644
17.2205 69.0874
17.2656 75.0303
17.3108 82.4856
17.3559 84.1832
17.401 73.8666
17.4462 64.4794
17.4913 61.0179
17.5365 60.9837
17.5815 61.0976
17.6268 61.6688
17.6718 62.3999
17.7171 62.6825
17.7622 63.3647
17.8074 64.5084
17.8525 68.1356
17.8977 72.6937
17.9428 78.7023
17.9881 87.8185
18.0331 101.856
18.0784 119.776
18.1237 139.95
18.1688 137.544
18.214 110.7
18.2591 90.9953
18.3044 91.7914
18.3495 99.0637
18.3948 106.221
18.4399 98.9947
18.4852 80.0777
18.5303 67.8813
18.5756 64.1192
18.6207 63.1257
18.666 62.2771
18.7112 61.6458
18.7565 60.9433
18.8016 60.4993
18.8469 59.8377
18.892 59.6164
18.9374 59.0082
18.9825 58.9138
19.0278 58.6776
19.073 58.8978
19.1183 59.7819
19.1635 60.4421
19.2088 61.9099
19.254 64.47
19.2993 67.9132
19.3447 72.4399
19.3898 77.1274
19.4352 74.6469
19.4804 65.7925
19.5257 58.6129
19.5709 55.9011
19.6163 55.8137
19.6615 55.3138
19.7068 55.0798
19.752 55.0026
19.7974 55.5764
19.8426 56.5408
19.888 57.3313
19.9332 58.5636
19.9786 60.9604
20.0238 63.928
20.0692 67.9445
20.1144 71.5698
20.1598 71.0555
20.205 66.4039
20.2504 63.7178
20.2957 64.4782
20.3411 66.5771
20.3863 65.723
20.4318 60.4592
20.477 55.2489
20.5224 53.2295
20.5677 52.4702
20.6131 51.6784
20.6586 51.1992
20.7038 51.1942
20.7493 50.6425
20.7945 50.5701
20.84 50.4725
20.8853 50.382
20.9307 50.1733
20.976 50.4821
21.0215 50.3384
21.0668 50.7432
21.1122 51.0278
21.1575 51.6128
21.203 52.1157
21.2483 52.8451
21.2938 53.1801
21.3391 51.8045
21.3846 50.753
21.4299 49.992
21.4754 49.9594
21.5207 50.0912
21.5662 50.4996
21.6116 51.3368
21.6571 51.9648
21.7024 52.9763
21.7479 54.8388
21.7933 57.2462
21.8388 60.011
21.8843 63.5032
21.9297 66.3745
21.9752 65.4947
22.0206 61.5074
22.0661 58.0355
22.1115 57.1363
22.157 57.3384
22.2024 56.0531
22.248 53.1945
22.2933 51.5318
22.3389 50.7142
22.3843 50.5564
22.4299 50.2977
22.4753 50.445
22.5208 50.1588
22.5662 50.0343
22.6118 50.288
22.6572 50.5742
22.7028 51.0578
22.7483 51.5933
22.7939 52.3703
22.8393 53.8067
22.8849 55.3162
22.9303 57.0937
22.9759 58.9882
23.0214 59.1907
23.067 56.3747
23.1126 52.9578
23.1581 50.8895
23.2037 50.3557
23.2492 50.6372
23.2948 50.6377
23.3403 51.1996
23.3859 51.5076
23.4314 52.621
23.477 54.0698
23.5225 55.6828
23.5682 57.6001
23.6137 59.265
23.6593 57.3982
23.7048 53.4563
23.7505 49.8675
23.796 48.2246
23.8417 47.4226
23.8872 46.8628
23.9329 46.5854
23.9784 46.2747
24.0241 45.9731
24.0697 45.8872
24.1154 45.4688
24.1609 45.308
24.2066 45.2032
24.2522 44.9312
24.2979 44.8447
24.3434 44.5684
24.3892 44.4516
24.4349 44.4274
24.4805 44.2337
24.5262 44.3978
24.5718 44.0626
24.6175 44.2831
24.6631 44.2472
24.7089 43.8949
24.7545 43.6546
24.8002 43.5052
24.8458 43.4982
24.8916 43.4798
24.9372 43.5541
24.983 43.948
25.0286 44.2043
25.0744 44.575
25.12 44.9861
25.1658 45.5342
25.2114 45.8739
25.2572 45.9923
25.3029 45.9335
25.3487 46.0654
25.3943 46.0732
25.4402 44.9494
25.4858 43.8967
25.5316 42.7238
25.5773 42.1918
25.6231 42.2016
25.669 41.6752
25.7147 41.8135
25.7605 41.7609
25.8062 41.7963
25.8521 41.8749
25.8977 41.803
25.9436 42.0839
25.9893 42.0726
26.0352 42.6667
26.0809 42.5744
26.1268 42.9393
26.1725 42.6937
26.2184 42.0959
26.2641 41.7103
26.31 41.4533
26.3557 41.3059
26.4017 41.4032
26.4474 41.8354
26.4933 42.0058
26.5391 42.3541
26.585 42.816
26.6308 43.0715
26.6767 43.4437
26.7225 43.2048
26.7684 42.7153
26.8142 42.0759
26.8601 41.633
26.9059 41.2986
26.9519 40.7242
26.9979 40.2638
27.0437 40.1413
27.0896 40.0511
27.1354 40.0217
27.1814 39.8528
27.2272 39.7375
27.2732 39.819
27.3191 39.5374
27.3651 39.6826
27.4109 39.5542
27.4569 39.6811
27.5027 39.5818
27.5488 39.7092
27.5946 39.4636
27.6407 39.399
27.6865 39.3508
27.7326 39.1095
27.7784 38.8917
27.8245 38.8955
27.8703 39.1834
27.9164 39.521
27.9623 39.4625
28.0084 39.8253
28.0543 40.0588
28.1003 40.1111
28.1462 39.9127
28.1923 39.6011
28.2384 38.941
28.2843 38.8051
28.3304 38.278
28.3764 37.8954
28.4225 37.4089
28.4684 37.4424
28.5145 37.0085
28.5605 36.8791
28.6066 36.5703
28.6526 36.6255
28.6987 36.6679
28.7447 36.5532
28.7908 36.5056
28.8368 36.3585
28.8829 36.5088
28.9289 36.3507
28.9751 36.2565
29.0211 36.0213
29.0673 35.7122
29.1133 35.5106
29.1595 35.4494
29.2055 35.3464
29.2517 35.3269
29.2977 35.3268
29.3439 35.19
29.3899 35.2801
29.4361 35.1993
29.4824 35.1367
29.5284 34.8438
29.5746 34.4789
29.6207 34.0781
29.6669 34.0821
29.713 33.8775
29.7593 33.9116
29.8053 33.8427
29.8516 33.7684
29.8977 33.6973
29.9439 33.7304
29.99 33.5832
30.0363 33.391
30.0824 33.557
30.1287 33.4445
30.1748 33.4751
30.2211 33.3189
30.2673 33.2563
30.3136 33.3557
30.3597 33.2599
30.406 33.1914
30.4522 33.0744
30.4985 33.0005
30.5447 33.1408
30.591 33.0945
30.6372 33.1441
30.6835 33.0273
30.7297 33.1658
30.7761 33.066
30.8224 32.8948
30.8686 32.7163
30.915 32.5607
30.9612 32.5073
31.0076 32.3308
31.0538 32.0985
31.1002 32.022
31.1464 31.8709
31.1928 31.8941
31.2391 31.8907
31.2855 31.805
31.3317 31.8373
31.3781 31.8315
31.4244 31.7721
31.4708 31.6733
31.5171 31.6304
31.5636 31.6627
31.6098 31.4145
31.6563 31.3059
31.7026 31.052
31.7491 31.0177
31.7953 31.1507
31.8418 31.0724
31.8881 31.128
31.9346 31.0412
31.9809 30.9376
32.0275 30.797
32.074 30.7109
32.1203 30.487
32.1668 30.3368
32.2132 30.2157
32.2597 30.0575
32.306 30.1153
32.3526 29.8681
32.399 29.7354
32.4455 29.6564
32.4919 29.5251
32.5385 29.5508
32.5848 29.3128
32.6314 29.4032
32.6778 29.2232
32.7244 29.089
32.7708 29.022
32.8174 28.9747
32.8638 28.8775
32.9104 28.9024
32.9569 28.856
33.0035 28.7295
33.0499 28.6462
33.0966 28.7158
33.143 28.6756
33.1897 28.4961
33.2361 28.3386
33.2828 28.3839
33.3293 28.2094
33.3759 28.2028
33.4226 28.0456
33.4691 27.9417
33.5158 27.7348
33.5623 27.6828
33.609 27.5076
33.6555 27.4649
33.7022 27.4649
33.7487 27.2101
33.7954 27.316
33.842 27.1185
33.8887 27.0775
33.9353 27.0516
33.982 26.8619
34.0286 26.8281
34.0753 26.7465
34.1219 26.696
34.1687 26.6011
34.2152 26.4879
34.262 26.4141
34.3086 26.2897
34.3554 26.3365
34.402 26.1112
34.4488 26.0174
34.4954 25.9468
34.5422 25.8786
34.5889 25.687
34.6357 25.7113
34.6825 25.6351
34.7292 25.5389
34.776 25.4486
34.8227 25.3884
34.8695 25.3032
34.9162 25.2601
34.9631 25.2514
35.0098 25.1278
35.0566 25.0917
35.1033 25.0595
35.1502 24.9417
35.1969 24.8651
35.2438 24.9352
35.2906 24.7945
35.3375 24.7923
35.3842 24.6948
35.4311 24.7119
35.4779 24.6125
35.5248 24.6001
35.5716 24.5074
35.6185 24.429
35.6653 24.2471
35.7123 24.2504
35.759 24.0593
35.806 24.0061
35.8528 23.8941
35.8998 23.9053
35.9468 23.782
35.9936 23.842
36.0406 23.6594
36.0874 23.6118
36.1345 23.5967
36.1813 23.5025
36.2283 23.3224
36.2752 23.3394
36.3222 23.2475
36.3691 23.1704
36.4161 23.0824
36.463 23.1316
36.5101 23.1028
36.557 23.0355
36.6041 22.8201
36.651 22.8205
36.6981 22.739
36.745 22.6761
36.7921 22.64
36.839 22.5286
36.8861 22.4282
36.9331 22.3391
36.9802 22.3308
37.0272 22.2456
37.0743 22.0783
37.1213 22.0733
37.1684 22.0447
37.2154 21.9845
37.2626 21.8203
37.3098 21.8334
37.3568 21.7534
37.404 21.6853
37.451 21.603
37.4982 21.5046
37.5452 21.4028
37.5924 21.452
37.6395 21.458
37.6867 21.3523
37.7337 21.2613
37.781 21.0815
37.8281 21.0842
37.8753 21.0263
37.9224 20.9435
37.9697 20.848
38.0168 20.8171
38.064 20.7294
38.1111 20.6552
38.1584 20.6177
38.2056 20.5576
38.2529 20.5207
38.3 20.349
38.3473 20.359
38.3945 20.303
38.4418 20.317
38.489 20.1538
38.5363 20.0329
38.5837 20.0058
38.6309 19.9913
38.6782 19.8652
38.7254 19.8075
38.7728 19.7189
38.82 19.7253
38.8674 19.6441
38.9146 19.5627
38.9621 19.5643
39.0093 19.4199
39.0567 19.3723
39.104 19.357
39.1514 19.2696
39.1987 19.2448
39.2461 19.1956
39.2934 19.1097
39.3409 18.9857
39.3882 18.9523
39.4356 18.8774
39.483 18.823
39.5304 18.7342
39.5778 18.7428
39.6253 18.6988
39.6726 18.5801
39.7201 18.5169
39.7675 18.478
39.815 18.4673
39.8624 18.3968
39.9099 18.3587
39.9575 18.2677
40.0049 18.1845
40.0525 18.1363
40.0999 18.0969
40.1474 17.9696
40.1949 17.9951
40.2425 17.9197
40.2899 17.8267
40.3375 17.8477
40.385 17.7179
40.4326 17.6984
40.48 17.5825
40.5277 17.566
40.5752 17.5089
40.6228 17.3963
40.6703 17.3694
40.718 17.3452
40.7655 17.3107
40.8132 17.2879
40.8607 17.2544
40.9084 17.1327
40.9559 17.1795
41.0036 17.0615
41.0512 17.021
41.0989 16.9374
41.1465 16.8377
41.1942 16.8187
41.242 16.7279
41.2896 16.6489
41.3373 16.6544
41.3849 16.619
41.4327 16.5408
41.4803 16.4977
41.5281 16.4077
41.5758 16.3163
41.6236 16.243
41.6712 16.2786
41.7191 16.1751
41.7667 16.1206
41.8146 16.0749
41.8622 16.0828
41.9101 16.0279
41.9578 15.8786
42.0057 15.8455
42.0534 15.8496
42.1013 15.769
42.149 15.7226
42.1969 15.6413
42.2446 15.6036
42.2925 15.5998
42.3403 15.4376
42.3882 15.4439
42.436 15.451
42.4839 15.3179
42.5319 15.3292
42.5797 15.252
42.6277 15.1636
42.6755 15.1599
42.7235 15.0858
42.7713 15.063
42.8193 14.985
42.8671 14.9423
42.9152 14.9162
42.963 14.8441
43.0111 14.8224
43.0589 14.785
43.107 14.7188
43.1549 14.6618
43.2029 14.573
43.2508 14.5549
43.2989 14.4795
43.3468 14.394
43.3949 14.3409
43.4429 14.3561
43.491 14.2943
43.5389 14.1936
43.5871 14.1961
43.635 14.1076
43.6832 14.039
43.7312 14.0435
43.7793 13.9503
43.8273 13.9224
43.8755 13.839
43.9237 13.8614
43.9717 13.8121
44.0199 13.721
44.068 13.6941
44.1162 13.6383
44.1642 13.6468
44.2125 13.5555
44.2606 13.5147
44.3088 13.4512
44.3569 13.4222
44.4052 13.3222
44.4533 13.2912
44.5016 13.2829
44.5497 13.2297
44.598 13.1658
44.6461 13.1695
44.6945 13.1031
44.7426 13.0635
44.791 12.9441
44.8391 12.9226
44.8875 12.8982
44.9357 12.8705
44.984 12.7918
45.0322 12.8027
45.0806 12.7427
45.1288 12.6935
45.1773 12.6139
45.2257 12.5736
45.2739 12.5514
45.3224 12.4776
45.3706 12.4546
45.4191 12.4039
45.4673 12.3323
45.5158 12.3395
45.5641 12.2962
45.6126 12.2521
45.6609 12.2103
45.7094 12.1008
45.7577 12.0699
45.8063 12.0262
45.8546 12.0249
45.9031 11.9918
45.9515 11.9485
46.0001 11.8908
46.0484 11.8487
46.097 11.7782
46.1454 11.7709
46.194 11.6995
46.2424 11.6552
46.291 11.6241
46.3395 11.5595
46.3881 11.5836
46.4365 11.5232
46.4852 11.4947
46.5337 11.421
46.5823 11.3843
46.631 11.3267
46.6795 11.3002
46.7282 11.2449
46.7767 11.2187
46.8254 11.1383
46.8739 11.1126
46.9226 11.084
46.9712 11.0198
47.0199 10.9718
47.0685 10.9664
47.1173 10.8694
47.1658 10.87
47.2146 10.8503
47.2632 10.7606
47.312 10.7859
47.3606 10.6978
47.4095 10.6651
47.4581 10.627
47.5069 10.5842
47.5556 10.5501
47.6044 10.4955
47.6531 10.482
47.702 10.417
47.7507 10.4014
47.7996 10.3674
47.8483 10.332
47.8972 10.3091
47.9461 10.2814
47.9948 10.2104
48.0438 10.1982
48.0925 10.1935
48.1415 10.0764
48.1902 10.064
48.2392 10.0397
48.288 10.0205
48.337 10.0016
48.3858 9.9347
48.4348 9.92952
48.4837 9.90191
48.5327 9.86695
48.5815 9.81667
48.6306 9.80646
48.6795 9.72558
48.7285 9.6749
48.7774 9.64679
48.8265 9.62967
48.8754 9.55896
48.9245 9.53818
48.9734 9.50603
49.0226 9.49586
49.0715 9.43505
49.1206 9.39915
49.1696 9.36097
49.2188 9.34652
49.2679 9.29925
49.3169 9.25674
49.3661 9.19441
49.4151 9.19194
49.4643 9.17795
49.5134 9.12511
49.5626 9.0547
49.6117 9.05951
49.6609 8.98807
49.71 8.96072
49.7592 8.96031
49.8083 8.87055
49.8576 8.85757
49.9067 8.82288
49.956 8.81005
50.0052 8.77764
50.0545 8.76476
50.1036 8.70633
50.153 8.64713
50.2022 8.66824
50.2515 8.60746
50.3007 8.5793
50.3501 8.53837
50.3993 8.50202
50.4487 8.4537
50.498 8.43741
50.5474 8.39942
50.5966 8.37731
50.6461 8.37975
50.6955 8.28306
50.7448 8.30073
50.7943 8.25388
50.8436 8.22198
50.8931 8.17311
50.9424 8.16391
50.9919 8.13325
51.0413 8.08761
51.0908 8.05448
51.1402 8.04554
51.1897 7.99582
51.2391 7.95149
51.2887 7.92033
51.3381 7.87955
51.3877 7.8648
51.4371 7.84126
51.4867 7.77486
51.5362 7.72454
51.5858 7.71787
51.6353 7.70678
51.6849 7.65514
51.7344 7.6339
51.7841 7.57399
51.8336 7.5495
51.8833 7.56311
51.9328 7.47509
51.9826 7.47911
52.0323 7.44394
52.0818 7.41471
52.1316 7.38008
52.1812 7.38551
52.231 7.31249
52.2806 7.31955
52.3304 7.2515
52.38 7.22719
52.4298 7.18311
52.4794 7.16655
52.5293 7.12143
52.5789 7.12289
52.6288 7.07458
52.6785 7.0107
52.7284 7.01255
52.7781 6.96707
52.828 6.95126
52.8777 6.89561
52.9276 6.89433
52.9774 6.88507
53.0273 6.84271
53.0771 6.78443
53.1271 6.8203
53.1769 6.74937
53.2269 6.73858
53.2767 6.69733
53.3267 6.6772
53.3765 6.60254
53.4266 6.61813
53.4766 6.57928
53.5265 6.56766
53.5765 6.53712
53.6264 6.48034
53.6765 6.43935
53.7264 6.46079
53.7765 6.42225
53.8265 6.38499
53.8766 6.42351
53.9266 6.37354
53.9767 6.30874
54.0267 6.32099
54.0769 6.20087
54.1269 6.22303
54.1771 6.1673
54.2271 6.159
54.2773 6.11345
54.3274 6.09555
54.3776 6.06785
54.4277 6.00916
54.478 6.00005
54.528 5.98497
54.5783 5.96894
54.6285 5.90111
54.6788 5.81772
54.7289 5.78206
54.7792 5.76255
54.8296 5.68738
54.8798 5.667
54.9301 5.58803
54.9803 5.60017
55.0307 5.55784
55.0809 5.50332
55.1314 5.51415
55.1816 5.43852
55.232 5.3795
55.2823 5.34619
55.3328 5.27402
55.383 5.19386
55.4335 5.19464
55.4838 5.12916
55.5344 5.11334
55.5847 5.14484
55.6352 5.00328
55.6856 4.99517
55.7361 4.94215