File: XRD/Ni3Fe_FD0331.xy
TT I
1.27165 7.24206
1.31627 7.36804
1.36089 6.89039
1.40551 6.42849
1.45013 6.28266
1.49476 5.79286
1.53938 5.75436
1.584 5.45586
1.62863 5.2556
1.67325 5.07234
1.71787 5.26932
1.7625 4.67003
1.80712 4.80015
1.85174 4.71269
1.89636 4.66046
1.94099 4.61913
1.98562 4.81369
2.03025 5.12441
2.07487 4.77244
2.11949 5.64216
2.16411 4.3033
2.20874 11.7416
2.25338 17.8296
2.298 4.93167
2.34263 5.16901
2.38725 5.44209
2.43188 5.04309
2.4765 5.86916
2.52115 6.0861
2.56577 6.55364
2.6104 7.31157
2.65503 6.82145
2.69965 7.19908
2.7443 7.22535
2.78893 7.41346
2.83356 8.09397
2.87818 8.55452
2.92281 9.01547
2.96744 9.53842
3.01209 10.7126
3.05672 11.1495
3.10135 11.9472
3.14599 13.192
3.19062 14.2959
3.23527 15.1698
3.2799 15.8221
3.32454 17.004
3.36917 18.0796
3.4138 19.452
3.45844 19.8182
3.50309 20.9266
3.54773 21.7662
3.59237 24.1628
3.637 76.6103
3.68164 50.0009
3.7263 26.2729
3.77094 26.4076
3.81558 27.1318
3.86022 28.0943
3.90486 29.126
3.9495 30.1564
3.99416 31.7711
4.0388 32.7897
4.08344 34.1951
4.12809 34.9801
4.17273 37.7116
4.21738 42.9086
4.26204 199.79
4.30669 171.611
4.35133 47.4549
4.39598 44.8494
4.44063 52.9149
4.4853 62.2047
4.52995 52.2644
4.5746 53.2907
4.61925 54.4343
4.6639 57.0355
4.70855 59.511
4.75322 62.8793
4.79788 65.8774
4.84253 69.1275
4.88719 74.2085
4.93184 77.8646
4.97652 84.1607
5.02118 91.2814
5.06583 101.268
5.11049 115.356
5.15515 182.481
5.19981 557.091
5.24449 3526.42
5.28916 11365.7
5.33382 3540.48
5.37848 227.847
5.42315 140.303
5.46783 120.391
5.5125 111.533
5.55716 106.447
5.60183 102.304
5.6465 100.749
5.69117 98.1718
5.73586 96.5104
5.78053 96.3421
5.8252 95.9593
5.86988 97.7659
5.91455 101.098
5.95924 114.54
6.00392 297.025
6.0486 1232.08
6.09328 4037.09
6.13795 3471.79
6.18263 292.884
6.22733 100.85
6.27201 86.4961
6.3167 98.3556
6.36138 80.2677
6.40606 71.3837
6.45075 69.5427
6.49545 67.0141
6.54014 65.404
6.58483 64.7839
6.62952 64.2329
6.67421 86.6143
6.71892 123.514
6.76361 67.3921
6.8083 60.2785
6.853 58.8681
6.89769 57.8497
6.94239 57.8855
6.98711 57.261
7.03181 57.0435
7.07651 56.4788
7.12121 56.3086
7.16591 56.5854
7.21063 56.7164
7.25533 67.1682
7.30004 148.144
7.34475 84.1498
7.38945 57.3831
7.43416 55.7305
7.47889 55.2055
7.5236 55.9418
7.56831 56.4621
7.61303 58.0053
7.65774 58.3364
7.70247 57.6012
7.74719 57.3751
7.79191 57.948
7.83663 58.327
7.88135 59.1419
7.92607 60.5462
7.97081 61.4075
8.01553 62.5256
8.06026 63.9507
8.10498 65.4272
8.14971 73.2747
8.19446 72.9903
8.23919 71.5122
8.28392 74.2597
8.32865 76.9636
8.37339 81.3192
8.41812 88.3234
8.46288 116.6
8.50761 211.652
8.55235 482.062
8.59709 1157.73
8.64183 2125.79
8.68658 1085.78
8.73134 186.571
8.77609 104.602
8.82083 96.2954
8.86558 93.0841
8.91033 92.0032
8.9551 92.8133
8.99985 87.7078
9.04461 86.1835
9.08936 85.2565
9.13412 84.5135
9.17888 84.4725
9.22365 84.7765
9.26841 84.7319
9.31318 85.783
9.35794 85.5459
9.4027 85.8402
9.44749 86.3763
9.49226 87.1652
9.53703 87.941
9.5818 90.7251
9.62657 94.2487
9.67134 99.7131
9.71614 95.6664
9.76091 97.1833
9.80569 99.954
9.85047 103.695
9.89525 123.364
9.94005 140.138
9.98484 220.813
10.0296 422.671
10.0744 848.608
10.1192 1612.85
10.164 1685.8
10.2088 495.26
10.2536 139.517
10.2984 116.776
10.3432 116.697
10.388 109.189
10.4328 132.81
10.4776 182.94
10.5224 289.996
10.5672 480.647
10.612 526.454
10.6568 219.623
10.7017 101.059
10.7465 89.4517
10.7913 85.5318
10.8361 83.4681
10.8809 81.1798
10.9257 80.2252
10.9706 80.3197
11.0154 76.8655
11.0602 74.8938
11.105 73.5472
11.1499 76.3978
11.1947 81.7657
11.2395 74.6787
11.2844 71.8387
11.3292 69.2497
11.374 67.9128
11.4189 67.3925
11.4637 66.7236
11.5086 66.7812
11.5534 68.8041
11.5983 67.0917
11.6431 65.4016
11.688 64.5629
11.7328 64.7373
11.7777 64.4373
11.8225 64.5525
11.8674 64.1432
11.9122 64.9529
11.9571 64.6948
12.002 66.0397
12.0468 72.6378
12.0917 85.5961
12.1366 108.828
12.1814 148.438
12.2263 199.803
12.2712 178.746
12.3161 100.559
12.3609 71.7285
12.4058 66.2867
12.4507 66.3594
12.4956 65.9601
12.5405 66.3652
12.5853 67.2547
12.6302 73.1252
12.6751 77.6224
12.72 71.5862
12.7649 69.8381
12.8098 70.1843
12.8547 71.5263
12.8996 73.2909
12.9445 74.5986
12.9894 76.7615
13.0343 78.4646
13.0792 82.3912
13.1242 96.418
13.1691 125.586
13.214 164.526
13.2589 242.514
13.3038 349.753
13.3487 426.483
13.3937 285.936
13.4386 134.082
13.4835 116.371
13.5285 134.152
13.5734 170.964
13.6183 240.07
13.6633 329.666
13.7082 344.564
13.7531 204.789
13.7981 103.112
13.843 84.6635
13.888 82.0813
13.9329 79.1936
13.9779 78.074
14.0228 76.5603
14.0678 75.1555
14.1127 74.7957
14.1577 74.5418
14.2027 73.2931
14.2476 72.516
14.2926 72.4436
14.3376 73.225
14.3825 72.3126
14.4275 70.9496
14.4725 70.8693
14.5175 71.042
14.5624 71.0968
14.6074 72.9129
14.6524 73.3759
14.6974 72.7292
14.7424 75.7711
14.7874 85.4905
14.8324 96.7735
14.8774 117.984
14.9224 152.721
14.9674 198.876
15.0124 219.371
15.0574 157.474
15.1024 95.1045
15.1474 74.9797
15.1924 72.5288
15.2374 72.6613
15.2824 71.9357
15.3274 69.8338
15.3725 68.9098
15.4175 68.3611
15.4625 68.0276
15.5076 68.0116
15.5526 68.2104
15.5976 67.7992
15.6426 70.4195
15.6877 77.7215
15.7327 86.5642
15.7778 101.394
15.8228 127.321
15.8679 162.729
15.9129 192.304
15.958 166.346
16.003 103.661
16.0481 70.3964
16.0931 66.2018
16.1382 64.2379
16.1833 62.3502
16.2283 60.7144
16.2734 60.1533
16.3185 60.0669
16.3636 60.5651
16.4086 59.2206
16.4537 57.8438
16.4988 57.1656
16.5439 57.2173
16.589 56.8999
16.6341 56.5752
16.6792 56.1922
16.7243 56.3516
16.7694 56.5
16.8145 56.533
16.8596 56.8129
16.9047 57.9175
16.9498 58.2998
16.9949 57.278
17.04 57.6654
17.0851 59.5342
17.1302 61.4448
17.1754 64.4267
17.2205 69.0709
17.2656 74.713
17.3108 82.9162
17.3559 84.2198
17.401 74.4671
17.4462 64.3615
17.4913 61.1375
17.5365 60.877
17.5815 61.0648
17.6268 61.3383
17.6718 62.1941
17.7171 62.8014
17.7622 63.0596
17.8074 64.1583
17.8525 67.9218
17.8977 72.2799
17.9428 78.685
17.9881 87.0948
18.0331 101.415
18.0784 119.301
18.1237 140.154
18.1688 138.651
18.214 111.912
18.2591 91.2724
18.3044 91.4377
18.3495 99.1098
18.3948 106.937
18.4399 99.8109
18.4852 80.7773
18.5303 68.2443
18.5756 63.8827
18.6207 63.2666
18.666 62.2295
18.7112 61.5365
18.7565 60.7692
18.8016 60.416
18.8469 59.791
18.892 59.7553
18.9374 58.9751
18.9825 58.8689
19.0278 58.6313
19.073 58.9628
19.1183 59.6427
19.1635 60.4708
19.2088 62.0413
19.254 64.2571
19.2993 67.4598
19.3447 72.7654
19.3898 77.425
19.4352 74.9213
19.4804 66.289
19.5257 58.7909
19.5709 55.982
19.6163 55.5258
19.6615 55.5702
19.7068 55.0627
19.752 54.9995
19.7974 55.6259
19.8426 56.3949
19.888 57.2655
19.9332 58.2633
19.9786 60.8109
20.0238 63.8851
20.0692 67.7607
20.1144 71.307
20.1598 71.2259
20.205 66.454
20.2504 63.4398
20.2957 64.5602
20.3411 66.6587
20.3863 66.0838
20.4318 60.79
20.477 55.4245
20.5224 53.0521
20.5677 52.4269
20.6131 51.9827
20.6586 51.3421
20.7038 51.1519
20.7493 50.6165
20.7945 50.4108
20.84 50.2775
20.8853 50.2787
20.9307 50.0673
20.976 50.3338
21.0215 50.3077
21.0668 50.7048
21.1122 51.0571
21.1575 51.4831
21.203 52.0675
21.2483 52.7515
21.2938 53.1238
21.3391 51.8269
21.3846 50.5857
21.4299 50.1058
21.4754 50.1116
21.5207 50.1282
21.5662 50.5368
21.6116 51.0951
21.6571 51.7055
21.7024 52.9261
21.7479 54.5423
21.7933 56.9783
21.8388 60.1416
21.8843 63.5872
21.9297 66.479
21.9752 65.6135
22.0206 61.8803
22.0661 57.9895
22.1115 57.3166
22.157 57.5446
22.2024 56.1799
22.248 53.1399
22.2933 51.5832
22.3389 50.687
22.3843 50.4495
22.4299 50.3291
22.4753 50.3745
22.5208 50.178
22.5662 50.007
22.6118 50.3633
22.6572 50.8057
22.7028 51.1165
22.7483 51.551
22.7939 52.3082
22.8393 53.6622
22.8849 55.2457
22.9303 57.0622
22.9759 58.933
23.0214 59.0573
23.067 56.7127
23.1126 53.0178
23.1581 50.8728
23.2037 50.2402
23.2492 50.7887
23.2948 50.6161
23.3403 50.9234
23.3859 51.4992
23.4314 52.6297
23.477 54.0882
23.5225 55.7932
23.5682 57.6869
23.6137 59.1495
23.6593 57.689
23.7048 53.6429
23.7505 49.9336
23.796 48.0676
23.8417 47.5082
23.8872 46.9524
23.9329 46.7389
23.9784 46.1906
24.0241 46.1123
24.0697 45.62
24.1154 45.5046
24.1609 45.2879
24.2066 45.3735
24.2522 45.0681
24.2979 44.95
24.3434 44.7705
24.3892 44.5467
24.4349 44.4016
24.4805 44.1862
24.5262 44.4472
24.5718 44.0861
24.6175 44.2879
24.6631 44.2019
24.7089 43.8125
24.7545 43.6486
24.8002 43.6227
24.8458 43.5595
24.8916 43.3246
24.9372 43.5965
24.983 43.8733
25.0286 44.211
25.0744 44.5517
25.12 45.0961
25.1658 45.6216
25.2114 46.0101
25.2572 46.0083
25.3029 46.0402
25.3487 45.9881
25.3943 46.0459
25.4402 45.1789
25.4858 43.956
25.5316 42.7783
25.5773 42.1907
25.6231 42.1733
25.669 41.837
25.7147 41.7579
25.7605 41.7793
25.8062 41.8019
25.8521 41.8973
25.8977 41.8181
25.9436 42.124
25.9893 42.122
26.0352 42.6185
26.0809 42.5977
26.1268 42.9199
26.1725 42.772
26.2184 42.2403
26.2641 41.7299
26.31 41.413
26.3557 41.385
26.4017 41.5242
26.4474 41.6708
26.4933 42.02
26.5391 42.342
26.585 42.6713
26.6308 43.1286
26.6767 43.3743
26.7225 43.3087
26.7684 42.6094
26.8142 41.9624
26.8601 41.621
26.9059 41.2669
26.9519 40.7757
26.9979 40.375
27.0437 39.9969
27.0896 39.9492
27.1354 39.8752
27.1814 39.8301
27.2272 39.8112
27.2732 39.712
27.3191 39.4761
27.3651 39.5793
27.4109 39.6153
27.4569 39.6472
27.5027 39.5114
27.5488 39.8551
27.5946 39.5239
27.6407 39.4131
27.6865 39.2239
27.7326 39.0811
27.7784 39.0731
27.8245 39.0187
27.8703 39.1069
27.9164 39.4349
27.9623 39.54
28.0084 39.7946
28.0543 40.2512
28.1003 40.2189
28.1462 39.9536
28.1923 39.628
28.2384 39.1019
28.2843 38.838
28.3304 38.3598
28.3764 37.8799
28.4225 37.5152
28.4684 37.3661
28.5145 36.9988
28.5605 36.96
28.6066 36.6888
28.6526 36.6552
28.6987 36.72
28.7447 36.6151
28.7908 36.4357
28.8368 36.5093
28.8829 36.4856
28.9289 36.3926
28.9751 36.1631
29.0211 36.1108
29.0673 35.6739
29.1133 35.4793
29.1595 35.4893
29.2055 35.4269
29.2517 35.2383
29.2977 35.3105
29.3439 35.1471
29.3899 35.1021
29.4361 35.0923
29.4824 35.0074
29.5284 34.7145
29.5746 34.3979
29.6207 34.0736
29.6669 34.0258
29.713 34.0318
29.7593 33.9629
29.8053 33.8918
29.8516 33.8057
29.8977 33.7059
29.9439 33.5892
29.99 33.639
30.0363 33.3349
30.0824 33.5206
30.1287 33.3662
30.1748 33.4053
30.2211 33.303
30.2673 33.2356
30.3136 33.2857
30.3597 33.1745
30.406 33.2325
30.4522 32.9632
30.4985 32.9006
30.5447 33.0668
30.591 33.0905
30.6372 33.1694
30.6835 33.0841
30.7297 33.1771
30.7761 33.0496
30.8224 32.9542
30.8686 32.7413
30.915 32.5995
30.9612 32.4796
31.0076 32.2198
31.0538 32.0542
31.1002 32.1024
31.1464 31.8864
31.1928 31.8283
31.2391 31.9842
31.2855 31.9537
31.3317 31.8585
31.3781 31.7979
31.4244 31.793
31.4708 31.6281
31.5171 31.6968
31.5636 31.7494
31.6098 31.384
31.6563 31.24
31.7026 31.1483
31.7491 30.9763
31.7953 31.1348
31.8418 30.9477
31.8881 31.0011
31.9346 31.0858
31.9809 30.99
32.0275 30.9016
32.074 30.6694
32.1203 30.5936
32.1668 30.4499
32.2132 30.2268
32.2597 30.1458
32.306 30.0052
32.3526 29.8808
32.399 29.7877
32.4455 29.6432
32.4919 29.5224
32.5385 29.3906
32.5848 29.1867
32.6314 29.3844
32.6778 29.3557
32.7244 29.119
32.7708 29.0808
32.8174 28.9669
32.8638 28.8362
32.9104 28.8816
32.9569 28.8815
33.0035 28.7349
33.0499 28.7192
33.0966 28.5171
33.143 28.6451
33.1897 28.4561
33.2361 28.3412
33.2828 28.4181
33.3293 28.2595
33.3759 28.2078
33.4226 27.94
33.4691 27.8945
33.5158 27.7744
33.5623 27.6991
33.609 27.5428
33.6555 27.4703
33.7022 27.4149
33.7487 27.2752
33.7954 27.2594
33.842 27.1574
33.8887 27.1082
33.9353 27.0175
33.982 26.9696
34.0286 26.9226
34.0753 26.7406
34.1219 26.5655
34.1687 26.6146
34.2152 26.5611
34.262 26.3273
34.3086 26.2694
34.3554 26.3259
34.402 26.0873
34.4488 26.0676
34.4954 25.9577
34.5422 25.9182
34.5889 25.8052
34.6357 25.7717
34.6825 25.6662
34.7292 25.5607
34.776 25.4343
34.8227 25.4293
34.8695 25.3775
34.9162 25.2936
34.9631 25.1796
35.0098 25.1194
35.0566 25.0396
35.1033 24.94
35.1502 24.9557
35.1969 24.8857
35.2438 24.9583
35.2906 24.6961
35.3375 24.7337
35.3842 24.6015
35.4311 24.6734
35.4779 24.6091
35.5248 24.5595
35.5716 24.444
35.6185 24.4176
35.6653 24.2692
35.7123 24.1546
35.759 24.1454
35.806 24.0149
35.8528 23.8724
35.8998 23.8486
35.9468 23.86
35.9936 23.8443
36.0406 23.6008
36.0874 23.6306
36.1345 23.5533
36.1813 23.4589
36.2283 23.341
36.2752 23.3106
36.3222 23.2995
36.3691 23.2633
36.4161 23.0717
36.463 23.081
36.5101 23.0514
36.557 23.0657
36.6041 22.8693
36.651 22.8097
36.6981 22.7457
36.745 22.6833
36.7921 22.5775
36.839 22.5152
36.8861 22.4208
36.9331 22.4011
36.9802 22.2785
37.0272 22.1526
37.0743 22.0807
37.1213 22.1051
37.1684 21.9635
37.2154 21.9944
37.2626 21.889
37.3098 21.7902
37.3568 21.8162
37.404 21.7196
37.451 21.6482
37.4982 21.569
37.5452 21.43
37.5924 21.3831
37.6395 21.3615
37.6867 21.2973
37.7337 21.1986
37.781 21.103
37.8281 21.0633
37.8753 20.9744
37.9224 20.9142
37.9697 20.841
38.0168 20.7404
38.064 20.7038
38.1111 20.6794
38.1584 20.6155
38.2056 20.4883
38.2529 20.5113
38.3 20.4103
38.3473 20.317
38.3945 20.2685
38.4418 20.27
38.489 20.1792
38.5363 20.0994
38.5837 20.0755
38.6309 19.935
38.6782 19.8854
38.7254 19.746
38.7728 19.7515
38.82 19.7352
38.8674 19.7006
38.9146 19.5947
38.9621 19.5353
39.0093 19.5126
39.0567 19.4411
39.104 19.3589
39.1514 19.2537
39.1987 19.1696
39.2461 19.2467
39.2934 19.1153
39.3409 19.0412
39.3882 18.9107
39.4356 18.88
39.483 18.8908
39.5304 18.7817
39.5778 18.7938
39.6253 18.7485
39.6726 18.5914
39.7201 18.5846
39.7675 18.4521
39.815 18.4296
39.8624 18.31
39.9099 18.2965
39.9575 18.2804
40.0049 18.1918
40.0525 18.1734
40.0999 18.1421
40.1474 18.052
40.1949 17.9814
40.2425 17.8801
40.2899 17.877
40.3375 17.8677
40.385 17.7453
40.4326 17.6955
40.48 17.5881
40.5277 17.5945
40.5752 17.4843
40.6228 17.3863
40.6703 17.3966
40.718 17.4097
40.7655 17.3045
40.8132 17.2386
40.8607 17.2306
40.9084 17.1534
40.9559 17.1061
41.0036 17.0297
41.0512 17.0156
41.0989 17.0084
41.1465 16.8434
41.1942 16.8448
41.242 16.7582
41.2896 16.7367
41.3373 16.554
41.3849 16.5871
41.4327 16.496
41.4803 16.4148
41.5281 16.3958
41.5758 16.3224
41.6236 16.2814
41.6712 16.209
41.7191 16.2223
41.7667 16.1559
41.8146 16.0972
41.8622 16.0398
41.9101 15.9652
41.9578 15.8935
42.0057 15.8666
42.0534 15.7988
42.1013 15.7794
42.149 15.7507
42.1969 15.6056
42.2446 15.6453
42.2925 15.5114
42.3403 15.5229
42.3882 15.3764
42.436 15.4159
42.4839 15.3129
42.5319 15.3185
42.5797 15.258
42.6277 15.1923
42.6755 15.1242
42.7235 15.0751
42.7713 15.0106
42.8193 14.9418
42.8671 14.9463
42.9152 14.8763
42.963 14.8875
43.0111 14.7447
43.0589 14.6965
43.107 14.7203
43.1549 14.6467
43.2029 14.5797
43.2508 14.5591
43.2989 14.5281
43.3468 14.3846
43.3949 14.3818
43.4429 14.3569
43.491 14.3117
43.5389 14.2572
43.5871 14.1999
43.635 14.143
43.6832 14.0914
43.7312 14.0295
43.7793 13.9801
43.8273 13.9655
43.8755 13.8531
43.9237 13.8945
43.9717 13.7767
44.0199 13.6656
44.068 13.7265
44.1162 13.611
44.1642 13.6914
44.2125 13.5625
44.2606 13.5207
44.3088 13.4709
44.3569 13.4148
44.4052 13.4012
44.4533 13.3492
44.5016 13.2174
44.5497 13.2438
44.598 13.1721
44.6461 13.2139
44.6945 13.0803
44.7426 13.0857
44.791 13.0214
44.8391 12.9388
44.8875 12.8732
44.9357 12.8999
44.984 12.8038
45.0322 12.7693
45.0806 12.7225
45.1288 12.6802
45.1773 12.6041
45.2257 12.5962
45.2739 12.5266
45.3224 12.5267
45.3706 12.4617
45.4191 12.4081
45.4673 12.3526
45.5158 12.3468
45.5641 12.2663
45.6126 12.2295
45.6609 12.2041
45.7094 12.1381
45.7577 12.0832
45.8063 12.0258
45.8546 12.0211
45.9031 12.0025
45.9515 11.9301
46.0001 11.8987
46.0484 11.8472
46.097 11.8215
46.1454 11.7826
46.194 11.7157
46.2424 11.675
46.291 11.6679
46.3395 11.5929
46.3881 11.5472
46.4365 11.544
46.4852 11.4903
46.5337 11.4517
46.5823 11.4348
46.631 11.3239
46.6795 11.2907
46.7282 11.2898
46.7767 11.2086
46.8254 11.1591
46.8739 11.1468
46.9226 11.0664
46.9712 11.0288
47.0199 10.9908
47.0685 10.9398
47.1173 10.9281
47.1658 10.8979
47.2146 10.8756
47.2632 10.8391
47.312 10.7567
47.3606 10.7386
47.4095 10.6875
47.4581 10.6485
47.5069 10.6199
47.5556 10.5633
47.6044 10.5181
47.6531 10.5067
47.702 10.4284
47.7507 10.4298
47.7996 10.3701
47.8483 10.3806
47.8972 10.2923
47.9461 10.2876
47.9948 10.2036
48.0438 10.1792
48.0925 10.1923
48.1415 10.1561
48.1902 10.0853
48.2392 10.0672
48.288 10.0544
48.337 9.97846
48.3858 9.94906
48.4348 9.87433
48.4837 9.92286
48.5327 9.86475
48.5815 9.80317
48.6306 9.76238
48.6795 9.70813
48.7285 9.68498
48.7774 9.67251
48.8265 9.6476
48.8754 9.58382
48.9245 9.566
48.9734 9.49564
49.0226 9.45977
49.0715 9.42618
49.1206 9.39039
49.1696 9.37513
49.2188 9.36971
49.2679 9.29367
49.3169 9.20573
49.3661 9.17742
49.4151 9.15967
49.4643 9.19159
49.5134 9.12021
49.5626 9.03032
49.6117 9.05187
49.6609 9.01886
49.71 8.93996
49.7592 8.95725
49.8083 8.87808
49.8576 8.8857
49.9067 8.84807
49.956 8.83106
50.0052 8.75443
50.0545 8.74593
50.1036 8.71569
50.153 8.68342
50.2022 8.61253
50.2515 8.61107
50.3007 8.54398
50.3501 8.52724
50.3993 8.51536
50.4487 8.49233
50.498 8.43233
50.5474 8.39637
50.5966 8.33482
50.6461 8.29984
50.6955 8.30915
50.7448 8.29058
50.7943 8.25526
50.8436 8.2523
50.8931 8.1943
50.9424 8.19432
50.9919 8.1334
51.0413 8.08714
51.0908 8.05259
51.1402 8.00959
51.1897 7.99419
51.2391 7.99818
51.2887 7.90809
51.3381 7.88108
51.3877 7.8684
51.4371 7.83667
51.4867 7.79952
51.5362 7.75212
51.5858 7.73667
51.6353 7.67245
51.6849 7.67806
51.7344 7.62185
51.7841 7.61836
51.8336 7.58946
51.8833 7.50975
51.9328 7.49708
51.9826 7.50208
52.0323 7.42523
52.0818 7.42174
52.1316 7.38932
52.1812 7.33553
52.231 7.31479
52.2806 7.33611
52.3304 7.26878
52.38 7.26166
52.4298 7.20689
52.4794 7.13711
52.5293 7.13284
52.5789 7.09408
52.6288 7.11142
52.6785 7.04997
52.7284 7.05468
52.7781 7.02569
52.828 6.98412
52.8777 6.95542
52.9276 6.89557
52.9774 6.86819
53.0273 6.85474
53.0771 6.84229
53.1271 6.81766
53.1769 6.74179
53.2269 6.72668
53.2767 6.72703
53.3267 6.64721
53.3765 6.69308
53.4266 6.59858
53.4766 6.58313
53.5265 6.57125
53.5765 6.54703
53.6264 6.50498
53.6765 6.52706
53.7264 6.41985
53.7765 6.43302
53.8265 6.42102
53.8766 6.33645
53.9266 6.33051
53.9767 6.3154
54.0267 6.29546
54.0769 6.27294
54.1269 6.21365
54.1771 6.21752
54.2271 6.14286
54.2773 6.15406
54.3274 6.10037
54.3776 6.05705
54.4277 6.04197
54.478 6.01237
54.528 5.93511
54.5783 5.9448
54.6285 5.88362
54.6788 5.87224
54.7289 5.80803
54.7792 5.76407
54.8296 5.67071
54.8798 5.68106
54.9301 5.64403
54.9803 5.605
55.0307 5.6316
55.0809 5.53261
55.1314 5.49758
55.1816 5.4839
55.232 5.44139
55.2823 5.35326
55.3328 5.31406
55.383 5.22626
55.4335 5.1842
55.4838 5.12408
55.5344 5.11895
55.5847 5.05893
55.6352 4.98424
55.6856 4.94189
55.7361 4.92153