File: XRD/Ni3Fe_FD1004.xy
TT I
1.27165 6.77352
1.31627 6.33691
1.36089 5.95709
1.40551 6.06299
1.45013 6.09475
1.49476 6.05717
1.53938 5.62535
1.584 5.28029
1.62863 4.81302
1.67325 5.10944
1.71787 4.80779
1.7625 4.67057
1.80712 4.60163
1.85174 4.9821
1.89636 4.41231
1.94099 4.55688
1.98562 4.44744
2.03025 3.91818
2.07487 4.61826
2.11949 5.23916
2.16411 4.87855
2.20874 15.5228
2.25338 28.5374
2.298 6.91172
2.34263 5.31575
2.38725 6.37485
2.43188 6.33703
2.4765 7.21148
2.52115 8.03476
2.56577 8.43529
2.6104 8.5923
2.65503 8.04373
2.69965 9.12361
2.7443 8.37743
2.78893 8.86629
2.83356 8.56694
2.87818 9.13694
2.92281 8.83713
2.96744 9.69349
3.01209 10.8616
3.05672 10.6403
3.10135 12.0975
3.14599 13.1724
3.19062 14.2985
3.23527 14.8958
3.2799 15.5758
3.32454 16.5941
3.36917 17.459
3.4138 18.6536
3.45844 19.6925
3.50309 20.8248
3.54773 21.664
3.59237 24.0133
3.637 107.967
3.68164 70.3204
3.7263 26.3543
3.77094 25.8221
3.81558 26.3016
3.86022 27.2992
3.90486 28.2349
3.9495 29.7891
3.99416 30.7085
4.0388 31.6132
4.08344 32.7584
4.12809 34.3418
4.17273 36.2301
4.21738 43.442
4.26204 295.093
4.30669 276.646
4.35133 49.6534
4.39598 43.8975
4.44063 54.7258
4.4853 70.2252
4.52995 49.4534
4.5746 49.8772
4.61925 51.6526
4.6639 53.9347
4.70855 56.47
4.75322 59.2239
4.79788 61.8427
4.84253 65.0034
4.88719 68.6192
4.93184 72.4845
4.97652 77.3734
5.02118 83.0049
5.06583 89.2626
5.11049 99.1728
5.15515 170.641
5.19981 262.646
5.24449 2079.05
5.28916 13183.7
5.33382 2855.92
5.37848 173.233
5.42315 122.647
5.46783 109.429
5.5125 101.778
5.55716 98.7572
5.60183 94.827
5.6465 93.8208
5.69117 90.912
5.73586 88.695
5.78053 88.0652
5.8252 86.8753
5.86988 87.6195
5.91455 89.0083
5.95924 93.8085
6.00392 156.452
6.0486 716.988
6.09328 4506.25
6.13795 3382.02
6.18263 222.145
6.22733 89.5147
6.27201 80.8845
6.3167 106.227
6.36138 81.8391
6.40606 67.4357
6.45075 65.7578
6.49545 64.3027
6.54014 62.464
6.58483 61.6513
6.62952 61.2316
6.67421 97.319
6.71892 167.495
6.76361 72.3873
6.8083 58.0311
6.853 56.4006
6.89769 55.7951
6.94239 55.4979
6.98711 54.6048
7.03181 54.8283
7.07651 54.3393
7.12121 54.0504
7.16591 54.4651
7.21063 54.8639
7.25533 71.3304
7.30004 210.778
7.34475 105.534
7.38945 56.3907
7.43416 53.8414
7.47889 53.5032
7.5236 53.8538
7.56831 54.4757
7.61303 56.421
7.65774 56.7611
7.70247 54.978
7.74719 55.1508
7.79191 55.3107
7.83663 55.2794
7.88135 56.6262
7.92607 57.3555
7.97081 58.2688
8.01553 59.3947
8.06026 60.3869
8.10498 62.2493
8.14971 73.378
8.19446 72.5848
8.23919 67.5517
8.28392 69.4474
8.32865 71.5668
8.37339 75.5573
8.41812 82.273
8.46288 114.359
8.50761 137.055
8.55235 299.88
8.59709 1040.09
8.64183 2340.45
8.68658 1000.79
8.73134 168.203
8.77609 96.0234
8.82083 89.5245
8.86558 87.0486
8.91033 87.5281
8.9551 91.1222
8.99985 83.8673
9.04461 81.3128
9.08936 80.4119
9.13412 79.3426
9.17888 79.4233
9.22365 80.4181
9.26841 79.6393
9.31318 79.9629
9.35794 80.0941
9.4027 80.22
9.44749 81.3521
9.49226 82.0358
9.53703 83.1795
9.5818 84.442
9.62657 89.4237
9.67134 98.3294
9.71614 91.5433
9.76091 90.7895
9.80569 93.0539
9.85047 95.8898
9.89525 123.631
9.94005 138.788
9.98484 147.419
10.0296 270.521
10.0744 689.951
10.1192 1748.38
10.164 1599.84
10.2088 387.035
10.2536 124.155
10.2984 111.038
10.3432 114.397
10.388 102.06
10.4328 107.472
10.4776 139.618
10.5224 252.798
10.5672 514.468
10.612 525.649
10.6568 203.379
10.7017 94.4976
10.7465 83.7385
10.7913 80.9726
10.8361 79.2172
10.8809 76.7968
10.9257 76.7705
10.9706 77.7243
11.0154 73.4894
11.0602 70.8661
11.105 70.0249
11.1499 75.4722
11.1947 85.6057
11.2395 74.6789
11.2844 69.7053
11.3292 65.8185
11.374 64.4317
11.4189 63.8869
11.4637 63.3686
11.5086 63.9675
11.5534 67.9441
11.5983 64.5785
11.6431 62.3222
11.688 61.4994
11.7328 61.2857
11.7777 61.155
11.8225 60.686
11.8674 60.6464
11.9122 61.3451
11.9571 61.1606
12.002 61.5962
12.0468 63.9932
12.0917 73.0291
12.1366 94.2527
12.1814 146.341
12.2263 205.761
12.2712 169.803
12.3161 97.0317
12.3609 70.5879
12.4058 63.3594
12.4507 62.5119
12.4956 62.6517
12.5405 63.0214
12.5853 64.1051
12.6302 73.1455
12.6751 80.8536
12.72 69.6976
12.7649 66.4774
12.8098 66.62
12.8547 67.7839
12.8996 68.7669
12.9445 70.1771
12.9894 71.6515
13.0343 73.3616
13.0792 76.0148
13.1242 81.7837
13.1691 100.651
13.214 132.034
13.2589 216.875
13.3038 365.321
13.3487 438.126
13.3937 265.234
13.4386 122.044
13.4835 98.3058
13.5285 108.988
13.5734 142.272
13.6183 231.73
13.6633 355.463
13.7082 351.566
13.7531 187.332
13.7981 95.7808
13.843 80.0282
13.888 77.3525
13.9329 74.8214
13.9779 73.6191
14.0228 72.288
14.0678 71.1941
14.1127 70.5111
14.1577 70.9001
14.2027 69.8107
14.2476 68.6898
14.2926 68.8699
14.3376 70.4659
14.3825 68.7845
14.4275 66.9595
14.4725 66.8518
14.5175 66.8859
14.5624 67.3056
14.6074 69.7009
14.6524 70.3979
14.6974 68.4195
14.7424 69.0961
14.7874 73.3244
14.8324 81.7903
14.8774 101.056
14.9224 143.028
14.9674 207.719
15.0124 220.114
15.0574 153.182
15.1024 90.6895
15.1474 70.7856
15.1924 68.6643
15.2374 69.7785
15.2824 69.0904
15.3274 66.7003
15.3725 65.0868
15.4175 64.752
15.4625 64.2807
15.5076 64.6414
15.5526 64.5153
15.5976 63.9265
15.6426 64.1453
15.6877 67.6386
15.7327 73.7402
15.7778 87.0233
15.8228 116.282
15.8679 166.387
15.9129 197.27
15.958 159.643
16.003 95.9535
16.0481 67.4337
16.0931 63.7891
16.1382 61.7934
16.1833 59.3867
16.2283 57.4585
16.2734 57.0751
16.3185 57.5597
16.3636 58.3735
16.4086 57.0334
16.4537 54.9402
16.4988 54.2479
16.5439 54.0038
16.589 53.8631
16.6341 53.4383
16.6792 53.158
16.7243 53.2984
16.7694 53.6669
16.8145 53.4726
16.8596 54.0237
16.9047 55.6773
16.9498 56.3657
16.9949 54.7007
17.04 54.2619
17.0851 55.0949
17.1302 56.3408
17.1754 59.3273
17.2205 63.8373
17.2656 71.9001
17.3108 82.1811
17.3559 80.9614
17.401 69.6966
17.4462 60.597
17.4913 57.5526
17.5365 57.5455
17.5815 57.6249
17.6268 58.0706
17.6718 58.7329
17.7171 59.4568
17.7622 59.6402
17.8074 60.09
17.8525 61.3969
17.8977 64.8331
17.9428 69.3583
17.9881 77.3702
18.0331 94.2996
18.0784 119.196
18.1237 139.651
18.1688 130.106
18.214 101.546
18.2591 83.4607
18.3044 87.0228
18.3495 98.9813
18.3948 106.764
18.4399 95.7864
18.4852 76.6045
18.5303 64.7523
18.5756 60.8033
18.6207 59.7557
18.666 58.9369
18.7112 58.2111
18.7565 57.5612
18.8016 57.2099
18.8469 56.5806
18.892 56.2884
18.9374 55.924
18.9825 55.6068
19.0278 55.4633
19.073 55.5137
19.1183 56.0203
19.1635 56.653
19.2088 57.564
19.254 59.8346
19.2993 64.1279
19.3447 71.1315
19.3898 75.9738
19.4352 71.6669
19.4804 62.2537
19.5257 55.5311
19.5709 52.8914
19.6163 52.5913
19.6615 52.4819
19.7068 52.001
19.752 51.889
19.7974 52.1052
19.8426 52.7374
19.888 53.3162
19.9332 54.3295
19.9786 56.6075
20.0238 60.419
20.0692 65.7609
20.1144 69.0626
20.1598 66.9108
20.205 62.1305
20.2504 60.5419
20.2957 62.8782
20.3411 65.3373
20.3863 63.5269
20.4318 57.5699
20.477 52.6431
20.5224 50.7004
20.5677 50.0007
20.6131 49.295
20.6586 48.4831
20.7038 48.388
20.7493 47.8937
20.7945 47.6346
20.84 47.7217
20.8853 47.4195
20.9307 47.4213
20.976 47.4227
21.0215 47.3942
21.0668 47.7249
21.1122 48.078
21.1575 48.7021
21.203 49.758
21.2483 50.2319
21.2938 50.3246
21.3391 48.892
21.3846 47.73
21.4299 47.2693
21.4754 47.0799
21.5207 47.2195
21.5662 47.4784
21.6116 47.639
21.6571 48.4149
21.7024 49.1324
21.7479 50.7749
21.7933 53.4519
21.8388 57.3527
21.8843 61.615
21.9297 63.8319
21.9752 62.4732
22.0206 58.3751
22.0661 55.4504
22.1115 55.0947
22.157 55.0934
22.2024 53.0537
22.248 50.4438
22.2933 48.7788
22.3389 47.8532
22.3843 47.9915
22.4299 47.9138
22.4753 47.8639
22.5208 47.4509
22.5662 47.2277
22.6118 47.3776
22.6572 47.4767
22.7028 47.7448
22.7483 48.1284
22.7939 48.8427
22.8393 50.1918
22.8849 52.5168
22.9303 54.9722
22.9759 57.1413
23.0214 56.7456
23.067 53.7747
23.1126 50.1569
23.1581 48.2097
23.2037 47.6437
23.2492 47.5265
23.2948 47.6123
23.3403 47.6977
23.3859 48.3112
23.4314 49.0884
23.477 51.1909
23.5225 53.7571
23.5682 56.0601
23.6137 57.5068
23.6593 55.236
23.7048 50.8844
23.7505 47.5059
23.796 45.7122
23.8417 45.0339
23.8872 44.5252
23.9329 44.134
23.9784 43.9331
24.0241 43.5821
24.0697 43.4989
24.1154 43.0696
24.1609 43.0399
24.2066 42.9224
24.2522 42.7153
24.2979 42.4893
24.3434 42.2216
24.3892 42.1663
24.4349 42.1894
24.4805 41.9045
24.5262 42.106
24.5718 41.9795
24.6175 41.9765
24.6631 41.9167
24.7089 41.5066
24.7545 41.4538
24.8002 41.3518
24.8458 41.1337
24.8916 40.9657
24.9372 41.1265
24.983 41.4453
25.0286 41.7988
25.0744 42.1667
25.12 42.6503
25.1658 43.3083
25.2114 43.755
25.2572 43.7901
25.3029 44.0448
25.3487 44.3442
25.3943 43.7298
25.4402 42.7402
25.4858 41.7706
25.5316 40.5258
25.5773 39.9136
25.6231 39.9248
25.669 39.6512
25.7147 39.6321
25.7605 39.4696
25.8062 39.6035
25.8521 39.7296
25.8977 39.5414
25.9436 39.7998
25.9893 40.0757
26.0352 40.5453
26.0809 40.5978
26.1268 40.9576
26.1725 40.6597
26.2184 40.0008
26.2641 39.4656
26.31 39.1728
26.3557 39.2328
26.4017 39.1917
26.4474 39.399
26.4933 39.8699
26.5391 40.3598
26.585 40.7985
26.6308 41.2829
26.6767 41.4274
26.7225 41.134
26.7684 40.5914
26.8142 40.0858
26.8601 39.6561
26.9059 39.3227
26.9519 38.5605
26.9979 38.3733
27.0437 38.1449
27.0896 37.8664
27.1354 37.9643
27.1814 37.7333
27.2272 37.6632
27.2732 37.7769
27.3191 37.3949
27.3651 37.5648
27.4109 37.5212
27.4569 37.5565
27.5027 37.6753
27.5488 37.749
27.5946 37.5833
27.6407 37.3094
27.6865 37.2251
27.7326 37.0421
27.7784 36.9045
27.8245 36.8909
27.8703 37.1931
27.9164 37.3626
27.9623 37.5807
28.0084 37.8986
28.0543 38.2648
28.1003 38.2049
28.1462 38.1606
28.1923 37.7321
28.2384 37.25
28.2843 36.8455
28.3304 36.4062
28.3764 35.9851
28.4225 35.7387
28.4684 35.3942
28.5145 35.112
28.5605 34.9594
28.6066 34.9247
28.6526 35.0386
28.6987 34.9201
28.7447 34.7912
28.7908 34.7075
28.8368 34.6222
28.8829 34.6575
28.9289 34.5442
28.9751 34.4141
29.0211 34.1801
29.0673 33.9011
29.1133 33.8722
29.1595 33.6476
29.2055 33.4988
29.2517 33.6322
29.2977 33.5386
29.3439 33.5825
29.3899 33.562
29.4361 33.4512
29.4824 33.3401
29.5284 33.0134
29.5746 32.5986
29.6207 32.4763
29.6669 32.4431
29.713 32.2041
29.7593 32.1145
29.8053 32.1807
29.8516 32.0426
29.8977 32.0284
29.9439 31.8022
29.99 31.7582
30.0363 31.7878
30.0824 31.822
30.1287 31.6868
30.1748 31.8343
30.2211 31.7695
30.2673 31.6495
30.3136 31.6679
30.3597 31.6191
30.406 31.6528
30.4522 31.3546
30.4985 31.3341
30.5447 31.5096
30.591 31.3887
30.6372 31.4759
30.6835 31.5537
30.7297 31.5824
30.7761 31.5645
30.8224 31.3789
30.8686 31.1309
30.915 31.0712
30.9612 30.8068
31.0076 30.6843
31.0538 30.5875
31.1002 30.3831
31.1464 30.3271
31.1928 30.1803
31.2391 30.3369
31.2855 30.1912
31.3317 30.2372
31.3781 30.245
31.4244 30.285
31.4708 30.2092
31.5171 30.1219
31.5636 30.1217
31.6098 29.962
31.6563 29.7278
31.7026 29.6449
31.7491 29.5086
31.7953 29.5056
31.8418 29.5093
31.8881 29.5986
31.9346 29.4344
31.9809 29.475
32.0275 29.3183
32.074 29.2298
32.1203 29.0026
32.1668 28.915
32.2132 28.738
32.2597 28.6512
32.306 28.6459
32.3526 28.3827
32.399 28.3134
32.4455 28.119
32.4919 28.2177
32.5385 28.0354
32.5848 27.866
32.6314 27.8725
32.6778 27.8739
32.7244 27.6808
32.7708 27.5248
32.8174 27.5073
32.8638 27.4068
32.9104 27.4791
32.9569 27.492
33.0035 27.2238
33.0499 27.3092
33.0966 27.1828
33.143 27.3451
33.1897 27.1433
33.2361 27.0263
33.2828 27.0697
33.3293 26.8402
33.3759 26.8366
33.4226 26.7334
33.4691 26.5552
33.5158 26.4197
33.5623 26.3539
33.609 26.1927
33.6555 26.12
33.7022 26.0972
33.7487 25.9389
33.7954 25.9242
33.842 25.8609
33.8887 25.7706
33.9353 25.7059
33.982 25.6008
34.0286 25.4889
34.0753 25.4304
34.1219 25.4708
34.1687 25.2609
34.2152 25.3047
34.262 25.223
34.3086 25.0661
34.3554 24.9884
34.402 24.8556
34.4488 24.7629
34.4954 24.6851
34.5422 24.7101
34.5889 24.5513
34.6357 24.4118
34.6825 24.4456
34.7292 24.2409
34.776 24.1567
34.8227 24.1969
34.8695 24.0944
34.9162 24.0298
34.9631 23.9918
35.0098 24.0091
35.0566 23.8812
35.1033 23.7789
35.1502 23.7913
35.1969 23.6688
35.2438 23.6456
35.2906 23.6109
35.3375 23.533
35.3842 23.4826
35.4311 23.4738
35.4779 23.4436
35.5248 23.4233
35.5716 23.3245
35.6185 23.2439
35.6653 23.2035
35.7123 23.0503
35.759 22.9046
35.806 22.9045
35.8528 22.8444
35.8998 22.7431
35.9468 22.6538
35.9936 22.6446
36.0406 22.5413
36.0874 22.5317
36.1345 22.4264
36.1813 22.3558
36.2283 22.2349
36.2752 22.1838
36.3222 22.1708
36.3691 22.0667
36.4161 22.0223
36.463 22.0091
36.5101 21.9511
36.557 21.8962
36.6041 21.7722
36.651 21.7551
36.6981 21.6491
36.745 21.5864
36.7921 21.4509
36.839 21.4376
36.8861 21.3998
36.9331 21.2282
36.9802 21.2334
37.0272 21.1508
37.0743 21.0691
37.1213 21.0796
37.1684 20.994
37.2154 20.9817
37.2626 20.8354
37.3098 20.7755
37.3568 20.6962
37.404 20.6515
37.451 20.5363
37.4982 20.4898
37.5452 20.3579
37.5924 20.334
37.6395 20.4157
37.6867 20.31
37.7337 20.1808
37.781 20.0895
37.8281 20.0472
37.8753 19.991
37.9224 19.8882
37.9697 19.7573
38.0168 19.7865
38.064 19.7548
38.1111 19.6881
38.1584 19.5951
38.2056 19.6062
38.2529 19.4773
38.3 19.4372
38.3473 19.3563
38.3945 19.3259
38.4418 19.2337
38.489 19.2045
38.5363 19.1521
38.5837 19.0482
38.6309 19.0474
38.6782 18.9861
38.7254 18.8917
38.7728 18.8311
38.82 18.7317
38.8674 18.7405
38.9146 18.6204
38.9621 18.6143
39.0093 18.6196
39.0567 18.4496
39.104 18.4419
39.1514 18.3211
39.1987 18.3362
39.2461 18.2794
39.2934 18.1943
39.3409 18.1148
39.3882 17.9886
39.4356 17.9803
39.483 17.9409
39.5304 17.8705
39.5778 17.8641
39.6253 17.81
39.6726 17.717
39.7201 17.7055
39.7675 17.6514
39.815 17.5684
39.8624 17.5267
39.9099 17.4752
39.9575 17.3686
40.0049 17.3371
40.0525 17.2444
40.0999 17.2309
40.1474 17.1804
40.1949 17.0693
40.2425 17.038
40.2899 17.0162
40.3375 16.9737
40.385 16.9291
40.4326 16.8851
40.48 16.7855
40.5277 16.7836
40.5752 16.7143
40.6228 16.6386
40.6703 16.5712
40.718 16.5061
40.7655 16.4612
40.8132 16.4001
40.8607 16.383
40.9084 16.3801
40.9559 16.3069
41.0036 16.2345
41.0512 16.1695
41.0989 16.0935
41.1465 16.0841
41.1942 16.01
41.242 15.9385
41.2896 15.8814
41.3373 15.811
41.3849 15.8196
41.4327 15.7688
41.4803 15.6692
41.5281 15.6889
41.5758 15.5489
41.6236 15.4886
41.6712 15.4733
41.7191 15.4103
41.7667 15.3151
41.8146 15.3467
41.8622 15.2689
41.9101 15.2366
41.9578 15.191
42.0057 15.1196
42.0534 15.0426
42.1013 15.0193
42.149 14.9316
42.1969 14.9143
42.2446 14.9025
42.2925 14.867
42.3403 14.766
42.3882 14.7269
42.436 14.7098
42.4839 14.6294
42.5319 14.599
42.5797 14.5275
42.6277 14.4772
42.6755 14.457
42.7235 14.377
42.7713 14.361
42.8193 14.2735
42.8671 14.2378
42.9152 14.1874
42.963 14.1607
43.0111 14.0465
43.0589 14.0758
43.107 13.9762
43.1549 13.9914
43.2029 13.8806
43.2508 13.8739
43.2989 13.8093
43.3468 13.7451
43.3949 13.7443
43.4429 13.6312
43.491 13.6251
43.5389 13.5418
43.5871 13.5539
43.635 13.502
43.6832 13.4308
43.7312 13.3562
43.7793 13.3066
43.8273 13.3099
43.8755 13.2563
43.9237 13.2097
43.9717 13.1678
44.0199 13.1419
44.068 13.0854
44.1162 12.9981
44.1642 12.9942
44.2125 12.97
44.2606 12.9064
44.3088 12.8982
44.3569 12.8178
44.4052 12.7697
44.4533 12.7202
44.5016 12.613
44.5497 12.6265
44.598 12.5714
44.6461 12.5266
44.6945 12.4796
44.7426 12.4635
44.791 12.3711
44.8391 12.3926
44.8875 12.2779
44.9357 12.2806
44.984 12.2312
45.0322 12.133
45.0806 12.1423
45.1288 12.0947
45.1773 12.0373
45.2257 12.0218
45.2739 11.9874
45.3224 11.9505
45.3706 11.908
45.4191 11.8078
45.4673 11.8033
45.5158 11.7329
45.5641 11.6809
45.6126 11.6431
45.6609 11.6026
45.7094 11.57
45.7577 11.529
45.8063 11.4887
45.8546 11.4677
45.9031 11.4563
45.9515 11.3839
46.0001 11.3712
46.0484 11.318
46.097 11.2625
46.1454 11.2177
46.194 11.1804
46.2424 11.1516
46.291 11.081
46.3395 11.0796
46.3881 11.0392
46.4365 10.9815
46.4852 10.9923
46.5337 10.8879
46.5823 10.8812
46.631 10.8434
46.6795 10.7528
46.7282 10.7585
46.7767 10.67
46.8254 10.6788
46.8739 10.6238
46.9226 10.5426
46.9712 10.5417
47.0199 10.5203
47.0685 10.5186
47.1173 10.3887
47.1658 10.3962
47.2146 10.3501
47.2632 10.2951
47.312 10.2957
47.3606 10.2294
47.4095 10.1879
47.4581 10.2069
47.5069 10.1062
47.5556 10.0577
47.6044 10.0452
47.6531 9.99377
47.702 9.95108
47.7507 9.94225
47.7996 9.87095
47.8483 9.86514
47.8972 9.84164
47.9461 9.78589
47.9948 9.75578
48.0438 9.69494
48.0925 9.68307
48.1415 9.65876
48.1902 9.64757
48.2392 9.6121
48.288 9.53369
48.337 9.52793
48.3858 9.4749
48.4348 9.44149
48.4837 9.46109
48.5327 9.36984
48.5815 9.36086
48.6306 9.30623
48.6795 9.30768
48.7285 9.24574
48.7774 9.20637
48.8265 9.18778
48.8754 9.13409
48.9245 9.1054
48.9734 9.08261
49.0226 9.08536
49.0715 9.01322
49.1206 8.96784
49.1696 8.89037
49.2188 8.91091
49.2679 8.89079
49.3169 8.81192
49.3661 8.80699
49.4151 8.7367
49.4643 8.75444
49.5134 8.6896
49.5626 8.6189
49.6117 8.61827
49.6609 8.61249
49.71 8.52323
49.7592 8.52516
49.8083 8.47248
49.8576 8.45696
49.9067 8.44045
49.956 8.4101
50.0052 8.38928
50.0545 8.33485
50.1036 8.31505
50.153 8.28603
50.2022 8.25618
50.2515 8.20199
50.3007 8.16827
50.3501 8.15115
50.3993 8.13353
50.4487 8.08409
50.498 8.03853
50.5474 8.04249
50.5966 7.98527
50.6461 7.97
50.6955 7.91245
50.7448 7.93148
50.7943 7.88558
50.8436 7.83263
50.8931 7.79719
50.9424 7.8038
50.9919 7.75091
51.0413 7.74137
51.0908 7.70317
51.1402 7.66967
51.1897 7.6083
51.2391 7.60131
51.2887 7.57187
51.3381 7.52292
51.3877 7.50264
51.4371 7.47659
51.4867 7.44625
51.5362 7.393
51.5858 7.38192
51.6353 7.35783
51.6849 7.28602
51.7344 7.28942
51.7841 7.23958
51.8336 7.22996
51.8833 7.23068
51.9328 7.16172
51.9826 7.15203
52.0323 7.09167
52.0818 7.10002
52.1316 7.05742
52.1812 7.05486
52.231 6.99591
52.2806 6.94802
52.3304 6.95213
52.38 6.8893
52.4298 6.84082
52.4794 6.8408
52.5293 6.82264
52.5789 6.77757
52.6288 6.77733
52.6785 6.70869
52.7284 6.72861
52.7781 6.71582
52.828 6.66908
52.8777 6.62467
52.9276 6.60597
52.9774 6.56855
53.0273 6.55721
53.0771 6.50227
53.1271 6.54012
53.1769 6.47549
53.2269 6.44166
53.2767 6.40673
53.3267 6.3836
53.3765 6.33021
53.4266 6.32623
53.4766 6.29262
53.5265 6.26689
53.5765 6.25168
53.6264 6.23935
53.6765 6.23013
53.7264 6.19891
53.7765 6.16444
53.8265 6.12076
53.8766 6.10237
53.9266 6.05981
53.9767 6.07424
54.0267 5.99897
54.0769 5.97271
54.1269 5.89367
54.1771 5.92354
54.2271 5.88256
54.2773 5.85368
54.3274 5.85446
54.3776 5.79514
54.4277 5.84167
54.478 5.70656
54.528 5.70437
54.5783 5.6592
54.6285 5.67744
54.6788 5.57707
54.7289 5.5337
54.7792 5.51681
54.8296 5.44466
54.8798 5.4022
54.9301 5.37821
54.9803 5.35441
55.0307 5.33521
55.0809 5.3079
55.1314 5.20615
55.1816 5.17903
55.232 5.19668
55.2823 5.16274
55.3328 5.06181
55.383 4.94528
55.4335 5.0038
55.4838 4.90606
55.5344 4.8637
55.5847 4.84574
55.6352 4.82827
55.6856 4.7526
55.7361 4.69298