File: XRD/Ni3Fe_FD0969.xy
TT I
1.27165 7.18559
1.31627 6.49573
1.36089 6.06353
1.40551 6.5726
1.45013 6.75726
1.49476 6.54358
1.53938 5.2084
1.584 5.43425
1.62863 5.22983
1.67325 5.21075
1.71787 5.09178
1.7625 4.85343
1.80712 4.8055
1.85174 4.7721
1.89636 4.49595
1.94099 4.52087
1.98562 4.62592
2.03025 4.52395
2.07487 5.04514
2.11949 5.22175
2.16411 4.4837
2.20874 13.3661
2.25338 21.8312
2.298 6.24725
2.34263 6.17898
2.38725 6.51894
2.43188 6.04475
2.4765 7.98814
2.52115 7.51481
2.56577 8.48788
2.6104 8.18651
2.65503 8.00809
2.69965 8.80952
2.7443 8.60659
2.78893 8.38459
2.83356 8.93471
2.87818 8.39303
2.92281 9.34716
2.96744 9.6106
3.01209 10.3841
3.05672 11.6425
3.10135 12.702
3.14599 13.5504
3.19062 14.7394
3.23527 15.4476
3.2799 15.9177
3.32454 16.9532
3.36917 17.8287
3.4138 18.8818
3.45844 19.8006
3.50309 20.4785
3.54773 21.5559
3.59237 24.0779
3.637 86.2883
3.68164 56.398
3.7263 26.2368
3.77094 26.0159
3.81558 26.7538
3.86022 27.2025
3.90486 28.8279
3.9495 29.612
3.99416 30.6752
4.0388 32.1881
4.08344 33.1618
4.12809 34.7009
4.17273 36.3238
4.21738 41.6758
4.26204 231.716
4.30669 204.665
4.35133 47.5734
4.39598 43.7504
4.44063 52.7903
4.4853 63.4971
4.52995 49.6391
4.5746 50.7028
4.61925 52.2544
4.6639 54.5477
4.70855 57.0131
4.75322 60.0265
4.79788 63.1306
4.84253 65.9627
4.88719 70.4119
4.93184 73.9525
4.97652 78.8898
5.02118 84.5388
5.06583 90.5693
5.11049 101.562
5.15515 161.229
5.19981 278.799
5.24449 2399.22
5.28916 13676.1
5.33382 2909.08
5.37848 174.371
5.42315 124.083
5.46783 110.65
5.5125 103.774
5.55716 99.7909
5.60183 96.1505
5.6465 94.8666
5.69117 92.2009
5.73586 89.8608
5.78053 89.6221
5.8252 88.8423
5.86988 89.3035
5.91455 90.6243
5.95924 96.4987
6.00392 171.676
6.0486 802.501
6.09328 4613.98
6.13795 3192.74
6.18263 216.722
6.22733 88.9323
6.27201 80.8756
6.3167 97.672
6.36138 78.5752
6.40606 67.9011
6.45075 66.1842
6.49545 64.0532
6.54014 62.9529
6.58483 61.6215
6.62952 61.519
6.67421 90.6826
6.71892 135.114
6.76361 67.3394
6.8083 57.8197
6.853 56.9333
6.89769 56.0341
6.94239 55.8157
6.98711 54.9933
7.03181 54.9196
7.07651 54.3563
7.12121 54.2873
7.16591 54.6806
7.21063 54.744
7.25533 68.6338
7.30004 167.718
7.34475 87.9368
7.38945 55.5686
7.43416 54.0697
7.47889 53.6212
7.5236 53.8342
7.56831 54.0295
7.61303 56.0279
7.65774 56.4396
7.70247 55.5114
7.74719 55.1826
7.79191 55.5961
7.83663 55.6347
7.88135 56.6785
7.92607 57.7108
7.97081 58.7211
8.01553 59.7796
8.06026 60.8701
8.10498 62.9531
8.14971 71.6164
8.19446 70.7452
8.23919 68.3603
8.28392 70.5148
8.32865 72.7356
8.37339 76.3027
8.41812 82.9033
8.46288 108.306
8.50761 143.325
8.55235 333.801
8.59709 1142.15
8.64183 2295.07
8.68658 931.812
8.73134 158.95
8.77609 96.6904
8.82083 90.2617
8.86558 87.8401
8.91033 88.1164
8.9551 89.7926
8.99985 83.8693
9.04461 82.0802
9.08936 81.3498
9.13412 80.5402
9.17888 80.6967
9.22365 81.5139
9.26841 80.7769
9.31318 80.8327
9.35794 81.5586
9.4027 81.8632
9.44749 81.9762
9.49226 83.0353
9.53703 83.8169
9.5818 85.6965
9.62657 89.8008
9.67134 95.6821
9.71614 91.9393
9.76091 91.797
9.80569 94.0228
9.85047 97.8516
9.89525 119.835
9.94005 130.124
9.98484 155.742
10.0296 300.552
10.0744 770.834
10.1192 1800.51
10.164 1532.42
10.2088 362.244
10.2536 121.913
10.2984 109.757
10.3432 111.171
10.388 101.858
10.4328 110.315
10.4776 148.446
10.5224 272.467
10.5672 525.012
10.612 501.4
10.6568 197.649
10.7017 95.0556
10.7465 84.8136
10.7913 81.3301
10.8361 79.5912
10.8809 77.4594
10.9257 76.8344
10.9706 77.2612
11.0154 73.3938
11.0602 71.4809
11.105 70.6916
11.1499 74.4355
11.1947 81.1655
11.2395 72.6751
11.2844 68.936
11.3292 66.017
11.374 64.8203
11.4189 64.3949
11.4637 64.0896
11.5086 64.1734
11.5534 66.9323
11.5983 64.3174
11.6431 62.3868
11.688 61.5247
11.7328 61.846
11.7777 61.6941
11.8225 60.8176
11.8674 60.9333
11.9122 61.6376
11.9571 61.7452
12.002 62.0123
12.0468 65.2853
12.0917 75.2041
12.1366 98.527
12.1814 154.507
12.2263 208.186
12.2712 161.151
12.3161 95.6986
12.3609 69.118
12.4058 63.5905
12.4507 63.198
12.4956 63.2388
12.5405 63.3949
12.5853 64.3208
12.6302 71.4471
12.6751 76.4705
12.72 68.3864
12.7649 66.3461
12.8098 66.8896
12.8547 68.3026
12.8996 69.6338
12.9445 70.5638
12.9894 72.4777
13.0343 73.9434
13.0792 76.9509
13.1242 83.842
13.1691 104.204
13.214 138.742
13.2589 232.957
13.3038 380.393
13.3487 423.398
13.3937 246.455
13.4386 119.037
13.4835 99.8721
13.5285 112.678
13.5734 149.896
13.6183 248.553
13.6633 360.505
13.7082 328.832
13.7531 178.414
13.7981 94.9522
13.843 80.0458
13.888 77.9643
13.9329 75.4271
13.9779 74.3633
14.0228 73.224
14.0678 71.5637
14.1127 71.0612
14.1577 70.8948
14.2027 70.0061
14.2476 69.1041
14.2926 69.1668
14.3376 69.8384
14.3825 68.5619
14.4275 67.3686
14.4725 67.258
14.5175 67.3376
14.5624 67.7463
14.6074 69.7067
14.6524 70.2015
14.6974 69.1088
14.7424 69.7688
14.7874 74.9925
14.8324 84.3699
14.8774 106.042
14.9224 152.233
14.9674 213.456
15.0124 217.518
15.0574 145.94
15.1024 87.743
15.1474 70.8624
15.1924 68.9247
15.2374 69.5654
15.2824 68.9338
15.3274 66.6426
15.3725 65.4507
15.4175 65.0522
15.4625 64.7622
15.5076 65.0124
15.5526 64.7434
15.5976 64.2946
15.6426 64.8416
15.6877 69.0249
15.7327 76.1454
15.7778 90.7379
15.8228 124.671
15.8679 175.016
15.9129 196.414
15.958 150.728
16.003 93.8662
16.0481 66.6386
16.0931 63.3603
16.1382 61.449
16.1833 59.4275
16.2283 57.7603
16.2734 57.2646
16.3185 57.4777
16.3636 57.9741
16.4086 56.5463
16.4537 55.2153
16.4988 54.4999
16.5439 54.2044
16.589 54.3612
16.6341 53.8224
16.6792 53.1255
16.7243 53.7853
16.7694 53.8087
16.8145 53.8121
16.8596 54.0623
16.9047 55.5637
16.9498 55.5594
16.9949 54.6436
17.04 54.5632
17.0851 55.6448
17.1302 56.9752
17.1754 59.7515
17.2205 65.1317
17.2656 73.6757
17.3108 82.5953
17.3559 80.5193
17.401 69.0622
17.4462 60.7429
17.4913 57.9803
17.5365 57.7757
17.5815 57.9329
17.6268 58.3709
17.6718 59.1231
17.7171 59.4908
17.7622 59.8767
17.8074 60.5219
17.8525 62.3627
17.8977 65.6973
17.9428 70.8651
17.9881 79.783
18.0331 98.7275
18.0784 123.74
18.1237 137.86
18.1688 125.35
18.214 99.5243
18.2591 83.7099
18.3044 89.8371
18.3495 101.226
18.3948 105.855
18.4399 94.0372
18.4852 75.3094
18.5303 64.4912
18.5756 61.0149
18.6207 60.1737
18.666 59.1821
18.7112 58.5719
18.7565 57.8128
18.8016 57.4218
18.8469 56.9192
18.892 56.7553
18.9374 56.143
18.9825 55.7788
19.0278 55.8638
19.073 55.5254
19.1183 56.1843
19.1635 56.8348
19.2088 58.1304
19.254 60.8614
19.2993 65.7001
19.3447 72.0109
19.3898 75.0935
19.4352 70.3308
19.4804 61.4906
19.5257 55.5681
19.5709 53.0176
19.6163 52.8201
19.6615 52.6246
19.7068 52.3979
19.752 52.1517
19.7974 52.4008
19.8426 53.1588
19.888 53.638
19.9332 54.8582
19.9786 57.7221
20.0238 61.6622
20.0692 66.8526
20.1144 68.7323
20.1598 66.1162
20.205 62.0881
20.2504 61.2748
20.2957 63.6532
20.3411 65.1438
20.3863 62.7697
20.4318 57.286
20.477 52.4938
20.5224 50.6601
20.5677 49.9101
20.6131 49.2061
20.6586 48.7747
20.7038 48.6469
20.7493 48.3273
20.7945 48.1327
20.84 47.8643
20.8853 47.724
20.9307 47.508
20.976 47.682
21.0215 47.6491
21.0668 47.9845
21.1122 48.4608
21.1575 49.2301
21.203 50.0545
21.2483 50.6484
21.2938 50.302
21.3391 48.9199
21.3846 47.7807
21.4299 47.5478
21.4754 47.466
21.5207 47.6227
21.5662 47.6086
21.6116 48.0634
21.6571 48.6364
21.7024 49.5815
21.7479 51.4882
21.7933 54.2586
21.8388 58.2769
21.8843 62.4184
21.9297 63.653
21.9752 61.7246
22.0206 58.1966
22.0661 55.5891
22.1115 55.3323
22.157 54.832
22.2024 53.0852
22.248 50.2942
22.2933 48.8872
22.3389 48.2331
22.3843 48.1105
22.4299 47.947
22.4753 47.9747
22.5208 47.5971
22.5662 47.5331
22.6118 47.5657
22.6572 47.8256
22.7028 48.1603
22.7483 48.5491
22.7939 49.2047
22.8393 50.9638
22.8849 53.1634
22.9303 55.519
22.9759 56.8732
23.0214 56.1243
23.067 53.3042
23.1126 49.9851
23.1581 48.1134
23.2037 47.7163
23.2492 47.7916
23.2948 47.8072
23.3403 48.0134
23.3859 48.8149
23.4314 49.617
23.477 51.7604
23.5225 54.3429
23.5682 56.4137
23.6137 56.9566
23.6593 54.5037
23.7048 50.634
23.7505 47.3461
23.796 45.8719
23.8417 45.1205
23.8872 44.6571
23.9329 44.3192
23.9784 43.9175
24.0241 43.8142
24.0697 43.532
24.1154 43.2856
24.1609 43.1662
24.2066 43.0663
24.2522 42.9927
24.2979 42.559
24.3434 42.5699
24.3892 42.3558
24.4349 42.2574
24.4805 42.2251
24.5262 42.1854
24.5718 42.2903
24.6175 42.1022
24.6631 42.0898
24.7089 41.6661
24.7545 41.578
24.8002 41.4188
24.8458 41.4576
24.8916 41.2431
24.9372 41.345
24.983 41.6567
25.0286 41.9173
25.0744 42.6475
25.12 42.965
25.1658 43.5023
25.2114 43.9288
25.2572 44.0738
25.3029 44.339
25.3487 44.2922
25.3943 43.6835
25.4402 42.3484
25.4858 41.6419
25.5316 40.6695
25.5773 40.1083
25.6231 40.1773
25.669 39.8092
25.7147 39.7313
25.7605 39.7524
25.8062 39.6397
25.8521 39.9535
25.8977 39.7393
25.9436 40.0362
25.9893 40.3609
26.0352 40.7868
26.0809 40.9371
26.1268 41.0121
26.1725 40.5662
26.2184 40.0453
26.2641 39.5436
26.31 39.3077
26.3557 39.2973
26.4017 39.3245
26.4474 39.6907
26.4933 39.945
26.5391 40.586
26.585 40.9795
26.6308 41.3394
26.6767 41.436
26.7225 41.374
26.7684 40.6101
26.8142 40.2566
26.8601 39.7416
26.9059 39.1606
26.9519 38.8487
26.9979 38.4823
27.0437 38.1781
27.0896 37.8984
27.1354 38.0026
27.1814 37.785
27.2272 37.6898
27.2732 37.8273
27.3191 37.5859
27.3651 37.7509
27.4109 37.7596
27.4569 37.7806
27.5027 37.8867
27.5488 37.9038
27.5946 37.7054
27.6407 37.5221
27.6865 37.3581
27.7326 37.2041
27.7784 37.1559
27.8245 37.2589
27.8703 37.1033
27.9164 37.6283
27.9623 37.7892
28.0084 38.1896
28.0543 38.4759
28.1003 38.3174
28.1462 38.1066
28.1923 37.7464
28.2384 37.2817
28.2843 36.9525
28.3304 36.4967
28.3764 36.098
28.4225 35.7248
28.4684 35.5856
28.5145 35.3133
28.5605 35.2682
28.6066 35.0312
28.6526 34.9839
28.6987 34.9585
28.7447 34.8785
28.7908 34.8576
28.8368 34.8347
28.8829 34.9171
28.9289 34.6647
28.9751 34.4946
29.0211 34.2181
29.0673 34.0806
29.1133 33.9219
29.1595 33.7559
29.2055 33.6756
29.2517 33.6769
29.2977 33.7174
29.3439 33.6862
29.3899 33.6757
29.4361 33.4046
29.4824 33.283
29.5284 33.1551
29.5746 32.8168
29.6207 32.6025
29.6669 32.4889
29.713 32.4636
29.7593 32.2639
29.8053 32.3097
29.8516 32.1259
29.8977 32.1983
29.9439 32.0338
29.99 31.8839
30.0363 31.8023
30.0824 31.8484
30.1287 31.7935
30.1748 31.8328
30.2211 31.8219
30.2673 31.7451
30.3136 31.7775
30.3597 31.6463
30.406 31.5647
30.4522 31.4689
30.4985 31.4525
30.5447 31.5807
30.591 31.5414
30.6372 31.6357
30.6835 31.6017
30.7297 31.6998
30.7761 31.4985
30.8224 31.4396
30.8686 31.2149
30.915 31.0138
30.9612 30.8799
31.0076 30.7806
31.0538 30.5694
31.1002 30.5734
31.1464 30.3817
31.1928 30.3597
31.2391 30.3939
31.2855 30.1764
31.3317 30.2714
31.3781 30.3786
31.4244 30.3453
31.4708 30.1898
31.5171 30.2414
31.5636 30.181
31.6098 29.9091
31.6563 29.7452
31.7026 29.7966
31.7491 29.5765
31.7953 29.589
31.8418 29.6378
31.8881 29.6633
31.9346 29.6021
31.9809 29.5698
32.0275 29.309
32.074 29.307
32.1203 29.0521
32.1668 28.8627
32.2132 28.8739
32.2597 28.7105
32.306 28.6883
32.3526 28.6166
32.399 28.4602
32.4455 28.3411
32.4919 28.2651
32.5385 28.2079
32.5848 27.925
32.6314 27.976
32.6778 27.9494
32.7244 27.7081
32.7708 27.608
32.8174 27.7197
32.8638 27.4662
32.9104 27.5524
32.9569 27.4868
33.0035 27.3786
33.0499 27.3199
33.0966 27.2794
33.143 27.2932
33.1897 27.1761
33.2361 27.0793
33.2828 27.1905
33.3293 26.8794
33.3759 26.9223
33.4226 26.7411
33.4691 26.6142
33.5158 26.4757
33.5623 26.4301
33.609 26.2187
33.6555 26.2172
33.7022 26.1892
33.7487 26.0466
33.7954 26.0088
33.842 25.9162
33.8887 25.8119
33.9353 25.7967
33.982 25.711
34.0286 25.588
34.0753 25.3902
34.1219 25.5206
34.1687 25.3276
34.2152 25.3943
34.262 25.2014
34.3086 25.1228
34.3554 25.1371
34.402 24.9818
34.4488 24.8032
34.4954 24.8606
34.5422 24.7487
34.5889 24.619
34.6357 24.5562
34.6825 24.5126
34.7292 24.4245
34.776 24.3134
34.8227 24.3318
34.8695 24.2168
34.9162 24.1367
34.9631 24.0348
35.0098 24.0041
35.0566 23.877
35.1033 23.7682
35.1502 23.8128
35.1969 23.7828
35.2438 23.6774
35.2906 23.6668
35.3375 23.6001
35.3842 23.5865
35.4311 23.6056
35.4779 23.5076
35.5248 23.4586
35.5716 23.366
35.6185 23.2138
35.6653 23.1353
35.7123 23.1236
35.759 23.0829
35.806 22.9451
35.8528 22.8369
35.8998 22.8331
35.9468 22.7189
35.9936 22.6973
36.0406 22.6321
36.0874 22.6236
36.1345 22.4783
36.1813 22.4836
36.2283 22.3886
36.2752 22.2087
36.3222 22.242
36.3691 22.1042
36.4161 22.0524
36.463 22.0152
36.5101 22.0522
36.557 22.0545
36.6041 21.8195
36.651 21.8036
36.6981 21.7558
36.745 21.6477
36.7921 21.6228
36.839 21.4564
36.8861 21.4355
36.9331 21.313
36.9802 21.2735
37.0272 21.2002
37.0743 21.1268
37.1213 21.1211
37.1684 21.0306
37.2154 20.9474
37.2626 20.8703
37.3098 20.7638
37.3568 20.7841
37.404 20.7375
37.451 20.5111
37.4982 20.6005
37.5452 20.4819
37.5924 20.431
37.6395 20.5651
37.6867 20.3508
37.7337 20.1892
37.781 20.1604
37.8281 20.0623
37.8753 20.0152
37.9224 19.9606
37.9697 19.9402
38.0168 19.8497
38.064 19.768
38.1111 19.7081
38.1584 19.6625
38.2056 19.5974
38.2529 19.5176
38.3 19.5383
38.3473 19.4417
38.3945 19.3058
38.4418 19.2729
38.489 19.2339
38.5363 19.1811
38.5837 19.1179
38.6309 19.0751
38.6782 19.0009
38.7254 18.8518
38.7728 18.8786
38.82 18.8404
38.8674 18.791
38.9146 18.6887
38.9621 18.6815
39.0093 18.648
39.0567 18.5011
39.104 18.4882
39.1514 18.3826
39.1987 18.3574
39.2461 18.3042
39.2934 18.2699
39.3409 18.0964
39.3882 18.1442
39.4356 18.0315
39.483 17.9977
39.5304 17.9038
39.5778 17.934
39.6253 17.8213
39.6726 17.7649
39.7201 17.7533
39.7675 17.7089
39.815 17.6164
39.8624 17.5524
39.9099 17.5519
39.9575 17.4245
40.0049 17.3755
40.0525 17.2728
40.0999 17.288
40.1474 17.1931
40.1949 17.1731
40.2425 17.0938
40.2899 17.0344
40.3375 17.0388
40.385 16.923
40.4326 16.8925
40.48 16.8518
40.5277 16.7742
40.5752 16.7789
40.6228 16.6107
40.6703 16.6239
40.718 16.6061
40.7655 16.5134
40.8132 16.3942
40.8607 16.4343
40.9084 16.3838
40.9559 16.3002
41.0036 16.2958
41.0512 16.2501
41.0989 16.1378
41.1465 16.1679
41.1942 16.0173
41.242 15.9598
41.2896 15.9465
41.3373 15.9003
41.3849 15.8601
41.4327 15.7543
41.4803 15.7046
41.5281 15.672
41.5758 15.5779
41.6236 15.6029
41.6712 15.5214
41.7191 15.4302
41.7667 15.3646
41.8146 15.362
41.8622 15.3652
41.9101 15.2404
41.9578 15.1671
42.0057 15.1818
42.0534 15.0879
42.1013 15.0278
42.149 15.036
42.1969 14.9056
42.2446 14.9318
42.2925 14.8384
42.3403 14.8031
42.3882 14.8285
42.436 14.7244
42.4839 14.6392
42.5319 14.655
42.5797 14.5363
42.6277 14.5324
42.6755 14.4714
42.7235 14.4564
42.7713 14.4487
42.8193 14.3546
42.8671 14.2545
42.9152 14.2669
42.963 14.1959
43.0111 14.1054
43.0589 14.0598
43.107 13.9501
43.1549 13.9699
43.2029 13.9254
43.2508 13.9114
43.2989 13.8827
43.3468 13.846
43.3949 13.7295
43.4429 13.7151
43.491 13.655
43.5389 13.634
43.5871 13.5472
43.635 13.509
43.6832 13.4431
43.7312 13.3908
43.7793 13.3781
43.8273 13.3672
43.8755 13.2408
43.9237 13.2158
43.9717 13.2014
44.0199 13.1344
44.068 13.1255
44.1162 13.053
44.1642 13.0533
44.2125 12.9765
44.2606 12.9185
44.3088 12.839
44.3569 12.8177
44.4052 12.7769
44.4533 12.7389
44.5016 12.6755
44.5497 12.6505
44.598 12.6191
44.6461 12.5835
44.6945 12.5105
44.7426 12.4818
44.791 12.4061
44.8391 12.4126
44.8875 12.3252
44.9357 12.3355
44.984 12.2347
45.0322 12.2373
45.0806 12.1548
45.1288 12.1031
45.1773 12.089
45.2257 12.0389
45.2739 11.9727
45.3224 11.9406
45.3706 11.9671
45.4191 11.8463
45.4673 11.863
45.5158 11.8091
45.5641 11.7171
45.6126 11.6675
45.6609 11.6871
45.7094 11.6163
45.7577 11.5639
45.8063 11.4829
45.8546 11.5018
45.9031 11.4178
45.9515 11.3756
46.0001 11.3627
46.0484 11.3442
46.097 11.3054
46.1454 11.27
46.194 11.233
46.2424 11.1862
46.291 11.1277
46.3395 11.0729
46.3881 11.0299
46.4365 11.0191
46.4852 10.9893
46.5337 10.9162
46.5823 10.9004
46.631 10.8381
46.6795 10.8245
46.7282 10.7913
46.7767 10.7469
46.8254 10.7001
46.8739 10.6821
46.9226 10.6178
46.9712 10.5784
47.0199 10.5007
47.0685 10.5096
47.1173 10.4115
47.1658 10.3862
47.2146 10.4228
47.2632 10.3258
47.312 10.3221
47.3606 10.2442
47.4095 10.1854
47.4581 10.1961
47.5069 10.1228
47.5556 10.0509
47.6044 10.0892
47.6531 10.0284
47.702 9.97277
47.7507 9.97991
47.7996 9.87814
47.8483 9.8433
47.8972 9.86261
47.9461 9.81774
47.9948 9.76207
48.0438 9.73316
48.0925 9.71927
48.1415 9.68142
48.1902 9.64012
48.2392 9.60613
48.288 9.57896
48.337 9.55714
48.3858 9.49256
48.4348 9.45825
48.4837 9.4768
48.5327 9.42063
48.5815 9.37241
48.6306 9.37504
48.6795 9.31549
48.7285 9.24308
48.7774 9.23185
48.8265 9.18433
48.8754 9.16984
48.9245 9.15229
48.9734 9.08058
49.0226 9.07872
49.0715 9.01894
49.1206 9.05954
49.1696 8.94705
49.2188 8.93424
49.2679 8.88138
49.3169 8.83988
49.3661 8.84956
49.4151 8.78417
49.4643 8.75487
49.5134 8.69028
49.5626 8.66084
49.6117 8.63165
49.6609 8.63388
49.71 8.56347
49.7592 8.51835
49.8083 8.48697
49.8576 8.47707
49.9067 8.45978
49.956 8.40916
50.0052 8.38068
50.0545 8.39839
50.1036 8.31148
50.153 8.28425
50.2022 8.28022
50.2515 8.22694
50.3007 8.1608
50.3501 8.1477
50.3993 8.12269
50.4487 8.13851
50.498 8.06366
50.5474 8.09698
50.5966 8.00598
50.6461 7.99624
50.6955 7.94498
50.7448 7.90668
50.7943 7.864
50.8436 7.8095
50.8931 7.83872
50.9424 7.79764
50.9919 7.77235
51.0413 7.7446
51.0908 7.7415
51.1402 7.71049
51.1897 7.66149
51.2391 7.6276
51.2887 7.57567
51.3381 7.53933
51.3877 7.52529
51.4371 7.4745
51.4867 7.47587
51.5362 7.46148
51.5858 7.41727
51.6353 7.35555
51.6849 7.33621
51.7344 7.30282
51.7841 7.31071
51.8336 7.27381
51.8833 7.21044
51.9328 7.17205
51.9826 7.11973
52.0323 7.09751
52.0818 7.10064
52.1316 7.02319
52.1812 7.0281
52.231 6.96963
52.2806 6.97491
52.3304 6.95062
52.38 6.91584
52.4298 6.88857
52.4794 6.88179
52.5293 6.83993
52.5789 6.81137
52.6288 6.80967
52.6785 6.7588
52.7284 6.74555
52.7781 6.64083
52.828 6.68197
52.8777 6.64318
52.9276 6.57604
52.9774 6.58716
53.0273 6.56511
53.0771 6.53604
53.1271 6.50681
53.1769 6.48583
53.2269 6.46552
53.2767 6.43873
53.3267 6.41891
53.3765 6.36285
53.4266 6.3344
53.4766 6.31178
53.5265 6.24831
53.5765 6.27227
53.6264 6.21655
53.6765 6.19706
53.7264 6.16088
53.7765 6.17262
53.8265 6.17172
53.8766 6.06779
53.9266 6.03306
53.9767 6.05075
54.0267 6.02766
54.0769 5.99594
54.1269 5.94902
54.1771 5.88232
54.2271 5.91404
54.2773 5.87833
54.3274 5.83694
54.3776 5.80469
54.4277 5.77592
54.478 5.73702
54.528 5.7299
54.5783 5.69727
54.6285 5.63321
54.6788 5.62414
54.7289 5.57324
54.7792 5.45747
54.8296 5.44554
54.8798 5.40914
54.9301 5.37477
54.9803 5.35608
55.0307 5.34788
55.0809 5.26751
55.1314 5.22903
55.1816 5.18774
55.232 5.17256
55.2823 5.16739
55.3328 5.02655
55.383 5.03871
55.4335 4.99994
55.4838 4.90875
55.5344 4.82025
55.5847 4.86623
55.6352 4.86123
55.6856 4.74352
55.7361 4.76169