File: XRD/Ni3Fe_FD0648.xy
TT I
1.27165 7.30473
1.31627 6.61743
1.36089 7.08233
1.40551 6.79344
1.45013 6.17877
1.49476 6.08613
1.53938 5.87921
1.584 5.09428
1.62863 5.11083
1.67325 5.06433
1.71787 5.48149
1.7625 4.88242
1.80712 5.42703
1.85174 5.16408
1.89636 4.75706
1.94099 4.76424
1.98562 5.00497
2.03025 4.77415
2.07487 4.44683
2.11949 5.14931
2.16411 5.10786
2.20874 17.2023
2.25338 28.9571
2.298 6.72797
2.34263 5.8239
2.38725 6.01273
2.43188 6.17927
2.4765 7.15493
2.52115 6.70307
2.56577 7.14313
2.6104 7.81715
2.65503 7.96532
2.69965 7.8045
2.7443 8.55939
2.78893 7.96479
2.83356 8.58082
2.87818 8.22165
2.92281 8.99389
2.96744 9.87871
3.01209 10.0576
3.05672 10.9328
3.10135 11.9751
3.14599 13.2714
3.19062 14.1315
3.23527 15.6452
3.2799 16.0102
3.32454 16.6878
3.36917 17.9159
3.4138 19.2132
3.45844 19.3808
3.50309 21.5279
3.54773 22.2844
3.59237 24.9762
3.637 113.945
3.68164 71.1912
3.7263 26.7447
3.77094 26.885
3.81558 27.1089
3.86022 27.7086
3.90486 29.0081
3.9495 30.1826
3.99416 31.4284
4.0388 32.2701
4.08344 34.035
4.12809 35.2422
4.17273 37.6379
4.21738 44.665
4.26204 313.17
4.30669 279.693
4.35133 51.1144
4.39598 45.491
4.44063 56.4557
4.4853 71.522
4.52995 50.5923
4.5746 51.4115
4.61925 53.0586
4.6639 55.4683
4.70855 58.0567
4.75322 60.6719
4.79788 63.4934
4.84253 66.927
4.88719 70.7605
4.93184 75.0004
4.97652 80.219
5.02118 86.2064
5.06583 93.4858
5.11049 104.39
5.15515 186.009
5.19981 329.33
5.24449 2602.8
5.28916 12634.3
5.33382 3186.98
5.37848 197.105
5.42315 130.471
5.46783 113.526
5.5125 106.062
5.55716 102.04
5.60183 99.0202
5.6465 96.7482
5.69117 94.4124
5.73586 91.71
5.78053 90.8769
5.8252 90.1649
5.86988 91.0697
5.91455 93.4908
5.95924 100.136
6.00392 187.946
6.0486 894.598
6.09328 4296.23
6.13795 3505.54
6.18263 264.595
6.22733 95.0291
6.27201 84.4359
6.3167 111.475
6.36138 83.8485
6.40606 69.822
6.45075 67.8216
6.49545 65.8888
6.54014 64.2043
6.58483 63.5327
6.62952 63.8253
6.67421 103.195
6.71892 173.015
6.76361 72.7018
6.8083 59.2898
6.853 57.7692
6.89769 57.5058
6.94239 57.1443
6.98711 56.7108
7.03181 56.1379
7.07651 55.6296
7.12121 55.7255
7.16591 55.9883
7.21063 56.3568
7.25533 74.2135
7.30004 222.886
7.34475 105.524
7.38945 58.1158
7.43416 55.2855
7.47889 54.9153
7.5236 55.3205
7.56831 55.7968
7.61303 57.8599
7.65774 58.2644
7.70247 56.4013
7.74719 56.3344
7.79191 56.9313
7.83663 56.9738
7.88135 57.9946
7.92607 58.7722
7.97081 59.9442
8.01553 60.9238
8.06026 62.3277
8.10498 64.2032
8.14971 75.8078
8.19446 74.245
8.23919 69.5874
8.28392 71.6663
8.32865 73.9437
8.37339 78.1172
8.41812 85.5915
8.46288 120.379
8.50761 156.598
8.55235 359.412
8.59709 1087.12
8.64183 2188.56
8.68658 1041.35
8.73134 180.228
8.77609 100.227
8.82083 92.733
8.86558 90.0051
8.91033 90.5153
8.9551 93.8288
8.99985 85.8758
9.04461 83.7649
9.08936 82.7598
9.13412 81.9537
9.17888 82.1282
9.22365 83.1498
9.26841 81.8808
9.31318 82.1703
9.35794 82.6835
9.4027 83.0153
9.44749 83.9043
9.49226 84.3925
9.53703 85.5059
9.5818 87.3777
9.62657 92.3553
9.67134 101.506
9.71614 93.9407
9.76091 93.927
9.80569 95.9964
9.85047 99.7847
9.89525 128.963
9.94005 143.766
9.98484 166.049
10.0296 316.983
10.0744 747.439
10.1192 1680.18
10.164 1688.27
10.2088 448.877
10.2536 131.76
10.2984 116.033
10.3432 119.19
10.388 104.903
10.4328 115.079
10.4776 153.096
10.5224 263.397
10.5672 495.322
10.612 521.121
10.6568 217.92
10.7017 99.7073
10.7465 86.9366
10.7913 83.5352
10.8361 81.2043
10.8809 79.1638
10.9257 79.2111
10.9706 80.3531
11.0154 75.5191
11.0602 73.0732
11.105 72.1704
11.1499 78.2157
11.1947 88.5834
11.2395 76.7104
11.2844 71.6289
11.3292 67.3401
11.374 66.4769
11.4189 65.8252
11.4637 65.1636
11.5086 65.9365
11.5534 70.2324
11.5983 66.5531
11.6431 63.9534
11.688 63.0058
11.7328 63.3438
11.7777 63.0721
11.8225 62.6453
11.8674 62.5686
11.9122 62.8784
11.9571 62.8735
12.002 63.5141
12.0468 67.3392
12.0917 78.3467
12.1366 100.146
12.1814 146.023
12.2263 203.21
12.2712 175.789
12.3161 104.046
12.3609 73.2722
12.4058 65.4161
12.4507 64.7173
12.4956 64.4924
12.5405 64.7333
12.5853 65.8744
12.6302 76.0926
12.6751 83.4146
12.72 71.6607
12.7649 67.9717
12.8098 68.3385
12.8547 69.7314
12.8996 71.0149
12.9445 72.3438
12.9894 73.7644
13.0343 75.2886
13.0792 78.6228
13.1242 86.2675
13.1691 109.141
13.214 143.292
13.2589 224.955
13.3038 355.256
13.3487 434.336
13.3937 281.312
13.4386 129.686
13.4835 104.409
13.5285 117.384
13.5734 152.728
13.6183 235.98
13.6633 341.663
13.7082 350.763
13.7531 198.095
13.7981 100.659
13.843 82.3565
13.888 79.4373
13.9329 76.9681
13.9779 76.0258
14.0228 74.6404
14.0678 73.0048
14.1127 72.7132
14.1577 72.9769
14.2027 71.7068
14.2476 70.5587
14.2926 70.8491
14.3376 72.4258
14.3825 70.7741
14.4275 68.8705
14.4725 68.7245
14.5175 68.7739
14.5624 69.0683
14.6074 71.7932
14.6524 72.6638
14.6974 70.703
14.7424 71.5051
14.7874 77.4435
14.8324 86.847
14.8774 106.5
14.9224 147.548
14.9674 199.324
15.0124 218.296
15.0574 155.031
15.1024 93.8021
15.1474 72.9128
15.1924 70.8675
15.2374 71.9228
15.2824 71.4429
15.3274 68.554
15.3725 66.9728
15.4175 66.7617
15.4625 66.2304
15.5076 66.5389
15.5526 66.5796
15.5976 65.7355
15.6426 66.4995
15.6877 71.1841
15.7327 78.058
15.7778 92.1083
15.8228 120.918
15.8679 162.873
15.9129 194.246
15.958 163.948
16.003 102.251
16.0481 69.4887
16.0931 65.6177
16.1382 63.8132
16.1833 61.203
16.2283 59.2522
16.2734 58.6578
16.3185 59.3099
16.3636 60.3787
16.4086 58.7403
16.4537 56.6025
16.4988 55.809
16.5439 55.606
16.589 55.5103
16.6341 55.0913
16.6792 54.6804
16.7243 55.0985
16.7694 55.1878
16.8145 55.0542
16.8596 55.7191
16.9047 57.3724
16.9498 57.7849
16.9949 56.0882
17.04 55.8721
17.0851 57.0768
17.1302 58.5293
17.1754 61.1636
17.2205 65.9483
17.2656 73.0952
17.3108 82.1066
17.3559 83.4736
17.401 72.6345
17.4462 62.8003
17.4913 59.1564
17.5365 59.2601
17.5815 59.3789
17.6268 59.6012
17.6718 60.7007
17.7171 61.2675
17.7622 61.3553
17.8074 61.7198
17.8525 63.6889
17.8977 67.4191
17.9428 72.5745
17.9881 80.8455
18.0331 96.49
18.0784 117.719
18.1237 138.015
18.1688 133.929
18.214 106.191
18.2591 86.8528
18.3044 89.2805
18.3495 99.528
18.3948 106.526
18.4399 99.3968
18.4852 80.0856
18.5303 67.0693
18.5756 62.5368
18.6207 61.622
18.666 60.5898
18.7112 59.8474
18.7565 59.2844
18.8016 58.639
18.8469 58.3356
18.892 57.8453
18.9374 57.2599
18.9825 57.1346
19.0278 57.1778
19.073 57.0519
19.1183 57.4611
19.1635 58.4298
19.2088 59.5949
19.254 61.8243
19.2993 65.8335
19.3447 72.1438
19.3898 76.9946
19.4352 73.6587
19.4804 64.4613
19.5257 57.2747
19.5709 54.5286
19.6163 54.1771
19.6615 53.8318
19.7068 53.4063
19.752 53.5399
19.7974 53.6928
19.8426 54.6171
19.888 55.1242
19.9332 56.091
19.9786 58.398
20.0238 61.6116
20.0692 66.6788
20.1144 69.9272
20.1598 69.027
20.205 63.9133
20.2504 61.9549
20.2957 63.6145
20.3411 65.8809
20.3863 64.7313
20.4318 59.3663
20.477 54.3007
20.5224 52.1927
20.5677 51.4586
20.6131 50.4563
20.6586 49.8908
20.7038 49.8248
20.7493 49.3534
20.7945 49.1313
20.84 49.1226
20.8853 48.8842
20.9307 48.6931
20.976 48.7989
21.0215 48.8326
21.0668 49.1253
21.1122 49.4539
21.1575 50.2409
21.203 50.7293
21.2483 51.4535
21.2938 51.9508
21.3391 50.2692
21.3846 49.1254
21.4299 48.4172
21.4754 48.6587
21.5207 48.4791
21.5662 48.9162
21.6116 49.0716
21.6571 49.9364
21.7024 50.8941
21.7479 52.3812
21.7933 55.0099
21.8388 58.4193
21.8843 62.2232
21.9297 64.5709
21.9752 64.1393
22.0206 60.3039
22.0661 56.8223
22.1115 56.1202
22.157 56.199
22.2024 54.7677
22.248 51.8751
22.2933 50.1346
22.3389 49.4166
22.3843 49.1889
22.4299 49.098
22.4753 49.2279
22.5208 48.9476
22.5662 48.6034
22.6118 48.781
22.6572 48.8271
22.7028 49.298
22.7483 49.7677
22.7939 50.29
22.8393 51.6753
22.8849 53.7018
22.9303 55.8122
22.9759 57.8513
23.0214 57.9211
23.067 55.3954
23.1126 51.83
23.1581 49.5554
23.2037 49.0069
23.2492 48.9822
23.2948 48.8564
23.3403 49.1434
23.3859 49.6432
23.4314 50.6605
23.477 52.3131
23.5225 54.4778
23.5682 56.8592
23.6137 58.2056
23.6593 56.4711
23.7048 52.463
23.7505 48.6971
23.796 46.9101
23.8417 46.2682
23.8872 45.6902
23.9329 45.407
23.9784 45.1845
24.0241 44.7229
24.0697 44.6094
24.1154 44.3303
24.1609 44.1923
24.2066 44.1111
24.2522 43.941
24.2979 43.6577
24.3434 43.5069
24.3892 43.3409
24.4349 43.3329
24.4805 43.049
24.5262 43.2922
24.5718 42.9918
24.6175 42.9815
24.6631 42.9351
24.7089 42.7597
24.7545 42.5883
24.8002 42.2563
24.8458 42.3871
24.8916 42.207
24.9372 42.3414
24.983 42.5884
25.0286 42.8308
25.0744 43.3585
25.12 43.707
25.1658 44.4057
25.2114 44.7021
25.2572 44.88
25.3029 45.0326
25.3487 45.1827
25.3943 44.7197
25.4402 43.9522
25.4858 42.6916
25.5316 41.8264
25.5773 41.0185
25.6231 41.0554
25.669 40.5907
25.7147 40.666
25.7605 40.6884
25.8062 40.5818
25.8521 40.8818
25.8977 40.7479
25.9436 40.89
25.9893 40.886
26.0352 41.5604
26.0809 41.581
26.1268 41.8475
26.1725 41.6279
26.2184 40.9916
26.2641 40.4728
26.31 40.2699
26.3557 40.2983
26.4017 40.1551
26.4474 40.6415
26.4933 40.6775
26.5391 41.1951
26.585 41.7954
26.6308 42.3373
26.6767 42.3547
26.7225 42.2535
26.7684 41.7271
26.8142 41.0787
26.8601 40.599
26.9059 40.2557
26.9519 39.6932
26.9979 39.437
27.0437 39.0952
27.0896 38.8823
27.1354 38.847
27.1814 38.8126
27.2272 38.6709
27.2732 38.8244
27.3191 38.4759
27.3651 38.5376
27.4109 38.4568
27.4569 38.6089
27.5027 38.5392
27.5488 38.6563
27.5946 38.413
27.6407 38.3928
27.6865 38.141
27.7326 37.9333
27.7784 37.9157
27.8245 37.9709
27.8703 38.0075
27.9164 38.3594
27.9623 38.5242
28.0084 38.7517
28.0543 39.2078
28.1003 39.1297
28.1462 39.045
28.1923 38.6173
28.2384 38.1353
28.2843 37.9348
28.3304 37.3148
28.3764 36.9009
28.4225 36.542
28.4684 36.4276
28.5145 36.1502
28.5605 35.8447
28.6066 35.8286
28.6526 35.7807
28.6987 35.8594
28.7447 35.6208
28.7908 35.4878
28.8368 35.5601
28.8829 35.6441
28.9289 35.4516
28.9751 35.2646
29.0211 35.092
29.0673 34.7855
29.1133 34.7134
29.1595 34.6007
29.2055 34.5287
29.2517 34.457
29.2977 34.3991
29.3439 34.4863
29.3899 34.4287
29.4361 34.3741
29.4824 34.0862
29.5284 33.8573
29.5746 33.5627
29.6207 33.4377
29.6669 33.2321
29.713 33.1451
29.7593 32.9776
29.8053 33.0649
29.8516 32.9476
29.8977 32.9078
29.9439 32.729
29.99 32.6891
30.0363 32.5648
30.0824 32.6028
30.1287 32.4745
30.1748 32.5519
30.2211 32.4649
30.2673 32.3604
30.3136 32.5894
30.3597 32.5013
30.406 32.3184
30.4522 32.2804
30.4985 32.1748
30.5447 32.3037
30.591 32.2268
30.6372 32.2429
30.6835 32.2764
30.7297 32.2805
30.7761 32.287
30.8224 32.1724
30.8686 31.9895
30.915 31.8278
30.9612 31.6442
31.0076 31.43
31.0538 31.3388
31.1002 31.2112
31.1464 31.0854
31.1928 31.1626
31.2391 31.0447
31.2855 30.963
31.3317 30.9956
31.3781 31.0062
31.4244 30.8833
31.4708 30.9449
31.5171 30.9828
31.5636 30.8082
31.6098 30.6816
31.6563 30.586
31.7026 30.3659
31.7491 30.269
31.7953 30.2577
31.8418 30.3587
31.8881 30.251
31.9346 30.2412
31.9809 30.1113
32.0275 30.1236
32.074 29.9357
32.1203 29.7617
32.1668 29.6915
32.2132 29.45
32.2597 29.422
32.306 29.2504
32.3526 29.1004
32.399 28.9801
32.4455 28.8693
32.4919 28.845
32.5385 28.7771
32.5848 28.5981
32.6314 28.6712
32.6778 28.5751
32.7244 28.435
32.7708 28.2305
32.8174 28.2806
32.8638 28.171
32.9104 28.1782
32.9569 28.1373
33.0035 27.96
33.0499 28.0226
33.0966 27.8815
33.143 27.9306
33.1897 27.8566
33.2361 27.722
33.2828 27.7973
33.3293 27.5028
33.3759 27.5246
33.4226 27.3184
33.4691 27.2009
33.5158 27.1802
33.5623 27.0864
33.609 26.8301
33.6555 26.8486
33.7022 26.6806
33.7487 26.6269
33.7954 26.5942
33.842 26.4957
33.8887 26.3682
33.9353 26.341
33.982 26.2785
34.0286 26.1284
34.0753 26.1185
34.1219 25.9191
34.1687 25.8745
34.2152 25.9072
34.262 25.8018
34.3086 25.6466
34.3554 25.663
34.402 25.4627
34.4488 25.3999
34.4954 25.3564
34.5422 25.2873
34.5889 25.1152
34.6357 25.059
34.6825 25.0253
34.7292 24.8828
34.776 24.8013
34.8227 24.7589
34.8695 24.7889
34.9162 24.6711
34.9631 24.5681
35.0098 24.5517
35.0566 24.4778
35.1033 24.3748
35.1502 24.3479
35.1969 24.237
35.2438 24.2796
35.2906 24.1458
35.3375 24.2118
35.3842 24.0781
35.4311 24.0986
35.4779 24.1893
35.5248 23.9285
35.5716 23.8598
35.6185 23.8165
35.6653 23.7496
35.7123 23.5896
35.759 23.5607
35.806 23.5202
35.8528 23.3351
35.8998 23.3902
35.9468 23.2535
35.9936 23.1671
36.0406 23.0699
36.0874 23.1068
36.1345 23.0316
36.1813 22.9363
36.2283 22.7529
36.2752 22.7414
36.3222 22.7664
36.3691 22.6093
36.4161 22.5796
36.463 22.6459
36.5101 22.4564
36.557 22.4376
36.6041 22.3471
36.651 22.2795
36.6981 22.2334
36.745 22.1237
36.7921 22.0463
36.839 21.9237
36.8861 21.8489
36.9331 21.8512
36.9802 21.802
37.0272 21.7107
37.0743 21.568
37.1213 21.4608
37.1684 21.4998
37.2154 21.3945
37.2626 21.4006
37.3098 21.2973
37.3568 21.1663
37.404 21.2303
37.451 21.0537
37.4982 20.9911
37.5452 20.9014
37.5924 20.8987
37.6395 20.9715
37.6867 20.7823
37.7337 20.6711
37.781 20.5758
37.8281 20.5974
37.8753 20.4147
37.9224 20.3853
37.9697 20.3521
38.0168 20.3076
38.064 20.2155
38.1111 20.2252
38.1584 20.1099
38.2056 20.013
38.2529 19.9928
38.3 19.9098
38.3473 19.8567
38.3945 19.7248
38.4418 19.7315
38.489 19.7065
38.5363 19.5718
38.5837 19.5471
38.6309 19.4964
38.6782 19.378
38.7254 19.3275
38.7728 19.324
38.82 19.2725
38.8674 19.2052
38.9146 19.1053
38.9621 19.0284
39.0093 18.9382
39.0567 18.9475
39.104 18.8541
39.1514 18.7782
39.1987 18.7638
39.2461 18.683
39.2934 18.6356
39.3409 18.5561
39.3882 18.4597
39.4356 18.4705
39.483 18.3765
39.5304 18.2819
39.5778 18.2779
39.6253 18.2025
39.6726 18.1647
39.7201 18.1367
39.7675 18.0888
39.815 18.0592
39.8624 17.9459
39.9099 17.9079
39.9575 17.8018
40.0049 17.803
40.0525 17.7369
40.0999 17.7253
40.1474 17.6053
40.1949 17.563
40.2425 17.4963
40.2899 17.3424
40.3375 17.3863
40.385 17.3146
40.4326 17.2796
40.48 17.2181
40.5277 17.2483
40.5752 17.0526
40.6228 17.0135
40.6703 17.0224
40.718 16.9312
40.7655 16.9613
40.8132 16.8459
40.8607 16.8306
40.9084 16.7811
40.9559 16.6846
41.0036 16.6861
41.0512 16.589
41.0989 16.5337
41.1465 16.4664
41.1942 16.4275
41.242 16.3117
41.2896 16.3045
41.3373 16.2026
41.3849 16.1727
41.4327 16.177
41.4803 16.0861
41.5281 16.0575
41.5758 15.9737
41.6236 15.9081
41.6712 15.9168
41.7191 15.762
41.7667 15.7721
41.8146 15.7549
41.8622 15.704
41.9101 15.6164
41.9578 15.5296
42.0057 15.4575
42.0534 15.444
42.1013 15.409
42.149 15.3605
42.1969 15.2889
42.2446 15.2396
42.2925 15.1964
42.3403 15.1565
42.3882 15.1268
42.436 15.0634
42.4839 14.9444
42.5319 14.939
42.5797 14.8585
42.6277 14.8465
42.6755 14.8255
42.7235 14.6777
42.7713 14.6996
42.8193 14.6783
42.8671 14.5953
42.9152 14.552
42.963 14.4834
43.0111 14.352
43.0589 14.4349
43.107 14.3275
43.1549 14.314
43.2029 14.2153
43.2508 14.2413
43.2989 14.1594
43.3468 14.0736
43.3949 14.0533
43.4429 14.0029
43.491 13.9307
43.5389 13.9297
43.5871 13.89
43.635 13.7868
43.6832 13.7604
43.7312 13.6924
43.7793 13.6511
43.8273 13.5929
43.8755 13.5723
43.9237 13.5174
43.9717 13.5012
44.0199 13.4181
44.068 13.4179
44.1162 13.3217
44.1642 13.2515
44.2125 13.2778
44.2606 13.1863
44.3088 13.172
44.3569 13.1098
44.4052 13.1075
44.4533 12.9889
44.5016 12.9237
44.5497 12.901
44.598 12.9364
44.6461 12.8571
44.6945 12.7997
44.7426 12.7555
44.791 12.6758
44.8391 12.6613
44.8875 12.6293
44.9357 12.5995
44.984 12.5305
45.0322 12.4783
45.0806 12.4578
45.1288 12.3858
45.1773 12.3369
45.2257 12.2944
45.2739 12.2645
45.3224 12.2341
45.3706 12.1915
45.4191 12.1272
45.4673 12.0812
45.5158 12.0784
45.5641 11.9926
45.6126 11.9891
45.6609 11.9124
45.7094 11.8701
45.7577 11.8397
45.8063 11.7288
45.8546 11.7249
45.9031 11.7249
45.9515 11.6731
46.0001 11.6316
46.0484 11.6171
46.097 11.5517
46.1454 11.5432
46.194 11.443
46.2424 11.4131
46.291 11.4034
46.3395 11.3323
46.3881 11.2569
46.4365 11.246
46.4852 11.2122
46.5337 11.1974
46.5823 11.1326
46.631 11.0795
46.6795 11.0651
46.7282 11.0492
46.7767 10.9937
46.8254 10.9436
46.8739 10.8843
46.9226 10.8274
46.9712 10.8381
47.0199 10.763
47.0685 10.7209
47.1173 10.6633
47.1658 10.6654
47.2146 10.6169
47.2632 10.5735
47.312 10.5523
47.3606 10.5139
47.4095 10.4914
47.4581 10.4317
47.5069 10.3475
47.5556 10.3311
47.6044 10.2651
47.6531 10.2398
47.702 10.2177
47.7507 10.1816
47.7996 10.1437
47.8483 10.1343
47.8972 10.0614
47.9461 10.0372
47.9948 10.0261
48.0438 9.95618
48.0925 9.92561
48.1415 9.91554
48.1902 9.84956
48.2392 9.83172
48.288 9.79745
48.337 9.75456
48.3858 9.68816
48.4348 9.67945
48.4837 9.65714
48.5327 9.65566
48.5815 9.5719
48.6306 9.53158
48.6795 9.50915
48.7285 9.47833
48.7774 9.45122
48.8265 9.43003
48.8754 9.35778
48.9245 9.34056
48.9734 9.2965
49.0226 9.30317
49.0715 9.23159
49.1206 9.19924
49.1696 9.14694
49.2188 9.10308
49.2679 9.07336
49.3169 8.99898
49.3661 9.01441
49.4151 8.98608
49.4643 8.9568
49.5134 8.93679
49.5626 8.85837
49.6117 8.85407
49.6609 8.80411
49.71 8.77586
49.7592 8.71255
49.8083 8.68414
49.8576 8.68069
49.9067 8.62585
49.956 8.61105
50.0052 8.59397
50.0545 8.55376
50.1036 8.53012
50.153 8.49288
50.2022 8.46311
50.2515 8.40565
50.3007 8.35738
50.3501 8.3669
50.3993 8.32197
50.4487 8.31988
50.498 8.21145
50.5474 8.22364
50.5966 8.18038
50.6461 8.12464
50.6955 8.11981
50.7448 8.12518
50.7943 8.05195
50.8436 8.02721
50.8931 8.02256
50.9424 7.99545
50.9919 7.92492
51.0413 7.91486
51.0908 7.87304
51.1402 7.84889
51.1897 7.78201
51.2391 7.77614
51.2887 7.78357
51.3381 7.69982
51.3877 7.71708
51.4371 7.66576
51.4867 7.62893
51.5362 7.60083
51.5858 7.52376
51.6353 7.52727
51.6849 7.48079
51.7344 7.46595
51.7841 7.44763
51.8336 7.38219
51.8833 7.39995
51.9328 7.33557
51.9826 7.30082
52.0323 7.28559
52.0818 7.25916
52.1316 7.18331
52.1812 7.18718
52.231 7.17037
52.2806 7.11848
52.3304 7.09576
52.38 7.04858
52.4298 7.03815
52.4794 7.02202
52.5293 6.97375
52.5789 6.96734
52.6288 6.91866
52.6785 6.88019
52.7284 6.83734
52.7781 6.88602
52.828 6.82267
52.8777 6.76355
52.9276 6.76163
52.9774 6.73263
53.0273 6.71639
53.0771 6.66446
53.1271 6.66115
53.1769 6.63761
53.2269 6.63682
53.2767 6.54761
53.3267 6.5214
53.3765 6.53396
53.4266 6.47903
53.4766 6.43262
53.5265 6.44591
53.5765 6.40414
53.6264 6.33744
53.6765 6.32875
53.7264 6.30116
53.7765 6.28742
53.8265 6.24923
53.8766 6.21112
53.9266 6.18243
53.9767 6.16324
54.0267 6.1776
54.0769 6.14332
54.1269 6.07077
54.1771 6.10041
54.2271 6.05866
54.2773 5.9643
54.3274 5.95511
54.3776 5.91078
54.4277 5.88816
54.478 5.85988
54.528 5.81517
54.5783 5.84903
54.6285 5.73334
54.6788 5.71659
54.7289 5.66142
54.7792 5.62454
54.8296 5.56909
54.8798 5.53156
54.9301 5.51468
54.9803 5.492
55.0307 5.49625
55.0809 5.40283
55.1314 5.33775
55.1816 5.29141
55.232 5.23962
55.2823 5.24214
55.3328 5.17203
55.383 5.12108
55.4335 5.10876
55.4838 5.00253
55.5344 4.93318
55.5847 4.95779
55.6352 4.96626
55.6856 4.92756
55.7361 4.84016