File: XRD/Ni3Fe_FD0099.xy
TT I
1.27165 8.67367
1.31627 7.67757
1.36089 7.53167
1.40551 8.23813
1.45013 6.80759
1.49476 6.50896
1.53938 6.8599
1.584 6.13331
1.62863 5.96169
1.67325 6.01379
1.71787 5.84223
1.7625 5.35534
1.80712 5.96578
1.85174 5.66131
1.89636 5.82507
1.94099 6.05481
1.98562 5.64693
2.03025 5.49444
2.07487 4.856
2.11949 5.98778
2.16411 4.8087
2.20874 5.03851
2.25338 4.61035
2.298 4.62016
2.34263 4.48005
2.38725 4.84341
2.43188 4.01995
2.4765 4.13958
2.52115 3.81926
2.56577 4.48916
2.6104 4.61486
2.65503 4.20532
2.69965 5.53275
2.7443 5.36595
2.78893 6.23042
2.83356 6.85881
2.87818 6.8297
2.92281 8.05691
2.96744 8.7508
3.01209 10.1085
3.05672 11.2081
3.10135 11.7398
3.14599 12.7995
3.19062 13.8134
3.23527 14.9411
3.2799 15.3482
3.32454 16.6985
3.36917 17.8158
3.4138 18.2504
3.45844 18.5596
3.50309 20.0906
3.54773 20.7721
3.59237 21.4722
3.637 21.8869
3.68164 22.9782
3.7263 23.9214
3.77094 24.7142
3.81558 25.4717
3.86022 26.0541
3.90486 27.1604
3.9495 28.5382
3.99416 29.2109
4.0388 30.0262
4.08344 31.3279
4.12809 32.2979
4.17273 33.6488
4.21738 35.0919
4.26204 36.0477
4.30669 37.4128
4.35133 39.5327
4.39598 40.6193
4.44063 42.5395
4.4853 44.0962
4.52995 46.5886
4.5746 48.6283
4.61925 51.2189
4.6639 53.4213
4.70855 56.4862
4.75322 58.9262
4.79788 62.0526
4.84253 66.1583
4.88719 70.4397
4.93184 76.4526
4.97652 83.8025
5.02118 94.2913
5.06583 106.18
5.11049 125.188
5.15515 172.733
5.19981 679.904
5.24449 3797.57
5.28916 6574.73
5.33382 7174.19
5.37848 695.175
5.42315 192.674
5.46783 139.096
5.5125 119.999
5.55716 112.055
5.60183 104.758
5.6465 101.921
5.69117 100.14
5.73586 97.866
5.78053 98.2612
5.8252 98.3034
5.86988 102.885
5.91455 112.01
5.95924 137.645
6.00392 342.561
6.0486 1445.44
6.09328 2140.71
6.13795 3828.46
6.18263 934.919
6.22733 148.658
6.27201 96.6516
6.3167 81.5473
6.36138 74.315
6.40606 69.3067
6.45075 66.775
6.49545 64.2693
6.54014 61.912
6.58483 60.2373
6.62952 59.3561
6.67421 57.9059
6.71892 57.1434
6.76361 56.0205
6.8083 55.1788
6.853 53.9331
6.89769 53.9298
6.94239 53.7258
6.98711 52.7
7.03181 52.199
7.07651 52.4334
7.12121 51.7415
7.16591 51.5039
7.21063 51.0112
7.25533 51.1382
7.30004 51.5664
7.34475 51.4028
7.38945 51.573
7.43416 51.1827
7.47889 51.442
7.5236 59.4627
7.56831 76.7898
7.61303 59.0531
7.65774 53.0969
7.70247 52.9139
7.74719 53.3878
7.79191 54.0789
7.83663 54.404
7.88135 55.4001
7.92607 56.1498
7.97081 57.2178
8.01553 58.4844
8.06026 59.8117
8.10498 61.0014
8.14971 62.935
8.19446 64.5591
8.23919 67.1368
8.28392 70.2073
8.32865 73.3397
8.37339 78.2157
8.41812 84.2613
8.46288 98.395
8.50761 191.709
8.55235 653.964
8.59709 752.439
8.64183 1148.61
8.68658 1750.56
8.73134 562.31
8.77609 130.317
8.82083 100.803
8.86558 92.4489
8.91033 87.9597
8.9551 85.2698
8.99985 83.3096
9.04461 82.3206
9.08936 81.8625
9.13412 81.1234
9.17888 81.1084
9.22365 92.7746
9.26841 119.389
9.31318 95.4852
9.35794 82.9352
9.4027 81.3118
9.44749 82.1699
9.49226 82.3642
9.53703 83.4507
9.5818 85.1981
9.62657 86.033
9.67134 87.4147
9.71614 89.5907
9.76091 91.492
9.80569 94.8346
9.85047 98.1651
9.89525 104.307
9.94005 116.987
9.98484 202.611
10.0296 594.419
10.0744 667.366
10.1192 765.532
10.164 1456.54
10.2088 1193.68
10.2536 277.386
10.2984 122.564
10.3432 109.816
10.388 105.528
10.4328 125.354
10.4776 228.756
10.5224 243.835
10.5672 259.057
10.612 430.066
10.6568 431.25
10.7017 161.536
10.7465 95.2027
10.7913 83.7367
10.8361 79.8879
10.8809 77.213
10.9257 75.0983
10.9706 73.2482
11.0154 71.7396
11.0602 70.3258
11.105 69.2584
11.1499 67.5217
11.1947 66.7035
11.2395 65.7339
11.2844 65.1975
11.3292 64.3775
11.374 63.4562
11.4189 63.1015
11.4637 62.5302
11.5086 61.5864
11.5534 61.1263
11.5983 61.0729
11.6431 61.1575
11.688 60.5698
11.7328 60.553
11.7777 60.3244
11.8225 60.0132
11.8674 60.4065
11.9122 62.424
11.9571 70.2028
12.002 69.4915
12.0468 69.3732
12.0917 93.2259
12.1366 106.728
12.1814 103.569
12.2263 125.335
12.2712 178.173
12.3161 155.194
12.3609 80.9155
12.4058 64.2715
12.4507 62.8573
12.4956 62.1125
12.5405 62.3502
12.5853 62.5108
12.6302 62.7482
12.6751 63.3818
12.72 64.0816
12.7649 64.9529
12.8098 65.7031
12.8547 66.8137
12.8996 68.4277
12.9445 70.0081
12.9894 71.8956
13.0343 74.1198
13.0792 78.7821
13.1242 87.9535
13.1691 139.689
13.214 193.86
13.2589 182.919
13.3038 196.224
13.3487 287.821
13.3937 389.92
13.4386 254.132
13.4835 131.524
13.5285 162.914
13.5734 183.852
13.6183 166.61
13.6633 190.082
13.7082 285.175
13.7531 329.406
13.7981 184.064
13.843 92.042
13.888 80.2776
13.9329 77.1273
13.9779 75.0836
14.0228 73.4996
14.0678 72.1953
14.1127 72.7896
14.1577 76.8779
14.2027 75.5296
14.2476 70.6665
14.2926 68.8463
14.3376 68.0182
14.3825 67.4881
14.4275 67.076
14.4725 67.2425
14.5175 67.3217
14.5624 67.1453
14.6074 67.3674
14.6524 68.2969
14.6974 68.9291
14.7424 70.5595
14.7874 81.4024
14.8324 110.535
14.8774 119.92
14.9224 113.195
14.9674 123.023
15.0124 162.696
15.0574 207.509
15.1024 159.511
15.1474 88.4343
15.1924 71.7403
15.2374 68.5121
15.2824 67.3832
15.3274 65.9488
15.3725 65.3373
15.4175 65.1882
15.4625 64.6818
15.5076 64.4818
15.5526 64.4524
15.5976 64.7828
15.6426 65.8543
15.6877 74.3297
15.7327 97.8857
15.7778 107.83
15.8228 100.754
15.8679 104.915
15.9129 128.425
15.958 174.345
16.003 168.923
16.0481 101.656
16.0931 69.0093
16.1382 62.1511
16.1833 60.0057
16.2283 58.1119
16.2734 57.0366
16.3185 56.5968
16.3636 55.6821
16.4086 55.1188
16.4537 54.7077
16.4988 54.1753
16.5439 54.0581
16.589 53.7089
16.6341 53.3869
16.6792 53.0517
16.7243 53.2208
16.7694 53.1994
16.8145 53.1253
16.8596 53.294
16.9047 53.8773
16.9498 54.624
16.9949 54.4551
17.04 54.4609
17.0851 55.9765
17.1302 60.6009
17.1754 63.7883
17.2205 63.0478
17.2656 62.8802
17.3108 66.6752
17.3559 73.6653
17.401 81.0532
17.4462 74.4246
17.4913 62.3026
17.5365 58.2279
17.5815 58.0999
17.6268 58.272
17.6718 58.6059
17.7171 59.1509
17.7622 60.5688
17.8074 61.5598
17.8525 63.1587
17.8977 72.2122
17.9428 85.2079
17.9881 87.4493
18.0331 84.2247
18.0784 86.7058
18.1237 99.6897
18.1688 129.336
18.214 148.729
18.2591 121.154
18.3044 87.2433
18.3495 80.0222
18.3948 85.7076
18.4399 98.1663
18.4852 99.1858
18.5303 81.4044
18.5756 66.025
18.6207 61.7697
18.666 60.2244
18.7112 58.9417
18.7565 58.336
18.8016 58.0401
18.8469 57.1984
18.892 57.0176
18.9374 56.1736
18.9825 55.9665
19.0278 55.8612
19.073 55.9624
19.1183 56.6821
19.1635 59.2021
19.2088 61.5152
19.254 60.8232
19.2993 60.6235
19.3447 61.9337
19.3898 64.8761
19.4352 69.9397
19.4804 72.735
19.5257 66.2841
19.5709 57.0577
19.6163 53.7578
19.6615 53.1768
19.7068 52.609
19.752 52.4569
19.7974 52.6958
19.8426 53.9586
19.888 56.4298
19.9332 57.7105
19.9786 56.9587
20.0238 56.7907
20.0692 58.7371
20.1144 63.2319
20.1598 69.4844
20.205 71.2414
20.2504 66.1353
20.2957 59.4009
20.3411 58.347
20.3863 61.4308
20.4318 64.0897
20.477 60.6115
20.5224 53.7684
20.5677 50.6628
20.6131 49.7273
20.6586 48.9697
20.7038 48.8448
20.7493 48.7892
20.7945 48.6819
20.84 48.3869
20.8853 48.2664
20.9307 47.8786
20.976 48.0929
21.0215 48.3043
21.0668 48.6681
21.1122 48.6431
21.1575 48.2531
21.203 48.425
21.2483 48.8062
21.2938 49.9253
21.3391 50.5809
21.3846 50.0742
21.4299 48.8217
21.4754 48.02
21.5207 47.9921
21.5662 48.1026
21.6116 48.6958
21.6571 50.6878
21.7024 52.692
21.7479 53.2127
21.7933 52.6339
21.8388 53.4067
21.8843 55.3051
21.9297 58.4136
21.9752 62.7549
22.0206 65.1306
22.0661 61.469
22.1115 55.9807
22.157 53.9675
22.2024 55.2966
22.248 55.1486
22.2933 52.7745
22.3389 49.9779
22.3843 48.6796
22.4299 48.1711
22.4753 48.1197
22.5208 47.9285
22.5662 47.8904
22.6118 47.9307
22.6572 48.3055
22.7028 49.7067
22.7483 50.9785
22.7939 51.2184
22.8393 50.8953
22.8849 50.8196
22.9303 51.0216
22.9759 52.1831
23.0214 54.4728
23.067 57.235
23.1126 56.8171
23.1581 52.9201
23.2037 49.6844
23.2492 48.6604
23.2948 49.1419
23.3403 50.4338
23.3859 51.3601
23.4314 50.8986
23.477 50.2627
23.5225 50.265
23.5682 51.1544
23.6137 52.6096
23.6593 55.27
23.7048 57.0185
23.7505 54.6349
23.796 49.893
23.8417 46.6136
23.8872 45.4907
23.9329 44.9339
23.9784 44.6261
24.0241 44.3711
24.0697 44.0609
24.1154 43.6522
24.1609 43.462
24.2066 43.2641
24.2522 43.1224
24.2979 42.9371
24.3434 42.8181
24.3892 42.7426
24.4349 42.605
24.4805 42.2722
24.5262 42.3974
24.5718 42.1265
24.6175 42.1215
24.6631 42.4389
24.7089 42.3521
24.7545 42.194
24.8002 41.8068
24.8458 41.821
24.8916 41.8479
24.9372 41.9485
24.983 42.1776
25.0286 42.1825
25.0744 42.662
25.12 42.936
25.1658 43.2299
25.2114 43.2662
25.2572 43.8003
25.3029 43.8612
25.3487 43.8127
25.3943 43.6889
25.4402 44.0007
25.4858 44.3366
25.5316 43.1275
25.5773 41.3882
25.6231 40.7747
25.669 40.2601
25.7147 40.1251
25.7605 40.0956
25.8062 40.3328
25.8521 40.5076
25.8977 40.3289
25.9436 40.2041
25.9893 39.9894
26.0352 40.2553
26.0809 40.0091
26.1268 40.6103
26.1725 40.831
26.2184 41.3945
26.2641 41.0736
26.31 40.5201
26.3557 40.3575
26.4017 40.291
26.4474 40.1635
26.4933 40.1937
26.5391 40.2698
26.585 40.4453
26.6308 40.5861
26.6767 40.8686
26.7225 41.4361
26.7684 41.8443
26.8142 41.6593
26.8601 40.7173
26.9059 40.2304
26.9519 39.8188
26.9979 39.6621
27.0437 39.0594
27.0896 38.5714
27.1354 38.5283
27.1814 38.2516
27.2272 38.4148
27.2732 38.4137
27.3191 38.1154
27.3651 38.1199
27.4109 37.9298
27.4569 37.9145
27.5027 37.8421
27.5488 37.8904
27.5946 37.9603
27.6407 38.0643
27.6865 38.1958
27.7326 38.1529
27.7784 37.9158
27.8245 37.7244
27.8703 37.7295
27.9164 37.8862
27.9623 37.8007
28.0084 37.7992
28.0543 37.9644
28.1003 38.0321
28.1462 38.3828
28.1923 38.8227
28.2384 38.3731
28.2843 37.9434
28.3304 37.4195
28.3764 37.2191
28.4225 36.7768
28.4684 36.406
28.5145 35.7307
28.5605 35.7414
28.6066 35.5559
28.6526 35.392
28.6987 35.3042
28.7447 35.1073
28.7908 34.9572
28.8368 34.9454
28.8829 34.9057
28.9289 34.763
28.9751 34.8361
29.0211 34.8071
29.0673 34.6678
29.1133 34.6284
29.1595 34.249
29.2055 34.118
29.2517 34.0229
29.2977 33.8017
29.3439 33.5694
29.3899 33.5326
29.4361 33.6039
29.4824 33.6461
29.5284 33.5804
29.5746 33.6103
29.6207 33.1075
29.6669 32.8215
29.713 32.6347
29.7593 32.5418
29.8053 32.4533
29.8516 32.4489
29.8977 32.4527
29.9439 32.3345
29.99 32.1842
30.0363 32.0876
30.0824 32.1024
30.1287 32.0682
30.1748 31.933
30.2211 31.9483
30.2673 31.8194
30.3136 32.0061
30.3597 32.0262
30.406 32.1392
30.4522 31.8776
30.4985 31.771
30.5447 31.8034
30.591 31.6552
30.6372 31.6562
30.6835 31.4879
30.7297 31.6439
30.7761 31.7953
30.8224 31.8889
30.8686 31.8266
30.915 31.5657
30.9612 31.4404
31.0076 31.1141
31.0538 31.0024
31.1002 30.9559
31.1464 30.8609
31.1928 30.7372
31.2391 30.6885
31.2855 30.5759
31.3317 30.4708
31.3781 30.5003
31.4244 30.5463
31.4708 30.4216
31.5171 30.3971
31.5636 30.4949
31.6098 30.4848
31.6563 30.3589
31.7026 30.2013
31.7491 30.0168
31.7953 29.8669
31.8418 29.8524
31.8881 29.7779
31.9346 29.8017
31.9809 29.6964
32.0275 29.55
32.074 29.5869
32.1203 29.4652
32.1668 29.4097
32.2132 29.297
32.2597 29.1262
32.306 28.9739
32.3526 28.7359
32.399 28.6655
32.4455 28.563
32.4919 28.4089
32.5385 28.3853
32.5848 28.1639
32.6314 28.2827
32.6778 28.1845
32.7244 28.0111
32.7708 27.921
32.8174 27.9224
32.8638 27.7302
32.9104 27.8426
32.9569 27.7931
33.0035 27.5621
33.0499 27.5538
33.0966 27.4517
33.143 27.4463
33.1897 27.336
33.2361 27.2931
33.2828 27.3531
33.3293 27.1663
33.3759 27.1147
33.4226 27.0836
33.4691 26.9615
33.5158 26.8278
33.5623 26.6892
33.609 26.5206
33.6555 26.4
33.7022 26.2872
33.7487 26.236
33.7954 26.244
33.842 26.0268
33.8887 25.9444
33.9353 25.9642
33.982 25.837
34.0286 25.9666
34.0753 25.8407
34.1219 25.5928
34.1687 25.5498
34.2152 25.4623
34.262 25.3366
34.3086 25.2327
34.3554 25.223
34.402 25.0709
34.4488 25.0515
34.4954 25.0831
34.5422 24.9842
34.5889 24.8828
34.6357 24.699
34.6825 24.6128
34.7292 24.5397
34.776 24.4743
34.8227 24.4056
34.8695 24.3166
34.9162 24.304
34.9631 24.1526
35.0098 24.231
35.0566 24.0232
35.1033 23.9906
35.1502 24.0145
35.1969 23.9087
35.2438 23.8994
35.2906 23.7748
35.3375 23.6869
35.3842 23.6403
35.4311 23.6944
35.4779 23.5886
35.5248 23.6133
35.5716 23.538
35.6185 23.4964
35.6653 23.3519
35.7123 23.3639
35.759 23.1736
35.806 23.102
35.8528 22.948
35.8998 22.9158
35.9468 22.8719
35.9936 22.8016
36.0406 22.8022
36.0874 22.7255
36.1345 22.648
36.1813 22.5698
36.2283 22.44
36.2752 22.4401
36.3222 22.4692
36.3691 22.3127
36.4161 22.171
36.463 22.197
36.5101 22.0972
36.557 22.1209
36.6041 21.9498
36.651 21.9641
36.6981 21.9061
36.745 21.7839
36.7921 21.7967
36.839 21.6967
36.8861 21.6236
36.9331 21.5026
36.9802 21.3711
37.0272 21.381
37.0743 21.2277
37.1213 21.1895
37.1684 21.153
37.2154 21.116
37.2626 21.0139
37.3098 20.9352
37.3568 20.9344
37.404 20.8878
37.451 20.7315
37.4982 20.7403
37.5452 20.6002
37.5924 20.541
37.6395 20.5909
37.6867 20.4586
37.7337 20.3782
37.781 20.3122
37.8281 20.2115
37.8753 20.2027
37.9224 20.1063
37.9697 20.1158
38.0168 19.9825
38.064 19.9385
38.1111 19.8223
38.1584 19.7447
38.2056 19.7269
38.2529 19.6898
38.3 19.6061
38.3473 19.5521
38.3945 19.4589
38.4418 19.4605
38.489 19.3473
38.5363 19.2853
38.5837 19.1953
38.6309 19.1852
38.6782 19.0683
38.7254 19.088
38.7728 18.9864
38.82 18.9214
38.8674 18.9534
38.9146 18.8774
38.9621 18.7764
39.0093 18.759
39.0567 18.6206
39.104 18.5764
39.1514 18.5271
39.1987 18.4146
39.2461 18.4244
39.2934 18.3486
39.3409 18.2674
39.3882 18.2215
39.4356 18.1929
39.483 18.1733
39.5304 18.0448
39.5778 17.9858
39.6253 17.9213
39.6726 17.8554
39.7201 17.8626
39.7675 17.8401
39.815 17.7087
39.8624 17.6558
39.9099 17.6699
39.9575 17.511
40.0049 17.4524
40.0525 17.4693
40.0999 17.4172
40.1474 17.3551
40.1949 17.2646
40.2425 17.1756
40.2899 17.2226
40.3375 17.0978
40.385 17.0709
40.4326 17.0041
40.48 16.9755
40.5277 16.9475
40.5752 16.8325
40.6228 16.7823
40.6703 16.7299
40.718 16.7095
40.7655 16.6459
40.8132 16.5955
40.8607 16.5325
40.9084 16.5085
40.9559 16.4105
41.0036 16.4344
41.0512 16.36
41.0989 16.3023
41.1465 16.2578
41.1942 16.171
41.242 16.1048
41.2896 16.0288
41.3373 15.9363
41.3849 15.958
41.4327 15.871
41.4803 15.8335
41.5281 15.7724
41.5758 15.7928
41.6236 15.6855
41.6712 15.6323
41.7191 15.5851
41.7667 15.5087
41.8146 15.4806
41.8622 15.4203
41.9101 15.4119
41.9578 15.3182
42.0057 15.2881
42.0534 15.1676
42.1013 15.1603
42.149 15.1164
42.1969 15.0606
42.2446 15.0126
42.2925 14.9542
42.3403 14.9628
42.3882 14.8401
42.436 14.8187
42.4839 14.7127
42.5319 14.6978
42.5797 14.6434
42.6277 14.5964
42.6755 14.5396
42.7235 14.5369
42.7713 14.4598
42.8193 14.3997
42.8671 14.3689
42.9152 14.3468
42.963 14.2596
43.0111 14.2271
43.0589 14.1832
43.107 14.1238
43.1549 14.1064
43.2029 13.9946
43.2508 13.9493
43.2989 13.9156
43.3468 13.8563
43.3949 13.8246
43.4429 13.7447
43.491 13.745
43.5389 13.6232
43.5871 13.6104
43.635 13.5931
43.6832 13.5313
43.7312 13.4773
43.7793 13.4419
43.8273 13.3888
43.8755 13.308
43.9237 13.2739
43.9717 13.2878
44.0199 13.2267
44.068 13.1581
44.1162 13.1323
44.1642 13.0964
44.2125 13.0562
44.2606 13.0304
44.3088 12.951
44.3569 12.887
44.4052 12.8729
44.4533 12.8
44.5016 12.7526
44.5497 12.7419
44.598 12.7303
44.6461 12.6368
44.6945 12.573
44.7426 12.5815
44.791 12.4454
44.8391 12.4576
44.8875 12.4335
44.9357 12.3614
44.984 12.3143
45.0322 12.2734
45.0806 12.2185
45.1288 12.1771
45.1773 12.1459
45.2257 12.0982
45.2739 12.0479
45.3224 12.0111
45.3706 11.9494
45.4191 11.898
45.4673 11.9308
45.5158 11.8168
45.5641 11.8213
45.6126 11.7294
45.6609 11.7315
45.7094 11.6503
45.7577 11.6072
45.8063 11.5789
45.8546 11.5811
45.9031 11.5244
45.9515 11.4612
46.0001 11.4816
46.0484 11.3827
46.097 11.376
46.1454 11.369
46.194 11.252
46.2424 11.2473
46.291 11.1975
46.3395 11.1415
46.3881 11.1047
46.4365 11.1181
46.4852 11.0111
46.5337 11.0185
46.5823 10.9756
46.631 10.8768
46.6795 10.8632
46.7282 10.8233
46.7767 10.7762
46.8254 10.6968
46.8739 10.7078
46.9226 10.6964
46.9712 10.6185
47.0199 10.5911
47.0685 10.5664
47.1173 10.5053
47.1658 10.4648
47.2146 10.433
47.2632 10.4037
47.312 10.3335
47.3606 10.3167
47.4095 10.285
47.4581 10.2402
47.5069 10.2212
47.5556 10.173
47.6044 10.1322
47.6531 10.0453
47.702 10.051
47.7507 10.0517
47.7996 9.94971
47.8483 9.92017
47.8972 9.89428
47.9461 9.89058
47.9948 9.8477
48.0438 9.80173
48.0925 9.77802
48.1415 9.76585
48.1902 9.72094
48.2392 9.68098
48.288 9.62678
48.337 9.64288
48.3858 9.53217
48.4348 9.52725
48.4837 9.4877
48.5327 9.50402
48.5815 9.46113
48.6306 9.37248
48.6795 9.36138
48.7285 9.30702
48.7774 9.28238
48.8265 9.29614
48.8754 9.20929
48.9245 9.19719
48.9734 9.16494
49.0226 9.15637
49.0715 9.06808
49.1206 9.05982
49.1696 8.99729
49.2188 8.99738
49.2679 8.98088
49.3169 8.92922
49.3661 8.89335
49.4151 8.83837
49.4643 8.78162
49.5134 8.7892
49.5626 8.69931
49.6117 8.70787
49.6609 8.72996
49.71 8.61469
49.7592 8.59432
49.8083 8.52833
49.8576 8.51376
49.9067 8.50977
49.956 8.50591
50.0052 8.47636
50.0545 8.41753
50.1036 8.38527
50.153 8.32281
50.2022 8.32796
50.2515 8.30809
50.3007 8.25599
50.3501 8.21446
50.3993 8.2188
50.4487 8.17849
50.498 8.13908
50.5474 8.09533
50.5966 8.05615
50.6461 8.02901
50.6955 8.01881
50.7448 8.01264
50.7943 7.97087
50.8436 7.90485
50.8931 7.88075
50.9424 7.86607
50.9919 7.86039
51.0413 7.80685
51.0908 7.78549
51.1402 7.77211
51.1897 7.70298
51.2391 7.69528
51.2887 7.60977
51.3381 7.59489
51.3877 7.58874
51.4371 7.51688
51.4867 7.51432
51.5362 7.48706
51.5858 7.46191
51.6353 7.40734
51.6849 7.43411
51.7344 7.35256
51.7841 7.33082
51.8336 7.30451
51.8833 7.26749
51.9328 7.24585
51.9826 7.22115
52.0323 7.19685
52.0818 7.1649
52.1316 7.08186
52.1812 7.1157
52.231 7.05192
52.2806 7.05
52.3304 7.02456
52.38 6.98283
52.4298 6.96434
52.4794 6.88451
52.5293 6.86794
52.5789 6.85537
52.6288 6.86816
52.6785 6.81134
52.7284 6.79433
52.7781 6.76531
52.828 6.70894
52.8777 6.6926
52.9276 6.64556
52.9774 6.66829
53.0273 6.61901
53.0771 6.60135
53.1271 6.56843
53.1769 6.54738
53.2269 6.47107
53.2767 6.46325
53.3267 6.41286
53.3765 6.41002
53.4266 6.40481
53.4766 6.37305
53.5265 6.31588
53.5765 6.33254
53.6264 6.29329
53.6765 6.23834
53.7264 6.18175
53.7765 6.17291
53.8265 6.16241
53.8766 6.17928
53.9266 6.13209
53.9767 6.0311
54.0267 6.05414
54.0769 6.01094
54.1269 5.97511
54.1771 5.94293
54.2271 5.94771
54.2773 5.8723
54.3274 5.87127
54.3776 5.81053
54.4277 5.75377
54.478 5.72266
54.528 5.69159
54.5783 5.64069
54.6285 5.58147
54.6788 5.57187
54.7289 5.47901
54.7792 5.44586
54.8296 5.3979
54.8798 5.3482
54.9301 5.33165
54.9803 5.23946
55.0307 5.32649
55.0809 5.22765
55.1314 5.1853
55.1816 5.12596
55.232 5.04927
55.2823 5.0527
55.3328 4.97186
55.383 4.8708
55.4335 4.88018
55.4838 4.83176
55.5344 4.79847
55.5847 4.79939
55.6352 4.73667
55.6856 4.68774
55.7361 4.66941