File: XRD/Ni3Fe_FD0448.xy
TT I
1.27165 7.46509
1.31627 6.57467
1.36089 7.08604
1.40551 6.44244
1.45013 6.12523
1.49476 6.0652
1.53938 5.86029
1.584 5.61397
1.62863 5.57801
1.67325 5.46959
1.71787 5.42226
1.7625 4.92726
1.80712 5.00478
1.85174 4.58832
1.89636 4.84178
1.94099 5.3876
1.98562 4.4916
2.03025 4.2766
2.07487 4.40659
2.11949 5.39285
2.16411 5.12113
2.20874 11.3419
2.25338 16.8158
2.298 5.66702
2.34263 4.82939
2.38725 5.30553
2.43188 5.98201
2.4765 6.15755
2.52115 5.4222
2.56577 7.35935
2.6104 7.43753
2.65503 7.3764
2.69965 6.65937
2.7443 7.34376
2.78893 7.81246
2.83356 7.93211
2.87818 8.46081
2.92281 8.79534
2.96744 9.68449
3.01209 10.3347
3.05672 11.2881
3.10135 11.9071
3.14599 12.8618
3.19062 13.5958
3.23527 14.7788
3.2799 15.7087
3.32454 16.9604
3.36917 18.1253
3.4138 18.9358
3.45844 19.7966
3.50309 21.0209
3.54773 21.4784
3.59237 23.6137
3.637 69.5698
3.68164 46.2286
3.7263 25.6509
3.77094 25.8942
3.81558 26.9862
3.86022 27.6371
3.90486 28.7982
3.9495 30.0004
3.99416 30.6521
4.0388 32.264
4.08344 33.9069
4.12809 34.8161
4.17273 37.0816
4.21738 41.756
4.26204 180.494
4.30669 152.52
4.35133 46.5424
4.39598 44.7591
4.44063 51.8584
4.4853 59.4446
4.52995 51.7702
4.5746 52.0436
4.61925 54.1026
4.6639 56.5694
4.70855 59.332
4.75322 62.1104
4.79788 65.0808
4.84253 68.7376
4.88719 73.1778
4.93184 77.2585
4.97652 82.9531
5.02118 89.7471
5.06583 98.3784
5.11049 111.792
5.15515 172.558
5.19981 496.416
5.24449 3386.65
5.28916 11760.7
5.33382 2993.96
5.37848 202.364
5.42315 134.314
5.46783 117.479
5.5125 108.928
5.55716 104.715
5.60183 100.478
5.6465 98.8282
5.69117 96.6181
5.73586 94.3014
5.78053 94.3517
5.8252 94.3527
5.86988 96.0985
5.91455 98.6236
5.95924 111.072
6.00392 275.152
6.0486 1176.09
6.09328 4314.68
6.13795 3336.58
6.18263 274.501
6.22733 96.754
6.27201 84.418
6.3167 94.6984
6.36138 78.9622
6.40606 70.058
6.45075 68.4607
6.49545 66.6081
6.54014 64.6795
6.58483 63.4507
6.62952 63.29
6.67421 83.6877
6.71892 115.651
6.76361 66.1056
6.8083 58.868
6.853 57.8868
6.89769 57.1597
6.94239 56.7632
6.98711 56.591
7.03181 56.0565
7.07651 55.851
7.12121 55.7442
7.16591 55.8609
7.21063 55.7126
7.25533 65.8761
7.30004 135.856
7.34475 79.0689
7.38945 56.4938
7.43416 55.0925
7.47889 54.9354
7.5236 55.1046
7.56831 55.7645
7.61303 57.2797
7.65774 57.415
7.70247 56.9918
7.74719 56.8164
7.79191 57.2895
7.83663 57.1606
7.88135 58.6662
7.92607 59.4988
7.97081 60.5937
8.01553 61.8347
8.06026 63.2574
8.10498 64.8214
8.14971 72.2228
8.19446 72.0928
8.23919 70.5398
8.28392 73.3136
8.32865 75.7114
8.37339 80.1104
8.41812 87.3586
8.46288 112.604
8.50761 200.846
8.55235 459.051
8.59709 1238.53
8.64183 2139.86
8.68658 1005.11
8.73134 169.904
8.77609 102.043
8.82083 94.68
8.86558 91.4133
8.91033 90.5377
8.9551 90.938
8.99985 86.6221
9.04461 85.1771
9.08936 84.2729
9.13412 83.5295
9.17888 83.5581
9.22365 83.8072
9.26841 83.7874
9.31318 84.361
9.35794 84.3919
9.4027 84.7714
9.44749 85.541
9.49226 86.1287
9.53703 86.8089
9.5818 89.0555
9.62657 92.9405
9.67134 97.5074
9.71614 94.8189
9.76091 96.2242
9.80569 98.8213
9.85047 102.353
9.89525 120.145
9.94005 136.311
9.98484 213.272
10.0296 403.662
10.0744 869.05
10.1192 1705.78
10.164 1625.95
10.2088 417.758
10.2536 130.228
10.2984 114.259
10.3432 113.225
10.388 107.389
10.4328 129.515
10.4776 177.432
10.5224 296.567
10.5672 502.703
10.612 504.17
10.6568 205.165
10.7017 98.0036
10.7465 88.1207
10.7913 84.5999
10.8361 82.2304
10.8809 80.0032
10.9257 79.3106
10.9706 79.1444
11.0154 75.6724
11.0602 73.7516
11.105 72.8686
11.1499 75.1549
11.1947 79.521
11.2395 73.4544
11.2844 70.5385
11.3292 67.9336
11.374 67.2637
11.4189 66.5379
11.4637 65.8665
11.5086 66.1059
11.5534 67.7336
11.5983 65.7659
11.6431 64.7515
11.688 64.0656
11.7328 63.8601
11.7777 63.7078
11.8225 63.3713
11.8674 63.3111
11.9122 64.0367
11.9571 64.1027
12.002 65.2083
12.0468 71.4529
12.0917 83.8556
12.1366 108.866
12.1814 155.285
12.2263 203.418
12.2712 171.969
12.3161 94.4384
12.3609 70.0229
12.4058 65.6925
12.4507 65.2751
12.4956 65.3619
12.5405 65.4979
12.5853 66.3823
12.6302 71.4959
12.6751 75.7459
12.72 70.1057
12.7649 69.009
12.8098 69.6274
12.8547 70.5899
12.8996 72.309
12.9445 73.8149
12.9894 75.8027
13.0343 77.6992
13.0792 81.2469
13.1242 95.1968
13.1691 121.92
13.214 161.563
13.2589 248.077
13.3038 363.474
13.3487 419.756
13.3937 266.044
13.4386 125.819
13.4835 113.091
13.5285 130.279
13.5734 169.639
13.6183 251.077
13.6633 338.76
13.7082 339.724
13.7531 189.366
13.7981 98.1872
13.843 83.3661
13.888 81.0503
13.9329 78.6437
13.9779 77.1175
14.0228 75.6207
14.0678 74.3005
14.1127 73.6573
14.1577 73.4951
14.2027 72.7559
14.2476 71.5646
14.2926 71.5527
14.3376 72.1517
14.3825 71.3355
14.4275 70.0416
14.4725 69.7803
14.5175 70.1652
14.5624 70.4813
14.6074 71.9091
14.6524 72.2963
14.6974 71.7368
14.7424 74.7577
14.7874 83.5028
14.8324 94.7836
14.8774 117.362
14.9224 157.035
14.9674 203.322
15.0124 217.741
15.0574 149.896
15.1024 90.9522
15.1474 73.1788
15.1924 71.4924
15.2374 71.4802
15.2824 70.7266
15.3274 69.104
15.3725 67.9131
15.4175 67.3374
15.4625 67.2525
15.5076 67.3423
15.5526 67.2999
15.5976 67.1982
15.6426 69.5302
15.6877 76.2712
15.7327 84.6919
15.7778 100.765
15.8228 130.206
15.8679 167.729
15.9129 190.158
15.958 156.582
16.003 97.0988
16.0481 68.9342
16.0931 64.9008
16.1382 63.1138
16.1833 61.4147
16.2283 59.7513
16.2734 59.0163
16.3185 59.3075
16.3636 59.626
16.4086 58.2461
16.4537 57.0425
16.4988 56.4259
16.5439 56.3971
16.589 56.0107
16.6341 55.864
16.6792 55.4746
16.7243 55.8465
16.7694 55.8061
16.8145 55.8727
16.8596 55.913
16.9047 57.2206
16.9498 57.3193
16.9949 56.6402
17.04 56.9814
17.0851 58.539
17.1302 60.4427
17.1754 63.5667
17.2205 68.5366
17.2656 75.1436
17.3108 82.5662
17.3559 82.6743
17.401 71.9014
17.4462 62.9955
17.4913 60.1852
17.5365 60.2721
17.5815 60.2411
17.6268 60.5557
17.6718 61.4056
17.7171 61.7704
17.7622 62.3681
17.8074 63.4581
17.8525 66.7932
17.8977 71.1082
17.9428 76.9993
17.9881 86.3177
18.0331 102.415
18.0784 121.002
18.1237 138.835
18.1688 132.697
18.214 105.77
18.2591 88.6835
18.3044 91.9272
18.3495 100.123
18.3948 106.71
18.4399 97.3632
18.4852 78.031
18.5303 66.8856
18.5756 63.3151
18.6207 62.4316
18.666 61.5147
18.7112 60.788
18.7565 59.9424
18.8016 59.6307
18.8469 59.1197
18.892 58.6993
18.9374 58.2484
18.9825 57.8788
19.0278 57.965
19.073 58.0004
19.1183 58.443
19.1635 59.4129
19.2088 61.0952
19.254 63.6699
19.2993 67.6332
19.3447 72.8894
19.3898 77.1036
19.4352 73.3428
19.4804 64.1395
19.5257 57.4157
19.5709 54.9858
19.6163 54.7929
19.6615 54.4947
19.7068 54.3266
19.752 54.338
19.7974 54.7056
19.8426 55.733
19.888 56.4035
19.9332 57.6314
19.9786 60.302
20.0238 63.6025
20.0692 67.8405
20.1144 70.8531
20.1598 69.3661
20.205 64.7525
20.2504 63.0907
20.2957 64.531
20.3411 66.277
20.3863 64.7565
20.4318 59.0329
20.477 54.2963
20.5224 52.3417
20.5677 51.6645
20.6131 51.0051
20.6586 50.4859
20.7038 50.418
20.7493 49.9404
20.7945 49.9554
20.84 49.6095
20.8853 49.4696
20.9307 49.448
20.976 49.605
21.0215 49.4486
21.0668 49.9092
21.1122 50.4071
21.1575 50.9518
21.203 51.632
21.2483 52.1842
21.2938 52.2119
21.3391 50.8025
21.3846 49.8684
21.4299 49.3328
21.4754 49.2854
21.5207 49.4844
21.5662 49.861
21.6116 50.3537
21.6571 51.0651
21.7024 52.151
21.7479 54.0231
21.7933 56.5775
21.8388 59.8448
21.8843 63.4688
21.9297 65.2313
21.9752 64.4449
22.0206 60.5951
22.0661 57.3809
22.1115 56.5726
22.157 56.6952
22.2024 55.2505
22.248 52.4194
22.2933 50.7273
22.3389 49.9307
22.3843 49.7958
22.4299 49.6312
22.4753 49.5504
22.5208 49.3767
22.5662 49.3123
22.6118 49.5256
22.6572 49.8313
22.7028 50.3985
22.7483 51.0101
22.7939 51.7369
22.8393 53.1185
22.8849 55.0091
22.9303 56.6618
22.9759 58.3512
23.0214 58.0768
23.067 55.3261
23.1126 51.9809
23.1581 49.8827
23.2037 49.7981
23.2492 49.9545
23.2948 49.752
23.3403 50.3023
23.3859 50.6927
23.4314 52.0753
23.477 53.7149
23.5225 55.3283
23.5682 57.4409
23.6137 58.6136
23.6593 56.5447
23.7048 52.7645
23.7505 49.1043
23.796 47.4205
23.8417 46.7492
23.8872 46.3217
23.9329 46.0284
23.9784 45.7383
24.0241 45.3435
24.0697 45.2782
24.1154 44.9613
24.1609 44.5848
24.2066 44.4719
24.2522 44.469
24.2979 44.2121
24.3434 44.0808
24.3892 44.0357
24.4349 43.9224
24.4805 43.5993
24.5262 43.7333
24.5718 43.6112
24.6175 43.7576
24.6631 43.5367
24.7089 43.2663
24.7545 43.1189
24.8002 43.0484
24.8458 43.1559
24.8916 42.7231
24.9372 43.0368
24.983 43.2743
25.0286 43.5856
25.0744 44.0571
25.12 44.3783
25.1658 45.0678
25.2114 45.513
25.2572 45.603
25.3029 45.5791
25.3487 45.563
25.3943 45.2569
25.4402 44.2311
25.4858 43.1141
25.5316 42.1555
25.5773 41.5997
25.6231 41.5239
25.669 41.1905
25.7147 41.232
25.7605 41.1636
25.8062 41.1154
25.8521 41.3607
25.8977 41.4372
25.9436 41.4977
25.9893 41.5895
26.0352 42.0257
26.0809 42.2379
26.1268 42.4065
26.1725 42.1859
26.2184 41.6367
26.2641 40.9896
26.31 40.8775
26.3557 40.8165
26.4017 40.8912
26.4474 41.1551
26.4933 41.5109
26.5391 41.9354
26.585 42.3012
26.6308 42.7047
26.6767 42.8168
26.7225 42.6318
26.7684 42.0462
26.8142 41.5087
26.8601 41.0705
26.9059 40.8213
26.9519 40.2944
26.9979 39.9478
27.0437 39.4492
27.0896 39.4115
27.1354 39.4147
27.1814 39.224
27.2272 39.2101
27.2732 39.2764
27.3191 38.9867
27.3651 39.0603
27.4109 39.0723
27.4569 39.2465
27.5027 39.2642
27.5488 39.2535
27.5946 38.921
27.6407 38.8133
27.6865 38.854
27.7326 38.5514
27.7784 38.5451
27.8245 38.5274
27.8703 38.8141
27.9164 38.9566
27.9623 39.0781
28.0084 39.3187
28.0543 39.78
28.1003 39.6763
28.1462 39.4781
28.1923 39.0399
28.2384 38.5023
28.2843 38.2299
28.3304 37.7353
28.3764 37.4602
28.4225 36.9085
28.4684 36.8295
28.5145 36.541
28.5605 36.4139
28.6066 36.286
28.6526 36.1276
28.6987 36.2473
28.7447 36.1116
28.7908 35.9985
28.8368 36.0518
28.8829 35.9882
28.9289 35.8805
28.9751 35.7165
29.0211 35.4864
29.0673 35.2958
29.1133 35.0923
29.1595 34.9672
29.2055 34.9423
29.2517 34.9439
29.2977 34.8675
29.3439 34.8027
29.3899 34.7611
29.4361 34.6489
29.4824 34.4139
29.5284 34.2734
29.5746 33.8457
29.6207 33.6729
29.6669 33.6539
29.713 33.497
29.7593 33.398
29.8053 33.5067
29.8516 33.3312
29.8977 33.1916
29.9439 33.1768
29.99 33.3511
30.0363 32.9467
30.0824 33.0618
30.1287 32.9435
30.1748 33.0038
30.2211 32.9747
30.2673 32.8761
30.3136 32.9144
30.3597 32.8121
30.406 32.7241
30.4522 32.6822
30.4985 32.4869
30.5447 32.6344
30.591 32.7491
30.6372 32.8921
30.6835 32.7506
30.7297 32.7097
30.7761 32.7316
30.8224 32.4667
30.8686 32.261
30.915 32.2109
30.9612 32.0681
31.0076 31.8664
31.0538 31.6369
31.1002 31.6141
31.1464 31.4681
31.1928 31.4222
31.2391 31.4012
31.2855 31.5283
31.3317 31.297
31.3781 31.3938
31.4244 31.3732
31.4708 31.3275
31.5171 31.3271
31.5636 31.2299
31.6098 31.0216
31.6563 30.8451
31.7026 30.7035
31.7491 30.6869
31.7953 30.6604
31.8418 30.617
31.8881 30.6765
31.9346 30.5533
31.9809 30.4898
32.0275 30.4289
32.074 30.2873
32.1203 30.193
32.1668 30.0482
32.2132 29.9246
32.2597 29.7362
32.306 29.5853
32.3526 29.4521
32.399 29.4407
32.4455 29.1922
32.4919 29.2259
32.5385 29.1104
32.5848 28.9166
32.6314 28.89
32.6778 28.9181
32.7244 28.8258
32.7708 28.5926
32.8174 28.6318
32.8638 28.474
32.9104 28.5907
32.9569 28.4272
33.0035 28.2479
33.0499 28.3719
33.0966 28.1923
33.143 28.2692
33.1897 28.2397
33.2361 28.0798
33.2828 28.0018
33.3293 27.8959
33.3759 27.7719
33.4226 27.5999
33.4691 27.5547
33.5158 27.5322
33.5623 27.4184
33.609 27.2347
33.6555 27.1649
33.7022 27.0803
33.7487 26.9434
33.7954 26.9905
33.842 26.8313
33.8887 26.6832
33.9353 26.7483
33.982 26.6487
34.0286 26.4977
34.0753 26.4918
34.1219 26.3204
34.1687 26.2854
34.2152 26.2169
34.262 26.0791
34.3086 26.0228
34.3554 25.9418
34.402 25.8102
34.4488 25.631
34.4954 25.5966
34.5422 25.5656
34.5889 25.5509
34.6357 25.3468
34.6825 25.3102
34.7292 25.3053
34.776 25.1195
34.8227 25.168
34.8695 25.0602
34.9162 25.0351
34.9631 24.8699
35.0098 24.8958
35.0566 24.6984
35.1033 24.6966
35.1502 24.6531
35.1969 24.5777
35.2438 24.5499
35.2906 24.5102
35.3375 24.4278
35.3842 24.3347
35.4311 24.3317
35.4779 24.3837
35.5248 24.2938
35.5716 24.149
35.6185 24.0803
35.6653 24.0236
35.7123 23.9339
35.759 23.8732
35.806 23.6727
35.8528 23.6065
35.8998 23.6201
35.9468 23.5506
35.9936 23.4285
36.0406 23.3336
36.0874 23.3796
36.1345 23.2727
36.1813 23.1668
36.2283 23.1812
36.2752 23.0503
36.3222 23.0001
36.3691 22.9512
36.4161 22.8308
36.463 22.8396
36.5101 22.7874
36.557 22.7635
36.6041 22.4871
36.651 22.5404
36.6981 22.516
36.745 22.3905
36.7921 22.3924
36.839 22.1841
36.8861 22.1321
36.9331 22.1104
36.9802 22.0006
37.0272 21.9235
37.0743 21.8358
37.1213 21.7501
37.1684 21.7119
37.2154 21.6737
37.2626 21.633
37.3098 21.5687
37.3568 21.5377
37.404 21.4923
37.451 21.3713
37.4982 21.2758
37.5452 21.1268
37.5924 21.108
37.6395 21.1769
37.6867 21.0906
37.7337 20.9806
37.781 20.8976
37.8281 20.7865
37.8753 20.6746
37.9224 20.6683
37.9697 20.5634
38.0168 20.4962
38.064 20.5197
38.1111 20.4411
38.1584 20.3306
38.2056 20.2755
38.2529 20.241
38.3 20.1747
38.3473 20.1627
38.3945 19.9959
38.4418 20.0017
38.489 19.8857
38.5363 19.8204
38.5837 19.7429
38.6309 19.7044
38.6782 19.6534
38.7254 19.5763
38.7728 19.5278
38.82 19.4569
38.8674 19.3783
38.9146 19.3748
38.9621 19.2458
39.0093 19.1646
39.0567 19.1416
39.104 19.0665
39.1514 19.0327
39.1987 19.0168
39.2461 18.9301
39.2934 18.8489
39.3409 18.7473
39.3882 18.7117
39.4356 18.6904
39.483 18.6485
39.5304 18.499
39.5778 18.5312
39.6253 18.4184
39.6726 18.4337
39.7201 18.3553
39.7675 18.2989
39.815 18.1886
39.8624 18.1249
39.9099 18.1016
39.9575 18.0607
40.0049 18.0457
40.0525 17.947
40.0999 17.8644
40.1474 17.8437
40.1949 17.6847
40.2425 17.6435
40.2899 17.681
40.3375 17.5567
40.385 17.5433
40.4326 17.4235
40.48 17.4334
40.5277 17.3732
40.5752 17.3406
40.6228 17.2154
40.6703 17.2118
40.718 17.1895
40.7655 17.1381
40.8132 16.9805
40.8607 17.0088
40.9084 16.9088
40.9559 16.8979
41.0036 16.8093
41.0512 16.7834
41.0989 16.7123
41.1465 16.6122
41.1942 16.6376
41.242 16.5111
41.2896 16.485
41.3373 16.409
41.3849 16.3495
41.4327 16.3583
41.4803 16.2943
41.5281 16.2403
41.5758 16.1151
41.6236 16.0881
41.6712 16.0176
41.7191 16.0071
41.7667 15.9329
41.8146 15.8857
41.8622 15.841
41.9101 15.7455
41.9578 15.742
42.0057 15.6485
42.0534 15.5871
42.1013 15.6069
42.149 15.4669
42.1969 15.463
42.2446 15.4738
42.2925 15.3896
42.3403 15.3526
42.3882 15.3188
42.436 15.2519
42.4839 15.1488
42.5319 15.0898
42.5797 15.1413
42.6277 15.0263
42.6755 14.9623
42.7235 14.873
42.7713 14.8284
42.8193 14.805
42.8671 14.7563
42.9152 14.7551
42.963 14.6309
43.0111 14.5934
43.0589 14.5498
43.107 14.509
43.1549 14.4412
43.2029 14.3829
43.2508 14.3838
43.2989 14.2898
43.3468 14.2445
43.3949 14.1898
43.4429 14.1415
43.491 14.1295
43.5389 14.0686
43.5871 14.0397
43.635 13.9394
43.6832 13.9112
43.7312 13.8366
43.7793 13.8268
43.8273 13.7555
43.8755 13.7531
43.9237 13.6824
43.9717 13.661
44.0199 13.5678
44.068 13.5476
44.1162 13.51
44.1642 13.4438
44.2125 13.3861
44.2606 13.3232
44.3088 13.306
44.3569 13.2212
44.4052 13.2354
44.4533 13.1465
44.5016 13.089
44.5497 13.0921
44.598 13.0576
44.6461 12.9921
44.6945 12.912
44.7426 12.8889
44.791 12.8556
44.8391 12.7908
44.8875 12.7106
44.9357 12.7057
44.984 12.6311
45.0322 12.5748
45.0806 12.538
45.1288 12.5394
45.1773 12.5027
45.2257 12.4682
45.2739 12.4476
45.3224 12.3382
45.3706 12.3023
45.4191 12.2826
45.4673 12.2231
45.5158 12.1537
45.5641 12.093
45.6126 12.1096
45.6609 12.0366
45.7094 11.9782
45.7577 11.9643
45.8063 11.8964
45.8546 11.8711
45.9031 11.819
45.9515 11.7943
46.0001 11.7212
46.0484 11.7141
46.097 11.6478
46.1454 11.6307
46.194 11.5879
46.2424 11.5331
46.291 11.4948
46.3395 11.4573
46.3881 11.4132
46.4365 11.3441
46.4852 11.3621
46.5337 11.281
46.5823 11.2747
46.631 11.1883
46.6795 11.2155
46.7282 11.1371
46.7767 11.0708
46.8254 10.9921
46.8739 10.9909
46.9226 10.9626
46.9712 10.9056
47.0199 10.8603
47.0685 10.8358
47.1173 10.7937
47.1658 10.7805
47.2146 10.6998
47.2632 10.6527
47.312 10.6192
47.3606 10.5827
47.4095 10.5403
47.4581 10.4953
47.5069 10.4638
47.5556 10.4577
47.6044 10.3874
47.6531 10.3977
47.702 10.2993
47.7507 10.2738
47.7996 10.2301
47.8483 10.2063
47.8972 10.1672
47.9461 10.1643
47.9948 10.0834
48.0438 10.0851
48.0925 10.0202
48.1415 10.0023
48.1902 9.90435
48.2392 9.9496
48.288 9.88949
48.337 9.88749
48.3858 9.8044
48.4348 9.81448
48.4837 9.78071
48.5327 9.72252
48.5815 9.6927
48.6306 9.62889
48.6795 9.58521
48.7285 9.54724
48.7774 9.53203
48.8265 9.49185
48.8754 9.44757
48.9245 9.42233
48.9734 9.40838
49.0226 9.40743
49.0715 9.35257
49.1206 9.2587
49.1696 9.27573
49.2188 9.24938
49.2679 9.18977
49.3169 9.13552
49.3661 9.06822
49.4151 9.07312
49.4643 9.06208
49.5134 9.00949
49.5626 8.9543
49.6117 8.95904
49.6609 8.89091
49.71 8.86474
49.7592 8.82755
49.8083 8.79118
49.8576 8.76983
49.9067 8.73384
49.956 8.66251
50.0052 8.64948
50.0545 8.65187
50.1036 8.5761
50.153 8.55211
50.2022 8.55233
50.2515 8.50364
50.3007 8.44489
50.3501 8.45396
50.3993 8.41557
50.4487 8.35137
50.498 8.34622
50.5474 8.31856
50.5966 8.27594
50.6461 8.26269
50.6955 8.19981
50.7448 8.19738
50.7943 8.12378
50.8436 8.09834
50.8931 8.07389
50.9424 8.08563
50.9919 7.99906
51.0413 7.97319
51.0908 7.96276
51.1402 7.95655
51.1897 7.88107
51.2391 7.8795
51.2887 7.82752
51.3381 7.80251
51.3877 7.79927
51.4371 7.73776
51.4867 7.69586
51.5362 7.67192
51.5858 7.60846
51.6353 7.61134
51.6849 7.55873
51.7344 7.56477
51.7841 7.51355
51.8336 7.50091
51.8833 7.47008
51.9328 7.42563
51.9826 7.38823
52.0323 7.37612
52.0818 7.33904
52.1316 7.2848
52.1812 7.25985
52.231 7.21362
52.2806 7.20284
52.3304 7.18717
52.38 7.18096
52.4298 7.09192
52.4794 7.08311
52.5293 7.03757
52.5789 7.02146
52.6288 6.99895
52.6785 6.96255
52.7284 6.9282
52.7781 6.90694
52.828 6.90627
52.8777 6.8734
52.9276 6.82238
52.9774 6.80243
53.0273 6.78856
53.0771 6.72312
53.1271 6.76044
53.1769 6.67584
53.2269 6.67776
53.2767 6.60203
53.3267 6.59231
53.3765 6.59192
53.4266 6.53607
53.4766 6.50419
53.5265 6.51781
53.5765 6.45886
53.6264 6.44397
53.6765 6.3931
53.7264 6.31208
53.7765 6.37042
53.8265 6.35812
53.8766 6.27563
53.9266 6.27477
53.9767 6.22377
54.0267 6.22958
54.0769 6.19326
54.1269 6.12942
54.1771 6.13123
54.2271 6.09937
54.2773 6.03493
54.3274 6.02032
54.3776 5.95458
54.4277 5.95212
54.478 5.96211
54.528 5.92357
54.5783 5.87189
54.6285 5.80218
54.6788 5.80559
54.7289 5.765
54.7792 5.68782
54.8296 5.64389
54.8798 5.57991
54.9301 5.56167
54.9803 5.554
55.0307 5.48913
55.0809 5.41508
55.1314 5.44616
55.1816 5.34285
55.232 5.37991
55.2823 5.28088
55.3328 5.23674
55.383 5.20234
55.4335 5.16899
55.4838 5.09864
55.5344 5.06985
55.5847 5.03026
55.6352 4.99251
55.6856 4.94177
55.7361 4.90303