File: XRD/Ni3Fe_FD0884.xy
TT I
1.27165 7.58024
1.31627 6.9325
1.36089 6.17958
1.40551 5.23638
1.45013 6.13729
1.49476 6.1113
1.53938 5.56079
1.584 5.20323
1.62863 4.81884
1.67325 5.01553
1.71787 5.16504
1.7625 4.69341
1.80712 5.01085
1.85174 4.84653
1.89636 5.01185
1.94099 5.4694
1.98562 4.97652
2.03025 4.18423
2.07487 4.51987
2.11949 4.96902
2.16411 5.11827
2.20874 17.135
2.25338 28.4129
2.298 7.04808
2.34263 5.26534
2.38725 5.71144
2.43188 6.22631
2.4765 7.63512
2.52115 7.2364
2.56577 8.35928
2.6104 8.55413
2.65503 8.29208
2.69965 8.07079
2.7443 8.49027
2.78893 8.47748
2.83356 8.94239
2.87818 9.07658
2.92281 9.11137
2.96744 9.57512
3.01209 10.8705
3.05672 10.98
3.10135 12.3633
3.14599 12.9288
3.19062 14.5795
3.23527 15.1818
3.2799 15.4618
3.32454 16.6901
3.36917 17.8217
3.4138 19.1616
3.45844 19.8035
3.50309 20.4941
3.54773 21.6706
3.59237 24.3676
3.637 109.733
3.68164 68.769
3.7263 26.6158
3.77094 26.4955
3.81558 26.7268
3.86022 28.1638
3.90486 28.9653
3.9495 29.4868
3.99416 30.8535
4.0388 32.1536
4.08344 33.7805
4.12809 34.9963
4.17273 37.2063
4.21738 43.6129
4.26204 299.397
4.30669 271.789
4.35133 50.0023
4.39598 44.6683
4.44063 55.182
4.4853 70.4258
4.52995 50.2249
4.5746 50.4672
4.61925 52.6723
4.6639 54.6917
4.70855 57.334
4.75322 59.6061
4.79788 62.3857
4.84253 66.0721
4.88719 69.6815
4.93184 72.7968
4.97652 78.4111
5.02118 83.4302
5.06583 91.101
5.11049 101.236
5.15515 175.647
5.19981 286.113
5.24449 2301.02
5.28916 13059.4
5.33382 3004.31
5.37848 181.551
5.42315 125.257
5.46783 111.106
5.5125 103.507
5.55716 100.358
5.60183 96.7028
5.6465 94.9671
5.69117 91.9922
5.73586 90.1825
5.78053 89.1244
5.8252 88.6803
5.86988 89.0342
5.91455 90.2863
5.95924 96.0808
6.00392 165.195
6.0486 788.748
6.09328 4251.13
6.13795 3313.45
6.18263 240.611
6.22733 90.768
6.27201 82.1065
6.3167 107.915
6.36138 82.5549
6.40606 68.1224
6.45075 66.4289
6.49545 65.1059
6.54014 63.1511
6.58483 62.203
6.62952 62.3899
6.67421 99.7611
6.71892 166.506
6.76361 71.5758
6.8083 58.2121
6.853 56.7798
6.89769 56.642
6.94239 56.1253
6.98711 55.5391
7.03181 55.4475
7.07651 54.957
7.12121 54.9905
7.16591 54.818
7.21063 55.4027
7.25533 72.7252
7.30004 211.874
7.34475 102.968
7.38945 56.7722
7.43416 54.1089
7.47889 53.9163
7.5236 54.5711
7.56831 54.8628
7.61303 56.5551
7.65774 57.4208
7.70247 55.3101
7.74719 55.305
7.79191 56.0986
7.83663 56.2862
7.88135 57.056
7.92607 58.0733
7.97081 59.0492
8.01553 60.0276
8.06026 61.2881
8.10498 62.893
8.14971 74.0691
8.19446 72.8837
8.23919 68.3665
8.28392 70.2437
8.32865 72.401
8.37339 76.572
8.41812 83.5101
8.46288 116.31
8.50761 142.793
8.55235 319.83
8.59709 1073.07
8.64183 2237.99
8.68658 1039.88
8.73134 174.615
8.77609 97.2629
8.82083 90.7867
8.86558 87.7806
8.91033 88.8086
8.9551 92.2303
8.99985 84.4885
9.04461 82.0806
9.08936 81.3755
9.13412 80.3314
9.17888 81.0814
9.22365 82.0263
9.26841 80.5977
9.31318 81.2558
9.35794 81.2096
9.4027 81.6513
9.44749 82.3645
9.49226 83.3515
9.53703 83.5697
9.5818 85.0543
9.62657 90.4977
9.67134 99.1449
9.71614 92.391
9.76091 92.2936
9.80569 94.2093
9.85047 97.7604
9.89525 126.025
9.94005 139.46
9.98484 152.979
10.0296 288.049
10.0744 719.782
10.1192 1717.75
10.164 1661.43
10.2088 424.384
10.2536 125.784
10.2984 112.587
10.3432 115.561
10.388 102.453
10.4328 110.764
10.4776 145.131
10.5224 259.151
10.5672 504.467
10.612 514.63
10.6568 204.558
10.7017 96.0185
10.7465 85.1356
10.7913 81.5233
10.8361 79.6708
10.8809 77.6954
10.9257 77.5923
10.9706 78.9631
11.0154 74.2012
11.0602 71.6756
11.105 70.7339
11.1499 76.483
11.1947 86.4414
11.2395 75.2887
11.2844 70.4495
11.3292 66.3291
11.374 65.2911
11.4189 64.5593
11.4637 63.8865
11.5086 64.8757
11.5534 68.5025
11.5983 65.4473
11.6431 62.5255
11.688 61.8488
11.7328 61.7586
11.7777 61.7637
11.8225 61.3524
11.8674 61.2805
11.9122 61.8173
11.9571 61.6608
12.002 62.0601
12.0468 65.0583
12.0917 74.7413
12.1366 96.3342
12.1814 148.223
12.2263 207.68
12.2712 171.261
12.3161 98.6338
12.3609 71.2076
12.4058 64.0526
12.4507 63.3178
12.4956 63.273
12.5405 63.4584
12.5853 64.7935
12.6302 74.3115
12.6751 81.1587
12.72 70.2856
12.7649 66.7538
12.8098 67.1053
12.8547 68.412
12.8996 69.6152
12.9445 70.6269
12.9894 72.3702
13.0343 74.0472
13.0792 76.8031
13.1242 83.2739
13.1691 103.314
13.214 135.958
13.2589 219.145
13.3038 367.17
13.3487 435.088
13.3937 269.189
13.4386 125.385
13.4835 100.119
13.5285 111.278
13.5734 146.19
13.6183 237.432
13.6633 351.082
13.7082 350.52
13.7531 188.047
13.7981 96.8422
13.843 80.3897
13.888 78.2655
13.9329 75.6251
13.9779 74.6479
14.0228 73.0053
14.0678 71.6995
14.1127 71.4136
14.1577 71.5115
14.2027 70.4972
14.2476 69.1308
14.2926 69.6926
14.3376 71.0517
14.3825 69.4369
14.4275 67.5077
14.4725 67.4828
14.5175 67.5893
14.5624 67.7668
14.6074 70.5187
14.6524 71.1138
14.6974 69.2642
14.7424 69.9297
14.7874 74.7995
14.8324 83.5264
14.8774 103.276
14.9224 146.504
14.9674 209.073
15.0124 219.967
15.0574 150.234
15.1024 90.2873
15.1474 71.2941
15.1924 69.3754
15.2374 70.6674
15.2824 70.0155
15.3274 67.2759
15.3725 65.5882
15.4175 65.3505
15.4625 64.9709
15.5076 65.217
15.5526 65.0196
15.5976 64.4883
15.6426 64.7564
15.6877 68.8803
15.7327 75.1636
15.7778 89.0062
15.8228 119.639
15.8679 166.141
15.9129 195.167
15.958 158.92
16.003 96.0978
16.0481 67.5088
16.0931 64.3579
16.1382 62.2518
16.1833 59.828
16.2283 58.4233
16.2734 57.4641
16.3185 57.8789
16.3636 59.3779
16.4086 57.3808
16.4537 55.4866
16.4988 54.6028
16.5439 54.4601
16.589 54.1423
16.6341 54.119
16.6792 53.6544
16.7243 53.9008
16.7694 54.2289
16.8145 53.9406
16.8596 54.4554
16.9047 56.4002
16.9498 56.734
16.9949 55.023
17.04 54.6534
17.0851 55.7697
17.1302 57.2399
17.1754 59.7923
17.2205 64.4586
17.2656 72.5474
17.3108 82.6878
17.3559 81.5709
17.401 70.2157
17.4462 60.9686
17.4913 58.0825
17.5365 58.1681
17.5815 58.286
17.6268 58.5308
17.6718 59.4001
17.7171 59.9158
17.7622 60.2911
17.8074 60.4905
17.8525 62.2582
17.8977 65.7614
17.9428 70.5647
17.9881 78.3478
18.0331 95.3429
18.0784 118.839
18.1237 137.889
18.1688 130.384
18.214 102.604
18.2591 84.4882
18.3044 88.1823
18.3495 99.062
18.3948 105.389
18.4399 95.9863
18.4852 76.8742
18.5303 65.3283
18.5756 61.3554
18.6207 60.2139
18.666 59.3362
18.7112 58.5273
18.7565 58.0285
18.8016 57.6025
18.8469 57.1692
18.892 56.7822
18.9374 56.2165
18.9825 56.1762
19.0278 56.0723
19.073 55.9957
19.1183 56.3584
19.1635 57.0478
19.2088 58.1811
19.254 60.4484
19.2993 64.9913
19.3447 71.7521
19.3898 76.5046
19.4352 72.265
19.4804 62.8275
19.5257 56.2611
19.5709 53.3963
19.6163 53.1786
19.6615 52.9716
19.7068 52.4475
19.752 52.4096
19.7974 52.6607
19.8426 53.345
19.888 53.964
19.9332 54.9874
19.9786 57.2807
20.0238 60.8195
20.0692 66.0205
20.1144 69.1162
20.1598 67.4785
20.205 62.5341
20.2504 61.1315
20.2957 63.2163
20.3411 65.3135
20.3863 63.8518
20.4318 58.0741
20.477 53.0763
20.5224 51.2683
20.5677 50.456
20.6131 49.6124
20.6586 48.8552
20.7038 48.9357
20.7493 48.3722
20.7945 48.0773
20.84 48.0009
20.8853 47.9292
20.9307 47.8159
20.976 48.01
21.0215 47.8715
21.0668 48.1741
21.1122 48.6202
21.1575 49.1502
21.203 50.0738
21.2483 50.6583
21.2938 50.6361
21.3391 49.315
21.3846 48.3032
21.4299 47.7201
21.4754 47.5741
21.5207 47.8222
21.5662 47.8055
21.6116 48.1664
21.6571 48.6369
21.7024 49.4819
21.7479 51.3272
21.7933 53.9261
21.8388 57.617
21.8843 61.7281
21.9297 64.0364
21.9752 62.8145
22.0206 58.7012
22.0661 56.1146
22.1115 55.415
22.157 55.4923
22.2024 53.667
22.248 50.7526
22.2933 49.2252
22.3389 48.44
22.3843 48.2298
22.4299 48.4521
22.4753 48.2616
22.5208 47.9418
22.5662 47.7849
22.6118 47.7827
22.6572 47.989
22.7028 48.3532
22.7483 48.6175
22.7939 49.4839
22.8393 50.7198
22.8849 52.9437
22.9303 55.274
22.9759 57.3364
23.0214 56.8185
23.067 54.0544
23.1126 50.5355
23.1581 48.5251
23.2037 47.989
23.2492 47.9549
23.2948 47.824
23.3403 48.1616
23.3859 48.6644
23.4314 49.6953
23.477 51.3697
23.5225 53.9901
23.5682 56.2889
23.6137 57.4715
23.6593 55.3522
23.7048 51.1314
23.7505 47.7487
23.796 46.088
23.8417 45.3793
23.8872 44.799
23.9329 44.6188
23.9784 44.3487
24.0241 44.0246
24.0697 43.8339
24.1154 43.5901
24.1609 43.4554
24.2066 43.1953
24.2522 43.0465
24.2979 42.8942
24.3434 42.706
24.3892 42.5082
24.4349 42.4611
24.4805 42.3924
24.5262 42.4537
24.5718 42.3173
24.6175 42.3295
24.6631 42.164
24.7089 41.9497
24.7545 41.6356
24.8002 41.5755
24.8458 41.6777
24.8916 41.2417
24.9372 41.5452
24.983 41.7783
25.0286 42.1711
25.0744 42.5474
25.12 42.9954
25.1658 43.5842
25.2114 43.9278
25.2572 44.0768
25.3029 44.2143
25.3487 44.2872
25.3943 44.0786
25.4402 42.9559
25.4858 41.8819
25.5316 40.8597
25.5773 40.3112
25.6231 40.2624
25.669 40.0099
25.7147 39.9023
25.7605 39.9408
25.8062 39.8871
25.8521 39.9227
25.8977 39.8355
25.9436 40.256
25.9893 40.3224
26.0352 40.8141
26.0809 41.0032
26.1268 41.0945
26.1725 40.8479
26.2184 40.179
26.2641 39.6786
26.31 39.5685
26.3557 39.5699
26.4017 39.4442
26.4474 39.6939
26.4933 40.1397
26.5391 40.5073
26.585 41.2366
26.6308 41.5097
26.6767 41.6736
26.7225 41.42
26.7684 40.9948
26.8142 40.3378
26.8601 39.8317
26.9059 39.5185
26.9519 39.0016
26.9979 38.6146
27.0437 38.4055
27.0896 38.1144
27.1354 38.1395
27.1814 37.9457
27.2272 37.9408
27.2732 37.8492
27.3191 37.7541
27.3651 37.9467
27.4109 37.86
27.4569 37.8728
27.5027 38.1089
27.5488 38.0807
27.5946 37.8337
27.6407 37.5241
27.6865 37.507
27.7326 37.3184
27.7784 37.2662
27.8245 37.2207
27.8703 37.2847
27.9164 37.7161
27.9623 37.7274
28.0084 38.1663
28.0543 38.5609
28.1003 38.5208
28.1462 38.3029
28.1923 37.9316
28.2384 37.5696
28.2843 37.2234
28.3304 36.6498
28.3764 36.3382
28.4225 35.9024
28.4684 35.7287
28.5145 35.52
28.5605 35.4377
28.6066 35.2381
28.6526 35.0142
28.6987 35.138
28.7447 35.0645
28.7908 34.9061
28.8368 34.9302
28.8829 34.9739
28.9289 34.8759
28.9751 34.749
29.0211 34.4585
29.0673 34.1422
29.1133 34.0981
29.1595 33.9493
29.2055 33.8247
29.2517 33.7992
29.2977 33.8291
29.3439 33.8269
29.3899 33.8285
29.4361 33.7587
29.4824 33.5126
29.5284 33.2324
29.5746 32.9886
29.6207 32.7198
29.6669 32.6562
29.713 32.4675
29.7593 32.4309
29.8053 32.4929
29.8516 32.2677
29.8977 32.3886
29.9439 32.0687
29.99 32.0116
30.0363 31.9714
30.0824 32.014
30.1287 31.9323
30.1748 32.0268
30.2211 31.9413
30.2673 31.7851
30.3136 32.0368
30.3597 31.8878
30.406 31.7806
30.4522 31.56
30.4985 31.6469
30.5447 31.7127
30.591 31.6332
30.6372 31.7377
30.6835 31.6817
30.7297 31.7446
30.7761 31.7454
30.8224 31.4836
30.8686 31.5733
30.915 31.2111
30.9612 31.0862
31.0076 30.9439
31.0538 30.7021
31.1002 30.7303
31.1464 30.4954
31.1928 30.5004
31.2391 30.5287
31.2855 30.4029
31.3317 30.4108
31.3781 30.46
31.4244 30.4833
31.4708 30.3827
31.5171 30.4829
31.5636 30.2696
31.6098 30.098
31.6563 29.8781
31.7026 29.9254
31.7491 29.7154
31.7953 29.6351
31.8418 29.7515
31.8881 29.779
31.9346 29.6594
31.9809 29.6338
32.0275 29.434
32.074 29.3917
32.1203 29.2635
32.1668 29.1772
32.2132 28.9764
32.2597 28.9503
32.306 28.8412
32.3526 28.6029
32.399 28.5582
32.4455 28.3871
32.4919 28.3952
32.5385 28.2134
32.5848 28.0955
32.6314 28.1345
32.6778 28.0194
32.7244 27.9444
32.7708 27.7886
32.8174 27.8287
32.8638 27.6082
32.9104 27.5966
32.9569 27.6432
33.0035 27.5784
33.0499 27.5252
33.0966 27.4066
33.143 27.4348
33.1897 27.2881
33.2361 27.2252
33.2828 27.1469
33.3293 27.0602
33.3759 27.0952
33.4226 26.8404
33.4691 26.6853
33.5158 26.6434
33.5623 26.5605
33.609 26.4103
33.6555 26.3279
33.7022 26.2246
33.7487 26.15
33.7954 26.1214
33.842 26.1034
33.8887 26.0128
33.9353 25.9659
33.982 25.7285
34.0286 25.6701
34.0753 25.6692
34.1219 25.4996
34.1687 25.4957
34.2152 25.4211
34.262 25.2953
34.3086 25.2687
34.3554 25.1305
34.402 25.0941
34.4488 24.9539
34.4954 24.8981
34.5422 24.7547
34.5889 24.6717
34.6357 24.644
34.6825 24.6075
34.7292 24.4137
34.776 24.411
34.8227 24.3862
34.8695 24.2731
34.9162 24.284
34.9631 24.1493
35.0098 24.1422
35.0566 23.9952
35.1033 24.0286
35.1502 24.0166
35.1969 23.933
35.2438 23.8194
35.2906 23.7921
35.3375 23.7751
35.3842 23.6683
35.4311 23.6812
35.4779 23.5492
35.5248 23.4895
35.5716 23.4428
35.6185 23.3691
35.6653 23.3043
35.7123 23.213
35.759 23.199
35.806 23.1035
35.8528 22.9636
35.8998 22.901
35.9468 22.8485
35.9936 22.7996
36.0406 22.6745
36.0874 22.7235
36.1345 22.6004
36.1813 22.4742
36.2283 22.3678
36.2752 22.3526
36.3222 22.4026
36.3691 22.3104
36.4161 22.1457
36.463 22.1742
36.5101 22.1859
36.557 22.0779
36.6041 21.9217
36.651 21.8455
36.6981 21.8655
36.745 21.8252
36.7921 21.74
36.839 21.6093
36.8861 21.5427
36.9331 21.5314
36.9802 21.4087
37.0272 21.3146
37.0743 21.2356
37.1213 21.2021
37.1684 21.22
37.2154 21.0947
37.2626 21.0239
37.3098 20.9517
37.3568 20.8391
37.404 20.8213
37.451 20.702
37.4982 20.6732
37.5452 20.638
37.5924 20.5223
37.6395 20.5212
37.6867 20.474
37.7337 20.3341
37.781 20.3021
37.8281 20.1875
37.8753 20.1524
37.9224 20.0931
37.9697 19.9768
38.0168 19.928
38.064 19.8738
38.1111 19.8174
38.1584 19.7761
38.2056 19.7395
38.2529 19.6652
38.3 19.5879
38.3473 19.5683
38.3945 19.4259
38.4418 19.4291
38.489 19.3291
38.5363 19.2454
38.5837 19.2282
38.6309 19.1998
38.6782 19.1049
38.7254 19.0521
38.7728 18.9938
38.82 18.8983
38.8674 18.7859
38.9146 18.8029
38.9621 18.7023
39.0093 18.6889
39.0567 18.6392
39.104 18.5631
39.1514 18.4845
39.1987 18.4219
39.2461 18.3673
39.2934 18.3232
39.3409 18.2045
39.3882 18.1833
39.4356 18.1212
39.483 18.0967
39.5304 17.9991
39.5778 18.0347
39.6253 17.8968
39.6726 17.8528
39.7201 17.8851
39.7675 17.8084
39.815 17.7311
39.8624 17.6268
39.9099 17.5992
39.9575 17.5406
40.0049 17.4818
40.0525 17.4314
40.0999 17.348
40.1474 17.3483
40.1949 17.2701
40.2425 17.1314
40.2899 17.1115
40.3375 17.0502
40.385 17.0335
40.4326 16.9969
40.48 16.8737
40.5277 16.8918
40.5752 16.7982
40.6228 16.7394
40.6703 16.7056
40.718 16.6759
40.7655 16.6217
40.8132 16.5838
40.8607 16.5135
40.9084 16.4866
40.9559 16.3917
41.0036 16.3424
41.0512 16.3335
41.0989 16.2354
41.1465 16.1896
41.1942 16.1591
41.242 16.0768
41.2896 15.9323
41.3373 15.9311
41.3849 15.9485
41.4327 15.8468
41.4803 15.7544
41.5281 15.7749
41.5758 15.7062
41.6236 15.6349
41.6712 15.61
41.7191 15.5663
41.7667 15.5528
41.8146 15.4842
41.8622 15.3906
41.9101 15.3519
41.9578 15.2587
42.0057 15.2202
42.0534 15.2446
42.1013 15.1589
42.149 15.1283
42.1969 15.0281
42.2446 14.9891
42.2925 14.9143
42.3403 14.9377
42.3882 14.8772
42.436 14.7748
42.4839 14.7373
42.5319 14.719
42.5797 14.6213
42.6277 14.558
42.6755 14.561
42.7235 14.4848
42.7713 14.4988
42.8193 14.3983
42.8671 14.351
42.9152 14.325
42.963 14.229
43.0111 14.1872
43.0589 14.2096
43.107 14.0879
43.1549 14.0736
43.2029 13.944
43.2508 13.9474
43.2989 13.9292
43.3468 13.8834
43.3949 13.831
43.4429 13.7351
43.491 13.7041
43.5389 13.6617
43.5871 13.6074
43.635 13.5199
43.6832 13.5461
43.7312 13.5113
43.7793 13.4135
43.8273 13.3499
43.8755 13.3491
43.9237 13.2874
43.9717 13.2273
44.0199 13.2237
44.068 13.1334
44.1162 13.1142
44.1642 13.0355
44.2125 13.0201
44.2606 12.9644
44.3088 12.9312
44.3569 12.9148
44.4052 12.8446
44.4533 12.7966
44.5016 12.7968
44.5497 12.7376
44.598 12.6515
44.6461 12.6364
44.6945 12.5699
44.7426 12.5217
44.791 12.5155
44.8391 12.412
44.8875 12.4166
44.9357 12.3752
44.984 12.3106
45.0322 12.299
45.0806 12.225
45.1288 12.1735
45.1773 12.084
45.2257 12.107
45.2739 12.0405
45.3224 12.0201
45.3706 12.0117
45.4191 11.9067
45.4673 11.8902
45.5158 11.8804
45.5641 11.795
45.6126 11.7823
45.6609 11.7183
45.7094 11.6659
45.7577 11.6351
45.8063 11.5663
45.8546 11.5471
45.9031 11.5261
45.9515 11.4566
46.0001 11.3824
46.0484 11.3902
46.097 11.3373
46.1454 11.3264
46.194 11.2729
46.2424 11.2305
46.291 11.1677
46.3395 11.1609
46.3881 11.0919
46.4365 11.0804
46.4852 11.0127
46.5337 10.9292
46.5823 10.9469
46.631 10.9036
46.6795 10.8468
46.7282 10.834
46.7767 10.7769
46.8254 10.6993
46.8739 10.7276
46.9226 10.6662
46.9712 10.6008
47.0199 10.5546
47.0685 10.567
47.1173 10.5183
47.1658 10.4644
47.2146 10.4494
47.2632 10.3712
47.312 10.3382
47.3606 10.29
47.4095 10.2938
47.4581 10.2458
47.5069 10.1688
47.5556 10.1793
47.6044 10.1109
47.6531 10.0925
47.702 10.0248
47.7507 9.99321
47.7996 9.93305
47.8483 9.94678
47.8972 9.91383
47.9461 9.88519
47.9948 9.78666
48.0438 9.77971
48.0925 9.76017
48.1415 9.70531
48.1902 9.68554
48.2392 9.65244
48.288 9.6446
48.337 9.58147
48.3858 9.5733
48.4348 9.54471
48.4837 9.52509
48.5327 9.44383
48.5815 9.39095
48.6306 9.38977
48.6795 9.35058
48.7285 9.30423
48.7774 9.27462
48.8265 9.26322
48.8754 9.20385
48.9245 9.15241
48.9734 9.12706
49.0226 9.11452
49.0715 9.08455
49.1206 9.008
49.1696 8.99713
49.2188 9.00006
49.2679 8.92866
49.3169 8.9157
49.3661 8.84868
49.4151 8.82743
49.4643 8.78968
49.5134 8.73061
49.5626 8.68583
49.6117 8.68425
49.6609 8.69888
49.71 8.62943
49.7592 8.62168
49.8083 8.54857
49.8576 8.53561
49.9067 8.4988
49.956 8.44841
50.0052 8.4371
50.0545 8.42595
50.1036 8.34056
50.153 8.32965
50.2022 8.29388
50.2515 8.27489
50.3007 8.23463
50.3501 8.209
50.3993 8.15925
50.4487 8.15362
50.498 8.13332
50.5474 8.06179
50.5966 8.08365
50.6461 8.03033
50.6955 7.96626
50.7448 7.99414
50.7943 7.94249
50.8436 7.85903
50.8931 7.85266
50.9424 7.82786
50.9919 7.80575
51.0413 7.78529
51.0908 7.75904
51.1402 7.72707
51.1897 7.67471
51.2391 7.66323
51.2887 7.58484
51.3381 7.56184
51.3877 7.57653
51.4371 7.52774
51.4867 7.48716
51.5362 7.45248
51.5858 7.43618
51.6353 7.36733
51.6849 7.38549
51.7344 7.33089
51.7841 7.31347
51.8336 7.30253
51.8833 7.25942
51.9328 7.24502
51.9826 7.15628
52.0323 7.10975
52.0818 7.09311
52.1316 7.05401
52.1812 7.07568
52.231 7.03113
52.2806 7.00288
52.3304 6.98519
52.38 6.95071
52.4298 6.9323
52.4794 6.90492
52.5293 6.92109
52.5789 6.82948
52.6288 6.81688
52.6785 6.79051
52.7284 6.80686
52.7781 6.77144
52.828 6.72757
52.8777 6.66579
52.9276 6.64664
52.9774 6.63618
53.0273 6.59913
53.0771 6.55165
53.1271 6.5666
53.1769 6.50256
53.2269 6.49927
53.2767 6.44452
53.3267 6.42776
53.3765 6.42413
53.4266 6.3767
53.4766 6.35428
53.5265 6.32886
53.5765 6.31584
53.6264 6.24296
53.6765 6.20459
53.7264 6.19033
53.7765 6.19596
53.8265 6.17861
53.8766 6.11938
53.9266 6.08218
53.9767 6.05586
54.0267 6.06393
54.0769 6.02767
54.1269 5.95573
54.1771 5.94068
54.2271 5.92034
54.2773 5.88686
54.3274 5.89583
54.3776 5.79697
54.4277 5.82456
54.478 5.79135
54.528 5.71466
54.5783 5.66937
54.6285 5.68086
54.6788 5.59893
54.7289 5.53769
54.7792 5.52573
54.8296 5.52082
54.8798 5.4021
54.9301 5.4094
54.9803 5.41929
55.0307 5.35242
55.0809 5.30122
55.1314 5.26551
55.1816 5.18326
55.232 5.20152
55.2823 5.15606
55.3328 5.04826
55.383 5.01712
55.4335 5.00566
55.4838 4.90444
55.5344 4.967
55.5847 4.83607
55.6352 4.85003
55.6856 4.82244
55.7361 4.7811