File: XRD/Ni3Fe_FD0678.xy
TT I
1.27165 7.35489
1.31627 6.68068
1.36089 6.74426
1.40551 6.32849
1.45013 6.2947
1.49476 5.92108
1.53938 5.71876
1.584 5.68054
1.62863 4.96295
1.67325 5.03539
1.71787 5.37459
1.7625 4.72001
1.80712 4.78351
1.85174 4.12001
1.89636 4.39218
1.94099 4.72834
1.98562 4.49386
2.03025 5.03697
2.07487 4.43894
2.11949 5.09859
2.16411 4.65589
2.20874 10.9963
2.25338 15.6876
2.298 5.18395
2.34263 5.07224
2.38725 6.08063
2.43188 6.40318
2.4765 6.65531
2.52115 7.30494
2.56577 7.24045
2.6104 8.53774
2.65503 7.21013
2.69965 7.57809
2.7443 7.83778
2.78893 7.86201
2.83356 8.62982
2.87818 8.16831
2.92281 9.25376
2.96744 9.86655
3.01209 10.074
3.05672 11.3603
3.10135 12.0109
3.14599 12.9118
3.19062 14.8888
3.23527 15.2535
3.2799 15.7778
3.32454 16.4998
3.36917 17.4797
3.4138 18.9715
3.45844 19.2878
3.50309 20.5375
3.54773 21.3777
3.59237 23.196
3.637 67.24
3.68164 45.2046
3.7263 25.2374
3.77094 25.8002
3.81558 26.7412
3.86022 27.4877
3.90486 28.4964
3.9495 29.3091
3.99416 30.8878
4.0388 31.2248
4.08344 33.0165
4.12809 34.6236
4.17273 36.0151
4.21738 40.6952
4.26204 172.323
4.30669 148.158
4.35133 45.9241
4.39598 44.1748
4.44063 51.0452
4.4853 57.9264
4.52995 51.1657
4.5746 52.2662
4.61925 53.2453
4.6639 55.5019
4.70855 58.2594
4.75322 61.2452
4.79788 65.3943
4.84253 67.3335
4.88719 72.4026
4.93184 75.6339
4.97652 81.224
5.02118 87.3302
5.06583 95.4586
5.11049 106.688
5.15515 161.117
5.19981 399.315
5.24449 3010.61
5.28916 12399.1
5.33382 2685.37
5.37848 184.541
5.42315 128.163
5.46783 114.575
5.5125 107.246
5.55716 101.978
5.60183 98.264
5.6465 96.5145
5.69117 94.2437
5.73586 92.828
5.78053 93.1339
5.8252 92.9997
5.86988 94.0068
5.91455 95.1693
5.95924 104.826
6.00392 235.468
6.0486 1013.58
6.09328 4548.73
6.13795 3152.18
6.18263 220.91
6.22733 91.6054
6.27201 81.5795
6.3167 91.7953
6.36138 76.8932
6.40606 68.9289
6.45075 67.2991
6.49545 65.5042
6.54014 63.6328
6.58483 62.4371
6.62952 62.265
6.67421 81.898
6.71892 112.085
6.76361 64.4161
6.8083 58.538
6.853 57.4655
6.89769 56.2762
6.94239 56.1605
6.98711 55.7832
7.03181 55.4742
7.07651 55.1229
7.12121 54.8603
7.16591 55.2518
7.21063 54.9741
7.25533 64.7073
7.30004 132.087
7.34475 77.0918
7.38945 55.5028
7.43416 54.1292
7.47889 53.9401
7.5236 54.5181
7.56831 55.1213
7.61303 55.9787
7.65774 56.5078
7.70247 56.0482
7.74719 56.1082
7.79191 56.4508
7.83663 56.692
7.88135 57.3093
7.92607 58.3955
7.97081 59.5157
8.01553 60.6961
8.06026 62.1101
8.10498 63.8475
8.14971 70.7911
8.19446 70.4954
8.23919 69.8678
8.28392 72.1253
8.32865 74.1466
8.37339 78.7088
8.41812 85.2476
8.46288 107.832
8.50761 180.765
8.55235 409.196
8.59709 1237.48
8.64183 2233.91
8.68658 891.621
8.73134 153.479
8.77609 98.2667
8.82083 92.128
8.86558 90.0601
8.91033 89.5397
8.9551 89.3122
8.99985 84.4271
9.04461 83.3624
9.08936 83.0292
9.13412 82.3997
9.17888 82.0534
9.22365 82.4857
9.26841 82.1271
9.31318 82.9889
9.35794 83.3298
9.4027 83.8431
9.44749 84.6968
9.49226 84.3719
9.53703 85.3873
9.5818 87.6885
9.62657 91.8875
9.67134 95.7451
9.71614 93.2288
9.76091 94.38
9.80569 97.0695
9.85047 100.485
9.89525 116.996
9.94005 131.419
9.98484 192.572
10.0296 364.901
10.0744 847.505
10.1192 1796.08
10.164 1563.58
10.2088 367.298
10.2536 122.747
10.2984 110.858
10.3432 110.33
10.388 104.914
10.4328 122.777
10.4776 165.806
10.5224 292.698
10.5672 510.924
10.612 498.798
10.6568 193.253
10.7017 94.7279
10.7465 86.4219
10.7913 83.0278
10.8361 80.8759
10.8809 78.4784
10.9257 77.6224
10.9706 77.8439
11.0154 74.4939
11.0602 72.4762
11.105 71.5501
11.1499 74.1965
11.1947 77.8659
11.2395 71.7869
11.2844 69.2217
11.3292 66.8971
11.374 66.14
11.4189 65.4281
11.4637 64.583
11.5086 64.8352
11.5534 66.4376
11.5983 64.6625
11.6431 63.2772
11.688 62.7764
11.7328 62.6975
11.7777 62.403
11.8225 62.3167
11.8674 62.2439
11.9122 62.7685
11.9571 62.8904
12.002 64.1306
12.0468 68.844
12.0917 79.6168
12.1366 104.611
12.1814 154.01
12.2263 203.729
12.2712 160.102
12.3161 89.9734
12.3609 68.1719
12.4058 63.9722
12.4507 63.9523
12.4956 64.1087
12.5405 64.3799
12.5853 65.4511
12.6302 70.0557
12.6751 73.8907
12.72 68.612
12.7649 67.7988
12.8098 68.379
12.8547 69.8032
12.8996 70.8428
12.9445 72.4266
12.9894 74.3186
13.0343 75.9225
13.0792 79.6352
13.1242 91.4851
13.1691 114.657
13.214 152.934
13.2589 248.653
13.3038 379.088
13.3487 419.66
13.3937 251.138
13.4386 120.28
13.4835 108.03
13.5285 123.096
13.5734 163.317
13.6183 255.127
13.6633 356.423
13.7082 326.811
13.7531 170.335
13.7981 93.2905
13.843 81.3939
13.888 79.2785
13.9329 77.027
13.9779 75.7322
14.0228 74.1836
14.0678 72.6931
14.1127 72.332
14.1577 72.1999
14.2027 71.2773
14.2476 70.3682
14.2926 70.2388
14.3376 70.7601
14.3825 69.8015
14.4275 68.6393
14.4725 68.5513
14.5175 68.6457
14.5624 68.8883
14.6074 70.3448
14.6524 70.8857
14.6974 70.5668
14.7424 73.0528
14.7874 80.2188
14.8324 90.367
14.8774 113.273
14.9224 158.174
14.9674 213.017
15.0124 216.404
15.0574 140.691
15.1024 86.9061
15.1474 71.7416
15.1924 70.2032
15.2374 70.016
15.2824 69.2977
15.3274 67.7846
15.3725 66.5846
15.4175 66.4769
15.4625 65.8312
15.5076 65.9131
15.5526 66.1699
15.5976 66.0225
15.6426 67.5467
15.6877 73.4745
15.7327 80.7462
15.7778 96.5657
15.8228 129.376
15.8679 175.375
15.9129 194.801
15.958 150.961
16.003 91.7954
16.0481 66.4696
16.0931 63.4858
16.1382 61.9426
16.1833 60.2926
16.2283 58.6062
16.2734 58.1995
16.3185 58.0309
16.3636 58.3346
16.4086 57.1346
16.4537 56.0276
16.4988 55.3975
16.5439 55.2056
16.589 55.1931
16.6341 54.8166
16.6792 54.1838
16.7243 54.758
16.7694 54.7841
16.8145 54.7218
16.8596 54.9038
16.9047 55.6824
16.9498 56.1675
16.9949 55.4121
17.04 55.8321
17.0851 57.207
17.1302 58.6725
17.1754 61.7954
17.2205 67.3727
17.2656 75.2678
17.3108 83.3971
17.3559 81.7212
17.401 69.883
17.4462 61.2562
17.4913 58.9516
17.5365 59.0716
17.5815 59.2219
17.6268 59.4762
17.6718 60.3664
17.7171 60.7703
17.7622 61.2856
17.8074 62.0785
17.8525 65.0859
17.8977 68.6324
17.9428 74.4719
17.9881 83.9833
18.0331 102.01
18.0784 124.612
18.1237 142.595
18.1688 130.666
18.214 101.116
18.2591 85.8052
18.3044 91.3637
18.3495 101.098
18.3948 105.794
18.4399 94.4674
18.4852 75.5907
18.5303 65.004
18.5756 61.9562
18.6207 60.9398
18.666 60.3206
18.7112 59.5164
18.7565 58.7017
18.8016 58.5926
18.8469 57.7959
18.892 57.5366
18.9374 57.1332
18.9825 57.0123
19.0278 56.8158
19.073 57.0877
19.1183 57.5313
19.1635 58.0476
19.2088 59.4896
19.254 62.3321
19.2993 66.9638
19.3447 73.314
19.3898 76.2706
19.4352 71.3957
19.4804 62.1969
19.5257 56.2084
19.5709 54.0529
19.6163 53.8802
19.6615 53.6036
19.7068 53.1814
19.752 53.2495
19.7974 53.7937
19.8426 54.4038
19.888 55.0542
19.9332 56.3168
19.9786 59.1271
20.0238 63.0316
20.0692 67.9369
20.1144 69.8705
20.1598 67.6775
20.205 62.9985
20.2504 61.9559
20.2957 64.1247
20.3411 65.486
20.3863 63.207
20.4318 57.4721
20.477 52.9477
20.5224 51.2469
20.5677 50.6845
20.6131 50.0308
20.6586 49.5253
20.7038 49.4814
20.7493 49.0294
20.7945 48.7253
20.84 48.8782
20.8853 48.4796
20.9307 48.4615
20.976 48.7458
21.0215 48.6206
21.0668 48.8819
21.1122 49.4405
21.1575 50.1105
21.203 50.9845
21.2483 51.3492
21.2938 51.472
21.3391 49.9111
21.3846 48.7969
21.4299 48.3106
21.4754 48.2056
21.5207 48.5568
21.5662 48.9482
21.6116 49.4085
21.6571 50.054
21.7024 50.7964
21.7479 52.9366
21.7933 55.7342
21.8388 59.518
21.8843 63.0814
21.9297 64.7258
21.9752 62.8438
22.0206 59.0624
22.0661 56.3504
22.1115 56.091
22.157 56.0938
22.2024 53.8901
22.248 51.143
22.2933 49.6326
22.3389 48.8717
22.3843 48.845
22.4299 48.6162
22.4753 48.721
22.5208 48.5174
22.5662 48.4542
22.6118 48.4653
22.6572 48.8093
22.7028 49.4721
22.7483 49.877
22.7939 50.4955
22.8393 52.1664
22.8849 54.2933
22.9303 56.3152
22.9759 57.8907
23.0214 57.1656
23.067 54.1138
23.1126 50.9045
23.1581 49.2586
23.2037 48.702
23.2492 48.7909
23.2948 48.7494
23.3403 48.9692
23.3859 49.8363
23.4314 50.9371
23.477 52.8183
23.5225 55.1626
23.5682 57.2472
23.6137 57.6569
23.6593 54.9562
23.7048 51.0474
23.7505 47.7813
23.796 46.4415
23.8417 45.9697
23.8872 45.2836
23.9329 45.232
23.9784 44.6961
24.0241 44.5186
24.0697 44.3124
24.1154 44.0402
24.1609 43.9381
24.2066 43.6304
24.2522 43.573
24.2979 43.4801
24.3434 43.3672
24.3892 43.0148
24.4349 43.0232
24.4805 42.9186
24.5262 43.0813
24.5718 42.8711
24.6175 42.8042
24.6631 42.7062
24.7089 42.4117
24.7545 42.2836
24.8002 42.0873
24.8458 42.2897
24.8916 42.0693
24.9372 42.0617
24.983 42.6123
25.0286 42.9911
25.0744 43.4158
25.12 43.5825
25.1658 44.4827
25.2114 44.6654
25.2572 44.8134
25.3029 44.8461
25.3487 44.728
25.3943 44.4571
25.4402 43.3343
25.4858 42.2743
25.5316 41.4361
25.5773 40.8036
25.6231 40.7926
25.669 40.4646
25.7147 40.4472
25.7605 40.3763
25.8062 40.4531
25.8521 40.5126
25.8977 40.4895
25.9436 40.8054
25.9893 40.9709
26.0352 41.4186
26.0809 41.5764
26.1268 41.6854
26.1725 41.2569
26.2184 40.6627
26.2641 40.2767
26.31 39.9749
26.3557 40.1519
26.4017 39.9789
26.4474 40.4064
26.4933 40.839
26.5391 41.2078
26.585 41.7342
26.6308 42.051
26.6767 42.1781
26.7225 41.79
26.7684 41.3281
26.8142 40.7902
26.8601 40.4109
26.9059 39.9849
26.9519 39.3387
26.9979 39.0932
27.0437 38.8052
27.0896 38.6842
27.1354 38.6876
27.1814 38.5814
27.2272 38.5331
27.2732 38.4498
27.3191 38.2498
27.3651 38.4223
27.4109 38.2645
27.4569 38.6234
27.5027 38.5129
27.5488 38.5776
27.5946 38.2947
27.6407 38.0701
27.6865 37.9735
27.7326 37.7577
27.7784 37.9682
27.8245 37.9232
27.8703 37.9804
27.9164 38.2016
27.9623 38.5086
28.0084 38.761
28.0543 39.0853
28.1003 38.9661
28.1462 38.7419
28.1923 38.4614
28.2384 37.9599
28.2843 37.5853
28.3304 36.9591
28.3764 36.6611
28.4225 36.3894
28.4684 36.1406
28.5145 35.8692
28.5605 35.8442
28.6066 35.5636
28.6526 35.5915
28.6987 35.5868
28.7447 35.5059
28.7908 35.4251
28.8368 35.3566
28.8829 35.3732
28.9289 35.3017
28.9751 35.0995
29.0211 34.8287
29.0673 34.6355
29.1133 34.3841
29.1595 34.3553
29.2055 34.2579
29.2517 34.3618
29.2977 34.3765
29.3439 34.181
29.3899 34.2552
29.4361 34.0718
29.4824 34.0012
29.5284 33.6525
29.5746 33.3313
29.6207 33.1778
29.6669 33.0083
29.713 32.899
29.7593 32.84
29.8053 32.8375
29.8516 32.723
29.8977 32.6152
29.9439 32.5935
29.99 32.468
30.0363 32.4127
30.0824 32.3918
30.1287 32.5318
30.1748 32.3579
30.2211 32.2773
30.2673 32.2989
30.3136 32.4252
30.3597 32.1685
30.406 32.134
30.4522 32.0467
30.4985 32.0072
30.5447 32.2258
30.591 32.1211
30.6372 32.1718
30.6835 32.1736
30.7297 32.2548
30.7761 32.1412
30.8224 31.9811
30.8686 31.7707
30.915 31.5422
30.9612 31.4972
31.0076 31.3412
31.0538 31.1955
31.1002 31.0581
31.1464 31.0006
31.1928 30.9285
31.2391 31.0113
31.2855 30.7975
31.3317 30.8308
31.3781 30.9264
31.4244 30.9495
31.4708 30.8424
31.5171 30.7006
31.5636 30.7808
31.6098 30.4775
31.6563 30.3939
31.7026 30.2243
31.7491 30.0138
31.7953 30.1327
31.8418 30.1399
31.8881 30.1035
31.9346 30.1426
31.9809 30.0354
32.0275 29.9615
32.074 29.8149
32.1203 29.5689
32.1668 29.5433
32.2132 29.3755
32.2597 29.1533
32.306 29.1292
32.3526 29.0245
32.399 28.9504
32.4455 28.7561
32.4919 28.5969
32.5385 28.6255
32.5848 28.512
32.6314 28.3965
32.6778 28.3266
32.7244 28.2056
32.7708 28.1378
32.8174 28.1131
32.8638 27.9771
32.9104 28.0376
32.9569 27.8972
33.0035 27.9016
33.0499 27.8174
33.0966 27.793
33.143 27.7724
33.1897 27.6774
33.2361 27.5067
33.2828 27.5597
33.3293 27.3156
33.3759 27.2852
33.4226 27.1251
33.4691 26.978
33.5158 26.9979
33.5623 26.8858
33.609 26.6828
33.6555 26.6537
33.7022 26.5958
33.7487 26.4876
33.7954 26.4672
33.842 26.344
33.8887 26.2549
33.9353 26.1947
33.982 26.0333
34.0286 26.0751
34.0753 25.9118
34.1219 25.9422
34.1687 25.8077
34.2152 25.7801
34.262 25.7293
34.3086 25.5326
34.3554 25.5799
34.402 25.3152
34.4488 25.2114
34.4954 25.2281
34.5422 25.1392
34.5889 25.0431
34.6357 24.9407
34.6825 24.8561
34.7292 24.7579
34.776 24.7275
34.8227 24.5902
34.8695 24.6558
34.9162 24.5203
34.9631 24.3756
35.0098 24.4687
35.0566 24.3002
35.1033 24.2916
35.1502 24.2212
35.1969 24.1643
35.2438 24.1115
35.2906 24.0284
35.3375 24.0424
35.3842 23.9419
35.4311 23.9767
35.4779 23.9542
35.5248 23.9155
35.5716 23.782
35.6185 23.6459
35.6653 23.6235
35.7123 23.4973
35.759 23.4896
35.806 23.3266
35.8528 23.1615
35.8998 23.1452
35.9468 23.1159
35.9936 23.0008
36.0406 22.9411
36.0874 22.9319
36.1345 22.8724
36.1813 22.7885
36.2283 22.6357
36.2752 22.5882
36.3222 22.6356
36.3691 22.5815
36.4161 22.4785
36.463 22.3877
36.5101 22.355
36.557 22.3057
36.6041 22.1623
36.651 22.1602
36.6981 22.1161
36.745 22.04
36.7921 21.8845
36.839 21.836
36.8861 21.7778
36.9331 21.7046
36.9802 21.6209
37.0272 21.5527
37.0743 21.3677
37.1213 21.511
37.1684 21.384
37.2154 21.4038
37.2626 21.1877
37.3098 21.1728
37.3568 21.0865
37.404 21.1091
37.451 20.9354
37.4982 20.9151
37.5452 20.8402
37.5924 20.7848
37.6395 20.7962
37.6867 20.635
37.7337 20.5649
37.781 20.5316
37.8281 20.4034
37.8753 20.3538
37.9224 20.3442
37.9697 20.2897
38.0168 20.2208
38.064 20.1333
38.1111 20.126
38.1584 19.9386
38.2056 19.929
38.2529 19.8275
38.3 19.7908
38.3473 19.7605
38.3945 19.6132
38.4418 19.63
38.489 19.575
38.5363 19.4535
38.5837 19.4185
38.6309 19.3898
38.6782 19.3213
38.7254 19.1958
38.7728 19.2355
38.82 19.0444
38.8674 19.1309
38.9146 19.0064
38.9621 18.8642
39.0093 18.8355
39.0567 18.8521
39.104 18.8322
39.1514 18.6238
39.1987 18.6315
39.2461 18.653
39.2934 18.4989
39.3409 18.4704
39.3882 18.4107
39.4356 18.3397
39.483 18.2927
39.5304 18.1789
39.5778 18.2132
39.6253 18.1301
39.6726 18.0188
39.7201 17.9842
39.7675 17.9653
39.815 17.9239
39.8624 17.871
39.9099 17.8096
39.9575 17.7388
40.0049 17.6769
40.0525 17.5914
40.0999 17.5763
40.1474 17.4664
40.1949 17.4485
40.2425 17.3993
40.2899 17.2996
40.3375 17.2871
40.385 17.2434
40.4326 17.1303
40.48 17.0908
40.5277 17.1078
40.5752 17.0041
40.6228 16.9418
40.6703 16.8921
40.718 16.8295
40.7655 16.8226
40.8132 16.7382
40.8607 16.6975
40.9084 16.678
40.9559 16.6186
41.0036 16.5214
41.0512 16.5759
41.0989 16.4411
41.1465 16.3591
41.1942 16.3398
41.242 16.2694
41.2896 16.2401
41.3373 16.1098
41.3849 16.0528
41.4327 16.0297
41.4803 15.9767
41.5281 15.9668
41.5758 15.8833
41.6236 15.831
41.6712 15.7245
41.7191 15.6844
41.7667 15.637
41.8146 15.5955
41.8622 15.5412
41.9101 15.5403
41.9578 15.411
42.0057 15.4453
42.0534 15.3274
42.1013 15.2926
42.149 15.2633
42.1969 15.149
42.2446 15.136
42.2925 15.0919
42.3403 14.9996
42.3882 15.0074
42.436 14.9807
42.4839 14.8855
42.5319 14.8367
42.5797 14.7657
42.6277 14.7281
42.6755 14.7253
42.7235 14.6958
42.7713 14.6375
42.8193 14.547
42.8671 14.5075
42.9152 14.4781
42.963 14.4495
43.0111 14.3469
43.0589 14.319
43.107 14.2879
43.1549 14.2285
43.2029 14.1411
43.2508 14.0851
43.2989 14.0277
43.3468 14.0476
43.3949 13.9447
43.4429 13.8969
43.491 13.8645
43.5389 13.7809
43.5871 13.7469
43.635 13.7439
43.6832 13.6983
43.7312 13.6445
43.7793 13.5548
43.8273 13.5561
43.8755 13.5161
43.9237 13.4182
43.9717 13.3928
44.0199 13.334
44.068 13.2946
44.1162 13.272
44.1642 13.2266
44.2125 13.225
44.2606 13.1171
44.3088 13.0754
44.3569 12.9814
44.4052 13.011
44.4533 12.936
44.5016 12.865
44.5497 12.8425
44.598 12.8272
44.6461 12.7178
44.6945 12.702
44.7426 12.6793
44.791 12.5571
44.8391 12.5611
44.8875 12.5749
44.9357 12.51
44.984 12.4202
45.0322 12.3947
45.0806 12.3743
45.1288 12.2965
45.1773 12.2527
45.2257 12.2058
45.2739 12.1912
45.3224 12.1119
45.3706 12.0818
45.4191 12.0255
45.4673 11.9571
45.5158 11.9746
45.5641 11.9675
45.6126 11.894
45.6609 11.808
45.7094 11.7767
45.7577 11.7235
45.8063 11.7053
45.8546 11.6898
45.9031 11.6492
45.9515 11.5747
46.0001 11.5113
46.0484 11.5155
46.097 11.4503
46.1454 11.4739
46.194 11.3919
46.2424 11.3381
46.291 11.3071
46.3395 11.2685
46.3881 11.2157
46.4365 11.1565
46.4852 11.1595
46.5337 11.0983
46.5823 11.0349
46.631 11.0056
46.6795 10.9672
46.7282 10.954
46.7767 10.878
46.8254 10.8451
46.8739 10.8292
46.9226 10.78
46.9712 10.71
47.0199 10.6676
47.0685 10.6912
47.1173 10.5927
47.1658 10.5616
47.2146 10.5083
47.2632 10.4885
47.312 10.4678
47.3606 10.4386
47.4095 10.3455
47.4581 10.3138
47.5069 10.2964
47.5556 10.2623
47.6044 10.2269
47.6531 10.1599
47.702 10.1734
47.7507 10.0913
47.7996 10.0357
47.8483 10.0557
47.8972 10.0274
47.9461 9.94746
47.9948 9.96245
48.0438 9.90935
48.0925 9.88784
48.1415 9.8309
48.1902 9.77391
48.2392 9.75381
48.288 9.75068
48.337 9.67225
48.3858 9.65479
48.4348 9.59831
48.4837 9.59476
48.5327 9.58437
48.5815 9.52969
48.6306 9.4711
48.6795 9.44977
48.7285 9.3928
48.7774 9.34004
48.8265 9.38559
48.8754 9.31383
48.9245 9.31193
48.9734 9.21088
49.0226 9.1909
49.0715 9.18079
49.1206 9.11118
49.1696 9.09114
49.2188 9.0573
49.2679 9.03446
49.3169 8.91493
49.3661 8.95087
49.4151 8.90867
49.4643 8.8892
49.5134 8.89042
49.5626 8.77769
49.6117 8.79427
49.6609 8.78713
49.71 8.7123
49.7592 8.70369
49.8083 8.63413
49.8576 8.64668
49.9067 8.56904
49.956 8.54922
50.0052 8.48786
50.0545 8.50028
50.1036 8.44804
50.153 8.43478
50.2022 8.34703
50.2515 8.34444
50.3007 8.30051
50.3501 8.30205
50.3993 8.22997
50.4487 8.24603
50.498 8.20802
50.5474 8.17424
50.5966 8.14081
50.6461 8.08814
50.6955 8.09279
50.7448 8.02406
50.7943 8.01461
50.8436 8.01089
50.8931 7.94945
50.9424 7.94811
50.9919 7.85179
51.0413 7.85071
51.0908 7.81139
51.1402 7.77375
51.1897 7.79133
51.2391 7.73716
51.2887 7.68458
51.3381 7.69367
51.3877 7.6261
51.4371 7.60469
51.4867 7.55412
51.5362 7.51932
51.5858 7.513
51.6353 7.42923
51.6849 7.45821
51.7344 7.41381
51.7841 7.43032
51.8336 7.31676
51.8833 7.29186
51.9328 7.29852
51.9826 7.27415
52.0323 7.23112
52.0818 7.20501
52.1316 7.15385
52.1812 7.15065
52.231 7.13036
52.2806 7.08104
52.3304 7.06368
52.38 7.04961
52.4298 6.9847
52.4794 6.94994
52.5293 6.93066
52.5789 6.87293
52.6288 6.86598
52.6785 6.80598
52.7284 6.83969
52.7781 6.77595
52.828 6.78294
52.8777 6.76561
52.9276 6.72819
52.9774 6.63975
53.0273 6.64367
53.0771 6.60958
53.1271 6.58368
53.1769 6.55517
53.2269 6.53868
53.2767 6.49108
53.3267 6.53433
53.3765 6.44855
53.4266 6.43625
53.4766 6.37768
53.5265 6.37733
53.5765 6.3361
53.6264 6.30522
53.6765 6.31873
53.7264 6.26407
53.7765 6.24019
53.8265 6.21666
53.8766 6.19885
53.9266 6.15569
53.9767 6.1294
54.0267 6.10156
54.0769 6.08885
54.1269 6.05266
54.1771 6.00893
54.2271 5.98858
54.2773 5.97207
54.3274 5.90692
54.3776 5.82712
54.4277 5.84316
54.478 5.84118
54.528 5.79498
54.5783 5.73234
54.6285 5.75305
54.6788 5.69349
54.7289 5.65363
54.7792 5.57462
54.8296 5.51397
54.8798 5.50884
54.9301 5.48078
54.9803 5.41444
55.0307 5.48276
55.0809 5.3763
55.1314 5.35623
55.1816 5.22672
55.232 5.24567
55.2823 5.20745
55.3328 5.15668
55.383 5.10687
55.4335 5.05957
55.4838 5.00212
55.5344 4.96568
55.5847 4.92375
55.6352 4.8981
55.6856 4.80096
55.7361 4.79796