File: XRD/Ni3Fe_FD0386.xy
TT I
1.27165 7.64341
1.31627 6.60783
1.36089 7.2455
1.40551 6.11097
1.45013 6.18137
1.49476 6.04807
1.53938 6.34476
1.584 5.87283
1.62863 5.35133
1.67325 5.14623
1.71787 5.52056
1.7625 5.04003
1.80712 4.77166
1.85174 4.69328
1.89636 4.87337
1.94099 5.1607
1.98562 5.28956
2.03025 4.99469
2.07487 4.6335
2.11949 5.04977
2.16411 5.05116
2.20874 14.0678
2.25338 22.4578
2.298 5.55363
2.34263 4.99948
2.38725 5.63531
2.43188 4.82771
2.4765 6.00767
2.52115 6.04463
2.56577 7.2442
2.6104 6.92743
2.65503 7.01399
2.69965 7.67011
2.7443 8.09204
2.78893 7.37332
2.83356 7.92575
2.87818 8.52852
2.92281 8.84381
2.96744 9.94415
3.01209 9.90285
3.05672 11.281
3.10135 12.1799
3.14599 12.5951
3.19062 14.3446
3.23527 14.9505
3.2799 15.5754
3.32454 16.6233
3.36917 17.9222
3.4138 18.9387
3.45844 20.2249
3.50309 21.3744
3.54773 22.0782
3.59237 24.2983
3.637 90.7657
3.68164 57.8922
3.7263 26.7437
3.77094 26.5974
3.81558 27.117
3.86022 27.498
3.90486 29.4389
3.9495 30.1182
3.99416 31.3447
4.0388 32.6381
4.08344 34.5441
4.12809 35.4892
4.17273 37.8475
4.21738 43.9995
4.26204 244.696
4.30669 210.52
4.35133 49.6082
4.39598 45.7003
4.44063 54.7672
4.4853 65.4074
4.52995 53.1043
4.5746 52.8752
4.61925 54.3387
4.6639 56.9338
4.70855 59.4746
4.75322 62.345
4.79788 65.7475
4.84253 69.1724
4.88719 73.2146
4.93184 77.327
4.97652 83.0051
5.02118 90.1909
5.06583 98.2593
5.11049 112.227
5.15515 187.42
5.19981 462.769
5.24449 3203.9
5.28916 11531.1
5.33382 3492.02
5.37848 225.814
5.42315 138.683
5.46783 120.375
5.5125 110.913
5.55716 105.975
5.60183 102.029
5.6465 99.997
5.69117 97.8853
5.73586 95.4328
5.78053 95.4225
5.8252 95.4327
5.86988 96.4402
5.91455 98.9042
5.95924 109.271
6.00392 251.176
6.0486 1124.83
6.09328 4023.81
6.13795 3486.76
6.18263 301.242
6.22733 100.572
6.27201 87.1903
6.3167 104.259
6.36138 82.5925
6.40606 71.2561
6.45075 69.2547
6.49545 66.7924
6.54014 65.5406
6.58483 64.501
6.62952 64.5219
6.67421 95.061
6.71892 142.386
6.76361 69.7628
6.8083 60.2011
6.853 58.8791
6.89769 58.3671
6.94239 57.5812
6.98711 57.0331
7.03181 56.8461
7.07651 56.532
7.12121 56.6596
7.16591 56.7072
7.21063 57.0007
7.25533 72.1278
7.30004 178.732
7.34475 91.2831
7.38945 57.9294
7.43416 55.7747
7.47889 55.7544
7.5236 55.9191
7.56831 56.9057
7.61303 58.1464
7.65774 58.687
7.70247 57.603
7.74719 57.0943
7.79191 58.0908
7.83663 58.1816
7.88135 59.1143
7.92607 60.5053
7.97081 61.1425
8.01553 62.4465
8.06026 64.0487
8.10498 65.4098
8.14971 74.9604
8.19446 73.972
8.23919 71.4451
8.28392 73.7111
8.32865 76.4418
8.37339 80.8407
8.41812 88.2366
8.46288 117.836
8.50761 185.27
8.55235 440.762
8.59709 1146.1
8.64183 2090.5
8.68658 1166.15
8.73134 195.665
8.77609 105.038
8.82083 96.0897
8.86558 92.7019
8.91033 92.6279
8.9551 94.0558
8.99985 87.5633
9.04461 85.8507
9.08936 85.1248
9.13412 84.4202
9.17888 84.1958
9.22365 84.8082
9.26841 83.9102
9.31318 85.2761
9.35794 85.3255
9.4027 85.5776
9.44749 86.289
9.49226 86.5953
9.53703 87.7336
9.5818 90.0041
9.62657 94.5976
9.67134 101.109
9.71614 96.0214
9.76091 96.8302
9.80569 99.4352
9.85047 102.946
9.89525 126.961
9.94005 140.617
9.98484 195.254
10.0296 387.754
10.0744 819.104
10.1192 1597.97
10.164 1708.65
10.2088 503.844
10.2536 141.31
10.2984 117.86
10.3432 118.523
10.388 107.995
10.4328 125.91
10.4776 173.164
10.5224 284.435
10.5672 482.196
10.612 521.574
10.6568 228.42
10.7017 101.973
10.7465 89.4201
10.7913 85.6743
10.8361 83.2745
10.8809 80.8996
10.9257 80.6863
10.9706 80.9974
11.0154 76.7009
11.0602 74.7849
11.105 73.7037
11.1499 78.1357
11.1947 84.9579
11.2395 76.1189
11.2844 71.9415
11.3292 69.0214
11.374 67.9799
11.4189 67.2603
11.4637 66.5863
11.5086 67.0085
11.5534 69.9312
11.5983 67.211
11.6431 65.3089
11.688 64.7874
11.7328 64.7857
11.7777 64.5166
11.8225 64.3928
11.8674 64.0764
11.9122 64.5513
11.9571 64.6385
12.002 65.2925
12.0468 70.5089
12.0917 83.8423
12.1366 106.016
12.1814 149.221
12.2263 196.958
12.2712 178.034
12.3161 106.74
12.3609 73.0845
12.4058 66.5563
12.4507 66.0507
12.4956 66.3927
12.5405 66.1421
12.5853 67.4099
12.6302 74.9937
12.6751 80.2936
12.72 71.5714
12.7649 69.764
12.8098 70.4065
12.8547 71.72
12.8996 72.7708
12.9445 74.0713
12.9894 76.0194
13.0343 77.8583
13.0792 81.437
13.1242 92.2214
13.1691 119.544
13.214 157.646
13.2589 236.745
13.3038 351.082
13.3487 423.467
13.3937 296.59
13.4386 140.537
13.4835 112.147
13.5285 129.163
13.5734 164.333
13.6183 239.791
13.6633 327.816
13.7082 345.442
13.7531 210.51
13.7981 106.354
13.843 84.8071
13.888 81.9648
13.9329 78.974
13.9779 77.7226
14.0228 76.212
14.0678 75.0821
14.1127 74.5949
14.1577 74.1221
14.2027 73.2598
14.2476 72.2005
14.2926 72.4705
14.3376 73.5391
14.3825 72.2684
14.4275 70.6945
14.4725 70.4883
14.5175 70.6795
14.5624 71.1604
14.6074 73.086
14.6524 73.5606
14.6974 72.3765
14.7424 74.3305
14.7874 82.2594
14.8324 93.7938
14.8774 114.094
14.9224 150.651
14.9674 198.04
15.0124 217.632
15.0574 162.41
15.1024 98.5275
15.1474 75.1426
15.1924 72.5123
15.2374 73.0494
15.2824 72.3383
15.3274 69.8749
15.3725 68.6748
15.4175 68.1064
15.4625 67.703
15.5076 68.0754
15.5526 68.1302
15.5976 67.5195
15.6426 68.9913
15.6877 75.2426
15.7327 84.011
15.7778 98.441
15.8228 125.708
15.8679 163.545
15.9129 188.637
15.958 167.035
16.003 107.022
16.0481 72.2409
16.0931 66.5964
16.1382 64.4143
16.1833 62.3881
16.2283 60.5627
16.2734 59.9359
16.3185 60.2874
16.3636 60.9906
16.4086 59.3637
16.4537 57.6613
16.4988 57.0192
16.5439 57.1721
16.589 56.7675
16.6341 56.4758
16.6792 56.0122
16.7243 56.4335
16.7694 56.5254
16.8145 56.4359
16.8596 56.7004
16.9047 58.5078
16.9498 58.4645
16.9949 57.237
17.04 57.431
17.0851 58.9231
17.1302 60.8014
17.1754 63.6409
17.2205 68.1755
17.2656 74.4556
17.3108 82.2964
17.3559 83.8146
17.401 74.4891
17.4462 64.5402
17.4913 61.0801
17.5365 60.8036
17.5815 60.8941
17.6268 61.1899
17.6718 61.9755
17.7171 62.5023
17.7622 62.7786
17.8074 63.6368
17.8525 66.5553
17.8977 70.9037
17.9428 76.897
17.9881 85.1904
18.0331 99.8319
18.0784 118.776
18.1237 137.131
18.1688 136.214
18.214 111.938
18.2591 90.9546
18.3044 91.3247
18.3495 99.1665
18.3948 105.987
18.4399 99.9517
18.4852 81.9803
18.5303 68.6993
18.5756 64.1459
18.6207 63.1088
18.666 62.0898
18.7112 61.3831
18.7565 60.6201
18.8016 60.163
18.8469 59.703
18.892 59.186
18.9374 58.8348
18.9825 58.6294
19.0278 58.4374
19.073 58.3782
19.1183 59.1924
19.1635 60.1938
19.2088 61.4278
19.254 63.6903
19.2993 67.5544
19.3447 72.6471
19.3898 76.4747
19.4352 74.491
19.4804 66.4437
19.5257 59.0295
19.5709 55.7877
19.6163 55.3563
19.6615 55.1564
19.7068 54.7242
19.752 54.8365
19.7974 54.981
19.8426 56.3453
19.888 56.7998
19.9332 57.8613
19.9786 60.2249
20.0238 63.2778
20.0692 67.4549
20.1144 70.5176
20.1598 70.6742
20.205 66.3839
20.2504 63.7638
20.2957 64.4996
20.3411 65.9242
20.3863 65.7599
20.4318 60.817
20.477 55.9225
20.5224 53.3586
20.5677 52.3603
20.6131 51.8316
20.6586 51.1949
20.7038 50.9708
20.7493 50.4592
20.7945 50.2357
20.84 50.089
20.8853 50.044
20.9307 49.7719
20.976 50.1538
21.0215 49.8504
21.0668 50.3183
21.1122 50.9728
21.1575 51.3685
21.203 51.953
21.2483 52.4677
21.2938 52.7164
21.3391 51.5472
21.3846 50.5438
21.4299 49.8234
21.4754 49.7644
21.5207 49.8617
21.5662 50.142
21.6116 50.4883
21.6571 51.5872
21.7024 52.4678
21.7479 54.1134
21.7933 56.5121
21.8388 59.796
21.8843 63.0803
21.9297 65.4814
21.9752 65.2756
22.0206 61.934
22.0661 58.2532
22.1115 56.9532
22.157 57.1662
22.2024 56.0135
22.248 53.3575
22.2933 51.5999
22.3389 50.4133
22.3843 50.4045
22.4299 50.2986
22.4753 50.2698
22.5208 49.9546
22.5662 49.7946
22.6118 50.0423
22.6572 50.1834
22.7028 50.7766
22.7483 51.2814
22.7939 51.7164
22.8393 53.157
22.8849 55.2659
22.9303 56.6674
22.9759 58.3123
23.0214 58.7899
23.067 56.4915
23.1126 53.1027
23.1581 50.8085
23.2037 50.1334
23.2492 50.3004
23.2948 50.1374
23.3403 50.5953
23.3859 51.1895
23.4314 52.0822
23.477 53.5902
23.5225 55.5539
23.5682 57.2324
23.6137 58.7272
23.6593 57.3464
23.7048 53.8627
23.7505 50.1032
23.796 47.9401
23.8417 47.1743
23.8872 46.7705
23.9329 46.3994
23.9784 46.1996
24.0241 45.8654
24.0697 45.5877
24.1154 45.1721
24.1609 45.1865
24.2066 45.0002
24.2522 44.8569
24.2979 44.5875
24.3434 44.6054
24.3892 44.3944
24.4349 44.2852
24.4805 44.04
24.5262 44.2029
24.5718 44.1212
24.6175 44.1057
24.6631 43.9116
24.7089 43.7301
24.7545 43.4847
24.8002 43.492
24.8458 43.3738
24.8916 43.2289
24.9372 43.4018
24.983 43.661
25.0286 43.8915
25.0744 44.3664
25.12 44.8287
25.1658 45.4102
25.2114 45.6048
25.2572 45.8306
25.3029 45.9366
25.3487 45.871
25.3943 45.6254
25.4402 44.7933
25.4858 43.8696
25.5316 42.7238
25.5773 42.1055
25.6231 41.9807
25.669 41.56
25.7147 41.7799
25.7605 41.4132
25.8062 41.5964
25.8521 41.6664
25.8977 41.7551
25.9436 41.9781
25.9893 42.0988
26.0352 42.3678
26.0809 42.5182
26.1268 42.7326
26.1725 42.4387
26.2184 41.9831
26.2641 41.3667
26.31 41.2721
26.3557 41.2904
26.4017 41.112
26.4474 41.4216
26.4933 41.844
26.5391 42.0554
26.585 42.5473
26.6308 42.8344
26.6767 43.0386
26.7225 42.9824
26.7684 42.6458
26.8142 41.9718
26.8601 41.4072
26.9059 41.0928
26.9519 40.6226
26.9979 40.3591
27.0437 39.8894
27.0896 39.743
27.1354 39.7837
27.1814 39.7138
27.2272 39.5601
27.2732 39.6119
27.3191 39.413
27.3651 39.6212
27.4109 39.4533
27.4569 39.5625
27.5027 39.4492
27.5488 39.577
27.5946 39.4617
27.6407 39.1254
27.6865 39.1402
27.7326 38.962
27.7784 38.8171
27.8245 38.8995
27.8703 39.0781
27.9164 39.1749
27.9623 39.279
28.0084 39.6256
28.0543 40.0021
28.1003 40.0074
28.1462 39.8342
28.1923 39.4216
28.2384 38.8473
28.2843 38.5507
28.3304 38.2423
28.3764 37.691
28.4225 37.318
28.4684 37.2016
28.5145 36.937
28.5605 36.7541
28.6066 36.7637
28.6526 36.5417
28.6987 36.4946
28.7447 36.456
28.7908 36.3293
28.8368 36.3507
28.8829 36.304
28.9289 36.3079
28.9751 36.0664
29.0211 35.8879
29.0673 35.6508
29.1133 35.411
29.1595 35.3631
29.2055 35.2561
29.2517 35.2352
29.2977 35.16
29.3439 35.1172
29.3899 35.1035
29.4361 34.968
29.4824 34.9411
29.5284 34.6846
29.5746 34.3413
29.6207 34.0526
29.6669 34.0084
29.713 33.9614
29.7593 33.7423
29.8053 33.9124
29.8516 33.6901
29.8977 33.6862
29.9439 33.5303
29.99 33.5109
30.0363 33.1911
30.0824 33.4086
30.1287 33.3459
30.1748 33.209
30.2211 33.3612
30.2673 33.1192
30.3136 33.1796
30.3597 33.0688
30.406 33.0635
30.4522 32.8387
30.4985 32.839
30.5447 33.0091
30.591 32.9955
30.6372 33.0581
30.6835 32.9326
30.7297 33.0023
30.7761 32.8685
30.8224 32.7655
30.8686 32.7321
30.915 32.4359
30.9612 32.2944
31.0076 32.0603
31.0538 31.9886
31.1002 31.8938
31.1464 31.7893
31.1928 31.6765
31.2391 31.7876
31.2855 31.6972
31.3317 31.7119
31.3781 31.5891
31.4244 31.729
31.4708 31.6183
31.5171 31.637
31.5636 31.5645
31.6098 31.2547
31.6563 31.082
31.7026 30.9478
31.7491 30.8639
31.7953 31.0364
31.8418 30.8184
31.8881 30.9253
31.9346 30.8471
31.9809 30.772
32.0275 30.6114
32.074 30.6171
32.1203 30.4352
32.1668 30.2771
32.2132 30.1465
32.2597 29.9978
32.306 29.9461
32.3526 29.7004
32.399 29.6322
32.4455 29.5308
32.4919 29.4266
32.5385 29.3484
32.5848 29.3243
32.6314 29.3336
32.6778 29.1782
32.7244 29.0434
32.7708 28.8188
32.8174 28.9128
32.8638 28.8272
32.9104 28.738
32.9569 28.792
33.0035 28.5978
33.0499 28.4936
33.0966 28.4897
33.143 28.5243
33.1897 28.3834
33.2361 28.3575
33.2828 28.1894
33.3293 28.1309
33.3759 28.0551
33.4226 27.9508
33.4691 27.8086
33.5158 27.7096
33.5623 27.5533
33.609 27.3625
33.6555 27.4084
33.7022 27.212
33.7487 27.2018
33.7954 27.2332
33.842 27.0959
33.8887 26.9637
33.9353 27.0352
33.982 26.8272
34.0286 26.706
34.0753 26.6936
34.1219 26.5029
34.1687 26.5202
34.2152 26.5043
34.262 26.2823
34.3086 26.2474
34.3554 26.2543
34.402 26.0841
34.4488 25.9915
34.4954 25.9103
34.5422 25.8277
34.5889 25.7099
34.6357 25.6661
34.6825 25.5525
34.7292 25.4692
34.776 25.355
34.8227 25.2907
34.8695 25.2301
34.9162 25.2055
34.9631 25.1026
35.0098 25.1693
35.0566 25.0227
35.1033 24.9366
35.1502 24.9334
35.1969 24.8546
35.2438 24.8509
35.2906 24.6909
35.3375 24.6551
35.3842 24.6057
35.4311 24.5349
35.4779 24.4643
35.5248 24.3978
35.5716 24.4236
35.6185 24.1948
35.6653 24.2655
35.7123 24.185
35.759 24.0798
35.806 24.0029
35.8528 23.8778
35.8998 23.8415
35.9468 23.7734
35.9936 23.6124
36.0406 23.6489
36.0874 23.5588
36.1345 23.4644
36.1813 23.4412
36.2283 23.3103
36.2752 23.2013
36.3222 23.224
36.3691 23.1137
36.4161 23.0045
36.463 22.9978
36.5101 23.0086
36.557 22.9151
36.6041 22.7629
36.651 22.766
36.6981 22.6744
36.745 22.7099
36.7921 22.5921
36.839 22.4122
36.8861 22.4279
36.9331 22.32
36.9802 22.25
37.0272 22.163
37.0743 22.0865
37.1213 22.0068
37.1684 21.9688
37.2154 21.9048
37.2626 21.8589
37.3098 21.7694
37.3568 21.634
37.404 21.6729
37.451 21.5632
37.4982 21.501
37.5452 21.2942
37.5924 21.3068
37.6395 21.3152
37.6867 21.1916
37.7337 21.0464
37.781 21.0733
37.8281 21.0665
37.8753 20.9386
37.9224 20.8962
37.9697 20.8024
38.0168 20.6887
38.064 20.6798
38.1111 20.6284
38.1584 20.5575
38.2056 20.5094
38.2529 20.4191
38.3 20.3321
38.3473 20.3362
38.3945 20.2767
38.4418 20.2062
38.489 20.1683
38.5363 20.0462
38.5837 19.9399
38.6309 19.961
38.6782 19.8642
38.7254 19.7472
38.7728 19.7386
38.82 19.5563
38.8674 19.6194
38.9146 19.5053
38.9621 19.4296
39.0093 19.4235
39.0567 19.2918
39.104 19.2615
39.1514 19.1874
39.1987 19.2061
39.2461 19.1029
39.2934 19.0074
39.3409 18.881
39.3882 18.8932
39.4356 18.8752
39.483 18.7773
39.5304 18.6875
39.5778 18.6985
39.6253 18.6238
39.6726 18.6296
39.7201 18.5402
39.7675 18.5018
39.815 18.4135
39.8624 18.3557
39.9099 18.3612
39.9575 18.1974
40.0049 18.1364
40.0525 18.1136
40.0999 18.0396
40.1474 17.9817
40.1949 17.9234
40.2425 17.7578
40.2899 17.8276
40.3375 17.6971
40.385 17.7297
40.4326 17.6498
40.48 17.6213
40.5277 17.5516
40.5752 17.4615
40.6228 17.4213
40.6703 17.3518
40.718 17.2582
40.7655 17.2393
40.8132 17.2005
40.8607 17.1365
40.9084 17.1361
40.9559 17.026
41.0036 17.0126
41.0512 16.8959
41.0989 16.9265
41.1465 16.7994
41.1942 16.7525
41.242 16.6719
41.2896 16.6886
41.3373 16.5802
41.3849 16.5778
41.4327 16.4427
41.4803 16.3604
41.5281 16.3319
41.5758 16.3252
41.6236 16.2474
41.6712 16.1522
41.7191 16.1184
41.7667 16.0478
41.8146 16.0589
41.8622 15.9632
41.9101 15.932
41.9578 15.826
42.0057 15.868
42.0534 15.7781
42.1013 15.7342
42.149 15.6415
42.1969 15.6013
42.2446 15.5308
42.2925 15.4838
42.3403 15.4582
42.3882 15.3948
42.436 15.3599
42.4839 15.2576
42.5319 15.264
42.5797 15.1982
42.6277 15.126
42.6755 15.0955
42.7235 15.0152
42.7713 15.0102
42.8193 14.9891
42.8671 14.9391
42.9152 14.8739
42.963 14.7879
43.0111 14.7279
43.0589 14.6629
43.107 14.646
43.1549 14.5839
43.2029 14.5178
43.2508 14.4784
43.2989 14.424
43.3468 14.4216
43.3949 14.3076
43.4429 14.3525
43.491 14.1739
43.5389 14.1468
43.5871 14.1512
43.635 14.0752
43.6832 13.9872
43.7312 13.9751
43.7793 13.9612
43.8273 13.8329
43.8755 13.834
43.9237 13.7627
43.9717 13.7746
44.0199 13.7181
44.068 13.6502
44.1162 13.576
44.1642 13.5926
44.2125 13.5005
44.2606 13.4568
44.3088 13.431
44.3569 13.3875
44.4052 13.3663
44.4533 13.283
44.5016 13.2171
44.5497 13.1807
44.598 13.1458
44.6461 13.1063
44.6945 13.03
44.7426 13.0164
44.791 12.9357
44.8391 12.9308
44.8875 12.8622
44.9357 12.7742
44.984 12.7432
45.0322 12.7331
45.0806 12.661
45.1288 12.6235
45.1773 12.572
45.2257 12.5419
45.2739 12.501
45.3224 12.4812
45.3706 12.4884
45.4191 12.334
45.4673 12.3414
45.5158 12.2859
45.5641 12.2256
45.6126 12.1914
45.6609 12.1475
45.7094 12.0966
45.7577 12.1156
45.8063 11.9705
45.8546 12.0068
45.9031 11.9532
45.9515 11.9
46.0001 11.89
46.0484 11.8834
46.097 11.8021
46.1454 11.7551
46.194 11.6968
46.2424 11.6429
46.291 11.6016
46.3395 11.5326
46.3881 11.4621
46.4365 11.4722
46.4852 11.4295
46.5337 11.3786
46.5823 11.3522
46.631 11.3119
46.6795 11.2666
46.7282 11.2709
46.7767 11.191
46.8254 11.1203
46.8739 11.0988
46.9226 11.0666
46.9712 11.0492
47.0199 10.968
47.0685 10.9189
47.1173 10.903
47.1658 10.8582
47.2146 10.8015
47.2632 10.767
47.312 10.7089
47.3606 10.6796
47.4095 10.6771
47.4581 10.6416
47.5069 10.5699
47.5556 10.531
47.6044 10.496
47.6531 10.4896
47.702 10.4158
47.7507 10.3583
47.7996 10.3312
47.8483 10.3328
47.8972 10.2817
47.9461 10.2181
47.9948 10.2041
48.0438 10.1622
48.0925 10.1201
48.1415 10.1367
48.1902 10.0721
48.2392 10.0677
48.288 10.007
48.337 9.93418
48.3858 9.88839
48.4348 9.86783
48.4837 9.87266
48.5327 9.84055
48.5815 9.77857
48.6306 9.73165
48.6795 9.68955
48.7285 9.63102
48.7774 9.66287
48.8265 9.6534
48.8754 9.52434
48.9245 9.5645
48.9734 9.47007
49.0226 9.45731
49.0715 9.41423
49.1206 9.40265
49.1696 9.3536
49.2188 9.32213
49.2679 9.26338
49.3169 9.22553
49.3661 9.18641
49.4151 9.14047
49.4643 9.10957
49.5134 9.08848
49.5626 9.02554
49.6117 9.01547
49.6609 9.00237
49.71 8.95335
49.7592 8.93809
49.8083 8.86786
49.8576 8.90024
49.9067 8.78472
49.956 8.8188
50.0052 8.73493
50.0545 8.73486
50.1036 8.6686
50.153 8.63916
50.2022 8.62827
50.2515 8.58289
50.3007 8.53293
50.3501 8.52712
50.3993 8.4934
50.4487 8.46268
50.498 8.39497
50.5474 8.39178
50.5966 8.33205
50.6461 8.34192
50.6955 8.27967
50.7448 8.27312
50.7943 8.23694
50.8436 8.18552
50.8931 8.17071
50.9424 8.16545
50.9919 8.09392
51.0413 8.10936
51.0908 8.0452
51.1402 8.01978
51.1897 7.99523
51.2391 7.91893
51.2887 7.90521
51.3381 7.84161
51.3877 7.86914
51.4371 7.81886
51.4867 7.74673
51.5362 7.74691
51.5858 7.71897
51.6353 7.63607
51.6849 7.63125
51.7344 7.61516
51.7841 7.60548
51.8336 7.56944
51.8833 7.54892
51.9328 7.48643
51.9826 7.44689
52.0323 7.4324
52.0818 7.41973
52.1316 7.30572
52.1812 7.36508
52.231 7.29686
52.2806 7.28772
52.3304 7.25293
52.38 7.20358
52.4298 7.18948
52.4794 7.11016
52.5293 7.13553
52.5789 7.10347
52.6288 7.05186
52.6785 7.03662
52.7284 7.01056
52.7781 6.9826
52.828 6.95535
52.8777 6.89531
52.9276 6.87269
52.9774 6.84329
53.0273 6.81452
53.0771 6.82806
53.1271 6.76372
53.1769 6.73789
53.2269 6.75634
53.2767 6.68233
53.3267 6.63677
53.3765 6.66713
53.4266 6.60572
53.4766 6.58755
53.5265 6.55285
53.5765 6.52502
53.6264 6.4775
53.6765 6.44973
53.7264 6.44567
53.7765 6.35507
53.8265 6.37836
53.8766 6.33626
53.9266 6.3316
53.9767 6.3043
54.0267 6.28472
54.0769 6.24147
54.1269 6.1974
54.1771 6.19416
54.2271 6.13847
54.2773 6.12087
54.3274 6.11107
54.3776 6.05668
54.4277 6.04419
54.478 5.97496
54.528 5.96703
54.5783 5.90433
54.6285 5.81307
54.6788 5.79513
54.7289 5.77238
54.7792 5.75708
54.8296 5.71632
54.8798 5.625
54.9301 5.63399
54.9803 5.58437
55.0307 5.57159
55.0809 5.51593
55.1314 5.47632
55.1816 5.42545
55.232 5.39066
55.2823 5.40184
55.3328 5.25759
55.383 5.25421
55.4335 5.23693
55.4838 5.15143
55.5344 5.03784
55.5847 5.05503
55.6352 5.05352
55.6856 4.99116
55.7361 4.96623