File: XRD/Ni3Fe_FD0466.xy
TT I
1.27165 7.80343
1.31627 7.20513
1.36089 6.77558
1.40551 5.91259
1.45013 6.44335
1.49476 6.39267
1.53938 5.48506
1.584 5.18362
1.62863 5.78492
1.67325 4.99463
1.71787 4.60801
1.7625 4.77656
1.80712 5.35445
1.85174 5.14462
1.89636 4.98864
1.94099 4.61438
1.98562 4.79529
2.03025 4.8825
2.07487 4.69561
2.11949 4.96261
2.16411 4.7626
2.20874 9.48263
2.25338 13.6561
2.298 5.61736
2.34263 5.31763
2.38725 5.68806
2.43188 5.74478
2.4765 6.86648
2.52115 6.54821
2.56577 7.14766
2.6104 7.0755
2.65503 6.97974
2.69965 7.75722
2.7443 7.89466
2.78893 8.14936
2.83356 8.29761
2.87818 8.95015
2.92281 8.92323
2.96744 9.83617
3.01209 10.5104
3.05672 11.1005
3.10135 12.1956
3.14599 13.3205
3.19062 13.6455
3.23527 14.6077
3.2799 15.6394
3.32454 16.5317
3.36917 17.5856
3.4138 19.0394
3.45844 19.9311
3.50309 20.8524
3.54773 21.7011
3.59237 23.2612
3.637 58.2709
3.68164 41.5779
3.7263 25.7031
3.77094 26.0987
3.81558 26.3898
3.86022 27.5727
3.90486 29.254
3.9495 29.7831
3.99416 31.3434
4.0388 32.1778
4.08344 33.5974
4.12809 34.7593
4.17273 36.5226
4.21738 40.9229
4.26204 143.435
4.30669 125.693
4.35133 46.0299
4.39598 44.2372
4.44063 50.1645
4.4853 56.5619
4.52995 53.4068
4.5746 53.8375
4.61925 54.298
4.6639 56.7108
4.70855 59.1658
4.75322 62.1391
4.79788 66.1531
4.84253 69.0311
4.88719 74.5926
4.93184 77.2862
4.97652 83.3579
5.02118 90.1588
5.06583 98.6641
5.11049 112.003
5.15515 166.607
5.19981 527.349
5.24449 3480.92
5.28916 11749.3
5.33382 2951.0
5.37848 206.236
5.42315 134.623
5.46783 119.002
5.5125 110.887
5.55716 104.79
5.60183 100.357
5.6465 98.6693
5.69117 96.6597
5.73586 94.7177
5.78053 96.0882
5.8252 95.8463
5.86988 97.5308
5.91455 99.102
5.95924 111.847
6.00392 292.668
6.0486 1184.68
6.09328 4316.66
6.13795 3339.87
6.18263 263.861
6.22733 95.9854
6.27201 83.7426
6.3167 89.5032
6.36138 77.0972
6.40606 70.5227
6.45075 68.9255
6.49545 66.4818
6.54014 64.9343
6.58483 63.7118
6.62952 63.0897
6.67421 77.626
6.71892 101.666
6.76361 64.2872
6.8083 59.2005
6.853 58.5462
6.89769 57.227
6.94239 57.0859
6.98711 56.5136
7.03181 55.5707
7.07651 55.3926
7.12121 55.6197
7.16591 55.8839
7.21063 55.7437
7.25533 62.3975
7.30004 115.114
7.34475 73.3502
7.38945 55.9749
7.43416 54.6207
7.47889 54.6589
7.5236 55.1596
7.56831 56.0335
7.61303 56.7729
7.65774 57.0958
7.70247 56.7989
7.74719 56.6422
7.79191 57.6847
7.83663 57.4637
7.88135 58.6121
7.92607 59.5674
7.97081 60.6875
8.01553 61.7537
8.06026 63.2619
8.10498 64.6057
8.14971 71.1535
8.19446 71.1276
8.23919 70.6798
8.28392 73.2933
8.32865 75.529
8.37339 80.296
8.41812 86.2595
8.46288 109.635
8.50761 208.644
8.55235 465.176
8.59709 1231.02
8.64183 2157.12
8.68658 1011.46
8.73134 168.158
8.77609 101.783
8.82083 94.4283
8.86558 92.0046
8.91033 91.051
8.9551 90.7194
8.99985 86.3727
9.04461 85.1176
9.08936 84.9325
9.13412 83.7777
9.17888 83.1142
9.22365 83.7891
9.26841 83.7929
9.31318 84.6596
9.35794 85.5304
9.4027 85.4583
9.44749 85.636
9.49226 86.2478
9.53703 87.0485
9.5818 89.5006
9.62657 93.4312
9.67134 96.4876
9.71614 94.3898
9.76091 96.4752
9.80569 99.4113
9.85047 102.436
9.89525 116.526
9.94005 134.931
9.98484 220.836
10.0296 411.94
10.0744 885.827
10.1192 1724.31
10.164 1625.67
10.2088 407.928
10.2536 130.041
10.2984 113.242
10.3432 111.989
10.388 108.446
10.4328 131.575
10.4776 179.284
10.5224 299.957
10.5672 500.496
10.612 495.431
10.6568 201.997
10.7017 97.5145
10.7465 88.0794
10.7913 84.3306
10.8361 82.3798
10.8809 79.9805
10.9257 78.9808
10.9706 78.3729
11.0154 75.7904
11.0602 73.8977
11.105 72.6652
11.1499 74.0754
11.1947 77.1195
11.2395 72.2949
11.2844 70.1046
11.3292 68.0207
11.374 66.9396
11.4189 66.6359
11.4637 65.7217
11.5086 65.4875
11.5534 66.8053
11.5983 65.3937
11.6431 64.5564
11.688 63.893
11.7328 63.9603
11.7777 63.2963
11.8225 63.4988
11.8674 63.1955
11.9122 63.6017
11.9571 64.0404
12.002 65.4887
12.0468 72.1325
12.0917 84.0063
12.1366 109.26
12.1814 156.451
12.2263 200.498
12.2712 170.926
12.3161 92.1072
12.3609 69.0688
12.4058 65.1238
12.4507 65.2789
12.4956 65.3531
12.5405 65.6002
12.5853 65.8496
12.6302 70.179
12.6751 73.5482
12.72 69.7951
12.7649 68.6145
12.8098 69.4012
12.8547 70.69
12.8996 72.433
12.9445 73.6806
12.9894 75.4476
13.0343 77.4782
13.0792 81.5669
13.1242 97.3641
13.1691 121.956
13.214 162.818
13.2589 251.617
13.3038 366.97
13.3487 423.091
13.3937 264.162
13.4386 125.186
13.4835 113.645
13.5285 130.746
13.5734 171.736
13.6183 253.079
13.6633 342.331
13.7082 341.464
13.7531 187.186
13.7981 98.0955
13.843 83.1087
13.888 80.985
13.9329 78.4418
13.9779 76.9974
14.0228 75.5331
14.0678 74.237
14.1127 73.8002
14.1577 73.0277
14.2027 72.2477
14.2476 71.6185
14.2926 71.4473
14.3376 71.7508
14.3825 70.9711
14.4275 69.9349
14.4725 69.9284
14.5175 70.0067
14.5624 70.3963
14.6074 71.1523
14.6524 72.0015
14.6974 71.7332
14.7424 75.5855
14.7874 83.7857
14.8324 95.161
14.8774 118.344
14.9224 157.573
14.9674 202.552
15.0124 215.696
15.0574 148.191
15.1024 90.7143
15.1474 73.1133
15.1924 71.3798
15.2374 70.9524
15.2824 70.0874
15.3274 68.6851
15.3725 67.6747
15.4175 67.3097
15.4625 67.183
15.5076 66.8928
15.5526 67.1967
15.5976 67.2586
15.6426 69.9079
15.6877 76.4756
15.7327 84.8038
15.7778 100.809
15.8228 130.773
15.8679 169.082
15.9129 192.274
15.958 155.458
16.003 95.4173
16.0481 68.1722
16.0931 64.3322
16.1382 62.7613
16.1833 61.3972
16.2283 59.6566
16.2734 58.9901
16.3185 59.1001
16.3636 58.8886
16.4086 57.9204
16.4537 56.8778
16.4988 56.3452
16.5439 56.1662
16.589 55.9763
16.6341 55.7068
16.6792 55.37
16.7243 55.547
16.7694 55.6018
16.8145 55.3684
16.8596 55.7587
16.9047 56.6658
16.9498 56.771
16.9949 56.3731
17.04 56.9951
17.0851 58.5693
17.1302 60.3841
17.1754 63.4898
17.2205 68.4803
17.2656 75.108
17.3108 82.4056
17.3559 82.5877
17.401 71.6639
17.4462 62.978
17.4913 60.0732
17.5365 60.0336
17.5815 60.4288
17.6268 60.4778
17.6718 61.2628
17.7171 61.7711
17.7622 62.4688
17.8074 63.7651
17.8525 67.2335
17.8977 71.3202
17.9428 76.9991
17.9881 86.6635
18.0331 102.83
18.0784 121.536
18.1237 140.232
18.1688 133.355
18.214 106.056
18.2591 88.8549
18.3044 92.1231
18.3495 100.772
18.3948 106.917
18.4399 97.4576
18.4852 78.1364
18.5303 66.6897
18.5756 63.187
18.6207 62.1688
18.666 61.248
18.7112 60.7787
18.7565 59.7892
18.8016 59.5108
18.8469 58.7766
18.892 58.6517
18.9374 58.1122
18.9825 58.0813
19.0278 57.7961
19.073 58.1195
19.1183 58.7014
19.1635 59.2788
19.2088 60.9936
19.254 63.5455
19.2993 67.7717
19.3447 72.759
19.3898 76.6083
19.4352 73.1742
19.4804 63.8753
19.5257 57.3756
19.5709 54.9363
19.6163 54.8924
19.6615 54.6158
19.7068 54.3391
19.752 54.1084
19.7974 54.8291
19.8426 55.4318
19.888 56.0431
19.9332 57.6236
19.9786 60.3063
20.0238 63.6284
20.0692 67.7612
20.1144 70.4424
20.1598 69.1073
20.205 64.691
20.2504 62.8597
20.2957 64.2199
20.3411 65.9175
20.3863 64.5143
20.4318 58.5761
20.477 54.1445
20.5224 52.0111
20.5677 51.5162
20.6131 51.1127
20.6586 50.4891
20.7038 50.1758
20.7493 49.7376
20.7945 49.6522
20.84 49.5913
20.8853 49.458
20.9307 49.377
20.976 49.5085
21.0215 49.4675
21.0668 49.9247
21.1122 50.3167
21.1575 50.7799
21.203 51.6323
21.2483 52.1805
21.2938 52.2363
21.3391 50.8113
21.3846 49.6788
21.4299 49.1874
21.4754 49.053
21.5207 49.5009
21.5662 49.7768
21.6116 50.2828
21.6571 50.9833
21.7024 52.0003
21.7479 54.0625
21.7933 56.6669
21.8388 59.836
21.8843 63.1239
21.9297 65.5045
21.9752 64.1292
22.0206 60.1109
22.0661 56.9336
22.1115 56.6444
22.157 56.4713
22.2024 55.1673
22.248 52.1333
22.2933 50.5407
22.3389 49.8682
22.3843 49.5651
22.4299 49.5959
22.4753 49.5526
22.5208 49.2895
22.5662 49.1694
22.6118 49.597
22.6572 49.8486
22.7028 50.2783
22.7483 50.7079
22.7939 51.5038
22.8393 52.865
22.8849 54.9031
22.9303 56.7638
22.9759 58.1596
23.0214 58.0486
23.067 55.1805
23.1126 51.8435
23.1581 49.9056
23.2037 49.5825
23.2492 49.8619
23.2948 49.9189
23.3403 50.026
23.3859 50.8386
23.4314 52.0533
23.477 53.6859
23.5225 55.4852
23.5682 57.3267
23.6137 58.4075
23.6593 56.2396
23.7048 52.4228
23.7505 49.0253
23.796 47.3464
23.8417 46.7607
23.8872 46.2383
23.9329 45.941
23.9784 45.5068
24.0241 45.2758
24.0697 45.1886
24.1154 44.6905
24.1609 44.7232
24.2066 44.5605
24.2522 44.4404
24.2979 43.933
24.3434 43.9529
24.3892 43.8157
24.4349 43.6008
24.4805 43.6168
24.5262 43.6855
24.5718 43.641
24.6175 43.7713
24.6631 43.4815
24.7089 43.3307
24.7545 42.9556
24.8002 42.829
24.8458 42.9654
24.8916 42.8555
24.9372 42.9456
24.983 43.4621
25.0286 43.6214
25.0744 44.0354
25.12 44.4901
25.1658 45.0592
25.2114 45.3654
25.2572 45.4385
25.3029 45.307
25.3487 45.444
25.3943 45.2119
25.4402 44.1565
25.4858 42.9598
25.5316 42.1368
25.5773 41.434
25.6231 41.5244
25.669 41.214
25.7147 41.1275
25.7605 41.1096
25.8062 41.29
25.8521 41.2201
25.8977 41.2294
25.9436 41.5177
25.9893 41.552
26.0352 42.0638
26.0809 42.1445
26.1268 42.291
26.1725 41.9473
26.2184 41.4148
26.2641 41.0416
26.31 40.6195
26.3557 40.6268
26.4017 40.8666
26.4474 41.1406
26.4933 41.4568
26.5391 41.796
26.585 42.3592
26.6308 42.7853
26.6767 42.7941
26.7225 42.611
26.7684 42.0306
26.8142 41.4478
26.8601 41.1344
26.9059 40.6816
26.9519 40.0773
26.9979 39.7141
27.0437 39.4229
27.0896 39.3563
27.1354 39.3315
27.1814 39.1974
27.2272 39.0999
27.2732 39.1377
27.3191 39.0656
27.3651 39.1587
27.4109 38.8752
27.4569 39.2052
27.5027 39.118
27.5488 39.2755
27.5946 38.9092
27.6407 38.696
27.6865 38.6505
27.7326 38.4164
27.7784 38.5265
27.8245 38.5812
27.8703 38.6956
27.9164 38.8433
27.9623 39.0011
28.0084 39.3553
28.0543 39.658
28.1003 39.5872
28.1462 39.3854
28.1923 39.0261
28.2384 38.5995
28.2843 38.2678
28.3304 37.6674
28.3764 37.2452
28.4225 36.8018
28.4684 36.7963
28.5145 36.4945
28.5605 36.4004
28.6066 36.2003
28.6526 36.2374
28.6987 36.2914
28.7447 36.0093
28.7908 36.0298
28.8368 35.9886
28.8829 35.9572
28.9289 35.8365
28.9751 35.5132
29.0211 35.492
29.0673 35.1848
29.1133 35.0876
29.1595 34.8775
29.2055 34.8615
29.2517 34.7968
29.2977 34.8219
29.3439 34.7816
29.3899 34.7018
29.4361 34.6915
29.4824 34.5026
29.5284 34.3253
29.5746 33.9937
29.6207 33.5593
29.6669 33.6049
29.713 33.438
29.7593 33.2538
29.8053 33.3552
29.8516 33.2593
29.8977 33.229
29.9439 33.1269
29.99 33.012
30.0363 32.9485
30.0824 32.9945
30.1287 32.865
30.1748 32.8533
30.2211 32.9663
30.2673 32.8202
30.3136 32.8011
30.3597 32.6378
30.406 32.6508
30.4522 32.751
30.4985 32.4309
30.5447 32.6533
30.591 32.6954
30.6372 32.6948
30.6835 32.6212
30.7297 32.7397
30.7761 32.5759
30.8224 32.5459
30.8686 32.4416
30.915 32.0569
30.9612 32.0496
31.0076 31.7645
31.0538 31.7459
31.1002 31.5919
31.1464 31.3909
31.1928 31.4836
31.2391 31.4231
31.2855 31.3346
31.3317 31.3023
31.3781 31.3535
31.4244 31.3169
31.4708 31.1737
31.5171 31.2155
31.5636 31.2299
31.6098 31.0847
31.6563 30.8934
31.7026 30.6852
31.7491 30.507
31.7953 30.5844
31.8418 30.5569
31.8881 30.6768
31.9346 30.4655
31.9809 30.508
32.0275 30.2932
32.074 30.337
32.1203 30.0068
32.1668 29.9883
32.2132 29.8297
32.2597 29.6647
32.306 29.6276
32.3526 29.5247
32.399 29.4547
32.4455 29.138
32.4919 29.0998
32.5385 29.1115
32.5848 28.8877
32.6314 28.8881
32.6778 28.8989
32.7244 28.7293
32.7708 28.5797
32.8174 28.58
32.8638 28.4506
32.9104 28.4868
32.9569 28.4072
33.0035 28.2862
33.0499 28.315
33.0966 28.1893
33.143 28.2686
33.1897 28.0262
33.2361 28.0636
33.2828 28.0541
33.3293 27.874
33.3759 27.8349
33.4226 27.6546
33.4691 27.4801
33.5158 27.4432
33.5623 27.3315
33.609 27.1838
33.6555 27.082
33.7022 27.047
33.7487 26.9194
33.7954 26.8744
33.842 26.7108
33.8887 26.6683
33.9353 26.7559
33.982 26.5753
34.0286 26.4644
34.0753 26.414
34.1219 26.3597
34.1687 26.1875
34.2152 26.1483
34.262 26.0237
34.3086 25.9166
34.3554 25.8899
34.402 25.7401
34.4488 25.6233
34.4954 25.651
34.5422 25.5846
34.5889 25.4677
34.6357 25.3337
34.6825 25.3007
34.7292 25.1377
34.776 25.1562
34.8227 25.0074
34.8695 25.0689
34.9162 24.9833
34.9631 24.8862
35.0098 24.898
35.0566 24.7777
35.1033 24.582
35.1502 24.6326
35.1969 24.5674
35.2438 24.4843
35.2906 24.4637
35.3375 24.4284
35.3842 24.3482
35.4311 24.3586
35.4779 24.3158
35.5248 24.2764
35.5716 24.1087
35.6185 24.0485
35.6653 23.9395
35.7123 23.9108
35.759 23.8516
35.806 23.7099
35.8528 23.5463
35.8998 23.5923
35.9468 23.5484
35.9936 23.4285
36.0406 23.3201
36.0874 23.3301
36.1345 23.2641
36.1813 23.1938
36.2283 23.0857
36.2752 23.0114
36.3222 23.0656
36.3691 22.9029
36.4161 22.7086
36.463 22.7458
36.5101 22.7722
36.557 22.669
36.6041 22.5319
36.651 22.5251
36.6981 22.4734
36.745 22.312
36.7921 22.3381
36.839 22.2479
36.8861 22.0622
36.9331 22.1015
36.9802 22.016
37.0272 21.9193
37.0743 21.8416
37.1213 21.7946
37.1684 21.7103
37.2154 21.6229
37.2626 21.5476
37.3098 21.627
37.3568 21.4162
37.404 21.4059
37.451 21.3095
37.4982 21.2315
37.5452 21.1113
37.5924 21.1108
37.6395 21.1066
37.6867 21.0494
37.7337 20.922
37.781 20.8289
37.8281 20.7953
37.8753 20.7094
37.9224 20.702
37.9697 20.569
38.0168 20.4496
38.064 20.3781
38.1111 20.3501
38.1584 20.3262
38.2056 20.2823
38.2529 20.1487
38.3 20.2182
38.3473 20.0979
38.3945 19.9839
38.4418 19.9429
38.489 19.895
38.5363 19.8136
38.5837 19.7657
38.6309 19.6879
38.6782 19.5801
38.7254 19.5585
38.7728 19.5019
38.82 19.3842
38.8674 19.3947
38.9146 19.3371
38.9621 19.2028
39.0093 19.2368
39.0567 19.1803
39.104 19.0645
39.1514 18.9786
39.1987 18.9124
39.2461 18.9994
39.2934 18.8046
39.3409 18.7678
39.3882 18.6541
39.4356 18.5546
39.483 18.5663
39.5304 18.4888
39.5778 18.4909
39.6253 18.4051
39.6726 18.3938
39.7201 18.3952
39.7675 18.2464
39.815 18.1767
39.8624 18.1116
39.9099 18.1567
39.9575 17.9832
40.0049 17.9482
40.0525 17.8749
40.0999 17.9074
40.1474 17.7709
40.1949 17.7478
40.2425 17.6287
40.2899 17.5662
40.3375 17.5598
40.385 17.4947
40.4326 17.4409
40.48 17.3532
40.5277 17.3539
40.5752 17.2272
40.6228 17.2027
40.6703 17.1766
40.718 17.152
40.7655 17.094
40.8132 17.0149
40.8607 17.0177
40.9084 16.9192
40.9559 16.8714
41.0036 16.7994
41.0512 16.7476
41.0989 16.6988
41.1465 16.6264
41.1942 16.6148
41.242 16.5066
41.2896 16.4537
41.3373 16.4018
41.3849 16.3787
41.4327 16.2717
41.4803 16.1562
41.5281 16.1311
41.5758 16.1325
41.6236 16.0493
41.6712 15.9675
41.7191 15.9365
41.7667 15.8503
41.8146 15.8894
41.8622 15.8178
41.9101 15.7779
41.9578 15.62
42.0057 15.6289
42.0534 15.5682
42.1013 15.519
42.149 15.4846
42.1969 15.4502
42.2446 15.363
42.2925 15.3154
42.3403 15.2736
42.3882 15.2651
42.436 15.2537
42.4839 15.139
42.5319 15.0977
42.5797 14.9907
42.6277 14.993
42.6755 14.8934
42.7235 14.7892
42.7713 14.8391
42.8193 14.7749
42.8671 14.7595
42.9152 14.6726
42.963 14.5989
43.0111 14.6076
43.0589 14.5338
43.107 14.4643
43.1549 14.3953
43.2029 14.3801
43.2508 14.3165
43.2989 14.3192
43.3468 14.1791
43.3949 14.1261
43.4429 14.1644
43.491 14.0687
43.5389 14.0004
43.5871 13.9667
43.635 13.8925
43.6832 13.8921
43.7312 13.7662
43.7793 13.7798
43.8273 13.7808
43.8755 13.6861
43.9237 13.6486
43.9717 13.6075
44.0199 13.5304
44.068 13.4587
44.1162 13.4734
44.1642 13.446
44.2125 13.3388
44.2606 13.3189
44.3088 13.2464
44.3569 13.2089
44.4052 13.2398
44.4533 13.1424
44.5016 13.0546
44.5497 13.0121
44.598 13.0182
44.6461 12.9656
44.6945 12.8883
44.7426 12.8646
44.791 12.7903
44.8391 12.7892
44.8875 12.6964
44.9357 12.6811
44.984 12.6119
45.0322 12.6198
45.0806 12.5346
45.1288 12.5268
45.1773 12.4056
45.2257 12.4095
45.2739 12.3725
45.3224 12.2937
45.3706 12.3124
45.4191 12.242
45.4673 12.2433
45.5158 12.1272
45.5641 12.0887
45.6126 12.0753
45.6609 12.0203
45.7094 11.9487
45.7577 11.9456
45.8063 11.8755
45.8546 11.8433
45.9031 11.7955
45.9515 11.7632
46.0001 11.7244
46.0484 11.6863
46.097 11.6552
46.1454 11.6112
46.194 11.5936
46.2424 11.5388
46.291 11.4634
46.3395 11.4102
46.3881 11.4149
46.4365 11.3861
46.4852 11.3559
46.5337 11.2228
46.5823 11.2171
46.631 11.2112
46.6795 11.1859
46.7282 11.1452
46.7767 11.1197
46.8254 10.9825
46.8739 10.9592
46.9226 10.947
46.9712 10.8836
47.0199 10.844
47.0685 10.8006
47.1173 10.7526
47.1658 10.7114
47.2146 10.6853
47.2632 10.627
47.312 10.6054
47.3606 10.596
47.4095 10.501
47.4581 10.4991
47.5069 10.441
47.5556 10.4399
47.6044 10.3785
47.6531 10.3534
47.702 10.2743
47.7507 10.2891
47.7996 10.2463
47.8483 10.182
47.8972 10.1831
47.9461 10.127
47.9948 10.0502
48.0438 10.057
48.0925 9.99944
48.1415 9.95422
48.1902 9.91551
48.2392 9.97131
48.288 9.86336
48.337 9.84244
48.3858 9.80068
48.4348 9.76506
48.4837 9.7427
48.5327 9.69281
48.5815 9.6927
48.6306 9.66918
48.6795 9.59816
48.7285 9.54965
48.7774 9.53525
48.8265 9.50037
48.8754 9.42302
48.9245 9.42284
48.9734 9.3746
49.0226 9.33856
49.0715 9.29171
49.1206 9.24542
49.1696 9.22977
49.2188 9.21051
49.2679 9.14996
49.3169 9.15932
49.3661 9.07812
49.4151 9.09046
49.4643 9.01166
49.5134 8.95443
49.5626 8.93438
49.6117 8.92397
49.6609 8.87002
49.71 8.8461
49.7592 8.79355
49.8083 8.77268
49.8576 8.73922
49.9067 8.71139
49.956 8.68324
50.0052 8.66783
50.0545 8.61294
50.1036 8.58671
50.153 8.58089
50.2022 8.51512
50.2515 8.51574
50.3007 8.4571
50.3501 8.40001
50.3993 8.37555
50.4487 8.37648
50.498 8.32302
50.5474 8.28713
50.5966 8.23332
50.6461 8.25287
50.6955 8.18014
50.7448 8.19142
50.7943 8.1484
50.8436 8.07828
50.8931 8.07631
50.9424 8.04173
50.9919 8.00147
51.0413 8.01015
51.0908 7.94109
51.1402 7.91062
51.1897 7.85855
51.2391 7.87274
51.2887 7.80085
51.3381 7.78059
51.3877 7.74826
51.4371 7.68999
51.4867 7.69673
51.5362 7.65407
51.5858 7.60425
51.6353 7.60265
51.6849 7.57861
51.7344 7.49979
51.7841 7.52036
51.8336 7.49552
51.8833 7.42167
51.9328 7.37786
51.9826 7.33022
52.0323 7.36857
52.0818 7.31191
52.1316 7.26349
52.1812 7.26224
52.231 7.21783
52.2806 7.15773
52.3304 7.15922
52.38 7.12761
52.4298 7.11277
52.4794 7.08849
52.5293 7.04201
52.5789 7.01456
52.6288 6.96791
52.6785 6.922
52.7284 6.9528
52.7781 6.89178
52.828 6.88879
52.8777 6.82801
52.9276 6.83518
52.9774 6.79131
53.0273 6.79311
53.0771 6.72393
53.1271 6.70691
53.1769 6.68159
53.2269 6.647
53.2767 6.58536
53.3267 6.5865
53.3765 6.58357
53.4266 6.51662
53.4766 6.51726
53.5265 6.46782
53.5765 6.48463
53.6264 6.43247
53.6765 6.40609
53.7264 6.33992
53.7765 6.3375
53.8265 6.27998
53.8766 6.25836
53.9266 6.26904
53.9767 6.22285
54.0267 6.22939
54.0769 6.16312
54.1269 6.163
54.1771 6.14939
54.2271 6.04922
54.2773 6.0458
54.3274 5.98609
54.3776 5.95969
54.4277 5.92782
54.478 5.8559
54.528 5.8774
54.5783 5.86588
54.6285 5.81632
54.6788 5.78542
54.7289 5.75526
54.7792 5.68476
54.8296 5.63764
54.8798 5.57464
54.9301 5.56019
54.9803 5.54636
55.0307 5.49581
55.0809 5.46631
55.1314 5.39816
55.1816 5.36953
55.232 5.2918
55.2823 5.25361
55.3328 5.18086
55.383 5.15494
55.4335 5.18172
55.4838 5.07046
55.5344 4.99491
55.5847 4.98207
55.6352 4.96581
55.6856 4.92509
55.7361 4.86757