File: XRD/Ni3Fe_FD0089.xy
TT I
1.27165 9.2696
1.31627 8.2545
1.36089 8.79502
1.40551 7.61776
1.45013 7.60835
1.49476 6.99577
1.53938 7.12857
1.584 6.66887
1.62863 6.60815
1.67325 6.45328
1.71787 5.68495
1.7625 6.45891
1.80712 5.74467
1.85174 6.26549
1.89636 5.55154
1.94099 5.70379
1.98562 5.56931
2.03025 5.57525
2.07487 5.83097
2.11949 6.06175
2.16411 5.4083
2.20874 4.78436
2.25338 5.00301
2.298 4.48493
2.34263 4.38239
2.38725 4.61082
2.43188 4.16172
2.4765 3.76706
2.52115 3.17141
2.56577 3.992
2.6104 4.71786
2.65503 4.3785
2.69965 5.59442
2.7443 5.7644
2.78893 5.95735
2.83356 6.34641
2.87818 7.81773
2.92281 8.36369
2.96744 9.09168
3.01209 10.3631
3.05672 11.2162
3.10135 12.085
3.14599 12.8323
3.19062 13.8257
3.23527 14.5497
3.2799 14.9926
3.32454 16.3414
3.36917 17.3049
3.4138 18.4696
3.45844 19.3313
3.50309 20.3138
3.54773 20.3647
3.59237 21.4099
3.637 22.2297
3.68164 22.9889
3.7263 23.5854
3.77094 24.7801
3.81558 25.2553
3.86022 25.957
3.90486 27.4091
3.9495 28.347
3.99416 29.0383
4.0388 29.9925
4.08344 31.6746
4.12809 32.5108
4.17273 33.4145
4.21738 35.2418
4.26204 35.9395
4.30669 37.5365
4.35133 38.8665
4.39598 40.6455
4.44063 42.3405
4.4853 44.1905
4.52995 46.5622
4.5746 48.7962
4.61925 51.024
4.6639 53.3682
4.70855 56.3687
4.75322 59.0125
4.79788 62.1851
4.84253 66.27
4.88719 71.2128
4.93184 76.7022
4.97652 85.904
5.02118 96.673
5.06583 109.818
5.11049 131.283
5.15515 185.718
5.19981 736.497
5.24449 3728.73
5.28916 5691.62
5.33382 7742.88
5.37848 909.378
5.42315 217.338
5.46783 148.739
5.5125 126.093
5.55716 116.231
5.60183 108.524
5.6465 104.864
5.69117 102.354
5.73586 100.772
5.78053 100.069
5.8252 102.035
5.86988 106.805
5.91455 117.445
5.95924 146.324
6.00392 369.596
6.0486 1439.33
6.09328 1832.01
6.13795 3703.54
6.18263 1130.56
6.22733 171.954
6.27201 102.626
6.3167 84.6439
6.36138 75.9275
6.40606 70.3886
6.45075 67.5376
6.49545 64.2328
6.54014 62.1943
6.58483 60.7297
6.62952 59.5345
6.67421 58.0129
6.71892 56.9793
6.76361 55.861
6.8083 54.6831
6.853 54.3606
6.89769 53.9344
6.94239 53.554
6.98711 52.6741
7.03181 52.2795
7.07651 51.8591
7.12121 51.5641
7.16591 51.9452
7.21063 51.1518
7.25533 51.124
7.30004 51.0544
7.34475 51.2841
7.38945 51.4705
7.43416 51.0032
7.47889 51.9779
7.5236 63.5181
7.56831 93.6035
7.61303 64.4155
7.65774 53.553
7.70247 53.5182
7.74719 53.5021
7.79191 54.1155
7.83663 54.1284
7.88135 55.3171
7.92607 56.1016
7.97081 57.1721
8.01553 58.1511
8.06026 59.7564
8.10498 61.0228
8.14971 62.8515
8.19446 64.3714
8.23919 67.0372
8.28392 70.1239
8.32865 73.1814
8.37339 78.6346
8.41812 85.2668
8.46288 100.946
8.50761 200.214
8.55235 665.374
8.59709 680.792
8.64183 953.688
8.68658 1788.62
8.73134 673.2
8.77609 141.961
8.82083 103.465
8.86558 93.7632
8.91033 88.8029
8.9551 85.7901
8.99985 84.022
9.04461 82.7791
9.08936 81.4664
9.13412 81.3427
9.17888 82.562
9.22365 100.118
9.26841 146.976
9.31318 108.572
9.35794 83.8081
9.4027 81.7733
9.44749 82.142
9.49226 82.6989
9.53703 83.3114
9.5818 84.9139
9.62657 85.8078
9.67134 87.3857
9.71614 89.4746
9.76091 91.6986
9.80569 94.7429
9.85047 98.2732
9.89525 104.927
9.94005 118.408
9.98484 209.94
10.0296 607.223
10.0744 629.168
10.1192 622.763
10.164 1337.14
10.2088 1349.85
10.2536 334.323
10.2984 127.835
10.3432 112.08
10.388 106.787
10.4328 127.192
10.4776 233.19
10.5224 234.068
10.5672 222.751
10.612 390.883
10.6568 463.792
10.7017 188.236
10.7465 101.509
10.7913 84.9285
10.8361 80.3047
10.8809 77.0855
10.9257 74.7137
10.9706 73.3637
11.0154 71.7888
11.0602 70.2184
11.105 68.9373
11.1499 67.617
11.1947 66.4826
11.2395 65.2004
11.2844 64.7822
11.3292 64.2069
11.374 63.2253
11.4189 62.9029
11.4637 62.137
11.5086 61.659
11.5534 60.8235
11.5983 60.734
11.6431 61.0888
11.688 60.2894
11.7328 60.1584
11.7777 60.1355
11.8225 60.0841
11.8674 60.6168
11.9122 63.3011
11.9571 75.2051
12.002 75.202
12.0468 71.1023
12.0917 94.493
12.1366 105.576
12.1814 96.4054
12.2263 110.444
12.2712 170.871
12.3161 167.524
12.3609 87.3727
12.4058 65.1678
12.4507 62.5342
12.4956 62.2074
12.5405 62.0953
12.5853 62.3091
12.6302 62.4555
12.6751 63.0856
12.72 63.6662
12.7649 64.6084
12.8098 65.4973
12.8547 66.6342
12.8996 68.0738
12.9445 69.5907
12.9894 71.3172
13.0343 73.7591
13.0792 79.1875
13.1242 90.0438
13.1691 142.695
13.214 195.825
13.2589 172.784
13.3038 170.738
13.3487 250.736
13.3937 390.843
13.4386 287.101
13.4835 141.651
13.5285 167.465
13.5734 183.265
13.6183 154.559
13.6633 164.587
13.7082 256.468
13.7531 344.951
13.7981 208.958
13.843 97.1078
13.888 80.8267
13.9329 76.899
13.9779 75.3356
14.0228 73.6245
14.0678 72.3156
14.1127 73.6366
14.1577 81.2098
14.2027 79.5491
14.2476 72.1071
14.2926 68.7819
14.3376 67.8281
14.3825 67.5573
14.4275 66.8341
14.4725 66.8051
14.5175 67.1281
14.5624 66.7314
14.6074 67.3386
14.6524 67.8444
14.6974 68.4296
14.7424 70.3763
14.7874 81.9238
14.8324 111.825
14.8774 119.071
14.9224 106.583
14.9674 110.361
15.0124 145.841
15.0574 206.691
15.1024 175.859
15.1474 94.8108
15.1924 72.7719
15.2374 68.6281
15.2824 66.9971
15.3274 65.8359
15.3725 65.2202
15.4175 65.0234
15.4625 64.4474
15.5076 64.2286
15.5526 64.0835
15.5976 64.4585
15.6426 65.8518
15.6877 74.5174
15.7327 99.146
15.7778 107.783
15.8228 96.3386
15.8679 95.459
15.9129 113.428
15.958 167.368
16.003 179.211
16.0481 111.979
16.0931 72.8633
16.1382 63.583
16.1833 60.1538
16.2283 58.1681
16.2734 57.1603
16.3185 56.5082
16.3636 55.6139
16.4086 54.8234
16.4537 54.6872
16.4988 54.0171
16.5439 53.6993
16.589 53.4307
16.6341 53.4781
16.6792 52.8441
16.7243 53.0673
16.7694 52.9374
16.8145 52.9056
16.8596 53.2107
16.9047 54.0487
16.9498 55.1068
16.9949 54.67
17.04 54.4934
17.0851 56.1468
17.1302 60.8499
17.1754 63.7354
17.2205 62.2228
17.2656 61.1221
17.3108 63.5696
17.3559 70.2767
17.401 80.9778
17.4462 76.8134
17.4913 63.6063
17.5365 58.2416
17.5815 57.6978
17.6268 57.8479
17.6718 58.3831
17.7171 58.9947
17.7622 60.5017
17.8074 61.8461
17.8525 63.2792
17.8977 72.2679
17.9428 85.531
17.9881 86.9626
18.0331 81.1421
18.0784 81.2463
18.1237 91.5675
18.1688 121.84
18.214 151.777
18.2591 128.347
18.3044 88.8617
18.3495 77.1952
18.3948 81.2076
18.4399 94.9789
18.4852 102.509
18.5303 85.3736
18.5756 67.7731
18.6207 62.147
18.666 60.3444
18.7112 59.0137
18.7565 58.0907
18.8016 57.558
18.8469 56.9464
18.892 56.6577
18.9374 56.2307
18.9825 56.0063
19.0278 55.7097
19.073 55.6597
19.1183 56.471
19.1635 59.2191
19.2088 61.4396
19.254 60.7471
19.2993 59.7386
19.3447 61.0185
19.3898 63.0272
19.4352 68.4506
19.4804 73.691
19.5257 68.5038
19.5709 58.1553
19.6163 53.7157
19.6615 52.9924
19.7068 52.4108
19.752 52.3121
19.7974 52.2417
19.8426 53.8944
19.888 56.2863
19.9332 57.4915
19.9786 56.5734
20.0238 55.5061
20.0692 57.3333
20.1144 61.3057
20.1598 67.9446
20.205 71.1545
20.2504 67.0577
20.2957 58.9067
20.3411 56.7395
20.3863 59.6601
20.4318 64.3566
20.477 62.2334
20.5224 55.0362
20.5677 50.7385
20.6131 49.4573
20.6586 48.7032
20.7038 48.6073
20.7493 48.6518
20.7945 48.7193
20.84 48.5662
20.8853 48.119
20.9307 47.5885
20.976 47.8958
21.0215 48.1951
21.0668 48.4749
21.1122 48.2874
21.1575 48.013
21.203 47.864
21.2483 48.2688
21.2938 49.1794
21.3391 50.1529
21.3846 50.2369
21.4299 49.0676
21.4754 48.094
21.5207 47.7386
21.5662 47.9216
21.6116 48.5482
21.6571 50.5999
21.7024 52.5258
21.7479 53.1323
21.7933 52.0661
21.8388 52.1654
21.8843 54.0034
21.9297 56.4198
21.9752 60.9212
22.0206 65.2628
22.0661 62.6322
22.1115 56.2877
22.157 53.3042
22.2024 54.6471
22.248 55.446
22.2933 53.3958
22.3389 50.078
22.3843 48.4938
22.4299 47.8578
22.4753 48.0
22.5208 47.602
22.5662 47.8672
22.6118 47.9663
22.6572 47.9938
22.7028 49.5185
22.7483 50.8548
22.7939 51.1258
22.8393 50.4923
22.8849 50.1007
22.9303 50.1253
22.9759 51.1732
23.0214 52.9449
23.067 56.7445
23.1126 57.5237
23.1581 54.0688
23.2037 50.0331
23.2492 48.7589
23.2948 48.8843
23.3403 50.5617
23.3859 51.3871
23.4314 50.7223
23.477 49.7422
23.5225 49.3367
23.5682 49.7962
23.6137 51.217
23.6593 54.1605
23.7048 57.1953
23.7505 55.9363
23.796 50.5848
23.8417 46.866
23.8872 45.3385
23.9329 44.9118
23.9784 44.5465
24.0241 44.3041
24.0697 43.951
24.1154 43.5433
24.1609 43.3855
24.2066 43.1091
24.2522 43.0738
24.2979 42.7415
24.3434 42.7067
24.3892 42.5688
24.4349 42.438
24.4805 42.0898
24.5262 42.2158
24.5718 41.985
24.6175 42.1062
24.6631 42.3489
24.7089 42.1768
24.7545 42.0321
24.8002 41.6462
24.8458 41.8218
24.8916 41.7368
24.9372 41.8917
24.983 42.0503
25.0286 42.1089
25.0744 42.4262
25.12 42.5691
25.1658 42.8428
25.2114 42.7391
25.2572 43.3714
25.3029 43.7596
25.3487 43.4881
25.3943 43.0742
25.4402 43.712
25.4858 44.2962
25.5316 43.4811
25.5773 41.6496
25.6231 40.7252
25.669 40.1969
25.7147 40.0811
25.7605 39.9816
25.8062 40.2923
25.8521 40.3998
25.8977 40.2352
25.9436 40.0037
25.9893 39.9526
26.0352 39.9005
26.0809 39.8488
26.1268 40.1835
26.1725 40.709
26.2184 41.4284
26.2641 41.2501
26.31 40.654
26.3557 40.3778
26.4017 40.0812
26.4474 40.083
26.4933 40.0025
26.5391 40.0813
26.585 40.0719
26.6308 40.2531
26.6767 40.3535
26.7225 41.0046
26.7684 41.8264
26.8142 41.5352
26.8601 40.7972
26.9059 40.1105
26.9519 39.8702
26.9979 39.6621
27.0437 39.022
27.0896 38.4682
27.1354 38.4129
27.1814 38.2859
27.2272 38.2268
27.2732 38.3305
27.3191 37.9735
27.3651 37.8962
27.4109 37.7467
27.4569 37.763
27.5027 37.6508
27.5488 37.6717
27.5946 37.6895
27.6407 37.9597
27.6865 38.0604
27.7326 38.1903
27.7784 37.9914
27.8245 37.6747
27.8703 37.5783
27.9164 37.5742
27.9623 37.4979
28.0084 37.6285
28.0543 37.6496
28.1003 37.6404
28.1462 38.0735
28.1923 38.5398
28.2384 38.3325
28.2843 37.8017
28.3304 37.4484
28.3764 37.0943
28.4225 36.7281
28.4684 36.29
28.5145 35.6938
28.5605 35.6017
28.6066 35.2992
28.6526 35.4011
28.6987 35.2368
28.7447 34.9541
28.7908 34.7988
28.8368 34.7162
28.8829 34.6744
28.9289 34.6065
28.9751 34.5487
29.0211 34.684
29.0673 34.5173
29.1133 34.4444
29.1595 34.1274
29.2055 33.8673
29.2517 33.8191
29.2977 33.7092
29.3439 33.591
29.3899 33.3703
29.4361 33.3534
29.4824 33.4897
29.5284 33.3999
29.5746 33.3441
29.6207 33.0865
29.6669 32.7594
29.713 32.4403
29.7593 32.3273
29.8053 32.3815
29.8516 32.4355
29.8977 32.3237
29.9439 32.1602
29.99 32.0917
30.0363 32.0931
30.0824 31.9679
30.1287 31.8548
30.1748 31.879
30.2211 31.7622
30.2673 31.5945
30.3136 31.9525
30.3597 32.0027
30.406 31.9458
30.4522 31.7976
30.4985 31.6031
30.5447 31.6068
30.591 31.4121
30.6372 31.4525
30.6835 31.4066
30.7297 31.4675
30.7761 31.422
30.8224 31.6114
30.8686 31.762
30.915 31.5402
30.9612 31.3146
31.0076 31.0501
31.0538 31.038
31.1002 30.8724
31.1464 30.6554
31.1928 30.4918
31.2391 30.5562
31.2855 30.4889
31.3317 30.3324
31.3781 30.3254
31.4244 30.2081
31.4708 30.1652
31.5171 30.232
31.5636 30.2972
31.6098 30.3012
31.6563 30.3222
31.7026 30.1414
31.7491 29.8533
31.7953 29.6734
31.8418 29.693
31.8881 29.6703
31.9346 29.5868
31.9809 29.4322
32.0275 29.3375
32.074 29.4303
32.1203 29.3815
32.1668 29.3065
32.2132 29.1179
32.2597 28.9287
32.306 28.9387
32.3526 28.5367
32.399 28.5413
32.4455 28.4266
32.4919 28.3292
32.5385 28.287
32.5848 28.0919
32.6314 28.0816
32.6778 27.9922
32.7244 27.8503
32.7708 27.7353
32.8174 27.7817
32.8638 27.6703
32.9104 27.7321
32.9569 27.5847
33.0035 27.4145
33.0499 27.5045
33.0966 27.2363
33.143 27.2479
33.1897 27.1712
33.2361 27.0755
33.2828 27.0903
33.3293 26.9941
33.3759 26.9899
33.4226 26.8974
33.4691 26.8268
33.5158 26.8278
33.5623 26.6092
33.609 26.4811
33.6555 26.3382
33.7022 26.1209
33.7487 26.0738
33.7954 25.9973
33.842 25.9869
33.8887 25.9545
33.9353 25.7969
33.982 25.7313
34.0286 25.7127
34.0753 25.6731
34.1219 25.5044
34.1687 25.3902
34.2152 25.3319
34.262 25.1971
34.3086 25.1372
34.3554 25.1189
34.402 24.9718
34.4488 24.8441
34.4954 24.9603
34.5422 24.7855
34.5889 24.6723
34.6357 24.5309
34.6825 24.5242
34.7292 24.4208
34.776 24.2786
34.8227 24.317
34.8695 24.1964
34.9162 24.1236
34.9631 24.1021
35.0098 24.0714
35.0566 23.9954
35.1033 23.9042
35.1502 23.8578
35.1969 23.8022
35.2438 23.7016
35.2906 23.6455
35.3375 23.6537
35.3842 23.5209
35.4311 23.5376
35.4779 23.5306
35.5248 23.461
35.5716 23.3992
35.6185 23.3582
35.6653 23.3079
35.7123 23.2752
35.759 23.1561
35.806 23.0764
35.8528 22.9882
35.8998 22.9005
35.9468 22.6964
35.9936 22.6997
36.0406 22.6338
36.0874 22.6109
36.1345 22.5542
36.1813 22.5143
36.2283 22.3222
36.2752 22.3209
36.3222 22.2876
36.3691 22.2074
36.4161 22.1153
36.463 22.0626
36.5101 22.0699
36.557 21.9408
36.6041 21.8267
36.651 21.7861
36.6981 21.7959
36.745 21.7313
36.7921 21.6691
36.839 21.5449
36.8861 21.4468
36.9331 21.3642
36.9802 21.3293
37.0272 21.1968
37.0743 21.1759
37.1213 21.0923
37.1684 21.0815
37.2154 20.8962
37.2626 20.8535
37.3098 20.8842
37.3568 20.8725
37.404 20.8373
37.451 20.6793
37.4982 20.6406
37.5452 20.5745
37.5924 20.4416
37.6395 20.5209
37.6867 20.3565
37.7337 20.2794
37.781 20.2543
37.8281 20.1875
37.8753 20.1104
37.9224 20.0266
37.9697 19.9192
38.0168 19.9098
38.064 19.8068
38.1111 19.8021
38.1584 19.7238
38.2056 19.5968
38.2529 19.5722
38.3 19.4409
38.3473 19.4855
38.3945 19.3675
38.4418 19.4141
38.489 19.2833
38.5363 19.2439
38.5837 19.1337
38.6309 19.0762
38.6782 19.0307
38.7254 18.947
38.7728 18.9058
38.82 18.7884
38.8674 18.7648
38.9146 18.772
38.9621 18.6426
39.0093 18.6315
39.0567 18.5639
39.104 18.561
39.1514 18.4229
39.1987 18.3973
39.2461 18.3263
39.2934 18.2434
39.3409 18.1993
39.3882 18.1075
39.4356 18.0897
39.483 18.0027
39.5304 17.944
39.5778 17.9793
39.6253 17.94
39.6726 17.8362
39.7201 17.775
39.7675 17.7257
39.815 17.6295
39.8624 17.5373
39.9099 17.5663
39.9575 17.4793
40.0049 17.4039
40.0525 17.3712
40.0999 17.2934
40.1474 17.3037
40.1949 17.1805
40.2425 17.1472
40.2899 17.1629
40.3375 16.9996
40.385 17.0167
40.4326 16.9681
40.48 16.8441
40.5277 16.8327
40.5752 16.7537
40.6228 16.7021
40.6703 16.6726
40.718 16.6277
40.7655 16.5594
40.8132 16.5329
40.8607 16.4532
40.9084 16.4381
40.9559 16.3645
41.0036 16.3087
41.0512 16.2579
41.0989 16.2434
41.1465 16.1589
41.1942 16.1664
41.242 15.9728
41.2896 16.0122
41.3373 15.879
41.3849 15.904
41.4327 15.8109
41.4803 15.8557
41.5281 15.7449
41.5758 15.6469
41.6236 15.6413
41.6712 15.5591
41.7191 15.5221
41.7667 15.491
41.8146 15.4292
41.8622 15.3389
41.9101 15.3137
41.9578 15.2012
42.0057 15.1893
42.0534 15.1387
42.1013 15.1411
42.149 15.0472
42.1969 14.9556
42.2446 14.9552
42.2925 14.8648
42.3403 14.8551
42.3882 14.8415
42.436 14.8052
42.4839 14.6638
42.5319 14.6309
42.5797 14.6231
42.6277 14.5523
42.6755 14.4851
42.7235 14.4724
42.7713 14.4051
42.8193 14.4235
42.8671 14.2701
42.9152 14.2716
42.963 14.2185
43.0111 14.1504
43.0589 14.1592
43.107 14.0466
43.1549 14.0015
43.2029 13.9218
43.2508 13.9447
43.2989 13.869
43.3468 13.8027
43.3949 13.8518
43.4429 13.734
43.491 13.6799
43.5389 13.6438
43.5871 13.6534
43.635 13.5816
43.6832 13.4933
43.7312 13.4164
43.7793 13.3705
43.8273 13.3763
43.8755 13.2623
43.9237 13.2864
43.9717 13.2432
44.0199 13.2107
44.068 13.1272
44.1162 13.0455
44.1642 13.0488
44.2125 12.974
44.2606 12.9564
44.3088 12.8619
44.3569 12.8458
44.4052 12.8283
44.4533 12.7822
44.5016 12.7186
44.5497 12.674
44.598 12.6835
44.6461 12.6131
44.6945 12.5345
44.7426 12.5332
44.791 12.4637
44.8391 12.412
44.8875 12.388
44.9357 12.3422
44.984 12.2739
45.0322 12.1996
45.0806 12.1778
45.1288 12.1668
45.1773 12.0707
45.2257 12.0955
45.2739 12.0587
45.3224 11.97
45.3706 11.9329
45.4191 11.8946
45.4673 11.845
45.5158 11.8361
45.5641 11.7494
45.6126 11.751
45.6609 11.6604
45.7094 11.6253
45.7577 11.6326
45.8063 11.5122
45.8546 11.5707
45.9031 11.4782
45.9515 11.4378
46.0001 11.3867
46.0484 11.384
46.097 11.3268
46.1454 11.3382
46.194 11.2147
46.2424 11.2036
46.291 11.1548
46.3395 11.1334
46.3881 11.0526
46.4365 11.034
46.4852 10.9925
46.5337 10.9416
46.5823 10.921
46.631 10.8678
46.6795 10.8673
46.7282 10.8324
46.7767 10.7542
46.8254 10.6996
46.8739 10.7006
46.9226 10.6566
46.9712 10.575
47.0199 10.5586
47.0685 10.5144
47.1173 10.4573
47.1658 10.4642
47.2146 10.4267
47.2632 10.3345
47.312 10.3331
47.3606 10.2839
47.4095 10.2719
47.4581 10.2081
47.5069 10.1558
47.5556 10.1207
47.6044 10.1181
47.6531 10.0434
47.702 9.98348
47.7507 10.0095
47.7996 9.9785
47.8483 9.92123
47.8972 9.89463
47.9461 9.83582
47.9948 9.7806
48.0438 9.76155
48.0925 9.77585
48.1415 9.71719
48.1902 9.65819
48.2392 9.63355
48.288 9.62772
48.337 9.53994
48.3858 9.49862
48.4348 9.51365
48.4837 9.4701
48.5327 9.45994
48.5815 9.41834
48.6306 9.35604
48.6795 9.35326
48.7285 9.28963
48.7774 9.24508
48.8265 9.22661
48.8754 9.18328
48.9245 9.17928
48.9734 9.12881
49.0226 9.08356
49.0715 9.04233
49.1206 9.02262
49.1696 9.01557
49.2188 8.97401
49.2679 8.93625
49.3169 8.86911
49.3661 8.85683
49.4151 8.7891
49.4643 8.78876
49.5134 8.73433
49.5626 8.702
49.6117 8.70932
49.6609 8.68223
49.71 8.60291
49.7592 8.58886
49.8083 8.55657
49.8576 8.55003
49.9067 8.46369
49.956 8.45606
50.0052 8.40851
50.0545 8.41784
50.1036 8.35705
50.153 8.38015
50.2022 8.29157
50.2515 8.25607
50.3007 8.23116
50.3501 8.16282
50.3993 8.15284
50.4487 8.15661
50.498 8.11172
50.5474 8.08071
50.5966 8.0236
50.6461 8.02324
50.6955 8.00427
50.7448 7.96948
50.7943 7.94656
50.8436 7.88199
50.8931 7.87458
50.9424 7.80421
50.9919 7.80208
51.0413 7.79467
51.0908 7.76729
51.1402 7.711
51.1897 7.67674
51.2391 7.68214
51.2887 7.62652
51.3381 7.56491
51.3877 7.56573
51.4371 7.52798
51.4867 7.47232
51.5362 7.48744
51.5858 7.43159
51.6353 7.38311
51.6849 7.40234
51.7344 7.37909
51.7841 7.30967
51.8336 7.26679
51.8833 7.26543
51.9328 7.22248
51.9826 7.16419
52.0323 7.16848
52.0818 7.15262
52.1316 7.12691
52.1812 7.09555
52.231 7.03466
52.2806 6.97122
52.3304 6.97631
52.38 6.94695
52.4298 6.91302
52.4794 6.89681
52.5293 6.87662
52.5789 6.86746
52.6288 6.8194
52.6785 6.79377
52.7284 6.74666
52.7781 6.70081
52.828 6.70017
52.8777 6.67528
52.9276 6.64191
52.9774 6.62307
53.0273 6.61129
53.0771 6.56534
53.1271 6.49689
53.1769 6.50547
53.2269 6.49925
53.2767 6.44927
53.3267 6.43223
53.3765 6.37656
53.4266 6.38376
53.4766 6.33059
53.5265 6.29809
53.5765 6.29274
53.6264 6.24591
53.6765 6.2246
53.7264 6.23402
53.7765 6.1996
53.8265 6.15162
53.8766 6.10451
53.9266 6.09431
53.9767 6.09519
54.0267 6.01957
54.0769 5.98634
54.1269 5.9675
54.1771 5.90772
54.2271 5.88231
54.2773 5.85036
54.3274 5.81527
54.3776 5.76196
54.4277 5.77054
54.478 5.68857
54.528 5.64168
54.5783 5.60749
54.6285 5.59187
54.6788 5.5294
54.7289 5.43982
54.7792 5.44899
54.8296 5.42531
54.8798 5.33524
54.9301 5.32438
54.9803 5.29938
55.0307 5.2423
55.0809 5.19259
55.1314 5.17913
55.1816 5.09921
55.232 5.0551
55.2823 5.01921
55.3328 4.94002
55.383 4.8718
55.4335 4.83349
55.4838 4.8155
55.5344 4.75732
55.5847 4.72691
55.6352 4.69107
55.6856 4.66004
55.7361 4.64483