File: XRD/Ni3Fe_FD0032.xy
TT I
1.27165 32.4773
1.31627 32.0132
1.36089 31.5071
1.40551 28.913
1.45013 27.8185
1.49476 26.9417
1.53938 25.9951
1.584 24.7859
1.62863 24.8892
1.67325 24.2338
1.71787 22.4579
1.7625 22.6306
1.80712 23.0043
1.85174 22.408
1.89636 22.1618
1.94099 22.7402
1.98562 22.6067
2.03025 22.7482
2.07487 23.2491
2.11949 23.4008
2.16411 24.3557
2.20874 24.9961
2.25338 25.3692
2.298 25.6175
2.34263 24.4385
2.38725 23.4458
2.43188 23.797
2.4765 24.3102
2.52115 23.8881
2.56577 24.7091
2.6104 24.8243
2.65503 26.1337
2.69965 27.3246
2.7443 29.2025
2.78893 31.6037
2.83356 33.7985
2.87818 37.2496
2.92281 41.5743
2.96744 47.2621
3.01209 55.4504
3.05672 64.1549
3.10135 75.0182
3.14599 79.9226
3.19062 79.668
3.23527 72.9719
3.2799 62.324
3.32454 51.7281
3.36917 44.3115
3.4138 38.3872
3.45844 36.2099
3.50309 35.4694
3.54773 35.0494
3.59237 37.271
3.637 39.7511
3.68164 40.8154
3.7263 39.0532
3.77094 36.3062
3.81558 34.1617
3.86022 33.3692
3.90486 33.3605
3.9495 33.9577
3.99416 34.3382
4.0388 36.8538
4.08344 40.1559
4.12809 44.7196
4.17273 52.9749
4.21738 65.0021
4.26204 79.8316
4.30669 86.9203
4.35133 80.5979
4.39598 68.0638
4.44063 60.882
4.4853 56.2438
4.52995 52.1994
4.5746 48.0205
4.61925 45.8856
4.6639 45.1092
4.70855 45.3654
4.75322 47.3956
4.79788 49.089
4.84253 53.0167
4.88719 57.3182
4.93184 63.3477
4.97652 72.9539
5.02118 89.268
5.06583 114.139
5.11049 141.84
5.15515 190.917
5.19981 296.573
5.24449 619.2
5.28916 1298.45
5.33382 3440.9
5.37848 3515.61
5.42315 1022.48
5.46783 344.722
5.5125 206.785
5.55716 154.424
5.60183 125.871
5.6465 113.043
5.69117 106.93
5.73586 100.898
5.78053 96.7785
5.8252 97.4612
5.86988 102.978
5.91455 113.754
5.95924 133.881
6.00392 180.674
6.0486 291.574
6.09328 496.777
6.13795 888.783
6.18263 1283.32
6.22733 682.397
6.27201 282.291
6.3167 155.89
6.36138 105.27
6.40606 82.0445
6.45075 70.3728
6.49545 62.4048
6.54014 57.8447
6.58483 55.5056
6.62952 55.4202
6.67421 56.0648
6.71892 57.9452
6.76361 56.8268
6.8083 53.7121
6.853 50.3396
6.89769 47.0391
6.94239 44.8672
6.98711 42.9604
7.03181 42.614
7.07651 42.7994
7.12121 43.6376
7.16591 46.409
7.21063 50.3307
7.25533 57.844
7.30004 69.9264
7.34475 74.2507
7.38945 65.5806
7.43416 54.9106
7.47889 50.3578
7.5236 53.743
7.56831 102.753
7.61303 148.375
7.65774 68.5952
7.70247 44.1234
7.74719 39.8103
7.79191 38.1527
7.83663 37.4615
7.88135 37.3238
7.92607 37.804
7.97081 38.0842
8.01553 38.4979
8.06026 39.5145
8.10498 40.5092
8.14971 42.2176
8.19446 43.694
8.23919 45.3049
8.28392 46.9796
8.32865 49.1029
8.37339 53.2102
8.41812 58.3388
8.46288 67.4469
8.50761 81.5905
8.55235 112.633
8.59709 173.823
8.64183 234.784
8.68658 437.778
8.73134 785.097
8.77609 568.673
8.82083 238.325
8.86558 124.954
8.91033 91.7755
8.9551 77.4732
8.99985 70.495
9.04461 65.4202
9.08936 62.0771
9.13412 60.457
9.17888 61.7224
9.22365 70.5398
9.26841 139.951
9.31318 256.369
9.35794 135.404
9.4027 68.2987
9.44749 57.3641
9.49226 54.6901
9.53703 53.5166
9.5818 53.6563
9.62657 53.9932
9.67134 55.1767
9.71614 56.1371
9.76091 57.6528
9.80569 59.6117
9.85047 62.3788
9.89525 67.2491
9.94005 73.6153
9.98484 84.5781
10.0296 107.652
10.0744 151.851
10.1192 193.711
10.164 272.805
10.2088 561.48
10.2536 805.694
10.2984 467.944
10.3432 209.956
10.388 121.315
10.4328 92.5171
10.4776 84.1619
10.5224 88.7202
10.5672 94.3153
10.612 107.531
10.6568 174.11
10.7017 280.888
10.7465 240.098
10.7913 125.807
10.8361 69.3403
10.8809 54.9465
10.9257 49.44
10.9706 47.2304
11.0154 45.6214
11.0602 44.9235
11.105 44.1048
11.1499 43.3044
11.1947 43.2858
11.2395 43.5178
11.2844 42.9472
11.3292 42.0509
11.374 40.6167
11.4189 39.6249
11.4637 38.9579
11.5086 38.5744
11.5534 38.6108
11.5983 38.9553
11.6431 38.7177
11.688 37.9943
11.7328 37.5628
11.7777 37.4189
11.8225 37.4726
11.8674 38.1994
11.9122 40.403
11.9571 48.4414
12.002 78.5885
12.0468 88.385
12.0917 57.3797
12.1366 47.2302
12.1814 48.2634
12.2263 50.9681
12.2712 58.5455
12.3161 76.3333
12.3609 95.5728
12.4058 83.8969
12.4507 60.2385
12.4956 49.1547
12.5405 44.1065
12.5853 42.2819
12.6302 41.5842
12.6751 42.0832
12.72 42.1604
12.7649 42.1115
12.8098 40.9682
12.8547 40.2273
12.8996 40.0851
12.9445 40.4823
12.9894 41.0381
13.0343 41.8304
13.0792 43.8132
13.1242 48.8389
13.1691 59.5454
13.214 63.6072
13.2589 66.4495
13.3038 71.2059
13.3487 78.9665
13.3937 104.734
13.4386 166.807
13.4835 220.147
13.5285 170.945
13.5734 110.713
13.6183 88.6559
13.6633 81.2133
13.7082 84.3943
13.7531 110.136
13.7981 175.055
13.843 202.136
13.888 133.068
13.9329 78.0148
13.9779 58.3566
14.0228 50.6078
14.0678 47.0698
14.1127 46.4744
14.1577 50.2563
14.2027 71.0166
14.2476 86.8135
14.2926 63.2927
14.3376 46.4116
14.3825 42.1875
14.4275 40.4656
14.4725 39.9102
14.5175 39.4131
14.5624 39.0503
14.6074 39.1109
14.6524 39.4934
14.6974 39.4947
14.7424 40.0775
14.7874 40.5074
14.8324 42.1153
14.8774 45.3181
14.9224 49.1945
14.9674 51.114
15.0124 54.1427
15.0574 64.4875
15.1024 89.8679
15.1474 121.917
15.1924 113.836
15.2374 78.9148
15.2824 57.1037
15.3274 47.8593
15.3725 43.6681
15.4175 41.7487
15.4625 40.5264
15.5076 39.7809
15.5526 39.4053
15.5976 39.3364
15.6426 39.1663
15.6877 39.4898
15.7327 40.3457
15.7778 42.9457
15.8228 46.2617
15.8679 48.4097
15.9129 49.9718
15.958 56.934
16.003 72.8489
16.0481 104.464
16.0931 121.279
16.1382 101.721
16.1833 73.6872
16.2283 52.6333
16.2734 43.1024
16.3185 39.1728
16.3636 37.3123
16.4086 36.16
16.4537 35.262
16.4988 34.5713
16.5439 34.049
16.589 33.2794
16.6341 33.0096
16.6792 32.5251
16.7243 32.725
16.7694 32.5334
16.8145 32.4874
16.8596 32.8436
16.9047 33.0634
16.9498 34.1865
16.9949 37.6651
17.04 40.4146
17.0851 37.6027
17.1302 34.7708
17.1754 34.1018
17.2205 34.4971
17.2656 34.6671
17.3108 35.2347
17.3559 35.6642
17.401 37.7606
17.4462 42.1263
17.4913 48.9114
17.5365 50.6006
17.5815 44.4188
17.6268 39.1101
17.6718 36.6111
17.7171 35.8853
17.7622 36.1133
17.8074 37.8535
17.8525 41.3541
17.8977 42.3663
17.9428 40.2554
17.9881 40.3121
18.0331 42.253
18.0784 43.1556
18.1237 44.0207
18.1688 46.8982
18.214 54.6425
18.2591 70.7144
18.3044 92.973
18.3495 94.4792
18.3948 73.4877
18.4399 58.3655
18.4852 55.3546
18.5303 61.993
18.5756 70.8904
18.6207 69.3653
18.666 57.4361
18.7112 47.5302
18.7565 40.8976
18.8016 37.9653
18.8469 36.5623
18.892 35.6672
18.9374 35.1156
18.9825 34.587
19.0278 34.4066
19.073 34.1176
19.1183 34.1588
19.1635 34.2058
19.2088 34.6014
19.254 35.2004
19.2993 35.8533
19.3447 37.3786
19.3898 41.3702
19.4352 46.4093
19.4804 46.9211
19.5257 45.0671
19.5709 47.1233
19.6163 47.5994
19.6615 42.864
19.7068 37.6802
19.752 34.9616
19.7974 33.6763
19.8426 33.0571
19.888 32.5096
19.9332 32.5927
19.9786 32.8462
20.0238 32.9463
20.0692 32.9912
20.1144 33.1816
20.1598 34.0807
20.205 35.7112
20.2504 39.0254
20.2957 43.7161
20.3411 45.9397
20.3863 42.9284
20.4318 39.2721
20.477 38.9605
20.5224 41.6252
20.5677 43.7127
20.6131 41.1543
20.6586 36.3357
20.7038 33.4148
20.7493 32.0011
20.7945 31.5604
20.84 32.4065
20.8853 33.7884
20.9307 33.4878
20.976 31.2083
21.0215 29.9536
21.0668 29.4409
21.1122 29.4042
21.1575 29.3515
21.203 29.3352
21.2483 29.3285
21.2938 29.4096
21.3391 29.4455
21.3846 29.9242
21.4299 30.935
21.4754 32.2604
21.5207 32.4683
21.5662 31.8109
21.6116 30.9266
21.6571 30.1233
21.7024 30.0026
21.7479 30.2353
21.7933 30.7165
21.8388 31.0579
21.8843 31.3386
21.9297 31.7972
21.9752 32.69
22.0206 34.5284
22.0661 37.2589
22.1115 42.0003
22.157 45.8698
22.2024 45.5809
22.248 42.2643
22.2933 40.2462
22.3389 38.9033
22.3843 38.4568
22.4299 36.5919
22.4753 33.9178
22.5208 32.2894
22.5662 31.1206
22.6118 30.8134
22.6572 30.3425
22.7028 30.188
22.7483 30.1052
22.7939 30.5093
22.8393 31.0825
22.8849 31.9484
22.9303 32.2219
22.9759 31.969
23.0214 31.5346
23.067 32.1307
23.1126 33.1883
23.1581 35.8526
23.2037 39.6978
23.2492 41.0888
23.2948 38.2594
23.3403 34.7247
23.3859 32.8143
23.4314 32.1635
23.477 32.6822
23.5225 33.6214
23.5682 34.022
23.6137 33.2832
23.6593 32.5385
23.7048 33.2058
23.7505 34.8483
23.796 38.1677
23.8417 41.6522
23.8872 41.2175
23.9329 37.2253
23.9784 33.1574
24.0241 30.8422
24.0697 29.8527
24.1154 29.3024
24.1609 29.1103
24.2066 28.6461
24.2522 28.2436
24.2979 27.6618
24.3434 27.464
24.3892 27.2429
24.4349 27.0996
24.4805 26.9542
24.5262 26.9562
24.5718 26.6248
24.6175 26.8641
24.6631 27.0242
24.7089 27.2807
24.7545 27.8835
24.8002 28.0661
24.8458 27.7158
24.8916 27.0897
24.9372 26.8104
24.983 26.6429
25.0286 26.4902
25.0744 26.4454
25.12 26.4997
25.1658 26.4802
25.2114 26.7453
25.2572 27.0958
25.3029 27.464
25.3487 28.2397
25.3943 28.9496
25.4402 29.4925
25.4858 29.7651
25.5316 29.666
25.5773 30.2765
25.6231 31.2948
25.669 30.7431
25.7147 29.2338
25.7605 27.7232
25.8062 26.8192
25.8521 26.6498
25.8977 26.6044
25.9436 26.874
25.9893 26.6498
26.0352 26.3619
26.0809 25.8526
26.1268 25.786
26.1725 25.802
26.2184 25.881
26.2641 26.2473
26.31 26.9436
26.3557 27.8119
26.4017 28.2268
26.4474 27.959
26.4933 27.068
26.5391 26.5591
26.585 26.2292
26.6308 26.0867
26.6767 26.1307
26.7225 26.1295
26.7684 26.4773
26.8142 26.9274
26.8601 27.658
26.9059 28.8861
26.9519 29.599
26.9979 29.6362
27.0437 29.1446
27.0896 28.8446
27.1354 28.1506
27.1814 27.1122
27.2272 26.1333
27.2732 25.6661
27.3191 25.1545
27.3651 25.0939
27.4109 24.8137
27.4569 24.8584
27.5027 24.723
27.5488 24.7738
27.5946 24.8861
27.6407 24.8122
27.6865 24.9197
27.7326 24.8715
27.7784 25.2067
27.8245 25.4911
27.8703 25.4835
27.9164 25.3658
27.9623 24.9198
28.0084 24.7585
28.0543 25.044
28.1003 25.2869
28.1462 25.5627
28.1923 25.7719
28.2384 25.6948
28.2843 26.1006
28.3304 27.0013
28.3764 27.4532
28.4225 27.2706
28.4684 26.7956
28.5145 26.205
28.5605 25.9226
28.6066 25.4579
28.6526 24.9243
28.6987 24.5212
28.7447 23.8796
28.7908 23.5134
28.8368 23.3388
28.8829 23.122
28.9289 23.0631
28.9751 22.9806
29.0211 22.9003
29.0673 22.8323
29.1133 22.8978
29.1595 23.0566
29.2055 23.2854
29.2517 23.225
29.2977 23.0653
29.3439 22.6073
29.3899 22.4396
29.4361 22.2018
29.4824 22.1028
29.5284 22.0757
29.5746 22.0982
29.6207 22.1475
29.6669 22.3507
29.713 22.5827
29.7593 22.5588
29.8053 22.3857
29.8516 21.9028
29.8977 21.625
29.9439 21.4655
29.99 21.4139
30.0363 21.3427
30.0824 21.3953
30.1287 21.3645
30.1748 21.4576
30.2211 21.4702
30.2673 21.2964
30.3136 21.2367
30.3597 21.2099
30.406 21.2012
30.4522 21.2163
30.4985 21.2851
30.5447 21.5081
30.591 21.3712
30.6372 21.2872
30.6835 21.0689
30.7297 21.1481
30.7761 21.1413
30.8224 21.0323
30.8686 21.194
30.915 21.3507
30.9612 21.5945
31.0076 21.9657
31.0538 22.177
31.1002 22.1449
31.1464 21.9623
31.1928 21.8333
31.2391 21.6016
31.2855 21.2201
31.3317 20.9723
31.3781 20.8031
31.4244 20.6103
31.4708 20.5204
31.5171 20.527
31.5636 20.4669
31.6098 20.4849
31.6563 20.5639
31.7026 20.6657
31.7491 20.7814
31.7953 20.9646
31.8418 21.1087
31.8881 21.0179
31.9346 20.7033
31.9809 20.376
32.0275 20.2394
32.074 20.2481
32.1203 20.2166
32.1668 20.444
32.2132 20.3443
32.2597 20.5094
32.306 20.631
32.3526 20.4829
32.399 20.3266
32.4455 20.0502
32.4919 19.8813
32.5385 19.6696
32.5848 19.5297
32.6314 19.4161
32.6778 19.3394
32.7244 19.059
32.7708 18.8742
32.8174 18.9686
32.8638 18.7688
32.9104 18.9189
32.9569 18.8278
33.0035 18.849
33.0499 18.8457
33.0966 18.853
33.143 18.7656
33.1897 18.6584
33.2361 18.4714
33.2828 18.6048
33.3293 18.3685
33.3759 18.5028
33.4226 18.5266
33.4691 18.666
33.5158 18.7819
33.5623 18.7733
33.609 18.754
33.6555 18.719
33.7022 18.6018
33.7487 18.4478
33.7954 18.2171
33.842 17.9735
33.8887 17.9286
33.9353 17.8036
33.982 17.7121
34.0286 17.7308
34.0753 17.7208
34.1219 17.6148
34.1687 17.5731
34.2152 17.6716
34.262 17.4996
34.3086 17.4988
34.3554 17.4513
34.402 17.2677
34.4488 17.1483
34.4954 17.1576
34.5422 17.0674
34.5889 17.0512
34.6357 17.0166
34.6825 17.0996
34.7292 17.0132
34.776 16.9497
34.8227 16.8949
34.8695 16.7602
34.9162 16.694
34.9631 16.499
35.0098 16.574
35.0566 16.4664
35.1033 16.3632
35.1502 16.4333
35.1969 16.3155
35.2438 16.3527
35.2906 16.358
35.3375 16.357
35.3842 16.2879
35.4311 16.2204
35.4779 16.208
35.5248 16.2237
35.5716 16.1928
35.6185 16.2134
35.6653 16.2027
35.7123 16.3173
35.759 16.3569
35.806 16.4234
35.8528 16.4005
35.8998 16.4055
35.9468 16.2892
35.9936 16.1954
36.0406 16.0148
36.0874 15.9471
36.1345 15.8827
36.1813 15.7071
36.2283 15.7023
36.2752 15.5831
36.3222 15.634
36.3691 15.5237
36.4161 15.4519
36.463 15.4739
36.5101 15.4734
36.557 15.4876
36.6041 15.4047
36.651 15.3546
36.6981 15.2724
36.745 15.2026
36.7921 15.2217
36.839 15.1559
36.8861 15.1321
36.9331 15.1911
36.9802 15.0835
37.0272 15.0379
37.0743 15.0289
37.1213 14.9609
37.1684 14.8482
37.2154 14.733
37.2626 14.7028
37.3098 14.6847
37.3568 14.6195
37.404 14.6214
37.451 14.5002
37.4982 14.4477
37.5452 14.443
37.5924 14.3588
37.6395 14.394
37.6867 14.2414
37.7337 14.2564
37.781 14.1301
37.8281 14.164
37.8753 14.0623
37.9224 14.0575
37.9697 14.085
38.0168 13.9554
38.064 13.9579
38.1111 13.9664
38.1584 13.8327
38.2056 13.8359
38.2529 13.7894
38.3 13.7708
38.3473 13.648
38.3945 13.5559
38.4418 13.5497
38.489 13.4997
38.5363 13.4916
38.5837 13.485
38.6309 13.4467
38.6782 13.4165
38.7254 13.3478
38.7728 13.3668
38.82 13.2836
38.8674 13.2661
38.9146 13.1944
38.9621 13.1511
39.0093 13.1894
39.0567 13.161
39.104 13.1175
39.1514 13.0643
39.1987 13.0111
39.2461 12.957
39.2934 12.875
39.3409 12.7784
39.3882 12.7412
39.4356 12.704
39.483 12.6837
39.5304 12.6548
39.5778 12.6162
39.6253 12.5745
39.6726 12.5149
39.7201 12.4904
39.7675 12.4805
39.815 12.4607
39.8624 12.3783
39.9099 12.4365
39.9575 12.347
40.0049 12.2989
40.0525 12.3138
40.0999 12.2352
40.1474 12.2261
40.1949 12.2069
40.2425 12.248
40.2899 12.2027
40.3375 12.1588
40.385 12.0354
40.4326 12.0211
40.48 11.9746
40.5277 11.9913
40.5752 11.8883
40.6228 11.8672
40.6703 11.7825
40.718 11.8282
40.7655 11.7788
40.8132 11.7593
40.8607 11.707
40.9084 11.695
40.9559 11.6076
41.0036 11.6129
41.0512 11.5893
41.0989 11.5937
41.1465 11.5342
41.1942 11.57
41.242 11.4478
41.2896 11.3982
41.3373 11.3634
41.3849 11.3688
41.4327 11.3124
41.4803 11.2456
41.5281 11.1845
41.5758 11.157
41.6236 11.1654
41.6712 11.0587
41.7191 11.0758
41.7667 11.0189
41.8146 10.9933
41.8622 10.9861
41.9101 10.9421
41.9578 10.8959
42.0057 10.8375
42.0534 10.8553
42.1013 10.8468
42.149 10.7361
42.1969 10.7551
42.2446 10.7041
42.2925 10.688
42.3403 10.6521
42.3882 10.5649
42.436 10.5916
42.4839 10.4867
42.5319 10.5038
42.5797 10.4547
42.6277 10.3982
42.6755 10.3593
42.7235 10.3162
42.7713 10.2765
42.8193 10.3152
42.8671 10.2647
42.9152 10.2262
42.963 10.1423
43.0111 10.1262
43.0589 10.0915
43.107 10.0424
43.1549 10.0531
43.2029 9.99577
43.2508 9.95249
43.2989 9.90769
43.3468 9.91256
43.3949 9.8473
43.4429 9.84135
43.491 9.79071
43.5389 9.78003
43.5871 9.74914
43.635 9.69594
43.6832 9.64469
43.7312 9.61687
43.7793 9.59003
43.8273 9.54642
43.8755 9.52167
43.9237 9.47722
43.9717 9.50234
44.0199 9.44715
44.068 9.42713
44.1162 9.41438
44.1642 9.33676
44.2125 9.37355
44.2606 9.29442
44.3088 9.30831
44.3569 9.25396
44.4052 9.19734
44.4533 9.14527
44.5016 9.10836
44.5497 9.12202
44.598 9.09819
44.6461 9.03534
44.6945 9.07055
44.7426 9.05509
44.791 8.90978
44.8391 8.95632
44.8875 8.91496
44.9357 8.87819
44.984 8.81722
45.0322 8.84422
45.0806 8.81941
45.1288 8.78746
45.1773 8.71454
45.2257 8.71154
45.2739 8.69236
45.3224 8.62572
45.3706 8.6116
45.4191 8.54617
45.4673 8.57352
45.5158 8.56293
45.5641 8.50705
45.6126 8.48339
45.6609 8.44127
45.7094 8.43548
45.7577 8.38562
45.8063 8.30748
45.8546 8.31943
45.9031 8.29444
45.9515 8.26846
46.0001 8.26064
46.0484 8.21969
46.097 8.18901
46.1454 8.15134
46.194 8.15329
46.2424 8.12243
46.291 8.08643
46.3395 8.03782
46.3881 7.99181
46.4365 7.97427
46.4852 7.98176
46.5337 7.94988
46.5823 7.9543
46.631 7.88825
46.6795 7.85198
46.7282 7.83262
46.7767 7.806
46.8254 7.74805
46.8739 7.72733
46.9226 7.72566
46.9712 7.73234
47.0199 7.69024
47.0685 7.64517
47.1173 7.6053
47.1658 7.57173
47.2146 7.55894
47.2632 7.4804
47.312 7.49379
47.3606 7.45825
47.4095 7.40338
47.4581 7.40831
47.5069 7.39403
47.5556 7.33879
47.6044 7.32309
47.6531 7.24324
47.702 7.2565
47.7507 7.27467
47.7996 7.24614
47.8483 7.20945
47.8972 7.20104
47.9461 7.16448
47.9948 7.11549
48.0438 7.09571
48.0925 7.09919
48.1415 7.06516
48.1902 7.00288
48.2392 6.99254
48.288 6.98845
48.337 6.94749
48.3858 6.92332
48.4348 6.91266
48.4837 6.87735
48.5327 6.86501
48.5815 6.80361
48.6306 6.78524
48.6795 6.7864
48.7285 6.75606
48.7774 6.73087
48.8265 6.75018
48.8754 6.71319
48.9245 6.70713
48.9734 6.63788
49.0226 6.65226
49.0715 6.59621
49.1206 6.56592
49.1696 6.5296
49.2188 6.56242
49.2679 6.51565
49.3169 6.45053
49.3661 6.43217
49.4151 6.42421
49.4643 6.40295
49.5134 6.38557
49.5626 6.34879
49.6117 6.33115
49.6609 6.33969
49.71 6.29649
49.7592 6.25662
49.8083 6.23132
49.8576 6.23264
49.9067 6.22493
49.956 6.19504
50.0052 6.15283
50.0545 6.14243
50.1036 6.10225
50.153 6.09918
50.2022 6.07136
50.2515 6.04837
50.3007 6.00307
50.3501 5.99715
50.3993 5.99291
50.4487 5.98621
50.498 5.9622
50.5474 5.93846
50.5966 5.89351
50.6461 5.90489
50.6955 5.85728
50.7448 5.82319
50.7943 5.83816
50.8436 5.79364
50.8931 5.78393
50.9424 5.76628
50.9919 5.76913
51.0413 5.70204
51.0908 5.70435
51.1402 5.66607
51.1897 5.65205
51.2391 5.62528
51.2887 5.62957
51.3381 5.55648
51.3877 5.5735
51.4371 5.54818
51.4867 5.4999
51.5362 5.48678
51.5858 5.50241
51.6353 5.44172
51.6849 5.42728
51.7344 5.3932
51.7841 5.38151
51.8336 5.38353
51.8833 5.29215
51.9328 5.32692
51.9826 5.29111
52.0323 5.26254
52.0818 5.23708
52.1316 5.24133
52.1812 5.2181
52.231 5.23166
52.2806 5.17951
52.3304 5.18744
52.38 5.13332
52.4298 5.13473
52.4794 5.11976
52.5293 5.06673
52.5789 5.05951
52.6288 5.02974
52.6785 5.01387
52.7284 5.00229
52.7781 4.96889
52.828 4.97433
52.8777 4.93999
52.9276 4.95357
52.9774 4.92202
53.0273 4.88394
53.0771 4.8578
53.1271 4.84048
53.1769 4.82371
53.2269 4.81734
53.2767 4.7809
53.3267 4.76342
53.3765 4.74478
53.4266 4.71844
53.4766 4.68642
53.5265 4.65965
53.5765 4.65809
53.6264 4.62678
53.6765 4.64135
53.7264 4.59866
53.7765 4.62824
53.8265 4.58194
53.8766 4.5648
53.9266 4.54296
53.9767 4.4994
54.0267 4.4514
54.0769 4.46034
54.1269 4.43064
54.1771 4.39491
54.2271 4.33957
54.2773 4.31602
54.3274 4.33491
54.3776 4.31127
54.4277 4.25641
54.478 4.23674
54.528 4.23018
54.5783 4.16865
54.6285 4.13077
54.6788 4.10949
54.7289 4.07064
54.7792 4.08432
54.8296 3.95799
54.8798 4.00445
54.9301 3.96167
54.9803 3.9205
55.0307 3.91281
55.0809 3.87949
55.1314 3.84292
55.1816 3.79578
55.232 3.73942
55.2823 3.7374
55.3328 3.67284
55.383 3.61744
55.4335 3.63138
55.4838 3.55307
55.5344 3.53918
55.5847 3.51644
55.6352 3.50007
55.6856 3.48061
55.7361 3.47622