File: XRD/Ni3Fe_FD0958.xy
TT I
1.27165 6.9885
1.31627 6.88125
1.36089 6.53225
1.40551 5.03422
1.45013 6.0756
1.49476 5.86217
1.53938 5.79579
1.584 5.36142
1.62863 5.03695
1.67325 5.08141
1.71787 5.47
1.7625 4.72726
1.80712 4.77861
1.85174 4.65352
1.89636 4.70128
1.94099 5.29737
1.98562 4.51428
2.03025 4.28798
2.07487 4.58787
2.11949 4.74214
2.16411 5.19178
2.20874 12.1635
2.25338 18.1712
2.298 6.68697
2.34263 5.74338
2.38725 6.88833
2.43188 5.9896
2.4765 7.37572
2.52115 7.16724
2.56577 8.51033
2.6104 8.41228
2.65503 8.20774
2.69965 8.64282
2.7443 8.80369
2.78893 8.54502
2.83356 9.17527
2.87818 8.97491
2.92281 8.46771
2.96744 9.69233
3.01209 10.2775
3.05672 10.8388
3.10135 11.796
3.14599 13.5201
3.19062 14.435
3.23527 15.4216
3.2799 15.2773
3.32454 16.6002
3.36917 17.6114
3.4138 18.8947
3.45844 19.7999
3.50309 20.7834
3.54773 21.2464
3.59237 23.4829
3.637 75.0763
3.68164 49.5986
3.7263 25.8503
3.77094 25.6375
3.81558 26.3135
3.86022 27.9368
3.90486 28.6994
3.9495 29.6273
3.99416 30.5256
4.0388 31.9512
4.08344 33.4025
4.12809 34.8362
4.17273 36.2335
4.21738 41.7515
4.26204 197.049
4.30669 172.089
4.35133 46.6896
4.39598 44.047
4.44063 51.5556
4.4853 60.1579
4.52995 50.7166
4.5746 52.0151
4.61925 52.5963
4.6639 54.4515
4.70855 57.5583
4.75322 60.304
4.79788 63.6198
4.84253 66.6615
4.88719 71.247
4.93184 74.651
4.97652 79.5085
5.02118 85.1438
5.06583 92.5753
5.11049 102.378
5.15515 158.933
5.19981 291.977
5.24449 2535.58
5.28916 13433.1
5.33382 2793.97
5.37848 176.147
5.42315 125.005
5.46783 112.199
5.5125 105.721
5.55716 100.244
5.60183 96.4795
5.6465 94.3713
5.69117 92.6998
5.73586 90.1887
5.78053 91.2832
5.8252 90.3757
5.86988 91.836
5.91455 91.1848
5.95924 97.6365
6.00392 181.456
6.0486 842.533
6.09328 4547.33
6.13795 3113.83
6.18263 212.971
6.22733 88.0779
6.27201 80.1247
6.3167 93.6867
6.36138 76.5792
6.40606 68.1333
6.45075 66.8842
6.49545 64.6028
6.54014 63.1881
6.58483 61.8611
6.62952 61.5233
6.67421 85.9468
6.71892 121.207
6.76361 65.6548
6.8083 57.8408
6.853 57.3234
6.89769 55.9802
6.94239 55.8498
6.98711 54.8974
7.03181 54.7544
7.07651 54.2826
7.12121 54.5478
7.16591 54.9334
7.21063 54.6397
7.25533 66.9727
7.30004 146.268
7.34475 80.9161
7.38945 55.24
7.43416 53.8456
7.47889 53.2844
7.5236 53.8464
7.56831 54.4599
7.61303 55.9787
7.65774 56.0205
7.70247 55.5012
7.74719 55.6501
7.79191 55.6795
7.83663 55.8938
7.88135 57.2666
7.92607 57.4952
7.97081 58.9795
8.01553 59.8351
8.06026 61.6881
8.10498 62.7481
8.14971 71.113
8.19446 69.879
8.23919 68.5556
8.28392 70.5491
8.32865 72.9065
8.37339 76.9026
8.41812 82.8914
8.46288 105.373
8.50761 146.899
8.55235 348.253
8.59709 1174.45
8.64183 2218.22
8.68658 904.358
8.73134 153.765
8.77609 96.311
8.82083 90.434
8.86558 88.7514
8.91033 88.7296
8.9551 89.1656
8.99985 83.6719
9.04461 82.3866
9.08936 81.6617
9.13412 80.7153
9.17888 80.9392
9.22365 81.4317
9.26841 80.7211
9.31318 81.5331
9.35794 82.3248
9.4027 82.1448
9.44749 82.89
9.49226 83.5129
9.53703 84.2826
9.5818 86.3652
9.62657 90.5274
9.67134 95.3896
9.71614 91.9203
9.76091 92.3935
9.80569 95.011
9.85047 98.4239
9.89525 117.651
9.94005 126.654
9.98484 160.5
10.0296 312.391
10.0744 790.827
10.1192 1800.07
10.164 1555.48
10.2088 358.559
10.2536 122.399
10.2984 109.591
10.3432 109.838
10.388 102.055
10.4328 112.662
10.4776 151.843
10.5224 278.583
10.5672 527.578
10.612 493.894
10.6568 191.868
10.7017 94.0861
10.7465 84.869
10.7913 81.6677
10.8361 79.7006
10.8809 77.5498
10.9257 76.8279
10.9706 76.9797
11.0154 73.6017
11.0602 71.4828
11.105 70.3567
11.1499 73.7904
11.1947 78.5404
11.2395 71.8552
11.2844 68.3896
11.3292 65.8848
11.374 65.0824
11.4189 64.4436
11.4637 63.7204
11.5086 64.2316
11.5534 66.0075
11.5983 64.1142
11.6431 62.2468
11.688 61.9815
11.7328 61.8399
11.7777 61.8987
11.8225 61.5181
11.8674 61.4013
11.9122 61.7192
11.9571 61.5616
12.002 62.1185
12.0468 65.8166
12.0917 75.6459
12.1366 100.168
12.1814 156.182
12.2263 203.248
12.2712 160.749
12.3161 93.143
12.3609 68.0665
12.4058 63.3221
12.4507 63.0269
12.4956 63.2009
12.5405 63.4365
12.5853 64.4258
12.6302 70.3309
12.6751 74.0716
12.72 67.7694
12.7649 66.644
12.8098 67.1498
12.8547 68.4632
12.8996 69.711
12.9445 71.0617
12.9894 72.847
13.0343 74.1962
13.0792 78.3868
13.1242 84.9599
13.1691 105.406
13.214 141.996
13.2589 239.094
13.3038 385.176
13.3487 423.707
13.3937 246.353
13.4386 118.42
13.4835 100.787
13.5285 114.563
13.5734 153.288
13.6183 252.287
13.6633 359.132
13.7082 323.208
13.7531 176.309
13.7981 94.7781
13.843 80.4479
13.888 77.993
13.9329 75.684
13.9779 74.5632
14.0228 72.9678
14.0678 71.585
14.1127 71.2127
14.1577 70.9451
14.2027 69.9452
14.2476 69.2846
14.2926 69.118
14.3376 69.7385
14.3825 68.8845
14.4275 67.4943
14.4725 67.7374
14.5175 67.6365
14.5624 67.8434
14.6074 69.3575
14.6524 69.7097
14.6974 69.1082
14.7424 70.1275
14.7874 75.7297
14.8324 85.6422
14.8774 108.074
14.9224 155.616
14.9674 215.815
15.0124 215.55
15.0574 144.161
15.1024 87.2897
15.1474 70.8848
15.1924 68.9786
15.2374 69.3833
15.2824 68.355
15.3274 66.5439
15.3725 65.6287
15.4175 65.1335
15.4625 64.7109
15.5076 64.9399
15.5526 64.9229
15.5976 64.3275
15.6426 65.1459
15.6877 69.7063
15.7327 76.8914
15.7778 92.4208
15.8228 126.661
15.8679 175.157
15.9129 192.689
15.958 148.134
16.003 91.8762
16.0481 66.5132
16.0931 62.9458
16.1382 61.1639
16.1833 59.3227
16.2283 57.7537
16.2734 57.2836
16.3185 57.4315
16.3636 57.592
16.4086 56.4872
16.4537 55.0993
16.4988 54.5766
16.5439 54.7594
16.589 54.0184
16.6341 54.0091
16.6792 53.4719
16.7243 53.8015
16.7694 53.6744
16.8145 53.773
16.8596 54.1864
16.9047 55.3086
16.9498 55.4633
16.9949 54.5452
17.04 54.7173
17.0851 56.136
17.1302 57.215
17.1754 60.1574
17.2205 65.6628
17.2656 74.5759
17.3108 82.805
17.3559 79.9642
17.401 68.9016
17.4462 60.4509
17.4913 58.0942
17.5365 57.9545
17.5815 58.0425
17.6268 58.4888
17.6718 59.2973
17.7171 59.4957
17.7622 60.0793
17.8074 60.6514
17.8525 62.6876
17.8977 66.4523
17.9428 71.3562
17.9881 80.7846
18.0331 99.3922
18.0784 122.739
18.1237 136.786
18.1688 125.083
18.214 99.301
18.2591 84.4483
18.3044 90.3482
18.3495 100.918
18.3948 104.975
18.4399 93.061
18.4852 74.8186
18.5303 64.4638
18.5756 60.929
18.6207 60.0014
18.666 59.3251
18.7112 58.4867
18.7565 57.9939
18.8016 57.5783
18.8469 56.9781
18.892 56.419
18.9374 56.3871
18.9825 55.9585
19.0278 56.0244
19.073 55.8943
19.1183 56.1624
19.1635 56.6525
19.2088 58.1199
19.254 60.8745
19.2993 66.1773
19.3447 71.635
19.3898 74.5639
19.4352 69.8106
19.4804 61.4309
19.5257 55.495
19.5709 53.1575
19.6163 52.7326
19.6615 52.7351
19.7068 52.5147
19.752 52.2386
19.7974 52.64
19.8426 53.3074
19.888 53.8109
19.9332 54.9848
19.9786 57.7873
20.0238 61.9196
20.0692 66.7765
20.1144 68.6771
20.1598 66.0872
20.205 62.0341
20.2504 61.4051
20.2957 63.7648
20.3411 64.7926
20.3863 62.3423
20.4318 56.9122
20.477 52.4612
20.5224 50.5985
20.5677 49.8671
20.6131 49.4638
20.6586 48.7033
20.7038 48.6307
20.7493 48.1265
20.7945 48.2054
20.84 48.1665
20.8853 47.771
20.9307 47.6967
20.976 47.7059
21.0215 47.6482
21.0668 48.1668
21.1122 48.606
21.1575 49.3712
21.203 50.0731
21.2483 50.6771
21.2938 50.3982
21.3391 49.0538
21.3846 47.9074
21.4299 47.5053
21.4754 47.504
21.5207 47.6835
21.5662 47.9853
21.6116 48.0599
21.6571 48.8383
21.7024 49.6818
21.7479 51.4835
21.7933 54.5951
21.8388 58.4435
21.8843 62.257
21.9297 63.347
21.9752 61.4427
22.0206 58.0847
22.0661 55.8522
22.1115 55.2189
22.157 54.8391
22.2024 53.1287
22.248 50.4836
22.2933 48.7459
22.3389 48.1192
22.3843 48.0442
22.4299 47.9343
22.4753 47.8655
22.5208 47.6899
22.5662 47.5718
22.6118 47.9037
22.6572 47.8711
22.7028 48.2247
22.7483 48.596
22.7939 49.4166
22.8393 50.9765
22.8849 53.2857
22.9303 55.5526
22.9759 57.0112
23.0214 56.1664
23.067 53.0974
23.1126 49.943
23.1581 48.3067
23.2037 47.8896
23.2492 47.8817
23.2948 47.8756
23.3403 48.1399
23.3859 48.8459
23.4314 49.8291
23.477 51.8107
23.5225 54.3846
23.5682 56.4797
23.6137 56.9931
23.6593 54.4418
23.7048 50.4548
23.7505 47.3517
23.796 45.7879
23.8417 45.2217
23.8872 44.7499
23.9329 44.3718
23.9784 44.0387
24.0241 43.7894
24.0697 43.5698
24.1154 43.2812
24.1609 43.2548
24.2066 43.1508
24.2522 42.8544
24.2979 42.5579
24.3434 42.6705
24.3892 42.3454
24.4349 42.3047
24.4805 42.1574
24.5262 42.303
24.5718 42.2867
24.6175 42.0408
24.6631 42.108
24.7089 41.827
24.7545 41.7382
24.8002 41.5094
24.8458 41.3252
24.8916 41.2018
24.9372 41.3286
24.983 41.6853
25.0286 42.1231
25.0744 42.5618
25.12 43.1038
25.1658 43.6909
25.2114 43.8416
25.2572 44.0519
25.3029 44.2418
25.3487 44.2999
25.3943 43.6344
25.4402 42.5701
25.4858 41.6099
25.5316 40.6642
25.5773 40.217
25.6231 40.1249
25.669 39.8187
25.7147 39.7328
25.7605 39.7378
25.8062 39.8284
25.8521 39.8544
25.8977 39.9061
25.9436 40.1778
25.9893 40.3838
26.0352 40.6687
26.0809 40.8567
26.1268 41.002
26.1725 40.6196
26.2184 40.1457
26.2641 39.5243
26.31 39.3442
26.3557 39.4323
26.4017 39.4689
26.4474 39.6584
26.4933 39.9546
26.5391 40.6395
26.585 40.9675
26.6308 41.4503
26.6767 41.4482
26.7225 41.202
26.7684 40.6566
26.8142 40.3207
26.8601 39.8098
26.9059 39.3729
26.9519 38.7966
26.9979 38.5244
27.0437 38.187
27.0896 38.1402
27.1354 38.1443
27.1814 37.7903
27.2272 37.8147
27.2732 37.8936
27.3191 37.8132
27.3651 37.8315
27.4109 37.7248
27.4569 37.8669
27.5027 37.9511
27.5488 37.8484
27.5946 37.6924
27.6407 37.3625
27.6865 37.2804
27.7326 37.2024
27.7784 37.2566
27.8245 37.1652
27.8703 37.3281
27.9164 37.6719
27.9623 37.7414
28.0084 38.1543
28.0543 38.5085
28.1003 38.3473
28.1462 38.1526
28.1923 37.6958
28.2384 37.2741
28.2843 36.9094
28.3304 36.4995
28.3764 36.0359
28.4225 35.7634
28.4684 35.6786
28.5145 35.3701
28.5605 35.1979
28.6066 35.0437
28.6526 34.9181
28.6987 34.9944
28.7447 34.853
28.7908 34.8125
28.8368 34.9854
28.8829 34.817
28.9289 34.8153
28.9751 34.6279
29.0211 34.2804
29.0673 33.9997
29.1133 33.9243
29.1595 33.7872
29.2055 33.7453
29.2517 33.7487
29.2977 33.7992
29.3439 33.7373
29.3899 33.709
29.4361 33.4574
29.4824 33.3619
29.5284 33.1513
29.5746 32.8052
29.6207 32.5857
29.6669 32.4988
29.713 32.414
29.7593 32.287
29.8053 32.3413
29.8516 32.2803
29.8977 32.2
29.9439 32.0476
29.99 32.1142
30.0363 31.8752
30.0824 31.9975
30.1287 31.8554
30.1748 31.8718
30.2211 31.9561
30.2673 31.6277
30.3136 31.7535
30.3597 31.7225
30.406 31.6201
30.4522 31.5236
30.4985 31.4887
30.5447 31.6558
30.591 31.5659
30.6372 31.6422
30.6835 31.6349
30.7297 31.6953
30.7761 31.5805
30.8224 31.4434
30.8686 31.2353
30.915 31.067
30.9612 30.9521
31.0076 30.7549
31.0538 30.5583
31.1002 30.6352
31.1464 30.4347
31.1928 30.3873
31.2391 30.5312
31.2855 30.3818
31.3317 30.3318
31.3781 30.3835
31.4244 30.4411
31.4708 30.3014
31.5171 30.1889
31.5636 30.2985
31.6098 29.9277
31.6563 29.8509
31.7026 29.7583
31.7491 29.627
31.7953 29.6992
31.8418 29.7082
31.8881 29.5782
31.9346 29.6264
31.9809 29.4685
32.0275 29.322
32.074 29.2867
32.1203 29.0931
32.1668 28.9291
32.2132 28.9305
32.2597 28.785
32.306 28.6793
32.3526 28.4523
32.399 28.4514
32.4455 28.3677
32.4919 28.1848
32.5385 28.1063
32.5848 28.0521
32.6314 27.979
32.6778 27.8598
32.7244 27.811
32.7708 27.7062
32.8174 27.6599
32.8638 27.5038
32.9104 27.5571
32.9569 27.5325
33.0035 27.4267
33.0499 27.3367
33.0966 27.2355
33.143 27.2964
33.1897 27.2529
33.2361 27.1474
33.2828 27.1341
33.3293 26.8733
33.3759 26.8028
33.4226 26.7667
33.4691 26.6215
33.5158 26.5628
33.5623 26.422
33.609 26.3591
33.6555 26.194
33.7022 26.1947
33.7487 26.087
33.7954 26.0372
33.842 25.9657
33.8887 25.8934
33.9353 25.7145
33.982 25.7012
34.0286 25.642
34.0753 25.6757
34.1219 25.4728
34.1687 25.3901
34.2152 25.361
34.262 25.263
34.3086 25.1036
34.3554 25.1236
34.402 24.9733
34.4488 24.8331
34.4954 24.7943
34.5422 24.6467
34.5889 24.6382
34.6357 24.4961
34.6825 24.5307
34.7292 24.4589
34.776 24.3181
34.8227 24.2681
34.8695 24.2208
34.9162 24.1378
34.9631 24.1458
35.0098 24.1295
35.0566 23.9803
35.1033 23.8692
35.1502 23.842
35.1969 23.8533
35.2438 23.7795
35.2906 23.6561
35.3375 23.5731
35.3842 23.6057
35.4311 23.5878
35.4779 23.594
35.5248 23.5265
35.5716 23.4438
35.6185 23.3132
35.6653 23.215
35.7123 23.1194
35.759 23.0562
35.806 22.9335
35.8528 22.8613
35.8998 22.8135
35.9468 22.7569
35.9936 22.6677
36.0406 22.5575
36.0874 22.6059
36.1345 22.4645
36.1813 22.465
36.2283 22.3069
36.2752 22.2124
36.3222 22.2577
36.3691 22.2314
36.4161 22.0891
36.463 22.0974
36.5101 22.0212
36.557 21.9845
36.6041 21.7651
36.651 21.711
36.6981 21.7663
36.745 21.6567
36.7921 21.6223
36.839 21.5184
36.8861 21.4101
36.9331 21.302
36.9802 21.2878
37.0272 21.2218
37.0743 21.1136
37.1213 21.1008
37.1684 21.0737
37.2154 20.9749
37.2626 20.9139
37.3098 20.8454
37.3568 20.7804
37.404 20.7383
37.451 20.6602
37.4982 20.5924
37.5452 20.5059
37.5924 20.3943
37.6395 20.4767
37.6867 20.373
37.7337 20.2421
37.781 20.2081
37.8281 20.1414
37.8753 20.1131
37.9224 20.0206
37.9697 19.9248
38.0168 19.8927
38.064 19.781
38.1111 19.741
38.1584 19.6518
38.2056 19.6775
38.2529 19.5692
38.3 19.5039
38.3473 19.5111
38.3945 19.3158
38.4418 19.272
38.489 19.2549
38.5363 19.2118
38.5837 19.1377
38.6309 19.0936
38.6782 19.0065
38.7254 18.9727
38.7728 18.9278
38.82 18.816
38.8674 18.7483
38.9146 18.6535
38.9621 18.6687
39.0093 18.6051
39.0567 18.5355
39.104 18.4335
39.1514 18.3849
39.1987 18.3372
39.2461 18.3287
39.2934 18.2759
39.3409 18.0986
39.3882 18.0548
39.4356 18.0697
39.483 17.9915
39.5304 17.971
39.5778 17.9706
39.6253 17.8673
39.6726 17.8094
39.7201 17.7774
39.7675 17.6339
39.815 17.6285
39.8624 17.5462
39.9099 17.5243
39.9575 17.4706
40.0049 17.3815
40.0525 17.329
40.0999 17.2828
40.1474 17.29
40.1949 17.1647
40.2425 17.1156
40.2899 17.0738
40.3375 17.0121
40.385 16.9474
40.4326 16.9391
40.48 16.7921
40.5277 16.8307
40.5752 16.7524
40.6228 16.6921
40.6703 16.6343
40.718 16.625
40.7655 16.5466
40.8132 16.4532
40.8607 16.4678
40.9084 16.3354
40.9559 16.3772
41.0036 16.3042
41.0512 16.1944
41.0989 16.193
41.1465 16.0623
41.1942 16.0761
41.242 15.962
41.2896 15.9597
41.3373 15.9644
41.3849 15.8697
41.4327 15.7453
41.4803 15.68
41.5281 15.7345
41.5758 15.6523
41.6236 15.5454
41.6712 15.5399
41.7191 15.3983
41.7667 15.4704
41.8146 15.4043
41.8622 15.3164
41.9101 15.2923
41.9578 15.1647
42.0057 15.248
42.0534 15.133
42.1013 15.0638
42.149 15.0215
42.1969 14.9439
42.2446 14.8913
42.2925 14.8921
42.3403 14.8382
42.3882 14.8286
42.436 14.7462
42.4839 14.6135
42.5319 14.6428
42.5797 14.6479
42.6277 14.5254
42.6755 14.4576
42.7235 14.3837
42.7713 14.3936
42.8193 14.3058
42.8671 14.3094
42.9152 14.225
42.963 14.1978
43.0111 14.1338
43.0589 14.0974
43.107 14.0279
43.1549 13.9975
43.2029 13.9181
43.2508 13.91
43.2989 13.9036
43.3468 13.7836
43.3949 13.7701
43.4429 13.7118
43.491 13.6423
43.5389 13.6191
43.5871 13.624
43.635 13.5016
43.6832 13.4612
43.7312 13.3951
43.7793 13.406
43.8273 13.3083
43.8755 13.2645
43.9237 13.2473
43.9717 13.1707
44.0199 13.134
44.068 13.1361
44.1162 13.0183
44.1642 13.0015
44.2125 13.0067
44.2606 12.9521
44.3088 12.9066
44.3569 12.8052
44.4052 12.8165
44.4533 12.6941
44.5016 12.6741
44.5497 12.6224
44.598 12.62
44.6461 12.5587
44.6945 12.4992
44.7426 12.4599
44.791 12.4172
44.8391 12.4083
44.8875 12.3872
44.9357 12.2966
44.984 12.2961
45.0322 12.1818
45.0806 12.1638
45.1288 12.1763
45.1773 12.0802
45.2257 12.0414
45.2739 12.0212
45.3224 11.9693
45.3706 11.963
45.4191 11.838
45.4673 11.8401
45.5158 11.7966
45.5641 11.6901
45.6126 11.7398
45.6609 11.6657
45.7094 11.6327
45.7577 11.5997
45.8063 11.4778
45.8546 11.4861
45.9031 11.4686
45.9515 11.4644
46.0001 11.3858
46.0484 11.3545
46.097 11.2963
46.1454 11.2761
46.194 11.2278
46.2424 11.2175
46.291 11.1242
46.3395 11.0913
46.3881 11.0524
46.4365 11.0367
46.4852 10.9725
46.5337 10.937
46.5823 10.8719
46.631 10.8766
46.6795 10.8372
46.7282 10.7495
46.7767 10.7621
46.8254 10.692
46.8739 10.6602
46.9226 10.5898
46.9712 10.5929
47.0199 10.5174
47.0685 10.5054
47.1173 10.4482
47.1658 10.4063
47.2146 10.3807
47.2632 10.3564
47.312 10.3245
47.3606 10.2638
47.4095 10.2419
47.4581 10.1903
47.5069 10.1114
47.5556 10.1266
47.6044 10.0246
47.6531 10.0707
47.702 9.97532
47.7507 9.94368
47.7996 9.93303
47.8483 9.90747
47.8972 9.90217
47.9461 9.80659
47.9948 9.7883
48.0438 9.78751
48.0925 9.74333
48.1415 9.67284
48.1902 9.6583
48.2392 9.63343
48.288 9.59613
48.337 9.5628
48.3858 9.49013
48.4348 9.49786
48.4837 9.47806
48.5327 9.3885
48.5815 9.36835
48.6306 9.35718
48.6795 9.31372
48.7285 9.23755
48.7774 9.26008
48.8265 9.22043
48.8754 9.14806
48.9245 9.12725
48.9734 9.13016
49.0226 9.05814
49.0715 9.03854
49.1206 8.94036
49.1696 8.95786
49.2188 8.95726
49.2679 8.88475
49.3169 8.80898
49.3661 8.77346
49.4151 8.78814
49.4643 8.75974
49.5134 8.71034
49.5626 8.65514
49.6117 8.65695
49.6609 8.68522
49.71 8.57491
49.7592 8.55738
49.8083 8.49306
49.8576 8.44305
49.9067 8.45426
49.956 8.45908
50.0052 8.40093
50.0545 8.34632
50.1036 8.32555
50.153 8.27776
50.2022 8.27606
50.2515 8.23626
50.3007 8.18966
50.3501 8.18969
50.3993 8.17528
50.4487 8.10409
50.498 8.0902
50.5474 8.03754
50.5966 7.99107
50.6461 7.97122
50.6955 7.96151
50.7448 7.94627
50.7943 7.88976
50.8436 7.85934
50.8931 7.8375
50.9424 7.7864
50.9919 7.75814
51.0413 7.78092
51.0908 7.7194
51.1402 7.68972
51.1897 7.65911
51.2391 7.63633
51.2887 7.58317
51.3381 7.52221
51.3877 7.54555
51.4371 7.4942
51.4867 7.46773
51.5362 7.49086
51.5858 7.39054
51.6353 7.32796
51.6849 7.35135
51.7344 7.35514
51.7841 7.28998
51.8336 7.25684
51.8833 7.23286
51.9328 7.19338
51.9826 7.17198
52.0323 7.13527
52.0818 7.10804
52.1316 7.05429
52.1812 7.04044
52.231 7.01847
52.2806 7.00256
52.3304 6.95306
52.38 6.92177
52.4298 6.90227
52.4794 6.86775
52.5293 6.81084
52.5789 6.84702
52.6288 6.79527
52.6785 6.75193
52.7284 6.75963
52.7781 6.73111
52.828 6.67714
52.8777 6.61954
52.9276 6.6227
52.9774 6.62179
53.0273 6.56136
53.0771 6.55477
53.1271 6.51219
53.1769 6.49234
53.2269 6.49425
53.2767 6.43965
53.3267 6.39156
53.3765 6.37268
53.4266 6.34652
53.4766 6.27351
53.5265 6.272
53.5765 6.28114
53.6264 6.2456
53.6765 6.19343
53.7264 6.17329
53.7765 6.19294
53.8265 6.09819
53.8766 6.10003
53.9266 6.08527
53.9767 6.0656
54.0267 6.04301
54.0769 6.00555
54.1269 5.94775
54.1771 5.91494
54.2271 5.8834
54.2773 5.88657
54.3274 5.83864
54.3776 5.80604
54.4277 5.77198
54.478 5.75636
54.528 5.75823
54.5783 5.64671
54.6285 5.66668
54.6788 5.56825
54.7289 5.53927
54.7792 5.50435
54.8296 5.42691
54.8798 5.39568
54.9301 5.42176
54.9803 5.37641
55.0307 5.32683
55.0809 5.26156
55.1314 5.27073
55.1816 5.2258
55.232 5.11598
55.2823 5.17068
55.3328 5.04804
55.383 5.04817
55.4335 4.99451
55.4838 4.93592
55.5344 4.85603
55.5847 4.87786
55.6352 4.79117
55.6856 4.79279
55.7361 4.77524