File: XRD/Ni3Fe_FD0741.xy
TT I
1.27165 7.11491
1.31627 6.5821
1.36089 6.49449
1.40551 6.15608
1.45013 6.59168
1.49476 6.36596
1.53938 5.93126
1.584 5.45178
1.62863 5.27212
1.67325 4.76034
1.71787 5.07388
1.7625 4.50861
1.80712 4.54488
1.85174 4.70337
1.89636 4.34661
1.94099 4.94032
1.98562 4.21475
2.03025 4.51937
2.07487 4.64065
2.11949 4.96152
2.16411 4.82626
2.20874 14.1867
2.25338 23.1928
2.298 6.42258
2.34263 5.25184
2.38725 5.50591
2.43188 6.57934
2.4765 7.08376
2.52115 7.70074
2.56577 8.17405
2.6104 8.28116
2.65503 7.66173
2.69965 8.67008
2.7443 8.1658
2.78893 8.2621
2.83356 8.60461
2.87818 8.67897
2.92281 8.62227
2.96744 9.6502
3.01209 10.3061
3.05672 11.2514
3.10135 12.7198
3.14599 13.2682
3.19062 14.0896
3.23527 15.1922
3.2799 16.2724
3.32454 16.7892
3.36917 17.5851
3.4138 18.9376
3.45844 19.6961
3.50309 21.2254
3.54773 21.6029
3.59237 24.046
3.637 93.5639
3.68164 59.382
3.7263 26.5949
3.77094 26.2191
3.81558 27.3629
3.86022 27.8593
3.90486 29.446
3.9495 29.8274
3.99416 30.811
4.0388 31.8637
4.08344 34.0844
4.12809 35.01
4.17273 37.2259
4.21738 43.6893
4.26204 252.427
4.30669 222.605
4.35133 48.9331
4.39598 44.5772
4.44063 54.6721
4.4853 65.9047
4.52995 50.1371
4.5746 51.3143
4.61925 53.3867
4.6639 55.3178
4.70855 57.7419
4.75322 60.7951
4.79788 63.6159
4.84253 66.8961
4.88719 71.1379
4.93184 74.4911
4.97652 79.7737
5.02118 86.101
5.06583 93.4348
5.11049 103.981
5.15515 169.757
5.19981 317.942
5.24449 2646.29
5.28916 12737.9
5.33382 2900.58
5.37848 185.16
5.42315 128.055
5.46783 112.365
5.5125 105.302
5.55716 101.658
5.60183 97.9242
5.6465 96.245
5.69117 93.9136
5.73586 91.782
5.78053 90.7096
5.8252 90.3039
5.86988 90.4562
5.91455 92.9104
5.95924 99.2507
6.00392 187.776
6.0486 891.806
6.09328 4573.76
6.13795 3216.0
6.18263 241.554
6.22733 91.9888
6.27201 82.7671
6.3167 102.105
6.36138 80.3097
6.40606 68.6269
6.45075 67.1317
6.49545 65.4099
6.54014 63.4263
6.58483 62.9131
6.62952 62.7979
6.67421 93.9815
6.71892 144.376
6.76361 68.423
6.8083 58.6943
6.853 57.0367
6.89769 56.5854
6.94239 56.7067
6.98711 56.2145
7.03181 55.3833
7.07651 55.2117
7.12121 55.0421
7.16591 55.0216
7.21063 55.2987
7.25533 70.4368
7.30004 180.219
7.34475 91.4824
7.38945 56.5383
7.43416 54.7597
7.47889 54.3611
7.5236 54.6652
7.56831 55.2666
7.61303 56.8116
7.65774 57.2434
7.70247 55.9875
7.74719 56.1052
7.79191 56.7215
7.83663 56.7042
7.88135 57.2193
7.92607 58.5258
7.97081 59.5305
8.01553 60.4084
8.06026 61.9636
8.10498 63.7272
8.14971 73.1355
8.19446 72.264
8.23919 69.2735
8.28392 71.5247
8.32865 73.61
8.37339 77.8078
8.41812 84.2787
8.46288 112.21
8.50761 154.188
8.55235 365.011
8.59709 1162.19
8.64183 2166.09
8.68658 994.654
8.73134 163.993
8.77609 99.0057
8.82083 92.1823
8.86558 88.9641
8.91033 89.5078
8.9551 91.2103
8.99985 84.9044
9.04461 83.127
9.08936 82.4061
9.13412 81.7894
9.17888 81.7535
9.22365 82.3762
9.26841 81.5644
9.31318 82.044
9.35794 82.163
9.4027 82.5777
9.44749 83.7334
9.49226 84.0103
9.53703 84.8276
9.5818 86.6634
9.62657 91.7624
9.67134 98.0675
9.71614 93.267
9.76091 93.2884
9.80569 95.9894
9.85047 98.7618
9.89525 123.718
9.94005 134.624
9.98484 164.141
10.0296 321.273
10.0744 791.606
10.1192 1773.87
10.164 1649.79
10.2088 414.128
10.2536 127.292
10.2984 112.836
10.3432 114.347
10.388 103.508
10.4328 114.575
10.4776 154.186
10.5224 274.633
10.5672 516.829
10.612 513.77
10.6568 207.825
10.7017 96.5863
10.7465 85.9843
10.7913 82.9178
10.8361 80.5416
10.8809 78.5993
10.9257 78.205
10.9706 78.8127
11.0154 74.4744
11.0602 72.6666
11.105 71.8961
11.1499 76.1264
11.1947 83.4659
11.2395 74.3259
11.2844 70.4004
11.3292 66.8713
11.374 65.7819
11.4189 65.0522
11.4637 64.586
11.5086 65.1557
11.5534 68.0442
11.5983 65.2058
11.6431 63.5421
11.688 62.4448
11.7328 62.5735
11.7777 62.6399
11.8225 62.3192
11.8674 62.1809
11.9122 62.3998
11.9571 62.357
12.002 63.0743
12.0468 66.3558
12.0917 76.6982
12.1366 100.681
12.1814 151.907
12.2263 202.218
12.2712 166.34
12.3161 98.907
12.3609 70.449
12.4058 64.4923
12.4507 63.9532
12.4956 63.863
12.5405 64.3407
12.5853 65.3268
12.6302 73.2195
12.6751 78.3574
12.72 69.6972
12.7649 67.4995
12.8098 67.7317
12.8547 69.1704
12.8996 70.3005
12.9445 71.7305
12.9894 73.4887
13.0343 75.3635
13.0792 78.1799
13.1242 85.8529
13.1691 107.884
13.214 143.65
13.2589 234.708
13.3038 370.323
13.3487 415.233
13.3937 265.005
13.4386 126.451
13.4835 102.854
13.5285 116.675
13.5734 153.925
13.6183 245.175
13.6633 349.154
13.7082 337.948
13.7531 186.954
13.7981 97.9028
13.843 81.4371
13.888 79.0339
13.9329 76.3349
13.9779 75.5767
14.0228 74.1483
14.0678 72.5779
14.1127 71.9602
14.1577 72.165
14.2027 71.1781
14.2476 70.1838
14.2926 70.2586
14.3376 71.352
14.3825 69.9298
14.4275 68.4896
14.4725 68.1594
14.5175 68.4884
14.5624 68.7289
14.6074 70.6094
14.6524 71.2459
14.6974 70.0291
14.7424 70.8717
14.7874 77.1272
14.8324 86.5773
14.8774 108.419
14.9224 152.077
14.9674 206.267
15.0124 216.654
15.0574 151.327
15.1024 91.7948
15.1474 71.9723
15.1924 70.2679
15.2374 70.814
15.2824 70.1275
15.3274 67.8916
15.3725 66.5671
15.4175 66.0484
15.4625 65.6408
15.5076 65.9411
15.5526 66.0194
15.5976 65.3878
15.6426 66.1035
15.6877 70.7726
15.7327 78.0775
15.7778 93.1096
15.8228 125.198
15.8679 171.027
15.9129 193.77
15.958 156.117
16.003 99.0561
16.0481 68.3253
16.0931 64.5196
16.1382 62.7903
16.1833 60.132
16.2283 58.5399
16.2734 58.1437
16.3185 58.5147
16.3636 59.2663
16.4086 57.5667
16.4537 55.8564
16.4988 55.4108
16.5439 55.0748
16.589 55.0186
16.6341 54.5692
16.6792 54.276
16.7243 54.774
16.7694 54.6997
16.8145 54.4389
16.8596 54.929
16.9047 56.4823
16.9498 56.7764
16.9949 55.5012
17.04 55.3877
17.0851 56.4581
17.1302 58.0878
17.1754 60.7843
17.2205 66.1853
17.2656 74.3437
17.3108 82.8279
17.3559 82.2989
17.401 70.8347
17.4462 61.8302
17.4913 58.8414
17.5365 58.7849
17.5815 58.9762
17.6268 58.9519
17.6718 60.0292
17.7171 60.5887
17.7622 60.8896
17.8074 61.4029
17.8525 63.3041
17.8977 67.3541
17.9428 72.4386
17.9881 81.3452
18.0331 98.8639
18.0784 121.266
18.1237 138.366
18.1688 129.666
18.214 102.652
18.2591 86.298
18.3044 90.0974
18.3495 100.44
18.3948 105.484
18.4399 95.7953
18.4852 77.2711
18.5303 65.5498
18.5756 61.7159
18.6207 60.8448
18.666 60.0828
18.7112 59.4135
18.7565 58.7443
18.8016 58.2523
18.8469 57.7671
18.892 57.2463
18.9374 56.9365
18.9825 56.6913
19.0278 56.5982
19.073 56.582
19.1183 56.9212
19.1635 57.6292
19.2088 59.0032
19.254 61.589
19.2993 66.1884
19.3447 72.3461
19.3898 75.9721
19.4352 71.7379
19.4804 62.9602
19.5257 56.5667
19.5709 54.0276
19.6163 53.6628
19.6615 53.356
19.7068 53.1412
19.752 52.8707
19.7974 53.2118
19.8426 54.1638
19.888 54.4039
19.9332 55.7016
19.9786 58.3683
20.0238 62.0899
20.0692 66.9679
20.1144 69.3639
20.1598 67.5683
20.205 63.0891
20.2504 61.9514
20.2957 63.6258
20.3411 65.5335
20.3863 63.4852
20.4318 58.2361
20.477 53.4506
20.5224 51.4285
20.5677 50.5974
20.6131 50.0602
20.6586 49.6119
20.7038 49.1818
20.7493 48.6102
20.7945 48.5322
20.84 48.4203
20.8853 48.4164
20.9307 48.235
20.976 48.3691
21.0215 48.2813
21.0668 48.6487
21.1122 49.327
21.1575 49.7912
21.203 50.7224
21.2483 51.1167
21.2938 51.1517
21.3391 49.6905
21.3846 48.747
21.4299 48.0563
21.4754 48.1091
21.5207 48.2941
21.5662 48.3339
21.6116 48.7024
21.6571 49.3485
21.7024 50.3236
21.7479 52.1274
21.7933 54.7779
21.8388 58.6081
21.8843 62.2264
21.9297 64.1073
21.9752 62.8517
22.0206 59.4335
22.0661 56.3213
22.1115 55.693
22.157 55.7066
22.2024 54.0771
22.248 51.0709
22.2933 49.7659
22.3389 48.9635
22.3843 48.6558
22.4299 48.5775
22.4753 48.6503
22.5208 48.4037
22.5662 47.9661
22.6118 48.3016
22.6572 48.4462
22.7028 48.9718
22.7483 49.3095
22.7939 49.9065
22.8393 51.5341
22.8849 53.6524
22.9303 55.8921
22.9759 57.7823
23.0214 57.0297
23.067 54.3578
23.1126 50.7995
23.1581 49.027
23.2037 48.5058
23.2492 48.3409
23.2948 48.5242
23.3403 48.5794
23.3859 49.3689
23.4314 50.2994
23.477 52.2598
23.5225 54.4662
23.5682 56.7243
23.6137 57.45
23.6593 55.1539
23.7048 51.4029
23.7505 48.1308
23.796 46.2231
23.8417 45.9175
23.8872 45.2396
23.9329 44.9344
23.9784 44.6284
24.0241 44.4029
24.0697 44.3213
24.1154 43.837
24.1609 43.7236
24.2066 43.5665
24.2522 43.5744
24.2979 43.1235
24.3434 43.0339
24.3892 42.9247
24.4349 42.7938
24.4805 42.7655
24.5262 42.858
24.5718 42.6277
24.6175 42.7074
24.6631 42.641
24.7089 42.1585
24.7545 42.1129
24.8002 42.0803
24.8458 41.8776
24.8916 41.8576
24.9372 41.9283
24.983 42.2777
25.0286 42.6742
25.0744 42.993
25.12 43.4749
25.1658 43.9762
25.2114 44.3498
25.2572 44.5569
25.3029 44.8162
25.3487 44.6288
25.3943 44.3272
25.4402 43.251
25.4858 42.2583
25.5316 41.2507
25.5773 40.6518
25.6231 40.6842
25.669 40.2288
25.7147 40.4189
25.7605 40.2765
25.8062 40.3268
25.8521 40.4597
25.8977 40.3397
25.9436 40.5599
25.9893 40.7122
26.0352 41.2042
26.0809 41.3045
26.1268 41.4542
26.1725 41.0164
26.2184 40.5965
26.2641 40.1618
26.31 39.9198
26.3557 39.844
26.4017 39.7867
26.4474 40.2181
26.4933 40.4436
26.5391 40.9175
26.585 41.4287
26.6308 41.8953
26.6767 41.8792
26.7225 41.6777
26.7684 41.1832
26.8142 40.6045
26.8601 40.2583
26.9059 39.8482
26.9519 39.3117
26.9979 38.9515
27.0437 38.823
27.0896 38.4829
27.1354 38.5984
27.1814 38.4097
27.2272 38.2755
27.2732 38.3281
27.3191 38.0665
27.3651 38.266
27.4109 38.1644
27.4569 38.3084
27.5027 38.2711
27.5488 38.461
27.5946 38.133
27.6407 37.9934
27.6865 37.8253
27.7326 37.5173
27.7784 37.5626
27.8245 37.5553
27.8703 37.7606
27.9164 38.1621
27.9623 38.2353
28.0084 38.5772
28.0543 38.8507
28.1003 38.7266
28.1462 38.5492
28.1923 38.2637
28.2384 37.7654
28.2843 37.378
28.3304 37.0652
28.3764 36.5289
28.4225 36.2333
28.4684 36.0885
28.5145 35.7469
28.5605 35.6323
28.6066 35.4814
28.6526 35.4544
28.6987 35.3587
28.7447 35.3563
28.7908 35.2094
28.8368 35.1971
28.8829 35.2001
28.9289 35.0998
28.9751 34.9287
29.0211 34.8258
29.0673 34.5116
29.1133 34.4074
29.1595 34.2099
29.2055 34.2889
29.2517 34.2313
29.2977 34.1052
29.3439 34.0711
29.3899 34.1151
29.4361 34.0024
29.4824 33.7003
29.5284 33.4975
29.5746 33.3025
29.6207 33.0358
29.6669 32.9624
29.713 32.9094
29.7593 32.7127
29.8053 32.7403
29.8516 32.6932
29.8977 32.6286
29.9439 32.3828
29.99 32.3616
30.0363 32.3524
30.0824 32.2616
30.1287 32.1334
30.1748 32.2457
30.2211 32.2078
30.2673 32.0927
30.3136 32.2203
30.3597 32.1078
30.406 32.0256
30.4522 31.8098
30.4985 31.9828
30.5447 31.8905
30.591 31.8977
30.6372 31.9558
30.6835 31.9713
30.7297 32.0913
30.7761 31.9702
30.8224 31.8979
30.8686 31.6393
30.915 31.4382
30.9612 31.3337
31.0076 31.1977
31.0538 30.9779
31.1002 30.888
31.1464 30.7991
31.1928 30.7684
31.2391 30.7435
31.2855 30.6515
31.3317 30.6364
31.3781 30.7527
31.4244 30.7418
31.4708 30.6993
31.5171 30.5825
31.5636 30.6386
31.6098 30.4218
31.6563 30.1839
31.7026 30.0185
31.7491 29.9768
31.7953 29.9476
31.8418 29.9836
31.8881 30.0021
31.9346 29.9573
31.9809 29.7861
32.0275 29.8169
32.074 29.6887
32.1203 29.4711
32.1668 29.2784
32.2132 29.2678
32.2597 29.0796
32.306 28.9415
32.3526 28.7773
32.399 28.7548
32.4455 28.5589
32.4919 28.5837
32.5385 28.5612
32.5848 28.3758
32.6314 28.3099
32.6778 28.2985
32.7244 28.1122
32.7708 28.0567
32.8174 28.0452
32.8638 27.8481
32.9104 28.0113
32.9569 27.867
33.0035 27.7805
33.0499 27.7494
33.0966 27.7076
33.143 27.6734
33.1897 27.598
33.2361 27.4087
33.2828 27.4214
33.3293 27.3285
33.3759 27.2129
33.4226 27.0645
33.4691 26.9449
33.5158 26.926
33.5623 26.8042
33.609 26.5692
33.6555 26.6011
33.7022 26.4202
33.7487 26.4197
33.7954 26.322
33.842 26.2735
33.8887 26.1829
33.9353 26.098
33.982 26.0414
34.0286 25.9161
34.0753 25.8148
34.1219 25.759
34.1687 25.6713
34.2152 25.6962
34.262 25.5466
34.3086 25.4756
34.3554 25.4214
34.402 25.3369
34.4488 25.1697
34.4954 25.1641
34.5422 25.1097
34.5889 24.9691
34.6357 24.8416
34.6825 24.8135
34.7292 24.723
34.776 24.6198
34.8227 24.5254
34.8695 24.6316
34.9162 24.5301
34.9631 24.3657
35.0098 24.3666
35.0566 24.2857
35.1033 24.1908
35.1502 24.0903
35.1969 24.1285
35.2438 24.0306
35.2906 23.9654
35.3375 23.9433
35.3842 23.8287
35.4311 23.8398
35.4779 23.8619
35.5248 23.7755
35.5716 23.6696
35.6185 23.5682
35.6653 23.5751
35.7123 23.3717
35.759 23.3393
35.806 23.1582
35.8528 23.0416
35.8998 23.0886
35.9468 22.955
35.9936 22.9845
36.0406 22.8921
36.0874 22.8446
36.1345 22.7604
36.1813 22.6786
36.2283 22.5699
36.2752 22.5896
36.3222 22.4857
36.3691 22.4474
36.4161 22.3009
36.463 22.4082
36.5101 22.3436
36.557 22.241
36.6041 22.0743
36.651 22.0007
36.6981 22.0928
36.745 21.9304
36.7921 21.8486
36.839 21.8251
36.8861 21.7063
36.9331 21.5873
36.9802 21.537
37.0272 21.4967
37.0743 21.4207
37.1213 21.3899
37.1684 21.2633
37.2154 21.233
37.2626 21.1679
37.3098 21.1139
37.3568 21.0511
37.404 21.0739
37.451 20.8758
37.4982 20.8156
37.5452 20.7496
37.5924 20.6807
37.6395 20.7928
37.6867 20.5745
37.7337 20.5488
37.781 20.4582
37.8281 20.4097
37.8753 20.2778
37.9224 20.2536
37.9697 20.1973
38.0168 20.1009
38.064 20.0679
38.1111 20.0342
38.1584 19.9892
38.2056 19.863
38.2529 19.8151
38.3 19.7189
38.3473 19.8504
38.3945 19.6316
38.4418 19.5489
38.489 19.54
38.5363 19.42
38.5837 19.3968
38.6309 19.3845
38.6782 19.254
38.7254 19.193
38.7728 19.1624
38.82 19.0025
38.8674 19.0735
38.9146 18.9303
38.9621 18.8311
39.0093 18.8455
39.0567 18.8628
39.104 18.7559
39.1514 18.6765
39.1987 18.6107
39.2461 18.5872
39.2934 18.4708
39.3409 18.4246
39.3882 18.3545
39.4356 18.3814
39.483 18.2436
39.5304 18.1544
39.5778 18.1327
39.6253 18.0993
39.6726 18.0256
39.7201 17.9772
39.7675 17.9411
39.815 17.916
39.8624 17.7887
39.9099 17.7594
39.9575 17.6472
40.0049 17.625
40.0525 17.5574
40.0999 17.5182
40.1474 17.4534
40.1949 17.3775
40.2425 17.312
40.2899 17.2675
40.3375 17.2379
40.385 17.206
40.4326 17.1521
40.48 16.9752
40.5277 17.0032
40.5752 16.9324
40.6228 16.8881
40.6703 16.8275
40.718 16.7998
40.7655 16.7201
40.8132 16.6019
40.8607 16.6916
40.9084 16.604
40.9559 16.5674
41.0036 16.4854
41.0512 16.4732
41.0989 16.4226
41.1465 16.3285
41.1942 16.2596
41.242 16.1852
41.2896 16.1218
41.3373 16.1439
41.3849 16.0529
41.4327 15.9658
41.4803 15.8922
41.5281 15.9007
41.5758 15.7721
41.6236 15.7473
41.6712 15.6987
41.7191 15.682
41.7667 15.613
41.8146 15.5853
41.8622 15.5115
41.9101 15.5087
41.9578 15.3515
42.0057 15.3914
42.0534 15.3772
42.1013 15.2346
42.149 15.1576
42.1969 15.2092
42.2446 15.1119
42.2925 15.0893
42.3403 14.9616
42.3882 15.0089
42.436 14.894
42.4839 14.7745
42.5319 14.8017
42.5797 14.7285
42.6277 14.6797
42.6755 14.686
42.7235 14.6063
42.7713 14.573
42.8193 14.5566
42.8671 14.4672
42.9152 14.3882
42.963 14.3178
43.0111 14.331
43.0589 14.3067
43.107 14.2177
43.1549 14.1799
43.2029 14.1299
43.2508 14.0976
43.2989 14.004
43.3468 13.9227
43.3949 13.9253
43.4429 13.9155
43.491 13.8066
43.5389 13.7506
43.5871 13.6893
43.635 13.7011
43.6832 13.6551
43.7312 13.5816
43.7793 13.5399
43.8273 13.4645
43.8755 13.469
43.9237 13.4329
43.9717 13.3388
44.0199 13.3485
44.068 13.2422
44.1162 13.1897
44.1642 13.1632
44.2125 13.1504
44.2606 13.1062
44.3088 13.0163
44.3569 12.9335
44.4052 12.9963
44.4533 12.8764
44.5016 12.8252
44.5497 12.8465
44.598 12.779
44.6461 12.6956
44.6945 12.6404
44.7426 12.6238
44.791 12.5673
44.8391 12.5251
44.8875 12.4986
44.9357 12.4348
44.984 12.4019
45.0322 12.39
45.0806 12.2883
45.1288 12.2824
45.1773 12.2256
45.2257 12.2112
45.2739 12.1733
45.3224 12.1536
45.3706 12.0769
45.4191 12.0203
45.4673 12.0239
45.5158 11.9239
45.5641 11.8592
45.6126 11.8297
45.6609 11.7847
45.7094 11.7608
45.7577 11.7117
45.8063 11.6548
45.8546 11.6539
45.9031 11.5566
45.9515 11.542
46.0001 11.5206
46.0484 11.448
46.097 11.4312
46.1454 11.4196
46.194 11.3292
46.2424 11.3261
46.291 11.275
46.3395 11.2041
46.3881 11.1639
46.4365 11.161
46.4852 11.083
46.5337 11.1028
46.5823 11.0248
46.631 10.9852
46.6795 10.9678
46.7282 10.9201
46.7767 10.8692
46.8254 10.7752
46.8739 10.7897
46.9226 10.7421
46.9712 10.7059
47.0199 10.6796
47.0685 10.6596
47.1173 10.5759
47.1658 10.5631
47.2146 10.5335
47.2632 10.4755
47.312 10.4432
47.3606 10.4104
47.4095 10.3215
47.4581 10.2968
47.5069 10.2872
47.5556 10.2491
47.6044 10.1856
47.6531 10.1283
47.702 10.1271
47.7507 10.0665
47.7996 10.0449
47.8483 10.0362
47.8972 10.0255
47.9461 9.93528
47.9948 9.88674
48.0438 9.8617
48.0925 9.84272
48.1415 9.79993
48.1902 9.76648
48.2392 9.75663
48.288 9.68104
48.337 9.6801
48.3858 9.62114
48.4348 9.58808
48.4837 9.55682
48.5327 9.54358
48.5815 9.47462
48.6306 9.45476
48.6795 9.43929
48.7285 9.42384
48.7774 9.32898
48.8265 9.32663
48.8754 9.27363
48.9245 9.27926
48.9734 9.2219
49.0226 9.20996
49.0715 9.16305
49.1206 9.06882
49.1696 9.06225
49.2188 9.0496
49.2679 8.98707
49.3169 8.97429
49.3661 8.9262
49.4151 8.89945
49.4643 8.8911
49.5134 8.81047
49.5626 8.78614
49.6117 8.77337
49.6609 8.76924
49.71 8.68662
49.7592 8.69341
49.8083 8.5963
49.8576 8.60642
49.9067 8.59896
49.956 8.54189
50.0052 8.49835
50.0545 8.4482
50.1036 8.42782
50.153 8.38991
50.2022 8.34846
50.2515 8.34171
50.3007 8.29778
50.3501 8.25759
50.3993 8.21614
50.4487 8.19334
50.498 8.17875
50.5474 8.1742
50.5966 8.12158
50.6461 8.07808
50.6955 8.05569
50.7448 8.01615
50.7943 8.02466
50.8436 7.95242
50.8931 7.93338
50.9424 7.89342
50.9919 7.8602
51.0413 7.82955
51.0908 7.80717
51.1402 7.77129
51.1897 7.74093
51.2391 7.71986
51.2887 7.66851
51.3381 7.59768
51.3877 7.63812
51.4371 7.5821
51.4867 7.53047
51.5362 7.53087
51.5858 7.52317
51.6353 7.39087
51.6849 7.45635
51.7344 7.4035
51.7841 7.38002
51.8336 7.31715
51.8833 7.29163
51.9328 7.29439
51.9826 7.23518
52.0323 7.18783
52.0818 7.19894
52.1316 7.15788
52.1812 7.10422
52.231 7.08466
52.2806 7.06664
52.3304 7.04361
52.38 7.00433
52.4298 6.97253
52.4794 6.95836
52.5293 6.95061
52.5789 6.8834
52.6288 6.8927
52.6785 6.8176
52.7284 6.7773
52.7781 6.74967
52.828 6.72196
52.8777 6.70949
52.9276 6.68545
52.9774 6.67972
53.0273 6.60698
53.0771 6.61678
53.1271 6.60617
53.1769 6.53905
53.2269 6.53435
53.2767 6.43796
53.3267 6.45692
53.3765 6.46143
53.4266 6.42998
53.4766 6.35196
53.5265 6.3478
53.5765 6.32458
53.6264 6.31279
53.6765 6.30348
53.7264 6.23058
53.7765 6.22253
53.8265 6.18228
53.8766 6.16664
53.9266 6.12912
53.9767 6.11083
54.0267 6.09798
54.0769 6.01328
54.1269 6.04444
54.1771 6.00318
54.2271 5.96217
54.2773 5.95987
54.3274 5.88237
54.3776 5.86224
54.4277 5.84542
54.478 5.80747
54.528 5.75413
54.5783 5.76528
54.6285 5.66871
54.6788 5.64721
54.7289 5.64728
54.7792 5.55586
54.8296 5.5389
54.8798 5.47644
54.9301 5.46843
54.9803 5.45082
55.0307 5.43073
55.0809 5.36114
55.1314 5.30861
55.1816 5.27925
55.232 5.19802
55.2823 5.20043
55.3328 5.11786
55.383 5.09296
55.4335 5.0282
55.4838 4.99895
55.5344 4.93123
55.5847 4.9443
55.6352 4.89231
55.6856 4.79081
55.7361 4.83111