File: XRD/Ni3Fe_FD0220.xy
TT I
1.27165 7.94134
1.31627 7.28407
1.36089 7.56632
1.40551 7.08389
1.45013 6.19815
1.49476 6.734
1.53938 6.24017
1.584 5.79527
1.62863 5.44595
1.67325 5.77334
1.71787 5.59426
1.7625 5.05204
1.80712 5.0524
1.85174 5.6215
1.89636 5.09115
1.94099 5.23501
1.98562 5.73394
2.03025 4.79837
2.07487 4.58993
2.11949 5.33153
2.16411 4.47166
2.20874 4.55442
2.25338 4.06088
2.298 4.64762
2.34263 4.54587
2.38725 4.78028
2.43188 4.98028
2.4765 5.37062
2.52115 4.51966
2.56577 4.83268
2.6104 5.22403
2.65503 5.80353
2.69965 5.66453
2.7443 6.54585
2.78893 6.9981
2.83356 7.67637
2.87818 7.5904
2.92281 8.8216
2.96744 10.0429
3.01209 9.97154
3.05672 10.5115
3.10135 11.949
3.14599 13.3056
3.19062 13.8927
3.23527 15.506
3.2799 16.0685
3.32454 16.7051
3.36917 17.7261
3.4138 18.9499
3.45844 19.6527
3.50309 21.1489
3.54773 21.2844
3.59237 22.5466
3.637 23.2724
3.68164 24.1767
3.7263 25.3095
3.77094 25.9651
3.81558 27.0947
3.86022 28.0224
3.90486 28.7737
3.9495 30.0221
3.99416 30.8847
4.0388 33.0508
4.08344 33.2573
4.12809 35.3227
4.17273 36.2102
4.21738 38.2661
4.26204 39.0121
4.30669 40.7695
4.35133 42.8273
4.39598 44.5055
4.44063 46.4356
4.4853 48.395
4.52995 52.4256
4.5746 53.9507
4.61925 55.6191
4.6639 57.9518
4.70855 61.6483
4.75322 64.2939
4.79788 67.8992
4.84253 71.9566
4.88719 76.6973
4.93184 81.6722
4.97652 88.8137
5.02118 96.4129
5.06583 107.672
5.11049 124.623
5.15515 169.521
5.19981 892.921
5.24449 3973.92
5.28916 10576.4
5.33382 4282.98
5.37848 275.45
5.42315 153.895
5.46783 129.866
5.5125 118.45
5.55716 112.485
5.60183 107.185
5.6465 104.824
5.69117 103.291
5.73586 101.605
5.78053 101.933
5.8252 102.403
5.86988 105.122
5.91455 110.845
5.95924 133.529
6.00392 448.927
6.0486 1421.45
6.09328 3592.52
6.13795 3676.09
6.18263 384.412
6.22733 110.737
6.27201 89.8811
6.3167 81.1536
6.36138 76.3241
6.40606 72.9521
6.45075 71.1288
6.49545 68.7812
6.54014 66.7408
6.58483 65.3043
6.62952 64.3831
6.67421 62.5287
6.71892 61.9802
6.76361 60.8048
6.8083 60.2055
6.853 59.4749
6.89769 58.787
6.94239 58.4945
6.98711 57.6428
7.03181 57.1676
7.07651 56.6049
7.12121 56.471
7.16591 56.2375
7.21063 55.7587
7.25533 55.4375
7.30004 55.7423
7.34475 55.8016
7.38945 55.8839
7.43416 55.3082
7.47889 55.7491
7.5236 56.1342
7.56831 57.2008
7.61303 57.1514
7.65774 57.2859
7.70247 58.2142
7.74719 58.3556
7.79191 59.3706
7.83663 59.5345
7.88135 60.4902
7.92607 61.2359
7.97081 62.0116
8.01553 63.705
8.06026 65.684
8.10498 66.7082
8.14971 69.2063
8.19446 70.8188
8.23919 72.9297
8.28392 76.4556
8.32865 79.1957
8.37339 84.6992
8.41812 90.7126
8.46288 110.479
8.50761 291.801
8.55235 587.722
8.59709 1056.95
8.64183 1958.87
8.68658 1228.91
8.73134 223.677
8.77609 111.397
8.82083 100.666
8.86558 95.9655
8.91033 93.45
8.9551 90.7281
8.99985 89.4064
9.04461 88.4472
9.08936 88.0835
9.13412 87.2882
9.17888 87.2381
9.22365 87.2576
9.26841 87.6835
9.31318 88.3963
9.35794 88.2217
9.4027 88.4201
9.44749 89.2321
9.49226 89.8153
9.53703 91.1843
9.5818 92.7792
9.62657 94.3936
9.67134 95.5282
9.71614 97.6061
9.76091 100.286
9.80569 103.387
9.85047 107.253
9.89525 112.866
9.94005 136.288
9.98484 303.685
10.0296 522.232
10.0744 797.331
10.1192 1450.31
10.164 1731.61
10.2088 568.368
10.2536 150.975
10.2984 117.868
10.3432 113.382
10.388 115.264
10.4328 159.766
10.4776 212.915
10.5224 280.243
10.5672 435.704
10.612 534.81
10.6568 254.506
10.7017 108.248
10.7465 92.7454
10.7913 88.1479
10.8361 85.65
10.8809 83.3582
10.9257 81.207
10.9706 79.7846
11.0154 77.9422
11.0602 76.4016
11.105 75.3803
11.1499 73.6878
11.1947 72.5299
11.2395 71.2428
11.2844 70.9406
11.3292 70.0481
11.374 69.1586
11.4189 68.6862
11.4637 67.9367
11.5086 67.2834
11.5534 66.7775
11.5983 66.5415
11.6431 66.6069
11.688 65.708
11.7328 65.7138
11.7777 65.73
11.8225 65.6865
11.8674 65.3962
11.9122 65.9447
11.9571 66.3793
12.002 68.8321
12.0468 79.8577
12.0917 94.5751
12.1366 109.141
12.1814 140.01
12.2263 191.978
12.2712 187.949
12.3161 103.758
12.3609 70.4213
12.4058 67.3855
12.4507 67.3635
12.4956 67.3259
12.5405 67.4901
12.5853 67.8466
12.6302 68.6615
12.6751 69.0002
12.72 69.7084
12.7649 71.0449
12.8098 71.7843
12.8547 73.3165
12.8996 75.014
12.9445 76.4721
12.9894 78.4864
13.0343 80.8031
13.0792 86.6828
13.1242 110.627
13.1691 148.327
13.214 174.958
13.2589 227.653
13.3038 318.317
13.3487 418.283
13.3937 311.161
13.4386 149.967
13.4835 134.054
13.5285 154.074
13.5734 174.443
13.6183 224.569
13.6633 307.933
13.7082 357.287
13.7531 231.116
13.7981 112.51
13.843 87.6406
13.888 84.2703
13.9329 81.3954
13.9779 79.8482
14.0228 78.4157
14.0678 77.2922
14.1127 76.2571
14.1577 75.5706
14.2027 74.6532
14.2476 74.3535
14.2926 73.4178
14.3376 73.2971
14.3825 72.9824
14.4275 72.6032
14.4725 72.3909
14.5175 72.7791
14.5624 72.667
14.6074 73.0214
14.6524 73.6418
14.6974 74.7765
14.7424 81.0856
14.7874 95.8587
14.8324 107.209
14.8774 119.398
14.9224 144.638
14.9674 185.252
15.0124 222.708
15.0574 173.024
15.1024 103.16
15.1474 77.3117
15.1924 73.8121
15.2374 72.7024
15.2824 71.3545
15.3274 70.7065
15.3725 70.3457
15.4175 69.9586
15.4625 69.5483
15.5076 69.3275
15.5526 69.4986
15.5976 70.0116
15.6426 74.9727
15.6877 86.6314
15.7327 95.4841
15.7778 103.423
15.8228 121.988
15.8679 151.892
15.9129 189.145
15.958 178.013
16.003 114.692
16.0481 73.7057
16.0931 65.9731
16.1382 64.0533
16.1833 63.1124
16.2283 61.7591
16.2734 60.8655
16.3185 60.478
16.3636 59.722
16.4086 58.8166
16.4537 58.5613
16.4988 57.9922
16.5439 58.0721
16.589 57.7102
16.6341 57.8333
16.6792 57.106
16.7243 57.2663
16.7694 57.3071
16.8145 57.1027
16.8596 57.6425
16.9047 57.5924
16.9498 57.8706
16.9949 58.1462
17.04 59.2953
17.0851 62.0414
17.1302 63.966
17.1754 65.6502
17.2205 68.8985
17.2656 73.9999
17.3108 81.7632
17.3559 85.8702
17.401 77.6143
17.4462 67.0658
17.4913 62.6566
17.5365 61.9956
17.5815 62.2425
17.6268 62.7085
17.6718 63.2411
17.7171 63.7233
17.7622 64.7876
17.8074 66.3498
17.8525 72.4711
17.8977 78.6186
17.9428 82.8072
17.9881 88.354
18.0331 99.056
18.0784 114.681
18.1237 139.287
18.1688 145.357
18.214 119.304
18.2591 93.9261
18.3044 90.3046
18.3495 96.8721
18.3948 106.607
18.4399 103.03
18.4852 84.1918
18.5303 70.5327
18.5756 65.6836
18.6207 64.5024
18.666 63.4752
18.7112 62.8577
18.7565 62.1656
18.8016 61.6372
18.8469 60.9868
18.892 60.5868
18.9374 60.2578
18.9825 59.859
19.0278 59.7655
19.073 60.4689
19.1183 61.4443
19.1635 62.2025
19.2088 62.9443
19.254 64.8034
19.2993 67.4161
19.3447 71.3068
19.3898 76.3746
19.4352 76.3183
19.4804 68.5994
19.5257 60.6356
19.5709 57.125
19.6163 56.6775
19.6615 56.5836
19.7068 55.9613
19.752 56.1975
19.7974 57.2109
19.8426 58.3578
19.888 58.8365
19.9332 59.6183
19.9786 61.4001
20.0238 64.0212
20.0692 68.2962
20.1144 72.5083
20.1598 73.1246
20.205 68.0854
20.2504 64.4649
20.2957 64.5345
20.3411 66.7796
20.3863 67.684
20.4318 62.8294
20.477 57.1034
20.5224 53.9545
20.5677 53.0325
20.6131 52.6108
20.6586 52.1592
20.7038 51.8985
20.7493 51.5362
20.7945 51.4407
20.84 51.422
20.8853 51.2732
20.9307 51.2517
20.976 51.5905
21.0215 51.1119
21.0668 51.4866
21.1122 51.8262
21.1575 52.2483
21.203 52.7404
21.2483 53.3747
21.2938 54.0271
21.3391 52.7951
21.3846 51.7821
21.4299 51.0263
21.4754 50.9901
21.5207 51.2882
21.5662 51.8351
21.6116 52.7165
21.6571 53.6707
21.7024 54.3843
21.7479 55.5209
21.7933 57.4715
21.8388 60.1258
21.8843 63.4417
21.9297 66.7011
21.9752 67.0647
22.0206 63.3764
22.0661 58.9076
22.1115 57.8384
22.157 58.4264
22.2024 57.4923
22.248 54.6884
22.2933 52.6472
22.3389 51.6398
22.3843 51.2527
22.4299 51.0758
22.4753 51.0394
22.5208 51.0547
22.5662 51.0812
22.6118 51.2694
22.6572 52.0281
22.7028 52.6368
22.7483 52.8038
22.7939 53.3741
22.8393 54.2906
22.8849 55.5246
22.9303 57.0686
22.9759 59.2545
23.0214 60.1154
23.067 58.2457
23.1126 54.8008
23.1581 51.9948
23.2037 51.3395
23.2492 51.9719
23.2948 52.1874
23.3403 52.4686
23.3859 52.7791
23.4314 53.2237
23.477 54.4012
23.5225 55.6424
23.5682 57.6549
23.6137 59.6609
23.6593 59.034
23.7048 55.5687
23.7505 51.4456
23.796 49.2433
23.8417 48.3902
23.8872 47.8967
23.9329 47.519
23.9784 47.0711
24.0241 46.8651
24.0697 46.6199
24.1154 46.0762
24.1609 46.1457
24.2066 45.8811
24.2522 45.8204
24.2979 45.6403
24.3434 45.416
24.3892 45.218
24.4349 45.1818
24.4805 45.0541
24.5262 45.2274
24.5718 45.0691
24.6175 45.0862
24.6631 45.0868
24.7089 44.6751
24.7545 44.5763
24.8002 44.4988
24.8458 44.4482
24.8916 44.3427
24.9372 44.5893
24.983 44.7985
25.0286 45.0929
25.0744 45.4037
25.12 45.589
25.1658 46.1419
25.2114 46.5881
25.2572 46.7914
25.3029 46.6051
25.3487 46.7267
25.3943 46.7449
25.4402 46.0339
25.4858 44.8258
25.5316 43.5915
25.5773 42.8518
25.6231 42.9386
25.669 42.5564
25.7147 42.7379
25.7605 42.4712
25.8062 42.6076
25.8521 42.5344
25.8977 42.4884
25.9436 42.5953
25.9893 42.7332
26.0352 43.2226
26.0809 43.1941
26.1268 43.6735
26.1725 43.6288
26.2184 43.0993
26.2641 42.5944
26.31 42.281
26.3557 42.1863
26.4017 42.3419
26.4474 42.4535
26.4933 42.6357
26.5391 42.9434
26.585 43.2166
26.6308 43.764
26.6767 43.8838
26.7225 44.1804
26.7684 43.4307
26.8142 42.8458
26.8601 42.3048
26.9059 41.9345
26.9519 41.5999
26.9979 41.1941
27.0437 40.8344
27.0896 40.6392
27.1354 40.7327
27.1814 40.5379
27.2272 40.4448
27.2732 40.4817
27.3191 40.291
27.3651 40.2658
27.4109 40.3094
27.4569 40.3605
27.5027 40.1623
27.5488 40.4056
27.5946 40.2606
27.6407 40.2
27.6865 40.1337
27.7326 39.8432
27.7784 39.9181
27.8245 39.7452
27.8703 39.8661
27.9164 39.9812
27.9623 39.994
28.0084 40.3272
28.0543 40.6571
28.1003 40.6737
28.1462 40.6626
28.1923 40.2877
28.2384 39.6731
28.2843 39.44
28.3304 39.0782
28.3764 38.5132
28.4225 38.2045
28.4684 38.006
28.5145 37.732
28.5605 37.5732
28.6066 37.3881
28.6526 37.2831
28.6987 37.2093
28.7447 37.177
28.7908 37.058
28.8368 37.0231
28.8829 37.0099
28.9289 36.9394
28.9751 36.7694
29.0211 36.605
29.0673 36.3958
29.1133 36.1983
29.1595 35.9555
29.2055 35.9936
29.2517 35.8647
29.2977 35.8391
29.3439 35.78
29.3899 35.7545
29.4361 35.8173
29.4824 35.666
29.5284 35.449
29.5746 35.0155
29.6207 34.7907
29.6669 34.6144
29.713 34.599
29.7593 34.3785
29.8053 34.3873
29.8516 34.2801
29.8977 34.3866
29.9439 34.1949
29.99 34.0557
30.0363 33.9939
30.0824 33.9893
30.1287 33.8654
30.1748 33.9647
30.2211 33.9338
30.2673 33.9357
30.3136 33.9355
30.3597 33.7494
30.406 33.7984
30.4522 33.5929
30.4985 33.6133
30.5447 33.6875
30.591 33.6431
30.6372 33.6711
30.6835 33.6549
30.7297 33.7276
30.7761 33.5381
30.8224 33.5356
30.8686 33.3859
30.915 33.183
30.9612 33.076
31.0076 32.832
31.0538 32.7629
31.1002 32.7436
31.1464 32.3961
31.1928 32.435
31.2391 32.4425
31.2855 32.2915
31.3317 32.234
31.3781 32.3309
31.4244 32.1679
31.4708 32.2191
31.5171 32.2284
31.5636 32.2637
31.6098 32.0557
31.6563 31.8658
31.7026 31.7266
31.7491 31.6036
31.7953 31.6307
31.8418 31.5419
31.8881 31.5333
31.9346 31.4473
31.9809 31.509
32.0275 31.3271
32.074 31.2308
32.1203 30.9782
32.1668 30.956
32.2132 30.8006
32.2597 30.7227
32.306 30.6465
32.3526 30.4006
32.399 30.2873
32.4455 30.1693
32.4919 30.0898
32.5385 30.0067
32.5848 29.866
32.6314 29.9573
32.6778 29.8503
32.7244 29.7366
32.7708 29.5911
32.8174 29.5054
32.8638 29.4087
32.9104 29.3643
32.9569 29.3124
33.0035 29.1797
33.0499 29.1231
33.0966 29.1434
33.143 29.1529
33.1897 28.9617
33.2361 28.9521
33.2828 28.9573
33.3293 28.7145
33.3759 28.661
33.4226 28.5715
33.4691 28.4226
33.5158 28.2992
33.5623 28.2364
33.609 28.0019
33.6555 27.9265
33.7022 27.7922
33.7487 27.7823
33.7954 27.7099
33.842 27.5833
33.8887 27.5218
33.9353 27.6111
33.982 27.3296
34.0286 27.2602
34.0753 27.2662
34.1219 27.1116
34.1687 27.0415
34.2152 26.9285
34.262 26.8893
34.3086 26.8196
34.3554 26.7699
34.402 26.5619
34.4488 26.5439
34.4954 26.4399
34.5422 26.4177
34.5889 26.2651
34.6357 26.1598
34.6825 26.0494
34.7292 26.0308
34.776 25.8698
34.8227 25.9252
34.8695 25.8197
34.9162 25.748
34.9631 25.6154
35.0098 25.6859
35.0566 25.5371
35.1033 25.5045
35.1502 25.4158
35.1969 25.3652
35.2438 25.2734
35.2906 25.2847
35.3375 25.1443
35.3842 25.1082
35.4311 25.0582
35.4779 25.0141
35.5248 25.069
35.5716 24.922
35.6185 24.8838
35.6653 24.8186
35.7123 24.5956
35.759 24.4897
35.806 24.4244
35.8528 24.3864
35.8998 24.3546
35.9468 24.1666
35.9936 24.1347
36.0406 24.1096
36.0874 24.0729
36.1345 24.0561
36.1813 23.8983
36.2283 23.8574
36.2752 23.6757
36.3222 23.8072
36.3691 23.628
36.4161 23.4855
36.463 23.4706
36.5101 23.4435
36.557 23.4624
36.6041 23.1695
36.651 23.2853
36.6981 23.1082
36.745 23.11
36.7921 22.9836
36.839 22.8859
36.8861 22.8548
36.9331 22.8027
36.9802 22.6909
37.0272 22.6203
37.0743 22.5111
37.1213 22.5085
37.1684 22.4003
37.2154 22.2994
37.2626 22.1991
37.3098 22.2748
37.3568 22.1115
37.404 22.0961
37.451 21.9546
37.4982 21.8416
37.5452 21.825
37.5924 21.7493
37.6395 21.8129
37.6867 21.691
37.7337 21.5953
37.781 21.5165
37.8281 21.4697
37.8753 21.3542
37.9224 21.278
37.9697 21.2272
38.0168 21.2233
38.064 21.0497
38.1111 21.0512
38.1584 21.0264
38.2056 20.938
38.2529 20.8664
38.3 20.6805
38.3473 20.7962
38.3945 20.5971
38.4418 20.5315
38.489 20.5223
38.5363 20.4536
38.5837 20.3434
38.6309 20.2854
38.6782 20.2204
38.7254 20.1508
38.7728 20.0973
38.82 20.0152
38.8674 19.9497
38.9146 19.9081
38.9621 19.863
39.0093 19.8436
39.0567 19.8145
39.104 19.6553
39.1514 19.5856
39.1987 19.5435
39.2461 19.4665
39.2934 19.4503
39.3409 19.281
39.3882 19.3103
39.4356 19.2117
39.483 19.1735
39.5304 19.0976
39.5778 19.0688
39.6253 19.0355
39.6726 18.8762
39.7201 18.8721
39.7675 18.8502
39.815 18.8222
39.8624 18.7093
39.9099 18.6628
39.9575 18.5604
40.0049 18.5226
40.0525 18.436
40.0999 18.4236
40.1474 18.3701
40.1949 18.2529
40.2425 18.2146
40.2899 18.1663
40.3375 18.1298
40.385 18.1071
40.4326 17.999
40.48 17.9075
40.5277 17.9321
40.5752 17.8032
40.6228 17.8129
40.6703 17.7246
40.718 17.6412
40.7655 17.6083
40.8132 17.4684
40.8607 17.5029
40.9084 17.4769
40.9559 17.3863
41.0036 17.3867
41.0512 17.2841
41.0989 17.2559
41.1465 17.1638
41.1942 17.1304
41.242 16.9799
41.2896 16.9797
41.3373 16.9244
41.3849 16.8066
41.4327 16.7912
41.4803 16.658
41.5281 16.6581
41.5758 16.5537
41.6236 16.5854
41.6712 16.4923
41.7191 16.4906
41.7667 16.4172
41.8146 16.379
41.8622 16.3432
41.9101 16.217
41.9578 16.1273
42.0057 16.1467
42.0534 16.094
42.1013 16.1296
42.149 15.9947
42.1969 15.9104
42.2446 15.8592
42.2925 15.8032
42.3403 15.7294
42.3882 15.7667
42.436 15.6945
42.4839 15.5983
42.5319 15.5423
42.5797 15.4882
42.6277 15.4417
42.6755 15.3626
42.7235 15.3145
42.7713 15.3297
42.8193 15.2792
42.8671 15.2134
42.9152 15.1521
42.963 15.095
43.0111 14.965
43.0589 15.0153
43.107 14.9025
43.1549 14.876
43.2029 14.7998
43.2508 14.8227
43.2989 14.6537
43.3468 14.6375
43.3949 14.6366
43.4429 14.5583
43.491 14.5427
43.5389 14.4556
43.5871 14.44
43.635 14.3668
43.6832 14.3629
43.7312 14.2631
43.7793 14.1858
43.8273 14.1759
43.8755 14.0938
43.9237 14.0819
43.9717 13.9997
44.0199 13.9431
44.068 13.9517
44.1162 13.9185
44.1642 13.8077
44.2125 13.7962
44.2606 13.7648
44.3088 13.6893
44.3569 13.6251
44.4052 13.5936
44.4533 13.5937
44.5016 13.4763
44.5497 13.4801
44.598 13.4107
44.6461 13.3262
44.6945 13.2689
44.7426 13.2581
44.791 13.16
44.8391 13.1372
44.8875 13.0935
44.9357 13.0325
44.984 13.0643
45.0322 12.9699
45.0806 12.8972
45.1288 12.8833
45.1773 12.8255
45.2257 12.8037
45.2739 12.7889
45.3224 12.6924
45.3706 12.6849
45.4191 12.5944
45.4673 12.5771
45.5158 12.5201
45.5641 12.4558
45.6126 12.4442
45.6609 12.3922
45.7094 12.3554
45.7577 12.2414
45.8063 12.1996
45.8546 12.2203
45.9031 12.1211
45.9515 12.1416
46.0001 12.0726
46.0484 12.0793
46.097 12.0263
46.1454 11.9784
46.194 11.9357
46.2424 11.8485
46.291 11.8262
46.3395 11.7936
46.3881 11.7217
46.4365 11.7179
46.4852 11.6864
46.5337 11.6071
46.5823 11.5783
46.631 11.4784
46.6795 11.4784
46.7282 11.4287
46.7767 11.4152
46.8254 11.2966
46.8739 11.3152
46.9226 11.2404
46.9712 11.2536
47.0199 11.1859
47.0685 11.1457
47.1173 11.1161
47.1658 11.045
47.2146 11.0462
47.2632 10.9774
47.312 10.9379
47.3606 10.8902
47.4095 10.8673
47.4581 10.8145
47.5069 10.7555
47.5556 10.7642
47.6044 10.6967
47.6531 10.6444
47.702 10.5797
47.7507 10.5808
47.7996 10.5296
47.8483 10.5251
47.8972 10.4706
47.9461 10.4247
47.9948 10.3929
48.0438 10.3297
48.0925 10.3126
48.1415 10.309
48.1902 10.2236
48.2392 10.236
48.288 10.1806
48.337 10.0945
48.3858 10.0932
48.4348 10.0687
48.4837 10.0839
48.5327 9.99664
48.5815 9.97757
48.6306 9.93586
48.6795 9.89221
48.7285 9.83227
48.7774 9.8049
48.8265 9.78231
48.8754 9.71356
48.9245 9.75589
48.9734 9.66703
49.0226 9.66915
49.0715 9.58165
49.1206 9.57214
49.1696 9.53026
49.2188 9.48678
49.2679 9.4919
49.3169 9.40145
49.3661 9.31543
49.4151 9.34752
49.4643 9.33691
49.5134 9.24858
49.5626 9.19499
49.6117 9.17795
49.6609 9.12481
49.71 9.09536
49.7592 9.09622
49.8083 9.03669
49.8576 9.04078
49.9067 8.99692
49.956 8.91724
50.0052 8.90516
50.0545 8.9423
50.1036 8.82918
50.153 8.7963
50.2022 8.7971
50.2515 8.75079
50.3007 8.69448
50.3501 8.69645
50.3993 8.59396
50.4487 8.60733
50.498 8.58156
50.5474 8.57522
50.5966 8.48985
50.6461 8.44989
50.6955 8.4739
50.7448 8.45299
50.7943 8.39695
50.8436 8.33686
50.8931 8.30355
50.9424 8.29293
50.9919 8.28573
51.0413 8.22604
51.0908 8.20814
51.1402 8.18837
51.1897 8.12523
51.2391 8.08892
51.2887 8.03793
51.3381 8.02627
51.3877 7.97177
51.4371 7.97275
51.4867 7.89074
51.5362 7.87182
51.5858 7.86398
51.6353 7.80629
51.6849 7.78609
51.7344 7.77663
51.7841 7.72437
51.8336 7.67689
51.8833 7.65946
51.9328 7.63605
51.9826 7.55674
52.0323 7.56473
52.0818 7.52762
52.1316 7.47198
52.1812 7.45287
52.231 7.44926
52.2806 7.42459
52.3304 7.39848
52.38 7.34248
52.4298 7.31845
52.4794 7.28512
52.5293 7.24181
52.5789 7.22645
52.6288 7.16459
52.6785 7.14535
52.7284 7.13506
52.7781 7.05819
52.828 7.09496
52.8777 7.07564
52.9276 7.00375
52.9774 6.99748
53.0273 6.98403
53.0771 6.9308
53.1271 6.91288
53.1769 6.90176
53.2269 6.83011
53.2767 6.79839
53.3267 6.80206
53.3765 6.75971
53.4266 6.72561
53.4766 6.67133
53.5265 6.68424
53.5765 6.64391
53.6264 6.60817
53.6765 6.56956
53.7264 6.5563
53.7765 6.54589
53.8265 6.53277
53.8766 6.47202
53.9266 6.42275
53.9767 6.39599
54.0267 6.38057
54.0769 6.35385
54.1269 6.26641
54.1771 6.29051
54.2271 6.25228
54.2773 6.23409
54.3274 6.17212
54.3776 6.15067
54.4277 6.1264
54.478 6.05205
54.528 6.05884
54.5783 5.9787
54.6285 5.9423
54.6788 5.91993
54.7289 5.85797
54.7792 5.85751
54.8296 5.71168
54.8798 5.75275
54.9301 5.70458
54.9803 5.63775
55.0307 5.62062
55.0809 5.52794
55.1314 5.52836
55.1816 5.50893
55.232 5.4392
55.2823 5.39495
55.3328 5.3268
55.383 5.26252
55.4335 5.19396
55.4838 5.20087
55.5344 5.12835
55.5847 5.10177
55.6352 5.03315
55.6856 5.01677
55.7361 5.0108