File: XRD/Ni3Fe_FD0749.xy
TT I
1.27165 7.43858
1.31627 6.41061
1.36089 6.81467
1.40551 6.04795
1.45013 5.3084
1.49476 5.49102
1.53938 6.45851
1.584 5.04915
1.62863 5.11672
1.67325 5.27876
1.71787 4.50508
1.7625 5.00885
1.80712 5.04976
1.85174 4.90747
1.89636 4.69873
1.94099 5.11121
1.98562 4.64182
2.03025 4.42252
2.07487 4.80215
2.11949 5.02566
2.16411 4.91035
2.20874 14.9526
2.25338 25.8082
2.298 5.94303
2.34263 5.77107
2.38725 6.38562
2.43188 6.04062
2.4765 6.5222
2.52115 7.25892
2.56577 7.61057
2.6104 8.40811
2.65503 7.84261
2.69965 8.50395
2.7443 8.26345
2.78893 8.58285
2.83356 8.69306
2.87818 8.82208
2.92281 8.81971
2.96744 9.43936
3.01209 10.5415
3.05672 10.9267
3.10135 11.9741
3.14599 12.9078
3.19062 14.2809
3.23527 15.2952
3.2799 15.6976
3.32454 16.9607
3.36917 18.0296
3.4138 19.6782
3.45844 19.7581
3.50309 20.5794
3.54773 21.8239
3.59237 24.2818
3.637 98.5259
3.68164 62.7992
3.7263 26.6731
3.77094 26.2558
3.81558 26.8985
3.86022 27.6465
3.90486 28.9607
3.9495 30.1231
3.99416 30.71
4.0388 31.6956
4.08344 33.626
4.12809 34.7868
4.17273 37.1573
4.21738 43.149
4.26204 266.615
4.30669 238.941
4.35133 49.3651
4.39598 44.4945
4.44063 54.9872
4.4853 67.2917
4.52995 50.3253
4.5746 50.93
4.61925 52.6281
4.6639 54.936
4.70855 57.4379
4.75322 60.351
4.79788 63.316
4.84253 66.3069
4.88719 70.5284
4.93184 73.8484
4.97652 78.9322
5.02118 85.4628
5.06583 92.9501
5.11049 103.039
5.15515 172.256
5.19981 312.28
5.24449 2578.24
5.28916 12848.1
5.33382 2997.3
5.37848 186.927
5.42315 128.156
5.46783 112.552
5.5125 105.002
5.55716 101.176
5.60183 97.7379
5.6465 95.9745
5.69117 93.5643
5.73586 91.5174
5.78053 90.2545
5.8252 89.6128
5.86988 90.7166
5.91455 92.3503
5.95924 99.2471
6.00392 182.944
6.0486 864.152
6.09328 4310.86
6.13795 3189.4
6.18263 237.829
6.22733 92.3667
6.27201 82.7514
6.3167 104.132
6.36138 81.1852
6.40606 68.5628
6.45075 66.8588
6.49545 64.9759
6.54014 63.7933
6.58483 62.8981
6.62952 62.6865
6.67421 96.4987
6.71892 152.481
6.76361 69.8661
6.8083 58.6575
6.853 57.1761
6.89769 56.396
6.94239 56.4142
6.98711 55.7659
7.03181 54.8311
7.07651 55.7185
7.12121 55.1371
7.16591 55.1796
7.21063 55.569
7.25533 71.303
7.30004 191.731
7.34475 96.3994
7.38945 56.7955
7.43416 54.6425
7.47889 54.3673
7.5236 54.3916
7.56831 54.9116
7.61303 56.8651
7.65774 57.5194
7.70247 55.8829
7.74719 55.9232
7.79191 56.4231
7.83663 56.7519
7.88135 57.6583
7.92607 58.4625
7.97081 59.7401
8.01553 60.2395
8.06026 61.9308
8.10498 63.6176
8.14971 73.3576
8.19446 72.7206
8.23919 69.1053
8.28392 71.5905
8.32865 73.3498
8.37339 77.2849
8.41812 84.5907
8.46288 114.412
8.50761 152.445
8.55235 351.56
8.59709 1136.81
8.64183 2156.99
8.68658 1043.93
8.73134 165.879
8.77609 98.9235
8.82083 92.0255
8.86558 88.8206
8.91033 89.404
8.9551 91.6107
8.99985 85.3352
9.04461 82.8791
9.08936 82.4855
9.13412 81.2661
9.17888 81.3225
9.22365 82.3071
9.26841 81.2104
9.31318 81.3575
9.35794 81.6748
9.4027 82.0726
9.44749 83.1032
9.49226 83.7622
9.53703 84.7383
9.5818 86.7069
9.62657 90.9918
9.67134 98.9107
9.71614 93.1996
9.76091 93.0397
9.80569 95.7031
9.85047 98.081
9.89525 124.458
9.94005 136.508
9.98484 161.205
10.0296 314.143
10.0744 775.095
10.1192 1765.76
10.164 1634.53
10.2088 408.38
10.2536 127.013
10.2984 113.09
10.3432 115.716
10.388 103.461
10.4328 113.177
10.4776 152.206
10.5224 272.227
10.5672 511.796
10.612 520.639
10.6568 211.631
10.7017 96.226
10.7465 86.3234
10.7913 82.7304
10.8361 80.3961
10.8809 78.2572
10.9257 77.8736
10.9706 79.114
11.0154 74.7075
11.0602 72.3873
11.105 71.3543
11.1499 76.3932
11.1947 84.6755
11.2395 74.8268
11.2844 70.3077
11.3292 66.9012
11.374 65.6812
11.4189 64.9295
11.4637 64.1963
11.5086 65.2315
11.5534 68.6545
11.5983 65.8281
11.6431 63.5281
11.688 62.4559
11.7328 62.6416
11.7777 62.2844
11.8225 61.9949
11.8674 61.9912
11.9122 62.5066
11.9571 62.3288
12.002 62.7716
12.0468 65.9108
12.0917 76.5518
12.1366 99.4016
12.1814 149.831
12.2263 202.865
12.2712 168.662
12.3161 100.1
12.3609 70.9188
12.4058 64.4036
12.4507 63.8489
12.4956 63.987
12.5405 64.1937
12.5853 65.025
12.6302 73.3915
12.6751 79.4408
12.72 70.1924
12.7649 67.436
12.8098 67.6146
12.8547 68.9072
12.8996 70.4606
12.9445 71.6344
12.9894 73.1602
13.0343 74.8891
13.0792 77.9037
13.1242 85.0302
13.1691 106.455
13.214 141.546
13.2589 231.168
13.3038 373.682
13.3487 424.266
13.3937 267.974
13.4386 126.561
13.4835 102.409
13.5285 115.215
13.5734 151.62
13.6183 241.515
13.6633 346.987
13.7082 342.209
13.7531 189.335
13.7981 97.6335
13.843 81.5038
13.888 78.8138
13.9329 76.762
13.9779 75.3276
14.0228 73.8885
14.0678 72.5299
14.1127 72.0705
14.1577 72.0566
14.2027 71.2604
14.2476 70.037
14.2926 70.1683
14.3376 71.2802
14.3825 69.7575
14.4275 68.2577
14.4725 68.2403
14.5175 68.4784
14.5624 68.656
14.6074 70.65
14.6524 71.5283
14.6974 69.8401
14.7424 70.951
14.7874 76.4568
14.8324 86.0227
14.8774 106.791
14.9224 150.067
14.9674 207.621
15.0124 220.615
15.0574 152.787
15.1024 92.166
15.1474 72.2574
15.1924 70.0626
15.2374 70.8846
15.2824 70.2039
15.3274 67.6637
15.3725 66.4134
15.4175 65.8939
15.4625 65.431
15.5076 65.8624
15.5526 65.8126
15.5976 65.4012
15.6426 65.9888
15.6877 70.3448
15.7327 77.5282
15.7778 91.8827
15.8228 123.325
15.8679 168.847
15.9129 193.331
15.958 156.964
16.003 99.6379
16.0481 68.5053
16.0931 64.6788
16.1382 62.706
16.1833 60.4423
16.2283 58.8151
16.2734 58.1034
16.3185 58.609
16.3636 59.3262
16.4086 57.8812
16.4537 56.0176
16.4988 55.1859
16.5439 55.1205
16.589 54.682
16.6341 54.4399
16.6792 54.1495
16.7243 54.382
16.7694 54.7386
16.8145 54.5665
16.8596 54.8853
16.9047 56.6971
16.9498 56.8439
16.9949 55.3837
17.04 55.2757
17.0851 56.4758
17.1302 57.9714
17.1754 60.8489
17.2205 65.75
17.2656 74.2034
17.3108 83.5785
17.3559 83.3246
17.401 70.9677
17.4462 61.9081
17.4913 58.8212
17.5365 59.0145
17.5815 59.0695
17.6268 59.066
17.6718 59.8193
17.7171 60.5528
17.7622 60.8014
17.8074 61.3858
17.8525 63.1039
17.8977 66.8757
17.9428 71.7912
17.9881 80.5678
18.0331 97.7673
18.0784 120.126
18.1237 138.495
18.1688 130.76
18.214 103.349
18.2591 85.8147
18.3044 89.4554
18.3495 99.7864
18.3948 105.876
18.4399 96.399
18.4852 77.7764
18.5303 65.7992
18.5756 62.0389
18.6207 60.7803
18.666 60.05
18.7112 59.2115
18.7565 58.6049
18.8016 58.225
18.8469 57.7153
18.892 57.2499
18.9374 56.8924
18.9825 56.6331
19.0278 56.4453
19.073 56.7443
19.1183 56.9584
19.1635 57.6653
19.2088 58.889
19.254 61.5073
19.2993 66.0055
19.3447 72.1701
19.3898 76.3168
19.4352 72.196
19.4804 63.3301
19.5257 56.4893
19.5709 54.0187
19.6163 53.4682
19.6615 53.3442
19.7068 52.8809
19.752 52.9928
19.7974 53.0674
19.8426 53.8513
19.888 54.4146
19.9332 55.6091
19.9786 58.0452
20.0238 61.6767
20.0692 66.8164
20.1144 69.4526
20.1598 67.9327
20.205 63.0625
20.2504 61.6627
20.2957 63.5062
20.3411 65.6181
20.3863 63.8406
20.4318 58.2595
20.477 53.6079
20.5224 51.4943
20.5677 50.7025
20.6131 49.9937
20.6586 49.4154
20.7038 49.2725
20.7493 48.8181
20.7945 48.7467
20.84 48.5754
20.8853 48.4343
20.9307 48.1906
20.976 48.281
21.0215 48.3037
21.0668 48.6579
21.1122 49.1279
21.1575 49.648
21.203 50.6177
21.2483 51.1303
21.2938 51.1387
21.3391 49.6324
21.3846 48.5378
21.4299 48.0293
21.4754 48.0238
21.5207 48.0633
21.5662 48.3823
21.6116 48.6503
21.6571 49.2705
21.7024 50.2422
21.7479 52.2079
21.7933 54.7556
21.8388 58.5353
21.8843 62.2222
21.9297 64.1837
21.9752 62.8681
22.0206 59.2344
22.0661 56.3929
22.1115 55.6298
22.157 55.6276
22.2024 54.0025
22.248 51.383
22.2933 49.6205
22.3389 48.8645
22.3843 48.6816
22.4299 48.5962
22.4753 48.4989
22.5208 48.1986
22.5662 48.2384
22.6118 48.3271
22.6572 48.4506
22.7028 48.8439
22.7483 49.0549
22.7939 49.8801
22.8393 51.5793
22.8849 53.5605
22.9303 55.7749
22.9759 57.6342
23.0214 57.0875
23.067 54.391
23.1126 51.0118
23.1581 49.0434
23.2037 48.4694
23.2492 48.5209
23.2948 48.3521
23.3403 48.5599
23.3859 49.2552
23.4314 50.2351
23.477 52.138
23.5225 54.3138
23.5682 56.6615
23.6137 57.7504
23.6593 55.4394
23.7048 51.6725
23.7505 48.1254
23.796 46.4388
23.8417 45.7019
23.8872 45.4117
23.9329 45.0328
23.9784 44.6791
24.0241 44.275
24.0697 44.1655
24.1154 43.7632
24.1609 43.7667
24.2066 43.6096
24.2522 43.4722
24.2979 43.1852
24.3434 43.0452
24.3892 42.9444
24.4349 42.92
24.4805 42.8415
24.5262 42.9144
24.5718 42.7232
24.6175 42.6388
24.6631 42.5989
24.7089 42.2389
24.7545 42.1863
24.8002 42.045
24.8458 42.0705
24.8916 41.7021
24.9372 41.8837
24.983 42.2265
25.0286 42.5413
25.0744 42.9365
25.12 43.3285
25.1658 43.9955
25.2114 44.2843
25.2572 44.5778
25.3029 44.6258
25.3487 44.7699
25.3943 44.3358
25.4402 43.3066
25.4858 42.2884
25.5316 41.2008
25.5773 40.6569
25.6231 40.5789
25.669 40.1923
25.7147 40.3377
25.7605 40.2026
25.8062 40.2492
25.8521 40.5428
25.8977 40.2936
25.9436 40.481
25.9893 40.7168
26.0352 41.1318
26.0809 41.2284
26.1268 41.4969
26.1725 41.1675
26.2184 40.5883
26.2641 40.1467
26.31 39.8485
26.3557 39.8722
26.4017 39.7246
26.4474 40.0917
26.4933 40.4865
26.5391 41.0327
26.585 41.4113
26.6308 41.8576
26.6767 41.971
26.7225 41.7406
26.7684 41.2608
26.8142 40.6958
26.8601 40.308
26.9059 39.84
26.9519 39.3255
26.9979 39.1643
27.0437 38.7138
27.0896 38.5485
27.1354 38.4765
27.1814 38.488
27.2272 38.2876
27.2732 38.3303
27.3191 38.0904
27.3651 38.136
27.4109 38.1328
27.4569 38.2669
27.5027 38.3038
27.5488 38.3333
27.5946 38.2146
27.6407 37.9127
27.6865 37.8258
27.7326 37.5686
27.7784 37.6495
27.8245 37.5208
27.8703 37.7417
27.9164 37.979
27.9623 38.163
28.0084 38.5642
28.0543 38.8462
28.1003 38.9094
28.1462 38.6001
28.1923 38.2824
28.2384 37.7582
28.2843 37.3469
28.3304 37.0708
28.3764 36.4759
28.4225 36.2301
28.4684 36.0526
28.5145 35.7691
28.5605 35.7193
28.6066 35.4791
28.6526 35.4206
28.6987 35.4332
28.7447 35.2947
28.7908 35.2323
28.8368 35.2291
28.8829 35.1904
28.9289 35.1149
28.9751 35.0129
29.0211 34.7721
29.0673 34.4977
29.1133 34.2851
29.1595 34.2202
29.2055 34.1771
29.2517 34.0713
29.2977 34.1335
29.3439 34.1124
29.3899 34.1401
29.4361 34.048
29.4824 33.7864
29.5284 33.5968
29.5746 33.2857
29.6207 33.0055
29.6669 32.867
29.713 32.7452
29.7593 32.7477
29.8053 32.6876
29.8516 32.6432
29.8977 32.657
29.9439 32.394
29.99 32.3888
30.0363 32.2646
30.0824 32.2397
30.1287 32.2096
30.1748 32.2092
30.2211 32.2243
30.2673 32.1336
30.3136 32.1975
30.3597 32.0009
30.406 32.0396
30.4522 31.9355
30.4985 31.8916
30.5447 31.9975
30.591 31.9019
30.6372 32.0195
30.6835 31.9614
30.7297 32.1127
30.7761 31.9492
30.8224 31.7582
30.8686 31.6826
30.915 31.4059
30.9612 31.3483
31.0076 31.1622
31.0538 31.11
31.1002 30.8891
31.1464 30.7515
31.1928 30.7243
31.2391 30.7861
31.2855 30.7317
31.3317 30.5823
31.3781 30.8268
31.4244 30.746
31.4708 30.6717
31.5171 30.6213
31.5636 30.632
31.6098 30.3474
31.6563 30.2742
31.7026 30.0759
31.7491 29.9959
31.7953 30.008
31.8418 29.9768
31.8881 29.916
31.9346 29.9719
31.9809 29.9728
32.0275 29.7347
32.074 29.6482
32.1203 29.4456
32.1668 29.3649
32.2132 29.3331
32.2597 29.0475
32.306 29.0271
32.3526 28.8512
32.399 28.7804
32.4455 28.5915
32.4919 28.6094
32.5385 28.4147
32.5848 28.2962
32.6314 28.4953
32.6778 28.2722
32.7244 28.1914
32.7708 28.0295
32.8174 28.0274
32.8638 27.9506
32.9104 27.9096
32.9569 27.8959
33.0035 27.716
33.0499 27.7383
33.0966 27.5931
33.143 27.6779
33.1897 27.5171
33.2361 27.5299
33.2828 27.5142
33.3293 27.2374
33.3759 27.2655
33.4226 27.1065
33.4691 26.9626
33.5158 26.9148
33.5623 26.8043
33.609 26.6043
33.6555 26.5656
33.7022 26.5002
33.7487 26.3372
33.7954 26.4063
33.842 26.2895
33.8887 26.1772
33.9353 26.1108
33.982 26.0485
34.0286 25.9102
34.0753 25.9138
34.1219 25.765
34.1687 25.7423
34.2152 25.7216
34.262 25.5609
34.3086 25.3589
34.3554 25.4283
34.402 25.2457
34.4488 25.2089
34.4954 25.0939
34.5422 25.0735
34.5889 24.9432
34.6357 24.8492
34.6825 24.8535
34.7292 24.759
34.776 24.6318
34.8227 24.5312
34.8695 24.546
34.9162 24.4359
34.9631 24.3704
35.0098 24.3818
35.0566 24.2196
35.1033 24.2539
35.1502 24.1306
35.1969 24.0939
35.2438 24.0628
35.2906 24.001
35.3375 23.9406
35.3842 23.8737
35.4311 23.9238
35.4779 23.8976
35.5248 23.7947
35.5716 23.6738
35.6185 23.6908
35.6653 23.4751
35.7123 23.4453
35.759 23.3036
35.806 23.2437
35.8528 23.171
35.8998 23.1106
35.9468 22.9956
35.9936 22.9649
36.0406 22.9297
36.0874 22.8638
36.1345 22.6868
36.1813 22.6902
36.2283 22.5671
36.2752 22.5303
36.3222 22.563
36.3691 22.431
36.4161 22.3611
36.463 22.3139
36.5101 22.335
36.557 22.2441
36.6041 22.05
36.651 22.0921
36.6981 21.9125
36.745 21.991
36.7921 21.9364
36.839 21.7326
36.8861 21.685
36.9331 21.7032
36.9802 21.5519
37.0272 21.4847
37.0743 21.389
37.1213 21.3978
37.1684 21.2871
37.2154 21.3057
37.2626 21.2002
37.3098 21.0593
37.3568 21.0098
37.404 21.026
37.451 20.9089
37.4982 20.8617
37.5452 20.7725
37.5924 20.6981
37.6395 20.7824
37.6867 20.6076
37.7337 20.5685
37.781 20.4159
37.8281 20.4289
37.8753 20.3305
37.9224 20.2601
37.9697 20.2176
38.0168 20.1876
38.064 20.0961
38.1111 20.0597
38.1584 19.9082
38.2056 19.8806
38.2529 19.7665
38.3 19.7639
38.3473 19.6957
38.3945 19.5857
38.4418 19.5688
38.489 19.5037
38.5363 19.4048
38.5837 19.3363
38.6309 19.3569
38.6782 19.2465
38.7254 19.183
38.7728 19.1235
38.82 19.0635
38.8674 19.0001
38.9146 18.9666
38.9621 18.9135
39.0093 18.7964
39.0567 18.7475
39.104 18.6969
39.1514 18.6024
39.1987 18.6089
39.2461 18.536
39.2934 18.5538
39.3409 18.3402
39.3882 18.3097
39.4356 18.2754
39.483 18.2537
39.5304 18.1883
39.5778 18.1203
39.6253 18.065
39.6726 18.0543
39.7201 17.9011
39.7675 17.8211
39.815 17.9135
39.8624 17.7771
39.9099 17.7511
39.9575 17.6451
40.0049 17.616
40.0525 17.5582
40.0999 17.5878
40.1474 17.4917
40.1949 17.3865
40.2425 17.3197
40.2899 17.2725
40.3375 17.2445
40.385 17.1026
40.4326 17.1021
40.48 16.9717
40.5277 17.0599
40.5752 16.9444
40.6228 16.8885
40.6703 16.8282
40.718 16.7928
40.7655 16.793
40.8132 16.6787
40.8607 16.6106
40.9084 16.6199
40.9559 16.5466
41.0036 16.5097
41.0512 16.4574
41.0989 16.3805
41.1465 16.3316
41.1942 16.2511
41.242 16.1693
41.2896 16.1369
41.3373 16.082
41.3849 16.0848
41.4327 15.9438
41.4803 15.9211
41.5281 15.9037
41.5758 15.7678
41.6236 15.7516
41.6712 15.7228
41.7191 15.673
41.7667 15.6174
41.8146 15.5211
41.8622 15.4944
41.9101 15.4929
41.9578 15.3599
42.0057 15.4021
42.0534 15.3176
42.1013 15.3168
42.149 15.1869
42.1969 15.1679
42.2446 15.1334
42.2925 15.0897
42.3403 14.983
42.3882 14.9364
42.436 14.869
42.4839 14.8397
42.5319 14.763
42.5797 14.7571
42.6277 14.6936
42.6755 14.6807
42.7235 14.5495
42.7713 14.6019
42.8193 14.5074
42.8671 14.4772
42.9152 14.4323
42.963 14.3445
43.0111 14.3217
43.0589 14.2229
43.107 14.2082
43.1549 14.1125
43.2029 14.1124
43.2508 14.0247
43.2989 13.9932
43.3468 13.9695
43.3949 13.9217
43.4429 13.8391
43.491 13.8308
43.5389 13.7711
43.5871 13.6896
43.635 13.6795
43.6832 13.6188
43.7312 13.5602
43.7793 13.5126
43.8273 13.4613
43.8755 13.4102
43.9237 13.3953
43.9717 13.3381
44.0199 13.3433
44.068 13.2526
44.1162 13.2389
44.1642 13.2021
44.2125 13.1556
44.2606 13.0413
44.3088 13.0149
44.3569 12.9783
44.4052 12.9858
44.4533 12.916
44.5016 12.8684
44.5497 12.821
44.598 12.8
44.6461 12.746
44.6945 12.6614
44.7426 12.6423
44.791 12.5375
44.8391 12.5492
44.8875 12.4656
44.9357 12.4462
44.984 12.3705
45.0322 12.3469
45.0806 12.3235
45.1288 12.2776
45.1773 12.2815
45.2257 12.1855
45.2739 12.1297
45.3224 12.0862
45.3706 12.0688
45.4191 12.0184
45.4673 11.99
45.5158 11.9484
45.5641 11.8759
45.6126 11.8011
45.6609 11.8094
45.7094 11.7529
45.7577 11.7034
45.8063 11.6363
45.8546 11.6152
45.9031 11.5922
45.9515 11.5608
46.0001 11.5213
46.0484 11.5194
46.097 11.4369
46.1454 11.3845
46.194 11.3631
46.2424 11.3204
46.291 11.2688
46.3395 11.2541
46.3881 11.1643
46.4365 11.1562
46.4852 11.0809
46.5337 11.1005
46.5823 11.0321
46.631 10.9524
46.6795 10.968
46.7282 10.9252
46.7767 10.8911
46.8254 10.7926
46.8739 10.7712
46.9226 10.7775
46.9712 10.6984
47.0199 10.7052
47.0685 10.6272
47.1173 10.581
47.1658 10.5434
47.2146 10.5351
47.2632 10.4743
47.312 10.4582
47.3606 10.4104
47.4095 10.3507
47.4581 10.3107
47.5069 10.2841
47.5556 10.2336
47.6044 10.1881
47.6531 10.145
47.702 10.0986
47.7507 10.1016
47.7996 10.0395
47.8483 9.99455
47.8972 9.98463
47.9461 9.97193
47.9948 9.90657
48.0438 9.90299
48.0925 9.8384
48.1415 9.83135
48.1902 9.77781
48.2392 9.72962
48.288 9.70998
48.337 9.67657
48.3858 9.61395
48.4348 9.57876
48.4837 9.58369
48.5327 9.55026
48.5815 9.50103
48.6306 9.43545
48.6795 9.4312
48.7285 9.37715
48.7774 9.35587
48.8265 9.34405
48.8754 9.27452
48.9245 9.21536
48.9734 9.22693
49.0226 9.19686
49.0715 9.14554
49.1206 9.10908
49.1696 9.06861
49.2188 9.05632
49.2679 9.01406
49.3169 8.97374
49.3661 8.93558
49.4151 8.87703
49.4643 8.85606
49.5134 8.8273
49.5626 8.74235
49.6117 8.74534
49.6609 8.72725
49.71 8.69969
49.7592 8.6851
49.8083 8.6167
49.8576 8.62952
49.9067 8.54668
49.956 8.52502
50.0052 8.49255
50.0545 8.45836
50.1036 8.42524
50.153 8.40569
50.2022 8.38527
50.2515 8.34258
50.3007 8.32249
50.3501 8.27546
50.3993 8.22537
50.4487 8.21948
50.498 8.16031
50.5474 8.13864
50.5966 8.13588
50.6461 8.0723
50.6955 8.07736
50.7448 8.03789
50.7943 7.9742
50.8436 7.94767
50.8931 7.93543
50.9424 7.89182
50.9919 7.87328
51.0413 7.84959
51.0908 7.82185
51.1402 7.79207
51.1897 7.74506
51.2391 7.73123
51.2887 7.69324
51.3381 7.61226
51.3877 7.63121
51.4371 7.5884
51.4867 7.57791
51.5362 7.56035
51.5858 7.46899
51.6353 7.42307
51.6849 7.42063
51.7344 7.40133
51.7841 7.37676
51.8336 7.33853
51.8833 7.29284
51.9328 7.2927
51.9826 7.23381
52.0323 7.2405
52.0818 7.23507
52.1316 7.12742
52.1812 7.13538
52.231 7.07459
52.2806 7.05944
52.3304 7.04114
52.38 7.05413
52.4298 6.97586
52.4794 6.94096
52.5293 6.96281
52.5789 6.89297
52.6288 6.87111
52.6785 6.77407
52.7284 6.82506
52.7781 6.80682
52.828 6.75713
52.8777 6.68069
52.9276 6.68473
52.9774 6.67288
53.0273 6.64868
53.0771 6.60794
53.1271 6.58593
53.1769 6.56809
53.2269 6.53629
53.2767 6.51881
53.3267 6.46059
53.3765 6.42114
53.4266 6.45573
53.4766 6.36944
53.5265 6.3784
53.5765 6.36457
53.6264 6.31636
53.6765 6.25312
53.7264 6.25047
53.7765 6.23893
53.8265 6.24009
53.8766 6.15425
53.9266 6.16161
53.9767 6.14158
54.0267 6.08248
54.0769 6.10297
54.1269 6.03742
54.1771 6.04896
54.2271 5.98202
54.2773 5.94208
54.3274 5.93265
54.3776 5.88903
54.4277 5.84225
54.478 5.82216
54.528 5.75869
54.5783 5.7522
54.6285 5.70088
54.6788 5.66192
54.7289 5.60359
54.7792 5.61319
54.8296 5.55995
54.8798 5.47099
54.9301 5.4546
54.9803 5.4468
55.0307 5.47171
55.0809 5.3087
55.1314 5.33933
55.1816 5.24004
55.232 5.21852
55.2823 5.18152
55.3328 5.13845
55.383 5.07247
55.4335 5.06944
55.4838 4.97264
55.5344 4.95361
55.5847 4.9333
55.6352 4.87779
55.6856 4.8491
55.7361 4.83059