File: XRD/Ni3Fe_FD0370.xy
TT I
1.27165 7.08306
1.31627 6.79884
1.36089 6.59404
1.40551 6.05061
1.45013 6.07247
1.49476 6.30772
1.53938 6.1561
1.584 5.52981
1.62863 5.73782
1.67325 4.75176
1.71787 4.55311
1.7625 5.20451
1.80712 5.03458
1.85174 4.85174
1.89636 4.81873
1.94099 4.58475
1.98562 4.98783
2.03025 4.61456
2.07487 4.75992
2.11949 4.15518
2.16411 4.68306
2.20874 8.97497
2.25338 12.858
2.298 5.30246
2.34263 5.58068
2.38725 4.7131
2.43188 5.28241
2.4765 5.74581
2.52115 5.69053
2.56577 5.63743
2.6104 7.57558
2.65503 6.32768
2.69965 7.31603
2.7443 7.03369
2.78893 7.1737
2.83356 7.77474
2.87818 8.57007
2.92281 8.52784
2.96744 9.26089
3.01209 10.289
3.05672 10.9674
3.10135 11.7184
3.14599 12.7611
3.19062 14.2017
3.23527 14.9052
3.2799 15.6027
3.32454 17.0395
3.36917 17.6025
3.4138 19.3654
3.45844 19.6305
3.50309 20.9989
3.54773 21.6928
3.59237 23.721
3.637 56.3192
3.68164 39.9497
3.7263 26.0262
3.77094 26.5707
3.81558 26.651
3.86022 28.3539
3.90486 29.3703
3.9495 30.4037
3.99416 31.1237
4.0388 32.6793
4.08344 34.0076
4.12809 34.7905
4.17273 37.1768
4.21738 41.1751
4.26204 137.539
4.30669 117.629
4.35133 46.2394
4.39598 44.7815
4.44063 50.453
4.4853 56.3451
4.52995 52.6724
4.5746 53.8592
4.61925 54.9459
4.6639 57.38
4.70855 60.0841
4.75322 62.9779
4.79788 66.6351
4.84253 70.1165
4.88719 75.2332
4.93184 78.724
4.97652 84.7089
5.02118 91.7755
5.06583 100.929
5.11049 115.288
5.15515 169.679
5.19981 561.981
5.24449 3656.58
5.28916 11209.0
5.33382 3518.71
5.37848 230.794
5.42315 141.27
5.46783 122.798
5.5125 112.679
5.55716 107.227
5.60183 102.473
5.6465 100.384
5.69117 98.2696
5.73586 96.4609
5.78053 98.0487
5.8252 97.5122
5.86988 98.9177
5.91455 101.543
5.95924 115.252
6.00392 305.051
6.0486 1283.31
6.09328 3990.05
6.13795 3361.37
6.18263 304.029
6.22733 100.222
6.27201 86.2157
6.3167 90.443
6.36138 77.8146
6.40606 71.6004
6.45075 69.7661
6.49545 67.2987
6.54014 65.4139
6.58483 64.245
6.62952 63.8985
6.67421 77.9867
6.71892 98.3208
6.76361 64.3113
6.8083 59.8066
6.853 59.1578
6.89769 58.0604
6.94239 57.8881
6.98711 56.7903
7.03181 57.0845
7.07651 56.3447
7.12121 56.4389
7.16591 56.5105
7.21063 56.3301
7.25533 64.083
7.30004 111.944
7.34475 72.1921
7.38945 56.6122
7.43416 55.4946
7.47889 55.3913
7.5236 55.6584
7.56831 56.1296
7.61303 57.584
7.65774 57.7733
7.70247 57.3723
7.74719 57.3944
7.79191 58.1371
7.83663 58.1546
7.88135 59.5395
7.92607 60.1355
7.97081 61.5117
8.01553 62.6828
8.06026 64.3508
8.10498 66.1258
8.14971 71.4499
8.19446 71.8605
8.23919 71.7924
8.28392 74.6715
8.32865 76.9116
8.37339 81.8123
8.41812 88.6305
8.46288 110.449
8.50761 211.701
8.55235 499.085
8.59709 1200.36
8.64183 2027.59
8.68658 1114.74
8.73134 198.139
8.77609 105.194
8.82083 96.8177
8.86558 93.603
8.91033 92.2205
8.9551 91.8262
8.99985 87.7652
9.04461 86.8924
9.08936 86.1135
9.13412 85.1936
9.17888 84.9453
9.22365 84.821
9.26841 84.7316
9.31318 86.2066
9.35794 86.1146
9.4027 86.3172
9.44749 87.1636
9.49226 87.6951
9.53703 88.5706
9.5818 91.1337
9.62657 93.9612
9.67134 97.1369
9.71614 96.0042
9.76091 97.8041
9.80569 101.039
9.85047 104.456
9.89525 117.907
9.94005 134.044
9.98484 223.194
10.0296 441.071
10.0744 885.591
10.1192 1548.45
10.164 1634.13
10.2088 505.678
10.2536 140.903
10.2984 115.447
10.3432 113.59
10.388 109.57
10.4328 133.598
10.4776 187.807
10.5224 304.547
10.5672 470.829
10.612 508.444
10.6568 229.012
10.7017 102.133
10.7465 89.8121
10.7913 86.016
10.8361 83.6196
10.8809 81.3563
10.9257 80.1125
10.9706 79.8036
11.0154 76.7914
11.0602 74.7593
11.105 73.6011
11.1499 74.727
11.1947 77.5033
11.2395 72.6784
11.2844 70.7504
11.3292 69.0136
11.374 67.7443
11.4189 67.2899
11.4637 66.8769
11.5086 66.3406
11.5534 67.558
11.5983 66.1962
11.6431 65.605
11.688 64.9563
11.7328 64.995
11.7777 64.5092
11.8225 64.2337
11.8674 64.2797
11.9122 64.5955
11.9571 64.7091
12.002 66.1643
12.0468 72.9269
12.0917 86.6392
12.1366 111.079
12.1814 149.899
12.2263 195.807
12.2712 177.403
12.3161 99.8456
12.3609 70.4961
12.4058 66.4517
12.4507 66.2149
12.4956 66.292
12.5405 66.4864
12.5853 67.2368
12.6302 71.1845
12.6751 73.5086
12.72 70.5454
12.7649 69.6572
12.8098 70.3195
12.8547 71.7116
12.8996 73.41
12.9445 74.6581
12.9894 76.8211
13.0343 78.3425
13.0792 83.1364
13.1242 97.5321
13.1691 125.763
13.214 170.311
13.2589 249.201
13.3038 344.843
13.3487 410.74
13.3937 291.901
13.4386 138.407
13.4835 117.02
13.5285 136.51
13.5734 176.826
13.6183 244.795
13.6633 322.121
13.7082 342.313
13.7531 211.239
13.7981 106.441
13.843 85.0062
13.888 82.2748
13.9329 79.5184
13.9779 78.2257
14.0228 76.6517
14.0678 75.5353
14.1127 74.8276
14.1577 74.3366
14.2027 73.4756
14.2476 72.7819
14.2926 72.2563
14.3376 72.6027
14.3825 71.7879
14.4275 70.8057
14.4725 70.8822
14.5175 71.0964
14.5624 71.0636
14.6074 72.3117
14.6524 72.8903
14.6974 72.9569
14.7424 76.3089
14.7874 85.1224
14.8324 98.339
14.8774 120.956
14.9224 154.821
14.9674 193.429
15.0124 212.835
15.0574 160.36
15.1024 98.0977
15.1474 75.4081
15.1924 72.705
15.2374 72.0427
15.2824 71.3049
15.3274 69.6603
15.3725 69.0965
15.4175 68.3077
15.4625 68.2017
15.5076 67.9626
15.5526 68.1035
15.5976 68.1977
15.6426 70.7132
15.6877 77.7831
15.7327 87.3837
15.7778 103.901
15.8228 129.845
15.8679 161.651
15.9129 186.084
15.958 164.63
16.003 107.337
16.0481 71.4486
16.0931 65.525
16.1382 63.5327
16.1833 61.921
16.2283 60.7599
16.2734 59.9931
16.3185 59.7094
16.3636 59.7088
16.4086 58.8492
16.4537 57.7501
16.4988 57.2155
16.5439 57.113
16.589 57.0012
16.6341 56.3409
16.6792 56.1221
16.7243 56.5386
16.7694 56.4307
16.8145 56.352
16.8596 56.5883
16.9047 57.2458
16.9498 57.5371
16.9949 57.0619
17.04 57.7917
17.0851 59.2554
17.1302 61.5018
17.1754 64.7466
17.2205 69.342
17.2656 75.002
17.3108 81.2807
17.3559 83.1943
17.401 74.502
17.4462 65.5678
17.4913 61.2487
17.5365 60.8375
17.5815 61.2427
17.6268 61.4196
17.6718 62.1657
17.7171 62.4513
17.7622 63.1536
17.8074 64.3361
17.8525 67.7543
17.8977 72.5659
17.9428 79.0675
17.9881 88.5451
18.0331 102.677
18.0784 117.451
18.1237 134.629
18.1688 135.988
18.214 113.991
18.2591 93.4513
18.3044 92.1935
18.3495 98.0215
18.3948 103.797
18.4399 98.2723
18.4852 80.8889
18.5303 68.4569
18.5756 64.2475
18.6207 63.1461
18.666 62.1941
18.7112 61.4224
18.7565 60.7118
18.8016 60.3232
18.8469 59.6743
18.892 59.4761
18.9374 59.1088
18.9825 58.789
19.0278 58.447
19.073 58.7211
19.1183 59.4073
19.1635 60.3957
19.2088 61.8683
19.254 64.4883
19.2993 67.9216
19.3447 71.975
19.3898 75.81
19.4352 74.1717
19.4804 66.2233
19.5257 59.0977
19.5709 55.8504
19.6163 55.5455
19.6615 55.303
19.7068 54.8819
19.752 54.8733
19.7974 55.4267
19.8426 56.4066
19.888 57.1986
19.9332 58.5186
19.9786 61.0937
20.0238 63.9869
20.0692 67.4037
20.1144 70.7015
20.1598 71.2486
20.205 66.7768
20.2504 64.0189
20.2957 64.328
20.3411 65.8835
20.3863 65.7007
20.4318 60.9172
20.477 55.5566
20.5224 52.9548
20.5677 52.2823
20.6131 51.7202
20.6586 51.1168
20.7038 51.1382
20.7493 50.5242
20.7945 50.5284
20.84 50.2314
20.8853 50.2099
20.9307 50.0538
20.976 50.325
21.0215 50.125
21.0668 50.5533
21.1122 50.9824
21.1575 51.4822
21.203 51.9374
21.2483 52.6512
21.2938 53.0044
21.3391 51.8379
21.3846 50.5868
21.4299 49.979
21.4754 50.0951
21.5207 50.2051
21.5662 50.5404
21.6116 51.0538
21.6571 51.7824
21.7024 52.9349
21.7479 54.7667
21.7933 57.102
21.8388 59.8945
21.8843 63.0455
21.9297 65.2693
21.9752 65.3484
22.0206 62.0324
22.0661 58.3001
22.1115 57.1109
22.157 57.0852
22.2024 56.0951
22.248 53.4491
22.2933 51.4323
22.3389 50.6029
22.3843 50.4277
22.4299 50.1935
22.4753 50.2705
22.5208 49.9594
22.5662 49.8742
22.6118 50.2118
22.6572 50.5633
22.7028 51.1103
22.7483 51.6973
22.7939 52.2802
22.8393 53.6849
22.8849 55.303
22.9303 56.7194
22.9759 58.2753
23.0214 58.571
23.067 56.3715
23.1126 53.187
23.1581 50.9579
23.2037 50.3003
23.2492 50.6006
23.2948 50.5581
23.3403 50.9689
23.3859 51.575
23.4314 52.7787
23.477 54.1462
23.5225 55.4895
23.5682 57.2281
23.6137 58.5142
23.6593 57.3425
23.7048 53.9201
23.7505 50.3065
23.796 48.1205
23.8417 47.5054
23.8872 46.9651
23.9329 46.5667
23.9784 46.1892
24.0241 46.0575
24.0697 45.8238
24.1154 45.5495
24.1609 45.2178
24.2066 45.0663
24.2522 44.9392
24.2979 44.7328
24.3434 44.5356
24.3892 44.4101
24.4349 44.451
24.4805 44.1277
24.5262 44.4258
24.5718 44.1558
24.6175 44.1949
24.6631 44.0313
24.7089 43.869
24.7545 43.7495
24.8002 43.5557
24.8458 43.4439
24.8916 43.3172
24.9372 43.4531
24.983 43.8989
25.0286 44.0532
25.0744 44.6077
25.12 44.9068
25.1658 45.5219
25.2114 45.9189
25.2572 45.9092
25.3029 45.808
25.3487 45.8106
25.3943 45.7635
25.4402 44.8946
25.4858 43.8873
25.5316 42.7883
25.5773 42.1104
25.6231 42.0492
25.669 41.77
25.7147 41.7863
25.7605 41.6056
25.8062 41.7775
25.8521 41.8291
25.8977 41.6576
25.9436 42.0142
25.9893 42.0892
26.0352 42.4365
26.0809 42.5496
26.1268 42.7903
26.1725 42.7367
26.2184 42.1809
26.2641 41.6218
26.31 41.2246
26.3557 41.3357
26.4017 41.4076
26.4474 41.6946
26.4933 41.9418
26.5391 42.4655
26.585 42.7247
26.6308 42.9978
26.6767 43.1666
26.7225 43.2714
26.7684 42.7719
26.8142 42.128
26.8601 41.6802
26.9059 41.3067
26.9519 40.7473
26.9979 40.296
27.0437 40.054
27.0896 39.9331
27.1354 40.004
27.1814 39.8018
27.2272 39.815
27.2732 39.7058
27.3191 39.4861
27.3651 39.5824
27.4109 39.4285
27.4569 39.5762
27.5027 39.5874
27.5488 39.6195
27.5946 39.6258
27.6407 39.374
27.6865 39.2502
27.7326 39.0756
27.7784 38.9764
27.8245 39.0438
27.8703 39.1126
27.9164 39.3362
27.9623 39.3511
28.0084 39.6806
28.0543 40.07
28.1003 39.9933
28.1462 40.0029
28.1923 39.5208
28.2384 39.0225
28.2843 38.7599
28.3304 38.2702
28.3764 37.9291
28.4225 37.5029
28.4684 37.3355
28.5145 37.0791
28.5605 36.803
28.6066 36.723
28.6526 36.637
28.6987 36.6601
28.7447 36.5365
28.7908 36.471
28.8368 36.3944
28.8829 36.331
28.9289 36.3221
28.9751 36.1975
29.0211 35.8466
29.0673 35.6411
29.1133 35.5105
29.1595 35.4054
29.2055 35.2777
29.2517 35.2862
29.2977 35.2585
29.3439 35.149
29.3899 35.1797
29.4361 34.9704
29.4824 34.9319
29.5284 34.7775
29.5746 34.4538
29.6207 34.0616
29.6669 34.0928
29.713 33.8903
29.7593 33.9257
29.8053 33.722
29.8516 33.6978
29.8977 33.7995
29.9439 33.535
29.99 33.5372
30.0363 33.3068
30.0824 33.4326
30.1287 33.1861
30.1748 33.3345
30.2211 33.3886
30.2673 33.2925
30.3136 33.2843
30.3597 33.1426
30.406 33.1126
30.4522 32.9911
30.4985 32.8516
30.5447 33.0611
30.591 33.0242
30.6372 32.9583
30.6835 32.9515
30.7297 33.1336
30.7761 33.0622
30.8224 32.9581
30.8686 32.6945
30.915 32.4598
30.9612 32.4368
31.0076 32.2008
31.0538 32.0858
31.1002 32.0271
31.1464 31.8811
31.1928 31.8615
31.2391 31.8895
31.2855 31.7211
31.3317 31.6903
31.3781 31.7607
31.4244 31.7315
31.4708 31.6083
31.5171 31.6425
31.5636 31.6463
31.6098 31.3456
31.6563 31.4113
31.7026 31.154
31.7491 30.9749
31.7953 31.0736
31.8418 31.0389
31.8881 30.9626
31.9346 30.943
31.9809 30.7773
32.0275 30.7899
32.074 30.683
32.1203 30.4952
32.1668 30.382
32.2132 30.1958
32.2597 30.081
32.306 29.9001
32.3526 29.8219
32.399 29.7313
32.4455 29.6027
32.4919 29.413
32.5385 29.4651
32.5848 29.3227
32.6314 29.2468
32.6778 29.2366
32.7244 29.0873
32.7708 28.9521
32.8174 28.9013
32.8638 28.8338
32.9104 28.8956
32.9569 28.6981
33.0035 28.6353
33.0499 28.5725
33.0966 28.6434
33.143 28.5343
33.1897 28.4241
33.2361 28.2963
33.2828 28.4115
33.3293 28.1945
33.3759 28.0849
33.4226 28.0787
33.4691 27.95
33.5158 27.8334
33.5623 27.6879
33.609 27.5173
33.6555 27.3961
33.7022 27.3151
33.7487 27.2504
33.7954 27.2194
33.842 27.1333
33.8887 27.0302
33.9353 26.9532
33.982 26.9454
34.0286 26.851
34.0753 26.694
34.1219 26.5801
34.1687 26.5293
34.2152 26.4909
34.262 26.3969
34.3086 26.2011
34.3554 26.2009
34.402 26.0868
34.4488 25.9583
34.4954 26.0644
34.5422 25.9463
34.5889 25.7884
34.6357 25.6173
34.6825 25.6771
34.7292 25.5628
34.776 25.4335
34.8227 25.3789
34.8695 25.3237
34.9162 25.3419
34.9631 25.1401
35.0098 25.1339
35.0566 24.9782
35.1033 25.0199
35.1502 24.9349
35.1969 24.8451
35.2438 24.803
35.2906 24.6972
35.3375 24.7218
35.3842 24.6119
35.4311 24.5855
35.4779 24.6816
35.5248 24.4918
35.5716 24.3639
35.6185 24.2916
35.6653 24.2792
35.7123 24.2498
35.759 24.1024
35.806 23.9972
35.8528 23.8998
35.8998 23.8337
35.9468 23.756
35.9936 23.7186
36.0406 23.6735
36.0874 23.6206
36.1345 23.5157
36.1813 23.5106
36.2283 23.3622
36.2752 23.2577
36.3222 23.335
36.3691 23.2132
36.4161 23.0587
36.463 23.0272
36.5101 23.0502
36.557 22.9858
36.6041 22.8136
36.651 22.7947
36.6981 22.6531
36.745 22.6735
36.7921 22.5678
36.839 22.419
36.8861 22.3926
36.9331 22.3335
36.9802 22.2905
37.0272 22.1808
37.0743 22.1044
37.1213 22.0442
37.1684 22.036
37.2154 21.9703
37.2626 21.7631
37.3098 21.8478
37.3568 21.6686
37.404 21.6551
37.451 21.5578
37.4982 21.5601
37.5452 21.4505
37.5924 21.3453
37.6395 21.4496
37.6867 21.2371
37.7337 21.2066
37.781 21.0854
37.8281 21.0376
37.8753 20.932
37.9224 20.8604
37.9697 20.8033
38.0168 20.7539
38.064 20.6828
38.1111 20.6821
38.1584 20.5176
38.2056 20.4865
38.2529 20.4665
38.3 20.348
38.3473 20.3743
38.3945 20.1556
38.4418 20.2245
38.489 20.0916
38.5363 20.0204
38.5837 19.9213
38.6309 19.9553
38.6782 19.8707
38.7254 19.7906
38.7728 19.7397
38.82 19.6769
38.8674 19.6576
38.9146 19.5146
38.9621 19.443
39.0093 19.4401
39.0567 19.4367
39.104 19.3085
39.1514 19.2058
39.1987 19.1886
39.2461 19.1589
39.2934 19.0574
39.3409 18.9811
39.3882 18.8876
39.4356 18.8729
39.483 18.8174
39.5304 18.7564
39.5778 18.7749
39.6253 18.6885
39.6726 18.6089
39.7201 18.5098
39.7675 18.4247
39.815 18.4538
39.8624 18.3216
39.9099 18.3251
39.9575 18.1903
40.0049 18.1426
40.0525 18.082
40.0999 18.071
40.1474 18.0491
40.1949 17.9399
40.2425 17.8822
40.2899 17.8417
40.3375 17.8666
40.385 17.7415
40.4326 17.6607
40.48 17.6351
40.5277 17.5701
40.5752 17.432
40.6228 17.4075
40.6703 17.3619
40.718 17.2933
40.7655 17.2696
40.8132 17.1463
40.8607 17.2081
40.9084 17.1719
40.9559 17.074
41.0036 17.0511
41.0512 16.969
41.0989 16.8696
41.1465 16.8437
41.1942 16.7835
41.242 16.7106
41.2896 16.7035
41.3373 16.6018
41.3849 16.5895
41.4327 16.547
41.4803 16.4255
41.5281 16.359
41.5758 16.3205
41.6236 16.2691
41.6712 16.2037
41.7191 16.1833
41.7667 16.082
41.8146 16.1074
41.8622 16.063
41.9101 15.9702
41.9578 15.8677
42.0057 15.8442
42.0534 15.7704
42.1013 15.7921
42.149 15.642
42.1969 15.6505
42.2446 15.5701
42.2925 15.588
42.3403 15.4725
42.3882 15.4635
42.436 15.4092
42.4839 15.2502
42.5319 15.2863
42.5797 15.2221
42.6277 15.161
42.6755 15.0834
42.7235 15.0315
42.7713 15.0246
42.8193 14.9377
42.8671 14.9174
42.9152 14.879
42.963 14.7837
43.0111 14.7757
43.0589 14.7628
43.107 14.5957
43.1549 14.5436
43.2029 14.5135
43.2508 14.4998
43.2989 14.4494
43.3468 14.3797
43.3949 14.3809
43.4429 14.2875
43.491 14.3029
43.5389 14.2009
43.5871 14.1783
43.635 14.0741
43.6832 14.064
43.7312 13.9364
43.7793 13.8978
43.8273 13.9641
43.8755 13.8662
43.9237 13.8329
43.9717 13.764
44.0199 13.6975
44.068 13.6705
44.1162 13.5796
44.1642 13.6115
44.2125 13.5315
44.2606 13.4716
44.3088 13.4186
44.3569 13.3933
44.4052 13.3253
44.4533 13.2859
44.5016 13.2303
44.5497 13.2087
44.598 13.1353
44.6461 13.1375
44.6945 13.0999
44.7426 13.0089
44.791 12.9597
44.8391 12.9375
44.8875 12.8785
44.9357 12.8684
44.984 12.789
45.0322 12.7369
45.0806 12.66
45.1288 12.6422
45.1773 12.6335
45.2257 12.525
45.2739 12.513
45.3224 12.4693
45.3706 12.4263
45.4191 12.3799
45.4673 12.3732
45.5158 12.3191
45.5641 12.2944
45.6126 12.2023
45.6609 12.1858
45.7094 12.1059
45.7577 12.0572
45.8063 11.9814
45.8546 12.0187
45.9031 11.9432
45.9515 11.9291
46.0001 11.8843
46.0484 11.7947
46.097 11.7991
46.1454 11.7447
46.194 11.7203
46.2424 11.6303
46.291 11.623
46.3395 11.5712
46.3881 11.4924
46.4365 11.5757
46.4852 11.4305
46.5337 11.412
46.5823 11.3772
46.631 11.2801
46.6795 11.3133
46.7282 11.2713
46.7767 11.241
46.8254 11.1333
46.8739 11.1194
46.9226 11.0733
46.9712 11.0327
47.0199 10.9685
47.0685 10.9455
47.1173 10.8911
47.1658 10.8327
47.2146 10.8257
47.2632 10.7572
47.312 10.6769
47.3606 10.6969
47.4095 10.6619
47.4581 10.6617
47.5069 10.5868
47.5556 10.5537
47.6044 10.4664
47.6531 10.4718
47.702 10.4168
47.7507 10.3895
47.7996 10.3522
47.8483 10.2973
47.8972 10.3003
47.9461 10.2598
47.9948 10.1966
48.0438 10.1891
48.0925 10.1177
48.1415 10.0818
48.1902 10.0291
48.2392 10.0188
48.288 10.0323
48.337 9.94877
48.3858 9.92141
48.4348 9.88298
48.4837 9.88674
48.5327 9.8065
48.5815 9.75025
48.6306 9.75397
48.6795 9.71262
48.7285 9.67104
48.7774 9.64354
48.8265 9.62674
48.8754 9.5319
48.9245 9.51192
48.9734 9.48349
49.0226 9.44368
49.0715 9.40693
49.1206 9.35815
49.1696 9.32551
49.2188 9.30706
49.2679 9.28885
49.3169 9.23196
49.3661 9.2117
49.4151 9.14541
49.4643 9.16278
49.5134 9.10125
49.5626 9.03959
49.6117 9.06461
49.6609 8.9944
49.71 8.95488
49.7592 8.9283
49.8083 8.92193
49.8576 8.87903
49.9067 8.8061
49.956 8.77516
50.0052 8.77319
50.0545 8.73289
50.1036 8.6812
50.153 8.65835
50.2022 8.63227
50.2515 8.61793
50.3007 8.56062
50.3501 8.49989
50.3993 8.51159
50.4487 8.45601
50.498 8.39
50.5474 8.38315
50.5966 8.35232
50.6461 8.32141
50.6955 8.29364
50.7448 8.22648
50.7943 8.19779
50.8436 8.17681
50.8931 8.15885
50.9424 8.12631
50.9919 8.1111
51.0413 8.0861
51.0908 8.00237
51.1402 8.00808
51.1897 7.94615
51.2391 7.97823
51.2887 7.94134
51.3381 7.85386
51.3877 7.85502
51.4371 7.82891
51.4867 7.75284
51.5362 7.7604
51.5858 7.69687
51.6353 7.64324
51.6849 7.62833
51.7344 7.59927
51.7841 7.60476
51.8336 7.58125
51.8833 7.51236
51.9328 7.52023
51.9826 7.4551
52.0323 7.44142
52.0818 7.36369
52.1316 7.33487
52.1812 7.33052
52.231 7.28682
52.2806 7.28494
52.3304 7.25059
52.38 7.22248
52.4298 7.19659
52.4794 7.14024
52.5293 7.13191
52.5789 7.08499
52.6288 7.08473
52.6785 6.99645
52.7284 7.0323
52.7781 6.9699
52.828 6.93546
52.8777 6.91903
52.9276 6.86357
52.9774 6.82057
53.0273 6.84026
53.0771 6.80585
53.1271 6.80228
53.1769 6.72543
53.2269 6.73839
53.2767 6.72035
53.3267 6.67377
53.3765 6.64058
53.4266 6.59544
53.4766 6.57339
53.5265 6.53917
53.5765 6.51118
53.6264 6.44363
53.6765 6.50967
53.7264 6.46583
53.7765 6.40951
53.8265 6.34048
53.8766 6.34131
53.9266 6.34392
53.9767 6.26783
54.0267 6.27211
54.0769 6.24524
54.1269 6.17754
54.1771 6.16551
54.2271 6.12496
54.2773 6.05902
54.3274 6.06873
54.3776 6.07708
54.4277 6.03527
54.478 5.96901
54.528 5.91417
54.5783 5.91996
54.6285 5.84267
54.6788 5.8334
54.7289 5.80459
54.7792 5.72531
54.8296 5.6873
54.8798 5.6652
54.9301 5.64321
54.9803 5.61379
55.0307 5.5999
55.0809 5.52294
55.1314 5.52154
55.1816 5.44037
55.232 5.38008
55.2823 5.37604
55.3328 5.25169
55.383 5.25129
55.4335 5.18925
55.4838 5.11802
55.5344 5.01866
55.5847 5.02759
55.6352 5.04856
55.6856 4.93699
55.7361 4.93129