File: XRD/Ni3Fe_FD0530.xy
TT I
1.27165 7.12959
1.31627 6.6541
1.36089 6.60393
1.40551 6.4368
1.45013 6.05274
1.49476 5.97229
1.53938 6.09277
1.584 5.53422
1.62863 4.62404
1.67325 5.28294
1.71787 5.12445
1.7625 4.98362
1.80712 4.68757
1.85174 3.9496
1.89636 5.27817
1.94099 5.04758
1.98562 4.5948
2.03025 4.66245
2.07487 4.87857
2.11949 5.00435
2.16411 4.48826
2.20874 16.5601
2.25338 28.2554
2.298 7.53498
2.34263 5.17223
2.38725 5.79542
2.43188 6.165
2.4765 6.88351
2.52115 6.76037
2.56577 7.86164
2.6104 7.5212
2.65503 7.36613
2.69965 7.82636
2.7443 8.34233
2.78893 8.5174
2.83356 8.93884
2.87818 8.97587
2.92281 9.25896
2.96744 9.00993
3.01209 10.8218
3.05672 11.1677
3.10135 12.649
3.14599 12.9877
3.19062 14.1705
3.23527 15.1832
3.2799 15.4295
3.32454 16.8444
3.36917 18.0328
3.4138 19.2976
3.45844 20.1589
3.50309 20.8542
3.54773 22.3332
3.59237 24.8818
3.637 112.555
3.68164 70.3168
3.7263 26.9258
3.77094 26.5558
3.81558 26.8985
3.86022 27.7132
3.90486 29.2652
3.9495 29.95
3.99416 31.0385
4.0388 32.7221
4.08344 33.8321
4.12809 35.4932
4.17273 38.1101
4.21738 45.1936
4.26204 304.421
4.30669 274.371
4.35133 51.4446
4.39598 45.6041
4.44063 56.6444
4.4853 71.7523
4.52995 51.2892
4.5746 51.7807
4.61925 53.5297
4.6639 55.7962
4.70855 58.575
4.75322 61.0641
4.79788 63.8645
4.84253 67.4882
4.88719 71.5246
4.93184 75.3911
4.97652 81.3282
5.02118 87.4828
5.06583 95.2515
5.11049 107.295
5.15515 191.604
5.19981 371.795
5.24449 2745.85
5.28916 11936.9
5.33382 3361.04
5.37848 206.164
5.42315 133.509
5.46783 115.612
5.5125 107.58
5.55716 103.19
5.60183 99.7023
5.6465 97.9525
5.69117 95.4146
5.73586 93.0265
5.78053 92.672
5.8252 92.252
5.86988 92.4839
5.91455 94.9759
5.95924 102.832
6.00392 207.801
6.0486 946.317
6.09328 4091.81
6.13795 3556.89
6.18263 301.849
6.22733 97.6089
6.27201 85.7789
6.3167 111.045
6.36138 84.7208
6.40606 69.9307
6.45075 68.428
6.49545 66.5109
6.54014 64.5856
6.58483 63.816
6.62952 64.1148
6.67421 102.527
6.71892 171.24
6.76361 72.6984
6.8083 59.6468
6.853 58.4022
6.89769 57.7828
6.94239 57.5993
6.98711 56.8497
7.03181 56.366
7.07651 56.4114
7.12121 56.3536
7.16591 56.3987
7.21063 56.7233
7.25533 74.6683
7.30004 217.37
7.34475 104.599
7.38945 57.8829
7.43416 55.5618
7.47889 55.1923
7.5236 55.6144
7.56831 56.2616
7.61303 58.6267
7.65774 59.0989
7.70247 56.803
7.74719 56.7637
7.79191 57.39
7.83663 57.4509
7.88135 58.4865
7.92607 59.2061
7.97081 60.4422
8.01553 61.5044
8.06026 62.6937
8.10498 64.486
8.14971 75.9144
8.19446 74.7401
8.23919 70.4808
8.28392 72.1163
8.32865 74.4562
8.37339 78.9889
8.41812 86.9038
8.46288 121.122
8.50761 164.863
8.55235 379.45
8.59709 1098.01
8.64183 2158.11
8.68658 1083.07
8.73134 197.619
8.77609 102.33
8.82083 94.0297
8.86558 90.8688
8.91033 91.1308
8.9551 94.441
8.99985 86.2309
9.04461 84.1456
9.08936 83.6182
9.13412 82.8856
9.17888 82.7923
9.22365 83.7601
9.26841 82.3899
9.31318 82.9855
9.35794 83.3461
9.4027 83.6
9.44749 84.4157
9.49226 85.0567
9.53703 86.1786
9.5818 87.9132
9.62657 93.5613
9.67134 102.111
9.71614 95.0884
9.76091 94.5474
9.80569 97.1863
9.85047 100.378
9.89525 130.498
9.94005 144.839
9.98484 174.717
10.0296 332.333
10.0744 755.998
10.1192 1627.15
10.164 1681.0
10.2088 467.786
10.2536 135.124
10.2984 116.533
10.3432 119.247
10.388 106.519
10.4328 117.852
10.4776 158.568
10.5224 268.822
10.5672 494.358
10.612 544.78
10.6568 225.545
10.7017 100.037
10.7465 87.9456
10.7913 84.3362
10.8361 82.1425
10.8809 79.7745
10.9257 79.798
10.9706 80.8896
11.0154 75.962
11.0602 73.6351
11.105 72.6645
11.1499 78.2938
11.1947 88.4969
11.2395 77.4424
11.2844 72.2256
11.3292 68.2398
11.374 67.0655
11.4189 66.3671
11.4637 65.8644
11.5086 66.1887
11.5534 70.5423
11.5983 67.0173
11.6431 64.4484
11.688 63.6746
11.7328 63.8409
11.7777 63.4769
11.8225 63.1757
11.8674 63.0541
11.9122 63.5347
11.9571 63.5886
12.002 63.9828
12.0468 68.1883
12.0917 79.5246
12.1366 102.144
12.1814 146.938
12.2263 201.849
12.2712 177.225
12.3161 104.5
12.3609 73.5335
12.4058 65.9083
12.4507 64.9522
12.4956 65.2095
12.5405 65.429
12.5853 66.4827
12.6302 76.2114
12.6751 83.7949
12.72 71.8847
12.7649 68.729
12.8098 69.1363
12.8547 70.2338
12.8996 71.7126
12.9445 72.81
12.9894 74.685
13.0343 76.0168
13.0792 79.2638
13.1242 87.8827
13.1691 111.953
13.214 146.723
13.2589 226.121
13.3038 350.911
13.3487 437.33
13.3937 292.371
13.4386 132.842
13.4835 106.738
13.5285 120.047
13.5734 155.077
13.6183 234.091
13.6633 337.423
13.7082 353.621
13.7531 203.17
13.7981 103.468
13.843 83.1042
13.888 80.5676
13.9329 77.9818
13.9779 76.5752
14.0228 75.0673
14.0678 73.8795
14.1127 73.4541
14.1577 73.5168
14.2027 72.4716
14.2476 71.2034
14.2926 71.4989
14.3376 73.0148
14.3825 71.4452
14.4275 69.3848
14.4725 69.2322
14.5175 69.4702
14.5624 69.8729
14.6074 72.4516
14.6524 73.1291
14.6974 71.1868
14.7424 72.2816
14.7874 78.6475
14.8324 88.5259
14.8774 108.471
14.9224 146.641
14.9674 197.456
15.0124 219.876
15.0574 159.179
15.1024 96.2404
15.1474 73.8934
15.1924 71.5683
15.2374 72.6638
15.2824 71.9959
15.3274 69.2956
15.3725 68.0121
15.4175 67.1239
15.4625 66.9079
15.5076 67.0114
15.5526 67.0961
15.5976 66.5598
15.6426 67.2219
15.6877 72.3404
15.7327 79.7884
15.7778 93.7642
15.8228 121.37
15.8679 164.079
15.9129 194.057
15.958 165.02
16.003 103.904
16.0481 70.864
16.0931 66.6283
16.1382 64.1634
16.1833 61.5634
16.2283 59.6634
16.2734 59.3422
16.3185 59.712
16.3636 60.8638
16.4086 58.9021
16.4537 57.133
16.4988 56.0866
16.5439 56.2053
16.589 56.1545
16.6341 55.6284
16.6792 55.3575
16.7243 55.3793
16.7694 55.833
16.8145 55.5862
16.8596 56.0942
16.9047 58.1931
16.9498 58.2859
16.9949 56.5018
17.04 56.3875
17.0851 57.5664
17.1302 58.981
17.1754 62.0649
17.2205 66.4728
17.2656 73.3739
17.3108 82.0575
17.3559 82.695
17.401 73.5819
17.4462 63.8207
17.4913 59.9534
17.5365 59.7166
17.5815 59.7094
17.6268 60.0484
17.6718 61.1576
17.7171 61.7732
17.7622 61.8474
17.8074 62.3673
17.8525 64.4662
17.8977 68.2666
17.9428 73.7405
17.9881 81.816
18.0331 97.1081
18.0784 117.546
18.1237 137.897
18.1688 135.184
18.214 108.765
18.2591 88.4664
18.3044 89.5962
18.3495 98.7599
18.3948 107.272
18.4399 101.039
18.4852 81.5146
18.5303 67.8078
18.5756 63.1333
18.6207 62.0638
18.666 61.1732
18.7112 60.4259
18.7565 59.5616
18.8016 59.2124
18.8469 58.7594
18.892 58.2493
18.9374 57.8158
18.9825 57.5944
19.0278 57.5624
19.073 57.5595
19.1183 57.9933
19.1635 58.9384
19.2088 60.0561
19.254 62.3648
19.2993 66.2948
19.3447 72.3167
19.3898 76.8603
19.4352 74.1454
19.4804 65.1422
19.5257 57.9867
19.5709 55.0905
19.6163 54.4341
19.6615 54.4242
19.7068 53.8432
19.752 53.7544
19.7974 54.0477
19.8426 54.9928
19.888 55.6637
19.9332 56.7061
19.9786 58.9673
20.0238 62.0952
20.0692 66.9791
20.1144 70.3872
20.1598 69.5472
20.205 64.8012
20.2504 62.6484
20.2957 63.812
20.3411 66.2549
20.3863 65.7386
20.4318 59.9554
20.477 54.9137
20.5224 52.6929
20.5677 51.7698
20.6131 50.9668
20.6586 50.217
20.7038 50.2304
20.7493 49.6647
20.7945 49.6128
20.84 49.3351
20.8853 49.1974
20.9307 49.0738
20.976 49.1845
21.0215 48.9567
21.0668 49.6799
21.1122 50.0354
21.1575 50.5983
21.203 51.217
21.2483 51.8903
21.2938 52.2833
21.3391 50.7493
21.3846 49.6183
21.4299 48.9337
21.4754 48.8025
21.5207 49.0405
21.5662 49.4101
21.6116 49.5665
21.6571 50.4533
21.7024 51.2102
21.7479 52.9083
21.7933 55.2078
21.8388 58.7793
21.8843 62.3394
21.9297 65.0098
21.9752 64.6355
22.0206 61.0059
22.0661 57.4852
22.1115 56.6215
22.157 56.5577
22.2024 55.2864
22.248 52.4257
22.2933 50.6208
22.3389 49.7051
22.3843 49.6851
22.4299 49.6023
22.4753 49.4907
22.5208 49.2912
22.5662 49.0547
22.6118 49.1181
22.6572 49.2537
22.7028 49.6945
22.7483 50.2481
22.7939 50.8121
22.8393 52.3218
22.8849 54.1186
22.9303 56.1254
22.9759 58.3557
23.0214 58.3983
23.067 55.9295
23.1126 52.2301
23.1581 50.0037
23.2037 49.3526
23.2492 49.4851
23.2948 49.2908
23.3403 49.6364
23.3859 50.1075
23.4314 51.1515
23.477 52.7465
23.5225 54.7691
23.5682 57.0137
23.6137 58.6004
23.6593 56.8247
23.7048 52.9271
23.7505 49.2701
23.796 47.3047
23.8417 46.5853
23.8872 46.1644
23.9329 45.9266
23.9784 45.3593
24.0241 45.2409
24.0697 45.0082
24.1154 44.5808
24.1609 44.4035
24.2066 44.4076
24.2522 44.2811
24.2979 44.0375
24.3434 43.8794
24.3892 43.7163
24.4349 43.744
24.4805 43.3264
24.5262 43.6983
24.5718 43.3353
24.6175 43.5284
24.6631 43.3009
24.7089 43.0842
24.7545 43.0089
24.8002 42.7522
24.8458 42.7307
24.8916 42.4506
24.9372 42.6557
24.983 43.0302
25.0286 43.1895
25.0744 43.6652
25.12 44.059
25.1658 44.7473
25.2114 45.1308
25.2572 45.271
25.3029 45.2742
25.3487 45.4255
25.3943 45.2606
25.4402 44.2626
25.4858 43.2281
25.5316 42.0825
25.5773 41.4187
25.6231 41.3506
25.669 41.0495
25.7147 41.0421
25.7605 40.8718
25.8062 41.0611
25.8521 41.2225
25.8977 41.1578
25.9436 41.3004
25.9893 41.2796
26.0352 41.8851
26.0809 41.8886
26.1268 42.2049
26.1725 41.8676
26.2184 41.4579
26.2641 40.941
26.31 40.6278
26.3557 40.6709
26.4017 40.5832
26.4474 40.7805
26.4933 41.0668
26.5391 41.6284
26.585 42.026
26.6308 42.5215
26.6767 42.6305
26.7225 42.5151
26.7684 41.9279
26.8142 41.3723
26.8601 40.9409
26.9059 40.6613
26.9519 39.9923
26.9979 39.8582
27.0437 39.3694
27.0896 39.1667
27.1354 39.1007
27.1814 39.0074
27.2272 38.9756
27.2732 39.1386
27.3191 38.945
27.3651 39.0262
27.4109 38.8208
27.4569 38.903
27.5027 38.9595
27.5488 39.0144
27.5946 38.816
27.6407 38.6015
27.6865 38.612
27.7326 38.2225
27.7784 38.3598
27.8245 38.3027
27.8703 38.5194
27.9164 38.6324
27.9623 38.6907
28.0084 39.0049
28.0543 39.3857
28.1003 39.3885
28.1462 39.2616
28.1923 38.9667
28.2384 38.4077
28.2843 38.2924
28.3304 37.7081
28.3764 37.2372
28.4225 36.8078
28.4684 36.8776
28.5145 36.4854
28.5605 36.3329
28.6066 36.1158
28.6526 36.0315
28.6987 36.0446
28.7447 35.9202
28.7908 35.8258
28.8368 35.9512
28.8829 35.8719
28.9289 35.8486
28.9751 35.6227
29.0211 35.4391
29.0673 35.1192
29.1133 35.0367
29.1595 34.8439
29.2055 34.6632
29.2517 34.7918
29.2977 34.7077
29.3439 34.5632
29.3899 34.5931
29.4361 34.6018
29.4824 34.4447
29.5284 34.2059
29.5746 33.7696
29.6207 33.6012
29.6669 33.5513
29.713 33.386
29.7593 33.2675
29.8053 33.2769
29.8516 33.2733
29.8977 33.196
29.9439 33.1163
29.99 32.9668
30.0363 32.9838
30.0824 32.8998
30.1287 32.7063
30.1748 32.8948
30.2211 32.8615
30.2673 32.6995
30.3136 32.7303
30.3597 32.5801
30.406 32.5117
30.4522 32.4575
30.4985 32.4168
30.5447 32.5653
30.591 32.456
30.6372 32.5013
30.6835 32.5875
30.7297 32.6082
30.7761 32.5213
30.8224 32.4471
30.8686 32.3614
30.915 31.965
30.9612 31.9122
31.0076 31.6971
31.0538 31.5371
31.1002 31.495
31.1464 31.3298
31.1928 31.2979
31.2391 31.318
31.2855 31.1798
31.3317 31.1987
31.3781 31.267
31.4244 31.2707
31.4708 31.1926
31.5171 31.2063
31.5636 31.1579
31.6098 30.9203
31.6563 30.6955
31.7026 30.5763
31.7491 30.4389
31.7953 30.614
31.8418 30.455
31.8881 30.4014
31.9346 30.438
31.9809 30.3465
32.0275 30.3116
32.074 30.1989
32.1203 30.038
32.1668 29.9838
32.2132 29.6952
32.2597 29.5979
32.306 29.5434
32.3526 29.3612
32.399 29.3069
32.4455 29.0913
32.4919 29.0588
32.5385 29.0149
32.5848 28.8583
32.6314 28.8067
32.6778 28.8222
32.7244 28.562
32.7708 28.4877
32.8174 28.5076
32.8638 28.3276
32.9104 28.4339
32.9569 28.3515
33.0035 28.2688
33.0499 28.1162
33.0966 28.0597
33.143 28.0891
33.1897 28.0985
33.2361 27.8326
33.2828 27.9269
33.3293 27.732
33.3759 27.7163
33.4226 27.544
33.4691 27.4783
33.5158 27.4048
33.5623 27.2737
33.609 27.0638
33.6555 27.0803
33.7022 26.9429
33.7487 26.8101
33.7954 26.7979
33.842 26.6549
33.8887 26.5734
33.9353 26.6005
33.982 26.506
34.0286 26.38
34.0753 26.2396
34.1219 26.2633
34.1687 26.0362
34.2152 26.0625
34.262 25.8798
34.3086 25.9181
34.3554 25.87
34.402 25.7524
34.4488 25.5551
34.4954 25.5691
34.5422 25.5266
34.5889 25.4088
34.6357 25.3225
34.6825 25.1881
34.7292 25.1105
34.776 25.0762
34.8227 25.0223
34.8695 24.9733
34.9162 24.9039
34.9631 24.7924
35.0098 24.8126
35.0566 24.654
35.1033 24.5898
35.1502 24.5603
35.1969 24.4623
35.2438 24.4607
35.2906 24.3812
35.3375 24.3013
35.3842 24.2095
35.4311 24.2939
35.4779 24.2635
35.5248 24.1729
35.5716 24.0799
35.6185 23.9652
35.6653 23.9433
35.7123 23.7638
35.759 23.7902
35.806 23.5945
35.8528 23.4996
35.8998 23.4333
35.9468 23.4379
35.9936 23.3752
36.0406 23.3262
36.0874 23.269
36.1345 23.0772
36.1813 23.1033
36.2283 23.0536
36.2752 22.9268
36.3222 22.9231
36.3691 22.9287
36.4161 22.7918
36.463 22.764
36.5101 22.6444
36.557 22.5499
36.6041 22.3977
36.651 22.5195
36.6981 22.3792
36.745 22.3367
36.7921 22.2199
36.839 22.1227
36.8861 22.0543
36.9331 21.9884
36.9802 21.9404
37.0272 21.8532
37.0743 21.8071
37.1213 21.7622
37.1684 21.6555
37.2154 21.615
37.2626 21.5431
37.3098 21.5045
37.3568 21.4077
37.404 21.3984
37.451 21.2563
37.4982 21.1998
37.5452 21.0927
37.5924 21.0365
37.6395 21.0902
37.6867 20.9551
37.7337 20.8452
37.781 20.8257
37.8281 20.8124
37.8753 20.7319
37.9224 20.5874
37.9697 20.5545
38.0168 20.4612
38.064 20.442
38.1111 20.3467
38.1584 20.288
38.2056 20.2167
38.2529 20.1827
38.3 20.0446
38.3473 20.0942
38.3945 19.9305
38.4418 19.8683
38.489 19.8763
38.5363 19.7452
38.5837 19.7178
38.6309 19.6436
38.6782 19.661
38.7254 19.5393
38.7728 19.4644
38.82 19.3572
38.8674 19.3847
38.9146 19.2653
38.9621 19.2352
39.0093 19.1564
39.0567 19.0754
39.104 19.0639
39.1514 18.9699
39.1987 18.9296
39.2461 18.9142
39.2934 18.7913
39.3409 18.6816
39.3882 18.6603
39.4356 18.5634
39.483 18.5795
39.5304 18.503
39.5778 18.4266
39.6253 18.3998
39.6726 18.3457
39.7201 18.3319
39.7675 18.2282
39.815 18.1825
39.8624 18.0465
39.9099 18.0538
39.9575 17.9489
40.0049 17.9714
40.0525 17.8744
40.0999 17.804
40.1474 17.7506
40.1949 17.7039
40.2425 17.6639
40.2899 17.5757
40.3375 17.552
40.385 17.451
40.4326 17.406
40.48 17.3394
40.5277 17.3084
40.5752 17.2579
40.6228 17.2078
40.6703 17.174
40.718 17.1053
40.7655 16.9924
40.8132 16.9823
40.8607 17.0104
40.9084 16.9415
40.9559 16.809
41.0036 16.8002
41.0512 16.718
41.0989 16.709
41.1465 16.6389
41.1942 16.6021
41.242 16.4882
41.2896 16.44
41.3373 16.3815
41.3849 16.3256
41.4327 16.2515
41.4803 16.1346
41.5281 16.1253
41.5758 16.153
41.6236 16.0262
41.6712 15.9597
41.7191 15.959
41.7667 15.8683
41.8146 15.9008
41.8622 15.8149
41.9101 15.735
41.9578 15.6264
42.0057 15.6645
42.0534 15.5742
42.1013 15.5419
42.149 15.5009
42.1969 15.4334
42.2446 15.3884
42.2925 15.3428
42.3403 15.2517
42.3882 15.2311
42.436 15.1818
42.4839 15.1325
42.5319 15.0909
42.5797 15.0594
42.6277 14.968
42.6755 14.9662
42.7235 14.8496
42.7713 14.7297
42.8193 14.7874
42.8671 14.6779
42.9152 14.6846
42.963 14.6406
43.0111 14.5276
43.0589 14.5269
43.107 14.4965
43.1549 14.3771
43.2029 14.3818
43.2508 14.3327
43.2989 14.2336
43.3468 14.2072
43.3949 14.1662
43.4429 14.0922
43.491 14.049
43.5389 14.0091
43.5871 13.968
43.635 13.9431
43.6832 13.8515
43.7312 13.8334
43.7793 13.7781
43.8273 13.6996
43.8755 13.6971
43.9237 13.5981
43.9717 13.6078
44.0199 13.5679
44.068 13.4928
44.1162 13.4256
44.1642 13.3737
44.2125 13.3754
44.2606 13.2967
44.3088 13.2794
44.3569 13.2045
44.4052 13.1804
44.4533 13.1281
44.5016 13.0326
44.5497 13.0363
44.598 12.9816
44.6461 12.9139
44.6945 12.9602
44.7426 12.8321
44.791 12.7995
44.8391 12.7878
44.8875 12.7029
44.9357 12.7003
44.984 12.6298
45.0322 12.5427
45.0806 12.5499
45.1288 12.4854
45.1773 12.437
45.2257 12.395
45.2739 12.3602
45.3224 12.3367
45.3706 12.2867
45.4191 12.2159
45.4673 12.1916
45.5158 12.133
45.5641 12.0989
45.6126 12.0428
45.6609 12.0271
45.7094 11.9699
45.7577 11.8896
45.8063 11.8778
45.8546 11.8773
45.9031 11.8141
45.9515 11.7986
46.0001 11.7043
46.0484 11.7052
46.097 11.6335
46.1454 11.6064
46.194 11.5378
46.2424 11.5072
46.291 11.4498
46.3395 11.4227
46.3881 11.3808
46.4365 11.3525
46.4852 11.276
46.5337 11.2341
46.5823 11.2242
46.631 11.1232
46.6795 11.157
46.7282 11.1172
46.7767 11.0322
46.8254 10.9762
46.8739 10.9738
46.9226 10.9537
46.9712 10.8454
47.0199 10.8501
47.0685 10.8344
47.1173 10.7832
47.1658 10.701
47.2146 10.6901
47.2632 10.6163
47.312 10.5945
47.3606 10.5851
47.4095 10.5117
47.4581 10.4913
47.5069 10.4401
47.5556 10.4081
47.6044 10.3551
47.6531 10.3933
47.702 10.279
47.7507 10.3023
47.7996 10.2193
47.8483 10.1983
47.8972 10.1575
47.9461 10.1468
47.9948 10.045
48.0438 10.0477
48.0925 10.0268
48.1415 10.0132
48.1902 9.90685
48.2392 9.91379
48.288 9.85912
48.337 9.83703
48.3858 9.8182
48.4348 9.75878
48.4837 9.74688
48.5327 9.70222
48.5815 9.65417
48.6306 9.60186
48.6795 9.59793
48.7285 9.51953
48.7774 9.51031
48.8265 9.46922
48.8754 9.43468
48.9245 9.44351
48.9734 9.33725
49.0226 9.35813
49.0715 9.31245
49.1206 9.25537
49.1696 9.22909
49.2188 9.16372
49.2679 9.14707
49.3169 9.08536
49.3661 9.08587
49.4151 9.04376
49.4643 9.02674
49.5134 9.02149
49.5626 8.93728
49.6117 8.92983
49.6609 8.85528
49.71 8.83284
49.7592 8.81762
49.8083 8.78509
49.8576 8.72795
49.9067 8.70865
49.956 8.73855
50.0052 8.64148
50.0545 8.62915
50.1036 8.59735
50.153 8.54351
50.2022 8.47148
50.2515 8.50992
50.3007 8.43124
50.3501 8.37869
50.3993 8.414
50.4487 8.37844
50.498 8.29605
50.5474 8.31479
50.5966 8.26478
50.6461 8.22606
50.6955 8.19714
50.7448 8.16064
50.7943 8.16687
50.8436 8.12405
50.8931 8.06804
50.9424 8.02333
50.9919 7.99199
51.0413 8.00339
51.0908 7.92538
51.1402 7.92941
51.1897 7.86838
51.2391 7.82723
51.2887 7.83352
51.3381 7.77358
51.3877 7.78404
51.4371 7.69441
51.4867 7.64124
51.5362 7.66598
51.5858 7.59261
51.6353 7.55583
51.6849 7.54342
51.7344 7.54448
51.7841 7.5133
51.8336 7.49426
51.8833 7.42032
51.9328 7.40447
51.9826 7.34997
52.0323 7.34925
52.0818 7.2952
52.1316 7.28048
52.1812 7.26213
52.231 7.22249
52.2806 7.19147
52.3304 7.15997
52.38 7.16814
52.4298 7.10133
52.4794 7.09917
52.5293 7.0411
52.5789 7.03594
52.6288 6.97424
52.6785 6.92422
52.7284 6.93203
52.7781 6.90599
52.828 6.89695
52.8777 6.85273
52.9276 6.79112
52.9774 6.79466
53.0273 6.79014
53.0771 6.71155
53.1271 6.71312
53.1769 6.65394
53.2269 6.6341
53.2767 6.60216
53.3267 6.57394
53.3765 6.57566
53.4266 6.53676
53.4766 6.52386
53.5265 6.44477
53.5765 6.42186
53.6264 6.40204
53.6765 6.37001
53.7264 6.34054
53.7765 6.36054
53.8265 6.36719
53.8766 6.25153
53.9266 6.25756
53.9767 6.21221
54.0267 6.24043
54.0769 6.20148
54.1269 6.18286
54.1771 6.07547
54.2271 6.05235
54.2773 6.0361
54.3274 6.06543
54.3776 5.97859
54.4277 5.93977
54.478 5.89195
54.528 5.91366
54.5783 5.83055
54.6285 5.78789
54.6788 5.76625
54.7289 5.66835
54.7792 5.72003
54.8296 5.65389
54.8798 5.60485
54.9301 5.53584
54.9803 5.53193
55.0307 5.49227
55.0809 5.48057
55.1314 5.41587
55.1816 5.33596
55.232 5.31062
55.2823 5.26346
55.3328 5.18291
55.383 5.18594
55.4335 5.13932
55.4838 5.05351
55.5344 5.03516
55.5847 4.95867
55.6352 4.92862
55.6856 4.89242
55.7361 4.8738