File: XRD/Ni3Fe_FD0624.xy
TT I
1.27165 7.66016
1.31627 6.48641
1.36089 6.90625
1.40551 5.81338
1.45013 5.75388
1.49476 5.87649
1.53938 6.0413
1.584 5.24182
1.62863 5.41017
1.67325 5.26008
1.71787 5.52105
1.7625 4.67155
1.80712 4.76119
1.85174 4.09302
1.89636 4.86792
1.94099 5.04845
1.98562 5.16649
2.03025 4.72712
2.07487 4.76057
2.11949 5.00581
2.16411 4.68237
2.20874 14.7554
2.25338 23.0534
2.298 6.15503
2.34263 5.39583
2.38725 5.92113
2.43188 5.36913
2.4765 6.78805
2.52115 7.17048
2.56577 6.8003
2.6104 7.56731
2.65503 7.68252
2.69965 7.89705
2.7443 8.05112
2.78893 7.60717
2.83356 8.60458
2.87818 8.09703
2.92281 8.69926
2.96744 10.0289
3.01209 10.6856
3.05672 11.3617
3.10135 11.9646
3.14599 13.2151
3.19062 13.9256
3.23527 15.3148
3.2799 15.9109
3.32454 17.2145
3.36917 17.551
3.4138 19.1285
3.45844 19.6818
3.50309 21.0651
3.54773 21.6841
3.59237 24.4522
3.637 95.4548
3.68164 60.4305
3.7263 26.6442
3.77094 26.4439
3.81558 26.9034
3.86022 27.5856
3.90486 29.2654
3.9495 30.0321
3.99416 31.2479
4.0388 32.3353
4.08344 33.7194
4.12809 35.3369
4.17273 37.086
4.21738 43.5141
4.26204 253.249
4.30669 222.748
4.35133 49.2093
4.39598 44.8192
4.44063 54.6552
4.4853 66.4311
4.52995 50.4456
4.5746 51.1262
4.61925 53.5123
4.6639 55.865
4.70855 58.6824
4.75322 61.1059
4.79788 63.7149
4.84253 67.3436
4.88719 71.2301
4.93184 74.9153
4.97652 80.8881
5.02118 86.8567
5.06583 94.3895
5.11049 105.76
5.15515 174.128
5.19981 346.638
5.24449 2792.55
5.28916 12619.1
5.33382 3026.34
5.37848 194.828
5.42315 130.73
5.46783 114.257
5.5125 106.765
5.55716 102.406
5.60183 99.2222
5.6465 97.5292
5.69117 94.6982
5.73586 92.2135
5.78053 91.7719
5.8252 91.0096
5.86988 92.3266
5.91455 94.2081
5.95924 101.817
6.00392 201.771
6.0486 958.74
6.09328 4379.57
6.13795 3536.29
6.18263 257.357
6.22733 94.4327
6.27201 83.7293
6.3167 103.421
6.36138 81.5225
6.40606 69.2164
6.45075 67.7876
6.49545 65.333
6.54014 64.4326
6.58483 63.5529
6.62952 63.3392
6.67421 95.5014
6.71892 147.836
6.76361 69.5625
6.8083 58.8592
6.853 58.12
6.89769 57.2977
6.94239 56.987
6.98711 56.4111
7.03181 55.9058
7.07651 55.7344
7.12121 55.5991
7.16591 55.4735
7.21063 55.8715
7.25533 71.3425
7.30004 184.946
7.34475 93.744
7.38945 57.0067
7.43416 55.2423
7.47889 54.4447
7.5236 54.9501
7.56831 56.0198
7.61303 57.3292
7.65774 57.6308
7.70247 56.071
7.74719 56.5236
7.79191 56.8929
7.83663 57.2484
7.88135 58.026
7.92607 59.1824
7.97081 60.0696
8.01553 61.1504
8.06026 62.4722
8.10498 63.8817
8.14971 73.721
8.19446 73.0213
8.23919 70.2818
8.28392 72.0593
8.32865 74.3976
8.37339 78.5638
8.41812 85.8108
8.46288 114.81
8.50761 160.509
8.55235 380.093
8.59709 1169.72
8.64183 2167.75
8.68658 1002.37
8.73134 169.663
8.77609 100.35
8.82083 93.0253
8.86558 89.9828
8.91033 90.1895
8.9551 91.9682
8.99985 85.7085
9.04461 83.8817
9.08936 83.0525
9.13412 81.9441
9.17888 82.4524
9.22365 82.8033
9.26841 82.1889
9.31318 82.6566
9.35794 82.8468
9.4027 83.3407
9.44749 84.3353
9.49226 84.4934
9.53703 85.6875
9.5818 87.4392
9.62657 92.135
9.67134 99.4021
9.71614 93.7287
9.76091 93.9245
9.80569 96.6216
9.85047 100.193
9.89525 124.623
9.94005 137.174
9.98484 171.381
10.0296 335.227
10.0744 808.186
10.1192 1705.89
10.164 1602.26
10.2088 425.587
10.2536 130.02
10.2984 114.473
10.3432 115.784
10.388 104.964
10.4328 116.779
10.4776 157.847
10.5224 277.602
10.5672 502.935
10.612 504.845
10.6568 209.777
10.7017 97.5697
10.7465 87.3775
10.7913 83.5
10.8361 81.8842
10.8809 79.1213
10.9257 78.7606
10.9706 79.39
11.0154 75.2422
11.0602 73.1663
11.105 72.1107
11.1499 76.8453
11.1947 84.1516
11.2395 75.1271
11.2844 70.8011
11.3292 67.436
11.374 66.1708
11.4189 65.8933
11.4637 65.1233
11.5086 65.5971
11.5534 68.7039
11.5983 65.7931
11.6431 63.7304
11.688 63.0582
11.7328 63.2112
11.7777 62.9524
11.8225 62.5221
11.8674 62.5095
11.9122 63.1224
11.9571 62.9658
12.002 63.6802
12.0468 67.2701
12.0917 78.8245
12.1366 102.122
12.1814 150.912
12.2263 202.205
12.2712 169.935
12.3161 99.6313
12.3609 71.3335
12.4058 65.1436
12.4507 64.5481
12.4956 64.5396
12.5405 64.9484
12.5853 65.6646
12.6302 73.617
12.6751 79.641
12.72 70.3915
12.7649 68.0004
12.8098 68.5971
12.8547 69.9206
12.8996 71.0106
12.9445 72.3677
12.9894 74.1893
13.0343 76.116
13.0792 78.9706
13.1242 87.3586
13.1691 110.881
13.214 147.355
13.2589 235.383
13.3038 365.499
13.3487 426.362
13.3937 274.325
13.4386 129.001
13.4835 105.353
13.5285 119.397
13.5734 157.973
13.6183 245.837
13.6633 346.016
13.7082 345.693
13.7531 194.995
13.7981 100.491
13.843 82.2958
13.888 79.8843
13.9329 77.4694
13.9779 76.2806
14.0228 74.7938
14.0678 73.5293
14.1127 72.687
14.1577 73.0135
14.2027 71.6004
14.2476 70.757
14.2926 70.8305
14.3376 72.0335
14.3825 70.621
14.4275 69.323
14.4725 68.621
14.5175 68.9416
14.5624 69.1597
14.6074 71.6872
14.6524 71.9424
14.6974 70.7513
14.7424 71.9986
14.7874 78.4517
14.8324 88.6468
14.8774 110.301
14.9224 153.416
14.9674 204.786
15.0124 215.981
15.0574 151.519
15.1024 92.8879
15.1474 72.9965
15.1924 71.2843
15.2374 71.5606
15.2824 70.6413
15.3274 68.5267
15.3725 67.1474
15.4175 66.677
15.4625 66.0206
15.5076 66.5846
15.5526 66.5725
15.5976 66.1042
15.6426 66.851
15.6877 71.8674
15.7327 79.2168
15.7778 94.6951
15.8228 125.541
15.8679 167.817
15.9129 193.18
15.958 157.053
16.003 99.3153
16.0481 69.2975
16.0931 65.3364
16.1382 63.1027
16.1833 61.1473
16.2283 59.2473
16.2734 58.751
16.3185 59.0724
16.3636 59.7886
16.4086 58.1277
16.4537 56.5917
16.4988 55.7856
16.5439 55.8741
16.589 55.57
16.6341 55.2663
16.6792 54.6885
16.7243 55.1574
16.7694 55.2059
16.8145 55.2276
16.8596 55.5567
16.9047 57.2033
16.9498 57.2806
16.9949 55.997
17.04 55.9976
17.0851 57.1356
17.1302 58.7629
17.1754 62.0419
17.2205 66.9371
17.2656 74.371
17.3108 82.3872
17.3559 82.9818
17.401 72.6501
17.4462 63.083
17.4913 59.6574
17.5365 59.3125
17.5815 59.6636
17.6268 59.8666
17.6718 60.7802
17.7171 61.1977
17.7622 61.4817
17.8074 61.8113
17.8525 64.1148
17.8977 67.977
17.9428 73.4953
17.9881 82.4671
18.0331 99.5491
18.0784 120.84
18.1237 138.717
18.1688 131.571
18.214 105.071
18.2591 87.7292
18.3044 90.9201
18.3495 100.353
18.3948 106.125
18.4399 97.8403
18.4852 78.85
18.5303 66.8628
18.5756 62.7915
18.6207 61.5017
18.666 60.8677
18.7112 59.9795
18.7565 59.275
18.8016 58.9963
18.8469 58.2386
18.892 57.9714
18.9374 57.4441
18.9825 57.1932
19.0278 57.2927
19.073 57.2253
19.1183 57.6989
19.1635 58.4705
19.2088 59.8548
19.254 62.3015
19.2993 66.6078
19.3447 72.6255
19.3898 76.4033
19.4352 72.7153
19.4804 64.084
19.5257 57.3691
19.5709 54.6421
19.6163 54.385
19.6615 53.9451
19.7068 53.5717
19.752 53.5607
19.7974 53.8129
19.8426 54.8422
19.888 55.1597
19.9332 56.3415
19.9786 59.0527
20.0238 62.3826
20.0692 67.2672
20.1144 69.8265
20.1598 68.6397
20.205 64.0111
20.2504 62.442
20.2957 63.9638
20.3411 65.6265
20.3863 64.4619
20.4318 59.048
20.477 54.3382
20.5224 51.8223
20.5677 51.1827
20.6131 50.4446
20.6586 49.886
20.7038 49.7652
20.7493 49.4501
20.7945 49.15
20.84 48.9005
20.8853 48.8773
20.9307 48.8632
20.976 49.1468
21.0215 48.8349
21.0668 49.4535
21.1122 49.7671
21.1575 50.1766
21.203 51.1385
21.2483 51.6425
21.2938 51.4709
21.3391 50.3817
21.3846 49.1466
21.4299 48.6959
21.4754 48.6062
21.5207 48.7298
21.5662 48.8599
21.6116 49.3666
21.6571 49.9951
21.7024 51.109
21.7479 52.6586
21.7933 55.4412
21.8388 58.9304
21.8843 62.6177
21.9297 64.5547
21.9752 63.4047
22.0206 60.063
22.0661 56.9471
22.1115 56.261
22.157 56.3196
22.2024 54.5263
22.248 51.8524
22.2933 50.0896
22.3389 49.4051
22.3843 49.1348
22.4299 49.0095
22.4753 49.262
22.5208 48.8451
22.5662 48.7297
22.6118 48.9007
22.6572 49.0707
22.7028 49.4001
22.7483 49.99
22.7939 50.5573
22.8393 52.0085
22.8849 54.1696
22.9303 56.2279
22.9759 57.9961
23.0214 57.649
23.067 54.8939
23.1126 51.5801
23.1581 49.6478
23.2037 49.0795
23.2492 49.0106
23.2948 48.9846
23.3403 49.2381
23.3859 49.9602
23.4314 50.9683
23.477 52.7948
23.5225 54.8902
23.5682 57.0289
23.6137 58.1003
23.6593 56.0848
23.7048 52.2421
23.7505 48.7995
23.796 46.9761
23.8417 46.463
23.8872 45.8502
23.9329 45.5073
23.9784 45.1957
24.0241 44.8339
24.0697 44.7356
24.1154 44.3608
24.1609 44.1387
24.2066 44.1267
24.2522 43.8909
24.2979 43.6261
24.3434 43.525
24.3892 43.3288
24.4349 43.3765
24.4805 43.0981
24.5262 43.2645
24.5718 43.1444
24.6175 42.9898
24.6631 43.1351
24.7089 42.731
24.7545 42.5425
24.8002 42.532
24.8458 42.5201
24.8916 42.1787
24.9372 42.2747
24.983 42.6585
25.0286 42.9464
25.0744 43.503
25.12 43.7986
25.1658 44.5296
25.2114 44.8447
25.2572 45.0865
25.3029 45.0297
25.3487 45.0523
25.3943 44.7277
25.4402 43.735
25.4858 42.7456
25.5316 41.7468
25.5773 41.1477
25.6231 41.0211
25.669 40.7813
25.7147 40.7182
25.7605 40.6314
25.8062 40.7241
25.8521 40.8672
25.8977 40.6564
25.9436 40.9845
25.9893 41.1262
26.0352 41.6091
26.0809 41.6306
26.1268 41.8705
26.1725 41.4378
26.2184 41.0044
26.2641 40.582
26.31 40.1858
26.3557 40.4871
26.4017 40.2471
26.4474 40.5835
26.4933 41.0789
26.5391 41.3313
26.585 41.8139
26.6308 42.2899
26.6767 42.3333
26.7225 42.2571
26.7684 41.6259
26.8142 41.0052
26.8601 40.6884
26.9059 40.1793
26.9519 39.6789
26.9979 39.4674
27.0437 39.0239
27.0896 38.9947
27.1354 38.8601
27.1814 38.747
27.2272 38.6416
27.2732 38.6569
27.3191 38.5689
27.3651 38.638
27.4109 38.5959
27.4569 38.7287
27.5027 38.6769
27.5488 38.7562
27.5946 38.5262
27.6407 38.398
27.6865 38.2134
27.7326 38.0472
27.7784 38.0977
27.8245 38.0298
27.8703 38.1858
27.9164 38.4373
27.9623 38.6756
28.0084 38.8847
28.0543 39.2962
28.1003 39.2854
28.1462 38.8918
28.1923 38.6993
28.2384 38.1988
28.2843 37.8434
28.3304 37.3565
28.3764 36.9119
28.4225 36.617
28.4684 36.4708
28.5145 36.1044
28.5605 36.1204
28.6066 35.8791
28.6526 35.8728
28.6987 35.8155
28.7447 35.6709
28.7908 35.6172
28.8368 35.5794
28.8829 35.56
28.9289 35.5356
28.9751 35.4085
29.0211 35.2035
29.0673 34.8217
29.1133 34.7715
29.1595 34.6169
29.2055 34.5377
29.2517 34.4895
29.2977 34.4751
29.3439 34.3513
29.3899 34.4461
29.4361 34.3266
29.4824 34.045
29.5284 33.8711
29.5746 33.6469
29.6207 33.3268
29.6669 33.223
29.713 33.1766
29.7593 33.081
29.8053 33.1687
29.8516 32.965
29.8977 32.8498
29.9439 32.8621
29.99 32.8038
30.0363 32.5527
30.0824 32.7609
30.1287 32.5905
30.1748 32.6873
30.2211 32.5561
30.2673 32.4466
30.3136 32.6341
30.3597 32.5098
30.406 32.3468
30.4522 32.2215
30.4985 32.2473
30.5447 32.2941
30.591 32.2895
30.6372 32.2762
30.6835 32.3631
30.7297 32.4447
30.7761 32.2433
30.8224 32.1549
30.8686 32.0527
30.915 31.8394
30.9612 31.6147
31.0076 31.4432
31.0538 31.2737
31.1002 31.3524
31.1464 31.0977
31.1928 31.1365
31.2391 31.1288
31.2855 31.0469
31.3317 30.9134
31.3781 31.0541
31.4244 30.985
31.4708 30.9937
31.5171 30.9508
31.5636 30.8962
31.6098 30.719
31.6563 30.4325
31.7026 30.3902
31.7491 30.3059
31.7953 30.3384
31.8418 30.2582
31.8881 30.3346
31.9346 30.257
31.9809 30.2065
32.0275 30.0426
32.074 30.0676
32.1203 29.7872
32.1668 29.6695
32.2132 29.5652
32.2597 29.3795
32.306 29.3005
32.3526 29.1305
32.399 29.1115
32.4455 28.8874
32.4919 28.8649
32.5385 28.7963
32.5848 28.5792
32.6314 28.5695
32.6778 28.659
32.7244 28.4861
32.7708 28.3109
32.8174 28.295
32.8638 28.1417
32.9104 28.2446
32.9569 28.1861
33.0035 28.1356
33.0499 27.9951
33.0966 27.9321
33.143 27.8866
33.1897 27.7766
33.2361 27.8214
33.2828 27.7156
33.3293 27.6145
33.3759 27.4907
33.4226 27.388
33.4691 27.2813
33.5158 27.2707
33.5623 27.0446
33.609 26.8291
33.6555 26.7588
33.7022 26.7941
33.7487 26.7083
33.7954 26.6776
33.842 26.4709
33.8887 26.4646
33.9353 26.4698
33.982 26.2451
34.0286 26.1225
34.0753 26.1618
34.1219 26.0379
34.1687 25.9803
34.2152 25.9183
34.262 25.9471
34.3086 25.6539
34.3554 25.6661
34.402 25.5424
34.4488 25.4175
34.4954 25.4289
34.5422 25.2767
34.5889 25.1337
34.6357 25.0928
34.6825 25.0537
34.7292 24.9762
34.776 24.896
34.8227 24.8449
34.8695 24.8527
34.9162 24.7379
34.9631 24.6858
35.0098 24.665
35.0566 24.3976
35.1033 24.4176
35.1502 24.4364
35.1969 24.3072
35.2438 24.184
35.2906 24.2585
35.3375 24.1563
35.3842 24.1418
35.4311 24.1026
35.4779 24.0549
35.5248 24.0116
35.5716 23.9193
35.6185 23.8533
35.6653 23.7214
35.7123 23.6701
35.759 23.6301
35.806 23.482
35.8528 23.3846
35.8998 23.3176
35.9468 23.2143
35.9936 23.2082
36.0406 23.1278
36.0874 23.0466
36.1345 23.0815
36.1813 22.9078
36.2283 22.7658
36.2752 22.7297
36.3222 22.7795
36.3691 22.7272
36.4161 22.6038
36.463 22.5726
36.5101 22.5297
36.557 22.4387
36.6041 22.4058
36.651 22.3178
36.6981 22.2546
36.745 22.1629
36.7921 22.1081
36.839 22.0056
36.8861 21.9237
36.9331 21.8505
36.9802 21.7571
37.0272 21.688
37.0743 21.6181
37.1213 21.5677
37.1684 21.5363
37.2154 21.4334
37.2626 21.3747
37.3098 21.3973
37.3568 21.2998
37.404 21.2219
37.451 21.1686
37.4982 21.0
37.5452 20.9465
37.5924 20.87
37.6395 20.9079
37.6867 20.748
37.7337 20.734
37.781 20.6538
37.8281 20.5341
37.8753 20.5489
37.9224 20.4204
37.9697 20.299
38.0168 20.3181
38.064 20.2564
38.1111 20.2291
38.1584 20.111
38.2056 20.077
38.2529 20.1069
38.3 19.966
38.3473 19.8938
38.3945 19.7681
38.4418 19.7674
38.489 19.6955
38.5363 19.6502
38.5837 19.573
38.6309 19.5483
38.6782 19.437
38.7254 19.4042
38.7728 19.3232
38.82 19.2315
38.8674 19.2649
38.9146 19.1641
38.9621 19.0593
39.0093 19.0539
39.0567 18.966
39.104 18.9402
39.1514 18.829
39.1987 18.8275
39.2461 18.8035
39.2934 18.747
39.3409 18.57
39.3882 18.538
39.4356 18.426
39.483 18.4303
39.5304 18.3489
39.5778 18.3307
39.6253 18.2155
39.6726 18.2278
39.7201 18.1779
39.7675 18.1087
39.815 18.0256
39.8624 17.9431
39.9099 17.9208
39.9575 17.8942
40.0049 17.7615
40.0525 17.6759
40.0999 17.7273
40.1474 17.6487
40.1949 17.5793
40.2425 17.4902
40.2899 17.4778
40.3375 17.4075
40.385 17.3334
40.4326 17.29
40.48 17.2012
40.5277 17.2018
40.5752 17.1547
40.6228 17.0392
40.6703 16.9795
40.718 17.0006
40.7655 16.9616
40.8132 16.8874
40.8607 16.8364
40.9084 16.7762
40.9559 16.7289
41.0036 16.6573
41.0512 16.5641
41.0989 16.5847
41.1465 16.487
41.1942 16.4188
41.242 16.3767
41.2896 16.3439
41.3373 16.2532
41.3849 16.2333
41.4327 16.1344
41.4803 16.0476
41.5281 16.0151
41.5758 15.9661
41.6236 15.8799
41.6712 15.8704
41.7191 15.8084
41.7667 15.7556
41.8146 15.7459
41.8622 15.6981
41.9101 15.5994
41.9578 15.5141
42.0057 15.5428
42.0534 15.5275
42.1013 15.4233
42.149 15.3216
42.1969 15.3241
42.2446 15.2244
42.2925 15.2619
42.3403 15.1689
42.3882 15.1555
42.436 15.0804
42.4839 15.0214
42.5319 14.9517
42.5797 14.9172
42.6277 14.851
42.6755 14.8456
42.7235 14.6714
42.7713 14.6921
42.8193 14.6743
42.8671 14.6323
42.9152 14.5829
42.963 14.4913
43.0111 14.4638
43.0589 14.3546
43.107 14.3202
43.1549 14.3428
43.2029 14.2092
43.2508 14.199
43.2989 14.1535
43.3468 14.0258
43.3949 14.0619
43.4429 14.0171
43.491 13.9374
43.5389 13.9327
43.5871 13.8378
43.635 13.8442
43.6832 13.8049
43.7312 13.665
43.7793 13.6706
43.8273 13.6244
43.8755 13.5705
43.9237 13.4801
43.9717 13.5563
44.0199 13.4401
44.068 13.4192
44.1162 13.3482
44.1642 13.3172
44.2125 13.2489
44.2606 13.2462
44.3088 13.1548
44.3569 13.1356
44.4052 13.1052
44.4533 13.038
44.5016 12.9486
44.5497 12.9652
44.598 12.9459
44.6461 12.8545
44.6945 12.7997
44.7426 12.7448
44.791 12.6451
44.8391 12.6465
44.8875 12.6801
44.9357 12.6088
44.984 12.5624
45.0322 12.4879
45.0806 12.5288
45.1288 12.3967
45.1773 12.3415
45.2257 12.2906
45.2739 12.2867
45.3224 12.2547
45.3706 12.1933
45.4191 12.151
45.4673 12.0783
45.5158 12.0434
45.5641 12.004
45.6126 11.9255
45.6609 11.9233
45.7094 11.8863
45.7577 11.8575
45.8063 11.8111
45.8546 11.7437
45.9031 11.6889
45.9515 11.6475
46.0001 11.6267
46.0484 11.5999
46.097 11.5625
46.1454 11.5455
46.194 11.4473
46.2424 11.4555
46.291 11.4081
46.3395 11.3559
46.3881 11.2905
46.4365 11.2586
46.4852 11.2177
46.5337 11.1653
46.5823 11.1353
46.631 11.0713
46.6795 11.0746
46.7282 11.0159
46.7767 10.9833
46.8254 10.9093
46.8739 10.8822
46.9226 10.8381
46.9712 10.8252
47.0199 10.7608
47.0685 10.7289
47.1173 10.675
47.1658 10.656
47.2146 10.6573
47.2632 10.5946
47.312 10.5757
47.3606 10.4666
47.4095 10.4482
47.4581 10.4043
47.5069 10.389
47.5556 10.338
47.6044 10.3195
47.6531 10.2544
47.702 10.1469
47.7507 10.1762
47.7996 10.1672
47.8483 10.117
47.8972 10.0992
47.9461 10.0538
47.9948 9.96035
48.0438 10.0095
48.0925 9.94685
48.1415 9.89028
48.1902 9.87313
48.2392 9.82894
48.288 9.80888
48.337 9.79167
48.3858 9.70248
48.4348 9.70712
48.4837 9.66986
48.5327 9.61844
48.5815 9.58809
48.6306 9.55105
48.6795 9.50662
48.7285 9.51223
48.7774 9.44891
48.8265 9.39367
48.8754 9.41004
48.9245 9.34751
48.9734 9.27991
49.0226 9.24699
49.0715 9.20348
49.1206 9.16482
49.1696 9.17729
49.2188 9.13776
49.2679 9.08215
49.3169 9.04924
49.3661 9.03831
49.4151 8.99311
49.4643 8.9922
49.5134 8.91046
49.5626 8.86346
49.6117 8.8602
49.6609 8.81071
49.71 8.72914
49.7592 8.74544
49.8083 8.70799
49.8576 8.64496
49.9067 8.62403
49.956 8.5794
50.0052 8.59667
50.0545 8.54258
50.1036 8.52292
50.153 8.50738
50.2022 8.4658
50.2515 8.45444
50.3007 8.38116
50.3501 8.37383
50.3993 8.313
50.4487 8.29112
50.498 8.25373
50.5474 8.22517
50.5966 8.18789
50.6461 8.18463
50.6955 8.10996
50.7448 8.10202
50.7943 8.08931
50.8436 8.02782
50.8931 8.00211
50.9424 7.95469
50.9919 7.94124
51.0413 7.90625
51.0908 7.89105
51.1402 7.85132
51.1897 7.82312
51.2391 7.78404
51.2887 7.75642
51.3381 7.71217
51.3877 7.66828
51.4371 7.68106
51.4867 7.59858
51.5362 7.62581
51.5858 7.55037
51.6353 7.50872
51.6849 7.46939
51.7344 7.45288
51.7841 7.44373
51.8336 7.39405
51.8833 7.41119
51.9328 7.3165
51.9826 7.32156
52.0323 7.255
52.0818 7.27318
52.1316 7.21742
52.1812 7.19311
52.231 7.11394
52.2806 7.14596
52.3304 7.1232
52.38 7.08502
52.4298 7.04657
52.4794 7.00616
52.5293 6.94759
52.5789 6.96865
52.6288 6.92609
52.6785 6.88564
52.7284 6.88859
52.7781 6.85018
52.828 6.8091
52.8777 6.78744
52.9276 6.7587
52.9774 6.74782
53.0273 6.69315
53.0771 6.66499
53.1271 6.67835
53.1769 6.58149
53.2269 6.60442
53.2767 6.54683
53.3267 6.54446
53.3765 6.52864
53.4266 6.49082
53.4766 6.44446
53.5265 6.44914
53.5765 6.40995
53.6264 6.37469
53.6765 6.41064
53.7264 6.31915
53.7765 6.29477
53.8265 6.25813
53.8766 6.2065
53.9266 6.24089
53.9767 6.17347
54.0267 6.13855
54.0769 6.11796
54.1269 6.09384
54.1771 6.04686
54.2271 6.02988
54.2773 6.01103
54.3274 5.95912
54.3776 5.91721
54.4277 5.91857
54.478 5.84516
54.528 5.82067
54.5783 5.78385
54.6285 5.77242
54.6788 5.72388
54.7289 5.65902
54.7792 5.68557
54.8296 5.55534
54.8798 5.53705
54.9301 5.49843
54.9803 5.51394
55.0307 5.4481
55.0809 5.4237
55.1314 5.33877
55.1816 5.29356
55.232 5.2497
55.2823 5.27417
55.3328 5.11709
55.383 5.12986
55.4335 5.0682
55.4838 5.01171
55.5344 4.90209
55.5847 4.97251
55.6352 4.92097
55.6856 4.88874
55.7361 4.87056