File: XRD/Ni3Fe_FD0377.xy
TT I
1.27165 7.96443
1.31627 6.98723
1.36089 7.08701
1.40551 6.88668
1.45013 6.22802
1.49476 6.29154
1.53938 6.34086
1.584 5.86145
1.62863 5.30009
1.67325 5.54737
1.71787 5.58725
1.7625 5.03459
1.80712 4.94616
1.85174 4.72903
1.89636 4.54092
1.94099 5.4023
1.98562 4.82528
2.03025 4.90568
2.07487 4.32919
2.11949 5.03447
2.16411 4.85953
2.20874 12.508
2.25338 18.221
2.298 6.00066
2.34263 5.05824
2.38725 5.43803
2.43188 5.20067
2.4765 5.98122
2.52115 5.68301
2.56577 6.72354
2.6104 6.90082
2.65503 6.81356
2.69965 7.12602
2.7443 7.76393
2.78893 7.66236
2.83356 7.4693
2.87818 7.94983
2.92281 9.00362
2.96744 9.52864
3.01209 9.8931
3.05672 10.6453
3.10135 12.1043
3.14599 12.7875
3.19062 13.7623
3.23527 14.5349
3.2799 15.5898
3.32454 16.885
3.36917 18.0635
3.4138 19.6255
3.45844 20.0158
3.50309 21.2439
3.54773 21.8671
3.59237 24.335
3.637 80.4695
3.68164 51.7588
3.7263 26.4556
3.77094 26.8665
3.81558 26.8354
3.86022 27.6723
3.90486 29.4839
3.9495 30.3685
3.99416 31.5624
4.0388 32.866
4.08344 34.2435
4.12809 35.0714
4.17273 37.7768
4.21738 43.0324
4.26204 210.332
4.30669 180.631
4.35133 48.0848
4.39598 45.7964
4.44063 53.3325
4.4853 62.5498
4.52995 52.6005
4.5746 53.0535
4.61925 54.4739
4.6639 56.6974
4.70855 59.1718
4.75322 62.2779
4.79788 66.0176
4.84253 69.2948
4.88719 74.0483
4.93184 77.9395
4.97652 83.437
5.02118 90.9729
5.06583 99.2959
5.11049 113.451
5.15515 180.091
5.19981 491.777
5.24449 3355.58
5.28916 11224.6
5.33382 3561.9
5.37848 226.355
5.42315 139.653
5.46783 121.171
5.5125 111.093
5.55716 106.437
5.60183 102.441
5.6465 99.8834
5.69117 97.7754
5.73586 95.4662
5.78053 96.7629
5.8252 96.1543
5.86988 96.9274
5.91455 99.3577
5.95924 110.936
6.00392 267.256
6.0486 1174.92
6.09328 4043.03
6.13795 3440.82
6.18263 311.215
6.22733 100.554
6.27201 86.6523
6.3167 99.5545
6.36138 80.4032
6.40606 71.3395
6.45075 69.756
6.49545 67.3557
6.54014 65.77
6.58483 64.758
6.62952 64.7441
6.67421 89.4026
6.71892 127.487
6.76361 68.0232
6.8083 60.1184
6.853 58.9981
6.89769 58.3668
6.94239 57.9044
6.98711 57.4371
7.03181 56.6925
7.07651 56.2415
7.12121 56.4886
7.16591 56.8834
7.21063 57.0853
7.25533 69.2738
7.30004 154.43
7.34475 84.7497
7.38945 57.846
7.43416 55.5991
7.47889 55.4664
7.5236 56.0154
7.56831 56.6351
7.61303 58.1138
7.65774 57.8822
7.70247 57.484
7.74719 57.7035
7.79191 57.9723
7.83663 58.4047
7.88135 59.33
7.92607 60.2331
7.97081 61.3732
8.01553 62.541
8.06026 64.1428
8.10498 65.3817
8.14971 74.2556
8.19446 72.8452
8.23919 71.1752
8.28392 73.8085
8.32865 76.4564
8.37339 80.9564
8.41812 87.9153
8.46288 115.186
8.50761 192.336
8.55235 458.67
8.59709 1177.44
8.64183 2053.37
8.68658 1182.79
8.73134 199.231
8.77609 105.126
8.82083 96.2062
8.86558 93.0204
8.91033 92.4349
8.9551 93.3084
8.99985 87.7569
9.04461 86.3964
9.08936 85.5555
9.13412 84.4081
9.17888 84.312
9.22365 84.8644
9.26841 84.5961
9.31318 85.4538
9.35794 85.685
9.4027 86.0235
9.44749 86.5191
9.49226 86.8891
9.53703 88.1308
9.5818 90.1722
9.62657 94.6128
9.67134 99.3375
9.71614 96.2585
9.76091 97.0836
9.80569 99.9811
9.85047 102.867
9.89525 124.155
9.94005 138.015
9.98484 204.044
10.0296 406.243
10.0744 848.035
10.1192 1582.3
10.164 1682.13
10.2088 515.004
10.2536 142.035
10.2984 117.372
10.3432 116.55
10.388 109.03
10.4328 128.374
10.4776 177.327
10.5224 294.057
10.5672 483.172
10.612 515.771
10.6568 226.273
10.7017 102.56
10.7465 89.6497
10.7913 86.1681
10.8361 83.3592
10.8809 81.1588
10.9257 80.3817
10.9706 80.7865
11.0154 76.8791
11.0602 74.8981
11.105 73.7307
11.1499 77.0397
11.1947 82.4261
11.2395 75.1785
11.2844 71.5011
11.3292 69.3221
11.374 68.075
11.4189 67.1691
11.4637 66.3566
11.5086 66.9023
11.5534 69.4215
11.5983 66.8956
11.6431 65.2991
11.688 64.6568
11.7328 64.4358
11.7777 64.4767
11.8225 64.2144
11.8674 64.0974
11.9122 64.3472
11.9571 64.6571
12.002 65.6032
12.0468 71.3844
12.0917 84.9163
12.1366 107.946
12.1814 150.444
12.2263 197.025
12.2712 176.574
12.3161 105.289
12.3609 72.1617
12.4058 66.3711
12.4507 66.015
12.4956 66.3407
12.5405 66.5894
12.5853 67.2766
12.6302 73.6708
12.6751 78.0655
12.72 71.0597
12.7649 69.5112
12.8098 70.2777
12.8547 71.8153
12.8996 72.8568
12.9445 74.3762
12.9894 76.207
13.0343 78.1012
13.0792 81.6923
13.1242 94.0557
13.1691 121.78
13.214 161.074
13.2589 243.304
13.3038 350.776
13.3487 418.213
13.3937 296.641
13.4386 141.134
13.4835 113.959
13.5285 131.093
13.5734 168.541
13.6183 243.242
13.6633 326.236
13.7082 340.508
13.7531 210.65
13.7981 107.126
13.843 85.0571
13.888 82.2841
13.9329 79.379
13.9779 78.1317
14.0228 76.8455
14.0678 75.2122
14.1127 74.7325
14.1577 74.2509
14.2027 73.5529
14.2476 72.5935
14.2926 72.5637
14.3376 73.6381
14.3825 71.9652
14.4275 71.0961
14.4725 70.571
14.5175 71.0254
14.5624 71.0023
14.6074 72.7985
14.6524 73.4116
14.6974 72.7939
14.7424 75.124
14.7874 83.1137
14.8324 95.4008
14.8774 116.934
14.9224 154.485
14.9674 196.964
15.0124 215.453
15.0574 160.845
15.1024 98.777
15.1474 75.4109
15.1924 72.7234
15.2374 72.7967
15.2824 72.0719
15.3274 69.9573
15.3725 68.8347
15.4175 68.5011
15.4625 67.9293
15.5076 68.1175
15.5526 68.0701
15.5976 68.0003
15.6426 69.6545
15.6877 76.3119
15.7327 85.161
15.7778 100.429
15.8228 128.043
15.8679 163.508
15.9129 187.119
15.958 167.093
16.003 107.069
16.0481 72.241
16.0931 66.3567
16.1382 64.3796
16.1833 62.1959
16.2283 60.6646
16.2734 60.0905
16.3185 60.1145
16.3636 60.5573
16.4086 59.234
16.4537 57.7208
16.4988 57.0847
16.5439 56.9299
16.589 56.8315
16.6341 56.393
16.6792 56.0021
16.7243 56.442
16.7694 56.4705
16.8145 56.2972
16.8596 56.7884
16.9047 57.8082
16.9498 58.2652
16.9949 57.259
17.04 57.3945
17.0851 58.9593
17.1302 60.8624
17.1754 63.9352
17.2205 68.6042
17.2656 74.8367
17.3108 81.8264
17.3559 83.3086
17.401 74.5207
17.4462 64.8691
17.4913 61.0602
17.5365 60.9067
17.5815 61.0237
17.6268 61.2551
17.6718 62.0846
17.7171 62.6941
17.7622 63.1028
17.8074 63.8941
17.8525 66.8866
17.8977 71.4717
17.9428 77.615
17.9881 86.5402
18.0331 101.746
18.0784 118.912
18.1237 135.737
18.1688 136.069
18.214 112.847
18.2591 92.0565
18.3044 91.9163
18.3495 98.5495
18.3948 104.772
18.4399 99.3955
18.4852 82.4346
18.5303 68.9159
18.5756 64.272
18.6207 62.9986
18.666 62.3011
18.7112 61.4043
18.7565 60.8398
18.8016 60.3996
18.8469 59.699
18.892 59.2711
18.9374 58.8308
18.9825 58.6488
19.0278 58.4358
19.073 58.8856
19.1183 59.5315
19.1635 60.3179
19.2088 61.6257
19.254 63.9997
19.2993 67.7383
19.3447 72.5335
19.3898 76.419
19.4352 74.6271
19.4804 66.771
19.5257 59.2725
19.5709 56.0735
19.6163 55.5748
19.6615 55.2431
19.7068 54.8396
19.752 54.8812
19.7974 55.2683
19.8426 56.543
19.888 56.8877
19.9332 58.1697
19.9786 60.5209
20.0238 63.7267
20.0692 67.4733
20.1144 70.6847
20.1598 70.5409
20.205 66.8011
20.2504 64.1515
20.2957 64.5621
20.3411 66.0867
20.3863 65.6163
20.4318 60.9622
20.477 55.9756
20.5224 53.2436
20.5677 52.2795
20.6131 51.7327
20.6586 51.173
20.7038 51.1346
20.7493 50.442
20.7945 50.4113
20.84 49.9945
20.8853 50.1749
20.9307 49.9388
20.976 50.1158
21.0215 50.1873
21.0668 50.3381
21.1122 50.8087
21.1575 51.3949
21.203 51.8176
21.2483 52.4236
21.2938 52.8704
21.3391 51.6882
21.3846 50.6718
21.4299 49.8817
21.4754 50.0353
21.5207 49.911
21.5662 50.2606
21.6116 50.7973
21.6571 51.6258
21.7024 52.6405
21.7479 54.4184
21.7933 56.8162
21.8388 60.0329
21.8843 63.1458
21.9297 65.2955
21.9752 65.1961
22.0206 62.2034
22.0661 58.2697
22.1115 57.1753
22.157 57.1561
22.2024 55.9705
22.248 53.3547
22.2933 51.5489
22.3389 50.5374
22.3843 50.3719
22.4299 50.3011
22.4753 50.2137
22.5208 49.9101
22.5662 49.823
22.6118 50.1511
22.6572 50.3787
22.7028 50.8315
22.7483 51.3203
22.7939 52.0517
22.8393 53.4408
22.8849 55.3621
22.9303 56.9208
22.9759 58.4308
23.0214 58.6981
23.067 56.6414
23.1126 53.1659
23.1581 50.9489
23.2037 50.2293
23.2492 50.4116
23.2948 50.5194
23.3403 50.7831
23.3859 51.3351
23.4314 52.348
23.477 53.7792
23.5225 55.5258
23.5682 57.3408
23.6137 58.5856
23.6593 57.3855
23.7048 53.7974
23.7505 50.0878
23.796 48.0239
23.8417 47.2896
23.8872 46.7585
23.9329 46.5622
23.9784 46.1517
24.0241 46.0237
24.0697 45.7581
24.1154 45.4421
24.1609 45.333
24.2066 45.0089
24.2522 44.9341
24.2979 44.7311
24.3434 44.5909
24.3892 44.3388
24.4349 44.5005
24.4805 44.0421
24.5262 44.3891
24.5718 44.3152
24.6175 44.0789
24.6631 44.0505
24.7089 43.9028
24.7545 43.5396
24.8002 43.6464
24.8458 43.4069
24.8916 43.2417
24.9372 43.3431
24.983 43.7668
25.0286 44.0451
25.0744 44.4469
25.12 44.8717
25.1658 45.4656
25.2114 45.888
25.2572 45.9475
25.3029 45.8222
25.3487 45.9047
25.3943 45.7482
25.4402 44.8669
25.4858 43.9981
25.5316 42.7534
25.5773 42.3577
25.6231 42.1885
25.669 41.8053
25.7147 41.7507
25.7605 41.5851
25.8062 41.6416
25.8521 41.8746
25.8977 41.8117
25.9436 41.9911
25.9893 42.1277
26.0352 42.4058
26.0809 42.5789
26.1268 42.862
26.1725 42.6383
26.2184 42.1972
26.2641 41.5727
26.31 41.3798
26.3557 41.4782
26.4017 41.2517
26.4474 41.6898
26.4933 41.8861
26.5391 42.3756
26.585 42.6671
26.6308 42.9951
26.6767 43.1142
26.7225 43.1087
26.7684 42.602
26.8142 42.0544
26.8601 41.6063
26.9059 41.1463
26.9519 40.6654
26.9979 40.4068
27.0437 39.9939
27.0896 39.8653
27.1354 39.8668
27.1814 39.667
27.2272 39.554
27.2732 39.6805
27.3191 39.4372
27.3651 39.526
27.4109 39.5041
27.4569 39.6355
27.5027 39.6106
27.5488 39.6569
27.5946 39.6483
27.6407 39.3853
27.6865 39.2572
27.7326 38.9663
27.7784 39.0411
27.8245 38.9289
27.8703 39.0571
27.9164 39.4602
27.9623 39.4766
28.0084 39.6446
28.0543 40.0654
28.1003 40.066
28.1462 39.9306
28.1923 39.5692
28.2384 39.0832
28.2843 38.7434
28.3304 38.3194
28.3764 37.8643
28.4225 37.5411
28.4684 37.3501
28.5145 36.9539
28.5605 36.8755
28.6066 36.6137
28.6526 36.6817
28.6987 36.6653
28.7447 36.604
28.7908 36.501
28.8368 36.3571
28.8829 36.3386
28.9289 36.3012
28.9751 36.1082
29.0211 36.0784
29.0673 35.7047
29.1133 35.4537
29.1595 35.4512
29.2055 35.3868
29.2517 35.334
29.2977 35.2448
29.3439 35.3323
29.3899 35.0809
29.4361 35.0959
29.4824 34.9618
29.5284 34.7679
29.5746 34.4473
29.6207 34.099
29.6669 33.9823
29.713 33.9701
29.7593 33.8426
29.8053 33.8163
29.8516 33.6475
29.8977 33.6487
29.9439 33.5391
29.99 33.4912
30.0363 33.3835
30.0824 33.4599
30.1287 33.2064
30.1748 33.2777
30.2211 33.2219
30.2673 33.2451
30.3136 33.2397
30.3597 33.1604
30.406 33.117
30.4522 32.9023
30.4985 32.963
30.5447 33.132
30.591 33.0024
30.6372 33.1049
30.6835 32.9922
30.7297 33.1131
30.7761 33.1038
30.8224 32.8234
30.8686 32.6977
30.915 32.5837
30.9612 32.3048
31.0076 32.2196
31.0538 32.059
31.1002 31.8534
31.1464 31.7382
31.1928 31.8674
31.2391 31.7455
31.2855 31.6682
31.3317 31.6455
31.3781 31.798
31.4244 31.7341
31.4708 31.6233
31.5171 31.6717
31.5636 31.6311
31.6098 31.3645
31.6563 31.1448
31.7026 31.044
31.7491 30.984
31.7953 30.9679
31.8418 30.9051
31.8881 30.9932
31.9346 30.8707
31.9809 30.8371
32.0275 30.8102
32.074 30.7061
32.1203 30.5355
32.1668 30.3868
32.2132 30.2199
32.2597 30.0904
32.306 30.0178
32.3526 29.8268
32.399 29.7675
32.4455 29.523
32.4919 29.553
32.5385 29.4381
32.5848 29.272
32.6314 29.3244
32.6778 29.2253
32.7244 29.0737
32.7708 28.9548
32.8174 28.8531
32.8638 28.7574
32.9104 28.9193
32.9569 28.8077
33.0035 28.6809
33.0499 28.5466
33.0966 28.5147
33.143 28.6493
33.1897 28.5161
33.2361 28.3975
33.2828 28.2637
33.3293 28.1636
33.3759 28.1074
33.4226 28.039
33.4691 27.8917
33.5158 27.7525
33.5623 27.5711
33.609 27.4869
33.6555 27.3848
33.7022 27.3284
33.7487 27.1906
33.7954 27.2266
33.842 27.0675
33.8887 26.9498
33.9353 26.969
33.982 26.89
34.0286 26.7558
34.0753 26.7056
34.1219 26.6174
34.1687 26.5489
34.2152 26.3715
34.262 26.308
34.3086 26.2799
34.3554 26.2224
34.402 26.1254
34.4488 26.0242
34.4954 25.9938
34.5422 25.8456
34.5889 25.7322
34.6357 25.6964
34.6825 25.5086
34.7292 25.5351
34.776 25.4656
34.8227 25.3459
34.8695 25.2956
34.9162 25.2092
34.9631 25.1911
35.0098 25.2218
35.0566 25.0157
35.1033 25.0101
35.1502 24.9658
35.1969 24.8767
35.2438 24.7361
35.2906 24.7634
35.3375 24.7464
35.3842 24.6156
35.4311 24.6579
35.4779 24.5683
35.5248 24.5734
35.5716 24.4715
35.6185 24.3211
35.6653 24.238
35.7123 24.178
35.759 24.1023
35.806 24.0286
35.8528 23.9189
35.8998 23.8532
35.9468 23.7824
35.9936 23.7836
36.0406 23.6619
36.0874 23.6493
36.1345 23.5545
36.1813 23.4451
36.2283 23.3213
36.2752 23.3106
36.3222 23.2825
36.3691 23.1685
36.4161 23.1242
36.463 23.0623
36.5101 23.0403
36.557 22.9631
36.6041 22.8325
36.651 22.747
36.6981 22.7885
36.745 22.6573
36.7921 22.5396
36.839 22.4735
36.8861 22.4137
36.9331 22.3532
36.9802 22.3219
37.0272 22.1598
37.0743 22.14
37.1213 22.0477
37.1684 21.9391
37.2154 21.9014
37.2626 21.8735
37.3098 21.7672
37.3568 21.6973
37.404 21.6093
37.451 21.5445
37.4982 21.5532
37.5452 21.3773
37.5924 21.3374
37.6395 21.3713
37.6867 21.3089
37.7337 21.1607
37.781 21.0808
37.8281 21.0034
37.8753 20.9381
37.9224 20.8771
37.9697 20.8626
38.0168 20.7894
38.064 20.6954
38.1111 20.5772
38.1584 20.5262
38.2056 20.518
38.2529 20.4619
38.3 20.366
38.3473 20.365
38.3945 20.2213
38.4418 20.1655
38.489 20.1695
38.5363 20.0057
38.5837 19.988
38.6309 19.9613
38.6782 19.8418
38.7254 19.8116
38.7728 19.7259
38.82 19.6486
38.8674 19.6386
38.9146 19.5792
38.9621 19.4635
39.0093 19.4395
39.0567 19.4433
39.104 19.274
39.1514 19.247
39.1987 19.1603
39.2461 19.0846
39.2934 19.1294
39.3409 18.9262
39.3882 18.9378
39.4356 18.903
39.483 18.8033
39.5304 18.7513
39.5778 18.7715
39.6253 18.6098
39.6726 18.576
39.7201 18.5199
39.7675 18.4885
39.815 18.4122
39.8624 18.4031
39.9099 18.3297
39.9575 18.2412
40.0049 18.1738
40.0525 18.1314
40.0999 18.0177
40.1474 18.006
40.1949 17.9268
40.2425 17.8737
40.2899 17.8405
40.3375 17.8566
40.385 17.7057
40.4326 17.6995
40.48 17.6563
40.5277 17.5872
40.5752 17.4947
40.6228 17.3863
40.6703 17.454
40.718 17.319
40.7655 17.343
40.8132 17.1498
40.8607 17.2059
40.9084 17.1416
40.9559 17.055
41.0036 17.0692
41.0512 16.9755
41.0989 16.899
41.1465 16.7986
41.1942 16.7528
41.242 16.6331
41.2896 16.6477
41.3373 16.6104
41.3849 16.5841
41.4327 16.5
41.4803 16.4444
41.5281 16.4645
41.5758 16.2927
41.6236 16.334
41.6712 16.2263
41.7191 16.1615
41.7667 16.0692
41.8146 16.035
41.8622 16.0153
41.9101 16.0332
41.9578 15.8544
42.0057 15.8103
42.0534 15.846
42.1013 15.7769
42.149 15.6839
42.1969 15.6138
42.2446 15.5971
42.2925 15.5839
42.3403 15.4689
42.3882 15.4535
42.436 15.3671
42.4839 15.3183
42.5319 15.2831
42.5797 15.2314
42.6277 15.2219
42.6755 15.1219
42.7235 15.0504
42.7713 15.0511
42.8193 14.8946
42.8671 14.9506
42.9152 14.8408
42.963 14.8498
43.0111 14.6959
43.0589 14.7335
43.107 14.657
43.1549 14.6389
43.2029 14.5435
43.2508 14.5245
43.2989 14.4414
43.3468 14.428
43.3949 14.3572
43.4429 14.2813
43.491 14.2325
43.5389 14.2281
43.5871 14.224
43.635 14.0882
43.6832 14.0584
43.7312 13.9883
43.7793 13.8978
43.8273 13.9484
43.8755 13.838
43.9237 13.8066
43.9717 13.7599
44.0199 13.7269
44.068 13.6613
44.1162 13.6083
44.1642 13.5896
44.2125 13.6085
44.2606 13.4857
44.3088 13.4662
44.3569 13.3642
44.4052 13.3579
44.4533 13.2826
44.5016 13.2337
44.5497 13.2028
44.598 13.1525
44.6461 13.1241
44.6945 13.0534
44.7426 13.045
44.791 12.9642
44.8391 12.9429
44.8875 12.8903
44.9357 12.8791
44.984 12.7886
45.0322 12.7457
45.0806 12.7075
45.1288 12.6339
45.1773 12.6119
45.2257 12.5841
45.2739 12.5249
45.3224 12.512
45.3706 12.4491
45.4191 12.3239
45.4673 12.357
45.5158 12.2912
45.5641 12.2554
45.6126 12.2429
45.6609 12.1145
45.7094 12.1049
45.7577 12.1122
45.8063 11.9719
45.8546 12.0154
45.9031 11.9672
45.9515 11.9488
46.0001 11.9118
46.0484 11.8549
46.097 11.8039
46.1454 11.7364
46.194 11.7337
46.2424 11.6464
46.291 11.5999
46.3395 11.5742
46.3881 11.532
46.4365 11.4955
46.4852 11.4605
46.5337 11.3866
46.5823 11.3467
46.631 11.3206
46.6795 11.2854
46.7282 11.2576
46.7767 11.1993
46.8254 11.1115
46.8739 11.0798
46.9226 11.0562
46.9712 11.0056
47.0199 11.0239
47.0685 10.9625
47.1173 10.8904
47.1658 10.8506
47.2146 10.8423
47.2632 10.7899
47.312 10.7805
47.3606 10.7073
47.4095 10.7217
47.4581 10.63
47.5069 10.5761
47.5556 10.4964
47.6044 10.4928
47.6531 10.4857
47.702 10.4714
47.7507 10.4363
47.7996 10.3595
47.8483 10.3387
47.8972 10.3227
47.9461 10.2602
47.9948 10.2591
48.0438 10.1856
48.0925 10.1554
48.1415 10.0856
48.1902 10.1044
48.2392 10.0469
48.288 10.0354
48.337 9.98295
48.3858 9.93565
48.4348 9.86817
48.4837 9.86032
48.5327 9.84236
48.5815 9.75956
48.6306 9.7652
48.6795 9.73028
48.7285 9.67271
48.7774 9.62183
48.8265 9.64123
48.8754 9.55516
48.9245 9.51851
48.9734 9.49367
49.0226 9.47715
49.0715 9.43253
49.1206 9.36321
49.1696 9.3555
49.2188 9.30337
49.2679 9.28364
49.3169 9.21686
49.3661 9.21694
49.4151 9.17173
49.4643 9.14192
49.5134 9.08264
49.5626 9.05124
49.6117 9.0396
49.6609 9.04005
49.71 8.94145
49.7592 8.91801
49.8083 8.88738
49.8576 8.87042
49.9067 8.79468
49.956 8.8064
50.0052 8.74971
50.0545 8.73495
50.1036 8.70097
50.153 8.67613
50.2022 8.63174
50.2515 8.59225
50.3007 8.54735
50.3501 8.51812
50.3993 8.47837
50.4487 8.48339
50.498 8.40891
50.5474 8.39968
50.5966 8.35361
50.6461 8.34225
50.6955 8.31116
50.7448 8.25741
50.7943 8.22436
50.8436 8.20203
50.8931 8.16929
50.9424 8.14528
50.9919 8.1073
51.0413 8.07863
51.0908 8.03484
51.1402 8.03484
51.1897 7.97504
51.2391 7.95281
51.2887 7.9129
51.3381 7.85323
51.3877 7.84016
51.4371 7.80168
51.4867 7.77029
51.5362 7.77317
51.5858 7.6862
51.6353 7.68024
51.6849 7.63849
51.7344 7.62664
51.7841 7.63937
51.8336 7.54155
51.8833 7.52961
51.9328 7.46694
51.9826 7.46519
52.0323 7.40791
52.0818 7.3786
52.1316 7.33619
52.1812 7.36465
52.231 7.31603
52.2806 7.29115
52.3304 7.24035
52.38 7.22999
52.4298 7.16372
52.4794 7.1546
52.5293 7.08298
52.5789 7.11915
52.6288 7.05635
52.6785 7.02403
52.7284 7.01191
52.7781 6.9498
52.828 6.95642
52.8777 6.9326
52.9276 6.92509
52.9774 6.87146
53.0273 6.84189
53.0771 6.79415
53.1271 6.7754
53.1769 6.73265
53.2269 6.72875
53.2767 6.68117
53.3267 6.6972
53.3765 6.67192
53.4266 6.59936
53.4766 6.5617
53.5265 6.5393
53.5765 6.4993
53.6264 6.51681
53.6765 6.50227
53.7264 6.44936
53.7765 6.42049
53.8265 6.38389
53.8766 6.34512
53.9266 6.34146
53.9767 6.28613
54.0267 6.26541
54.0769 6.22841
54.1269 6.19809
54.1771 6.15848
54.2271 6.13391
54.2773 6.08861
54.3274 6.09483
54.3776 6.02136
54.4277 5.9906
54.478 5.99534
54.528 5.98483
54.5783 5.89108
54.6285 5.83737
54.6788 5.85419
54.7289 5.81444
54.7792 5.74146
54.8296 5.68804
54.8798 5.59096
54.9301 5.64303
54.9803 5.58922
55.0307 5.56338
55.0809 5.52084
55.1314 5.45907
55.1816 5.41111
55.232 5.43222
55.2823 5.32467
55.3328 5.27114
55.383 5.27066
55.4335 5.22043
55.4838 5.13346
55.5344 5.08817
55.5847 5.00283
55.6352 5.01741
55.6856 4.95558
55.7361 4.9504