File: XRD/Ni3Fe_FD1071.xy
TT I
1.27165 6.76953
1.31627 6.2734
1.36089 6.37053
1.40551 5.96581
1.45013 5.73468
1.49476 5.48914
1.53938 5.5438
1.584 5.14359
1.62863 5.22895
1.67325 4.14385
1.71787 4.7276
1.7625 3.70491
1.80712 4.39979
1.85174 4.65423
1.89636 4.26881
1.94099 4.76187
1.98562 4.77927
2.03025 4.40238
2.07487 3.8523
2.11949 3.63553
2.16411 4.27784
2.20874 4.78875
2.25338 6.70105
2.298 5.56985
2.34263 5.56919
2.38725 6.01947
2.43188 5.7857
2.4765 6.93021
2.52115 7.15665
2.56577 7.2374
2.6104 8.44122
2.65503 8.13598
2.69965 8.40909
2.7443 8.36187
2.78893 8.00755
2.83356 8.37031
2.87818 8.61928
2.92281 8.91426
2.96744 9.88151
3.01209 10.3076
3.05672 10.6013
3.10135 12.1991
3.14599 12.4635
3.19062 13.6798
3.23527 14.9456
3.2799 15.2855
3.32454 16.011
3.36917 16.9757
3.4138 18.4233
3.45844 18.4882
3.50309 19.7242
3.54773 20.1326
3.59237 21.3048
3.637 27.5418
3.68164 26.4828
3.7263 24.1373
3.77094 24.5821
3.81558 25.2908
3.86022 25.9038
3.90486 27.6032
3.9495 28.244
3.99416 28.9423
4.0388 30.3922
4.08344 31.8035
4.12809 32.1237
4.17273 33.6294
4.21738 35.7464
4.26204 52.0317
4.30669 56.2482
4.35133 40.5009
4.39598 41.0571
4.44063 43.4673
4.4853 46.4237
4.52995 46.9024
4.5746 48.516
4.61925 50.9716
4.6639 52.7027
4.70855 55.4488
4.75322 58.3932
4.79788 60.7494
4.84253 64.0844
4.88719 67.7447
4.93184 71.9506
4.97652 76.6906
5.02118 82.8859
5.06583 89.8331
5.11049 97.8243
5.15515 118.468
5.19981 231.417
5.24449 2516.42
5.28916 13685.2
5.33382 3338.36
5.37848 206.169
5.42315 123.584
5.46783 107.863
5.5125 101.163
5.55716 97.2724
5.60183 93.1789
5.6465 91.4641
5.69117 89.5384
5.73586 87.9618
5.78053 86.9618
5.8252 86.6311
5.86988 86.8239
5.91455 88.824
5.95924 95.3826
6.00392 164.804
6.0486 893.158
6.09328 4484.47
6.13795 3640.83
6.18263 237.816
6.22733 87.1816
6.27201 76.004
6.3167 72.9113
6.36138 68.7864
6.40606 65.054
6.45075 63.6447
6.49545 61.682
6.54014 59.9356
6.58483 59.078
6.62952 58.245
6.67421 58.805
6.71892 63.9576
6.76361 56.4283
6.8083 54.4635
6.853 53.9211
6.89769 53.7285
6.94239 53.1347
6.98711 52.5322
7.03181 52.2886
7.07651 52.1102
7.12121 52.2207
7.16591 51.7204
7.21063 51.0833
7.25533 52.0254
7.30004 62.3584
7.34475 56.0443
7.38945 51.5254
7.43416 51.4368
7.47889 51.5909
7.5236 58.2192
7.56831 71.7673
7.61303 56.2231
7.65774 52.5936
7.70247 52.979
7.74719 53.3733
7.79191 53.7423
7.83663 54.0706
7.88135 54.7824
7.92607 55.626
7.97081 56.5835
8.01553 57.7704
8.06026 59.2211
8.10498 60.7319
8.14971 62.4279
8.19446 63.8561
8.23919 65.8452
8.28392 67.9739
8.32865 70.3597
8.37339 74.0948
8.41812 77.8956
8.46288 86.3594
8.50761 129.259
8.55235 379.724
8.59709 1110.9
8.64183 2292.96
8.68658 1096.52
8.73134 172.086
8.77609 95.1039
8.82083 88.5385
8.86558 85.5714
8.91033 83.6087
8.9551 82.3732
8.99985 81.2753
9.04461 80.5862
9.08936 79.6254
9.13412 79.1969
9.17888 79.4333
9.22365 90.4051
9.26841 110.862
9.31318 88.6837
9.35794 80.0885
9.4027 80.1672
9.44749 80.6747
9.49226 81.1324
9.53703 81.9634
9.5818 83.2825
9.62657 84.4514
9.67134 86.7355
9.71614 87.7572
9.76091 89.7526
9.80569 91.7483
9.85047 94.1537
9.89525 98.7274
9.94005 106.389
9.98484 147.221
10.0296 350.612
10.0744 779.226
10.1192 1774.53
10.164 1702.96
10.2088 444.398
10.2536 125.324
10.2984 103.239
10.3432 101.086
10.388 98.3381
10.4328 107.942
10.4776 162.645
10.5224 273.829
10.5672 512.498
10.612 570.378
10.6568 230.332
10.7017 103.063
10.7465 85.8299
10.7913 80.2021
10.8361 77.9775
10.8809 75.5301
10.9257 73.6244
10.9706 72.6748
11.0154 70.7814
11.0602 69.4302
11.105 68.4162
11.1499 67.2715
11.1947 67.1614
11.2395 65.6002
11.2844 65.0792
11.3292 63.9115
11.374 62.9872
11.4189 62.5177
11.4637 62.3525
11.5086 61.2831
11.5534 61.3428
11.5983 60.9678
11.6431 60.5445
11.688 60.1393
11.7328 59.9135
11.7777 59.9163
11.8225 59.7505
11.8674 60.001
11.9122 61.9109
11.9571 67.9535
12.002 66.0499
12.0468 64.1409
12.0917 76.9582
12.1366 99.7737
12.1814 147.106
12.2263 203.757
12.2712 175.841
12.3161 97.177
12.3609 64.9028
12.4058 61.311
12.4507 61.2012
12.4956 61.4739
12.5405 61.3479
12.5853 62.1944
12.6302 62.7745
12.6751 63.9546
12.72 63.8605
12.7649 64.5409
12.8098 65.3058
12.8547 66.6256
12.8996 67.9402
12.9445 69.1453
12.9894 71.0924
13.0343 72.9772
13.0792 76.5353
13.1242 82.5184
13.1691 108.52
13.214 149.107
13.2589 230.467
13.3038 369.901
13.3487 452.348
13.3937 279.173
13.4386 126.24
13.4835 99.0325
13.5285 120.735
13.5734 157.439
13.6183 237.348
13.6633 356.249
13.7082 361.381
13.7531 204.253
13.7981 99.7888
13.843 79.8194
13.888 76.9206
13.9329 74.7259
13.9779 73.5193
14.0228 72.1325
14.0678 70.56
14.1127 71.6683
14.1577 74.9015
14.2027 73.2087
14.2476 68.8915
14.2926 67.6348
14.3376 67.59
14.3825 67.073
14.4275 66.4374
14.4725 66.1419
14.5175 66.4544
14.5624 66.4236
14.6074 66.6594
14.6524 67.4447
14.6974 67.6418
14.7424 68.6475
14.7874 74.4877
14.8324 88.9058
14.8774 110.476
14.9224 148.876
14.9674 209.136
15.0124 227.641
15.0574 158.949
15.1024 93.5279
15.1474 71.3266
15.1924 68.0504
15.2374 66.4372
15.2824 65.9841
15.3274 65.033
15.3725 64.3434
15.4175 64.3934
15.4625 63.8047
15.5076 63.3966
15.5526 63.4567
15.5976 63.4978
15.6426 64.2048
15.6877 69.1104
15.7327 79.8515
15.7778 95.2814
15.8228 123.344
15.8679 169.687
15.9129 202.669
15.958 169.311
16.003 104.519
16.0481 69.4143
16.0931 62.9023
16.1382 60.089
16.1833 58.2816
16.2283 56.9448
16.2734 56.2853
16.3185 55.6819
16.3636 55.261
16.4086 54.5868
16.4537 54.0974
16.4988 53.6644
16.5439 53.6722
16.589 53.2557
16.6341 52.9822
16.6792 52.809
16.7243 52.8222
16.7694 52.8553
16.8145 52.7483
16.8596 52.9187
16.9047 53.8305
16.9498 54.3216
16.9949 53.9965
17.04 54.059
17.0851 54.905
17.1302 57.09
17.1754 60.1723
17.2205 64.9906
17.2656 72.7894
17.3108 82.0766
17.3559 82.6014
17.401 72.3303
17.4462 61.3045
17.4913 57.583
17.5365 57.4594
17.5815 57.4121
17.6268 57.8702
17.6718 58.1555
17.7171 58.8116
17.7622 60.0212
17.8074 60.9035
17.8525 62.1351
17.8977 66.7801
17.9428 73.629
17.9881 82.5024
18.0331 98.0691
18.0784 121.264
18.1237 142.401
18.1688 137.748
18.214 108.738
18.2591 88.2579
18.3044 88.8983
18.3495 99.3775
18.3948 107.409
18.4399 98.9013
18.4852 78.9264
18.5303 66.0288
18.5756 61.3689
18.6207 60.2608
18.666 59.0901
18.7112 57.9713
18.7565 57.5698
18.8016 57.3083
18.8469 56.4672
18.892 56.2022
18.9374 55.838
18.9825 55.3769
19.0278 55.2932
19.073 55.2749
19.1183 55.3095
19.1635 56.5302
19.2088 58.0274
19.254 60.8657
19.2993 65.6656
19.3447 72.1799
19.3898 76.239
19.4352 72.173
19.4804 63.4005
19.5257 56.3587
19.5709 53.0428
19.6163 52.4593
19.6615 52.2866
19.7068 51.9281
19.752 51.965
19.7974 52.0916
19.8426 52.6758
19.888 53.6257
19.9332 55.2807
19.9786 57.7567
20.0238 61.1513
20.0692 66.5
20.1144 70.4464
20.1598 69.3075
20.205 64.1907
20.2504 61.5858
20.2957 63.684
20.3411 65.646
20.3863 64.0969
20.4318 58.2848
20.477 53.0589
20.5224 50.2674
20.5677 49.268
20.6131 48.9033
20.6586 48.4892
20.7038 48.276
20.7493 48.0465
20.7945 48.2029
20.84 47.9845
20.8853 47.7534
20.9307 47.2671
20.976 47.4294
21.0215 47.5037
21.0668 47.8541
21.1122 48.2739
21.1575 48.8103
21.203 49.7185
21.2483 50.4208
21.2938 50.6534
21.3391 49.1163
21.3846 47.973
21.4299 47.4538
21.4754 47.3389
21.5207 47.4601
21.5662 47.6702
21.6116 47.997
21.6571 49.0102
21.7024 50.166
21.7479 51.7839
21.7933 54.309
21.8388 58.2184
21.8843 62.9327
21.9297 65.2645
21.9752 64.0057
22.0206 59.8767
22.0661 56.3866
22.1115 55.8838
22.157 55.9794
22.2024 54.277
22.248 51.2643
22.2933 49.0772
22.3389 48.0021
22.3843 47.8119
22.4299 47.4352
22.4753 47.6357
22.5208 47.4063
22.5662 47.6684
22.6118 47.647
22.6572 47.8076
22.7028 48.3826
22.7483 49.0429
22.7939 49.8993
22.8393 51.3909
22.8849 53.3038
22.9303 55.9671
22.9759 57.7275
23.0214 57.3223
23.067 54.6135
23.1126 50.9384
23.1581 48.6265
23.2037 47.9381
23.2492 47.6707
23.2948 47.984
23.3403 48.656
23.3859 49.4359
23.4314 50.4436
23.477 52.1361
23.5225 54.4576
23.5682 57.4047
23.6137 58.5002
23.6593 56.5556
23.7048 52.2354
23.7505 48.2864
23.796 46.0374
23.8417 45.1744
23.8872 44.5767
23.9329 44.3156
23.9784 44.1016
24.0241 43.6948
24.0697 43.4775
24.1154 43.3057
24.1609 42.9157
24.2066 42.6218
24.2522 42.6938
24.2979 42.495
24.3434 42.454
24.3892 42.2522
24.4349 42.2272
24.4805 42.1125
24.5262 42.368
24.5718 42.0585
24.6175 42.084
24.6631 42.0706
24.7089 41.7294
24.7545 41.5215
24.8002 41.3278
24.8458 41.3595
24.8916 41.3338
24.9372 41.414
24.983 41.7041
25.0286 42.0459
25.0744 42.5819
25.12 43.3473
25.1658 43.8842
25.2114 44.3391
25.2572 44.4252
25.3029 44.6243
25.3487 44.7569
25.3943 44.3417
25.4402 43.3393
25.4858 42.1993
25.5316 40.9348
25.5773 40.2158
25.6231 40.0795
25.669 39.702
25.7147 39.8561
25.7605 39.5694
25.8062 39.7984
25.8521 39.9367
25.8977 39.8866
25.9436 40.1558
25.9893 40.4543
26.0352 40.8403
26.0809 41.1312
26.1268 41.3688
26.1725 41.0022
26.2184 40.4375
26.2641 39.7628
26.31 39.4593
26.3557 39.5425
26.4017 39.5392
26.4474 39.8689
26.4933 40.0656
26.5391 40.6533
26.585 41.264
26.6308 41.8327
26.6767 42.0753
26.7225 41.9532
26.7684 41.2115
26.8142 40.6406
26.8601 40.1265
26.9059 39.718
26.9519 39.0754
26.9979 38.7975
27.0437 38.3367
27.0896 38.0705
27.1354 38.1001
27.1814 38.0511
27.2272 37.9163
27.2732 37.9997
27.3191 37.8408
27.3651 37.8349
27.4109 37.9727
27.4569 37.9957
27.5027 38.1207
27.5488 38.1589
27.5946 37.9108
27.6407 37.8081
27.6865 37.6694
27.7326 37.3984
27.7784 37.4411
27.8245 37.2766
27.8703 37.4564
27.9164 37.839
27.9623 38.0837
28.0084 38.385
28.0543 38.8178
28.1003 38.8213
28.1462 38.6956
28.1923 38.4579
28.2384 37.8825
28.2843 37.2932
28.3304 36.8682
28.3764 36.2666
28.4225 36.0026
28.4684 35.7322
28.5145 35.4031
28.5605 35.2481
28.6066 35.0662
28.6526 35.0194
28.6987 34.9194
28.7447 35.0405
28.7908 34.7928
28.8368 34.8538
28.8829 34.9374
28.9289 34.8594
28.9751 34.7083
29.0211 34.3906
29.0673 34.25
29.1133 34.0402
29.1595 33.7878
29.2055 33.7717
29.2517 33.8445
29.2977 33.7887
29.3439 33.7527
29.3899 33.8307
29.4361 33.7016
29.4824 33.6067
29.5284 33.2409
29.5746 32.8508
29.6207 32.6045
29.6669 32.5351
29.713 32.4191
29.7593 32.2597
29.8053 32.3584
29.8516 32.232
29.8977 32.1882
29.9439 32.0517
29.99 32.013
30.0363 31.9556
30.0824 32.058
30.1287 31.8803
30.1748 31.973
30.2211 31.9747
30.2673 31.8421
30.3136 31.9238
30.3597 31.865
30.406 31.7771
30.4522 31.7168
30.4985 31.6679
30.5447 31.6952
30.591 31.7187
30.6372 31.7742
30.6835 31.7852
30.7297 31.9194
30.7761 31.8881
30.8224 31.6695
30.8686 31.5084
30.915 31.243
30.9612 31.0801
31.0076 30.9147
31.0538 30.7812
31.1002 30.6895
31.1464 30.5353
31.1928 30.4821
31.2391 30.5819
31.2855 30.5467
31.3317 30.4323
31.3781 30.4938
31.4244 30.5648
31.4708 30.5307
31.5171 30.6462
31.5636 30.5418
31.6098 30.1778
31.6563 30.1045
31.7026 29.9316
31.7491 29.7809
31.7953 29.7823
31.8418 29.8773
31.8881 29.8446
31.9346 29.8003
31.9809 29.8196
32.0275 29.5084
32.074 29.5141
32.1203 29.3393
32.1668 29.2593
32.2132 28.9876
32.2597 28.8785
32.306 28.8131
32.3526 28.6244
32.399 28.5378
32.4455 28.4324
32.4919 28.315
32.5385 28.2877
32.5848 28.0883
32.6314 28.1065
32.6778 28.0489
32.7244 27.9557
32.7708 27.7565
32.8174 27.8438
32.8638 27.6259
32.9104 27.7554
32.9569 27.6497
33.0035 27.5102
33.0499 27.4496
33.0966 27.4817
33.143 27.5522
33.1897 27.3848
33.2361 27.2993
33.2828 27.3166
33.3293 27.0687
33.3759 27.1039
33.4226 26.894
33.4691 26.7649
33.5158 26.6333
33.5623 26.5759
33.609 26.3813
33.6555 26.3363
33.7022 26.2844
33.7487 26.1541
33.7954 26.1898
33.842 26.009
33.8887 25.937
33.9353 25.83
33.982 25.8252
34.0286 25.736
34.0753 25.6315
34.1219 25.5699
34.1687 25.5152
34.2152 25.4461
34.262 25.3747
34.3086 25.3057
34.3554 25.1606
34.402 25.0526
34.4488 24.9783
34.4954 24.7555
34.5422 24.8531
34.5889 24.6493
34.6357 24.6039
34.6825 24.5992
34.7292 24.4542
34.776 24.3552
34.8227 24.3144
34.8695 24.3103
34.9162 24.2666
34.9631 24.1229
35.0098 24.1638
35.0566 24.0561
35.1033 23.9368
35.1502 23.8931
35.1969 23.8776
35.2438 23.8333
35.2906 23.843
35.3375 23.7891
35.3842 23.6637
35.4311 23.7023
35.4779 23.5884
35.5248 23.6286
35.5716 23.548
35.6185 23.3337
35.6653 23.3706
35.7123 23.2391
35.759 23.1668
35.806 22.9975
35.8528 22.9254
35.8998 22.9157
35.9468 22.8541
35.9936 22.7875
36.0406 22.6744
36.0874 22.6668
36.1345 22.5759
36.1813 22.5693
36.2283 22.4311
36.2752 22.4136
36.3222 22.3289
36.3691 22.3035
36.4161 22.207
36.463 22.1521
36.5101 22.1045
36.557 22.07
36.6041 21.8636
36.651 21.9102
36.6981 21.8938
36.745 21.7853
36.7921 21.7438
36.839 21.6332
36.8861 21.5249
36.9331 21.4708
36.9802 21.4194
37.0272 21.3002
37.0743 21.2568
37.1213 21.1025
37.1684 21.1357
37.2154 21.0682
37.2626 20.981
37.3098 20.8453
37.3568 20.8945
37.404 20.8289
37.451 20.7699
37.4982 20.6609
37.5452 20.5553
37.5924 20.5431
37.6395 20.4731
37.6867 20.4712
37.7337 20.3229
37.781 20.2256
37.8281 20.2586
37.8753 20.0687
37.9224 20.0698
37.9697 20.0351
38.0168 19.9348
38.064 19.8931
38.1111 19.7858
38.1584 19.7376
38.2056 19.6767
38.2529 19.6662
38.3 19.5753
38.3473 19.5083
38.3945 19.395
38.4418 19.4613
38.489 19.3866
38.5363 19.2633
38.5837 19.1768
38.6309 19.1594
38.6782 19.0975
38.7254 19.0377
38.7728 18.966
38.82 18.8265
38.8674 18.8375
38.9146 18.8164
38.9621 18.6737
39.0093 18.637
39.0567 18.6006
39.104 18.6215
39.1514 18.4556
39.1987 18.4007
39.2461 18.4638
39.2934 18.35
39.3409 18.2161
39.3882 18.1244
39.4356 18.081
39.483 18.0243
39.5304 17.9812
39.5778 18.022
39.6253 17.8861
39.6726 17.8342
39.7201 17.8337
39.7675 17.7592
39.815 17.6482
39.8624 17.5942
39.9099 17.5775
39.9575 17.4463
40.0049 17.5097
40.0525 17.3848
40.0999 17.3592
40.1474 17.3452
40.1949 17.1851
40.2425 17.1754
40.2899 17.1441
40.3375 17.1114
40.385 16.9978
40.4326 16.9469
40.48 16.8945
40.5277 16.843
40.5752 16.7634
40.6228 16.7289
40.6703 16.6897
40.718 16.6872
40.7655 16.6257
40.8132 16.5061
40.8607 16.4668
40.9084 16.4696
40.9559 16.3964
41.0036 16.3469
41.0512 16.2588
41.0989 16.206
41.1465 16.1711
41.1942 16.1084
41.242 16.0546
41.2896 16.0137
41.3373 15.9555
41.3849 15.9472
41.4327 15.8845
41.4803 15.7674
41.5281 15.7296
41.5758 15.6865
41.6236 15.6286
41.6712 15.604
41.7191 15.5046
41.7667 15.4848
41.8146 15.4541
41.8622 15.2957
41.9101 15.3221
41.9578 15.2101
42.0057 15.1585
42.0534 15.1793
42.1013 15.0927
42.149 15.0513
42.1969 15.0428
42.2446 14.9339
42.2925 14.9146
42.3403 14.8576
42.3882 14.8256
42.436 14.7892
42.4839 14.6781
42.5319 14.7027
42.5797 14.6507
42.6277 14.6254
42.6755 14.5343
42.7235 14.4588
42.7713 14.4505
42.8193 14.3788
42.8671 14.2952
42.9152 14.296
42.963 14.2255
43.0111 14.1428
43.0589 14.102
43.107 14.0447
43.1549 14.0352
43.2029 13.9341
43.2508 13.9569
43.2989 13.7987
43.3468 13.8449
43.3949 13.8102
43.4429 13.758
43.491 13.6911
43.5389 13.6415
43.5871 13.6393
43.635 13.5533
43.6832 13.4612
43.7312 13.4604
43.7793 13.3973
43.8273 13.4108
43.8755 13.2681
43.9237 13.316
43.9717 13.293
44.0199 13.1624
44.068 13.133
44.1162 13.0592
44.1642 13.0463
44.2125 13.0003
44.2606 12.9623
44.3088 12.884
44.3569 12.8231
44.4052 12.8378
44.4533 12.7526
44.5016 12.7247
44.5497 12.6482
44.598 12.6538
44.6461 12.568
44.6945 12.5708
44.7426 12.5347
44.791 12.4843
44.8391 12.3956
44.8875 12.3832
44.9357 12.2967
44.984 12.3384
45.0322 12.2431
45.0806 12.1908
45.1288 12.1655
45.1773 12.1151
45.2257 12.0421
45.2739 12.0325
45.3224 11.9837
45.3706 11.9634
45.4191 11.8975
45.4673 11.853
45.5158 11.8162
45.5641 11.7972
45.6126 11.7254
45.6609 11.7147
45.7094 11.5948
45.7577 11.6216
45.8063 11.5453
45.8546 11.5586
45.9031 11.4382
45.9515 11.4125
46.0001 11.4273
46.0484 11.3847
46.097 11.3271
46.1454 11.3539
46.194 11.2616
46.2424 11.1854
46.291 11.16
46.3395 11.1153
46.3881 11.0957
46.4365 11.0173
46.4852 11.0374
46.5337 10.9671
46.5823 10.9198
46.631 10.8797
46.6795 10.8466
46.7282 10.792
46.7767 10.7341
46.8254 10.6956
46.8739 10.6835
46.9226 10.6366
46.9712 10.6154
47.0199 10.58
47.0685 10.522
47.1173 10.4766
47.1658 10.4438
47.2146 10.4169
47.2632 10.3442
47.312 10.3414
47.3606 10.328
47.4095 10.2255
47.4581 10.1937
47.5069 10.1854
47.5556 10.1594
47.6044 10.1141
47.6531 10.0864
47.702 9.98446
47.7507 9.97751
47.7996 9.94774
47.8483 9.93349
47.8972 9.88334
47.9461 9.86081
47.9948 9.81277
48.0438 9.80147
48.0925 9.71306
48.1415 9.69825
48.1902 9.64501
48.2392 9.66019
48.288 9.61637
48.337 9.60222
48.3858 9.52305
48.4348 9.50314
48.4837 9.4611
48.5327 9.42464
48.5815 9.37471
48.6306 9.39017
48.6795 9.3274
48.7285 9.28058
48.7774 9.30042
48.8265 9.19504
48.8754 9.18153
48.9245 9.17461
48.9734 9.14645
49.0226 9.11823
49.0715 9.05006
49.1206 9.00382
49.1696 8.97422
49.2188 8.96251
49.2679 8.91338
49.3169 8.86328
49.3661 8.83756
49.4151 8.83041
49.4643 8.7867
49.5134 8.73057
49.5626 8.6595
49.6117 8.64579
49.6609 8.68326
49.71 8.58615
49.7592 8.61589
49.8083 8.50036
49.8576 8.52986
49.9067 8.45583
49.956 8.44898
50.0052 8.40824
50.0545 8.40217
50.1036 8.30035
50.153 8.32206
50.2022 8.29004
50.2515 8.25198
50.3007 8.21111
50.3501 8.17592
50.3993 8.14368
50.4487 8.11861
50.498 8.04497
50.5474 8.05941
50.5966 8.03495
50.6461 7.99826
50.6955 7.95529
50.7448 7.94501
50.7943 7.90979
50.8436 7.87553
50.8931 7.83637
50.9424 7.8415
50.9919 7.7697
51.0413 7.76014
51.0908 7.69409
51.1402 7.70842
51.1897 7.66743
51.2391 7.64537
51.2887 7.59714
51.3381 7.55708
51.3877 7.56202
51.4371 7.5012
51.4867 7.48924
51.5362 7.46529
51.5858 7.46006
51.6353 7.40324
51.6849 7.36325
51.7344 7.33542
51.7841 7.31038
51.8336 7.29505
51.8833 7.23057
51.9328 7.19899
51.9826 7.19082
52.0323 7.11379
52.0818 7.09121
52.1316 7.05435
52.1812 7.06609
52.231 7.0126
52.2806 6.98305
52.3304 6.97143
52.38 6.93311
52.4298 6.91687
52.4794 6.91327
52.5293 6.8243
52.5789 6.83944
52.6288 6.80959
52.6785 6.76243
52.7284 6.76371
52.7781 6.72036
52.828 6.70323
52.8777 6.64281
52.9276 6.63222
52.9774 6.60209
53.0273 6.55545
53.0771 6.5496
53.1271 6.52439
53.1769 6.49726
53.2269 6.48759
53.2767 6.46177
53.3267 6.42139
53.3765 6.36479
53.4266 6.37531
53.4766 6.35045
53.5265 6.2793
53.5765 6.30226
53.6264 6.22901
53.6765 6.22376
53.7264 6.18409
53.7765 6.14627
53.8265 6.09423
53.8766 6.1218
53.9266 6.0827
53.9767 6.0698
54.0267 6.05434
54.0769 6.03129
54.1269 5.97996
54.1771 5.92539
54.2271 5.88215
54.2773 5.86151
54.3274 5.86377
54.3776 5.81707
54.4277 5.77986
54.478 5.76397
54.528 5.71907
54.5783 5.67786
54.6285 5.6629
54.6788 5.59458
54.7289 5.56997
54.7792 5.50781
54.8296 5.51068
54.8798 5.43214
54.9301 5.40184
54.9803 5.39434
55.0307 5.38906
55.0809 5.28572
55.1314 5.28525
55.1816 5.23632
55.232 5.19826
55.2823 5.20484
55.3328 5.11027
55.383 4.97727
55.4335 5.05741
55.4838 4.93834
55.5344 4.93501
55.5847 4.83242
55.6352 4.85961
55.6856 4.81751
55.7361 4.70797