File: XRD/Ni3Fe_FD0748.xy
TT I
1.27165 7.63492
1.31627 6.69964
1.36089 6.73951
1.40551 6.64192
1.45013 5.54329
1.49476 5.77693
1.53938 5.83633
1.584 5.55112
1.62863 5.04584
1.67325 5.13461
1.71787 5.128
1.7625 4.71935
1.80712 4.96131
1.85174 4.43875
1.89636 4.80968
1.94099 4.91658
1.98562 4.66402
2.03025 4.73918
2.07487 4.6951
2.11949 4.94427
2.16411 4.93659
2.20874 15.2679
2.25338 24.5725
2.298 6.72066
2.34263 5.24641
2.38725 6.36934
2.43188 6.62588
2.4765 7.25743
2.52115 7.56887
2.56577 7.96981
2.6104 8.01963
2.65503 8.40206
2.69965 8.04594
2.7443 7.97885
2.78893 8.55795
2.83356 8.58955
2.87818 8.59723
2.92281 9.15952
2.96744 9.6127
3.01209 10.6033
3.05672 11.2528
3.10135 12.3308
3.14599 12.8747
3.19062 14.6877
3.23527 15.2566
3.2799 15.3921
3.32454 16.8426
3.36917 17.9414
3.4138 19.1713
3.45844 19.6458
3.50309 20.8693
3.54773 21.9651
3.59237 24.8051
3.637 98.1367
3.68164 62.4429
3.7263 26.4827
3.77094 26.1844
3.81558 26.5163
3.86022 27.6607
3.90486 28.9367
3.9495 29.5261
3.99416 31.3644
4.0388 32.0982
4.08344 33.9076
4.12809 34.867
4.17273 37.3553
4.21738 43.4585
4.26204 268.237
4.30669 234.466
4.35133 49.0681
4.39598 45.026
4.44063 55.0982
4.4853 66.9778
4.52995 50.2363
4.5746 51.3633
4.61925 53.1036
4.6639 54.798
4.70855 57.6564
4.75322 60.5049
4.79788 63.4676
4.84253 66.6156
4.88719 71.2928
4.93184 74.1041
4.97652 79.9922
5.02118 85.792
5.06583 93.1192
5.11049 103.936
5.15515 173.68
5.19981 315.23
5.24449 2598.87
5.28916 12736.4
5.33382 2944.75
5.37848 186.035
5.42315 128.049
5.46783 112.251
5.5125 105.611
5.55716 101.127
5.60183 98.3572
5.6465 96.1432
5.69117 93.8185
5.73586 91.415
5.78053 90.3761
5.8252 89.931
5.86988 90.376
5.91455 92.3526
5.95924 98.8871
6.00392 184.955
6.0486 869.934
6.09328 4349.8
6.13795 3182.37
6.18263 235.122
6.22733 92.4099
6.27201 82.9898
6.3167 104.31
6.36138 81.2268
6.40606 68.7071
6.45075 67.2277
6.49545 65.2432
6.54014 63.5841
6.58483 62.3897
6.62952 62.7825
6.67421 96.8622
6.71892 151.266
6.76361 69.4778
6.8083 58.6811
6.853 57.2052
6.89769 56.7992
6.94239 56.0476
6.98711 56.1952
7.03181 55.5226
7.07651 55.5793
7.12121 55.2477
7.16591 55.6146
7.21063 55.5153
7.25533 71.7929
7.30004 190.244
7.34475 94.678
7.38945 56.8993
7.43416 54.5638
7.47889 54.4899
7.5236 55.0475
7.56831 55.424
7.61303 56.8858
7.65774 57.6691
7.70247 56.0605
7.74719 55.7456
7.79191 56.4532
7.83663 56.4665
7.88135 57.8814
7.92607 58.4967
7.97081 59.8792
8.01553 60.6247
8.06026 61.7961
8.10498 63.921
8.14971 73.9564
8.19446 72.8117
8.23919 69.527
8.28392 71.705
8.32865 73.3657
8.37339 77.8016
8.41812 84.6418
8.46288 114.349
8.50761 153.496
8.55235 355.641
8.59709 1146.08
8.64183 2204.77
8.68658 1021.55
8.73134 162.997
8.77609 98.8129
8.82083 91.9845
8.86558 89.3259
8.91033 89.5075
8.9551 91.8086
8.99985 84.9393
9.04461 83.326
9.08936 82.5163
9.13412 81.888
9.17888 81.4273
9.22365 82.4414
9.26841 81.8535
9.31318 81.9275
9.35794 82.0088
9.4027 82.4321
9.44749 83.1558
9.49226 83.4318
9.53703 84.7126
9.5818 86.9633
9.62657 91.5911
9.67134 99.1277
9.71614 92.768
9.76091 93.3201
9.80569 95.4277
9.85047 99.2953
9.89525 124.718
9.94005 136.174
9.98484 162.667
10.0296 316.09
10.0744 782.336
10.1192 1761.58
10.164 1620.68
10.2088 401.885
10.2536 126.535
10.2984 113.209
10.3432 114.842
10.388 103.739
10.4328 113.81
10.4776 152.69
10.5224 273.47
10.5672 507.873
10.612 505.208
10.6568 206.655
10.7017 96.5498
10.7465 86.0875
10.7913 82.7317
10.8361 80.4153
10.8809 78.7403
10.9257 78.2545
10.9706 78.7964
11.0154 74.628
11.0602 72.4881
11.105 71.6408
11.1499 76.6533
11.1947 84.6708
11.2395 75.1186
11.2844 70.3854
11.3292 67.0767
11.374 65.7091
11.4189 64.991
11.4637 64.6436
11.5086 65.5662
11.5534 68.1778
11.5983 65.3742
11.6431 63.3609
11.688 62.7353
11.7328 62.7354
11.7777 62.5293
11.8225 62.1759
11.8674 62.0746
11.9122 62.1286
11.9571 62.5452
12.002 62.9595
12.0468 66.3729
12.0917 76.788
12.1366 99.6259
12.1814 150.077
12.2263 203.381
12.2712 168.993
12.3161 99.8131
12.3609 70.9613
12.4058 64.5181
12.4507 64.0502
12.4956 64.0945
12.5405 64.2077
12.5853 65.4807
12.6302 73.608
12.6751 79.5014
12.72 69.9869
12.7649 67.5703
12.8098 67.6014
12.8547 69.3106
12.8996 70.5574
12.9445 71.5911
12.9894 73.2929
13.0343 75.136
13.0792 78.1209
13.1242 85.5406
13.1691 107.087
13.214 142.367
13.2589 231.156
13.3038 372.406
13.3487 421.51
13.3937 266.019
13.4386 125.14
13.4835 102.796
13.5285 115.891
13.5734 152.275
13.6183 244.438
13.6633 351.656
13.7082 341.932
13.7531 187.312
13.7981 97.4598
13.843 81.2696
13.888 78.8021
13.9329 76.6723
13.9779 75.1179
14.0228 73.758
14.0678 72.3191
14.1127 72.1442
14.1577 71.9782
14.2027 71.3398
14.2476 69.917
14.2926 70.2417
14.3376 71.4768
14.3825 70.1166
14.4275 68.2401
14.4725 68.035
14.5175 68.2765
14.5624 68.3448
14.6074 71.0067
14.6524 71.3306
14.6974 69.9173
14.7424 70.8175
14.7874 76.564
14.8324 86.3532
14.8774 107.251
14.9224 150.25
14.9674 205.951
15.0124 218.874
15.0574 151.146
15.1024 91.8006
15.1474 72.0967
15.1924 70.1436
15.2374 70.7581
15.2824 70.238
15.3274 67.7022
15.3725 66.5362
15.4175 65.8131
15.4625 65.7618
15.5076 65.8687
15.5526 65.8115
15.5976 65.0125
15.6426 65.9962
15.6877 70.4839
15.7327 77.7003
15.7778 92.3044
15.8228 123.519
15.8679 169.362
15.9129 193.815
15.958 155.882
16.003 98.653
16.0481 68.1892
16.0931 64.7661
16.1382 62.5889
16.1833 60.4537
16.2283 58.7505
16.2734 58.0146
16.3185 58.4454
16.3636 59.2438
16.4086 57.7239
16.4537 55.8387
16.4988 55.2402
16.5439 55.0287
16.589 54.8573
16.6341 54.623
16.6792 54.2311
16.7243 54.4395
16.7694 54.6698
16.8145 54.5248
16.8596 54.8087
16.9047 56.7105
16.9498 56.7738
16.9949 55.5588
17.04 55.4634
17.0851 56.3896
17.1302 58.0575
17.1754 60.8434
17.2205 65.8002
17.2656 73.9246
17.3108 83.1047
17.3559 82.6622
17.401 70.961
17.4462 61.9579
17.4913 58.7328
17.5365 58.7794
17.5815 58.8302
17.6268 59.101
17.6718 59.9866
17.7171 60.5424
17.7622 60.7978
17.8074 61.2627
17.8525 63.141
17.8977 66.8823
17.9428 72.179
17.9881 80.7183
18.0331 98.11
18.0784 120.374
18.1237 138.534
18.1688 130.007
18.214 102.465
18.2591 85.7981
18.3044 90.1046
18.3495 100.139
18.3948 105.778
18.4399 95.8954
18.4852 77.4534
18.5303 65.7361
18.5756 61.7621
18.6207 60.9573
18.666 59.9925
18.7112 59.1243
18.7565 58.5233
18.8016 58.4479
18.8469 57.5513
18.892 57.295
18.9374 56.9304
18.9825 56.7138
19.0278 56.5372
19.073 56.4176
19.1183 57.0364
19.1635 57.8637
19.2088 58.9679
19.254 61.4938
19.2993 65.8375
19.3447 72.6916
19.3898 76.1849
19.4352 71.988
19.4804 63.2248
19.5257 56.3353
19.5709 53.9099
19.6163 53.5318
19.6615 53.4667
19.7068 53.0547
19.752 52.7856
19.7974 53.0201
19.8426 53.8681
19.888 54.5179
19.9332 55.6985
19.9786 58.2354
20.0238 61.6765
20.0692 66.7536
20.1144 69.1824
20.1598 67.6043
20.205 62.8789
20.2504 61.6889
20.2957 63.5996
20.3411 65.8431
20.3863 63.5929
20.4318 58.0959
20.477 53.6851
20.5224 51.5039
20.5677 50.6603
20.6131 50.0216
20.6586 49.2556
20.7038 49.3309
20.7493 48.9066
20.7945 48.7693
20.84 48.6609
20.8853 48.3161
20.9307 48.2863
20.976 48.4731
21.0215 48.1034
21.0668 48.7897
21.1122 49.2532
21.1575 49.528
21.203 50.4357
21.2483 51.0593
21.2938 51.0682
21.3391 49.784
21.3846 48.7455
21.4299 47.8809
21.4754 48.0307
21.5207 48.0663
21.5662 48.4155
21.6116 48.7208
21.6571 49.4643
21.7024 50.3611
21.7479 52.0741
21.7933 54.6706
21.8388 58.3631
21.8843 62.0287
21.9297 64.2452
21.9752 62.7982
22.0206 59.1592
22.0661 56.1798
22.1115 55.7013
22.157 55.6405
22.2024 54.077
22.248 51.2112
22.2933 49.5832
22.3389 48.8499
22.3843 48.7881
22.4299 48.5852
22.4753 48.4639
22.5208 48.3624
22.5662 48.0801
22.6118 48.3088
22.6572 48.4217
22.7028 48.7659
22.7483 49.126
22.7939 49.86
22.8393 51.5548
22.8849 53.6665
22.9303 55.717
22.9759 57.486
23.0214 56.8019
23.067 54.2162
23.1126 50.8499
23.1581 48.7072
23.2037 48.3636
23.2492 48.4433
23.2948 48.5402
23.3403 48.6317
23.3859 49.2277
23.4314 50.2196
23.477 52.1564
23.5225 54.3856
23.5682 56.7815
23.6137 57.5436
23.6593 55.3066
23.7048 51.4722
23.7505 47.9942
23.796 46.3591
23.8417 45.6237
23.8872 45.2363
23.9329 44.8917
23.9784 44.7189
24.0241 44.3279
24.0697 44.1328
24.1154 43.8683
24.1609 43.7343
24.2066 43.5149
24.2522 43.3962
24.2979 43.1622
24.3434 43.0278
24.3892 42.8227
24.4349 42.719
24.4805 42.7005
24.5262 42.8803
24.5718 42.6799
24.6175 42.7857
24.6631 42.5062
24.7089 42.2124
24.7545 42.1761
24.8002 41.7975
24.8458 42.0876
24.8916 41.7232
24.9372 41.8757
24.983 42.2261
25.0286 42.5357
25.0744 42.8616
25.12 43.4154
25.1658 43.9903
25.2114 44.3714
25.2572 44.4658
25.3029 44.6667
25.3487 44.6914
25.3943 44.424
25.4402 43.3051
25.4858 42.3294
25.5316 41.3015
25.5773 40.6618
25.6231 40.6373
25.669 40.2233
25.7147 40.1539
25.7605 40.103
25.8062 40.2805
25.8521 40.3779
25.8977 40.2474
25.9436 40.4314
25.9893 40.711
26.0352 41.2138
26.0809 41.2045
26.1268 41.4317
26.1725 41.0991
26.2184 40.5528
26.2641 39.9892
26.31 39.8003
26.3557 39.8176
26.4017 39.7991
26.4474 40.0957
26.4933 40.4759
26.5391 40.9317
26.585 41.2542
26.6308 41.8559
26.6767 41.8829
26.7225 41.6401
26.7684 41.1438
26.8142 40.5923
26.8601 40.2919
26.9059 39.7956
26.9519 39.2925
26.9979 38.8354
27.0437 38.673
27.0896 38.4479
27.1354 38.5187
27.1814 38.2718
27.2272 38.3007
27.2732 38.2871
27.3191 38.1116
27.3651 38.1683
27.4109 38.0886
27.4569 38.166
27.5027 38.2106
27.5488 38.3433
27.5946 38.1435
27.6407 37.8831
27.6865 37.8491
27.7326 37.6121
27.7784 37.5338
27.8245 37.6808
27.8703 37.6532
27.9164 38.1526
27.9623 38.1331
28.0084 38.5974
28.0543 38.9338
28.1003 38.7252
28.1462 38.4675
28.1923 38.2304
28.2384 37.7518
28.2843 37.516
28.3304 36.8648
28.3764 36.4548
28.4225 36.181
28.4684 36.0957
28.5145 35.7986
28.5605 35.5739
28.6066 35.5692
28.6526 35.3962
28.6987 35.5284
28.7447 35.2311
28.7908 35.1645
28.8368 35.1853
28.8829 35.1732
28.9289 35.1598
28.9751 34.9346
29.0211 34.7514
29.0673 34.4575
29.1133 34.3434
29.1595 34.193
29.2055 34.1027
29.2517 34.21
29.2977 34.1197
29.3439 34.0988
29.3899 33.9087
29.4361 33.9805
29.4824 33.7939
29.5284 33.5858
29.5746 33.1984
29.6207 33.0085
29.6669 32.8225
29.713 32.7876
29.7593 32.6819
29.8053 32.6267
29.8516 32.612
29.8977 32.5829
29.9439 32.3906
29.99 32.3294
30.0363 32.2636
30.0824 32.3118
30.1287 32.3853
30.1748 32.2857
30.2211 32.1996
30.2673 32.1682
30.3136 32.1373
30.3597 32.0448
30.406 32.0901
30.4522 31.888
30.4985 31.8897
30.5447 31.9489
30.591 31.9797
30.6372 32.0456
30.6835 32.0275
30.7297 31.9138
30.7761 31.8441
30.8224 31.7945
30.8686 31.6674
30.915 31.5927
30.9612 31.3059
31.0076 31.1702
31.0538 31.0045
31.1002 30.9807
31.1464 30.742
31.1928 30.7456
31.2391 30.7796
31.2855 30.6144
31.3317 30.5768
31.3781 30.7365
31.4244 30.6653
31.4708 30.7277
31.5171 30.6197
31.5636 30.5932
31.6098 30.2348
31.6563 30.2272
31.7026 30.0397
31.7491 29.9201
31.7953 30.0128
31.8418 29.9615
31.8881 29.9513
31.9346 29.9646
31.9809 29.8435
32.0275 29.6851
32.074 29.6295
32.1203 29.4184
32.1668 29.3515
32.2132 29.1968
32.2597 29.1073
32.306 28.9447
32.3526 28.8512
32.399 28.7882
32.4455 28.667
32.4919 28.4654
32.5385 28.5086
32.5848 28.3877
32.6314 28.3473
32.6778 28.1578
32.7244 28.1722
32.7708 27.8926
32.8174 28.0644
32.8638 27.8972
32.9104 28.006
32.9569 27.8476
33.0035 27.6737
33.0499 27.6969
33.0966 27.6518
33.143 27.5554
33.1897 27.5767
33.2361 27.4746
33.2828 27.4194
33.3293 27.2455
33.3759 27.2195
33.4226 27.0188
33.4691 26.9201
33.5158 26.9224
33.5623 26.7731
33.609 26.526
33.6555 26.5308
33.7022 26.3065
33.7487 26.365
33.7954 26.4068
33.842 26.2195
33.8887 26.1623
33.9353 26.0486
33.982 25.9893
34.0286 25.9854
34.0753 25.8462
34.1219 25.7729
34.1687 25.7058
34.2152 25.6969
34.262 25.5295
34.3086 25.429
34.3554 25.3909
34.402 25.2364
34.4488 25.1898
34.4954 25.1372
34.5422 25.0276
34.5889 25.0294
34.6357 24.8357
34.6825 24.7565
34.7292 24.7314
34.776 24.6125
34.8227 24.5554
34.8695 24.5114
34.9162 24.4136
34.9631 24.3283
35.0098 24.3857
35.0566 24.1773
35.1033 24.1696
35.1502 24.1233
35.1969 24.0238
35.2438 24.0018
35.2906 23.948
35.3375 23.9817
35.3842 23.8599
35.4311 23.7758
35.4779 23.7867
35.5248 23.7646
35.5716 23.644
35.6185 23.5945
35.6653 23.5245
35.7123 23.3713
35.759 23.2472
35.806 23.2245
35.8528 23.1341
35.8998 23.1067
35.9468 23.0459
35.9936 22.9398
36.0406 22.8228
36.0874 22.8488
36.1345 22.7403
36.1813 22.7392
36.2283 22.5511
36.2752 22.5278
36.3222 22.5943
36.3691 22.4773
36.4161 22.3423
36.463 22.3232
36.5101 22.3381
36.557 22.1481
36.6041 22.06
36.651 22.0529
36.6981 21.9628
36.745 21.8779
36.7921 21.8772
36.839 21.7488
36.8861 21.6379
36.9331 21.6008
36.9802 21.5465
37.0272 21.4484
37.0743 21.3442
37.1213 21.2646
37.1684 21.3201
37.2154 21.2258
37.2626 21.2242
37.3098 21.1076
37.3568 20.9894
37.404 20.9485
37.451 20.8735
37.4982 20.7746
37.5452 20.7036
37.5924 20.6497
37.6395 20.7552
37.6867 20.6069
37.7337 20.5193
37.781 20.4088
37.8281 20.3678
37.8753 20.314
37.9224 20.234
37.9697 20.1664
38.0168 20.067
38.064 20.0797
38.1111 20.0278
38.1584 19.8724
38.2056 19.8784
38.2529 19.8574
38.3 19.6935
38.3473 19.7479
38.3945 19.5856
38.4418 19.5701
38.489 19.4968
38.5363 19.4359
38.5837 19.2849
38.6309 19.2406
38.6782 19.2354
38.7254 19.1528
38.7728 19.1463
38.82 19.0067
38.8674 18.9913
38.9146 18.9589
38.9621 18.8664
39.0093 18.7373
39.0567 18.7931
39.104 18.6855
39.1514 18.6072
39.1987 18.604
39.2461 18.4597
39.2934 18.5132
39.3409 18.3667
39.3882 18.2627
39.4356 18.2964
39.483 18.2095
39.5304 18.1104
39.5778 18.0768
39.6253 18.0061
39.6726 18.0551
39.7201 17.9852
39.7675 17.8894
39.815 17.8873
39.8624 17.8352
39.9099 17.7527
39.9575 17.6006
40.0049 17.59
40.0525 17.4914
40.0999 17.5094
40.1474 17.425
40.1949 17.3794
40.2425 17.3457
40.2899 17.2846
40.3375 17.2199
40.385 17.1073
40.4326 17.0739
40.48 17.1086
40.5277 17.034
40.5752 16.9325
40.6228 16.8684
40.6703 16.8398
40.718 16.8147
40.7655 16.7332
40.8132 16.667
40.8607 16.6281
40.9084 16.5619
40.9559 16.5617
41.0036 16.5054
41.0512 16.3696
41.0989 16.3751
41.1465 16.3019
41.1942 16.3002
41.242 16.1903
41.2896 16.105
41.3373 16.1585
41.3849 16.0048
41.4327 15.9623
41.4803 15.8374
41.5281 15.8682
41.5758 15.8379
41.6236 15.7664
41.6712 15.6851
41.7191 15.6846
41.7667 15.6
41.8146 15.5733
41.8622 15.5013
41.9101 15.4425
41.9578 15.3218
42.0057 15.3078
42.0534 15.3328
42.1013 15.2502
42.149 15.1722
42.1969 15.1628
42.2446 15.0765
42.2925 15.0616
42.3403 14.9789
42.3882 14.9963
42.436 14.9286
42.4839 14.8163
42.5319 14.8465
42.5797 14.7224
42.6277 14.7277
42.6755 14.6556
42.7235 14.5958
42.7713 14.5662
42.8193 14.5052
42.8671 14.4817
42.9152 14.4183
42.963 14.3284
43.0111 14.2542
43.0589 14.2179
43.107 14.2343
43.1549 14.1592
43.2029 14.1248
43.2508 14.1282
43.2989 14.0464
43.3468 13.9743
43.3949 13.8942
43.4429 13.8448
43.491 13.8167
43.5389 13.7158
43.5871 13.7214
43.635 13.7209
43.6832 13.6474
43.7312 13.5534
43.7793 13.4937
43.8273 13.4817
43.8755 13.3968
43.9237 13.3946
43.9717 13.3531
44.0199 13.2553
44.068 13.2828
44.1162 13.211
44.1642 13.1921
44.2125 13.1526
44.2606 13.0607
44.3088 13.0053
44.3569 12.9409
44.4052 12.969
44.4533 12.8641
44.5016 12.8476
44.5497 12.8021
44.598 12.7932
44.6461 12.7326
44.6945 12.6374
44.7426 12.6077
44.791 12.5515
44.8391 12.5705
44.8875 12.5047
44.9357 12.4525
44.984 12.4002
45.0322 12.3217
45.0806 12.3136
45.1288 12.2494
45.1773 12.1901
45.2257 12.2132
45.2739 12.1548
45.3224 12.1215
45.3706 12.0359
45.4191 12.024
45.4673 11.9945
45.5158 11.9775
45.5641 11.8852
45.6126 11.7893
45.6609 11.7719
45.7094 11.7556
45.7577 11.7506
45.8063 11.6514
45.8546 11.6312
45.9031 11.6058
45.9515 11.5405
46.0001 11.5417
46.0484 11.4755
46.097 11.4339
46.1454 11.4049
46.194 11.332
46.2424 11.3057
46.291 11.2874
46.3395 11.1856
46.3881 11.1946
46.4365 11.1659
46.4852 11.1039
46.5337 11.0789
46.5823 11.028
46.631 10.9845
46.6795 10.9622
46.7282 10.9326
46.7767 10.8784
46.8254 10.8146
46.8739 10.7772
46.9226 10.747
46.9712 10.6854
47.0199 10.6438
47.0685 10.614
47.1173 10.5855
47.1658 10.5417
47.2146 10.4889
47.2632 10.4675
47.312 10.4356
47.3606 10.3638
47.4095 10.3523
47.4581 10.3152
47.5069 10.26
47.5556 10.2525
47.6044 10.2092
47.6531 10.2021
47.702 10.1292
47.7507 10.0777
47.7996 10.0238
47.8483 10.0327
47.8972 9.96745
47.9461 9.93719
47.9948 9.86804
48.0438 9.86524
48.0925 9.82605
48.1415 9.78495
48.1902 9.74889
48.2392 9.75029
48.288 9.67595
48.337 9.64843
48.3858 9.60308
48.4348 9.56314
48.4837 9.57161
48.5327 9.56589
48.5815 9.47873
48.6306 9.50449
48.6795 9.42251
48.7285 9.36559
48.7774 9.32734
48.8265 9.33765
48.8754 9.28185
48.9245 9.23667
48.9734 9.20572
49.0226 9.19772
49.0715 9.17298
49.1206 9.09686
49.1696 9.06207
49.2188 9.02419
49.2679 8.99205
49.3169 8.96888
49.3661 8.8954
49.4151 8.85668
49.4643 8.86788
49.5134 8.84203
49.5626 8.75622
49.6117 8.73811
49.6609 8.76063
49.71 8.66223
49.7592 8.62558
49.8083 8.595
49.8576 8.61144
49.9067 8.58412
49.956 8.54682
50.0052 8.46939
50.0545 8.50757
50.1036 8.39263
50.153 8.44976
50.2022 8.36738
50.2515 8.30314
50.3007 8.2728
50.3501 8.23886
50.3993 8.22583
50.4487 8.1666
50.498 8.18014
50.5474 8.12718
50.5966 8.09934
50.6461 8.08095
50.6955 8.07208
50.7448 8.00303
50.7943 7.97481
50.8436 7.95262
50.8931 7.92195
50.9424 7.8693
50.9919 7.87865
51.0413 7.81707
51.0908 7.79755
51.1402 7.75271
51.1897 7.73218
51.2391 7.6976
51.2887 7.65215
51.3381 7.62149
51.3877 7.60485
51.4371 7.57311
51.4867 7.52046
51.5362 7.53718
51.5858 7.47103
51.6353 7.42931
51.6849 7.43017
51.7344 7.39091
51.7841 7.37259
51.8336 7.31756
51.8833 7.29004
51.9328 7.27284
51.9826 7.20366
52.0323 7.20675
52.0818 7.16904
52.1316 7.14186
52.1812 7.12257
52.231 7.1093
52.2806 7.07899
52.3304 7.05756
52.38 6.94763
52.4298 6.95515
52.4794 6.94038
52.5293 6.9185
52.5789 6.8952
52.6288 6.87687
52.6785 6.80537
52.7284 6.79033
52.7781 6.75493
52.828 6.76659
52.8777 6.71896
52.9276 6.69622
52.9774 6.66028
53.0273 6.63201
53.0771 6.60959
53.1271 6.59278
53.1769 6.51199
53.2269 6.56181
53.2767 6.52637
53.3267 6.49152
53.3765 6.43041
53.4266 6.44016
53.4766 6.41421
53.5265 6.34014
53.5765 6.3158
53.6264 6.30502
53.6765 6.27065
53.7264 6.27218
53.7765 6.21205
53.8265 6.17383
53.8766 6.21377
53.9266 6.15759
53.9767 6.12336
54.0267 6.12294
54.0769 6.05395
54.1269 6.03505
54.1771 5.99244
54.2271 5.96269
54.2773 5.88834
54.3274 5.9178
54.3776 5.90185
54.4277 5.86944
54.478 5.79158
54.528 5.78667
54.5783 5.72821
54.6285 5.68239
54.6788 5.65844
54.7289 5.62708
54.7792 5.59791
54.8296 5.51393
54.8798 5.44236
54.9301 5.48843
54.9803 5.43047
55.0307 5.42619
55.0809 5.32429
55.1314 5.39153
55.1816 5.22798
55.232 5.24489
55.2823 5.18354
55.3328 5.11136
55.383 5.11149
55.4335 5.01061
55.4838 4.95695
55.5344 4.91402
55.5847 4.94088
55.6352 4.8814
55.6856 4.81016
55.7361 4.79089