File: XRD/Ni3Fe_FD0393.xy
TT I
1.27165 7.34759
1.31627 7.43858
1.36089 6.89097
1.40551 6.76073
1.45013 6.1553
1.49476 6.1874
1.53938 6.02779
1.584 5.78054
1.62863 5.74833
1.67325 4.95848
1.71787 5.05895
1.7625 4.82857
1.80712 5.14575
1.85174 4.84483
1.89636 4.89649
1.94099 4.99459
1.98562 4.5829
2.03025 4.57929
2.07487 4.64394
2.11949 4.84042
2.16411 4.95751
2.20874 14.8385
2.25338 23.8357
2.298 6.12385
2.34263 5.0188
2.38725 5.59385
2.43188 5.91239
2.4765 6.74357
2.52115 6.25772
2.56577 7.09081
2.6104 7.51341
2.65503 7.01292
2.69965 7.6633
2.7443 7.52646
2.78893 7.52168
2.83356 8.09216
2.87818 8.1724
2.92281 9.11863
2.96744 9.04696
3.01209 9.97478
3.05672 11.074
3.10135 12.2011
3.14599 13.0787
3.19062 14.0628
3.23527 15.0023
3.2799 15.7844
3.32454 16.7102
3.36917 17.9239
3.4138 18.7653
3.45844 20.4528
3.50309 21.2065
3.54773 22.1241
3.59237 24.4147
3.637 99.7259
3.68164 61.8932
3.7263 27.1087
3.77094 26.6728
3.81558 27.3479
3.86022 27.9374
3.90486 29.4541
3.9495 30.3828
3.99416 31.6389
4.0388 32.8562
4.08344 34.3246
4.12809 35.8319
4.17273 38.3219
4.21738 44.6794
4.26204 265.315
4.30669 229.032
4.35133 50.3106
4.39598 45.6013
4.44063 55.7299
4.4853 67.8216
4.52995 52.9146
4.5746 52.9347
4.61925 54.0068
4.6639 56.4529
4.70855 59.3325
4.75322 62.2899
4.79788 65.5833
4.84253 68.771
4.88719 73.6912
4.93184 77.2612
4.97652 83.1971
5.02118 89.6582
5.06583 97.8624
5.11049 111.949
5.15515 191.193
5.19981 452.304
5.24449 3116.57
5.28916 11557.4
5.33382 3517.18
5.37848 223.668
5.42315 139.206
5.46783 120.355
5.5125 110.447
5.55716 105.57
5.60183 101.664
5.6465 99.2763
5.69117 97.072
5.73586 95.0168
5.78053 95.6426
5.8252 94.9378
5.86988 95.6101
5.91455 98.4406
5.95924 108.401
6.00392 243.705
6.0486 1084.45
6.09328 4030.65
6.13795 3465.76
6.18263 296.395
6.22733 101.006
6.27201 86.6497
6.3167 107.424
6.36138 83.5404
6.40606 71.4336
6.45075 69.3144
6.49545 66.9365
6.54014 65.7073
6.58483 64.7025
6.62952 64.6125
6.67421 98.4799
6.71892 151.327
6.76361 70.513
6.8083 60.4048
6.853 59.1521
6.89769 58.3239
6.94239 57.9588
6.98711 57.3126
7.03181 56.9106
7.07651 57.27
7.12121 56.4221
7.16591 57.0448
7.21063 57.6199
7.25533 73.5577
7.30004 190.135
7.34475 95.1403
7.38945 58.2955
7.43416 56.2216
7.47889 55.7695
7.5236 56.0869
7.56831 56.6379
7.61303 58.5476
7.65774 58.9696
7.70247 57.2767
7.74719 57.3242
7.79191 57.8886
7.83663 58.5969
7.88135 59.0874
7.92607 59.7826
7.97081 61.1202
8.01553 62.4614
8.06026 64.0119
8.10498 65.3733
8.14971 76.195
8.19446 74.4311
8.23919 71.1365
8.28392 73.4821
8.32865 75.845
8.37339 80.6264
8.41812 87.9456
8.46288 120.289
8.50761 181.598
8.55235 429.591
8.59709 1125.47
8.64183 2116.85
8.68658 1135.67
8.73134 197.599
8.77609 105.01
8.82083 96.1047
8.86558 92.618
8.91033 92.6165
8.9551 94.7188
8.99985 88.0228
9.04461 85.9426
9.08936 84.8907
9.13412 83.6423
9.17888 84.034
9.22365 84.8063
9.26841 83.971
9.31318 85.4123
9.35794 85.1157
9.4027 85.1715
9.44749 85.8674
9.49226 86.4841
9.53703 87.5383
9.5818 89.8414
9.62657 94.7817
9.67134 101.47
9.71614 96.207
9.76091 96.5752
9.80569 99.0564
9.85047 102.921
9.89525 128.587
9.94005 143.22
9.98484 192.079
10.0296 380.322
10.0744 797.055
10.1192 1596.42
10.164 1710.16
10.2088 498.334
10.2536 141.261
10.2984 118.373
10.3432 119.563
10.388 108.539
10.4328 124.674
10.4776 170.79
10.5224 277.509
10.5672 478.189
10.612 529.175
10.6568 228.722
10.7017 102.472
10.7465 89.4074
10.7913 85.7742
10.8361 83.4502
10.8809 80.9601
10.9257 80.5599
10.9706 81.2663
11.0154 76.8384
11.0602 74.5795
11.105 73.8036
11.1499 78.7706
11.1947 86.6479
11.2395 76.7422
11.2844 72.5189
11.3292 69.17
11.374 67.7109
11.4189 67.481
11.4637 66.8885
11.5086 67.1825
11.5534 70.2939
11.5983 67.197
11.6431 65.4731
11.688 64.8233
11.7328 64.5997
11.7777 64.3592
11.8225 64.1329
11.8674 64.0866
11.9122 64.2133
11.9571 64.3639
12.002 65.4027
12.0468 70.111
12.0917 83.0652
12.1366 105.218
12.1814 148.631
12.2263 198.875
12.2712 179.946
12.3161 107.524
12.3609 73.6609
12.4058 66.3653
12.4507 66.1262
12.4956 66.1909
12.5405 66.2947
12.5853 67.1648
12.6302 75.8092
12.6751 81.679
12.72 72.0234
12.7649 69.7021
12.8098 70.2657
12.8547 71.6922
12.8996 72.7994
12.9445 73.937
12.9894 75.8173
13.0343 77.6399
13.0792 81.2207
13.1242 91.6511
13.1691 118.405
13.214 155.623
13.2589 233.922
13.3038 347.791
13.3487 426.639
13.3937 294.934
13.4386 138.789
13.4835 111.186
13.5285 127.485
13.5734 162.558
13.6183 237.795
13.6633 328.975
13.7082 350.713
13.7531 210.871
13.7981 106.428
13.843 84.8118
13.888 82.0753
13.9329 79.2649
13.9779 77.9106
14.0228 76.5698
14.0678 74.867
14.1127 74.5002
14.1577 74.6902
14.2027 73.6044
14.2476 72.3074
14.2926 72.7584
14.3376 73.8679
14.3825 72.3695
14.4275 70.6022
14.4725 70.2759
14.5175 70.726
14.5624 71.2023
14.6074 73.2666
14.6524 73.8307
14.6974 72.3404
14.7424 74.2109
14.7874 81.6481
14.8324 93.195
14.8774 113.132
14.9224 149.837
14.9674 198.166
15.0124 219.008
15.0574 163.683
15.1024 100.186
15.1474 75.4492
15.1924 72.3688
15.2374 73.509
15.2824 72.4166
15.3274 70.2051
15.3725 68.7451
15.4175 68.0929
15.4625 67.8947
15.5076 68.228
15.5526 68.0272
15.5976 67.772
15.6426 68.8581
15.6877 74.8957
15.7327 83.4977
15.7778 97.7354
15.8228 124.169
15.8679 163.077
15.9129 193.359
15.958 168.92
16.003 107.125
16.0481 71.9926
16.0931 66.7927
16.1382 64.7035
16.1833 62.5327
16.2283 60.8809
16.2734 60.1257
16.3185 60.5467
16.3636 61.246
16.4086 59.656
16.4537 57.8823
16.4988 57.0939
16.5439 57.009
16.589 56.7912
16.6341 56.4628
16.6792 56.0956
16.7243 56.3471
16.7694 56.5902
16.8145 56.3761
16.8596 56.8425
16.9047 58.5144
16.9498 58.613
16.9949 57.3054
17.04 57.5644
17.0851 58.8719
17.1302 60.407
17.1754 63.7182
17.2205 67.7717
17.2656 74.2594
17.3108 82.4999
17.3559 83.928
17.401 74.8972
17.4462 64.5967
17.4913 60.896
17.5365 60.5929
17.5815 60.8679
17.6268 61.2261
17.6718 62.0752
17.7171 62.669
17.7622 62.9077
17.8074 63.3857
17.8525 66.0
17.8977 70.7068
17.9428 76.5084
17.9881 84.3843
18.0331 99.1577
18.0784 117.845
18.1237 137.416
18.1688 137.068
18.214 112.081
18.2591 90.7534
18.3044 90.8266
18.3495 98.831
18.3948 106.821
18.4399 100.42
18.4852 82.1064
18.5303 68.7333
18.5756 64.1666
18.6207 62.8995
18.666 62.2575
18.7112 61.3004
18.7565 60.6022
18.8016 60.1551
18.8469 59.6179
18.892 59.2445
18.9374 58.7104
18.9825 58.5154
19.0278 58.3903
19.073 58.7045
19.1183 59.0505
19.1635 59.9723
19.2088 61.3428
19.254 63.5294
19.2993 67.2112
19.3447 72.4504
19.3898 77.1619
19.4352 74.7433
19.4804 66.3808
19.5257 59.0419
19.5709 55.8467
19.6163 55.4172
19.6615 55.1448
19.7068 54.6272
19.752 54.7716
19.7974 55.1402
19.8426 56.0644
19.888 56.6964
19.9332 57.8497
19.9786 59.9179
20.0238 63.0934
20.0692 67.3975
20.1144 70.6641
20.1598 70.3431
20.205 66.1322
20.2504 63.5204
20.2957 64.364
20.3411 66.1618
20.3863 65.6553
20.4318 60.8558
20.477 55.9129
20.5224 53.2082
20.5677 52.4564
20.6131 51.7853
20.6586 51.0669
20.7038 51.0735
20.7493 50.395
20.7945 50.3217
20.84 50.3157
20.8853 50.0329
20.9307 49.7814
20.976 50.0366
21.0215 49.9291
21.0668 50.3855
21.1122 50.5709
21.1575 51.3815
21.203 51.959
21.2483 52.4352
21.2938 52.8175
21.3391 51.714
21.3846 50.4172
21.4299 49.7779
21.4754 49.6602
21.5207 49.8313
21.5662 49.9688
21.6116 50.6494
21.6571 51.33
21.7024 52.2393
21.7479 53.9801
21.7933 56.275
21.8388 59.4255
21.8843 62.9034
21.9297 65.7932
21.9752 65.4997
22.0206 62.0862
22.0661 58.2898
22.1115 57.0714
22.157 57.2176
22.2024 56.17
22.248 53.3788
22.2933 51.5617
22.3389 50.5087
22.3843 50.4119
22.4299 50.2675
22.4753 50.2654
22.5208 49.9375
22.5662 49.8464
22.6118 50.1201
22.6572 50.2265
22.7028 50.5819
22.7483 51.0356
22.7939 51.7388
22.8393 53.1168
22.8849 54.8777
22.9303 56.7189
22.9759 58.634
23.0214 58.689
23.067 56.6115
23.1126 53.0593
23.1581 50.67
23.2037 50.1868
23.2492 50.271
23.2948 50.1345
23.3403 50.4411
23.3859 50.9418
23.4314 51.9896
23.477 53.458
23.5225 55.4489
23.5682 57.2745
23.6137 58.859
23.6593 57.5357
23.7048 53.8343
23.7505 50.0203
23.796 47.9972
23.8417 47.3165
23.8872 46.8285
23.9329 46.4302
23.9784 46.1556
24.0241 45.8734
24.0697 45.5036
24.1154 45.5455
24.1609 45.1991
24.2066 45.0998
24.2522 44.8631
24.2979 44.5854
24.3434 44.3254
24.3892 44.2871
24.4349 44.2062
24.4805 44.1462
24.5262 44.2654
24.5718 44.0032
24.6175 44.0897
24.6631 44.0185
24.7089 43.792
24.7545 43.6044
24.8002 43.4291
24.8458 43.4219
24.8916 43.2854
24.9372 43.2023
24.983 43.6391
25.0286 43.9344
25.0744 44.4213
25.12 44.7051
25.1658 45.3332
25.2114 45.7068
25.2572 45.9371
25.3029 45.711
25.3487 46.0006
25.3943 45.8083
25.4402 44.9606
25.4858 43.9226
25.5316 42.6676
25.5773 42.0367
25.6231 41.9682
25.669 41.5325
25.7147 41.5445
25.7605 41.5644
25.8062 41.706
25.8521 41.7564
25.8977 41.648
25.9436 41.97
25.9893 41.8191
26.0352 42.3757
26.0809 42.5161
26.1268 42.6875
26.1725 42.6203
26.2184 41.9401
26.2641 41.5721
26.31 41.2399
26.3557 41.2337
26.4017 41.1668
26.4474 41.4066
26.4933 41.8729
26.5391 42.276
26.585 42.6719
26.6308 42.9628
26.6767 43.095
26.7225 43.0873
26.7684 42.5259
26.8142 41.9264
26.8601 41.6306
26.9059 41.167
26.9519 40.6133
26.9979 40.2215
27.0437 39.8554
27.0896 39.7824
27.1354 39.7697
27.1814 39.6147
27.2272 39.6235
27.2732 39.6199
27.3191 39.423
27.3651 39.4072
27.4109 39.3669
27.4569 39.3669
27.5027 39.4814
27.5488 39.6337
27.5946 39.4341
27.6407 39.2469
27.6865 39.0924
27.7326 38.9129
27.7784 38.8437
27.8245 38.8092
27.8703 39.0003
27.9164 39.219
27.9623 39.2921
28.0084 39.6763
28.0543 39.9666
28.1003 39.9202
28.1462 39.7799
28.1923 39.4402
28.2384 38.8799
28.2843 38.7432
28.3304 38.2911
28.3764 37.7037
28.4225 37.392
28.4684 37.1885
28.5145 36.8445
28.5605 36.7586
28.6066 36.6148
28.6526 36.4908
28.6987 36.5921
28.7447 36.4397
28.7908 36.2792
28.8368 36.3367
28.8829 36.297
28.9289 36.1822
28.9751 36.1888
29.0211 35.9238
29.0673 35.5483
29.1133 35.4781
29.1595 35.344
29.2055 35.1862
29.2517 35.1734
29.2977 35.1126
29.3439 35.1097
29.3899 35.136
29.4361 35.0917
29.4824 34.9144
29.5284 34.6084
29.5746 34.4103
29.6207 33.9138
29.6669 33.8759
29.713 33.8876
29.7593 33.7272
29.8053 33.7538
29.8516 33.5783
29.8977 33.7028
29.9439 33.465
29.99 33.4311
30.0363 33.2689
30.0824 33.4614
30.1287 33.2183
30.1748 33.2414
30.2211 33.2837
30.2673 33.1314
30.3136 33.1702
30.3597 33.0936
30.406 33.0189
30.4522 33.0376
30.4985 32.8646
30.5447 32.962
30.591 32.9955
30.6372 33.0297
30.6835 33.0392
30.7297 33.0444
30.7761 32.9419
30.8224 32.8824
30.8686 32.7964
30.915 32.4672
30.9612 32.3896
31.0076 32.1078
31.0538 31.9521
31.1002 31.9006
31.1464 31.7701
31.1928 31.7982
31.2391 31.7526
31.2855 31.7058
31.3317 31.6326
31.3781 31.6422
31.4244 31.6918
31.4708 31.5265
31.5171 31.6328
31.5636 31.5045
31.6098 31.4504
31.6563 31.1931
31.7026 31.0083
31.7491 30.9143
31.7953 30.9681
31.8418 30.915
31.8881 30.8986
31.9346 30.8791
31.9809 30.9344
32.0275 30.698
32.074 30.6139
32.1203 30.407
32.1668 30.3437
32.2132 30.1338
32.2597 30.0152
32.306 29.8361
32.3526 29.6925
32.399 29.687
32.4455 29.5435
32.4919 29.4465
32.5385 29.3698
32.5848 29.1917
32.6314 29.2183
32.6778 29.0897
32.7244 28.9382
32.7708 28.9581
32.8174 28.8991
32.8638 28.6971
32.9104 28.7772
32.9569 28.6682
33.0035 28.4944
33.0499 28.5308
33.0966 28.4281
33.143 28.5126
33.1897 28.38
33.2361 28.374
33.2828 28.2546
33.3293 28.1202
33.3759 28.0564
33.4226 27.9504
33.4691 27.8008
33.5158 27.7217
33.5623 27.5669
33.609 27.4674
33.6555 27.3646
33.7022 27.2331
33.7487 27.0874
33.7954 27.1675
33.842 26.9898
33.8887 27.0785
33.9353 26.9758
33.982 26.7944
34.0286 26.7179
34.0753 26.7114
34.1219 26.5128
34.1687 26.4293
34.2152 26.4977
34.262 26.3772
34.3086 26.1883
34.3554 26.1772
34.402 26.0312
34.4488 25.939
34.4954 25.8657
34.5422 25.8662
34.5889 25.704
34.6357 25.6146
34.6825 25.5572
34.7292 25.4718
34.776 25.4553
34.8227 25.3283
34.8695 25.3505
34.9162 25.3062
34.9631 25.0863
35.0098 25.1584
35.0566 25.0057
35.1033 24.8547
35.1502 24.8929
35.1969 24.8253
35.2438 24.7784
35.2906 24.744
35.3375 24.6286
35.3842 24.5509
35.4311 24.6465
35.4779 24.596
35.5248 24.4628
35.5716 24.3891
35.6185 24.3774
35.6653 24.2313
35.7123 24.0803
35.759 24.0525
35.806 23.9506
35.8528 23.796
35.8998 23.8063
35.9468 23.6308
35.9936 23.6798
36.0406 23.5789
36.0874 23.6384
36.1345 23.5125
36.1813 23.3825
36.2283 23.3271
36.2752 23.1286
36.3222 23.1729
36.3691 23.1875
36.4161 23.0139
36.463 22.9957
36.5101 22.9241
36.557 22.9121
36.6041 22.7579
36.651 22.8251
36.6981 22.6297
36.745 22.5524
36.7921 22.5658
36.839 22.3991
36.8861 22.3339
36.9331 22.3278
36.9802 22.225
37.0272 22.1144
37.0743 22.0611
37.1213 22.0517
37.1684 21.9719
37.2154 21.9056
37.2626 21.8309
37.3098 21.7507
37.3568 21.6392
37.404 21.6308
37.451 21.461
37.4982 21.5024
37.5452 21.3253
37.5924 21.3759
37.6395 21.3722
37.6867 21.2179
37.7337 21.1085
37.781 21.0781
37.8281 20.9872
37.8753 20.9237
37.9224 20.797
37.9697 20.7498
38.0168 20.7492
38.064 20.6714
38.1111 20.5928
38.1584 20.5046
38.2056 20.5359
38.2529 20.4246
38.3 20.372
38.3473 20.3583
38.3945 20.1584
38.4418 20.1999
38.489 20.0996
38.5363 20.0455
38.5837 19.9527
38.6309 19.9438
38.6782 19.8559
38.7254 19.76
38.7728 19.7037
38.82 19.6454
38.8674 19.5675
38.9146 19.5356
38.9621 19.4297
39.0093 19.473
39.0567 19.354
39.104 19.2777
39.1514 19.1502
39.1987 19.1547
39.2461 19.0848
39.2934 19.0057
39.3409 18.9455
39.3882 18.9372
39.4356 18.8241
39.483 18.7873
39.5304 18.6415
39.5778 18.6379
39.6253 18.6039
39.6726 18.525
39.7201 18.5188
39.7675 18.4459
39.815 18.45
39.8624 18.3256
39.9099 18.3026
39.9575 18.1245
40.0049 18.1847
40.0525 18.0346
40.0999 18.0866
40.1474 17.9879
40.1949 17.9084
40.2425 17.8753
40.2899 17.792
40.3375 17.7695
40.385 17.7009
40.4326 17.6737
40.48 17.5282
40.5277 17.6226
40.5752 17.4463
40.6228 17.4176
40.6703 17.3394
40.718 17.3301
40.7655 17.3058
40.8132 17.1653
40.8607 17.1332
40.9084 17.1104
40.9559 17.0902
41.0036 17.0078
41.0512 16.9728
41.0989 16.9012
41.1465 16.808
41.1942 16.764
41.242 16.5983
41.2896 16.6625
41.3373 16.577
41.3849 16.5482
41.4327 16.5123
41.4803 16.4055
41.5281 16.3367
41.5758 16.2703
41.6236 16.2194
41.6712 16.221
41.7191 16.119
41.7667 16.1277
41.8146 16.0942
41.8622 15.9486
41.9101 16.0057
41.9578 15.8078
42.0057 15.8449
42.0534 15.8025
42.1013 15.7369
42.149 15.6811
42.1969 15.5856
42.2446 15.5294
42.2925 15.5121
42.3403 15.4167
42.3882 15.3935
42.436 15.3467
42.4839 15.2661
42.5319 15.2638
42.5797 15.2454
42.6277 15.2093
42.6755 15.1022
42.7235 15.0428
42.7713 14.9669
42.8193 14.9598
42.8671 14.9113
42.9152 14.8358
42.963 14.7642
43.0111 14.7287
43.0589 14.6502
43.107 14.6568
43.1549 14.6126
43.2029 14.5687
43.2508 14.4534
43.2989 14.4028
43.3468 14.354
43.3949 14.3103
43.4429 14.2944
43.491 14.2126
43.5389 14.1761
43.5871 14.1163
43.635 14.0614
43.6832 14.0401
43.7312 13.9698
43.7793 13.923
43.8273 13.9136
43.8755 13.8713
43.9237 13.77
43.9717 13.781
44.0199 13.7711
44.068 13.6913
44.1162 13.5811
44.1642 13.5876
44.2125 13.542
44.2606 13.4988
44.3088 13.413
44.3569 13.3865
44.4052 13.3538
44.4533 13.2856
44.5016 13.194
44.5497 13.1842
44.598 13.1376
44.6461 13.0833
44.6945 13.055
44.7426 13.0197
44.791 12.9131
44.8391 12.9195
44.8875 12.8435
44.9357 12.8703
44.984 12.7985
45.0322 12.702
45.0806 12.6643
45.1288 12.6156
45.1773 12.5916
45.2257 12.5308
45.2739 12.5005
45.3224 12.4857
45.3706 12.4371
45.4191 12.3351
45.4673 12.3403
45.5158 12.28
45.5641 12.2947
45.6126 12.1748
45.6609 12.1521
45.7094 12.0685
45.7577 12.0812
45.8063 11.9578
45.8546 11.9692
45.9031 11.9322
45.9515 11.9034
46.0001 11.8576
46.0484 11.8234
46.097 11.7882
46.1454 11.7066
46.194 11.7465
46.2424 11.6323
46.291 11.5744
46.3395 11.5461
46.3881 11.535
46.4365 11.5129
46.4852 11.4604
46.5337 11.4054
46.5823 11.371
46.631 11.3089
46.6795 11.2774
46.7282 11.2224
46.7767 11.2292
46.8254 11.1359
46.8739 11.1221
46.9226 11.0168
46.9712 11.0001
47.0199 10.9561
47.0685 10.8864
47.1173 10.9003
47.1658 10.8843
47.2146 10.8041
47.2632 10.7093
47.312 10.7396
47.3606 10.6696
47.4095 10.6272
47.4581 10.5959
47.5069 10.5299
47.5556 10.5437
47.6044 10.4879
47.6531 10.4691
47.702 10.4162
47.7507 10.3986
47.7996 10.3694
47.8483 10.3098
47.8972 10.2818
47.9461 10.2564
47.9948 10.2059
48.0438 10.1705
48.0925 10.1063
48.1415 10.0613
48.1902 10.0424
48.2392 10.0241
48.288 9.9902
48.337 9.93194
48.3858 9.90183
48.4348 9.91166
48.4837 9.89918
48.5327 9.8256
48.5815 9.7668
48.6306 9.75428
48.6795 9.68227
48.7285 9.65271
48.7774 9.61509
48.8265 9.58099
48.8754 9.52902
48.9245 9.55327
48.9734 9.4829
49.0226 9.47297
49.0715 9.4268
49.1206 9.38404
49.1696 9.34002
49.2188 9.28476
49.2679 9.2514
49.3169 9.19231
49.3661 9.19632
49.4151 9.15958
49.4643 9.14238
49.5134 9.07534
49.5626 9.0458
49.6117 9.00506
49.6609 9.00292
49.71 8.93824
49.7592 8.90176
49.8083 8.85853
49.8576 8.86806
49.9067 8.82505
49.956 8.78979
50.0052 8.73971
50.0545 8.74478
50.1036 8.68252
50.153 8.63665
50.2022 8.62815
50.2515 8.56089
50.3007 8.53999
50.3501 8.50285
50.3993 8.43659
50.4487 8.40892
50.498 8.40625
50.5474 8.34855
50.5966 8.34685
50.6461 8.32656
50.6955 8.30878
50.7448 8.25151
50.7943 8.22561
50.8436 8.22552
50.8931 8.14255
50.9424 8.1469
50.9919 8.11697
51.0413 8.06938
51.0908 8.01096
51.1402 8.00897
51.1897 8.02106
51.2391 7.95845
51.2887 7.87662
51.3381 7.886
51.3877 7.83267
51.4371 7.8142
51.4867 7.76195
51.5362 7.74504
51.5858 7.71819
51.6353 7.67756
51.6849 7.64788
51.7344 7.6037
51.7841 7.58491
51.8336 7.55196
51.8833 7.52329
51.9328 7.45594
51.9826 7.44082
52.0323 7.42139
52.0818 7.42462
52.1316 7.32257
52.1812 7.3495
52.231 7.30395
52.2806 7.25204
52.3304 7.24132
52.38 7.20737
52.4298 7.17669
52.4794 7.14027
52.5293 7.09228
52.5789 7.09159
52.6288 7.09734
52.6785 7.01022
52.7284 6.99987
52.7781 6.99762
52.828 6.96267
52.8777 6.86241
52.9276 6.87505
52.9774 6.85979
53.0273 6.83971
53.0771 6.79803
53.1271 6.80161
53.1769 6.70971
53.2269 6.7328
53.2767 6.7085
53.3267 6.67699
53.3765 6.65678
53.4266 6.59695
53.4766 6.57446
53.5265 6.52521
53.5765 6.49089
53.6264 6.46257
53.6765 6.4356
53.7264 6.43626
53.7765 6.40177
53.8265 6.41142
53.8766 6.38378
53.9266 6.35395
53.9767 6.27064
54.0267 6.2778
54.0769 6.24643
54.1269 6.2518
54.1771 6.16974
54.2271 6.11292
54.2773 6.06646
54.3274 6.07972
54.3776 6.02646
54.4277 6.02665
54.478 5.99036
54.528 5.95315
54.5783 5.9139
54.6285 5.8643
54.6788 5.8518
54.7289 5.77195
54.7792 5.77988
54.8296 5.67317
54.8798 5.6816
54.9301 5.62097
54.9803 5.57993
55.0307 5.58359
55.0809 5.50149
55.1314 5.48079
55.1816 5.43161
55.232 5.36601
55.2823 5.36855
55.3328 5.27448
55.383 5.22053
55.4335 5.18142
55.4838 5.1049
55.5344 5.05903
55.5847 5.11149
55.6352 5.03388
55.6856 4.99031
55.7361 4.93318