File: XRD/Ni3Fe_FD1021.xy
TT I
1.27165 7.14467
1.31627 6.59033
1.36089 6.30331
1.40551 5.76242
1.45013 5.79842
1.49476 5.21592
1.53938 5.45618
1.584 5.17363
1.62863 5.47516
1.67325 4.59122
1.71787 4.46829
1.7625 4.56384
1.80712 3.94204
1.85174 4.09122
1.89636 4.83216
1.94099 4.47275
1.98562 3.75087
2.03025 4.38241
2.07487 3.46824
2.11949 4.3722
2.16411 4.12563
2.20874 5.35184
2.25338 6.7817
2.298 5.38202
2.34263 5.59664
2.38725 6.11855
2.43188 5.70729
2.4765 7.26416
2.52115 7.04485
2.56577 6.85464
2.6104 8.61801
2.65503 8.67996
2.69965 8.75138
2.7443 8.74006
2.78893 8.56408
2.83356 8.55819
2.87818 9.04391
2.92281 8.7546
2.96744 9.52768
3.01209 10.6651
3.05672 10.9155
3.10135 12.2368
3.14599 13.2528
3.19062 14.5994
3.23527 14.9773
3.2799 15.3349
3.32454 16.0423
3.36917 17.357
3.4138 18.717
3.45844 19.2361
3.50309 19.6845
3.54773 20.5614
3.59237 21.2641
3.637 28.2943
3.68164 26.8922
3.7263 24.0329
3.77094 24.5559
3.81558 25.7041
3.86022 26.0292
3.90486 27.4853
3.9495 28.3128
3.99416 28.9373
4.0388 30.1725
4.08344 31.6925
4.12809 31.9916
4.17273 33.867
4.21738 35.3418
4.26204 52.9023
4.30669 57.441
4.35133 40.3311
4.39598 40.8234
4.44063 43.2897
4.4853 46.0877
4.52995 46.5352
4.5746 48.1638
4.61925 50.3013
4.6639 52.2292
4.70855 55.0404
4.75322 57.337
4.79788 60.1831
4.84253 63.3902
4.88719 67.739
4.93184 70.958
4.97652 76.0696
5.02118 82.5093
5.06583 89.0498
5.11049 96.9902
5.15515 116.502
5.19981 226.657
5.24449 2344.83
5.28916 13292.1
5.33382 3430.78
5.37848 232.942
5.42315 125.238
5.46783 107.967
5.5125 100.449
5.55716 96.8534
5.60183 92.2972
5.6465 90.4026
5.69117 89.2315
5.73586 86.9175
5.78053 86.2858
5.8252 85.5163
5.86988 86.3966
5.91455 88.3454
5.95924 93.5112
6.00392 157.795
6.0486 822.862
6.09328 4345.79
6.13795 3502.56
6.18263 248.761
6.22733 86.9304
6.27201 75.5373
6.3167 72.6634
6.36138 68.2853
6.40606 64.2179
6.45075 62.7811
6.49545 61.1622
6.54014 59.9737
6.58483 58.697
6.62952 57.7851
6.67421 58.1908
6.71892 64.2221
6.76361 56.4754
6.8083 54.146
6.853 53.8108
6.89769 53.0317
6.94239 52.6759
6.98711 52.0903
7.03181 51.826
7.07651 51.7256
7.12121 51.7744
7.16591 51.229
7.21063 50.8912
7.25533 51.383
7.30004 62.1062
7.34475 56.228
7.38945 51.6072
7.43416 51.012
7.47889 51.3323
7.5236 61.3585
7.56831 82.2379
7.61303 58.2451
7.65774 52.4041
7.70247 52.9329
7.74719 52.7011
7.79191 53.4421
7.83663 53.4522
7.88135 54.485
7.92607 55.2945
7.97081 56.5166
8.01553 57.1169
8.06026 58.3077
8.10498 59.7691
8.14971 61.7655
8.19446 63.1024
8.23919 64.8776
8.28392 67.498
8.32865 70.0452
8.37339 73.2525
8.41812 76.7604
8.46288 85.52
8.50761 125.093
8.55235 343.721
8.59709 1055.76
8.64183 2279.69
8.68658 1104.35
8.73134 182.222
8.77609 94.7077
8.82083 87.6182
8.86558 84.5463
8.91033 83.3824
8.9551 81.5396
8.99985 80.1512
9.04461 79.3802
9.08936 78.6312
9.13412 78.6004
9.17888 79.3507
9.22365 96.1747
9.26841 127.243
9.31318 93.7107
9.35794 79.597
9.4027 79.349
9.44749 79.7883
9.49226 80.1617
9.53703 80.9075
9.5818 82.4783
9.62657 83.3366
9.67134 85.4496
9.71614 86.7102
9.76091 88.2379
9.80569 90.3748
9.85047 92.8024
9.89525 97.6417
9.94005 105.042
9.98484 143.315
10.0296 323.446
10.0744 734.117
10.1192 1732.22
10.164 1697.11
10.2088 451.952
10.2536 126.743
10.2984 102.492
10.3432 99.9806
10.388 96.5887
10.4328 106.081
10.4776 153.194
10.5224 257.692
10.5672 490.928
10.612 528.248
10.6568 223.299
10.7017 107.961
10.7465 87.3333
10.7913 79.4709
10.8361 77.0874
10.8809 74.8529
10.9257 72.8171
10.9706 71.7633
11.0154 70.0013
11.0602 68.5113
11.105 67.5317
11.1499 66.4696
11.1947 66.8853
11.2395 65.2354
11.2844 64.0664
11.3292 62.7945
11.374 62.3645
11.4189 61.9827
11.4637 61.4245
11.5086 60.6516
11.5534 60.5403
11.5983 60.3743
11.6431 60.2547
11.688 59.4922
11.7328 59.2662
11.7777 59.2613
11.8225 59.2351
11.8674 59.2864
11.9122 62.2968
11.9571 71.0732
12.002 68.676
12.0468 63.8503
12.0917 74.6292
12.1366 95.4322
12.1814 143.241
12.2263 199.791
12.2712 171.615
12.3161 94.6465
12.3609 63.9076
12.4058 60.6929
12.4507 60.6774
12.4956 60.6664
12.5405 60.6716
12.5853 61.2126
12.6302 62.0108
12.6751 63.6192
12.72 63.3152
12.7649 64.0486
12.8098 64.3581
12.8547 65.8758
12.8996 67.0249
12.9445 68.3032
12.9894 69.9828
13.0343 71.6707
13.0792 76.3223
13.1242 81.9439
13.1691 104.297
13.214 140.111
13.2589 219.922
13.3038 358.413
13.3487 441.292
13.3937 278.964
13.4386 126.7
13.4835 97.5409
13.5285 115.853
13.5734 149.875
13.6183 229.765
13.6633 353.834
13.7082 362.142
13.7531 205.47
13.7981 99.5421
13.843 78.7522
13.888 76.0519
13.9329 73.8615
13.9779 72.7407
14.0228 71.2364
14.0678 70.0057
14.1127 71.9612
14.1577 77.3193
14.2027 75.0369
14.2476 68.9472
14.2926 67.2262
14.3376 66.7604
14.3825 66.2347
14.4275 65.5174
14.4725 65.4727
14.5175 65.5765
14.5624 65.5341
14.6074 66.0239
14.6524 66.338
14.6974 66.6133
14.7424 67.6595
14.7874 73.0502
14.8324 85.8132
14.8774 105.792
14.9224 144.177
14.9674 205.114
15.0124 225.632
15.0574 158.055
15.1024 93.8671
15.1474 70.5787
15.1924 67.3372
15.2374 65.934
15.2824 65.0806
15.3274 64.123
15.3725 63.5519
15.4175 63.3399
15.4625 62.8657
15.5076 62.4015
15.5526 62.5717
15.5976 62.5446
15.6426 63.2187
15.6877 67.6133
15.7327 77.0122
15.7778 90.7608
15.8228 119.035
15.8679 166.6
15.9129 201.618
15.958 168.022
16.003 102.957
16.0481 69.6663
16.0931 63.317
16.1382 59.7108
16.1833 57.8024
16.2283 56.3872
16.2734 55.5539
16.3185 55.0196
16.3636 54.6025
16.4086 53.9866
16.4537 53.2985
16.4988 53.1034
16.5439 52.9911
16.589 52.6405
16.6341 52.3017
16.6792 51.8416
16.7243 52.3673
16.7694 51.9802
16.8145 52.1766
16.8596 52.3145
16.9047 53.2482
16.9498 54.0483
16.9949 53.7137
17.04 53.2253
17.0851 54.0783
17.1302 56.1444
17.1754 59.0063
17.2205 63.5909
17.2656 71.3489
17.3108 81.4248
17.3559 81.9272
17.401 71.0338
17.4462 60.8218
17.4913 57.0473
17.5365 56.5286
17.5815 56.8983
17.6268 57.0564
17.6718 57.481
17.7171 58.2391
17.7622 59.5197
17.8074 60.4684
17.8525 61.1696
17.8977 65.2691
17.9428 71.3272
17.9881 79.3104
18.0331 95.1021
18.0784 118.36
18.1237 140.749
18.1688 136.914
18.214 108.632
18.2591 87.3637
18.3044 87.3552
18.3495 98.3826
18.3948 105.922
18.4399 97.8595
18.4852 78.3258
18.5303 65.2222
18.5756 61.0606
18.6207 59.668
18.666 58.4219
18.7112 57.3263
18.7565 56.6267
18.8016 56.5735
18.8469 55.7534
18.892 55.5783
18.9374 54.9308
18.9825 54.6851
19.0278 54.5926
19.073 54.5747
19.1183 54.5756
19.1635 55.5994
19.2088 57.0338
19.254 59.6959
19.2993 65.0227
19.3447 71.6952
19.3898 75.6129
19.4352 72.0088
19.4804 62.8204
19.5257 55.5797
19.5709 52.4032
19.6163 51.9269
19.6615 51.694
19.7068 51.377
19.752 51.319
19.7974 51.352
19.8426 52.0951
19.888 52.8255
19.9332 54.2997
19.9786 56.6535
20.0238 60.068
20.0692 65.7911
20.1144 69.7805
20.1598 68.5447
20.205 63.457
20.2504 60.9497
20.2957 62.7632
20.3411 64.8875
20.3863 64.0264
20.4318 58.0779
20.477 52.5745
20.5224 49.6003
20.5677 48.6312
20.6131 48.2858
20.6586 47.7025
20.7038 47.7008
20.7493 47.4881
20.7945 47.6188
20.84 47.3731
20.8853 47.1034
20.9307 46.8555
20.976 47.0216
21.0215 46.7968
21.0668 47.1159
21.1122 47.4999
21.1575 48.0406
21.203 48.9601
21.2483 49.8173
21.2938 50.2915
21.3391 48.6666
21.3846 47.4467
21.4299 46.8177
21.4754 46.76
21.5207 46.8072
21.5662 47.0179
21.6116 47.1934
21.6571 48.2894
21.7024 49.3181
21.7479 50.7571
21.7933 53.3968
21.8388 57.2555
21.8843 61.8689
21.9297 64.7017
21.9752 63.484
22.0206 59.3081
22.0661 55.8709
22.1115 55.4886
22.157 55.5779
22.2024 54.164
22.248 50.79
22.2933 48.6529
22.3389 47.5061
22.3843 47.1018
22.4299 46.9833
22.4753 46.9663
22.5208 46.9965
22.5662 46.9849
22.6118 47.0321
22.6572 47.1011
22.7028 47.7595
22.7483 48.4304
22.7939 49.1415
22.8393 50.4915
22.8849 52.7243
22.9303 55.2127
22.9759 57.3099
23.0214 57.1171
23.067 54.4264
23.1126 50.5444
23.1581 48.1833
23.2037 47.3269
23.2492 47.1928
23.2948 47.2799
23.3403 47.929
23.3859 48.6749
23.4314 49.8637
23.477 51.4613
23.5225 53.7666
23.5682 56.6721
23.6137 57.9253
23.6593 56.0618
23.7048 51.6638
23.7505 47.8512
23.796 45.5448
23.8417 44.9116
23.8872 44.187
23.9329 43.8379
23.9784 43.6298
24.0241 43.3495
24.0697 43.1659
24.1154 42.6903
24.1609 42.4043
24.2066 42.2685
24.2522 42.3371
24.2979 41.8539
24.3434 41.8614
24.3892 41.7054
24.4349 41.6764
24.4805 41.6487
24.5262 41.7208
24.5718 41.5815
24.6175 41.5818
24.6631 41.6716
24.7089 41.2493
24.7545 41.0854
24.8002 40.9091
24.8458 40.8482
24.8916 40.6952
24.9372 40.8477
24.983 41.2366
25.0286 41.522
25.0744 42.039
25.12 42.6742
25.1658 43.3205
25.2114 43.7364
25.2572 44.0746
25.3029 44.0907
25.3487 44.2897
25.3943 43.9612
25.4402 42.8498
25.4858 41.8462
25.5316 40.3822
25.5773 39.7217
25.6231 39.6145
25.669 39.3984
25.7147 39.3494
25.7605 39.268
25.8062 39.273
25.8521 39.5284
25.8977 39.3205
25.9436 39.6956
25.9893 39.7142
26.0352 40.3377
26.0809 40.5784
26.1268 40.8518
26.1725 40.5332
26.2184 39.9103
26.2641 39.35
26.31 38.9552
26.3557 38.9712
26.4017 38.9537
26.4474 39.2808
26.4933 39.6485
26.5391 40.0935
26.585 40.8253
26.6308 41.3397
26.6767 41.4728
26.7225 41.3557
26.7684 40.7504
26.8142 40.1865
26.8601 39.6513
26.9059 39.306
26.9519 38.7196
26.9979 38.3533
27.0437 37.8823
27.0896 37.7477
27.1354 37.7188
27.1814 37.6804
27.2272 37.454
27.2732 37.4525
27.3191 37.2174
27.3651 37.4783
27.4109 37.353
27.4569 37.6016
27.5027 37.6693
27.5488 37.781
27.5946 37.608
27.6407 37.3071
27.6865 37.0978
27.7326 36.9068
27.7784 36.8977
27.8245 36.8099
27.8703 36.9373
27.9164 37.4277
27.9623 37.5902
28.0084 38.085
28.0543 38.6572
28.1003 38.4921
28.1462 38.2464
28.1923 37.9614
28.2384 37.368
28.2843 36.979
28.3304 36.2866
28.3764 35.9838
28.4225 35.4845
28.4684 35.3169
28.5145 34.9613
28.5605 35.0217
28.6066 34.6886
28.6526 34.6709
28.6987 34.6579
28.7447 34.6115
28.7908 34.4804
28.8368 34.4414
28.8829 34.4444
28.9289 34.3673
28.9751 34.2665
29.0211 34.0694
29.0673 33.7597
29.1133 33.6835
29.1595 33.4455
29.2055 33.375
29.2517 33.3176
29.2977 33.3852
29.3439 33.3619
29.3899 33.3346
29.4361 33.308
29.4824 33.1004
29.5284 32.9261
29.5746 32.5161
29.6207 32.2454
29.6669 32.1021
29.713 32.1345
29.7593 31.859
29.8053 31.8987
29.8516 31.8637
29.8977 31.9143
29.9439 31.779
29.99 31.6919
30.0363 31.5963
30.0824 31.6472
30.1287 31.5064
30.1748 31.6366
30.2211 31.5824
30.2673 31.4111
30.3136 31.4447
30.3597 31.4397
30.406 31.372
30.4522 31.2593
30.4985 31.1631
30.5447 31.3952
30.591 31.3154
30.6372 31.4186
30.6835 31.4696
30.7297 31.4475
30.7761 31.499
30.8224 31.2034
30.8686 31.1486
30.915 30.8731
30.9612 30.778
31.0076 30.5908
31.0538 30.3942
31.1002 30.4728
31.1464 30.1249
31.1928 30.0918
31.2391 30.2665
31.2855 30.0921
31.3317 30.0829
31.3781 30.2396
31.4244 30.2102
31.4708 30.1114
31.5171 30.1177
31.5636 30.1491
31.6098 29.9114
31.6563 29.6548
31.7026 29.4556
31.7491 29.3983
31.7953 29.3991
31.8418 29.3915
31.8881 29.5073
31.9346 29.4211
31.9809 29.4449
32.0275 29.305
32.074 29.0843
32.1203 28.9954
32.1668 28.8589
32.2132 28.6841
32.2597 28.5027
32.306 28.5458
32.3526 28.2308
32.399 28.1949
32.4455 28.0404
32.4919 28.0212
32.5385 27.9761
32.5848 27.8366
32.6314 27.7122
32.6778 27.6858
32.7244 27.6448
32.7708 27.5391
32.8174 27.4569
32.8638 27.3619
32.9104 27.4026
32.9569 27.2146
33.0035 27.1767
33.0499 27.2193
33.0966 27.1732
33.143 27.1401
33.1897 27.0657
33.2361 26.972
33.2828 26.9771
33.3293 26.8604
33.3759 26.7678
33.4226 26.5483
33.4691 26.4725
33.5158 26.42
33.5623 26.2531
33.609 26.065
33.6555 26.0601
33.7022 25.9407
33.7487 25.8157
33.7954 25.8685
33.842 25.7379
33.8887 25.7179
33.9353 25.5932
33.982 25.502
34.0286 25.37
34.0753 25.3013
34.1219 25.3286
34.1687 25.1616
34.2152 25.1591
34.262 25.0054
34.3086 24.9705
34.3554 24.87
34.402 24.7806
34.4488 24.7402
34.4954 24.5677
34.5422 24.4965
34.5889 24.3644
34.6357 24.3337
34.6825 24.3069
34.7292 24.178
34.776 24.1026
34.8227 24.0345
34.8695 24.0307
34.9162 23.9297
34.9631 23.913
35.0098 23.8096
35.0566 23.7405
35.1033 23.727
35.1502 23.6589
35.1969 23.6603
35.2438 23.5299
35.2906 23.5617
35.3375 23.4147
35.3842 23.4747
35.4311 23.425
35.4779 23.4353
35.5248 23.3586
35.5716 23.2344
35.6185 23.1836
35.6653 23.0389
35.7123 22.9498
35.759 22.9422
35.806 22.8124
35.8528 22.6872
35.8998 22.6736
35.9468 22.5567
35.9936 22.5869
36.0406 22.4757
36.0874 22.4448
36.1345 22.4006
36.1813 22.2368
36.2283 22.152
36.2752 22.0623
36.3222 22.1289
36.3691 22.0563
36.4161 21.9104
36.463 21.9022
36.5101 21.8859
36.557 21.7826
36.6041 21.6738
36.651 21.6325
36.6981 21.5778
36.745 21.4374
36.7921 21.4683
36.839 21.3054
36.8861 21.2954
36.9331 21.1892
36.9802 21.1481
37.0272 21.0761
37.0743 20.9869
37.1213 20.9773
37.1684 20.8129
37.2154 20.8078
37.2626 20.751
37.3098 20.6648
37.3568 20.5975
37.404 20.5593
37.451 20.4613
37.4982 20.4223
37.5452 20.3047
37.5924 20.2632
37.6395 20.2449
37.6867 20.1686
37.7337 20.0523
37.781 20.0486
37.8281 19.995
37.8753 19.7909
37.9224 19.9132
37.9697 19.7858
38.0168 19.6829
38.064 19.6431
38.1111 19.561
38.1584 19.5493
38.2056 19.46
38.2529 19.4161
38.3 19.3178
38.3473 19.2886
38.3945 19.1485
38.4418 19.1679
38.489 19.1132
38.5363 19.0838
38.5837 19.0301
38.6309 18.9121
38.6782 18.8858
38.7254 18.7434
38.7728 18.686
38.82 18.6489
38.8674 18.6246
38.9146 18.5789
38.9621 18.4521
39.0093 18.438
39.0567 18.4004
39.104 18.3516
39.1514 18.2219
39.1987 18.2505
39.2461 18.143
39.2934 18.0866
39.3409 17.9758
39.3882 17.9625
39.4356 17.9272
39.483 17.8642
39.5304 17.7594
39.5778 17.787
39.6253 17.6677
39.6726 17.5993
39.7201 17.6367
39.7675 17.5478
39.815 17.532
39.8624 17.4284
39.9099 17.3974
39.9575 17.2342
40.0049 17.2204
40.0525 17.1348
40.0999 17.1626
40.1474 17.0795
40.1949 17.0371
40.2425 16.9402
40.2899 16.9446
40.3375 16.8788
40.385 16.8402
40.4326 16.7254
40.48 16.6508
40.5277 16.6789
40.5752 16.6284
40.6228 16.4988
40.6703 16.4957
40.718 16.4655
40.7655 16.436
40.8132 16.3453
40.8607 16.3684
40.9084 16.2645
40.9559 16.2152
41.0036 16.1454
41.0512 16.1022
41.0989 16.0456
41.1465 15.9512
41.1942 15.9968
41.242 15.87
41.2896 15.8663
41.3373 15.7838
41.3849 15.7279
41.4327 15.7226
41.4803 15.6447
41.5281 15.4924
41.5758 15.4626
41.6236 15.4577
41.6712 15.3724
41.7191 15.2854
41.7667 15.2715
41.8146 15.3095
41.8622 15.1657
41.9101 15.1224
41.9578 15.088
42.0057 15.0599
42.0534 14.9732
42.1013 14.9657
42.149 14.842
42.1969 14.8306
42.2446 14.7792
42.2925 14.7542
42.3403 14.7128
42.3882 14.69
42.436 14.595
42.4839 14.5609
42.5319 14.5267
42.5797 14.4192
42.6277 14.3756
42.6755 14.3358
42.7235 14.2676
42.7713 14.2533
42.8193 14.1739
42.8671 14.1404
42.9152 14.0925
42.963 14.0395
43.0111 14.0183
43.0589 13.9715
43.107 13.8661
43.1549 13.8343
43.2029 13.8075
43.2508 13.7982
43.2989 13.7441
43.3468 13.693
43.3949 13.6567
43.4429 13.5471
43.491 13.5726
43.5389 13.5355
43.5871 13.4512
43.635 13.4414
43.6832 13.3965
43.7312 13.2662
43.7793 13.2412
43.8273 13.2251
43.8755 13.1565
43.9237 13.1414
43.9717 13.0417
44.0199 13.0508
44.068 13.0286
44.1162 12.9354
44.1642 12.9138
44.2125 12.8422
44.2606 12.7959
44.3088 12.7022
44.3569 12.6997
44.4052 12.7099
44.4533 12.624
44.5016 12.5954
44.5497 12.5249
44.598 12.492
44.6461 12.4343
44.6945 12.429
44.7426 12.362
44.791 12.3082
44.8391 12.2769
44.8875 12.2237
44.9357 12.1963
44.984 12.1289
45.0322 12.1173
45.0806 12.0629
45.1288 12.02
45.1773 11.9734
45.2257 11.967
45.2739 11.8707
45.3224 11.8807
45.3706 11.8342
45.4191 11.7614
45.4673 11.7412
45.5158 11.7366
45.5641 11.6261
45.6126 11.6161
45.6609 11.5627
45.7094 11.4854
45.7577 11.4873
45.8063 11.4456
45.8546 11.428
45.9031 11.3968
45.9515 11.3367
46.0001 11.245
46.0484 11.2624
46.097 11.2057
46.1454 11.157
46.194 11.1245
46.2424 11.0893
46.291 11.0587
46.3395 10.9876
46.3881 10.9742
46.4365 10.9466
46.4852 10.8513
46.5337 10.8244
46.5823 10.8269
46.631 10.7432
46.6795 10.6892
46.7282 10.6559
46.7767 10.6117
46.8254 10.5846
46.8739 10.5212
46.9226 10.5348
46.9712 10.4551
47.0199 10.4459
47.0685 10.4185
47.1173 10.3599
47.1658 10.3259
47.2146 10.2813
47.2632 10.2265
47.312 10.2017
47.3606 10.1723
47.4095 10.1283
47.4581 10.0874
47.5069 10.0838
47.5556 10.039
47.6044 9.94109
47.6531 9.9549
47.702 9.88685
47.7507 9.88217
47.7996 9.82123
47.8483 9.82749
47.8972 9.78399
47.9461 9.69973
47.9948 9.70128
48.0438 9.67728
48.0925 9.64581
48.1415 9.58383
48.1902 9.55249
48.2392 9.56027
48.288 9.51005
48.337 9.49574
48.3858 9.44083
48.4348 9.39652
48.4837 9.37375
48.5327 9.3769
48.5815 9.30981
48.6306 9.28338
48.6795 9.26472
48.7285 9.16222
48.7774 9.11368
48.8265 9.13584
48.8754 9.09201
48.9245 9.06464
48.9734 9.04094
49.0226 9.0051
49.0715 8.94579
49.1206 8.92343
49.1696 8.89728
49.2188 8.85032
49.2679 8.81458
49.3169 8.78951
49.3661 8.75841
49.4151 8.72526
49.4643 8.671
49.5134 8.6268
49.5626 8.6029
49.6117 8.56145
49.6609 8.55304
49.71 8.49292
49.7592 8.49034
49.8083 8.45084
49.8576 8.42763
49.9067 8.37245
49.956 8.35493
50.0052 8.33116
50.0545 8.30023
50.1036 8.25179
50.153 8.23008
50.2022 8.22213
50.2515 8.19366
50.3007 8.13639
50.3501 8.11973
50.3993 8.06871
50.4487 8.02708
50.498 8.03872
50.5474 7.98231
50.5966 7.92539
50.6461 7.90568
50.6955 7.88823
50.7448 7.86765
50.7943 7.82
50.8436 7.79477
50.8931 7.75318
50.9424 7.75213
50.9919 7.71728
51.0413 7.68579
51.0908 7.64348
51.1402 7.63961
51.1897 7.59214
51.2391 7.52279
51.2887 7.53029
51.3381 7.46969
51.3877 7.49292
51.4371 7.42572
51.4867 7.37871
51.5362 7.38621
51.5858 7.33137
51.6353 7.32155
51.6849 7.30724
51.7344 7.25362
51.7841 7.24159
51.8336 7.19315
51.8833 7.16278
51.9328 7.12747
51.9826 7.07519
52.0323 7.06115
52.0818 7.04527
52.1316 7.02225
52.1812 6.99729
52.231 6.97835
52.2806 6.93926
52.3304 6.9372
52.38 6.82747
52.4298 6.83665
52.4794 6.84521
52.5293 6.80655
52.5789 6.77284
52.6288 6.7441
52.6785 6.68713
52.7284 6.6635
52.7781 6.66879
52.828 6.5818
52.8777 6.56258
52.9276 6.53522
52.9774 6.51091
53.0273 6.50468
53.0771 6.48986
53.1271 6.45943
53.1769 6.40747
53.2269 6.38128
53.2767 6.37123
53.3267 6.31826
53.3765 6.36813
53.4266 6.30295
53.4766 6.27431
53.5265 6.23598
53.5765 6.21361
53.6264 6.17213
53.6765 6.15545
53.7264 6.14329
53.7765 6.08771
53.8265 6.05634
53.8766 6.01616
53.9266 6.00128
53.9767 5.95852
54.0267 6.0024
54.0769 5.94166
54.1269 5.88099
54.1771 5.87824
54.2271 5.85919
54.2773 5.81657
54.3274 5.79939
54.3776 5.75577
54.4277 5.74442
54.478 5.704
54.528 5.65467
54.5783 5.60609
54.6285 5.59965
54.6788 5.56318
54.7289 5.54382
54.7792 5.45794
54.8296 5.42717
54.8798 5.3631
54.9301 5.35514
54.9803 5.32704
55.0307 5.27537
55.0809 5.26827
55.1314 5.21172
55.1816 5.11099
55.232 5.09627
55.2823 5.09665
55.3328 5.00662
55.383 4.97831
55.4335 4.95325
55.4838 4.87352
55.5344 4.86805
55.5847 4.82554
55.6352 4.76816
55.6856 4.80132
55.7361 4.72582