File: XRD/Ni3Fe_FD0760.xy
TT I
1.27165 7.28261
1.31627 6.73993
1.36089 6.58799
1.40551 6.58854
1.45013 6.37456
1.49476 5.89859
1.53938 5.55526
1.584 5.10397
1.62863 5.27501
1.67325 5.25051
1.71787 5.74175
1.7625 4.78668
1.80712 4.96406
1.85174 4.88361
1.89636 4.77952
1.94099 4.48505
1.98562 4.5043
2.03025 5.1714
2.07487 4.63588
2.11949 4.60179
2.16411 5.60855
2.20874 16.2263
2.25338 27.4086
2.298 6.23318
2.34263 5.2625
2.38725 6.18875
2.43188 6.03737
2.4765 6.43744
2.52115 6.74793
2.56577 7.9393
2.6104 8.53459
2.65503 8.34908
2.69965 8.42821
2.7443 8.89944
2.78893 8.28723
2.83356 8.64398
2.87818 8.87547
2.92281 9.35013
2.96744 9.82514
3.01209 10.8804
3.05672 11.0012
3.10135 11.979
3.14599 13.1673
3.19062 14.4315
3.23527 15.3421
3.2799 15.73
3.32454 17.0285
3.36917 18.1641
3.4138 19.0921
3.45844 19.7485
3.50309 20.826
3.54773 22.2595
3.59237 24.2187
3.637 107.908
3.68164 67.543
3.7263 26.3188
3.77094 26.1423
3.81558 27.1248
3.86022 27.9467
3.90486 29.0535
3.9495 29.8927
3.99416 31.0707
4.0388 31.8739
4.08344 33.9569
4.12809 34.8528
4.17273 37.418
4.21738 43.6402
4.26204 287.976
4.30669 260.388
4.35133 50.2356
4.39598 44.8458
4.44063 55.9793
4.4853 70.0629
4.52995 50.5519
4.5746 50.8462
4.61925 52.7936
4.6639 54.8364
4.70855 57.2347
4.75322 60.5448
4.79788 63.1104
4.84253 66.7202
4.88719 70.2329
4.93184 74.3727
4.97652 79.3974
5.02118 85.8043
5.06583 92.2387
5.11049 102.9
5.15515 177.835
5.19981 304.701
5.24449 2464.22
5.28916 12939.9
5.33382 3014.51
5.37848 188.242
5.42315 127.513
5.46783 112.387
5.5125 105.065
5.55716 100.854
5.60183 97.8688
5.6465 95.76
5.69117 93.1769
5.73586 90.9385
5.78053 90.0317
5.8252 89.2547
5.86988 90.4634
5.91455 91.6956
5.95924 98.1064
6.00392 179.26
6.0486 837.674
6.09328 4320.7
6.13795 3225.86
6.18263 243.204
6.22733 92.6954
6.27201 82.666
6.3167 107.465
6.36138 82.3899
6.40606 68.7755
6.45075 67.1214
6.49545 65.1538
6.54014 63.6322
6.58483 62.6618
6.62952 63.0168
6.67421 99.4598
6.71892 162.391
6.76361 71.4548
6.8083 58.5395
6.853 57.409
6.89769 56.875
6.94239 56.3765
6.98711 55.4286
7.03181 55.823
7.07651 55.1532
7.12121 55.2375
7.16591 55.5301
7.21063 55.5153
7.25533 73.501
7.30004 207.636
7.34475 100.575
7.38945 56.9243
7.43416 54.8491
7.47889 54.3725
7.5236 54.8438
7.56831 55.1447
7.61303 57.4713
7.65774 57.8309
7.70247 55.8929
7.74719 55.8582
7.79191 56.4425
7.83663 56.6703
7.88135 57.7774
7.92607 58.2558
7.97081 59.6416
8.01553 60.3719
8.06026 61.8291
8.10498 63.4631
8.14971 74.4947
8.19446 73.0267
8.23919 68.812
8.28392 71.135
8.32865 72.9774
8.37339 77.2537
8.41812 84.0495
8.46288 116.857
8.50761 150.339
8.55235 346.137
8.59709 1095.22
8.64183 2165.34
8.68658 1032.72
8.73134 169.161
8.77609 98.8258
8.82083 92.1339
8.86558 89.244
8.91033 89.4637
8.9551 92.1852
8.99985 85.1228
9.04461 83.2564
9.08936 81.8788
9.13412 81.1243
9.17888 81.3813
9.22365 82.3091
9.26841 81.2635
9.31318 81.7417
9.35794 81.7618
9.4027 82.4168
9.44749 83.1955
9.49226 83.8331
9.53703 84.5321
9.5818 86.4682
9.62657 91.5739
9.67134 99.5421
9.71614 93.1724
9.76091 93.1968
9.80569 95.5023
9.85047 98.6079
9.89525 126.562
9.94005 139.553
9.98484 159.813
10.0296 304.031
10.0744 753.284
10.1192 1749.96
10.164 1635.65
10.2088 407.644
10.2536 127.111
10.2984 113.391
10.3432 116.434
10.388 103.98
10.4328 112.568
10.4776 150.088
10.5224 268.745
10.5672 512.61
10.612 518.792
10.6568 212.101
10.7017 96.7978
10.7465 86.1034
10.7913 82.441
10.8361 80.5783
10.8809 78.4399
10.9257 78.158
10.9706 79.2621
11.0154 74.6419
11.0602 72.2779
11.105 71.3754
11.1499 77.1162
11.1947 86.3852
11.2395 75.3583
11.2844 70.9109
11.3292 66.7885
11.374 65.7968
11.4189 65.1253
11.4637 64.4979
11.5086 65.4006
11.5534 68.816
11.5983 65.7398
11.6431 63.4713
11.688 62.5897
11.7328 62.5543
11.7777 62.6603
11.8225 62.2486
11.8674 61.9502
11.9122 62.3294
11.9571 62.2536
12.002 63.2008
12.0468 66.0768
12.0917 76.2154
12.1366 98.6165
12.1814 147.217
12.2263 208.482
12.2712 173.452
12.3161 101.273
12.3609 71.6003
12.4058 64.5718
12.4507 63.9912
12.4956 64.1555
12.5405 63.99
12.5853 65.1942
12.6302 74.2902
12.6751 81.0854
12.72 70.2794
12.7649 67.5317
12.8098 67.9366
12.8547 69.1428
12.8996 70.3576
12.9445 71.4682
12.9894 73.0561
13.0343 74.8735
13.0792 77.9786
13.1242 84.9624
13.1691 106.305
13.214 139.653
13.2589 225.651
13.3038 366.655
13.3487 432.106
13.3937 273.214
13.4386 126.96
13.4835 102.505
13.5285 114.476
13.5734 149.394
13.6183 238.192
13.6633 347.211
13.7082 346.481
13.7531 190.729
13.7981 98.5709
13.843 81.0933
13.888 78.8828
13.9329 76.4047
13.9779 75.2349
14.0228 73.8082
14.0678 72.3476
14.1127 72.0069
14.1577 72.2302
14.2027 71.1629
14.2476 69.8547
14.2926 70.1843
14.3376 71.4312
14.3825 70.0604
14.4275 68.1813
14.4725 68.1835
14.5175 68.3963
14.5624 68.4884
14.6074 71.0988
14.6524 71.5136
14.6974 69.9027
14.7424 70.7745
14.7874 76.2668
14.8324 85.5773
14.8774 105.409
14.9224 147.4
14.9674 204.379
15.0124 221.733
15.0574 152.375
15.1024 92.2755
15.1474 72.2565
15.1924 70.0876
15.2374 71.2549
15.2824 70.3145
15.3274 68.0273
15.3725 66.2531
15.4175 66.0678
15.4625 65.6913
15.5076 65.9187
15.5526 65.8755
15.5976 65.0737
15.6426 65.763
15.6877 70.0355
15.7327 76.9709
15.7778 91.1319
15.8228 121.495
15.8679 165.958
15.9129 194.259
15.958 158.795
16.003 99.2425
16.0481 68.9679
16.0931 64.8626
16.1382 62.7908
16.1833 60.3399
16.2283 58.8039
16.2734 58.1836
16.3185 58.5647
16.3636 59.5015
16.4086 57.9546
16.4537 55.9326
16.4988 55.1732
16.5439 55.0414
16.589 54.8306
16.6341 54.5191
16.6792 54.106
16.7243 54.5044
16.7694 54.4914
16.8145 54.5606
16.8596 55.0933
16.9047 56.7524
16.9498 56.9584
16.9949 55.5455
17.04 55.2659
17.0851 56.3834
17.1302 57.7749
17.1754 60.8313
17.2205 65.708
17.2656 73.3424
17.3108 83.0534
17.3559 82.6188
17.401 71.0502
17.4462 61.946
17.4913 58.7293
17.5365 58.6827
17.5815 58.6098
17.6268 58.9838
17.6718 59.9485
17.7171 60.5054
17.7622 60.6534
17.8074 61.1163
17.8525 62.9481
17.8977 66.9369
17.9428 71.9822
17.9881 80.1143
18.0331 96.4807
18.0784 119.199
18.1237 138.861
18.1688 131.51
18.214 103.828
18.2591 85.7354
18.3044 88.9709
18.3495 98.8597
18.3948 105.723
18.4399 96.986
18.4852 78.2189
18.5303 65.9009
18.5756 61.9657
18.6207 60.9403
18.666 60.0414
18.7112 59.4922
18.7565 58.6285
18.8016 58.0025
18.8469 57.6679
18.892 57.3353
18.9374 56.7948
18.9825 56.5913
19.0278 56.5838
19.073 56.479
19.1183 56.9827
19.1635 57.6472
19.2088 58.7995
19.254 60.93
19.2993 65.4328
19.3447 72.3984
19.3898 76.9452
19.4352 72.8442
19.4804 63.2953
19.5257 56.6598
19.5709 53.8087
19.6163 53.6375
19.6615 53.5117
19.7068 52.7251
19.752 52.8597
19.7974 53.1108
19.8426 53.8149
19.888 54.472
19.9332 55.5146
19.9786 57.9396
20.0238 61.3759
20.0692 66.601
20.1144 69.2679
20.1598 67.8239
20.205 62.8215
20.2504 61.571
20.2957 63.5245
20.3411 65.7145
20.3863 64.1508
20.4318 58.428
20.477 53.5385
20.5224 51.4895
20.5677 50.8588
20.6131 50.0447
20.6586 49.3205
20.7038 49.329
20.7493 48.6893
20.7945 48.8078
20.84 48.4944
20.8853 48.2041
20.9307 48.2465
20.976 48.2753
21.0215 48.1665
21.0668 48.6134
21.1122 48.8844
21.1575 49.7784
21.203 50.5564
21.2483 51.1316
21.2938 50.8733
21.3391 49.7689
21.3846 48.6961
21.4299 48.013
21.4754 47.7986
21.5207 48.0649
21.5662 48.3576
21.6116 48.7264
21.6571 49.3767
21.7024 50.1274
21.7479 51.7414
21.7933 54.4598
21.8388 58.3789
21.8843 61.9206
21.9297 64.2889
21.9752 63.0334
22.0206 59.225
22.0661 56.2531
22.1115 55.7892
22.157 55.5474
22.2024 54.0691
22.248 51.2269
22.2933 49.7097
22.3389 48.7094
22.3843 48.8031
22.4299 48.6439
22.4753 48.6085
22.5208 48.188
22.5662 47.9904
22.6118 48.329
22.6572 48.3765
22.7028 48.6588
22.7483 48.9442
22.7939 49.7298
22.8393 51.185
22.8849 53.4665
22.9303 55.4796
22.9759 57.4016
23.0214 57.3076
23.067 54.3823
23.1126 51.0069
23.1581 49.0544
23.2037 48.357
23.2492 48.4353
23.2948 48.4371
23.3403 48.7164
23.3859 49.1215
23.4314 50.1918
23.477 51.9511
23.5225 54.1377
23.5682 56.5654
23.6137 57.7918
23.6593 55.6293
23.7048 51.547
23.7505 48.1054
23.796 46.312
23.8417 45.6958
23.8872 45.168
23.9329 44.8588
23.9784 44.592
24.0241 44.3569
24.0697 44.0988
24.1154 43.7858
24.1609 43.7388
24.2066 43.5313
24.2522 43.4463
24.2979 43.2064
24.3434 42.9817
24.3892 42.7183
24.4349 42.8853
24.4805 42.5763
24.5262 42.7727
24.5718 42.6086
24.6175 42.6534
24.6631 42.6292
24.7089 42.2712
24.7545 42.2073
24.8002 41.9887
24.8458 42.0502
24.8916 41.7307
24.9372 41.8148
24.983 42.1232
25.0286 42.4301
25.0744 43.0295
25.12 43.3553
25.1658 43.8932
25.2114 44.3765
25.2572 44.4792
25.3029 44.5469
25.3487 44.6435
25.3943 44.4546
25.4402 43.5028
25.4858 42.3829
25.5316 41.2863
25.5773 40.5714
25.6231 40.6189
25.669 40.159
25.7147 40.1723
25.7605 40.1355
25.8062 40.2084
25.8521 40.3452
25.8977 40.3634
25.9436 40.6917
25.9893 40.6853
26.0352 41.1251
26.0809 41.1008
26.1268 41.4048
26.1725 41.1419
26.2184 40.5508
26.2641 40.0837
26.31 39.8759
26.3557 39.8895
26.4017 39.7531
26.4474 40.3018
26.4933 40.347
26.5391 40.9115
26.585 41.3486
26.6308 41.728
26.6767 41.8668
26.7225 41.8274
26.7684 41.173
26.8142 40.6732
26.8601 40.143
26.9059 39.9421
26.9519 39.2569
26.9979 38.9631
27.0437 38.736
27.0896 38.4698
27.1354 38.4448
27.1814 38.3952
27.2272 38.1987
27.2732 38.355
27.3191 37.9944
27.3651 38.079
27.4109 38.1843
27.4569 38.2921
27.5027 38.2867
27.5488 38.3864
27.5946 38.148
27.6407 37.7583
27.6865 37.9032
27.7326 37.5911
27.7784 37.6799
27.8245 37.6108
27.8703 37.6893
27.9164 37.9641
27.9623 38.142
28.0084 38.4762
28.0543 38.7684
28.1003 38.6347
28.1462 38.6333
28.1923 38.1782
28.2384 37.7455
28.2843 37.4167
28.3304 36.9879
28.3764 36.5489
28.4225 36.322
28.4684 36.0134
28.5145 35.698
28.5605 35.7017
28.6066 35.4785
28.6526 35.4631
28.6987 35.5023
28.7447 35.2645
28.7908 35.2218
28.8368 35.1305
28.8829 35.216
28.9289 35.0467
28.9751 35.0462
29.0211 34.7507
29.0673 34.417
29.1133 34.4322
29.1595 34.1822
29.2055 34.1426
29.2517 34.1575
29.2977 34.0949
29.3439 34.0544
29.3899 34.1377
29.4361 33.9591
29.4824 33.7963
29.5284 33.5575
29.5746 33.349
29.6207 33.0436
29.6669 32.8138
29.713 32.8481
29.7593 32.6274
29.8053 32.7753
29.8516 32.5642
29.8977 32.6164
29.9439 32.3652
29.99 32.4632
30.0363 32.2921
30.0824 32.3499
30.1287 32.1584
30.1748 32.3148
30.2211 32.1538
30.2673 32.0735
30.3136 32.1524
30.3597 32.1077
30.406 31.9696
30.4522 31.923
30.4985 31.913
30.5447 31.9563
30.591 32.012
30.6372 31.966
30.6835 32.0489
30.7297 32.0276
30.7761 31.9743
30.8224 31.8662
30.8686 31.6854
30.915 31.497
30.9612 31.3671
31.0076 31.0676
31.0538 30.8968
31.1002 30.9102
31.1464 30.77
31.1928 30.8562
31.2391 30.9081
31.2855 30.6134
31.3317 30.7293
31.3781 30.7438
31.4244 30.7132
31.4708 30.6449
31.5171 30.7419
31.5636 30.6124
31.6098 30.3285
31.6563 30.0707
31.7026 30.1633
31.7491 29.9235
31.7953 29.9937
31.8418 29.9705
31.8881 30.0067
31.9346 29.8896
31.9809 29.9153
32.0275 29.8088
32.074 29.5604
32.1203 29.4386
32.1668 29.2932
32.2132 29.142
32.2597 29.163
32.306 28.922
32.3526 28.8193
32.399 28.8259
32.4455 28.5998
32.4919 28.5451
32.5385 28.5171
32.5848 28.3267
32.6314 28.2888
32.6778 28.155
32.7244 28.1714
32.7708 27.992
32.8174 28.0198
32.8638 27.8252
32.9104 27.812
32.9569 27.8107
33.0035 27.653
33.0499 27.7975
33.0966 27.6958
33.143 27.5698
33.1897 27.4848
33.2361 27.4524
33.2828 27.4146
33.3293 27.2713
33.3759 27.209
33.4226 27.009
33.4691 26.9418
33.5158 26.7933
33.5623 26.7268
33.609 26.6132
33.6555 26.5789
33.7022 26.4218
33.7487 26.3828
33.7954 26.3587
33.842 26.2713
33.8887 26.2398
33.9353 26.0395
33.982 25.983
34.0286 25.9552
34.0753 25.862
34.1219 25.8433
34.1687 25.6514
34.2152 25.6484
34.262 25.5286
34.3086 25.465
34.3554 25.3458
34.402 25.2946
34.4488 25.2393
34.4954 25.0666
34.5422 25.0153
34.5889 24.9455
34.6357 24.7922
34.6825 24.7615
34.7292 24.6614
34.776 24.6352
34.8227 24.5639
34.8695 24.4571
34.9162 24.4327
34.9631 24.3208
35.0098 24.3368
35.0566 24.2479
35.1033 24.1537
35.1502 24.1737
35.1969 24.038
35.2438 24.049
35.2906 23.9804
35.3375 23.9216
35.3842 23.8783
35.4311 23.8257
35.4779 23.8023
35.5248 23.7634
35.5716 23.5957
35.6185 23.5779
35.6653 23.513
35.7123 23.4057
35.759 23.3212
35.806 23.2029
35.8528 23.1452
35.8998 23.0768
35.9468 22.9382
35.9936 23.0436
36.0406 22.9233
36.0874 22.8522
36.1345 22.7829
36.1813 22.7143
36.2283 22.6426
36.2752 22.5159
36.3222 22.5259
36.3691 22.4346
36.4161 22.3946
36.463 22.2562
36.5101 22.3179
36.557 22.2299
36.6041 22.0827
36.651 22.0652
36.6981 21.955
36.745 22.0122
36.7921 21.8764
36.839 21.7896
36.8861 21.7299
36.9331 21.6087
36.9802 21.6339
37.0272 21.5356
37.0743 21.4192
37.1213 21.406
37.1684 21.2931
37.2154 21.2347
37.2626 21.1286
37.3098 21.0368
37.3568 21.0457
37.404 21.0103
37.451 20.8899
37.4982 20.8169
37.5452 20.7174
37.5924 20.6917
37.6395 20.7078
37.6867 20.5881
37.7337 20.4954
37.781 20.4296
37.8281 20.4318
37.8753 20.2651
37.9224 20.242
37.9697 20.1614
38.0168 20.2339
38.064 20.135
38.1111 19.9908
38.1584 19.9162
38.2056 19.8644
38.2529 19.8599
38.3 19.7028
38.3473 19.7655
38.3945 19.5927
38.4418 19.5491
38.489 19.5748
38.5363 19.395
38.5837 19.3604
38.6309 19.3737
38.6782 19.2371
38.7254 19.1402
38.7728 19.1478
38.82 18.979
38.8674 18.9728
38.9146 18.9515
38.9621 18.9162
39.0093 18.8396
39.0567 18.784
39.104 18.7493
39.1514 18.6154
39.1987 18.6665
39.2461 18.5513
39.2934 18.4201
39.3409 18.4139
39.3882 18.3205
39.4356 18.2368
39.483 18.1839
39.5304 18.1596
39.5778 18.1286
39.6253 18.0272
39.6726 17.9559
39.7201 17.9401
39.7675 17.8633
39.815 17.8987
39.8624 17.7489
39.9099 17.7358
39.9575 17.6159
40.0049 17.6432
40.0525 17.5031
40.0999 17.4844
40.1474 17.4357
40.1949 17.3775
40.2425 17.2477
40.2899 17.2823
40.3375 17.1977
40.385 17.1674
40.4326 17.0791
40.48 17.0472
40.5277 17.0596
40.5752 16.9322
40.6228 16.912
40.6703 16.8306
40.718 16.7362
40.7655 16.6945
40.8132 16.6997
40.8607 16.59
40.9084 16.5989
40.9559 16.4885
41.0036 16.5485
41.0512 16.4394
41.0989 16.4125
41.1465 16.3222
41.1942 16.3605
41.242 16.1702
41.2896 16.1737
41.3373 16.0225
41.3849 16.0653
41.4327 15.9968
41.4803 15.87
41.5281 15.8735
41.5758 15.8358
41.6236 15.7289
41.6712 15.7015
41.7191 15.6247
41.7667 15.6368
41.8146 15.5805
41.8622 15.5124
41.9101 15.4854
41.9578 15.369
42.0057 15.3625
42.0534 15.3145
42.1013 15.258
42.149 15.1717
42.1969 15.1307
42.2446 15.1005
42.2925 15.0882
42.3403 15.005
42.3882 15.0036
42.436 14.8978
42.4839 14.7838
42.5319 14.8178
42.5797 14.745
42.6277 14.6991
42.6755 14.6805
42.7235 14.6129
42.7713 14.5885
42.8193 14.504
42.8671 14.4105
42.9152 14.426
42.963 14.3943
43.0111 14.2644
43.0589 14.2679
43.107 14.2212
43.1549 14.139
43.2029 14.1166
43.2508 14.0828
43.2989 14.0059
43.3468 13.9376
43.3949 13.9305
43.4429 13.8794
43.491 13.8286
43.5389 13.7737
43.5871 13.7447
43.635 13.7373
43.6832 13.6133
43.7312 13.5629
43.7793 13.5261
43.8273 13.4988
43.8755 13.4525
43.9237 13.4101
43.9717 13.3818
44.0199 13.3269
44.068 13.2601
44.1162 13.1744
44.1642 13.199
44.2125 13.1639
44.2606 13.0723
44.3088 13.0006
44.3569 12.974
44.4052 12.9318
44.4533 12.9031
44.5016 12.8062
44.5497 12.8087
44.598 12.7546
44.6461 12.7616
44.6945 12.6665
44.7426 12.5986
44.791 12.5867
44.8391 12.5533
44.8875 12.5021
44.9357 12.4621
44.984 12.4057
45.0322 12.3877
45.0806 12.3464
45.1288 12.2945
45.1773 12.2627
45.2257 12.2098
45.2739 12.1452
45.3224 12.096
45.3706 12.0955
45.4191 11.9866
45.4673 11.9646
45.5158 11.9415
45.5641 11.8784
45.6126 11.8254
45.6609 11.7948
45.7094 11.7177
45.7577 11.7241
45.8063 11.6869
45.8546 11.6704
45.9031 11.5707
45.9515 11.5486
46.0001 11.4898
46.0484 11.4583
46.097 11.4155
46.1454 11.4287
46.194 11.3597
46.2424 11.3263
46.291 11.294
46.3395 11.219
46.3881 11.173
46.4365 11.1807
46.4852 11.1341
46.5337 11.0592
46.5823 11.0414
46.631 10.9671
46.6795 10.9286
46.7282 10.9281
46.7767 10.8321
46.8254 10.8244
46.8739 10.7582
46.9226 10.7136
46.9712 10.6841
47.0199 10.6593
47.0685 10.669
47.1173 10.6243
47.1658 10.5664
47.2146 10.5135
47.2632 10.5047
47.312 10.3997
47.3606 10.4016
47.4095 10.3329
47.4581 10.3092
47.5069 10.2951
47.5556 10.2227
47.6044 10.1627
47.6531 10.1521
47.702 10.1338
47.7507 10.1023
47.7996 10.0389
47.8483 10.0235
47.8972 10.0074
47.9461 9.94915
47.9948 9.87736
48.0438 9.88168
48.0925 9.84204
48.1415 9.7811
48.1902 9.76971
48.2392 9.75945
48.288 9.694
48.337 9.67663
48.3858 9.60423
48.4348 9.60673
48.4837 9.55659
48.5327 9.53109
48.5815 9.48304
48.6306 9.4988
48.6795 9.41846
48.7285 9.35313
48.7774 9.34682
48.8265 9.34403
48.8754 9.27652
48.9245 9.25141
48.9734 9.2094
49.0226 9.18959
49.0715 9.14232
49.1206 9.10494
49.1696 9.09736
49.2188 9.01957
49.2679 9.01035
49.3169 8.98804
49.3661 8.94102
49.4151 8.87631
49.4643 8.87699
49.5134 8.79933
49.5626 8.77212
49.6117 8.76464
49.6609 8.69316
49.71 8.65203
49.7592 8.65684
49.8083 8.64014
49.8576 8.59984
49.9067 8.58374
49.956 8.50949
50.0052 8.49309
50.0545 8.44634
50.1036 8.40278
50.153 8.37525
50.2022 8.3349
50.2515 8.30306
50.3007 8.31287
50.3501 8.25524
50.3993 8.2431
50.4487 8.17927
50.498 8.19985
50.5474 8.12606
50.5966 8.09328
50.6461 8.0941
50.6955 8.02318
50.7448 8.00985
50.7943 7.98512
50.8436 7.96311
50.8931 7.91043
50.9424 7.89361
50.9919 7.85859
51.0413 7.86232
51.0908 7.8148
51.1402 7.77284
51.1897 7.73497
51.2391 7.68567
51.2887 7.69227
51.3381 7.66981
51.3877 7.61357
51.4371 7.55567
51.4867 7.5426
51.5362 7.52429
51.5858 7.50501
51.6353 7.46493
51.6849 7.43472
51.7344 7.39173
51.7841 7.38491
51.8336 7.33685
51.8833 7.32344
51.9328 7.24541
51.9826 7.23747
52.0323 7.22579
52.0818 7.21443
52.1316 7.09901
52.1812 7.11667
52.231 7.1103
52.2806 7.06287
52.3304 7.03345
52.38 6.95498
52.4298 6.99402
52.4794 6.90058
52.5293 6.93436
52.5789 6.90107
52.6288 6.87279
52.6785 6.79839
52.7284 6.78672
52.7781 6.7814
52.828 6.73464
52.8777 6.71254
52.9276 6.66715
52.9774 6.66264
53.0273 6.62665
53.0771 6.58141
53.1271 6.5937
53.1769 6.53103
53.2269 6.52458
53.2767 6.5046
53.3267 6.48721
53.3765 6.45006
53.4266 6.45158
53.4766 6.37948
53.5265 6.33548
53.5765 6.31431
53.6264 6.30769
53.6765 6.31393
53.7264 6.23277
53.7765 6.26878
53.8265 6.20916
53.8766 6.16537
53.9266 6.15589
53.9767 6.10631
54.0267 6.09244
54.0769 6.04613
54.1269 6.00645
54.1771 6.01174
54.2271 5.95949
54.2773 5.92372
54.3274 5.92487
54.3776 5.88262
54.4277 5.87308
54.478 5.84106
54.528 5.78834
54.5783 5.74147
54.6285 5.6953
54.6788 5.6877
54.7289 5.6187
54.7792 5.58227
54.8296 5.5344
54.8798 5.47546
54.9301 5.45704
54.9803 5.38256
55.0307 5.43408
55.0809 5.30357
55.1314 5.33662
55.1816 5.29737
55.232 5.23685
55.2823 5.14343
55.3328 5.13323
55.383 5.07999
55.4335 5.03586
55.4838 4.96341
55.5344 4.90636
55.5847 4.92151
55.6352 4.84711
55.6856 4.81686
55.7361 4.77425