File: XRD/Ni3Fe_FD0047.xy
TT I
1.27165 33.4733
1.31627 31.6511
1.36089 30.7556
1.40551 28.3445
1.45013 26.9345
1.49476 26.1443
1.53938 25.6394
1.584 24.9518
1.62863 24.2199
1.67325 22.5686
1.71787 22.5716
1.7625 22.6051
1.80712 22.0716
1.85174 22.2607
1.89636 21.3791
1.94099 21.3169
1.98562 21.1972
2.03025 20.6608
2.07487 21.2356
2.11949 21.4064
2.16411 20.6623
2.20874 21.3359
2.25338 21.2887
2.298 21.662
2.34263 21.8125
2.38725 21.8642
2.43188 21.243
2.4765 22.2487
2.52115 22.6143
2.56577 23.2756
2.6104 24.114
2.65503 24.8971
2.69965 26.6943
2.7443 26.8254
2.78893 29.9536
2.83356 32.9609
2.87818 37.148
2.92281 41.4667
2.96744 47.0295
3.01209 55.0006
3.05672 64.3812
3.10135 73.1089
3.14599 77.5977
3.19062 76.7124
3.23527 67.8969
3.2799 57.8652
3.32454 47.583
3.36917 40.4355
3.4138 34.8343
3.45844 31.7444
3.50309 29.9723
3.54773 27.6625
3.59237 27.0669
3.637 26.8436
3.68164 26.214
3.7263 26.4007
3.77094 26.0943
3.81558 26.0436
3.86022 25.9446
3.90486 26.5127
3.9495 26.8005
3.99416 27.2341
4.0388 27.8475
4.08344 28.8125
4.12809 29.0007
4.17273 30.4662
4.21738 31.9404
4.26204 35.128
4.30669 38.0107
4.35133 40.9245
4.39598 39.7319
4.44063 38.1709
4.4853 37.328
4.52995 38.7472
4.5746 39.4434
4.61925 40.5532
4.6639 41.5678
4.70855 43.9964
4.75322 46.2282
4.79788 49.2888
4.84253 53.6391
4.88719 59.3085
4.93184 67.2943
4.97652 80.6587
5.02118 100.761
5.06583 120.727
5.11049 140.613
5.15515 184.508
5.19981 302.531
5.24449 687.817
5.28916 1538.55
5.33382 3978.56
5.37848 3324.84
5.42315 878.303
5.46783 319.053
5.5125 199.649
5.55716 152.684
5.60183 125.996
5.6465 114.865
5.69117 109.372
5.73586 102.654
5.78053 99.6652
5.8252 100.588
5.86988 106.179
5.91455 117.409
5.95924 139.06
6.00392 192.054
6.0486 320.296
6.09328 548.559
6.13795 1007.66
6.18263 1169.9
6.22733 539.726
6.27201 234.147
6.3167 135.347
6.36138 93.9985
6.40606 74.3457
6.45075 64.3205
6.49545 57.5378
6.54014 52.4342
6.58483 49.4155
6.62952 47.1031
6.67421 44.7696
6.71892 43.7104
6.76361 42.2209
6.8083 41.4374
6.853 40.6518
6.89769 40.89
6.94239 40.2275
6.98711 40.3766
7.03181 41.5814
7.07651 43.5704
7.12121 44.9812
7.16591 43.3789
7.21063 40.7005
7.25533 39.5488
7.30004 39.1406
7.34475 39.3123
7.38945 39.2364
7.43416 39.1956
7.47889 41.8426
7.5236 56.6347
7.56831 155.688
7.61303 177.888
7.65774 66.4022
7.70247 43.8127
7.74719 39.7389
7.79191 38.4157
7.83663 38.1363
7.88135 37.9506
7.92607 38.2421
7.97081 38.8113
8.01553 39.2499
8.06026 39.7803
8.10498 40.7451
8.14971 42.2311
8.19446 43.2372
8.23919 45.4839
8.28392 48.3087
8.32865 50.9374
8.37339 54.5374
8.41812 58.1291
8.46288 65.9455
8.50761 80.4406
8.55235 118.573
8.59709 180.914
8.64183 260.986
8.68658 541.671
8.73134 770.753
8.77609 416.494
8.82083 182.067
8.86558 109.281
8.91033 85.6927
8.9551 74.8017
8.99985 69.2351
9.04461 66.1054
9.08936 64.1241
9.13412 64.0608
9.17888 67.241
9.22365 86.4337
9.26841 231.29
9.31318 334.697
9.35794 132.827
9.4027 71.4663
9.44749 61.5197
9.49226 58.0236
9.53703 56.5424
9.5818 56.1493
9.62657 55.9047
9.67134 56.3355
9.71614 57.068
9.76091 58.0453
9.80569 59.8398
9.85047 62.126
9.89525 65.8647
9.94005 71.7825
9.98484 83.9886
10.0296 114.033
10.0744 161.634
10.1192 204.887
10.164 330.687
10.2088 664.628
10.2536 684.453
10.2984 317.642
10.3432 157.868
10.388 103.522
10.4328 85.7175
10.4776 83.9516
10.5224 90.9227
10.5672 96.9836
10.612 122.989
10.6568 212.92
10.7017 280.222
10.7465 213.306
10.7913 108.32
10.8361 65.6818
10.8809 55.4969
10.9257 50.7319
10.9706 49.0539
11.0154 47.1444
11.0602 45.4682
11.105 44.0151
11.1499 43.1251
11.1947 42.7861
11.2395 42.4388
11.2844 42.0293
11.3292 41.1053
11.374 40.0737
11.4189 39.9347
11.4637 39.1127
11.5086 38.7381
11.5534 38.3274
11.5983 38.1472
11.6431 38.331
11.688 38.321
11.7328 38.3407
11.7777 38.4044
11.8225 39.1289
11.8674 40.0011
11.9122 43.2929
11.9571 61.6376
12.002 111.865
12.0468 97.9245
12.0917 55.9067
12.1366 48.7626
12.1814 49.4651
12.2263 53.07
12.2712 63.5722
12.3161 83.0629
12.3609 88.9371
12.4058 68.9359
12.4507 52.4576
12.4956 45.697
12.5405 42.1635
12.5853 40.7311
12.6302 39.7119
12.6751 39.4503
12.72 39.2268
12.7649 39.5639
12.8098 39.4457
12.8547 40.1344
12.8996 40.6629
12.9445 41.5619
12.9894 42.3941
13.0343 43.9087
13.0792 46.7104
13.1242 55.5636
13.1691 67.6075
13.214 66.1341
13.2589 67.9481
13.3038 72.5107
13.3487 84.6122
13.3937 121.957
13.4386 186.652
13.4835 189.307
13.5285 126.207
13.5734 92.3916
13.6183 82.3557
13.6633 79.5399
13.7082 90.938
13.7531 130.285
13.7981 186.561
13.843 159.625
13.888 95.3394
13.9329 66.1187
13.9779 55.5636
14.0228 51.0067
14.0678 48.6014
14.1127 49.2205
14.1577 60.6089
14.2027 97.6601
14.2476 99.801
14.2926 60.7192
14.3376 46.9142
14.3825 43.5545
14.4275 42.0198
14.4725 41.5187
14.5175 41.1282
14.5624 40.672
14.6074 40.6474
14.6524 40.7233
14.6974 40.7378
14.7424 41.3358
14.7874 41.7996
14.8324 44.3392
14.8774 47.8445
14.9224 51.0279
14.9674 52.7803
15.0124 58.2399
15.0574 73.5366
15.1024 102.254
15.1474 113.383
15.1924 89.5537
15.2374 64.0656
15.2824 50.8369
15.3274 45.3116
15.3725 42.671
15.4175 41.6319
15.4625 40.8592
15.5076 40.5068
15.5526 40.3776
15.5976 40.0292
15.6426 40.092
15.6877 40.8734
15.7327 42.2716
15.7778 44.8532
15.8228 47.8172
15.8679 49.1968
15.9129 52.3119
15.958 62.2744
16.003 82.9447
16.0481 107.058
16.0931 105.005
16.1382 86.0441
16.1833 63.7109
16.2283 46.8929
16.2734 40.9426
16.3185 38.4315
16.3636 36.9902
16.4086 35.7725
16.4537 35.192
16.4988 34.7238
16.5439 34.3485
16.589 34.0061
16.6341 33.9359
16.6792 33.4657
16.7243 33.4032
16.7694 33.538
16.8145 33.4939
16.8596 33.6234
16.9047 33.9547
16.9498 36.5172
16.9949 42.0268
17.04 42.7765
17.0851 37.339
17.1302 34.77
17.1754 34.9403
17.2205 35.3209
17.2656 35.5223
17.3108 36.3767
17.3559 37.0107
17.401 39.8323
17.4462 45.1523
17.4913 48.9016
17.5365 45.5907
17.5815 40.317
17.6268 37.6516
17.6718 36.6873
17.7171 36.5737
17.7622 37.5169
17.8074 41.4228
17.8525 44.9284
17.8977 43.3065
17.9428 40.856
17.9881 41.4527
18.0331 43.1319
18.0784 43.3885
18.1237 45.3111
18.1688 49.5358
18.214 60.1779
18.2591 77.9515
18.3044 86.9178
18.3495 73.8064
18.3948 58.1299
18.4399 52.7945
18.4852 55.743
18.5303 63.7909
18.5756 65.3935
18.6207 58.9173
18.666 51.1469
18.7112 43.9456
18.7565 39.4861
18.8016 38.0347
18.8469 37.0153
18.892 36.2798
18.9374 35.836
18.9825 35.4969
19.0278 35.3333
19.073 35.2025
19.1183 34.9737
19.1635 34.9367
19.2088 35.4874
19.254 36.0322
19.2993 36.7911
19.3447 39.8758
19.3898 46.8234
19.4352 50.2194
19.4804 46.6549
19.5257 45.1011
19.5709 45.3559
19.6163 42.8877
19.6615 38.5564
19.7068 35.5401
19.752 34.3127
19.7974 33.6397
19.8426 33.2205
19.888 33.0497
19.9332 33.2784
19.9786 33.3924
20.0238 33.4396
20.0692 33.5507
20.1144 33.9475
20.1598 35.3066
20.205 37.2761
20.2504 40.9822
20.2957 43.5358
20.3411 41.7676
20.3863 38.8947
20.4318 37.7837
20.477 39.2099
20.5224 41.3669
20.5677 39.9968
20.6131 36.3822
20.6586 33.7101
20.7038 32.5849
20.7493 32.0186
20.7945 32.5272
20.84 34.6947
20.8853 35.989
20.9307 33.6092
20.976 31.3026
21.0215 30.3453
21.0668 30.0967
21.1122 30.1973
21.1575 30.0565
21.203 29.9104
21.2483 29.8157
21.2938 30.04
21.3391 30.2045
21.3846 30.9982
21.4299 31.8043
21.4754 32.39
21.5207 32.0816
21.5662 31.6765
21.6116 31.0071
21.6571 30.5259
21.7024 30.3702
21.7479 30.8081
21.7933 31.1264
21.8388 31.3828
21.8843 31.8049
21.9297 32.1101
21.9752 33.3947
22.0206 35.4991
22.0661 38.3089
22.1115 41.6708
22.157 42.1018
22.2024 40.8775
22.248 39.5469
22.2933 38.4533
22.3389 37.0502
22.3843 35.6688
22.4299 33.4758
22.4753 32.0612
22.5208 31.3299
22.5662 30.7648
22.6118 30.6948
22.6572 30.354
22.7028 30.5054
22.7483 30.6735
22.7939 30.8979
22.8393 32.0686
22.8849 32.7738
22.9303 32.489
22.9759 31.9672
23.0214 31.759
23.067 32.565
23.1126 34.2733
23.1581 36.7532
23.2037 38.0992
23.2492 36.791
23.2948 33.92
23.3403 32.338
23.3859 31.9767
23.4314 32.0508
23.477 33.4499
23.5225 34.3903
23.5682 33.775
23.6137 32.7998
23.6593 32.5884
23.7048 33.4742
23.7505 35.63
23.796 38.1612
23.8417 38.3191
23.8872 35.598
23.9329 32.6491
23.9784 30.9344
24.0241 29.9124
24.0697 29.5429
24.1154 29.5113
24.1609 29.2616
24.2066 28.7559
24.2522 28.213
24.2979 27.9692
24.3434 27.6869
24.3892 27.5399
24.4349 27.4427
24.4805 27.3138
24.5262 27.1998
24.5718 27.1172
24.6175 27.201
24.6631 27.4792
24.7089 28.052
24.7545 28.5176
24.8002 28.3051
24.8458 27.6524
24.8916 27.0524
24.9372 26.8592
24.983 26.8322
25.0286 26.8777
25.0744 26.6792
25.12 26.6788
25.1658 26.8801
25.2114 27.1097
25.2572 27.2231
25.3029 27.8705
25.3487 28.5464
25.3943 28.8387
25.4402 28.7195
25.4858 28.8085
25.5316 29.0092
25.5773 29.528
25.6231 29.4589
25.669 28.3348
25.7147 27.2884
25.7605 26.7318
25.8062 26.4772
25.8521 26.6719
25.8977 26.9208
25.9436 26.8569
25.9893 26.3099
26.0352 26.1763
26.0809 25.8514
26.1268 25.8478
26.1725 26.0225
26.2184 26.0372
26.2641 26.4995
26.31 26.9953
26.3557 27.3063
26.4017 27.0756
26.4474 26.5737
26.4933 26.2778
26.5391 26.1679
26.585 25.9037
26.6308 25.9165
26.6767 25.7912
26.7225 26.1077
26.7684 26.5205
26.8142 27.014
26.8601 27.5924
26.9059 28.1479
26.9519 28.1683
26.9979 28.138
27.0437 27.9686
27.0896 27.5846
27.1354 26.775
27.1814 26.0447
27.2272 25.5641
27.2732 25.4061
27.3191 25.1035
27.3651 24.969
27.4109 24.918
27.4569 24.8739
27.5027 24.9572
27.5488 24.9512
27.5946 24.8911
27.6407 24.8866
27.6865 24.9933
27.7326 25.0218
27.7784 25.1539
27.8245 25.0984
27.8703 24.9411
27.9164 24.829
27.9623 24.6085
28.0084 24.8024
28.0543 25.1257
28.1003 25.4675
28.1462 25.5062
28.1923 25.4372
28.2384 25.4597
28.2843 25.8866
28.3304 26.113
28.3764 25.9388
28.4225 25.5484
28.4684 25.4101
28.5145 25.0945
28.5605 24.807
28.6066 24.3593
28.6526 24.1364
28.6987 23.8737
28.7447 23.5657
28.7908 23.2297
28.8368 23.1102
28.8829 22.9686
28.9289 23.0384
28.9751 22.9163
29.0211 22.9188
29.0673 22.8213
29.1133 22.9116
29.1595 23.0496
29.2055 22.9843
29.2517 22.8004
29.2977 22.6502
29.3439 22.3912
29.3899 22.1642
29.4361 22.0792
29.4824 22.1928
29.5284 22.0825
29.5746 22.2184
29.6207 22.1497
29.6669 22.274
29.713 22.1964
29.7593 21.9636
29.8053 21.7654
29.8516 21.6246
29.8977 21.4735
29.9439 21.4691
29.99 21.4194
30.0363 21.2224
30.0824 21.3515
30.1287 21.4451
30.1748 21.4889
30.2211 21.4261
30.2673 21.2361
30.3136 21.2697
30.3597 21.0963
30.406 21.1681
30.4522 21.1238
30.4985 21.1822
30.5447 21.1848
30.591 21.0787
30.6372 21.0785
30.6835 20.8991
30.7297 20.9073
30.7761 20.8625
30.8224 20.9074
30.8686 21.149
30.915 21.1401
30.9612 21.4041
31.0076 21.4757
31.0538 21.3588
31.1002 21.5064
31.1464 21.224
31.1928 21.128
31.2391 20.9789
31.2855 20.7105
31.3317 20.5833
31.3781 20.5008
31.4244 20.4954
31.4708 20.3245
31.5171 20.3326
31.5636 20.3224
31.6098 20.3039
31.6563 20.4721
31.7026 20.5087
31.7491 20.4704
31.7953 20.5718
31.8418 20.4957
31.8881 20.2968
31.9346 20.1291
31.9809 19.9274
32.0275 19.9223
32.074 19.9619
32.1203 20.0617
32.1668 20.0569
32.2132 20.0281
32.2597 19.9564
32.306 20.0115
32.3526 19.8528
32.399 19.677
32.4455 19.5289
32.4919 19.4664
32.5385 19.3658
32.5848 19.1933
32.6314 19.153
32.6778 19.0708
32.7244 18.9492
32.7708 18.8326
32.8174 18.866
32.8638 18.7076
32.9104 18.8419
32.9569 18.8596
33.0035 18.729
33.0499 18.8032
33.0966 18.7424
33.143 18.53
33.1897 18.4628
33.2361 18.4042
33.2828 18.4346
33.3293 18.3108
33.3759 18.381
33.4226 18.3631
33.4691 18.4106
33.5158 18.4498
33.5623 18.3449
33.609 18.2039
33.6555 18.166
33.7022 18.0353
33.7487 17.8941
33.7954 17.8498
33.842 17.7656
33.8887 17.6542
33.9353 17.6586
33.982 17.5867
34.0286 17.5698
34.0753 17.444
34.1219 17.4547
34.1687 17.3882
34.2152 17.3861
34.262 17.3023
34.3086 17.2016
34.3554 17.2104
34.402 17.0809
34.4488 17.0248
34.4954 16.9755
34.5422 16.9136
34.5889 16.8483
34.6357 16.8413
34.6825 16.8341
34.7292 16.7268
34.776 16.6747
34.8227 16.647
34.8695 16.5767
34.9162 16.551
34.9631 16.3832
35.0098 16.3694
35.0566 16.2833
35.1033 16.2797
35.1502 16.2546
35.1969 16.3069
35.2438 16.2011
35.2906 16.1474
35.3375 16.1445
35.3842 16.1057
35.4311 16.1343
35.4779 16.1085
35.5248 16.0606
35.5716 16.0119
35.6185 16.0809
35.6653 16.0616
35.7123 16.0197
35.759 16.0965
35.806 16.028
35.8528 15.9065
35.8998 15.8389
35.9468 15.8234
35.9936 15.7138
36.0406 15.6956
36.0874 15.6925
36.1345 15.4975
36.1813 15.4299
36.2283 15.4132
36.2752 15.3498
36.3222 15.3685
36.3691 15.3441
36.4161 15.2001
36.463 15.2982
36.5101 15.302
36.557 15.2598
36.6041 15.1473
36.651 15.0507
36.6981 15.0658
36.745 15.0503
36.7921 15.0048
36.839 14.8598
36.8861 14.887
36.9331 14.8516
36.9802 14.812
37.0272 14.7248
37.0743 14.6285
37.1213 14.6704
37.1684 14.6241
37.2154 14.5366
37.2626 14.4605
37.3098 14.4431
37.3568 14.3951
37.404 14.4088
37.451 14.3251
37.4982 14.3014
37.5452 14.2138
37.5924 14.109
37.6395 14.2151
37.6867 14.0841
37.7337 13.9884
37.781 13.957
37.8281 13.9341
37.8753 13.9295
37.9224 13.8604
37.9697 13.8206
38.0168 13.7927
38.064 13.7416
38.1111 13.7333
38.1584 13.6789
38.2056 13.6272
38.2529 13.5709
38.3 13.5903
38.3473 13.5485
38.3945 13.3778
38.4418 13.4163
38.489 13.366
38.5363 13.3406
38.5837 13.2178
38.6309 13.3142
38.6782 13.1859
38.7254 13.1193
38.7728 13.1486
38.82 13.1069
38.8674 13.0532
38.9146 13.0236
38.9621 13.0482
39.0093 12.9667
39.0567 12.9273
39.104 12.8614
39.1514 12.8238
39.1987 12.7961
39.2461 12.7683
39.2934 12.7205
39.3409 12.6847
39.3882 12.5504
39.4356 12.5321
39.483 12.481
39.5304 12.4432
39.5778 12.4936
39.6253 12.3951
39.6726 12.3616
39.7201 12.3385
39.7675 12.3854
39.815 12.3195
39.8624 12.2482
39.9099 12.2352
39.9575 12.1574
40.0049 12.1454
40.0525 12.0831
40.0999 12.095
40.1474 12.0444
40.1949 11.9787
40.2425 11.9847
40.2899 11.9497
40.3375 11.9383
40.385 11.8665
40.4326 11.8501
40.48 11.7936
40.5277 11.7457
40.5752 11.7169
40.6228 11.7114
40.6703 11.6747
40.718 11.5784
40.7655 11.6472
40.8132 11.5844
40.8607 11.5224
40.9084 11.467
40.9559 11.4383
41.0036 11.4419
41.0512 11.3912
41.0989 11.3852
41.1465 11.3475
41.1942 11.2974
41.242 11.2303
41.2896 11.1878
41.3373 11.1239
41.3849 11.1402
41.4327 11.117
41.4803 11.0583
41.5281 11.0111
41.5758 11.0106
41.6236 10.9435
41.6712 10.9309
41.7191 10.8721
41.7667 10.8416
41.8146 10.8411
41.8622 10.8124
41.9101 10.7566
41.9578 10.7015
42.0057 10.6423
42.0534 10.6787
42.1013 10.6507
42.149 10.6089
42.1969 10.5403
42.2446 10.4824
42.2925 10.4975
42.3403 10.4511
42.3882 10.3878
42.436 10.3704
42.4839 10.3448
42.5319 10.2997
42.5797 10.2452
42.6277 10.2718
42.6755 10.1795
42.7235 10.1912
42.7713 10.1294
42.8193 10.071
42.8671 10.0689
42.9152 10.0442
42.963 9.98588
43.0111 9.9601
43.0589 9.93003
43.107 9.91111
43.1549 9.86175
43.2029 9.83444
43.2508 9.78947
43.2989 9.77684
43.3468 9.71361
43.3949 9.69475
43.4429 9.71283
43.491 9.64359
43.5389 9.61852
43.5871 9.57519
43.635 9.54395
43.6832 9.52647
43.7312 9.4841
43.7793 9.42578
43.8273 9.42981
43.8755 9.35115
43.9237 9.35326
43.9717 9.35813
44.0199 9.27452
44.068 9.27386
44.1162 9.26017
44.1642 9.2587
44.2125 9.15684
44.2606 9.16933
44.3088 9.10127
44.3569 9.09362
44.4052 9.07369
44.4533 9.01067
44.5016 8.92879
44.5497 9.00082
44.598 8.9094
44.6461 8.94259
44.6945 8.86828
44.7426 8.8152
44.791 8.77689
44.8391 8.75846
44.8875 8.74713
44.9357 8.71742
44.984 8.69086
45.0322 8.67066
45.0806 8.61076
45.1288 8.58127
45.1773 8.59469
45.2257 8.5483
45.2739 8.51607
45.3224 8.50879
45.3706 8.45989
45.4191 8.42564
45.4673 8.38691
45.5158 8.37237
45.5641 8.3434
45.6126 8.32035
45.6609 8.30741
45.7094 8.28287
45.7577 8.25087
45.8063 8.17634
45.8546 8.19628
45.9031 8.17579
45.9515 8.12651
46.0001 8.10514
46.0484 8.08769
46.097 8.06178
46.1454 8.02662
46.194 7.9949
46.2424 7.94907
46.291 7.91102
46.3395 7.93993
46.3881 7.88959
46.4365 7.8596
46.4852 7.84615
46.5337 7.80218
46.5823 7.79365
46.631 7.72751
46.6795 7.69021
46.7282 7.71879
46.7767 7.64574
46.8254 7.61722
46.8739 7.61322
46.9226 7.56194
46.9712 7.56389
47.0199 7.51035
47.0685 7.46958
47.1173 7.45882
47.1658 7.46487
47.2146 7.41702
47.2632 7.38324
47.312 7.37349
47.3606 7.34074
47.4095 7.29026
47.4581 7.29738
47.5069 7.25197
47.5556 7.25472
47.6044 7.2141
47.6531 7.16902
47.702 7.15085
47.7507 7.13881
47.7996 7.12473
47.8483 7.08588
47.8972 7.06978
47.9461 7.00175
47.9948 6.99304
48.0438 6.98433
48.0925 6.97506
48.1415 6.93407
48.1902 6.90252
48.2392 6.88098
48.288 6.87685
48.337 6.85108
48.3858 6.81026
48.4348 6.7624
48.4837 6.77916
48.5327 6.77465
48.5815 6.72223
48.6306 6.71651
48.6795 6.70528
48.7285 6.6563
48.7774 6.65398
48.8265 6.62217
48.8754 6.6009
48.9245 6.5574
48.9734 6.53732
49.0226 6.5239
49.0715 6.49328
49.1206 6.43598
49.1696 6.4306
49.2188 6.38719
49.2679 6.3969
49.3169 6.37614
49.3661 6.3436
49.4151 6.31306
49.4643 6.30536
49.5134 6.27052
49.5626 6.22689
49.6117 6.24472
49.6609 6.22445
49.71 6.18361
49.7592 6.14055
49.8083 6.15341
49.8576 6.11647
49.9067 6.09661
49.956 6.06274
50.0052 6.02146
50.0545 6.02853
50.1036 6.01051
50.153 5.9924
50.2022 5.97445
50.2515 5.93315
50.3007 5.91347
50.3501 5.90088
50.3993 5.87244
50.4487 5.86371
50.498 5.83253
50.5474 5.81387
50.5966 5.81947
50.6461 5.75913
50.6955 5.75239
50.7448 5.7669
50.7943 5.71326
50.8436 5.72109
50.8931 5.68686
50.9424 5.65573
50.9919 5.64735
51.0413 5.60096
51.0908 5.58963
51.1402 5.57639
51.1897 5.55941
51.2391 5.54627
51.2887 5.47281
51.3381 5.48954
51.3877 5.47739
51.4371 5.44666
51.4867 5.40815
51.5362 5.38218
51.5858 5.37439
51.6353 5.33803
51.6849 5.33349
51.7344 5.3011
51.7841 5.32247
51.8336 5.2723
51.8833 5.23216
51.9328 5.22038
51.9826 5.19843
52.0323 5.2032
52.0818 5.13926
52.1316 5.14469
52.1812 5.13815
52.231 5.07931
52.2806 5.07413
52.3304 5.0554
52.38 5.05163
52.4298 4.99648
52.4794 4.99459
52.5293 4.95877
52.5789 4.96349
52.6288 4.96678
52.6785 4.93289
52.7284 4.89205
52.7781 4.89777
52.828 4.87444
52.8777 4.82278
52.9276 4.82087
52.9774 4.85178
53.0273 4.81154
53.0771 4.76669
53.1271 4.78454
53.1769 4.72313
53.2269 4.74805
53.2767 4.68127
53.3267 4.65035
53.3765 4.66924
53.4266 4.61863
53.4766 4.62209
53.5265 4.58582
53.5765 4.56847
53.6264 4.54407
53.6765 4.56012
53.7264 4.55891
53.7765 4.50404
53.8265 4.48904
53.8766 4.40487
53.9266 4.4703
53.9767 4.40063
54.0267 4.40162
54.0769 4.39767
54.1269 4.32405
54.1771 4.29013
54.2271 4.35527
54.2773 4.22387
54.3274 4.26845
54.3776 4.21988
54.4277 4.1532
54.478 4.15929
54.528 4.13057
54.5783 4.03787
54.6285 4.03249
54.6788 3.99972
54.7289 3.98641
54.7792 3.96156
54.8296 3.89629
54.8798 3.85589
54.9301 3.88528
54.9803 3.85817
55.0307 3.8392
55.0809 3.76639
55.1314 3.76885
55.1816 3.72007
55.232 3.6828
55.2823 3.64017
55.3328 3.57683
55.383 3.61487
55.4335 3.51659
55.4838 3.45805
55.5344 3.4328
55.5847 3.45523
55.6352 3.44838
55.6856 3.42544
55.7361 3.41704