File: XRD/Ni3Fe_FD0639.xy
TT I
1.27165 7.25813
1.31627 7.14341
1.36089 7.16152
1.40551 6.381
1.45013 5.94307
1.49476 6.40916
1.53938 6.04695
1.584 5.37775
1.62863 5.2554
1.67325 5.36987
1.71787 4.60662
1.7625 5.06423
1.80712 4.83945
1.85174 5.1626
1.89636 4.92874
1.94099 4.90357
1.98562 4.81079
2.03025 4.51388
2.07487 4.25741
2.11949 4.94051
2.16411 5.21635
2.20874 15.6784
2.25338 27.5386
2.298 6.76981
2.34263 5.55901
2.38725 6.48549
2.43188 6.33173
2.4765 6.67228
2.52115 7.30808
2.56577 7.57886
2.6104 7.89312
2.65503 8.03951
2.69965 7.88878
2.7443 7.68439
2.78893 8.59948
2.83356 8.58689
2.87818 8.90007
2.92281 9.2648
2.96744 10.1888
3.01209 10.8517
3.05672 11.0088
3.10135 12.2387
3.14599 12.8997
3.19062 14.4231
3.23527 15.2725
3.2799 15.8107
3.32454 17.0371
3.36917 18.3182
3.4138 19.0014
3.45844 20.1618
3.50309 21.1732
3.54773 21.905
3.59237 24.5825
3.637 107.44
3.68164 67.5718
3.7263 26.9607
3.77094 26.3823
3.81558 27.2161
3.86022 27.9865
3.90486 29.5365
3.9495 30.0232
3.99416 30.9903
4.0388 32.6863
4.08344 34.2858
4.12809 35.2151
4.17273 37.3276
4.21738 44.6396
4.26204 291.565
4.30669 257.071
4.35133 50.5031
4.39598 45.4707
4.44063 56.1318
4.4853 69.4457
4.52995 50.7857
4.5746 51.3242
4.61925 52.9433
4.6639 55.5602
4.70855 58.1105
4.75322 60.9535
4.79788 63.5825
4.84253 66.9542
4.88719 71.2709
4.93184 74.9894
4.97652 80.3755
5.02118 86.4759
5.06583 93.9413
5.11049 104.673
5.15515 182.457
5.19981 336.137
5.24449 2672.35
5.28916 12606.3
5.33382 3071.21
5.37848 196.672
5.42315 130.382
5.46783 113.999
5.5125 106.429
5.55716 102.186
5.60183 98.8063
5.6465 97.2455
5.69117 94.0176
5.73586 92.0544
5.78053 91.4938
5.8252 90.6929
5.86988 91.4792
5.91455 93.6657
5.95924 100.563
6.00392 193.761
6.0486 918.036
6.09328 4362.72
6.13795 3531.2
6.18263 260.388
6.22733 95.1717
6.27201 84.3846
6.3167 108.836
6.36138 83.3685
6.40606 69.562
6.45075 67.4381
6.49545 66.0888
6.54014 64.3945
6.58483 63.2621
6.62952 63.2319
6.67421 101.116
6.71892 163.34
6.76361 71.4332
6.8083 59.2641
6.853 58.0062
6.89769 57.2294
6.94239 56.9539
6.98711 56.3602
7.03181 55.9741
7.07651 55.8807
7.12121 56.0441
7.16591 55.7877
7.21063 56.3509
7.25533 73.5057
7.30004 207.913
7.34475 101.211
7.38945 57.4072
7.43416 55.0387
7.47889 55.0197
7.5236 55.2328
7.56831 55.636
7.61303 57.7069
7.65774 58.2601
7.70247 56.57
7.74719 56.9703
7.79191 57.0262
7.83663 57.4539
7.88135 57.7328
7.92607 58.615
7.97081 60.2433
8.01553 61.1469
8.06026 62.4669
8.10498 64.3713
8.14971 74.9481
8.19446 73.8806
8.23919 69.6667
8.28392 71.6362
8.32865 73.9055
8.37339 77.7376
8.41812 85.7436
8.46288 118.558
8.50761 158.045
8.55235 365.793
8.59709 1115.18
8.64183 2208.95
8.68658 1029.25
8.73134 178.805
8.77609 100.452
8.82083 93.278
8.86558 89.9159
8.91033 90.5072
8.9551 93.5762
8.99985 85.9183
9.04461 83.5382
9.08936 83.1176
9.13412 82.0178
9.17888 82.1454
9.22365 83.1278
9.26841 82.0169
9.31318 82.626
9.35794 82.6396
9.4027 82.9428
9.44749 83.8848
9.49226 84.453
9.53703 85.5809
9.5818 87.5464
9.62657 92.5224
9.67134 100.613
9.71614 94.0643
9.76091 94.0202
9.80569 96.3677
9.85047 99.8023
9.89525 128.024
9.94005 141.046
9.98484 168.961
10.0296 326.213
10.0744 769.533
10.1192 1706.95
10.164 1663.33
10.2088 439.864
10.2536 130.842
10.2984 115.706
10.3432 117.884
10.388 105.123
10.4328 115.327
10.4776 154.925
10.5224 268.789
10.5672 500.703
10.612 521.852
10.6568 217.88
10.7017 99.4122
10.7465 87.2023
10.7913 83.6102
10.8361 81.5307
10.8809 79.4007
10.9257 79.2027
10.9706 79.8737
11.0154 75.5897
11.0602 73.0735
11.105 71.8824
11.1499 77.6338
11.1947 87.3077
11.2395 75.9189
11.2844 71.6429
11.3292 67.6095
11.374 66.4135
11.4189 65.957
11.4637 65.1119
11.5086 66.029
11.5534 69.7425
11.5983 66.2506
11.6431 64.0459
11.688 63.1071
11.7328 63.1354
11.7777 63.1478
11.8225 62.6739
11.8674 62.6893
11.9122 62.7639
11.9571 62.9673
12.002 63.4054
12.0468 67.1005
12.0917 78.2325
12.1366 100.829
12.1814 147.989
12.2263 204.146
12.2712 171.91
12.3161 102.665
12.3609 72.4332
12.4058 65.0127
12.4507 64.3926
12.4956 64.835
12.5405 64.7222
12.5853 65.8676
12.6302 75.4032
12.6751 81.9055
12.72 71.3309
12.7649 68.1448
12.8098 68.7018
12.8547 69.8229
12.8996 70.8974
12.9445 72.231
12.9894 74.2749
13.0343 75.3935
13.0792 78.8399
13.1242 86.8539
13.1691 109.476
13.214 144.117
13.2589 229.012
13.3038 359.649
13.3487 430.265
13.3937 277.557
13.4386 128.102
13.4835 104.749
13.5285 118.342
13.5734 154.729
13.6183 240.339
13.6633 344.649
13.7082 343.788
13.7531 195.76
13.7981 101.204
13.843 81.8913
13.888 79.8723
13.9329 77.4857
13.9779 76.1475
14.0228 74.5318
14.0678 73.1975
14.1127 72.6854
14.1577 73.0751
14.2027 71.8893
14.2476 70.4716
14.2926 71.0128
14.3376 72.2701
14.3825 70.673
14.4275 68.92
14.4725 68.6338
14.5175 68.9026
14.5624 69.4134
14.6074 71.8011
14.6524 72.4643
14.6974 70.8066
14.7424 71.7147
14.7874 77.6619
14.8324 87.4123
14.8774 108.036
14.9224 149.893
14.9674 202.75
15.0124 217.624
15.0574 152.456
15.1024 93.0102
15.1474 72.9118
15.1924 70.8506
15.2374 72.0673
15.2824 71.0861
15.3274 68.6777
15.3725 67.0201
15.4175 66.8091
15.4625 66.015
15.5076 66.8224
15.5526 66.5527
15.5976 66.065
15.6426 66.6296
15.6877 71.3551
15.7327 78.522
15.7778 92.8783
15.8228 122.673
15.8679 165.028
15.9129 192.865
15.958 160.542
16.003 101.43
16.0481 69.5883
16.0931 65.5604
16.1382 63.4729
16.1833 61.1674
16.2283 59.2308
16.2734 58.6951
16.3185 59.3649
16.3636 60.2368
16.4086 58.3273
16.4537 56.6452
16.4988 55.7987
16.5439 55.7808
16.589 55.4464
16.6341 55.0239
16.6792 54.8408
16.7243 55.2221
16.7694 55.3101
16.8145 54.995
16.8596 55.5863
16.9047 57.5219
16.9498 57.6776
16.9949 56.0467
17.04 55.9404
17.0851 56.9675
17.1302 58.6064
17.1754 61.4305
17.2205 66.4593
17.2656 73.6307
17.3108 82.5721
17.3559 83.2015
17.401 72.6964
17.4462 62.8838
17.4913 59.3962
17.5365 59.2173
17.5815 59.4378
17.6268 59.881
17.6718 60.6954
17.7171 61.2568
17.7622 61.2829
17.8074 61.8077
17.8525 63.786
17.8977 67.7866
17.9428 72.9108
17.9881 81.1279
18.0331 97.5926
18.0784 119.283
18.1237 138.479
18.1688 132.328
18.214 105.866
18.2591 87.0561
18.3044 89.8722
18.3495 99.2128
18.3948 105.976
18.4399 98.5836
18.4852 79.5879
18.5303 66.8911
18.5756 62.6261
18.6207 61.5452
18.666 60.6482
18.7112 59.8917
18.7565 59.2889
18.8016 58.8563
18.8469 58.2786
18.892 57.82
18.9374 57.4978
18.9825 57.0489
19.0278 57.2111
19.073 57.0375
19.1183 57.4382
19.1635 58.3303
19.2088 59.5697
19.254 61.9161
19.2993 66.1965
19.3447 72.5332
19.3898 76.6567
19.4352 73.2031
19.4804 64.1756
19.5257 57.4442
19.5709 54.4843
19.6163 53.9403
19.6615 53.7554
19.7068 53.456
19.752 53.3522
19.7974 53.8238
19.8426 54.5536
19.888 55.0885
19.9332 56.1702
19.9786 58.7641
20.0238 62.0548
20.0692 66.9394
20.1144 69.7119
20.1598 68.5246
20.205 63.801
20.2504 62.2365
20.2957 63.5918
20.3411 65.9541
20.3863 64.9135
20.4318 59.1994
20.477 54.3635
20.5224 52.0604
20.5677 51.2548
20.6131 50.5423
20.6586 49.915
20.7038 49.5931
20.7493 49.162
20.7945 49.3715
20.84 48.9853
20.8853 48.9398
20.9307 48.6736
20.976 48.8733
21.0215 48.6091
21.0668 49.0509
21.1122 49.5617
21.1575 50.2179
21.203 50.7813
21.2483 51.4579
21.2938 51.5851
21.3391 50.2313
21.3846 49.2267
21.4299 48.7491
21.4754 48.4681
21.5207 48.587
21.5662 48.8818
21.6116 49.1816
21.6571 50.0136
21.7024 50.8873
21.7479 52.4781
21.7933 54.9221
21.8388 58.4963
21.8843 62.3031
21.9297 64.7651
21.9752 63.9311
22.0206 60.1335
22.0661 56.8835
22.1115 56.2488
22.157 56.3195
22.2024 54.6459
22.248 51.9267
22.2933 50.2954
22.3389 49.2363
22.3843 49.3028
22.4299 49.2449
22.4753 49.2016
22.5208 48.8215
22.5662 48.6487
22.6118 48.7866
22.6572 48.9942
22.7028 49.2934
22.7483 49.8348
22.7939 50.4802
22.8393 51.7059
22.8849 53.834
22.9303 56.0245
22.9759 57.5904
23.0214 57.6114
23.067 55.1066
23.1126 51.7504
23.1581 49.4379
23.2037 49.0508
23.2492 48.9365
23.2948 48.9536
23.3403 49.184
23.3859 49.8712
23.4314 50.6948
23.477 52.322
23.5225 54.6485
23.5682 56.7834
23.6137 58.0881
23.6593 56.1615
23.7048 52.1934
23.7505 48.669
23.796 46.9728
23.8417 46.166
23.8872 45.7348
23.9329 45.4859
23.9784 45.0196
24.0241 44.7325
24.0697 44.5718
24.1154 44.485
24.1609 44.1874
24.2066 44.0766
24.2522 43.8294
24.2979 43.5582
24.3434 43.5153
24.3892 43.1142
24.4349 43.2045
24.4805 43.041
24.5262 43.3146
24.5718 43.0703
24.6175 43.1386
24.6631 42.8966
24.7089 42.7503
24.7545 42.56
24.8002 42.4493
24.8458 42.3956
24.8916 42.1429
24.9372 42.259
24.983 42.5707
25.0286 42.9112
25.0744 43.2072
25.12 43.735
25.1658 44.3816
25.2114 44.7276
25.2572 44.8649
25.3029 44.9913
25.3487 45.1067
25.3943 44.8614
25.4402 43.8004
25.4858 42.8
25.5316 41.6494
25.5773 41.1272
25.6231 40.9483
25.669 40.5605
25.7147 40.7497
25.7605 40.6756
25.8062 40.6134
25.8521 40.8275
25.8977 40.6876
25.9436 40.9418
25.9893 41.1265
26.0352 41.6453
26.0809 41.6324
26.1268 41.8191
26.1725 41.4952
26.2184 41.0593
26.2641 40.4696
26.31 40.3076
26.3557 40.2239
26.4017 40.2087
26.4474 40.4514
26.4933 40.76
26.5391 41.3424
26.585 41.8257
26.6308 42.1833
26.6767 42.2812
26.7225 42.0919
26.7684 41.5956
26.8142 41.0353
26.8601 40.652
26.9059 40.2257
26.9519 39.6796
26.9979 39.3792
27.0437 39.014
27.0896 38.8485
27.1354 38.835
27.1814 38.9023
27.2272 38.5903
27.2732 38.6655
27.3191 38.5141
27.3651 38.659
27.4109 38.4828
27.4569 38.5571
27.5027 38.6179
27.5488 38.6594
27.5946 38.607
27.6407 38.3642
27.6865 38.1302
27.7326 38.057
27.7784 38.0069
27.8245 37.9386
27.8703 38.0359
27.9164 38.3958
27.9623 38.403
28.0084 38.7017
28.0543 39.2366
28.1003 39.182
28.1462 38.9743
28.1923 38.6748
28.2384 38.0954
28.2843 37.9232
28.3304 37.4779
28.3764 36.8754
28.4225 36.668
28.4684 36.4935
28.5145 36.1177
28.5605 35.9432
28.6066 35.8131
28.6526 35.8091
28.6987 35.789
28.7447 35.5773
28.7908 35.4308
28.8368 35.6308
28.8829 35.6038
28.9289 35.5297
28.9751 35.2493
29.0211 35.1226
29.0673 34.9519
29.1133 34.7151
29.1595 34.6449
29.2055 34.4672
29.2517 34.4747
29.2977 34.4579
29.3439 34.298
29.3899 34.4648
29.4361 34.3288
29.4824 34.0845
29.5284 33.9524
29.5746 33.6327
29.6207 33.287
29.6669 33.1978
29.713 33.1901
29.7593 33.0172
29.8053 33.1084
29.8516 32.9487
29.8977 32.8503
29.9439 32.7555
29.99 32.7654
30.0363 32.5499
30.0824 32.7326
30.1287 32.5808
30.1748 32.5268
30.2211 32.5303
30.2673 32.3372
30.3136 32.5211
30.3597 32.3793
30.406 32.3489
30.4522 32.2033
30.4985 32.2721
30.5447 32.2888
30.591 32.2263
30.6372 32.3401
30.6835 32.1914
30.7297 32.3841
30.7761 32.4381
30.8224 32.093
30.8686 32.0731
30.915 31.6887
30.9612 31.5819
31.0076 31.3788
31.0538 31.2882
31.1002 31.3555
31.1464 31.1016
31.1928 31.0942
31.2391 31.0598
31.2855 31.1126
31.3317 30.9968
31.3781 31.1592
31.4244 30.9738
31.4708 31.0286
31.5171 30.8998
31.5636 30.8091
31.6098 30.7176
31.6563 30.4938
31.7026 30.3982
31.7491 30.168
31.7953 30.2788
31.8418 30.3029
31.8881 30.3167
31.9346 30.1829
31.9809 30.1292
32.0275 30.1068
32.074 29.8748
32.1203 29.6352
32.1668 29.6296
32.2132 29.5214
32.2597 29.4142
32.306 29.2294
32.3526 29.0912
32.399 29.0491
32.4455 28.8528
32.4919 28.8284
32.5385 28.7958
32.5848 28.6243
32.6314 28.6244
32.6778 28.6062
32.7244 28.396
32.7708 28.2913
32.8174 28.3697
32.8638 28.1457
32.9104 28.086
32.9569 28.1054
33.0035 28.0063
33.0499 28.0192
33.0966 27.8667
33.143 27.8352
33.1897 27.7528
33.2361 27.7294
33.2828 27.6776
33.3293 27.5591
33.3759 27.4686
33.4226 27.3736
33.4691 27.2822
33.5158 27.2701
33.5623 26.9964
33.609 26.8092
33.6555 26.8217
33.7022 26.6559
33.7487 26.7095
33.7954 26.6704
33.842 26.46
33.8887 26.5314
33.9353 26.3838
33.982 26.2438
34.0286 26.1846
34.0753 26.0845
34.1219 26.0473
34.1687 26.0084
34.2152 25.8763
34.262 25.7855
34.3086 25.6844
34.3554 25.6333
34.402 25.5358
34.4488 25.4504
34.4954 25.3916
34.5422 25.2968
34.5889 25.1536
34.6357 25.1345
34.6825 25.0317
34.7292 25.0238
34.776 24.8585
34.8227 24.8277
34.8695 24.7451
34.9162 24.6925
34.9631 24.5547
35.0098 24.6169
35.0566 24.4087
35.1033 24.3957
35.1502 24.325
35.1969 24.2631
35.2438 24.2493
35.2906 24.205
35.3375 24.1756
35.3842 24.0399
35.4311 24.0918
35.4779 23.9945
35.5248 24.0688
35.5716 23.8484
35.6185 23.8155
35.6653 23.7363
35.7123 23.6683
35.759 23.5675
35.806 23.4612
35.8528 23.2954
35.8998 23.3393
35.9468 23.2195
35.9936 23.1818
36.0406 23.0681
36.0874 23.1342
36.1345 22.931
36.1813 22.9238
36.2283 22.8498
36.2752 22.71
36.3222 22.7491
36.3691 22.6518
36.4161 22.449
36.463 22.4867
36.5101 22.5403
36.557 22.3885
36.6041 22.249
36.651 22.2505
36.6981 22.2392
36.745 22.1772
36.7921 22.122
36.839 21.9284
36.8861 21.8876
36.9331 21.8131
36.9802 21.8245
37.0272 21.6914
37.0743 21.641
37.1213 21.5081
37.1684 21.4289
37.2154 21.4509
37.2626 21.3566
37.3098 21.3624
37.3568 21.2753
37.404 21.1502
37.451 21.054
37.4982 21.0692
37.5452 20.9664
37.5924 20.8552
37.6395 20.9359
37.6867 20.8094
37.7337 20.6908
37.781 20.6431
37.8281 20.5754
37.8753 20.459
37.9224 20.4415
37.9697 20.3289
38.0168 20.2476
38.064 20.2203
38.1111 20.1985
38.1584 20.0757
38.2056 20.0477
38.2529 19.9701
38.3 19.9219
38.3473 19.9553
38.3945 19.7819
38.4418 19.7444
38.489 19.6503
38.5363 19.5863
38.5837 19.5669
38.6309 19.4446
38.6782 19.4442
38.7254 19.3721
38.7728 19.2991
38.82 19.1814
38.8674 19.2158
38.9146 19.1181
38.9621 19.0264
39.0093 18.9943
39.0567 18.9603
39.104 18.8746
39.1514 18.8318
39.1987 18.7512
39.2461 18.7081
39.2934 18.6737
39.3409 18.5481
39.3882 18.4848
39.4356 18.4913
39.483 18.4481
39.5304 18.3681
39.5778 18.3082
39.6253 18.1805
39.6726 18.2243
39.7201 18.1906
39.7675 18.0815
39.815 18.0132
39.8624 17.9111
39.9099 17.9493
39.9575 17.8592
40.0049 17.7505
40.0525 17.6833
40.0999 17.6321
40.1474 17.6277
40.1949 17.5121
40.2425 17.4926
40.2899 17.4216
40.3375 17.386
40.385 17.2996
40.4326 17.2543
40.48 17.2038
40.5277 17.1921
40.5752 17.1393
40.6228 17.0174
40.6703 17.0058
40.718 16.9605
40.7655 16.985
40.8132 16.8059
40.8607 16.8085
40.9084 16.7688
40.9559 16.6808
41.0036 16.6792
41.0512 16.5536
41.0989 16.5006
41.1465 16.428
41.1942 16.3933
41.242 16.3216
41.2896 16.3392
41.3373 16.2244
41.3849 16.2305
41.4327 16.1551
41.4803 16.0988
41.5281 16.0346
41.5758 15.9662
41.6236 15.8899
41.6712 15.8701
41.7191 15.8095
41.7667 15.7736
41.8146 15.666
41.8622 15.6563
41.9101 15.5883
41.9578 15.5124
42.0057 15.4667
42.0534 15.442
42.1013 15.4167
42.149 15.3785
42.1969 15.3149
42.2446 15.2225
42.2925 15.1855
42.3403 15.1283
42.3882 15.0958
42.436 15.051
42.4839 15.0174
42.5319 14.9147
42.5797 14.894
42.6277 14.8571
42.6755 14.8124
42.7235 14.8077
42.7713 14.6646
42.8193 14.6508
42.8671 14.5961
42.9152 14.5312
42.963 14.5151
43.0111 14.4296
43.0589 14.4148
43.107 14.3371
43.1549 14.2983
43.2029 14.2193
43.2508 14.1449
43.2989 14.1465
43.3468 14.1019
43.3949 14.0798
43.4429 14.031
43.491 13.9734
43.5389 13.9062
43.5871 13.8685
43.635 13.7876
43.6832 13.7389
43.7312 13.7257
43.7793 13.6097
43.8273 13.6257
43.8755 13.5948
43.9237 13.5328
43.9717 13.5189
44.0199 13.4532
44.068 13.3989
44.1162 13.336
44.1642 13.3453
44.2125 13.2542
44.2606 13.2123
44.3088 13.1046
44.3569 13.1226
44.4052 13.09
44.4533 13.0209
44.5016 12.9615
44.5497 12.9619
44.598 12.9019
44.6461 12.7951
44.6945 12.7594
44.7426 12.7321
44.791 12.7024
44.8391 12.6719
44.8875 12.6204
44.9357 12.5693
44.984 12.5265
45.0322 12.4672
45.0806 12.4258
45.1288 12.4102
45.1773 12.344
45.2257 12.3317
45.2739 12.2818
45.3224 12.2323
45.3706 12.1381
45.4191 12.1145
45.4673 12.1259
45.5158 12.0231
45.5641 11.952
45.6126 11.9849
45.6609 11.9017
45.7094 11.8776
45.7577 11.7983
45.8063 11.7704
45.8546 11.7769
45.9031 11.6785
45.9515 11.6388
46.0001 11.6345
46.0484 11.605
46.097 11.5551
46.1454 11.5609
46.194 11.4564
46.2424 11.4168
46.291 11.3931
46.3395 11.3554
46.3881 11.3007
46.4365 11.2866
46.4852 11.2119
46.5337 11.1737
46.5823 11.1029
46.631 11.0989
46.6795 11.0538
46.7282 10.9879
46.7767 10.9529
46.8254 10.9363
46.8739 10.8878
46.9226 10.8409
46.9712 10.8008
47.0199 10.7683
47.0685 10.6918
47.1173 10.6653
47.1658 10.6744
47.2146 10.5921
47.2632 10.574
47.312 10.5267
47.3606 10.4916
47.4095 10.4393
47.4581 10.4477
47.5069 10.3447
47.5556 10.3336
47.6044 10.2811
47.6531 10.2267
47.702 10.2216
47.7507 10.216
47.7996 10.1323
47.8483 10.086
47.8972 10.0925
47.9461 10.0491
47.9948 9.98962
48.0438 9.97396
48.0925 9.96038
48.1415 9.87582
48.1902 9.82595
48.2392 9.86809
48.288 9.82622
48.337 9.76279
48.3858 9.72146
48.4348 9.67983
48.4837 9.7111
48.5327 9.61361
48.5815 9.58059
48.6306 9.55468
48.6795 9.52663
48.7285 9.46759
48.7774 9.49043
48.8265 9.40099
48.8754 9.35515
48.9245 9.32341
48.9734 9.29002
49.0226 9.26987
49.0715 9.20132
49.1206 9.19962
49.1696 9.13549
49.2188 9.14319
49.2679 9.06112
49.3169 9.04832
49.3661 9.0123
49.4151 9.02091
49.4643 8.97377
49.5134 8.93104
49.5626 8.85733
49.6117 8.82512
49.6609 8.83325
49.71 8.80656
49.7592 8.71063
49.8083 8.70615
49.8576 8.68747
49.9067 8.62563
49.956 8.60027
50.0052 8.55264
50.0545 8.53949
50.1036 8.50897
50.153 8.51188
50.2022 8.45785
50.2515 8.40336
50.3007 8.3886
50.3501 8.33932
50.3993 8.33318
50.4487 8.29774
50.498 8.25102
50.5474 8.22431
50.5966 8.20783
50.6461 8.17605
50.6955 8.15298
50.7448 8.09827
50.7943 8.05945
50.8436 8.02128
50.8931 8.00831
50.9424 8.0001
50.9919 7.92026
51.0413 7.92129
51.0908 7.8615
51.1402 7.83191
51.1897 7.81675
51.2391 7.78884
51.2887 7.77568
51.3381 7.71137
51.3877 7.66412
51.4371 7.66355
51.4867 7.61315
51.5362 7.62002
51.5858 7.56936
51.6353 7.56204
51.6849 7.46415
51.7344 7.49445
51.7841 7.44557
51.8336 7.41723
51.8833 7.40449
51.9328 7.30775
51.9826 7.29164
52.0323 7.2972
52.0818 7.23953
52.1316 7.23936
52.1812 7.20043
52.231 7.17495
52.2806 7.15103
52.3304 7.10754
52.38 7.07348
52.4298 7.05908
52.4794 7.01497
52.5293 6.98311
52.5789 6.9535
52.6288 6.90318
52.6785 6.90968
52.7284 6.85256
52.7781 6.86221
52.828 6.85027
52.8777 6.75664
52.9276 6.73052
52.9774 6.71766
53.0273 6.73544
53.0771 6.67292
53.1271 6.70163
53.1769 6.61958
53.2269 6.58756
53.2767 6.5561
53.3267 6.53194
53.3765 6.55331
53.4266 6.46154
53.4766 6.4393
53.5265 6.42124
53.5765 6.39174
53.6264 6.37325
53.6765 6.35121
53.7264 6.31498
53.7765 6.29301
53.8265 6.26867
53.8766 6.22083
53.9266 6.25986
53.9767 6.15858
54.0267 6.13964
54.0769 6.13835
54.1269 6.07732
54.1771 6.04832
54.2271 6.03097
54.2773 5.95013
54.3274 5.98989
54.3776 5.96371
54.4277 5.92027
54.478 5.84372
54.528 5.82888
54.5783 5.79592
54.6285 5.79987
54.6788 5.74661
54.7289 5.6416
54.7792 5.64388
54.8296 5.59738
54.8798 5.49484
54.9301 5.51911
54.9803 5.45798
55.0307 5.46138
55.0809 5.39281
55.1314 5.35673
55.1816 5.29603
55.232 5.28147
55.2823 5.20741
55.3328 5.18869
55.383 5.1307
55.4335 5.09528
55.4838 5.02362
55.5344 4.98037
55.5847 4.94555
55.6352 4.94596
55.6856 4.93836
55.7361 4.8196