File: XRD/Ni3Fe_FD0557.xy
TT I
1.27165 7.64354
1.31627 6.40271
1.36089 7.20966
1.40551 6.30008
1.45013 6.37497
1.49476 6.13687
1.53938 6.04116
1.584 5.34332
1.62863 5.33359
1.67325 4.82313
1.71787 4.92511
1.7625 4.64708
1.80712 5.06313
1.85174 4.6868
1.89636 4.81712
1.94099 4.40759
1.98562 5.00816
2.03025 3.75834
2.07487 4.37824
2.11949 4.73349
2.16411 5.47108
2.20874 12.2086
2.25338 17.7611
2.298 5.76661
2.34263 5.21764
2.38725 5.67794
2.43188 5.87056
2.4765 6.77894
2.52115 6.59998
2.56577 8.09752
2.6104 7.52243
2.65503 7.47348
2.69965 7.58998
2.7443 8.14775
2.78893 7.52671
2.83356 8.23433
2.87818 8.27712
2.92281 9.60399
2.96744 9.4234
3.01209 10.208
3.05672 11.1094
3.10135 12.0204
3.14599 13.3441
3.19062 14.1138
3.23527 14.7933
3.2799 15.8168
3.32454 17.028
3.36917 17.4305
3.4138 18.8078
3.45844 19.6865
3.50309 20.8757
3.54773 21.7422
3.59237 23.5004
3.637 74.308
3.68164 48.7266
3.7263 26.1622
3.77094 26.024
3.81558 26.5622
3.86022 27.5178
3.90486 28.7333
3.9495 29.4438
3.99416 31.1299
4.0388 32.1355
4.08344 33.4762
4.12809 34.4732
4.17273 36.9385
4.21738 41.2306
4.26204 189.947
4.30669 162.675
4.35133 47.1751
4.39598 44.1982
4.44063 52.3295
4.4853 60.1786
4.52995 50.8063
4.5746 51.5119
4.61925 53.7927
4.6639 55.6886
4.70855 58.8213
4.75322 61.7656
4.79788 64.7519
4.84253 68.3381
4.88719 72.0377
4.93184 76.3013
4.97652 81.7395
5.02118 87.853
5.06583 96.9543
5.11049 109.441
5.15515 167.166
5.19981 418.963
5.24449 3128.78
5.28916 12271.4
5.33382 3081.82
5.37848 194.586
5.42315 130.402
5.46783 114.578
5.5125 107.163
5.55716 103.088
5.60183 99.4981
5.6465 96.9966
5.69117 94.9057
5.73586 93.0073
5.78053 93.1408
5.8252 92.4183
5.86988 93.6275
5.91455 96.5781
5.95924 106.603
6.00392 244.78
6.0486 1086.4
6.09328 4439.1
6.13795 3472.15
6.18263 256.109
6.22733 94.2481
6.27201 83.0277
6.3167 94.9342
6.36138 78.5332
6.40606 69.3617
6.45075 67.5143
6.49545 65.5069
6.54014 64.4806
6.58483 63.0382
6.62952 62.6789
6.67421 85.6376
6.71892 119.761
6.76361 66.0051
6.8083 58.6439
6.853 57.4448
6.89769 57.3393
6.94239 56.6647
6.98711 55.9407
7.03181 55.7157
7.07651 55.1645
7.12121 54.8373
7.16591 55.3675
7.21063 55.2496
7.25533 67.069
7.30004 143.86
7.34475 81.4691
7.38945 56.0602
7.43416 54.3951
7.47889 54.5723
7.5236 54.9101
7.56831 55.4233
7.61303 56.6579
7.65774 56.935
7.70247 56.4036
7.74719 56.6352
7.79191 57.2368
7.83663 56.8589
7.88135 58.3268
7.92607 59.1363
7.97081 60.4662
8.01553 61.2756
8.06026 62.8535
8.10498 64.0051
8.14971 71.4447
8.19446 71.2421
8.23919 69.8856
8.28392 72.2854
8.32865 74.986
8.37339 78.9812
8.41812 85.7612
8.46288 110.816
8.50761 182.638
8.55235 430.725
8.59709 1225.86
8.64183 2208.99
8.68658 942.444
8.73134 165.428
8.77609 100.415
8.82083 93.349
8.86558 90.2074
8.91033 89.6357
8.9551 90.3202
8.99985 85.6364
9.04461 83.7204
9.08936 83.2195
9.13412 82.4752
9.17888 82.5912
9.22365 83.3982
9.26841 82.7682
9.31318 83.4159
9.35794 83.3749
9.4027 84.1504
9.44749 84.8795
9.49226 84.9056
9.53703 86.298
9.5818 88.279
9.62657 92.0984
9.67134 96.6763
9.71614 94.0444
9.76091 94.6347
9.80569 96.7877
9.85047 100.346
9.89525 119.662
9.94005 134.123
9.98484 195.515
10.0296 374.773
10.0744 847.499
10.1192 1712.62
10.164 1548.24
10.2088 384.665
10.2536 125.892
10.2984 112.809
10.3432 113.07
10.388 105.281
10.4328 124.231
10.4776 168.881
10.5224 292.143
10.5672 515.876
10.612 496.042
10.6568 192.112
10.7017 95.5731
10.7465 86.9629
10.7913 83.6335
10.8361 81.5207
10.8809 79.4751
10.9257 78.3399
10.9706 78.3151
11.0154 74.857
11.0602 72.9034
11.105 71.921
11.1499 74.8213
11.1947 79.7321
11.2395 73.2678
11.2844 69.8245
11.3292 67.4216
11.374 66.4685
11.4189 66.0183
11.4637 65.356
11.5086 65.3014
11.5534 67.2858
11.5983 65.5365
11.6431 63.8393
11.688 63.4076
11.7328 63.3136
11.7777 63.0724
11.8225 62.8461
11.8674 62.7852
11.9122 63.2153
11.9571 63.5612
12.002 64.5123
12.0468 69.8473
12.0917 81.5885
12.1366 105.85
12.1814 155.576
12.2263 202.798
12.2712 160.595
12.3161 91.8674
12.3609 69.0956
12.4058 64.7657
12.4507 64.7312
12.4956 64.7089
12.5405 64.8999
12.5853 65.894
12.6302 71.0626
12.6751 75.2398
12.72 69.5362
12.7649 67.9613
12.8098 68.7254
12.8547 70.1251
12.8996 71.3946
12.9445 72.7194
12.9894 74.7739
13.0343 76.3032
13.0792 80.1959
13.1242 91.7989
13.1691 116.665
13.214 156.487
13.2589 247.8
13.3038 374.673
13.3487 428.769
13.3937 257.607
13.4386 122.081
13.4835 108.97
13.5285 125.141
13.5734 165.363
13.6183 252.988
13.6633 348.466
13.7082 339.637
13.7531 180.84
13.7981 96.3726
13.843 82.0847
13.888 79.8587
13.9329 77.7438
13.9779 76.134
14.0228 74.8299
14.0678 73.4829
14.1127 72.8536
14.1577 72.7928
14.2027 71.8979
14.2476 70.8768
14.2926 70.688
14.3376 71.669
14.3825 70.3859
14.4275 69.3942
14.4725 69.264
14.5175 69.6539
14.5624 69.4527
14.6074 70.9329
14.6524 71.6075
14.6974 71.0289
14.7424 73.5005
14.7874 81.1882
14.8324 91.998
14.8774 114.373
14.9224 156.903
14.9674 208.047
15.0124 217.982
15.0574 145.714
15.1024 88.6431
15.1474 72.4992
15.1924 70.7078
15.2374 70.8771
15.2824 70.2688
15.3274 68.4227
15.3725 67.3504
15.4175 66.6931
15.4625 66.4731
15.5076 66.5335
15.5526 66.5415
15.5976 66.5592
15.6426 68.2764
15.6877 74.3079
15.7327 82.2955
15.7778 98.1451
15.8228 130.379
15.8679 172.368
15.9129 194.667
15.958 154.429
16.003 95.1133
16.0481 67.4651
16.0931 64.1709
16.1382 62.5341
16.1833 60.8682
16.2283 59.361
16.2734 58.5025
16.3185 58.806
16.3636 58.9511
16.4086 57.8776
16.4537 56.5103
16.4988 55.9105
16.5439 55.7774
16.589 55.6309
16.6341 55.2633
16.6792 54.8441
16.7243 55.3876
16.7694 55.3929
16.8145 55.0465
16.8596 55.4559
16.9047 56.5041
16.9498 56.7666
16.9949 55.9934
17.04 56.4501
17.0851 57.7393
17.1302 59.3553
17.1754 62.5941
17.2205 67.7007
17.2656 75.0304
17.3108 82.4534
17.3559 81.7618
17.401 71.3602
17.4462 61.9667
17.4913 59.4408
17.5365 59.4287
17.5815 59.6041
17.6268 60.0059
17.6718 60.7885
17.7171 61.2677
17.7622 61.8521
17.8074 62.7076
17.8525 65.7483
17.8977 69.7707
17.9428 75.2454
17.9881 84.5928
18.0331 101.924
18.0784 123.27
18.1237 141.076
18.1688 132.191
18.214 103.21
18.2591 87.0671
18.3044 91.7798
18.3495 101.272
18.3948 106.569
18.4399 95.4646
18.4852 77.1062
18.5303 65.9438
18.5756 62.7007
18.6207 61.699
18.666 60.916
18.7112 60.1137
18.7565 59.2351
18.8016 59.0511
18.8469 58.3029
18.892 58.1045
18.9374 57.7298
18.9825 57.5169
19.0278 57.1416
19.073 57.4897
19.1183 58.1245
19.1635 58.703
19.2088 60.0002
19.254 62.9947
19.2993 67.4509
19.3447 73.0393
19.3898 76.4862
19.4352 72.1759
19.4804 63.1987
19.5257 57.0305
19.5709 54.6454
19.6163 54.2384
19.6615 53.8962
19.7068 53.6907
19.752 53.6564
19.7974 53.9928
19.8426 54.9245
19.888 55.575
19.9332 56.973
19.9786 59.6302
20.0238 62.952
20.0692 67.8671
20.1144 70.355
20.1598 68.5406
20.205 64.0554
20.2504 62.5568
20.2957 64.3285
20.3411 65.9871
20.3863 64.1753
20.4318 58.3235
20.477 53.6543
20.5224 51.7249
20.5677 51.1853
20.6131 50.4265
20.6586 50.0226
20.7038 49.6891
20.7493 49.4959
20.7945 49.3589
20.84 49.2733
20.8853 49.1428
20.9307 48.7548
20.976 49.075
21.0215 48.977
21.0668 49.514
21.1122 50.0022
21.1575 50.5
21.203 51.1552
21.2483 51.693
21.2938 51.6996
21.3391 50.3562
21.3846 49.2329
21.4299 48.6849
21.4754 48.6763
21.5207 48.9066
21.5662 49.39
21.6116 49.7341
21.6571 50.3119
21.7024 51.3593
21.7479 53.3657
21.7933 56.1629
21.8388 59.5075
21.8843 63.1413
21.9297 65.0157
21.9752 63.6115
22.0206 59.825
22.0661 56.8956
22.1115 56.2597
22.157 56.3456
22.2024 54.3553
22.248 51.6673
22.2933 50.2687
22.3389 49.3235
22.3843 49.2887
22.4299 48.9361
22.4753 49.1444
22.5208 48.9929
22.5662 48.8166
22.6118 48.9599
22.6572 49.2253
22.7028 49.7904
22.7483 50.3978
22.7939 50.8806
22.8393 52.4738
22.8849 54.6829
22.9303 56.6419
22.9759 58.0114
23.0214 57.7128
23.067 54.4906
23.1126 51.1247
23.1581 49.4535
23.2037 49.113
23.2492 49.1167
23.2948 49.3591
23.3403 49.5521
23.3859 50.2305
23.4314 51.3843
23.477 53.1022
23.5225 55.2632
23.5682 57.3091
23.6137 58.3496
23.6593 55.7467
23.7048 51.5752
23.7505 48.3722
23.796 46.8895
23.8417 46.193
23.8872 45.727
23.9329 45.4811
23.9784 45.1638
24.0241 44.8399
24.0697 44.7623
24.1154 44.4815
24.1609 44.3203
24.2066 44.139
24.2522 43.9557
24.2979 43.7062
24.3434 43.6947
24.3892 43.5042
24.4349 43.4657
24.4805 43.159
24.5262 43.4027
24.5718 43.1978
24.6175 43.1142
24.6631 43.0792
24.7089 42.7187
24.7545 42.5452
24.8002 42.3876
24.8458 42.4628
24.8916 42.3929
24.9372 42.5248
24.983 42.8489
25.0286 43.213
25.0744 43.5018
25.12 44.0453
25.1658 44.7285
25.2114 44.9962
25.2572 45.0853
25.3029 45.1488
25.3487 45.0196
25.3943 44.902
25.4402 43.6985
25.4858 42.6468
25.5316 41.6888
25.5773 41.2236
25.6231 41.1794
25.669 40.7577
25.7147 40.7843
25.7605 40.7358
25.8062 40.616
25.8521 40.917
25.8977 40.9292
25.9436 40.9871
25.9893 41.2956
26.0352 41.7822
26.0809 41.9006
26.1268 41.9749
26.1725 41.6854
26.2184 40.9274
26.2641 40.5447
26.31 40.3714
26.3557 40.395
26.4017 40.3732
26.4474 40.7022
26.4933 41.1613
26.5391 41.5301
26.585 41.9772
26.6308 42.3405
26.6767 42.4213
26.7225 42.3033
26.7684 41.6765
26.8142 40.9661
26.8601 40.5149
26.9059 40.2137
26.9519 39.7145
26.9979 39.3723
27.0437 39.1038
27.0896 39.0153
27.1354 39.0345
27.1814 38.9427
27.2272 38.673
27.2732 38.7285
27.3191 38.6106
27.3651 38.7749
27.4109 38.7112
27.4569 38.8776
27.5027 38.7703
27.5488 38.8399
27.5946 38.5334
27.6407 38.3956
27.6865 38.3694
27.7326 38.0895
27.7784 37.9951
27.8245 38.1244
27.8703 38.3504
27.9164 38.5823
27.9623 38.5597
28.0084 39.0748
28.0543 39.3795
28.1003 39.1585
28.1462 38.9509
28.1923 38.6817
28.2384 38.0982
28.2843 37.7891
28.3304 37.3476
28.3764 37.0332
28.4225 36.4668
28.4684 36.5254
28.5145 36.1372
28.5605 36.1223
28.6066 35.8718
28.6526 35.7434
28.6987 35.8003
28.7447 35.6994
28.7908 35.6926
28.8368 35.6741
28.8829 35.5903
28.9289 35.5976
28.9751 35.3201
29.0211 35.1635
29.0673 34.8777
29.1133 34.6835
29.1595 34.5247
29.2055 34.6391
29.2517 34.6118
29.2977 34.4976
29.3439 34.4342
29.3899 34.484
29.4361 34.3503
29.4824 34.1472
29.5284 33.9372
29.5746 33.6521
29.6207 33.3341
29.6669 33.2482
29.713 33.0939
29.7593 33.1494
29.8053 33.0392
29.8516 32.9863
29.8977 32.8868
29.9439 32.7946
29.99 32.8022
30.0363 32.6131
30.0824 32.7372
30.1287 32.6795
30.1748 32.6368
30.2211 32.7275
30.2673 32.3599
30.3136 32.5375
30.3597 32.5385
30.406 32.3511
30.4522 32.1973
30.4985 32.3378
30.5447 32.3615
30.591 32.31
30.6372 32.3996
30.6835 32.3433
30.7297 32.4506
30.7761 32.3401
30.8224 32.1572
30.8686 32.1128
30.915 31.7795
30.9612 31.6747
31.0076 31.4894
31.0538 31.3322
31.1002 31.2897
31.1464 31.0733
31.1928 31.116
31.2391 31.2561
31.2855 31.1208
31.3317 30.997
31.3781 31.0692
31.4244 31.0664
31.4708 30.9976
31.5171 30.9683
31.5636 30.9333
31.6098 30.7815
31.6563 30.5619
31.7026 30.4255
31.7491 30.2472
31.7953 30.419
31.8418 30.2408
31.8881 30.3849
31.9346 30.166
31.9809 30.1833
32.0275 30.0049
32.074 29.9658
32.1203 29.767
32.1668 29.7276
32.2132 29.524
32.2597 29.5676
32.306 29.3664
32.3526 29.0836
32.399 29.045
32.4455 28.964
32.4919 28.8428
32.5385 28.881
32.5848 28.6577
32.6314 28.7242
32.6778 28.6142
32.7244 28.4351
32.7708 28.3111
32.8174 28.3181
32.8638 28.1445
32.9104 28.2672
32.9569 28.1051
33.0035 28.0364
33.0499 28.1388
33.0966 27.9389
33.143 27.9572
33.1897 27.8251
33.2361 27.7516
33.2828 27.68
33.3293 27.4503
33.3759 27.4989
33.4226 27.3661
33.4691 27.2823
33.5158 27.138
33.5623 27.1012
33.609 26.9433
33.6555 26.8586
33.7022 26.7899
33.7487 26.7178
33.7954 26.5647
33.842 26.5855
33.8887 26.4524
33.9353 26.3217
33.982 26.2815
34.0286 26.2705
34.0753 26.0906
34.1219 26.0021
34.1687 26.0045
34.2152 26.0148
34.262 25.7347
34.3086 25.6911
34.3554 25.6671
34.402 25.6215
34.4488 25.3978
34.4954 25.4039
34.5422 25.2917
34.5889 25.242
34.6357 25.122
34.6825 25.0699
34.7292 24.9713
34.776 24.8237
34.8227 24.7581
34.8695 24.8269
34.9162 24.7386
34.9631 24.6163
35.0098 24.5704
35.0566 24.5202
35.1033 24.4886
35.1502 24.449
35.1969 24.3238
35.2438 24.3232
35.2906 24.227
35.3375 24.2018
35.3842 24.0635
35.4311 24.19
35.4779 24.0719
35.5248 24.067
35.5716 23.9752
35.6185 23.8074
35.6653 23.7771
35.7123 23.6502
35.759 23.6145
35.806 23.44
35.8528 23.3883
35.8998 23.2746
35.9468 23.2921
35.9936 23.2227
36.0406 23.1062
36.0874 23.1015
36.1345 22.9833
36.1813 22.9211
36.2283 22.875
36.2752 22.7498
36.3222 22.78
36.3691 22.6951
36.4161 22.5921
36.463 22.5158
36.5101 22.6329
36.557 22.4976
36.6041 22.3153
36.651 22.3371
36.6981 22.2241
36.745 22.2874
36.7921 22.101
36.839 21.9641
36.8861 21.8875
36.9331 21.9026
36.9802 21.8305
37.0272 21.6888
37.0743 21.6002
37.1213 21.6149
37.1684 21.5178
37.2154 21.4876
37.2626 21.4225
37.3098 21.3724
37.3568 21.2393
37.404 21.2597
37.451 21.0768
37.4982 21.028
37.5452 21.0232
37.5924 20.9175
37.6395 20.8974
37.6867 20.8727
37.7337 20.6767
37.781 20.6636
37.8281 20.5704
37.8753 20.5321
37.9224 20.4578
37.9697 20.3381
38.0168 20.3287
38.064 20.2739
38.1111 20.2305
38.1584 20.1535
38.2056 20.0341
38.2529 19.983
38.3 19.9364
38.3473 19.8932
38.3945 19.7875
38.4418 19.8135
38.489 19.7287
38.5363 19.5931
38.5837 19.5175
38.6309 19.53
38.6782 19.4215
38.7254 19.3421
38.7728 19.3461
38.82 19.2526
38.8674 19.1775
38.9146 19.1917
38.9621 19.0532
39.0093 19.0771
39.0567 18.9355
39.104 18.9157
39.1514 18.8305
39.1987 18.7554
39.2461 18.7652
39.2934 18.7198
39.3409 18.59
39.3882 18.4639
39.4356 18.4425
39.483 18.4175
39.5304 18.4128
39.5778 18.3547
39.6253 18.2395
39.6726 18.2106
39.7201 18.1568
39.7675 18.0617
39.815 17.9776
39.8624 17.9237
39.9099 17.9378
39.9575 17.7862
40.0049 17.8108
40.0525 17.7244
40.0999 17.6748
40.1474 17.5894
40.1949 17.5925
40.2425 17.4665
40.2899 17.413
40.3375 17.4528
40.385 17.3893
40.4326 17.2841
40.48 17.2529
40.5277 17.1904
40.5752 17.1869
40.6228 17.0748
40.6703 16.9816
40.718 17.0254
40.7655 16.914
40.8132 16.818
40.8607 16.8853
40.9084 16.7631
40.9559 16.6322
41.0036 16.6277
41.0512 16.5735
41.0989 16.5538
41.1465 16.4803
41.1942 16.4904
41.242 16.3822
41.2896 16.3106
41.3373 16.2485
41.3849 16.2508
41.4327 16.1376
41.4803 16.1044
41.5281 16.0004
41.5758 15.9631
41.6236 15.8762
41.6712 15.9048
41.7191 15.8286
41.7667 15.7694
41.8146 15.7308
41.8622 15.6318
41.9101 15.6428
41.9578 15.4984
42.0057 15.5054
42.0534 15.4547
42.1013 15.4381
42.149 15.3918
42.1969 15.3092
42.2446 15.2677
42.2925 15.231
42.3403 15.1645
42.3882 15.1588
42.436 15.0901
42.4839 14.9426
42.5319 15.0237
42.5797 14.8807
42.6277 14.7949
42.6755 14.8023
42.7235 14.7418
42.7713 14.6697
42.8193 14.6926
42.8671 14.5884
42.9152 14.5513
42.963 14.5208
43.0111 14.4506
43.0589 14.3647
43.107 14.3411
43.1549 14.2884
43.2029 14.2619
43.2508 14.1842
43.2989 14.1709
43.3468 14.1009
43.3949 14.0253
43.4429 14.0363
43.491 14.008
43.5389 13.8956
43.5871 13.9076
43.635 13.7863
43.6832 13.7601
43.7312 13.7097
43.7793 13.6527
43.8273 13.6173
43.8755 13.5972
43.9237 13.5352
43.9717 13.4765
44.0199 13.4153
44.068 13.4187
44.1162 13.3781
44.1642 13.3159
44.2125 13.2425
44.2606 13.1739
44.3088 13.1551
44.3569 13.1356
44.4052 13.0577
44.4533 12.9727
44.5016 12.9414
44.5497 12.9439
44.598 12.9186
44.6461 12.8301
44.6945 12.7876
44.7426 12.7763
44.791 12.7188
44.8391 12.6928
44.8875 12.5758
44.9357 12.5794
44.984 12.513
45.0322 12.4777
45.0806 12.4527
45.1288 12.4009
45.1773 12.3179
45.2257 12.3416
45.2739 12.2812
45.3224 12.2335
45.3706 12.1807
45.4191 12.1527
45.4673 12.1241
45.5158 12.0305
45.5641 11.9882
45.6126 12.0019
45.6609 11.9026
45.7094 11.851
45.7577 11.8084
45.8063 11.7577
45.8546 11.7691
45.9031 11.7288
45.9515 11.6812
46.0001 11.6063
46.0484 11.6035
46.097 11.598
46.1454 11.5113
46.194 11.4428
46.2424 11.4223
46.291 11.3989
46.3395 11.321
46.3881 11.2865
46.4365 11.2821
46.4852 11.2015
46.5337 11.1683
46.5823 11.1348
46.631 11.0986
46.6795 11.0692
46.7282 11.0334
46.7767 11.0026
46.8254 10.9379
46.8739 10.8895
46.9226 10.8386
46.9712 10.8102
47.0199 10.7771
47.0685 10.7375
47.1173 10.7068
47.1658 10.6313
47.2146 10.5964
47.2632 10.5861
47.312 10.5376
47.3606 10.4956
47.4095 10.4716
47.4581 10.3971
47.5069 10.3796
47.5556 10.3124
47.6044 10.3052
47.6531 10.2604
47.702 10.2117
47.7507 10.1826
47.7996 10.1541
47.8483 10.1061
47.8972 10.0625
47.9461 10.04
47.9948 9.97275
48.0438 9.94264
48.0925 9.93336
48.1415 9.89664
48.1902 9.87211
48.2392 9.84233
48.288 9.7905
48.337 9.76341
48.3858 9.7308
48.4348 9.68958
48.4837 9.64127
48.5327 9.65958
48.5815 9.58821
48.6306 9.53477
48.6795 9.49291
48.7285 9.49855
48.7774 9.44757
48.8265 9.44252
48.8754 9.36342
48.9245 9.31768
48.9734 9.2713
49.0226 9.24206
49.0715 9.23409
49.1206 9.18452
49.1696 9.16345
49.2188 9.12696
49.2679 9.07995
49.3169 9.0599
49.3661 9.02438
49.4151 8.97084
49.4643 8.96331
49.5134 8.90762
49.5626 8.85482
49.6117 8.88172
49.6609 8.8359
49.71 8.75322
49.7592 8.74252
49.8083 8.73041
49.8576 8.67151
49.9067 8.65751
49.956 8.61437
50.0052 8.55656
50.0545 8.60811
50.1036 8.52325
50.153 8.48943
50.2022 8.43992
50.2515 8.42548
50.3007 8.36829
50.3501 8.32165
50.3993 8.34992
50.4487 8.26453
50.498 8.26571
50.5474 8.20268
50.5966 8.1874
50.6461 8.16583
50.6955 8.12736
50.7448 8.07818
50.7943 8.11343
50.8436 8.01506
50.8931 8.01376
50.9424 7.95497
50.9919 7.95406
51.0413 7.91896
51.0908 7.82678
51.1402 7.83633
51.1897 7.80604
51.2391 7.76181
51.2887 7.78409
51.3381 7.70984
51.3877 7.69166
51.4371 7.65013
51.4867 7.6136
51.5362 7.61731
51.5858 7.57906
51.6353 7.55442
51.6849 7.49198
51.7344 7.48604
51.7841 7.46244
51.8336 7.40961
51.8833 7.39261
51.9328 7.34441
51.9826 7.31918
52.0323 7.26664
52.0818 7.24068
52.1316 7.19426
52.1812 7.19002
52.231 7.11805
52.2806 7.1306
52.3304 7.11193
52.38 7.07569
52.4298 7.06511
52.4794 7.00101
52.5293 6.95611
52.5789 6.95386
52.6288 6.93173
52.6785 6.90151
52.7284 6.89238
52.7781 6.83988
52.828 6.80748
52.8777 6.78277
52.9276 6.75831
52.9774 6.75684
53.0273 6.6975
53.0771 6.68889
53.1271 6.67291
53.1769 6.64974
53.2269 6.58441
53.2767 6.55502
53.3267 6.54391
53.3765 6.49049
53.4266 6.49806
53.4766 6.42437
53.5265 6.41614
53.5765 6.38065
53.6264 6.33833
53.6765 6.33574
53.7264 6.35679
53.7765 6.30934
53.8265 6.28275
53.8766 6.20425
53.9266 6.19796
53.9767 6.16922
54.0267 6.11382
54.0769 6.11876
54.1269 6.06895
54.1771 6.01708
54.2271 6.05534
54.2773 5.98412
54.3274 5.973
54.3776 5.92875
54.4277 5.91758
54.478 5.88617
54.528 5.83645
54.5783 5.83626
54.6285 5.74981
54.6788 5.71613
54.7289 5.62145
54.7792 5.6151
54.8296 5.5622
54.8798 5.5308
54.9301 5.48384
54.9803 5.50497
55.0307 5.43613
55.0809 5.41818
55.1314 5.36427
55.1816 5.28088
55.232 5.26409
55.2823 5.2917
55.3328 5.18226
55.383 5.15964
55.4335 5.06066
55.4838 5.01844
55.5344 5.00047
55.5847 4.967
55.6352 4.92021
55.6856 4.87838
55.7361 4.77753