File: XRD/Ni3Fe_FD0272.xy
TT I
1.27165 7.71762
1.31627 6.88938
1.36089 7.34607
1.40551 6.29336
1.45013 6.13876
1.49476 6.84189
1.53938 5.61575
1.584 5.50492
1.62863 6.06698
1.67325 5.59769
1.71787 4.81859
1.7625 5.05603
1.80712 4.69845
1.85174 4.88799
1.89636 4.90947
1.94099 4.47965
1.98562 4.40619
2.03025 5.01445
2.07487 5.05175
2.11949 4.98116
2.16411 4.75304
2.20874 13.2208
2.25338 20.0604
2.298 5.75869
2.34263 4.64826
2.38725 5.37909
2.43188 4.07476
2.4765 5.87384
2.52115 5.54655
2.56577 5.77278
2.6104 6.75975
2.65503 5.93116
2.69965 6.48971
2.7443 7.07531
2.78893 7.14851
2.83356 7.54524
2.87818 8.37319
2.92281 8.43094
2.96744 9.93787
3.01209 10.1807
3.05672 11.032
3.10135 12.2544
3.14599 13.3664
3.19062 14.0848
3.23527 14.9176
3.2799 15.5687
3.32454 17.3489
3.36917 17.5757
3.4138 19.2552
3.45844 20.0537
3.50309 21.2202
3.54773 22.4119
3.59237 24.028
3.637 85.5061
3.68164 56.1213
3.7263 26.6177
3.77094 26.6482
3.81558 27.3976
3.86022 28.2885
3.90486 29.7801
3.9495 30.4537
3.99416 31.5704
4.0388 32.6181
4.08344 34.548
4.12809 35.6452
4.17273 37.9038
4.21738 43.8379
4.26204 224.37
4.30669 201.297
4.35133 49.6667
4.39598 45.75
4.44063 53.9565
4.4853 65.1961
4.52995 53.8771
4.5746 53.1901
4.61925 55.0021
4.6639 57.7923
4.70855 60.2006
4.75322 63.7868
4.79788 66.6972
4.84253 69.839
4.88719 75.3243
4.93184 78.3808
4.97652 85.1726
5.02118 92.8915
5.06583 101.778
5.11049 117.086
5.15515 192.743
5.19981 529.962
5.24449 3379.59
5.28916 10805.0
5.33382 4129.94
5.37848 266.606
5.42315 149.358
5.46783 126.628
5.5125 115.508
5.55716 109.629
5.60183 105.015
5.6465 102.703
5.69117 100.17
5.73586 97.5114
5.78053 98.7528
5.8252 98.4909
5.86988 99.6308
5.91455 103.27
5.95924 116.512
6.00392 273.597
6.0486 1180.1
6.09328 3709.23
6.13795 3709.42
6.18263 369.814
6.22733 108.356
6.27201 89.9095
6.3167 104.574
6.36138 83.8935
6.40606 73.1904
6.45075 70.6784
6.49545 68.403
6.54014 66.3004
6.58483 65.3727
6.62952 65.3442
6.67421 92.0897
6.71892 138.43
6.76361 70.2933
6.8083 60.9159
6.853 59.8181
6.89769 58.901
6.94239 58.5892
6.98711 58.0214
7.03181 57.4151
7.07651 57.5799
7.12121 57.5206
7.16591 57.7092
7.21063 57.3755
7.25533 70.2258
7.30004 168.175
7.34475 90.9159
7.38945 58.4056
7.43416 56.4948
7.47889 56.7028
7.5236 56.4929
7.56831 57.4355
7.61303 58.9649
7.65774 59.6272
7.70247 58.1413
7.74719 58.2627
7.79191 58.9503
7.83663 59.1398
7.88135 60.008
7.92607 61.0267
7.97081 62.2217
8.01553 63.1935
8.06026 64.911
8.10498 66.7031
8.14971 75.6596
8.19446 75.0753
8.23919 72.4869
8.28392 74.9494
8.32865 77.9622
8.37339 82.391
8.41812 89.8224
8.46288 119.485
8.50761 196.067
8.55235 480.409
8.59709 1070.13
8.64183 2001.45
8.68658 1248.04
8.73134 235.745
8.77609 109.98
8.82083 98.637
8.86558 94.988
8.91033 94.8116
8.9551 95.0813
8.99985 89.5156
9.04461 87.3682
9.08936 86.8648
9.13412 86.2188
9.17888 85.6356
9.22365 86.1286
9.26841 85.6167
9.31318 86.8842
9.35794 86.8533
9.4027 87.1037
9.44749 87.9836
9.49226 88.3604
9.53703 89.4135
9.5818 91.2973
9.62657 95.6678
9.67134 101.972
9.71614 97.8898
9.76091 98.6553
9.80569 101.373
9.85047 105.454
9.89525 127.628
9.94005 142.512
9.98484 205.459
10.0296 426.132
10.0744 777.145
10.1192 1473.22
10.164 1712.31
10.2088 595.848
10.2536 153.464
10.2984 121.173
10.3432 120.607
10.388 110.837
10.4328 129.182
10.4776 184.002
10.5224 273.041
10.5672 456.251
10.612 536.463
10.6568 261.211
10.7017 108.425
10.7465 91.3595
10.7913 87.4237
10.8361 85.1225
10.8809 82.6468
10.9257 81.6618
10.9706 82.3116
11.0154 78.2324
11.0602 75.805
11.105 74.9643
11.1499 77.9414
11.1947 85.3945
11.2395 76.8972
11.2844 72.9263
11.3292 69.8338
11.374 68.8187
11.4189 68.4389
11.4637 67.4833
11.5086 67.6851
11.5534 70.5211
11.5983 67.907
11.6431 66.0
11.688 65.6183
11.7328 65.4155
11.7777 65.5583
11.8225 65.4289
11.8674 64.7723
11.9122 65.2536
11.9571 65.4657
12.002 66.4955
12.0468 72.2325
12.0917 86.8035
12.1366 106.47
12.1814 141.718
12.2263 194.197
12.2712 185.838
12.3161 113.016
12.3609 74.8597
12.4058 67.7302
12.4507 67.115
12.4956 67.2469
12.5405 67.0505
12.5853 68.0385
12.6302 75.2498
12.6751 80.3532
12.72 72.6752
12.7649 70.6433
12.8098 71.185
12.8547 72.5746
12.8996 73.9509
12.9445 75.2565
12.9894 77.3802
13.0343 78.8802
13.0792 82.4405
13.1242 93.9787
13.1691 125.824
13.214 162.876
13.2589 224.329
13.3038 328.857
13.3487 427.39
13.3937 322.001
13.4386 152.949
13.4835 116.106
13.5285 136.684
13.5734 165.754
13.6183 226.832
13.6633 317.928
13.7082 357.933
13.7531 235.934
13.7981 114.233
13.843 86.5526
13.888 83.6099
13.9329 80.8189
13.9779 79.1531
14.0228 77.7592
14.0678 76.3981
14.1127 75.7411
14.1577 75.3842
14.2027 74.5958
14.2476 73.6779
14.2926 73.3983
14.3376 74.2955
14.3825 73.0372
14.4275 71.8247
14.4725 71.5943
14.5175 71.703
14.5624 71.9668
14.6074 73.8742
14.6524 74.5091
14.6974 73.4941
14.7424 75.3586
14.7874 84.3774
14.8324 98.2604
14.8774 114.568
14.9224 144.452
14.9674 189.379
15.0124 218.578
15.0574 174.05
15.1024 105.879
15.1474 77.3591
15.1924 73.7323
15.2374 74.1506
15.2824 73.095
15.3274 71.005
15.3725 70.0002
15.4175 69.2312
15.4625 68.9642
15.5076 68.9868
15.5526 69.0427
15.5976 68.7834
15.6426 70.1447
15.6877 77.0537
15.7327 87.7818
15.7778 99.7809
15.8228 121.23
15.8679 155.599
15.9129 189.657
15.958 175.087
16.003 115.445
16.0481 74.8829
16.0931 67.8113
16.1382 65.3405
16.1833 63.1693
16.2283 61.5572
16.2734 61.0425
16.3185 60.9766
16.3636 61.4013
16.4086 60.0007
16.4537 58.5927
16.4988 57.8021
16.5439 57.6917
16.589 57.6029
16.6341 57.1212
16.6792 56.8176
16.7243 56.9424
16.7694 57.0138
16.8145 57.0644
16.8596 57.6499
16.9047 58.9884
16.9498 59.1538
16.9949 57.9209
17.04 58.1439
17.0851 59.8563
17.1302 62.0215
17.1754 64.7298
17.2205 68.2272
17.2656 73.8354
17.3108 82.1718
17.3559 85.3903
17.401 77.8009
17.4462 66.593
17.4913 62.01
17.5365 61.6403
17.5815 61.6455
17.6268 62.165
17.6718 62.9436
17.7171 63.4887
17.7622 63.881
17.8074 64.3846
17.8525 67.1782
17.8977 72.5845
17.9428 79.2885
17.9881 85.607
18.0331 97.7261
18.0784 115.521
18.1237 136.578
18.1688 142.13
18.214 119.478
18.2591 94.0933
18.3044 90.9283
18.3495 98.0582
18.3948 107.024
18.4399 103.182
18.4852 85.6599
18.5303 70.9929
18.5756 65.4914
18.6207 64.1007
18.666 63.0563
18.7112 62.3038
18.7565 61.5136
18.8016 61.1726
18.8469 60.5362
18.892 60.0277
18.9374 59.5796
18.9825 59.529
19.0278 59.52
19.073 59.5067
19.1183 59.9271
19.1635 61.2527
19.2088 62.6358
19.254 64.1247
19.2993 67.0969
19.3447 72.2683
19.3898 77.312
19.4352 76.7296
19.4804 69.1829
19.5257 60.8258
19.5709 56.9458
19.6163 56.1644
19.6615 56.045
19.7068 55.8146
19.752 55.6776
19.7974 56.0253
19.8426 56.9048
19.888 57.8479
19.9332 58.9121
19.9786 60.642
20.0238 63.0854
20.0692 67.5509
20.1144 71.9001
20.1598 72.276
20.205 67.7262
20.2504 64.3308
20.2957 64.6634
20.3411 66.7827
20.3863 67.1882
20.4318 62.8738
20.477 57.2028
20.5224 54.248
20.5677 53.2831
20.6131 52.4673
20.6586 51.7956
20.7038 51.8129
20.7493 51.3426
20.7945 51.088
20.84 51.0868
20.8853 50.8194
20.9307 50.599
20.976 50.9393
21.0215 50.8486
21.0668 51.1269
21.1122 51.5688
21.1575 51.8866
21.203 52.4119
21.2483 53.2547
21.2938 53.7223
21.3391 52.5449
21.3846 51.4292
21.4299 50.6365
21.4754 50.497
21.5207 50.5696
21.5662 50.9396
21.6116 51.3248
21.6571 52.3563
21.7024 53.5871
21.7479 54.8246
21.7933 56.7962
21.8388 59.6199
21.8843 63.2834
21.9297 66.2029
21.9752 66.9358
22.0206 63.5602
22.0661 59.2685
22.1115 57.9847
22.157 57.9988
22.2024 57.3072
22.248 54.518
22.2933 52.5185
22.3389 51.27
22.3843 51.2684
22.4299 51.0493
22.4753 51.0399
22.5208 50.6291
22.5662 50.5593
22.6118 50.7156
22.6572 50.9137
22.7028 51.5671
22.7483 52.0943
22.7939 52.5134
22.8393 53.6933
22.8849 55.1662
22.9303 56.9681
22.9759 59.1794
23.0214 59.925
23.067 57.9832
23.1126 54.6737
23.1581 51.8155
23.2037 51.0812
23.2492 51.0906
23.2948 51.0662
23.3403 51.5301
23.3859 52.192
23.4314 52.6623
23.477 53.9537
23.5225 55.747
23.5682 57.5391
23.6137 59.6229
23.6593 58.8638
23.7048 55.2887
23.7505 51.4697
23.796 49.0355
23.8417 47.9782
23.8872 47.6044
23.9329 47.261
23.9784 46.8438
24.0241 46.6204
24.0697 46.3481
24.1154 46.1327
24.1609 45.9706
24.2066 45.7489
24.2522 45.7092
24.2979 45.4285
24.3434 45.1571
24.3892 44.9301
24.4349 44.9167
24.4805 44.6836
24.5262 44.8598
24.5718 44.6432
24.6175 44.8177
24.6631 44.6267
24.7089 44.379
24.7545 44.038
24.8002 43.957
24.8458 44.0108
24.8916 43.7929
24.9372 44.0421
24.983 44.2501
25.0286 44.5902
25.0744 44.9502
25.12 45.1825
25.1658 45.9058
25.2114 46.3188
25.2572 46.3914
25.3029 46.4074
25.3487 46.3629
25.3943 46.3964
25.4402 45.8088
25.4858 44.7379
25.5316 43.601
25.5773 42.7171
25.6231 42.6834
25.669 42.1936
25.7147 42.3136
25.7605 42.188
25.8062 42.3675
25.8521 42.339
25.8977 42.2858
25.9436 42.3718
25.9893 42.5209
26.0352 42.9466
26.0809 43.1587
26.1268 43.3494
26.1725 43.1983
26.2184 42.8454
26.2641 42.349
26.31 41.9162
26.3557 41.9984
26.4017 41.8632
26.4474 42.181
26.4933 42.3688
26.5391 42.8238
26.585 43.0876
26.6308 43.5673
26.6767 43.8163
26.7225 43.8443
26.7684 43.2828
26.8142 42.7422
26.8601 42.2211
26.9059 41.8932
26.9519 41.4922
26.9979 41.0248
27.0437 40.5902
27.0896 40.4512
27.1354 40.5236
27.1814 40.2508
27.2272 40.2533
27.2732 40.1481
27.3191 39.8607
27.3651 40.0595
27.4109 40.052
27.4569 40.0928
27.5027 39.9739
27.5488 40.1738
27.5946 40.0391
27.6407 39.9106
27.6865 39.7654
27.7326 39.57
27.7784 39.4799
27.8245 39.4677
27.8703 39.5593
27.9164 39.745
27.9623 39.8308
28.0084 40.0953
28.0543 40.5148
28.1003 40.5773
28.1462 40.4449
28.1923 40.1591
28.2384 39.6202
28.2843 39.254
28.3304 38.9058
28.3764 38.4088
28.4225 37.9503
28.4684 37.9127
28.5145 37.5422
28.5605 37.405
28.6066 37.2553
28.6526 37.0822
28.6987 37.0535
28.7447 36.9642
28.7908 36.7516
28.8368 36.8389
28.8829 36.9246
28.9289 36.8058
28.9751 36.5964
29.0211 36.4592
29.0673 36.113
29.1133 36.1361
29.1595 35.8708
29.2055 35.74
29.2517 35.725
29.2977 35.7266
29.3439 35.6907
29.3899 35.6288
29.4361 35.5338
29.4824 35.4449
29.5284 35.2241
29.5746 34.9466
29.6207 34.5885
29.6669 34.4907
29.713 34.3813
29.7593 34.2107
29.8053 34.2703
29.8516 34.2109
29.8977 34.1804
29.9439 34.042
29.99 33.9272
30.0363 33.9194
30.0824 33.8984
30.1287 33.7537
30.1748 33.7463
30.2211 33.7399
30.2673 33.516
30.3136 33.7916
30.3597 33.6562
30.406 33.4928
30.4522 33.4075
30.4985 33.3448
30.5447 33.5731
30.591 33.4269
30.6372 33.4631
30.6835 33.4313
30.7297 33.4748
30.7761 33.5253
30.8224 33.3838
30.8686 33.2795
30.915 32.9684
30.9612 32.8237
31.0076 32.6704
31.0538 32.5432
31.1002 32.4267
31.1464 32.2435
31.1928 32.2576
31.2391 32.28
31.2855 32.1352
31.3317 32.0087
31.3781 32.2491
31.4244 32.1987
31.4708 32.067
31.5171 32.1149
31.5636 32.0885
31.6098 31.8509
31.6563 31.6626
31.7026 31.5941
31.7491 31.3509
31.7953 31.4871
31.8418 31.3478
31.8881 31.297
31.9346 31.2504
31.9809 31.2672
32.0275 31.1805
32.074 30.9757
32.1203 30.8747
32.1668 30.8289
32.2132 30.5935
32.2597 30.3987
32.306 30.4335
32.3526 30.2281
32.399 30.1536
32.4455 30.0254
32.4919 29.903
32.5385 29.9056
32.5848 29.6871
32.6314 29.8174
32.6778 29.6106
32.7244 29.4522
32.7708 29.3384
32.8174 29.3799
32.8638 29.1342
32.9104 29.3548
32.9569 29.1772
33.0035 29.032
33.0499 28.978
33.0966 28.954
33.143 28.9344
33.1897 28.7711
33.2361 28.6883
33.2828 28.7442
33.3293 28.5229
33.3759 28.5601
33.4226 28.3803
33.4691 28.2959
33.5158 28.2026
33.5623 28.0049
33.609 27.8497
33.6555 27.7533
33.7022 27.7746
33.7487 27.6597
33.7954 27.5754
33.842 27.4825
33.8887 27.45
33.9353 27.4261
33.982 27.2978
34.0286 27.0983
34.0753 27.0466
34.1219 27.0666
34.1687 26.9158
34.2152 26.9054
34.262 26.7976
34.3086 26.597
34.3554 26.5958
34.402 26.4871
34.4488 26.3697
34.4954 26.343
34.5422 26.2269
34.5889 26.1273
34.6357 26.0335
34.6825 25.9188
34.7292 25.8598
34.776 25.8414
34.8227 25.6504
34.8695 25.6725
34.9162 25.7065
34.9631 25.5899
35.0098 25.4455
35.0566 25.4579
35.1033 25.2638
35.1502 25.2934
35.1969 25.2469
35.2438 25.1142
35.2906 25.0626
35.3375 25.0746
35.3842 25.0033
35.4311 24.9953
35.4779 24.8892
35.5248 24.7884
35.5716 24.7936
35.6185 24.6066
35.6653 24.6134
35.7123 24.4239
35.759 24.5023
35.806 24.3527
35.8528 24.181
35.8998 24.178
35.9468 24.0251
35.9936 24.0682
36.0406 23.9632
36.0874 23.9282
36.1345 23.7892
36.1813 23.784
36.2283 23.7278
36.2752 23.6066
36.3222 23.5943
36.3691 23.4613
36.4161 23.4567
36.463 23.4238
36.5101 23.3831
36.557 23.3313
36.6041 23.086
36.651 23.0568
36.6981 23.0578
36.745 22.9839
36.7921 22.8967
36.839 22.8012
36.8861 22.7061
36.9331 22.6941
36.9802 22.5868
37.0272 22.429
37.0743 22.4362
37.1213 22.4049
37.1684 22.2955
37.2154 22.2136
37.2626 22.1846
37.3098 22.109
37.3568 21.9989
37.404 21.9564
37.451 21.8233
37.4982 21.8707
37.5452 21.7441
37.5924 21.6791
37.6395 21.6788
37.6867 21.5094
37.7337 21.4692
37.781 21.38
37.8281 21.3863
37.8753 21.275
37.9224 21.1966
37.9697 21.1697
38.0168 21.054
38.064 20.9939
38.1111 20.9307
38.1584 20.9001
38.2056 20.8691
38.2529 20.7169
38.3 20.6433
38.3473 20.6581
38.3945 20.4759
38.4418 20.5609
38.489 20.3944
38.5363 20.3018
38.5837 20.2758
38.6309 20.1911
38.6782 20.161
38.7254 20.0519
38.7728 19.9595
38.82 19.9347
38.8674 19.878
38.9146 19.8467
38.9621 19.7918
39.0093 19.6489
39.0567 19.6469
39.104 19.5888
39.1514 19.464
39.1987 19.4517
39.2461 19.4042
39.2934 19.3261
39.3409 19.1626
39.3882 19.2104
39.4356 19.1332
39.483 19.124
39.5304 18.9895
39.5778 19.0164
39.6253 18.9215
39.6726 18.9091
39.7201 18.8437
39.7675 18.7019
39.815 18.7075
39.8624 18.5551
39.9099 18.6097
39.9575 18.5023
40.0049 18.4313
40.0525 18.4192
40.0999 18.3246
40.1474 18.2384
40.1949 18.168
40.2425 18.0942
40.2899 18.1085
40.3375 18.0855
40.385 17.9607
40.4326 17.9649
40.48 17.7369
40.5277 17.845
40.5752 17.7725
40.6228 17.6791
40.6703 17.6541
40.718 17.564
40.7655 17.5117
40.8132 17.4526
40.8607 17.4023
40.9084 17.3455
40.9559 17.304
41.0036 17.2839
41.0512 17.1521
41.0989 17.1466
41.1465 17.0992
41.1942 17.0477
41.242 16.9563
41.2896 16.8656
41.3373 16.8654
41.3849 16.7543
41.4327 16.7477
41.4803 16.6553
41.5281 16.6321
41.5758 16.586
41.6236 16.4719
41.6712 16.4394
41.7191 16.3747
41.7667 16.3267
41.8146 16.2847
41.8622 16.2419
41.9101 16.2428
41.9578 16.1102
42.0057 16.056
42.0534 15.976
42.1013 15.9902
42.149 15.9263
42.1969 15.8319
42.2446 15.7755
42.2925 15.6759
42.3403 15.7025
42.3882 15.67
42.436 15.6244
42.4839 15.5255
42.5319 15.4953
42.5797 15.4418
42.6277 15.4014
42.6755 15.314
42.7235 15.2425
42.7713 15.22
42.8193 15.1708
42.8671 15.1246
42.9152 15.1162
42.963 15.005
43.0111 14.9965
43.0589 14.9252
43.107 14.8716
43.1549 14.896
43.2029 14.7503
43.2508 14.7681
43.2989 14.6773
43.3468 14.6007
43.3949 14.5257
43.4429 14.5243
43.491 14.473
43.5389 14.4047
43.5871 14.4104
43.635 14.2283
43.6832 14.2597
43.7312 14.1961
43.7793 14.1705
43.8273 14.114
43.8755 14.041
43.9237 14.0077
43.9717 13.9492
44.0199 13.9338
44.068 13.8486
44.1162 13.8023
44.1642 13.7792
44.2125 13.7256
44.2606 13.6773
44.3088 13.6021
44.3569 13.6076
44.4052 13.5482
44.4533 13.493
44.5016 13.4137
44.5497 13.4022
44.598 13.332
44.6461 13.3012
44.6945 13.2249
44.7426 13.2022
44.791 13.1699
44.8391 13.1472
44.8875 13.0558
44.9357 13.0103
44.984 12.981
45.0322 12.9251
45.0806 12.8913
45.1288 12.8337
45.1773 12.8174
45.2257 12.7465
45.2739 12.6551
45.3224 12.6989
45.3706 12.6019
45.4191 12.5079
45.4673 12.5588
45.5158 12.4439
45.5641 12.4429
45.6126 12.3866
45.6609 12.3324
45.7094 12.2635
45.7577 12.2396
45.8063 12.2153
45.8546 12.1964
45.9031 12.1514
45.9515 12.0976
46.0001 12.0267
46.0484 11.982
46.097 11.9686
46.1454 11.9313
46.194 11.8375
46.2424 11.8237
46.291 11.7656
46.3395 11.7474
46.3881 11.6739
46.4365 11.648
46.4852 11.6131
46.5337 11.6011
46.5823 11.5317
46.631 11.4654
46.6795 11.4239
46.7282 11.4041
46.7767 11.3622
46.8254 11.2625
46.8739 11.2696
46.9226 11.2387
46.9712 11.1818
47.0199 11.1794
47.0685 11.1366
47.1173 11.0687
47.1658 11.0264
47.2146 10.9812
47.2632 10.9141
47.312 10.9443
47.3606 10.8333
47.4095 10.8078
47.4581 10.7797
47.5069 10.7742
47.5556 10.678
47.6044 10.6534
47.6531 10.6144
47.702 10.5726
47.7507 10.5339
47.7996 10.4966
47.8483 10.4594
47.8972 10.4577
47.9461 10.3838
47.9948 10.3327
48.0438 10.31
48.0925 10.277
48.1415 10.2499
48.1902 10.1963
48.2392 10.1827
48.288 10.1321
48.337 10.1014
48.3858 10.0577
48.4348 10.0114
48.4837 10.0176
48.5327 9.94767
48.5815 9.8995
48.6306 9.90285
48.6795 9.82748
48.7285 9.79829
48.7774 9.77697
48.8265 9.73835
48.8754 9.69823
48.9245 9.66036
48.9734 9.6237
49.0226 9.61656
49.0715 9.56644
49.1206 9.50016
49.1696 9.4892
49.2188 9.47174
49.2679 9.4119
49.3169 9.348
49.3661 9.3399
49.4151 9.26449
49.4643 9.26623
49.5134 9.2334
49.5626 9.18726
49.6117 9.16988
49.6609 9.07648
49.71 9.05988
49.7592 9.04168
49.8083 9.01571
49.8576 9.01536
49.9067 8.96913
49.956 8.90995
50.0052 8.92743
50.0545 8.83457
50.1036 8.78879
50.153 8.7757
50.2022 8.75999
50.2515 8.684
50.3007 8.66936
50.3501 8.64678
50.3993 8.60763
50.4487 8.57428
50.498 8.53204
50.5474 8.50911
50.5966 8.48488
50.6461 8.43587
50.6955 8.40128
50.7448 8.36662
50.7943 8.41305
50.8436 8.31583
50.8931 8.26418
50.9424 8.2405
50.9919 8.2233
51.0413 8.1845
51.0908 8.16032
51.1402 8.12599
51.1897 8.09123
51.2391 8.06412
51.2887 8.01637
51.3381 7.96696
51.3877 7.95007
51.4371 7.96796
51.4867 7.89072
51.5362 7.84877
51.5858 7.83355
51.6353 7.77179
51.6849 7.72053
51.7344 7.73387
51.7841 7.73284
51.8336 7.62428
51.8833 7.61789
51.9328 7.6135
51.9826 7.58282
52.0323 7.50777
52.0818 7.48694
52.1316 7.46101
52.1812 7.43897
52.231 7.3779
52.2806 7.32949
52.3304 7.36891
52.38 7.28839
52.4298 7.25901
52.4794 7.25528
52.5293 7.18987
52.5789 7.21561
52.6288 7.14821
52.6785 7.13005
52.7284 7.11411
52.7781 7.09086
52.828 7.05467
52.8777 7.02518
52.9276 6.97589
52.9774 6.98132
53.0273 6.91
53.0771 6.91755
53.1271 6.87394
53.1769 6.83939
53.2269 6.83944
53.2767 6.79293
53.3267 6.74331
53.3765 6.74899
53.4266 6.75482
53.4766 6.67614
53.5265 6.6336
53.5765 6.62937
53.6264 6.55831
53.6765 6.59562
53.7264 6.53464
53.7765 6.5006
53.8265 6.47261
53.8766 6.42509
53.9266 6.43511
53.9767 6.40037
54.0267 6.36918
54.0769 6.31522
54.1269 6.29579
54.1771 6.26613
54.2271 6.23232
54.2773 6.18838
54.3274 6.17666
54.3776 6.15905
54.4277 6.09093
54.478 6.06963
54.528 5.97952
54.5783 5.94569
54.6285 5.93468
54.6788 5.91539
54.7289 5.83595
54.7792 5.86229
54.8296 5.75422
54.8798 5.74612
54.9301 5.67192
54.9803 5.70211
55.0307 5.60887
55.0809 5.5719
55.1314 5.56843
55.1816 5.46438
55.232 5.42824
55.2823 5.39591
55.3328 5.31015
55.383 5.24044
55.4335 5.24925
55.4838 5.19632
55.5344 5.15853
55.5847 5.07592
55.6352 5.0995
55.6856 5.04789
55.7361 5.01797