File: XRD/Ni3Fe_FD0355.xy
TT I
1.27165 7.49061
1.31627 6.70611
1.36089 7.01626
1.40551 6.1803
1.45013 6.4023
1.49476 6.43717
1.53938 5.48291
1.584 5.59003
1.62863 5.53176
1.67325 5.32042
1.71787 4.95669
1.7625 4.8745
1.80712 4.89793
1.85174 4.85232
1.89636 5.44567
1.94099 5.40474
1.98562 4.75529
2.03025 4.3886
2.07487 4.67202
2.11949 4.62926
2.16411 4.51342
2.20874 9.8263
2.25338 13.0811
2.298 5.59353
2.34263 5.23759
2.38725 5.32648
2.43188 5.45505
2.4765 6.37542
2.52115 6.78754
2.56577 6.4838
2.6104 6.93172
2.65503 6.73013
2.69965 7.45336
2.7443 7.30478
2.78893 7.84821
2.83356 8.17237
2.87818 8.70612
2.92281 8.94837
2.96744 9.73537
3.01209 10.7636
3.05672 11.2759
3.10135 12.2163
3.14599 13.045
3.19062 13.9321
3.23527 15.0733
3.2799 15.8996
3.32454 17.308
3.36917 17.8831
3.4138 18.57
3.45844 19.5205
3.50309 20.9203
3.54773 21.4684
3.59237 23.6332
3.637 56.4416
3.68164 40.254
3.7263 25.9003
3.77094 26.0027
3.81558 26.4157
3.86022 27.7432
3.90486 29.582
3.9495 30.2424
3.99416 31.1468
4.0388 32.4843
4.08344 34.2961
4.12809 35.2659
4.17273 37.0032
4.21738 40.6556
4.26204 138.697
4.30669 124.146
4.35133 46.0392
4.39598 44.8614
4.44063 50.3206
4.4853 56.6639
4.52995 53.0366
4.5746 53.5865
4.61925 55.0224
4.6639 57.2012
4.70855 59.7717
4.75322 63.1618
4.79788 66.1263
4.84253 69.7915
4.88719 74.8839
4.93184 78.085
4.97652 84.5585
5.02118 92.167
5.06583 101.528
5.11049 115.778
5.15515 172.1
5.19981 611.944
5.24449 3707.28
5.28916 11373.7
5.33382 3389.23
5.37848 220.835
5.42315 139.946
5.46783 121.51
5.5125 112.051
5.55716 106.664
5.60183 102.317
5.6465 100.546
5.69117 98.7441
5.73586 96.6757
5.78053 97.3649
5.8252 97.4221
5.86988 98.4502
5.91455 101.532
5.95924 117.143
6.00392 327.274
6.0486 1279.01
6.09328 3975.04
6.13795 3358.05
6.18263 286.833
6.22733 99.9591
6.27201 85.3505
6.3167 90.2918
6.36138 77.538
6.40606 71.3325
6.45075 69.2453
6.49545 67.2739
6.54014 65.0434
6.58483 64.201
6.62952 63.86
6.67421 77.5378
6.71892 100.429
6.76361 64.9974
6.8083 59.6507
6.853 58.9063
6.89769 57.8196
6.94239 57.6157
6.98711 57.2329
7.03181 56.4508
7.07651 56.1684
7.12121 56.0722
7.16591 56.4593
7.21063 56.2457
7.25533 63.1246
7.30004 114.316
7.34475 73.3381
7.38945 56.6756
7.43416 55.274
7.47889 55.0904
7.5236 55.6138
7.56831 56.5218
7.61303 57.0601
7.65774 57.7102
7.70247 57.7156
7.74719 57.5588
7.79191 58.2409
7.83663 58.2711
7.88135 59.0652
7.92607 60.2342
7.97081 61.3442
8.01553 62.2106
8.06026 63.9341
8.10498 65.5385
8.14971 71.698
8.19446 71.6478
8.23919 71.56
8.28392 74.5175
8.32865 76.7419
8.37339 81.8703
8.41812 88.0708
8.46288 112.422
8.50761 227.089
8.55235 505.423
8.59709 1190.62
8.64183 2086.34
8.68658 1042.06
8.73134 179.383
8.77609 104.401
8.82083 96.4423
8.86558 92.9756
8.91033 92.1193
8.9551 91.2734
8.99985 87.6448
9.04461 86.1995
9.08936 85.6527
9.13412 85.0575
9.17888 84.7263
9.22365 84.7
9.26841 84.5497
9.31318 85.5513
9.35794 85.8454
9.4027 85.7362
9.44749 86.4971
9.49226 87.6188
9.53703 88.3488
9.5818 90.8314
9.62657 93.9223
9.67134 97.269
9.71614 96.2095
9.76091 97.6698
9.80569 100.362
9.85047 103.657
9.89525 118.107
9.94005 137.643
9.98484 237.824
10.0296 443.01
10.0744 873.045
10.1192 1596.77
10.164 1633.33
10.2088 459.685
10.2536 135.128
10.2984 115.039
10.3432 113.319
10.388 110.179
10.4328 137.83
10.4776 188.671
10.5224 300.363
10.5672 489.942
10.612 512.231
10.6568 215.129
10.7017 99.6555
10.7465 89.8597
10.7913 85.5644
10.8361 83.549
10.8809 81.0248
10.9257 79.6471
10.9706 79.5981
11.0154 76.6932
11.0602 74.7291
11.105 73.8281
11.1499 74.751
11.1947 77.6774
11.2395 72.8657
11.2844 70.7257
11.3292 68.7178
11.374 67.8395
11.4189 67.5731
11.4637 66.6791
11.5086 66.5637
11.5534 67.4529
11.5983 66.1406
11.6431 64.987
11.688 64.764
11.7328 64.6143
11.7777 64.4073
11.8225 64.0188
11.8674 64.0018
11.9122 64.4559
11.9571 64.6323
12.002 66.5815
12.0468 73.9977
12.0917 87.2453
12.1366 110.208
12.1814 150.972
12.2263 200.202
12.2712 171.723
12.3161 96.547
12.3609 70.1758
12.4058 66.3297
12.4507 66.0991
12.4956 66.07
12.5405 66.3394
12.5853 67.0984
12.6302 70.8675
12.6751 74.1457
12.72 70.1712
12.7649 69.7597
12.8098 70.3328
12.8547 71.8215
12.8996 73.4638
12.9445 74.6939
12.9894 76.6932
13.0343 78.7207
13.0792 83.3003
13.1242 100.333
13.1691 128.376
13.214 169.035
13.2589 247.09
13.3038 352.958
13.3487 420.946
13.3937 277.047
13.4386 133.101
13.4835 118.434
13.5285 137.414
13.5734 174.745
13.6183 244.662
13.6633 333.748
13.7082 345.512
13.7531 201.293
13.7981 102.024
13.843 84.2824
13.888 81.9448
13.9329 79.7458
13.9779 78.1046
14.0228 76.6903
14.0678 75.1175
14.1127 74.6045
14.1577 74.0843
14.2027 73.0841
14.2476 72.5108
14.2926 72.3134
14.3376 72.7264
14.3825 71.571
14.4275 70.9632
14.4725 70.5982
14.5175 71.1415
14.5624 70.9869
14.6074 72.288
14.6524 73.1171
14.6974 73.099
14.7424 77.2105
14.7874 86.3751
14.8324 98.3834
14.8774 120.138
14.9224 155.379
14.9674 199.51
15.0124 216.715
15.0574 153.126
15.1024 93.6702
15.1474 74.5312
15.1924 72.3538
15.2374 71.8703
15.2824 71.0931
15.3274 69.4918
15.3725 68.614
15.4175 68.3511
15.4625 67.9989
15.5076 68.0874
15.5526 67.8466
15.5976 68.2134
15.6426 71.4056
15.6877 78.899
15.7327 87.9076
15.7778 103.361
15.8228 129.336
15.8679 164.927
15.9129 192.507
15.958 161.866
16.003 101.954
16.0481 69.8314
16.0931 65.3037
16.1382 63.3495
16.1833 61.9859
16.2283 60.7637
16.2734 59.9912
16.3185 59.844
16.3636 59.6679
16.4086 58.615
16.4537 57.3498
16.4988 57.0347
16.5439 57.0988
16.589 56.7848
16.6341 56.5588
16.6792 56.0625
16.7243 56.3954
16.7694 56.353
16.8145 56.1868
16.8596 56.5807
16.9047 57.5105
16.9498 57.5998
16.9949 57.143
17.04 57.8709
17.0851 59.6846
17.1302 61.5906
17.1754 64.7392
17.2205 69.3994
17.2656 75.142
17.3108 82.8158
17.3559 83.7063
17.401 73.5586
17.4462 64.2884
17.4913 61.0023
17.5365 60.8471
17.5815 60.9239
17.6268 61.4947
17.6718 61.9719
17.7171 62.5395
17.7622 63.269
17.8074 64.439
17.8525 68.6239
17.8977 73.1176
17.9428 79.1198
17.9881 87.9245
18.0331 102.552
18.0784 119.992
18.1237 139.824
18.1688 137.067
18.214 111.002
18.2591 91.072
18.3044 91.7489
18.3495 99.5085
18.3948 105.861
18.4399 98.0916
18.4852 79.2703
18.5303 67.7567
18.5756 63.8113
18.6207 62.9943
18.666 62.1352
18.7112 61.5033
18.7565 60.6981
18.8016 60.325
18.8469 59.6204
18.892 59.3983
18.9374 59.0437
18.9825 58.6071
19.0278 58.4669
19.073 59.0584
19.1183 59.4291
19.1635 60.1425
19.2088 61.9663
19.254 64.5126
19.2993 67.9764
19.3447 72.7915
19.3898 76.8198
19.4352 74.2799
19.4804 65.4281
19.5257 58.5738
19.5709 55.9518
19.6163 55.4959
19.6615 55.169
19.7068 54.9027
19.752 54.9668
19.7974 55.7248
19.8426 56.4549
19.888 57.2328
19.9332 58.4908
19.9786 60.9223
20.0238 64.0789
20.0692 68.2106
20.1144 71.4338
20.1598 70.9499
20.205 66.0205
20.2504 63.5009
20.2957 64.5804
20.3411 66.5544
20.3863 65.8441
20.4318 60.2969
20.477 55.1651
20.5224 52.7949
20.5677 52.2172
20.6131 51.6833
20.6586 51.0936
20.7038 50.9615
20.7493 50.5089
20.7945 50.4174
20.84 50.2078
20.8853 50.1622
20.9307 50.1082
20.976 50.3135
21.0215 50.1778
21.0668 50.5053
21.1122 50.9461
21.1575 51.4423
21.203 52.1885
21.2483 52.6471
21.2938 53.0682
21.3391 51.8031
21.3846 50.463
21.4299 50.0161
21.4754 49.9059
21.5207 50.0304
21.5662 50.5569
21.6116 51.3211
21.6571 51.9953
21.7024 53.055
21.7479 54.6737
21.7933 57.1455
21.8388 60.3005
21.8843 63.4623
21.9297 66.1015
21.9752 65.3371
22.0206 61.5275
22.0661 57.7967
22.1115 57.1492
22.157 57.3201
22.2024 55.9678
22.248 53.0977
22.2933 51.2553
22.3389 50.6372
22.3843 50.3555
22.4299 50.2475
22.4753 50.1278
22.5208 50.0959
22.5662 49.9256
22.6118 50.3556
22.6572 50.6382
22.7028 51.1131
22.7483 51.6004
22.7939 52.5804
22.8393 53.8827
22.8849 55.4241
22.9303 57.0275
22.9759 59.0286
23.0214 58.8618
23.067 56.2636
23.1126 52.7298
23.1581 50.7263
23.2037 50.398
23.2492 50.7719
23.2948 50.5845
23.3403 50.9989
23.3859 51.6792
23.4314 52.7756
23.477 54.0431
23.5225 55.762
23.5682 57.6922
23.6137 59.0855
23.6593 57.3404
23.7048 53.3616
23.7505 49.6963
23.796 48.0199
23.8417 47.4671
23.8872 46.9012
23.9329 46.534
23.9784 46.074
24.0241 45.825
24.0697 45.7407
24.1154 45.4245
24.1609 45.218
24.2066 45.1171
24.2522 44.9639
24.2979 44.725
24.3434 44.4981
24.3892 44.3873
24.4349 44.4631
24.4805 44.0689
24.5262 44.2827
24.5718 44.1499
24.6175 44.0947
24.6631 44.1785
24.7089 43.7425
24.7545 43.5963
24.8002 43.4966
24.8458 43.5585
24.8916 43.3522
24.9372 43.5454
24.983 43.9036
25.0286 44.1666
25.0744 44.5225
25.12 45.0188
25.1658 45.6071
25.2114 46.0721
25.2572 45.9708
25.3029 45.851
25.3487 45.9936
25.3943 45.9426
25.4402 45.0856
25.4858 43.7397
25.5316 42.5601
25.5773 42.0506
25.6231 42.0894
25.669 41.6086
25.7147 41.8104
25.7605 41.6654
25.8062 41.7779
25.8521 41.7634
25.8977 41.9523
25.9436 42.1581
25.9893 42.0321
26.0352 42.4651
26.0809 42.6078
26.1268 42.7933
26.1725 42.6409
26.2184 42.0594
26.2641 41.5689
26.31 41.3511
26.3557 41.4329
26.4017 41.3405
26.4474 41.645
26.4933 42.0673
26.5391 42.4175
26.585 42.6591
26.6308 43.1255
26.6767 43.3262
26.7225 43.1625
26.7684 42.6704
26.8142 42.0263
26.8601 41.583
26.9059 41.158
26.9519 40.6596
26.9979 40.4809
27.0437 39.9543
27.0896 39.8688
27.1354 39.8621
27.1814 39.8452
27.2272 39.7194
27.2732 39.7102
27.3191 39.53
27.3651 39.639
27.4109 39.646
27.4569 39.6092
27.5027 39.6427
27.5488 39.7557
27.5946 39.6148
27.6407 39.3189
27.6865 39.2733
27.7326 39.0465
27.7784 38.9652
27.8245 38.9894
27.8703 39.2353
27.9164 39.4677
27.9623 39.4608
28.0084 39.7041
28.0543 40.1121
28.1003 40.0546
28.1462 39.9092
28.1923 39.407
28.2384 39.0501
28.2843 38.7018
28.3304 38.1502
28.3764 37.7771
28.4225 37.3767
28.4684 37.327
28.5145 37.0177
28.5605 36.9658
28.6066 36.5679
28.6526 36.6408
28.6987 36.5713
28.7447 36.5292
28.7908 36.455
28.8368 36.3777
28.8829 36.3403
28.9289 36.2153
28.9751 36.0811
29.0211 35.8735
29.0673 35.5788
29.1133 35.4907
29.1595 35.3862
29.2055 35.2721
29.2517 35.2592
29.2977 35.2544
29.3439 35.1491
29.3899 35.1088
29.4361 35.078
29.4824 34.8924
29.5284 34.7097
29.5746 34.4491
29.6207 34.0813
29.6669 34.0107
29.713 33.891
29.7593 33.7767
29.8053 33.7762
29.8516 33.7158
29.8977 33.6789
29.9439 33.5494
29.99 33.523
30.0363 33.3936
30.0824 33.4418
30.1287 33.2066
30.1748 33.3561
30.2211 33.3966
30.2673 33.1701
30.3136 33.332
30.3597 33.2465
30.406 33.0724
30.4522 32.9602
30.4985 32.8691
30.5447 33.0485
30.591 32.8775
30.6372 33.0706
30.6835 33.0028
30.7297 33.1552
30.7761 33.0535
30.8224 32.8122
30.8686 32.692
30.915 32.5278
30.9612 32.4578
31.0076 32.2103
31.0538 32.0682
31.1002 31.9453
31.1464 31.8222
31.1928 31.7573
31.2391 31.8862
31.2855 31.7446
31.3317 31.757
31.3781 31.7163
31.4244 31.7282
31.4708 31.6871
31.5171 31.5898
31.5636 31.6492
31.6098 31.3568
31.6563 31.1577
31.7026 31.1203
31.7491 31.0076
31.7953 31.0765
31.8418 31.0388
31.8881 30.9611
31.9346 30.9711
31.9809 30.8841
32.0275 30.7399
32.074 30.6697
32.1203 30.3983
32.1668 30.4106
32.2132 30.0788
32.2597 30.0745
32.306 29.9494
32.3526 29.8044
32.399 29.7531
32.4455 29.5845
32.4919 29.5441
32.5385 29.4044
32.5848 29.3177
32.6314 29.226
32.6778 29.2424
32.7244 29.0852
32.7708 28.9723
32.8174 28.9597
32.8638 28.882
32.9104 28.8499
32.9569 28.8235
33.0035 28.6584
33.0499 28.6381
33.0966 28.5795
33.143 28.5199
33.1897 28.3963
33.2361 28.4231
33.2828 28.2618
33.3293 28.1847
33.3759 28.1679
33.4226 27.9511
33.4691 27.8631
33.5158 27.79
33.5623 27.6283
33.609 27.5539
33.6555 27.5033
33.7022 27.3172
33.7487 27.2542
33.7954 27.1945
33.842 27.0918
33.8887 26.9859
33.9353 27.0259
33.982 26.8084
34.0286 26.8005
34.0753 26.6883
34.1219 26.582
34.1687 26.5854
34.2152 26.5321
34.262 26.3474
34.3086 26.2556
34.3554 26.2199
34.402 26.1175
34.4488 26.03
34.4954 25.9154
34.5422 25.8667
34.5889 25.6792
34.6357 25.7448
34.6825 25.6333
34.7292 25.5134
34.776 25.3959
34.8227 25.3674
34.8695 25.2827
34.9162 25.1804
34.9631 25.1274
35.0098 25.2332
35.0566 25.049
35.1033 24.9681
35.1502 24.9999
35.1969 24.8841
35.2438 24.8282
35.2906 24.7969
35.3375 24.6558
35.3842 24.7678
35.4311 24.5985
35.4779 24.6238
35.5248 24.5092
35.5716 24.4161
35.6185 24.3295
35.6653 24.2956
35.7123 24.1278
35.759 24.1368
35.806 23.9889
35.8528 23.8823
35.8998 23.8399
35.9468 23.6548
35.9936 23.6854
36.0406 23.6381
36.0874 23.6406
36.1345 23.4977
36.1813 23.4405
36.2283 23.2745
36.2752 23.2804
36.3222 23.3222
36.3691 23.1877
36.4161 23.0193
36.463 23.0644
36.5101 23.0852
36.557 22.9046
36.6041 22.8081
36.651 22.7951
36.6981 22.6415
36.745 22.6755
36.7921 22.5149
36.839 22.4006
36.8861 22.4508
36.9331 22.2868
36.9802 22.3311
37.0272 22.2008
37.0743 22.1069
37.1213 22.0444
37.1684 21.9762
37.2154 21.9523
37.2626 21.8436
37.3098 21.7579
37.3568 21.6613
37.404 21.6235
37.451 21.5624
37.4982 21.5063
37.5452 21.4084
37.5924 21.382
37.6395 21.375
37.6867 21.3125
37.7337 21.1981
37.781 21.1019
37.8281 21.0119
37.8753 20.96
37.9224 20.8751
37.9697 20.8461
38.0168 20.7373
38.064 20.7291
38.1111 20.6479
38.1584 20.5993
38.2056 20.5237
38.2529 20.4704
38.3 20.3578
38.3473 20.3417
38.3945 20.2027
38.4418 20.2171
38.489 20.1436
38.5363 20.0468
38.5837 19.9571
38.6309 19.9254
38.6782 19.861
38.7254 19.743
38.7728 19.6962
38.82 19.7059
38.8674 19.5931
38.9146 19.58
38.9621 19.459
39.0093 19.4265
39.0567 19.5089
39.104 19.3248
39.1514 19.2517
39.1987 19.1952
39.2461 19.079
39.2934 19.0698
39.3409 18.9554
39.3882 18.9018
39.4356 18.8612
39.483 18.8301
39.5304 18.7938
39.5778 18.7283
39.6253 18.629
39.6726 18.6104
39.7201 18.546
39.7675 18.4638
39.815 18.3834
39.8624 18.3514
39.9099 18.3656
39.9575 18.2374
40.0049 18.1971
40.0525 18.128
40.0999 18.0632
40.1474 18.0622
40.1949 17.9436
40.2425 17.8307
40.2899 17.8334
40.3375 17.82
40.385 17.6579
40.4326 17.6164
40.48 17.6272
40.5277 17.5779
40.5752 17.4888
40.6228 17.3947
40.6703 17.3628
40.718 17.3153
40.7655 17.2788
40.8132 17.2073
40.8607 17.2385
40.9084 17.1549
40.9559 17.1048
41.0036 17.0762
41.0512 16.9903
41.0989 16.8977
41.1465 16.8941
41.1942 16.8015
41.242 16.6713
41.2896 16.6323
41.3373 16.5656
41.3849 16.5623
41.4327 16.5377
41.4803 16.4146
41.5281 16.3962
41.5758 16.3162
41.6236 16.2603
41.6712 16.2002
41.7191 16.1437
41.7667 16.1317
41.8146 16.0902
41.8622 16.0158
41.9101 15.9624
41.9578 15.8374
42.0057 15.8534
42.0534 15.7955
42.1013 15.7663
42.149 15.6881
42.1969 15.668
42.2446 15.5686
42.2925 15.5451
42.3403 15.4677
42.3882 15.4786
42.436 15.3907
42.4839 15.3223
42.5319 15.2268
42.5797 15.219
42.6277 15.1791
42.6755 15.1229
42.7235 15.0377
42.7713 15.0194
42.8193 14.9593
42.8671 14.935
42.9152 14.8507
42.963 14.8008
43.0111 14.754
43.0589 14.6682
43.107 14.6487
43.1549 14.623
43.2029 14.5199
43.2508 14.498
43.2989 14.4537
43.3468 14.3939
43.3949 14.3504
43.4429 14.2637
43.491 14.2577
43.5389 14.1849
43.5871 14.1954
43.635 14.0878
43.6832 14.0831
43.7312 13.986
43.7793 13.9855
43.8273 13.9382
43.8755 13.8528
43.9237 13.8065
43.9717 13.7562
44.0199 13.7272
44.068 13.7174
44.1162 13.6176
44.1642 13.6003
44.2125 13.5419
44.2606 13.482
44.3088 13.3668
44.3569 13.4117
44.4052 13.3819
44.4533 13.2827
44.5016 13.2361
44.5497 13.2158
44.598 13.2137
44.6461 13.0623
44.6945 13.0466
44.7426 12.9529
44.791 12.9345
44.8391 12.9025
44.8875 12.8749
44.9357 12.8456
44.984 12.7752
45.0322 12.742
45.0806 12.685
45.1288 12.6431
45.1773 12.6515
45.2257 12.6065
45.2739 12.5226
45.3224 12.4536
45.3706 12.475
45.4191 12.3747
45.4673 12.3328
45.5158 12.3005
45.5641 12.2786
45.6126 12.2283
45.6609 12.1583
45.7094 12.1103
45.7577 12.1052
45.8063 12.0207
45.8546 12.0072
45.9031 11.9375
45.9515 11.8834
46.0001 11.8655
46.0484 11.7838
46.097 11.8265
46.1454 11.7093
46.194 11.7224
46.2424 11.677
46.291 11.6232
46.3395 11.5831
46.3881 11.5062
46.4365 11.4965
46.4852 11.4513
46.5337 11.3841
46.5823 11.3728
46.631 11.3102
46.6795 11.2211
46.7282 11.2285
46.7767 11.166
46.8254 11.1351
46.8739 11.0829
46.9226 11.0453
46.9712 10.985
47.0199 10.953
47.0685 10.9663
47.1173 10.8533
47.1658 10.8489
47.2146 10.8074
47.2632 10.7434
47.312 10.7058
47.3606 10.6996
47.4095 10.6748
47.4581 10.6201
47.5069 10.5644
47.5556 10.5818
47.6044 10.4655
47.6531 10.4408
47.702 10.4605
47.7507 10.4019
47.7996 10.3625
47.8483 10.3148
47.8972 10.2833
47.9461 10.2288
47.9948 10.1933
48.0438 10.2033
48.0925 10.131
48.1415 10.083
48.1902 10.0762
48.2392 10.039
48.288 10.0116
48.337 9.95932
48.3858 9.895
48.4348 9.89879
48.4837 9.89825
48.5327 9.80025
48.5815 9.76752
48.6306 9.75795
48.6795 9.71032
48.7285 9.67607
48.7774 9.65156
48.8265 9.57905
48.8754 9.55189
48.9245 9.51318
48.9734 9.47536
49.0226 9.48877
49.0715 9.44791
49.1206 9.36182
49.1696 9.36274
49.2188 9.33394
49.2679 9.28328
49.3169 9.24521
49.3661 9.18795
49.4151 9.1604
49.4643 9.13279
49.5134 9.11966
49.5626 9.0328
49.6117 9.03814
49.6609 8.97868
49.71 8.93257
49.7592 8.92356
49.8083 8.88321
49.8576 8.87538
49.9067 8.80162
49.956 8.75469
50.0052 8.74306
50.0545 8.73903
50.1036 8.65556
50.153 8.65435
50.2022 8.58067
50.2515 8.56619
50.3007 8.53539
50.3501 8.52782
50.3993 8.4646
50.4487 8.46121
50.498 8.39675
50.5474 8.40373
50.5966 8.32837
50.6461 8.33812
50.6955 8.27053
50.7448 8.27735
50.7943 8.22037
50.8436 8.21873
50.8931 8.1879
50.9424 8.125
50.9919 8.11686
51.0413 8.05294
51.0908 8.03764
51.1402 8.00351
51.1897 7.97725
51.2391 7.93206
51.2887 7.91909
51.3381 7.87832
51.3877 7.85027
51.4371 7.80087
51.4867 7.76629
51.5362 7.73641
51.5858 7.6884
51.6353 7.68614
51.6849 7.60825
51.7344 7.64038
51.7841 7.59338
51.8336 7.57399
51.8833 7.47438
51.9328 7.47899
51.9826 7.44722
52.0323 7.39193
52.0818 7.42063
52.1316 7.35917
52.1812 7.33652
52.231 7.28641
52.2806 7.24337
52.3304 7.23627
52.38 7.21528
52.4298 7.21566
52.4794 7.15819
52.5293 7.10977
52.5789 7.09679
52.6288 7.07667
52.6785 7.0015
52.7284 7.00947
52.7781 6.9764
52.828 6.96893
52.8777 6.93363
52.9276 6.89757
52.9774 6.8809
53.0273 6.83363
53.0771 6.81566
53.1271 6.79773
53.1769 6.7505
53.2269 6.72934
53.2767 6.70726
53.3267 6.62403
53.3765 6.63967
53.4266 6.60388
53.4766 6.55638
53.5265 6.5421
53.5765 6.53438
53.6264 6.47611
53.6765 6.46542
53.7264 6.38964
53.7765 6.42907
53.8265 6.37912
53.8766 6.33016
53.9266 6.33558
53.9767 6.27645
54.0267 6.2431
54.0769 6.22274
54.1269 6.19049
54.1771 6.17955
54.2271 6.17499
54.2773 6.10035
54.3274 6.05035
54.3776 6.0364
54.4277 5.98054
54.478 5.99448
54.528 5.95259
54.5783 5.91104
54.6285 5.86694
54.6788 5.83056
54.7289 5.78478
54.7792 5.74787
54.8296 5.66123
54.8798 5.64941
54.9301 5.61434
54.9803 5.55496
55.0307 5.54859
55.0809 5.51001
55.1314 5.50138
55.1816 5.42395
55.232 5.36391
55.2823 5.33084
55.3328 5.29031
55.383 5.24106
55.4335 5.15367
55.4838 5.13776
55.5344 5.10327
55.5847 5.00645
55.6352 5.02877
55.6856 4.98378
55.7361 4.96617