File: XRD/Ni3Fe_FD0979.xy
TT I
1.27165 7.24715
1.31627 6.63047
1.36089 6.43614
1.40551 5.85242
1.45013 5.877
1.49476 6.36435
1.53938 6.35518
1.584 5.35529
1.62863 5.12519
1.67325 5.28655
1.71787 5.05608
1.7625 4.8362
1.80712 5.26044
1.85174 4.62237
1.89636 4.63705
1.94099 4.98562
1.98562 4.74331
2.03025 4.78451
2.07487 4.58084
2.11949 5.39263
2.16411 4.81368
2.20874 14.7381
2.25338 23.2025
2.298 6.44257
2.34263 5.70592
2.38725 6.16049
2.43188 6.76882
2.4765 6.85661
2.52115 7.80982
2.56577 8.37325
2.6104 9.12375
2.65503 8.50279
2.69965 8.49531
2.7443 8.50764
2.78893 8.79314
2.83356 8.28936
2.87818 9.20309
2.92281 8.84877
2.96744 9.88911
3.01209 10.3802
3.05672 11.1998
3.10135 12.5073
3.14599 13.0568
3.19062 14.5221
3.23527 14.9346
3.2799 16.2007
3.32454 16.8735
3.36917 17.5993
3.4138 18.9989
3.45844 19.6161
3.50309 20.7696
3.54773 21.96
3.59237 23.9276
3.637 93.8242
3.68164 59.9014
3.7263 26.4885
3.77094 25.7148
3.81558 26.4869
3.86022 27.7844
3.90486 28.7772
3.9495 29.7665
3.99416 31.0537
4.0388 31.9573
4.08344 33.4614
4.12809 34.6271
4.17273 36.4236
4.21738 43.1879
4.26204 254.221
4.30669 224.41
4.35133 48.3205
4.39598 44.145
4.44063 54.1431
4.4853 65.747
4.52995 49.8326
4.5746 50.1857
4.61925 52.3168
4.6639 54.6713
4.70855 57.3593
4.75322 59.7707
4.79788 62.5145
4.84253 65.7454
4.88719 69.9972
4.93184 72.9558
4.97652 78.839
5.02118 83.8245
5.06583 90.8237
5.11049 101.406
5.15515 164.615
5.19981 273.869
5.24449 2318.47
5.28916 13506.4
5.33382 2761.45
5.37848 172.836
5.42315 123.833
5.46783 109.859
5.5125 103.259
5.55716 100.077
5.60183 96.1084
5.6465 94.2536
5.69117 92.6339
5.73586 90.1145
5.78053 89.3199
5.8252 88.4828
5.86988 88.9855
5.91455 90.5249
5.95924 96.3447
6.00392 167.807
6.0486 785.456
6.09328 4602.52
6.13795 3206.51
6.18263 213.539
6.22733 89.2884
6.27201 80.6093
6.3167 101.115
6.36138 79.6975
6.40606 67.779
6.45075 66.042
6.49545 64.2781
6.54014 63.0682
6.58483 61.8171
6.62952 61.7776
6.67421 93.8772
6.71892 145.518
6.76361 68.212
6.8083 58.1697
6.853 56.5999
6.89769 55.9091
6.94239 55.762
6.98711 55.242
7.03181 54.6786
7.07651 54.6208
7.12121 54.3912
7.16591 54.8385
7.21063 55.3435
7.25533 70.8443
7.30004 183.542
7.34475 92.0043
7.38945 55.9847
7.43416 53.7466
7.47889 53.716
7.5236 54.1024
7.56831 54.3735
7.61303 56.3502
7.65774 56.3618
7.70247 55.3468
7.74719 55.2732
7.79191 55.6896
7.83663 55.8887
7.88135 57.1187
7.92607 57.7128
7.97081 58.8446
8.01553 59.9089
8.06026 61.124
8.10498 62.7179
8.14971 72.3897
8.19446 71.3546
8.23919 68.2244
8.28392 70.1474
8.32865 72.59
8.37339 76.4748
8.41812 83.1125
8.46288 110.335
8.50761 141.11
8.55235 325.76
8.59709 1127.0
8.64183 2298.7
8.68658 916.183
8.73134 159.15
8.77609 96.5735
8.82083 90.5854
8.86558 87.6475
8.91033 88.3903
8.9551 90.1773
8.99985 83.6384
9.04461 81.8671
9.08936 81.2279
9.13412 80.5474
9.17888 80.6829
9.22365 81.2823
9.26841 80.7603
9.31318 81.049
9.35794 81.0169
9.4027 81.6306
9.44749 82.3493
9.49226 83.0739
9.53703 83.8844
9.5818 85.4937
9.62657 90.1727
9.67134 96.8845
9.71614 91.8872
9.76091 92.0652
9.80569 94.2298
9.85047 98.0378
9.89525 121.618
9.94005 132.029
9.98484 154.189
10.0296 295.283
10.0744 756.7
10.1192 1772.21
10.164 1544.66
10.2088 364.591
10.2536 122.101
10.2984 110.462
10.3432 111.977
10.388 101.913
10.4328 109.999
10.4776 145.666
10.5224 268.718
10.5672 525.863
10.612 501.871
10.6568 195.47
10.7017 94.1421
10.7465 85.0448
10.7913 81.3338
10.8361 79.5495
10.8809 77.3538
10.9257 76.8973
10.9706 77.3687
11.0154 73.2541
11.0602 71.3432
11.105 70.6807
11.1499 75.1636
11.1947 82.5319
11.2395 73.2719
11.2844 69.3175
11.3292 66.0155
11.374 65.1007
11.4189 64.4263
11.4637 63.6917
11.5086 64.4273
11.5534 67.2902
11.5983 64.3839
11.6431 62.447
11.688 62.0859
11.7328 61.5598
11.7777 61.5422
11.8225 61.0185
11.8674 61.1192
11.9122 61.5096
11.9571 61.6392
12.002 61.9447
12.0468 65.0016
12.0917 74.7104
12.1366 97.9302
12.1814 155.016
12.2263 207.089
12.2712 162.914
12.3161 94.8666
12.3609 69.5753
12.4058 63.5294
12.4507 62.9847
12.4956 63.2406
12.5405 63.5001
12.5853 64.4872
12.6302 72.4267
12.6751 77.5968
12.72 68.9289
12.7649 66.6059
12.8098 67.0135
12.8547 68.3026
12.8996 69.374
12.9445 70.8554
12.9894 72.312
13.0343 73.9841
13.0792 76.8302
13.1242 83.2024
13.1691 103.069
13.214 136.788
13.2589 231.403
13.3038 380.061
13.3487 428.28
13.3937 247.32
13.4386 119.408
13.4835 99.1608
13.5285 111.924
13.5734 148.081
13.6183 244.041
13.6633 359.02
13.7082 331.244
13.7531 176.898
13.7981 94.7548
13.843 80.054
13.888 77.9311
13.9329 75.5992
13.9779 74.5199
14.0228 72.881
14.0678 71.4602
14.1127 71.1642
14.1577 71.0559
14.2027 69.9258
14.2476 68.943
14.2926 69.275
14.3376 70.398
14.3825 68.8907
14.4275 67.4849
14.4725 67.0649
14.5175 67.3095
14.5624 67.7111
14.6074 69.635
14.6524 70.231
14.6974 68.9088
14.7424 69.6931
14.7874 74.7463
14.8324 83.7622
14.8774 104.791
14.9224 151.211
14.9674 213.754
15.0124 217.336
15.0574 147.143
15.1024 88.0866
15.1474 70.7271
15.1924 68.9965
15.2374 69.8002
15.2824 68.9675
15.3274 66.7198
15.3725 65.4265
15.4175 65.0063
15.4625 64.5249
15.5076 64.6568
15.5526 64.9855
15.5976 64.1571
15.6426 64.6494
15.6877 68.7522
15.7327 75.3681
15.7778 89.9578
15.8228 122.85
15.8679 172.979
15.9129 197.893
15.958 151.42
16.003 93.9467
16.0481 66.9174
16.0931 63.3874
16.1382 61.589
16.1833 59.5138
16.2283 57.9169
16.2734 57.2955
16.3185 57.591
16.3636 58.2713
16.4086 56.6604
16.4537 55.1623
16.4988 54.3984
16.5439 54.4539
16.589 53.9452
16.6341 53.7581
16.6792 53.5939
16.7243 53.6603
16.7694 53.8139
16.8145 53.4353
16.8596 54.1015
16.9047 55.7273
16.9498 55.9109
16.9949 54.5717
17.04 54.529
17.0851 55.5305
17.1302 56.9399
17.1754 59.9239
17.2205 64.8196
17.2656 73.2695
17.3108 82.0393
17.3559 80.1876
17.401 68.7352
17.4462 60.3409
17.4913 57.6313
17.5365 57.6649
17.5815 57.6781
17.6268 58.094
17.6718 59.1368
17.7171 59.5817
17.7622 59.6775
17.8074 60.3687
17.8525 61.9671
17.8977 65.4794
17.9428 70.633
17.9881 79.1103
18.0331 97.3758
18.0784 122.022
18.1237 138.501
18.1688 125.203
18.214 98.9295
18.2591 83.0846
18.3044 88.9332
18.3495 100.208
18.3948 106.215
18.4399 93.8561
18.4852 75.5267
18.5303 64.5892
18.5756 60.8935
18.6207 60.1358
18.666 59.2387
18.7112 58.4153
18.7565 57.6375
18.8016 57.3772
18.8469 56.8135
18.892 56.5736
18.9374 56.07
18.9825 55.8161
19.0278 55.7764
19.073 55.6383
19.1183 56.0364
19.1635 56.6639
19.2088 57.7979
19.254 60.3916
19.2993 65.3748
19.3447 71.9245
19.3898 75.5743
19.4352 70.1342
19.4804 61.2788
19.5257 55.1522
19.5709 52.8996
19.6163 52.8072
19.6615 52.6874
19.7068 52.2606
19.752 52.1026
19.7974 52.4439
19.8426 53.1905
19.888 53.6756
19.9332 54.8525
19.9786 57.3009
20.0238 61.4593
20.0692 66.5835
20.1144 68.8019
20.1598 66.3436
20.205 61.864
20.2504 60.9456
20.2957 63.2506
20.3411 64.9177
20.3863 62.5648
20.4318 56.8509
20.477 52.4243
20.5224 50.5241
20.5677 50.0122
20.6131 49.3083
20.6586 48.7166
20.7038 48.4465
20.7493 48.2912
20.7945 47.9046
20.84 47.951
20.8853 47.7194
20.9307 47.4822
20.976 47.5439
21.0215 47.5179
21.0668 47.8679
21.1122 48.5674
21.1575 49.0418
21.203 49.9216
21.2483 50.5695
21.2938 50.2124
21.3391 48.8953
21.3846 47.8531
21.4299 47.4668
21.4754 47.1835
21.5207 47.4731
21.5662 47.7806
21.6116 47.9099
21.6571 48.4812
21.7024 49.4379
21.7479 51.1535
21.7933 53.8678
21.8388 58.0354
21.8843 62.1058
21.9297 63.5199
21.9752 61.5203
22.0206 58.0528
22.0661 55.5663
22.1115 55.0735
22.157 54.9245
22.2024 53.1758
22.248 50.2551
22.2933 48.8922
22.3389 48.1251
22.3843 47.9871
22.4299 47.9968
22.4753 47.969
22.5208 47.5503
22.5662 47.6782
22.6118 47.519
22.6572 47.7894
22.7028 48.0061
22.7483 48.335
22.7939 48.9966
22.8393 50.5787
22.8849 53.1789
22.9303 55.3898
22.9759 56.9573
23.0214 56.1059
23.067 53.221
23.1126 49.8946
23.1581 48.1415
23.2037 47.6647
23.2492 47.8448
23.2948 47.6681
23.3403 47.7644
23.3859 48.5244
23.4314 49.4048
23.477 51.5197
23.5225 54.0235
23.5682 56.3574
23.6137 56.9484
23.6593 54.418
23.7048 50.3731
23.7505 47.4642
23.796 45.7264
23.8417 45.2682
23.8872 44.5645
23.9329 44.2336
23.9784 44.0389
24.0241 43.7947
24.0697 43.6127
24.1154 43.3163
24.1609 43.143
24.2066 43.0817
24.2522 42.8918
24.2979 42.594
24.3434 42.4413
24.3892 42.2526
24.4349 42.2072
24.4805 42.0887
24.5262 42.2678
24.5718 42.0735
24.6175 42.1172
24.6631 42.0678
24.7089 41.6626
24.7545 41.6329
24.8002 41.4588
24.8458 41.3322
24.8916 41.1353
24.9372 41.3221
24.983 41.5443
25.0286 42.0297
25.0744 42.424
25.12 42.8603
25.1658 43.4413
25.2114 43.7573
25.2572 43.8
25.3029 44.2076
25.3487 44.2105
25.3943 43.6486
25.4402 42.622
25.4858 41.5369
25.5316 40.6052
25.5773 40.0355
25.6231 40.2669
25.669 39.8377
25.7147 39.561
25.7605 39.6182
25.8062 39.615
25.8521 39.814
25.8977 39.5805
25.9436 39.9211
25.9893 40.1231
26.0352 40.607
26.0809 40.7855
26.1268 40.9469
26.1725 40.5364
26.2184 39.9221
26.2641 39.4767
26.31 39.27
26.3557 39.3275
26.4017 39.305
26.4474 39.4761
26.4933 39.8926
26.5391 40.4344
26.585 40.9726
26.6308 41.4655
26.6767 41.4393
26.7225 41.2511
26.7684 40.5894
26.8142 39.9771
26.8601 39.6649
26.9059 39.1266
26.9519 38.7796
26.9979 38.347
27.0437 38.1115
27.0896 37.9166
27.1354 37.9396
27.1814 37.8185
27.2272 37.8283
27.2732 37.7966
27.3191 37.7613
27.3651 37.5304
27.4109 37.6351
27.4569 37.8705
27.5027 37.9095
27.5488 37.8582
27.5946 37.5612
27.6407 37.3671
27.6865 37.3293
27.7326 37.1398
27.7784 37.1177
27.8245 37.1348
27.8703 37.1826
27.9164 37.4879
27.9623 37.7059
28.0084 37.982
28.0543 38.4117
28.1003 38.1716
28.1462 38.0765
28.1923 37.771
28.2384 37.2679
28.2843 36.9262
28.3304 36.3639
28.3764 36.033
28.4225 35.6181
28.4684 35.5944
28.5145 35.312
28.5605 35.1226
28.6066 34.9994
28.6526 34.9258
28.6987 34.9466
28.7447 34.8875
28.7908 34.7187
28.8368 34.7326
28.8829 34.7896
28.9289 34.7234
28.9751 34.4063
29.0211 34.154
29.0673 33.9192
29.1133 33.8675
29.1595 33.7513
29.2055 33.6642
29.2517 33.59
29.2977 33.61
29.3439 33.6743
29.3899 33.6921
29.4361 33.4047
29.4824 33.2849
29.5284 33.133
29.5746 32.7695
29.6207 32.416
29.6669 32.4763
29.713 32.4381
29.7593 32.2164
29.8053 32.2699
29.8516 32.1825
29.8977 32.168
29.9439 32.0344
29.99 32.0216
30.0363 31.8277
30.0824 31.8528
30.1287 31.8125
30.1748 31.8581
30.2211 31.8032
30.2673 31.6408
30.3136 31.7213
30.3597 31.5783
30.406 31.6089
30.4522 31.4849
30.4985 31.4401
30.5447 31.4696
30.591 31.5371
30.6372 31.6755
30.6835 31.6615
30.7297 31.6563
30.7761 31.4656
30.8224 31.3113
30.8686 31.2388
30.915 31.0468
30.9612 30.9629
31.0076 30.6556
31.0538 30.5781
31.1002 30.5752
31.1464 30.342
31.1928 30.2823
31.2391 30.3699
31.2855 30.2874
31.3317 30.2751
31.3781 30.2425
31.4244 30.2589
31.4708 30.2726
31.5171 30.2093
31.5636 30.2206
31.6098 30.0077
31.6563 29.7991
31.7026 29.5945
31.7491 29.6372
31.7953 29.5554
31.8418 29.5916
31.8881 29.5333
31.9346 29.57
31.9809 29.3863
32.0275 29.2707
32.074 29.2743
32.1203 29.0691
32.1668 28.9492
32.2132 28.8345
32.2597 28.6128
32.306 28.7482
32.3526 28.4257
32.399 28.3516
32.4455 28.2943
32.4919 28.1619
32.5385 28.1483
32.5848 27.8603
32.6314 27.93
32.6778 27.9041
32.7244 27.735
32.7708 27.624
32.8174 27.6583
32.8638 27.4693
32.9104 27.5709
32.9569 27.5711
33.0035 27.4183
33.0499 27.3363
33.0966 27.2983
33.143 27.2745
33.1897 27.1964
33.2361 27.124
33.2828 27.0903
33.3293 26.8157
33.3759 26.8735
33.4226 26.7524
33.4691 26.5541
33.5158 26.5997
33.5623 26.3822
33.609 26.1815
33.6555 26.168
33.7022 26.1222
33.7487 25.9551
33.7954 25.96
33.842 25.9452
33.8887 25.8191
33.9353 25.728
33.982 25.5971
34.0286 25.5785
34.0753 25.4465
34.1219 25.4658
34.1687 25.3525
34.2152 25.287
34.262 25.1601
34.3086 25.1061
34.3554 25.1419
34.402 24.9234
34.4488 24.8579
34.4954 24.7625
34.5422 24.6998
34.5889 24.571
34.6357 24.4618
34.6825 24.4251
34.7292 24.3542
34.776 24.25
34.8227 24.1302
34.8695 24.1561
34.9162 24.2217
34.9631 23.9792
35.0098 24.077
35.0566 23.848
35.1033 23.8656
35.1502 23.7674
35.1969 23.7296
35.2438 23.7215
35.2906 23.6921
35.3375 23.6082
35.3842 23.5285
35.4311 23.5322
35.4779 23.5
35.5248 23.5225
35.5716 23.3088
35.6185 23.2642
35.6653 23.0484
35.7123 23.0471
35.759 23.0026
35.806 23.0009
35.8528 22.8329
35.8998 22.749
35.9468 22.6526
35.9936 22.6753
36.0406 22.6347
36.0874 22.5364
36.1345 22.5026
36.1813 22.4008
36.2283 22.3149
36.2752 22.1943
36.3222 22.2304
36.3691 22.1913
36.4161 22.0421
36.463 21.9843
36.5101 22.0167
36.557 21.9117
36.6041 21.7766
36.651 21.7644
36.6981 21.6838
36.745 21.6299
36.7921 21.5861
36.839 21.4829
36.8861 21.4019
36.9331 21.3456
36.9802 21.3292
37.0272 21.2256
37.0743 21.0263
37.1213 21.0554
37.1684 21.0346
37.2154 20.8765
37.2626 20.8343
37.3098 20.8383
37.3568 20.718
37.404 20.6894
37.451 20.6145
37.4982 20.556
37.5452 20.4215
37.5924 20.4044
37.6395 20.4941
37.6867 20.2766
37.7337 20.1906
37.781 20.0824
37.8281 20.0756
37.8753 20.0247
37.9224 19.9246
37.9697 19.8984
38.0168 19.7997
38.064 19.754
38.1111 19.6574
38.1584 19.6051
38.2056 19.5867
38.2529 19.5033
38.3 19.416
38.3473 19.4081
38.3945 19.3475
38.4418 19.2674
38.489 19.2441
38.5363 19.1245
38.5837 19.0802
38.6309 19.0215
38.6782 18.9399
38.7254 18.8735
38.7728 18.8302
38.82 18.6507
38.8674 18.7436
38.9146 18.6953
38.9621 18.5811
39.0093 18.5952
39.0567 18.5212
39.104 18.4827
39.1514 18.3235
39.1987 18.4053
39.2461 18.2768
39.2934 18.2103
39.3409 18.1208
39.3882 18.0875
39.4356 18.0567
39.483 17.993
39.5304 17.8246
39.5778 17.8982
39.6253 17.7807
39.6726 17.8167
39.7201 17.7245
39.7675 17.6325
39.815 17.6256
39.8624 17.4734
39.9099 17.5616
39.9575 17.3686
40.0049 17.3141
40.0525 17.298
40.0999 17.2204
40.1474 17.2221
40.1949 17.123
40.2425 17.0491
40.2899 17.054
40.3375 17.0417
40.385 16.9131
40.4326 16.896
40.48 16.844
40.5277 16.7537
40.5752 16.7279
40.6228 16.5807
40.6703 16.592
40.718 16.5523
40.7655 16.5619
40.8132 16.4546
40.8607 16.4536
40.9084 16.3932
40.9559 16.3385
41.0036 16.2407
41.0512 16.2209
41.0989 16.1755
41.1465 16.1285
41.1942 16.0144
41.242 15.9549
41.2896 15.9133
41.3373 15.8689
41.3849 15.8526
41.4327 15.7915
41.4803 15.7209
41.5281 15.6337
41.5758 15.5823
41.6236 15.5563
41.6712 15.5182
41.7191 15.4105
41.7667 15.3985
41.8146 15.3994
41.8622 15.2896
41.9101 15.2364
41.9578 15.1831
42.0057 15.171
42.0534 15.0712
42.1013 15.049
42.149 15.0137
42.1969 14.9725
42.2446 14.9132
42.2925 14.8864
42.3403 14.8344
42.3882 14.7627
42.436 14.744
42.4839 14.6811
42.5319 14.6036
42.5797 14.5644
42.6277 14.5033
42.6755 14.4601
42.7235 14.4092
42.7713 14.3691
42.8193 14.3454
42.8671 14.3294
42.9152 14.2246
42.963 14.1549
43.0111 14.0873
43.0589 14.0617
43.107 13.965
43.1549 13.9775
43.2029 13.961
43.2508 13.8961
43.2989 13.7962
43.3468 13.776
43.3949 13.717
43.4429 13.706
43.491 13.6153
43.5389 13.5618
43.5871 13.472
43.635 13.4586
43.6832 13.4882
43.7312 13.3815
43.7793 13.3542
43.8273 13.3414
43.8755 13.2335
43.9237 13.2168
43.9717 13.1824
44.0199 13.1117
44.068 13.108
44.1162 13.0445
44.1642 13.0368
44.2125 12.975
44.2606 12.9159
44.3088 12.8866
44.3569 12.8118
44.4052 12.8011
44.4533 12.7064
44.5016 12.673
44.5497 12.6337
44.598 12.5528
44.6461 12.5521
44.6945 12.4541
44.7426 12.4451
44.791 12.3477
44.8391 12.3677
44.8875 12.3709
44.9357 12.2967
44.984 12.2455
45.0322 12.1796
45.0806 12.1216
45.1288 12.095
45.1773 12.0688
45.2257 11.9846
45.2739 12.023
45.3224 11.9103
45.3706 11.9358
45.4191 11.8707
45.4673 11.8178
45.5158 11.7769
45.5641 11.7528
45.6126 11.6899
45.6609 11.6048
45.7094 11.6219
45.7577 11.5803
45.8063 11.478
45.8546 11.5245
45.9031 11.4485
45.9515 11.3632
46.0001 11.372
46.0484 11.2913
46.097 11.302
46.1454 11.2074
46.194 11.2209
46.2424 11.1425
46.291 11.1107
46.3395 11.1036
46.3881 11.0067
46.4365 11.0037
46.4852 10.9607
46.5337 10.8936
46.5823 10.9324
46.631 10.8026
46.6795 10.8408
46.7282 10.7614
46.7767 10.7125
46.8254 10.668
46.8739 10.6223
46.9226 10.6485
46.9712 10.5825
47.0199 10.471
47.0685 10.4893
47.1173 10.4258
47.1658 10.3932
47.2146 10.3904
47.2632 10.3167
47.312 10.3032
47.3606 10.2527
47.4095 10.2174
47.4581 10.1984
47.5069 10.152
47.5556 10.1452
47.6044 10.0353
47.6531 10.0419
47.702 9.98985
47.7507 9.92227
47.7996 9.92269
47.8483 9.87625
47.8972 9.86762
47.9461 9.84418
47.9948 9.73288
48.0438 9.75667
48.0925 9.74019
48.1415 9.67268
48.1902 9.64045
48.2392 9.60044
48.288 9.57104
48.337 9.535
48.3858 9.46645
48.4348 9.45544
48.4837 9.44826
48.5327 9.44748
48.5815 9.34475
48.6306 9.38004
48.6795 9.31519
48.7285 9.23665
48.7774 9.2244
48.8265 9.19706
48.8754 9.12827
48.9245 9.10663
48.9734 9.08512
49.0226 9.08288
49.0715 9.02374
49.1206 8.97928
49.1696 8.93726
49.2188 8.91284
49.2679 8.88186
49.3169 8.87057
49.3661 8.80409
49.4151 8.76694
49.4643 8.76282
49.5134 8.71274
49.5626 8.63057
49.6117 8.65889
49.6609 8.66076
49.71 8.57657
49.7592 8.54298
49.8083 8.52255
49.8576 8.47546
49.9067 8.4532
49.956 8.40618
50.0052 8.39597
50.0545 8.3549
50.1036 8.30518
50.153 8.30692
50.2022 8.2499
50.2515 8.23407
50.3007 8.17298
50.3501 8.15356
50.3993 8.12708
50.4487 8.08526
50.498 8.08138
50.5474 8.04276
50.5966 8.02804
50.6461 7.96046
50.6955 7.89056
50.7448 7.90265
50.7943 7.90927
50.8436 7.82879
50.8931 7.80843
50.9424 7.78569
50.9919 7.73054
51.0413 7.69447
51.0908 7.68577
51.1402 7.66792
51.1897 7.6605
51.2391 7.62976
51.2887 7.51109
51.3381 7.56854
51.3877 7.49621
51.4371 7.43116
51.4867 7.39445
51.5362 7.39017
51.5858 7.40247
51.6353 7.34662
51.6849 7.35385
51.7344 7.28898
51.7841 7.31298
51.8336 7.24554
51.8833 7.19484
51.9328 7.16167
51.9826 7.10024
52.0323 7.14878
52.0818 7.09818
52.1316 7.0759
52.1812 7.03224
52.231 6.9841
52.2806 6.95321
52.3304 6.94831
52.38 6.90052
52.4298 6.88145
52.4794 6.83682
52.5293 6.80605
52.5789 6.8154
52.6288 6.77967
52.6785 6.74771
52.7284 6.73725
52.7781 6.72031
52.828 6.66152
52.8777 6.63403
52.9276 6.62603
52.9774 6.579
53.0273 6.54321
53.0771 6.52876
53.1271 6.53174
53.1769 6.46706
53.2269 6.46641
53.2767 6.39022
53.3267 6.38348
53.3765 6.38028
53.4266 6.30841
53.4766 6.31284
53.5265 6.28487
53.5765 6.28532
53.6264 6.23005
53.6765 6.21142
53.7264 6.18011
53.7765 6.15947
53.8265 6.12017
53.8766 6.08437
53.9266 6.07241
53.9767 6.02282
54.0267 6.05696
54.0769 5.99003
54.1269 5.96132
54.1771 5.89242
54.2271 5.90384
54.2773 5.83103
54.3274 5.87267
54.3776 5.7894
54.4277 5.75602
54.478 5.78488
54.528 5.69652
54.5783 5.68569
54.6285 5.65695
54.6788 5.63302
54.7289 5.54354
54.7792 5.5387
54.8296 5.41516
54.8798 5.40959
54.9301 5.37654
54.9803 5.34534
55.0307 5.31225
55.0809 5.25599
55.1314 5.23003
55.1816 5.2312
55.232 5.14261
55.2823 5.10632
55.3328 5.07191
55.383 5.03494
55.4335 4.98903
55.4838 4.84757
55.5344 4.90509
55.5847 4.86266
55.6352 4.81473
55.6856 4.78698
55.7361 4.7275