File: XRD/Ni3Fe_FD0891.xy
TT I
1.27165 6.99902
1.31627 6.20553
1.36089 6.06327
1.40551 5.67106
1.45013 6.04896
1.49476 6.3145
1.53938 5.69009
1.584 4.91375
1.62863 4.90584
1.67325 5.20939
1.71787 5.31654
1.7625 4.55169
1.80712 5.02722
1.85174 4.7945
1.89636 4.35553
1.94099 5.1775
1.98562 4.7327
2.03025 4.90613
2.07487 4.47901
2.11949 5.38321
2.16411 4.78096
2.20874 14.4634
2.25338 22.1633
2.298 6.05652
2.34263 5.49367
2.38725 6.50124
2.43188 6.49855
2.4765 7.00107
2.52115 7.15325
2.56577 8.28355
2.6104 9.04771
2.65503 8.22632
2.69965 8.99283
2.7443 8.44398
2.78893 8.33937
2.83356 8.32679
2.87818 8.99886
2.92281 9.63829
2.96744 9.4357
3.01209 10.7267
3.05672 11.005
3.10135 12.3182
3.14599 13.3227
3.19062 14.5352
3.23527 15.3549
3.2799 15.775
3.32454 16.7967
3.36917 17.8095
3.4138 19.2457
3.45844 19.6923
3.50309 20.6087
3.54773 21.7372
3.59237 24.1929
3.637 90.3933
3.68164 58.1863
3.7263 25.8797
3.77094 25.894
3.81558 26.1191
3.86022 27.3961
3.90486 28.7866
3.9495 29.5523
3.99416 30.9208
4.0388 32.0851
4.08344 32.7758
4.12809 34.1113
4.17273 35.9299
4.21738 41.6597
4.26204 242.869
4.30669 216.735
4.35133 47.8513
4.39598 43.8065
4.44063 53.1562
4.4853 64.6873
4.52995 49.4507
4.5746 50.4997
4.61925 52.5107
4.6639 54.3122
4.70855 56.9343
4.75322 59.9006
4.79788 62.2046
4.84253 65.847
4.88719 69.4893
4.93184 73.2693
4.97652 78.6156
5.02118 84.6527
5.06583 91.5183
5.11049 102.173
5.15515 164.642
5.19981 289.121
5.24449 2465.52
5.28916 13350.0
5.33382 2627.65
5.37848 170.062
5.42315 122.798
5.46783 108.992
5.5125 103.285
5.55716 99.0892
5.60183 95.9765
5.6465 94.1079
5.69117 91.9789
5.73586 90.1459
5.78053 89.729
5.8252 88.6916
5.86988 88.8766
5.91455 90.7406
5.95924 97.3631
6.00392 172.614
6.0486 844.136
6.09328 4512.01
6.13795 3096.08
6.18263 206.164
6.22733 88.5564
6.27201 80.0827
6.3167 99.3562
6.36138 79.1515
6.40606 67.7105
6.45075 65.7404
6.49545 64.0847
6.54014 62.923
6.58483 61.5206
6.62952 61.462
6.67421 92.093
6.71892 141.753
6.76361 67.9702
6.8083 57.3707
6.853 56.46
6.89769 55.8692
6.94239 56.0332
6.98711 54.4747
7.03181 54.7027
7.07651 54.8837
7.12121 54.0926
7.16591 54.5802
7.21063 54.7455
7.25533 69.5488
7.30004 175.085
7.34475 90.8241
7.38945 55.7745
7.43416 53.9515
7.47889 53.4487
7.5236 54.0425
7.56831 54.3136
7.61303 56.2076
7.65774 56.5323
7.70247 55.3718
7.74719 55.16
7.79191 55.5721
7.83663 55.7168
7.88135 56.7198
7.92607 57.4312
7.97081 58.6166
8.01553 59.5838
8.06026 60.8426
8.10498 62.6372
8.14971 72.1449
8.19446 71.0667
8.23919 68.1599
8.28392 70.4431
8.32865 72.5679
8.37339 76.2307
8.41812 83.1113
8.46288 109.805
8.50761 145.298
8.55235 337.011
8.59709 1158.0
8.64183 2322.45
8.68658 960.666
8.73134 154.194
8.77609 96.0913
8.82083 90.3481
8.86558 87.2591
8.91033 87.5329
8.9551 89.639
8.99985 83.4273
9.04461 81.504
9.08936 80.856
9.13412 80.3832
9.17888 80.3194
9.22365 81.3086
9.26841 80.1413
9.31318 80.9394
9.35794 80.5893
9.4027 81.5421
9.44749 82.3722
9.49226 82.9956
9.53703 83.6799
9.5818 85.6583
9.62657 89.8119
9.67134 96.5877
9.71614 92.1033
9.76091 91.7732
9.80569 93.8712
9.85047 97.1555
9.89525 120.979
9.94005 132.854
9.98484 157.116
10.0296 303.37
10.0744 766.658
10.1192 1844.2
10.164 1567.26
10.2088 357.857
10.2536 119.76
10.2984 110.208
10.3432 111.783
10.388 101.952
10.4328 111.463
10.4776 149.191
10.5224 272.475
10.5672 534.517
10.612 511.48
10.6568 186.577
10.7017 92.7262
10.7465 84.31
10.7913 81.4582
10.8361 79.7072
10.8809 77.4279
10.9257 76.9312
10.9706 77.2906
11.0154 73.412
11.0602 71.4022
11.105 70.217
11.1499 75.0943
11.1947 81.7352
11.2395 73.3545
11.2844 69.1146
11.3292 66.0147
11.374 64.8964
11.4189 64.1012
11.4637 63.9039
11.5086 64.2933
11.5534 66.848
11.5983 64.1932
11.6431 62.2903
11.688 61.491
11.7328 61.5778
11.7777 61.5913
11.8225 61.0165
11.8674 61.0858
11.9122 61.5207
11.9571 61.7105
12.002 62.2474
12.0468 64.9968
12.0917 75.1354
12.1366 98.2671
12.1814 155.937
12.2263 218.441
12.2712 162.336
12.3161 90.5597
12.3609 68.8062
12.4058 63.5047
12.4507 62.9574
12.4956 63.1044
12.5405 63.1742
12.5853 64.1658
12.6302 71.9425
12.6751 77.4739
12.72 68.6453
12.7649 66.5204
12.8098 66.8527
12.8547 68.2284
12.8996 69.4877
12.9445 70.6644
12.9894 72.3025
13.0343 74.0341
13.0792 76.7999
13.1242 83.838
13.1691 104.52
13.214 138.628
13.2589 230.549
13.3038 384.932
13.3487 431.265
13.3937 246.508
13.4386 115.16
13.4835 99.5825
13.5285 112.964
13.5734 149.297
13.6183 247.139
13.6633 367.114
13.7082 337.246
13.7531 168.609
13.7981 92.0648
13.843 79.6719
13.888 77.6419
13.9329 75.3348
13.9779 74.0979
14.0228 72.9858
14.0678 71.3334
14.1127 71.0865
14.1577 71.0466
14.2027 69.7547
14.2476 68.9333
14.2926 69.1836
14.3376 70.0487
14.3825 69.0349
14.4275 67.3257
14.4725 67.3103
14.5175 67.4348
14.5624 67.6464
14.6074 69.7431
14.6524 70.1224
14.6974 68.9198
14.7424 69.9888
14.7874 74.9918
14.8324 84.7618
14.8774 105.872
14.9224 151.945
14.9674 217.2
15.0124 218.974
15.0574 138.908
15.1024 85.5462
15.1474 70.4585
15.1924 68.781
15.2374 69.5287
15.2824 68.8718
15.3274 66.791
15.3725 65.2064
15.4175 64.8918
15.4625 64.752
15.5076 64.9221
15.5526 64.9174
15.5976 64.5861
15.6426 64.6878
15.6877 69.3049
15.7327 76.1494
15.7778 90.4527
15.8228 124.053
15.8679 175.531
15.9129 199.81
15.958 151.186
16.003 90.0093
16.0481 65.6967
16.0931 63.3497
16.1382 61.5186
16.1833 59.1571
16.2283 57.8185
16.2734 57.1033
16.3185 57.4494
16.3636 58.1216
16.4086 56.6236
16.4537 55.2455
16.4988 54.2935
16.5439 54.525
16.589 54.1553
16.6341 54.056
16.6792 53.5907
16.7243 53.9427
16.7694 53.8435
16.8145 53.6801
16.8596 54.3938
16.9047 55.6458
16.9498 55.8071
16.9949 54.6198
17.04 54.4902
17.0851 55.5499
17.1302 57.2294
17.1754 59.9469
17.2205 65.0694
17.2656 73.4989
17.3108 83.4572
17.3559 81.0432
17.401 68.5716
17.4462 60.1055
17.4913 57.6514
17.5365 57.8119
17.5815 57.9138
17.6268 58.3807
17.6718 59.2549
17.7171 59.7911
17.7622 60.1391
17.8074 60.3656
17.8525 62.3592
17.8977 65.9313
17.9428 70.7957
17.9881 79.4348
18.0331 97.8793
18.0784 123.938
18.1237 140.788
18.1688 127.23
18.214 97.7906
18.2591 83.0308
18.3044 89.2966
18.3495 101.497
18.3948 107.405
18.4399 93.2419
18.4852 73.9411
18.5303 64.0984
18.5756 61.0372
18.6207 59.9493
18.666 59.245
18.7112 58.6454
18.7565 57.6916
18.8016 57.5104
18.8469 56.9422
18.892 56.5995
18.9374 55.9668
18.9825 55.7425
19.0278 55.8175
19.073 55.7677
19.1183 56.1449
19.1635 56.7633
19.2088 58.0909
19.254 60.4146
19.2993 65.7999
19.3447 72.394
19.3898 76.2894
19.4352 70.5953
19.4804 61.2514
19.5257 55.2719
19.5709 52.9663
19.6163 53.0519
19.6615 52.572
19.7068 52.2282
19.752 52.3506
19.7974 52.6132
19.8426 53.1851
19.888 53.7711
19.9332 55.0064
19.9786 57.398
20.0238 61.3349
20.0692 66.9945
20.1144 69.3802
20.1598 66.4731
20.205 61.5322
20.2504 60.9885
20.2957 63.895
20.3411 65.5507
20.3863 63.0279
20.4318 56.7703
20.477 52.2671
20.5224 50.6762
20.5677 49.9078
20.6131 49.328
20.6586 48.8961
20.7038 48.5851
20.7493 48.1093
20.7945 48.2255
20.84 48.1274
20.8853 47.6754
20.9307 47.4216
20.976 47.7879
21.0215 47.7169
21.0668 48.1256
21.1122 48.5358
21.1575 49.2092
21.203 50.079
21.2483 50.9413
21.2938 50.4252
21.3391 49.056
21.3846 47.821
21.4299 47.5463
21.4754 47.3598
21.5207 47.5968
21.5662 47.7092
21.6116 48.1728
21.6571 48.7722
21.7024 49.6396
21.7479 51.3245
21.7933 54.0917
21.8388 58.2356
21.8843 62.7605
21.9297 64.3332
21.9752 61.828
22.0206 57.6033
22.0661 55.5046
22.1115 55.3123
22.157 55.1514
22.2024 52.8393
22.248 50.1411
22.2933 48.9142
22.3389 48.1005
22.3843 48.0739
22.4299 47.9928
22.4753 47.87
22.5208 47.8029
22.5662 47.5823
22.6118 47.6346
22.6572 47.7455
22.7028 48.1541
22.7483 48.7391
22.7939 49.284
22.8393 50.834
22.8849 53.2142
22.9303 55.8063
22.9759 57.5474
23.0214 56.6407
23.067 53.0913
23.1126 50.0004
23.1581 48.1257
23.2037 47.7896
23.2492 47.9205
23.2948 47.9958
23.3403 47.9513
23.3859 48.5879
23.4314 49.7374
23.477 51.7379
23.5225 54.4102
23.5682 56.9749
23.6137 57.6407
23.6593 54.3631
23.7048 50.0766
23.7505 47.258
23.796 45.6596
23.8417 45.2203
23.8872 44.6963
23.9329 44.4488
23.9784 44.1193
24.0241 43.8926
24.0697 43.6704
24.1154 43.2631
24.1609 43.2196
24.2066 43.1378
24.2522 42.8841
24.2979 42.5295
24.3434 42.5123
24.3892 42.4629
24.4349 42.3996
24.4805 42.2393
24.5262 42.3419
24.5718 42.2148
24.6175 42.1059
24.6631 41.9818
24.7089 41.7312
24.7545 41.6543
24.8002 41.4404
24.8458 41.588
24.8916 41.2711
24.9372 41.3634
24.983 41.6634
25.0286 41.9951
25.0744 42.6529
25.12 43.0291
25.1658 43.8645
25.2114 43.8785
25.2572 43.9525
25.3029 44.306
25.3487 44.3204
25.3943 43.9647
25.4402 42.4724
25.4858 41.5245
25.5316 40.5844
25.5773 40.1786
25.6231 40.2634
25.669 39.8521
25.7147 39.8676
25.7605 39.6081
25.8062 39.7119
25.8521 39.9394
25.8977 39.8021
25.9436 40.0962
25.9893 40.4502
26.0352 40.8782
26.0809 40.9509
26.1268 40.8611
26.1725 40.587
26.2184 39.9491
26.2641 39.4967
26.31 39.2509
26.3557 39.3175
26.4017 39.343
26.4474 39.7207
26.4933 40.1218
26.5391 40.5839
26.585 41.1285
26.6308 41.5841
26.6767 41.4398
26.7225 41.2931
26.7684 40.7465
26.8142 40.0689
26.8601 39.6642
26.9059 39.4267
26.9519 38.7871
26.9979 38.4182
27.0437 38.2224
27.0896 37.9463
27.1354 38.0223
27.1814 37.9065
27.2272 37.8474
27.2732 37.9161
27.3191 37.6982
27.3651 37.7274
27.4109 37.7151
27.4569 37.7432
27.5027 37.9266
27.5488 37.9312
27.5946 37.7175
27.6407 37.4832
27.6865 37.5337
27.7326 37.1756
27.7784 37.1761
27.8245 37.0382
27.8703 37.3847
27.9164 37.5746
27.9623 37.812
28.0084 38.2778
28.0543 38.6426
28.1003 38.3366
28.1462 38.1211
28.1923 37.8512
28.2384 37.1817
28.2843 36.9128
28.3304 36.4913
28.3764 36.0293
28.4225 35.8582
28.4684 35.536
28.5145 35.2302
28.5605 35.2148
28.6066 34.9646
28.6526 35.0242
28.6987 35.0222
28.7447 34.9123
28.7908 34.8567
28.8368 34.7561
28.8829 34.9083
28.9289 34.8358
28.9751 34.5847
29.0211 34.3136
29.0673 34.035
29.1133 33.8729
29.1595 33.7579
29.2055 33.7064
29.2517 33.7613
29.2977 33.7295
29.3439 33.7449
29.3899 33.6514
29.4361 33.6802
29.4824 33.4254
29.5284 33.2617
29.5746 32.8912
29.6207 32.5187
29.6669 32.3884
29.713 32.4876
29.7593 32.3249
29.8053 32.2867
29.8516 32.23
29.8977 32.1159
29.9439 32.0013
29.99 31.904
30.0363 32.0042
30.0824 31.8993
30.1287 31.7667
30.1748 31.8782
30.2211 31.8933
30.2673 31.7389
30.3136 31.7703
30.3597 31.7202
30.406 31.5269
30.4522 31.4535
30.4985 31.5089
30.5447 31.6394
30.591 31.5352
30.6372 31.6321
30.6835 31.5969
30.7297 31.7255
30.7761 31.468
30.8224 31.4402
30.8686 31.2942
30.915 31.0749
30.9612 30.9203
31.0076 30.7274
31.0538 30.6141
31.1002 30.5666
31.1464 30.3942
31.1928 30.3326
31.2391 30.4375
31.2855 30.3181
31.3317 30.3279
31.3781 30.3763
31.4244 30.3738
31.4708 30.3113
31.5171 30.1602
31.5636 30.1931
31.6098 29.934
31.6563 29.825
31.7026 29.6587
31.7491 29.6432
31.7953 29.5475
31.8418 29.5296
31.8881 29.629
31.9346 29.5448
31.9809 29.5291
32.0275 29.3715
32.074 29.3084
32.1203 29.1548
32.1668 29.0013
32.2132 28.8318
32.2597 28.7548
32.306 28.654
32.3526 28.5347
32.399 28.4514
32.4455 28.184
32.4919 28.229
32.5385 28.1742
32.5848 27.997
32.6314 28.018
32.6778 27.8707
32.7244 27.8055
32.7708 27.6747
32.8174 27.6441
32.8638 27.5546
32.9104 27.625
32.9569 27.519
33.0035 27.423
33.0499 27.3924
33.0966 27.2652
33.143 27.3726
33.1897 27.2595
33.2361 27.1825
33.2828 27.1176
33.3293 26.9382
33.3759 27.0047
33.4226 26.7622
33.4691 26.6359
33.5158 26.5595
33.5623 26.4945
33.609 26.2635
33.6555 26.2515
33.7022 26.1637
33.7487 26.0112
33.7954 26.0037
33.842 25.9429
33.8887 25.7721
33.9353 25.7017
33.982 25.6641
34.0286 25.6693
34.0753 25.6524
34.1219 25.4042
34.1687 25.4115
34.2152 25.3619
34.262 25.1902
34.3086 25.0796
34.3554 25.0408
34.402 24.949
34.4488 24.8413
34.4954 24.8878
34.5422 24.7572
34.5889 24.655
34.6357 24.5598
34.6825 24.5544
34.7292 24.4745
34.776 24.3269
34.8227 24.2927
34.8695 24.2853
34.9162 24.1398
34.9631 24.0566
35.0098 24.099
35.0566 23.9482
35.1033 23.8769
35.1502 23.8303
35.1969 23.809
35.2438 23.755
35.2906 23.6772
35.3375 23.6803
35.3842 23.6212
35.4311 23.6152
35.4779 23.5375
35.5248 23.4914
35.5716 23.4154
35.6185 23.342
35.6653 23.1987
35.7123 23.0892
35.759 22.9631
35.806 22.9731
35.8528 22.8772
35.8998 22.8093
35.9468 22.7253
35.9936 22.772
36.0406 22.6502
36.0874 22.5614
36.1345 22.5247
36.1813 22.4133
36.2283 22.3422
36.2752 22.1894
36.3222 22.172
36.3691 22.1926
36.4161 22.0899
36.463 22.0867
36.5101 22.0491
36.557 21.9926
36.6041 21.8288
36.651 21.8425
36.6981 21.6802
36.745 21.7205
36.7921 21.6053
36.839 21.4936
36.8861 21.4667
36.9331 21.3909
36.9802 21.3411
37.0272 21.2593
37.0743 21.1632
37.1213 21.0852
37.1684 21.0534
37.2154 20.9735
37.2626 20.8974
37.3098 20.8769
37.3568 20.8352
37.404 20.7793
37.451 20.6716
37.4982 20.6061
37.5452 20.487
37.5924 20.4681
37.6395 20.4441
37.6867 20.3639
37.7337 20.3261
37.781 20.1879
37.8281 20.138
37.8753 20.0137
37.9224 19.9908
37.9697 19.9276
38.0168 19.8982
38.064 19.7907
38.1111 19.8313
38.1584 19.6545
38.2056 19.6286
38.2529 19.5918
38.3 19.4451
38.3473 19.5262
38.3945 19.3443
38.4418 19.3021
38.489 19.3053
38.5363 19.2393
38.5837 19.1376
38.6309 19.096
38.6782 19.0071
38.7254 18.9784
38.7728 18.9523
38.82 18.8394
38.8674 18.7726
38.9146 18.6791
38.9621 18.624
39.0093 18.5977
39.0567 18.5504
39.104 18.5035
39.1514 18.3853
39.1987 18.4402
39.2461 18.3225
39.2934 18.2296
39.3409 18.1223
39.3882 18.125
39.4356 18.0831
39.483 18.0061
39.5304 17.972
39.5778 17.8983
39.6253 17.8261
39.6726 17.7731
39.7201 17.7682
39.7675 17.6524
39.815 17.6346
39.8624 17.5937
39.9099 17.6137
39.9575 17.4533
40.0049 17.4425
40.0525 17.3441
40.0999 17.3287
40.1474 17.2533
40.1949 17.2456
40.2425 17.09
40.2899 17.1656
40.3375 17.0273
40.385 16.9681
40.4326 16.9122
40.48 16.8138
40.5277 16.8099
40.5752 16.7163
40.6228 16.6527
40.6703 16.6658
40.718 16.6104
40.7655 16.5907
40.8132 16.4596
40.8607 16.4852
40.9084 16.4164
40.9559 16.3474
41.0036 16.3192
41.0512 16.2704
41.0989 16.1957
41.1465 16.1083
41.1942 16.094
41.242 16.0233
41.2896 15.9086
41.3373 15.9066
41.3849 15.9035
41.4327 15.7751
41.4803 15.7315
41.5281 15.7029
41.5758 15.6473
41.6236 15.5693
41.6712 15.504
41.7191 15.4941
41.7667 15.4059
41.8146 15.3749
41.8622 15.3046
41.9101 15.2944
41.9578 15.1612
42.0057 15.2158
42.0534 15.1742
42.1013 15.0672
42.149 15.05
42.1969 14.9854
42.2446 14.9682
42.2925 14.9259
42.3403 14.8474
42.3882 14.8193
42.436 14.7751
42.4839 14.6591
42.5319 14.6569
42.5797 14.5809
42.6277 14.4919
42.6755 14.5283
42.7235 14.4159
42.7713 14.4133
42.8193 14.3842
42.8671 14.2642
42.9152 14.2716
42.963 14.2321
43.0111 14.1134
43.0589 14.0546
43.107 14.0308
43.1549 14.0306
43.2029 13.9762
43.2508 13.9257
43.2989 13.8929
43.3468 13.8149
43.3949 13.7705
43.4429 13.7482
43.491 13.6815
43.5389 13.6457
43.5871 13.5826
43.635 13.5162
43.6832 13.5299
43.7312 13.4095
43.7793 13.334
43.8273 13.3052
43.8755 13.2571
43.9237 13.2691
43.9717 13.2292
44.0199 13.1555
44.068 13.1481
44.1162 13.0874
44.1642 13.0003
44.2125 13.0063
44.2606 12.9316
44.3088 12.8599
44.3569 12.8807
44.4052 12.8228
44.4533 12.6838
44.5016 12.6726
44.5497 12.6479
44.598 12.6098
44.6461 12.5862
44.6945 12.5393
44.7426 12.5317
44.791 12.421
44.8391 12.4172
44.8875 12.3413
44.9357 12.308
44.984 12.2728
45.0322 12.2109
45.0806 12.1965
45.1288 12.147
45.1773 12.0918
45.2257 12.0413
45.2739 11.9938
45.3224 11.9651
45.3706 11.9307
45.4191 11.8659
45.4673 11.8478
45.5158 11.786
45.5641 11.7328
45.6126 11.7228
45.6609 11.6346
45.7094 11.5994
45.7577 11.6114
45.8063 11.5095
45.8546 11.5268
45.9031 11.4538
45.9515 11.3805
46.0001 11.3335
46.0484 11.3396
46.097 11.3199
46.1454 11.2696
46.194 11.2212
46.2424 11.1717
46.291 11.1108
46.3395 11.1178
46.3881 11.0614
46.4365 11.025
46.4852 10.9791
46.5337 10.956
46.5823 10.956
46.631 10.8818
46.6795 10.8027
46.7282 10.7936
46.7767 10.7354
46.8254 10.6935
46.8739 10.664
46.9226 10.6239
46.9712 10.5613
47.0199 10.5424
47.0685 10.49
47.1173 10.4637
47.1658 10.4188
47.2146 10.37
47.2632 10.3505
47.312 10.2725
47.3606 10.2814
47.4095 10.2377
47.4581 10.1879
47.5069 10.1439
47.5556 10.1351
47.6044 10.0663
47.6531 10.0254
47.702 10.0038
47.7507 9.97376
47.7996 9.93948
47.8483 9.89149
47.8972 9.85282
47.9461 9.81783
47.9948 9.79314
48.0438 9.73678
48.0925 9.75073
48.1415 9.67211
48.1902 9.6435
48.2392 9.64041
48.288 9.60111
48.337 9.56077
48.3858 9.53204
48.4348 9.45062
48.4837 9.43555
48.5327 9.4434
48.5815 9.35899
48.6306 9.34452
48.6795 9.33303
48.7285 9.27534
48.7774 9.23506
48.8265 9.23573
48.8754 9.14946
48.9245 9.12303
48.9734 9.14623
49.0226 9.07572
49.0715 9.01876
49.1206 9.00846
49.1696 8.97385
49.2188 8.94414
49.2679 8.90214
49.3169 8.86312
49.3661 8.79667
49.4151 8.77524
49.4643 8.75171
49.5134 8.73831
49.5626 8.6792
49.6117 8.6525
49.6609 8.63146
49.71 8.57112
49.7592 8.54009
49.8083 8.5285
49.8576 8.49297
49.9067 8.43714
49.956 8.44126
50.0052 8.36659
50.0545 8.39052
50.1036 8.35199
50.153 8.32125
50.2022 8.26348
50.2515 8.22874
50.3007 8.21739
50.3501 8.16919
50.3993 8.12973
50.4487 8.12054
50.498 8.1155
50.5474 8.01685
50.5966 8.0135
50.6461 7.99617
50.6955 7.93311
50.7448 7.90244
50.7943 7.91055
50.8436 7.85787
50.8931 7.83921
50.9424 7.8378
50.9919 7.77966
51.0413 7.75155
51.0908 7.70724
51.1402 7.68461
51.1897 7.66027
51.2391 7.61718
51.2887 7.5709
51.3381 7.55906
51.3877 7.54182
51.4371 7.50852
51.4867 7.45951
51.5362 7.42792
51.5858 7.3903
51.6353 7.35582
51.6849 7.34811
51.7344 7.29706
51.7841 7.2719
51.8336 7.22664
51.8833 7.21517
51.9328 7.17574
51.9826 7.15207
52.0323 7.13627
52.0818 7.1259
52.1316 7.08382
52.1812 7.0725
52.231 6.9682
52.2806 6.98035
52.3304 7.00961
52.38 6.95474
52.4298 6.90698
52.4794 6.83431
52.5293 6.85711
52.5789 6.78451
52.6288 6.80863
52.6785 6.72513
52.7284 6.75634
52.7781 6.69068
52.828 6.65952
52.8777 6.61646
52.9276 6.60041
52.9774 6.62032
53.0273 6.57397
53.0771 6.56201
53.1271 6.53742
53.1769 6.43834
53.2269 6.42662
53.2767 6.45701
53.3267 6.38732
53.3765 6.38912
53.4266 6.31644
53.4766 6.28146
53.5265 6.29981
53.5765 6.25842
53.6264 6.2427
53.6765 6.26406
53.7264 6.15026
53.7765 6.15469
53.8265 6.12163
53.8766 6.12374
53.9266 6.06808
53.9767 6.06211
54.0267 6.0289
54.0769 6.02872
54.1269 5.98102
54.1771 5.92283
54.2271 5.87574
54.2773 5.85664
54.3274 5.84364
54.3776 5.7938
54.4277 5.78706
54.478 5.73944
54.528 5.71729
54.5783 5.7149
54.6285 5.60445
54.6788 5.58539
54.7289 5.54458
54.7792 5.50184
54.8296 5.454
54.8798 5.4312
54.9301 5.38774
54.9803 5.34721
55.0307 5.33735
55.0809 5.28283
55.1314 5.25859
55.1816 5.18316
55.232 5.14148
55.2823 5.11473
55.3328 5.06486
55.383 5.03233
55.4335 4.95756
55.4838 4.83062
55.5344 4.88863
55.5847 4.84374
55.6352 4.83717
55.6856 4.78164
55.7361 4.72197