File: XRD/Ni3Fe_FD0789.xy
TT I
1.27165 7.25671
1.31627 7.1306
1.36089 6.61345
1.40551 5.73598
1.45013 6.46628
1.49476 5.96809
1.53938 6.19448
1.584 5.43758
1.62863 5.87647
1.67325 5.35445
1.71787 4.3286
1.7625 4.99026
1.80712 4.93939
1.85174 4.11588
1.89636 4.73658
1.94099 5.1836
1.98562 4.6734
2.03025 4.68003
2.07487 4.71399
2.11949 4.5742
2.16411 4.81472
2.20874 11.016
2.25338 15.9756
2.298 5.61316
2.34263 5.6779
2.38725 6.409
2.43188 6.92972
2.4765 7.11615
2.52115 7.57376
2.56577 7.97037
2.6104 8.25815
2.65503 7.89532
2.69965 7.6791
2.7443 8.26227
2.78893 7.92578
2.83356 8.57097
2.87818 8.76386
2.92281 9.3723
2.96744 9.70481
3.01209 10.1082
3.05672 11.3685
3.10135 12.1589
3.14599 12.8039
3.19062 14.6098
3.23527 14.9598
3.2799 15.642
3.32454 16.911
3.36917 17.729
3.4138 18.5323
3.45844 19.2895
3.50309 20.7049
3.54773 21.7839
3.59237 23.4001
3.637 69.1247
3.68164 46.275
3.7263 25.7513
3.77094 25.7985
3.81558 26.683
3.86022 26.8692
3.90486 28.7732
3.9495 29.6135
3.99416 30.2288
4.0388 31.9258
4.08344 32.9562
4.12809 34.5398
4.17273 36.1402
4.21738 40.4401
4.26204 179.133
4.30669 154.539
4.35133 45.7333
4.39598 43.724
4.44063 51.0613
4.4853 59.1079
4.52995 51.0056
4.5746 51.8949
4.61925 52.6572
4.6639 54.7367
4.70855 57.5048
4.75322 61.1319
4.79788 64.519
4.84253 67.436
4.88719 71.1147
4.93184 74.5545
4.97652 79.9919
5.02118 86.518
5.06583 93.707
5.11049 104.88
5.15515 159.015
5.19981 357.31
5.24449 2803.69
5.28916 12455.5
5.33382 2532.71
5.37848 178.06
5.42315 125.33
5.46783 112.571
5.5125 105.259
5.55716 100.641
5.60183 97.2904
5.6465 95.417
5.69117 93.3942
5.73586 91.1827
5.78053 92.0442
5.8252 91.5226
5.86988 92.867
5.91455 93.878
5.95924 102.459
6.00392 216.524
6.0486 958.073
6.09328 4533.66
6.13795 3113.18
6.18263 203.769
6.22733 89.4313
6.27201 80.0783
6.3167 91.8762
6.36138 76.521
6.40606 68.2271
6.45075 67.1167
6.49545 64.6612
6.54014 63.0728
6.58483 61.9088
6.62952 61.9577
6.67421 82.8799
6.71892 113.099
6.76361 64.7799
6.8083 57.8031
6.853 56.9819
6.89769 56.3292
6.94239 55.9597
6.98711 55.1744
7.03181 54.6735
7.07651 54.8991
7.12121 54.4402
7.16591 54.6853
7.21063 55.0232
7.25533 65.4884
7.30004 135.352
7.34475 77.6093
7.38945 55.1683
7.43416 53.8613
7.47889 53.5605
7.5236 54.0343
7.56831 54.6128
7.61303 55.5063
7.65774 56.1439
7.70247 55.9009
7.74719 55.6334
7.79191 56.027
7.83663 56.5131
7.88135 57.0038
7.92607 57.9469
7.97081 59.304
8.01553 60.2514
8.06026 61.488
8.10498 63.2805
8.14971 70.5341
8.19446 70.2646
8.23919 68.906
8.28392 71.2018
8.32865 73.3889
8.37339 77.7331
8.41812 83.9741
8.46288 106.857
8.50761 170.129
8.55235 381.48
8.59709 1209.71
8.64183 2190.69
8.68658 860.737
8.73134 149.838
8.77609 96.816
8.82083 91.5893
8.86558 88.7985
8.91033 88.7262
8.9551 88.9538
8.99985 84.3951
9.04461 82.8826
9.08936 82.4268
9.13412 81.7345
9.17888 81.4591
9.22365 81.7489
9.26841 81.4136
9.31318 81.8761
9.35794 82.6941
9.4027 82.8044
9.44749 83.4904
9.49226 84.052
9.53703 84.69
9.5818 86.9375
9.62657 90.718
9.67134 95.1569
9.71614 92.5618
9.76091 92.9818
9.80569 95.9468
9.85047 98.9125
9.89525 116.791
9.94005 129.693
9.98484 181.404
10.0296 342.795
10.0744 824.075
10.1192 1773.81
10.164 1508.62
10.2088 345.979
10.2536 119.556
10.2984 109.534
10.3432 109.621
10.388 103.676
10.4328 118.768
10.4776 160.561
10.5224 288.546
10.5672 536.888
10.612 483.709
10.6568 183.653
10.7017 93.3033
10.7465 84.8949
10.7913 82.1727
10.8361 80.2628
10.8809 78.1329
10.9257 77.1858
10.9706 77.1765
11.0154 73.6402
11.0602 71.9503
11.105 70.965
11.1499 73.5604
11.1947 78.0398
11.2395 71.7132
11.2844 68.4934
11.3292 66.2646
11.374 65.4054
11.4189 64.8663
11.4637 64.3564
11.5086 64.3868
11.5534 65.9204
11.5983 64.0582
11.6431 62.8542
11.688 62.0746
11.7328 62.1425
11.7777 61.9643
11.8225 61.871
11.8674 61.4951
11.9122 62.2617
11.9571 62.1591
12.002 63.2837
12.0468 67.5829
12.0917 77.7654
12.1366 102.379
12.1814 157.307
12.2263 212.575
12.2712 165.789
12.3161 87.6827
12.3609 67.6113
12.4058 63.7462
12.4507 63.6495
12.4956 63.8376
12.5405 63.6387
12.5853 64.5138
12.6302 69.6958
12.6751 73.5729
12.72 68.2742
12.7649 67.1255
12.8098 67.5445
12.8547 69.0049
12.8996 70.2913
12.9445 71.8592
12.9894 73.0266
13.0343 75.2051
13.0792 78.8579
13.1242 88.941
13.1691 111.012
13.214 147.755
13.2589 245.282
13.3038 385.727
13.3487 423.236
13.3937 241.746
13.4386 117.584
13.4835 105.009
13.5285 119.118
13.5734 158.515
13.6183 255.229
13.6633 362.544
13.7082 327.708
13.7531 167.243
13.7981 92.2956
13.843 80.5246
13.888 78.4769
13.9329 76.0255
13.9779 75.0127
14.0228 73.6805
14.0678 72.0755
14.1127 71.8144
14.1577 71.6721
14.2027 70.4945
14.2476 69.5104
14.2926 69.7164
14.3376 70.06
14.3825 69.364
14.4275 68.1875
14.4725 67.7926
14.5175 68.1736
14.5624 68.0482
14.6074 69.7891
14.6524 70.2226
14.6974 69.8635
14.7424 71.8877
14.7874 78.781
14.8324 88.3066
14.8774 110.545
14.9224 157.017
14.9674 214.438
15.0124 218.671
15.0574 141.542
15.1024 85.6291
15.1474 71.0085
15.1924 69.4926
15.2374 69.327
15.2824 68.3518
15.3274 66.8248
15.3725 65.8586
15.4175 65.6965
15.4625 65.282
15.5076 65.328
15.5526 65.5364
15.5976 65.1851
15.6426 66.7676
15.6877 72.2309
15.7327 79.1086
15.7778 94.3114
15.8228 129.046
15.8679 177.725
15.9129 196.369
15.958 147.135
16.003 88.9049
16.0481 65.7539
16.0931 63.0812
16.1382 61.3319
16.1833 59.6594
16.2283 58.1434
16.2734 57.6029
16.3185 57.8529
16.3636 57.8045
16.4086 56.5869
16.4537 55.367
16.4988 54.7757
16.5439 54.7995
16.589 54.6202
16.6341 54.2806
16.6792 53.9025
16.7243 54.2126
16.7694 54.3104
16.8145 54.1219
16.8596 54.3158
16.9047 55.2147
16.9498 55.9374
16.9949 54.6719
17.04 55.1801
17.0851 56.5544
17.1302 58.2686
17.1754 61.081
17.2205 66.8348
17.2656 75.1361
17.3108 82.9979
17.3559 81.1509
17.401 68.9105
17.4462 60.7841
17.4913 58.4878
17.5365 58.5394
17.5815 58.6951
17.6268 59.0143
17.6718 59.4757
17.7171 60.0846
17.7622 60.7543
17.8074 61.4133
17.8525 64.1347
17.8977 67.7284
17.9428 73.0813
17.9881 82.6073
18.0331 101.165
18.0784 124.863
18.1237 141.403
18.1688 127.06
18.214 98.459
18.2591 84.4345
18.3044 90.8198
18.3495 101.637
18.3948 106.094
18.4399 92.6037
18.4852 74.1581
18.5303 64.321
18.5756 61.2509
18.6207 60.5317
18.666 59.6174
18.7112 58.8853
18.7565 58.1908
18.8016 57.9652
18.8469 57.4972
18.892 57.0193
18.9374 56.4896
18.9825 56.2435
19.0278 56.2269
19.073 56.3627
19.1183 56.746
19.1635 57.4037
19.2088 58.7603
19.254 61.6712
19.2993 66.5446
19.3447 72.8249
19.3898 75.8556
19.4352 70.2733
19.4804 61.1908
19.5257 55.4854
19.5709 53.4189
19.6163 53.4417
19.6615 53.105
19.7068 52.6734
19.752 52.6751
19.7974 53.0485
19.8426 53.6067
19.888 54.3823
19.9332 55.5835
19.9786 58.3757
20.0238 62.6883
20.0692 67.8482
20.1144 69.6139
20.1598 67.1468
20.205 62.11
20.2504 61.5816
20.2957 64.045
20.3411 65.4695
20.3863 63.1466
20.4318 56.9057
20.477 52.3053
20.5224 50.7225
20.5677 50.0189
20.6131 49.608
20.6586 49.0853
20.7038 49.0626
20.7493 48.5173
20.7945 48.4332
20.84 48.2864
20.8853 48.1069
20.9307 48.1028
20.976 48.2755
21.0215 48.1032
21.0668 48.4264
21.1122 48.9258
21.1575 49.6203
21.203 50.4691
21.2483 51.0329
21.2938 50.8496
21.3391 49.2905
21.3846 48.4224
21.4299 47.8077
21.4754 47.9457
21.5207 48.0933
21.5662 48.3545
21.6116 48.7891
21.6571 49.4485
21.7024 50.212
21.7479 52.253
21.7933 55.0154
21.8388 59.0636
21.8843 62.7064
21.9297 64.1713
21.9752 61.829
22.0206 58.1684
22.0661 55.7377
22.1115 55.8501
22.157 55.3919
22.2024 53.2418
22.248 50.3503
22.2933 49.1184
22.3389 48.5456
22.3843 48.3408
22.4299 48.1833
22.4753 48.3098
22.5208 48.0068
22.5662 47.9509
22.6118 48.1778
22.6572 48.3089
22.7028 48.8173
22.7483 49.2499
22.7939 49.9421
22.8393 51.6252
22.8849 53.7708
22.9303 56.0353
22.9759 57.6452
23.0214 56.4401
23.067 53.4683
23.1126 50.1767
23.1581 48.5983
23.2037 48.2084
23.2492 48.2256
23.2948 48.483
23.3403 48.5508
23.3859 49.3874
23.4314 50.4504
23.477 52.4025
23.5225 54.74
23.5682 56.9605
23.6137 57.5785
23.6593 54.5556
23.7048 50.2131
23.7505 47.449
23.796 46.0855
23.8417 45.3927
23.8872 45.1823
23.9329 44.8179
23.9784 44.3856
24.0241 44.0929
24.0697 43.9195
24.1154 43.7711
24.1609 43.5524
24.2066 43.3973
24.2522 43.2324
24.2979 42.964
24.3434 42.7284
24.3892 42.6512
24.4349 42.6273
24.4805 42.5292
24.5262 42.6833
24.5718 42.5492
24.6175 42.3542
24.6631 42.2076
24.7089 41.9697
24.7545 41.8957
24.8002 41.8033
24.8458 41.6888
24.8916 41.6302
24.9372 41.7272
24.983 42.1203
25.0286 42.5967
25.0744 42.9084
25.12 43.3308
25.1658 44.086
25.2114 44.3552
25.2572 44.2804
25.3029 44.578
25.3487 44.4705
25.3943 43.9679
25.4402 42.8399
25.4858 41.8855
25.5316 40.8854
25.5773 40.4928
25.6231 40.3854
25.669 40.0219
25.7147 40.1131
25.7605 39.8816
25.8062 40.0054
25.8521 40.2629
25.8977 40.1742
25.9436 40.4223
25.9893 40.5704
26.0352 41.4355
26.0809 41.1665
26.1268 41.2554
26.1725 40.915
26.2184 40.3547
26.2641 39.7964
26.31 39.6584
26.3557 39.6609
26.4017 39.648
26.4474 40.0148
26.4933 40.2997
26.5391 40.9476
26.585 41.3345
26.6308 41.7286
26.6767 41.766
26.7225 41.4612
26.7684 40.8601
26.8142 40.4628
26.8601 40.0177
26.9059 39.5619
26.9519 38.9911
26.9979 38.6965
27.0437 38.4943
27.0896 38.3548
27.1354 38.2839
27.1814 38.1743
27.2272 38.0524
27.2732 37.9916
27.3191 37.9998
27.3651 38.0923
27.4109 37.9671
27.4569 38.1999
27.5027 38.158
27.5488 38.2314
27.5946 37.974
27.6407 37.7521
27.6865 37.6931
27.7326 37.4389
27.7784 37.4548
27.8245 37.5656
27.8703 37.6196
27.9164 37.9413
27.9623 38.1596
28.0084 38.4715
28.0543 38.9007
28.1003 38.4566
28.1462 38.474
28.1923 38.2141
28.2384 37.5254
28.2843 37.2431
28.3304 36.7066
28.3764 36.3069
28.4225 36.0432
28.4684 35.8409
28.5145 35.5218
28.5605 35.41
28.6066 35.3493
28.6526 35.1999
28.6987 35.3019
28.7447 35.1776
28.7908 34.9984
28.8368 35.0938
28.8829 35.0701
28.9289 34.9416
28.9751 34.9186
29.0211 34.4671
29.0673 34.2721
29.1133 34.0563
29.1595 34.1487
29.2055 34.0239
29.2517 33.9967
29.2977 33.9475
29.3439 33.9772
29.3899 33.9177
29.4361 33.8515
29.4824 33.579
29.5284 33.4338
29.5746 33.0035
29.6207 32.8336
29.6669 32.8315
29.713 32.5861
29.7593 32.489
29.8053 32.537
29.8516 32.4444
29.8977 32.3958
29.9439 32.3081
29.99 32.1496
30.0363 32.1703
30.0824 32.0916
30.1287 32.0236
30.1748 32.17
30.2211 32.0919
30.2673 31.9652
30.3136 31.9639
30.3597 31.9032
30.406 31.9057
30.4522 31.7271
30.4985 31.6358
30.5447 31.8683
30.591 31.8824
30.6372 31.854
30.6835 31.8628
30.7297 31.911
30.7761 31.827
30.8224 31.6231
30.8686 31.392
30.915 31.2543
30.9612 31.2478
31.0076 30.9495
31.0538 30.8785
31.1002 30.8453
31.1464 30.5873
31.1928 30.7245
31.2391 30.6253
31.2855 30.6158
31.3317 30.5252
31.3781 30.4874
31.4244 30.5447
31.4708 30.501
31.5171 30.4457
31.5636 30.4124
31.6098 30.1212
31.6563 30.136
31.7026 29.8047
31.7491 29.7838
31.7953 29.8585
31.8418 29.8123
31.8881 29.7732
31.9346 29.7722
31.9809 29.6153
32.0275 29.5809
32.074 29.4268
32.1203 29.3121
32.1668 29.218
32.2132 29.0793
32.2597 28.8542
32.306 28.8818
32.3526 28.6559
32.399 28.6296
32.4455 28.5342
32.4919 28.4653
32.5385 28.393
32.5848 28.1206
32.6314 28.1331
32.6778 28.0904
32.7244 28.0514
32.7708 27.8583
32.8174 27.8793
32.8638 27.6123
32.9104 27.7732
32.9569 27.7769
33.0035 27.5676
33.0499 27.5866
33.0966 27.585
33.143 27.4993
33.1897 27.4194
33.2361 27.232
33.2828 27.2754
33.3293 27.0676
33.3759 27.0992
33.4226 26.8926
33.4691 26.7763
33.5158 26.7714
33.5623 26.5474
33.609 26.4741
33.6555 26.4326
33.7022 26.293
33.7487 26.249
33.7954 26.1784
33.842 26.2037
33.8887 26.1191
33.9353 25.9785
33.982 25.8639
34.0286 25.8236
34.0753 25.7199
34.1219 25.6955
34.1687 25.5889
34.2152 25.4782
34.262 25.3624
34.3086 25.3468
34.3554 25.3138
34.402 25.11
34.4488 25.0258
34.4954 25.0247
34.5422 24.9226
34.5889 24.8951
34.6357 24.6583
34.6825 24.7258
34.7292 24.667
34.776 24.4307
34.8227 24.4205
34.8695 24.3367
34.9162 24.3208
34.9631 24.2276
35.0098 24.2457
35.0566 24.0758
35.1033 24.0832
35.1502 24.059
35.1969 23.9555
35.2438 24.0171
35.2906 23.8994
35.3375 23.7771
35.3842 23.7316
35.4311 23.7108
35.4779 23.6868
35.5248 23.6711
35.5716 23.577
35.6185 23.5022
35.6653 23.4026
35.7123 23.2585
35.759 23.2185
35.806 23.1511
35.8528 22.9628
35.8998 23.0052
35.9468 22.8766
35.9936 22.8044
36.0406 22.6242
36.0874 22.8154
36.1345 22.6962
36.1813 22.4898
36.2283 22.4155
36.2752 22.3354
36.3222 22.4789
36.3691 22.3376
36.4161 22.2374
36.463 22.1869
36.5101 22.2697
36.557 22.1651
36.6041 21.9483
36.651 21.8959
36.6981 21.89
36.745 21.8577
36.7921 21.7791
36.839 21.5951
36.8861 21.5284
36.9331 21.5226
36.9802 21.4716
37.0272 21.3702
37.0743 21.2806
37.1213 21.2464
37.1684 21.1736
37.2154 21.1214
37.2626 20.999
37.3098 21.0011
37.3568 20.8697
37.404 20.9468
37.451 20.7779
37.4982 20.7563
37.5452 20.6494
37.5924 20.605
37.6395 20.5823
37.6867 20.4708
37.7337 20.3889
37.781 20.2671
37.8281 20.2766
37.8753 20.2072
37.9224 20.1443
37.9697 20.0756
38.0168 19.9942
38.064 19.9479
38.1111 19.8656
38.1584 19.7987
38.2056 19.7488
38.2529 19.7514
38.3 19.6532
38.3473 19.6511
38.3945 19.493
38.4418 19.4493
38.489 19.3971
38.5363 19.3267
38.5837 19.2896
38.6309 19.216
38.6782 19.1849
38.7254 19.0672
38.7728 19.0003
38.82 18.9179
38.8674 18.8953
38.9146 18.7938
38.9621 18.766
39.0093 18.7533
39.0567 18.7001
39.104 18.586
39.1514 18.5198
39.1987 18.5044
39.2461 18.4326
39.2934 18.4288
39.3409 18.2835
39.3882 18.2405
39.4356 18.1395
39.483 18.1041
39.5304 18.0879
39.5778 18.0135
39.6253 17.9315
39.6726 17.906
39.7201 17.8224
39.7675 17.8572
39.815 17.677
39.8624 17.6863
39.9099 17.6354
39.9575 17.5481
40.0049 17.5258
40.0525 17.4689
40.0999 17.3912
40.1474 17.4112
40.1949 17.2941
40.2425 17.2184
40.2899 17.1188
40.3375 17.1526
40.385 17.0594
40.4326 16.9525
40.48 16.9939
40.5277 16.9678
40.5752 16.8474
40.6228 16.7673
40.6703 16.7355
40.718 16.6939
40.7655 16.6243
40.8132 16.5683
40.8607 16.6088
40.9084 16.5148
40.9559 16.4392
41.0036 16.4231
41.0512 16.37
41.0989 16.2923
41.1465 16.2083
41.1942 16.1481
41.242 16.069
41.2896 16.0442
41.3373 15.9514
41.3849 15.9428
41.4327 15.9335
41.4803 15.8438
41.5281 15.8074
41.5758 15.7197
41.6236 15.6662
41.6712 15.6322
41.7191 15.5723
41.7667 15.5339
41.8146 15.496
41.8622 15.4097
41.9101 15.3927
41.9578 15.2769
42.0057 15.2388
42.0534 15.1593
42.1013 15.1595
42.149 15.1091
42.1969 14.9855
42.2446 15.0414
42.2925 14.9439
42.3403 14.9255
42.3882 14.8715
42.436 14.8172
42.4839 14.7652
42.5319 14.7539
42.5797 14.6371
42.6277 14.5816
42.6755 14.5588
42.7235 14.4933
42.7713 14.4607
42.8193 14.4038
42.8671 14.3939
42.9152 14.3349
42.963 14.273
43.0111 14.1872
43.0589 14.1456
43.107 14.1139
43.1549 14.071
43.2029 14.0066
43.2508 13.9679
43.2989 13.944
43.3468 13.8243
43.3949 13.8588
43.4429 13.8148
43.491 13.7696
43.5389 13.6697
43.5871 13.6333
43.635 13.5528
43.6832 13.553
43.7312 13.468
43.7793 13.4611
43.8273 13.4186
43.8755 13.3541
43.9237 13.3034
43.9717 13.2524
44.0199 13.173
44.068 13.226
44.1162 13.0996
44.1642 13.1311
44.2125 13.0579
44.2606 13.0049
44.3088 12.947
44.3569 12.9133
44.4052 12.8603
44.4533 12.8082
44.5016 12.7111
44.5497 12.688
44.598 12.6525
44.6461 12.6374
44.6945 12.6097
44.7426 12.571
44.791 12.4962
44.8391 12.4763
44.8875 12.4282
44.9357 12.4012
44.984 12.3506
45.0322 12.2991
45.0806 12.2535
45.1288 12.1711
45.1773 12.1675
45.2257 12.0792
45.2739 12.0614
45.3224 12.0117
45.3706 11.9993
45.4191 11.9176
45.4673 11.9341
45.5158 11.8796
45.5641 11.7625
45.6126 11.7589
45.6609 11.7299
45.7094 11.6418
45.7577 11.6465
45.8063 11.5629
45.8546 11.5745
45.9031 11.5263
45.9515 11.509
46.0001 11.4836
46.0484 11.4118
46.097 11.4123
46.1454 11.3409
46.194 11.3039
46.2424 11.2753
46.291 11.1842
46.3395 11.1409
46.3881 11.0849
46.4365 11.0878
46.4852 11.076
46.5337 11.0051
46.5823 11.0054
46.631 10.8814
46.6795 10.8668
46.7282 10.8612
46.7767 10.7967
46.8254 10.697
46.8739 10.714
46.9226 10.6665
46.9712 10.6223
47.0199 10.5775
47.0685 10.6139
47.1173 10.5394
47.1658 10.4514
47.2146 10.4619
47.2632 10.3867
47.312 10.385
47.3606 10.367
47.4095 10.271
47.4581 10.2416
47.5069 10.2126
47.5556 10.1577
47.6044 10.1128
47.6531 10.1198
47.702 10.0669
47.7507 10.0266
47.7996 9.95009
47.8483 9.99238
47.8972 9.89146
47.9461 9.85783
47.9948 9.81135
48.0438 9.78914
48.0925 9.78603
48.1415 9.75561
48.1902 9.67558
48.2392 9.66816
48.288 9.64638
48.337 9.60753
48.3858 9.55635
48.4348 9.55673
48.4837 9.51074
48.5327 9.46663
48.5815 9.42701
48.6306 9.38485
48.6795 9.34835
48.7285 9.32442
48.7774 9.2652
48.8265 9.2454
48.8754 9.20544
48.9245 9.18979
48.9734 9.16685
49.0226 9.12067
49.0715 9.08174
49.1206 9.04146
49.1696 9.01682
49.2188 8.97384
49.2679 8.95326
49.3169 8.91568
49.3661 8.86965
49.4151 8.83195
49.4643 8.81172
49.5134 8.7862
49.5626 8.73292
49.6117 8.67347
49.6609 8.68444
49.71 8.61705
49.7592 8.61514
49.8083 8.56934
49.8576 8.56532
49.9067 8.4891
49.956 8.45893
50.0052 8.43401
50.0545 8.41499
50.1036 8.37801
50.153 8.36269
50.2022 8.30439
50.2515 8.26031
50.3007 8.22232
50.3501 8.18951
50.3993 8.20928
50.4487 8.13754
50.498 8.13713
50.5474 8.11852
50.5966 8.06181
50.6461 8.05183
50.6955 7.98208
50.7448 7.96858
50.7943 7.95659
50.8436 7.89828
50.8931 7.84879
50.9424 7.83545
50.9919 7.80107
51.0413 7.80889
51.0908 7.76445
51.1402 7.74811
51.1897 7.6531
51.2391 7.69685
51.2887 7.64147
51.3381 7.56977
51.3877 7.56343
51.4371 7.52469
51.4867 7.50888
51.5362 7.46342
51.5858 7.44973
51.6353 7.38667
51.6849 7.42334
51.7344 7.35223
51.7841 7.32273
51.8336 7.2954
51.8833 7.2464
51.9328 7.18235
51.9826 7.20026
52.0323 7.16543
52.0818 7.15054
52.1316 7.11829
52.1812 7.10445
52.231 7.06744
52.2806 7.03761
52.3304 7.0233
52.38 6.96298
52.4298 6.95021
52.4794 6.8986
52.5293 6.88811
52.5789 6.87547
52.6288 6.85358
52.6785 6.77871
52.7284 6.73109
52.7781 6.73026
52.828 6.73234
52.8777 6.65114
52.9276 6.66325
52.9774 6.64468
53.0273 6.62328
53.0771 6.59175
53.1271 6.56586
53.1769 6.47322
53.2269 6.51661
53.2767 6.45724
53.3267 6.4296
53.3765 6.39267
53.4266 6.41065
53.4766 6.31777
53.5265 6.28736
53.5765 6.31704
53.6264 6.25486
53.6765 6.23332
53.7264 6.21231
53.7765 6.20633
53.8265 6.15461
53.8766 6.12978
53.9266 6.09944
53.9767 6.07435
54.0267 6.05722
54.0769 6.03596
54.1269 6.015
54.1771 5.97152
54.2271 5.91616
54.2773 5.9005
54.3274 5.88067
54.3776 5.84051
54.4277 5.77493
54.478 5.76796
54.528 5.71312
54.5783 5.72939
54.6285 5.63522
54.6788 5.6151
54.7289 5.58154
54.7792 5.56413
54.8296 5.50771
54.8798 5.47722
54.9301 5.44563
54.9803 5.36547
55.0307 5.37715
55.0809 5.29322
55.1314 5.29309
55.1816 5.264
55.232 5.19378
55.2823 5.16617
55.3328 5.12821
55.383 5.02753
55.4335 4.98404
55.4838 4.95984
55.5344 4.96029
55.5847 4.91199
55.6352 4.88349
55.6856 4.79751
55.7361 4.81227