File: XRD/Ni3Fe_FD0098.xy
TT I
1.27165 8.95656
1.31627 7.74509
1.36089 7.73997
1.40551 7.18799
1.45013 6.83122
1.49476 7.04646
1.53938 6.73182
1.584 6.3956
1.62863 6.00453
1.67325 5.8187
1.71787 5.84698
1.7625 5.52672
1.80712 5.56671
1.85174 5.7905
1.89636 5.57217
1.94099 5.41114
1.98562 5.19373
2.03025 5.47073
2.07487 4.75695
2.11949 5.02215
2.16411 5.08587
2.20874 5.34218
2.25338 4.36165
2.298 4.99849
2.34263 4.26156
2.38725 4.06393
2.43188 4.13631
2.4765 4.33101
2.52115 3.89622
2.56577 4.66938
2.6104 4.47
2.65503 4.7044
2.69965 4.77978
2.7443 5.20754
2.78893 6.03018
2.83356 6.80306
2.87818 7.40387
2.92281 7.95021
2.96744 8.91192
3.01209 10.1943
3.05672 10.8916
3.10135 11.9032
3.14599 12.612
3.19062 13.5481
3.23527 14.8712
3.2799 16.05
3.32454 16.3928
3.36917 17.6331
3.4138 18.3881
3.45844 18.8161
3.50309 20.1286
3.54773 20.6847
3.59237 21.7012
3.637 22.4156
3.68164 22.6769
3.7263 23.831
3.77094 24.4929
3.81558 25.3944
3.86022 25.8626
3.90486 27.5217
3.9495 28.1285
3.99416 29.045
4.0388 30.2189
4.08344 31.0147
4.12809 31.8705
4.17273 33.7536
4.21738 34.657
4.26204 35.9416
4.30669 37.2606
4.35133 39.6126
4.39598 40.486
4.44063 42.5757
4.4853 44.1806
4.52995 46.9406
4.5746 48.5679
4.61925 51.4945
4.6639 53.128
4.70855 55.9678
4.75322 58.8556
4.79788 62.3405
4.84253 66.2214
4.88719 70.4191
4.93184 76.0452
4.97652 83.8691
5.02118 93.9438
5.06583 106.143
5.11049 126.054
5.15515 174.374
5.19981 680.861
5.24449 3792.43
5.28916 6479.44
5.33382 7206.04
5.37848 703.497
5.42315 193.679
5.46783 139.959
5.5125 120.568
5.55716 112.288
5.60183 105.374
5.6465 102.019
5.69117 100.147
5.73586 97.4682
5.78053 97.8349
5.8252 98.8998
5.86988 103.441
5.91455 112.68
5.95924 138.291
6.00392 344.55
6.0486 1443.22
6.09328 2115.96
6.13795 3840.62
6.18263 939.875
6.22733 150.472
6.27201 96.4897
6.3167 81.8289
6.36138 74.1882
6.40606 69.2088
6.45075 66.6152
6.49545 64.4108
6.54014 62.3054
6.58483 60.6154
6.62952 59.0942
6.67421 57.7673
6.71892 56.8897
6.76361 55.944
6.8083 54.6111
6.853 53.8571
6.89769 54.061
6.94239 53.3129
6.98711 52.5796
7.03181 52.096
7.07651 52.0853
7.12121 51.6754
7.16591 51.7647
7.21063 51.251
7.25533 51.1517
7.30004 51.0281
7.34475 51.2424
7.38945 51.5525
7.43416 51.0534
7.47889 51.497
7.5236 59.4254
7.56831 77.9726
7.61303 59.2519
7.65774 52.7264
7.70247 53.0821
7.74719 53.1817
7.79191 54.093
7.83663 54.4104
7.88135 55.1359
7.92607 56.3814
7.97081 57.5323
8.01553 58.4479
8.06026 59.8884
8.10498 61.1433
8.14971 62.868
8.19446 64.6272
8.23919 66.8778
8.28392 69.9867
8.32865 73.0476
8.37339 78.6271
8.41812 84.0976
8.46288 98.6429
8.50761 191.463
8.55235 655.284
8.59709 747.576
8.64183 1131.77
8.68658 1755.49
8.73134 571.523
8.77609 130.947
8.82083 101.374
8.86558 92.5903
8.91033 88.1257
8.9551 84.9575
8.99985 83.6619
9.04461 82.7338
9.08936 81.8958
9.13412 80.8632
9.17888 81.6917
9.22365 93.3292
9.26841 121.209
9.31318 96.4321
9.35794 82.6237
9.4027 81.475
9.44749 82.0914
9.49226 82.7186
9.53703 83.4058
9.5818 85.4383
9.62657 85.9237
9.67134 87.3314
9.71614 89.7271
9.76091 92.3174
9.80569 94.939
9.85047 98.516
9.89525 104.556
9.94005 116.74
9.98484 201.928
10.0296 595.042
10.0744 666.834
10.1192 753.909
10.164 1445.73
10.2088 1209.23
10.2536 282.172
10.2984 123.162
10.3432 110.263
10.388 105.409
10.4328 125.228
10.4776 228.203
10.5224 243.3
10.5672 256.358
10.612 429.013
10.6568 434.649
10.7017 164.957
10.7465 95.6427
10.7913 83.9364
10.8361 79.8361
10.8809 77.1661
10.9257 74.7016
10.9706 73.6562
11.0154 71.9472
11.0602 70.2983
11.105 69.3195
11.1499 67.8044
11.1947 66.6904
11.2395 65.6992
11.2844 65.1369
11.3292 64.388
11.374 63.5192
11.4189 63.0623
11.4637 62.4218
11.5086 61.7447
11.5534 61.2661
11.5983 61.0775
11.6431 61.0847
11.688 60.5928
11.7328 60.4641
11.7777 60.5284
11.8225 60.4151
11.8674 60.3444
11.9122 62.5521
11.9571 70.386
12.002 69.853
12.0468 69.3638
12.0917 93.4037
12.1366 106.658
12.1814 102.729
12.2263 123.716
12.2712 179.175
12.3161 158.13
12.3609 81.5623
12.4058 64.2997
12.4507 62.7551
12.4956 62.3138
12.5405 62.2017
12.5853 62.591
12.6302 62.6225
12.6751 63.4857
12.72 64.0351
12.7649 65.0901
12.8098 65.7545
12.8547 67.3226
12.8996 68.5057
12.9445 69.9423
12.9894 71.9794
13.0343 73.8311
13.0792 78.9351
13.1242 87.9991
13.1691 139.589
13.214 194.468
13.2589 182.461
13.3038 193.838
13.3487 284.56
13.3937 391.435
13.4386 257.94
13.4835 132.597
13.5285 163.807
13.5734 183.902
13.6183 166.156
13.6633 188.182
13.7082 281.673
13.7531 331.662
13.7981 187.353
13.843 92.5725
13.888 80.4907
13.9329 76.864
13.9779 75.3326
14.0228 73.6541
14.0678 71.9824
14.1127 72.7379
14.1577 76.9462
14.2027 75.71
14.2476 70.6832
14.2926 68.6539
14.3376 68.0241
14.3825 67.6927
14.4275 67.0562
14.4725 66.9694
14.5175 67.3039
14.5624 67.2151
14.6074 67.4073
14.6524 67.9207
14.6974 68.7308
14.7424 70.5129
14.7874 81.1648
14.8324 110.572
14.8774 120.151
14.9224 112.359
14.9674 122.241
15.0124 161.53
15.0574 206.174
15.1024 162.027
15.1474 89.3218
15.1924 71.7225
15.2374 68.4058
15.2824 66.9319
15.3274 65.865
15.3725 65.4381
15.4175 65.1554
15.4625 64.5937
15.5076 64.2741
15.5526 64.4955
15.5976 64.722
15.6426 65.7674
15.6877 73.9813
15.7327 98.048
15.7778 108.021
15.8228 100.592
15.8679 104.194
15.9129 127.165
15.958 173.984
16.003 170.159
16.0481 102.165
16.0931 69.4112
16.1382 62.2343
16.1833 60.0084
16.2283 58.153
16.2734 57.1185
16.3185 56.4016
16.3636 55.6601
16.4086 55.2654
16.4537 54.4657
16.4988 54.1334
16.5439 53.9267
16.589 53.7442
16.6341 53.4613
16.6792 53.0722
16.7243 53.3485
16.7694 53.1525
16.8145 52.9861
16.8596 53.1545
16.9047 53.853
16.9498 54.7168
16.9949 54.43
17.04 54.5921
17.0851 56.129
17.1302 60.6405
17.1754 63.7284
17.2205 62.9649
17.2656 62.9399
17.3108 66.4602
17.3559 73.3164
17.401 80.735
17.4462 74.4568
17.4913 62.4165
17.5365 58.3954
17.5815 57.9662
17.6268 58.1071
17.6718 58.7056
17.7171 59.2877
17.7622 60.8636
17.8074 61.5846
17.8525 63.1657
17.8977 72.1418
17.9428 85.358
17.9881 87.4289
18.0331 84.0212
18.0784 86.1335
18.1237 98.7229
18.1688 128.616
18.214 148.898
18.2591 121.28
18.3044 87.4549
18.3495 79.6479
18.3948 85.4406
18.4399 98.2295
18.4852 99.9171
18.5303 81.9241
18.5756 66.2597
18.6207 61.9173
18.666 60.2661
18.7112 58.9691
18.7565 58.3857
18.8016 57.9778
18.8469 57.1791
18.892 56.8455
18.9374 56.3038
18.9825 55.9756
19.0278 55.7823
19.073 55.8837
19.1183 56.4418
19.1635 59.1458
19.2088 61.5624
19.254 61.0362
19.2993 60.6886
19.3447 61.7039
19.3898 64.5918
19.4352 70.0223
19.4804 73.1499
19.5257 66.4805
19.5709 57.1427
19.6163 53.626
19.6615 53.0113
19.7068 52.5591
19.752 52.5335
19.7974 52.5996
19.8426 53.9375
19.888 56.4223
19.9332 57.6765
19.9786 57.0621
20.0238 56.4676
20.0692 58.4351
20.1144 63.3039
20.1598 69.3659
20.205 71.3457
20.2504 66.1769
20.2957 59.4043
20.3411 58.17
20.3863 61.2942
20.4318 64.3046
20.477 60.938
20.5224 54.0943
20.5677 50.5474
20.6131 49.4052
20.6586 48.8808
20.7038 48.7113
20.7493 48.4552
20.7945 48.6253
20.84 48.5109
20.8853 48.1879
20.9307 48.0059
20.976 48.2016
21.0215 48.3002
21.0668 48.687
21.1122 48.58
21.1575 48.2665
21.203 48.3056
21.2483 48.7667
21.2938 49.7491
21.3391 50.3847
21.3846 50.2582
21.4299 48.851
21.4754 47.9994
21.5207 47.914
21.5662 48.1439
21.6116 48.7351
21.6571 50.6947
21.7024 52.5725
21.7479 53.2287
21.7933 52.6672
21.8388 53.0701
21.8843 55.4361
21.9297 58.2146
21.9752 62.4099
22.0206 65.1561
22.0661 61.8249
22.1115 55.8355
22.157 53.852
22.2024 55.2816
22.248 55.1887
22.2933 52.9499
22.3389 49.8876
22.3843 48.5591
22.4299 48.0653
22.4753 47.9902
22.5208 47.87
22.5662 48.0072
22.6118 48.0205
22.6572 48.2117
22.7028 49.6637
22.7483 50.9149
22.7939 51.2797
22.8393 50.8735
22.8849 50.7314
22.9303 51.0623
22.9759 52.2634
23.0214 54.2544
23.067 57.1505
23.1126 56.8538
23.1581 53.2306
23.2037 49.6041
23.2492 48.6018
23.2948 49.1193
23.3403 50.3925
23.3859 51.208
23.4314 50.9246
23.477 50.2951
23.5225 50.241
23.5682 50.7627
23.6137 52.5989
23.6593 55.2173
23.7048 57.1285
23.7505 54.6969
23.796 49.8791
23.8417 46.6642
23.8872 45.5066
23.9329 45.0045
23.9784 44.5976
24.0241 44.3377
24.0697 44.0406
24.1154 43.6561
24.1609 43.4474
24.2066 43.207
24.2522 43.3275
24.2979 42.9535
24.3434 42.9334
24.3892 42.6329
24.4349 42.5024
24.4805 42.2206
24.5262 42.2742
24.5718 42.1688
24.6175 42.3057
24.6631 42.3273
24.7089 42.2842
24.7545 42.2787
24.8002 41.8163
24.8458 41.8215
24.8916 41.8361
24.9372 42.0422
24.983 42.1575
25.0286 42.2355
25.0744 42.6043
25.12 42.9092
25.1658 43.181
25.2114 43.3157
25.2572 43.8159
25.3029 43.986
25.3487 43.7803
25.3943 43.4647
25.4402 43.9077
25.4858 44.3
25.5316 43.18
25.5773 41.4072
25.6231 40.8123
25.669 40.1657
25.7147 40.1866
25.7605 40.0891
25.8062 40.3256
25.8521 40.5322
25.8977 40.3356
25.9436 40.163
25.9893 40.0049
26.0352 40.2775
26.0809 40.1986
26.1268 40.4962
26.1725 41.0002
26.2184 41.4336
26.2641 41.0371
26.31 40.6219
26.3557 40.3098
26.4017 40.2405
26.4474 40.1835
26.4933 40.1798
26.5391 40.2552
26.585 40.4397
26.6308 40.5616
26.6767 40.8667
26.7225 41.4747
26.7684 41.9072
26.8142 41.7283
26.8601 40.7391
26.9059 40.1414
26.9519 39.7942
26.9979 39.6462
27.0437 39.0823
27.0896 38.6486
27.1354 38.5569
27.1814 38.2573
27.2272 38.4108
27.2732 38.3528
27.3191 38.1313
27.3651 38.1822
27.4109 37.8989
27.4569 37.9687
27.5027 37.9338
27.5488 37.8948
27.5946 37.9744
27.6407 38.0792
27.6865 38.2913
27.7326 38.12
27.7784 37.9363
27.8245 37.7804
27.8703 37.7054
27.9164 37.7441
27.9623 37.7498
28.0084 37.8345
28.0543 37.9586
28.1003 38.0792
28.1462 38.4045
28.1923 38.6879
28.2384 38.4316
28.2843 37.904
28.3304 37.5598
28.3764 37.2396
28.4225 36.7769
28.4684 36.3012
28.5145 35.7449
28.5605 35.6535
28.6066 35.4322
28.6526 35.3216
28.6987 35.3624
28.7447 35.0364
28.7908 34.9065
28.8368 34.8302
28.8829 34.7994
28.9289 34.7698
28.9751 34.7106
29.0211 34.8151
29.0673 34.5446
29.1133 34.4199
29.1595 34.2499
29.2055 33.9696
29.2517 33.9437
29.2977 33.7229
29.3439 33.6969
29.3899 33.5537
29.4361 33.5829
29.4824 33.6171
29.5284 33.7039
29.5746 33.3862
29.6207 33.1928
29.6669 32.8489
29.713 32.6506
29.7593 32.5956
29.8053 32.6077
29.8516 32.3341
29.8977 32.4532
29.9439 32.2515
29.99 32.259
30.0363 32.1062
30.0824 32.1291
30.1287 32.0008
30.1748 32.0012
30.2211 31.9443
30.2673 31.8196
30.3136 31.943
30.3597 32.0111
30.406 31.9676
30.4522 31.8851
30.4985 31.7327
30.5447 31.7006
30.591 31.6404
30.6372 31.629
30.6835 31.559
30.7297 31.5924
30.7761 31.6917
30.8224 31.8354
30.8686 31.7426
30.915 31.6107
30.9612 31.4437
31.0076 31.142
31.0538 31.0793
31.1002 31.0575
31.1464 30.7151
31.1928 30.6938
31.2391 30.5584
31.2855 30.5558
31.3317 30.418
31.3781 30.534
31.4244 30.5168
31.4708 30.3851
31.5171 30.3927
31.5636 30.4099
31.6098 30.358
31.6563 30.3779
31.7026 30.2146
31.7491 30.0016
31.7953 29.8481
31.8418 29.881
31.8881 29.7376
31.9346 29.6948
31.9809 29.5579
32.0275 29.5869
32.074 29.6338
32.1203 29.5791
32.1668 29.4003
32.2132 29.2798
32.2597 29.1801
32.306 29.0399
32.3526 28.8207
32.399 28.573
32.4455 28.5736
32.4919 28.3949
32.5385 28.3344
32.5848 28.1684
32.6314 28.1426
32.6778 28.1213
32.7244 27.8634
32.7708 28.0109
32.8174 27.9155
32.8638 27.7303
32.9104 27.7113
32.9569 27.7732
33.0035 27.5438
33.0499 27.5406
33.0966 27.3357
33.143 27.4145
33.1897 27.2549
33.2361 27.2285
33.2828 27.3182
33.3293 27.1794
33.3759 27.1675
33.4226 27.033
33.4691 26.9261
33.5158 26.9191
33.5623 26.7066
33.609 26.5307
33.6555 26.4253
33.7022 26.2793
33.7487 26.2501
33.7954 26.2196
33.842 26.0914
33.8887 25.9723
33.9353 25.9799
33.982 25.812
34.0286 25.8108
34.0753 25.7384
34.1219 25.6504
34.1687 25.6007
34.2152 25.4684
34.262 25.352
34.3086 25.2469
34.3554 25.3151
34.402 25.1068
34.4488 25.0925
34.4954 24.9819
34.5422 24.9843
34.5889 24.7289
34.6357 24.6854
34.6825 24.6402
34.7292 24.5742
34.776 24.4703
34.8227 24.4672
34.8695 24.4005
34.9162 24.1768
34.9631 24.2073
35.0098 24.1558
35.0566 24.0363
35.1033 23.9688
35.1502 24.0382
35.1969 23.9395
35.2438 23.9096
35.2906 23.755
35.3375 23.6689
35.3842 23.6424
35.4311 23.5904
35.4779 23.6526
35.5248 23.5879
35.5716 23.4447
35.6185 23.4789
35.6653 23.4319
35.7123 23.3245
35.759 23.1791
35.806 23.0873
35.8528 23.069
35.8998 22.922
35.9468 22.8392
35.9936 22.7554
36.0406 22.7266
36.0874 22.6817
36.1345 22.6562
36.1813 22.5852
36.2283 22.5117
36.2752 22.4154
36.3222 22.3335
36.3691 22.2909
36.4161 22.1222
36.463 22.0806
36.5101 22.0954
36.557 22.1158
36.6041 21.918
36.651 21.9213
36.6981 21.8581
36.745 21.8359
36.7921 21.8246
36.839 21.6173
36.8861 21.5236
36.9331 21.5571
36.9802 21.4893
37.0272 21.3373
37.0743 21.2576
37.1213 21.2586
37.1684 21.1346
37.2154 21.0843
37.2626 21.0141
37.3098 21.055
37.3568 20.8729
37.404 20.7619
37.451 20.7488
37.4982 20.705
37.5452 20.6354
37.5924 20.5715
37.6395 20.4901
37.6867 20.5134
37.7337 20.3877
37.781 20.3208
37.8281 20.2543
37.8753 20.1809
37.9224 20.028
37.9697 20.1106
38.0168 19.9497
38.064 19.8808
38.1111 19.8666
38.1584 19.811
38.2056 19.7558
38.2529 19.698
38.3 19.6067
38.3473 19.6106
38.3945 19.5014
38.4418 19.4016
38.489 19.4235
38.5363 19.2767
38.5837 19.2205
38.6309 19.1693
38.6782 19.1369
38.7254 19.025
38.7728 19.0388
38.82 18.9039
38.8674 18.9077
38.9146 18.8578
38.9621 18.7502
39.0093 18.7175
39.0567 18.6135
39.104 18.5805
39.1514 18.4686
39.1987 18.3842
39.2461 18.4211
39.2934 18.3432
39.3409 18.3318
39.3882 18.2001
39.4356 18.1555
39.483 18.1083
39.5304 18.0491
39.5778 18.0217
39.6253 17.95
39.6726 17.9241
39.7201 17.8461
39.7675 17.7152
39.815 17.7089
39.8624 17.6216
39.9099 17.6525
39.9575 17.5423
40.0049 17.5106
40.0525 17.4263
40.0999 17.3576
40.1474 17.3538
40.1949 17.1897
40.2425 17.2034
40.2899 17.1506
40.3375 17.1149
40.385 17.0342
40.4326 17.0208
40.48 16.9818
40.5277 16.943
40.5752 16.8303
40.6228 16.7829
40.6703 16.7463
40.718 16.7254
40.7655 16.6354
40.8132 16.6291
40.8607 16.532
40.9084 16.4874
40.9559 16.4049
41.0036 16.3882
41.0512 16.2992
41.0989 16.3101
41.1465 16.2006
41.1942 16.1764
41.242 16.0694
41.2896 16.0263
41.3373 15.9823
41.3849 15.9708
41.4327 15.947
41.4803 15.8076
41.5281 15.8006
41.5758 15.7012
41.6236 15.6453
41.6712 15.6218
41.7191 15.5374
41.7667 15.4833
41.8146 15.5256
41.8622 15.393
41.9101 15.3629
41.9578 15.3233
42.0057 15.2208
42.0534 15.2358
42.1013 15.1278
42.149 15.0866
42.1969 15.0655
42.2446 14.9434
42.2925 14.9884
42.3403 14.8844
42.3882 14.8806
42.436 14.8372
42.4839 14.7414
42.5319 14.709
42.5797 14.6429
42.6277 14.594
42.6755 14.5683
42.7235 14.5125
42.7713 14.4793
42.8193 14.408
42.8671 14.3605
42.9152 14.353
42.963 14.2592
43.0111 14.1712
43.0589 14.1608
43.107 14.0787
43.1549 13.9822
43.2029 14.0034
43.2508 13.997
43.2989 13.9376
43.3468 13.8341
43.3949 13.7928
43.4429 13.7647
43.491 13.7442
43.5389 13.6754
43.5871 13.6004
43.635 13.5469
43.6832 13.5724
43.7312 13.483
43.7793 13.4238
43.8273 13.3716
43.8755 13.3794
43.9237 13.3426
43.9717 13.2665
44.0199 13.2361
44.068 13.1874
44.1162 13.1176
44.1642 13.0865
44.2125 13.0819
44.2606 12.9851
44.3088 12.9141
44.3569 12.8216
44.4052 12.8679
44.4533 12.769
44.5016 12.7431
44.5497 12.7437
44.598 12.654
44.6461 12.6379
44.6945 12.5334
44.7426 12.536
44.791 12.5019
44.8391 12.4234
44.8875 12.384
44.9357 12.3834
44.984 12.3215
45.0322 12.2559
45.0806 12.2295
45.1288 12.1862
45.1773 12.1673
45.2257 12.1167
45.2739 12.0788
45.3224 12.0352
45.3706 11.989
45.4191 11.9381
45.4673 11.9544
45.5158 11.8848
45.5641 11.7696
45.6126 11.759
45.6609 11.7102
45.7094 11.6295
45.7577 11.596
45.8063 11.5661
45.8546 11.6141
45.9031 11.5034
45.9515 11.4653
46.0001 11.4122
46.0484 11.3954
46.097 11.3433
46.1454 11.3059
46.194 11.2668
46.2424 11.2208
46.291 11.2011
46.3395 11.1536
46.3881 11.0609
46.4365 11.0603
46.4852 11.0285
46.5337 10.9686
46.5823 10.9693
46.631 10.88
46.6795 10.8517
46.7282 10.8185
46.7767 10.8003
46.8254 10.7067
46.8739 10.7117
46.9226 10.6472
46.9712 10.6253
47.0199 10.5922
47.0685 10.5289
47.1173 10.5376
47.1658 10.4801
47.2146 10.4036
47.2632 10.3837
47.312 10.3833
47.3606 10.3621
47.4095 10.2364
47.4581 10.2654
47.5069 10.19
47.5556 10.1475
47.6044 10.107
47.6531 10.079
47.702 10.0314
47.7507 9.99642
47.7996 9.97568
47.8483 9.95943
47.8972 9.9379
47.9461 9.87707
47.9948 9.83147
48.0438 9.78028
48.0925 9.76693
48.1415 9.72407
48.1902 9.66712
48.2392 9.70422
48.288 9.67575
48.337 9.6272
48.3858 9.5716
48.4348 9.52925
48.4837 9.50739
48.5327 9.47886
48.5815 9.44112
48.6306 9.39475
48.6795 9.36608
48.7285 9.30824
48.7774 9.28603
48.8265 9.26005
48.8754 9.19506
48.9245 9.19184
48.9734 9.17221
49.0226 9.11285
49.0715 9.09468
49.1206 9.06099
49.1696 9.0035
49.2188 8.96842
49.2679 8.93853
49.3169 8.90273
49.3661 8.84357
49.4151 8.84874
49.4643 8.84154
49.5134 8.77188
49.5626 8.73504
49.6117 8.74531
49.6609 8.72957
49.71 8.64278
49.7592 8.60488
49.8083 8.54127
49.8576 8.56343
49.9067 8.50896
49.956 8.46223
50.0052 8.45583
50.0545 8.43916
50.1036 8.37352
50.153 8.37101
50.2022 8.31035
50.2515 8.25901
50.3007 8.21932
50.3501 8.22803
50.3993 8.18417
50.4487 8.1689
50.498 8.13043
50.5474 8.10697
50.5966 8.0713
50.6461 8.03614
50.6955 8.0641
50.7448 7.99915
50.7943 7.96761
50.8436 7.90109
50.8931 7.86599
50.9424 7.8656
50.9919 7.80093
51.0413 7.77931
51.0908 7.75872
51.1402 7.74037
51.1897 7.71232
51.2391 7.70062
51.2887 7.61155
51.3381 7.60543
51.3877 7.58267
51.4371 7.53378
51.4867 7.52602
51.5362 7.47705
51.5858 7.49642
51.6353 7.42639
51.6849 7.36892
51.7344 7.36924
51.7841 7.36819
51.8336 7.31777
51.8833 7.2858
51.9328 7.22551
51.9826 7.20781
52.0323 7.17443
52.0818 7.16344
52.1316 7.09761
52.1812 7.09684
52.231 7.04871
52.2806 7.02908
52.3304 7.03008
52.38 6.98086
52.4298 6.94321
52.4794 6.89944
52.5293 6.87939
52.5789 6.87711
52.6288 6.85801
52.6785 6.78073
52.7284 6.73617
52.7781 6.72618
52.828 6.74403
52.8777 6.66328
52.9276 6.66507
52.9774 6.64889
53.0273 6.65664
53.0771 6.58756
53.1271 6.58352
53.1769 6.53947
53.2269 6.48786
53.2767 6.48392
53.3267 6.47692
53.3765 6.38302
53.4266 6.36474
53.4766 6.36129
53.5265 6.31986
53.5765 6.27588
53.6264 6.31825
53.6765 6.24273
53.7264 6.20964
53.7765 6.21776
53.8265 6.13648
53.8766 6.12316
53.9266 6.11712
53.9767 6.09389
54.0267 6.02436
54.0769 6.06969
54.1269 5.96907
54.1771 5.96021
54.2271 5.92434
54.2773 5.87613
54.3274 5.87243
54.3776 5.77735
54.4277 5.77969
54.478 5.7345
54.528 5.69577
54.5783 5.59637
54.6285 5.58138
54.6788 5.52433
54.7289 5.51342
54.7792 5.49717
54.8296 5.42573
54.8798 5.36586
54.9301 5.33371
54.9803 5.28598
55.0307 5.29041
55.0809 5.21972
55.1314 5.17621
55.1816 5.09617
55.232 5.07255
55.2823 4.99381
55.3328 4.96718
55.383 4.89677
55.4335 4.90312
55.4838 4.80701
55.5344 4.75853
55.5847 4.78545
55.6352 4.72035
55.6856 4.6937
55.7361 4.67289