File: XRD/Ni3Fe_FD0390.xy
TT I
1.27165 7.54709
1.31627 6.40569
1.36089 6.54913
1.40551 6.94029
1.45013 5.89872
1.49476 6.02241
1.53938 6.40053
1.584 5.38675
1.62863 5.68116
1.67325 5.45146
1.71787 5.35116
1.7625 4.88695
1.80712 4.56116
1.85174 5.08597
1.89636 4.83475
1.94099 4.70271
1.98562 4.48812
2.03025 4.67193
2.07487 4.45658
2.11949 4.74762
2.16411 5.25115
2.20874 14.7816
2.25338 23.1331
2.298 6.01582
2.34263 4.80238
2.38725 5.48644
2.43188 5.10547
2.4765 6.24061
2.52115 6.33818
2.56577 6.79094
2.6104 7.60651
2.65503 6.97685
2.69965 7.28596
2.7443 7.87616
2.78893 7.97609
2.83356 8.35501
2.87818 8.85547
2.92281 9.09602
2.96744 9.52429
3.01209 10.2032
3.05672 10.8374
3.10135 12.0378
3.14599 13.4277
3.19062 13.7934
3.23527 15.0066
3.2799 16.0368
3.32454 16.7175
3.36917 17.4891
3.4138 19.1595
3.45844 20.1434
3.50309 21.7158
3.54773 22.1259
3.59237 24.4307
3.637 95.3169
3.68164 60.4927
3.7263 26.8119
3.77094 26.7658
3.81558 27.6472
3.86022 27.8935
3.90486 29.395
3.9495 30.249
3.99416 31.1701
4.0388 32.7364
4.08344 34.4358
4.12809 35.6269
4.17273 37.8367
4.21738 44.5564
4.26204 258.38
4.30669 222.344
4.35133 49.3832
4.39598 45.6414
4.44063 55.0418
4.4853 66.9576
4.52995 52.6345
4.5746 52.6716
4.61925 54.1591
4.6639 56.4232
4.70855 59.0222
4.75322 62.0828
4.79788 65.5123
4.84253 68.7011
4.88719 73.8217
4.93184 76.8094
4.97652 83.1577
5.02118 89.8487
5.06583 98.1951
5.11049 111.301
5.15515 188.631
5.19981 456.708
5.24449 3154.17
5.28916 11411.5
5.33382 3515.38
5.37848 224.901
5.42315 138.792
5.46783 119.815
5.5125 110.495
5.55716 106.039
5.60183 101.792
5.6465 99.5249
5.69117 97.2328
5.73586 95.4887
5.78053 95.1014
5.8252 95.0222
5.86988 95.9642
5.91455 98.4166
5.95924 108.899
6.00392 246.539
6.0486 1095.92
6.09328 3984.52
6.13795 3478.71
6.18263 301.207
6.22733 100.4
6.27201 87.26
6.3167 105.691
6.36138 82.7789
6.40606 71.5906
6.45075 69.306
6.49545 67.1147
6.54014 65.5716
6.58483 64.909
6.62952 64.6623
6.67421 96.7155
6.71892 147.852
6.76361 70.313
6.8083 60.22
6.853 59.0433
6.89769 58.459
6.94239 58.0231
6.98711 57.5965
7.03181 57.1211
7.07651 56.4541
7.12121 56.6647
7.16591 56.5238
7.21063 56.7868
7.25533 72.5688
7.30004 185.415
7.34475 93.7608
7.38945 57.9371
7.43416 56.1179
7.47889 55.5715
7.5236 55.9914
7.56831 56.5126
7.61303 58.5802
7.65774 59.1658
7.70247 57.313
7.74719 57.4808
7.79191 57.8997
7.83663 58.4681
7.88135 59.1427
7.92607 60.1312
7.97081 61.34
8.01553 62.2569
8.06026 63.4197
8.10498 65.5591
8.14971 75.6418
8.19446 74.4232
8.23919 71.228
8.28392 73.8104
8.32865 76.0669
8.37339 80.5857
8.41812 88.1766
8.46288 119.19
8.50761 183.417
8.55235 434.238
8.59709 1139.26
8.64183 2134.8
8.68658 1157.88
8.73134 197.397
8.77609 105.153
8.82083 95.7729
8.86558 92.5317
8.91033 92.7392
8.9551 94.2077
8.99985 87.8364
9.04461 85.751
9.08936 85.3637
9.13412 83.9141
9.17888 84.0516
9.22365 84.632
9.26841 83.9642
9.31318 85.1952
9.35794 85.035
9.4027 85.6406
9.44749 86.2497
9.49226 86.7736
9.53703 87.4564
9.5818 89.9429
9.62657 94.6285
9.67134 101.586
9.71614 95.6292
9.76091 96.5954
9.80569 99.3216
9.85047 102.664
9.89525 128.247
9.94005 142.279
9.98484 193.57
10.0296 382.761
10.0744 806.583
10.1192 1593.71
10.164 1712.93
10.2088 503.077
10.2536 141.206
10.2984 118.342
10.3432 118.63
10.388 108.442
10.4328 125.267
10.4776 171.958
10.5224 279.734
10.5672 480.083
10.612 526.108
10.6568 229.038
10.7017 102.596
10.7465 89.3572
10.7913 85.4502
10.8361 83.2181
10.8809 81.2033
10.9257 80.3148
10.9706 81.6235
11.0154 76.9044
11.0602 74.7227
11.105 73.4914
11.1499 78.1888
11.1947 85.8519
11.2395 76.4981
11.2844 72.4964
11.3292 69.2166
11.374 67.5965
11.4189 67.5345
11.4637 66.5699
11.5086 67.2564
11.5534 70.1185
11.5983 67.1694
11.6431 65.2392
11.688 64.5107
11.7328 64.6588
11.7777 64.2081
11.8225 63.8953
11.8674 63.9644
11.9122 64.5997
11.9571 64.7403
12.002 65.1725
12.0468 70.2972
12.0917 83.5023
12.1366 105.239
12.1814 148.605
12.2263 197.143
12.2712 178.756
12.3161 107.451
12.3609 73.1386
12.4058 66.4483
12.4507 65.7631
12.4956 66.0754
12.5405 66.4212
12.5853 67.0061
12.6302 75.5604
12.6751 80.9569
12.72 71.8513
12.7649 69.6047
12.8098 70.13
12.8547 71.5971
12.8996 73.0053
12.9445 74.0323
12.9894 75.7418
13.0343 77.8193
13.0792 81.2285
13.1242 91.7777
13.1691 118.834
13.214 156.209
13.2589 234.561
13.3038 348.505
13.3487 424.724
13.3937 295.606
13.4386 139.458
13.4835 111.53
13.5285 127.989
13.5734 163.101
13.6183 238.332
13.6633 330.292
13.7082 347.235
13.7531 210.756
13.7981 106.536
13.843 84.4879
13.888 81.7398
13.9329 79.317
13.9779 77.8951
14.0228 76.2236
14.0678 74.8746
14.1127 74.5827
14.1577 74.6877
14.2027 73.2515
14.2476 72.3063
14.2926 72.1945
14.3376 73.4344
14.3825 72.2519
14.4275 70.4378
14.4725 70.4624
14.5175 70.6327
14.5624 70.8669
14.6074 73.196
14.6524 73.5896
14.6974 72.1536
14.7424 74.1188
14.7874 82.0172
14.8324 93.4255
14.8774 113.585
14.9224 150.015
14.9674 197.268
15.0124 220.034
15.0574 163.676
15.1024 99.1285
15.1474 75.1037
15.1924 72.5011
15.2374 73.154
15.2824 72.2745
15.3274 70.1385
15.3725 68.6667
15.4175 67.8996
15.4625 67.7344
15.5076 68.2712
15.5526 67.9105
15.5976 67.5745
15.6426 68.7774
15.6877 75.1088
15.7327 83.7779
15.7778 97.8386
15.8228 124.618
15.8679 163.354
15.9129 191.221
15.958 168.426
16.003 106.245
16.0481 71.8358
16.0931 66.6145
16.1382 64.6586
16.1833 62.4094
16.2283 60.6697
16.2734 60.0828
16.3185 60.3831
16.3636 61.0241
16.4086 59.2481
16.4537 57.8077
16.4988 57.2261
16.5439 56.9633
16.589 56.5305
16.6341 56.4966
16.6792 56.1058
16.7243 56.0836
16.7694 56.354
16.8145 56.2381
16.8596 56.7755
16.9047 58.2879
16.9498 58.5175
16.9949 57.4164
17.04 57.451
17.0851 58.888
17.1302 60.4452
17.1754 63.6704
17.2205 67.9991
17.2656 74.7932
17.3108 82.6352
17.3559 84.6964
17.401 74.7434
17.4462 64.7433
17.4913 60.8951
17.5365 60.5601
17.5815 60.9797
17.6268 61.1059
17.6718 62.1822
17.7171 62.6256
17.7622 62.8805
17.8074 63.2411
17.8525 66.2407
17.8977 70.8501
17.9428 76.6849
17.9881 84.4565
18.0331 99.6302
18.0784 118.325
18.1237 137.085
18.1688 136.61
18.214 111.722
18.2591 90.7349
18.3044 90.9392
18.3495 98.833
18.3948 105.963
18.4399 100.33
18.4852 82.1606
18.5303 68.7059
18.5756 64.0909
18.6207 63.0106
18.666 61.9362
18.7112 61.4382
18.7565 60.5918
18.8016 60.0994
18.8469 59.4735
18.892 59.3402
18.9374 58.8299
18.9825 58.4613
19.0278 58.3165
19.073 58.6505
19.1183 59.3367
19.1635 59.8478
19.2088 61.2389
19.254 63.4269
19.2993 67.1595
19.3447 72.6541
19.3898 76.949
19.4352 74.7731
19.4804 66.4756
19.5257 59.2312
19.5709 56.1283
19.6163 55.2979
19.6615 55.1735
19.7068 54.6057
19.752 54.6036
19.7974 54.9578
19.8426 55.8898
19.888 56.8362
19.9332 57.8424
19.9786 60.136
20.0238 63.2049
20.0692 67.2261
20.1144 70.524
20.1598 70.3622
20.205 66.2535
20.2504 63.7188
20.2957 64.604
20.3411 66.1926
20.3863 65.9938
20.4318 60.9811
20.477 55.8348
20.5224 53.2871
20.5677 52.5694
20.6131 51.5571
20.6586 51.0611
20.7038 50.9794
20.7493 50.5057
20.7945 50.3099
20.84 50.043
20.8853 50.0097
20.9307 49.8574
20.976 49.9012
21.0215 49.9503
21.0668 50.5204
21.1122 50.7727
21.1575 51.3424
21.203 52.0037
21.2483 52.2986
21.2938 52.6337
21.3391 51.6754
21.3846 50.5426
21.4299 49.746
21.4754 49.627
21.5207 49.7592
21.5662 50.1294
21.6116 50.5757
21.6571 51.2315
21.7024 52.435
21.7479 53.9837
21.7933 56.4508
21.8388 59.6369
21.8843 63.1471
21.9297 65.484
21.9752 65.4409
22.0206 61.9064
22.0661 58.4021
22.1115 57.2499
22.157 57.328
22.2024 55.9545
22.248 53.392
22.2933 51.5917
22.3389 50.4818
22.3843 50.2832
22.4299 50.2573
22.4753 50.2864
22.5208 49.8604
22.5662 49.8546
22.6118 49.9262
22.6572 50.186
22.7028 50.6443
22.7483 51.0935
22.7939 51.7136
22.8393 53.0439
22.8849 54.9319
22.9303 56.8021
22.9759 58.6128
23.0214 58.6328
23.067 56.4167
23.1126 53.0458
23.1581 50.7529
23.2037 50.1156
23.2492 50.2696
23.2948 50.2097
23.3403 50.3348
23.3859 51.0785
23.4314 51.9541
23.477 53.7626
23.5225 55.2763
23.5682 57.3092
23.6137 58.962
23.6593 57.5284
23.7048 53.8688
23.7505 50.3067
23.796 48.2237
23.8417 47.3639
23.8872 46.7348
23.9329 46.4534
23.9784 46.1665
24.0241 45.8664
24.0697 45.6614
24.1154 45.3928
24.1609 45.3262
24.2066 45.0549
24.2522 44.9359
24.2979 44.7895
24.3434 44.6243
24.3892 44.2789
24.4349 44.38
24.4805 44.1166
24.5262 44.3264
24.5718 43.9931
24.6175 44.1625
24.6631 43.9822
24.7089 43.6489
24.7545 43.5412
24.8002 43.433
24.8458 43.4167
24.8916 43.0271
24.9372 43.2588
24.983 43.6831
25.0286 43.8796
25.0744 44.3911
25.12 44.6478
25.1658 45.2342
25.2114 45.7624
25.2572 45.9636
25.3029 45.9572
25.3487 45.8378
25.3943 45.7076
25.4402 44.7324
25.4858 43.8894
25.5316 42.7998
25.5773 42.025
25.6231 41.9904
25.669 41.5412
25.7147 41.595
25.7605 41.4927
25.8062 41.5563
25.8521 41.7415
25.8977 41.7008
25.9436 41.9366
25.9893 41.8065
26.0352 42.499
26.0809 42.5115
26.1268 42.7014
26.1725 42.4761
26.2184 41.9574
26.2641 41.4013
26.31 41.2241
26.3557 41.1915
26.4017 41.2003
26.4474 41.564
26.4933 41.75
26.5391 42.1754
26.585 42.6911
26.6308 42.8987
26.6767 43.1422
26.7225 43.154
26.7684 42.6274
26.8142 41.952
26.8601 41.5794
26.9059 41.0632
26.9519 40.566
26.9979 40.2925
27.0437 39.9794
27.0896 39.7087
27.1354 39.8559
27.1814 39.544
27.2272 39.4993
27.2732 39.4611
27.3191 39.3044
27.3651 39.5386
27.4109 39.3274
27.4569 39.4142
27.5027 39.5349
27.5488 39.4804
27.5946 39.3021
27.6407 39.2495
27.6865 39.0992
27.7326 38.9244
27.7784 38.8596
27.8245 38.7924
27.8703 38.9604
27.9164 39.3072
27.9623 39.2795
28.0084 39.582
28.0543 39.9733
28.1003 39.8523
28.1462 39.7901
28.1923 39.4703
28.2384 38.8554
28.2843 38.6133
28.3304 38.2406
28.3764 37.7153
28.4225 37.4422
28.4684 37.3226
28.5145 36.8383
28.5605 36.7832
28.6066 36.586
28.6526 36.5431
28.6987 36.4727
28.7447 36.3762
28.7908 36.2772
28.8368 36.2848
28.8829 36.3643
28.9289 36.2842
28.9751 36.094
29.0211 35.918
29.0673 35.5105
29.1133 35.5088
29.1595 35.4777
29.2055 35.2834
29.2517 35.213
29.2977 35.1495
29.3439 35.1023
29.3899 35.0952
29.4361 35.0543
29.4824 34.9209
29.5284 34.7005
29.5746 34.3966
29.6207 34.0037
29.6669 34.016
29.713 33.88
29.7593 33.7164
29.8053 33.773
29.8516 33.6643
29.8977 33.6827
29.9439 33.5007
29.99 33.4187
30.0363 33.3752
30.0824 33.3223
30.1287 33.2173
30.1748 33.2972
30.2211 33.3644
30.2673 33.1925
30.3136 33.2669
30.3597 33.0973
30.406 32.9875
30.4522 32.8761
30.4985 32.9234
30.5447 32.8512
30.591 32.8962
30.6372 33.0025
30.6835 33.0581
30.7297 33.0182
30.7761 33.0296
30.8224 32.7801
30.8686 32.7917
30.915 32.4662
30.9612 32.3234
31.0076 32.0585
31.0538 32.0025
31.1002 31.8332
31.1464 31.7312
31.1928 31.8302
31.2391 31.794
31.2855 31.6164
31.3317 31.7053
31.3781 31.6732
31.4244 31.69
31.4708 31.5648
31.5171 31.6178
31.5636 31.5212
31.6098 31.357
31.6563 31.1589
31.7026 31.0249
31.7491 30.8772
31.7953 30.9932
31.8418 30.8958
31.8881 30.9257
31.9346 30.8189
31.9809 30.8395
32.0275 30.67
32.074 30.5541
32.1203 30.3597
32.1668 30.4375
32.2132 30.0981
32.2597 29.9685
32.306 29.9878
32.3526 29.7365
32.399 29.6558
32.4455 29.4845
32.4919 29.4386
32.5385 29.4273
32.5848 29.2156
32.6314 29.1772
32.6778 29.1196
32.7244 28.9429
32.7708 28.9298
32.8174 28.8538
32.8638 28.766
32.9104 28.826
32.9569 28.7147
33.0035 28.6307
33.0499 28.5382
33.0966 28.5139
33.143 28.4875
33.1897 28.3453
33.2361 28.3103
33.2828 28.2527
33.3293 28.0494
33.3759 28.1473
33.4226 27.9406
33.4691 27.7794
33.5158 27.774
33.5623 27.6453
33.609 27.4798
33.6555 27.3448
33.7022 27.3323
33.7487 27.148
33.7954 27.2086
33.842 27.0364
33.8887 26.9808
33.9353 26.9534
33.982 26.8084
34.0286 26.7494
34.0753 26.6484
34.1219 26.5679
34.1687 26.4683
34.2152 26.3948
34.262 26.2297
34.3086 26.252
34.3554 26.1564
34.402 26.0447
34.4488 25.9682
34.4954 25.876
34.5422 25.792
34.5889 25.7503
34.6357 25.7327
34.6825 25.4921
34.7292 25.4402
34.776 25.3592
34.8227 25.3779
34.8695 25.2272
34.9162 25.3033
34.9631 25.0779
35.0098 25.136
35.0566 24.9754
35.1033 24.9063
35.1502 24.8604
35.1969 24.7933
35.2438 24.7564
35.2906 24.7143
35.3375 24.6179
35.3842 24.6348
35.4311 24.5948
35.4779 24.5916
35.5248 24.523
35.5716 24.3661
35.6185 24.3116
35.6653 24.2224
35.7123 24.1021
35.759 24.1097
35.806 23.9832
35.8528 23.8451
35.8998 23.8266
35.9468 23.6466
35.9936 23.6009
36.0406 23.5746
36.0874 23.6587
36.1345 23.4257
36.1813 23.4636
36.2283 23.2837
36.2752 23.1686
36.3222 23.2598
36.3691 23.0574
36.4161 23.0225
36.463 23.0658
36.5101 22.9986
36.557 22.8626
36.6041 22.7759
36.651 22.7335
36.6981 22.6821
36.745 22.633
36.7921 22.5921
36.839 22.3574
36.8861 22.4175
36.9331 22.1882
36.9802 22.222
37.0272 22.1503
37.0743 22.0231
37.1213 21.9555
37.1684 21.9401
37.2154 21.895
37.2626 21.8497
37.3098 21.7735
37.3568 21.7189
37.404 21.6917
37.451 21.5133
37.4982 21.5169
37.5452 21.3956
37.5924 21.2796
37.6395 21.383
37.6867 21.2065
37.7337 21.1397
37.781 21.0569
37.8281 21.0099
37.8753 20.8927
37.9224 20.8345
37.9697 20.7835
38.0168 20.6807
38.064 20.6592
38.1111 20.5915
38.1584 20.529
38.2056 20.473
38.2529 20.4267
38.3 20.3351
38.3473 20.2955
38.3945 20.1921
38.4418 20.1446
38.489 20.1229
38.5363 19.9673
38.5837 19.9369
38.6309 19.889
38.6782 19.8291
38.7254 19.6797
38.7728 19.697
38.82 19.6111
38.8674 19.5985
38.9146 19.5264
38.9621 19.4379
39.0093 19.3247
39.0567 19.3492
39.104 19.2356
39.1514 19.222
39.1987 19.1767
39.2461 19.074
39.2934 19.0768
39.3409 18.9184
39.3882 18.8566
39.4356 18.8309
39.483 18.7934
39.5304 18.6861
39.5778 18.7625
39.6253 18.5668
39.6726 18.5521
39.7201 18.5158
39.7675 18.4842
39.815 18.3945
39.8624 18.2985
39.9099 18.2416
39.9575 18.1404
40.0049 18.1498
40.0525 18.0487
40.0999 17.9997
40.1474 18.0333
40.1949 17.9278
40.2425 17.8529
40.2899 17.8189
40.3375 17.7255
40.385 17.6742
40.4326 17.658
40.48 17.5714
40.5277 17.5253
40.5752 17.445
40.6228 17.357
40.6703 17.3948
40.718 17.3073
40.7655 17.2395
40.8132 17.1622
40.8607 17.1468
40.9084 17.0274
40.9559 17.0623
41.0036 17.0741
41.0512 16.9019
41.0989 16.8762
41.1465 16.8143
41.1942 16.783
41.242 16.6735
41.2896 16.641
41.3373 16.566
41.3849 16.4818
41.4327 16.4873
41.4803 16.3921
41.5281 16.4034
41.5758 16.297
41.6236 16.246
41.6712 16.2012
41.7191 16.1016
41.7667 16.106
41.8146 16.0497
41.8622 15.9464
41.9101 15.8987
41.9578 15.8214
42.0057 15.8911
42.0534 15.8182
42.1013 15.7409
42.149 15.642
42.1969 15.62
42.2446 15.5557
42.2925 15.4849
42.3403 15.4162
42.3882 15.3887
42.436 15.3953
42.4839 15.2893
42.5319 15.248
42.5797 15.1844
42.6277 15.1316
42.6755 15.1353
42.7235 14.9802
42.7713 15.0136
42.8193 14.9367
42.8671 14.8709
42.9152 14.8345
42.963 14.797
43.0111 14.7364
43.0589 14.698
43.107 14.6416
43.1549 14.6247
43.2029 14.5145
43.2508 14.5119
43.2989 14.4294
43.3468 14.3929
43.3949 14.3355
43.4429 14.2914
43.491 14.2794
43.5389 14.1759
43.5871 14.0898
43.635 14.055
43.6832 14.0115
43.7312 13.9383
43.7793 13.8963
43.8273 13.8861
43.8755 13.8041
43.9237 13.7816
43.9717 13.7774
44.0199 13.7083
44.068 13.6308
44.1162 13.5725
44.1642 13.5842
44.2125 13.5382
44.2606 13.4951
44.3088 13.3851
44.3569 13.3387
44.4052 13.3282
44.4533 13.2252
44.5016 13.1948
44.5497 13.1888
44.598 13.1595
44.6461 13.0728
44.6945 13.035
44.7426 12.9697
44.791 12.9326
44.8391 12.8914
44.8875 12.86
44.9357 12.822
44.984 12.7909
45.0322 12.7501
45.0806 12.6579
45.1288 12.6856
45.1773 12.588
45.2257 12.5633
45.2739 12.5294
45.3224 12.4397
45.3706 12.3994
45.4191 12.3017
45.4673 12.3599
45.5158 12.2618
45.5641 12.2266
45.6126 12.2112
45.6609 12.139
45.7094 12.0978
45.7577 12.0697
45.8063 12.0221
45.8546 11.9823
45.9031 11.9481
45.9515 11.8923
46.0001 11.8674
46.0484 11.8191
46.097 11.8237
46.1454 11.7574
46.194 11.6913
46.2424 11.6673
46.291 11.618
46.3395 11.5742
46.3881 11.502
46.4365 11.4648
46.4852 11.3936
46.5337 11.4096
46.5823 11.3765
46.631 11.2798
46.6795 11.2989
46.7282 11.2343
46.7767 11.1715
46.8254 11.1455
46.8739 11.0722
46.9226 11.0527
46.9712 11.0223
47.0199 10.9864
47.0685 10.9357
47.1173 10.8932
47.1658 10.8675
47.2146 10.8162
47.2632 10.7486
47.312 10.76
47.3606 10.6724
47.4095 10.6573
47.4581 10.6284
47.5069 10.5729
47.5556 10.5406
47.6044 10.5327
47.6531 10.4693
47.702 10.3911
47.7507 10.3778
47.7996 10.3161
47.8483 10.3247
47.8972 10.2538
47.9461 10.2483
47.9948 10.1636
48.0438 10.1571
48.0925 10.1232
48.1415 10.0645
48.1902 10.0018
48.2392 10.0382
48.288 10.0121
48.337 9.9502
48.3858 9.8998
48.4348 9.90159
48.4837 9.82952
48.5327 9.83337
48.5815 9.76423
48.6306 9.717
48.6795 9.72108
48.7285 9.67803
48.7774 9.61278
48.8265 9.59123
48.8754 9.52086
48.9245 9.51924
48.9734 9.48166
49.0226 9.46666
49.0715 9.41028
49.1206 9.38866
49.1696 9.33042
49.2188 9.29905
49.2679 9.24825
49.3169 9.27912
49.3661 9.18273
49.4151 9.15237
49.4643 9.12459
49.5134 9.06806
49.5626 9.03633
49.6117 9.08321
49.6609 8.97882
49.71 8.91384
49.7592 8.90468
49.8083 8.89016
49.8576 8.86738
49.9067 8.79385
49.956 8.80647
50.0052 8.75212
50.0545 8.72893
50.1036 8.67178
50.153 8.65319
50.2022 8.64509
50.2515 8.5983
50.3007 8.5486
50.3501 8.51764
50.3993 8.46142
50.4487 8.45504
50.498 8.443
50.5474 8.38761
50.5966 8.34939
50.6461 8.29121
50.6955 8.28631
50.7448 8.25143
50.7943 8.24815
50.8436 8.18692
50.8931 8.1769
50.9424 8.12606
50.9919 8.11927
51.0413 8.07579
51.0908 7.9956
51.1402 8.02268
51.1897 7.98759
51.2391 7.96268
51.2887 7.92742
51.3381 7.85448
51.3877 7.8182
51.4371 7.80316
51.4867 7.75813
51.5362 7.77108
51.5858 7.70686
51.6353 7.6675
51.6849 7.69577
51.7344 7.61442
51.7841 7.59845
51.8336 7.55767
51.8833 7.53581
51.9328 7.48043
51.9826 7.42365
52.0323 7.40625
52.0818 7.39128
52.1316 7.34202
52.1812 7.3398
52.231 7.28243
52.2806 7.23953
52.3304 7.25209
52.38 7.19712
52.4298 7.19292
52.4794 7.13594
52.5293 7.11854
52.5789 7.0653
52.6288 7.06651
52.6785 7.00981
52.7284 6.99728
52.7781 6.9553
52.828 6.9368
52.8777 6.89311
52.9276 6.86834
52.9774 6.8787
53.0273 6.80753
53.0771 6.81034
53.1271 6.81443
53.1769 6.74438
53.2269 6.70755
53.2767 6.66276
53.3267 6.6853
53.3765 6.66408
53.4266 6.62447
53.4766 6.54956
53.5265 6.51347
53.5765 6.51729
53.6264 6.44397
53.6765 6.45177
53.7264 6.42382
53.7765 6.38208
53.8265 6.37549
53.8766 6.31824
53.9266 6.33413
53.9767 6.26839
54.0267 6.26151
54.0769 6.23602
54.1269 6.19813
54.1771 6.16438
54.2271 6.1561
54.2773 6.09336
54.3274 6.09331
54.3776 6.0336
54.4277 6.01982
54.478 5.9432
54.528 5.95532
54.5783 5.91035
54.6285 5.82408
54.6788 5.75497
54.7289 5.73965
54.7792 5.74053
54.8296 5.7044
54.8798 5.63501
54.9301 5.65385
54.9803 5.61697
55.0307 5.59591
55.0809 5.48473
55.1314 5.4681
55.1816 5.42063
55.232 5.3886
55.2823 5.3705
55.3328 5.27105
55.383 5.1923
55.4335 5.15869
55.4838 5.12061
55.5344 5.11718
55.5847 5.02347
55.6352 5.04372
55.6856 4.94863
55.7361 4.97537