File: XRD/Ni3Fe_FD0902.xy
TT I
1.27165 7.6697
1.31627 6.81957
1.36089 7.31092
1.40551 5.39103
1.45013 5.96152
1.49476 5.94689
1.53938 5.52208
1.584 4.70551
1.62863 4.86413
1.67325 4.98306
1.71787 4.97936
1.7625 4.19038
1.80712 4.42686
1.85174 3.90889
1.89636 4.42904
1.94099 4.73339
1.98562 4.69079
2.03025 4.22476
2.07487 5.16005
2.11949 4.9211
2.16411 4.84406
2.20874 12.2393
2.25338 17.0535
2.298 5.64849
2.34263 5.38728
2.38725 5.71354
2.43188 7.08225
2.4765 7.58339
2.52115 7.64193
2.56577 7.83221
2.6104 8.73806
2.65503 8.1523
2.69965 8.92955
2.7443 9.09748
2.78893 8.80012
2.83356 8.5238
2.87818 8.56751
2.92281 9.26807
2.96744 9.27865
3.01209 9.86396
3.05672 11.2524
3.10135 12.4625
3.14599 13.3246
3.19062 14.9612
3.23527 14.9569
3.2799 15.7021
3.32454 16.6203
3.36917 17.6839
3.4138 18.8719
3.45844 19.3738
3.50309 20.1355
3.54773 21.5357
3.59237 23.183
3.637 69.6065
3.68164 46.6466
3.7263 25.0668
3.77094 26.159
3.81558 26.4607
3.86022 27.1045
3.90486 28.8385
3.9495 29.2628
3.99416 30.5297
4.0388 31.4769
4.08344 33.3073
4.12809 34.2812
4.17273 35.823
4.21738 40.4562
4.26204 179.663
4.30669 157.433
4.35133 46.0014
4.39598 43.2915
4.44063 50.4292
4.4853 58.6407
4.52995 50.5605
4.5746 51.5432
4.61925 52.6169
4.6639 54.6402
4.70855 57.1042
4.75322 60.0708
4.79788 64.015
4.84253 66.6255
4.88719 70.9806
4.93184 74.4811
4.97652 79.7116
5.02118 85.4414
5.06583 92.8195
5.11049 102.911
5.15515 155.64
5.19981 329.727
5.24449 2659.54
5.28916 13663.2
5.33382 2543.42
5.37848 171.821
5.42315 123.201
5.46783 111.21
5.5125 104.464
5.55716 100.039
5.60183 96.3432
5.6465 94.9245
5.69117 92.4057
5.73586 90.3514
5.78053 91.1519
5.8252 90.7078
5.86988 92.1354
5.91455 92.478
5.95924 100.277
6.00392 201.03
6.0486 889.998
6.09328 4570.88
6.13795 3054.01
6.18263 198.292
6.22733 87.5707
6.27201 79.5622
6.3167 90.8245
6.36138 75.5025
6.40606 67.5134
6.45075 66.7239
6.49545 64.3463
6.54014 62.2366
6.58483 61.6941
6.62952 61.3743
6.67421 82.1529
6.71892 113.397
6.76361 64.4177
6.8083 57.2465
6.853 56.7015
6.89769 55.5852
6.94239 55.5034
6.98711 54.971
7.03181 54.6994
7.07651 54.2414
7.12121 54.1672
7.16591 54.4967
7.21063 54.1639
7.25533 64.5971
7.30004 135.066
7.34475 78.4287
7.38945 54.9051
7.43416 53.5721
7.47889 53.3493
7.5236 53.7586
7.56831 54.3363
7.61303 55.4928
7.65774 55.6485
7.70247 55.3319
7.74719 55.2736
7.79191 55.5781
7.83663 56.0912
7.88135 56.8034
7.92607 57.6789
7.97081 58.5939
8.01553 59.9285
8.06026 61.2829
8.10498 62.6491
8.14971 70.0996
8.19446 69.5646
8.23919 68.4242
8.28392 70.6172
8.32865 72.8137
8.37339 76.7461
8.41812 82.8671
8.46288 105.241
8.50761 160.687
8.55235 359.767
8.59709 1183.51
8.64183 2289.49
8.68658 854.133
8.73134 148.629
8.77609 95.6693
8.82083 90.1798
8.86558 88.2193
8.91033 88.354
8.9551 88.5248
8.99985 83.6769
9.04461 82.2278
9.08936 81.7159
9.13412 80.7099
9.17888 80.5995
9.22365 81.0965
9.26841 80.6307
9.31318 81.62
9.35794 82.2249
9.4027 82.1023
9.44749 82.727
9.49226 83.2802
9.53703 83.9102
9.5818 86.1109
9.62657 90.1102
9.67134 94.8427
9.71614 91.2805
9.76091 92.1135
9.80569 95.3405
9.85047 98.3914
9.89525 115.538
9.94005 128.721
9.98484 173.883
10.0296 322.92
10.0744 800.093
10.1192 1841.44
10.164 1474.58
10.2088 330.239
10.2536 118.365
10.2984 108.07
10.3432 109.107
10.388 102.256
10.4328 116.675
10.4776 155.764
10.5224 284.407
10.5672 535.17
10.612 493.677
10.6568 182.648
10.7017 92.5777
10.7465 84.4504
10.7913 81.6779
10.8361 79.3826
10.8809 77.5656
10.9257 76.4366
10.9706 76.5963
11.0154 73.0437
11.0602 71.2544
11.105 70.3745
11.1499 72.9251
11.1947 77.0916
11.2395 71.2239
11.2844 68.0797
11.3292 65.7011
11.374 64.7709
11.4189 64.4758
11.4637 63.5124
11.5086 63.4747
11.5534 65.7556
11.5983 63.582
11.6431 62.4263
11.688 61.6285
11.7328 61.685
11.7777 61.6289
11.8225 61.3525
11.8674 61.1711
11.9122 61.5393
11.9571 61.8437
12.002 62.6576
12.0468 66.4249
12.0917 76.2711
12.1366 100.251
12.1814 157.992
12.2263 218.963
12.2712 157.21
12.3161 87.5564
12.3609 67.3051
12.4058 62.8788
12.4507 63.1173
12.4956 63.0351
12.5405 63.2992
12.5853 64.244
12.6302 69.3525
12.6751 72.9757
12.72 67.6797
12.7649 66.4233
12.8098 66.9442
12.8547 68.1521
12.8996 69.8685
12.9445 71.2138
12.9894 72.725
13.0343 74.4344
13.0792 78.0028
13.1242 87.5324
13.1691 108.231
13.214 143.836
13.2589 239.247
13.3038 390.291
13.3487 425.957
13.3937 234.983
13.4386 113.784
13.4835 102.668
13.5285 116.415
13.5734 154.017
13.6183 255.684
13.6633 368.17
13.7082 329.774
13.7531 165.877
13.7981 91.57
13.843 79.6567
13.888 77.8633
13.9329 75.8652
13.9779 74.1691
14.0228 72.7092
14.0678 71.5778
14.1127 71.0287
14.1577 70.6298
14.2027 70.0415
14.2476 69.0042
14.2926 68.8956
14.3376 69.3749
14.3825 68.5004
14.4275 67.5596
14.4725 67.2422
14.5175 67.5734
14.5624 67.46
14.6074 69.1812
14.6524 69.7347
14.6974 69.0978
14.7424 71.1793
14.7874 77.3944
14.8324 86.4621
14.8774 108.891
14.9224 156.614
14.9674 219.418
15.0124 216.164
15.0574 136.93
15.1024 84.0764
15.1474 70.0072
15.1924 68.7917
15.2374 68.8458
15.2824 68.0603
15.3274 66.4164
15.3725 65.4068
15.4175 65.1211
15.4625 64.5712
15.5076 64.8752
15.5526 64.7871
15.5976 64.6827
15.6426 65.9287
15.6877 70.7511
15.7327 77.517
15.7778 92.2578
15.8228 127.272
15.8679 175.429
15.9129 194.867
15.958 148.265
16.003 90.343
16.0481 65.2044
16.0931 62.3005
16.1382 60.9364
16.1833 59.2485
16.2283 57.6613
16.2734 57.2126
16.3185 57.0474
16.3636 57.4672
16.4086 56.3939
16.4537 55.091
16.4988 54.5215
16.5439 54.3809
16.589 53.9115
16.6341 53.7131
16.6792 53.278
16.7243 53.7655
16.7694 53.7543
16.8145 53.6628
16.8596 54.1144
16.9047 55.0436
16.9498 55.2266
16.9949 54.4389
17.04 54.7149
17.0851 55.928
17.1302 57.7006
17.1754 60.2009
17.2205 65.7522
17.2656 74.5492
17.3108 83.4795
17.3559 80.9561
17.401 68.0779
17.4462 59.827
17.4913 57.9696
17.5365 57.9698
17.5815 58.0727
17.6268 58.6094
17.6718 59.0813
17.7171 59.4403
17.7622 60.0933
17.8074 60.9077
17.8525 63.077
17.8977 67.0609
17.9428 71.9027
17.9881 80.8809
18.0331 99.8574
18.0784 125.473
18.1237 140.199
18.1688 126.084
18.214 96.8082
18.2591 83.3835
18.3044 90.4289
18.3495 102.072
18.3948 106.148
18.4399 91.8574
18.4852 73.1713
18.5303 63.8579
18.5756 60.8022
18.6207 59.884
18.666 59.298
18.7112 58.5751
18.7565 57.8867
18.8016 57.5777
18.8469 57.0005
18.892 56.8035
18.9374 55.8982
18.9825 55.9268
19.0278 55.72
19.073 56.04
19.1183 56.4075
19.1635 56.9876
19.2088 58.24
19.254 60.8783
19.2993 65.8436
19.3447 72.0387
19.3898 75.3571
19.4352 69.5004
19.4804 60.7074
19.5257 54.9019
19.5709 52.8355
19.6163 52.9652
19.6615 52.6935
19.7068 52.3112
19.752 52.2451
19.7974 52.7251
19.8426 53.3397
19.888 54.051
19.9332 55.1205
19.9786 57.9628
20.0238 62.0662
20.0692 67.3776
20.1144 69.5188
20.1598 66.3195
20.205 61.6027
20.2504 61.2205
20.2957 64.0228
20.3411 65.5928
20.3863 62.4675
20.4318 56.3058
20.477 52.0048
20.5224 50.3707
20.5677 49.7712
20.6131 49.3043
20.6586 48.5695
20.7038 48.6969
20.7493 48.2224
20.7945 47.9648
20.84 48.0207
20.8853 47.7468
20.9307 47.7132
20.976 47.8885
21.0215 47.8057
21.0668 47.9865
21.1122 48.4099
21.1575 49.146
21.203 50.1466
21.2483 50.5414
21.2938 50.566
21.3391 49.0029
21.3846 47.7306
21.4299 47.568
21.4754 47.3707
21.5207 47.5833
21.5662 47.9477
21.6116 48.3544
21.6571 48.9581
21.7024 49.8321
21.7479 51.57
21.7933 54.6833
21.8388 58.9077
21.8843 63.0259
21.9297 64.0014
21.9752 61.3142
22.0206 57.6161
22.0661 55.294
22.1115 55.5787
22.157 55.088
22.2024 52.7199
22.248 49.8814
22.2933 48.5811
22.3389 48.1629
22.3843 48.0342
22.4299 47.9199
22.4753 47.8662
22.5208 47.7227
22.5662 47.5573
22.6118 47.7181
22.6572 48.0513
22.7028 48.2723
22.7483 48.7583
22.7939 49.5073
22.8393 51.0722
22.8849 53.4412
22.9303 55.8585
22.9759 57.5057
23.0214 56.3167
23.067 52.7112
23.1126 49.6548
23.1581 47.9785
23.2037 47.9688
23.2492 48.0538
23.2948 47.9596
23.3403 48.2648
23.3859 48.9259
23.4314 49.8745
23.477 51.9302
23.5225 54.5793
23.5682 56.7941
23.6137 57.4301
23.6593 54.2132
23.7048 49.9157
23.7505 47.1663
23.796 45.6475
23.8417 45.154
23.8872 44.6637
23.9329 44.3406
23.9784 44.0509
24.0241 43.8914
24.0697 43.6069
24.1154 43.3183
24.1609 43.1369
24.2066 43.0231
24.2522 42.9251
24.2979 42.6859
24.3434 42.5221
24.3892 42.3785
24.4349 42.3566
24.4805 42.2118
24.5262 42.4789
24.5718 42.3178
24.6175 42.2718
24.6631 41.9735
24.7089 41.7393
24.7545 41.546
24.8002 41.5118
24.8458 41.3683
24.8916 41.2738
24.9372 41.4521
24.983 41.7909
25.0286 42.1417
25.0744 42.6681
25.12 43.2511
25.1658 43.8103
25.2114 43.9199
25.2572 44.0149
25.3029 44.2447
25.3487 44.3241
25.3943 43.88
25.4402 42.5009
25.4858 41.4385
25.5316 40.4923
25.5773 40.0086
25.6231 40.2257
25.669 39.8697
25.7147 39.889
25.7605 39.7283
25.8062 39.7111
25.8521 39.9599
25.8977 39.8083
25.9436 40.157
25.9893 40.3621
26.0352 40.8528
26.0809 40.9908
26.1268 40.9508
26.1725 40.6009
26.2184 39.8689
26.2641 39.4532
26.31 39.3104
26.3557 39.2982
26.4017 39.3489
26.4474 39.6711
26.4933 40.0553
26.5391 40.6398
26.585 41.1536
26.6308 41.6453
26.6767 41.4874
26.7225 41.0974
26.7684 40.5644
26.8142 40.0384
26.8601 39.9087
26.9059 39.2617
26.9519 38.796
26.9979 38.4704
27.0437 38.2028
27.0896 38.1006
27.1354 38.0267
27.1814 37.8523
27.2272 37.8163
27.2732 37.8835
27.3191 37.679
27.3651 37.6934
27.4109 37.7208
27.4569 37.7784
27.5027 37.9732
27.5488 38.0173
27.5946 37.7263
27.6407 37.4527
27.6865 37.29
27.7326 37.16
27.7784 37.1406
27.8245 37.0925
27.8703 37.316
27.9164 37.6904
27.9623 37.8222
28.0084 38.1637
28.0543 38.6428
28.1003 38.4026
28.1462 38.0838
28.1923 37.8338
28.2384 37.3078
28.2843 36.9358
28.3304 36.467
28.3764 35.8846
28.4225 35.7158
28.4684 35.5641
28.5145 35.3195
28.5605 35.1878
28.6066 35.0313
28.6526 35.0324
28.6987 35.0093
28.7447 34.9448
28.7908 34.8688
28.8368 34.845
28.8829 34.8399
28.9289 34.6935
28.9751 34.5274
29.0211 34.4157
29.0673 34.0225
29.1133 33.9358
29.1595 33.7931
29.2055 33.6328
29.2517 33.7441
29.2977 33.7076
29.3439 33.6787
29.3899 33.6752
29.4361 33.4729
29.4824 33.3237
29.5284 33.1236
29.5746 32.8572
29.6207 32.5346
29.6669 32.4783
29.713 32.4862
29.7593 32.3508
29.8053 32.2591
29.8516 32.1483
29.8977 32.2078
29.9439 32.0572
29.99 32.0472
30.0363 31.9179
30.0824 31.8179
30.1287 31.8352
30.1748 31.9865
30.2211 31.8254
30.2673 31.7459
30.3136 31.8166
30.3597 31.6872
30.406 31.5123
30.4522 31.4803
30.4985 31.5083
30.5447 31.6927
30.591 31.6922
30.6372 31.6631
30.6835 31.7299
30.7297 31.7347
30.7761 31.5852
30.8224 31.4191
30.8686 31.359
30.915 31.1242
30.9612 30.9127
31.0076 30.7397
31.0538 30.6092
31.1002 30.635
31.1464 30.3996
31.1928 30.4402
31.2391 30.4772
31.2855 30.2418
31.3317 30.4355
31.3781 30.4509
31.4244 30.4822
31.4708 30.3879
31.5171 30.2759
31.5636 30.1825
31.6098 30.0172
31.6563 29.7883
31.7026 29.6872
31.7491 29.6021
31.7953 29.6537
31.8418 29.5617
31.8881 29.6612
31.9346 29.6502
31.9809 29.6527
32.0275 29.4767
32.074 29.2495
32.1203 29.0134
32.1668 28.9123
32.2132 28.7892
32.2597 28.7062
32.306 28.6314
32.3526 28.4666
32.399 28.4197
32.4455 28.2872
32.4919 28.1395
32.5385 28.1353
32.5848 27.9674
32.6314 27.9802
32.6778 27.9304
32.7244 27.7137
32.7708 27.6701
32.8174 27.6925
32.8638 27.5555
32.9104 27.6753
32.9569 27.5724
33.0035 27.3841
33.0499 27.3421
33.0966 27.3738
33.143 27.3636
33.1897 27.2722
33.2361 27.1078
33.2828 27.1128
33.3293 26.845
33.3759 26.9178
33.4226 26.7551
33.4691 26.6783
33.5158 26.5715
33.5623 26.4738
33.609 26.1922
33.6555 26.262
33.7022 26.2039
33.7487 26.0305
33.7954 25.9933
33.842 25.936
33.8887 25.8968
33.9353 25.8054
33.982 25.6558
34.0286 25.5405
34.0753 25.5574
34.1219 25.4428
34.1687 25.3978
34.2152 25.3987
34.262 25.1809
34.3086 25.0731
34.3554 25.0428
34.402 24.9068
34.4488 24.8296
34.4954 24.8359
34.5422 24.7573
34.5889 24.5918
34.6357 24.5777
34.6825 24.5069
34.7292 24.4356
34.776 24.3223
34.8227 24.3379
34.8695 24.2107
34.9162 24.201
34.9631 24.061
35.0098 24.0594
35.0566 23.9768
35.1033 23.8861
35.1502 23.8002
35.1969 23.8532
35.2438 23.7713
35.2906 23.6933
35.3375 23.7043
35.3842 23.5804
35.4311 23.6092
35.4779 23.4554
35.5248 23.4599
35.5716 23.3604
35.6185 23.2852
35.6653 23.1956
35.7123 23.1592
35.759 23.0614
35.806 22.9441
35.8528 22.8619
35.8998 22.802
35.9468 22.7029
35.9936 22.7421
36.0406 22.6365
36.0874 22.6038
36.1345 22.5807
36.1813 22.4234
36.2283 22.2999
36.2752 22.2289
36.3222 22.2843
36.3691 22.2401
36.4161 22.0496
36.463 22.0242
36.5101 22.0039
36.557 21.981
36.6041 21.7604
36.651 21.799
36.6981 21.7538
36.745 21.6021
36.7921 21.5672
36.839 21.5292
36.8861 21.4178
36.9331 21.3612
36.9802 21.2515
37.0272 21.1948
37.0743 21.1345
37.1213 21.0574
37.1684 21.1275
37.2154 20.9254
37.2626 20.9284
37.3098 20.8893
37.3568 20.7485
37.404 20.7962
37.451 20.6167
37.4982 20.5999
37.5452 20.4426
37.5924 20.3846
37.6395 20.3759
37.6867 20.3469
37.7337 20.2054
37.781 20.1866
37.8281 20.102
37.8753 20.0545
37.9224 19.9664
37.9697 19.9092
38.0168 19.8227
38.064 19.8133
38.1111 19.6925
38.1584 19.6661
38.2056 19.6196
38.2529 19.5973
38.3 19.4774
38.3473 19.5
38.3945 19.2877
38.4418 19.3141
38.489 19.3065
38.5363 19.2151
38.5837 19.1107
38.6309 19.0853
38.6782 19.0111
38.7254 18.9511
38.7728 18.8802
38.82 18.8655
38.8674 18.7875
38.9146 18.6985
38.9621 18.6227
39.0093 18.5515
39.0567 18.473
39.104 18.486
39.1514 18.3603
39.1987 18.4253
39.2461 18.3089
39.2934 18.2207
39.3409 18.1587
39.3882 18.0767
39.4356 18.0188
39.483 18.0131
39.5304 17.9485
39.5778 17.9128
39.6253 17.8931
39.6726 17.833
39.7201 17.7242
39.7675 17.6535
39.815 17.6474
39.8624 17.521
39.9099 17.4702
39.9575 17.4369
40.0049 17.4511
40.0525 17.3612
40.0999 17.2438
40.1474 17.2113
40.1949 17.1046
40.2425 17.1053
40.2899 17.1134
40.3375 17.0305
40.385 16.9719
40.4326 16.8905
40.48 16.8225
40.5277 16.854
40.5752 16.7104
40.6228 16.6282
40.6703 16.6117
40.718 16.6126
40.7655 16.4985
40.8132 16.5014
40.8607 16.4411
40.9084 16.3605
40.9559 16.3676
41.0036 16.2829
41.0512 16.2519
41.0989 16.134
41.1465 16.1596
41.1942 16.0769
41.242 15.9726
41.2896 15.9511
41.3373 15.9143
41.3849 15.8283
41.4327 15.7985
41.4803 15.7069
41.5281 15.6432
41.5758 15.5791
41.6236 15.5883
41.6712 15.4736
41.7191 15.4415
41.7667 15.356
41.8146 15.3793
41.8622 15.305
41.9101 15.2899
41.9578 15.2351
42.0057 15.1775
42.0534 15.1214
42.1013 15.0639
42.149 14.9818
42.1969 14.9698
42.2446 14.903
42.2925 14.9244
42.3403 14.8214
42.3882 14.7883
42.436 14.7336
42.4839 14.6173
42.5319 14.6439
42.5797 14.5764
42.6277 14.4871
42.6755 14.5094
42.7235 14.4216
42.7713 14.3482
42.8193 14.3162
42.8671 14.2627
42.9152 14.2057
42.963 14.1975
43.0111 14.1714
43.0589 14.0914
43.107 14.0429
43.1549 13.9903
43.2029 13.9154
43.2508 13.864
43.2989 13.8327
43.3468 13.7654
43.3949 13.7526
43.4429 13.7493
43.491 13.6721
43.5389 13.6138
43.5871 13.5348
43.635 13.5315
43.6832 13.5052
43.7312 13.4058
43.7793 13.3577
43.8273 13.2955
43.8755 13.2352
43.9237 13.2392
43.9717 13.1746
44.0199 13.1636
44.068 13.0928
44.1162 13.0114
44.1642 13.0201
44.2125 12.9721
44.2606 12.9061
44.3088 12.8887
44.3569 12.8006
44.4052 12.7468
44.4533 12.7106
44.5016 12.6992
44.5497 12.6545
44.598 12.6149
44.6461 12.5646
44.6945 12.4895
44.7426 12.4872
44.791 12.41
44.8391 12.4068
44.8875 12.308
44.9357 12.2614
44.984 12.2317
45.0322 12.2392
45.0806 12.1459
45.1288 12.1019
45.1773 12.066
45.2257 12.0279
45.2739 11.9707
45.3224 11.9902
45.3706 11.9571
45.4191 11.8779
45.4673 11.838
45.5158 11.7852
45.5641 11.7297
45.6126 11.6803
45.6609 11.6617
45.7094 11.6387
45.7577 11.5868
45.8063 11.5032
45.8546 11.4926
45.9031 11.4636
45.9515 11.3935
46.0001 11.3382
46.0484 11.34
46.097 11.2855
46.1454 11.2873
46.194 11.2082
46.2424 11.1166
46.291 11.1522
46.3395 11.0985
46.3881 11.0408
46.4365 11.0318
46.4852 10.9749
46.5337 10.9677
46.5823 10.9205
46.631 10.8427
46.6795 10.7962
46.7282 10.7334
46.7767 10.6972
46.8254 10.6871
46.8739 10.6541
46.9226 10.6063
46.9712 10.5588
47.0199 10.5198
47.0685 10.4733
47.1173 10.4361
47.1658 10.3993
47.2146 10.3792
47.2632 10.3236
47.312 10.3083
47.3606 10.2614
47.4095 10.1685
47.4581 10.2207
47.5069 10.1335
47.5556 10.1104
47.6044 10.0936
47.6531 10.0426
47.702 9.97797
47.7507 9.97185
47.7996 9.91089
47.8483 9.89855
47.8972 9.85374
47.9461 9.8457
47.9948 9.74266
48.0438 9.75993
48.0925 9.70548
48.1415 9.70335
48.1902 9.65339
48.2392 9.60405
48.288 9.55998
48.337 9.53168
48.3858 9.46261
48.4348 9.49249
48.4837 9.44409
48.5327 9.44102
48.5815 9.34649
48.6306 9.36069
48.6795 9.29941
48.7285 9.27416
48.7774 9.19995
48.8265 9.19228
48.8754 9.15773
48.9245 9.11709
48.9734 9.07775
49.0226 9.06904
49.0715 9.00234
49.1206 9.01259
49.1696 8.94436
49.2188 8.92505
49.2679 8.89492
49.3169 8.86403
49.3661 8.84204
49.4151 8.76303
49.4643 8.74372
49.5134 8.68731
49.5626 8.64412
49.6117 8.64252
49.6609 8.61944
49.71 8.58129
49.7592 8.55446
49.8083 8.48363
49.8576 8.50742
49.9067 8.47672
49.956 8.42466
50.0052 8.37674
50.0545 8.33893
50.1036 8.33156
50.153 8.28181
50.2022 8.27445
50.2515 8.23957
50.3007 8.17401
50.3501 8.16221
50.3993 8.14285
50.4487 8.09067
50.498 8.08252
50.5474 8.05457
50.5966 8.02348
50.6461 7.99245
50.6955 7.94825
50.7448 7.93626
50.7943 7.89612
50.8436 7.85725
50.8931 7.81075
50.9424 7.78871
50.9919 7.78888
51.0413 7.68938
51.0908 7.68293
51.1402 7.68642
51.1897 7.62496
51.2391 7.60245
51.2887 7.6065
51.3381 7.53571
51.3877 7.57559
51.4371 7.48201
51.4867 7.4653
51.5362 7.40899
51.5858 7.39705
51.6353 7.34603
51.6849 7.33943
51.7344 7.31131
51.7841 7.29531
51.8336 7.22421
51.8833 7.20962
51.9328 7.16647
51.9826 7.15705
52.0323 7.13426
52.0818 7.08535
52.1316 7.06798
52.1812 7.04569
52.231 7.02529
52.2806 6.98935
52.3304 6.94623
52.38 6.92075
52.4298 6.88542
52.4794 6.84889
52.5293 6.83782
52.5789 6.80589
52.6288 6.80318
52.6785 6.75418
52.7284 6.73153
52.7781 6.68452
52.828 6.65304
52.8777 6.62806
52.9276 6.59128
52.9774 6.60863
53.0273 6.57691
53.0771 6.54701
53.1271 6.54015
53.1769 6.49172
53.2269 6.44251
53.2767 6.44464
53.3267 6.37388
53.3765 6.38093
53.4266 6.34356
53.4766 6.31895
53.5265 6.27975
53.5765 6.2884
53.6264 6.2291
53.6765 6.19725
53.7264 6.1621
53.7765 6.12506
53.8265 6.12826
53.8766 6.08087
53.9266 6.07049
53.9767 6.04164
54.0267 6.00901
54.0769 5.98114
54.1269 5.94739
54.1771 5.94924
54.2271 5.89358
54.2773 5.82634
54.3274 5.84764
54.3776 5.80434
54.4277 5.8035
54.478 5.76529
54.528 5.75648
54.5783 5.69293
54.6285 5.64481
54.6788 5.5935
54.7289 5.56596
54.7792 5.48748
54.8296 5.47251
54.8798 5.4066
54.9301 5.39547
54.9803 5.32246
55.0307 5.38437
55.0809 5.26733
55.1314 5.27765
55.1816 5.16792
55.232 5.1475
55.2823 5.15321
55.3328 5.08082
55.383 5.01932
55.4335 4.96145
55.4838 4.95693
55.5344 4.88182
55.5847 4.80473
55.6352 4.8504
55.6856 4.81906
55.7361 4.74089