File: XRD/Ni3Fe_FD1065.xy
TT I
1.27165 6.9201
1.31627 6.399
1.36089 6.18436
1.40551 5.87094
1.45013 6.16385
1.49476 6.01856
1.53938 5.20509
1.584 4.69692
1.62863 4.78536
1.67325 4.85258
1.71787 4.89528
1.7625 4.77766
1.80712 4.52378
1.85174 3.9432
1.89636 4.06294
1.94099 4.68648
1.98562 4.13151
2.03025 4.23587
2.07487 4.04617
2.11949 4.12336
2.16411 3.98855
2.20874 5.15629
2.25338 6.23304
2.298 5.32277
2.34263 5.52829
2.38725 5.64942
2.43188 5.75453
2.4765 6.37413
2.52115 7.02957
2.56577 8.00493
2.6104 8.13233
2.65503 8.47666
2.69965 8.49432
2.7443 8.49233
2.78893 7.90056
2.83356 8.18297
2.87818 8.25609
2.92281 8.8338
2.96744 9.97442
3.01209 9.86541
3.05672 10.8351
3.10135 12.0851
3.14599 12.4218
3.19062 13.7758
3.23527 14.5612
3.2799 14.9807
3.32454 16.0259
3.36917 17.7799
3.4138 17.7614
3.45844 18.202
3.50309 19.8292
3.54773 20.7797
3.59237 21.2374
3.637 27.5895
3.68164 26.6812
3.7263 24.1832
3.77094 24.7019
3.81558 25.126
3.86022 26.1311
3.90486 27.2242
3.9495 28.3197
3.99416 29.2813
4.0388 30.8728
4.08344 32.154
4.12809 32.2536
4.17273 33.9337
4.21738 35.3546
4.26204 52.2073
4.30669 56.7678
4.35133 40.7173
4.39598 40.9242
4.44063 43.0384
4.4853 46.349
4.52995 46.6631
4.5746 48.3105
4.61925 50.7181
4.6639 52.5877
4.70855 55.6968
4.75322 58.2612
4.79788 60.7896
4.84253 64.2086
4.88719 68.5601
4.93184 72.0495
4.97652 77.2573
5.02118 83.3856
5.06583 89.7723
5.11049 97.9869
5.15515 118.85
5.19981 231.071
5.24449 2501.96
5.28916 13629.2
5.33382 3327.04
5.37848 208.828
5.42315 124.104
5.46783 108.683
5.5125 101.138
5.55716 97.3863
5.60183 93.7276
5.6465 91.4708
5.69117 90.1734
5.73586 88.5897
5.78053 87.3471
5.8252 86.6842
5.86988 87.1762
5.91455 89.2912
5.95924 95.6842
6.00392 163.981
6.0486 890.936
6.09328 4578.47
6.13795 3630.32
6.18263 240.376
6.22733 87.2495
6.27201 76.1691
6.3167 73.3885
6.36138 68.9447
6.40606 64.9531
6.45075 63.6625
6.49545 62.0374
6.54014 60.2874
6.58483 59.1208
6.62952 57.9817
6.67421 59.0894
6.71892 64.0018
6.76361 56.7984
6.8083 54.6048
6.853 54.136
6.89769 53.7574
6.94239 53.8571
6.98711 52.8281
7.03181 52.4275
7.07651 51.8444
7.12121 51.9252
7.16591 51.7073
7.21063 51.2451
7.25533 51.8237
7.30004 61.7015
7.34475 55.6649
7.38945 51.8242
7.43416 51.3117
7.47889 51.7539
7.5236 58.8686
7.56831 72.4688
7.61303 56.7485
7.65774 53.1366
7.70247 53.3068
7.74719 53.3816
7.79191 54.1213
7.83663 54.0206
7.88135 55.0819
7.92607 55.8461
7.97081 56.7905
8.01553 57.9077
8.06026 59.1791
8.10498 60.4195
8.14971 62.396
8.19446 63.9042
8.23919 66.1996
8.28392 68.2489
8.32865 70.6257
8.37339 74.4999
8.41812 78.2352
8.46288 86.5058
8.50761 128.859
8.55235 376.395
8.59709 1106.5
8.64183 2289.4
8.68658 1107.24
8.73134 170.51
8.77609 95.1383
8.82083 88.8639
8.86558 85.7465
8.91033 83.8692
8.9551 82.5899
8.99985 81.3306
9.04461 79.941
9.08936 79.8285
9.13412 79.3891
9.17888 79.9104
9.22365 90.7751
9.26841 112.196
9.31318 88.7966
9.35794 80.3386
9.4027 80.2437
9.44749 81.1742
9.49226 81.6244
9.53703 82.7323
9.5818 83.8918
9.62657 84.6862
9.67134 86.8158
9.71614 88.3274
9.76091 89.6505
9.80569 91.951
9.85047 94.1223
9.89525 99.1998
9.94005 106.659
9.98484 147.766
10.0296 350.67
10.0744 778.698
10.1192 1786.51
10.164 1706.78
10.2088 444.796
10.2536 125.059
10.2984 103.455
10.3432 101.161
10.388 97.7822
10.4328 108.157
10.4776 162.087
10.5224 273.898
10.5672 513.023
10.612 562.974
10.6568 229.432
10.7017 103.497
10.7465 86.614
10.7913 80.4542
10.8361 78.0357
10.8809 75.7538
10.9257 73.5744
10.9706 72.5696
11.0154 71.2071
11.0602 69.5946
11.105 68.2186
11.1499 67.0296
11.1947 67.5236
11.2395 65.9004
11.2844 64.7093
11.3292 63.964
11.374 63.1084
11.4189 62.9548
11.4637 62.2085
11.5086 61.5146
11.5534 61.2593
11.5983 60.9952
11.6431 60.8069
11.688 60.2466
11.7328 60.2674
11.7777 60.0893
11.8225 60.0749
11.8674 59.8499
11.9122 62.1338
11.9571 68.0034
12.002 66.3117
12.0468 64.4863
12.0917 77.0855
12.1366 99.3
12.1814 147.061
12.2263 204.159
12.2712 176.047
12.3161 97.2578
12.3609 64.9342
12.4058 61.6248
12.4507 61.4612
12.4956 61.2572
12.5405 61.4335
12.5853 62.2264
12.6302 62.7815
12.6751 64.3852
12.72 64.3082
12.7649 64.7524
12.8098 65.4145
12.8547 66.8157
12.8996 68.1108
12.9445 69.3877
12.9894 71.4606
13.0343 73.0898
13.0792 77.0613
13.1242 82.7036
13.1691 108.024
13.214 148.88
13.2589 230.574
13.3038 370.454
13.3487 452.27
13.3937 280.322
13.4386 126.837
13.4835 99.2099
13.5285 120.38
13.5734 157.767
13.6183 237.909
13.6633 356.883
13.7082 362.094
13.7531 204.957
13.7981 100.137
13.843 79.6664
13.888 77.128
13.9329 74.8397
13.9779 73.7544
14.0228 72.3531
14.0678 71.0957
14.1127 71.699
14.1577 75.3141
14.2027 73.2705
14.2476 69.0586
14.2926 67.6828
14.3376 67.6194
14.3825 67.1144
14.4275 66.664
14.4725 66.5054
14.5175 66.9481
14.5624 66.6139
14.6074 66.8321
14.6524 67.4451
14.6974 67.6741
14.7424 68.9044
14.7874 74.4756
14.8324 89.0234
14.8774 110.924
14.9224 149.453
14.9674 209.09
15.0124 228.785
15.0574 159.342
15.1024 93.8051
15.1474 71.3763
15.1924 68.255
15.2374 66.8247
15.2824 65.8401
15.3274 64.9725
15.3725 64.5983
15.4175 64.4822
15.4625 63.7668
15.5076 63.5217
15.5526 63.7705
15.5976 63.4904
15.6426 64.0915
15.6877 68.5527
15.7327 79.9516
15.7778 95.1174
15.8228 123.163
15.8679 169.952
15.9129 202.976
15.958 169.375
16.003 104.523
16.0481 69.5026
16.0931 62.8984
16.1382 59.7166
16.1833 58.6511
16.2283 57.0225
16.2734 56.4659
16.3185 55.8147
16.3636 55.3542
16.4086 54.502
16.4537 54.1939
16.4988 53.6393
16.5439 53.5171
16.589 53.1637
16.6341 52.931
16.6792 52.9193
16.7243 53.0335
16.7694 53.0675
16.8145 52.6939
16.8596 53.0925
16.9047 53.7723
16.9498 54.1302
16.9949 53.9585
17.04 53.9447
17.0851 54.9177
17.1302 57.1433
17.1754 60.3952
17.2205 64.9299
17.2656 72.6952
17.3108 82.0753
17.3559 82.736
17.401 72.3519
17.4462 61.6445
17.4913 57.6988
17.5365 57.4276
17.5815 57.5187
17.6268 57.6247
17.6718 58.4214
17.7171 58.8054
17.7622 60.1796
17.8074 60.9643
17.8525 62.0252
17.8977 66.6572
17.9428 73.5007
17.9881 82.5111
18.0331 98.2874
18.0784 121.477
18.1237 142.606
18.1688 138.234
18.214 109.113
18.2591 88.4334
18.3044 89.1144
18.3495 99.6536
18.3948 107.83
18.4399 98.8713
18.4852 78.9344
18.5303 66.0488
18.5756 61.5846
18.6207 60.1974
18.666 59.0563
18.7112 58.2245
18.7565 57.4971
18.8016 57.2514
18.8469 56.6421
18.892 56.1424
18.9374 55.9054
18.9825 55.3874
19.0278 55.3733
19.073 55.2418
19.1183 55.392
19.1635 56.442
19.2088 58.2446
19.254 60.8486
19.2993 65.5642
19.3447 72.3418
19.3898 76.2032
19.4352 72.0568
19.4804 63.539
19.5257 56.4365
19.5709 52.9761
19.6163 52.5798
19.6615 52.3756
19.7068 51.9953
19.752 51.899
19.7974 52.1372
19.8426 52.6753
19.888 53.8712
19.9332 55.3046
19.9786 57.6566
20.0238 61.1442
20.0692 66.7168
20.1144 70.5659
20.1598 69.4091
20.205 64.1998
20.2504 61.9685
20.2957 63.699
20.3411 65.7971
20.3863 64.3574
20.4318 58.3965
20.477 52.8693
20.5224 50.2298
20.5677 49.5536
20.6131 49.1164
20.6586 48.5046
20.7038 48.2952
20.7493 48.3006
20.7945 47.9866
20.84 48.0698
20.8853 47.654
20.9307 47.3638
20.976 47.4994
21.0215 47.2699
21.0668 47.8915
21.1122 48.4727
21.1575 48.7665
21.203 49.8883
21.2483 50.7353
21.2938 50.7644
21.3391 49.319
21.3846 47.9555
21.4299 47.4271
21.4754 47.3346
21.5207 47.585
21.5662 47.7835
21.6116 47.94
21.6571 48.9279
21.7024 50.3376
21.7479 52.0896
21.7933 54.4735
21.8388 58.2198
21.8843 63.0471
21.9297 65.3739
21.9752 64.0685
22.0206 59.8374
22.0661 56.5071
22.1115 55.9458
22.157 56.1824
22.2024 54.379
22.248 51.313
22.2933 49.2432
22.3389 48.2071
22.3843 47.8101
22.4299 47.6221
22.4753 47.5641
22.5208 47.6302
22.5662 47.4912
22.6118 47.6713
22.6572 47.797
22.7028 48.4547
22.7483 49.1787
22.7939 49.9937
22.8393 51.5746
22.8849 53.3549
22.9303 55.8111
22.9759 57.8691
23.0214 57.4508
23.067 54.9532
23.1126 51.1565
23.1581 48.6651
23.2037 47.9856
23.2492 47.8513
23.2948 47.9653
23.3403 48.4748
23.3859 49.506
23.4314 50.4705
23.477 52.2235
23.5225 54.7768
23.5682 57.5425
23.6137 58.5444
23.6593 56.4579
23.7048 52.1925
23.7505 48.4435
23.796 46.1773
23.8417 45.2777
23.8872 44.7905
23.9329 44.4129
23.9784 43.9817
24.0241 43.8148
24.0697 43.5931
24.1154 43.3614
24.1609 42.9919
24.2066 42.8008
24.2522 42.7311
24.2979 42.6469
24.3434 42.5083
24.3892 42.2824
24.4349 42.2283
24.4805 41.9527
24.5262 42.1265
24.5718 42.2122
24.6175 42.3253
24.6631 42.1429
24.7089 41.8087
24.7545 41.5215
24.8002 41.3874
24.8458 41.4104
24.8916 41.3387
24.9372 41.587
24.983 41.6807
25.0286 42.143
25.0744 42.6725
25.12 43.382
25.1658 44.0336
25.2114 44.3288
25.2572 44.5473
25.3029 44.6376
25.3487 44.6628
25.3943 44.459
25.4402 43.3333
25.4858 42.1562
25.5316 40.8928
25.5773 40.306
25.6231 40.1961
25.669 39.9138
25.7147 39.8556
25.7605 39.6467
25.8062 39.9199
25.8521 39.9932
25.8977 40.1382
25.9436 40.222
25.9893 40.319
26.0352 40.899
26.0809 41.2499
26.1268 41.3085
26.1725 40.9917
26.2184 40.4692
26.2641 39.8767
26.31 39.5213
26.3557 39.5513
26.4017 39.5408
26.4474 39.8167
26.4933 40.1732
26.5391 40.6177
26.585 41.4212
26.6308 41.9584
26.6767 41.9949
26.7225 41.8651
26.7684 41.3076
26.8142 40.6441
26.8601 40.1227
26.9059 39.8496
26.9519 39.0635
26.9979 38.8228
27.0437 38.3797
27.0896 38.1184
27.1354 38.1676
27.1814 37.966
27.2272 37.9112
27.2732 37.9408
27.3191 37.7478
27.3651 37.9935
27.4109 37.8401
27.4569 38.0828
27.5027 38.124
27.5488 38.1722
27.5946 38.0187
27.6407 37.6873
27.6865 37.7096
27.7326 37.5146
27.7784 37.5417
27.8245 37.3958
27.8703 37.4939
27.9164 37.9482
27.9623 38.1585
28.0084 38.4872
28.0543 39.0512
28.1003 39.0164
28.1462 38.7624
28.1923 38.4753
28.2384 37.8846
28.2843 37.3808
28.3304 36.8687
28.3764 36.3563
28.4225 35.9664
28.4684 35.7973
28.5145 35.3981
28.5605 35.4199
28.6066 35.2584
28.6526 35.1951
28.6987 35.1343
28.7447 35.0574
28.7908 34.9318
28.8368 34.8544
28.8829 34.8776
28.9289 34.9671
28.9751 34.7616
29.0211 34.5079
29.0673 34.1636
29.1133 34.0373
29.1595 33.9311
29.2055 33.8168
29.2517 33.9005
29.2977 33.7792
29.3439 33.7414
29.3899 33.7983
29.4361 33.7256
29.4824 33.6219
29.5284 33.3427
29.5746 32.9707
29.6207 32.6713
29.6669 32.5812
29.713 32.4918
29.7593 32.3063
29.8053 32.2983
29.8516 32.255
29.8977 32.2678
29.9439 32.1523
29.99 32.0996
30.0363 31.9297
30.0824 32.0588
30.1287 32.0811
30.1748 32.0456
30.2211 32.0872
30.2673 31.8949
30.3136 31.9253
30.3597 31.8628
30.406 31.7232
30.4522 31.702
30.4985 31.6855
30.5447 31.6638
30.591 31.8073
30.6372 31.8405
30.6835 31.8909
30.7297 31.8839
30.7761 31.9286
30.8224 31.7943
30.8686 31.5383
30.915 31.3103
30.9612 31.2484
31.0076 30.8307
31.0538 30.8023
31.1002 30.7282
31.1464 30.5029
31.1928 30.639
31.2391 30.5468
31.2855 30.5125
31.3317 30.5603
31.3781 30.5482
31.4244 30.5871
31.4708 30.4745
31.5171 30.5108
31.5636 30.5485
31.6098 30.2398
31.6563 30.0607
31.7026 29.9626
31.7491 29.7704
31.7953 29.8685
31.8418 29.8089
31.8881 29.7923
31.9346 29.8291
31.9809 29.7436
32.0275 29.5843
32.074 29.5254
32.1203 29.3034
32.1668 29.1621
32.2132 29.0748
32.2597 28.9631
32.306 28.7853
32.3526 28.6854
32.399 28.6051
32.4455 28.4565
32.4919 28.3612
32.5385 28.2155
32.5848 28.0977
32.6314 28.2238
32.6778 28.0828
32.7244 27.9438
32.7708 27.7366
32.8174 27.8577
32.8638 27.6995
32.9104 27.7193
32.9569 27.6683
33.0035 27.5545
33.0499 27.4795
33.0966 27.5251
33.143 27.4752
33.1897 27.4347
33.2361 27.3229
33.2828 27.3349
33.3293 27.133
33.3759 26.9955
33.4226 26.9487
33.4691 26.7882
33.5158 26.696
33.5623 26.5601
33.609 26.363
33.6555 26.3327
33.7022 26.2246
33.7487 26.2251
33.7954 26.1901
33.842 26.0183
33.8887 26.0041
33.9353 25.8711
33.982 25.8205
34.0286 25.7582
34.0753 25.6744
34.1219 25.568
34.1687 25.4411
34.2152 25.4671
34.262 25.3289
34.3086 25.1945
34.3554 25.1266
34.402 25.079
34.4488 24.9433
34.4954 24.9105
34.5422 24.7849
34.5889 24.7045
34.6357 24.6262
34.6825 24.6232
34.7292 24.5663
34.776 24.4577
34.8227 24.3915
34.8695 24.2629
34.9162 24.3575
34.9631 24.239
35.0098 24.1875
35.0566 24.0221
35.1033 23.9662
35.1502 23.9377
35.1969 23.8618
35.2438 23.9375
35.2906 23.8771
35.3375 23.7079
35.3842 23.7454
35.4311 23.702
35.4779 23.7427
35.5248 23.6795
35.5716 23.4936
35.6185 23.4686
35.6653 23.3725
35.7123 23.2566
35.759 23.2402
35.806 23.0753
35.8528 22.9291
35.8998 22.9641
35.9468 22.8208
35.9936 22.8218
36.0406 22.7063
36.0874 22.6608
36.1345 22.6555
36.1813 22.5127
36.2283 22.473
36.2752 22.3559
36.3222 22.4144
36.3691 22.3431
36.4161 22.1608
36.463 22.1344
36.5101 22.2068
36.557 22.0641
36.6041 21.9177
36.651 21.9891
36.6981 21.8738
36.745 21.7999
36.7921 21.7414
36.839 21.6178
36.8861 21.5383
36.9331 21.4912
36.9802 21.3355
37.0272 21.3383
37.0743 21.1932
37.1213 21.1572
37.1684 21.1644
37.2154 21.1132
37.2626 20.9813
37.3098 20.9579
37.3568 20.8436
37.404 20.7799
37.451 20.7968
37.4982 20.6813
37.5452 20.5929
37.5924 20.481
37.6395 20.5262
37.6867 20.5211
37.7337 20.3199
37.781 20.2486
37.8281 20.2715
37.8753 20.1036
37.9224 20.0855
37.9697 20.0725
38.0168 19.953
38.064 19.934
38.1111 19.8491
38.1584 19.7807
38.2056 19.6654
38.2529 19.6961
38.3 19.5287
38.3473 19.6373
38.3945 19.4024
38.4418 19.3967
38.489 19.3567
38.5363 19.1968
38.5837 19.2269
38.6309 19.1356
38.6782 19.1564
38.7254 18.9893
38.7728 19.0076
38.82 18.9405
38.8674 18.9017
38.9146 18.7999
38.9621 18.7301
39.0093 18.5938
39.0567 18.6511
39.104 18.5982
39.1514 18.5017
39.1987 18.4887
39.2461 18.3871
39.2934 18.3072
39.3409 18.2363
39.3882 18.1565
39.4356 18.132
39.483 18.0547
39.5304 18.0273
39.5778 18.0085
39.6253 17.9337
39.6726 17.8502
39.7201 17.845
39.7675 17.7789
39.815 17.7083
39.8624 17.6271
39.9099 17.5948
39.9575 17.4909
40.0049 17.5053
40.0525 17.3969
40.0999 17.3484
40.1474 17.2573
40.1949 17.2397
40.2425 17.1804
40.2899 17.1433
40.3375 17.0823
40.385 17.0497
40.4326 17.0036
40.48 16.8843
40.5277 16.9191
40.5752 16.7967
40.6228 16.775
40.6703 16.7207
40.718 16.6916
40.7655 16.6674
40.8132 16.5582
40.8607 16.5469
40.9084 16.4644
40.9559 16.4503
41.0036 16.3529
41.0512 16.3398
41.0989 16.2568
41.1465 16.1711
41.1942 16.0624
41.242 16.0576
41.2896 15.9914
41.3373 15.9849
41.3849 15.9213
41.4327 15.8479
41.4803 15.7705
41.5281 15.7446
41.5758 15.7023
41.6236 15.611
41.6712 15.578
41.7191 15.5476
41.7667 15.527
41.8146 15.4763
41.8622 15.4134
41.9101 15.3449
41.9578 15.2243
42.0057 15.2657
42.0534 15.1845
42.1013 15.1588
42.149 15.0691
42.1969 15.0162
42.2446 14.9943
42.2925 14.9314
42.3403 14.9029
42.3882 14.8635
42.436 14.8298
42.4839 14.705
42.5319 14.6627
42.5797 14.6333
42.6277 14.5636
42.6755 14.5684
42.7235 14.4824
42.7713 14.4328
42.8193 14.4227
42.8671 14.3366
42.9152 14.2505
42.963 14.2156
43.0111 14.1613
43.0589 14.0952
43.107 14.1172
43.1549 14.0504
43.2029 14.0042
43.2508 13.9337
43.2989 13.85
43.3468 13.8599
43.3949 13.8347
43.4429 13.784
43.491 13.7191
43.5389 13.6977
43.5871 13.651
43.635 13.5836
43.6832 13.4755
43.7312 13.4912
43.7793 13.4116
43.8273 13.3711
43.8755 13.3377
43.9237 13.3164
43.9717 13.2035
44.0199 13.1922
44.068 13.1787
44.1162 13.0981
44.1642 13.0819
44.2125 12.9979
44.2606 12.9767
44.3088 12.922
44.3569 12.8909
44.4052 12.8842
44.4533 12.7993
44.5016 12.7442
44.5497 12.7428
44.598 12.671
44.6461 12.6162
44.6945 12.5725
44.7426 12.5332
44.791 12.4703
44.8391 12.4537
44.8875 12.3875
44.9357 12.367
44.984 12.2767
45.0322 12.2803
45.0806 12.2397
45.1288 12.1931
45.1773 12.1319
45.2257 12.1027
45.2739 12.04
45.3224 12.0432
45.3706 11.9416
45.4191 11.8731
45.4673 11.9078
45.5158 11.8067
45.5641 11.7659
45.6126 11.7321
45.6609 11.7215
45.7094 11.6577
45.7577 11.6239
45.8063 11.5946
45.8546 11.5561
45.9031 11.4734
45.9515 11.4488
46.0001 11.4041
46.0484 11.4107
46.097 11.3485
46.1454 11.3385
46.194 11.2657
46.2424 11.2465
46.291 11.1823
46.3395 11.1211
46.3881 11.0627
46.4365 11.054
46.4852 10.9899
46.5337 10.9898
46.5823 10.9487
46.631 10.8606
46.6795 10.8664
46.7282 10.8079
46.7767 10.7892
46.8254 10.7419
46.8739 10.6999
46.9226 10.6162
46.9712 10.6418
47.0199 10.579
47.0685 10.5451
47.1173 10.4991
47.1658 10.4789
47.2146 10.4131
47.2632 10.3872
47.312 10.3581
47.3606 10.2924
47.4095 10.2815
47.4581 10.2289
47.5069 10.1926
47.5556 10.152
47.6044 10.0326
47.6531 10.0965
47.702 10.0552
47.7507 9.95669
47.7996 9.94302
47.8483 9.91848
47.8972 9.89131
47.9461 9.86503
47.9948 9.82976
48.0438 9.79888
48.0925 9.77019
48.1415 9.73041
48.1902 9.72177
48.2392 9.66833
48.288 9.62362
48.337 9.58382
48.3858 9.54437
48.4348 9.5202
48.4837 9.50138
48.5327 9.45145
48.5815 9.38955
48.6306 9.37644
48.6795 9.35694
48.7285 9.27795
48.7774 9.27709
48.8265 9.23944
48.8754 9.2253
48.9245 9.14244
48.9734 9.1242
49.0226 9.09225
49.0715 9.065
49.1206 8.98291
49.1696 9.00605
49.2188 8.94648
49.2679 8.88535
49.3169 8.88035
49.3661 8.85037
49.4151 8.82938
49.4643 8.79092
49.5134 8.75236
49.5626 8.68155
49.6117 8.72068
49.6609 8.69431
49.71 8.59869
49.7592 8.57392
49.8083 8.534
49.8576 8.50787
49.9067 8.44718
49.956 8.47304
50.0052 8.40016
50.0545 8.42315
50.1036 8.3623
50.153 8.31007
50.2022 8.32623
50.2515 8.25769
50.3007 8.2104
50.3501 8.18948
50.3993 8.14549
50.4487 8.11054
50.498 8.08337
50.5474 8.0713
50.5966 7.9765
50.6461 8.00445
50.6955 7.97184
50.7448 7.99244
50.7943 7.94848
50.8436 7.86625
50.8931 7.84262
50.9424 7.81835
50.9919 7.75679
51.0413 7.74601
51.0908 7.73969
51.1402 7.71362
51.1897 7.67518
51.2391 7.67915
51.2887 7.57412
51.3381 7.59434
51.3877 7.56781
51.4371 7.54451
51.4867 7.46292
51.5362 7.45852
51.5858 7.42076
51.6353 7.4126
51.6849 7.33192
51.7344 7.2805
51.7841 7.2968
51.8336 7.27187
51.8833 7.24853
51.9328 7.18201
51.9826 7.22261
52.0323 7.16644
52.0818 7.13674
52.1316 7.05269
52.1812 7.09459
52.231 7.03083
52.2806 7.02183
52.3304 6.9858
52.38 6.96132
52.4298 6.9374
52.4794 6.86438
52.5293 6.87191
52.5789 6.81749
52.6288 6.8064
52.6785 6.77007
52.7284 6.71644
52.7781 6.7279
52.828 6.66774
52.8777 6.65936
52.9276 6.61195
52.9774 6.60498
53.0273 6.57842
53.0771 6.56868
53.1271 6.54393
53.1769 6.45129
53.2269 6.47974
53.2767 6.41803
53.3267 6.40058
53.3765 6.35148
53.4266 6.3681
53.4766 6.33615
53.5265 6.31428
53.5765 6.2588
53.6264 6.26954
53.6765 6.21836
53.7264 6.17788
53.7765 6.13809
53.8265 6.16693
53.8766 6.10717
53.9266 6.10152
53.9767 6.08652
54.0267 6.03874
54.0769 5.99714
54.1269 5.9796
54.1771 5.96813
54.2271 5.91675
54.2773 5.90457
54.3274 5.81918
54.3776 5.81288
54.4277 5.80466
54.478 5.75657
54.528 5.74272
54.5783 5.71024
54.6285 5.65484
54.6788 5.62793
54.7289 5.60773
54.7792 5.57802
54.8296 5.45901
54.8798 5.46724
54.9301 5.43787
54.9803 5.37805
55.0307 5.35224
55.0809 5.30726
55.1314 5.26542
55.1816 5.19084
55.232 5.1866
55.2823 5.16072
55.3328 5.07793
55.383 5.05101
55.4335 5.01225
55.4838 4.96194
55.5344 4.88035
55.5847 4.84553
55.6352 4.81147
55.6856 4.8419
55.7361 4.83869