File: XRD/Ni3Fe_FD0426.xy
TT I
1.27165 7.72417
1.31627 6.87573
1.36089 6.83159
1.40551 6.14243
1.45013 5.70443
1.49476 5.5068
1.53938 6.12405
1.584 5.5185
1.62863 5.33094
1.67325 5.82196
1.71787 4.60245
1.7625 4.68321
1.80712 5.25235
1.85174 4.90743
1.89636 4.37108
1.94099 4.78105
1.98562 5.17311
2.03025 4.90864
2.07487 4.08642
2.11949 5.05491
2.16411 4.87186
2.20874 18.5992
2.25338 31.8925
2.298 6.283
2.34263 4.96231
2.38725 5.19621
2.43188 5.92264
2.4765 6.30413
2.52115 6.3644
2.56577 7.08431
2.6104 7.90962
2.65503 7.23764
2.69965 7.11597
2.7443 7.92593
2.78893 8.21128
2.83356 8.03264
2.87818 8.49155
2.92281 8.94047
2.96744 9.98
3.01209 10.2801
3.05672 11.2844
3.10135 12.2934
3.14599 13.4149
3.19062 14.585
3.23527 15.1662
3.2799 16.0076
3.32454 17.1818
3.36917 17.8513
3.4138 18.6632
3.45844 19.7657
3.50309 21.1709
3.54773 22.3069
3.59237 25.5465
3.637 126.912
3.68164 77.0068
3.7263 27.6446
3.77094 26.7821
3.81558 27.6016
3.86022 28.0413
3.90486 29.8368
3.9495 30.7307
3.99416 31.4408
4.0388 32.9168
4.08344 34.8206
4.12809 36.1644
4.17273 38.7724
4.21738 46.4041
4.26204 348.466
4.30669 307.038
4.35133 52.7718
4.39598 46.0993
4.44063 58.8886
4.4853 76.0443
4.52995 52.4262
4.5746 52.9175
4.61925 54.6679
4.6639 56.2201
4.70855 58.6343
4.75322 61.7415
4.79788 65.0834
4.84253 67.4381
4.88719 72.2969
4.93184 75.833
4.97652 81.5622
5.02118 88.5173
5.06583 95.8542
5.11049 109.057
5.15515 205.838
5.19981 419.859
5.24449 2830.18
5.28916 11274.7
5.33382 3583.24
5.37848 222.409
5.42315 137.47
5.46783 118.359
5.5125 108.902
5.55716 104.8
5.60183 101.123
5.6465 98.8018
5.69117 96.1776
5.73586 94.3106
5.78053 93.2432
5.8252 92.8771
5.86988 94.0072
5.91455 96.9512
5.95924 105.922
6.00392 224.857
6.0486 977.648
6.09328 3917.39
6.13795 3640.92
6.18263 316.389
6.22733 100.888
6.27201 87.6063
6.3167 118.014
6.36138 86.996
6.40606 71.526
6.45075 69.2073
6.49545 67.2008
6.54014 65.736
6.58483 64.6934
6.62952 64.9627
6.67421 110.406
6.71892 187.617
6.76361 75.0484
6.8083 60.7202
6.853 59.352
6.89769 58.4797
6.94239 58.6755
6.98711 56.9035
7.03181 56.794
7.07651 57.4419
7.12121 56.9681
7.16591 57.3294
7.21063 57.8645
7.25533 78.1817
7.30004 243.947
7.34475 112.109
7.38945 59.0753
7.43416 56.3955
7.47889 56.4885
7.5236 56.5141
7.56831 56.8961
7.61303 59.1395
7.65774 60.1612
7.70247 57.6934
7.74719 57.2254
7.79191 58.0158
7.83663 58.4781
7.88135 59.0758
7.92607 60.188
7.97081 61.0593
8.01553 61.7998
8.06026 63.5594
8.10498 65.3359
8.14971 78.7371
8.19446 76.3393
8.23919 71.3457
8.28392 72.9324
8.32865 75.335
8.37339 79.6883
8.41812 87.9958
8.46288 128.315
8.50761 176.032
8.55235 397.298
8.59709 1053.39
8.64183 2104.38
8.68658 1135.16
8.73134 193.478
8.77609 104.154
8.82083 95.1548
8.86558 91.6744
8.91033 92.8575
8.9551 96.4487
8.99985 87.7988
9.04461 84.7102
9.08936 84.0571
9.13412 83.5713
9.17888 83.5575
9.22365 84.6904
9.26841 83.7553
9.31318 84.2644
9.35794 83.9705
9.4027 84.7071
9.44749 85.6746
9.49226 85.9205
9.53703 86.9688
9.5818 88.7594
9.62657 95.1511
9.67134 104.785
9.71614 96.3156
9.76091 95.5209
9.80569 98.1491
9.85047 102.24
9.89525 135.79
9.94005 151.888
9.98484 184.619
10.0296 348.398
10.0744 734.837
10.1192 1573.11
10.164 1763.95
10.2088 501.15
10.2536 139.627
10.2984 120.107
10.3432 123.168
10.388 108.251
10.4328 121.812
10.4776 161.334
10.5224 259.778
10.5672 474.842
10.612 528.003
10.6568 236.356
10.7017 101.765
10.7465 89.0415
10.7913 85.3638
10.8361 82.933
10.8809 80.7671
10.9257 80.6738
10.9706 82.4867
11.0154 76.9851
11.0602 74.5197
11.105 73.5762
11.1499 80.4756
11.1947 92.6808
11.2395 79.2255
11.2844 73.2885
11.3292 68.9995
11.374 67.6485
11.4189 67.2368
11.4637 66.3308
11.5086 67.3372
11.5534 72.3041
11.5983 67.9493
11.6431 65.0543
11.688 64.5224
11.7328 64.78
11.7777 64.5775
11.8225 64.116
11.8674 63.8394
11.9122 64.1964
11.9571 64.2073
12.002 65.155
12.0468 69.4503
12.0917 81.0117
12.1366 101.979
12.1814 143.02
12.2263 201.191
12.2712 186.524
12.3161 112.296
12.3609 75.4772
12.4058 66.8076
12.4507 66.1329
12.4956 66.0666
12.5405 65.8121
12.5853 67.2366
12.6302 78.3942
12.6751 87.0272
12.72 73.7416
12.7649 69.427
12.8098 69.9258
12.8547 71.2518
12.8996 72.3485
12.9445 73.6082
12.9894 75.2888
13.0343 77.1657
13.0792 80.3181
13.1242 90.0439
13.1691 115.09
13.214 148.204
13.2589 218.817
13.3038 336.366
13.3487 434.959
13.3937 302.458
13.4386 139.49
13.4835 109.374
13.5285 122.794
13.5734 155.298
13.6183 224.883
13.6633 323.391
13.7082 364.751
13.7531 219.704
13.7981 106.435
13.843 84.3766
13.888 81.4394
13.9329 78.887
13.9779 77.3632
14.0228 75.645
14.0678 74.4525
14.1127 74.1601
14.1577 74.5323
14.2027 73.1934
14.2476 71.8067
14.2926 72.574
14.3376 74.2802
14.3825 72.1289
14.4275 70.627
14.4725 70.0654
14.5175 70.2979
14.5624 70.6101
14.6074 73.5729
14.6524 74.2258
14.6974 72.2731
14.7424 73.5905
14.7874 80.2479
14.8324 90.09
14.8774 108.496
14.9224 142.976
14.9674 193.512
15.0124 224.379
15.0574 168.861
15.1024 101.331
15.1474 75.2635
15.1924 72.494
15.2374 73.9203
15.2824 72.9825
15.3274 70.3046
15.3725 68.4609
15.4175 67.9226
15.4625 67.5458
15.5076 67.8918
15.5526 67.934
15.5976 67.0111
15.6426 68.1808
15.6877 73.8493
15.7327 81.2066
15.7778 94.2227
15.8228 118.404
15.8679 156.391
15.9129 192.49
15.958 171.28
16.003 107.699
16.0481 72.0553
16.0931 67.5999
16.1382 65.5245
16.1833 62.3884
16.2283 60.5262
16.2734 59.8464
16.3185 60.823
16.3636 62.0123
16.4086 59.8647
16.4537 57.8016
16.4988 56.9557
16.5439 56.752
16.589 56.348
16.6341 56.3673
16.6792 55.8258
16.7243 56.3753
16.7694 56.3493
16.8145 56.1185
16.8596 56.8836
16.9047 59.176
16.9498 59.1435
16.9949 57.3332
17.04 57.199
17.0851 58.3404
17.1302 59.956
17.1754 62.7096
17.2205 66.5105
17.2656 72.8099
17.3108 81.3399
17.3559 84.3987
17.401 74.7279
17.4462 64.2275
17.4913 60.4738
17.5365 60.3085
17.5815 60.4917
17.6268 60.728
17.6718 61.9075
17.7171 62.3129
17.7622 62.4665
17.8074 62.9443
17.8525 65.5176
17.8977 69.5688
17.9428 75.0452
17.9881 82.059
18.0331 95.5609
18.0784 114.702
18.1237 137.506
18.1688 138.503
18.214 111.875
18.2591 89.1045
18.3044 88.7894
18.3495 97.2024
18.3948 107.48
18.4399 102.33
18.4852 82.8281
18.5303 68.5626
18.5756 63.733
18.6207 62.8939
18.666 61.9546
18.7112 61.0751
18.7565 60.2293
18.8016 59.8509
18.8469 59.1774
18.892 58.8481
18.9374 58.6471
18.9825 58.238
19.0278 58.3553
19.073 58.3612
19.1183 58.624
19.1635 59.8356
19.2088 60.8328
19.254 62.753
19.2993 66.0665
19.3447 72.0633
19.3898 77.9695
19.4352 76.0605
19.4804 66.491
19.5257 58.7985
19.5709 55.6963
19.6163 55.1527
19.6615 55.0545
19.7068 54.3016
19.752 54.3687
19.7974 54.8524
19.8426 55.7255
19.888 56.2102
19.9332 57.377
19.9786 59.3059
20.0238 61.8567
20.0692 66.3207
20.1144 70.5273
20.1598 70.8907
20.205 65.6878
20.2504 62.8024
20.2957 63.5052
20.3411 66.1898
20.3863 66.4527
20.4318 61.172
20.477 55.7752
20.5224 53.0739
20.5677 52.4319
20.6131 51.5155
20.6586 50.8339
20.7038 50.8642
20.7493 50.2006
20.7945 50.0856
20.84 49.9971
20.8853 49.7727
20.9307 49.5101
20.976 49.7327
21.0215 49.8562
21.0668 50.0642
21.1122 50.4837
21.1575 50.7265
21.203 51.5768
21.2483 52.3499
21.2938 52.8931
21.3391 51.465
21.3846 50.2472
21.4299 49.539
21.4754 49.4614
21.5207 49.6448
21.5662 49.7212
21.6116 50.1756
21.6571 50.8561
21.7024 51.9197
21.7479 53.4699
21.7933 55.5764
21.8388 58.6815
21.8843 62.3206
21.9297 65.5572
21.9752 65.6087
22.0206 61.9137
22.0661 57.8217
22.1115 56.9482
22.157 57.3279
22.2024 56.1083
22.248 53.4102
22.2933 51.3602
22.3389 50.2702
22.3843 50.3731
22.4299 50.2319
22.4753 50.247
22.5208 49.7107
22.5662 49.56
22.6118 49.6966
22.6572 49.8991
22.7028 50.2942
22.7483 50.7616
22.7939 51.2911
22.8393 52.5528
22.8849 54.2591
22.9303 55.9887
22.9759 58.2842
23.0214 58.9303
23.067 56.6814
23.1126 52.9274
23.1581 50.6723
23.2037 49.951
23.2492 49.9537
23.2948 49.8604
23.3403 50.1673
23.3859 50.6253
23.4314 51.4515
23.477 52.7789
23.5225 54.6421
23.5682 56.9735
23.6137 58.9193
23.6593 57.7903
23.7048 53.9292
23.7505 49.884
23.796 47.88
23.8417 47.1574
23.8872 46.5329
23.9329 46.2985
23.9784 45.9236
24.0241 45.5858
24.0697 45.4751
24.1154 45.1844
24.1609 45.0834
24.2066 44.9018
24.2522 44.6786
24.2979 44.429
24.3434 44.2898
24.3892 44.0992
24.4349 44.079
24.4805 43.69
24.5262 43.9528
24.5718 43.8431
24.6175 43.9938
24.6631 43.8495
24.7089 43.5034
24.7545 43.5226
24.8002 43.148
24.8458 43.225
24.8916 42.9574
24.9372 43.1434
24.983 43.2978
25.0286 43.6886
25.0744 44.0459
25.12 44.3346
25.1658 45.0167
25.2114 45.5336
25.2572 45.674
25.3029 45.4383
25.3487 45.7402
25.3943 45.7109
25.4402 44.9279
25.4858 43.7515
25.5316 42.5906
25.5773 41.982
25.6231 41.8304
25.669 41.4005
25.7147 41.4823
25.7605 41.1965
25.8062 41.399
25.8521 41.392
25.8977 41.5415
25.9436 41.6506
25.9893 41.7815
26.0352 42.2185
26.0809 42.3671
26.1268 42.7032
26.1725 42.3047
26.2184 41.911
26.2641 41.1882
26.31 40.9752
26.3557 41.055
26.4017 40.9346
26.4474 41.2631
26.4933 41.6331
26.5391 41.9639
26.585 42.2948
26.6308 42.7345
26.6767 42.8861
26.7225 42.8927
26.7684 42.5218
26.8142 41.7641
26.8601 41.3034
26.9059 41.0091
26.9519 40.4682
26.9979 40.1113
27.0437 39.7044
27.0896 39.5851
27.1354 39.5991
27.1814 39.4981
27.2272 39.4126
27.2732 39.3279
27.3191 39.261
27.3651 39.1649
27.4109 39.174
27.4569 39.2942
27.5027 39.2345
27.5488 39.1625
27.5946 39.2558
27.6407 39.0166
27.6865 38.9192
27.7326 38.6745
27.7784 38.6237
27.8245 38.581
27.8703 38.6803
27.9164 38.9138
27.9623 39.036
28.0084 39.2714
28.0543 39.7615
28.1003 39.803
28.1462 39.6192
28.1923 39.2468
28.2384 38.9594
28.2843 38.64
28.3304 38.0785
28.3764 37.704
28.4225 37.3363
28.4684 37.0304
28.5145 36.8646
28.5605 36.7087
28.6066 36.4669
28.6526 36.3746
28.6987 36.475
28.7447 36.2505
28.7908 36.1264
28.8368 36.2061
28.8829 36.1401
28.9289 36.1355
28.9751 35.9837
29.0211 35.7267
29.0673 35.4474
29.1133 35.3093
29.1595 35.2578
29.2055 35.1658
29.2517 35.0768
29.2977 34.9578
29.3439 34.9219
29.3899 34.9909
29.4361 34.8314
29.4824 34.6772
29.5284 34.5469
29.5746 34.3482
29.6207 33.8504
29.6669 33.8184
29.713 33.688
29.7593 33.728
29.8053 33.5909
29.8516 33.5521
29.8977 33.4411
29.9439 33.3811
29.99 33.1761
30.0363 33.2203
30.0824 33.3095
30.1287 33.1035
30.1748 33.0945
30.2211 33.2303
30.2673 32.921
30.3136 33.1137
30.3597 32.9372
30.406 32.8732
30.4522 32.8639
30.4985 32.6068
30.5447 32.8708
30.591 32.7436
30.6372 32.872
30.6835 32.8469
30.7297 32.9427
30.7761 32.8099
30.8224 32.6851
30.8686 32.6146
30.915 32.3591
30.9612 32.142
31.0076 31.9908
31.0538 31.7954
31.1002 31.7001
31.1464 31.7151
31.1928 31.696
31.2391 31.6328
31.2855 31.5624
31.3317 31.4443
31.3781 31.5792
31.4244 31.5019
31.4708 31.4451
31.5171 31.5136
31.5636 31.5279
31.6098 31.3193
31.6563 31.015
31.7026 30.9103
31.7491 30.7006
31.7953 30.7894
31.8418 30.7092
31.8881 30.8085
31.9346 30.684
31.9809 30.5776
32.0275 30.6083
32.074 30.5506
32.1203 30.2279
32.1668 30.2155
32.2132 30.0404
32.2597 29.9448
32.306 29.9223
32.3526 29.593
32.399 29.6177
32.4455 29.4357
32.4919 29.3425
32.5385 29.3068
32.5848 29.104
32.6314 29.1206
32.6778 29.0866
32.7244 28.9473
32.7708 28.7732
32.8174 28.8557
32.8638 28.6847
32.9104 28.7203
32.9569 28.617
33.0035 28.4188
33.0499 28.4606
33.0966 28.4263
33.143 28.395
33.1897 28.2771
33.2361 28.2727
33.2828 28.2367
33.3293 28.0313
33.3759 27.9775
33.4226 27.868
33.4691 27.7791
33.5158 27.6011
33.5623 27.5524
33.609 27.3194
33.6555 27.3619
33.7022 27.2716
33.7487 27.0944
33.7954 27.0593
33.842 26.9743
33.8887 26.9653
33.9353 26.7977
33.982 26.7631
34.0286 26.6394
34.0753 26.5598
34.1219 26.4687
34.1687 26.3717
34.2152 26.3569
34.262 26.2833
34.3086 26.2057
34.3554 26.0982
34.402 25.9775
34.4488 25.8726
34.4954 25.7789
34.5422 25.8083
34.5889 25.6182
34.6357 25.5454
34.6825 25.4014
34.7292 25.4229
34.776 25.2923
34.8227 25.1774
34.8695 25.2108
34.9162 25.162
34.9631 24.9687
35.0098 25.0618
35.0566 24.9166
35.1033 24.7711
35.1502 24.808
35.1969 24.7406
35.2438 24.6801
35.2906 24.572
35.3375 24.5885
35.3842 24.5265
35.4311 24.4293
35.4779 24.5118
35.5248 24.4314
35.5716 24.2672
35.6185 24.1832
35.6653 24.1804
35.7123 24.032
35.759 23.9457
35.806 23.9193
35.8528 23.721
35.8998 23.6579
35.9468 23.6123
35.9936 23.5761
36.0406 23.4956
36.0874 23.5083
36.1345 23.3805
36.1813 23.322
36.2283 23.2435
36.2752 23.1244
36.3222 23.1283
36.3691 23.0667
36.4161 22.9418
36.463 22.9552
36.5101 22.8723
36.557 22.8119
36.6041 22.7192
36.651 22.6726
36.6981 22.6369
36.745 22.5013
36.7921 22.4679
36.839 22.3825
36.8861 22.3101
36.9331 22.2787
36.9802 22.2067
37.0272 22.0258
37.0743 22.0254
37.1213 21.9574
37.1684 21.8178
37.2154 21.8122
37.2626 21.7453
37.3098 21.6205
37.3568 21.5722
37.404 21.5398
37.451 21.4262
37.4982 21.4433
37.5452 21.2679
37.5924 21.2611
37.6395 21.2503
37.6867 21.2077
37.7337 21.0705
37.781 21.0262
37.8281 20.9256
37.8753 20.8239
37.9224 20.8939
37.9697 20.7298
38.0168 20.6867
38.064 20.6302
38.1111 20.4891
38.1584 20.4921
38.2056 20.3774
38.2529 20.3172
38.3 20.3248
38.3473 20.2922
38.3945 20.1122
38.4418 20.1253
38.489 20.0172
38.5363 19.9687
38.5837 19.9008
38.6309 19.8666
38.6782 19.821
38.7254 19.7366
38.7728 19.655
38.82 19.5752
38.8674 19.5805
38.9146 19.4136
38.9621 19.3273
39.0093 19.315
39.0567 19.3616
39.104 19.1928
39.1514 19.1157
39.1987 19.0639
39.2461 19.0787
39.2934 18.9687
39.3409 18.9111
39.3882 18.8267
39.4356 18.7955
39.483 18.6887
39.5304 18.686
39.5778 18.734
39.6253 18.6061
39.6726 18.5093
39.7201 18.4751
39.7675 18.396
39.815 18.3946
39.8624 18.3194
39.9099 18.209
39.9575 18.0839
40.0049 18.14
40.0525 18.0332
40.0999 18.0684
40.1474 17.9432
40.1949 17.8692
40.2425 17.7939
40.2899 17.7508
40.3375 17.7009
40.385 17.6142
40.4326 17.56
40.48 17.4996
40.5277 17.4987
40.5752 17.4931
40.6228 17.3506
40.6703 17.2689
40.718 17.247
40.7655 17.1842
40.8132 17.1246
40.8607 17.0596
40.9084 17.0653
40.9559 16.9896
41.0036 16.9532
41.0512 16.8977
41.0989 16.8779
41.1465 16.6984
41.1942 16.7169
41.242 16.5955
41.2896 16.6103
41.3373 16.4798
41.3849 16.4567
41.4327 16.4125
41.4803 16.3397
41.5281 16.309
41.5758 16.264
41.6236 16.2123
41.6712 16.1222
41.7191 16.0831
41.7667 16.0564
41.8146 15.9693
41.8622 15.9121
41.9101 15.9006
41.9578 15.7956
42.0057 15.8093
42.0534 15.6868
42.1013 15.6727
42.149 15.5995
42.1969 15.5405
42.2446 15.5786
42.2925 15.4565
42.3403 15.3865
42.3882 15.3543
42.436 15.3209
42.4839 15.2976
42.5319 15.2716
42.5797 15.1729
42.6277 15.0912
42.6755 15.1027
42.7235 14.9886
42.7713 14.9212
42.8193 14.8802
42.8671 14.856
42.9152 14.8159
42.963 14.7615
43.0111 14.7251
43.0589 14.6689
43.107 14.5542
43.1549 14.5107
43.2029 14.507
43.2508 14.4597
43.2989 14.338
43.3468 14.3726
43.3949 14.2916
43.4429 14.2324
43.491 14.2676
43.5389 14.1474
43.5871 14.1396
43.635 14.0512
43.6832 14.0129
43.7312 13.959
43.7793 13.8911
43.8273 13.8832
43.8755 13.7818
43.9237 13.7492
43.9717 13.6805
44.0199 13.6382
44.068 13.5956
44.1162 13.5727
44.1642 13.5706
44.2125 13.4556
44.2606 13.4584
44.3088 13.3736
44.3569 13.3713
44.4052 13.2913
44.4533 13.2395
44.5016 13.1851
44.5497 13.1233
44.598 13.1855
44.6461 13.118
44.6945 12.9861
44.7426 12.9691
44.791 12.9216
44.8391 12.9335
44.8875 12.8269
44.9357 12.7837
44.984 12.7259
45.0322 12.695
45.0806 12.627
45.1288 12.61
45.1773 12.5588
45.2257 12.5251
45.2739 12.4508
45.3224 12.4672
45.3706 12.4164
45.4191 12.2805
45.4673 12.3245
45.5158 12.3085
45.5641 12.2374
45.6126 12.1593
45.6609 12.1377
45.7094 12.0778
45.7577 12.0505
45.8063 11.9578
45.8546 11.9816
45.9031 11.9247
45.9515 11.8262
46.0001 11.8138
46.0484 11.8304
46.097 11.7164
46.1454 11.7142
46.194 11.6522
46.2424 11.6197
46.291 11.5713
46.3395 11.5467
46.3881 11.4863
46.4365 11.4595
46.4852 11.4113
46.5337 11.327
46.5823 11.3633
46.631 11.2673
46.6795 11.2299
46.7282 11.1882
46.7767 11.1654
46.8254 11.088
46.8739 11.0421
46.9226 11.04
46.9712 10.9701
47.0199 10.9218
47.0685 10.9245
47.1173 10.8452
47.1658 10.825
47.2146 10.8065
47.2632 10.7397
47.312 10.7483
47.3606 10.6691
47.4095 10.5898
47.4581 10.5923
47.5069 10.517
47.5556 10.485
47.6044 10.491
47.6531 10.4792
47.702 10.3414
47.7507 10.3876
47.7996 10.323
47.8483 10.2769
47.8972 10.2482
47.9461 10.1993
47.9948 10.1395
48.0438 10.1394
48.0925 10.0822
48.1415 10.0501
48.1902 10.0219
48.2392 10.0079
48.288 9.97569
48.337 9.93774
48.3858 9.86843
48.4348 9.86851
48.4837 9.81339
48.5327 9.76968
48.5815 9.74756
48.6306 9.721
48.6795 9.69112
48.7285 9.60758
48.7774 9.62843
48.8265 9.59325
48.8754 9.51312
48.9245 9.50102
48.9734 9.44431
49.0226 9.43084
49.0715 9.43399
49.1206 9.3926
49.1696 9.31065
49.2188 9.3069
49.2679 9.23358
49.3169 9.23277
49.3661 9.14094
49.4151 9.15168
49.4643 9.08843
49.5134 9.07068
49.5626 9.00542
49.6117 9.02993
49.6609 8.97152
49.71 8.92894
49.7592 8.90729
49.8083 8.84637
49.8576 8.82977
49.9067 8.74975
49.956 8.76831
50.0052 8.72168
50.0545 8.66947
50.1036 8.65325
50.153 8.62927
50.2022 8.62399
50.2515 8.55769
50.3007 8.52626
50.3501 8.47564
50.3993 8.46459
50.4487 8.45572
50.498 8.41828
50.5474 8.36344
50.5966 8.31771
50.6461 8.31664
50.6955 8.28389
50.7448 8.23724
50.7943 8.22324
50.8436 8.18838
50.8931 8.11894
50.9424 8.0823
50.9919 8.07295
51.0413 8.02496
51.0908 8.04097
51.1402 8.00049
51.1897 7.90748
51.2391 7.902
51.2887 7.91458
51.3381 7.86089
51.3877 7.86135
51.4371 7.75898
51.4867 7.76703
51.5362 7.70903
51.5858 7.68006
51.6353 7.66975
51.6849 7.64341
51.7344 7.61332
51.7841 7.60907
51.8336 7.52595
51.8833 7.51256
51.9328 7.45982
51.9826 7.44143
52.0323 7.41803
52.0818 7.38639
52.1316 7.32819
52.1812 7.34132
52.231 7.29356
52.2806 7.26133
52.3304 7.20947
52.38 7.19278
52.4298 7.13356
52.4794 7.14857
52.5293 7.04895
52.5789 7.07688
52.6288 7.07127
52.6785 7.0203
52.7284 6.97319
52.7781 7.01285
52.828 6.92786
52.8777 6.87173
52.9276 6.89436
52.9774 6.84837
53.0273 6.84017
53.0771 6.77137
53.1271 6.7868
53.1769 6.71248
53.2269 6.74723
53.2767 6.66062
53.3267 6.64263
53.3765 6.63587
53.4266 6.6015
53.4766 6.59691
53.5265 6.52275
53.5765 6.51818
53.6264 6.4609
53.6765 6.48814
53.7264 6.42248
53.7765 6.39919
53.8265 6.35886
53.8766 6.3449
53.9266 6.27902
53.9767 6.30199
54.0267 6.29835
54.0769 6.27798
54.1269 6.2172
54.1771 6.18337
54.2271 6.1478
54.2773 6.10438
54.3274 6.0703
54.3776 6.01067
54.4277 6.00015
54.478 5.98829
54.528 5.96002
54.5783 5.939
54.6285 5.84728
54.6788 5.81712
54.7289 5.82596
54.7792 5.70873
54.8296 5.69725
54.8798 5.66786
54.9301 5.59199
54.9803 5.54481
55.0307 5.57903
55.0809 5.46285
55.1314 5.51033
55.1816 5.40784
55.232 5.35531
55.2823 5.32141
55.3328 5.23602
55.383 5.21548
55.4335 5.19968
55.4838 5.14595
55.5344 5.13322
55.5847 5.04642
55.6352 5.01924
55.6856 4.97053
55.7361 4.90439