File: XRD/Ni3Fe_FD0320.xy
TT I
1.27165 7.67996
1.31627 6.84173
1.36089 6.79936
1.40551 6.69775
1.45013 6.11943
1.49476 5.61592
1.53938 5.79718
1.584 5.45868
1.62863 5.41134
1.67325 5.25807
1.71787 5.48859
1.7625 4.60434
1.80712 5.3188
1.85174 4.70379
1.89636 4.76852
1.94099 4.76105
1.98562 4.94436
2.03025 4.59994
2.07487 4.51172
2.11949 4.78232
2.16411 4.58566
2.20874 14.0457
2.25338 22.196
2.298 5.59818
2.34263 5.06277
2.38725 4.86726
2.43188 5.42076
2.4765 5.81801
2.52115 5.58295
2.56577 6.14289
2.6104 7.03692
2.65503 6.19399
2.69965 7.26994
2.7443 7.20212
2.78893 7.48665
2.83356 7.86854
2.87818 8.71528
2.92281 8.63592
2.96744 9.39759
3.01209 10.4452
3.05672 11.0491
3.10135 12.316
3.14599 12.7555
3.19062 14.6499
3.23527 14.8064
3.2799 16.4183
3.32454 16.8682
3.36917 18.2333
3.4138 19.4013
3.45844 19.9305
3.50309 21.1116
3.54773 21.8274
3.59237 24.4421
3.637 91.5928
3.68164 58.0687
3.7263 26.4926
3.77094 26.3783
3.81558 26.9686
3.86022 27.9203
3.90486 29.4508
3.9495 30.0554
3.99416 31.0817
4.0388 32.9075
4.08344 33.8804
4.12809 35.4759
4.17273 38.0493
4.21738 43.9405
4.26204 244.612
4.30669 215.009
4.35133 49.132
4.39598 45.5237
4.44063 54.4391
4.4853 66.6091
4.52995 53.202
4.5746 52.9205
4.61925 54.6167
4.6639 56.5144
4.70855 59.7012
4.75322 62.8464
4.79788 65.696
4.84253 69.2726
4.88719 74.0084
4.93184 77.6925
4.97652 84.2445
5.02118 91.4553
5.06583 99.6757
5.11049 114.799
5.15515 192.345
5.19981 519.995
5.24449 3357.84
5.28916 11340.7
5.33382 3701.55
5.37848 232.499
5.42315 140.265
5.46783 121.228
5.5125 110.856
5.55716 106.202
5.60183 102.194
5.6465 100.166
5.69117 97.9973
5.73586 95.7036
5.78053 96.1926
5.8252 95.8942
5.86988 97.0913
5.91455 101.208
5.95924 113.216
6.00392 273.771
6.0486 1158.91
6.09328 3967.61
6.13795 3578.88
6.18263 307.206
6.22733 102.021
6.27201 86.902
6.3167 104.88
6.36138 82.7325
6.40606 71.8982
6.45075 69.3076
6.49545 67.2331
6.54014 65.622
6.58483 64.8066
6.62952 64.58
6.67421 93.8397
6.71892 144.752
6.76361 70.317
6.8083 60.5299
6.853 59.3172
6.89769 58.2399
6.94239 58.158
6.98711 57.4233
7.03181 57.246
7.07651 56.9721
7.12121 56.4181
7.16591 56.9728
7.21063 57.2489
7.25533 70.5976
7.30004 178.879
7.34475 92.9821
7.38945 58.2515
7.43416 55.742
7.47889 55.6886
7.5236 56.043
7.56831 56.701
7.61303 58.5195
7.65774 59.0469
7.70247 58.0247
7.74719 57.9177
7.79191 57.8712
7.83663 58.2597
7.88135 59.6409
7.92607 60.308
7.97081 61.5154
8.01553 62.5746
8.06026 64.1144
8.10498 65.9701
8.14971 75.1318
8.19446 74.4071
8.23919 71.5452
8.28392 74.2413
8.32865 76.2915
8.37339 81.1166
8.41812 88.7377
8.46288 119.966
8.50761 198.714
8.55235 455.533
8.59709 1115.83
8.64183 2091.41
8.68658 1125.6
8.73134 194.825
8.77609 105.071
8.82083 96.5828
8.86558 93.0476
8.91033 92.4066
8.9551 94.2037
8.99985 87.7407
9.04461 85.8701
9.08936 85.0904
9.13412 84.2181
9.17888 84.4881
9.22365 85.1995
9.26841 84.1694
9.31318 85.4979
9.35794 85.4354
9.4027 85.5127
9.44749 86.5861
9.49226 87.1223
9.53703 87.7825
9.5818 90.4236
9.62657 94.668
9.67134 101.355
9.71614 96.4265
9.76091 96.9805
9.80569 99.8779
9.85047 103.352
9.89525 127.691
9.94005 143.754
9.98484 208.187
10.0296 401.603
10.0744 810.836
10.1192 1604.95
10.164 1735.69
10.2088 498.249
10.2536 140.086
10.2984 118.227
10.3432 118.682
10.388 109.163
10.4328 129.077
10.4776 176.254
10.5224 280.358
10.5672 474.998
10.612 526.233
10.6568 226.487
10.7017 101.482
10.7465 89.5361
10.7913 85.5404
10.8361 83.2776
10.8809 81.4437
10.9257 80.5747
10.9706 81.4488
11.0154 77.0671
11.0602 74.8576
11.105 73.9168
11.1499 77.6461
11.1947 85.2652
11.2395 76.4348
11.2844 72.4131
11.3292 69.2198
11.374 68.0075
11.4189 67.6192
11.4637 66.5515
11.5086 66.9302
11.5534 69.9043
11.5983 67.3309
11.6431 65.7451
11.688 64.9697
11.7328 64.6893
11.7777 64.6526
11.8225 64.3471
11.8674 64.4565
11.9122 64.6291
11.9571 64.7394
12.002 65.7065
12.0468 71.5057
12.0917 84.6054
12.1366 106.332
12.1814 148.3
12.2263 201.61
12.2712 181.185
12.3161 103.976
12.3609 73.1587
12.4058 66.6302
12.4507 66.0916
12.4956 66.2613
12.5405 66.4255
12.5853 67.3302
12.6302 74.8556
12.6751 81.0374
12.72 71.9817
12.7649 70.1115
12.8098 70.533
12.8547 71.7664
12.8996 73.1894
12.9445 74.3684
12.9894 76.4331
13.0343 78.0388
13.0792 81.5196
13.1242 94.4213
13.1691 122.968
13.214 160.005
13.2589 235.185
13.3038 348.366
13.3487 433.965
13.3937 293.367
13.4386 135.659
13.4835 114.123
13.5285 131.366
13.5734 165.628
13.6183 235.581
13.6633 327.957
13.7082 352.009
13.7531 210.648
13.7981 104.548
13.843 84.6617
13.888 82.1327
13.9329 79.3236
13.9779 78.1062
14.0228 76.6789
14.0678 75.1281
14.1127 74.4045
14.1577 74.7379
14.2027 73.5994
14.2476 72.1987
14.2926 72.8005
14.3376 73.9106
14.3825 72.5736
14.4275 70.8686
14.4725 70.6419
14.5175 71.0228
14.5624 71.1502
14.6074 73.3627
14.6524 73.8498
14.6974 72.6728
14.7424 74.9384
14.7874 83.7742
14.8324 95.4517
14.8774 115.229
14.9224 149.939
14.9674 197.683
15.0124 222.048
15.0574 160.811
15.1024 96.5126
15.1474 75.0687
15.1924 72.8121
15.2374 73.1644
15.2824 72.4428
15.3274 70.3338
15.3725 68.9668
15.4175 68.3905
15.4625 67.9112
15.5076 68.1614
15.5526 68.2291
15.5976 68.0204
15.6426 69.6157
15.6877 76.5173
15.7327 85.4159
15.7778 99.5047
15.8228 124.535
15.8679 161.804
15.9129 195.23
15.958 169.959
16.003 106.317
16.0481 70.9
16.0931 66.9685
16.1382 64.7931
16.1833 62.5936
16.2283 60.5745
16.2734 60.1851
16.3185 60.4121
16.3636 61.1451
16.4086 59.583
16.4537 57.9323
16.4988 57.1674
16.5439 57.1619
16.589 56.8242
16.6341 56.7084
16.6792 56.2355
16.7243 56.7047
16.7694 56.6224
16.8145 56.5572
16.8596 56.9402
16.9047 58.4745
16.9498 58.7108
16.9949 57.4218
17.04 57.6647
17.0851 59.1937
17.1302 61.1575
17.1754 63.979
17.2205 68.6355
17.2656 74.3414
17.3108 82.7095
17.3559 84.2515
17.401 74.7213
17.4462 64.8387
17.4913 61.0992
17.5365 61.0293
17.5815 61.1045
17.6268 61.3114
17.6718 62.3371
17.7171 62.6748
17.7622 63.2023
17.8074 63.898
17.8525 66.8042
17.8977 71.8067
17.9428 77.863
17.9881 85.9127
18.0331 99.9236
18.0784 118.274
18.1237 139.394
18.1688 139.378
18.214 112.554
18.2591 90.984
18.3044 90.9321
18.3495 98.913
18.3948 107.319
18.4399 100.806
18.4852 81.5409
18.5303 68.5814
18.5756 64.2284
18.6207 63.2657
18.666 62.2388
18.7112 61.6218
18.7565 60.8275
18.8016 60.5019
18.8469 59.8602
18.892 59.5725
18.9374 59.0478
18.9825 58.8079
19.0278 58.5701
19.073 59.0858
19.1183 59.5187
19.1635 60.4014
19.2088 61.9272
19.254 63.7868
19.2993 67.4797
19.3447 72.5363
19.3898 78.0148
19.4352 75.659
19.4804 66.3594
19.5257 58.9951
19.5709 56.0198
19.6163 55.6307
19.6615 55.2357
19.7068 55.1208
19.752 54.9549
19.7974 55.4547
19.8426 56.5551
19.888 57.234
19.9332 58.1075
19.9786 60.5119
20.0238 63.4615
20.0692 67.7744
20.1144 71.1263
20.1598 71.2063
20.205 66.2016
20.2504 63.6962
20.2957 64.5136
20.3411 66.7923
20.3863 66.5173
20.4318 60.9773
20.477 55.9229
20.5224 53.424
20.5677 52.697
20.6131 51.8528
20.6586 51.297
20.7038 51.083
20.7493 50.6956
20.7945 50.4686
20.84 50.3769
20.8853 50.195
20.9307 50.1837
20.976 50.2435
21.0215 50.2189
21.0668 50.5832
21.1122 51.0364
21.1575 51.4162
21.203 52.1033
21.2483 52.8307
21.2938 53.3428
21.3391 52.0137
21.3846 50.7032
21.4299 49.9409
21.4754 50.1209
21.5207 50.1319
21.5662 50.2924
21.6116 50.9961
21.6571 51.6531
21.7024 52.8405
21.7479 54.3918
21.7933 56.8164
21.8388 59.9352
21.8843 63.5297
21.9297 66.4377
21.9752 65.9253
22.0206 62.0054
22.0661 58.3844
22.1115 57.4345
22.157 57.7138
22.2024 56.3412
22.248 53.5627
22.2933 51.6556
22.3389 50.5976
22.3843 50.6177
22.4299 50.4148
22.4753 50.4791
22.5208 50.1571
22.5662 49.993
22.6118 50.245
22.6572 50.4382
22.7028 50.9372
22.7483 51.5676
22.7939 52.0814
22.8393 53.5009
22.8849 55.1871
22.9303 57.1236
22.9759 59.0783
23.0214 59.275
23.067 56.9475
23.1126 53.131
23.1581 50.9266
23.2037 50.3315
23.2492 50.482
23.2948 50.7253
23.3403 50.8792
23.3859 51.3589
23.4314 52.3647
23.477 53.798
23.5225 55.583
23.5682 57.8256
23.6137 59.4198
23.6593 58.0763
23.7048 54.0798
23.7505 50.2434
23.796 48.2545
23.8417 47.6166
23.8872 46.9698
23.9329 46.7116
23.9784 46.4219
24.0241 46.1543
24.0697 45.7571
24.1154 45.5132
24.1609 45.2804
24.2066 45.3206
24.2522 45.1106
24.2979 44.9114
24.3434 44.7812
24.3892 44.495
24.4349 44.413
24.4805 44.311
24.5262 44.4818
24.5718 44.4204
24.6175 44.2886
24.6631 44.2891
24.7089 43.885
24.7545 43.7876
24.8002 43.5753
24.8458 43.517
24.8916 43.3961
24.9372 43.5019
24.983 43.7766
25.0286 44.3133
25.0744 44.621
25.12 45.0258
25.1658 45.5955
25.2114 46.0511
25.2572 46.0884
25.3029 45.941
25.3487 46.1238
25.3943 46.2146
25.4402 45.1614
25.4858 43.9906
25.5316 42.9725
25.5773 42.1648
25.6231 42.2629
25.669 41.9098
25.7147 41.813
25.7605 41.7576
25.8062 41.8588
25.8521 42.0252
25.8977 41.7914
25.9436 42.1496
25.9893 42.0556
26.0352 42.5739
26.0809 42.7499
26.1268 42.988
26.1725 42.8315
26.2184 42.1953
26.2641 41.5777
26.31 41.4836
26.3557 41.4827
26.4017 41.4496
26.4474 41.731
26.4933 42.0674
26.5391 42.4977
26.585 42.7529
26.6308 43.1917
26.6767 43.3858
26.7225 43.3913
26.7684 42.8319
26.8142 42.0973
26.8601 41.6073
26.9059 41.369
26.9519 40.8566
26.9979 40.3472
27.0437 40.0798
27.0896 40.028
27.1354 40.008
27.1814 39.7482
27.2272 39.7645
27.2732 39.8324
27.3191 39.5931
27.3651 39.6171
27.4109 39.5437
27.4569 39.5723
27.5027 39.6036
27.5488 39.6933
27.5946 39.6158
27.6407 39.4548
27.6865 39.2536
27.7326 39.0763
27.7784 39.0804
27.8245 38.9965
27.8703 39.1958
27.9164 39.3461
27.9623 39.54
28.0084 39.8103
28.0543 40.3057
28.1003 40.2323
28.1462 40.0488
28.1923 39.6692
28.2384 39.226
28.2843 38.8544
28.3304 38.4066
28.3764 37.92
28.4225 37.6081
28.4684 37.3688
28.5145 37.1693
28.5605 37.0234
28.6066 36.7984
28.6526 36.7854
28.6987 36.706
28.7447 36.5411
28.7908 36.526
28.8368 36.5084
28.8829 36.4892
28.9289 36.4733
28.9751 36.2563
29.0211 35.9939
29.0673 35.8428
29.1133 35.6552
29.1595 35.4708
29.2055 35.4186
29.2517 35.3285
29.2977 35.298
29.3439 35.3065
29.3899 35.2796
29.4361 35.2608
29.4824 35.0655
29.5284 34.8266
29.5746 34.518
29.6207 34.2448
29.6669 34.131
29.713 34.0141
29.7593 33.859
29.8053 33.8927
29.8516 33.9047
29.8977 33.8766
29.9439 33.6423
29.99 33.5634
30.0363 33.4321
30.0824 33.4799
30.1287 33.4582
30.1748 33.4397
30.2211 33.3728
30.2673 33.2253
30.3136 33.4458
30.3597 33.2813
30.406 33.1976
30.4522 33.0891
30.4985 33.0719
30.5447 33.0953
30.591 33.1402
30.6372 33.1932
30.6835 33.1624
30.7297 33.277
30.7761 33.2244
30.8224 32.9448
30.8686 32.7721
30.915 32.6001
30.9612 32.5337
31.0076 32.3449
31.0538 32.1244
31.1002 32.1635
31.1464 31.9023
31.1928 31.8991
31.2391 31.9896
31.2855 31.8606
31.3317 31.8083
31.3781 31.9784
31.4244 31.771
31.4708 31.8298
31.5171 31.8
31.5636 31.7312
31.6098 31.575
31.6563 31.2692
31.7026 31.2029
31.7491 30.9964
31.7953 31.1053
31.8418 30.9939
31.8881 31.0372
31.9346 31.0203
31.9809 31.0101
32.0275 30.8364
32.074 30.7773
32.1203 30.596
32.1668 30.4723
32.2132 30.2995
32.2597 30.1668
32.306 30.1346
32.3526 29.8721
32.399 29.7962
32.4455 29.691
32.4919 29.6025
32.5385 29.604
32.5848 29.4209
32.6314 29.4236
32.6778 29.3626
32.7244 29.0804
32.7708 29.0575
32.8174 29.05
32.8638 28.8284
32.9104 28.937
32.9569 28.8118
33.0035 28.802
33.0499 28.7658
33.0966 28.7509
33.143 28.7195
33.1897 28.5786
33.2361 28.4188
33.2828 28.4639
33.3293 28.2932
33.3759 28.1658
33.4226 28.1136
33.4691 27.9954
33.5158 27.8923
33.5623 27.757
33.609 27.5774
33.6555 27.4862
33.7022 27.4703
33.7487 27.333
33.7954 27.3611
33.842 27.1802
33.8887 27.0968
33.9353 27.1432
33.982 26.9937
34.0286 26.9412
34.0753 26.7363
34.1219 26.6389
34.1687 26.6014
34.2152 26.4848
34.262 26.413
34.3086 26.3602
34.3554 26.4245
34.402 26.1969
34.4488 26.0479
34.4954 26.0806
34.5422 25.9138
34.5889 25.9055
34.6357 25.6612
34.6825 25.6751
34.7292 25.5827
34.776 25.5112
34.8227 25.4968
34.8695 25.3904
34.9162 25.4263
34.9631 25.2774
35.0098 25.2286
35.0566 25.0757
35.1033 25.0261
35.1502 25.0422
35.1969 24.9831
35.2438 24.881
35.2906 24.8987
35.3375 24.8066
35.3842 24.7197
35.4311 24.7304
35.4779 24.7174
35.5248 24.6045
35.5716 24.5825
35.6185 24.4312
35.6653 24.3262
35.7123 24.3008
35.759 24.1744
35.806 24.0961
35.8528 23.9955
35.8998 23.8961
35.9468 23.7769
35.9936 23.79
36.0406 23.707
36.0874 23.6762
36.1345 23.606
36.1813 23.4769
36.2283 23.397
36.2752 23.3328
36.3222 23.3806
36.3691 23.2925
36.4161 23.0919
36.463 23.0613
36.5101 23.1104
36.557 22.9882
36.6041 22.8657
36.651 22.8397
36.6981 22.8518
36.745 22.7046
36.7921 22.6863
36.839 22.5884
36.8861 22.4183
36.9331 22.4571
36.9802 22.3007
37.0272 22.2512
37.0743 22.2382
37.1213 22.0895
37.1684 22.1004
37.2154 21.9755
37.2626 21.8698
37.3098 21.8412
37.3568 21.7802
37.404 21.6951
37.451 21.6728
37.4982 21.598
37.5452 21.4462
37.5924 21.4488
37.6395 21.4602
37.6867 21.368
37.7337 21.2653
37.781 21.1739
37.8281 21.1324
37.8753 21.0224
37.9224 20.9776
37.9697 20.9723
38.0168 20.8349
38.064 20.7627
38.1111 20.7298
38.1584 20.66
38.2056 20.5716
38.2529 20.4615
38.3 20.3956
38.3473 20.3879
38.3945 20.3103
38.4418 20.3125
38.489 20.2528
38.5363 20.1157
38.5837 20.0351
38.6309 19.9823
38.6782 19.9537
38.7254 19.8512
38.7728 19.8122
38.82 19.761
38.8674 19.7068
38.9146 19.6405
38.9621 19.5353
39.0093 19.5052
39.0567 19.4587
39.104 19.3389
39.1514 19.3089
39.1987 19.2485
39.2461 19.1652
39.2934 19.1419
39.3409 18.9754
39.3882 18.9634
39.4356 18.9518
39.483 18.8556
39.5304 18.8127
39.5778 18.7463
39.6253 18.7308
39.6726 18.6906
39.7201 18.6191
39.7675 18.5644
39.815 18.5492
39.8624 18.4066
39.9099 18.3594
39.9575 18.2876
40.0049 18.261
40.0525 18.1247
40.0999 18.1794
40.1474 18.1061
40.1949 17.9715
40.2425 17.8899
40.2899 17.8691
40.3375 17.8284
40.385 17.766
40.4326 17.7026
40.48 17.6891
40.5277 17.6503
40.5752 17.5163
40.6228 17.4689
40.6703 17.4312
40.718 17.4361
40.7655 17.3602
40.8132 17.2327
40.8607 17.21
40.9084 17.1636
40.9559 17.1055
41.0036 17.063
41.0512 17.0183
41.0989 16.9555
41.1465 16.942
41.1942 16.8872
41.242 16.763
41.2896 16.7349
41.3373 16.6636
41.3849 16.6097
41.4327 16.5559
41.4803 16.4731
41.5281 16.4819
41.5758 16.3737
41.6236 16.2886
41.6712 16.2556
41.7191 16.2208
41.7667 16.1693
41.8146 16.115
41.8622 16.0534
41.9101 16.0261
41.9578 15.8947
42.0057 15.8882
42.0534 15.8603
42.1013 15.8138
42.149 15.7569
42.1969 15.707
42.2446 15.5861
42.2925 15.6259
42.3403 15.5081
42.3882 15.4916
42.436 15.4811
42.4839 15.3254
42.5319 15.2998
42.5797 15.3233
42.6277 15.2284
42.6755 15.1993
42.7235 15.1088
42.7713 15.0493
42.8193 15.047
42.8671 14.9856
42.9152 14.9588
42.963 14.8191
43.0111 14.8032
43.0589 14.7712
43.107 14.6749
43.1549 14.7071
43.2029 14.6062
43.2508 14.5657
43.2989 14.5
43.3468 14.4307
43.3949 14.4177
43.4429 14.3453
43.491 14.3277
43.5389 14.2837
43.5871 14.2716
43.635 14.2071
43.6832 14.0822
43.7312 14.0467
43.7793 14.0175
43.8273 13.9999
43.8755 13.8878
43.9237 13.8911
43.9717 13.8107
44.0199 13.8
44.068 13.7788
44.1162 13.633
44.1642 13.6291
44.2125 13.5914
44.2606 13.5153
44.3088 13.5306
44.3569 13.4714
44.4052 13.4336
44.4533 13.3053
44.5016 13.269
44.5497 13.2508
44.598 13.2309
44.6461 13.1333
44.6945 13.1338
44.7426 13.0907
44.791 13.0002
44.8391 13.0104
44.8875 12.9819
44.9357 12.8666
44.984 12.8209
45.0322 12.8144
45.0806 12.712
45.1288 12.7484
45.1773 12.6807
45.2257 12.6232
45.2739 12.566
45.3224 12.5022
45.3706 12.4712
45.4191 12.4198
45.4673 12.3811
45.5158 12.3567
45.5641 12.2888
45.6126 12.2647
45.6609 12.2341
45.7094 12.152
45.7577 12.1534
45.8063 12.0712
45.8546 12.0481
45.9031 11.9952
45.9515 11.9867
46.0001 11.8987
46.0484 11.8462
46.097 11.842
46.1454 11.7906
46.194 11.7814
46.2424 11.7133
46.291 11.6652
46.3395 11.6189
46.3881 11.6134
46.4365 11.5789
46.4852 11.5036
46.5337 11.475
46.5823 11.4407
46.631 11.373
46.6795 11.3198
46.7282 11.3261
46.7767 11.2406
46.8254 11.212
46.8739 11.1756
46.9226 11.1356
46.9712 11.1191
47.0199 11.0401
47.0685 10.9868
47.1173 10.9662
47.1658 10.8849
47.2146 10.8746
47.2632 10.8334
47.312 10.83
47.3606 10.774
47.4095 10.7096
47.4581 10.7115
47.5069 10.5673
47.5556 10.5859
47.6044 10.5952
47.6531 10.5328
47.702 10.4521
47.7507 10.434
47.7996 10.3695
47.8483 10.3691
47.8972 10.3129
47.9461 10.2768
47.9948 10.2413
48.0438 10.2425
48.0925 10.1823
48.1415 10.1559
48.1902 10.0835
48.2392 10.1045
48.288 10.0446
48.337 10.0228
48.3858 9.96159
48.4348 9.95194
48.4837 9.94744
48.5327 9.86646
48.5815 9.82553
48.6306 9.79148
48.6795 9.72095
48.7285 9.7188
48.7774 9.64254
48.8265 9.65595
48.8754 9.5959
48.9245 9.55651
48.9734 9.51452
49.0226 9.51182
49.0715 9.47289
49.1206 9.39967
49.1696 9.38384
49.2188 9.34387
49.2679 9.29368
49.3169 9.28699
49.3661 9.23097
49.4151 9.20246
49.4643 9.21545
49.5134 9.1211
49.5626 9.10124
49.6117 9.09829
49.6609 9.0305
49.71 9.01006
49.7592 8.95692
49.8083 8.9511
49.8576 8.91205
49.9067 8.86759
49.956 8.815
50.0052 8.76287
50.0545 8.77176
50.1036 8.73058
50.153 8.67337
50.2022 8.65632
50.2515 8.62441
50.3007 8.61442
50.3501 8.55656
50.3993 8.53698
50.4487 8.48896
50.498 8.49385
50.5474 8.3997
50.5966 8.39015
50.6461 8.35692
50.6955 8.33206
50.7448 8.25829
50.7943 8.27382
50.8436 8.21451
50.8931 8.19075
50.9424 8.17326
50.9919 8.11047
51.0413 8.0798
51.0908 8.07968
51.1402 8.05202
51.1897 7.99916
51.2391 7.96839
51.2887 7.89097
51.3381 7.91393
51.3877 7.90151
51.4371 7.83265
51.4867 7.80093
51.5362 7.73341
51.5858 7.75358
51.6353 7.68024
51.6849 7.63868
51.7344 7.64507
51.7841 7.60308
51.8336 7.57779
51.8833 7.55177
51.9328 7.51596
51.9826 7.49134
52.0323 7.46812
52.0818 7.44345
52.1316 7.3911
52.1812 7.35809
52.231 7.31544
52.2806 7.29388
52.3304 7.26668
52.38 7.27172
52.4298 7.19885
52.4794 7.1302
52.5293 7.14893
52.5789 7.1179
52.6288 7.10154
52.6785 7.05252
52.7284 7.00499
52.7781 7.01826
52.828 6.99754
52.8777 6.94218
52.9276 6.91488
52.9774 6.92292
53.0273 6.87961
53.0771 6.83137
53.1271 6.81529
53.1769 6.78868
53.2269 6.7797
53.2767 6.72621
53.3267 6.70411
53.3765 6.63383
53.4266 6.66028
53.4766 6.60986
53.5265 6.59754
53.5765 6.55221
53.6264 6.49942
53.6765 6.52043
53.7264 6.46265
53.7765 6.45818
53.8265 6.37716
53.8766 6.36885
53.9266 6.36578
53.9767 6.32191
54.0267 6.32807
54.0769 6.24961
54.1269 6.18546
54.1771 6.17345
54.2271 6.20452
54.2773 6.126
54.3274 6.11711
54.3776 6.08486
54.4277 6.0298
54.478 6.01928
54.528 5.96645
54.5783 5.95001
54.6285 5.88026
54.6788 5.82026
54.7289 5.77425
54.7792 5.75102
54.8296 5.67805
54.8798 5.68469
54.9301 5.6653
54.9803 5.58662
55.0307 5.63655
55.0809 5.49556
55.1314 5.5184
55.1816 5.421
55.232 5.45689
55.2823 5.36622
55.3328 5.32608
55.383 5.22234
55.4335 5.2481
55.4838 5.14808
55.5344 5.08936
55.5847 5.06467
55.6352 5.02545
55.6856 4.95792
55.7361 4.91065