File: XRD/Ni3Fe_FD0573.xy
TT I
1.27165 7.43919
1.31627 7.17389
1.36089 6.81492
1.40551 5.87828
1.45013 6.621
1.49476 6.50877
1.53938 6.2366
1.584 5.34547
1.62863 5.48617
1.67325 5.3934
1.71787 4.76775
1.7625 4.82192
1.80712 5.03446
1.85174 4.85572
1.89636 4.85974
1.94099 5.07325
1.98562 5.15611
2.03025 4.44629
2.07487 4.1285
2.11949 5.0202
2.16411 4.90492
2.20874 10.8243
2.25338 14.5948
2.298 5.20902
2.34263 4.68219
2.38725 5.80637
2.43188 5.62386
2.4765 6.33119
2.52115 6.94317
2.56577 7.09831
2.6104 8.06003
2.65503 7.32668
2.69965 8.42361
2.7443 7.79995
2.78893 8.15564
2.83356 8.78443
2.87818 8.60381
2.92281 8.81955
2.96744 9.66893
3.01209 10.2438
3.05672 10.9547
3.10135 12.0019
3.14599 13.2914
3.19062 14.4555
3.23527 14.9038
3.2799 15.7605
3.32454 16.7846
3.36917 17.2728
3.4138 18.6
3.45844 19.7053
3.50309 20.9639
3.54773 21.7942
3.59237 23.4588
3.637 60.426
3.68164 42.3029
3.7263 25.8525
3.77094 25.9741
3.81558 26.7469
3.86022 27.6216
3.90486 29.0531
3.9495 29.8059
3.99416 31.0462
4.0388 32.5371
4.08344 33.607
4.12809 34.7673
4.17273 36.5356
4.21738 40.5613
4.26204 156.41
4.30669 130.347
4.35133 45.7348
4.39598 44.1617
4.44063 50.1237
4.4853 57.4382
4.52995 52.4948
4.5746 53.3749
4.61925 54.1506
4.6639 56.6699
4.70855 58.9923
4.75322 62.1529
4.79788 65.7808
4.84253 68.5903
4.88719 73.0833
4.93184 76.9429
4.97652 82.3774
5.02118 89.1877
5.06583 97.4899
5.11049 109.507
5.15515 164.294
5.19981 464.504
5.24449 3260.32
5.28916 12221.5
5.33382 2741.14
5.37848 196.687
5.42315 131.652
5.46783 117.412
5.5125 109.273
5.55716 103.753
5.60183 99.9806
5.6465 97.9543
5.69117 95.6463
5.73586 94.0152
5.78053 95.16
5.8252 95.1473
5.86988 96.7217
5.91455 97.5269
5.95924 108.492
6.00392 267.957
6.0486 1116.89
6.09328 4596.43
6.13795 3323.74
6.18263 244.103
6.22733 94.1582
6.27201 82.8786
6.3167 90.6228
6.36138 76.3852
6.40606 69.9181
6.45075 68.615
6.49545 66.0023
6.54014 64.26
6.58483 63.3875
6.62952 62.8918
6.67421 80.1049
6.71892 105.156
6.76361 64.1432
6.8083 59.1499
6.853 58.2694
6.89769 57.1483
6.94239 56.804
6.98711 56.2841
7.03181 55.6935
7.07651 55.2492
7.12121 55.7458
7.16591 55.587
7.21063 55.5991
7.25533 64.2407
7.30004 121.555
7.34475 74.3433
7.38945 56.0684
7.43416 54.6476
7.47889 54.621
7.5236 55.2357
7.56831 55.6493
7.61303 56.4631
7.65774 56.8431
7.70247 56.8824
7.74719 56.8407
7.79191 56.7632
7.83663 57.3165
7.88135 58.2603
7.92607 59.123
7.97081 60.2415
8.01553 61.4804
8.06026 62.8556
8.10498 64.6236
8.14971 71.0907
8.19446 71.0451
8.23919 70.1587
8.28392 72.7622
8.32865 75.0794
8.37339 79.3818
8.41812 86.3414
8.46288 108.952
8.50761 194.513
8.55235 443.355
8.59709 1246.01
8.64183 2172.32
8.68658 923.401
8.73134 158.092
8.77609 100.041
8.82083 93.6792
8.86558 91.4541
8.91033 91.1161
8.9551 90.162
8.99985 86.0974
9.04461 84.9654
9.08936 84.1601
9.13412 83.2992
9.17888 82.8613
9.22365 83.3062
9.26841 83.3574
9.31318 84.1312
9.35794 84.8982
9.4027 85.0656
9.44749 85.4725
9.49226 85.5886
9.53703 86.5232
9.5818 89.1866
9.62657 92.5999
9.67134 96.8694
9.71614 93.7227
9.76091 95.6958
9.80569 98.9839
9.85047 101.585
9.89525 116.884
9.94005 133.236
9.98484 208.193
10.0296 383.999
10.0744 868.391
10.1192 1716.03
10.164 1505.45
10.2088 366.654
10.2536 125.086
10.2984 111.833
10.3432 111.322
10.388 106.8
10.4328 127.4
10.4776 172.025
10.5224 302.108
10.5672 523.781
10.612 496.727
10.6568 190.421
10.7017 95.5004
10.7465 87.4139
10.7913 84.1045
10.8361 81.9648
10.8809 79.5527
10.9257 78.568
10.9706 78.4012
11.0154 75.1792
11.0602 73.2343
11.105 72.3177
11.1499 74.2074
11.1947 77.5479
11.2395 72.2789
11.2844 69.75
11.3292 67.718
11.374 66.8601
11.4189 65.8507
11.4637 65.2051
11.5086 65.1213
11.5534 66.6487
11.5983 65.0468
11.6431 63.989
11.688 63.3924
11.7328 63.6897
11.7777 63.2395
11.8225 63.0737
11.8674 63.0844
11.9122 63.2878
11.9571 63.7124
12.002 64.838
12.0468 70.6484
12.0917 82.7172
12.1366 106.948
12.1814 157.508
12.2263 203.07
12.2712 159.223
12.3161 89.4353
12.3609 68.2805
12.4058 64.5861
12.4507 64.7764
12.4956 65.1719
12.5405 65.4429
12.5853 65.7935
12.6302 70.3052
12.6751 73.5048
12.72 69.2509
12.7649 68.4213
12.8098 69.24
12.8547 70.5047
12.8996 71.9466
12.9445 73.4043
12.9894 75.3716
13.0343 77.0063
13.0792 81.0937
13.1242 94.5676
13.1691 118.252
13.214 159.108
13.2589 252.951
13.3038 373.751
13.3487 418.725
13.3937 247.397
13.4386 121.181
13.4835 110.503
13.5285 126.906
13.5734 168.57
13.6183 257.457
13.6633 351.654
13.7082 331.62
13.7531 177.026
13.7981 95.6842
13.843 82.317
13.888 80.007
13.9329 77.5903
13.9779 76.574
14.0228 75.0376
14.0678 73.6448
14.1127 73.2216
14.1577 72.6781
14.2027 71.9103
14.2476 70.8178
14.2926 70.6889
14.3376 71.3765
14.3825 70.4543
14.4275 69.6071
14.4725 69.3242
14.5175 69.6356
14.5624 69.8202
14.6074 70.9937
14.6524 71.3823
14.6974 71.3124
14.7424 74.7377
14.7874 82.3683
14.8324 93.2667
14.8774 116.734
14.9224 158.895
14.9674 211.051
15.0124 216.673
15.0574 143.01
15.1024 88.5909
15.1474 72.6467
15.1924 70.6772
15.2374 70.6715
15.2824 69.8114
15.3274 68.2963
15.3725 67.6557
15.4175 67.1306
15.4625 66.5583
15.5076 66.6288
15.5526 66.8021
15.5976 66.5308
15.6426 68.9802
15.6877 74.9269
15.7327 82.8004
15.7778 99.2449
15.8228 131.424
15.8679 172.155
15.9129 192.906
15.958 148.727
16.003 92.7376
16.0481 67.2774
16.0931 64.1421
16.1382 62.4114
16.1833 60.9068
16.2283 59.4778
16.2734 58.6703
16.3185 58.7828
16.3636 58.7889
16.4086 57.6066
16.4537 56.4869
16.4988 56.1279
16.5439 55.7125
16.589 55.5497
16.6341 55.3843
16.6792 54.9373
16.7243 55.199
16.7694 55.2259
16.8145 55.1891
16.8596 55.4713
16.9047 56.4454
16.9498 56.5924
16.9949 56.129
17.04 56.581
17.0851 57.9679
17.1302 59.5248
17.1754 62.9718
17.2205 68.1611
17.2656 75.512
17.3108 83.0585
17.3559 81.6404
17.401 70.7554
17.4462 62.3622
17.4913 59.6199
17.5365 59.5658
17.5815 59.7054
17.6268 60.2492
17.6718 60.8673
17.7171 61.1674
17.7622 61.9847
17.8074 63.0924
17.8525 66.2893
17.8977 69.9608
17.9428 75.8128
17.9881 85.6071
18.0331 103.048
18.0784 124.255
18.1237 141.22
18.1688 130.442
18.214 102.035
18.2591 87.5301
18.3044 92.261
18.3495 101.304
18.3948 105.564
18.4399 94.5367
18.4852 76.109
18.5303 65.9384
18.5756 62.5056
18.6207 61.7817
18.666 61.1192
18.7112 60.1805
18.7565 59.4437
18.8016 59.087
18.8469 58.7263
18.892 58.0034
18.9374 57.7099
18.9825 57.4945
19.0278 57.268
19.073 57.6296
19.1183 58.0438
19.1635 58.848
19.2088 60.3552
19.254 63.1241
19.2993 67.5136
19.3447 72.9616
19.3898 76.3297
19.4352 71.7362
19.4804 63.0877
19.5257 56.9263
19.5709 54.4416
19.6163 54.2159
19.6615 54.1077
19.7068 53.7792
19.752 53.7301
19.7974 54.4354
19.8426 55.1708
19.888 55.8148
19.9332 57.0666
19.9786 59.9273
20.0238 63.4557
20.0692 67.8493
20.1144 70.1548
20.1598 68.2163
20.205 63.918
20.2504 62.4504
20.2957 64.0957
20.3411 65.7892
20.3863 64.0592
20.4318 58.0917
20.477 53.5779
20.5224 51.718
20.5677 51.1906
20.6131 50.7351
20.6586 50.0067
20.7038 49.9751
20.7493 49.5626
20.7945 49.4752
20.84 49.0853
20.8853 49.2745
20.9307 48.9789
20.976 49.1751
21.0215 49.1008
21.0668 49.5612
21.1122 49.9044
21.1575 50.4653
21.203 51.2202
21.2483 51.7176
21.2938 51.7028
21.3391 50.2681
21.3846 49.2316
21.4299 48.8147
21.4754 48.6942
21.5207 48.9765
21.5662 49.4676
21.6116 49.9483
21.6571 50.4638
21.7024 51.6846
21.7479 53.4113
21.7933 56.4312
21.8388 59.8747
21.8843 63.3766
21.9297 64.9904
21.9752 63.3199
22.0206 59.7096
22.0661 56.6334
22.1115 56.3824
22.157 56.1223
22.2024 54.4203
22.248 51.6674
22.2933 50.0886
22.3389 49.3253
22.3843 49.2489
22.4299 49.082
22.4753 49.0809
22.5208 48.9059
22.5662 49.01
22.6118 49.1341
22.6572 49.3389
22.7028 49.8511
22.7483 50.2416
22.7939 51.1626
22.8393 52.607
22.8849 54.8386
22.9303 56.6746
22.9759 58.2278
23.0214 57.4108
23.067 54.3956
23.1126 51.2479
23.1581 49.3946
23.2037 49.2019
23.2492 49.3221
23.2948 49.2474
23.3403 49.4982
23.3859 50.221
23.4314 51.5959
23.477 53.2368
23.5225 55.2513
23.5682 57.2106
23.6137 57.932
23.6593 55.6264
23.7048 51.2621
23.7505 48.3765
23.796 46.8338
23.8417 46.336
23.8872 45.8522
23.9329 45.485
23.9784 45.1541
24.0241 44.8275
24.0697 44.9165
24.1154 44.4516
24.1609 44.2278
24.2066 44.1939
24.2522 44.0625
24.2979 43.7659
24.3434 43.6538
24.3892 43.4304
24.4349 43.4614
24.4805 43.2049
24.5262 43.4863
24.5718 43.2409
24.6175 43.2927
24.6631 43.16
24.7089 42.919
24.7545 42.6432
24.8002 42.5751
24.8458 42.5126
24.8916 42.3814
24.9372 42.599
24.983 42.9283
25.0286 43.3314
25.0744 43.729
25.12 44.2213
25.1658 44.7795
25.2114 44.8993
25.2572 45.0253
25.3029 44.9566
25.3487 45.2152
25.3943 44.9003
25.4402 43.6489
25.4858 42.7153
25.5316 41.6415
25.5773 41.1962
25.6231 41.0961
25.669 40.8881
25.7147 40.7786
25.7605 40.7063
25.8062 40.7573
25.8521 40.9549
25.8977 40.8766
25.9436 41.2087
25.9893 41.2863
26.0352 41.6891
26.0809 41.9269
26.1268 41.9465
26.1725 41.559
26.2184 41.0018
26.2641 40.5523
26.31 40.516
26.3557 40.3742
26.4017 40.4551
26.4474 40.814
26.4933 41.2546
26.5391 41.6689
26.585 42.0291
26.6308 42.4639
26.6767 42.4739
26.7225 42.1428
26.7684 41.5936
26.8142 41.0745
26.8601 40.796
26.9059 40.3098
26.9519 39.73
26.9979 39.4866
27.0437 39.1714
27.0896 39.0473
27.1354 39.0444
27.1814 38.8794
27.2272 38.8868
27.2732 38.8837
27.3191 38.6656
27.3651 38.842
27.4109 38.7736
27.4569 38.7563
27.5027 38.8685
27.5488 38.8724
27.5946 38.619
27.6407 38.3464
27.6865 38.3638
27.7326 38.057
27.7784 38.1202
27.8245 38.0445
27.8703 38.2975
27.9164 38.6385
27.9623 38.6148
28.0084 39.0169
28.0543 39.4609
28.1003 39.2496
28.1462 39.079
28.1923 38.7016
28.2384 38.1116
28.2843 37.9338
28.3304 37.3372
28.3764 36.9289
28.4225 36.6022
28.4684 36.4672
28.5145 36.2989
28.5605 36.0497
28.6066 35.9147
28.6526 35.9712
28.6987 35.8123
28.7447 35.7434
28.7908 35.6948
28.8368 35.6507
28.8829 35.6547
28.9289 35.6478
28.9751 35.3415
29.0211 35.1145
29.0673 34.8542
29.1133 34.8683
29.1595 34.7091
29.2055 34.5562
29.2517 34.6403
29.2977 34.5863
29.3439 34.606
29.3899 34.5732
29.4361 34.4255
29.4824 34.2275
29.5284 33.9143
29.5746 33.7217
29.6207 33.351
29.6669 33.2455
29.713 33.1769
29.7593 33.0757
29.8053 33.1678
29.8516 33.0743
29.8977 33.0566
29.9439 32.9497
29.99 32.7706
30.0363 32.6231
30.0824 32.745
30.1287 32.7074
30.1748 32.7071
30.2211 32.7478
30.2673 32.4924
30.3136 32.595
30.3597 32.4698
30.406 32.4556
30.4522 32.447
30.4985 32.3345
30.5447 32.4516
30.591 32.3516
30.6372 32.4464
30.6835 32.3536
30.7297 32.42
30.7761 32.3943
30.8224 32.1716
30.8686 31.952
30.915 31.8195
30.9612 31.6444
31.0076 31.4843
31.0538 31.4017
31.1002 31.4131
31.1464 31.2039
31.1928 31.1526
31.2391 31.1314
31.2855 31.0651
31.3317 31.0911
31.3781 31.2031
31.4244 31.1307
31.4708 31.0739
31.5171 31.0218
31.5636 30.909
31.6098 30.6968
31.6563 30.5865
31.7026 30.3727
31.7491 30.3199
31.7953 30.3418
31.8418 30.4334
31.8881 30.2778
31.9346 30.2615
31.9809 30.2516
32.0275 30.1319
32.074 30.0832
32.1203 29.7624
32.1668 29.7636
32.2132 29.6352
32.2597 29.4025
32.306 29.4153
32.3526 29.2453
32.399 29.1712
32.4455 28.9934
32.4919 28.9497
32.5385 28.8701
32.5848 28.6244
32.6314 28.7111
32.6778 28.7255
32.7244 28.5
32.7708 28.3553
32.8174 28.3471
32.8638 28.2013
32.9104 28.1984
32.9569 28.0999
33.0035 28.0971
33.0499 28.0187
33.0966 27.9815
33.143 27.9777
33.1897 27.8911
33.2361 27.8262
33.2828 27.75
33.3293 27.5617
33.3759 27.6405
33.4226 27.4206
33.4691 27.2699
33.5158 27.2228
33.5623 27.0432
33.609 26.9346
33.6555 26.8526
33.7022 26.7929
33.7487 26.6925
33.7954 26.6298
33.842 26.4568
33.8887 26.4906
33.9353 26.4523
33.982 26.3705
34.0286 26.1858
34.0753 26.2096
34.1219 26.1413
34.1687 25.9587
34.2152 25.9499
34.262 25.7754
34.3086 25.7287
34.3554 25.7498
34.402 25.5709
34.4488 25.4709
34.4954 25.4132
34.5422 25.3275
34.5889 25.2501
34.6357 25.1065
34.6825 25.1194
34.7292 25.0146
34.776 24.8935
34.8227 24.921
34.8695 24.8588
34.9162 24.8081
34.9631 24.6094
35.0098 24.6429
35.0566 24.4929
35.1033 24.458
35.1502 24.4049
35.1969 24.3782
35.2438 24.339
35.2906 24.2964
35.3375 24.2084
35.3842 24.1558
35.4311 24.1557
35.4779 24.1047
35.5248 24.0351
35.5716 23.8998
35.6185 23.8796
35.6653 23.769
35.7123 23.6978
35.759 23.6671
35.806 23.5163
35.8528 23.4662
35.8998 23.3373
35.9468 23.2872
35.9936 23.2276
36.0406 23.17
36.0874 23.1422
36.1345 23.0473
36.1813 22.9505
36.2283 22.8464
36.2752 22.7778
36.3222 22.8309
36.3691 22.7632
36.4161 22.5797
36.463 22.6214
36.5101 22.5761
36.557 22.5054
36.6041 22.3165
36.651 22.2869
36.6981 22.2965
36.745 22.1678
36.7921 22.1023
36.839 21.9939
36.8861 21.9682
36.9331 21.8561
36.9802 21.7902
37.0272 21.7209
37.0743 21.7257
37.1213 21.5767
37.1684 21.5486
37.2154 21.4711
37.2626 21.4566
37.3098 21.3695
37.3568 21.3113
37.404 21.2572
37.451 21.1266
37.4982 21.0702
37.5452 20.9695
37.5924 20.9586
37.6395 21.0146
37.6867 20.7977
37.7337 20.786
37.781 20.673
37.8281 20.617
37.8753 20.4811
37.9224 20.4017
37.9697 20.3659
38.0168 20.3858
38.064 20.3161
38.1111 20.2455
38.1584 20.1965
38.2056 20.1012
38.2529 20.0923
38.3 19.9727
38.3473 19.9532
38.3945 19.8617
38.4418 19.8474
38.489 19.7592
38.5363 19.6515
38.5837 19.5882
38.6309 19.4591
38.6782 19.4404
38.7254 19.3713
38.7728 19.3285
38.82 19.1886
38.8674 19.2333
38.9146 19.1784
38.9621 19.1078
39.0093 19.0715
39.0567 19.036
39.104 18.8656
39.1514 18.8424
39.1987 18.7705
39.2461 18.6911
39.2934 18.6721
39.3409 18.57
39.3882 18.4794
39.4356 18.5268
39.483 18.3845
39.5304 18.3687
39.5778 18.3376
39.6253 18.327
39.6726 18.2202
39.7201 18.1324
39.7675 18.1434
39.815 18.0082
39.8624 17.9012
39.9099 18.007
39.9575 17.8751
40.0049 17.7889
40.0525 17.7606
40.0999 17.7398
40.1474 17.6193
40.1949 17.6089
40.2425 17.4611
40.2899 17.4636
40.3375 17.4566
40.385 17.3377
40.4326 17.3356
40.48 17.199
40.5277 17.2317
40.5752 17.1391
40.6228 17.0495
40.6703 17.0288
40.718 16.9361
40.7655 16.9568
40.8132 16.8565
40.8607 16.7834
40.9084 16.7894
40.9559 16.7107
41.0036 16.6358
41.0512 16.6104
41.0989 16.592
41.1465 16.4871
41.1942 16.4978
41.242 16.3788
41.2896 16.3243
41.3373 16.2479
41.3849 16.2298
41.4327 16.1507
41.4803 16.1024
41.5281 16.0538
41.5758 16.0
41.6236 15.8753
41.6712 15.9084
41.7191 15.8226
41.7667 15.7557
41.8146 15.7384
41.8622 15.6915
41.9101 15.6342
41.9578 15.5522
42.0057 15.491
42.0534 15.4575
42.1013 15.4358
42.149 15.3418
42.1969 15.3371
42.2446 15.3083
42.2925 15.2344
42.3403 15.161
42.3882 15.1459
42.436 15.0534
42.4839 14.9799
42.5319 14.9746
42.5797 14.9095
42.6277 14.8464
42.6755 14.7736
42.7235 14.6878
42.7713 14.7456
42.8193 14.6065
42.8671 14.5939
42.9152 14.5992
42.963 14.5099
43.0111 14.4147
43.0589 14.4123
43.107 14.3547
43.1549 14.3413
43.2029 14.223
43.2508 14.2214
43.2989 14.1713
43.3468 14.1283
43.3949 14.0453
43.4429 14.0095
43.491 14.0238
43.5389 13.9349
43.5871 13.8429
43.635 13.8276
43.6832 13.7791
43.7312 13.6986
43.7793 13.68
43.8273 13.6378
43.8755 13.5858
43.9237 13.5599
43.9717 13.5435
44.0199 13.4267
44.068 13.4298
44.1162 13.3337
44.1642 13.3055
44.2125 13.3105
44.2606 13.244
44.3088 13.1503
44.3569 13.1549
44.4052 13.1072
44.4533 13.0068
44.5016 12.9885
44.5497 12.9125
44.598 12.8708
44.6461 12.8243
44.6945 12.8069
44.7426 12.8093
44.791 12.7246
44.8391 12.696
44.8875 12.623
44.9357 12.5865
44.984 12.5492
45.0322 12.503
45.0806 12.4588
45.1288 12.4172
45.1773 12.3883
45.2257 12.3523
45.2739 12.2467
45.3224 12.2479
45.3706 12.1956
45.4191 12.1215
45.4673 12.1152
45.5158 12.0583
45.5641 12.0364
45.6126 11.9811
45.6609 11.9238
45.7094 11.9247
45.7577 11.8382
45.8063 11.7493
45.8546 11.786
45.9031 11.6759
45.9515 11.6889
46.0001 11.6216
46.0484 11.5849
46.097 11.5826
46.1454 11.5124
46.194 11.4719
46.2424 11.4204
46.291 11.4001
46.3395 11.3597
46.3881 11.2834
46.4365 11.3127
46.4852 11.2073
46.5337 11.2023
46.5823 11.1641
46.631 11.1234
46.6795 11.0495
46.7282 11.0707
46.7767 10.9572
46.8254 10.9178
46.8739 10.8865
46.9226 10.8493
46.9712 10.8106
47.0199 10.7594
47.0685 10.7481
47.1173 10.7051
47.1658 10.6857
47.2146 10.6251
47.2632 10.6081
47.312 10.5408
47.3606 10.5148
47.4095 10.4547
47.4581 10.4653
47.5069 10.3589
47.5556 10.3631
47.6044 10.2905
47.6531 10.2632
47.702 10.217
47.7507 10.1796
47.7996 10.1317
47.8483 10.1078
47.8972 10.1414
47.9461 10.0509
47.9948 10.0202
48.0438 9.95524
48.0925 9.96245
48.1415 9.88534
48.1902 9.86348
48.2392 9.82998
48.288 9.83033
48.337 9.80809
48.3858 9.73091
48.4348 9.70761
48.4837 9.62896
48.5327 9.62953
48.5815 9.61914
48.6306 9.53288
48.6795 9.51664
48.7285 9.47037
48.7774 9.46034
48.8265 9.43162
48.8754 9.36185
48.9245 9.34305
48.9734 9.28315
49.0226 9.30955
49.0715 9.25109
49.1206 9.20916
49.1696 9.16668
49.2188 9.1251
49.2679 9.11008
49.3169 9.05655
49.3661 9.02071
49.4151 8.99384
49.4643 8.93851
49.5134 8.91328
49.5626 8.83717
49.6117 8.83335
49.6609 8.82029
49.71 8.73786
49.7592 8.72329
49.8083 8.72898
49.8576 8.70482
49.9067 8.64851
49.956 8.63625
50.0052 8.57312
50.0545 8.56342
50.1036 8.48602
50.153 8.45421
50.2022 8.46586
50.2515 8.42685
50.3007 8.34043
50.3501 8.32668
50.3993 8.32616
50.4487 8.26312
50.498 8.2806
50.5474 8.19597
50.5966 8.18492
50.6461 8.14986
50.6955 8.12976
50.7448 8.10155
50.7943 8.11539
50.8436 8.03443
50.8931 8.00282
50.9424 7.94698
50.9919 7.94341
51.0413 7.93097
51.0908 7.87336
51.1402 7.8547
51.1897 7.77799
51.2391 7.79555
51.2887 7.75342
51.3381 7.73824
51.3877 7.71077
51.4371 7.66066
51.4867 7.64327
51.5362 7.64073
51.5858 7.54672
51.6353 7.52548
51.6849 7.46978
51.7344 7.49226
51.7841 7.43059
51.8336 7.38997
51.8833 7.3718
51.9328 7.33599
51.9826 7.26432
52.0323 7.25586
52.0818 7.26835
52.1316 7.19461
52.1812 7.20413
52.231 7.16548
52.2806 7.11159
52.3304 7.10633
52.38 7.09985
52.4298 7.06277
52.4794 7.04437
52.5293 6.97564
52.5789 6.99608
52.6288 6.94917
52.6785 6.87222
52.7284 6.89816
52.7781 6.87658
52.828 6.81614
52.8777 6.77945
52.9276 6.74251
52.9774 6.73439
53.0273 6.71084
53.0771 6.65726
53.1271 6.65265
53.1769 6.61218
53.2269 6.61662
53.2767 6.62149
53.3267 6.56522
53.3765 6.50886
53.4266 6.48445
53.4766 6.41414
53.5265 6.4134
53.5765 6.40212
53.6264 6.35341
53.6765 6.33283
53.7264 6.35746
53.7765 6.27303
53.8265 6.26247
53.8766 6.25667
53.9266 6.19322
53.9767 6.16949
54.0267 6.17261
54.0769 6.13572
54.1269 6.09728
54.1771 6.02442
54.2271 6.06627
54.2773 6.00072
54.3274 5.99291
54.3776 5.93332
54.4277 5.88474
54.478 5.88553
54.528 5.88867
54.5783 5.7964
54.6285 5.77234
54.6788 5.70793
54.7289 5.72045
54.7792 5.65608
54.8296 5.57289
54.8798 5.5558
54.9301 5.57023
54.9803 5.48152
55.0307 5.49805
55.0809 5.37765
55.1314 5.38226
55.1816 5.35374
55.232 5.23921
55.2823 5.26556
55.3328 5.19074
55.383 5.11816
55.4335 5.04937
55.4838 5.07586
55.5344 5.00557
55.5847 5.00184
55.6352 4.9826
55.6856 4.89071
55.7361 4.85267