File: XRD/Ni3Fe_FD0048.xy
TT I
1.27165 33.1835
1.31627 31.3225
1.36089 29.6083
1.40551 27.4186
1.45013 28.1761
1.49476 26.4339
1.53938 25.4106
1.584 23.9671
1.62863 23.3181
1.67325 23.5137
1.71787 22.705
1.7625 21.7285
1.80712 21.537
1.85174 21.0259
1.89636 21.0417
1.94099 21.575
1.98562 20.9022
2.03025 20.9104
2.07487 20.7686
2.11949 21.015
2.16411 20.6292
2.20874 21.5082
2.25338 21.1079
2.298 21.2168
2.34263 21.3072
2.38725 21.63
2.43188 22.4709
2.4765 22.8112
2.52115 22.2468
2.56577 22.6934
2.6104 24.3517
2.65503 25.363
2.69965 26.5954
2.7443 27.6796
2.78893 30.5544
2.83356 33.3966
2.87818 36.771
2.92281 41.2989
2.96744 46.593
3.01209 55.4022
3.05672 64.0942
3.10135 73.0562
3.14599 77.6292
3.19062 75.5438
3.23527 68.0691
3.2799 56.2061
3.32454 47.2236
3.36917 40.2823
3.4138 34.8538
3.45844 31.8665
3.50309 29.9652
3.54773 28.2267
3.59237 27.2459
3.637 26.6323
3.68164 25.8443
3.7263 26.2566
3.77094 25.5553
3.81558 25.5976
3.86022 26.2292
3.90486 26.6722
3.9495 26.297
3.99416 27.0824
4.0388 27.6838
4.08344 29.2275
4.12809 29.4808
4.17273 30.5728
4.21738 31.3777
4.26204 34.6043
4.30669 37.6338
4.35133 41.5051
4.39598 40.0871
4.44063 38.0502
4.4853 37.1242
4.52995 38.1731
4.5746 39.0895
4.61925 40.4414
4.6639 41.757
4.70855 44.1088
4.75322 47.2633
4.79788 50.2247
4.84253 53.8655
4.88719 59.7256
4.93184 67.2389
4.97652 81.2068
5.02118 102.235
5.06583 121.197
5.11049 139.952
5.15515 184.654
5.19981 303.218
5.24449 691.918
5.28916 1557.45
5.33382 4001.25
5.37848 3290.91
5.42315 865.188
5.46783 316.211
5.5125 199.878
5.55716 152.369
5.60183 126.487
5.6465 115.104
5.69117 109.655
5.73586 102.5
5.78053 99.4147
5.8252 100.597
5.86988 106.823
5.91455 117.366
5.95924 139.671
6.00392 193.377
6.0486 322.164
6.09328 552.21
6.13795 1016.07
6.18263 1159.85
6.22733 530.647
6.27201 230.966
6.3167 133.902
6.36138 94.2132
6.40606 74.2576
6.45075 64.2373
6.49545 57.2966
6.54014 52.8281
6.58483 48.9956
6.62952 46.7962
6.67421 45.1298
6.71892 43.733
6.76361 42.5345
6.8083 41.2968
6.853 40.4971
6.89769 40.5471
6.94239 40.532
6.98711 40.5486
7.03181 41.8471
7.07651 44.2386
7.12121 45.9763
7.16591 43.3453
7.21063 40.6946
7.25533 39.2446
7.30004 38.8947
7.34475 38.8765
7.38945 38.9719
7.43416 39.5983
7.47889 42.1078
7.5236 56.7684
7.56831 158.19
7.61303 176.273
7.65774 65.9035
7.70247 43.7351
7.74719 39.9008
7.79191 38.4609
7.83663 38.1385
7.88135 38.1238
7.92607 38.4878
7.97081 39.0184
8.01553 39.4182
8.06026 40.3111
8.10498 41.0618
8.14971 41.9555
8.19446 43.5038
8.23919 45.5602
8.28392 48.7074
8.32865 51.4356
8.37339 54.7312
8.41812 58.1165
8.46288 65.9168
8.50761 80.8364
8.55235 119.387
8.59709 181.932
8.64183 263.2
8.68658 547.775
8.73134 767.034
8.77609 406.837
8.82083 178.644
8.86558 108.125
8.91033 85.1573
8.9551 74.9223
8.99985 69.0884
9.04461 66.1161
9.08936 64.1789
9.13412 63.9967
9.17888 67.7456
9.22365 87.2935
9.26841 235.778
9.31318 334.706
9.35794 130.572
9.4027 71.3594
9.44749 61.5926
9.49226 57.8048
9.53703 56.5314
9.5818 56.5114
9.62657 56.2299
9.67134 56.473
9.71614 57.3908
9.76091 58.4292
9.80569 59.9823
9.85047 62.5876
9.89525 66.2428
9.94005 72.4202
9.98484 84.6198
10.0296 114.982
10.0744 162.427
10.1192 205.744
10.164 335.212
10.2088 670.967
10.2536 673.764
10.2984 309.19
10.3432 156.048
10.388 103.144
10.4328 85.7925
10.4776 83.6178
10.5224 90.9942
10.5672 96.9357
10.612 124.215
10.6568 215.084
10.7017 278.009
10.7465 210.334
10.7913 106.534
10.8361 65.5552
10.8809 55.0822
10.9257 51.3568
10.9706 49.1322
11.0154 47.0277
11.0602 45.4597
11.105 44.3904
11.1499 43.3086
11.1947 42.9827
11.2395 42.9006
11.2844 42.2313
11.3292 40.9984
11.374 40.649
11.4189 39.8747
11.4637 39.4396
11.5086 39.1175
11.5534 38.594
11.5983 38.4427
11.6431 38.6358
11.688 38.6366
11.7328 38.5598
11.7777 38.8913
11.8225 39.0965
11.8674 40.3833
11.9122 43.4733
11.9571 62.5267
12.002 112.99
12.0468 97.1485
12.0917 55.4099
12.1366 48.6698
12.1814 49.8286
12.2263 53.2157
12.2712 63.9971
12.3161 83.6027
12.3609 88.4323
12.4058 67.9646
12.4507 52.2286
12.4956 45.6021
12.5405 42.2179
12.5853 40.858
12.6302 39.7944
12.6751 39.4609
12.72 39.5391
12.7649 39.6906
12.8098 39.6189
12.8547 40.2985
12.8996 40.8688
12.9445 41.4793
12.9894 42.5643
13.0343 43.8624
13.0792 46.7595
13.1242 56.1698
13.1691 67.3491
13.214 66.4786
13.2589 68.3787
13.3038 72.5009
13.3487 84.897
13.3937 123.494
13.4386 187.116
13.4835 186.27
13.5285 123.538
13.5734 91.1947
13.6183 81.5653
13.6633 79.4145
13.7082 92.2523
13.7531 131.987
13.7981 186.252
13.843 156.549
13.888 93.4766
13.9329 65.2461
13.9779 55.3738
14.0228 50.8664
14.0678 48.6646
14.1127 49.7269
14.1577 61.4307
14.2027 98.4717
14.2476 99.1482
14.2926 60.1836
14.3376 46.8881
14.3825 43.5936
14.4275 42.2654
14.4725 41.4327
14.5175 41.306
14.5624 40.9509
14.6074 40.6337
14.6524 40.997
14.6974 40.9633
14.7424 41.2325
14.7874 42.0791
14.8324 44.2926
14.8774 47.9169
14.9224 51.1525
14.9674 52.809
15.0124 58.3305
15.0574 74.2898
15.1024 102.788
15.1474 112.072
15.1924 87.8387
15.2374 63.4619
15.2824 50.5955
15.3274 44.9933
15.3725 42.9393
15.4175 41.7537
15.4625 40.9965
15.5076 40.339
15.5526 40.5156
15.5976 40.337
15.6426 40.238
15.6877 40.8299
15.7327 42.4463
15.7778 45.1724
15.8228 47.8186
15.8679 49.4695
15.9129 52.5177
15.958 62.6014
16.003 83.7013
16.0481 107.073
16.0931 103.505
16.1382 84.8858
16.1833 62.7613
16.2283 46.6655
16.2734 40.9332
16.3185 38.4604
16.3636 37.1225
16.4086 35.8046
16.4537 35.2719
16.4988 34.8035
16.5439 34.5515
16.589 34.0909
16.6341 33.9927
16.6792 33.5726
16.7243 33.5904
16.7694 33.5622
16.8145 33.5083
16.8596 33.6254
16.9047 34.0256
16.9498 36.5925
16.9949 41.9645
17.04 42.713
17.0851 37.2051
17.1302 34.9636
17.1754 35.0745
17.2205 35.4279
17.2656 35.566
17.3108 36.2484
17.3559 37.341
17.401 40.2126
17.4462 45.4912
17.4913 48.9917
17.5365 45.4541
17.5815 40.1594
17.6268 37.7004
17.6718 36.8803
17.7171 36.6482
17.7622 37.7256
17.8074 41.4916
17.8525 45.0796
17.8977 43.2558
17.9428 40.8694
17.9881 41.5121
18.0331 43.1682
18.0784 43.5876
18.1237 45.3762
18.1688 49.7903
18.214 60.5484
18.2591 78.4692
18.3044 85.9324
18.3495 72.4499
18.3948 57.3371
18.4399 52.5997
18.4852 55.8424
18.5303 63.7213
18.5756 64.7526
18.6207 58.2734
18.666 50.7083
18.7112 43.7307
18.7565 39.5869
18.8016 37.9784
18.8469 36.9937
18.892 36.4908
18.9374 35.8922
18.9825 35.6094
19.0278 35.1744
19.073 35.2132
19.1183 35.0076
19.1635 35.1275
19.2088 35.4601
19.254 36.0693
19.2993 36.9209
19.3447 40.0052
19.3898 46.6646
19.4352 50.2164
19.4804 46.4929
19.5257 45.2623
19.5709 45.3392
19.6163 42.3329
19.6615 38.3117
19.7068 35.6427
19.752 34.3388
19.7974 33.8415
19.8426 33.3628
19.888 33.1648
19.9332 33.1162
19.9786 33.607
20.0238 33.4811
20.0692 33.6205
20.1144 34.0008
20.1598 35.1815
20.205 37.3412
20.2504 40.9351
20.2957 43.282
20.3411 41.5447
20.3863 38.5195
20.4318 37.6286
20.477 39.3078
20.5224 40.9913
20.5677 39.7974
20.6131 36.1053
20.6586 33.7214
20.7038 32.4758
20.7493 31.7982
20.7945 32.4861
20.84 34.6778
20.8853 35.7022
20.9307 33.5701
20.976 31.3213
21.0215 30.3072
21.0668 30.127
21.1122 30.0911
21.1575 29.9456
21.203 30.119
21.2483 29.9854
21.2938 30.1608
21.3391 30.356
21.3846 30.9334
21.4299 31.9059
21.4754 32.2859
21.5207 32.0188
21.5662 31.679
21.6116 30.9636
21.6571 30.5212
21.7024 30.479
21.7479 30.8747
21.7933 31.1828
21.8388 31.3865
21.8843 31.7189
21.9297 32.1247
21.9752 33.4588
22.0206 35.5683
22.0661 38.5706
22.1115 41.5906
22.157 41.8017
22.2024 40.6136
22.248 39.3091
22.2933 38.0262
22.3389 36.9776
22.3843 35.5528
22.4299 33.32
22.4753 32.151
22.5208 31.3042
22.5662 30.6963
22.6118 30.6852
22.6572 30.5011
22.7028 30.6729
22.7483 30.6544
22.7939 31.0606
22.8393 32.0106
22.8849 32.8109
22.9303 32.4195
22.9759 31.7847
23.0214 31.8513
23.067 32.6643
23.1126 34.3086
23.1581 36.7762
23.2037 38.0004
23.2492 36.4733
23.2948 33.7407
23.3403 32.3347
23.3859 31.847
23.4314 32.1898
23.477 33.506
23.5225 34.358
23.5682 33.9512
23.6137 32.7734
23.6593 32.5286
23.7048 33.4702
23.7505 35.7649
23.796 38.0363
23.8417 38.1393
23.8872 35.2197
23.9329 32.5297
23.9784 30.7609
24.0241 29.9137
24.0697 29.6264
24.1154 29.5076
24.1609 29.4152
24.2066 28.8421
24.2522 28.2989
24.2979 27.9386
24.3434 27.7033
24.3892 27.6726
24.4349 27.5432
24.4805 27.1731
24.5262 27.4084
24.5718 27.1962
24.6175 27.2391
24.6631 27.5017
24.7089 28.1901
24.7545 28.6015
24.8002 28.2033
24.8458 27.5575
24.8916 27.06
24.9372 26.9446
24.983 26.8964
25.0286 26.881
25.0744 26.8237
25.12 26.7499
25.1658 27.0163
25.2114 27.0429
25.2572 27.3038
25.3029 27.8418
25.3487 28.5599
25.3943 28.781
25.4402 28.6433
25.4858 28.6941
25.5316 29.0521
25.5773 29.4237
25.6231 29.3281
25.669 28.1978
25.7147 27.2346
25.7605 26.6074
25.8062 26.5877
25.8521 26.7444
25.8977 26.8812
25.9436 26.8507
25.9893 26.358
26.0352 26.066
26.0809 25.8186
26.1268 25.909
26.1725 26.1545
26.2184 26.1738
26.2641 26.4777
26.31 26.9691
26.3557 27.3128
26.4017 26.9329
26.4474 26.5922
26.4933 26.2445
26.5391 26.1455
26.585 25.9389
26.6308 25.8592
26.6767 25.8905
26.7225 26.0138
26.7684 26.4066
26.8142 26.9449
26.8601 27.6668
26.9059 28.0583
26.9519 28.1096
26.9979 28.006
27.0437 28.0026
27.0896 27.4951
27.1354 26.6584
27.1814 26.0961
27.2272 25.5083
27.2732 25.3437
27.3191 25.1963
27.3651 25.1151
27.4109 25.0262
27.4569 24.9318
27.5027 24.8624
27.5488 25.0082
27.5946 24.9929
27.6407 24.9743
27.6865 24.9599
27.7326 24.9681
27.7784 25.1761
27.8245 25.0737
27.8703 25.0454
27.9164 24.7554
27.9623 24.5195
28.0084 24.7427
28.0543 25.0671
28.1003 25.3788
28.1462 25.5081
28.1923 25.4427
28.2384 25.4857
28.2843 25.8756
28.3304 26.1399
28.3764 25.9244
28.4225 25.5165
28.4684 25.3587
28.5145 24.971
28.5605 24.7142
28.6066 24.3121
28.6526 24.1372
28.6987 23.8366
28.7447 23.5419
28.7908 23.3125
28.8368 23.2048
28.8829 23.074
28.9289 22.961
28.9751 22.8584
29.0211 22.9708
29.0673 22.8446
29.1133 23.003
29.1595 23.0651
29.2055 22.9532
29.2517 22.7098
29.2977 22.5609
29.3439 22.2757
29.3899 22.1979
29.4361 22.1394
29.4824 22.1099
29.5284 22.1584
29.5746 22.1245
29.6207 22.0623
29.6669 22.211
29.713 22.1458
29.7593 21.9101
29.8053 21.7852
29.8516 21.6273
29.8977 21.5568
29.9439 21.4162
29.99 21.3037
30.0363 21.2203
30.0824 21.4391
30.1287 21.4492
30.1748 21.5936
30.2211 21.3942
30.2673 21.0866
30.3136 21.1635
30.3597 21.1219
30.406 21.1802
30.4522 21.116
30.4985 21.132
30.5447 21.1712
30.591 21.0711
30.6372 21.0312
30.6835 20.8955
30.7297 20.8973
30.7761 20.8577
30.8224 20.9515
30.8686 21.1052
30.915 21.1348
30.9612 21.3898
31.0076 21.3765
31.0538 21.4228
31.1002 21.4175
31.1464 21.2298
31.1928 21.0242
31.2391 20.8891
31.2855 20.5791
31.3317 20.4527
31.3781 20.4142
31.4244 20.3938
31.4708 20.2302
31.5171 20.3295
31.5636 20.4414
31.6098 20.3182
31.6563 20.3368
31.7026 20.4322
31.7491 20.4959
31.7953 20.4991
31.8418 20.4181
31.8881 20.2101
31.9346 20.1201
31.9809 20.0709
32.0275 19.9134
32.074 20.0093
32.1203 20.0525
32.1668 20.0534
32.2132 20.1225
32.2597 20.0106
32.306 19.9607
32.3526 19.8066
32.399 19.6194
32.4455 19.5866
32.4919 19.3755
32.5385 19.317
32.5848 19.177
32.6314 19.2075
32.6778 19.0805
32.7244 18.9456
32.7708 18.8634
32.8174 18.8522
32.8638 18.6962
32.9104 18.7752
32.9569 18.7119
33.0035 18.7291
33.0499 18.7977
33.0966 18.6497
33.143 18.5917
33.1897 18.393
33.2361 18.2779
33.2828 18.3348
33.3293 18.242
33.3759 18.3192
33.4226 18.3185
33.4691 18.3833
33.5158 18.3486
33.5623 18.36
33.609 18.3008
33.6555 18.1859
33.7022 18.0399
33.7487 17.8868
33.7954 17.8381
33.842 17.7047
33.8887 17.6781
33.9353 17.6616
33.982 17.5843
34.0286 17.4934
34.0753 17.4729
34.1219 17.426
34.1687 17.3973
34.2152 17.3581
34.262 17.2194
34.3086 17.1568
34.3554 17.1682
34.402 17.0638
34.4488 17.0173
34.4954 16.9535
34.5422 16.9649
34.5889 16.8377
34.6357 16.8619
34.6825 16.7811
34.7292 16.7493
34.776 16.613
34.8227 16.609
34.8695 16.5699
34.9162 16.5573
34.9631 16.4376
35.0098 16.4331
35.0566 16.315
35.1033 16.2634
35.1502 16.2927
35.1969 16.2512
35.2438 16.2668
35.2906 16.23
35.3375 16.1701
35.3842 16.0464
35.4311 16.1163
35.4779 16.0132
35.5248 16.086
35.5716 16.0292
35.6185 16.0393
35.6653 15.9936
35.7123 16.0723
35.759 16.053
35.806 15.9521
35.8528 15.8327
35.8998 15.8543
35.9468 15.8048
35.9936 15.7291
36.0406 15.655
36.0874 15.5739
36.1345 15.5871
36.1813 15.4154
36.2283 15.3952
36.2752 15.3365
36.3222 15.3528
36.3691 15.2994
36.4161 15.188
36.463 15.2832
36.5101 15.3214
36.557 15.2226
36.6041 15.1296
36.651 15.0487
36.6981 15.0358
36.745 14.9204
36.7921 14.9598
36.839 14.9734
36.8861 14.9476
36.9331 14.8486
36.9802 14.8074
37.0272 14.7205
37.0743 14.6912
37.1213 14.6549
37.1684 14.5298
37.2154 14.4952
37.2626 14.4884
37.3098 14.3996
37.3568 14.4047
37.404 14.3405
37.451 14.2767
37.4982 14.2635
37.5452 14.2159
37.5924 14.1557
37.6395 14.2468
37.6867 14.1377
37.7337 14.0841
37.781 13.9754
37.8281 13.9397
37.8753 13.8741
37.9224 13.8877
37.9697 13.8049
38.0168 13.7356
38.064 13.7461
38.1111 13.7412
38.1584 13.6631
38.2056 13.6506
38.2529 13.5197
38.3 13.5328
38.3473 13.4969
38.3945 13.3664
38.4418 13.439
38.489 13.4221
38.5363 13.2823
38.5837 13.2597
38.6309 13.2656
38.6782 13.1801
38.7254 13.1226
38.7728 13.1569
38.82 13.0252
38.8674 13.0723
38.9146 12.9883
38.9621 12.9593
39.0093 12.988
39.0567 12.9291
39.104 12.8843
39.1514 12.8013
39.1987 12.8141
39.2461 12.7008
39.2934 12.7205
39.3409 12.61
39.3882 12.6075
39.4356 12.5847
39.483 12.5192
39.5304 12.469
39.5778 12.4664
39.6253 12.4486
39.6726 12.3427
39.7201 12.3705
39.7675 12.2972
39.815 12.2536
39.8624 12.2283
39.9099 12.2258
39.9575 12.1856
40.0049 12.1609
40.0525 12.1147
40.0999 12.0595
40.1474 12.0385
40.1949 11.9995
40.2425 11.9719
40.2899 11.9456
40.3375 11.9534
40.385 11.8241
40.4326 11.7846
40.48 11.7103
40.5277 11.7884
40.5752 11.7136
40.6228 11.7151
40.6703 11.619
40.718 11.598
40.7655 11.6343
40.8132 11.5557
40.8607 11.542
40.9084 11.5071
40.9559 11.4146
41.0036 11.4088
41.0512 11.3863
41.0989 11.4083
41.1465 11.3645
41.1942 11.2906
41.242 11.2035
41.2896 11.2284
41.3373 11.1427
41.3849 11.1311
41.4327 11.0895
41.4803 11.0249
41.5281 11.0258
41.5758 10.9205
41.6236 10.942
41.6712 10.8783
41.7191 10.8681
41.7667 10.815
41.8146 10.841
41.8622 10.7803
41.9101 10.8137
41.9578 10.6577
42.0057 10.6754
42.0534 10.6618
42.1013 10.6501
42.149 10.5806
42.1969 10.5243
42.2446 10.4885
42.2925 10.486
42.3403 10.4181
42.3882 10.3863
42.436 10.4041
42.4839 10.326
42.5319 10.3337
42.5797 10.261
42.6277 10.2348
42.6755 10.2194
42.7235 10.1237
42.7713 10.1312
42.8193 10.1079
42.8671 10.0648
42.9152 10.0547
42.963 9.97076
43.0111 9.986
43.0589 9.91945
43.107 9.88525
43.1549 9.84655
43.2029 9.81595
43.2508 9.77631
43.2989 9.77879
43.3468 9.69209
43.3949 9.70786
43.4429 9.6678
43.491 9.59728
43.5389 9.6101
43.5871 9.59524
43.635 9.54655
43.6832 9.52642
43.7312 9.4868
43.7793 9.42699
43.8273 9.41734
43.8755 9.38145
43.9237 9.36517
43.9717 9.2991
44.0199 9.28481
44.068 9.2432
44.1162 9.20248
44.1642 9.25556
44.2125 9.19886
44.2606 9.17709
44.3088 9.11245
44.3569 9.06535
44.4052 9.05195
44.4533 9.00852
44.5016 8.97404
44.5497 8.96683
44.598 8.95207
44.6461 8.89448
44.6945 8.88335
44.7426 8.87872
44.791 8.7967
44.8391 8.8251
44.8875 8.73785
44.9357 8.71609
44.984 8.69171
45.0322 8.66347
45.0806 8.66133
45.1288 8.59002
45.1773 8.57646
45.2257 8.53568
45.2739 8.5346
45.3224 8.46079
45.3706 8.4975
45.4191 8.41175
45.4673 8.40332
45.5158 8.38931
45.5641 8.34209
45.6126 8.33497
45.6609 8.30165
45.7094 8.26678
45.7577 8.23103
45.8063 8.18263
45.8546 8.19288
45.9031 8.16332
45.9515 8.13004
46.0001 8.1259
46.0484 8.05781
46.097 8.07618
46.1454 8.01285
46.194 8.00593
46.2424 7.96419
46.291 7.96525
46.3395 7.88402
46.3881 7.88128
46.4365 7.84774
46.4852 7.81556
46.5337 7.79056
46.5823 7.81148
46.631 7.7353
46.6795 7.70861
46.7282 7.6865
46.7767 7.68141
46.8254 7.63128
46.8739 7.61624
46.9226 7.55682
46.9712 7.56639
47.0199 7.52738
47.0685 7.45471
47.1173 7.4842
47.1658 7.42076
47.2146 7.43777
47.2632 7.36637
47.312 7.35813
47.3606 7.33481
47.4095 7.32254
47.4581 7.29607
47.5069 7.24757
47.5556 7.23747
47.6044 7.17844
47.6531 7.18642
47.702 7.13493
47.7507 7.0856
47.7996 7.11053
47.8483 7.08287
47.8972 7.03135
47.9461 7.02999
47.9948 6.98718
48.0438 7.00666
48.0925 6.94051
48.1415 6.92121
48.1902 6.88222
48.2392 6.90621
48.288 6.86518
48.337 6.81519
48.3858 6.79805
48.4348 6.77904
48.4837 6.75902
48.5327 6.72996
48.5815 6.74714
48.6306 6.67525
48.6795 6.67192
48.7285 6.65831
48.7774 6.60829
48.8265 6.608
48.8754 6.53828
48.9245 6.5442
48.9734 6.53698
49.0226 6.52981
49.0715 6.47831
49.1206 6.42564
49.1696 6.40454
49.2188 6.3989
49.2679 6.39081
49.3169 6.35637
49.3661 6.33563
49.4151 6.32278
49.4643 6.29675
49.5134 6.29055
49.5626 6.23701
49.6117 6.20477
49.6609 6.21371
49.71 6.1847
49.7592 6.13959
49.8083 6.10417
49.8576 6.12642
49.9067 6.09306
49.956 6.07969
50.0052 6.05889
50.0545 6.03233
50.1036 5.98197
50.153 5.97694
50.2022 5.96078
50.2515 5.96543
50.3007 5.88119
50.3501 5.89232
50.3993 5.84868
50.4487 5.85413
50.498 5.826
50.5474 5.82121
50.5966 5.80275
50.6461 5.78706
50.6955 5.75437
50.7448 5.74934
50.7943 5.75552
50.8436 5.69345
50.8931 5.66673
50.9424 5.65589
50.9919 5.61044
51.0413 5.60355
51.0908 5.58436
51.1402 5.58155
51.1897 5.5562
51.2391 5.53567
51.2887 5.49996
51.3381 5.45896
51.3877 5.44161
51.4371 5.4227
51.4867 5.43147
51.5362 5.41562
51.5858 5.39023
51.6353 5.34592
51.6849 5.33011
51.7344 5.30111
51.7841 5.31869
51.8336 5.28385
51.8833 5.23128
51.9328 5.20758
51.9826 5.20006
52.0323 5.17648
52.0818 5.14027
52.1316 5.14955
52.1812 5.12008
52.231 5.09541
52.2806 5.07608
52.3304 5.06013
52.38 5.0661
52.4298 5.01984
52.4794 4.99188
52.5293 4.99695
52.5789 4.92064
52.6288 4.94175
52.6785 4.92461
52.7284 4.9152
52.7781 4.87955
52.828 4.88435
52.8777 4.83979
52.9276 4.82217
52.9774 4.79952
53.0273 4.75981
53.0771 4.80672
53.1271 4.7513
53.1769 4.72575
53.2269 4.70899
53.2767 4.65948
53.3267 4.65386
53.3765 4.68403
53.4266 4.61019
53.4766 4.64251
53.5265 4.58579
53.5765 4.54588
53.6264 4.54826
53.6765 4.52088
53.7264 4.49515
53.7765 4.50917
53.8265 4.46921
53.8766 4.42694
53.9266 4.43992
53.9767 4.38437
54.0267 4.34537
54.0769 4.3718
54.1269 4.33999
54.1771 4.30931
54.2271 4.29586
54.2773 4.23842
54.3274 4.27399
54.3776 4.18059
54.4277 4.15636
54.478 4.18081
54.528 4.11642
54.5783 4.10742
54.6285 4.03637
54.6788 4.01057
54.7289 3.96621
54.7792 3.99561
54.8296 3.8889
54.8798 3.85643
54.9301 3.8493
54.9803 3.82894
55.0307 3.80243
55.0809 3.81722
55.1314 3.76454
55.1816 3.69309
55.232 3.69486
55.2823 3.66074
55.3328 3.58964
55.383 3.55399
55.4335 3.56221
55.4838 3.49628
55.5344 3.49274
55.5847 3.41847
55.6352 3.43437
55.6856 3.39763
55.7361 3.37496