File: XRD/Ni3Fe_FD0372.xy
TT I
1.27165 7.90152
1.31627 6.47043
1.36089 6.63933
1.40551 6.48722
1.45013 6.64751
1.49476 7.137
1.53938 5.74835
1.584 5.96766
1.62863 5.08518
1.67325 5.28667
1.71787 5.37298
1.7625 4.92754
1.80712 5.07184
1.85174 4.47198
1.89636 4.84182
1.94099 5.23603
1.98562 4.77101
2.03025 4.65666
2.07487 5.0655
2.11949 4.53803
2.16411 4.45993
2.20874 10.82
2.25338 15.8861
2.298 5.76428
2.34263 5.85565
2.38725 4.78785
2.43188 5.6503
2.4765 6.21105
2.52115 6.6081
2.56577 6.60489
2.6104 7.2714
2.65503 6.68047
2.69965 7.36227
2.7443 7.64166
2.78893 8.33033
2.83356 8.51805
2.87818 8.36379
2.92281 8.85515
2.96744 9.14512
3.01209 10.4693
3.05672 11.094
3.10135 12.678
3.14599 12.9665
3.19062 14.0116
3.23527 14.8661
3.2799 15.8434
3.32454 16.9197
3.36917 17.9225
3.4138 19.0155
3.45844 19.6681
3.50309 20.9981
3.54773 22.1119
3.59237 23.6632
3.637 66.7558
3.68164 45.498
3.7263 26.0849
3.77094 26.5723
3.81558 27.0813
3.86022 28.1956
3.90486 29.3879
3.9495 30.254
3.99416 30.8173
4.0388 33.1686
4.08344 33.9565
4.12809 35.2125
4.17273 37.3929
4.21738 42.2851
4.26204 170.929
4.30669 147.475
4.35133 47.6049
4.39598 45.3595
4.44063 51.5037
4.4853 59.8139
4.52995 52.7764
4.5746 53.1808
4.61925 54.694
4.6639 57.0927
4.70855 59.6373
4.75322 63.0308
4.79788 65.9477
4.84253 69.2934
4.88719 74.5485
4.93184 78.1223
4.97652 84.2272
5.02118 91.2868
5.06583 100.064
5.11049 113.383
5.15515 173.738
5.19981 527.787
5.24449 3508.27
5.28916 11091.8
5.33382 3526.68
5.37848 228.71
5.42315 139.406
5.46783 121.315
5.5125 111.907
5.55716 106.785
5.60183 102.23
5.6465 100.724
5.69117 98.0826
5.73586 96.6184
5.78053 96.5975
5.8252 96.5363
5.86988 98.0127
5.91455 100.865
5.95924 113.059
6.00392 285.883
6.0486 1236.05
6.09328 4054.61
6.13795 3472.11
6.18263 311.164
6.22733 100.967
6.27201 86.3682
6.3167 94.9101
6.36138 79.028
6.40606 71.8824
6.45075 69.6574
6.49545 67.2585
6.54014 65.3782
6.58483 64.3927
6.62952 64.0662
6.67421 82.9836
6.71892 111.843
6.76361 66.7784
6.8083 60.0523
6.853 58.7735
6.89769 58.0578
6.94239 57.7611
6.98711 57.295
7.03181 57.0248
7.07651 56.1896
7.12121 56.3075
7.16591 56.3891
7.21063 56.392
7.25533 66.5752
7.30004 132.325
7.34475 78.2604
7.38945 57.3137
7.43416 55.447
7.47889 55.2246
7.5236 56.0884
7.56831 56.6745
7.61303 57.9575
7.65774 58.0745
7.70247 57.481
7.74719 57.4625
7.79191 58.3473
7.83663 58.4553
7.88135 59.2805
7.92607 60.3181
7.97081 61.2931
8.01553 62.4006
8.06026 63.9741
8.10498 65.7595
8.14971 72.6256
8.19446 72.2896
8.23919 71.5077
8.28392 74.182
8.32865 76.6184
8.37339 81.1881
8.41812 87.8484
8.46288 112.301
8.50761 202.867
8.55235 479.038
8.59709 1192.37
8.64183 2055.26
8.68658 1121.42
8.73134 197.935
8.77609 105.437
8.82083 96.8245
8.86558 93.2778
8.91033 92.0331
8.9551 92.3024
8.99985 87.336
9.04461 86.2372
9.08936 85.6275
9.13412 84.8421
9.17888 84.3195
9.22365 84.6213
9.26841 84.6463
9.31318 86.019
9.35794 85.6957
9.4027 86.0372
9.44749 86.5235
9.49226 87.2998
9.53703 88.2909
9.5818 90.3638
9.62657 93.9798
9.67134 97.9601
9.71614 95.5382
9.76091 97.0499
9.80569 100.127
9.85047 103.359
9.89525 119.966
9.94005 135.522
9.98484 214.267
10.0296 422.195
10.0744 863.253
10.1192 1549.36
10.164 1650.22
10.2088 523.872
10.2536 142.528
10.2984 116.326
10.3432 114.801
10.388 109.238
10.4328 131.078
10.4776 182.247
10.5224 299.035
10.5672 474.672
10.612 511.821
10.6568 231.264
10.7017 102.638
10.7465 89.6854
10.7913 86.3505
10.8361 83.2814
10.8809 81.1172
10.9257 80.2297
10.9706 80.2371
11.0154 76.8057
11.0602 74.9196
11.105 73.9568
11.1499 75.9832
11.1947 79.8721
11.2395 74.0615
11.2844 71.1023
11.3292 68.9178
11.374 67.7382
11.4189 67.378
11.4637 66.7283
11.5086 66.7254
11.5534 68.3019
11.5983 66.581
11.6431 65.4768
11.688 64.7355
11.7328 64.714
11.7777 64.3914
11.8225 63.8791
11.8674 63.9883
11.9122 64.4165
11.9571 64.7003
12.002 65.7883
12.0468 72.1453
12.0917 85.8304
12.1366 109.746
12.1814 149.996
12.2263 197.815
12.2712 178.197
12.3161 101.88
12.3609 71.3044
12.4058 66.5395
12.4507 66.0171
12.4956 66.0627
12.5405 66.145
12.5853 67.1322
12.6302 72.2055
12.6751 75.6787
12.72 70.939
12.7649 69.7474
12.8098 70.2581
12.8547 71.5946
12.8996 73.2141
12.9445 74.5948
12.9894 76.3056
13.0343 78.2505
13.0792 82.0421
13.1242 95.7249
13.1691 123.437
13.214 165.921
13.2589 247.181
13.3038 345.909
13.3487 413.846
13.3937 296.841
13.4386 139.86
13.4835 115.41
13.5285 133.748
13.5734 173.083
13.6183 245.554
13.6633 322.927
13.7082 343.216
13.7531 216.209
13.7981 107.674
13.843 84.9692
13.888 82.2052
13.9329 79.3993
13.9779 78.2316
14.0228 76.6673
14.0678 75.3808
14.1127 75.0392
14.1577 74.0935
14.2027 73.5158
14.2476 72.6749
14.2926 72.4863
14.3376 72.8015
14.3825 72.0173
14.4275 70.8732
14.4725 70.9979
14.5175 70.9762
14.5624 71.0031
14.6074 72.6442
14.6524 73.0094
14.6974 72.7837
14.7424 75.6112
14.7874 84.3964
14.8324 96.664
14.8774 119.408
14.9224 155.449
14.9674 194.787
15.0124 213.442
15.0574 160.965
15.1024 99.2339
15.1474 75.384
15.1924 72.7056
15.2374 72.5654
15.2824 71.2535
15.3274 69.8047
15.3725 68.4912
15.4175 68.3576
15.4625 67.9627
15.5076 67.9423
15.5526 68.1139
15.5976 68.0227
15.6426 70.1513
15.6877 76.8835
15.7327 86.4023
15.7778 102.424
15.8228 129.564
15.8679 161.643
15.9129 186.199
15.958 166.463
16.003 109.23
16.0481 72.1797
16.0931 65.8201
16.1382 63.9576
16.1833 62.1936
16.2283 60.5949
16.2734 60.1143
16.3185 59.86
16.3636 60.032
16.4086 58.8949
16.4537 57.6997
16.4988 56.8719
16.5439 57.1727
16.589 56.7154
16.6341 56.4624
16.6792 56.0705
16.7243 56.2195
16.7694 56.5392
16.8145 56.3186
16.8596 56.6744
16.9047 57.7169
16.9498 57.8094
16.9949 57.1344
17.04 57.745
17.0851 59.264
17.1302 61.1101
17.1754 64.5325
17.2205 69.3327
17.2656 74.8966
17.3108 81.282
17.3559 83.0588
17.401 74.4918
17.4462 65.3757
17.4913 61.1352
17.5365 60.833
17.5815 61.0337
17.6268 61.4964
17.6718 62.0974
17.7171 62.403
17.7622 63.2703
17.8074 64.0885
17.8525 67.5418
17.8977 71.9882
17.9428 78.223
17.9881 87.4775
18.0331 102.455
18.0784 118.426
18.1237 134.94
18.1688 136.422
18.214 113.891
18.2591 93.0035
18.3044 92.6332
18.3495 98.2766
18.3948 104.271
18.4399 99.2548
18.4852 81.9323
18.5303 68.763
18.5756 64.2775
18.6207 63.148
18.666 62.086
18.7112 61.4742
18.7565 60.7545
18.8016 60.2497
18.8469 59.8558
18.892 59.5533
18.9374 58.9038
18.9825 58.7626
19.0278 58.4357
19.073 58.6969
19.1183 59.4334
19.1635 60.2351
19.2088 61.6922
19.254 64.4134
19.2993 68.0497
19.3447 72.0352
19.3898 75.4589
19.4352 74.288
19.4804 66.5943
19.5257 59.2452
19.5709 55.9566
19.6163 55.4833
19.6615 55.219
19.7068 54.9167
19.752 55.0584
19.7974 55.2464
19.8426 56.2742
19.888 56.9188
19.9332 58.436
19.9786 60.8638
20.0238 63.8078
20.0692 67.5511
20.1144 70.3346
20.1598 70.8781
20.205 66.7222
20.2504 64.0986
20.2957 64.3059
20.3411 65.9091
20.3863 65.9803
20.4318 61.1042
20.477 55.8976
20.5224 53.2096
20.5677 52.4271
20.6131 51.8994
20.6586 51.0259
20.7038 50.9993
20.7493 50.555
20.7945 50.5479
20.84 50.3612
20.8853 50.1917
20.9307 50.1753
20.976 50.2393
21.0215 50.0461
21.0668 50.7082
21.1122 51.0409
21.1575 51.4322
21.203 51.8476
21.2483 52.4215
21.2938 52.9152
21.3391 51.8285
21.3846 50.501
21.4299 50.0159
21.4754 49.8296
21.5207 50.0826
21.5662 50.5347
21.6116 51.1032
21.6571 51.7145
21.7024 52.952
21.7479 54.5413
21.7933 57.0604
21.8388 59.9764
21.8843 62.9361
21.9297 65.1249
21.9752 65.4861
22.0206 62.1015
22.0661 58.5495
22.1115 56.9441
22.157 57.0053
22.2024 56.0898
22.248 53.5508
22.2933 51.3089
22.3389 50.6108
22.3843 50.6034
22.4299 50.2979
22.4753 50.177
22.5208 50.0651
22.5662 49.9884
22.6118 50.2652
22.6572 50.5532
22.7028 51.0048
22.7483 51.4544
22.7939 52.2841
22.8393 53.8508
22.8849 55.5345
22.9303 56.7953
22.9759 58.5615
23.0214 58.6087
23.067 56.6394
23.1126 53.2543
23.1581 50.8168
23.2037 50.2168
23.2492 50.5916
23.2948 50.5046
23.3403 50.8718
23.3859 51.5403
23.4314 52.4982
23.477 53.9279
23.5225 55.739
23.5682 57.3218
23.6137 58.5277
23.6593 57.4946
23.7048 53.8165
23.7505 50.4081
23.796 48.2227
23.8417 47.4678
23.8872 46.9024
23.9329 46.7144
23.9784 46.3127
24.0241 46.039
24.0697 45.8556
24.1154 45.391
24.1609 45.254
24.2066 45.0926
24.2522 45.1092
24.2979 44.6198
24.3434 44.587
24.3892 44.4213
24.4349 44.3108
24.4805 44.1634
24.5262 44.3012
24.5718 44.1694
24.6175 44.1542
24.6631 44.0114
24.7089 43.8414
24.7545 43.6541
24.8002 43.4335
24.8458 43.3986
24.8916 43.3833
24.9372 43.4488
24.983 43.9032
25.0286 44.1134
25.0744 44.5669
25.12 45.0256
25.1658 45.5648
25.2114 45.9765
25.2572 46.0585
25.3029 45.849
25.3487 45.8567
25.3943 45.8549
25.4402 45.133
25.4858 43.9971
25.5316 42.8349
25.5773 42.1098
25.6231 42.223
25.669 41.6534
25.7147 41.7602
25.7605 41.6449
25.8062 41.6109
25.8521 41.9297
25.8977 41.734
25.9436 42.0478
25.9893 42.116
26.0352 42.5301
26.0809 42.4599
26.1268 42.8138
26.1725 42.5944
26.2184 42.0957
26.2641 41.7353
26.31 41.3238
26.3557 41.3337
26.4017 41.3661
26.4474 41.5253
26.4933 41.9725
26.5391 42.3631
26.585 42.6076
26.6308 42.9302
26.6767 43.1778
26.7225 43.1961
26.7684 42.7568
26.8142 42.1036
26.8601 41.6303
26.9059 41.2508
26.9519 40.6521
26.9979 40.4134
27.0437 40.0463
27.0896 39.8974
27.1354 39.9151
27.1814 39.6273
27.2272 39.6452
27.2732 39.6539
27.3191 39.5378
27.3651 39.6371
27.4109 39.5001
27.4569 39.6585
27.5027 39.5878
27.5488 39.7247
27.5946 39.5303
27.6407 39.2616
27.6865 39.2628
27.7326 38.9965
27.7784 38.995
27.8245 38.8912
27.8703 39.2166
27.9164 39.3585
27.9623 39.3939
28.0084 39.7282
28.0543 40.0945
28.1003 40.0988
28.1462 39.9806
28.1923 39.5542
28.2384 38.9579
28.2843 38.6797
28.3304 38.3027
28.3764 37.817
28.4225 37.4962
28.4684 37.2402
28.5145 36.9788
28.5605 36.934
28.6066 36.7067
28.6526 36.7082
28.6987 36.7032
28.7447 36.502
28.7908 36.4185
28.8368 36.4328
28.8829 36.3778
28.9289 36.3287
28.9751 36.1179
29.0211 35.9275
29.0673 35.613
29.1133 35.5296
29.1595 35.5748
29.2055 35.3169
29.2517 35.3469
29.2977 35.2783
29.3439 35.2038
29.3899 35.1069
29.4361 35.1532
29.4824 34.9098
29.5284 34.841
29.5746 34.4473
29.6207 34.2352
29.6669 34.004
29.713 33.9614
29.7593 33.8409
29.8053 33.8241
29.8516 33.6303
29.8977 33.6751
29.9439 33.5466
29.99 33.5219
30.0363 33.4418
30.0824 33.4564
30.1287 33.342
30.1748 33.2672
30.2211 33.312
30.2673 33.0962
30.3136 33.3149
30.3597 33.2073
30.406 33.225
30.4522 32.9698
30.4985 32.9829
30.5447 33.1069
30.591 33.0455
30.6372 32.9964
30.6835 32.9721
30.7297 33.0868
30.7761 33.0351
30.8224 32.9915
30.8686 32.8138
30.915 32.5535
30.9612 32.483
31.0076 32.2219
31.0538 32.1202
31.1002 31.9852
31.1464 31.7999
31.1928 31.8903
31.2391 31.8577
31.2855 31.8427
31.3317 31.7208
31.3781 31.7983
31.4244 31.6857
31.4708 31.5853
31.5171 31.6829
31.5636 31.7118
31.6098 31.3989
31.6563 31.2205
31.7026 31.148
31.7491 31.085
31.7953 31.0491
31.8418 31.1206
31.8881 31.0367
31.9346 30.8835
31.9809 30.7948
32.0275 30.7365
32.074 30.4995
32.1203 30.4675
32.1668 30.3933
32.2132 30.3209
32.2597 30.0968
32.306 29.9497
32.3526 29.7015
32.399 29.7522
32.4455 29.6262
32.4919 29.4405
32.5385 29.4427
32.5848 29.3028
32.6314 29.3402
32.6778 29.1921
32.7244 29.1147
32.7708 28.9523
32.8174 29.0104
32.8638 28.8607
32.9104 28.8168
32.9569 28.6888
33.0035 28.5933
33.0499 28.6722
33.0966 28.6146
33.143 28.5301
33.1897 28.531
33.2361 28.2768
33.2828 28.3677
33.3293 28.1394
33.3759 28.265
33.4226 28.0199
33.4691 27.9156
33.5158 27.7964
33.5623 27.7069
33.609 27.5094
33.6555 27.482
33.7022 27.344
33.7487 27.3092
33.7954 27.2806
33.842 27.0663
33.8887 27.0168
33.9353 27.045
33.982 26.9103
34.0286 26.7943
34.0753 26.6703
34.1219 26.5548
34.1687 26.547
34.2152 26.576
34.262 26.3386
34.3086 26.2547
34.3554 26.2147
34.402 26.0564
34.4488 25.9315
34.4954 25.8707
34.5422 25.8716
34.5889 25.7935
34.6357 25.7112
34.6825 25.6132
34.7292 25.5612
34.776 25.3707
34.8227 25.4279
34.8695 25.2388
34.9162 25.2392
34.9631 25.2864
35.0098 25.1442
35.0566 25.0463
35.1033 24.9479
35.1502 24.9258
35.1969 24.7881
35.2438 24.7919
35.2906 24.7081
35.3375 24.791
35.3842 24.6761
35.4311 24.6077
35.4779 24.5861
35.5248 24.5503
35.5716 24.3096
35.6185 24.3284
35.6653 24.2045
35.7123 24.2267
35.759 24.1435
35.806 24.0519
35.8528 23.9367
35.8998 23.8804
35.9468 23.854
35.9936 23.6931
36.0406 23.5739
36.0874 23.6104
36.1345 23.4451
36.1813 23.4253
36.2283 23.282
36.2752 23.3054
36.3222 23.3003
36.3691 23.1914
36.4161 23.1165
36.463 23.1182
36.5101 22.9931
36.557 22.9394
36.6041 22.7777
36.651 22.7955
36.6981 22.6984
36.745 22.678
36.7921 22.5945
36.839 22.5397
36.8861 22.3572
36.9331 22.4255
36.9802 22.3041
37.0272 22.2549
37.0743 22.0628
37.1213 22.058
37.1684 21.981
37.2154 21.9476
37.2626 21.83
37.3098 21.7956
37.3568 21.6904
37.404 21.7112
37.451 21.5346
37.4982 21.4591
37.5452 21.3727
37.5924 21.2707
37.6395 21.4017
37.6867 21.2925
37.7337 21.203
37.781 21.0706
37.8281 21.0117
37.8753 20.9314
37.9224 20.8675
37.9697 20.8712
38.0168 20.7865
38.064 20.7238
38.1111 20.584
38.1584 20.5205
38.2056 20.5377
38.2529 20.4354
38.3 20.4174
38.3473 20.3609
38.3945 20.2209
38.4418 20.2263
38.489 20.1506
38.5363 20.059
38.5837 20.0353
38.6309 19.8894
38.6782 19.8553
38.7254 19.7881
38.7728 19.8114
38.82 19.6706
38.8674 19.6352
38.9146 19.6058
38.9621 19.5068
39.0093 19.4058
39.0567 19.4048
39.104 19.2988
39.1514 19.2669
39.1987 19.1811
39.2461 19.2016
39.2934 19.0304
39.3409 19.0441
39.3882 18.9629
39.4356 18.8489
39.483 18.8202
39.5304 18.7477
39.5778 18.757
39.6253 18.654
39.6726 18.5332
39.7201 18.5652
39.7675 18.4641
39.815 18.4068
39.8624 18.3175
39.9099 18.3722
39.9575 18.274
40.0049 18.2076
40.0525 18.0974
40.0999 18.0742
40.1474 18.0245
40.1949 17.9113
40.2425 17.872
40.2899 17.8534
40.3375 17.7842
40.385 17.6837
40.4326 17.6575
40.48 17.618
40.5277 17.5585
40.5752 17.4564
40.6228 17.428
40.6703 17.3538
40.718 17.3172
40.7655 17.3022
40.8132 17.165
40.8607 17.1839
40.9084 17.1642
40.9559 17.1109
41.0036 17.0408
41.0512 16.9607
41.0989 16.9193
41.1465 16.7998
41.1942 16.8008
41.242 16.7594
41.2896 16.6652
41.3373 16.5777
41.3849 16.538
41.4327 16.4881
41.4803 16.3989
41.5281 16.3759
41.5758 16.2961
41.6236 16.2653
41.6712 16.1986
41.7191 16.1385
41.7667 16.0621
41.8146 16.0923
41.8622 16.0089
41.9101 15.9686
41.9578 15.8303
42.0057 15.8657
42.0534 15.7777
42.1013 15.7604
42.149 15.7223
42.1969 15.6299
42.2446 15.5834
42.2925 15.5615
42.3403 15.4151
42.3882 15.4539
42.436 15.3862
42.4839 15.2855
42.5319 15.2153
42.5797 15.2017
42.6277 15.2049
42.6755 15.1327
42.7235 15.0252
42.7713 15.0127
42.8193 14.9416
42.8671 14.9071
42.9152 14.9189
42.963 14.8083
43.0111 14.7584
43.0589 14.6622
43.107 14.6844
43.1549 14.6018
43.2029 14.5488
43.2508 14.4706
43.2989 14.4458
43.3468 14.388
43.3949 14.3689
43.4429 14.3018
43.491 14.2213
43.5389 14.2107
43.5871 14.1844
43.635 14.0687
43.6832 14.0642
43.7312 13.9769
43.7793 13.9046
43.8273 13.9092
43.8755 13.8728
43.9237 13.8458
43.9717 13.7804
44.0199 13.7478
44.068 13.6837
44.1162 13.6362
44.1642 13.589
44.2125 13.5381
44.2606 13.4719
44.3088 13.4236
44.3569 13.4024
44.4052 13.3739
44.4533 13.2911
44.5016 13.196
44.5497 13.2114
44.598 13.1908
44.6461 13.1093
44.6945 13.1473
44.7426 12.9921
44.791 13.0066
44.8391 12.9704
44.8875 12.9205
44.9357 12.7917
44.984 12.7886
45.0322 12.7342
45.0806 12.7034
45.1288 12.6589
45.1773 12.6171
45.2257 12.5452
45.2739 12.496
45.3224 12.4776
45.3706 12.4207
45.4191 12.4093
45.4673 12.3935
45.5158 12.2902
45.5641 12.2928
45.6126 12.2258
45.6609 12.1904
45.7094 12.1155
45.7577 12.0567
45.8063 12.018
45.8546 12.0577
45.9031 11.9471
45.9515 11.9302
46.0001 11.9073
46.0484 11.8203
46.097 11.8184
46.1454 11.7848
46.194 11.7114
46.2424 11.6464
46.291 11.6131
46.3395 11.5681
46.3881 11.509
46.4365 11.5225
46.4852 11.4414
46.5337 11.4593
46.5823 11.414
46.631 11.3215
46.6795 11.276
46.7282 11.2936
46.7767 11.2005
46.8254 11.1424
46.8739 11.1106
46.9226 11.0413
46.9712 11.0234
47.0199 10.9644
47.0685 10.9515
47.1173 10.9236
47.1658 10.8205
47.2146 10.8184
47.2632 10.7721
47.312 10.76
47.3606 10.6989
47.4095 10.6234
47.4581 10.6571
47.5069 10.5879
47.5556 10.5902
47.6044 10.5421
47.6531 10.5047
47.702 10.4355
47.7507 10.382
47.7996 10.3443
47.8483 10.2908
47.8972 10.3132
47.9461 10.259
47.9948 10.1997
48.0438 10.1791
48.0925 10.1528
48.1415 10.0917
48.1902 10.0476
48.2392 10.048
48.288 10.0045
48.337 9.9469
48.3858 9.96986
48.4348 9.89748
48.4837 9.86301
48.5327 9.86552
48.5815 9.78447
48.6306 9.75102
48.6795 9.67928
48.7285 9.69485
48.7774 9.61388
48.8265 9.62704
48.8754 9.54791
48.9245 9.51843
48.9734 9.48618
49.0226 9.5068
49.0715 9.43239
49.1206 9.37058
49.1696 9.3222
49.2188 9.33186
49.2679 9.29354
49.3169 9.24506
49.3661 9.22504
49.4151 9.17765
49.4643 9.14384
49.5134 9.09682
49.5626 9.01554
49.6117 9.01654
49.6609 9.00442
49.71 8.95839
49.7592 8.91342
49.8083 8.88177
49.8576 8.85313
49.9067 8.83962
49.956 8.79738
50.0052 8.78297
50.0545 8.77177
50.1036 8.69607
50.153 8.65302
50.2022 8.63736
50.2515 8.60102
50.3007 8.55368
50.3501 8.50172
50.3993 8.45889
50.4487 8.4476
50.498 8.43069
50.5474 8.36898
50.5966 8.33393
50.6461 8.33174
50.6955 8.31087
50.7448 8.27073
50.7943 8.27416
50.8436 8.19421
50.8931 8.17019
50.9424 8.13824
50.9919 8.09448
51.0413 8.06508
51.0908 8.04798
51.1402 8.02397
51.1897 8.00083
51.2391 7.94827
51.2887 7.9295
51.3381 7.86822
51.3877 7.88836
51.4371 7.76416
51.4867 7.78004
51.5362 7.73625
51.5858 7.72103
51.6353 7.67767
51.6849 7.66656
51.7344 7.64398
51.7841 7.62251
51.8336 7.55861
51.8833 7.57013
51.9328 7.49591
51.9826 7.46429
52.0323 7.43831
52.0818 7.40346
52.1316 7.33364
52.1812 7.36936
52.231 7.31472
52.2806 7.29537
52.3304 7.27214
52.38 7.19734
52.4298 7.16994
52.4794 7.1643
52.5293 7.15612
52.5789 7.13582
52.6288 7.07854
52.6785 7.03336
52.7284 7.03143
52.7781 6.99258
52.828 6.93191
52.8777 6.95516
52.9276 6.88378
52.9774 6.84308
53.0273 6.86891
53.0771 6.83639
53.1271 6.78723
53.1769 6.76114
53.2269 6.74469
53.2767 6.68057
53.3267 6.68021
53.3765 6.66873
53.4266 6.61714
53.4766 6.57493
53.5265 6.51689
53.5765 6.52902
53.6264 6.50604
53.6765 6.42705
53.7264 6.43758
53.7765 6.40501
53.8265 6.35842
53.8766 6.34901
53.9266 6.35257
53.9767 6.29977
54.0267 6.28029
54.0769 6.21784
54.1269 6.21875
54.1771 6.16328
54.2271 6.15002
54.2773 6.11206
54.3274 6.10922
54.3776 6.01602
54.4277 6.03865
54.478 6.03682
54.528 5.97264
54.5783 5.9424
54.6285 5.89828
54.6788 5.81662
54.7289 5.78796
54.7792 5.72739
54.8296 5.71837
54.8798 5.63339
54.9301 5.56751
54.9803 5.62924
55.0307 5.5666
55.0809 5.49594
55.1314 5.51847
55.1816 5.43492
55.232 5.3338
55.2823 5.38423
55.3328 5.23774
55.383 5.23471
55.4335 5.15818
55.4838 5.19753
55.5344 5.07459
55.5847 5.0495
55.6352 5.0513
55.6856 4.98388
55.7361 4.96525