File: XRD/Ni3Fe_FD0277.xy
TT I
1.27165 8.0488
1.31627 7.21023
1.36089 7.26604
1.40551 6.07213
1.45013 6.46438
1.49476 6.68011
1.53938 5.5421
1.584 5.78166
1.62863 5.529
1.67325 5.61251
1.71787 5.19662
1.7625 5.03998
1.80712 5.02258
1.85174 4.63664
1.89636 4.84953
1.94099 5.22774
1.98562 5.1438
2.03025 4.53764
2.07487 4.39025
2.11949 4.81924
2.16411 4.91962
2.20874 14.4297
2.25338 23.3824
2.298 5.54879
2.34263 5.17656
2.38725 4.87157
2.43188 4.73925
2.4765 5.75242
2.52115 5.23279
2.56577 6.7366
2.6104 6.72328
2.65503 6.37906
2.69965 6.33684
2.7443 6.95143
2.78893 7.53477
2.83356 7.55247
2.87818 7.70137
2.92281 8.66198
2.96744 9.84689
3.01209 9.89793
3.05672 11.199
3.10135 11.9928
3.14599 12.5761
3.19062 14.4082
3.23527 14.7662
3.2799 16.107
3.32454 16.8213
3.36917 17.4345
3.4138 19.243
3.45844 20.6276
3.50309 21.4744
3.54773 22.197
3.59237 24.4643
3.637 93.7942
3.68164 60.0616
3.7263 26.9963
3.77094 26.9901
3.81558 27.315
3.86022 28.4577
3.90486 29.8559
3.9495 30.6819
3.99416 31.7589
4.0388 33.3314
4.08344 34.875
4.12809 36.0335
4.17273 38.4388
4.21738 45.253
4.26204 250.093
4.30669 224.864
4.35133 50.9306
4.39598 45.9904
4.44063 55.0425
4.4853 67.1292
4.52995 53.796
4.5746 53.5086
4.61925 55.5749
4.6639 57.3684
4.70855 60.328
4.75322 63.1083
4.79788 66.7473
4.84253 69.8649
4.88719 74.5671
4.93184 78.815
4.97652 84.6212
5.02118 92.1329
5.06583 101.269
5.11049 116.323
5.15515 198.426
5.19981 520.757
5.24449 3336.56
5.28916 10755.0
5.33382 4155.21
5.37848 269.063
5.42315 148.305
5.46783 125.719
5.5125 114.581
5.55716 108.652
5.60183 104.455
5.6465 102.397
5.69117 99.8788
5.73586 97.5583
5.78053 98.4578
5.8252 97.8002
5.86988 99.171
5.91455 102.591
5.95924 115.094
6.00392 270.217
6.0486 1149.87
6.09328 3716.86
6.13795 3691.06
6.18263 384.886
6.22733 107.636
6.27201 90.5187
6.3167 107.603
6.36138 84.689
6.40606 72.6427
6.45075 70.6293
6.49545 68.3924
6.54014 66.4105
6.58483 65.5163
6.62952 65.3856
6.67421 95.4853
6.71892 148.835
6.76361 71.5094
6.8083 61.2729
6.853 59.8867
6.89769 59.1012
6.94239 58.4771
6.98711 58.325
7.03181 57.8714
7.07651 57.261
7.12121 56.9948
7.16591 57.8089
7.21063 58.1264
7.25533 72.3211
7.30004 184.671
7.34475 96.0275
7.38945 58.6355
7.43416 56.74
7.47889 56.5531
7.5236 56.5708
7.56831 57.5984
7.61303 59.1196
7.65774 59.8023
7.70247 58.3171
7.74719 58.4599
7.79191 58.9053
7.83663 59.3514
7.88135 60.3056
7.92607 61.0203
7.97081 61.9337
8.01553 62.9831
8.06026 64.714
8.10498 66.3179
8.14971 76.396
8.19446 75.7148
8.23919 72.4784
8.28392 75.1589
8.32865 77.385
8.37339 82.1269
8.41812 89.9046
8.46288 121.662
8.50761 195.764
8.55235 469.182
8.59709 1065.91
8.64183 2050.0
8.68658 1251.67
8.73134 231.036
8.77609 109.177
8.82083 98.6763
8.86558 94.692
8.91033 94.6349
8.9551 95.9034
8.99985 89.2092
9.04461 87.1472
9.08936 86.9258
9.13412 85.5799
9.17888 84.9576
9.22365 86.102
9.26841 85.5341
9.31318 86.4214
9.35794 86.59
9.4027 86.6937
9.44749 87.8803
9.49226 88.2394
9.53703 89.0535
9.5818 91.2493
9.62657 96.2785
9.67134 103.263
9.71614 97.8338
9.76091 98.1705
9.80569 101.194
9.85047 104.934
9.89525 129.11
9.94005 144.882
9.98484 204.745
10.0296 415.611
10.0744 762.386
10.1192 1487.72
10.164 1751.57
10.2088 607.592
10.2536 154.05
10.2984 121.433
10.3432 121.492
10.388 111.007
10.4328 129.581
10.4776 181.17
10.5224 268.028
10.5672 451.825
10.612 535.031
10.6568 261.706
10.7017 108.28
10.7465 91.4833
10.7913 87.1778
10.8361 84.5282
10.8809 82.1769
10.9257 81.8162
10.9706 82.4623
11.0154 78.3642
11.0602 75.8042
11.105 74.9653
11.1499 79.2263
11.1947 87.0932
11.2395 77.5838
11.2844 73.497
11.3292 70.2182
11.374 68.9152
11.4189 68.3745
11.4637 67.2901
11.5086 67.9648
11.5534 71.1417
11.5983 68.5093
11.6431 66.2153
11.688 65.5509
11.7328 65.4634
11.7777 65.5681
11.8225 65.2568
11.8674 65.0756
11.9122 65.1757
11.9571 65.3674
12.002 66.666
12.0468 71.9754
12.0917 86.3032
12.1366 104.703
12.1814 140.634
12.2263 196.429
12.2712 189.132
12.3161 115.417
12.3609 75.4279
12.4058 67.9436
12.4507 67.2231
12.4956 67.2148
12.5405 67.2511
12.5853 68.0852
12.6302 76.1312
12.6751 81.9554
12.72 73.3813
12.7649 71.0165
12.8098 71.2238
12.8547 72.4739
12.8996 74.1106
12.9445 75.1721
12.9894 77.551
13.0343 78.9951
13.0792 82.545
13.1242 93.7469
13.1691 124.799
13.214 160.702
13.2589 222.401
13.3038 329.556
13.3487 431.065
13.3937 323.558
13.4386 152.349
13.4835 115.788
13.5285 134.914
13.5734 163.412
13.6183 223.988
13.6633 319.595
13.7082 360.529
13.7531 236.971
13.7981 115.293
13.843 86.7986
13.888 83.506
13.9329 80.6805
13.9779 79.2019
14.0228 77.7873
14.0678 76.2571
14.1127 75.78
14.1577 75.5222
14.2027 74.5752
14.2476 73.6787
14.2926 73.5902
14.3376 74.6907
14.3825 73.3755
14.4275 71.7436
14.4725 71.686
14.5175 71.5051
14.5624 71.8899
14.6074 74.1633
14.6524 74.5525
14.6974 73.7563
14.7424 75.6608
14.7874 84.1839
14.8324 97.6293
14.8774 113.726
14.9224 143.341
14.9674 189.89
15.0124 220.741
15.0574 173.544
15.1024 105.915
15.1474 77.2524
15.1924 73.8132
15.2374 74.1736
15.2824 73.3333
15.3274 71.3936
15.3725 69.7566
15.4175 69.341
15.4625 69.1171
15.5076 68.9137
15.5526 69.0851
15.5976 68.5777
15.6426 69.9769
15.6877 77.1917
15.7327 87.5553
15.7778 98.435
15.8228 119.853
15.8679 155.376
15.9129 190.62
15.958 177.45
16.003 115.665
16.0481 75.0011
16.0931 67.8972
16.1382 65.7772
16.1833 63.4765
16.2283 61.7102
16.2734 60.9022
16.3185 61.1824
16.3636 61.9503
16.4086 60.3997
16.4537 58.7294
16.4988 57.861
16.5439 57.9236
16.589 57.4378
16.6341 57.3093
16.6792 56.9183
16.7243 57.1485
16.7694 57.3935
16.8145 57.1179
16.8596 57.6535
16.9047 59.2497
16.9498 59.4816
16.9949 58.1127
17.04 58.3818
17.0851 59.8104
17.1302 61.7194
17.1754 64.6556
17.2205 68.0622
17.2656 74.0019
17.3108 81.9032
17.3559 85.9677
17.401 78.0122
17.4462 67.159
17.4913 62.1958
17.5365 61.5932
17.5815 61.8549
17.6268 61.922
17.6718 62.7401
17.7171 63.4068
17.7622 64.1645
17.8074 64.5259
17.8525 67.3548
17.8977 72.5249
17.9428 79.0289
17.9881 85.1709
18.0331 97.1722
18.0784 114.84
18.1237 136.824
18.1688 141.896
18.214 118.751
18.2591 93.6612
18.3044 90.3222
18.3495 98.0016
18.3948 107.664
18.4399 103.952
18.4852 86.0447
18.5303 71.1211
18.5756 65.1491
18.6207 64.1462
18.666 63.1104
18.7112 62.4369
18.7565 61.6916
18.8016 61.2215
18.8469 60.6719
18.892 60.2669
18.9374 59.6146
18.9825 59.428
19.0278 59.3335
19.073 59.5256
19.1183 60.0385
19.1635 61.3875
19.2088 62.5985
19.254 63.8496
19.2993 67.0236
19.3447 72.3847
19.3898 77.7074
19.4352 77.0612
19.4804 69.0375
19.5257 61.0296
19.5709 57.0373
19.6163 56.1546
19.6615 56.0782
19.7068 55.6318
19.752 55.6953
19.7974 55.9447
19.8426 57.0089
19.888 57.8055
19.9332 58.939
19.9786 60.4586
20.0238 63.1018
20.0692 67.4901
20.1144 71.6362
20.1598 72.299
20.205 67.6107
20.2504 64.4396
20.2957 64.8488
20.3411 66.9836
20.3863 67.6129
20.4318 62.6541
20.477 57.0187
20.5224 54.2762
20.5677 53.3058
20.6131 52.5698
20.6586 51.7667
20.7038 51.6811
20.7493 51.1461
20.7945 51.0431
20.84 50.8994
20.8853 50.7359
20.9307 50.6728
20.976 50.8329
21.0215 50.6325
21.0668 51.1981
21.1122 51.4181
21.1575 51.8776
21.203 52.6811
21.2483 53.2676
21.2938 53.7871
21.3391 52.7686
21.3846 51.3479
21.4299 50.6327
21.4754 50.4729
21.5207 50.8437
21.5662 50.9146
21.6116 51.3447
21.6571 52.3427
21.7024 53.4111
21.7479 54.657
21.7933 56.5742
21.8388 59.5627
21.8843 63.2051
21.9297 66.2285
21.9752 66.9833
22.0206 63.5462
22.0661 59.1351
22.1115 57.9357
22.157 58.002
22.2024 57.2877
22.248 54.5106
22.2933 52.5948
22.3389 51.4604
22.3843 51.0874
22.4299 50.9004
22.4753 51.003
22.5208 50.6357
22.5662 50.5053
22.6118 50.7725
22.6572 51.013
22.7028 51.4695
22.7483 52.0166
22.7939 52.3662
22.8393 53.5975
22.8849 55.0816
22.9303 57.0214
22.9759 59.1737
23.0214 59.8659
23.067 58.062
23.1126 54.5087
23.1581 51.8649
23.2037 51.0205
23.2492 50.9423
23.2948 51.0368
23.3403 51.5201
23.3859 51.9706
23.4314 52.547
23.477 53.9194
23.5225 55.3932
23.5682 57.7076
23.6137 59.6557
23.6593 58.7566
23.7048 55.0594
23.7505 51.2203
23.796 48.8837
23.8417 48.1577
23.8872 47.4918
23.9329 47.147
23.9784 46.872
24.0241 46.5119
24.0697 46.2747
24.1154 46.087
24.1609 46.0038
24.2066 45.6725
24.2522 45.6515
24.2979 45.2974
24.3434 45.2361
24.3892 45.0415
24.4349 44.9013
24.4805 44.6757
24.5262 44.7153
24.5718 44.4986
24.6175 44.6708
24.6631 44.5963
24.7089 44.3796
24.7545 44.1946
24.8002 44.1258
24.8458 44.0144
24.8916 43.8255
24.9372 44.0009
24.983 44.2696
25.0286 44.5293
25.0744 44.9334
25.12 45.2246
25.1658 45.9295
25.2114 46.2575
25.2572 46.4428
25.3029 46.3499
25.3487 46.5012
25.3943 46.3559
25.4402 45.7153
25.4858 44.7847
25.5316 43.4387
25.5773 42.8018
25.6231 42.6948
25.669 42.2172
25.7147 42.2573
25.7605 42.1099
25.8062 42.19
25.8521 42.3536
25.8977 42.3629
25.9436 42.4927
25.9893 42.4876
26.0352 42.9558
26.0809 42.8648
26.1268 43.4322
26.1725 43.2441
26.2184 42.7318
26.2641 42.2025
26.31 42.0135
26.3557 41.9784
26.4017 41.8579
26.4474 42.0303
26.4933 42.2777
26.5391 42.8338
26.585 42.9977
26.6308 43.366
26.6767 43.6871
26.7225 43.7557
26.7684 43.3827
26.8142 42.5825
26.8601 42.2175
26.9059 41.8073
26.9519 41.292
26.9979 40.9957
27.0437 40.5777
27.0896 40.335
27.1354 40.415
27.1814 40.1504
27.2272 40.1665
27.2732 40.1416
27.3191 40.0322
27.3651 40.0872
27.4109 39.9759
27.4569 40.0075
27.5027 40.0201
27.5488 40.0969
27.5946 39.8567
27.6407 39.8861
27.6865 39.7111
27.7326 39.5068
27.7784 39.4782
27.8245 39.342
27.8703 39.508
27.9164 39.7516
27.9623 39.8484
28.0084 40.205
28.0543 40.422
28.1003 40.5468
28.1462 40.4874
28.1923 40.0844
28.2384 39.5177
28.2843 39.205
28.3304 38.8802
28.3764 38.39
28.4225 38.109
28.4684 37.7948
28.5145 37.6446
28.5605 37.4768
28.6066 37.107
28.6526 37.1243
28.6987 37.1173
28.7447 37.0167
28.7908 36.9083
28.8368 36.9202
28.8829 36.8439
28.9289 36.7147
28.9751 36.5491
29.0211 36.4849
29.0673 36.1952
29.1133 36.0424
29.1595 35.8505
29.2055 35.6838
29.2517 35.7149
29.2977 35.5733
29.3439 35.6115
29.3899 35.6245
29.4361 35.4545
29.4824 35.412
29.5284 35.1988
29.5746 34.8585
29.6207 34.5903
29.6669 34.5621
29.713 34.3591
29.7593 34.2281
29.8053 34.2195
29.8516 34.216
29.8977 34.17
29.9439 34.027
29.99 33.9067
30.0363 33.7937
30.0824 33.8022
30.1287 33.6738
30.1748 33.7345
30.2211 33.683
30.2673 33.5212
30.3136 33.7775
30.3597 33.555
30.406 33.5424
30.4522 33.4322
30.4985 33.3569
30.5447 33.4797
30.591 33.3024
30.6372 33.4287
30.6835 33.3257
30.7297 33.6029
30.7761 33.4421
30.8224 33.3301
30.8686 33.2257
30.915 32.9893
30.9612 32.8024
31.0076 32.5712
31.0538 32.4292
31.1002 32.3466
31.1464 32.2014
31.1928 32.1997
31.2391 32.2559
31.2855 32.1272
31.3317 32.1461
31.3781 32.0691
31.4244 32.1796
31.4708 32.0391
31.5171 32.0844
31.5636 32.0273
31.6098 31.8213
31.6563 31.7209
31.7026 31.5374
31.7491 31.3616
31.7953 31.4624
31.8418 31.3003
31.8881 31.4068
31.9346 31.3015
31.9809 31.2898
32.0275 31.212
32.074 31.0868
32.1203 30.8952
32.1668 30.8795
32.2132 30.5806
32.2597 30.511
32.306 30.3651
32.3526 30.1989
32.399 30.1653
32.4455 29.9668
32.4919 29.8606
32.5385 29.8146
32.5848 29.7272
32.6314 29.6093
32.6778 29.5836
32.7244 29.468
32.7708 29.2771
32.8174 29.3046
32.8638 29.0652
32.9104 29.1703
32.9569 29.2021
33.0035 28.9708
33.0499 29.028
33.0966 28.9033
33.143 28.8947
33.1897 28.7963
33.2361 28.68
33.2828 28.7643
33.3293 28.4809
33.3759 28.5893
33.4226 28.3549
33.4691 28.2679
33.5158 28.1613
33.5623 28.0831
33.609 27.9079
33.6555 27.7716
33.7022 27.6184
33.7487 27.6509
33.7954 27.5912
33.842 27.4553
33.8887 27.3954
33.9353 27.4235
33.982 27.331
34.0286 27.2151
34.0753 27.1207
34.1219 26.959
34.1687 26.9017
34.2152 26.8436
34.262 26.6302
34.3086 26.5912
34.3554 26.5635
34.402 26.4778
34.4488 26.3595
34.4954 26.2697
34.5422 26.2843
34.5889 26.1912
34.6357 26.0143
34.6825 25.9816
34.7292 25.8086
34.776 25.7009
34.8227 25.6797
34.8695 25.679
34.9162 25.6327
34.9631 25.5029
35.0098 25.5106
35.0566 25.4641
35.1033 25.3051
35.1502 25.2474
35.1969 25.2524
35.2438 25.1376
35.2906 25.0709
35.3375 25.0036
35.3842 24.9579
35.4311 24.9143
35.4779 24.9199
35.5248 24.8225
35.5716 24.723
35.6185 24.6882
35.6653 24.6878
35.7123 24.491
35.759 24.4037
35.806 24.2536
35.8528 24.2345
35.8998 24.1407
35.9468 24.0679
35.9936 24.0663
36.0406 23.8985
36.0874 23.8823
36.1345 23.8662
36.1813 23.7342
36.2283 23.6131
36.2752 23.6144
36.3222 23.646
36.3691 23.4163
36.4161 23.3811
36.463 23.3649
36.5101 23.3281
36.557 23.3442
36.6041 23.129
36.651 23.1106
36.6981 23.0536
36.745 22.956
36.7921 22.9436
36.839 22.7394
36.8861 22.7356
36.9331 22.66
36.9802 22.5878
37.0272 22.4998
37.0743 22.392
37.1213 22.3017
37.1684 22.3034
37.2154 22.2016
37.2626 22.1204
37.3098 22.0844
37.3568 22.0164
37.404 21.9651
37.451 21.8685
37.4982 21.8759
37.5452 21.7351
37.5924 21.6417
37.6395 21.6695
37.6867 21.5766
37.7337 21.4637
37.781 21.3564
37.8281 21.3566
37.8753 21.3152
37.9224 21.1234
37.9697 21.1427
38.0168 21.0728
38.064 20.9581
38.1111 20.9417
38.1584 20.8127
38.2056 20.776
38.2529 20.6821
38.3 20.7473
38.3473 20.6209
38.3945 20.4916
38.4418 20.4879
38.489 20.4624
38.5363 20.2799
38.5837 20.2409
38.6309 20.1869
38.6782 20.1325
38.7254 20.0494
38.7728 19.9633
38.82 19.8957
38.8674 19.8926
38.9146 19.8665
38.9621 19.7746
39.0093 19.758
39.0567 19.6903
39.104 19.5735
39.1514 19.4618
39.1987 19.453
39.2461 19.3756
39.2934 19.3676
39.3409 19.2274
39.3882 19.0953
39.4356 19.1865
39.483 19.0716
39.5304 19.0021
39.5778 18.9732
39.6253 18.9126
39.6726 18.8308
39.7201 18.7891
39.7675 18.8036
39.815 18.6302
39.8624 18.5876
39.9099 18.5894
39.9575 18.4322
40.0049 18.4517
40.0525 18.38
40.0999 18.3457
40.1474 18.3002
40.1949 18.1887
40.2425 18.1076
40.2899 18.0938
40.3375 18.0314
40.385 18.022
40.4326 17.8863
40.48 17.8029
40.5277 17.7962
40.5752 17.7497
40.6228 17.6873
40.6703 17.5984
40.718 17.5986
40.7655 17.548
40.8132 17.4813
40.8607 17.4076
40.9084 17.3688
40.9559 17.2914
41.0036 17.3145
41.0512 17.1932
41.0989 17.1757
41.1465 17.0848
41.1942 17.0288
41.242 16.9726
41.2896 16.9014
41.3373 16.8403
41.3849 16.7515
41.4327 16.7323
41.4803 16.6311
41.5281 16.598
41.5758 16.5082
41.6236 16.4581
41.6712 16.4529
41.7191 16.329
41.7667 16.3605
41.8146 16.2879
41.8622 16.2684
41.9101 16.2051
41.9578 16.0838
42.0057 16.0581
42.0534 16.0192
42.1013 16.0013
42.149 15.9258
42.1969 15.8491
42.2446 15.7711
42.2925 15.7563
42.3403 15.745
42.3882 15.683
42.436 15.5945
42.4839 15.5059
42.5319 15.5433
42.5797 15.4032
42.6277 15.4129
42.6755 15.3193
42.7235 15.2426
42.7713 15.2365
42.8193 15.1642
42.8671 15.1508
42.9152 15.0711
42.963 14.9714
43.0111 14.9822
43.0589 14.9262
43.107 14.8757
43.1549 14.831
43.2029 14.7254
43.2508 14.768
43.2989 14.6613
43.3468 14.6243
43.3949 14.5135
43.4429 14.5198
43.491 14.485
43.5389 14.3806
43.5871 14.364
43.635 14.2846
43.6832 14.2249
43.7312 14.2111
43.7793 14.1917
43.8273 14.0918
43.8755 14.072
43.9237 14.0429
43.9717 13.9647
44.0199 13.937
44.068 13.8473
44.1162 13.8102
44.1642 13.7795
44.2125 13.757
44.2606 13.6723
44.3088 13.5897
44.3569 13.5505
44.4052 13.5573
44.4533 13.4854
44.5016 13.4138
44.5497 13.3652
44.598 13.3467
44.6461 13.2534
44.6945 13.215
44.7426 13.2289
44.791 13.1265
44.8391 13.0906
44.8875 13.091
44.9357 13.0333
44.984 12.9628
45.0322 12.9716
45.0806 12.8691
45.1288 12.8384
45.1773 12.8046
45.2257 12.7356
45.2739 12.7293
45.3224 12.6485
45.3706 12.6106
45.4191 12.5603
45.4673 12.5653
45.5158 12.4824
45.5641 12.4489
45.6126 12.3812
45.6609 12.3522
45.7094 12.2865
45.7577 12.2371
45.8063 12.18
45.8546 12.2277
45.9031 12.0924
45.9515 12.1173
46.0001 12.0478
46.0484 12.0316
46.097 11.9454
46.1454 11.9219
46.194 11.8978
46.2424 11.8545
46.291 11.7655
46.3395 11.6972
46.3881 11.6764
46.4365 11.6628
46.4852 11.6356
46.5337 11.5348
46.5823 11.5051
46.631 11.4571
46.6795 11.448
46.7282 11.44
46.7767 11.3852
46.8254 11.304
46.8739 11.2664
46.9226 11.2589
46.9712 11.203
47.0199 11.1505
47.0685 11.0985
47.1173 11.0689
47.1658 11.0079
47.2146 10.9971
47.2632 10.9176
47.312 10.9012
47.3606 10.8361
47.4095 10.8143
47.4581 10.8026
47.5069 10.7576
47.5556 10.6634
47.6044 10.6028
47.6531 10.6296
47.702 10.5876
47.7507 10.5707
47.7996 10.4627
47.8483 10.4589
47.8972 10.4184
47.9461 10.4166
47.9948 10.3402
48.0438 10.3063
48.0925 10.2928
48.1415 10.2415
48.1902 10.1967
48.2392 10.2167
48.288 10.1451
48.337 10.1237
48.3858 10.0445
48.4348 10.0556
48.4837 10.0054
48.5327 10.0024
48.5815 9.89617
48.6306 9.89951
48.6795 9.8339
48.7285 9.81204
48.7774 9.80825
48.8265 9.74616
48.8754 9.69314
48.9245 9.65413
48.9734 9.63897
49.0226 9.59108
49.0715 9.56937
49.1206 9.49145
49.1696 9.46435
49.2188 9.44197
49.2679 9.42089
49.3169 9.37086
49.3661 9.324
49.4151 9.28501
49.4643 9.26486
49.5134 9.1953
49.5626 9.17666
49.6117 9.15413
49.6609 9.14112
49.71 9.05426
49.7592 9.09108
49.8083 8.97539
49.8576 8.98248
49.9067 8.95891
49.956 8.93086
50.0052 8.90272
50.0545 8.8633
50.1036 8.79747
50.153 8.75899
50.2022 8.72968
50.2515 8.64811
50.3007 8.67449
50.3501 8.64485
50.3993 8.63922
50.4487 8.58293
50.498 8.52905
50.5474 8.51177
50.5966 8.4611
50.6461 8.42342
50.6955 8.39802
50.7448 8.39175
50.7943 8.35596
50.8436 8.31778
50.8931 8.28166
50.9424 8.23627
50.9919 8.20277
51.0413 8.21035
51.0908 8.13689
51.1402 8.08764
51.1897 8.10268
51.2391 8.08157
51.2887 8.01021
51.3381 7.96368
51.3877 7.92487
51.4371 7.89887
51.4867 7.89023
51.5362 7.8556
51.5858 7.83416
51.6353 7.7765
51.6849 7.74302
51.7344 7.69349
51.7841 7.68177
51.8336 7.61984
51.8833 7.66198
51.9328 7.58121
51.9826 7.51167
52.0323 7.51917
52.0818 7.48712
52.1316 7.45598
52.1812 7.45884
52.231 7.42396
52.2806 7.38852
52.3304 7.38041
52.38 7.31591
52.4298 7.28099
52.4794 7.27353
52.5293 7.20359
52.5789 7.16502
52.6288 7.15351
52.6785 7.09864
52.7284 7.11246
52.7781 7.07105
52.828 7.02215
52.8777 7.00158
52.9276 6.96701
52.9774 7.00727
53.0273 6.96377
53.0771 6.88643
53.1271 6.87795
53.1769 6.82639
53.2269 6.80093
53.2767 6.7655
53.3267 6.71426
53.3765 6.73885
53.4266 6.70632
53.4766 6.68075
53.5265 6.62548
53.5765 6.58082
53.6264 6.55227
53.6765 6.57085
53.7264 6.57015
53.7765 6.48732
53.8265 6.45929
53.8766 6.44743
53.9266 6.44729
53.9767 6.36568
54.0267 6.3884
54.0769 6.29075
54.1269 6.27021
54.1771 6.24373
54.2271 6.21255
54.2773 6.18609
54.3274 6.16289
54.3776 6.12642
54.4277 6.11812
54.478 6.04797
54.528 5.9743
54.5783 6.00074
54.6285 5.92517
54.6788 5.87385
54.7289 5.82852
54.7792 5.81374
54.8296 5.71465
54.8798 5.7313
54.9301 5.65674
54.9803 5.65285
55.0307 5.60954
55.0809 5.60933
55.1314 5.54918
55.1816 5.48345
55.232 5.4207
55.2823 5.35972
55.3328 5.35936
55.383 5.32556
55.4335 5.27503
55.4838 5.1608
55.5344 5.14614
55.5847 5.10697
55.6352 5.09676
55.6856 4.97761
55.7361 4.92907