File: XRD/Ni3Fe_FD0014.xy
TT I
1.27165 35.7985
1.31627 36.2673
1.36089 35.2936
1.40551 31.8587
1.45013 32.2819
1.49476 30.6296
1.53938 29.8269
1.584 28.8685
1.62863 28.6013
1.67325 27.3218
1.71787 26.6465
1.7625 26.2282
1.80712 25.704
1.85174 26.2802
1.89636 25.7817
1.94099 25.5989
1.98562 25.1989
2.03025 25.1416
2.07487 25.5706
2.11949 25.9181
2.16411 25.9952
2.20874 26.5377
2.25338 27.1301
2.298 27.559
2.34263 26.2547
2.38725 26.374
2.43188 26.5981
2.4765 25.6629
2.52115 26.4173
2.56577 27.0306
2.6104 28.1367
2.65503 28.7829
2.69965 30.0894
2.7443 31.5323
2.78893 34.0757
2.83356 35.9507
2.87818 39.2462
2.92281 44.3482
2.96744 50.2715
3.01209 58.6214
3.05672 66.2817
3.10135 76.576
3.14599 83.2045
3.19062 85.4833
3.23527 80.1955
3.2799 69.5007
3.32454 58.6619
3.36917 50.4303
3.4138 44.0491
3.45844 41.082
3.50309 40.0168
3.54773 38.9928
3.59237 39.4996
3.637 40.1216
3.68164 40.8217
3.7263 42.0835
3.77094 41.1956
3.81558 41.2716
3.86022 41.2499
3.90486 41.5714
3.9495 42.9648
3.99416 44.576
4.0388 47.0922
4.08344 50.3802
4.12809 54.233
4.17273 59.691
4.21738 66.536
4.26204 73.476
4.30669 77.9577
4.35133 79.2034
4.39598 76.0124
4.44063 71.0609
4.4853 67.2687
4.52995 62.8962
4.5746 58.9957
4.61925 56.0457
4.6639 53.6703
4.70855 53.3316
4.75322 54.182
4.79788 56.0451
4.84253 58.9747
4.88719 63.2797
4.93184 68.7465
4.97652 77.1835
5.02118 90.1514
5.06583 113.856
5.11049 135.677
5.15515 173.485
5.19981 256.85
5.24449 503.915
5.28916 1041.46
5.33382 2772.16
5.37848 4010.84
5.42315 1401.48
5.46783 409.043
5.5125 226.157
5.55716 161.972
5.60183 128.396
5.6465 113.185
5.69117 106.062
5.73586 100.322
5.78053 96.6173
5.8252 95.2911
5.86988 99.4037
5.91455 108.619
5.95924 124.948
6.00392 162.303
6.0486 248.069
6.09328 418.887
6.13795 722.033
6.18263 1269.1
6.22733 861.41
6.27201 350.13
6.3167 178.874
6.36138 113.734
6.40606 86.5483
6.45075 73.5641
6.49545 65.5043
6.54014 59.6761
6.58483 56.8434
6.62952 55.0149
6.67421 54.0485
6.71892 53.7955
6.76361 53.2619
6.8083 52.4746
6.853 51.4775
6.89769 50.4094
6.94239 48.538
6.98711 48.2213
7.03181 47.9786
7.07651 48.4892
7.12121 49.13
7.16591 51.4828
7.21063 53.4036
7.25533 57.0296
7.30004 63.2765
7.34475 69.6627
7.38945 71.0683
7.43416 66.5367
7.47889 62.5508
7.5236 63.5045
7.56831 94.624
7.61303 166.093
7.65774 94.0998
7.70247 50.9559
7.74719 44.0029
7.79191 41.4809
7.83663 40.0912
7.88135 39.4944
7.92607 39.5678
7.97081 39.3309
8.01553 39.8169
8.06026 39.9814
8.10498 40.6531
8.14971 41.7143
8.19446 42.9818
8.23919 44.451
8.28392 46.4678
8.32865 47.8703
8.37339 51.4385
8.41812 55.6444
8.46288 62.353
8.50761 73.224
8.55235 95.0941
8.59709 145.82
8.64183 201.552
8.68658 324.908
8.73134 664.716
8.77609 732.602
8.82083 342.008
8.86558 155.56
8.91033 101.94
8.9551 80.0013
8.99985 70.8339
9.04461 65.0657
9.08936 61.2064
9.13412 58.9932
9.17888 59.5581
9.22365 65.5297
9.26841 109.269
9.31318 246.871
9.35794 187.613
9.4027 76.5152
9.44749 56.6022
9.49226 52.3934
9.53703 50.6116
9.5818 50.1848
9.62657 50.4567
9.67134 50.9051
9.71614 51.6506
9.76091 52.7443
9.80569 54.649
9.85047 56.6684
9.89525 60.2319
9.94005 65.2713
9.98484 73.7786
10.0296 90.2162
10.0744 125.666
10.1192 171.45
10.164 218.496
10.2088 403.353
10.2536 767.88
10.2984 676.878
10.3432 308.829
10.388 147.326
10.4328 100.102
10.4776 83.6728
10.5224 82.9366
10.5672 89.2504
10.612 95.751
10.6568 132.331
10.7017 243.715
10.7465 293.703
10.7913 178.668
10.8361 85.1521
10.8809 57.1794
10.9257 49.1245
10.9706 45.8221
11.0154 43.9341
11.0602 42.9802
11.105 41.8387
11.1499 41.1161
11.1947 40.7877
11.2395 40.6619
11.2844 40.4469
11.3292 40.0504
11.374 39.6217
11.4189 39.2188
11.4637 38.4571
11.5086 37.8499
11.5534 37.8123
11.5983 37.5944
11.6431 37.5055
11.688 37.4021
11.7328 37.1881
11.7777 36.9776
11.8225 37.2274
11.8674 37.6678
11.9122 39.5233
11.9571 44.3423
12.002 67.4191
12.0468 95.5054
12.0917 71.2833
12.1366 48.4212
12.1814 46.3547
12.2263 48.3005
12.2712 52.616
12.3161 65.2744
12.3609 88.9047
12.4058 96.8681
12.4507 73.1272
12.4956 54.2655
12.5405 45.8937
12.5853 42.2894
12.6302 40.215
12.6751 39.8166
12.72 39.7849
12.7649 39.9302
12.8098 40.0104
12.8547 39.7111
12.8996 39.5619
12.9445 39.5767
12.9894 39.6552
13.0343 40.2576
13.0792 41.792
13.1242 44.5534
13.1691 54.2576
13.214 61.9516
13.2589 61.8421
13.3038 66.1526
13.3487 70.9619
13.3937 85.4175
13.4386 126.335
13.4835 205.197
13.5285 221.904
13.5734 148.888
13.6183 99.4499
13.6633 83.7503
13.7082 79.8639
13.7531 90.5447
13.7981 135.404
13.843 208.589
13.888 192.41
13.9329 109.857
13.9779 68.0634
14.0228 53.0174
14.0678 46.5279
14.1127 44.5001
14.1577 45.7671
14.2027 60.1241
14.2476 86.1638
14.2926 79.4641
14.3376 50.8402
14.3825 40.5465
14.4275 38.3836
14.4725 37.2635
14.5175 37.0516
14.5624 36.541
14.6074 36.4081
14.6524 36.3835
14.6974 36.5877
14.7424 37.2799
14.7874 37.6604
14.8324 38.9923
14.8774 41.0912
14.9224 45.0211
14.9674 48.0958
15.0124 50.0227
15.0574 56.2305
15.1024 72.0177
15.1474 107.126
15.1924 133.475
15.2374 108.281
15.2824 71.6974
15.3274 52.2977
15.3725 44.4738
15.4175 41.259
15.4625 39.1883
15.5076 38.3342
15.5526 37.7995
15.5976 37.6347
15.6426 37.3565
15.6877 37.4845
15.7327 38.4035
15.7778 39.8457
15.8228 42.9246
15.8679 46.151
15.9129 47.4782
15.958 51.384
16.003 60.9478
16.0481 85.6097
16.0931 121.801
16.1382 130.989
16.1833 101.663
16.2283 67.4975
16.2734 48.0452
16.3185 40.4604
16.3636 37.0625
16.4086 35.0286
16.4537 33.8113
16.4988 33.1553
16.5439 32.635
16.589 32.2228
16.6341 31.5728
16.6792 31.2231
16.7243 31.2631
16.7694 31.0969
16.8145 30.9067
16.8596 31.0718
16.9047 31.3835
16.9498 31.8821
16.9949 34.3579
17.04 39.0345
17.0851 39.5807
17.1302 35.1553
17.1754 32.8037
17.2205 32.5597
17.2656 33.1606
17.3108 33.8189
17.3559 33.903
17.401 35.1367
17.4462 37.8517
17.4913 43.753
17.5365 51.4216
17.5815 50.8534
17.6268 43.1506
17.6718 37.3131
17.7171 34.8659
17.7622 34.3348
17.8074 35.2608
17.8525 38.4874
17.8977 41.9118
17.9428 40.8914
17.9881 38.2134
18.0331 39.3217
18.0784 41.1206
18.1237 42.1655
18.1688 43.5745
18.214 48.1724
18.2591 58.6422
18.3044 80.9745
18.3495 104.678
18.3948 100.333
18.4399 74.7863
18.4852 58.9074
18.5303 57.5928
18.5756 66.6042
18.6207 77.6002
18.666 72.7812
18.7112 58.1351
18.7565 45.4973
18.8016 39.172
18.8469 36.106
18.892 34.7452
18.9374 33.7961
18.9825 33.2644
19.0278 32.7336
19.073 32.5585
19.1183 32.37
19.1635 32.3073
19.2088 32.5627
19.254 33.1844
19.2993 33.955
19.3447 35.2224
19.3898 37.8707
19.4352 44.1863
19.4804 48.597
19.5257 46.6677
19.5709 45.6759
19.6163 49.4584
19.6615 49.6195
19.7068 43.2162
19.752 37.2931
19.7974 34.3174
19.8426 32.7119
19.888 31.5227
19.9332 31.2764
19.9786 31.3767
20.0238 31.5604
20.0692 31.9278
20.1144 31.9831
20.1598 32.4413
20.205 33.2336
20.2504 35.9704
20.2957 40.1845
20.3411 45.8857
20.3863 48.2904
20.4318 44.1787
20.477 39.6872
20.5224 39.6423
20.5677 43.5235
20.6131 45.9446
20.6586 42.0672
20.7038 36.1952
20.7493 32.4992
20.7945 31.1181
20.84 31.2077
20.8853 32.6634
20.9307 33.9234
20.976 32.6299
21.0215 29.888
21.0668 28.6304
21.1122 28.2841
21.1575 27.9429
21.203 27.9054
21.2483 27.8906
21.2938 28.2051
21.3391 27.9595
21.3846 28.358
21.4299 29.0549
21.4754 30.4746
21.5207 32.1883
21.5662 32.6442
21.6116 31.4341
21.6571 30.1551
21.7024 29.2541
21.7479 29.0514
21.7933 29.3568
21.8388 29.8869
21.8843 30.3594
21.9297 30.6051
21.9752 31.2675
22.0206 32.6587
22.0661 34.7358
22.1115 38.8102
22.157 44.837
22.2024 50.456
22.248 50.122
22.2933 46.0101
22.3389 42.237
22.3843 40.6634
22.4299 39.8563
22.4753 37.5563
22.5208 33.9217
22.5662 31.5596
22.6118 30.4113
22.6572 29.7331
22.7028 29.4194
22.7483 29.2538
22.7939 29.2055
22.8393 29.6143
22.8849 30.6108
22.9303 31.765
22.9759 31.8768
23.0214 31.2909
23.067 30.7697
23.1126 31.6152
23.1581 33.2789
23.2037 36.9729
23.2492 42.0105
23.2948 44.1198
23.3403 40.5742
23.3859 35.7202
23.4314 32.9568
23.477 32.3766
23.5225 33.2755
23.5682 34.5902
23.6137 34.5911
23.6593 33.2029
23.7048 32.4465
23.7505 33.2548
23.796 35.6821
23.8417 40.4732
23.8872 45.354
23.9329 45.6324
23.9784 40.1337
24.0241 34.3854
24.0697 31.0207
24.1154 29.6504
24.1609 28.9663
24.2066 28.5635
24.2522 28.048
24.2979 27.2663
24.3434 26.6174
24.3892 26.2915
24.4349 26.1812
24.4805 25.9111
24.5262 25.984
24.5718 25.7621
24.6175 25.9363
24.6631 25.963
24.7089 26.0687
24.7545 26.7756
24.8002 27.5181
24.8458 27.6496
24.8916 27.1595
24.9372 26.5134
24.983 26.2216
25.0286 25.8983
25.0744 25.7876
25.12 25.652
25.1658 25.8274
25.2114 25.8095
25.2572 26.1755
25.3029 26.5461
25.3487 27.2441
25.3943 28.1528
25.4402 29.3919
25.4858 30.3207
25.5316 30.5342
25.5773 30.4968
25.6231 31.36
25.669 32.5028
25.7147 32.5088
25.7605 30.4304
25.8062 28.2367
25.8521 26.9366
25.8977 26.4167
25.9436 26.6728
25.9893 26.6225
26.0352 26.4648
26.0809 25.6503
26.1268 25.375
26.1725 25.1656
26.2184 25.2627
26.2641 25.4762
26.31 25.8666
26.3557 26.8577
26.4017 28.1287
26.4474 29.0521
26.4933 28.7399
26.5391 27.6669
26.585 26.6904
26.6308 26.0315
26.6767 25.6232
26.7225 25.687
26.7684 25.8638
26.8142 26.1834
26.8601 26.8826
26.9059 27.9306
26.9519 29.7451
26.9979 31.3674
27.0437 31.7716
27.0896 31.0694
27.1354 30.3533
27.1814 29.2259
27.2272 27.837
27.2732 26.4303
27.3191 25.3842
27.3651 24.9644
27.4109 24.5432
27.4569 24.4624
27.5027 24.3132
27.5488 24.2473
27.5946 24.3024
27.6407 24.1946
27.6865 24.494
27.7326 24.3925
27.7784 24.5386
27.8245 24.9501
27.8703 25.4757
27.9164 25.7917
27.9623 25.4977
28.0084 25.1632
28.0543 24.7845
28.1003 24.8751
28.1462 25.4757
28.1923 25.9885
28.2384 26.0245
28.2843 26.0121
28.3304 26.6004
28.3764 27.9711
28.4225 29.3555
28.4684 29.3804
28.5145 28.4301
28.5605 27.7598
28.6066 27.25
28.6526 26.7606
28.6987 25.7224
28.7447 24.8158
28.7908 24.0203
28.8368 23.205
28.8829 22.9554
28.9289 22.7291
28.9751 22.5114
29.0211 22.5221
29.0673 22.3516
29.1133 22.4222
29.1595 22.6123
29.2055 22.9239
29.2517 23.2188
29.2977 23.3319
29.3439 23.0734
29.3899 22.527
29.4361 22.0785
29.4824 21.7746
29.5284 21.7851
29.5746 21.7954
29.6207 21.7623
29.6669 22.0266
29.713 22.4048
29.7593 22.7593
29.8053 22.926
29.8516 22.601
29.8977 22.093
29.9439 21.5269
29.99 21.262
30.0363 21.0535
30.0824 21.0576
30.1287 21.0496
30.1748 21.124
30.2211 21.4272
30.2673 21.3544
30.3136 21.3069
30.3597 20.9766
30.406 20.8887
30.4522 20.7594
30.4985 20.903
30.5447 21.1836
30.591 21.4251
30.6372 21.5317
30.6835 21.3809
30.7297 21.2416
30.7761 21.0667
30.8224 20.8869
30.8686 20.9741
30.915 21.073
30.9612 21.3784
31.0076 21.8069
31.0538 22.6056
31.1002 23.1746
31.1464 23.3494
31.1928 23.1402
31.2391 22.8373
31.2855 22.2842
31.3317 21.8327
31.3781 21.2564
31.4244 20.8454
31.4708 20.5644
31.5171 20.4774
31.5636 20.5301
31.6098 20.3277
31.6563 20.5145
31.7026 20.6738
31.7491 20.7984
31.7953 21.0427
31.8418 21.3369
31.8881 21.7742
31.9346 21.815
31.9809 21.3777
32.0275 20.8228
32.074 20.4933
32.1203 20.3593
32.1668 20.326
32.2132 20.4669
32.2597 20.5618
32.306 20.9102
32.3526 21.1685
32.399 21.3136
32.4455 20.9865
32.4919 20.5392
32.5385 20.2944
32.5848 19.9485
32.6314 19.7495
32.6778 19.4801
32.7244 19.2257
32.7708 18.9353
32.8174 18.8708
32.8638 18.7313
32.9104 18.7436
32.9569 18.8034
33.0035 18.6136
33.0499 18.823
33.0966 18.8061
33.143 18.8663
33.1897 18.6743
33.2361 18.5985
33.2828 18.4636
33.3293 18.3244
33.3759 18.3788
33.4226 18.4044
33.4691 18.5486
33.5158 18.7727
33.5623 19.0124
33.609 19.1055
33.6555 19.2723
33.7022 19.1919
33.7487 19.1888
33.7954 19.0435
33.842 18.5932
33.8887 18.2199
33.9353 17.9804
33.982 17.8279
34.0286 17.7808
34.0753 17.7209
34.1219 17.6404
34.1687 17.497
34.2152 17.5496
34.262 17.6494
34.3086 17.6503
34.3554 17.7085
34.402 17.5694
34.4488 17.3147
34.4954 17.1918
34.5422 17.1429
34.5889 17.0083
34.6357 17.019
34.6825 16.9776
34.7292 17.0041
34.776 17.1651
34.8227 17.0438
34.8695 16.9504
34.9162 16.7601
34.9631 16.6142
35.0098 16.6078
35.0566 16.4513
35.1033 16.4286
35.1502 16.247
35.1969 16.2154
35.2438 16.3522
35.2906 16.2818
35.3375 16.2747
35.3842 16.248
35.4311 16.3434
35.4779 16.2569
35.5248 16.3221
35.5716 16.1956
35.6185 16.2618
35.6653 16.3324
35.7123 16.4319
35.759 16.4699
35.806 16.6263
35.8528 16.7382
35.8998 16.9446
35.9468 16.9452
35.9936 16.9687
36.0406 16.6069
36.0874 16.4724
36.1345 16.1987
36.1813 16.1305
36.2283 15.9118
36.2752 15.6988
36.3222 15.7027
36.3691 15.6571
36.4161 15.5359
36.463 15.5549
36.5101 15.6658
36.557 15.7032
36.6041 15.6797
36.651 15.7619
36.6981 15.6865
36.745 15.5303
36.7921 15.3909
36.839 15.2596
36.8861 15.282
36.9331 15.2596
36.9802 15.3398
37.0272 15.3256
37.0743 15.3231
37.1213 15.3303
37.1684 15.2289
37.2154 15.1274
37.2626 14.9254
37.3098 14.8218
37.3568 14.7003
37.404 14.6873
37.451 14.6407
37.4982 14.6138
37.5452 14.4846
37.5924 14.4645
37.6395 14.43
37.6867 14.4521
37.7337 14.3527
37.781 14.2723
37.8281 14.2147
37.8753 14.1562
37.9224 14.1101
37.9697 14.1001
38.0168 14.0504
38.064 14.0817
38.1111 14.0978
38.1584 14.0409
38.2056 14.0561
38.2529 14.0359
38.3 13.9311
38.3473 13.8383
38.3945 13.7222
38.4418 13.6498
38.489 13.6219
38.5363 13.5475
38.5837 13.5441
38.6309 13.4709
38.6782 13.4884
38.7254 13.4479
38.7728 13.5525
38.82 13.4371
38.8674 13.454
38.9146 13.3824
38.9621 13.2941
39.0093 13.2115
39.0567 13.2314
39.104 13.2778
39.1514 13.2291
39.1987 13.253
39.2461 13.2709
39.2934 13.082
39.3409 12.9589
39.3882 12.9071
39.4356 12.7806
39.483 12.8097
39.5304 12.7481
39.5778 12.7025
39.6253 12.593
39.6726 12.6072
39.7201 12.6238
39.7675 12.5391
39.815 12.5733
39.8624 12.4946
39.9099 12.4595
39.9575 12.4101
40.0049 12.3887
40.0525 12.3377
40.0999 12.3012
40.1474 12.3647
40.1949 12.3382
40.2425 12.2812
40.2899 12.3588
40.3375 12.3262
40.385 12.2862
40.4326 12.2443
40.48 12.171
40.5277 12.2074
40.5752 12.0268
40.6228 11.9923
40.6703 11.9983
40.718 11.938
40.7655 11.8801
40.8132 11.8804
40.8607 11.8639
40.9084 11.8538
40.9559 11.7922
41.0036 11.733
41.0512 11.763
41.0989 11.707
41.1465 11.705
41.1942 11.7048
41.242 11.6372
41.2896 11.6621
41.3373 11.626
41.3849 11.587
41.4327 11.4845
41.4803 11.4517
41.5281 11.307
41.5758 11.2891
41.6236 11.2498
41.6712 11.2186
41.7191 11.1841
41.7667 11.1544
41.8146 11.1096
41.8622 11.0838
41.9101 11.0606
41.9578 10.9619
42.0057 10.9382
42.0534 10.9552
42.1013 10.976
42.149 10.911
42.1969 10.9625
42.2446 10.8987
42.2925 10.9203
42.3403 10.8525
42.3882 10.7929
42.436 10.7536
42.4839 10.7028
42.5319 10.6083
42.5797 10.5863
42.6277 10.5206
42.6755 10.5096
42.7235 10.4008
42.7713 10.4383
42.8193 10.3643
42.8671 10.3518
42.9152 10.3366
42.963 10.2417
43.0111 10.2272
43.0589 10.1817
43.107 10.1575
43.1549 10.1189
43.2029 10.0839
43.2508 10.075
43.2989 9.97648
43.3468 9.95008
43.3949 9.94568
43.4429 9.89598
43.491 9.85268
43.5389 9.84972
43.5871 9.80964
43.635 9.74758
43.6832 9.75288
43.7312 9.6978
43.7793 9.68173
43.8273 9.64201
43.8755 9.60075
43.9237 9.56691
43.9717 9.61037
44.0199 9.55954
44.068 9.53188
44.1162 9.51434
44.1642 9.47449
44.2125 9.49484
44.2606 9.46827
44.3088 9.40349
44.3569 9.3675
44.4052 9.34026
44.4533 9.23754
44.5016 9.22072
44.5497 9.2255
44.598 9.17658
44.6461 9.16822
44.6945 9.10934
44.7426 9.11598
44.791 9.08351
44.8391 9.05199
44.8875 9.0028
44.9357 9.01823
44.984 8.99229
45.0322 8.95015
45.0806 8.9167
45.1288 8.91452
45.1773 8.88094
45.2257 8.84655
45.2739 8.82964
45.3224 8.71707
45.3706 8.762
45.4191 8.64994
45.4673 8.68332
45.5158 8.62691
45.5641 8.60847
45.6126 8.58363
45.6609 8.56414
45.7094 8.45604
45.7577 8.50917
45.8063 8.44175
45.8546 8.45585
45.9031 8.39646
45.9515 8.38212
46.0001 8.30822
46.0484 8.33406
46.097 8.29599
46.1454 8.30233
46.194 8.27664
46.2424 8.21189
46.291 8.15571
46.3395 8.16682
46.3881 8.11286
46.4365 8.09096
46.4852 8.04726
46.5337 8.04769
46.5823 7.97122
46.631 7.97021
46.6795 7.97521
46.7282 7.94681
46.7767 7.89041
46.8254 7.82565
46.8739 7.80843
46.9226 7.83398
46.9712 7.81479
47.0199 7.75743
47.0685 7.70603
47.1173 7.71111
47.1658 7.66082
47.2146 7.66147
47.2632 7.58709
47.312 7.62178
47.3606 7.53102
47.4095 7.54589
47.4581 7.50668
47.5069 7.46249
47.5556 7.4595
47.6044 7.42615
47.6531 7.40976
47.702 7.35778
47.7507 7.32154
47.7996 7.31844
47.8483 7.26693
47.8972 7.28644
47.9461 7.24769
47.9948 7.20557
48.0438 7.20031
48.0925 7.1644
48.1415 7.14484
48.1902 7.09228
48.2392 7.10852
48.288 7.06278
48.337 7.02337
48.3858 6.99546
48.4348 6.98465
48.4837 6.9871
48.5327 6.96616
48.5815 6.88735
48.6306 6.90439
48.6795 6.8744
48.7285 6.85549
48.7774 6.82542
48.8265 6.8025
48.8754 6.77626
48.9245 6.73718
48.9734 6.73261
49.0226 6.70072
49.0715 6.66834
49.1206 6.63247
49.1696 6.6241
49.2188 6.61782
49.2679 6.59306
49.3169 6.53383
49.3661 6.50353
49.4151 6.51621
49.4643 6.46843
49.5134 6.46819
49.5626 6.41892
49.6117 6.41158
49.6609 6.38057
49.71 6.36648
49.7592 6.35221
49.8083 6.35656
49.8576 6.33346
49.9067 6.29237
49.956 6.26688
50.0052 6.23167
50.0545 6.22415
50.1036 6.1876
50.153 6.18709
50.2022 6.16149
50.2515 6.13034
50.3007 6.11004
50.3501 6.07085
50.3993 6.09793
50.4487 6.0461
50.498 6.0224
50.5474 6.00584
50.5966 5.94024
50.6461 5.99962
50.6955 5.94877
50.7448 5.89947
50.7943 5.8968
50.8436 5.85926
50.8931 5.85961
50.9424 5.85217
50.9919 5.80822
51.0413 5.78862
51.0908 5.80357
51.1402 5.7456
51.1897 5.68225
51.2391 5.70334
51.2887 5.66578
51.3381 5.64665
51.3877 5.64029
51.4371 5.6262
51.4867 5.58151
51.5362 5.574
51.5858 5.53134
51.6353 5.54548
51.6849 5.50233
51.7344 5.48292
51.7841 5.43231
51.8336 5.4363
51.8833 5.40188
51.9328 5.38496
51.9826 5.36269
52.0323 5.32851
52.0818 5.30956
52.1316 5.28902
52.1812 5.30888
52.231 5.27926
52.2806 5.21515
52.3304 5.23736
52.38 5.20811
52.4298 5.1735
52.4794 5.13546
52.5293 5.12115
52.5789 5.1323
52.6288 5.06015
52.6785 5.05354
52.7284 5.05306
52.7781 5.01859
52.828 5.03318
52.8777 4.99313
52.9276 5.007
52.9774 4.9674
53.0273 4.95925
53.0771 4.94024
53.1271 4.92111
53.1769 4.87814
53.2269 4.85915
53.2767 4.8627
53.3267 4.83004
53.3765 4.78867
53.4266 4.76266
53.4766 4.74277
53.5265 4.74204
53.5765 4.73874
53.6264 4.70881
53.6765 4.65748
53.7264 4.6354
53.7765 4.64853
53.8265 4.65099
53.8766 4.59957
53.9266 4.59791
53.9767 4.54496
54.0267 4.48575
54.0769 4.49526
54.1269 4.47489
54.1771 4.4476
54.2271 4.40495
54.2773 4.40956
54.3274 4.40138
54.3776 4.34326
54.4277 4.33788
54.478 4.27555
54.528 4.26437
54.5783 4.19762
54.6285 4.21093
54.6788 4.16684
54.7289 4.10814
54.7792 4.13322
54.8296 4.06895
54.8798 4.01447
54.9301 4.00094
54.9803 3.96471
55.0307 3.9745
55.0809 3.92648
55.1314 3.90776
55.1816 3.83418
55.232 3.78678
55.2823 3.78936
55.3328 3.70134
55.383 3.64936
55.4335 3.67128
55.4838 3.65414
55.5344 3.57135
55.5847 3.52581
55.6352 3.59241
55.6856 3.52314
55.7361 3.49921