File: XRD/Ni3Fe_FD0947.xy
TT I
1.27165 7.39304
1.31627 6.82481
1.36089 7.02721
1.40551 6.30319
1.45013 5.91307
1.49476 5.41569
1.53938 5.64101
1.584 6.04129
1.62863 5.46539
1.67325 5.10179
1.71787 4.84602
1.7625 4.67696
1.80712 4.805
1.85174 4.75982
1.89636 4.78701
1.94099 4.42208
1.98562 4.92476
2.03025 5.33552
2.07487 4.82061
2.11949 4.92259
2.16411 4.69474
2.20874 7.35255
2.25338 10.5569
2.298 5.7182
2.34263 5.07986
2.38725 6.16757
2.43188 6.14389
2.4765 7.30727
2.52115 7.74875
2.56577 8.31688
2.6104 8.46032
2.65503 8.43179
2.69965 8.69141
2.7443 8.5129
2.78893 8.6489
2.83356 8.57132
2.87818 9.60172
2.92281 9.42346
2.96744 9.32544
3.01209 10.5584
3.05672 11.2062
3.10135 12.9096
3.14599 12.9671
3.19062 14.5645
3.23527 15.405
3.2799 16.0343
3.32454 16.5676
3.36917 17.6504
3.4138 18.7916
3.45844 19.43
3.50309 20.5076
3.54773 21.3888
3.59237 22.9572
3.637 41.4762
3.68164 33.0259
3.7263 25.2149
3.77094 25.6422
3.81558 26.4052
3.86022 27.2069
3.90486 28.373
3.9495 29.3341
3.99416 30.1909
4.0388 31.6672
4.08344 33.2228
4.12809 34.2142
4.17273 35.6626
4.21738 38.99
4.26204 98.4036
4.30669 84.718
4.35133 44.318
4.39598 43.6549
4.44063 47.3855
4.4853 51.8125
4.52995 58.8867
4.5746 59.3285
4.61925 53.5999
4.6639 55.4912
4.70855 57.49
4.75322 61.6877
4.79788 69.2939
4.84253 68.1495
4.88719 75.9182
4.93184 76.8622
4.97652 80.4141
5.02118 87.4176
5.06583 94.2472
5.11049 105.117
5.15515 152.263
5.19981 339.954
5.24449 2762.93
5.28916 13347.1
5.33382 2726.74
5.37848 197.576
5.42315 130.321
5.46783 120.624
5.5125 113.854
5.55716 101.539
5.60183 96.8741
5.6465 95.2645
5.69117 93.4065
5.73586 92.2737
5.78053 99.5684
5.8252 99.6809
5.86988 103.078
5.91455 93.7504
5.95924 100.857
6.00392 213.091
6.0486 916.816
6.09328 4602.46
6.13795 3011.25
6.18263 199.895
6.22733 88.3084
6.27201 78.5549
6.3167 80.6624
6.36138 72.6265
6.40606 69.5934
6.45075 69.8241
6.49545 64.667
6.54014 62.6829
6.58483 62.2431
6.62952 62.5497
6.67421 69.4397
6.71892 80.3542
6.76361 60.5151
6.8083 59.4058
6.853 59.9984
6.89769 56.1488
6.94239 55.3991
6.98711 55.1188
7.03181 55.6474
7.07651 54.4888
7.12121 54.6548
7.16591 56.4221
7.21063 55.4174
7.25533 58.713
7.30004 87.4697
7.34475 63.0775
7.38945 54.3371
7.43416 53.1748
7.47889 53.0289
7.5236 53.4408
7.56831 54.0737
7.61303 54.6139
7.65774 55.4813
7.70247 56.4145
7.74719 55.9026
7.79191 55.732
7.83663 56.0187
7.88135 56.9797
7.92607 57.459
7.97081 58.7237
8.01553 60.4831
8.06026 62.1643
8.10498 63.8066
8.14971 70.2491
8.19446 69.9881
8.23919 68.5442
8.28392 70.955
8.32865 73.2515
8.37339 77.7659
8.41812 82.5818
8.46288 97.1439
8.50761 160.039
8.55235 366.416
8.59709 1205.02
8.64183 2227.26
8.68658 867.418
8.73134 148.775
8.77609 96.3886
8.82083 91.3971
8.86558 92.9192
8.91033 92.4426
8.9551 89.0532
8.99985 84.8276
9.04461 83.1805
9.08936 84.106
9.13412 82.3277
9.17888 81.3957
9.22365 81.3568
9.26841 81.6028
9.31318 84.9538
9.35794 87.5451
9.4027 86.079
9.44749 85.1017
9.49226 83.8505
9.53703 85.0288
9.5818 89.3632
9.62657 94.9063
9.67134 94.6111
9.71614 91.8497
9.76091 94.5117
9.80569 99.3017
9.85047 101.227
9.89525 109.079
9.94005 120.244
9.98484 176.147
10.0296 332.673
10.0744 837.669
10.1192 1802.76
10.164 1476.59
10.2088 345.545
10.2536 120.062
10.2984 107.578
10.3432 105.899
10.388 103.259
10.4328 117.206
10.4776 157.987
10.5224 292.112
10.5672 545.061
10.612 482.68
10.6568 182.599
10.7017 92.8672
10.7465 85.1944
10.7913 82.2358
10.8361 80.1905
10.8809 77.9559
10.9257 77.144
10.9706 77.3638
11.0154 75.1147
11.0602 72.0962
11.105 70.6209
11.1499 70.9302
11.1947 71.8846
11.2395 68.746
11.2844 67.148
11.3292 65.9361
11.374 65.2585
11.4189 64.9316
11.4637 63.9186
11.5086 63.7186
11.5534 64.3823
11.5983 63.0239
11.6431 62.5937
11.688 61.7589
11.7328 62.1001
11.7777 61.6821
11.8225 62.036
11.8674 61.9212
11.9122 61.8867
11.9571 61.8571
12.002 63.3798
12.0468 67.2747
12.0917 77.2133
12.1366 102.938
12.1814 158.544
12.2263 208.051
12.2712 155.058
12.3161 86.5844
12.3609 65.4415
12.4058 63.0008
12.4507 63.1223
12.4956 64.0353
12.5405 64.2741
12.5853 64.2975
12.6302 66.5797
12.6751 68.5873
12.72 66.8693
12.7649 66.7573
12.8098 67.665
12.8547 69.2231
12.8996 70.8227
12.9445 72.5882
12.9894 73.9732
13.0343 75.1537
13.0792 78.9861
13.1242 89.3511
13.1691 108.474
13.214 147.213
13.2589 246.215
13.3038 385.621
13.3487 417.062
13.3937 234.501
13.4386 115.801
13.4835 103.111
13.5285 118.272
13.5734 159.386
13.6183 258.419
13.6633 367.608
13.7082 324.331
13.7531 170.98
13.7981 93.1741
13.843 80.3941
13.888 78.6672
13.9329 76.2955
13.9779 74.8731
14.0228 73.4156
14.0678 72.0972
14.1127 71.3099
14.1577 70.8059
14.2027 70.3874
14.2476 69.2382
14.2926 68.9636
14.3376 69.2715
14.3825 68.8191
14.4275 68.0937
14.4725 67.8623
14.5175 67.8792
14.5624 67.8955
14.6074 68.8467
14.6524 69.1537
14.6974 69.5345
14.7424 72.2744
14.7874 77.6756
14.8324 87.7121
14.8774 111.135
14.9224 158.16
14.9674 213.453
15.0124 211.023
15.0574 138.863
15.1024 86.0652
15.1474 71.3052
15.1924 69.4245
15.2374 68.527
15.2824 67.4767
15.3274 66.4465
15.3725 65.6813
15.4175 65.5083
15.4625 64.8879
15.5076 64.8121
15.5526 64.6861
15.5976 64.7665
15.6426 66.7278
15.6877 71.2784
15.7327 78.431
15.7778 94.7912
15.8228 128.897
15.8679 175.887
15.9129 193.247
15.958 145.674
16.003 89.1206
16.0481 65.0875
16.0931 61.9786
16.1382 60.3786
16.1833 59.3108
16.2283 57.959
16.2734 57.1645
16.3185 56.8916
16.3636 56.7327
16.4086 55.5811
16.4537 55.1205
16.4988 54.5668
16.5439 54.3815
16.589 54.4931
16.6341 54.0542
16.6792 53.8085
16.7243 53.9429
16.7694 53.9836
16.8145 53.5938
16.8596 53.9934
16.9047 54.6335
16.9498 54.6688
16.9949 54.4697
17.04 55.0462
17.0851 56.2313
17.1302 57.6548
17.1754 60.7148
17.2205 66.1272
17.2656 74.3224
17.3108 82.0723
17.3559 79.9082
17.401 68.4853
17.4462 60.6401
17.4913 58.3217
17.5365 58.2612
17.5815 58.3793
17.6268 58.8914
17.6718 59.4504
17.7171 59.5948
17.7622 60.0783
17.8074 61.4594
17.8525 63.9269
17.8977 67.0902
17.9428 72.4561
17.9881 82.2382
18.0331 101.238
18.0784 123.855
18.1237 137.503
18.1688 124.801
18.214 98.6212
18.2591 84.7468
18.3044 90.7781
18.3495 100.849
18.3948 104.583
18.4399 91.4371
18.4852 73.73
18.5303 64.0431
18.5756 61.0702
18.6207 60.1513
18.666 59.3971
18.7112 58.5955
18.7565 58.0094
18.8016 57.7661
18.8469 57.1941
18.892 56.7415
18.9374 56.4372
18.9825 56.1466
19.0278 55.7092
19.073 55.8768
19.1183 56.2272
19.1635 56.8476
19.2088 58.2677
19.254 61.3195
19.2993 66.1969
19.3447 71.8035
19.3898 74.3514
19.4352 69.527
19.4804 60.745
19.5257 55.1584
19.5709 53.0827
19.6163 53.0034
19.6615 53.1083
19.7068 52.4297
19.752 52.2819
19.7974 52.9147
19.8426 53.4811
19.888 54.0496
19.9332 55.1642
19.9786 58.3871
20.0238 62.3405
20.0692 67.2466
20.1144 69.3213
20.1598 66.4857
20.205 62.1433
20.2504 61.5801
20.2957 63.8362
20.3411 64.9736
20.3863 62.4687
20.4318 56.357
20.477 51.9761
20.5224 50.0871
20.5677 49.9428
20.6131 49.2306
20.6586 48.8767
20.7038 48.7196
20.7493 48.2884
20.7945 48.0419
20.84 48.1647
20.8853 47.8532
20.9307 47.8231
20.976 47.8704
21.0215 47.8816
21.0668 48.2228
21.1122 48.667
21.1575 49.4464
21.203 50.2606
21.2483 50.6028
21.2938 50.585
21.3391 49.1446
21.3846 48.1124
21.4299 47.5312
21.4754 47.6353
21.5207 47.6944
21.5662 48.1859
21.6116 48.5483
21.6571 49.0075
21.7024 50.0781
21.7479 52.0122
21.7933 54.9201
21.8388 58.9481
21.8843 62.7368
21.9297 63.5023
21.9752 61.4001
22.0206 57.5779
22.0661 55.4356
22.1115 55.3046
22.157 54.7077
22.2024 52.9307
22.248 50.3545
22.2933 48.7192
22.3389 48.2226
22.3843 48.0574
22.4299 47.7728
22.4753 47.8456
22.5208 47.6974
22.5662 47.7089
22.6118 47.9891
22.6572 47.9874
22.7028 48.3725
22.7483 48.7881
22.7939 49.657
22.8393 51.2014
22.8849 53.4148
22.9303 55.6463
22.9759 56.9455
23.0214 56.0175
23.067 52.7764
23.1126 49.8221
23.1581 48.048
23.2037 47.9981
23.2492 48.1042
23.2948 48.0444
23.3403 48.2139
23.3859 49.003
23.4314 50.0885
23.477 51.9907
23.5225 54.5633
23.5682 56.5495
23.6137 56.9032
23.6593 53.9942
23.7048 50.1675
23.7505 47.1427
23.796 45.7059
23.8417 45.4145
23.8872 44.8543
23.9329 44.4253
23.9784 44.2391
24.0241 43.9238
24.0697 43.7393
24.1154 43.508
24.1609 43.1884
24.2066 42.9567
24.2522 42.986
24.2979 42.8003
24.3434 42.6334
24.3892 42.4641
24.4349 42.5718
24.4805 42.2597
24.5262 42.5214
24.5718 42.3522
24.6175 42.2661
24.6631 42.1886
24.7089 41.7926
24.7545 41.5105
24.8002 41.6248
24.8458 41.4101
24.8916 41.4177
24.9372 41.5157
24.983 41.8091
25.0286 42.2237
25.0744 42.6574
25.12 43.2164
25.1658 43.6353
25.2114 43.8441
25.2572 44.0478
25.3029 44.212
25.3487 44.2864
25.3943 43.6694
25.4402 42.4952
25.4858 41.6161
25.5316 40.4921
25.5773 40.2812
25.6231 40.2907
25.669 39.7231
25.7147 39.6822
25.7605 39.6744
25.8062 39.8779
25.8521 39.9517
25.8977 39.7894
25.9436 40.2413
25.9893 40.404
26.0352 40.9251
26.0809 40.9602
26.1268 41.0632
26.1725 40.6028
26.2184 39.9554
26.2641 39.5718
26.31 39.4318
26.3557 39.4394
26.4017 39.4335
26.4474 39.7556
26.4933 40.0381
26.5391 40.5728
26.585 41.1688
26.6308 41.5007
26.6767 41.5117
26.7225 41.215
26.7684 40.6378
26.8142 40.1139
26.8601 39.7697
26.9059 39.3798
26.9519 38.7849
26.9979 38.4645
27.0437 38.2925
27.0896 38.0494
27.1354 38.1099
27.1814 37.9492
27.2272 37.9961
27.2732 37.8661
27.3191 37.7376
27.3651 37.8646
27.4109 37.8324
27.4569 37.9156
27.5027 37.8904
27.5488 37.8778
27.5946 37.7372
27.6407 37.4457
27.6865 37.5275
27.7326 37.1993
27.7784 37.2728
27.8245 37.1155
27.8703 37.4195
27.9164 37.6787
27.9623 37.8064
28.0084 38.2728
28.0543 38.4926
28.1003 38.3055
28.1462 38.1319
28.1923 37.6957
28.2384 37.2151
28.2843 37.0202
28.3304 36.4811
28.3764 36.069
28.4225 35.782
28.4684 35.5149
28.5145 35.3504
28.5605 35.2652
28.6066 35.121
28.6526 34.9796
28.6987 34.9852
28.7447 34.9156
28.7908 34.8465
28.8368 34.8261
28.8829 34.8638
28.9289 34.8052
28.9751 34.5476
29.0211 34.3586
29.0673 34.1941
29.1133 33.97
29.1595 33.8315
29.2055 33.7729
29.2517 33.8756
29.2977 33.7935
29.3439 33.6627
29.3899 33.7474
29.4361 33.5831
29.4824 33.4183
29.5284 33.1265
29.5746 32.8975
29.6207 32.5443
29.6669 32.4872
29.713 32.4366
29.7593 32.296
29.8053 32.304
29.8516 32.1705
29.8977 32.2595
29.9439 32.1076
29.99 32.0249
30.0363 31.9114
30.0824 31.8675
30.1287 31.8863
30.1748 31.9134
30.2211 31.8652
30.2673 31.7508
30.3136 31.8348
30.3597 31.8047
30.406 31.6729
30.4522 31.5369
30.4985 31.379
30.5447 31.5931
30.591 31.6406
30.6372 31.7283
30.6835 31.6848
30.7297 31.6034
30.7761 31.6599
30.8224 31.453
30.8686 31.2635
30.915 31.0808
30.9612 30.956
31.0076 30.7674
31.0538 30.6109
31.1002 30.6937
31.1464 30.4974
31.1928 30.4021
31.2391 30.4573
31.2855 30.4163
31.3317 30.3841
31.3781 30.3726
31.4244 30.5383
31.4708 30.3202
31.5171 30.3153
31.5636 30.2251
31.6098 30.0079
31.6563 29.7618
31.7026 29.6629
31.7491 29.6492
31.7953 29.6894
31.8418 29.5477
31.8881 29.622
31.9346 29.5504
31.9809 29.5235
32.0275 29.4027
32.074 29.1975
32.1203 29.0104
32.1668 28.9994
32.2132 28.8767
32.2597 28.7401
32.306 28.7087
32.3526 28.4604
32.399 28.4104
32.4455 28.2844
32.4919 28.2085
32.5385 28.1148
32.5848 28.0077
32.6314 27.9594
32.6778 28.0217
32.7244 27.856
32.7708 27.7482
32.8174 27.6264
32.8638 27.5674
32.9104 27.6652
32.9569 27.5483
33.0035 27.3152
33.0499 27.4737
33.0966 27.4052
33.143 27.3504
33.1897 27.2334
33.2361 27.1317
33.2828 27.1516
33.3293 26.9594
33.3759 26.9044
33.4226 26.7428
33.4691 26.6163
33.5158 26.5749
33.5623 26.5167
33.609 26.2788
33.6555 26.275
33.7022 26.1666
33.7487 26.0905
33.7954 26.0709
33.842 25.9533
33.8887 25.9156
33.9353 25.8427
33.982 25.7303
34.0286 25.6293
34.0753 25.5361
34.1219 25.4682
34.1687 25.4805
34.2152 25.3275
34.262 25.2543
34.3086 25.1803
34.3554 25.0226
34.402 24.968
34.4488 24.9527
34.4954 24.8331
34.5422 24.7306
34.5889 24.6183
34.6357 24.5554
34.6825 24.5943
34.7292 24.3954
34.776 24.3759
34.8227 24.3
34.8695 24.264
34.9162 24.1814
34.9631 24.042
35.0098 24.1715
35.0566 23.9885
35.1033 23.9359
35.1502 23.8479
35.1969 23.8384
35.2438 23.7327
35.2906 23.7285
35.3375 23.6559
35.3842 23.6135
35.4311 23.5708
35.4779 23.5681
35.5248 23.4951
35.5716 23.3379
35.6185 23.3307
35.6653 23.1668
35.7123 23.1666
35.759 23.0177
35.806 22.9449
35.8528 22.8689
35.8998 22.7913
35.9468 22.7734
35.9936 22.7291
36.0406 22.583
36.0874 22.5963
36.1345 22.5311
36.1813 22.3835
36.2283 22.3483
36.2752 22.2472
36.3222 22.3068
36.3691 22.1441
36.4161 22.1197
36.463 22.1217
36.5101 22.028
36.557 21.9115
36.6041 21.8104
36.651 21.8576
36.6981 21.7164
36.745 21.7276
36.7921 21.5585
36.839 21.519
36.8861 21.4193
36.9331 21.3632
36.9802 21.3045
37.0272 21.2224
37.0743 21.1343
37.1213 21.1224
37.1684 21.0378
37.2154 20.944
37.2626 20.8982
37.3098 20.8612
37.3568 20.7564
37.404 20.7515
37.451 20.5994
37.4982 20.6323
37.5452 20.4491
37.5924 20.4422
37.6395 20.4667
37.6867 20.4023
37.7337 20.198
37.781 20.2228
37.8281 20.117
37.8753 19.9812
37.9224 20.007
37.9697 19.9493
38.0168 19.8216
38.064 19.8168
38.1111 19.7519
38.1584 19.6944
38.2056 19.5959
38.2529 19.5482
38.3 19.4721
38.3473 19.4643
38.3945 19.3295
38.4418 19.3362
38.489 19.2404
38.5363 19.155
38.5837 19.0865
38.6309 19.0371
38.6782 18.9991
38.7254 18.9779
38.7728 18.8262
38.82 18.8387
38.8674 18.7781
38.9146 18.6996
38.9621 18.6211
39.0093 18.629
39.0567 18.5755
39.104 18.4704
39.1514 18.3604
39.1987 18.3323
39.2461 18.3413
39.2934 18.2932
39.3409 18.0535
39.3882 18.1216
39.4356 18.0249
39.483 18.0102
39.5304 17.9247
39.5778 17.9127
39.6253 17.8812
39.6726 17.8426
39.7201 17.7467
39.7675 17.7125
39.815 17.6181
39.8624 17.5763
39.9099 17.4767
39.9575 17.4291
40.0049 17.3813
40.0525 17.2751
40.0999 17.2832
40.1474 17.2202
40.1949 17.1772
40.2425 17.0573
40.2899 17.0217
40.3375 16.9866
40.385 16.944
40.4326 16.9389
40.48 16.853
40.5277 16.8039
40.5752 16.7236
40.6228 16.6723
40.6703 16.637
40.718 16.5834
40.7655 16.5256
40.8132 16.4657
40.8607 16.4609
40.9084 16.3697
40.9559 16.3206
41.0036 16.3188
41.0512 16.2392
41.0989 16.1798
41.1465 16.1417
41.1942 16.0154
41.242 15.9801
41.2896 15.9225
41.3373 15.9101
41.3849 15.7841
41.4327 15.7981
41.4803 15.7299
41.5281 15.6962
41.5758 15.6035
41.6236 15.5501
41.6712 15.5126
41.7191 15.4289
41.7667 15.4594
41.8146 15.3576
41.8622 15.2853
41.9101 15.2949
41.9578 15.1747
42.0057 15.1377
42.0534 15.1247
42.1013 15.0797
42.149 14.994
42.1969 14.9586
42.2446 14.8777
42.2925 14.91
42.3403 14.8158
42.3882 14.8359
42.436 14.7541
42.4839 14.6178
42.5319 14.5928
42.5797 14.5197
42.6277 14.5384
42.6755 14.4637
42.7235 14.4322
42.7713 14.3991
42.8193 14.3239
42.8671 14.2505
42.9152 14.1767
42.963 14.1544
43.0111 14.1433
43.0589 14.0728
43.107 14.0252
43.1549 13.949
43.2029 13.894
43.2508 13.9167
43.2989 13.8093
43.3468 13.7656
43.3949 13.7416
43.4429 13.7179
43.491 13.6405
43.5389 13.6389
43.5871 13.4977
43.635 13.4898
43.6832 13.477
43.7312 13.4459
43.7793 13.3382
43.8273 13.3624
43.8755 13.2713
43.9237 13.2175
43.9717 13.2017
44.0199 13.1692
44.068 13.1184
44.1162 13.0659
44.1642 13.0352
44.2125 12.9982
44.2606 12.9024
44.3088 12.872
44.3569 12.8274
44.4052 12.7928
44.4533 12.7619
44.5016 12.6712
44.5497 12.6302
44.598 12.5894
44.6461 12.5805
44.6945 12.4994
44.7426 12.4173
44.791 12.4249
44.8391 12.4001
44.8875 12.3642
44.9357 12.2677
44.984 12.2442
45.0322 12.2282
45.0806 12.1641
45.1288 12.0891
45.1773 12.0411
45.2257 12.0625
45.2739 11.9767
45.3224 11.9813
45.3706 11.866
45.4191 11.8708
45.4673 11.8278
45.5158 11.7846
45.5641 11.6868
45.6126 11.7144
45.6609 11.6209
45.7094 11.6336
45.7577 11.6073
45.8063 11.5217
45.8546 11.5026
45.9031 11.4515
45.9515 11.4067
46.0001 11.3416
46.0484 11.3347
46.097 11.2582
46.1454 11.2482
46.194 11.2189
46.2424 11.1673
46.291 11.089
46.3395 11.0831
46.3881 11.0242
46.4365 10.991
46.4852 10.9849
46.5337 10.9171
46.5823 10.9435
46.631 10.8246
46.6795 10.783
46.7282 10.7809
46.7767 10.733
46.8254 10.6714
46.8739 10.6009
46.9226 10.6169
46.9712 10.5521
47.0199 10.5723
47.0685 10.5128
47.1173 10.4608
47.1658 10.4372
47.2146 10.3859
47.2632 10.3425
47.312 10.3474
47.3606 10.2518
47.4095 10.2166
47.4581 10.1852
47.5069 10.1825
47.5556 10.1175
47.6044 10.0882
47.6531 10.0249
47.702 9.97574
47.7507 9.97815
47.7996 9.93372
47.8483 9.908
47.8972 9.86828
47.9461 9.81404
47.9948 9.75785
48.0438 9.73609
48.0925 9.68768
48.1415 9.70185
48.1902 9.62424
48.2392 9.58782
48.288 9.58206
48.337 9.59335
48.3858 9.48679
48.4348 9.4874
48.4837 9.44823
48.5327 9.40833
48.5815 9.36429
48.6306 9.33733
48.6795 9.30659
48.7285 9.23721
48.7774 9.19555
48.8265 9.1897
48.8754 9.14698
48.9245 9.10922
48.9734 9.06473
49.0226 9.06953
49.0715 9.04684
49.1206 8.98745
49.1696 8.95717
49.2188 8.93915
49.2679 8.8812
49.3169 8.84141
49.3661 8.81332
49.4151 8.81241
49.4643 8.74292
49.5134 8.69729
49.5626 8.65443
49.6117 8.62802
49.6609 8.58151
49.71 8.56089
49.7592 8.58334
49.8083 8.49915
49.8576 8.48512
49.9067 8.45174
49.956 8.41695
50.0052 8.40804
50.0545 8.36082
50.1036 8.33317
50.153 8.2786
50.2022 8.25317
50.2515 8.24274
50.3007 8.17157
50.3501 8.17995
50.3993 8.13301
50.4487 8.07209
50.498 8.05892
50.5474 8.00191
50.5966 8.00895
50.6461 7.98525
50.6955 7.94292
50.7448 7.90772
50.7943 7.87168
50.8436 7.86388
50.8931 7.79968
50.9424 7.79409
50.9919 7.76841
51.0413 7.73333
51.0908 7.71475
51.1402 7.67157
51.1897 7.62943
51.2391 7.63325
51.2887 7.56346
51.3381 7.54067
51.3877 7.52185
51.4371 7.44317
51.4867 7.46807
51.5362 7.44513
51.5858 7.38501
51.6353 7.38604
51.6849 7.30998
51.7344 7.29716
51.7841 7.30487
51.8336 7.22198
51.8833 7.23754
51.9328 7.18099
51.9826 7.15341
52.0323 7.12693
52.0818 7.08833
52.1316 7.05723
52.1812 7.01864
52.231 7.03043
52.2806 7.00351
52.3304 6.95637
52.38 6.91119
52.4298 6.88751
52.4794 6.84768
52.5293 6.83247
52.5789 6.78416
52.6288 6.79089
52.6785 6.69891
52.7284 6.72671
52.7781 6.69463
52.828 6.69997
52.8777 6.64139
52.9276 6.58309
52.9774 6.56034
53.0273 6.55757
53.0771 6.56396
53.1271 6.51264
53.1769 6.48858
53.2269 6.46991
53.2767 6.41243
53.3267 6.36645
53.3765 6.38162
53.4266 6.31621
53.4766 6.3243
53.5265 6.31947
53.5765 6.25562
53.6264 6.22564
53.6765 6.23266
53.7264 6.14124
53.7765 6.15652
53.8265 6.14463
53.8766 6.07243
53.9266 6.06463
53.9767 6.01409
54.0267 6.04916
54.0769 5.97254
54.1269 5.98664
54.1771 5.89999
54.2271 5.89073
54.2773 5.88805
54.3274 5.87326
54.3776 5.77799
54.4277 5.79217
54.478 5.7516
54.528 5.70645
54.5783 5.64477
54.6285 5.62387
54.6788 5.59762
54.7289 5.55845
54.7792 5.55227
54.8296 5.45728
54.8798 5.42298
54.9301 5.38797
54.9803 5.36202
55.0307 5.35293
55.0809 5.26475
55.1314 5.2451
55.1816 5.18297
55.232 5.14104
55.2823 5.11813
55.3328 5.07528
55.383 4.99508
55.4335 4.99316
55.4838 4.99642
55.5344 4.84704
55.5847 4.80867
55.6352 4.82637
55.6856 4.81506
55.7361 4.70078