File: XRD/Ni3Fe_FD0085.xy
TT I
1.27165 9.7676
1.31627 8.60678
1.36089 9.46738
1.40551 7.81932
1.45013 8.27628
1.49476 7.55452
1.53938 6.86669
1.584 6.89113
1.62863 6.82787
1.67325 6.76159
1.71787 5.96946
1.7625 5.798
1.80712 6.25616
1.85174 6.29419
1.89636 6.10589
1.94099 6.62504
1.98562 6.12878
2.03025 6.18178
2.07487 5.64911
2.11949 5.7385
2.16411 5.22911
2.20874 5.90886
2.25338 4.91142
2.298 5.30822
2.34263 4.30449
2.38725 4.01183
2.43188 4.40579
2.4765 5.05485
2.52115 3.98997
2.56577 4.19935
2.6104 4.94849
2.65503 4.39884
2.69965 5.43127
2.7443 4.96942
2.78893 5.943
2.83356 6.95359
2.87818 8.07002
2.92281 7.90489
2.96744 9.21489
3.01209 10.0437
3.05672 11.0934
3.10135 12.2169
3.14599 13.0425
3.19062 14.2688
3.23527 14.7022
3.2799 15.5112
3.32454 16.4453
3.36917 17.7268
3.4138 18.9081
3.45844 19.7415
3.50309 20.5489
3.54773 20.5839
3.59237 21.176
3.637 22.2915
3.68164 23.1736
3.7263 24.0435
3.77094 24.6567
3.81558 25.3937
3.86022 26.3517
3.90486 27.4084
3.9495 28.2979
3.99416 28.9021
4.0388 30.4693
4.08344 31.6299
4.12809 32.5534
4.17273 33.3781
4.21738 34.8308
4.26204 36.4415
4.30669 37.8588
4.35133 39.5578
4.39598 40.8309
4.44063 42.5339
4.4853 44.4246
4.52995 47.047
4.5746 48.9751
4.61925 51.137
4.6639 53.5278
4.70855 56.5957
4.75322 59.3521
4.79788 62.8038
4.84253 67.0416
4.88719 71.4916
4.93184 77.5989
4.97652 86.0227
5.02118 98.3001
5.06583 112.141
5.11049 134.504
5.15515 193.137
5.19981 759.522
5.24449 3610.22
5.28916 5235.26
5.33382 8038.29
5.37848 1065.91
5.42315 234.541
5.46783 153.967
5.5125 129.693
5.55716 118.766
5.60183 110.124
5.6465 106.136
5.69117 103.939
5.73586 101.144
5.78053 101.641
5.8252 103.295
5.86988 109.092
5.91455 120.508
5.95924 152.178
6.00392 381.615
6.0486 1400.45
6.09328 1674.2
6.13795 3616.41
6.18263 1217.37
6.22733 183.85
6.27201 106.5
6.3167 86.2192
6.36138 76.6902
6.40606 70.8202
6.45075 67.5815
6.49545 65.0069
6.54014 62.1045
6.58483 60.4559
6.62952 59.249
6.67421 57.6865
6.71892 56.9329
6.76361 55.7202
6.8083 55.0714
6.853 54.0713
6.89769 54.0362
6.94239 53.1207
6.98711 52.6083
7.03181 52.0195
7.07651 51.996
7.12121 51.5561
7.16591 51.354
7.21063 51.0754
7.25533 51.0857
7.30004 50.9551
7.34475 51.2734
7.38945 51.5176
7.43416 51.4605
7.47889 52.1804
7.5236 66.6597
7.56831 107.608
7.61303 69.8567
7.65774 54.4076
7.70247 53.2263
7.74719 53.1714
7.79191 53.9175
7.83663 53.9818
7.88135 55.0246
7.92607 55.8743
7.97081 57.2542
8.01553 58.1759
8.06026 59.5138
8.10498 60.5213
8.14971 62.7199
8.19446 64.3123
8.23919 67.008
8.28392 70.2368
8.32865 73.0406
8.37339 78.6517
8.41812 85.5234
8.46288 102.472
8.50761 203.395
8.55235 657.461
8.59709 636.098
8.64183 854.203
8.68658 1811.43
8.73134 737.224
8.77609 149.897
8.82083 105.414
8.86558 94.4854
8.91033 89.3298
8.9551 86.0338
8.99985 83.8783
9.04461 83.0148
9.08936 81.8314
9.13412 81.6037
9.17888 83.112
9.22365 106.152
9.26841 170.169
9.31318 119.672
9.35794 85.2324
9.4027 82.3588
9.44749 82.4378
9.49226 82.4642
9.53703 83.5031
9.5818 84.5936
9.62657 85.8612
9.67134 87.5733
9.71614 89.1161
9.76091 91.4785
9.80569 94.1736
9.85047 98.4125
9.89525 105.49
9.94005 119.479
9.98484 212.493
10.0296 600.737
10.0744 599.802
10.1192 550.438
10.164 1261.08
10.2088 1406.53
10.2536 361.647
10.2984 131.561
10.3432 112.678
10.388 107.242
10.4328 128.24
10.4776 232.579
10.5224 226.193
10.5672 203.511
10.612 367.781
10.6568 479.875
10.7017 203.303
10.7465 105.792
10.7913 85.2547
10.8361 80.2141
10.8809 77.279
10.9257 74.7378
10.9706 73.2666
11.0154 71.1824
11.0602 69.6892
11.105 68.7303
11.1499 67.2593
11.1947 66.2689
11.2395 65.1986
11.2844 64.5687
11.3292 63.904
11.374 63.1392
11.4189 62.8244
11.4637 61.9817
11.5086 61.2358
11.5534 60.6694
11.5983 60.8454
11.6431 60.7997
11.688 60.0446
11.7328 59.9816
11.7777 60.1863
11.8225 59.9594
11.8674 60.5552
11.9122 64.024
11.9571 79.9475
12.002 80.0086
12.0468 72.7365
12.0917 93.9738
12.1366 103.883
12.1814 92.4556
12.2263 103.994
12.2712 164.617
12.3161 171.293
12.3609 89.8795
12.4058 65.5063
12.4507 62.6115
12.4956 62.0513
12.5405 61.5429
12.5853 62.0727
12.6302 62.212
12.6751 62.6292
12.72 63.6018
12.7649 64.4337
12.8098 65.2632
12.8547 65.9365
12.8996 67.7341
12.9445 69.1358
12.9894 71.1891
13.0343 73.5188
13.0792 79.6423
13.1242 91.3094
13.1691 142.587
13.214 193.292
13.2589 165.822
13.3038 157.737
13.3487 230.598
13.3937 389.317
13.4386 301.331
13.4835 147.741
13.5285 167.393
13.5734 180.471
13.6183 147.711
13.6633 151.826
13.7082 240.835
13.7531 350.302
13.7981 220.894
13.843 99.4238
13.888 81.1769
13.9329 76.8503
13.9779 75.2538
14.0228 73.375
14.0678 72.2353
14.1127 74.1432
14.1577 84.305
14.2027 83.6495
14.2476 73.2266
14.2926 68.8645
14.3376 67.7029
14.3825 67.0454
14.4275 67.0259
14.4725 66.7022
14.5175 66.7644
14.5624 66.5652
14.6074 66.8892
14.6524 67.4698
14.6974 68.3712
14.7424 70.3916
14.7874 81.5607
14.8324 110.935
14.8774 117.078
14.9224 102.667
14.9674 103.597
15.0124 136.293
15.0574 205.247
15.1024 183.191
15.1474 98.4617
15.1924 73.3343
15.2374 68.6207
15.2824 66.6126
15.3274 65.7403
15.3725 64.9109
15.4175 64.5487
15.4625 64.0295
15.5076 63.6968
15.5526 64.0682
15.5976 64.1139
15.6426 65.7359
15.6877 74.5677
15.7327 98.6006
15.7778 106.337
15.8228 93.3054
15.8679 90.6706
15.9129 106.059
15.958 161.913
16.003 184.846
16.0481 118.304
16.0931 75.4472
16.1382 64.3099
16.1833 60.3206
16.2283 57.8077
16.2734 57.0523
16.3185 56.3
16.3636 55.394
16.4086 54.6963
16.4537 54.4415
16.4988 53.6442
16.5439 53.6081
16.589 53.3123
16.6341 52.9427
16.6792 52.5052
16.7243 52.8549
16.7694 52.8109
16.8145 52.8074
16.8596 53.0482
16.9047 53.8574
16.9498 55.3896
16.9949 55.124
17.04 54.5003
17.0851 55.5569
17.1302 60.4734
17.1754 63.2653
17.2205 61.3056
17.2656 59.9866
17.3108 62.1482
17.3559 68.1423
17.401 80.1639
17.4462 77.867
17.4913 63.8141
17.5365 58.1997
17.5815 57.5084
17.6268 57.6938
17.6718 57.9944
17.7171 58.7242
17.7622 60.7846
17.8074 61.9105
17.8525 63.3437
17.8977 72.0551
17.9428 84.9038
17.9881 85.7448
18.0331 78.8722
18.0784 77.7872
18.1237 86.8917
18.1688 117.067
18.214 151.447
18.2591 131.374
18.3044 89.0091
18.3495 75.6064
18.3948 78.1529
18.4399 92.685
18.4852 103.344
18.5303 87.3456
18.5756 68.5013
18.6207 62.3774
18.666 60.1362
18.7112 58.8776
18.7565 58.021
18.8016 57.4982
18.8469 56.5962
18.892 56.4222
18.9374 55.8452
18.9825 55.6564
19.0278 55.3286
19.073 55.567
19.1183 56.1333
19.1635 58.78
19.2088 60.8843
19.254 59.9933
19.2993 59.3159
19.3447 60.4423
19.3898 62.4067
19.4352 67.2781
19.4804 73.6638
19.5257 69.3248
19.5709 58.5335
19.6163 53.8329
19.6615 52.7414
19.7068 52.0289
19.752 52.1641
19.7974 52.1903
19.8426 53.5856
19.888 56.1381
19.9332 57.0694
19.9786 55.9376
20.0238 54.8536
20.0692 56.2211
20.1144 59.9234
20.1598 66.6467
20.205 70.7995
20.2504 66.9962
20.2957 58.8494
20.3411 55.9172
20.3863 58.4798
20.4318 63.8714
20.477 62.7603
20.5224 55.2082
20.5677 50.6386
20.6131 49.2013
20.6586 48.6931
20.7038 48.5248
20.7493 48.3062
20.7945 48.6904
20.84 48.5236
20.8853 48.0218
20.9307 47.5761
20.976 47.7703
21.0215 47.849
21.0668 48.0862
21.1122 48.0349
21.1575 47.6463
21.203 47.4062
21.2483 47.6296
21.2938 48.7201
21.3391 49.7743
21.3846 50.2573
21.4299 48.8795
21.4754 47.8545
21.5207 47.678
21.5662 47.7243
21.6116 48.0206
21.6571 50.3669
21.7024 52.2287
21.7479 52.4996
21.7933 51.3632
21.8388 51.4443
21.8843 52.9722
21.9297 55.2262
21.9752 59.5301
22.0206 64.6692
22.0661 63.1185
22.1115 56.5904
22.157 53.1808
22.2024 54.1084
22.248 55.356
22.2933 53.5373
22.3389 50.2433
22.3843 48.2266
22.4299 47.8343
22.4753 47.5625
22.5208 47.4689
22.5662 47.4564
22.6118 47.7731
22.6572 47.9283
22.7028 49.2094
22.7483 50.5695
22.7939 51.0335
22.8393 49.8723
22.8849 49.5309
22.9303 49.4888
22.9759 50.1412
23.0214 51.9308
23.067 55.9728
23.1126 57.7632
23.1581 54.203
23.2037 50.0864
23.2492 48.5483
23.2948 48.644
23.3403 50.2589
23.3859 50.9405
23.4314 50.3731
23.477 49.3744
23.5225 48.8846
23.5682 49.0004
23.6137 50.2246
23.6593 53.2452
23.7048 57.0404
23.7505 56.164
23.796 50.9085
23.8417 46.7947
23.8872 45.2668
23.9329 44.6701
23.9784 44.1956
24.0241 43.9532
24.0697 43.734
24.1154 43.325
24.1609 43.2674
24.2066 43.0182
24.2522 42.8362
24.2979 42.7059
24.3434 42.4079
24.3892 42.3549
24.4349 42.139
24.4805 41.9581
24.5262 41.8351
24.5718 41.6655
24.6175 41.8176
24.6631 41.8949
24.7089 42.0891
24.7545 41.9586
24.8002 41.7067
24.8458 41.4544
24.8916 41.4395
24.9372 41.5858
24.983 41.6835
25.0286 41.7686
25.0744 42.0794
25.12 42.2558
25.1658 42.2986
25.2114 42.3775
25.2572 43.0758
25.3029 43.4292
25.3487 43.0646
25.3943 42.6591
25.4402 43.3157
25.4858 44.0994
25.5316 43.4154
25.5773 41.5646
25.6231 40.6215
25.669 39.8069
25.7147 39.6963
25.7605 39.855
25.8062 40.1393
25.8521 40.2842
25.8977 39.9923
25.9436 39.8071
25.9893 39.5087
26.0352 39.5479
26.0809 39.6235
26.1268 39.8169
26.1725 40.3457
26.2184 40.9523
26.2641 41.0617
26.31 40.443
26.3557 40.1214
26.4017 39.8733
26.4474 39.8561
26.4933 39.5886
26.5391 39.6711
26.585 39.7336
26.6308 39.8096
26.6767 39.8796
26.7225 40.6763
26.7684 41.5593
26.8142 41.5366
26.8601 40.6513
26.9059 40.0481
26.9519 39.7724
26.9979 39.4908
27.0437 38.8792
27.0896 38.3854
27.1354 38.1723
27.1814 38.0992
27.2272 38.0041
27.2732 37.8798
27.3191 37.5445
27.3651 37.6048
27.4109 37.4948
27.4569 37.3895
27.5027 37.5281
27.5488 37.5502
27.5946 37.4137
27.6407 37.6556
27.6865 37.9931
27.7326 37.8647
27.7784 37.7881
27.8245 37.4555
27.8703 37.2537
27.9164 37.2201
27.9623 37.2727
28.0084 37.3132
28.0543 37.3309
28.1003 37.4404
28.1462 37.922
28.1923 38.274
28.2384 38.0235
28.2843 37.5815
28.3304 36.9776
28.3764 36.9877
28.4225 36.6879
28.4684 36.0898
28.5145 35.5035
28.5605 35.3492
28.6066 35.153
28.6526 35.1063
28.6987 35.0034
28.7447 34.7638
28.7908 34.4851
28.8368 34.546
28.8829 34.3818
28.9289 34.3985
28.9751 34.3297
29.0211 34.4302
29.0673 34.3168
29.1133 34.3055
29.1595 33.8277
29.2055 33.6275
29.2517 33.5871
29.2977 33.4762
29.3439 33.2841
29.3899 33.2008
29.4361 33.1361
29.4824 33.1429
29.5284 33.2859
29.5746 33.2178
29.6207 32.9233
29.6669 32.6561
29.713 32.3668
29.7593 32.1468
29.8053 32.1897
29.8516 32.0726
29.8977 32.1575
29.9439 31.926
29.99 31.8653
30.0363 31.7514
30.0824 31.7328
30.1287 31.676
30.1748 31.5477
30.2211 31.5191
30.2673 31.322
30.3136 31.6521
30.3597 31.5972
30.406 31.7271
30.4522 31.6035
30.4985 31.4081
30.5447 31.3805
30.591 31.179
30.6372 31.129
30.6835 31.1438
30.7297 31.1759
30.7761 31.1585
30.8224 31.3282
30.8686 31.3437
30.915 31.282
30.9612 31.1428
31.0076 30.959
31.0538 30.8011
31.1002 30.6323
31.1464 30.4154
31.1928 30.4606
31.2391 30.3325
31.2855 30.2148
31.3317 30.1994
31.3781 30.1688
31.4244 30.0766
31.4708 29.9791
31.5171 29.9673
31.5636 30.0753
31.6098 30.125
31.6563 30.0925
31.7026 29.885
31.7491 29.6697
31.7953 29.612
31.8418 29.4448
31.8881 29.4659
31.9346 29.2049
31.9809 29.1878
32.0275 29.2036
32.074 29.2568
32.1203 29.2246
32.1668 29.1759
32.2132 28.9677
32.2597 28.8076
32.306 28.7853
32.3526 28.5013
32.399 28.3115
32.4455 28.1638
32.4919 28.1179
32.5385 27.9932
32.5848 27.9478
32.6314 27.8914
32.6778 27.8426
32.7244 27.6543
32.7708 27.5863
32.8174 27.6111
32.8638 27.4172
32.9104 27.4906
32.9569 27.412
33.0035 27.2378
33.0499 27.258
33.0966 27.1057
33.143 27.0236
33.1897 26.9734
33.2361 26.9397
33.2828 26.9848
33.3293 26.7744
33.3759 26.8828
33.4226 26.7101
33.4691 26.6145
33.5158 26.6661
33.5623 26.5604
33.609 26.2524
33.6555 26.1803
33.7022 26.0118
33.7487 25.8925
33.7954 25.8567
33.842 25.8148
33.8887 25.6838
33.9353 25.6771
33.982 25.5151
34.0286 25.5649
34.0753 25.4138
34.1219 25.4049
34.1687 25.3232
34.2152 25.2684
34.262 25.1292
34.3086 24.9926
34.3554 24.9606
34.402 24.7546
34.4488 24.7656
34.4954 24.7197
34.5422 24.6679
34.5889 24.5595
34.6357 24.4071
34.6825 24.4236
34.7292 24.2913
34.776 24.2246
34.8227 24.1507
34.8695 24.0188
34.9162 24.0366
34.9631 23.9605
35.0098 23.9515
35.0566 23.862
35.1033 23.7236
35.1502 23.7707
35.1969 23.6298
35.2438 23.5415
35.2906 23.5047
35.3375 23.457
35.3842 23.3659
35.4311 23.3187
35.4779 23.4034
35.5248 23.2363
35.5716 23.217
35.6185 23.1799
35.6653 23.1746
35.7123 23.0962
35.759 23.0489
35.806 22.8536
35.8528 22.7507
35.8998 22.6641
35.9468 22.6204
35.9936 22.5192
36.0406 22.4934
36.0874 22.465
36.1345 22.3547
36.1813 22.2524
36.2283 22.1569
36.2752 22.1235
36.3222 22.206
36.3691 22.0348
36.4161 22.0252
36.463 21.9604
36.5101 21.949
36.557 21.8176
36.6041 21.606
36.651 21.7186
36.6981 21.6564
36.745 21.5939
36.7921 21.5378
36.839 21.4983
36.8861 21.3463
36.9331 21.2634
36.9802 21.2162
37.0272 21.0125
37.0743 21.0185
37.1213 20.984
37.1684 20.9215
37.2154 20.8955
37.2626 20.8318
37.3098 20.6986
37.3568 20.6645
37.404 20.7051
37.451 20.4979
37.4982 20.4892
37.5452 20.3342
37.5924 20.3041
37.6395 20.4157
37.6867 20.1626
37.7337 20.1516
37.781 20.099
37.8281 20.0644
37.8753 19.9453
37.9224 19.8738
37.9697 19.8342
38.0168 19.7701
38.064 19.72
38.1111 19.6336
38.1584 19.5453
38.2056 19.5626
38.2529 19.5357
38.3 19.3735
38.3473 19.3205
38.3945 19.2825
38.4418 19.2159
38.489 19.1308
38.5363 19.0313
38.5837 19.0111
38.6309 18.9219
38.6782 18.9161
38.7254 18.8695
38.7728 18.7663
38.82 18.7226
38.8674 18.6799
38.9146 18.6225
38.9621 18.5449
39.0093 18.4996
39.0567 18.4356
39.104 18.3641
39.1514 18.3528
39.1987 18.3089
39.2461 18.2181
39.2934 18.2089
39.3409 18.0199
39.3882 18.0344
39.4356 17.9612
39.483 17.9078
39.5304 17.8698
39.5778 17.8741
39.6253 17.7747
39.6726 17.6921
39.7201 17.6849
39.7675 17.615
39.815 17.5286
39.8624 17.4592
39.9099 17.4685
39.9575 17.3945
40.0049 17.3212
40.0525 17.226
40.0999 17.2259
40.1474 17.157
40.1949 17.0792
40.2425 16.9708
40.2899 16.9838
40.3375 16.95
40.385 16.8635
40.4326 16.8647
40.48 16.7229
40.5277 16.7802
40.5752 16.6837
40.6228 16.6193
40.6703 16.5899
40.718 16.5362
40.7655 16.4725
40.8132 16.4155
40.8607 16.3364
40.9084 16.3288
40.9559 16.268
41.0036 16.1843
41.0512 16.2043
41.0989 16.152
41.1465 16.0823
41.1942 16.0618
41.242 15.97
41.2896 15.9326
41.3373 15.8591
41.3849 15.8053
41.4327 15.7574
41.4803 15.7242
41.5281 15.6275
41.5758 15.5488
41.6236 15.418
41.6712 15.4311
41.7191 15.4005
41.7667 15.3664
41.8146 15.3285
41.8622 15.2578
41.9101 15.2002
41.9578 15.11
42.0057 15.1388
42.0534 15.098
42.1013 15.0046
42.149 14.9909
42.1969 14.9289
42.2446 14.8563
42.2925 14.806
42.3403 14.7728
42.3882 14.7373
42.436 14.7155
42.4839 14.6309
42.5319 14.5966
42.5797 14.6095
42.6277 14.475
42.6755 14.43
42.7235 14.3104
42.7713 14.3141
42.8193 14.2569
42.8671 14.2331
42.9152 14.1857
42.963 14.1346
43.0111 14.0586
43.0589 14.0472
43.107 13.9275
43.1549 13.9938
43.2029 13.8267
43.2508 13.866
43.2989 13.7788
43.3468 13.7196
43.3949 13.714
43.4429 13.6759
43.491 13.5578
43.5389 13.5536
43.5871 13.5175
43.635 13.483
43.6832 13.4139
43.7312 13.3603
43.7793 13.3271
43.8273 13.2765
43.8755 13.235
43.9237 13.1928
43.9717 13.1471
44.0199 13.1118
44.068 13.0758
44.1162 12.9685
44.1642 13.0205
44.2125 12.9433
44.2606 12.8755
44.3088 12.7897
44.3569 12.8007
44.4052 12.7482
44.4533 12.6602
44.5016 12.6171
44.5497 12.6213
44.598 12.5516
44.6461 12.5335
44.6945 12.4418
44.7426 12.456
44.791 12.4027
44.8391 12.3594
44.8875 12.3399
44.9357 12.2577
44.984 12.2121
45.0322 12.1439
45.0806 12.1389
45.1288 12.117
45.1773 11.9998
45.2257 12.0035
45.2739 11.9747
45.3224 11.9542
45.3706 11.8459
45.4191 11.8249
45.4673 11.8003
45.5158 11.7559
45.5641 11.6992
45.6126 11.6648
45.6609 11.6302
45.7094 11.5657
45.7577 11.5597
45.8063 11.4933
45.8546 11.4861
45.9031 11.4152
45.9515 11.3688
46.0001 11.3597
46.0484 11.32
46.097 11.251
46.1454 11.2098
46.194 11.2047
46.2424 11.116
46.291 11.0965
46.3395 11.0249
46.3881 10.9772
46.4365 11.0065
46.4852 10.9215
46.5337 10.8822
46.5823 10.8762
46.631 10.8479
46.6795 10.7637
46.7282 10.7503
46.7767 10.72
46.8254 10.6339
46.8739 10.609
46.9226 10.5574
46.9712 10.5429
47.0199 10.5092
47.0685 10.4826
47.1173 10.3932
47.1658 10.3852
47.2146 10.3356
47.2632 10.2666
47.312 10.3012
47.3606 10.2317
47.4095 10.1783
47.4581 10.1578
47.5069 10.1173
47.5556 10.1007
47.6044 10.0314
47.6531 9.98214
47.702 9.94612
47.7507 9.93698
47.7996 9.89019
47.8483 9.84216
47.8972 9.84909
47.9461 9.75253
47.9948 9.71874
48.0438 9.71834
48.0925 9.71342
48.1415 9.67989
48.1902 9.6128
48.2392 9.5896
48.288 9.53336
48.337 9.53229
48.3858 9.45284
48.4348 9.45929
48.4837 9.45926
48.5327 9.37975
48.5815 9.36772
48.6306 9.34544
48.6795 9.27944
48.7285 9.23789
48.7774 9.24401
48.8265 9.1721
48.8754 9.15952
48.9245 9.1237
48.9734 9.09618
49.0226 9.05249
49.0715 9.0256
49.1206 9.01169
49.1696 8.90955
49.2188 8.90014
49.2679 8.85983
49.3169 8.84725
49.3661 8.81287
49.4151 8.78186
49.4643 8.7709
49.5134 8.73161
49.5626 8.6607
49.6117 8.64069
49.6609 8.60208
49.71 8.57955
49.7592 8.54955
49.8083 8.50668
49.8576 8.50332
49.9067 8.43677
49.956 8.41504
50.0052 8.40115
50.0545 8.34023
50.1036 8.31257
50.153 8.2719
50.2022 8.25662
50.2515 8.2519
50.3007 8.20539
50.3501 8.17345
50.3993 8.14931
50.4487 8.13756
50.498 8.08281
50.5474 8.00819
50.5966 8.02347
50.6461 7.97312
50.6955 7.95199
50.7448 7.92654
50.7943 7.92172
50.8436 7.86054
50.8931 7.8448
50.9424 7.77522
50.9919 7.76963
51.0413 7.74915
51.0908 7.73644
51.1402 7.65908
51.1897 7.61848
51.2391 7.62153
51.2887 7.55547
51.3381 7.52522
51.3877 7.54526
51.4371 7.49799
51.4867 7.45037
51.5362 7.38005
51.5858 7.40526
51.6353 7.34776
51.6849 7.31775
51.7344 7.28401
51.7841 7.2738
51.8336 7.22757
51.8833 7.21998
51.9328 7.18482
51.9826 7.12569
52.0323 7.10582
52.0818 7.08274
52.1316 7.0378
52.1812 7.05634
52.231 7.02513
52.2806 6.96203
52.3304 6.98474
52.38 6.93898
52.4298 6.85644
52.4794 6.86326
52.5293 6.85125
52.5789 6.79943
52.6288 6.77525
52.6785 6.71835
52.7284 6.70738
52.7781 6.71293
52.828 6.66888
52.8777 6.66221
52.9276 6.61845
52.9774 6.6015
53.0273 6.54706
53.0771 6.523
53.1271 6.49447
53.1769 6.46846
53.2269 6.45082
53.2767 6.40243
53.3267 6.38897
53.3765 6.33798
53.4266 6.36871
53.4766 6.28135
53.5265 6.26016
53.5765 6.2357
53.6264 6.24104
53.6765 6.20842
53.7264 6.1655
53.7765 6.15429
53.8265 6.08282
53.8766 6.04825
53.9266 6.04119
53.9767 6.02075
54.0267 5.96739
54.0769 5.95148
54.1269 5.92864
54.1771 5.87833
54.2271 5.82276
54.2773 5.76493
54.3274 5.83825
54.3776 5.72216
54.4277 5.68235
54.478 5.64326
54.528 5.61004
54.5783 5.5834
54.6285 5.52855
54.6788 5.46981
54.7289 5.41831
54.7792 5.41666
54.8296 5.34355
54.8798 5.31395
54.9301 5.25661
54.9803 5.21136
55.0307 5.21673
55.0809 5.14869
55.1314 5.12172
55.1816 5.02365
55.232 4.99811
55.2823 4.98375
55.3328 4.89819
55.383 4.84239
55.4335 4.82913
55.4838 4.73275
55.5344 4.72802
55.5847 4.75842
55.6352 4.69886
55.6856 4.61695
55.7361 4.64634