File: XRD/Ni3Fe_FD0224.xy
TT I
1.27165 7.96109
1.31627 7.14879
1.36089 7.2846
1.40551 6.09135
1.45013 7.12545
1.49476 7.08174
1.53938 6.84205
1.584 5.75129
1.62863 5.85534
1.67325 5.81603
1.71787 5.29078
1.7625 5.00562
1.80712 5.05587
1.85174 5.10439
1.89636 4.96179
1.94099 5.14784
1.98562 5.2323
2.03025 4.47164
2.07487 5.02476
2.11949 4.80665
2.16411 4.60689
2.20874 5.16345
2.25338 4.30521
2.298 4.61756
2.34263 4.09775
2.38725 5.19624
2.43188 4.74101
2.4765 4.82357
2.52115 5.11605
2.56577 5.37544
2.6104 5.38169
2.65503 5.91407
2.69965 6.69122
2.7443 6.28326
2.78893 6.46838
2.83356 7.44443
2.87818 8.02534
2.92281 8.47234
2.96744 9.81796
3.01209 10.0798
3.05672 10.8194
3.10135 12.3913
3.14599 12.5909
3.19062 14.2876
3.23527 15.0298
3.2799 15.8786
3.32454 16.8263
3.36917 17.5684
3.4138 18.8092
3.45844 19.6985
3.50309 20.6995
3.54773 21.5969
3.59237 22.4077
3.637 23.3283
3.68164 24.1872
3.7263 25.2318
3.77094 25.7985
3.81558 26.9453
3.86022 27.5145
3.90486 29.1691
3.9495 30.3665
3.99416 30.824
4.0388 32.321
4.08344 33.7911
4.12809 34.9968
4.17273 36.4575
4.21738 37.7613
4.26204 38.9138
4.30669 40.6399
4.35133 42.9687
4.39598 44.5617
4.44063 46.6512
4.4853 48.5024
4.52995 52.299
4.5746 54.0526
4.61925 55.7292
4.6639 58.0645
4.70855 61.4481
4.75322 64.368
4.79788 67.7244
4.84253 71.8551
4.88719 77.1103
4.93184 80.8635
4.97652 88.6462
5.02118 96.4849
5.06583 107.463
5.11049 124.238
5.15515 169.147
5.19981 885.108
5.24449 3957.95
5.28916 10584.7
5.33382 4167.99
5.37848 274.924
5.42315 154.013
5.46783 129.032
5.5125 117.975
5.55716 112.459
5.60183 107.113
5.6465 104.493
5.69117 102.957
5.73586 101.145
5.78053 102.041
5.8252 102.489
5.86988 105.054
5.91455 110.435
5.95924 133.792
6.00392 447.205
6.0486 1419.23
6.09328 3630.82
6.13795 3672.18
6.18263 369.681
6.22733 110.054
6.27201 89.4086
6.3167 80.9312
6.36138 76.2644
6.40606 72.6578
6.45075 70.7621
6.49545 68.5029
6.54014 66.5869
6.58483 65.4179
6.62952 64.1896
6.67421 62.6469
6.71892 61.5762
6.76361 60.7379
6.8083 59.8075
6.853 59.1868
6.89769 58.496
6.94239 58.0985
6.98711 57.4503
7.03181 57.2384
7.07651 56.6065
7.12121 56.5373
7.16591 56.5307
7.21063 55.6456
7.25533 55.7081
7.30004 55.6608
7.34475 56.1884
7.38945 56.0814
7.43416 55.5512
7.47889 55.7282
7.5236 56.5517
7.56831 57.24
7.61303 57.6895
7.65774 57.5131
7.70247 58.0879
7.74719 58.2293
7.79191 58.972
7.83663 59.1308
7.88135 60.5586
7.92607 61.3908
7.97081 62.1462
8.01553 63.7291
8.06026 65.3898
8.10498 66.9118
8.14971 69.2704
8.19446 70.4537
8.23919 73.1043
8.28392 76.2512
8.32865 79.5598
8.37339 84.6682
8.41812 90.7274
8.46288 110.871
8.50761 291.33
8.55235 586.91
8.59709 1058.73
8.64183 1974.97
8.68658 1198.8
8.73134 218.206
8.77609 111.096
8.82083 100.413
8.86558 96.314
8.91033 93.4431
8.9551 90.4241
8.99985 89.4643
9.04461 88.5795
9.08936 88.0414
9.13412 86.7081
9.17888 86.5932
9.22365 86.8243
9.26841 86.9182
9.31318 88.1759
9.35794 88.4288
9.4027 88.6397
9.44749 89.3374
9.49226 89.8333
9.53703 90.7028
9.5818 92.9164
9.62657 94.3152
9.67134 95.6461
9.71614 98.1316
9.76091 100.179
9.80569 102.984
9.85047 106.899
9.89525 112.732
9.94005 136.738
9.98484 303.08
10.0296 518.016
10.0744 799.464
10.1192 1457.81
10.164 1707.42
10.2088 554.098
10.2536 148.387
10.2984 117.593
10.3432 112.821
10.388 114.921
10.4328 159.083
10.4776 212.022
10.5224 280.676
10.5672 440.438
10.612 537.569
10.6568 255.987
10.7017 109.39
10.7465 92.7809
10.7913 87.9629
10.8361 85.4026
10.8809 82.8811
10.9257 80.7126
10.9706 79.7107
11.0154 77.7212
11.0602 75.9152
11.105 74.8516
11.1499 73.4014
11.1947 72.3083
11.2395 71.3713
11.2844 71.1051
11.3292 69.863
11.374 69.1637
11.4189 68.7577
11.4637 67.7201
11.5086 67.1271
11.5534 66.6851
11.5983 66.3972
11.6431 66.3121
11.688 65.7455
11.7328 65.6778
11.7777 65.1134
11.8225 65.1219
11.8674 65.5305
11.9122 66.1147
11.9571 66.1885
12.002 68.7656
12.0468 79.9231
12.0917 94.3019
12.1366 108.914
12.1814 140.014
12.2263 193.061
12.2712 188.081
12.3161 105.162
12.3609 70.4292
12.4058 67.2182
12.4507 67.3142
12.4956 67.437
12.5405 67.6435
12.5853 68.1162
12.6302 68.0813
12.6751 68.9825
12.72 69.8167
12.7649 70.8418
12.8098 71.8785
12.8547 72.9828
12.8996 74.973
12.9445 76.531
12.9894 78.2048
13.0343 80.5459
13.0792 86.0478
13.1242 110.88
13.1691 147.695
13.214 174.399
13.2589 228.009
13.3038 319.709
13.3487 419.069
13.3937 310.928
13.4386 150.276
13.4835 134.236
13.5285 153.695
13.5734 173.983
13.6183 225.22
13.6633 307.999
13.7082 356.456
13.7531 230.211
13.7981 112.724
13.843 87.2624
13.888 84.0218
13.9329 81.5385
13.9779 79.7896
14.0228 78.4009
14.0678 76.977
14.1127 76.1879
14.1577 75.3431
14.2027 74.7348
14.2476 74.1704
14.2926 73.7389
14.3376 73.298
14.3825 72.7316
14.4275 72.4586
14.4725 72.1876
14.5175 72.4764
14.5624 72.6264
14.6074 72.8412
14.6524 73.6413
14.6974 74.3996
14.7424 81.2705
14.7874 95.5744
14.8324 106.703
14.8774 119.095
14.9224 144.713
14.9674 185.965
15.0124 221.156
15.0574 171.845
15.1024 103.73
15.1474 77.2327
15.1924 73.6808
15.2374 72.4347
15.2824 71.3425
15.3274 70.6684
15.3725 69.927
15.4175 70.0502
15.4625 69.5694
15.5076 69.1039
15.5526 69.5242
15.5976 69.9298
15.6426 74.805
15.6877 86.3159
15.7327 94.8255
15.7778 103.598
15.8228 122.324
15.8679 152.267
15.9129 190.042
15.958 179.18
16.003 114.666
16.0481 73.4356
16.0931 65.7118
16.1382 64.125
16.1833 63.1474
16.2283 61.8715
16.2734 60.9411
16.3185 60.2257
16.3636 59.7269
16.4086 58.9794
16.4537 58.5302
16.4988 58.0614
16.5439 57.993
16.589 57.8425
16.6341 57.5158
16.6792 56.8304
16.7243 57.247
16.7694 57.0805
16.8145 57.1425
16.8596 57.3135
16.9047 57.5199
16.9498 57.7082
16.9949 57.8633
17.04 59.3198
17.0851 62.094
17.1302 63.8089
17.1754 65.6853
17.2205 68.6717
17.2656 73.7466
17.3108 81.7976
17.3559 85.6467
17.401 77.1778
17.4462 66.6606
17.4913 62.4939
17.5365 62.1146
17.5815 62.219
17.6268 62.7182
17.6718 63.1705
17.7171 63.7773
17.7622 64.5987
17.8074 66.4623
17.8525 72.4322
17.8977 78.2255
17.9428 82.8306
17.9881 87.8812
18.0331 99.0554
18.0784 115.149
18.1237 138.94
18.1688 145.444
18.214 119.711
18.2591 94.1773
18.3044 90.2941
18.3495 96.8556
18.3948 106.859
18.4399 103.401
18.4852 84.2077
18.5303 70.4439
18.5756 65.6147
18.6207 64.6001
18.666 63.5176
18.7112 62.621
18.7565 61.871
18.8016 61.5909
18.8469 60.9977
18.892 60.7759
18.9374 60.2256
18.9825 59.9848
19.0278 59.5533
19.073 60.2689
19.1183 61.3323
19.1635 62.2619
19.2088 62.798
19.254 64.7476
19.2993 67.1727
19.3447 71.1482
19.3898 76.537
19.4352 76.2145
19.4804 68.7922
19.5257 60.6914
19.5709 57.0639
19.6163 56.6093
19.6615 56.5564
19.7068 55.9122
19.752 55.8643
19.7974 57.0261
19.8426 58.1865
19.888 58.7759
19.9332 59.5613
19.9786 61.4409
20.0238 64.0165
20.0692 68.4665
20.1144 72.4979
20.1598 73.0085
20.205 68.1073
20.2504 64.4056
20.2957 64.4638
20.3411 67.2519
20.3863 67.5286
20.4318 62.8627
20.477 56.8574
20.5224 53.7221
20.5677 52.9334
20.6131 52.5324
20.6586 51.9478
20.7038 51.9509
20.7493 51.5059
20.7945 51.172
20.84 51.1861
20.8853 51.2108
20.9307 51.2215
20.976 51.5118
21.0215 51.2526
21.0668 51.5185
21.1122 51.8085
21.1575 52.0445
21.203 52.4996
21.2483 53.5318
21.2938 54.1478
21.3391 53.0096
21.3846 51.6646
21.4299 51.1527
21.4754 51.0303
21.5207 51.0669
21.5662 51.8248
21.6116 52.6759
21.6571 53.4713
21.7024 54.3113
21.7479 55.4212
21.7933 57.4703
21.8388 59.9499
21.8843 63.2645
21.9297 66.8318
21.9752 66.8928
22.0206 63.2677
22.0661 59.0396
22.1115 57.8239
22.157 58.3333
22.2024 57.7283
22.248 54.7484
22.2933 52.6927
22.3389 51.5022
22.3843 51.3354
22.4299 50.8172
22.4753 50.9103
22.5208 50.8777
22.5662 51.0431
22.6118 51.3622
22.6572 52.0747
22.7028 52.563
22.7483 52.8006
22.7939 53.1006
22.8393 54.4471
22.8849 55.5184
22.9303 57.0408
22.9759 59.1066
23.0214 60.0226
23.067 57.9888
23.1126 54.4768
23.1581 52.1507
23.2037 51.5008
23.2492 51.825
23.2948 52.1372
23.3403 52.333
23.3859 52.7495
23.4314 53.319
23.477 54.2468
23.5225 55.7909
23.5682 57.6172
23.6137 59.9076
23.6593 58.9652
23.7048 55.3418
23.7505 51.345
23.796 49.146
23.8417 48.2332
23.8872 47.8064
23.9329 47.4284
23.9784 47.1081
24.0241 46.9422
24.0697 46.6365
24.1154 46.1219
24.1609 46.1692
24.2066 45.8661
24.2522 45.8301
24.2979 45.4468
24.3434 45.3035
24.3892 45.2634
24.4349 44.9583
24.4805 44.9396
24.5262 45.1096
24.5718 44.922
24.6175 45.001
24.6631 44.8842
24.7089 44.4569
24.7545 44.3425
24.8002 44.3253
24.8458 44.2264
24.8916 44.2518
24.9372 44.4308
24.983 44.9155
25.0286 44.9927
25.0744 45.4081
25.12 45.6247
25.1658 46.2201
25.2114 46.6957
25.2572 46.5707
25.3029 46.4182
25.3487 46.6413
25.3943 46.7592
25.4402 45.8901
25.4858 44.9472
25.5316 43.5641
25.5773 43.0384
25.6231 42.9977
25.669 42.5666
25.7147 42.6648
25.7605 42.5261
25.8062 42.6139
25.8521 42.5914
25.8977 42.527
25.9436 42.6277
25.9893 42.5764
26.0352 43.1035
26.0809 43.239
26.1268 43.5888
26.1725 43.5076
26.2184 42.9483
26.2641 42.4309
26.31 42.2613
26.3557 42.229
26.4017 42.1505
26.4474 42.4082
26.4933 42.4923
26.5391 42.8763
26.585 43.1857
26.6308 43.8856
26.6767 43.9552
26.7225 43.9536
26.7684 43.4788
26.8142 42.832
26.8601 42.4615
26.9059 41.8515
26.9519 41.5324
26.9979 41.1954
27.0437 40.8138
27.0896 40.6019
27.1354 40.7917
27.1814 40.3789
27.2272 40.4834
27.2732 40.514
27.3191 40.2083
27.3651 40.3213
27.4109 40.2053
27.4569 40.3636
27.5027 40.2699
27.5488 40.4395
27.5946 40.385
27.6407 40.2652
27.6865 40.1333
27.7326 39.7609
27.7784 39.8464
27.8245 39.617
27.8703 39.8181
27.9164 39.8373
27.9623 39.9389
28.0084 40.2791
28.0543 40.733
28.1003 40.7317
28.1462 40.7213
28.1923 40.2494
28.2384 39.6892
28.2843 39.3548
28.3304 39.0107
28.3764 38.5896
28.4225 38.1682
28.4684 38.032
28.5145 37.6788
28.5605 37.6191
28.6066 37.372
28.6526 37.2826
28.6987 37.2682
28.7447 37.0678
28.7908 36.9772
28.8368 37.007
28.8829 36.9279
28.9289 36.9133
28.9751 36.8205
29.0211 36.6315
29.0673 36.4307
29.1133 36.219
29.1595 36.041
29.2055 35.8704
29.2517 35.8668
29.2977 35.7548
29.3439 35.7754
29.3899 35.7308
29.4361 35.6419
29.4824 35.4811
29.5284 35.5236
29.5746 34.9814
29.6207 34.687
29.6669 34.6616
29.713 34.4381
29.7593 34.4718
29.8053 34.4714
29.8516 34.3336
29.8977 34.3233
29.9439 34.0939
29.99 34.1686
30.0363 33.9512
30.0824 34.0855
30.1287 33.8904
30.1748 33.9714
30.2211 33.8882
30.2673 33.7369
30.3136 33.8144
30.3597 33.8216
30.406 33.6752
30.4522 33.6075
30.4985 33.5261
30.5447 33.674
30.591 33.5645
30.6372 33.642
30.6835 33.5166
30.7297 33.6398
30.7761 33.5939
30.8224 33.5255
30.8686 33.3703
30.915 33.113
30.9612 33.0766
31.0076 32.8285
31.0538 32.7107
31.1002 32.5817
31.1464 32.3903
31.1928 32.4115
31.2391 32.4105
31.2855 32.2746
31.3317 32.2549
31.3781 32.3048
31.4244 32.2461
31.4708 32.2001
31.5171 32.2102
31.5636 32.3019
31.6098 31.9763
31.6563 31.88
31.7026 31.7194
31.7491 31.5826
31.7953 31.6449
31.8418 31.5406
31.8881 31.5087
31.9346 31.4183
31.9809 31.3808
32.0275 31.2853
32.074 31.1998
32.1203 31.0723
32.1668 30.8857
32.2132 30.7843
32.2597 30.5186
32.306 30.5811
32.3526 30.2985
32.399 30.2998
32.4455 30.0627
32.4919 29.9998
32.5385 30.0271
32.5848 29.8631
32.6314 29.8435
32.6778 29.6448
32.7244 29.6467
32.7708 29.5075
32.8174 29.5281
32.8638 29.3778
32.9104 29.4375
32.9569 29.4298
33.0035 29.1984
33.0499 29.2074
33.0966 29.0556
33.143 29.1319
33.1897 28.987
33.2361 28.8301
33.2828 28.8628
33.3293 28.7837
33.3759 28.7611
33.4226 28.4365
33.4691 28.3831
33.5158 28.2768
33.5623 28.1786
33.609 28.0846
33.6555 27.9111
33.7022 27.9037
33.7487 27.7195
33.7954 27.7257
33.842 27.6479
33.8887 27.487
33.9353 27.5412
33.982 27.3857
34.0286 27.3555
34.0753 27.232
34.1219 27.1069
34.1687 27.0545
34.2152 26.9322
34.262 26.7751
34.3086 26.7522
34.3554 26.7144
34.402 26.5821
34.4488 26.5067
34.4954 26.4695
34.5422 26.3975
34.5889 26.2538
34.6357 26.1233
34.6825 26.1227
34.7292 26.0114
34.776 25.8659
34.8227 25.8043
34.8695 25.7547
34.9162 25.7719
34.9631 25.6649
35.0098 25.701
35.0566 25.4082
35.1033 25.442
35.1502 25.4301
35.1969 25.2688
35.2438 25.3261
35.2906 25.2122
35.3375 25.1823
35.3842 25.0803
35.4311 25.1571
35.4779 25.0904
35.5248 24.9823
35.5716 24.8207
35.6185 24.7279
35.6653 24.6764
35.7123 24.6261
35.759 24.5455
35.806 24.5022
35.8528 24.3797
35.8998 24.2863
35.9468 24.1999
35.9936 24.1798
36.0406 24.0255
36.0874 24.1425
36.1345 24.0047
36.1813 23.9283
36.2283 23.7559
36.2752 23.7209
36.3222 23.6528
36.3691 23.6492
36.4161 23.4608
36.463 23.4098
36.5101 23.4409
36.557 23.4349
36.6041 23.1883
36.651 23.2026
36.6981 23.1243
36.745 23.1281
36.7921 23.0349
36.839 22.8765
36.8861 22.8668
36.9331 22.7775
36.9802 22.7076
37.0272 22.5912
37.0743 22.5322
37.1213 22.4222
37.1684 22.3631
37.2154 22.3227
37.2626 22.2592
37.3098 22.1838
37.3568 22.1242
37.404 22.1167
37.451 21.9379
37.4982 21.9122
37.5452 21.8158
37.5924 21.7576
37.6395 21.7887
37.6867 21.657
37.7337 21.5733
37.781 21.4767
37.8281 21.4001
37.8753 21.3332
37.9224 21.2859
37.9697 21.157
38.0168 21.1297
38.064 21.0573
38.1111 21.0207
38.1584 20.9625
38.2056 20.9326
38.2529 20.844
38.3 20.7705
38.3473 20.7056
38.3945 20.5901
38.4418 20.5412
38.489 20.4732
38.5363 20.3713
38.5837 20.2761
38.6309 20.3423
38.6782 20.2317
38.7254 20.1447
38.7728 20.0731
38.82 20.0439
38.8674 19.9946
38.9146 19.9066
38.9621 19.8706
39.0093 19.7913
39.0567 19.7416
39.104 19.6494
39.1514 19.6078
39.1987 19.5597
39.2461 19.5015
39.2934 19.4037
39.3409 19.3423
39.3882 19.2025
39.4356 19.2374
39.483 19.1848
39.5304 19.1013
39.5778 19.0137
39.6253 19.0293
39.6726 18.9359
39.7201 18.9461
39.7675 18.7689
39.815 18.763
39.8624 18.7018
39.9099 18.6708
39.9575 18.5514
40.0049 18.5299
40.0525 18.3741
40.0999 18.3306
40.1474 18.3741
40.1949 18.3311
40.2425 18.1916
40.2899 18.1657
40.3375 18.1417
40.385 18.0506
40.4326 18.0309
40.48 17.9002
40.5277 17.8875
40.5752 17.7872
40.6228 17.7129
40.6703 17.7102
40.718 17.7146
40.7655 17.6248
40.8132 17.5061
40.8607 17.5494
40.9084 17.4698
40.9559 17.3967
41.0036 17.3512
41.0512 17.2346
41.0989 17.252
41.1465 17.099
41.1942 17.1165
41.242 16.9393
41.2896 16.9718
41.3373 16.8998
41.3849 16.8291
41.4327 16.7855
41.4803 16.7061
41.5281 16.7068
41.5758 16.6456
41.6236 16.5282
41.6712 16.5478
41.7191 16.4162
41.7667 16.3856
41.8146 16.3912
41.8622 16.321
41.9101 16.2608
41.9578 16.1707
42.0057 16.1008
42.0534 16.0753
42.1013 15.9867
42.149 15.9906
42.1969 15.8947
42.2446 15.8565
42.2925 15.7956
42.3403 15.8052
42.3882 15.6972
42.436 15.6554
42.4839 15.618
42.5319 15.5549
42.5797 15.4805
42.6277 15.4618
42.6755 15.3728
42.7235 15.3243
42.7713 15.3038
42.8193 15.2267
42.8671 15.1798
42.9152 15.1
42.963 15.0556
43.0111 15.0216
43.0589 14.9384
43.107 14.8693
43.1549 14.8733
43.2029 14.7878
43.2508 14.7993
43.2989 14.7229
43.3468 14.5918
43.3949 14.6102
43.4429 14.5741
43.491 14.4648
43.5389 14.4579
43.5871 14.4208
43.635 14.3327
43.6832 14.3084
43.7312 14.2563
43.7793 14.2141
43.8273 14.1354
43.8755 14.107
43.9237 14.0876
43.9717 14.0099
44.0199 13.952
44.068 13.9285
44.1162 13.8472
44.1642 13.8233
44.2125 13.7464
44.2606 13.717
44.3088 13.6839
44.3569 13.6357
44.4052 13.5383
44.4533 13.5533
44.5016 13.4577
44.5497 13.4458
44.598 13.3782
44.6461 13.3111
44.6945 13.3332
44.7426 13.2629
44.791 13.176
44.8391 13.1449
44.8875 13.1001
44.9357 13.0483
44.984 13.0214
45.0322 12.9373
45.0806 12.9194
45.1288 12.8983
45.1773 12.8564
45.2257 12.8042
45.2739 12.8155
45.3224 12.7398
45.3706 12.6634
45.4191 12.6012
45.4673 12.5748
45.5158 12.5492
45.5641 12.4529
45.6126 12.4286
45.6609 12.371
45.7094 12.3488
45.7577 12.3329
45.8063 12.2028
45.8546 12.2054
45.9031 12.1598
45.9515 12.1261
46.0001 12.0675
46.0484 12.034
46.097 12.0378
46.1454 11.9686
46.194 11.9141
46.2424 11.8331
46.291 11.8231
46.3395 11.783
46.3881 11.7105
46.4365 11.6605
46.4852 11.6471
46.5337 11.6149
46.5823 11.6119
46.631 11.5279
46.6795 11.4892
46.7282 11.4345
46.7767 11.4107
46.8254 11.2914
46.8739 11.3236
46.9226 11.274
46.9712 11.2203
47.0199 11.1854
47.0685 11.1553
47.1173 11.0959
47.1658 11.0759
47.2146 11.0131
47.2632 10.9691
47.312 10.9483
47.3606 10.8887
47.4095 10.8497
47.4581 10.8059
47.5069 10.774
47.5556 10.7123
47.6044 10.6959
47.6531 10.638
47.702 10.6212
47.7507 10.5578
47.7996 10.5434
47.8483 10.4671
47.8972 10.4709
47.9461 10.437
47.9948 10.3531
48.0438 10.3181
48.0925 10.2866
48.1415 10.2608
48.1902 10.2157
48.2392 10.1875
48.288 10.1816
48.337 10.1413
48.3858 10.0933
48.4348 10.0645
48.4837 10.0683
48.5327 10.0145
48.5815 9.95562
48.6306 9.91358
48.6795 9.88167
48.7285 9.84083
48.7774 9.80639
48.8265 9.75445
48.8754 9.70589
48.9245 9.66471
48.9734 9.6677
49.0226 9.6539
49.0715 9.56944
49.1206 9.52003
49.1696 9.47263
49.2188 9.42661
49.2679 9.42985
49.3169 9.40152
49.3661 9.34095
49.4151 9.31808
49.4643 9.30799
49.5134 9.23929
49.5626 9.203
49.6117 9.18793
49.6609 9.15497
49.71 9.09512
49.7592 9.10144
49.8083 9.03856
49.8576 8.98884
49.9067 8.96546
49.956 8.93811
50.0052 8.88611
50.0545 8.87764
50.1036 8.83458
50.153 8.75528
50.2022 8.80449
50.2515 8.73064
50.3007 8.68343
50.3501 8.67847
50.3993 8.67344
50.4487 8.59722
50.498 8.54112
50.5474 8.54238
50.5966 8.50377
50.6461 8.47487
50.6955 8.44769
50.7448 8.42874
50.7943 8.36922
50.8436 8.3191
50.8931 8.31295
50.9424 8.27162
50.9919 8.25137
51.0413 8.18032
51.0908 8.14756
51.1402 8.16931
51.1897 8.10762
51.2391 8.1041
51.2887 8.04452
51.3381 7.99422
51.3877 7.9857
51.4371 7.96299
51.4867 7.89802
51.5362 7.86858
51.5858 7.85876
51.6353 7.79427
51.6849 7.78672
51.7344 7.73909
51.7841 7.75571
51.8336 7.67727
51.8833 7.67567
51.9328 7.61309
51.9826 7.56375
52.0323 7.54101
52.0818 7.5241
52.1316 7.44677
52.1812 7.45869
52.231 7.4407
52.2806 7.3948
52.3304 7.40725
52.38 7.31651
52.4298 7.31814
52.4794 7.28769
52.5293 7.2809
52.5789 7.24201
52.6288 7.18846
52.6785 7.16608
52.7284 7.12106
52.7781 7.11329
52.828 7.10277
52.8777 7.06378
52.9276 6.99393
52.9774 7.03011
53.0273 6.97133
53.0771 6.94441
53.1271 6.93786
53.1769 6.86794
53.2269 6.86374
53.2767 6.79443
53.3267 6.80708
53.3765 6.74258
53.4266 6.70789
53.4766 6.69284
53.5265 6.61626
53.5765 6.62178
53.6264 6.57974
53.6765 6.59311
53.7264 6.56109
53.7765 6.53343
53.8265 6.43633
53.8766 6.45303
53.9266 6.48298
53.9767 6.41551
54.0267 6.36718
54.0769 6.35035
54.1269 6.29324
54.1771 6.26039
54.2271 6.16918
54.2773 6.17322
54.3274 6.13721
54.3776 6.15159
54.4277 6.07122
54.478 6.0719
54.528 5.97314
54.5783 5.98017
54.6285 5.93514
54.6788 5.90387
54.7289 5.83869
54.7792 5.83839
54.8296 5.78449
54.8798 5.68217
54.9301 5.65755
54.9803 5.66058
55.0307 5.67396
55.0809 5.59872
55.1314 5.53798
55.1816 5.4564
55.232 5.42667
55.2823 5.38605
55.3328 5.28559
55.383 5.30603
55.4335 5.20472
55.4838 5.12985
55.5344 5.11418
55.5847 5.05154
55.6352 5.03939
55.6856 5.01445
55.7361 5.0168