File: XRD/Ni3Fe_FD0361.xy
TT I
1.27165 8.09441
1.31627 6.71503
1.36089 7.30322
1.40551 5.59359
1.45013 6.63316
1.49476 6.20205
1.53938 5.93469
1.584 5.61467
1.62863 5.22901
1.67325 5.02963
1.71787 5.17625
1.7625 4.51246
1.80712 5.15362
1.85174 5.011
1.89636 4.71402
1.94099 4.77772
1.98562 4.60057
2.03025 4.80312
2.07487 4.83495
2.11949 4.77573
2.16411 4.62385
2.20874 8.853
2.25338 11.9848
2.298 5.40872
2.34263 4.61334
2.38725 4.90944
2.43188 5.49615
2.4765 6.06805
2.52115 6.0804
2.56577 6.39491
2.6104 6.89003
2.65503 7.23687
2.69965 7.27402
2.7443 6.97516
2.78893 7.9571
2.83356 7.63456
2.87818 8.46131
2.92281 8.7279
2.96744 9.29203
3.01209 10.7177
3.05672 10.7562
3.10135 12.4818
3.14599 13.1106
3.19062 13.7147
3.23527 14.6473
3.2799 15.749
3.32454 17.281
3.36917 17.4757
3.4138 18.813
3.45844 19.845
3.50309 21.0362
3.54773 21.6517
3.59237 23.1424
3.637 53.4678
3.68164 38.5417
3.7263 25.8725
3.77094 26.2915
3.81558 27.171
3.86022 27.629
3.90486 28.8498
3.9495 30.2044
3.99416 30.7513
4.0388 32.252
4.08344 33.8783
4.12809 34.9738
4.17273 36.5963
4.21738 40.5878
4.26204 127.229
4.30669 114.693
4.35133 45.4768
4.39598 44.6295
4.44063 49.9531
4.4853 55.6389
4.52995 53.0871
4.5746 53.4694
4.61925 54.9656
4.6639 56.7355
4.70855 59.5778
4.75322 63.2945
4.79788 66.414
4.84253 69.8805
4.88719 74.7814
4.93184 78.1256
4.97652 84.6844
5.02118 91.5377
5.06583 100.837
5.11049 115.956
5.15515 169.51
5.19981 618.723
5.24449 3701.1
5.28916 11372.4
5.33382 3286.39
5.37848 220.5
5.42315 139.01
5.46783 122.213
5.5125 112.544
5.55716 106.697
5.60183 102.361
5.6465 100.453
5.69117 98.4876
5.73586 96.7489
5.78053 97.7921
5.8252 97.5758
5.86988 99.2755
5.91455 102.197
5.95924 117.161
6.00392 331.482
6.0486 1287.97
6.09328 4025.87
6.13795 3381.6
6.18263 281.703
6.22733 99.1385
6.27201 85.4175
6.3167 89.4814
6.36138 77.8143
6.40606 71.2864
6.45075 69.5469
6.49545 67.2528
6.54014 65.3927
6.58483 64.2968
6.62952 63.7712
6.67421 75.5576
6.71892 96.0825
6.76361 64.534
6.8083 60.0243
6.853 58.6336
6.89769 57.9912
6.94239 57.5308
6.98711 56.9106
7.03181 56.6433
7.07651 56.0214
7.12121 56.0301
7.16591 56.6897
7.21063 56.1819
7.25533 62.3324
7.30004 107.733
7.34475 71.2227
7.38945 56.2397
7.43416 54.8538
7.47889 55.4295
7.5236 55.6633
7.56831 56.1819
7.61303 57.2292
7.65774 57.6437
7.70247 57.3775
7.74719 57.3855
7.79191 57.8954
7.83663 58.1061
7.88135 59.3652
7.92607 60.1729
7.97081 61.3539
8.01553 62.6642
8.06026 64.2057
8.10498 65.2432
8.14971 71.4051
8.19446 71.4915
8.23919 71.4354
8.28392 74.1162
8.32865 77.0424
8.37339 81.488
8.41812 87.9408
8.46288 111.893
8.50761 228.103
8.55235 508.003
8.59709 1195.51
8.64183 2096.01
8.68658 1034.98
8.73134 177.1
8.77609 104.145
8.82083 96.1727
8.86558 93.2301
8.91033 91.9182
8.9551 91.0315
8.99985 87.5372
9.04461 86.4777
9.08936 85.7975
9.13412 85.0782
9.17888 84.4474
9.22365 84.4506
9.26841 84.5774
9.31318 85.8982
9.35794 86.4845
9.4027 86.533
9.44749 86.7961
9.49226 87.2922
9.53703 88.8431
9.5818 90.726
9.62657 93.9778
9.67134 97.4243
9.71614 96.0507
9.76091 97.6214
9.80569 100.616
9.85047 103.484
9.89525 117.166
9.94005 137.001
9.98484 239.856
10.0296 446.452
10.0744 875.681
10.1192 1600.57
10.164 1609.32
10.2088 448.973
10.2536 134.693
10.2984 114.8
10.3432 113.198
10.388 109.941
10.4328 138.228
10.4776 189.63
10.5224 301.305
10.5672 487.917
10.612 521.896
10.6568 213.647
10.7017 99.5951
10.7465 89.3144
10.7913 85.9375
10.8361 83.1331
10.8809 81.1829
10.9257 79.4167
10.9706 79.4735
11.0154 76.7027
11.0602 74.2962
11.105 73.7126
11.1499 74.6439
11.1947 76.9746
11.2395 72.6376
11.2844 70.3806
11.3292 68.8373
11.374 67.6758
11.4189 67.1577
11.4637 66.65
11.5086 66.2594
11.5534 67.3595
11.5983 66.0381
11.6431 64.992
11.688 64.2949
11.7328 64.5591
11.7777 64.4045
11.8225 64.0896
11.8674 64.1962
11.9122 64.3848
11.9571 64.8413
12.002 66.4889
12.0468 74.2406
12.0917 87.441
12.1366 110.366
12.1814 151.474
12.2263 201.715
12.2712 170.353
12.3161 95.6382
12.3609 69.8188
12.4058 66.1463
12.4507 65.8481
12.4956 66.2816
12.5405 66.2508
12.5853 67.0042
12.6302 70.3586
12.6751 73.3913
12.72 69.9645
12.7649 69.6579
12.8098 70.274
12.8547 72.2302
12.8996 73.4528
12.9445 74.7211
12.9894 76.9903
13.0343 78.3553
13.0792 83.2467
13.1242 100.546
13.1691 128.853
13.214 170.254
13.2589 247.711
13.3038 352.074
13.3487 418.663
13.3937 275.767
13.4386 132.588
13.4835 118.895
13.5285 137.428
13.5734 175.256
13.6183 245.248
13.6633 330.988
13.7082 342.838
13.7531 197.682
13.7981 101.449
13.843 84.3475
13.888 82.0809
13.9329 79.4929
13.9779 78.1242
14.0228 76.4629
14.0678 75.3414
14.1127 74.688
14.1577 74.141
14.2027 73.4877
14.2476 72.3456
14.2926 72.0386
14.3376 72.5484
14.3825 71.4877
14.4275 70.974
14.4725 71.025
14.5175 70.8499
14.5624 70.9759
14.6074 72.1272
14.6524 72.8956
14.6974 72.8483
14.7424 77.4729
14.7874 86.9745
14.8324 98.7262
14.8774 120.689
14.9224 155.846
14.9674 199.873
15.0124 217.032
15.0574 151.924
15.1024 93.202
15.1474 74.4662
15.1924 72.3732
15.2374 71.6925
15.2824 70.9928
15.3274 69.5238
15.3725 68.8074
15.4175 68.5056
15.4625 67.9603
15.5076 67.8509
15.5526 67.9885
15.5976 68.283
15.6426 71.5378
15.6877 78.9725
15.7327 88.1179
15.7778 103.533
15.8228 129.417
15.8679 164.718
15.9129 192.581
15.958 161.263
16.003 100.495
16.0481 69.4996
16.0931 65.1919
16.1382 63.2342
16.1833 62.0383
16.2283 60.6074
16.2734 59.8297
16.3185 59.5498
16.3636 59.4868
16.4086 58.4562
16.4537 57.7903
16.4988 57.0748
16.5439 57.2214
16.589 56.6466
16.6341 56.4059
16.6792 56.1316
16.7243 56.4293
16.7694 56.4017
16.8145 56.4382
16.8596 56.3015
16.9047 57.3559
16.9498 57.448
16.9949 57.1741
17.04 57.9296
17.0851 59.7228
17.1302 61.4451
17.1754 64.3894
17.2205 69.1509
17.2656 75.1963
17.3108 82.852
17.3559 83.4725
17.401 72.9411
17.4462 64.4205
17.4913 61.018
17.5365 60.9117
17.5815 61.0331
17.6268 61.3706
17.6718 61.9239
17.7171 62.6505
17.7622 63.451
17.8074 64.5307
17.8525 68.8759
17.8977 73.3072
17.9428 79.0551
17.9881 88.2496
18.0331 102.677
18.0784 120.245
18.1237 139.715
18.1688 136.372
18.214 110.418
18.2591 90.8764
18.3044 91.7189
18.3495 99.4628
18.3948 106.076
18.4399 97.7089
18.4852 79.0072
18.5303 67.5304
18.5756 63.8976
18.6207 62.9385
18.666 62.138
18.7112 61.492
18.7565 60.6161
18.8016 60.3027
18.8469 59.8094
18.892 59.5754
18.9374 58.7437
18.9825 58.4479
19.0278 58.4444
19.073 59.0287
19.1183 59.374
19.1635 60.3177
19.2088 61.9671
19.254 64.4577
19.2993 68.0467
19.3447 72.3447
19.3898 76.9056
19.4352 74.2111
19.4804 65.47
19.5257 58.4641
19.5709 55.8582
19.6163 55.3852
19.6615 55.2286
19.7068 54.9519
19.752 54.8967
19.7974 55.5935
19.8426 56.4338
19.888 57.1851
19.9332 58.7165
19.9786 61.0533
20.0238 64.2284
20.0692 68.2239
20.1144 71.5046
20.1598 70.4792
20.205 65.9522
20.2504 63.4226
20.2957 64.4029
20.3411 66.7363
20.3863 65.9509
20.4318 60.2529
20.477 54.9544
20.5224 52.7847
20.5677 52.0561
20.6131 51.6588
20.6586 51.2882
20.7038 50.9531
20.7493 50.3804
20.7945 50.2345
20.84 50.0949
20.8853 50.1955
20.9307 50.0941
20.976 50.2003
21.0215 50.1689
21.0668 50.6513
21.1122 50.8452
21.1575 51.5313
21.203 51.9959
21.2483 52.8252
21.2938 53.0994
21.3391 51.7206
21.3846 50.3985
21.4299 49.7834
21.4754 50.0701
21.5207 50.1497
21.5662 50.7271
21.6116 51.2419
21.6571 52.0432
21.7024 53.1371
21.7479 54.7138
21.7933 57.2793
21.8388 60.2563
21.8843 63.4015
21.9297 66.0384
21.9752 65.3855
22.0206 61.3098
22.0661 57.9044
22.1115 57.1585
22.157 57.442
22.2024 55.7624
22.248 53.114
22.2933 51.162
22.3389 50.5254
22.3843 50.3147
22.4299 50.0317
22.4753 50.158
22.5208 49.8508
22.5662 49.9193
22.6118 50.2736
22.6572 50.5315
22.7028 50.976
22.7483 51.6339
22.7939 52.4321
22.8393 53.7307
22.8849 55.2971
22.9303 56.9834
22.9759 59.0004
23.0214 58.8679
23.067 56.0408
23.1126 52.5756
23.1581 50.7799
23.2037 50.3154
23.2492 50.5717
23.2948 50.5873
23.3403 51.0429
23.3859 51.6262
23.4314 52.7499
23.477 54.0677
23.5225 55.7681
23.5682 57.6246
23.6137 59.0731
23.6593 57.3303
23.7048 53.2561
23.7505 49.7273
23.796 47.8597
23.8417 47.3952
23.8872 46.9278
23.9329 46.4616
23.9784 46.2592
24.0241 45.9306
24.0697 45.7002
24.1154 45.3385
24.1609 45.1833
24.2066 45.0652
24.2522 44.8872
24.2979 44.6622
24.3434 44.4452
24.3892 44.2708
24.4349 44.3073
24.4805 44.1586
24.5262 44.3089
24.5718 44.0016
24.6175 44.1625
24.6631 43.9106
24.7089 43.615
24.7545 43.6463
24.8002 43.4419
24.8458 43.4439
24.8916 43.2614
24.9372 43.5484
24.983 43.8888
25.0286 44.2079
25.0744 44.6791
25.12 45.0497
25.1658 45.5038
25.2114 45.8338
25.2572 45.9427
25.3029 45.8047
25.3487 45.8625
25.3943 45.8533
25.4402 44.7547
25.4858 43.795
25.5316 42.5758
25.5773 41.9866
25.6231 42.1404
25.669 41.5669
25.7147 41.8488
25.7605 41.7426
25.8062 41.666
25.8521 41.9719
25.8977 41.6933
25.9436 42.0885
25.9893 41.9739
26.0352 42.4509
26.0809 42.5214
26.1268 42.7743
26.1725 42.5505
26.2184 41.9231
26.2641 41.6204
26.31 41.2539
26.3557 41.3077
26.4017 41.2294
26.4474 41.6841
26.4933 41.9446
26.5391 42.3622
26.585 42.7158
26.6308 43.0164
26.6767 43.2903
26.7225 43.0647
26.7684 42.5434
26.8142 41.9739
26.8601 41.6419
26.9059 41.1863
26.9519 40.5492
26.9979 40.5025
27.0437 40.0081
27.0896 39.8292
27.1354 39.8456
27.1814 39.7044
27.2272 39.6671
27.2732 39.7586
27.3191 39.4699
27.3651 39.5836
27.4109 39.5338
27.4569 39.5746
27.5027 39.6233
27.5488 39.6905
27.5946 39.4753
27.6407 39.276
27.6865 39.1932
27.7326 38.9635
27.7784 38.972
27.8245 38.9392
27.8703 39.0644
27.9164 39.4193
27.9623 39.3463
28.0084 39.7796
28.0543 40.1527
28.1003 40.1468
28.1462 39.838
28.1923 39.4856
28.2384 38.8868
28.2843 38.7513
28.3304 38.2429
28.3764 37.7889
28.4225 37.4392
28.4684 37.2727
28.5145 37.0324
28.5605 36.8407
28.6066 36.7072
28.6526 36.677
28.6987 36.4776
28.7447 36.4583
28.7908 36.3234
28.8368 36.4308
28.8829 36.4014
28.9289 36.278
28.9751 36.1089
29.0211 35.9816
29.0673 35.5865
29.1133 35.5431
29.1595 35.3292
29.2055 35.2742
29.2517 35.2116
29.2977 35.1639
29.3439 35.1519
29.3899 35.1156
29.4361 35.0625
29.4824 34.8699
29.5284 34.6831
29.5746 34.3802
29.6207 34.0264
29.6669 33.9622
29.713 33.8056
29.7593 33.7621
29.8053 33.8921
29.8516 33.847
29.8977 33.7127
29.9439 33.5669
29.99 33.4951
30.0363 33.2881
30.0824 33.4598
30.1287 33.2519
30.1748 33.2667
30.2211 33.6296
30.2673 33.2821
30.3136 33.253
30.3597 33.1337
30.406 33.1557
30.4522 33.2297
30.4985 33.5213
30.5447 33.5261
30.591 33.3192
30.6372 33.0039
30.6835 33.0215
30.7297 33.0825
30.7761 33.01
30.8224 32.8553
30.8686 32.6807
30.915 32.5205
30.9612 32.3399
31.0076 32.1869
31.0538 32.0323
31.1002 31.8942
31.1464 31.7964
31.1928 31.7414
31.2391 31.7262
31.2855 31.669
31.3317 31.6445
31.3781 31.7232
31.4244 31.7069
31.4708 31.6463
31.5171 31.7511
31.5636 31.5072
31.6098 31.444
31.6563 31.1442
31.7026 31.0777
31.7491 30.9963
31.7953 31.0291
31.8418 30.9555
31.8881 30.9277
31.9346 30.8163
31.9809 30.7748
32.0275 30.7809
32.074 30.6434
32.1203 30.5077
32.1668 30.3409
32.2132 30.1164
32.2597 30.0433
32.306 29.9311
32.3526 29.8045
32.399 29.7318
32.4455 29.5089
32.4919 29.4548
32.5385 29.4726
32.5848 29.2439
32.6314 29.3089
32.6778 29.1638
32.7244 29.1252
32.7708 28.8398
32.8174 28.9229
32.8638 28.7251
32.9104 28.8172
32.9569 28.7463
33.0035 28.6242
33.0499 28.5473
33.0966 28.5984
33.143 28.5
33.1897 28.5022
33.2361 28.3532
33.2828 28.3564
33.3293 28.2057
33.3759 28.0948
33.4226 27.9512
33.4691 27.8449
33.5158 27.7983
33.5623 27.7047
33.609 27.4855
33.6555 27.4127
33.7022 27.3142
33.7487 27.2218
33.7954 27.1489
33.842 27.1271
33.8887 27.0827
33.9353 26.9364
33.982 26.8103
34.0286 26.7219
34.0753 26.5885
34.1219 26.61
34.1687 26.4927
34.2152 26.5214
34.262 26.4553
34.3086 26.2293
34.3554 26.2332
34.402 26.1018
34.4488 25.9682
34.4954 25.94
34.5422 25.8957
34.5889 25.7412
34.6357 25.696
34.6825 25.5678
34.7292 25.472
34.776 25.3517
34.8227 25.3236
34.8695 25.3503
34.9162 25.2421
34.9631 25.1319
35.0098 25.0499
35.0566 25.0396
35.1033 24.9348
35.1502 24.8855
35.1969 24.7994
35.2438 24.7833
35.2906 24.6947
35.3375 24.6773
35.3842 24.6372
35.4311 24.6207
35.4779 24.583
35.5248 24.5073
35.5716 24.3916
35.6185 24.3446
35.6653 24.2031
35.7123 24.1594
35.759 24.1165
35.806 23.9624
35.8528 23.8613
35.8998 23.8841
35.9468 23.7204
35.9936 23.6965
36.0406 23.7217
36.0874 23.6152
36.1345 23.5561
36.1813 23.4531
36.2283 23.3014
36.2752 23.2532
36.3222 23.2074
36.3691 23.1744
36.4161 23.0751
36.463 22.9966
36.5101 22.9881
36.557 22.9134
36.6041 22.7845
36.651 22.7819
36.6981 22.6629
36.745 22.6439
36.7921 22.6556
36.839 22.4013
36.8861 22.422
36.9331 22.309
36.9802 22.3073
37.0272 22.1672
37.0743 22.098
37.1213 22.0374
37.1684 21.9707
37.2154 21.9111
37.2626 21.806
37.3098 21.7189
37.3568 21.6269
37.404 21.6514
37.451 21.5434
37.4982 21.5327
37.5452 21.4166
37.5924 21.3459
37.6395 21.369
37.6867 21.2879
37.7337 21.1339
37.781 21.1167
37.8281 21.0135
37.8753 20.9304
37.9224 20.8244
37.9697 20.8193
38.0168 20.7798
38.064 20.6808
38.1111 20.5933
38.1584 20.5637
38.2056 20.4945
38.2529 20.4714
38.3 20.3305
38.3473 20.3278
38.3945 20.1831
38.4418 20.1782
38.489 20.1044
38.5363 20.0363
38.5837 20.0025
38.6309 19.8916
38.6782 19.7768
38.7254 19.7462
38.7728 19.7243
38.82 19.6949
38.8674 19.5707
38.9146 19.5439
38.9621 19.4263
39.0093 19.4133
39.0567 19.3991
39.104 19.2554
39.1514 19.2696
39.1987 19.115
39.2461 19.1603
39.2934 19.0702
39.3409 18.9893
39.3882 18.8945
39.4356 18.8665
39.483 18.8313
39.5304 18.7312
39.5778 18.6727
39.6253 18.6386
39.6726 18.5371
39.7201 18.5833
39.7675 18.4579
39.815 18.4033
39.8624 18.325
39.9099 18.2989
39.9575 18.2156
40.0049 18.1914
40.0525 18.0786
40.0999 18.0488
40.1474 17.9769
40.1949 17.9021
40.2425 17.9039
40.2899 17.8223
40.3375 17.7321
40.385 17.7141
40.4326 17.6931
40.48 17.5875
40.5277 17.5666
40.5752 17.4929
40.6228 17.4111
40.6703 17.3205
40.718 17.2887
40.7655 17.2784
40.8132 17.173
40.8607 17.1705
40.9084 17.0851
40.9559 17.0666
41.0036 17.0648
41.0512 16.8874
41.0989 16.9315
41.1465 16.8642
41.1942 16.6804
41.242 16.7114
41.2896 16.644
41.3373 16.5478
41.3849 16.5426
41.4327 16.4469
41.4803 16.3875
41.5281 16.4251
41.5758 16.2589
41.6236 16.2696
41.6712 16.2115
41.7191 16.1553
41.7667 16.1413
41.8146 16.0993
41.8622 15.9823
41.9101 16.0017
41.9578 15.8572
42.0057 15.8342
42.0534 15.7757
42.1013 15.7184
42.149 15.6807
42.1969 15.5744
42.2446 15.5515
42.2925 15.4904
42.3403 15.4937
42.3882 15.4385
42.436 15.3991
42.4839 15.2775
42.5319 15.2607
42.5797 15.2383
42.6277 15.1468
42.6755 15.1205
42.7235 15.0317
42.7713 15.0039
42.8193 14.9676
42.8671 14.8545
42.9152 14.8224
42.963 14.7906
43.0111 14.7258
43.0589 14.696
43.107 14.6366
43.1549 14.5881
43.2029 14.5276
43.2508 14.5108
43.2989 14.4705
43.3468 14.4008
43.3949 14.3835
43.4429 14.2991
43.491 14.2306
43.5389 14.1659
43.5871 14.1646
43.635 14.0233
43.6832 14.0419
43.7312 13.9844
43.7793 13.9445
43.8273 13.8813
43.8755 13.8701
43.9237 13.774
43.9717 13.8073
44.0199 13.6578
44.068 13.674
44.1162 13.6287
44.1642 13.5373
44.2125 13.5482
44.2606 13.4887
44.3088 13.4174
44.3569 13.3713
44.4052 13.3902
44.4533 13.25
44.5016 13.2185
44.5497 13.2256
44.598 13.1488
44.6461 13.1128
44.6945 13.0352
44.7426 12.9784
44.791 12.9383
44.8391 12.9363
44.8875 12.8787
44.9357 12.8581
44.984 12.7998
45.0322 12.7259
45.0806 12.6935
45.1288 12.642
45.1773 12.5447
45.2257 12.5168
45.2739 12.5109
45.3224 12.481
45.3706 12.4397
45.4191 12.3125
45.4673 12.3346
45.5158 12.3048
45.5641 12.2121
45.6126 12.2256
45.6609 12.143
45.7094 12.1342
45.7577 12.0256
45.8063 12.0128
45.8546 11.9564
45.9031 11.9233
45.9515 11.9498
46.0001 11.8435
46.0484 11.8376
46.097 11.7758
46.1454 11.7126
46.194 11.731
46.2424 11.5976
46.291 11.6024
46.3395 11.5224
46.3881 11.5184
46.4365 11.4765
46.4852 11.4475
46.5337 11.4038
46.5823 11.3354
46.631 11.3197
46.6795 11.2538
46.7282 11.2558
46.7767 11.1571
46.8254 11.1583
46.8739 11.0982
46.9226 11.0279
46.9712 10.9904
47.0199 10.9651
47.0685 10.9301
47.1173 10.8827
47.1658 10.8831
47.2146 10.8507
47.2632 10.7607
47.312 10.745
47.3606 10.6706
47.4095 10.605
47.4581 10.6192
47.5069 10.5548
47.5556 10.5637
47.6044 10.4924
47.6531 10.4747
47.702 10.3791
47.7507 10.3635
47.7996 10.3471
47.8483 10.303
47.8972 10.2699
47.9461 10.2355
47.9948 10.1823
48.0438 10.1403
48.0925 10.1233
48.1415 10.1201
48.1902 10.0153
48.2392 10.05
48.288 10.0126
48.337 9.97396
48.3858 9.86494
48.4348 9.87134
48.4837 9.85626
48.5327 9.77697
48.5815 9.79106
48.6306 9.73591
48.6795 9.6753
48.7285 9.65316
48.7774 9.66825
48.8265 9.60656
48.8754 9.51936
48.9245 9.52111
48.9734 9.4727
49.0226 9.41773
49.0715 9.38045
49.1206 9.39482
49.1696 9.35698
49.2188 9.29926
49.2679 9.26418
49.3169 9.22197
49.3661 9.21019
49.4151 9.15648
49.4643 9.15003
49.5134 9.10349
49.5626 9.02455
49.6117 9.0152
49.6609 8.99052
49.71 8.93921
49.7592 8.88807
49.8083 8.87163
49.8576 8.85061
49.9067 8.80161
49.956 8.78249
50.0052 8.75679
50.0545 8.73839
50.1036 8.65282
50.153 8.67635
50.2022 8.57676
50.2515 8.61167
50.3007 8.54708
50.3501 8.47305
50.3993 8.48504
50.4487 8.48471
50.498 8.39774
50.5474 8.38159
50.5966 8.31841
50.6461 8.32633
50.6955 8.28931
50.7448 8.26647
50.7943 8.25074
50.8436 8.18987
50.8931 8.16191
50.9424 8.13293
50.9919 8.09584
51.0413 8.09049
51.0908 8.00966
51.1402 8.02373
51.1897 7.9506
51.2391 7.9412
51.2887 7.89925
51.3381 7.82543
51.3877 7.80426
51.4371 7.79984
51.4867 7.77565
51.5362 7.74135
51.5858 7.70347
51.6353 7.6556
51.6849 7.64976
51.7344 7.58827
51.7841 7.60363
51.8336 7.55414
51.8833 7.53041
51.9328 7.48399
51.9826 7.44024
52.0323 7.4183
52.0818 7.438
52.1316 7.33751
52.1812 7.35522
52.231 7.27699
52.2806 7.25175
52.3304 7.21466
52.38 7.19007
52.4298 7.15939
52.4794 7.1483
52.5293 7.07452
52.5789 7.12027
52.6288 7.03613
52.6785 6.98407
52.7284 6.97867
52.7781 6.98536
52.828 6.93256
52.8777 6.9107
52.9276 6.85473
52.9774 6.88795
53.0273 6.82582
53.0771 6.81529
53.1271 6.75636
53.1769 6.70094
53.2269 6.70926
53.2767 6.66318
53.3267 6.66844
53.3765 6.61627
53.4266 6.61122
53.4766 6.5866
53.5265 6.52078
53.5765 6.53336
53.6264 6.4958
53.6765 6.43374
53.7264 6.40072
53.7765 6.42314
53.8265 6.36505
53.8766 6.33314
53.9266 6.32154
53.9767 6.31545
54.0267 6.26916
54.0769 6.21936
54.1269 6.21257
54.1771 6.18506
54.2271 6.15273
54.2773 6.09442
54.3274 6.08987
54.3776 6.03158
54.4277 5.96079
54.478 5.98238
54.528 5.95094
54.5783 5.90095
54.6285 5.81906
54.6788 5.83471
54.7289 5.76418
54.7792 5.69616
54.8296 5.66837
54.8798 5.63613
54.9301 5.62036
54.9803 5.54582
55.0307 5.57853
55.0809 5.52084
55.1314 5.48413
55.1816 5.42619
55.232 5.38593
55.2823 5.32815
55.3328 5.29211
55.383 5.20666
55.4335 5.14688
55.4838 5.12475
55.5344 5.05585
55.5847 5.06539
55.6352 4.95805
55.6856 4.95094
55.7361 4.95551