File: XRD/Ni3Fe_FD0119.xy
TT I
1.27165 8.06419
1.31627 7.01625
1.36089 7.22396
1.40551 6.35057
1.45013 6.23452
1.49476 7.29385
1.53938 6.32023
1.584 5.76833
1.62863 6.28371
1.67325 5.40628
1.71787 5.64805
1.7625 5.37239
1.80712 5.09441
1.85174 5.56296
1.89636 5.30464
1.94099 5.30455
1.98562 5.39718
2.03025 5.16635
2.07487 4.99416
2.11949 4.70137
2.16411 4.25224
2.20874 5.27028
2.25338 4.55576
2.298 4.67098
2.34263 5.0123
2.38725 4.36243
2.43188 4.37822
2.4765 4.94972
2.52115 3.70733
2.56577 4.6911
2.6104 5.15486
2.65503 5.21054
2.69965 5.35417
2.7443 5.75293
2.78893 6.31045
2.83356 6.55563
2.87818 7.65433
2.92281 8.23213
2.96744 8.90997
3.01209 9.85731
3.05672 10.8732
3.10135 12.2455
3.14599 12.4583
3.19062 13.7116
3.23527 14.4694
3.2799 15.5959
3.32454 16.6571
3.36917 17.3282
3.4138 18.8379
3.45844 18.9885
3.50309 20.5971
3.54773 20.9596
3.59237 21.6078
3.637 22.2293
3.68164 22.7508
3.7263 24.2524
3.77094 24.6743
3.81558 25.6362
3.86022 26.4872
3.90486 27.5918
3.9495 28.2838
3.99416 28.7572
4.0388 30.4448
4.08344 31.6058
4.12809 32.5264
4.17273 33.4914
4.21738 34.9067
4.26204 36.0915
4.30669 37.5008
4.35133 39.5201
4.39598 40.6761
4.44063 42.5777
4.4853 44.5161
4.52995 46.4922
4.5746 48.6273
4.61925 50.8163
4.6639 53.3469
4.70855 55.8902
4.75322 59.6319
4.79788 61.9512
4.84253 65.5477
4.88719 70.3108
4.93184 75.3042
4.97652 82.1499
5.02118 91.0511
5.06583 102.308
5.11049 119.559
5.15515 160.688
5.19981 598.892
5.24449 3770.99
5.28916 7627.43
5.33382 6859.11
5.37848 545.457
5.42315 172.593
5.46783 130.822
5.5125 115.604
5.55716 108.972
5.60183 102.069
5.6465 99.4474
5.69117 97.7507
5.73586 95.4419
5.78053 95.521
5.8252 96.3207
5.86988 100.009
5.91455 107.091
5.95924 128.299
6.00392 307.049
6.0486 1406.15
6.09328 2467.16
6.13795 3843.92
6.18263 767.122
6.22733 130.958
6.27201 91.1558
6.3167 79.032
6.36138 72.2471
6.40606 68.6979
6.45075 66.1196
6.49545 64.1826
6.54014 61.6462
6.58483 60.5659
6.62952 59.2375
6.67421 57.9544
6.71892 57.1021
6.76361 56.0471
6.8083 55.1032
6.853 54.3767
6.89769 54.027
6.94239 53.8602
6.98711 52.6581
7.03181 52.6029
7.07651 52.2833
7.12121 51.8279
7.16591 51.4683
7.21063 51.3167
7.25533 51.3412
7.30004 51.1786
7.34475 51.2359
7.38945 51.5506
7.43416 51.412
7.47889 51.6679
7.5236 56.6777
7.56831 66.9774
7.61303 55.98
7.65774 52.8404
7.70247 53.3959
7.74719 53.8178
7.79191 54.4041
7.83663 54.4292
7.88135 55.5828
7.92607 56.3634
7.97081 57.6443
8.01553 58.7075
8.06026 60.1381
8.10498 61.085
8.14971 63.0311
8.19446 65.1417
8.23919 67.0598
8.28392 69.8584
8.32865 72.9585
8.37339 77.6169
8.41812 83.2921
8.46288 96.2021
8.50761 178.667
8.55235 619.952
8.59709 823.8
8.64183 1344.07
8.68658 1719.14
8.73134 471.061
8.77609 120.817
8.82083 97.892
8.86558 90.4776
8.91033 87.0215
8.9551 84.3739
8.99985 83.1905
9.04461 82.4971
9.08936 81.554
9.13412 80.4345
9.17888 81.0157
9.22365 88.2035
9.26841 103.873
9.31318 88.8339
9.35794 82.1991
9.4027 81.337
9.44749 82.0908
9.49226 82.4126
9.53703 83.5853
9.5818 85.1734
9.62657 86.3849
9.67134 87.476
9.71614 90.0989
9.76091 91.5484
9.80569 94.2758
9.85047 97.9256
9.89525 103.554
9.94005 114.106
9.98484 190.611
10.0296 563.611
10.0744 704.555
10.1192 910.99
10.164 1580.09
10.2088 1081.97
10.2536 239.022
10.2984 118.496
10.3432 108.222
10.388 104.315
10.4328 121.591
10.4776 218.993
10.5224 252.968
10.5672 297.397
10.612 466.431
10.6568 399.123
10.7017 143.509
10.7465 91.4104
10.7913 83.3636
10.8361 79.8521
10.8809 77.3384
10.9257 75.1249
10.9706 73.8638
11.0154 72.2435
11.0602 70.6709
11.105 69.3482
11.1499 68.0572
11.1947 66.9318
11.2395 65.8305
11.2844 65.4384
11.3292 64.7341
11.374 63.7584
11.4189 63.6335
11.4637 62.5833
11.5086 62.076
11.5534 61.562
11.5983 61.5528
11.6431 61.385
11.688 60.8974
11.7328 60.855
11.7777 60.6103
11.8225 60.4687
11.8674 60.8092
11.9122 62.0644
11.9571 66.7409
12.002 66.3445
12.0468 67.7759
12.0917 91.0027
12.1366 106.904
12.1814 110.852
12.2263 138.429
12.2712 187.103
12.3161 147.782
12.3609 77.3883
12.4058 63.8071
12.4507 62.5051
12.4956 62.6216
12.5405 62.6182
12.5853 63.1566
12.6302 62.8967
12.6751 63.8917
12.72 64.5597
12.7649 65.2854
12.8098 66.1792
12.8547 67.4625
12.8996 68.978
12.9445 70.4156
12.9894 72.2624
13.0343 74.2496
13.0792 78.2514
13.1242 86.4284
13.1691 134.652
13.214 189.018
13.2589 194.428
13.3038 223.153
13.3487 323.563
13.3937 386.393
13.4386 227.958
13.4835 123.017
13.5285 156.859
13.5734 182.488
13.6183 180.681
13.6633 216.498
13.7082 310.803
13.7531 315.301
13.7981 166.221
13.843 89.0102
13.888 80.068
13.9329 76.8776
13.9779 75.3294
14.0228 73.8879
14.0678 72.2452
14.1127 72.4579
14.1577 74.6404
14.2027 73.0076
14.2476 70.2702
14.2926 68.6397
14.3376 68.241
14.3825 67.742
14.4275 67.3738
14.4725 67.2115
14.5175 67.4482
14.5624 67.4647
14.6074 67.9947
14.6524 68.2359
14.6974 68.791
14.7424 70.5035
14.7874 80.3629
14.8324 107.698
14.8774 120.087
14.9224 120.222
14.9674 136.752
15.0124 179.204
15.0574 205.297
15.1024 147.723
15.1474 83.9021
15.1924 71.1144
15.2374 68.6103
15.2824 67.0214
15.3274 66.1139
15.3725 65.7066
15.4175 65.4199
15.4625 64.9458
15.5076 64.7092
15.5526 64.9545
15.5976 64.9603
15.6426 65.7038
15.6877 73.453
15.7327 95.9071
15.7778 107.121
15.8228 105.685
15.8679 115.633
15.9129 143.005
15.958 181.138
16.003 158.454
16.0481 92.7743
16.0931 66.8346
16.1382 61.6094
16.1833 59.8506
16.2283 58.2842
16.2734 57.4594
16.3185 56.7131
16.3636 56.0972
16.4086 55.1522
16.4537 54.8347
16.4988 54.4388
16.5439 54.3571
16.589 54.1618
16.6341 53.9493
16.6792 53.3614
16.7243 53.4549
16.7694 53.5354
16.8145 53.3142
16.8596 53.5093
16.9047 54.1645
16.9498 54.4986
16.9949 54.367
17.04 54.7954
17.0851 56.2998
17.1302 60.5584
17.1754 64.0795
17.2205 64.0984
17.2656 65.1396
17.3108 69.9071
17.3559 76.919
17.401 80.8713
17.4462 72.2192
17.4913 61.485
17.5365 58.491
17.5815 58.383
17.6268 58.3726
17.6718 58.9863
17.7171 59.3876
17.7622 60.8194
17.8074 61.5275
17.8525 63.2602
17.8977 71.5489
17.9428 84.0521
17.9881 87.9975
18.0331 87.6945
18.0784 92.8498
18.1237 107.945
18.1688 135.722
18.214 144.441
18.2591 114.626
18.3044 87.3877
18.3495 83.3196
18.3948 90.8874
18.4399 100.954
18.4852 96.4617
18.5303 77.7579
18.5756 64.9334
18.6207 61.6618
18.666 60.4848
18.7112 59.2209
18.7565 58.4563
18.8016 58.253
18.8469 57.5113
18.892 57.2512
18.9374 56.7407
18.9825 56.6575
19.0278 56.2096
19.073 56.174
19.1183 56.6835
19.1635 59.146
19.2088 61.4167
19.254 61.4949
19.2993 61.8391
19.3447 63.5103
19.3898 67.0661
19.4352 72.1985
19.4804 72.6152
19.5257 64.5137
19.5709 56.1972
19.6163 53.7792
19.6615 53.4548
19.7068 52.8803
19.752 52.7284
19.7974 52.9427
19.8426 54.0713
19.888 56.443
19.9332 57.731
19.9786 57.8357
20.0238 57.8714
20.0692 60.2386
20.1144 65.1918
20.1598 71.0005
20.205 70.9723
20.2504 65.2723
20.2957 60.0689
20.3411 60.0274
20.3863 63.4118
20.4318 64.297
20.477 59.7899
20.5224 53.5862
20.5677 50.7021
20.6131 49.8071
20.6586 49.4469
20.7038 48.9663
20.7493 48.7129
20.7945 48.8024
20.84 48.5292
20.8853 48.3118
20.9307 48.1475
20.976 48.3325
21.0215 48.3975
21.0668 49.0532
21.1122 48.9575
21.1575 48.9016
21.203 49.1988
21.2483 49.3422
21.2938 50.5494
21.3391 50.8816
21.3846 50.1162
21.4299 48.8101
21.4754 48.2499
21.5207 48.1752
21.5662 48.3995
21.6116 49.0504
21.6571 50.8463
21.7024 52.7057
21.7479 53.6608
21.7933 53.5121
21.8388 54.5347
21.8843 56.8783
21.9297 60.3736
21.9752 64.1684
22.0206 65.2829
22.0661 60.624
22.1115 55.885
22.157 54.7474
22.2024 55.7543
22.248 55.2431
22.2933 52.5122
22.3389 50.1374
22.3843 48.684
22.4299 48.2746
22.4753 48.33
22.5208 48.2194
22.5662 48.2391
22.6118 48.4113
22.6572 48.4958
22.7028 49.8842
22.7483 51.0564
22.7939 51.3522
22.8393 51.4335
22.8849 51.7649
22.9303 52.359
22.9759 53.758
23.0214 55.8807
23.067 57.8473
23.1126 56.2383
23.1581 52.4018
23.2037 49.7481
23.2492 48.932
23.2948 49.3207
23.3403 50.5745
23.3859 51.3019
23.4314 51.1639
23.477 51.0514
23.5225 51.3155
23.5682 52.4484
23.6137 54.2805
23.6593 56.5842
23.7048 57.1007
23.7505 53.6071
23.796 49.3093
23.8417 46.6937
23.8872 45.6282
23.9329 45.2502
23.9784 44.9069
24.0241 44.6166
24.0697 44.187
24.1154 43.9439
24.1609 43.6992
24.2066 43.5048
24.2522 43.4932
24.2979 43.1562
24.3434 43.0842
24.3892 42.7627
24.4349 42.8165
24.4805 42.605
24.5262 42.7113
24.5718 42.4538
24.6175 42.5347
24.6631 42.7159
24.7089 42.4924
24.7545 42.2431
24.8002 42.0057
24.8458 42.1905
24.8916 42.2097
24.9372 42.257
24.983 42.5098
25.0286 42.5839
25.0744 43.0113
25.12 43.4169
25.1658 43.6625
25.2114 43.9337
25.2572 44.4654
25.3029 44.436
25.3487 44.2568
25.3943 44.319
25.4402 44.5163
25.4858 44.269
25.5316 43.0972
25.5773 41.4865
25.6231 40.9936
25.669 40.5223
25.7147 40.4302
25.7605 40.4674
25.8062 40.5601
25.8521 40.7199
25.8977 40.5745
25.9436 40.5549
25.9893 40.3867
26.0352 40.7203
26.0809 40.7044
26.1268 40.9897
26.1725 41.5109
26.2184 41.6297
26.2641 41.2432
26.31 40.6106
26.3557 40.5356
26.4017 40.4544
26.4474 40.4647
26.4933 40.4081
26.5391 40.699
26.585 40.9254
26.6308 41.1255
26.6767 41.322
26.7225 42.1424
26.7684 42.1728
26.8142 41.7176
26.8601 41.0164
26.9059 40.4462
26.9519 40.0598
26.9979 39.7344
27.0437 39.1738
27.0896 38.7497
27.1354 38.805
27.1814 38.4968
27.2272 38.4969
27.2732 38.5386
27.3191 38.3385
27.3651 38.3091
27.4109 38.1912
27.4569 38.2481
27.5027 38.136
27.5488 38.2237
27.5946 38.3198
27.6407 38.2562
27.6865 38.4909
27.7326 38.2881
27.7784 38.1717
27.8245 38.0008
27.8703 38.0536
27.9164 38.2113
27.9623 38.0686
28.0084 38.25
28.0543 38.4325
28.1003 38.5902
28.1462 38.8021
28.1923 38.9873
28.2384 38.5777
28.2843 37.9632
28.3304 37.7666
28.3764 37.275
28.4225 36.8926
28.4684 36.5511
28.5145 35.9217
28.5605 35.887
28.6066 35.7242
28.6526 35.6299
28.6987 35.6375
28.7447 35.3178
28.7908 35.2981
28.8368 35.272
28.8829 35.1356
28.9289 35.0895
28.9751 35.0503
29.0211 35.0094
29.0673 34.8878
29.1133 34.6155
29.1595 34.3896
29.2055 34.2962
29.2517 34.1472
29.2977 34.0002
29.3439 33.8941
29.3899 33.9437
29.4361 33.8291
29.4824 33.8472
29.5284 33.8602
29.5746 33.7698
29.6207 33.3323
29.6669 33.0512
29.713 32.8753
29.7593 32.8292
29.8053 32.7131
29.8516 32.6671
29.8977 32.654
29.9439 32.45
29.99 32.4804
30.0363 32.2782
30.0824 32.3266
30.1287 32.2263
30.1748 32.1957
30.2211 32.1377
30.2673 32.0694
30.3136 32.2526
30.3597 32.2611
30.406 32.2815
30.4522 32.1254
30.4985 31.9345
30.5447 32.0406
30.591 31.9152
30.6372 31.893
30.6835 31.8784
30.7297 31.9836
30.7761 31.9
30.8224 32.0053
30.8686 31.9865
30.915 31.8031
30.9612 31.6971
31.0076 31.3841
31.0538 31.198
31.1002 31.2027
31.1464 30.9115
31.1928 30.9276
31.2391 30.9221
31.2855 30.8633
31.3317 30.6086
31.3781 30.7891
31.4244 30.8119
31.4708 30.5047
31.5171 30.7155
31.5636 30.7363
31.6098 30.594
31.6563 30.5872
31.7026 30.3613
31.7491 30.1613
31.7953 30.1111
31.8418 30.0418
31.8881 30.0078
31.9346 29.9103
31.9809 29.9334
32.0275 29.8206
32.074 29.8653
32.1203 29.7859
32.1668 29.6226
32.2132 29.4549
32.2597 29.3253
32.306 29.197
32.3526 28.9386
32.399 28.9243
32.4455 28.8673
32.4919 28.6
32.5385 28.5694
32.5848 28.4975
32.6314 28.4234
32.6778 28.1939
32.7244 28.1936
32.7708 28.0029
32.8174 28.0363
32.8638 27.9354
32.9104 28.0198
32.9569 27.9096
33.0035 27.7529
33.0499 27.6969
33.0966 27.7614
33.143 27.63
33.1897 27.5593
33.2361 27.4107
33.2828 27.5112
33.3293 27.3375
33.3759 27.3746
33.4226 27.2384
33.4691 27.1742
33.5158 27.0625
33.5623 26.8764
33.609 26.7854
33.6555 26.5497
33.7022 26.5505
33.7487 26.4021
33.7954 26.421
33.842 26.1857
33.8887 26.1709
33.9353 26.1691
33.982 26.0734
34.0286 26.0447
34.0753 25.9801
34.1219 25.9107
34.1687 25.7673
34.2152 25.6349
34.262 25.5611
34.3086 25.3796
34.3554 25.4615
34.402 25.3549
34.4488 25.2188
34.4954 25.1837
34.5422 25.0709
34.5889 24.9084
34.6357 24.8798
34.6825 24.7731
34.7292 24.742
34.776 24.5643
34.8227 24.6206
34.8695 24.5536
34.9162 24.523
34.9631 24.3598
35.0098 24.4187
35.0566 24.3318
35.1033 24.2504
35.1502 24.2533
35.1969 24.0604
35.2438 24.0601
35.2906 23.9749
35.3375 23.9249
35.3842 23.819
35.4311 23.7681
35.4779 23.7892
35.5248 23.778
35.5716 23.7151
35.6185 23.6064
35.6653 23.5683
35.7123 23.5712
35.759 23.4153
35.806 23.276
35.8528 23.0978
35.8998 23.2175
35.9468 23.13
35.9936 22.9813
36.0406 23.0158
36.0874 22.871
36.1345 22.7869
36.1813 22.773
36.2283 22.6377
36.2752 22.569
36.3222 22.6168
36.3691 22.5485
36.4161 22.373
36.463 22.2749
36.5101 22.3868
36.557 22.2334
36.6041 22.1257
36.651 22.1217
36.6981 22.0283
36.745 22.0708
36.7921 21.8843
36.839 21.7494
36.8861 21.7117
36.9331 21.6691
36.9802 21.6503
37.0272 21.5111
37.0743 21.4541
37.1213 21.3681
37.1684 21.3323
37.2154 21.2272
37.2626 21.1762
37.3098 21.1968
37.3568 21.0282
37.404 21.0228
37.451 20.9022
37.4982 20.87
37.5452 20.7479
37.5924 20.7657
37.6395 20.8138
37.6867 20.6819
37.7337 20.5649
37.781 20.5078
37.8281 20.4695
37.8753 20.3031
37.9224 20.289
37.9697 20.2965
38.0168 20.1453
38.064 20.0732
38.1111 20.0248
38.1584 19.9399
38.2056 19.9176
38.2529 19.8397
38.3 19.7146
38.3473 19.7584
38.3945 19.5821
38.4418 19.6126
38.489 19.5153
38.5363 19.4341
38.5837 19.343
38.6309 19.3563
38.6782 19.2212
38.7254 19.1459
38.7728 19.1158
38.82 19.0439
38.8674 18.9966
38.9146 19.0066
38.9621 18.9233
39.0093 18.8376
39.0567 18.8627
39.104 18.6496
39.1514 18.6507
39.1987 18.6276
39.2461 18.5545
39.2934 18.4994
39.3409 18.4166
39.3882 18.3271
39.4356 18.3517
39.483 18.2385
39.5304 18.1858
39.5778 18.1999
39.6253 18.1031
39.6726 17.977
39.7201 17.9551
39.7675 17.9109
39.815 17.8745
39.8624 17.82
39.9099 17.7546
39.9575 17.7217
40.0049 17.6648
40.0525 17.5943
40.0999 17.4832
40.1474 17.4815
40.1949 17.363
40.2425 17.3885
40.2899 17.3083
40.3375 17.1888
40.385 17.2032
40.4326 17.1253
40.48 17.0496
40.5277 17.0287
40.5752 16.9749
40.6228 16.8954
40.6703 16.8924
40.718 16.8199
40.7655 16.7463
40.8132 16.7304
40.8607 16.6647
40.9084 16.6393
40.9559 16.5485
41.0036 16.5548
41.0512 16.4367
41.0989 16.4091
41.1465 16.3398
41.1942 16.3773
41.242 16.2257
41.2896 16.1692
41.3373 16.095
41.3849 16.1092
41.4327 16.0102
41.4803 15.9207
41.5281 15.9052
41.5758 15.8821
41.6236 15.8268
41.6712 15.7177
41.7191 15.7083
41.7667 15.6318
41.8146 15.593
41.8622 15.5284
41.9101 15.5039
41.9578 15.4251
42.0057 15.3413
42.0534 15.3313
42.1013 15.2879
42.149 15.1878
42.1969 15.1574
42.2446 15.1086
42.2925 15.0851
42.3403 15.0055
42.3882 14.9975
42.436 14.9674
42.4839 14.8803
42.5319 14.8227
42.5797 14.7471
42.6277 14.7207
42.6755 14.6856
42.7235 14.5936
42.7713 14.519
42.8193 14.5111
42.8671 14.4492
42.9152 14.4143
42.963 14.3532
43.0111 14.3343
43.0589 14.2426
43.107 14.2075
43.1549 14.2217
43.2029 14.1005
43.2508 14.076
43.2989 14.0035
43.3468 14.017
43.3949 13.8903
43.4429 13.9108
43.491 13.7929
43.5389 13.7508
43.5871 13.7502
43.635 13.7139
43.6832 13.6323
43.7312 13.5544
43.7793 13.5081
43.8273 13.4981
43.8755 13.501
43.9237 13.4474
43.9717 13.3644
44.0199 13.3402
44.068 13.277
44.1162 13.1899
44.1642 13.178
44.2125 13.1625
44.2606 13.0593
44.3088 13.0316
44.3569 12.9886
44.4052 12.9626
44.4533 12.9102
44.5016 12.8221
44.5497 12.8245
44.598 12.754
44.6461 12.7258
44.6945 12.7026
44.7426 12.6476
44.791 12.5549
44.8391 12.5629
44.8875 12.5084
44.9357 12.476
44.984 12.4108
45.0322 12.3508
45.0806 12.3448
45.1288 12.2787
45.1773 12.199
45.2257 12.2146
45.2739 12.1855
45.3224 12.112
45.3706 12.051
45.4191 12.0063
45.4673 12.0253
45.5158 11.9658
45.5641 11.9146
45.6126 11.8241
45.6609 11.802
45.7094 11.7752
45.7577 11.7243
45.8063 11.6278
45.8546 11.6666
45.9031 11.6283
45.9515 11.5706
46.0001 11.5489
46.0484 11.4727
46.097 11.4504
46.1454 11.4348
46.194 11.3917
46.2424 11.3142
46.291 11.2274
46.3395 11.2347
46.3881 11.1824
46.4365 11.1429
46.4852 11.1438
46.5337 11.0632
46.5823 11.0349
46.631 10.9625
46.6795 10.9365
46.7282 10.9183
46.7767 10.8564
46.8254 10.7869
46.8739 10.8122
46.9226 10.7807
46.9712 10.7166
47.0199 10.6443
47.0685 10.6172
47.1173 10.575
47.1658 10.5833
47.2146 10.5024
47.2632 10.4401
47.312 10.4245
47.3606 10.4211
47.4095 10.3386
47.4581 10.3434
47.5069 10.3204
47.5556 10.2395
47.6044 10.2152
47.6531 10.2025
47.702 10.1132
47.7507 10.102
47.7996 10.0157
47.8483 10.0144
47.8972 10.0136
47.9461 9.93882
47.9948 9.88641
48.0438 9.88011
48.0925 9.85447
48.1415 9.81818
48.1902 9.74583
48.2392 9.72274
48.288 9.71073
48.337 9.65951
48.3858 9.64164
48.4348 9.59818
48.4837 9.62217
48.5327 9.52148
48.5815 9.50586
48.6306 9.47381
48.6795 9.44248
48.7285 9.37501
48.7774 9.3455
48.8265 9.32485
48.8754 9.28408
48.9245 9.28207
48.9734 9.21616
49.0226 9.2167
49.0715 9.14741
49.1206 9.13161
49.1696 9.05205
49.2188 9.08135
49.2679 9.01888
49.3169 8.97315
49.3661 8.92129
49.4151 8.87154
49.4643 8.88391
49.5134 8.8527
49.5626 8.79482
49.6117 8.75837
49.6609 8.74562
49.71 8.69439
49.7592 8.64793
49.8083 8.63504
49.8576 8.63126
49.9067 8.53861
49.956 8.56996
50.0052 8.50732
50.0545 8.46434
50.1036 8.41529
50.153 8.42982
50.2022 8.3718
50.2515 8.32973
50.3007 8.31729
50.3501 8.25721
50.3993 8.27851
50.4487 8.20775
50.498 8.20427
50.5474 8.19147
50.5966 8.12587
50.6461 8.09447
50.6955 8.06714
50.7448 8.03758
50.7943 7.94641
50.8436 7.96054
50.8931 7.93257
50.9424 7.93704
50.9919 7.87993
51.0413 7.8345
51.0908 7.80674
51.1402 7.78793
51.1897 7.73827
51.2391 7.76982
51.2887 7.67895
51.3381 7.67413
51.3877 7.63031
51.4371 7.60798
51.4867 7.55152
51.5362 7.52652
51.5858 7.48943
51.6353 7.46299
51.6849 7.43032
51.7344 7.43251
51.7841 7.37004
51.8336 7.36202
51.8833 7.3303
51.9328 7.2372
51.9826 7.26687
52.0323 7.20659
52.0818 7.18527
52.1316 7.15672
52.1812 7.13384
52.231 7.08322
52.2806 7.08545
52.3304 7.03913
52.38 7.0189
52.4298 7.01801
52.4794 6.95045
52.5293 6.95579
52.5789 6.87393
52.6288 6.86301
52.6785 6.82815
52.7284 6.81835
52.7781 6.80343
52.828 6.74854
52.8777 6.68037
52.9276 6.72008
52.9774 6.66411
53.0273 6.62518
53.0771 6.61273
53.1271 6.62309
53.1769 6.53863
53.2269 6.52944
53.2767 6.51891
53.3267 6.49267
53.3765 6.44403
53.4266 6.44248
53.4766 6.39971
53.5265 6.35699
53.5765 6.34583
53.6264 6.32415
53.6765 6.28725
53.7264 6.23179
53.7765 6.25145
53.8265 6.18111
53.8766 6.12126
53.9266 6.18026
53.9767 6.12086
54.0267 6.06822
54.0769 6.04789
54.1269 6.03184
54.1771 5.97072
54.2271 5.98746
54.2773 5.88274
54.3274 5.89368
54.3776 5.86535
54.4277 5.83074
54.478 5.75674
54.528 5.72388
54.5783 5.66188
54.6285 5.67083
54.6788 5.60578
54.7289 5.53164
54.7792 5.54798
54.8296 5.47824
54.8798 5.40391
54.9301 5.35452
54.9803 5.33849
55.0307 5.35353
55.0809 5.24304
55.1314 5.20282
55.1816 5.10165
55.232 5.10667
55.2823 5.10485
55.3328 5.01613
55.383 4.95897
55.4335 4.89411
55.4838 4.89472
55.5344 4.82701
55.5847 4.81184
55.6352 4.75464
55.6856 4.7105
55.7361 4.71452