File: XRD/Ni3Fe_FD0504.xy
TT I
1.27165 7.59768
1.31627 6.85538
1.36089 6.40646
1.40551 6.97682
1.45013 6.02227
1.49476 6.41144
1.53938 5.8896
1.584 5.39319
1.62863 5.09875
1.67325 5.45001
1.71787 5.52899
1.7625 4.67344
1.80712 5.14108
1.85174 4.77618
1.89636 4.74102
1.94099 5.32471
1.98562 4.49243
2.03025 4.82207
2.07487 4.97078
2.11949 4.57268
2.16411 5.14561
2.20874 14.2606
2.25338 22.995
2.298 5.86829
2.34263 4.92239
2.38725 6.11379
2.43188 5.91472
2.4765 6.31685
2.52115 6.24963
2.56577 7.06958
2.6104 7.84691
2.65503 7.84374
2.69965 7.53371
2.7443 7.60924
2.78893 7.45791
2.83356 7.69054
2.87818 8.38968
2.92281 8.97821
2.96744 9.2283
3.01209 10.3368
3.05672 11.2069
3.10135 12.3477
3.14599 13.3762
3.19062 14.5045
3.23527 14.8932
3.2799 15.7247
3.32454 17.2278
3.36917 18.0115
3.4138 19.1854
3.45844 19.4002
3.50309 21.337
3.54773 21.9481
3.59237 23.9532
3.637 91.2515
3.68164 58.5102
3.7263 26.3488
3.77094 26.3578
3.81558 26.7845
3.86022 27.6506
3.90486 28.9177
3.9495 29.9272
3.99416 31.1645
4.0388 32.5487
4.08344 34.4653
4.12809 35.4564
4.17273 37.7963
4.21738 44.1009
4.26204 242.058
4.30669 213.727
4.35133 49.1303
4.39598 45.3058
4.44063 54.503
4.4853 66.0347
4.52995 51.1081
4.5746 51.8848
4.61925 53.8425
4.6639 55.7054
4.70855 59.034
4.75322 61.7316
4.79788 64.4286
4.84253 68.1086
4.88719 72.2063
4.93184 75.916
4.97652 81.4021
5.02118 88.4471
5.06583 96.7301
5.11049 108.385
5.15515 178.031
5.19981 392.619
5.24449 3058.98
5.28916 11899.5
5.33382 3267.28
5.37848 205.246
5.42315 134.236
5.46783 117.283
5.5125 107.886
5.55716 103.702
5.60183 100.176
5.6465 98.3645
5.69117 95.7306
5.73586 93.9471
5.78053 92.8665
5.8252 92.8542
5.86988 93.7081
5.91455 96.173
5.95924 105.483
6.00392 221.903
6.0486 1032.89
6.09328 4172.78
6.13795 3473.25
6.18263 295.973
6.22733 97.5645
6.27201 85.0088
6.3167 103.262
6.36138 81.254
6.40606 70.3872
6.45075 68.2276
6.49545 66.1272
6.54014 64.7361
6.58483 63.8834
6.62952 63.7066
6.67421 94.2532
6.71892 143.327
6.76361 69.4589
6.8083 59.0819
6.853 58.3464
6.89769 57.6697
6.94239 57.1198
6.98711 56.4801
7.03181 56.1428
7.07651 56.2281
7.12121 55.8367
7.16591 56.0793
7.21063 56.3263
7.25533 70.5787
7.30004 175.479
7.34475 91.4017
7.38945 57.1687
7.43416 55.1908
7.47889 55.0607
7.5236 55.2906
7.56831 56.0859
7.61303 57.7169
7.65774 58.2106
7.70247 56.7566
7.74719 56.7628
7.79191 57.5424
7.83663 57.8885
7.88135 58.7889
7.92607 59.324
7.97081 60.7203
8.01553 61.4991
8.06026 62.9138
8.10498 64.8035
8.14971 74.2142
8.19446 73.1574
8.23919 70.0196
8.28392 72.4155
8.32865 75.1021
8.37339 79.2552
8.41812 86.5543
8.46288 114.585
8.50761 169.816
8.55235 406.672
8.59709 1169.53
8.64183 2150.08
8.68658 1067.76
8.73134 182.127
8.77609 102.269
8.82083 94.4538
8.86558 91.1393
8.91033 91.1844
8.9551 92.8446
8.99985 86.3942
9.04461 84.4318
9.08936 83.8791
9.13412 82.6298
9.17888 83.2818
9.22365 83.8839
9.26841 83.098
9.31318 83.6093
9.35794 83.9151
9.4027 84.1462
9.44749 85.1229
9.49226 85.7567
9.53703 86.2967
9.5818 88.2201
9.62657 92.9994
9.67134 99.777
9.71614 94.7627
9.76091 95.1886
9.80569 97.6637
9.85047 101.373
9.89525 124.912
9.94005 137.525
9.98484 182.204
10.0296 359.194
10.0744 813.954
10.1192 1662.94
10.164 1642.06
10.2088 448.865
10.2536 136.014
10.2984 115.419
10.3432 116.622
10.388 106.231
10.4328 120.545
10.4776 164.601
10.5224 283.885
10.5672 497.512
10.612 515.952
10.6568 226.833
10.7017 99.7323
10.7465 87.9218
10.7913 84.5703
10.8361 82.2559
10.8809 79.9617
10.9257 79.1711
10.9706 80.198
11.0154 75.6901
11.0602 73.7069
11.105 72.9266
11.1499 76.9325
11.1947 83.9983
11.2395 75.3191
11.2844 71.5733
11.3292 68.0585
11.374 66.898
11.4189 66.3462
11.4637 65.7294
11.5086 66.1832
11.5534 69.1328
11.5983 66.2815
11.6431 64.3691
11.688 63.7815
11.7328 63.8171
11.7777 63.6302
11.8225 63.3571
11.8674 62.8808
11.9122 63.5564
11.9571 63.7801
12.002 64.2014
12.0468 68.9037
12.0917 80.9784
12.1366 105.844
12.1814 153.49
12.2263 200.435
12.2712 172.362
12.3161 102.318
12.3609 72.0804
12.4058 65.5812
12.4507 65.1939
12.4956 65.4497
12.5405 65.2593
12.5853 66.1779
12.6302 73.8981
12.6751 79.743
12.72 70.7657
12.7649 68.8013
12.8098 69.2547
12.8547 70.228
12.8996 71.754
12.9445 73.0554
12.9894 74.7758
13.0343 76.9153
13.0792 79.8636
13.1242 89.3101
13.1691 114.784
13.214 152.633
13.2589 237.947
13.3038 361.082
13.3487 423.998
13.3937 279.927
13.4386 132.254
13.4835 107.985
13.5285 124.028
13.5734 161.901
13.6183 245.337
13.6633 335.981
13.7082 339.836
13.7531 202.675
13.7981 103.258
13.843 83.0006
13.888 80.6194
13.9329 78.0982
13.9779 76.9524
14.0228 75.3553
14.0678 74.0373
14.1127 73.4544
14.1577 73.2125
14.2027 72.4525
14.2476 71.2686
14.2926 71.6028
14.3376 72.5154
14.3825 71.2562
14.4275 69.6393
14.4725 69.734
14.5175 69.5719
14.5624 69.8924
14.6074 72.1392
14.6524 72.6601
14.6974 71.3377
14.7424 72.9102
14.7874 80.1261
14.8324 91.2468
14.8774 112.539
14.9224 152.34
14.9674 199.844
15.0124 214.613
15.0574 156.485
15.1024 95.9715
15.1474 74.0216
15.1924 71.3978
15.2374 72.1693
15.2824 71.3716
15.3274 69.062
15.3725 67.711
15.4175 67.0545
15.4625 67.1912
15.5076 67.1941
15.5526 67.0775
15.5976 66.4871
15.6426 67.578
15.6877 73.4225
15.7327 81.4106
15.7778 96.4738
15.8228 126.9
15.8679 167.513
15.9129 190.094
15.958 160.836
16.003 103.178
16.0481 70.5277
16.0931 65.7712
16.1382 63.6617
16.1833 61.5774
16.2283 59.8048
16.2734 59.2738
16.3185 59.438
16.3636 60.1768
16.4086 58.63
16.4537 56.9815
16.4988 56.434
16.5439 56.2533
16.589 56.0896
16.6341 55.5969
16.6792 55.3069
16.7243 55.637
16.7694 55.6144
16.8145 55.2756
16.8596 56.1039
16.9047 57.8082
16.9498 57.619
16.9949 56.4736
17.04 56.5679
17.0851 57.6866
17.1302 59.7322
17.1754 62.6716
17.2205 67.359
17.2656 74.6206
17.3108 82.029
17.3559 82.9017
17.401 72.9354
17.4462 63.7009
17.4913 59.9525
17.5365 60.0086
17.5815 60.1062
17.6268 60.4287
17.6718 61.0997
17.7171 61.6951
17.7622 62.1289
17.8074 62.5196
17.8525 64.9194
17.8977 69.2329
17.9428 74.9362
17.9881 83.5238
18.0331 100.093
18.0784 119.917
18.1237 137.226
18.1688 133.851
18.214 107.722
18.2591 89.0312
18.3044 91.2052
18.3495 99.4429
18.3948 105.551
18.4399 99.0086
18.4852 80.8473
18.5303 68.033
18.5756 63.1935
18.6207 62.2029
18.666 61.2532
18.7112 60.3898
18.7565 59.7788
18.8016 59.369
18.8469 58.7631
18.892 58.6637
18.9374 57.9643
18.9825 57.6935
19.0278 57.6564
19.073 57.801
19.1183 58.0785
19.1635 59.0247
19.2088 60.5751
19.254 63.0692
19.2993 67.0744
19.3447 72.7852
19.3898 76.836
19.4352 73.4029
19.4804 65.0241
19.5257 58.0467
19.5709 55.2895
19.6163 54.5871
19.6615 54.5412
19.7068 54.119
19.752 54.0011
19.7974 54.2396
19.8426 54.9569
19.888 55.8762
19.9332 57.1061
19.9786 59.4572
20.0238 62.6149
20.0692 67.3081
20.1144 70.2628
20.1598 69.3491
20.205 64.7506
20.2504 63.2371
20.2957 64.0973
20.3411 65.5785
20.3863 64.8446
20.4318 59.7715
20.477 54.7548
20.5224 52.7356
20.5677 51.8084
20.6131 50.911
20.6586 50.3994
20.7038 50.1331
20.7493 49.6935
20.7945 49.6389
20.84 49.3121
20.8853 49.2568
20.9307 49.1319
20.976 49.4848
21.0215 49.1311
21.0668 49.7754
21.1122 50.0567
21.1575 50.7203
21.203 51.4604
21.2483 51.9074
21.2938 52.0595
21.3391 50.7474
21.3846 49.555
21.4299 49.0564
21.4754 49.0064
21.5207 49.1321
21.5662 49.5519
21.6116 49.9536
21.6571 50.5315
21.7024 51.5541
21.7479 53.4363
21.7933 55.9952
21.8388 59.5041
21.8843 62.8678
21.9297 64.7973
21.9752 64.3275
22.0206 60.9658
22.0661 57.6031
22.1115 56.5228
22.157 56.8049
22.2024 55.2987
22.248 52.4527
22.2933 50.736
22.3389 49.5443
22.3843 49.6778
22.4299 49.601
22.4753 49.4324
22.5208 49.3096
22.5662 49.0104
22.6118 49.371
22.6572 49.4677
22.7028 49.9186
22.7483 50.472
22.7939 51.1236
22.8393 52.7128
22.8849 54.6598
22.9303 56.4409
22.9759 58.1661
23.0214 58.1265
23.067 55.5488
23.1126 52.1657
23.1581 50.0053
23.2037 49.5401
23.2492 49.4263
23.2948 49.4918
23.3403 49.8688
23.3859 50.572
23.4314 51.501
23.477 53.1681
23.5225 55.0885
23.5682 57.0073
23.6137 58.0492
23.6593 56.6165
23.7048 52.8763
23.7505 49.3189
23.796 47.3859
23.8417 46.7751
23.8872 46.1502
23.9329 45.8559
23.9784 45.5106
24.0241 45.2419
24.0697 44.9644
24.1154 44.7839
24.1609 44.7386
24.2066 44.5226
24.2522 44.3935
24.2979 44.0274
24.3434 43.8444
24.3892 43.8463
24.4349 43.6028
24.4805 43.5276
24.5262 43.7077
24.5718 43.3806
24.6175 43.5439
24.6631 43.2434
24.7089 42.999
24.7545 42.9836
24.8002 42.8952
24.8458 42.6612
24.8916 42.5834
24.9372 42.7982
24.983 43.1786
25.0286 43.4671
25.0744 43.8592
25.12 44.2692
25.1658 44.8486
25.2114 45.326
25.2572 45.2193
25.3029 45.3528
25.3487 45.3877
25.3943 45.113
25.4402 44.2175
25.4858 43.261
25.5316 42.2849
25.5773 41.6523
25.6231 41.4671
25.669 41.2737
25.7147 41.1859
25.7605 41.0143
25.8062 41.1
25.8521 41.2231
25.8977 41.1716
25.9436 41.5258
25.9893 41.5676
26.0352 41.9887
26.0809 42.0801
26.1268 42.2123
26.1725 42.1175
26.2184 41.4748
26.2641 40.9198
26.31 40.7179
26.3557 40.6934
26.4017 40.6449
26.4474 41.0776
26.4933 41.2012
26.5391 41.7562
26.585 42.2228
26.6308 42.4191
26.6767 42.7782
26.7225 42.801
26.7684 42.1103
26.8142 41.4474
26.8601 41.0661
26.9059 40.7731
26.9519 40.1515
26.9979 39.8252
27.0437 39.5061
27.0896 39.2601
27.1354 39.3017
27.1814 39.1588
27.2272 39.1578
27.2732 39.1292
27.3191 38.8383
27.3651 39.0834
27.4109 38.9118
27.4569 38.9909
27.5027 39.0278
27.5488 39.2136
27.5946 38.9464
27.6407 38.855
27.6865 38.7224
27.7326 38.3217
27.7784 38.3369
27.8245 38.3531
27.8703 38.5364
27.9164 38.9061
27.9623 38.9564
28.0084 39.1344
28.0543 39.5132
28.1003 39.5581
28.1462 39.3176
28.1923 38.9802
28.2384 38.4554
28.2843 38.188
28.3304 37.7342
28.3764 37.2815
28.4225 37.0229
28.4684 36.7855
28.5145 36.3992
28.5605 36.4188
28.6066 36.1116
28.6526 36.1996
28.6987 36.1633
28.7447 35.9736
28.7908 35.9181
28.8368 35.9272
28.8829 35.8245
28.9289 35.7767
28.9751 35.594
29.0211 35.4484
29.0673 35.1925
29.1133 35.167
29.1595 34.8105
29.2055 34.9423
29.2517 34.8634
29.2977 34.6907
29.3439 34.8052
29.3899 34.6461
29.4361 34.5441
29.4824 34.4808
29.5284 34.31
29.5746 33.9904
29.6207 33.6105
29.6669 33.5191
29.713 33.4811
29.7593 33.2986
29.8053 33.357
29.8516 33.1892
29.8977 33.2551
29.9439 33.1014
29.99 33.0131
30.0363 32.8619
30.0824 33.0429
30.1287 32.8599
30.1748 32.8439
30.2211 32.9284
30.2673 32.7248
30.3136 32.7535
30.3597 32.6819
30.406 32.6947
30.4522 32.48
30.4985 32.4199
30.5447 32.7083
30.591 32.6589
30.6372 32.5617
30.6835 32.5728
30.7297 32.741
30.7761 32.637
30.8224 32.4553
30.8686 32.299
30.915 32.0976
30.9612 31.9464
31.0076 31.8694
31.0538 31.6073
31.1002 31.6172
31.1464 31.3411
31.1928 31.4103
31.2391 31.4504
31.2855 31.2887
31.3317 31.2671
31.3781 31.3753
31.4244 31.2527
31.4708 31.257
31.5171 31.2805
31.5636 31.1088
31.6098 30.9089
31.6563 30.7884
31.7026 30.7118
31.7491 30.6608
31.7953 30.6855
31.8418 30.3953
31.8881 30.5923
31.9346 30.4472
31.9809 30.442
32.0275 30.3882
32.074 30.2148
32.1203 30.1268
32.1668 29.88
32.2132 29.7671
32.2597 29.7142
32.306 29.6513
32.3526 29.4594
32.399 29.3566
32.4455 29.2061
32.4919 29.0504
32.5385 29.0785
32.5848 28.8507
32.6314 28.8936
32.6778 28.7817
32.7244 28.664
32.7708 28.446
32.8174 28.569
32.8638 28.437
32.9104 28.487
32.9569 28.4605
33.0035 28.2402
33.0499 28.25
33.0966 28.2118
33.143 28.2141
33.1897 28.0421
33.2361 28.0376
33.2828 27.9799
33.3293 27.7133
33.3759 27.7479
33.4226 27.6308
33.4691 27.5416
33.5158 27.4086
33.5623 27.2965
33.609 27.1589
33.6555 27.152
33.7022 26.9648
33.7487 26.8716
33.7954 26.7623
33.842 26.7509
33.8887 26.7113
33.9353 26.6358
33.982 26.4825
34.0286 26.4286
34.0753 26.4268
34.1219 26.2931
34.1687 26.2288
34.2152 26.1697
34.262 26.0036
34.3086 25.8925
34.3554 25.8846
34.402 25.7474
34.4488 25.7151
34.4954 25.5735
34.5422 25.5679
34.5889 25.3458
34.6357 25.3394
34.6825 25.2432
34.7292 25.2055
34.776 25.0852
34.8227 25.0344
34.8695 24.985
34.9162 24.9209
34.9631 24.8476
35.0098 24.8541
35.0566 24.7084
35.1033 24.604
35.1502 24.6191
35.1969 24.5937
35.2438 24.5063
35.2906 24.4333
35.3375 24.401
35.3842 24.3031
35.4311 24.2743
35.4779 24.298
35.5248 24.2089
35.5716 24.0836
35.6185 23.9581
35.6653 23.8582
35.7123 23.8282
35.759 23.8891
35.806 23.6772
35.8528 23.5939
35.8998 23.6161
35.9468 23.4822
35.9936 23.3975
36.0406 23.379
36.0874 23.2886
36.1345 23.2008
36.1813 23.1185
36.2283 23.0944
36.2752 23.0083
36.3222 23.0285
36.3691 22.8189
36.4161 22.8171
36.463 22.7914
36.5101 22.7507
36.557 22.7377
36.6041 22.4973
36.651 22.4873
36.6981 22.4579
36.745 22.3522
36.7921 22.3207
36.839 22.1963
36.8861 22.1074
36.9331 22.0434
36.9802 21.9825
37.0272 21.8257
37.0743 21.7533
37.1213 21.8087
37.1684 21.6996
37.2154 21.6214
37.2626 21.5369
37.3098 21.4918
37.3568 21.4052
37.404 21.3711
37.451 21.2674
37.4982 21.2692
37.5452 21.1533
37.5924 21.1258
37.6395 21.1399
37.6867 20.9674
37.7337 20.9424
37.781 20.794
37.8281 20.818
37.8753 20.6616
37.9224 20.622
37.9697 20.5905
38.0168 20.4046
38.064 20.4624
38.1111 20.4116
38.1584 20.2562
38.2056 20.2678
38.2529 20.18
38.3 20.1189
38.3473 20.0317
38.3945 19.956
38.4418 19.9563
38.489 19.8442
38.5363 19.7817
38.5837 19.6742
38.6309 19.6728
38.6782 19.5438
38.7254 19.6059
38.7728 19.4757
38.82 19.4246
38.8674 19.3471
38.9146 19.3302
38.9621 19.1782
39.0093 19.1644
39.0567 19.1243
39.104 19.0863
39.1514 18.9536
39.1987 18.8809
39.2461 18.93
39.2934 18.7671
39.3409 18.7057
39.3882 18.6906
39.4356 18.617
39.483 18.5868
39.5304 18.514
39.5778 18.5149
39.6253 18.437
39.6726 18.3729
39.7201 18.3235
39.7675 18.3126
39.815 18.1806
39.8624 18.1251
39.9099 18.1327
39.9575 18.0264
40.0049 17.9678
40.0525 17.8604
40.0999 17.8606
40.1474 17.7611
40.1949 17.7119
40.2425 17.6474
40.2899 17.5987
40.3375 17.5715
40.385 17.4501
40.4326 17.4685
40.48 17.3183
40.5277 17.3316
40.5752 17.3214
40.6228 17.1921
40.6703 17.1936
40.718 17.1239
40.7655 17.0527
40.8132 16.936
40.8607 16.9463
40.9084 16.8809
40.9559 16.8944
41.0036 16.7778
41.0512 16.7787
41.0989 16.7127
41.1465 16.5852
41.1942 16.5255
41.242 16.502
41.2896 16.4271
41.3373 16.4633
41.3849 16.3939
41.4327 16.3844
41.4803 16.1953
41.5281 16.1437
41.5758 16.1427
41.6236 16.0833
41.6712 15.9809
41.7191 15.9686
41.7667 15.895
41.8146 15.8581
41.8622 15.7667
41.9101 15.7752
41.9578 15.6292
42.0057 15.6089
42.0534 15.5394
42.1013 15.592
42.149 15.5092
42.1969 15.4257
42.2446 15.363
42.2925 15.3556
42.3403 15.2675
42.3882 15.2568
42.436 15.1856
42.4839 15.1277
42.5319 15.1103
42.5797 15.0338
42.6277 14.9897
42.6755 14.9338
42.7235 14.8385
42.7713 14.8445
42.8193 14.8176
42.8671 14.7074
42.9152 14.6572
42.963 14.6317
43.0111 14.5774
43.0589 14.4979
43.107 14.4582
43.1549 14.4216
43.2029 14.3771
43.2508 14.3007
43.2989 14.2553
43.3468 14.2395
43.3949 14.189
43.4429 14.0965
43.491 14.0916
43.5389 14.074
43.5871 13.9859
43.635 13.9395
43.6832 13.9266
43.7312 13.8077
43.7793 13.8042
43.8273 13.7127
43.8755 13.692
43.9237 13.6128
43.9717 13.5983
44.0199 13.5264
44.068 13.4775
44.1162 13.4444
44.1642 13.423
44.2125 13.3489
44.2606 13.3446
44.3088 13.2828
44.3569 13.2092
44.4052 13.2128
44.4533 13.1086
44.5016 13.0021
44.5497 13.0465
44.598 12.9702
44.6461 13.0016
44.6945 12.9308
44.7426 12.9039
44.791 12.7956
44.8391 12.7813
44.8875 12.7695
44.9357 12.6879
44.984 12.6886
45.0322 12.6089
45.0806 12.5371
45.1288 12.484
45.1773 12.4599
45.2257 12.3909
45.2739 12.3791
45.3224 12.3454
45.3706 12.3169
45.4191 12.2241
45.4673 12.2194
45.5158 12.1921
45.5641 12.1148
45.6126 12.0926
45.6609 12.02
45.7094 11.9958
45.7577 11.9113
45.8063 11.8249
45.8546 11.8348
45.9031 11.8415
45.9515 11.7277
46.0001 11.7359
46.0484 11.6798
46.097 11.593
46.1454 11.5989
46.194 11.5966
46.2424 11.5059
46.291 11.463
46.3395 11.4233
46.3881 11.3888
46.4365 11.3678
46.4852 11.3049
46.5337 11.2672
46.5823 11.2066
46.631 11.1807
46.6795 11.1864
46.7282 11.0762
46.7767 11.0588
46.8254 11.017
46.8739 10.9489
46.9226 10.9331
46.9712 10.8811
47.0199 10.8738
47.0685 10.8169
47.1173 10.7718
47.1658 10.7466
47.2146 10.7446
47.2632 10.6543
47.312 10.6461
47.3606 10.6054
47.4095 10.5512
47.4581 10.4994
47.5069 10.4516
47.5556 10.4031
47.6044 10.399
47.6531 10.3726
47.702 10.2967
47.7507 10.2799
47.7996 10.257
47.8483 10.17
47.8972 10.1897
47.9461 10.1658
47.9948 10.0692
48.0438 10.0219
48.0925 10.0308
48.1415 9.98301
48.1902 9.94919
48.2392 9.91473
48.288 9.90361
48.337 9.82941
48.3858 9.77078
48.4348 9.75121
48.4837 9.74416
48.5327 9.70891
48.5815 9.66301
48.6306 9.6601
48.6795 9.61162
48.7285 9.60104
48.7774 9.49467
48.8265 9.50932
48.8754 9.47803
48.9245 9.45906
48.9734 9.39262
49.0226 9.33089
49.0715 9.3425
49.1206 9.27773
49.1696 9.21426
49.2188 9.22407
49.2679 9.15318
49.3169 9.14649
49.3661 9.07615
49.4151 9.07059
49.4643 9.01075
49.5134 8.99394
49.5626 8.91882
49.6117 8.89533
49.6609 8.89672
49.71 8.86562
49.7592 8.86344
49.8083 8.76657
49.8576 8.75779
49.9067 8.72313
49.956 8.69031
50.0052 8.68741
50.0545 8.63353
50.1036 8.58993
50.153 8.57558
50.2022 8.53701
50.2515 8.46503
50.3007 8.44929
50.3501 8.43234
50.3993 8.37462
50.4487 8.33928
50.498 8.33441
50.5474 8.29427
50.5966 8.25262
50.6461 8.22732
50.6955 8.19737
50.7448 8.16578
50.7943 8.13694
50.8436 8.12699
50.8931 8.07784
50.9424 8.05052
50.9919 7.98552
51.0413 7.98861
51.0908 7.97304
51.1402 7.93521
51.1897 7.89127
51.2391 7.8701
51.2887 7.81412
51.3381 7.77627
51.3877 7.76699
51.4371 7.72667
51.4867 7.66101
51.5362 7.68788
51.5858 7.64677
51.6353 7.57922
51.6849 7.56448
51.7344 7.5137
51.7841 7.47338
51.8336 7.46646
51.8833 7.43892
51.9328 7.38681
51.9826 7.3838
52.0323 7.34106
52.0818 7.34202
52.1316 7.29046
52.1812 7.23012
52.231 7.22385
52.2806 7.18234
52.3304 7.20047
52.38 7.13645
52.4298 7.10748
52.4794 7.05487
52.5293 7.05675
52.5789 7.00021
52.6288 6.97272
52.6785 6.95884
52.7284 6.93326
52.7781 6.94202
52.828 6.88142
52.8777 6.82891
52.9276 6.80798
52.9774 6.78649
53.0273 6.76926
53.0771 6.69309
53.1271 6.6878
53.1769 6.67482
53.2269 6.62707
53.2767 6.64201
53.3267 6.60737
53.3765 6.57194
53.4266 6.5462
53.4766 6.51239
53.5265 6.48076
53.5765 6.45455
53.6264 6.41344
53.6765 6.3839
53.7264 6.33581
53.7765 6.33164
53.8265 6.34668
53.8766 6.28943
53.9266 6.25591
53.9767 6.22147
54.0267 6.21509
54.0769 6.18937
54.1269 6.18517
54.1771 6.11907
54.2271 6.07521
54.2773 6.06277
54.3274 6.07018
54.3776 5.97267
54.4277 5.94469
54.478 5.92586
54.528 5.85555
54.5783 5.80954
54.6285 5.84209
54.6788 5.80588
54.7289 5.72546
54.7792 5.70577
54.8296 5.64244
54.8798 5.57338
54.9301 5.55173
54.9803 5.52793
55.0307 5.53789
55.0809 5.44241
55.1314 5.47453
55.1816 5.36365
55.232 5.32913
55.2823 5.27973
55.3328 5.18176
55.383 5.111
55.4335 5.16078
55.4838 5.07775
55.5344 5.0187
55.5847 4.98567
55.6352 4.99736
55.6856 4.88405
55.7361 4.90084