File: XRD/Ni3Fe_FD0214.xy
TT I
1.27165 7.66335
1.31627 6.66565
1.36089 6.89835
1.40551 5.73941
1.45013 6.34026
1.49476 6.94445
1.53938 6.33264
1.584 5.96433
1.62863 6.58141
1.67325 5.99659
1.71787 5.76792
1.7625 5.77356
1.80712 5.04371
1.85174 5.40751
1.89636 5.21544
1.94099 5.22129
1.98562 5.15098
2.03025 4.66608
2.07487 4.39859
2.11949 4.8959
2.16411 4.5129
2.20874 4.8241
2.25338 4.06908
2.298 4.65518
2.34263 4.65806
2.38725 4.71625
2.43188 4.09379
2.4765 5.14159
2.52115 4.46773
2.56577 5.14142
2.6104 5.72558
2.65503 6.08121
2.69965 6.44649
2.7443 6.53584
2.78893 6.95758
2.83356 7.73111
2.87818 7.52926
2.92281 8.77613
2.96744 9.4259
3.01209 10.1516
3.05672 11.4326
3.10135 11.7875
3.14599 12.8559
3.19062 14.4262
3.23527 15.3027
3.2799 15.6394
3.32454 16.8214
3.36917 17.8163
3.4138 19.3678
3.45844 19.9209
3.50309 20.9619
3.54773 21.6925
3.59237 22.5802
3.637 23.1939
3.68164 23.9303
3.7263 25.1556
3.77094 25.8029
3.81558 27.1517
3.86022 27.7563
3.90486 29.0295
3.9495 30.3613
3.99416 31.1246
4.0388 32.3187
4.08344 33.9037
4.12809 34.783
4.17273 36.6866
4.21738 38.4656
4.26204 39.4889
4.30669 40.6508
4.35133 43.0587
4.39598 44.5603
4.44063 46.6535
4.4853 48.7566
4.52995 51.7183
4.5746 53.7483
4.61925 56.0093
4.6639 58.2085
4.70855 61.4778
4.75322 64.9478
4.79788 68.5204
4.84253 71.9427
4.88719 77.1524
4.93184 81.3739
4.97652 88.6981
5.02118 97.4393
5.06583 108.012
5.11049 125.059
5.15515 170.353
5.19981 893.483
5.24449 3966.08
5.28916 10578.0
5.33382 4347.38
5.37848 279.931
5.42315 155.354
5.46783 129.907
5.5125 118.292
5.55716 112.887
5.60183 107.706
5.6465 105.519
5.69117 104.033
5.73586 101.468
5.78053 102.427
5.8252 102.276
5.86988 105.29
5.91455 111.442
5.95924 134.47
6.00392 446.197
6.0486 1428.3
6.09328 3596.49
6.13795 3813.41
6.18263 386.284
6.22733 111.705
6.27201 89.9118
6.3167 81.5839
6.36138 76.5737
6.40606 73.2288
6.45075 71.0282
6.49545 68.8887
6.54014 67.1215
6.58483 65.5569
6.62952 64.2769
6.67421 62.5485
6.71892 61.7689
6.76361 60.8908
6.8083 60.0309
6.853 59.7207
6.89769 58.5416
6.94239 58.3972
6.98711 57.6131
7.03181 57.5026
7.07651 56.9559
7.12121 56.8533
7.16591 56.3833
7.21063 55.9871
7.25533 55.6024
7.30004 56.0629
7.34475 56.1299
7.38945 56.158
7.43416 55.7817
7.47889 55.7197
7.5236 56.782
7.56831 57.3959
7.61303 57.4203
7.65774 57.616
7.70247 58.0464
7.74719 58.5859
7.79191 59.1834
7.83663 59.3505
7.88135 60.2448
7.92607 61.2053
7.97081 63.0588
8.01553 64.2766
8.06026 65.8124
8.10498 66.8031
8.14971 69.2386
8.19446 70.8054
8.23919 73.2126
8.28392 76.4567
8.32865 79.3619
8.37339 84.7066
8.41812 91.2695
8.46288 110.987
8.50761 291.855
8.55235 594.661
8.59709 1053.64
8.64183 1959.79
8.68658 1260.71
8.73134 229.749
8.77609 111.755
8.82083 100.539
8.86558 96.4219
8.91033 93.8481
8.9551 91.1748
8.99985 90.089
9.04461 88.7546
9.08936 88.3508
9.13412 87.4951
9.17888 86.8693
9.22365 87.2119
9.26841 87.9181
9.31318 88.2781
9.35794 88.4734
9.4027 88.5186
9.44749 89.1562
9.49226 90.1334
9.53703 90.7925
9.5818 92.9534
9.62657 94.2354
9.67134 95.9262
9.71614 98.2963
9.76091 100.744
9.80569 103.959
9.85047 106.771
9.89525 112.889
9.94005 135.297
9.98484 304.666
10.0296 526.246
10.0744 797.5
10.1192 1432.03
10.164 1729.28
10.2088 575.532
10.2536 151.432
10.2984 118.495
10.3432 113.36
10.388 115.125
10.4328 159.714
10.4776 214.361
10.5224 280.286
10.5672 435.671
10.612 530.93
10.6568 266.266
10.7017 108.736
10.7465 92.8889
10.7913 88.3934
10.8361 85.6373
10.8809 83.6416
10.9257 81.0816
10.9706 79.684
11.0154 77.9414
11.0602 76.4816
11.105 75.0924
11.1499 73.2442
11.1947 72.5886
11.2395 71.6096
11.2844 70.9052
11.3292 69.9519
11.374 69.0097
11.4189 68.9303
11.4637 68.019
11.5086 67.3345
11.5534 66.796
11.5983 66.6175
11.6431 66.5841
11.688 65.9059
11.7328 65.9905
11.7777 65.7403
11.8225 65.3885
11.8674 65.5681
11.9122 66.204
11.9571 66.6791
12.002 68.7649
12.0468 80.2145
12.0917 95.5287
12.1366 108.754
12.1814 138.725
12.2263 189.513
12.2712 186.179
12.3161 106.076
12.3609 70.8758
12.4058 67.6134
12.4507 67.3031
12.4956 67.4855
12.5405 67.4526
12.5853 68.2142
12.6302 68.4948
12.6751 68.9908
12.72 69.9742
12.7649 70.7665
12.8098 71.9132
12.8547 73.2907
12.8996 74.7992
12.9445 76.4339
12.9894 78.712
13.0343 80.8989
13.0792 86.3645
13.1242 110.48
13.1691 149.269
13.214 175.347
13.2589 226.493
13.3038 315.287
13.3487 418.062
13.3937 316.857
13.4386 151.775
13.4835 134.991
13.5285 155.362
13.5734 174.268
13.6183 223.366
13.6633 306.732
13.7082 358.253
13.7531 232.601
13.7981 114.152
13.843 87.6298
13.888 84.5824
13.9329 81.691
13.9779 80.335
14.0228 78.8348
14.0678 77.3524
14.1127 76.2376
14.1577 75.7618
14.2027 75.0564
14.2476 74.2694
14.2926 73.806
14.3376 73.4337
14.3825 73.2276
14.4275 72.7163
14.4725 72.7343
14.5175 72.8461
14.5624 72.8613
14.6074 73.0377
14.6524 73.8524
14.6974 74.5758
14.7424 81.0105
14.7874 96.215
14.8324 107.496
14.8774 119.697
14.9224 143.448
14.9674 184.927
15.0124 222.171
15.0574 176.43
15.1024 104.772
15.1474 77.8116
15.1924 74.1317
15.2374 72.5952
15.2824 71.7633
15.3274 70.7703
15.3725 70.3895
15.4175 70.1919
15.4625 69.672
15.5076 69.2541
15.5526 69.6838
15.5976 70.1128
15.6426 74.8499
15.6877 86.9533
15.7327 95.7571
15.7778 103.654
15.8228 121.649
15.8679 151.414
15.9129 188.283
15.958 178.667
16.003 115.737
16.0481 74.183
16.0931 66.1074
16.1382 64.161
16.1833 63.1888
16.2283 61.9134
16.2734 61.1472
16.3185 60.2397
16.3636 59.8093
16.4086 58.9399
16.4537 58.8015
16.4988 58.1314
16.5439 58.1424
16.589 57.8868
16.6341 57.4445
16.6792 57.2619
16.7243 57.6037
16.7694 57.3694
16.8145 57.3598
16.8596 57.4084
16.9047 57.7727
16.9498 57.8626
16.9949 57.908
17.04 59.4322
17.0851 62.0725
17.1302 63.9204
17.1754 65.8075
17.2205 69.0142
17.2656 73.7047
17.3108 81.5325
17.3559 85.4321
17.401 78.0067
17.4462 67.2264
17.4913 62.7642
17.5365 62.3251
17.5815 62.3752
17.6268 62.7304
17.6718 63.1536
17.7171 63.8315
17.7622 64.9812
17.8074 66.4646
17.8525 72.4486
17.8977 78.8021
17.9428 83.0643
17.9881 88.1629
18.0331 98.6096
18.0784 114.17
18.1237 137.648
18.1688 145.652
18.214 120.878
18.2591 94.3599
18.3044 90.1611
18.3495 96.4889
18.3948 105.841
18.4399 103.214
18.4852 84.7703
18.5303 70.9173
18.5756 65.7941
18.6207 64.7411
18.666 63.7065
18.7112 62.8375
18.7565 62.1495
18.8016 61.7957
18.8469 61.1993
18.892 60.887
18.9374 60.3999
18.9825 60.0683
19.0278 59.7998
19.073 60.412
19.1183 61.6889
19.1635 62.3822
19.2088 63.2286
19.254 64.7238
19.2993 67.3179
19.3447 71.196
19.3898 76.2042
19.4352 76.3547
19.4804 69.4063
19.5257 61.1215
19.5709 57.2053
19.6163 56.5767
19.6615 56.5587
19.7068 56.0347
19.752 56.2549
19.7974 57.13
19.8426 58.5306
19.888 58.7592
19.9332 59.7413
19.9786 61.5936
20.0238 63.927
20.0692 68.1467
20.1144 72.3753
20.1598 73.4923
20.205 68.2688
20.2504 64.4559
20.2957 64.4166
20.3411 66.6061
20.3863 67.5906
20.4318 62.5626
20.477 57.1332
20.5224 53.9474
20.5677 53.1355
20.6131 52.7772
20.6586 52.1902
20.7038 52.0816
20.7493 51.5124
20.7945 51.5843
20.84 51.4153
20.8853 51.3062
20.9307 51.5013
20.976 51.7514
21.0215 51.1538
21.0668 51.5683
21.1122 52.0189
21.1575 52.2158
21.203 52.6521
21.2483 53.4954
21.2938 53.9769
21.3391 53.1201
21.3846 51.8203
21.4299 51.0973
21.4754 50.9577
21.5207 51.4664
21.5662 52.0146
21.6116 52.9347
21.6571 53.759
21.7024 54.5581
21.7479 55.7434
21.7933 57.5394
21.8388 59.9435
21.8843 63.3602
21.9297 66.6644
21.9752 66.9958
22.0206 63.4828
22.0661 59.1574
22.1115 57.7255
22.157 58.3718
22.2024 57.6628
22.248 54.9039
22.2933 52.695
22.3389 51.5977
22.3843 51.2599
22.4299 51.0494
22.4753 51.1346
22.5208 50.9855
22.5662 51.1717
22.6118 51.5537
22.6572 52.0445
22.7028 52.6123
22.7483 53.0964
22.7939 53.3331
22.8393 54.4082
22.8849 55.4331
22.9303 57.0872
22.9759 59.0769
23.0214 60.1025
23.067 58.3735
23.1126 54.8392
23.1581 52.1539
23.2037 51.5586
23.2492 51.783
23.2948 52.211
23.3403 52.4685
23.3859 52.9749
23.4314 53.2962
23.477 54.4404
23.5225 55.6135
23.5682 57.5021
23.6137 59.4508
23.6593 59.1828
23.7048 55.4354
23.7505 51.6387
23.796 49.3863
23.8417 48.3428
23.8872 47.943
23.9329 47.5111
23.9784 47.2228
24.0241 46.8782
24.0697 46.6764
24.1154 46.2689
24.1609 45.9793
24.2066 45.8855
24.2522 46.0308
24.2979 45.6673
24.3434 45.3996
24.3892 45.2551
24.4349 45.2956
24.4805 44.96
24.5262 45.263
24.5718 44.948
24.6175 45.0484
24.6631 45.0412
24.7089 44.5801
24.7545 44.3929
24.8002 44.4445
24.8458 44.4493
24.8916 44.4197
24.9372 44.5226
24.983 44.9031
25.0286 45.1891
25.0744 45.4166
25.12 45.6755
25.1658 46.4086
25.2114 46.4996
25.2572 46.5775
25.3029 46.5447
25.3487 46.6748
25.3943 46.6573
25.4402 45.9805
25.4858 45.0565
25.5316 43.8289
25.5773 42.9978
25.6231 43.0237
25.669 42.6696
25.7147 42.7005
25.7605 42.6691
25.8062 42.6044
25.8521 42.69
25.8977 42.5373
25.9436 42.792
25.9893 42.741
26.0352 43.1808
26.0809 43.4191
26.1268 43.6972
26.1725 43.5252
26.2184 43.1354
26.2641 42.7357
26.31 42.3489
26.3557 42.4357
26.4017 42.3202
26.4474 42.5399
26.4933 42.7966
26.5391 43.0495
26.585 43.109
26.6308 43.7625
26.6767 44.0514
26.7225 43.9981
26.7684 43.5492
26.8142 42.9058
26.8601 42.4385
26.9059 42.2152
26.9519 41.591
26.9979 41.2005
27.0437 40.8311
27.0896 40.7239
27.1354 40.8516
27.1814 40.6588
27.2272 40.489
27.2732 40.4413
27.3191 40.2801
27.3651 40.3258
27.4109 40.2609
27.4569 40.2438
27.5027 40.342
27.5488 40.5563
27.5946 40.5259
27.6407 40.1708
27.6865 40.1511
27.7326 39.8236
27.7784 39.9029
27.8245 39.8117
27.8703 39.8187
27.9164 40.1805
27.9623 39.9428
28.0084 40.2348
28.0543 40.707
28.1003 40.7774
28.1462 40.7022
28.1923 40.3164
28.2384 39.7053
28.2843 39.466
28.3304 39.0817
28.3764 38.7138
28.4225 38.2581
28.4684 37.9331
28.5145 37.7308
28.5605 37.6311
28.6066 37.4304
28.6526 37.3705
28.6987 37.2485
28.7447 37.1422
28.7908 37.0435
28.8368 37.1669
28.8829 37.0982
28.9289 37.0162
28.9751 36.8803
29.0211 36.7287
29.0673 36.4046
29.1133 36.2942
29.1595 36.1382
29.2055 36.0036
29.2517 36.0885
29.2977 35.8392
29.3439 35.7938
29.3899 35.7735
29.4361 35.7647
29.4824 35.5169
29.5284 35.4788
29.5746 35.1633
29.6207 34.8042
29.6669 34.6992
29.713 34.6033
29.7593 34.4105
29.8053 34.5237
29.8516 34.4799
29.8977 34.3966
29.9439 34.1328
29.99 34.2362
30.0363 34.0807
30.0824 34.0264
30.1287 34.0133
30.1748 33.918
30.2211 33.8998
30.2673 33.8868
30.3136 33.9758
30.3597 33.9394
30.406 33.783
30.4522 33.5483
30.4985 33.6828
30.5447 33.6647
30.591 33.6346
30.6372 33.6351
30.6835 33.5514
30.7297 33.8442
30.7761 33.6338
30.8224 33.6387
30.8686 33.4177
30.915 33.2059
30.9612 33.1131
31.0076 32.9051
31.0538 32.7448
31.1002 32.6203
31.1464 32.5422
31.1928 32.3591
31.2391 32.5295
31.2855 32.3481
31.3317 32.3636
31.3781 32.3418
31.4244 32.3736
31.4708 32.2964
31.5171 32.3438
31.5636 32.2516
31.6098 32.0452
31.6563 31.8872
31.7026 31.6912
31.7491 31.5872
31.7953 31.6313
31.8418 31.6071
31.8881 31.5449
31.9346 31.5049
31.9809 31.4092
32.0275 31.3996
32.074 31.2604
32.1203 31.1481
32.1668 30.9387
32.2132 30.7916
32.2597 30.675
32.306 30.6605
32.3526 30.5264
32.399 30.4008
32.4455 30.1703
32.4919 30.09
32.5385 29.9825
32.5848 29.9007
32.6314 29.8533
32.6778 29.8014
32.7244 29.6671
32.7708 29.5534
32.8174 29.5239
32.8638 29.4094
32.9104 29.359
32.9569 29.3745
33.0035 29.2112
33.0499 29.1054
33.0966 29.1507
33.143 29.0094
33.1897 29.0152
33.2361 28.9484
33.2828 28.8939
33.3293 28.7295
33.3759 28.7291
33.4226 28.5694
33.4691 28.5136
33.5158 28.3008
33.5623 28.1923
33.609 28.036
33.6555 27.9906
33.7022 27.8301
33.7487 27.8185
33.7954 27.7198
33.842 27.5839
33.8887 27.668
33.9353 27.5195
33.982 27.3748
34.0286 27.3136
34.0753 27.2447
34.1219 27.1474
34.1687 27.0516
34.2152 27.0467
34.262 26.8523
34.3086 26.8242
34.3554 26.8031
34.402 26.613
34.4488 26.5239
34.4954 26.4504
34.5422 26.3861
34.5889 26.3392
34.6357 26.1141
34.6825 26.128
34.7292 26.1206
34.776 25.9443
34.8227 25.9174
34.8695 25.8585
34.9162 25.7599
34.9631 25.6556
35.0098 25.6587
35.0566 25.5041
35.1033 25.3945
35.1502 25.5706
35.1969 25.4192
35.2438 25.3078
35.2906 25.232
35.3375 25.1658
35.3842 25.1209
35.4311 25.14
35.4779 25.1183
35.5248 25.0146
35.5716 24.8674
35.6185 24.8521
35.6653 24.7813
35.7123 24.641
35.759 24.5233
35.806 24.5201
35.8528 24.2727
35.8998 24.3413
35.9468 24.2373
35.9936 24.1908
36.0406 24.0898
36.0874 24.0463
36.1345 24.0183
36.1813 23.9776
36.2283 23.8042
36.2752 23.7109
36.3222 23.7467
36.3691 23.6375
36.4161 23.5316
36.463 23.5545
36.5101 23.5167
36.557 23.4466
36.6041 23.244
36.651 23.2625
36.6981 23.2006
36.745 23.096
36.7921 23.0713
36.839 22.8916
36.8861 22.8569
36.9331 22.8421
36.9802 22.7369
37.0272 22.5712
37.0743 22.5265
37.1213 22.5319
37.1684 22.4435
37.2154 22.3544
37.2626 22.3286
37.3098 22.2685
37.3568 22.1146
37.404 22.1093
37.451 21.9824
37.4982 21.9534
37.5452 21.8446
37.5924 21.8029
37.6395 21.747
37.6867 21.712
37.7337 21.6111
37.781 21.4709
37.8281 21.4347
37.8753 21.3482
37.9224 21.2472
37.9697 21.2581
38.0168 21.1203
38.064 21.0889
38.1111 21.0611
38.1584 21.0571
38.2056 20.8963
38.2529 20.8573
38.3 20.7522
38.3473 20.7259
38.3945 20.6294
38.4418 20.5475
38.489 20.5199
38.5363 20.3714
38.5837 20.388
38.6309 20.3593
38.6782 20.21
38.7254 20.2335
38.7728 20.121
38.82 20.0372
38.8674 19.9932
38.9146 19.9129
38.9621 19.9268
39.0093 19.8084
39.0567 19.7938
39.104 19.6372
39.1514 19.5407
39.1987 19.583
39.2461 19.5902
39.2934 19.4708
39.3409 19.3457
39.3882 19.3162
39.4356 19.1908
39.483 19.1523
39.5304 19.1035
39.5778 19.0655
39.6253 19.0169
39.6726 18.9518
39.7201 18.8953
39.7675 18.8387
39.815 18.7723
39.8624 18.6717
39.9099 18.6594
39.9575 18.5667
40.0049 18.5555
40.0525 18.4522
40.0999 18.3813
40.1474 18.4309
40.1949 18.2876
40.2425 18.2111
40.2899 18.1532
40.3375 18.1769
40.385 18.0951
40.4326 17.9713
40.48 17.9655
40.5277 17.8782
40.5752 17.8011
40.6228 17.7686
40.6703 17.7212
40.718 17.6143
40.7655 17.6014
40.8132 17.5279
40.8607 17.5151
40.9084 17.4715
40.9559 17.4109
41.0036 17.3577
41.0512 17.3551
41.0989 17.2661
41.1465 17.1652
41.1942 17.1211
41.242 17.084
41.2896 16.9873
41.3373 16.9116
41.3849 16.8639
41.4327 16.7702
41.4803 16.7436
41.5281 16.7393
41.5758 16.6445
41.6236 16.6048
41.6712 16.5048
41.7191 16.4807
41.7667 16.4445
41.8146 16.4453
41.8622 16.3054
41.9101 16.2541
41.9578 16.1535
42.0057 16.1539
42.0534 16.1338
42.1013 16.0928
42.149 16.0142
42.1969 15.9335
42.2446 15.9102
42.2925 15.8132
42.3403 15.7363
42.3882 15.7128
42.436 15.7303
42.4839 15.5989
42.5319 15.509
42.5797 15.4805
42.6277 15.4695
42.6755 15.4165
42.7235 15.3048
42.7713 15.3108
42.8193 15.2953
42.8671 15.1682
42.9152 15.1853
42.963 15.0893
43.0111 14.9719
43.0589 14.9709
43.107 14.9625
43.1549 14.912
43.2029 14.8252
43.2508 14.7875
43.2989 14.6946
43.3468 14.6762
43.3949 14.6368
43.4429 14.612
43.491 14.5205
43.5389 14.4559
43.5871 14.3914
43.635 14.3639
43.6832 14.3551
43.7312 14.2657
43.7793 14.2103
43.8273 14.2045
43.8755 14.1165
43.9237 14.0973
43.9717 14.0392
44.0199 13.9828
44.068 13.9549
44.1162 13.8856
44.1642 13.826
44.2125 13.7815
44.2606 13.7434
44.3088 13.7119
44.3569 13.6331
44.4052 13.6299
44.4533 13.5523
44.5016 13.5004
44.5497 13.5071
44.598 13.4119
44.6461 13.3993
44.6945 13.324
44.7426 13.2662
44.791 13.2258
44.8391 13.1942
44.8875 13.143
44.9357 13.0969
44.984 13.0567
45.0322 12.9825
45.0806 12.9569
45.1288 12.9106
45.1773 12.8496
45.2257 12.8275
45.2739 12.7788
45.3224 12.7255
45.3706 12.6233
45.4191 12.6077
45.4673 12.62
45.5158 12.521
45.5641 12.4847
45.6126 12.4352
45.6609 12.4111
45.7094 12.367
45.7577 12.275
45.8063 12.2038
45.8546 12.2447
45.9031 12.1471
45.9515 12.1274
46.0001 12.1303
46.0484 12.0676
46.097 12.0115
46.1454 11.9626
46.194 11.9358
46.2424 11.8731
46.291 11.8882
46.3395 11.8344
46.3881 11.7593
46.4365 11.7661
46.4852 11.6704
46.5337 11.5836
46.5823 11.566
46.631 11.5403
46.6795 11.5096
46.7282 11.4671
46.7767 11.3998
46.8254 11.3424
46.8739 11.3056
46.9226 11.2723
46.9712 11.2208
47.0199 11.1884
47.0685 11.1265
47.1173 11.127
47.1658 11.0225
47.2146 11.0573
47.2632 10.9896
47.312 10.9191
47.3606 10.9136
47.4095 10.8368
47.4581 10.8455
47.5069 10.7785
47.5556 10.7425
47.6044 10.683
47.6531 10.695
47.702 10.6492
47.7507 10.5829
47.7996 10.5326
47.8483 10.4883
47.8972 10.4783
47.9461 10.4195
47.9948 10.383
48.0438 10.3709
48.0925 10.3565
48.1415 10.3188
48.1902 10.2206
48.2392 10.2029
48.288 10.2136
48.337 10.1409
48.3858 10.0736
48.4348 10.0497
48.4837 10.0433
48.5327 9.97094
48.5815 9.96899
48.6306 9.94582
48.6795 9.8953
48.7285 9.86184
48.7774 9.836
48.8265 9.78553
48.8754 9.73324
48.9245 9.70274
48.9734 9.67956
49.0226 9.64728
49.0715 9.579
49.1206 9.5376
49.1696 9.49545
49.2188 9.48993
49.2679 9.44688
49.3169 9.40408
49.3661 9.33818
49.4151 9.34747
49.4643 9.31749
49.5134 9.29468
49.5626 9.20807
49.6117 9.20821
49.6609 9.15096
49.71 9.13731
49.7592 9.08634
49.8083 9.03661
49.8576 9.00339
49.9067 9.01072
49.956 8.95128
50.0052 8.92664
50.0545 8.86184
50.1036 8.84447
50.153 8.83204
50.2022 8.77408
50.2515 8.75649
50.3007 8.68869
50.3501 8.70787
50.3993 8.66192
50.4487 8.61802
50.498 8.59254
50.5474 8.52883
50.5966 8.52692
50.6461 8.48276
50.6955 8.46098
50.7448 8.4432
50.7943 8.38998
50.8436 8.38075
50.8931 8.32482
50.9424 8.31023
50.9919 8.26369
51.0413 8.21873
51.0908 8.18236
51.1402 8.14962
51.1897 8.11293
51.2391 8.1045
51.2887 8.07399
51.3381 7.99658
51.3877 7.99317
51.4371 7.92766
51.4867 7.91469
51.5362 7.87619
51.5858 7.86758
51.6353 7.83021
51.6849 7.7854
51.7344 7.78168
51.7841 7.74381
51.8336 7.69743
51.8833 7.6498
51.9328 7.65819
51.9826 7.60377
52.0323 7.55245
52.0818 7.53254
52.1316 7.52237
52.1812 7.51531
52.231 7.44184
52.2806 7.41572
52.3304 7.37548
52.38 7.36717
52.4298 7.32109
52.4794 7.28493
52.5293 7.2449
52.5789 7.24561
52.6288 7.18203
52.6785 7.16265
52.7284 7.14539
52.7781 7.1419
52.828 7.08866
52.8777 7.08016
52.9276 6.99765
52.9774 6.95809
53.0273 6.96254
53.0771 6.93146
53.1271 6.93643
53.1769 6.8821
53.2269 6.84653
53.2767 6.81742
53.3267 6.83113
53.3765 6.75072
53.4266 6.75309
53.4766 6.68224
53.5265 6.67426
53.5765 6.68118
53.6264 6.58288
53.6765 6.58567
53.7264 6.55152
53.7765 6.52334
53.8265 6.51702
53.8766 6.44278
53.9266 6.43448
53.9767 6.39676
54.0267 6.37896
54.0769 6.3698
54.1269 6.31042
54.1771 6.29801
54.2271 6.25736
54.2773 6.22747
54.3274 6.17901
54.3776 6.10078
54.4277 6.0996
54.478 6.06839
54.528 6.03446
54.5783 5.97373
54.6285 5.94441
54.6788 5.92971
54.7289 5.84578
54.7792 5.80416
54.8296 5.75514
54.8798 5.67751
54.9301 5.7206
54.9803 5.67796
55.0307 5.67749
55.0809 5.60147
55.1314 5.54218
55.1816 5.46901
55.232 5.41136
55.2823 5.40753
55.3328 5.32589
55.383 5.27297
55.4335 5.2239
55.4838 5.18827
55.5344 5.09328
55.5847 5.14242
55.6352 5.08355
55.6856 5.00215
55.7361 4.96958