File: XRD/Ni3Fe_FD0073.xy
TT I
1.27165 18.2493
1.31627 16.4058
1.36089 16.1937
1.40551 14.7675
1.45013 13.8962
1.49476 13.4444
1.53938 12.5266
1.584 11.8918
1.62863 12.4011
1.67325 11.5995
1.71787 11.8256
1.7625 11.0814
1.80712 11.1713
1.85174 10.5534
1.89636 10.3919
1.94099 10.6107
1.98562 10.4049
2.03025 10.3638
2.07487 9.84456
2.11949 10.1479
2.16411 9.73222
2.20874 9.80992
2.25338 9.99288
2.298 10.0595
2.34263 9.6652
2.38725 9.3864
2.43188 9.19185
2.4765 9.75409
2.52115 9.18798
2.56577 9.41531
2.6104 10.1628
2.65503 9.80422
2.69965 11.4009
2.7443 11.6856
2.78893 12.5761
2.83356 13.9586
2.87818 14.093
2.92281 17.0723
2.96744 19.0683
3.01209 21.4042
3.05672 24.1454
3.10135 26.5478
3.14599 26.985
3.19062 26.6584
3.23527 25.0894
3.2799 22.6728
3.32454 21.528
3.36917 20.3509
3.4138 19.7073
3.45844 19.6106
3.50309 20.0301
3.54773 19.7664
3.59237 20.0055
3.637 20.1404
3.68164 20.3517
3.7263 21.1883
3.77094 21.4653
3.81558 22.174
3.86022 22.9903
3.90486 23.8531
3.9495 24.5073
3.99416 25.1111
4.0388 26.2332
4.08344 27.1998
4.12809 27.7367
4.17273 29.2501
4.21738 30.9662
4.26204 32.2261
4.30669 34.0671
4.35133 36.5218
4.39598 36.3231
4.44063 37.3514
4.4853 38.7835
4.52995 40.4333
4.5746 42.1444
4.61925 44.0877
4.6639 46.3717
4.70855 48.6412
4.75322 52.2331
4.79788 55.1664
4.84253 59.5551
4.88719 65.0843
4.93184 72.3473
4.97652 83.108
5.02118 99.805
5.06583 117.045
5.11049 143.331
5.15515 206.77
5.19981 542.631
5.24449 1700.72
5.28916 2728.7
5.33382 6067.4
5.37848 2086.17
5.42315 427.75
5.46783 209.172
5.5125 153.064
5.55716 129.247
5.60183 113.855
5.6465 106.635
5.69117 102.777
5.73586 99.533
5.78053 99.1558
5.8252 100.996
5.86988 108.019
5.91455 123.164
5.95924 157.495
6.00392 295.952
6.0486 683.348
6.09328 875.484
6.13795 1913.68
6.18263 1171.15
6.22733 301.47
6.27201 141.72
6.3167 97.0992
6.36138 77.1282
6.40606 66.7304
6.45075 61.3919
6.49545 56.9773
6.54014 53.9538
6.58483 51.4752
6.62952 49.9155
6.67421 48.2425
6.71892 47.0649
6.76361 46.217
6.8083 45.0127
6.853 44.5468
6.89769 44.0984
6.94239 43.5868
6.98711 43.4625
7.03181 43.8992
7.07651 44.193
7.12121 43.8643
7.16591 43.0493
7.21063 42.1894
7.25533 42.0344
7.30004 41.9141
7.34475 42.2007
7.38945 42.7735
7.43416 43.0173
7.47889 46.5822
7.5236 74.7451
7.56831 194.106
7.61303 110.51
7.65774 52.3232
7.70247 45.2583
7.74719 43.6856
7.79191 43.3968
7.83663 43.4677
7.88135 43.6573
7.92607 44.2604
7.97081 45.2993
8.01553 45.586
8.06026 46.8933
8.10498 47.8029
8.14971 49.3499
8.19446 50.8447
8.23919 53.2185
8.28392 56.2465
8.32865 59.1103
8.37339 63.9557
8.41812 70.5531
8.46288 85.6226
8.50761 141.927
8.55235 316.48
8.59709 305.655
8.64183 414.213
8.68658 1072.31
8.73134 732.118
8.77609 202.299
8.82083 111.727
8.86558 88.4993
8.91033 78.9969
8.9551 74.4282
8.99985 71.3631
9.04461 70.2711
9.08936 69.7539
9.13412 70.5826
9.17888 75.4878
9.22365 118.554
9.26841 315.112
9.31318 207.66
9.35794 86.1706
9.4027 70.9934
9.44749 67.6969
9.49226 66.9183
9.53703 66.304
9.5818 67.2586
9.62657 67.3938
9.67134 68.6709
9.71614 69.7676
9.76091 72.0937
9.80569 74.28
9.85047 78.0722
9.89525 83.7533
9.94005 96.9034
9.98484 147.221
10.0296 294.686
10.0744 284.208
10.1192 273.409
10.164 636.494
10.2088 1032.67
10.2536 431.205
10.2984 152.672
10.3432 107.534
10.388 92.5594
10.4328 98.3767
10.4776 136.693
10.5224 128.975
10.5672 118.595
10.612 201.046
10.6568 349.428
10.7017 241.774
10.7465 129.269
10.7913 77.3471
10.8361 65.7342
10.8809 61.2252
10.9257 58.8737
10.9706 57.0239
11.0154 55.449
11.0602 53.8727
11.105 52.9163
11.1499 51.7299
11.1947 51.1404
11.2395 50.3893
11.2844 49.831
11.3292 48.9222
11.374 48.3202
11.4189 48.0717
11.4637 47.3436
11.5086 46.6306
11.5534 46.4461
11.5983 46.5062
11.6431 46.6924
11.688 46.2543
11.7328 46.4809
11.7777 46.556
11.8225 46.9398
11.8674 48.3959
11.9122 55.0516
11.9571 92.7937
12.002 103.859
12.0468 69.4832
12.0917 64.4595
12.1366 64.992
12.1814 60.5816
12.2263 66.0052
12.2712 94.997
12.3161 120.569
12.3609 81.6121
12.4058 56.934
12.4507 50.8127
12.4956 48.5531
12.5405 47.527
12.5853 47.3091
12.6302 47.1886
12.6751 47.5073
12.72 47.593
12.7649 48.3266
12.8098 48.7796
12.8547 49.6274
12.8996 50.8051
12.9445 51.7766
12.9894 53.0064
13.0343 55.1707
13.0792 62.0725
13.1242 76.6553
13.1691 93.6074
13.214 106.533
13.2589 93.0169
13.3038 89.8858
13.3487 122.295
13.3937 224.339
13.4386 241.524
13.4835 137.626
13.5285 113.161
13.5734 107.363
13.6183 89.3907
13.6633 90.5398
13.7082 131.955
13.7531 224.577
13.7981 193.256
13.843 95.7918
13.888 68.4813
13.9329 61.3622
13.9779 58.7499
14.0228 57.3492
14.0678 56.7178
14.1127 61.1391
14.1577 87.2779
14.2027 96.9982
14.2476 69.488
14.2926 55.4385
14.3376 52.5914
14.3825 51.6029
14.4275 50.4919
14.4725 50.3368
14.5175 50.3205
14.5624 50.1547
14.6074 49.97
14.6524 50.356
14.6974 50.9335
14.7424 52.3865
14.7874 57.335
14.8324 68.7704
14.8774 69.7407
14.9224 63.4281
14.9674 63.9567
15.0124 78.1859
15.0574 121.396
15.1024 138.381
15.1474 91.1071
15.1924 64.1329
15.2374 55.1743
15.2824 51.5315
15.3274 49.7068
15.3725 48.7238
15.4175 48.5134
15.4625 47.951
15.5076 47.7335
15.5526 47.9603
15.5976 48.0976
15.6426 49.0285
15.6877 53.2442
15.7327 62.0276
15.7778 63.872
15.8228 58.2745
15.8679 57.4739
15.9129 64.2421
15.958 92.3423
16.003 126.394
16.0481 106.564
16.0931 77.199
16.1382 59.9684
16.1833 49.8689
16.2283 45.4608
16.2734 43.8209
16.3185 42.8685
16.3636 42.2097
16.4086 41.4982
16.4537 41.0812
16.4988 40.538
16.5439 40.2809
16.589 39.9913
16.6341 40.0032
16.6792 39.6394
16.7243 39.8095
16.7694 39.5998
16.8145 39.6223
16.8596 39.9924
16.9047 41.4364
16.9498 45.4949
16.9949 45.5884
17.04 42.6775
17.0851 41.7014
17.1302 43.0297
17.1754 43.8142
17.2205 42.9908
17.2656 42.232
17.3108 43.4961
17.3559 45.9552
17.401 53.4112
17.4462 57.6919
17.4913 50.4959
17.5365 44.4753
17.5815 43.1996
17.6268 42.844
17.6718 43.0443
17.7171 43.6747
17.7622 46.4952
17.8074 49.2804
17.8525 48.9724
17.8977 50.4481
17.9428 54.8404
17.9881 54.0771
18.0331 51.3928
18.0784 51.1871
18.1237 55.3242
18.1688 68.2299
18.214 93.3615
18.2591 96.3136
18.3044 70.9292
18.3495 56.1212
18.3948 54.1194
18.4399 59.9864
18.4852 71.8374
18.5303 69.5153
18.5756 57.4525
18.6207 50.8235
18.666 47.0024
18.7112 44.6379
18.7565 43.466
18.8016 43.1611
18.8469 42.5498
18.892 42.1829
18.9374 41.9084
18.9825 41.5872
19.0278 41.3574
19.073 41.4723
19.1183 41.7749
19.1635 42.5093
19.2088 43.2931
19.254 43.1423
19.2993 44.3029
19.3447 48.498
19.3898 49.7999
19.4352 48.5526
19.4804 51.3586
19.5257 52.0287
19.5709 46.015
19.6163 41.6233
19.6615 40.0778
19.7068 39.2147
19.752 38.8376
19.7974 38.8622
19.8426 39.5745
19.888 40.0847
19.9332 40.3376
19.9786 39.8694
20.0238 39.3655
20.0692 39.8152
20.1144 41.2532
20.1598 43.8789
20.205 47.8219
20.2504 48.6131
20.2957 44.0801
20.3411 41.0222
20.3863 41.203
20.4318 44.3612
20.477 46.2727
20.5224 42.7311
20.5677 39.0923
20.6131 37.2235
20.6586 36.6414
20.7038 36.3883
20.7493 36.7655
20.7945 38.0171
20.84 37.961
20.8853 36.7764
20.9307 35.7079
20.976 35.4788
21.0215 35.3839
21.0668 35.3927
21.1122 35.2774
21.1575 34.9618
21.203 34.7843
21.2483 35.1558
21.2938 35.5691
21.3391 36.1871
21.3846 36.9189
21.4299 36.5452
21.4754 36.0594
21.5207 35.7684
21.5662 35.4791
21.6116 35.5395
21.6571 36.1608
21.7024 36.9067
21.7479 36.8421
21.7933 36.2771
21.8388 36.5032
21.8843 37.2016
21.9297 37.9363
21.9752 39.7563
22.0206 43.9191
22.0661 45.793
22.1115 42.9317
22.157 40.6466
22.2024 40.2617
22.248 40.622
22.2933 40.2573
22.3389 37.9883
22.3843 36.3265
22.4299 35.6297
22.4753 35.3833
22.5208 35.1718
22.5662 35.102
22.6118 35.147
22.6572 35.2426
22.7028 35.8008
22.7483 36.3194
22.7939 36.5975
22.8393 36.564
22.8849 36.0576
22.9303 35.7372
22.9759 36.0346
23.0214 36.6247
23.067 38.7207
23.1126 41.2121
23.1581 40.8577
23.2037 38.1172
23.2492 36.2631
23.2948 36.0849
23.3403 36.1893
23.3859 36.6933
23.4314 36.9267
23.477 36.7705
23.5225 36.1777
23.5682 35.4938
23.6137 35.8236
23.6593 37.0214
23.7048 39.5159
23.7505 41.3163
23.796 39.0442
23.8417 35.8714
23.8872 34.2882
23.9329 33.6054
23.9784 33.1944
24.0241 32.9364
24.0697 32.8342
24.1154 32.613
24.1609 32.2213
24.2066 32.0353
24.2522 31.9946
24.2979 31.555
24.3434 31.4514
24.3892 31.3712
24.4349 31.3807
24.4805 31.2181
24.5262 31.0969
24.5718 30.974
24.6175 31.2184
24.6631 31.5858
24.7089 31.5582
24.7545 31.253
24.8002 30.9179
24.8458 30.7224
24.8916 30.5769
24.9372 30.6033
24.983 30.6093
25.0286 30.5484
25.0744 30.676
25.12 30.8337
25.1658 30.715
25.2114 30.8501
25.2572 31.2115
25.3029 31.5777
25.3487 31.6562
25.3943 31.393
25.4402 31.2879
25.4858 31.9909
25.5316 32.2033
25.5773 31.2901
25.6231 30.344
25.669 29.7597
25.7147 29.6399
25.7605 29.4515
25.8062 29.6513
25.8521 29.8299
25.8977 29.449
25.9436 29.3076
25.9893 29.2178
26.0352 29.136
26.0809 28.8785
26.1268 29.1099
26.1725 29.3575
26.2184 29.8336
26.2641 30.0839
26.31 29.9147
26.3557 29.5671
26.4017 29.2511
26.4474 29.076
26.4933 28.9793
26.5391 28.9633
26.585 28.9569
26.6308 28.9529
26.6767 29.0152
26.7225 29.2459
26.7684 29.8494
26.8142 30.3782
26.8601 30.1929
26.9059 29.7688
26.9519 29.5113
26.9979 29.5213
27.0437 29.0729
27.0896 28.6247
27.1354 28.4194
27.1814 28.2428
27.2272 28.0886
27.2732 28.0988
27.3191 27.8496
27.3651 27.8823
27.4109 27.8574
27.4569 27.7686
27.5027 27.6895
27.5488 27.7792
27.5946 27.6153
27.6407 27.6895
27.6865 27.7882
27.7326 27.9832
27.7784 27.8607
27.8245 27.4698
27.8703 27.4082
27.9164 27.4421
27.9623 27.3041
28.0084 27.4774
28.0543 27.5497
28.1003 27.3412
28.1462 27.4689
28.1923 27.8862
28.2384 27.9606
28.2843 27.8588
28.3304 27.3727
28.3764 27.2906
28.4225 27.3214
28.4684 27.0282
28.5145 26.5579
28.5605 26.2751
28.6066 26.2025
28.6526 26.047
28.6987 25.9409
28.7447 25.7425
28.7908 25.5724
28.8368 25.5138
28.8829 25.5514
28.9289 25.5098
28.9751 25.413
29.0211 25.5164
29.0673 25.4436
29.1133 25.3965
29.1595 25.2307
29.2055 25.0263
29.2517 24.9847
29.2977 24.7116
29.3439 24.6337
29.3899 24.6247
29.4361 24.6664
29.4824 24.5457
29.5284 24.5723
29.5746 24.5645
29.6207 24.4757
29.6669 24.3836
29.713 24.1765
29.7593 23.9084
29.8053 24.0019
29.8516 23.9801
29.8977 23.9146
29.9439 23.7745
29.99 23.7085
30.0363 23.6144
30.0824 23.7889
30.1287 23.5252
30.1748 23.5404
30.2211 23.3957
30.2673 23.2708
30.3136 23.4573
30.3597 23.5259
30.406 23.5561
30.4522 23.4151
30.4985 23.2628
30.5447 23.1407
30.591 23.3023
30.6372 23.1864
30.6835 23.0602
30.7297 23.0502
30.7761 23.0504
30.8224 23.1508
30.8686 23.2876
30.915 23.2554
30.9612 23.2105
31.0076 23.0535
31.0538 23.0042
31.1002 22.8991
31.1464 22.7251
31.1928 22.5925
31.2391 22.5472
31.2855 22.4976
31.3317 22.4238
31.3781 22.4187
31.4244 22.3596
31.4708 22.317
31.5171 22.3035
31.5636 22.3293
31.6098 22.3256
31.6563 22.1854
31.7026 22.2775
31.7491 22.1357
31.7953 22.0416
31.8418 21.8242
31.8881 21.9101
31.9346 21.808
31.9809 21.7603
32.0275 21.6689
32.074 21.6684
32.1203 21.6282
32.1668 21.7345
32.2132 21.5913
32.2597 21.5352
32.306 21.4375
32.3526 21.3201
32.399 21.1741
32.4455 21.0891
32.4919 21.0217
32.5385 20.9751
32.5848 20.8281
32.6314 20.8444
32.6778 20.7382
32.7244 20.6375
32.7708 20.5447
32.8174 20.6327
32.8638 20.4099
32.9104 20.5181
32.9569 20.5123
33.0035 20.3698
33.0499 20.321
33.0966 20.2636
33.143 20.2046
33.1897 20.0419
33.2361 20.0664
33.2828 20.0912
33.3293 20.0144
33.3759 20.0669
33.4226 20.0144
33.4691 20.0122
33.5158 19.9289
33.5623 19.8711
33.609 19.6344
33.6555 19.5459
33.7022 19.443
33.7487 19.3287
33.7954 19.4095
33.842 19.2777
33.8887 19.2256
33.9353 19.1357
33.982 19.1296
34.0286 19.1307
34.0753 18.9738
34.1219 18.9301
34.1687 18.9136
34.2152 18.7559
34.262 18.7096
34.3086 18.6226
34.3554 18.597
34.402 18.5509
34.4488 18.4673
34.4954 18.486
34.5422 18.4269
34.5889 18.3703
34.6357 18.2483
34.6825 18.1546
34.7292 18.1788
34.776 18.0841
34.8227 17.9904
34.8695 17.9838
34.9162 17.9995
34.9631 17.8778
35.0098 17.8635
35.0566 17.729
35.1033 17.7368
35.1502 17.6792
35.1969 17.6318
35.2438 17.5573
35.2906 17.4971
35.3375 17.4499
35.3842 17.4472
35.4311 17.4159
35.4779 17.4148
35.5248 17.3149
35.5716 17.3181
35.6185 17.2598
35.6653 17.212
35.7123 17.2649
35.759 17.1645
35.806 17.0485
35.8528 16.9611
35.8998 16.9163
35.9468 16.7576
35.9936 16.8741
36.0406 16.7418
36.0874 16.7601
36.1345 16.6732
36.1813 16.5977
36.2283 16.5763
36.2752 16.532
36.3222 16.4766
36.3691 16.433
36.4161 16.3539
36.463 16.3333
36.5101 16.3663
36.557 16.2358
36.6041 16.1185
36.651 16.1789
36.6981 16.0931
36.745 16.0753
36.7921 16.0117
36.839 15.9028
36.8861 15.8814
36.9331 15.8649
36.9802 15.8366
37.0272 15.721
37.0743 15.6545
37.1213 15.6757
37.1684 15.5982
37.2154 15.5344
37.2626 15.4738
37.3098 15.4801
37.3568 15.3889
37.404 15.3234
37.451 15.2761
37.4982 15.2113
37.5452 15.1514
37.5924 15.0773
37.6395 15.1665
37.6867 15.0831
37.7337 15.01
37.781 14.9431
37.8281 14.9323
37.8753 14.809
37.9224 14.7829
37.9697 14.728
38.0168 14.7415
38.064 14.6412
38.1111 14.6438
38.1584 14.5736
38.2056 14.5448
38.2529 14.4869
38.3 14.4045
38.3473 14.4294
38.3945 14.3491
38.4418 14.264
38.489 14.2551
38.5363 14.1654
38.5837 14.1534
38.6309 14.0712
38.6782 14.0931
38.7254 13.996
38.7728 13.9828
38.82 13.8687
38.8674 13.8649
38.9146 13.8218
38.9621 13.8089
39.0093 13.783
39.0567 13.7106
39.104 13.7419
39.1514 13.5617
39.1987 13.5739
39.2461 13.5551
39.2934 13.4926
39.3409 13.4309
39.3882 13.3497
39.4356 13.3449
39.483 13.3704
39.5304 13.2832
39.5778 13.2821
39.6253 13.1941
39.6726 13.1398
39.7201 13.113
39.7675 13.0821
39.815 13.0005
39.8624 12.9787
39.9099 12.9448
39.9575 12.8486
40.0049 12.9186
40.0525 12.7396
40.0999 12.7863
40.1474 12.7966
40.1949 12.706
40.2425 12.6394
40.2899 12.6594
40.3375 12.5702
40.385 12.502
40.4326 12.4932
40.48 12.4638
40.5277 12.417
40.5752 12.3912
40.6228 12.3448
40.6703 12.3629
40.718 12.2476
40.7655 12.1882
40.8132 12.2277
40.8607 12.1454
40.9084 12.1353
40.9559 12.0922
41.0036 12.0936
41.0512 11.9875
41.0989 11.9526
41.1465 11.9248
41.1942 11.8934
41.242 11.8358
41.2896 11.7832
41.3373 11.7086
41.3849 11.6766
41.4327 11.6842
41.4803 11.619
41.5281 11.5892
41.5758 11.5869
41.6236 11.47
41.6712 11.5029
41.7191 11.4156
41.7667 11.3851
41.8146 11.3933
41.8622 11.304
41.9101 11.3128
41.9578 11.2683
42.0057 11.2775
42.0534 11.1763
42.1013 11.1441
42.149 11.0822
42.1969 11.053
42.2446 11.0223
42.2925 11.0385
42.3403 10.9826
42.3882 10.973
42.436 10.9538
42.4839 10.8271
42.5319 10.8512
42.5797 10.7418
42.6277 10.7207
42.6755 10.716
42.7235 10.6695
42.7713 10.6715
42.8193 10.5972
42.8671 10.5759
42.9152 10.5166
42.963 10.5034
43.0111 10.4699
43.0589 10.4282
43.107 10.3271
43.1549 10.3533
43.2029 10.3579
43.2508 10.2973
43.2989 10.2453
43.3468 10.2505
43.3949 10.2102
43.4429 10.1664
43.491 10.1193
43.5389 10.0699
43.5871 10.0524
43.635 10.0372
43.6832 9.98373
43.7312 9.92806
43.7793 9.87376
43.8273 9.9061
43.8755 9.80612
43.9237 9.84546
43.9717 9.77873
44.0199 9.76308
44.068 9.7331
44.1162 9.66617
44.1642 9.66452
44.2125 9.60225
44.2606 9.56026
44.3088 9.56639
44.3569 9.48795
44.4052 9.47309
44.4533 9.4566
44.5016 9.3887
44.5497 9.38761
44.598 9.38982
44.6461 9.28116
44.6945 9.31282
44.7426 9.27916
44.791 9.23101
44.8391 9.23587
44.8875 9.13597
44.9357 9.13472
44.984 9.10867
45.0322 9.08837
45.0806 8.99993
45.1288 8.97667
45.1773 8.94341
45.2257 8.93185
45.2739 8.86071
45.3224 8.8859
45.3706 8.86515
45.4191 8.82542
45.4673 8.76662
45.5158 8.7554
45.5641 8.7235
45.6126 8.68213
45.6609 8.65919
45.7094 8.60692
45.7577 8.60174
45.8063 8.56181
45.8546 8.55372
45.9031 8.53772
45.9515 8.50744
46.0001 8.44069
46.0484 8.43461
46.097 8.39208
46.1454 8.36068
46.194 8.33068
46.2424 8.30116
46.291 8.26859
46.3395 8.21631
46.3881 8.17524
46.4365 8.20702
46.4852 8.17973
46.5337 8.11232
46.5823 8.09217
46.631 8.03781
46.6795 8.02269
46.7282 7.98688
46.7767 7.97717
46.8254 7.93607
46.8739 7.88655
46.9226 7.8695
46.9712 7.87638
47.0199 7.83621
47.0685 7.76616
47.1173 7.72644
47.1658 7.70779
47.2146 7.70343
47.2632 7.6706
47.312 7.65659
47.3606 7.62844
47.4095 7.58616
47.4581 7.57341
47.5069 7.5456
47.5556 7.51199
47.6044 7.46746
47.6531 7.46774
47.702 7.41618
47.7507 7.40133
47.7996 7.37752
47.8483 7.36317
47.8972 7.36932
47.9461 7.29179
47.9948 7.27229
48.0438 7.2685
48.0925 7.22046
48.1415 7.1933
48.1902 7.14645
48.2392 7.15088
48.288 7.12555
48.337 7.09961
48.3858 7.07983
48.4348 7.04387
48.4837 7.02835
48.5327 6.9966
48.5815 6.95058
48.6306 6.98209
48.6795 6.92486
48.7285 6.88342
48.7774 6.89202
48.8265 6.80829
48.8754 6.81806
48.9245 6.77638
48.9734 6.74406
49.0226 6.72624
49.0715 6.71047
49.1206 6.69399
49.1696 6.64233
49.2188 6.67877
49.2679 6.61021
49.3169 6.59668
49.3661 6.57405
49.4151 6.55158
49.4643 6.52392
49.5134 6.45758
49.5626 6.47483
49.6117 6.43462
49.6609 6.41287
49.71 6.37381
49.7592 6.34809
49.8083 6.31765
49.8576 6.34108
49.9067 6.27918
49.956 6.27124
50.0052 6.26071
50.0545 6.24732
50.1036 6.17154
50.153 6.18467
50.2022 6.13194
50.2515 6.13038
50.3007 6.09352
50.3501 6.08069
50.3993 6.07326
50.4487 6.03903
50.498 6.02749
50.5474 5.99715
50.5966 5.96252
50.6461 5.94846
50.6955 5.93753
50.7448 5.89305
50.7943 5.87124
50.8436 5.88057
50.8931 5.83647
50.9424 5.81845
50.9919 5.77974
51.0413 5.75561
51.0908 5.76634
51.1402 5.71563
51.1897 5.72129
51.2391 5.65717
51.2887 5.64493
51.3381 5.60798
51.3877 5.62161
51.4371 5.60381
51.4867 5.60477
51.5362 5.55652
51.5858 5.53241
51.6353 5.479
51.6849 5.46317
51.7344 5.47558
51.7841 5.41254
51.8336 5.39953
51.8833 5.36704
51.9328 5.30657
51.9826 5.31775
52.0323 5.31685
52.0818 5.27688
52.1316 5.23456
52.1812 5.26847
52.231 5.23086
52.2806 5.19108
52.3304 5.17865
52.38 5.13479
52.4298 5.18756
52.4794 5.0937
52.5293 5.10569
52.5789 5.07145
52.6288 5.04408
52.6785 5.00669
52.7284 4.98117
52.7781 4.97393
52.828 4.96827
52.8777 4.95024
52.9276 4.9296
52.9774 4.88889
53.0273 4.89183
53.0771 4.86906
53.1271 4.85048
53.1769 4.81264
53.2269 4.84191
53.2767 4.78768
53.3267 4.76646
53.3765 4.73706
53.4266 4.73964
53.4766 4.72432
53.5265 4.69983
53.5765 4.68724
53.6264 4.63196
53.6765 4.6398
53.7264 4.60254
53.7765 4.61569
53.8265 4.5701
53.8766 4.4912
53.9266 4.52175
53.9767 4.46468
54.0267 4.48412
54.0769 4.44684
54.1269 4.42445
54.1771 4.36621
54.2271 4.37829
54.2773 4.30088
54.3274 4.3254
54.3776 4.22388
54.4277 4.20572
54.478 4.18007
54.528 4.14466
54.5783 4.09152
54.6285 4.07103
54.6788 4.03255
54.7289 4.0124
54.7792 3.9893
54.8296 3.94397
54.8798 3.89114
54.9301 3.84654
54.9803 3.87786
55.0307 3.85005
55.0809 3.82589
55.1314 3.78944
55.1816 3.71382
55.232 3.71361
55.2823 3.62196
55.3328 3.66808
55.383 3.55144
55.4335 3.53708
55.4838 3.51098
55.5344 3.47107
55.5847 3.44913
55.6352 3.45558
55.6856 3.42665
55.7361 3.38567