File: XRD/Ni3Fe_FD0450.xy
TT I
1.27165 7.53096
1.31627 6.54109
1.36089 6.78409
1.40551 6.31647
1.45013 6.58843
1.49476 5.99732
1.53938 6.01501
1.584 4.78807
1.62863 4.78558
1.67325 5.53123
1.71787 5.17063
1.7625 4.8019
1.80712 5.08271
1.85174 4.69576
1.89636 4.59489
1.94099 4.99861
1.98562 4.66447
2.03025 4.87861
2.07487 4.6741
2.11949 4.97403
2.16411 4.8583
2.20874 11.4409
2.25338 15.9169
2.298 5.31146
2.34263 5.44211
2.38725 6.0348
2.43188 6.11067
2.4765 6.7202
2.52115 6.49077
2.56577 7.21267
2.6104 7.63547
2.65503 7.1041
2.69965 8.3279
2.7443 8.00672
2.78893 7.97797
2.83356 8.6331
2.87818 8.10381
2.92281 8.72555
2.96744 9.37539
3.01209 10.424
3.05672 11.5744
3.10135 12.1822
3.14599 13.0596
3.19062 14.1903
3.23527 14.9934
3.2799 15.4151
3.32454 16.8328
3.36917 17.6522
3.4138 19.042
3.45844 20.0948
3.50309 20.6827
3.54773 21.749
3.59237 23.7391
3.637 68.8723
3.68164 45.5528
3.7263 26.0069
3.77094 26.3868
3.81558 27.0859
3.86022 27.607
3.90486 29.6794
3.9495 30.1892
3.99416 31.0365
4.0388 32.359
4.08344 33.696
4.12809 35.0579
4.17273 37.141
4.21738 41.4655
4.26204 175.582
4.30669 147.313
4.35133 46.4653
4.39598 44.3525
4.44063 52.1077
4.4853 59.0462
4.52995 51.6525
4.5746 52.5483
4.61925 54.2549
4.6639 56.6581
4.70855 59.0426
4.75322 62.0562
4.79788 65.5876
4.84253 68.9339
4.88719 73.4098
4.93184 77.1909
4.97652 83.5694
5.02118 90.4148
5.06583 98.9248
5.11049 112.06
5.15515 171.206
5.19981 502.629
5.24449 3411.93
5.28916 11787.8
5.33382 2946.79
5.37848 203.636
5.42315 134.041
5.46783 117.583
5.5125 109.767
5.55716 104.732
5.60183 100.733
5.6465 99.0215
5.69117 96.6259
5.73586 94.776
5.78053 94.8974
5.8252 94.926
5.86988 95.4233
5.91455 99.0885
5.95924 111.025
6.00392 279.59
6.0486 1189.99
6.09328 4307.39
6.13795 3302.55
6.18263 273.069
6.22733 96.9976
6.27201 84.5972
6.3167 94.0806
6.36138 78.1613
6.40606 70.1477
6.45075 68.7709
6.49545 66.6372
6.54014 64.9052
6.58483 63.8641
6.62952 63.5001
6.67421 83.439
6.71892 113.081
6.76361 65.3542
6.8083 59.1887
6.853 58.1448
6.89769 57.6057
6.94239 57.1897
6.98711 56.6858
7.03181 56.3556
7.07651 56.5572
7.12121 55.56
7.16591 56.0
7.21063 56.0074
7.25533 65.8843
7.30004 134.148
7.34475 78.0387
7.38945 56.5028
7.43416 54.9518
7.47889 54.8785
7.5236 55.5296
7.56831 56.1623
7.61303 57.1359
7.65774 57.3923
7.70247 57.2438
7.74719 56.6663
7.79191 57.4239
7.83663 57.6482
7.88135 58.6053
7.92607 59.6274
7.97081 60.8778
8.01553 61.8004
8.06026 63.6959
8.10498 65.1882
8.14971 72.3055
8.19446 71.3317
8.23919 70.8784
8.28392 73.5866
8.32865 75.8468
8.37339 80.4785
8.41812 87.1238
8.46288 112.115
8.50761 203.607
8.55235 461.368
8.59709 1241.98
8.64183 2140.38
8.68658 987.714
8.73134 169.031
8.77609 101.95
8.82083 94.7069
8.86558 91.5563
8.91033 91.0327
8.9551 90.9151
8.99985 86.6628
9.04461 85.1404
9.08936 84.4127
9.13412 83.7431
9.17888 83.3235
9.22365 83.9482
9.26841 83.5197
9.31318 84.6397
9.35794 84.8421
9.4027 84.8006
9.44749 85.6505
9.49226 86.492
9.53703 87.6018
9.5818 89.145
9.62657 93.0775
9.67134 97.7448
9.71614 95.4253
9.76091 96.1551
9.80569 99.085
9.85047 102.25
9.89525 119.841
9.94005 136.57
9.98484 215.271
10.0296 406.054
10.0744 876.537
10.1192 1703.89
10.164 1617.87
10.2088 413.863
10.2536 130.064
10.2984 113.809
10.3432 113.382
10.388 107.869
10.4328 130.414
10.4776 177.485
10.5224 298.294
10.5672 504.929
10.612 503.084
10.6568 204.193
10.7017 98.3237
10.7465 88.601
10.7913 84.7974
10.8361 82.3336
10.8809 80.1316
10.9257 79.2133
10.9706 79.3477
11.0154 75.8966
11.0602 73.9416
11.105 72.9233
11.1499 75.1155
11.1947 79.4324
11.2395 73.5589
11.2844 70.5481
11.3292 68.2477
11.374 67.1151
11.4189 66.683
11.4637 66.0549
11.5086 66.0432
11.5534 67.7284
11.5983 66.02
11.6431 64.7585
11.688 63.8246
11.7328 64.1781
11.7777 63.85
11.8225 63.5993
11.8674 63.5468
11.9122 63.8603
11.9571 64.1966
12.002 65.172
12.0468 71.8033
12.0917 84.2572
12.1366 108.705
12.1814 156.036
12.2263 202.473
12.2712 170.768
12.3161 93.748
12.3609 69.8062
12.4058 65.5403
12.4507 65.3656
12.4956 65.3635
12.5405 65.49
12.5853 66.3861
12.6302 71.4887
12.6751 75.125
12.72 69.8255
12.7649 68.8813
12.8098 69.4354
12.8547 70.8679
12.8996 72.1553
12.9445 73.7704
12.9894 75.4917
13.0343 77.7962
13.0792 81.6564
13.1242 96.0693
13.1691 122.074
13.214 162.617
13.2589 249.749
13.3038 364.581
13.3487 417.077
13.3937 263.8
13.4386 125.251
13.4835 113.348
13.5285 130.605
13.5734 170.633
13.6183 251.678
13.6633 337.694
13.7082 337.493
13.7531 188.101
13.7981 98.3551
13.843 83.1942
13.888 80.9768
13.9329 78.5618
13.9779 77.3318
14.0228 75.7592
14.0678 74.1289
14.1127 73.904
14.1577 73.5055
14.2027 72.7527
14.2476 71.8892
14.2926 71.7043
14.3376 72.354
14.3825 71.4941
14.4275 70.2028
14.4725 70.0007
14.5175 70.377
14.5624 70.1627
14.6074 71.8436
14.6524 72.3221
14.6974 72.0834
14.7424 75.1858
14.7874 83.6746
14.8324 95.1039
14.8774 117.638
14.9224 157.142
14.9674 203.763
15.0124 216.834
15.0574 149.321
15.1024 90.6133
15.1474 73.5933
15.1924 71.7629
15.2374 71.6368
15.2824 70.959
15.3274 69.0222
15.3725 68.1947
15.4175 67.713
15.4625 67.5521
15.5076 67.337
15.5526 67.4064
15.5976 67.5181
15.6426 69.732
15.6877 76.4838
15.7327 84.8511
15.7778 100.993
15.8228 130.453
15.8679 167.627
15.9129 189.716
15.958 155.768
16.003 96.8128
16.0481 69.1901
16.0931 64.897
16.1382 63.1679
16.1833 61.7888
16.2283 60.0004
16.2734 59.2677
16.3185 59.1673
16.3636 59.5152
16.4086 58.3317
16.4537 57.0296
16.4988 56.4575
16.5439 56.3906
16.589 55.9593
16.6341 55.8814
16.6792 55.4321
16.7243 55.6695
16.7694 55.9687
16.8145 55.9352
16.8596 56.0531
16.9047 57.2321
16.9498 57.2003
16.9949 56.4393
17.04 57.1525
17.0851 58.8403
17.1302 60.4247
17.1754 63.6583
17.2205 68.6313
17.2656 75.3124
17.3108 82.2732
17.3559 82.7508
17.401 71.7263
17.4462 62.9351
17.4913 60.2516
17.5365 60.1099
17.5815 60.2537
17.6268 60.8529
17.6718 61.2828
17.7171 61.9613
17.7622 62.4709
17.8074 63.509
17.8525 66.987
17.8977 71.2216
17.9428 77.0136
17.9881 86.5781
18.0331 102.416
18.0784 120.756
18.1237 138.412
18.1688 132.352
18.214 105.249
18.2591 88.6947
18.3044 91.9818
18.3495 100.349
18.3948 106.637
18.4399 97.1045
18.4852 77.791
18.5303 66.77
18.5756 63.2437
18.6207 62.343
18.666 61.4306
18.7112 60.7155
18.7565 60.0006
18.8016 59.8182
18.8469 58.9603
18.892 58.7444
18.9374 58.2707
18.9825 58.0177
19.0278 57.8225
19.073 58.29
19.1183 58.786
19.1635 59.5158
19.2088 60.9542
19.254 63.6755
19.2993 67.8895
19.3447 72.972
19.3898 77.0388
19.4352 73.0329
19.4804 63.9445
19.5257 57.56
19.5709 55.1071
19.6163 54.8794
19.6615 54.4874
19.7068 54.3824
19.752 54.4162
19.7974 54.8514
19.8426 55.7887
19.888 56.3696
19.9332 57.7451
19.9786 60.3249
20.0238 63.696
20.0692 67.8471
20.1144 70.7723
20.1598 69.1607
20.205 64.6616
20.2504 63.2827
20.2957 64.318
20.3411 66.2653
20.3863 64.6363
20.4318 59.0142
20.477 54.3491
20.5224 52.3429
20.5677 51.6167
20.6131 50.9495
20.6586 50.4427
20.7038 50.447
20.7493 49.9407
20.7945 49.823
20.84 49.6146
20.8853 49.6325
20.9307 49.4236
20.976 49.7175
21.0215 49.5994
21.0668 50.0517
21.1122 50.5219
21.1575 51.1471
21.203 51.43
21.2483 52.2128
21.2938 52.3189
21.3391 50.9812
21.3846 49.8732
21.4299 49.1636
21.4754 49.3206
21.5207 49.5138
21.5662 49.8305
21.6116 50.5504
21.6571 51.1132
21.7024 52.2402
21.7479 53.8989
21.7933 56.7804
21.8388 60.1189
21.8843 63.2322
21.9297 65.4068
21.9752 64.2471
22.0206 60.4461
22.0661 57.1407
22.1115 56.6461
22.157 56.663
22.2024 55.2102
22.248 52.362
22.2933 50.6097
22.3389 49.8723
22.3843 49.7647
22.4299 49.6393
22.4753 49.684
22.5208 49.6398
22.5662 49.128
22.6118 49.6146
22.6572 49.9528
22.7028 50.3541
22.7483 50.8897
22.7939 51.6974
22.8393 53.181
22.8849 55.0168
22.9303 56.7742
22.9759 58.4119
23.0214 58.1628
23.067 55.3537
23.1126 52.0052
23.1581 49.9615
23.2037 49.7035
23.2492 49.819
23.2948 49.7798
23.3403 50.3294
23.3859 50.9778
23.4314 51.9935
23.477 53.6352
23.5225 55.6549
23.5682 57.3478
23.6137 58.6207
23.6593 56.4672
23.7048 52.5671
23.7505 48.9139
23.796 47.5373
23.8417 46.8114
23.8872 46.2978
23.9329 46.0848
23.9784 45.7631
24.0241 45.4166
24.0697 45.3159
24.1154 44.9046
24.1609 44.69
24.2066 44.5039
24.2522 44.4325
24.2979 44.2533
24.3434 44.098
24.3892 43.8189
24.4349 43.6891
24.4805 43.6731
24.5262 43.7784
24.5718 43.5993
24.6175 43.7095
24.6631 43.6127
24.7089 43.295
24.7545 43.0579
24.8002 42.8801
24.8458 42.9989
24.8916 42.8725
24.9372 42.9489
24.983 43.3937
25.0286 43.8468
25.0744 44.0911
25.12 44.5332
25.1658 45.1782
25.2114 45.483
25.2572 45.2611
25.3029 45.4851
25.3487 45.5057
25.3943 45.2978
25.4402 44.2141
25.4858 42.9759
25.5316 42.0898
25.5773 41.614
25.6231 41.561
25.669 41.1357
25.7147 41.2736
25.7605 41.1629
25.8062 41.2925
25.8521 41.2048
25.8977 41.2124
25.9436 41.5369
25.9893 41.6795
26.0352 42.09
26.0809 42.3398
26.1268 42.42
26.1725 42.0882
26.2184 41.5392
26.2641 41.0463
26.31 40.7499
26.3557 40.8924
26.4017 40.8668
26.4474 41.2465
26.4933 41.4658
26.5391 41.9472
26.585 42.3666
26.6308 42.6571
26.6767 42.794
26.7225 42.631
26.7684 42.1068
26.8142 41.4227
26.8601 41.0367
26.9059 40.6132
26.9519 40.1115
26.9979 39.9124
27.0437 39.508
27.0896 39.4915
27.1354 39.5026
27.1814 39.4082
27.2272 39.2395
27.2732 39.2671
27.3191 38.9206
27.3651 39.1276
27.4109 39.0547
27.4569 39.1326
27.5027 39.2218
27.5488 39.315
27.5946 39.104
27.6407 38.7212
27.6865 38.8137
27.7326 38.4637
27.7784 38.6393
27.8245 38.566
27.8703 38.7825
27.9164 38.9276
27.9623 38.9735
28.0084 39.2883
28.0543 39.6926
28.1003 39.6608
28.1462 39.4285
28.1923 38.9562
28.2384 38.5055
28.2843 38.2703
28.3304 37.7926
28.3764 37.1618
28.4225 37.0901
28.4684 36.7773
28.5145 36.6099
28.5605 36.4083
28.6066 36.2494
28.6526 36.3222
28.6987 36.1368
28.7447 36.1956
28.7908 35.8728
28.8368 35.999
28.8829 35.9479
28.9289 35.9804
28.9751 35.7221
29.0211 35.5077
29.0673 35.2906
29.1133 35.1974
29.1595 34.9451
29.2055 34.9436
29.2517 34.9138
29.2977 34.9835
29.3439 34.7464
29.3899 34.7177
29.4361 34.7556
29.4824 34.5983
29.5284 34.2699
29.5746 34.0149
29.6207 33.4803
29.6669 33.5574
29.713 33.5869
29.7593 33.386
29.8053 33.446
29.8516 33.2805
29.8977 33.3143
29.9439 33.1892
29.99 33.1354
30.0363 33.052
30.0824 33.1482
30.1287 32.9908
30.1748 33.1072
30.2211 32.9554
30.2673 32.8092
30.3136 32.93
30.3597 32.8681
30.406 32.828
30.4522 32.6008
30.4985 32.6707
30.5447 32.6776
30.591 32.6419
30.6372 32.7709
30.6835 32.654
30.7297 32.6472
30.7761 32.6296
30.8224 32.5235
30.8686 32.3894
30.915 32.1558
30.9612 32.0657
31.0076 31.7916
31.0538 31.7179
31.1002 31.5907
31.1464 31.4902
31.1928 31.4026
31.2391 31.4513
31.2855 31.3678
31.3317 31.3346
31.3781 31.48
31.4244 31.4492
31.4708 31.4112
31.5171 31.3079
31.5636 31.282
31.6098 30.9766
31.6563 30.8459
31.7026 30.7544
31.7491 30.6575
31.7953 30.6465
31.8418 30.6208
31.8881 30.6274
31.9346 30.5027
31.9809 30.5496
32.0275 30.3821
32.074 30.2521
32.1203 30.0437
32.1668 29.9942
32.2132 29.8812
32.2597 29.7777
32.306 29.6816
32.3526 29.3915
32.399 29.4029
32.4455 29.3083
32.4919 29.2091
32.5385 29.1171
32.5848 28.8939
32.6314 28.9412
32.6778 28.9297
32.7244 28.6638
32.7708 28.6653
32.8174 28.5754
32.8638 28.4772
32.9104 28.5661
32.9569 28.4734
33.0035 28.3616
33.0499 28.2434
33.0966 28.2931
33.143 28.248
33.1897 28.1372
33.2361 28.0433
33.2828 27.9655
33.3293 27.8648
33.3759 27.8667
33.4226 27.7674
33.4691 27.5909
33.5158 27.6132
33.5623 27.3528
33.609 27.1514
33.6555 27.0693
33.7022 27.0062
33.7487 26.9431
33.7954 26.8529
33.842 26.7555
33.8887 26.7537
33.9353 26.634
33.982 26.6154
34.0286 26.4179
34.0753 26.4884
34.1219 26.3423
34.1687 26.1804
34.2152 26.2105
34.262 26.105
34.3086 25.9687
34.3554 25.9445
34.402 25.7982
34.4488 25.6128
34.4954 25.5587
34.5422 25.4415
34.5889 25.4816
34.6357 25.3045
34.6825 25.3617
34.7292 25.2503
34.776 25.1557
34.8227 25.1067
34.8695 24.9418
34.9162 25.0031
34.9631 24.8766
35.0098 24.831
35.0566 24.7226
35.1033 24.6798
35.1502 24.6303
35.1969 24.6217
35.2438 24.5808
35.2906 24.5237
35.3375 24.475
35.3842 24.3568
35.4311 24.3416
35.4779 24.3275
35.5248 24.2599
35.5716 24.1832
35.6185 24.0287
35.6653 24.0029
35.7123 23.8571
35.759 23.87
35.806 23.6419
35.8528 23.6373
35.8998 23.5843
35.9468 23.5187
35.9936 23.5279
36.0406 23.3962
36.0874 23.3964
36.1345 23.2274
36.1813 23.1241
36.2283 23.0987
36.2752 22.9544
36.3222 22.9187
36.3691 22.998
36.4161 22.8018
36.463 22.7674
36.5101 22.7981
36.557 22.694
36.6041 22.5726
36.651 22.4889
36.6981 22.5061
36.745 22.3924
36.7921 22.3187
36.839 22.1567
36.8861 22.1149
36.9331 22.1215
36.9802 21.9925
37.0272 21.9243
37.0743 21.8684
37.1213 21.8767
37.1684 21.7072
37.2154 21.7082
37.2626 21.5977
37.3098 21.5477
37.3568 21.4796
37.404 21.4571
37.451 21.3569
37.4982 21.2325
37.5452 21.1462
37.5924 21.118
37.6395 21.1151
37.6867 21.0055
37.7337 20.9529
37.781 20.9082
37.8281 20.8389
37.8753 20.6993
37.9224 20.6271
37.9697 20.618
38.0168 20.5714
38.064 20.4649
38.1111 20.3051
38.1584 20.3253
38.2056 20.2628
38.2529 20.2227
38.3 20.1534
38.3473 20.1098
38.3945 20.0853
38.4418 20.038
38.489 19.9574
38.5363 19.8306
38.5837 19.7759
38.6309 19.6978
38.6782 19.6498
38.7254 19.5356
38.7728 19.515
38.82 19.5253
38.8674 19.3816
38.9146 19.3939
38.9621 19.2284
39.0093 19.2573
39.0567 19.1708
39.104 19.1136
39.1514 18.9981
39.1987 18.9682
39.2461 18.9106
39.2934 18.9201
39.3409 18.7585
39.3882 18.6691
39.4356 18.6577
39.483 18.5553
39.5304 18.5702
39.5778 18.5182
39.6253 18.4208
39.6726 18.4274
39.7201 18.3422
39.7675 18.273
39.815 18.2203
39.8624 18.0841
39.9099 18.0925
39.9575 18.0249
40.0049 17.9809
40.0525 17.8848
40.0999 17.8811
40.1474 17.7983
40.1949 17.7418
40.2425 17.7117
40.2899 17.7078
40.3375 17.5925
40.385 17.5176
40.4326 17.4332
40.48 17.3851
40.5277 17.4223
40.5752 17.2382
40.6228 17.2107
40.6703 17.1282
40.718 17.1508
40.7655 17.0663
40.8132 17.013
40.8607 17.0076
40.9084 16.9597
40.9559 16.8972
41.0036 16.8477
41.0512 16.7954
41.0989 16.7864
41.1465 16.6559
41.1942 16.6459
41.242 16.5503
41.2896 16.4892
41.3373 16.4798
41.3849 16.3903
41.4327 16.3257
41.4803 16.2404
41.5281 16.1362
41.5758 16.151
41.6236 16.034
41.6712 16.0614
41.7191 15.995
41.7667 15.8831
41.8146 15.8866
41.8622 15.8514
41.9101 15.8291
41.9578 15.7041
42.0057 15.6795
42.0534 15.6519
42.1013 15.6015
42.149 15.5062
42.1969 15.4913
42.2446 15.4177
42.2925 15.3815
42.3403 15.3267
42.3882 15.2646
42.436 15.2668
42.4839 15.1528
42.5319 15.1239
42.5797 15.0702
42.6277 15.0034
42.6755 14.9326
42.7235 14.9129
42.7713 14.876
42.8193 14.7689
42.8671 14.7254
42.9152 14.6724
42.963 14.5918
43.0111 14.5988
43.0589 14.5545
43.107 14.4842
43.1549 14.4384
43.2029 14.3702
43.2508 14.3799
43.2989 14.2874
43.3468 14.2283
43.3949 14.1849
43.4429 14.1472
43.491 14.0398
43.5389 14.0558
43.5871 14.0297
43.635 13.9593
43.6832 13.9739
43.7312 13.8878
43.7793 13.8111
43.8273 13.8096
43.8755 13.697
43.9237 13.649
43.9717 13.6644
44.0199 13.5965
44.068 13.541
44.1162 13.4163
44.1642 13.446
44.2125 13.4333
44.2606 13.3233
44.3088 13.2863
44.3569 13.2359
44.4052 13.2313
44.4533 13.1614
44.5016 13.1255
44.5497 13.0435
44.598 13.0471
44.6461 12.9726
44.6945 12.9041
44.7426 12.8929
44.791 12.8394
44.8391 12.8066
44.8875 12.711
44.9357 12.7061
44.984 12.6346
45.0322 12.5828
45.0806 12.5097
45.1288 12.5406
45.1773 12.4886
45.2257 12.4211
45.2739 12.373
45.3224 12.325
45.3706 12.3126
45.4191 12.2741
45.4673 12.1982
45.5158 12.1508
45.5641 12.1294
45.6126 12.1009
45.6609 12.0041
45.7094 12.0104
45.7577 11.9406
45.8063 11.8779
45.8546 11.8632
45.9031 11.7712
45.9515 11.7594
46.0001 11.714
46.0484 11.6994
46.097 11.6711
46.1454 11.6485
46.194 11.6078
46.2424 11.5247
46.291 11.4813
46.3395 11.4632
46.3881 11.4008
46.4365 11.4102
46.4852 11.3326
46.5337 11.2669
46.5823 11.2715
46.631 11.1859
46.6795 11.1427
46.7282 11.1234
46.7767 11.0803
46.8254 11.0216
46.8739 10.9951
46.9226 10.9284
46.9712 10.9126
47.0199 10.8437
47.0685 10.8271
47.1173 10.7325
47.1658 10.7914
47.2146 10.724
47.2632 10.6652
47.312 10.6495
47.3606 10.5848
47.4095 10.5663
47.4581 10.5106
47.5069 10.4648
47.5556 10.4126
47.6044 10.381
47.6531 10.3266
47.702 10.2977
47.7507 10.2937
47.7996 10.2069
47.8483 10.188
47.8972 10.1556
47.9461 10.0912
47.9948 10.0771
48.0438 10.0749
48.0925 10.0081
48.1415 9.97462
48.1902 9.96953
48.2392 9.94581
48.288 9.88684
48.337 9.87612
48.3858 9.79156
48.4348 9.75987
48.4837 9.76497
48.5327 9.69189
48.5815 9.65476
48.6306 9.68367
48.6795 9.60488
48.7285 9.54531
48.7774 9.53464
48.8265 9.52739
48.8754 9.45807
48.9245 9.40219
48.9734 9.41187
49.0226 9.34964
49.0715 9.28618
49.1206 9.30977
49.1696 9.26618
49.2188 9.23723
49.2679 9.17431
49.3169 9.17527
49.3661 9.10138
49.4151 9.0791
49.4643 9.04555
49.5134 8.99985
49.5626 8.9119
49.6117 8.95741
49.6609 8.94633
49.71 8.83018
49.7592 8.86114
49.8083 8.81642
49.8576 8.76271
49.9067 8.72709
49.956 8.71159
50.0052 8.69585
50.0545 8.64888
50.1036 8.57674
50.153 8.57103
50.2022 8.55979
50.2515 8.48783
50.3007 8.45662
50.3501 8.41749
50.3993 8.41423
50.4487 8.34672
50.498 8.33846
50.5474 8.29928
50.5966 8.25458
50.6461 8.23755
50.6955 8.21382
50.7448 8.18338
50.7943 8.13902
50.8436 8.1417
50.8931 8.10158
50.9424 8.06556
50.9919 7.99601
51.0413 8.0192
51.0908 7.97804
51.1402 7.90728
51.1897 7.85189
51.2391 7.8693
51.2887 7.7926
51.3381 7.81076
51.3877 7.76848
51.4371 7.71678
51.4867 7.68376
51.5362 7.70445
51.5858 7.63222
51.6353 7.58036
51.6849 7.55238
51.7344 7.57887
51.7841 7.51734
51.8336 7.50652
51.8833 7.43984
51.9328 7.43357
51.9826 7.36145
52.0323 7.36789
52.0818 7.3365
52.1316 7.28254
52.1812 7.27061
52.231 7.19317
52.2806 7.18755
52.3304 7.19698
52.38 7.15426
52.4298 7.153
52.4794 7.05036
52.5293 7.06164
52.5789 7.03867
52.6288 6.97059
52.6785 6.92032
52.7284 6.9726
52.7781 6.90033
52.828 6.89334
52.8777 6.85844
52.9276 6.85258
52.9774 6.7553
53.0273 6.77511
53.0771 6.74482
53.1271 6.68778
53.1769 6.65142
53.2269 6.67896
53.2767 6.60747
53.3267 6.56928
53.3765 6.55584
53.4266 6.52848
53.4766 6.50062
53.5265 6.48735
53.5765 6.49742
53.6264 6.42665
53.6765 6.40874
53.7264 6.36509
53.7765 6.35612
53.8265 6.33332
53.8766 6.29017
53.9266 6.28668
53.9767 6.21689
54.0267 6.20109
54.0769 6.1617
54.1269 6.10732
54.1771 6.10989
54.2271 6.08447
54.2773 6.03847
54.3274 6.01968
54.3776 5.93365
54.4277 5.90819
54.478 5.91457
54.528 5.87413
54.5783 5.85222
54.6285 5.79909
54.6788 5.76829
54.7289 5.71576
54.7792 5.717
54.8296 5.66241
54.8798 5.55579
54.9301 5.57806
54.9803 5.54724
55.0307 5.54819
55.0809 5.4567
55.1314 5.45466
55.1816 5.396
55.232 5.34705
55.2823 5.31915
55.3328 5.23843
55.383 5.21232
55.4335 5.11514
55.4838 5.12926
55.5344 5.08034
55.5847 5.02194
55.6352 4.96668
55.6856 4.94973
55.7361 4.90674