File: XRD/Ni3Fe_FD0874.xy
TT I
1.27165 6.97228
1.31627 6.92116
1.36089 6.62339
1.40551 6.42329
1.45013 6.64532
1.49476 6.24604
1.53938 5.13544
1.584 5.02013
1.62863 5.53023
1.67325 4.72823
1.71787 5.36919
1.7625 5.21559
1.80712 4.55502
1.85174 4.44514
1.89636 4.66407
1.94099 4.67962
1.98562 5.05168
2.03025 4.59037
2.07487 4.3126
2.11949 5.19729
2.16411 5.09796
2.20874 14.9527
2.25338 27.0114
2.298 6.45671
2.34263 5.27051
2.38725 6.00926
2.43188 6.59945
2.4765 6.72183
2.52115 7.38067
2.56577 8.70029
2.6104 8.79929
2.65503 8.20928
2.69965 8.30338
2.7443 8.52355
2.78893 9.11868
2.83356 8.79854
2.87818 8.50861
2.92281 8.74643
2.96744 9.13891
3.01209 10.7805
3.05672 11.1806
3.10135 12.5294
3.14599 13.3788
3.19062 14.3014
3.23527 15.2284
3.2799 15.9245
3.32454 16.6382
3.36917 17.8205
3.4138 19.0397
3.45844 19.9405
3.50309 20.9255
3.54773 21.9459
3.59237 24.2381
3.637 103.725
3.68164 66.3086
3.7263 26.4084
3.77094 26.304
3.81558 26.7263
3.86022 27.446
3.90486 28.8484
3.9495 29.7227
3.99416 30.6068
4.0388 31.6771
4.08344 33.6409
4.12809 34.3404
4.17273 36.9861
4.21738 43.0945
4.26204 277.541
4.30669 252.407
4.35133 49.6151
4.39598 44.296
4.44063 54.6132
4.4853 68.7637
4.52995 49.7665
4.5746 50.3498
4.61925 52.6435
4.6639 54.7685
4.70855 56.8649
4.75322 60.2377
4.79788 62.8542
4.84253 65.9745
4.88719 69.5923
4.93184 73.6042
4.97652 78.6965
5.02118 85.0052
5.06583 91.4515
5.11049 101.708
5.15515 172.324
5.19981 287.397
5.24449 2372.33
5.28916 12824.9
5.33382 2932.25
5.37848 179.671
5.42315 125.234
5.46783 110.696
5.5125 103.634
5.55716 100.099
5.60183 96.3662
5.6465 94.7597
5.69117 92.2446
5.73586 89.9667
5.78053 89.8666
5.8252 89.0449
5.86988 88.6621
5.91455 90.7189
5.95924 95.8934
6.00392 168.509
6.0486 796.333
6.09328 4356.09
6.13795 3269.05
6.18263 230.378
6.22733 90.5376
6.27201 81.7495
6.3167 104.932
6.36138 81.3083
6.40606 68.2653
6.45075 66.1284
6.49545 64.6815
6.54014 63.1334
6.58483 62.6432
6.62952 62.1411
6.67421 97.1241
6.71892 158.175
6.76361 70.4283
6.8083 58.1661
6.853 56.846
6.89769 56.2225
6.94239 56.0426
6.98711 55.4173
7.03181 54.8753
7.07651 54.743
7.12121 54.7754
7.16591 54.9498
7.21063 55.1545
7.25533 71.654
7.30004 198.799
7.34475 98.1243
7.38945 56.4255
7.43416 53.8271
7.47889 53.4967
7.5236 54.1902
7.56831 54.9677
7.61303 56.9186
7.65774 56.8455
7.70247 55.2407
7.74719 55.3146
7.79191 55.9701
7.83663 56.0624
7.88135 56.9828
7.92607 58.0673
7.97081 59.0657
8.01553 59.6617
8.06026 61.1626
8.10498 62.9957
8.14971 73.1796
8.19446 72.3
8.23919 68.6145
8.28392 70.6262
8.32865 72.4773
8.37339 76.9595
8.41812 83.5301
8.46288 113.814
8.50761 143.49
8.55235 323.852
8.59709 1101.55
8.64183 2270.97
8.68658 979.017
8.73134 170.101
8.77609 97.278
8.82083 90.2945
8.86558 88.0327
8.91033 88.7764
8.9551 91.6766
8.99985 84.2321
9.04461 82.3291
9.08936 81.3415
9.13412 80.5265
9.17888 80.878
9.22365 81.6373
9.26841 80.5496
9.31318 81.0339
9.35794 81.4025
9.4027 81.4632
9.44749 82.3748
9.49226 82.8361
9.53703 83.7548
9.5818 85.5519
9.62657 90.1559
9.67134 98.4961
9.71614 92.3056
9.76091 92.2072
9.80569 94.35
9.85047 98.0962
9.89525 124.036
9.94005 136.843
9.98484 154.985
10.0296 294.794
10.0744 737.031
10.1192 1754.17
10.164 1619.39
10.2088 409.82
10.2536 124.597
10.2984 112.39
10.3432 114.756
10.388 102.666
10.4328 110.93
10.4776 145.658
10.5224 263.374
10.5672 521.191
10.612 504.339
10.6568 201.598
10.7017 95.3749
10.7465 85.204
10.7913 81.7282
10.8361 79.8541
10.8809 77.5933
10.9257 77.5434
10.9706 78.2591
11.0154 73.9612
11.0602 71.5611
11.105 70.9971
11.1499 76.4153
11.1947 84.8377
11.2395 74.7121
11.2844 70.1691
11.3292 66.3357
11.374 65.138
11.4189 64.6181
11.4637 63.9613
11.5086 64.5333
11.5534 68.0868
11.5983 65.033
11.6431 62.7215
11.688 61.8669
11.7328 62.0563
11.7777 61.9306
11.8225 61.4803
11.8674 61.3783
11.9122 62.0867
11.9571 61.8303
12.002 62.1929
12.0468 65.1932
12.0917 74.5206
12.1366 97.4326
12.1814 148.931
12.2263 207.362
12.2712 169.635
12.3161 98.3631
12.3609 70.6796
12.4058 63.8134
12.4507 63.5145
12.4956 63.4952
12.5405 63.3695
12.5853 64.4991
12.6302 73.2078
12.6751 80.2351
12.72 69.9707
12.7649 66.6763
12.8098 67.1845
12.8547 68.1108
12.8996 69.6577
12.9445 70.5021
12.9894 72.4541
13.0343 74.0464
13.0792 77.2462
13.1242 83.7515
13.1691 103.89
13.214 137.065
13.2589 222.789
13.3038 364.841
13.3487 429.203
13.3937 264.884
13.4386 123.997
13.4835 100.137
13.5285 112.228
13.5734 147.268
13.6183 238.966
13.6633 350.931
13.7082 346.049
13.7531 186.256
13.7981 96.2642
13.843 80.4788
13.888 78.2284
13.9329 75.954
13.9779 74.4392
14.0228 72.8935
14.0678 71.8712
14.1127 71.4729
14.1577 71.3313
14.2027 70.3528
14.2476 69.3037
14.2926 69.6672
14.3376 70.7646
14.3825 69.0829
14.4275 67.7226
14.4725 67.5316
14.5175 67.6647
14.5624 67.995
14.6074 70.194
14.6524 70.7626
14.6974 69.0847
14.7424 69.7458
14.7874 75.0908
14.8324 83.8915
14.8774 104.837
14.9224 148.175
14.9674 207.464
15.0124 216.514
15.0574 146.628
15.1024 89.8398
15.1474 70.9184
15.1924 69.3864
15.2374 70.3549
15.2824 69.6828
15.3274 67.4374
15.3725 65.6028
15.4175 65.254
15.4625 64.9307
15.5076 65.153
15.5526 65.303
15.5976 64.4426
15.6426 65.0366
15.6877 69.0523
15.7327 75.469
15.7778 89.5689
15.8228 120.999
15.8679 167.381
15.9129 194.797
15.958 156.408
16.003 94.685
16.0481 67.3772
16.0931 64.169
16.1382 62.1888
16.1833 59.7037
16.2283 58.1468
16.2734 57.5908
16.3185 58.0565
16.3636 58.7965
16.4086 57.2426
16.4537 55.5638
16.4988 54.6495
16.5439 54.4781
16.589 54.3915
16.6341 54.1023
16.6792 53.7515
16.7243 53.9509
16.7694 54.0838
16.8145 53.9712
16.8596 54.54
16.9047 56.2583
16.9498 56.5173
16.9949 54.9851
17.04 54.7288
17.0851 55.6311
17.1302 56.9949
17.1754 59.7969
17.2205 65.0619
17.2656 72.8201
17.3108 82.1716
17.3559 81.4475
17.401 69.9194
17.4462 60.7781
17.4913 58.2014
17.5365 58.2838
17.5815 58.1861
17.6268 58.6377
17.6718 59.245
17.7171 59.8036
17.7622 60.3686
17.8074 60.564
17.8525 62.2996
17.8977 66.0145
17.9428 70.5706
17.9881 78.7351
18.0331 95.8946
18.0784 119.979
18.1237 138.646
18.1688 129.38
18.214 101.457
18.2591 84.3075
18.3044 88.6491
18.3495 99.4279
18.3948 105.378
18.4399 95.6094
18.4852 76.4524
18.5303 65.2266
18.5756 61.2237
18.6207 60.2766
18.666 59.3647
18.7112 58.7928
18.7565 57.9055
18.8016 57.6431
18.8469 56.9548
18.892 56.8513
18.9374 56.4308
18.9825 56.2338
19.0278 55.9743
19.073 55.9527
19.1183 56.3217
19.1635 57.2461
19.2088 58.43
19.254 60.5686
19.2993 65.2234
19.3447 72.0608
19.3898 76.3121
19.4352 71.873
19.4804 62.5975
19.5257 56.1233
19.5709 53.3687
19.6163 53.0695
19.6615 52.7635
19.7068 52.4821
19.752 52.461
19.7974 52.7034
19.8426 53.4693
19.888 53.9209
19.9332 55.0076
19.9786 57.3889
20.0238 61.2316
20.0692 66.1296
20.1144 69.2434
20.1598 67.3364
20.205 62.2457
20.2504 61.2456
20.2957 63.251
20.3411 65.1566
20.3863 63.798
20.4318 57.7804
20.477 53.1669
20.5224 51.2436
20.5677 50.424
20.6131 49.7112
20.6586 48.8025
20.7038 48.8817
20.7493 48.4873
20.7945 48.2997
20.84 48.1583
20.8853 47.8787
20.9307 47.7618
20.976 47.8637
21.0215 47.9347
21.0668 48.0432
21.1122 48.6667
21.1575 49.2368
21.203 50.1006
21.2483 50.6751
21.2938 50.6481
21.3391 49.3936
21.3846 48.2705
21.4299 47.6805
21.4754 47.6265
21.5207 47.639
21.5662 47.8844
21.6116 48.1801
21.6571 48.817
21.7024 49.7411
21.7479 51.2791
21.7933 54.0602
21.8388 57.8109
21.8843 62.0288
21.9297 63.8168
21.9752 62.6049
22.0206 58.622
22.0661 55.9219
22.1115 55.4541
22.157 55.1309
22.2024 53.5186
22.248 50.7453
22.2933 49.2618
22.3389 48.6035
22.3843 48.4183
22.4299 48.2359
22.4753 48.2666
22.5208 47.9481
22.5662 47.8556
22.6118 47.7895
22.6572 47.9892
22.7028 48.4291
22.7483 48.7842
22.7939 49.4213
22.8393 50.8658
22.8849 53.1049
22.9303 55.3689
22.9759 57.109
23.0214 56.8169
23.067 53.8017
23.1126 50.4302
23.1581 48.5061
23.2037 48.1065
23.2492 47.9979
23.2948 48.0148
23.3403 48.1605
23.3859 48.866
23.4314 49.8077
23.477 51.49
23.5225 53.9133
23.5682 56.4062
23.6137 57.329
23.6593 54.9633
23.7048 50.942
23.7505 47.8818
23.796 46.1052
23.8417 45.3131
23.8872 44.9358
23.9329 44.6686
23.9784 44.2473
24.0241 44.062
24.0697 43.7497
24.1154 43.3557
24.1609 43.6424
24.2066 43.1059
24.2522 42.8902
24.2979 42.7023
24.3434 42.6408
24.3892 42.5146
24.4349 42.5265
24.4805 42.42
24.5262 42.5474
24.5718 42.3184
24.6175 42.3599
24.6631 42.1022
24.7089 41.834
24.7545 41.8258
24.8002 41.3959
24.8458 41.6603
24.8916 41.32
24.9372 41.6176
24.983 41.8604
25.0286 42.2509
25.0744 42.5095
25.12 43.0111
25.1658 43.9149
25.2114 44.0331
25.2572 44.3495
25.3029 44.3768
25.3487 44.5426
25.3943 43.9636
25.4402 42.9985
25.4858 41.8959
25.5316 40.8199
25.5773 40.2371
25.6231 40.3323
25.669 39.8481
25.7147 40.002
25.7605 39.8923
25.8062 39.8778
25.8521 39.9766
25.8977 40.0633
25.9436 40.1492
25.9893 40.3618
26.0352 40.9681
26.0809 41.0393
26.1268 41.0676
26.1725 40.7615
26.2184 40.2338
26.2641 39.7333
26.31 39.6601
26.3557 39.5334
26.4017 39.5279
26.4474 39.8491
26.4933 40.0009
26.5391 40.5545
26.585 41.1239
26.6308 41.5124
26.6767 41.551
26.7225 41.3095
26.7684 40.9523
26.8142 40.337
26.8601 39.9354
26.9059 39.6319
26.9519 39.0638
26.9979 38.7726
27.0437 38.4577
27.0896 38.2275
27.1354 38.1848
27.1814 37.9948
27.2272 38.0154
27.2732 37.9941
27.3191 37.7271
27.3651 37.8447
27.4109 37.8181
27.4569 38.1479
27.5027 38.0078
27.5488 37.9399
27.5946 37.7739
27.6407 37.6001
27.6865 37.6114
27.7326 37.2548
27.7784 37.332
27.8245 37.1602
27.8703 37.4043
27.9164 37.7897
27.9623 37.7657
28.0084 38.0919
28.0543 38.6012
28.1003 38.5156
28.1462 38.3153
28.1923 37.9248
28.2384 37.4166
28.2843 37.1068
28.3304 36.6915
28.3764 36.0993
28.4225 35.8901
28.4684 35.7982
28.5145 35.3124
28.5605 35.3736
28.6066 35.2172
28.6526 35.031
28.6987 35.027
28.7447 34.988
28.7908 34.9051
28.8368 34.9326
28.8829 34.9089
28.9289 34.8729
28.9751 34.5844
29.0211 34.4606
29.0673 34.1955
29.1133 34.0891
29.1595 33.8934
29.2055 33.8779
29.2517 33.7934
29.2977 33.8402
29.3439 33.719
29.3899 33.733
29.4361 33.6601
29.4824 33.4793
29.5284 33.2252
29.5746 32.8616
29.6207 32.5778
29.6669 32.5519
29.713 32.5509
29.7593 32.3716
29.8053 32.4624
29.8516 32.4415
29.8977 32.3285
29.9439 32.1519
29.99 32.1417
30.0363 31.8987
30.0824 32.1436
30.1287 31.9462
30.1748 32.0251
30.2211 32.1529
30.2673 31.9155
30.3136 31.9289
30.3597 31.8158
30.406 31.7525
30.4522 31.6731
30.4985 31.5971
30.5447 31.7194
30.591 31.6937
30.6372 31.6743
30.6835 31.7545
30.7297 31.7699
30.7761 31.6681
30.8224 31.583
30.8686 31.4724
30.915 31.2558
30.9612 31.0077
31.0076 30.8932
31.0538 30.7633
31.1002 30.6354
31.1464 30.4792
31.1928 30.5663
31.2391 30.5512
31.2855 30.4012
31.3317 30.395
31.3781 30.4672
31.4244 30.4018
31.4708 30.4332
31.5171 30.3532
31.5636 30.3731
31.6098 30.2066
31.6563 29.9712
31.7026 29.7364
31.7491 29.724
31.7953 29.8457
31.8418 29.7538
31.8881 29.7797
31.9346 29.7354
31.9809 29.6349
32.0275 29.5524
32.074 29.4524
32.1203 29.2599
32.1668 29.2546
32.2132 29.0001
32.2597 28.8099
32.306 28.7681
32.3526 28.6696
32.399 28.587
32.4455 28.3338
32.4919 28.3251
32.5385 28.2821
32.5848 28.2053
32.6314 28.1911
32.6778 28.1387
32.7244 27.9664
32.7708 27.7575
32.8174 27.747
32.8638 27.5501
32.9104 27.6434
32.9569 27.654
33.0035 27.5685
33.0499 27.5014
33.0966 27.3835
33.143 27.389
33.1897 27.322
33.2361 27.1711
33.2828 27.2
33.3293 27.1217
33.3759 27.0364
33.4226 26.912
33.4691 26.7533
33.5158 26.73
33.5623 26.4553
33.609 26.3252
33.6555 26.301
33.7022 26.2311
33.7487 26.1138
33.7954 26.245
33.842 26.0433
33.8887 25.9989
33.9353 25.9732
33.982 25.8124
34.0286 25.7143
34.0753 25.7486
34.1219 25.4959
34.1687 25.5516
34.2152 25.4434
34.262 25.2912
34.3086 25.2366
34.3554 25.1911
34.402 24.9863
34.4488 25.0166
34.4954 24.9823
34.5422 24.913
34.5889 24.676
34.6357 24.6219
34.6825 24.5884
34.7292 24.5792
34.776 24.4753
34.8227 24.4111
34.8695 24.3084
34.9162 24.2858
34.9631 24.0558
35.0098 24.1236
35.0566 23.9529
35.1033 23.9506
35.1502 23.9556
35.1969 23.9182
35.2438 23.8637
35.2906 23.7667
35.3375 23.7131
35.3842 23.6507
35.4311 23.7059
35.4779 23.637
35.5248 23.6892
35.5716 23.4834
35.6185 23.4716
35.6653 23.2792
35.7123 23.229
35.759 23.1796
35.806 23.0799
35.8528 22.9328
35.8998 22.95
35.9468 22.7836
35.9936 22.8138
36.0406 22.725
36.0874 22.7042
36.1345 22.571
36.1813 22.4722
36.2283 22.4376
36.2752 22.3418
36.3222 22.3901
36.3691 22.2425
36.4161 22.1104
36.463 22.152
36.5101 22.1374
36.557 22.0687
36.6041 21.9749
36.651 21.9098
36.6981 21.8394
36.745 21.6875
36.7921 21.6502
36.839 21.5676
36.8861 21.4644
36.9331 21.4252
36.9802 21.3511
37.0272 21.2145
37.0743 21.1617
37.1213 21.1206
37.1684 21.1546
37.2154 21.0598
37.2626 20.8868
37.3098 20.9291
37.3568 20.8611
37.404 20.8406
37.451 20.7251
37.4982 20.6551
37.5452 20.6308
37.5924 20.5051
37.6395 20.6212
37.6867 20.3899
37.7337 20.3337
37.781 20.2513
37.8281 20.208
37.8753 20.1244
37.9224 20.1227
37.9697 20.029
38.0168 19.9605
38.064 19.872
38.1111 19.9027
38.1584 19.701
38.2056 19.6951
38.2529 19.6065
38.3 19.4532
38.3473 19.5287
38.3945 19.4114
38.4418 19.3146
38.489 19.3327
38.5363 19.1931
38.5837 19.2254
38.6309 19.0876
38.6782 19.0532
38.7254 18.9985
38.7728 18.9905
38.82 18.9096
38.8674 18.8382
38.9146 18.7719
38.9621 18.704
39.0093 18.635
39.0567 18.6061
39.104 18.5206
39.1514 18.4802
39.1987 18.4438
39.2461 18.3617
39.2934 18.3032
39.3409 18.2045
39.3882 18.1576
39.4356 18.1082
39.483 18.0545
39.5304 17.988
39.5778 17.9907
39.6253 17.8997
39.6726 17.8294
39.7201 17.7783
39.7675 17.779
39.815 17.725
39.8624 17.6154
39.9099 17.5355
39.9575 17.5115
40.0049 17.5073
40.0525 17.3847
40.0999 17.351
40.1474 17.3138
40.1949 17.1892
40.2425 17.1641
40.2899 17.1833
40.3375 17.0877
40.385 17.0239
40.4326 16.9804
40.48 16.9114
40.5277 16.8532
40.5752 16.7977
40.6228 16.769
40.6703 16.6997
40.718 16.6019
40.7655 16.6131
40.8132 16.4835
40.8607 16.4842
40.9084 16.4182
40.9559 16.4169
41.0036 16.3872
41.0512 16.2601
41.0989 16.2129
41.1465 16.1533
41.1942 16.1728
41.242 16.0482
41.2896 15.976
41.3373 15.9571
41.3849 15.8736
41.4327 15.871
41.4803 15.7577
41.5281 15.7898
41.5758 15.7149
41.6236 15.6203
41.6712 15.5481
41.7191 15.4682
41.7667 15.3965
41.8146 15.4314
41.8622 15.3752
41.9101 15.356
41.9578 15.2933
42.0057 15.2167
42.0534 15.1648
42.1013 15.117
42.149 15.0528
42.1969 15.0537
42.2446 15.0125
42.2925 14.9481
42.3403 14.8659
42.3882 14.8347
42.436 14.7895
42.4839 14.6725
42.5319 14.6931
42.5797 14.692
42.6277 14.5538
42.6755 14.5192
42.7235 14.5342
42.7713 14.4226
42.8193 14.4242
42.8671 14.3666
42.9152 14.284
42.963 14.2441
43.0111 14.1846
43.0589 14.0929
43.107 14.0258
43.1549 14.0774
43.2029 14.0122
43.2508 13.9703
43.2989 13.9084
43.3468 13.8677
43.3949 13.8233
43.4429 13.7208
43.491 13.698
43.5389 13.6109
43.5871 13.644
43.635 13.5693
43.6832 13.5091
43.7312 13.4293
43.7793 13.4427
43.8273 13.3849
43.8755 13.3213
43.9237 13.2855
43.9717 13.2738
44.0199 13.2131
44.068 13.1771
44.1162 13.0445
44.1642 13.0746
44.2125 13.0145
44.2606 12.9657
44.3088 12.9218
44.3569 12.8743
44.4052 12.8812
44.4533 12.7951
44.5016 12.7492
44.5497 12.6913
44.598 12.6618
44.6461 12.5967
44.6945 12.5973
44.7426 12.4975
44.791 12.4754
44.8391 12.4728
44.8875 12.4034
44.9357 12.3207
44.984 12.2795
45.0322 12.2681
45.0806 12.2334
45.1288 12.225
45.1773 12.1311
45.2257 12.1075
45.2739 12.0321
45.3224 12.0225
45.3706 11.9979
45.4191 11.8569
45.4673 11.893
45.5158 11.8554
45.5641 11.7931
45.6126 11.7899
45.6609 11.667
45.7094 11.6413
45.7577 11.6131
45.8063 11.5416
45.8546 11.5818
45.9031 11.4939
45.9515 11.4499
46.0001 11.402
46.0484 11.3918
46.097 11.3084
46.1454 11.3237
46.194 11.282
46.2424 11.2339
46.291 11.1866
46.3395 11.1422
46.3881 11.0978
46.4365 11.092
46.4852 11.0002
46.5337 10.9812
46.5823 10.9638
46.631 10.8869
46.6795 10.8439
46.7282 10.8711
46.7767 10.7684
46.8254 10.7364
46.8739 10.7138
46.9226 10.6437
46.9712 10.6272
47.0199 10.5802
47.0685 10.5203
47.1173 10.5056
47.1658 10.4691
47.2146 10.4437
47.2632 10.3616
47.312 10.3612
47.3606 10.3166
47.4095 10.243
47.4581 10.2277
47.5069 10.1541
47.5556 10.1969
47.6044 10.126
47.6531 10.1291
47.702 10.0205
47.7507 10.0477
47.7996 9.93155
47.8483 9.92278
47.8972 9.92916
47.9461 9.87265
47.9948 9.80437
48.0438 9.80096
48.0925 9.77657
48.1415 9.73231
48.1902 9.68975
48.2392 9.65042
48.288 9.58657
48.337 9.61252
48.3858 9.48297
48.4348 9.48699
48.4837 9.51285
48.5327 9.46072
48.5815 9.42444
48.6306 9.33623
48.6795 9.34435
48.7285 9.3001
48.7774 9.25877
48.8265 9.27011
48.8754 9.22278
48.9245 9.15687
48.9734 9.1592
49.0226 9.12498
49.0715 9.08284
49.1206 9.01773
49.1696 8.98363
49.2188 9.00386
49.2679 8.91846
49.3169 8.88458
49.3661 8.85571
49.4151 8.823
49.4643 8.78969
49.5134 8.75954
49.5626 8.72891
49.6117 8.70699
49.6609 8.66929
49.71 8.63888
49.7592 8.59606
49.8083 8.53672
49.8576 8.54382
49.9067 8.4918
49.956 8.46936
50.0052 8.43587
50.0545 8.41294
50.1036 8.35413
50.153 8.32456
50.2022 8.30828
50.2515 8.2648
50.3007 8.17688
50.3501 8.19825
50.3993 8.17982
50.4487 8.14411
50.498 8.1342
50.5474 8.07616
50.5966 8.02539
50.6461 8.03142
50.6955 7.97395
50.7448 7.96999
50.7943 7.9559
50.8436 7.89255
50.8931 7.86848
50.9424 7.8329
50.9919 7.77836
51.0413 7.80485
51.0908 7.72754
51.1402 7.75044
51.1897 7.69937
51.2391 7.64583
51.2887 7.62984
51.3381 7.57996
51.3877 7.54171
51.4371 7.50967
51.4867 7.49639
51.5362 7.45812
51.5858 7.42356
51.6353 7.42345
51.6849 7.34965
51.7344 7.35299
51.7841 7.33195
51.8336 7.28742
51.8833 7.2419
51.9328 7.22351
51.9826 7.17404
52.0323 7.14529
52.0818 7.10674
52.1316 7.08426
52.1812 7.10123
52.231 7.04464
52.2806 7.03101
52.3304 6.97688
52.38 6.95673
52.4298 6.94055
52.4794 6.85848
52.5293 6.89128
52.5789 6.83353
52.6288 6.80096
52.6785 6.80806
52.7284 6.73917
52.7781 6.7609
52.828 6.67269
52.8777 6.68425
52.9276 6.61155
52.9774 6.64999
53.0273 6.56857
53.0771 6.5704
53.1271 6.53985
53.1769 6.52731
53.2269 6.463
53.2767 6.43558
53.3267 6.42916
53.3765 6.38762
53.4266 6.36049
53.4766 6.29997
53.5265 6.29137
53.5765 6.24817
53.6264 6.28344
53.6765 6.20345
53.7264 6.22276
53.7765 6.17549
53.8265 6.13199
53.8766 6.13696
53.9266 6.09369
53.9767 6.08185
54.0267 6.04047
54.0769 5.93618
54.1269 5.97318
54.1771 5.95377
54.2271 5.88646
54.2773 5.9066
54.3274 5.83108
54.3776 5.84453
54.4277 5.78275
54.478 5.81251
54.528 5.73301
54.5783 5.69987
54.6285 5.65423
54.6788 5.60834
54.7289 5.55895
54.7792 5.57886
54.8296 5.44082
54.8798 5.45735
54.9301 5.39967
54.9803 5.38116
55.0307 5.3685
55.0809 5.31048
55.1314 5.29773
55.1816 5.23402
55.232 5.21039
55.2823 5.15513
55.3328 5.0453
55.383 5.015
55.4335 4.98202
55.4838 4.94758
55.5344 4.88127
55.5847 4.85016
55.6352 4.83503
55.6856 4.74621
55.7361 4.74192