File: XRD/Ni3Fe_FD0308.xy
TT I
1.27165 7.93021
1.31627 7.19722
1.36089 6.75407
1.40551 5.49592
1.45013 6.27542
1.49476 6.17294
1.53938 5.85705
1.584 5.7584
1.62863 5.90018
1.67325 5.72379
1.71787 4.70132
1.7625 5.43705
1.80712 4.86061
1.85174 4.61267
1.89636 4.73138
1.94099 4.91637
1.98562 4.88283
2.03025 4.9616
2.07487 4.35035
2.11949 4.84626
2.16411 5.09967
2.20874 18.5431
2.25338 33.6619
2.298 6.39975
2.34263 5.08881
2.38725 5.18008
2.43188 5.26676
2.4765 5.61733
2.52115 5.75306
2.56577 5.60466
2.6104 6.46025
2.65503 6.80167
2.69965 7.00942
2.7443 8.06219
2.78893 7.61973
2.83356 7.98315
2.87818 8.21395
2.92281 9.15545
2.96744 9.18928
3.01209 10.2384
3.05672 11.0919
3.10135 12.2172
3.14599 12.9655
3.19062 14.1353
3.23527 15.4191
3.2799 15.8057
3.32454 17.3269
3.36917 17.8798
3.4138 19.4363
3.45844 20.4798
3.50309 21.8981
3.54773 22.3525
3.59237 25.4186
3.637 134.105
3.68164 81.8518
3.7263 27.5986
3.77094 27.1302
3.81558 27.3905
3.86022 28.3911
3.90486 29.8927
3.9495 30.5261
3.99416 31.3209
4.0388 32.8631
4.08344 34.4956
4.12809 36.0533
4.17273 39.2139
4.21738 46.2539
4.26204 366.74
4.30669 330.175
4.35133 54.2124
4.39598 46.7656
4.44063 59.4744
4.4853 78.757
4.52995 53.4213
4.5746 53.3309
4.61925 54.7906
4.6639 56.9267
4.70855 59.8871
4.75322 62.5899
4.79788 65.4287
4.84253 68.4343
4.88719 73.565
4.93184 76.8913
4.97652 82.923
5.02118 90.4149
5.06583 98.8111
5.11049 113.152
5.15515 219.537
5.19981 479.747
5.24449 2868.49
5.28916 11043.1
5.33382 4193.07
5.37848 254.609
5.42315 144.577
5.46783 122.009
5.5125 111.822
5.55716 106.334
5.60183 102.572
5.6465 101.153
5.69117 97.6859
5.73586 95.508
5.78053 95.6675
5.8252 95.2896
5.86988 96.5195
5.91455 99.1078
5.95924 109.877
6.00392 248.281
6.0486 1004.9
6.09328 3606.04
6.13795 3893.77
6.18263 357.679
6.22733 105.929
6.27201 89.9326
6.3167 122.512
6.36138 89.6511
6.40606 72.38
6.45075 70.1134
6.49545 68.3552
6.54014 66.5647
6.58483 65.3594
6.62952 65.7223
6.67421 112.006
6.71892 198.952
6.76361 77.2422
6.8083 61.6402
6.853 60.0416
6.89769 59.2783
6.94239 58.8334
6.98711 57.8539
7.03181 57.911
7.07651 57.7973
7.12121 57.2749
7.16591 57.85
7.21063 58.7574
7.25533 78.7297
7.30004 256.716
7.34475 118.554
7.38945 60.1422
7.43416 57.061
7.47889 56.6045
7.5236 56.9145
7.56831 57.6558
7.61303 60.0389
7.65774 60.9303
7.70247 58.0238
7.74719 58.0354
7.79191 58.9322
7.83663 58.8912
7.88135 60.0716
7.92607 60.8267
7.97081 61.8544
8.01553 62.8879
8.06026 64.1862
8.10498 65.9907
8.14971 80.0416
8.19446 78.1743
8.23919 71.7905
8.28392 74.0192
8.32865 76.0504
8.37339 80.6515
8.41812 89.3215
8.46288 132.707
8.50761 188.043
8.55235 416.486
8.59709 953.481
8.64183 2018.43
8.68658 1271.38
8.73134 226.987
8.77609 107.701
8.82083 97.55
8.86558 93.6909
8.91033 94.3951
8.9551 98.4892
8.99985 88.9008
9.04461 86.0858
9.08936 85.6359
9.13412 84.375
9.17888 84.2019
9.22365 85.9734
9.26841 84.4996
9.31318 85.3466
9.35794 85.2637
9.4027 85.6198
9.44749 86.0015
9.49226 86.7058
9.53703 87.4967
9.5818 90.1056
9.62657 96.3391
9.67134 106.959
9.71614 97.475
9.76091 96.9624
9.80569 99.5722
9.85047 103.211
9.89525 138.675
9.94005 158.105
9.98484 194.28
10.0296 365.545
10.0744 683.706
10.1192 1457.9
10.164 1838.28
10.2088 593.117
10.2536 153.262
10.2984 122.797
10.3432 126.3
10.388 110.417
10.4328 125.172
10.4776 167.682
10.5224 249.591
10.5672 442.695
10.612 546.618
10.6568 259.739
10.7017 105.639
10.7465 90.4734
10.7913 86.5676
10.8361 84.1604
10.8809 81.7626
10.9257 82.0935
10.9706 84.0922
11.0154 78.1377
11.0602 75.327
11.105 74.5485
11.1499 81.4947
11.1947 95.2416
11.2395 80.759
11.2844 74.535
11.3292 70.0588
11.374 68.4322
11.4189 68.0152
11.4637 67.3874
11.5086 68.4267
11.5534 73.2061
11.5983 69.2291
11.6431 65.7267
11.688 65.342
11.7328 65.1411
11.7777 65.1367
11.8225 64.7364
11.8674 64.7506
11.9122 64.9807
11.9571 65.0755
12.002 65.7629
12.0468 70.5533
12.0917 83.3035
12.1366 100.642
12.1814 134.728
12.2263 195.727
12.2712 190.767
12.3161 117.653
12.3609 78.2729
12.4058 67.74
12.4507 66.8121
12.4956 66.6779
12.5405 67.0247
12.5853 68.1729
12.6302 79.7046
12.6751 89.2639
12.72 74.7067
12.7649 70.4707
12.8098 70.6897
12.8547 71.9535
12.8996 73.0421
12.9445 74.571
12.9894 76.264
13.0343 78.0407
13.0792 81.2574
13.1242 91.8843
13.1691 119.387
13.214 150.652
13.2589 207.369
13.3038 318.117
13.3487 444.693
13.3937 329.121
13.4386 150.297
13.4835 113.121
13.5285 127.254
13.5734 153.13
13.6183 209.254
13.6633 310.619
13.7082 373.06
13.7531 235.64
13.7981 111.721
13.843 85.9119
13.888 82.5829
13.9329 79.789
13.9779 78.3625
14.0228 76.7197
14.0678 75.3671
14.1127 75.11
14.1577 75.3903
14.2027 74.0014
14.2476 72.4622
14.2926 73.2917
14.3376 75.2812
14.3825 73.4582
14.4275 71.0191
14.4725 71.0354
14.5175 71.1258
14.5624 71.2817
14.6074 74.659
14.6524 75.3721
14.6974 72.9597
14.7424 74.262
14.7874 81.9376
14.8324 92.6073
14.8774 107.428
14.9224 134.88
14.9674 183.86
15.0124 227.272
15.0574 176.382
15.1024 104.792
15.1474 76.3854
15.1924 73.4158
15.2374 74.7969
15.2824 74.5679
15.3274 70.9971
15.3725 69.3837
15.4175 68.4311
15.4625 68.4541
15.5076 68.8412
15.5526 68.8194
15.5976 67.9979
15.6426 68.9856
15.6877 75.3441
15.7327 83.407
15.7778 93.8798
15.8228 113.838
15.8679 150.807
15.9129 193.594
15.958 182.623
16.003 117.145
16.0481 74.6053
16.0931 69.0024
16.1382 66.6462
16.1833 63.1537
16.2283 61.4537
16.2734 60.7982
16.3185 61.3741
16.3636 63.0567
16.4086 61.0717
16.4537 58.5818
16.4988 57.4756
16.5439 57.6082
16.589 57.1933
16.6341 56.8017
16.6792 56.5155
16.7243 56.8834
16.7694 57.1989
16.8145 56.8787
16.8596 57.3638
16.9047 59.8909
16.9498 60.0429
16.9949 58.1745
17.04 57.7082
17.0851 59.2607
17.1302 60.9165
17.1754 63.4986
17.2205 66.8201
17.2656 72.0564
17.3108 81.3643
17.3559 85.8562
17.401 77.4199
17.4462 66.2053
17.4913 61.5665
17.5365 61.1509
17.5815 61.1775
17.6268 61.4542
17.6718 62.581
17.7171 63.1458
17.7622 63.169
17.8074 63.9045
17.8525 66.0688
17.8977 70.8376
17.9428 76.167
17.9881 82.3457
18.0331 93.1625
18.0784 111.372
18.1237 137.23
18.1688 143.778
18.214 118.318
18.2591 91.7855
18.3044 88.1906
18.3495 96.0755
18.3948 107.976
18.4399 106.255
18.4852 86.0398
18.5303 70.4026
18.5756 64.8943
18.6207 63.5187
18.666 62.6844
18.7112 61.9219
18.7565 61.0559
18.8016 60.9369
18.8469 60.0752
18.892 59.8523
18.9374 59.0908
18.9825 59.1364
19.0278 58.9361
19.073 59.1061
19.1183 59.768
19.1635 60.6451
19.2088 61.6415
19.254 63.0737
19.2993 65.6466
19.3447 71.4895
19.3898 78.2975
19.4352 78.0151
19.4804 69.1828
19.5257 60.4925
19.5709 56.4325
19.6163 56.0044
19.6615 55.5576
19.7068 55.1966
19.752 55.1317
19.7974 55.3455
19.8426 56.6583
19.888 57.2484
19.9332 57.9764
19.9786 59.5603
20.0238 61.8359
20.0692 66.4919
20.1144 71.1594
20.1598 72.459
20.205 67.1855
20.2504 63.2704
20.2957 63.8373
20.3411 66.6858
20.3863 67.841
20.4318 62.7213
20.477 57.0864
20.5224 54.3705
20.5677 53.3535
20.6131 52.1207
20.6586 51.5159
20.7038 51.3851
20.7493 50.8358
20.7945 50.8835
20.84 50.6857
20.8853 50.2706
20.9307 50.2277
20.976 50.5232
21.0215 50.3632
21.0668 50.8229
21.1122 50.7369
21.1575 51.3844
21.203 52.156
21.2483 52.7743
21.2938 53.4455
21.3391 52.3255
21.3846 51.1055
21.4299 50.1336
21.4754 50.014
21.5207 49.9901
21.5662 50.465
21.6116 50.8831
21.6571 51.6608
21.7024 52.7115
21.7479 53.9061
21.7933 55.7836
21.8388 58.4694
21.8843 62.3938
21.9297 66.3447
21.9752 67.2976
22.0206 63.3071
22.0661 58.4994
22.1115 57.3226
22.157 58.0945
22.2024 57.2948
22.248 54.3733
22.2933 52.1501
22.3389 51.1452
22.3843 50.9557
22.4299 50.9299
22.4753 50.7448
22.5208 50.4632
22.5662 50.2075
22.6118 50.425
22.6572 50.6881
22.7028 51.0323
22.7483 51.5571
22.7939 51.7542
22.8393 52.9064
22.8849 54.2782
22.9303 56.1163
22.9759 58.7976
23.0214 60.1118
23.067 58.1718
23.1126 54.1727
23.1581 51.4947
23.2037 50.6144
23.2492 50.5405
23.2948 50.8006
23.3403 50.831
23.3859 51.3434
23.4314 51.9228
23.477 53.0128
23.5225 54.6932
23.5682 57.0082
23.6137 59.7353
23.6593 59.0374
23.7048 55.2825
23.7505 51.1178
23.796 48.7267
23.8417 47.7405
23.8872 47.248
23.9329 46.7799
23.9784 46.4721
24.0241 46.1189
24.0697 46.1436
24.1154 45.7185
24.1609 45.565
24.2066 45.6085
24.2522 45.2882
24.2979 45.0402
24.3434 44.8726
24.3892 44.7457
24.4349 44.7539
24.4805 44.5085
24.5262 44.5168
24.5718 44.4106
24.6175 44.3638
24.6631 44.4888
24.7089 44.19
24.7545 43.9867
24.8002 43.8416
24.8458 43.7954
24.8916 43.66
24.9372 43.6113
24.983 43.8653
25.0286 44.143
25.0744 44.3505
25.12 44.7578
25.1658 45.5033
25.2114 46.02
25.2572 46.1394
25.3029 46.0883
25.3487 46.1369
25.3943 46.4657
25.4402 45.8457
25.4858 44.5241
25.5316 43.1892
25.5773 42.4036
25.6231 42.3143
25.669 41.9573
25.7147 41.9602
25.7605 41.9547
25.8062 42.0634
25.8521 42.151
25.8977 41.9768
25.9436 42.0963
25.9893 42.083
26.0352 42.5179
26.0809 42.6972
26.1268 43.0913
26.1725 42.9668
26.2184 42.524
26.2641 41.9785
26.31 41.6091
26.3557 41.6056
26.4017 41.4636
26.4474 41.7072
26.4933 42.0416
26.5391 42.3586
26.585 42.8268
26.6308 43.0655
26.6767 43.5066
26.7225 43.5539
26.7684 43.0319
26.8142 42.5162
26.8601 41.8901
26.9059 41.6422
26.9519 41.1149
26.9979 40.7183
27.0437 40.4157
27.0896 40.0368
27.1354 40.1203
27.1814 39.8762
27.2272 39.9051
27.2732 39.8499
27.3191 39.691
27.3651 39.7335
27.4109 39.5817
27.4569 39.6843
27.5027 39.779
27.5488 39.8602
27.5946 39.7738
27.6407 39.5966
27.6865 39.5473
27.7326 39.2008
27.7784 39.1961
27.8245 39.0361
27.8703 39.1817
27.9164 39.4946
27.9623 39.407
28.0084 39.7199
28.0543 40.2429
28.1003 40.3478
28.1462 40.2433
28.1923 39.9207
28.2384 39.3226
28.2843 39.0064
28.3304 38.799
28.3764 38.0731
28.4225 37.7298
28.4684 37.5569
28.5145 37.2083
28.5605 37.1555
28.6066 37.0492
28.6526 36.9529
28.6987 36.7969
28.7447 36.8644
28.7908 36.5759
28.8368 36.5474
28.8829 36.625
28.9289 36.5371
28.9751 36.5028
29.0211 36.3051
29.0673 35.8642
29.1133 35.874
29.1595 35.7052
29.2055 35.4893
29.2517 35.502
29.2977 35.3669
29.3439 35.4203
29.3899 35.3555
29.4361 35.3341
29.4824 35.2274
29.5284 35.0942
29.5746 34.7542
29.6207 34.3467
29.6669 34.26
29.713 34.2632
29.7593 34.0058
29.8053 34.0262
29.8516 33.9645
29.8977 33.903
29.9439 33.757
29.99 33.7342
30.0363 33.5031
30.0824 33.5903
30.1287 33.4194
30.1748 33.5121
30.2211 33.5939
30.2673 33.3936
30.3136 33.5381
30.3597 33.4932
30.406 33.336
30.4522 33.2278
30.4985 33.1175
30.5447 33.2463
30.591 33.165
30.6372 33.2501
30.6835 33.0787
30.7297 33.3472
30.7761 33.2877
30.8224 33.1553
30.8686 33.0254
30.915 32.7882
30.9612 32.5674
31.0076 32.3944
31.0538 32.2799
31.1002 32.2838
31.1464 31.9987
31.1928 31.9782
31.2391 32.0232
31.2855 32.011
31.3317 31.8339
31.3781 32.0272
31.4244 31.9445
31.4708 31.7754
31.5171 31.9446
31.5636 31.8637
31.6098 31.6771
31.6563 31.5014
31.7026 31.4246
31.7491 31.1695
31.7953 31.2028
31.8418 31.206
31.8881 31.2803
31.9346 31.1176
31.9809 31.1272
32.0275 30.8724
32.074 30.8598
32.1203 30.7111
32.1668 30.6399
32.2132 30.4737
32.2597 30.2736
32.306 30.2591
32.3526 29.9669
32.399 29.9246
32.4455 29.7882
32.4919 29.702
32.5385 29.5955
32.5848 29.5158
32.6314 29.4572
32.6778 29.4885
32.7244 29.1028
32.7708 29.2419
32.8174 29.1422
32.8638 29.0134
32.9104 29.1075
32.9569 29.0342
33.0035 28.9067
33.0499 28.8301
33.0966 28.7931
33.143 28.7296
33.1897 28.7476
33.2361 28.4666
33.2828 28.6271
33.3293 28.319
33.3759 28.3818
33.4226 28.2965
33.4691 28.009
33.5158 27.997
33.5623 27.9013
33.609 27.8074
33.6555 27.6285
33.7022 27.6168
33.7487 27.4121
33.7954 27.3707
33.842 27.2762
33.8887 27.2366
33.9353 27.2071
33.982 27.1049
34.0286 26.9126
34.0753 26.8986
34.1219 26.8488
34.1687 26.798
34.2152 26.6694
34.262 26.5695
34.3086 26.4772
34.3554 26.4931
34.402 26.3044
34.4488 26.2615
34.4954 26.19
34.5422 26.0549
34.5889 26.068
34.6357 25.8351
34.6825 25.7691
34.7292 25.7793
34.776 25.6845
34.8227 25.5557
34.8695 25.4834
34.9162 25.4347
34.9631 25.3105
35.0098 25.2668
35.0566 25.169
35.1033 25.1342
35.1502 25.1648
35.1969 25.0135
35.2438 25.0388
35.2906 24.9871
35.3375 24.881
35.3842 24.8211
35.4311 24.8967
35.4779 24.7698
35.5248 24.7658
35.5716 24.6012
35.6185 24.5311
35.6653 24.4904
35.7123 24.4286
35.759 24.2806
35.806 24.2149
35.8528 24.034
35.8998 24.0
35.9468 23.88
35.9936 23.8457
36.0406 23.8505
36.0874 23.8447
36.1345 23.7706
36.1813 23.661
36.2283 23.5671
36.2752 23.4166
36.3222 23.5034
36.3691 23.33
36.4161 23.1966
36.463 23.2435
36.5101 23.2505
36.557 23.1089
36.6041 22.9415
36.651 22.9793
36.6981 22.9203
36.745 22.8598
36.7921 22.7783
36.839 22.6725
36.8861 22.5762
36.9331 22.4861
36.9802 22.4591
37.0272 22.3807
37.0743 22.2746
37.1213 22.2716
37.1684 22.0829
37.2154 22.0492
37.2626 21.968
37.3098 22.0378
37.3568 21.939
37.404 21.8158
37.451 21.7351
37.4982 21.6989
37.5452 21.5714
37.5924 21.4918
37.6395 21.6019
37.6867 21.4166
37.7337 21.3321
37.781 21.2783
37.8281 21.3025
37.8753 21.156
37.9224 21.1071
37.9697 20.9951
38.0168 20.9487
38.064 20.7901
38.1111 20.7794
38.1584 20.7101
38.2056 20.6564
38.2529 20.6728
38.3 20.5454
38.3473 20.5315
38.3945 20.435
38.4418 20.3703
38.489 20.3058
38.5363 20.1954
38.5837 20.1408
38.6309 20.1168
38.6782 19.9757
38.7254 19.933
38.7728 19.928
38.82 19.7477
38.8674 19.7799
38.9146 19.6789
38.9621 19.656
39.0093 19.6406
39.0567 19.5464
39.104 19.465
39.1514 19.3745
39.1987 19.3949
39.2461 19.3499
39.2934 19.2307
39.3409 19.0706
39.3882 19.0701
39.4356 18.9697
39.483 18.8904
39.5304 18.9339
39.5778 18.8857
39.6253 18.817
39.6726 18.785
39.7201 18.7007
39.7675 18.6694
39.815 18.5215
39.8624 18.4859
39.9099 18.4025
39.9575 18.3993
40.0049 18.3803
40.0525 18.2597
40.0999 18.2399
40.1474 18.133
40.1949 18.0945
40.2425 18.0165
40.2899 18.0229
40.3375 17.9518
40.385 17.9033
40.4326 17.8388
40.48 17.7033
40.5277 17.7627
40.5752 17.6754
40.6228 17.5282
40.6703 17.5666
40.718 17.4562
40.7655 17.4345
40.8132 17.3718
40.8607 17.3717
40.9084 17.3028
40.9559 17.2345
41.0036 17.1139
41.0512 17.1438
41.0989 17.0403
41.1465 16.9688
41.1942 16.9795
41.242 16.8796
41.2896 16.8357
41.3373 16.7376
41.3849 16.7027
41.4327 16.6852
41.4803 16.5027
41.5281 16.5461
41.5758 16.4907
41.6236 16.4363
41.6712 16.3525
41.7191 16.328
41.7667 16.2051
41.8146 16.2303
41.8622 16.1779
41.9101 16.0879
41.9578 15.9982
42.0057 16.0003
42.0534 15.9184
42.1013 15.8457
42.149 15.8172
42.1969 15.7884
42.2446 15.7383
42.2925 15.6989
42.3403 15.6249
42.3882 15.575
42.436 15.5458
42.4839 15.4755
42.5319 15.4137
42.5797 15.331
42.6277 15.2644
42.6755 15.2687
42.7235 15.1783
42.7713 15.131
42.8193 15.1394
42.8671 15.0605
42.9152 15.0045
42.963 14.8924
43.0111 14.8733
43.0589 14.8441
43.107 14.7547
43.1549 14.7113
43.2029 14.7002
43.2508 14.6467
43.2989 14.5462
43.3468 14.4844
43.3949 14.4515
43.4429 14.4194
43.491 14.412
43.5389 14.2989
43.5871 14.2952
43.635 14.2056
43.6832 14.1778
43.7312 14.1235
43.7793 14.026
43.8273 14.0386
43.8755 13.9662
43.9237 13.8926
43.9717 13.9167
44.0199 13.8584
44.068 13.7875
44.1162 13.7608
44.1642 13.7569
44.2125 13.6501
44.2606 13.5405
44.3088 13.4973
44.3569 13.5034
44.4052 13.487
44.4533 13.4201
44.5016 13.3625
44.5497 13.3202
44.598 13.3109
44.6461 13.2566
44.6945 13.1922
44.7426 13.16
44.791 13.1038
44.8391 13.0544
44.8875 13.0402
44.9357 12.9721
44.984 12.9189
45.0322 12.8641
45.0806 12.7618
45.1288 12.7535
45.1773 12.7004
45.2257 12.6981
45.2739 12.585
45.3224 12.6098
45.3706 12.5161
45.4191 12.5112
45.4673 12.4807
45.5158 12.4718
45.5641 12.3922
45.6126 12.3425
45.6609 12.2693
45.7094 12.2489
45.7577 12.2059
45.8063 12.1122
45.8546 12.116
45.9031 12.028
45.9515 12.0224
46.0001 12.0002
46.0484 11.9528
46.097 11.9125
46.1454 11.862
46.194 11.7762
46.2424 11.7804
46.291 11.7148
46.3395 11.6968
46.3881 11.628
46.4365 11.6024
46.4852 11.5346
46.5337 11.5289
46.5823 11.4717
46.631 11.4387
46.6795 11.392
46.7282 11.3489
46.7767 11.2839
46.8254 11.2998
46.8739 11.1934
46.9226 11.1587
46.9712 11.1232
47.0199 11.0544
47.0685 11.0702
47.1173 10.9972
47.1658 11.0061
47.2146 10.9587
47.2632 10.898
47.312 10.8434
47.3606 10.8038
47.4095 10.7655
47.4581 10.6947
47.5069 10.6822
47.5556 10.6533
47.6044 10.6121
47.6531 10.5678
47.702 10.4721
47.7507 10.488
47.7996 10.4618
47.8483 10.4468
47.8972 10.3837
47.9461 10.3524
47.9948 10.2839
48.0438 10.2584
48.0925 10.2512
48.1415 10.1902
48.1902 10.1688
48.2392 10.1401
48.288 10.1312
48.337 10.039
48.3858 10.0194
48.4348 9.97824
48.4837 9.96537
48.5327 9.92553
48.5815 9.86743
48.6306 9.85252
48.6795 9.79785
48.7285 9.77059
48.7774 9.72147
48.8265 9.69653
48.8754 9.63026
48.9245 9.62438
48.9734 9.56618
49.0226 9.54917
49.0715 9.51156
49.1206 9.47534
49.1696 9.41628
49.2188 9.41492
49.2679 9.36371
49.3169 9.2952
49.3661 9.30308
49.4151 9.26823
49.4643 9.23053
49.5134 9.16799
49.5626 9.15584
49.6117 9.11321
49.6609 9.11618
49.71 9.05436
49.7592 9.01965
49.8083 8.97782
49.8576 8.93864
49.9067 8.88767
49.956 8.88067
50.0052 8.83001
50.0545 8.79515
50.1036 8.76812
50.153 8.71921
50.2022 8.74234
50.2515 8.66532
50.3007 8.64099
50.3501 8.59375
50.3993 8.56883
50.4487 8.55024
50.498 8.56427
50.5474 8.47967
50.5966 8.42868
50.6461 8.40159
50.6955 8.40369
50.7448 8.37667
50.7943 8.34483
50.8436 8.28362
50.8931 8.25576
50.9424 8.22421
50.9919 8.18906
51.0413 8.16596
51.0908 8.11091
51.1402 8.04779
51.1897 8.06616
51.2391 8.03965
51.2887 7.98166
51.3381 7.94
51.3877 7.93692
51.4371 7.86276
51.4867 7.82097
51.5362 7.8006
51.5858 7.80175
51.6353 7.72603
51.6849 7.74598
51.7344 7.69734
51.7841 7.67465
51.8336 7.59944
51.8833 7.60365
51.9328 7.58041
51.9826 7.5095
52.0323 7.49771
52.0818 7.45321
52.1316 7.42255
52.1812 7.42258
52.231 7.38784
52.2806 7.35213
52.3304 7.31756
52.38 7.26991
52.4298 7.27555
52.4794 7.22263
52.5293 7.18517
52.5789 7.13749
52.6288 7.14484
52.6785 7.11745
52.7284 7.07591
52.7781 7.07222
52.828 7.02599
52.8777 6.98463
52.9276 6.97335
52.9774 6.95472
53.0273 6.93098
53.0771 6.89026
53.1271 6.86064
53.1769 6.80525
53.2269 6.80519
53.2767 6.7444
53.3267 6.74344
53.3765 6.71036
53.4266 6.6915
53.4766 6.66251
53.5265 6.63469
53.5765 6.58713
53.6264 6.54826
53.6765 6.4996
53.7264 6.49148
53.7765 6.46655
53.8265 6.48639
53.8766 6.42647
53.9266 6.40284
53.9767 6.33178
54.0267 6.35245
54.0769 6.29359
54.1269 6.25896
54.1771 6.16689
54.2271 6.25616
54.2773 6.17356
54.3274 6.17618
54.3776 6.08002
54.4277 6.0767
54.478 6.03452
54.528 6.02834
54.5783 5.95538
54.6285 5.91146
54.6788 5.88358
54.7289 5.83377
54.7792 5.76574
54.8296 5.77379
54.8798 5.72384
54.9301 5.64084
54.9803 5.69088
55.0307 5.60601
55.0809 5.56185
55.1314 5.57877
55.1816 5.47925
55.232 5.47351
55.2823 5.42998
55.3328 5.31279
55.383 5.30152
55.4335 5.24635
55.4838 5.20232
55.5344 5.12353
55.5847 5.10274
55.6352 5.0873
55.6856 4.98734
55.7361 4.97124