File: XRD/Ni3Fe_FD0752.xy
TT I
1.27165 7.09141
1.31627 7.20003
1.36089 6.95775
1.40551 5.82408
1.45013 6.61935
1.49476 5.869
1.53938 5.15109
1.584 4.87411
1.62863 5.36499
1.67325 4.90729
1.71787 4.39133
1.7625 5.12795
1.80712 4.26539
1.85174 4.81495
1.89636 4.99201
1.94099 5.29626
1.98562 5.06515
2.03025 4.92686
2.07487 4.6251
2.11949 4.6214
2.16411 5.20622
2.20874 15.1372
2.25338 25.4545
2.298 6.14801
2.34263 5.25286
2.38725 5.90038
2.43188 5.8466
2.4765 6.63775
2.52115 6.69047
2.56577 7.51506
2.6104 8.54633
2.65503 7.98039
2.69965 7.9691
2.7443 8.21802
2.78893 8.20834
2.83356 8.21654
2.87818 8.87148
2.92281 8.98671
2.96744 9.62553
3.01209 10.3595
3.05672 10.9294
3.10135 11.7869
3.14599 12.9154
3.19062 14.5792
3.23527 15.2832
3.2799 15.6236
3.32454 16.8369
3.36917 17.6152
3.4138 19.2822
3.45844 19.5136
3.50309 20.9111
3.54773 21.5178
3.59237 24.1536
3.637 101.345
3.68164 63.9552
3.7263 26.4177
3.77094 26.1995
3.81558 26.1801
3.86022 27.2923
3.90486 28.6508
3.9495 29.9969
3.99416 30.6468
4.0388 32.0813
4.08344 33.6018
4.12809 34.7863
4.17273 37.5555
4.21738 43.497
4.26204 275.758
4.30669 244.337
4.35133 49.4752
4.39598 44.592
4.44063 55.4284
4.4853 68.2932
4.52995 50.5899
4.5746 50.9864
4.61925 52.7403
4.6639 55.2612
4.70855 57.7458
4.75322 60.6283
4.79788 63.1587
4.84253 66.618
4.88719 70.5965
4.93184 74.4354
4.97652 79.71
5.02118 85.7944
5.06583 92.7248
5.11049 103.28
5.15515 174.809
5.19981 310.842
5.24449 2559.48
5.28916 12856.8
5.33382 2986.55
5.37848 186.126
5.42315 128.11
5.46783 112.438
5.5125 104.897
5.55716 101.175
5.60183 97.7113
5.6465 95.9281
5.69117 93.3831
5.73586 90.8377
5.78053 90.7006
5.8252 89.8002
5.86988 90.0119
5.91455 92.2606
5.95924 98.7213
6.00392 181.986
6.0486 857.193
6.09328 4286.36
6.13795 3204.54
6.18263 235.874
6.22733 92.2684
6.27201 82.6143
6.3167 105.212
6.36138 81.9326
6.40606 68.8272
6.45075 67.1882
6.49545 64.8087
6.54014 63.5601
6.58483 63.1669
6.62952 62.7104
6.67421 97.4062
6.71892 156.056
6.76361 70.3792
6.8083 58.3201
6.853 57.2974
6.89769 56.6164
6.94239 56.7569
6.98711 55.5761
7.03181 55.303
7.07651 55.2086
7.12121 55.2288
7.16591 55.2221
7.21063 55.7618
7.25533 72.2207
7.30004 197.848
7.34475 97.26
7.38945 56.8938
7.43416 54.6044
7.47889 54.5326
7.5236 54.8313
7.56831 55.1486
7.61303 56.8854
7.65774 57.8041
7.70247 55.8081
7.74719 55.8725
7.79191 56.8365
7.83663 56.5968
7.88135 57.8132
7.92607 58.5761
7.97081 59.3014
8.01553 60.1592
8.06026 62.0204
8.10498 63.572
8.14971 73.6828
8.19446 72.5637
8.23919 68.7866
8.28392 71.206
8.32865 73.122
8.37339 77.2033
8.41812 84.5152
8.46288 115.109
8.50761 151.971
8.55235 349.108
8.59709 1128.45
8.64183 2158.59
8.68658 1028.59
8.73134 164.058
8.77609 98.5921
8.82083 91.7506
8.86558 88.9744
8.91033 89.0755
8.9551 91.6436
8.99985 85.0875
9.04461 82.844
9.08936 82.4283
9.13412 81.2838
9.17888 81.5187
9.22365 82.4853
9.26841 81.0777
9.31318 81.5688
9.35794 81.8345
9.4027 82.4166
9.44749 83.052
9.49226 83.747
9.53703 84.65
9.5818 86.6798
9.62657 91.4783
9.67134 99.3893
9.71614 93.2513
9.76091 93.291
9.80569 95.4749
9.85047 99.0968
9.89525 124.867
9.94005 137.785
9.98484 161.146
10.0296 312.127
10.0744 771.902
10.1192 1757.55
10.164 1621.07
10.2088 405.329
10.2536 126.336
10.2984 112.817
10.3432 115.15
10.388 103.752
10.4328 112.955
10.4776 151.982
10.5224 270.894
10.5672 513.146
10.612 518.804
10.6568 209.324
10.7017 96.9431
10.7465 85.756
10.7913 82.8718
10.8361 80.7589
10.8809 78.5857
10.9257 78.0523
10.9706 78.9286
11.0154 74.8989
11.0602 72.1268
11.105 71.7318
11.1499 76.5074
11.1947 84.992
11.2395 75.0708
11.2844 70.666
11.3292 66.8276
11.374 65.699
11.4189 65.191
11.4637 64.4062
11.5086 65.0361
11.5534 68.5848
11.5983 65.4815
11.6431 63.4666
11.688 62.5626
11.7328 62.2783
11.7777 62.2419
11.8225 61.7342
11.8674 62.0128
11.9122 62.5701
11.9571 62.302
12.002 62.9116
12.0468 66.1314
12.0917 76.6479
12.1366 99.2013
12.1814 149.174
12.2263 204.731
12.2712 171.599
12.3161 100.404
12.3609 71.1053
12.4058 64.4164
12.4507 63.6674
12.4956 64.1747
12.5405 64.1129
12.5853 65.3718
12.6302 73.7074
12.6751 79.8379
12.72 70.331
12.7649 67.3904
12.8098 67.9723
12.8547 69.1336
12.8996 70.3373
12.9445 71.608
12.9894 73.448
13.0343 74.9668
13.0792 77.7849
13.1242 85.2969
13.1691 106.767
13.214 141.524
13.2589 229.697
13.3038 371.269
13.3487 426.138
13.3937 268.903
13.4386 126.369
13.4835 102.287
13.5285 114.794
13.5734 150.793
13.6183 241.052
13.6633 344.558
13.7082 341.814
13.7531 187.812
13.7981 97.6975
13.843 81.1288
13.888 78.8251
13.9329 76.4123
13.9779 75.1539
14.0228 73.8973
14.0678 72.1377
14.1127 71.8953
14.1577 72.3107
14.2027 71.1301
14.2476 70.0362
14.2926 70.1646
14.3376 71.428
14.3825 69.8604
14.4275 68.3137
14.4725 68.1743
14.5175 68.2341
14.5624 68.5457
14.6074 70.9216
14.6524 71.407
14.6974 69.9366
14.7424 70.9319
14.7874 76.2823
14.8324 85.9008
14.8774 106.616
14.9224 149.454
14.9674 206.955
15.0124 222.248
15.0574 152.607
15.1024 92.374
15.1474 71.9933
15.1924 69.9582
15.2374 70.9526
15.2824 70.3459
15.3274 67.6985
15.3725 66.4441
15.4175 65.9193
15.4625 65.8687
15.5076 65.8147
15.5526 65.5892
15.5976 65.1251
15.6426 65.6234
15.6877 70.0714
15.7327 77.2947
15.7778 91.3549
15.8228 123.073
15.8679 168.461
15.9129 193.342
15.958 157.407
16.003 99.1846
16.0481 68.475
16.0931 64.6737
16.1382 62.6607
16.1833 60.4083
16.2283 58.6458
16.2734 58.0754
16.3185 58.6342
16.3636 59.3376
16.4086 57.8947
16.4537 55.998
16.4988 55.0678
16.5439 54.9614
16.589 54.8658
16.6341 54.4527
16.6792 54.2841
16.7243 54.5522
16.7694 54.8301
16.8145 54.655
16.8596 54.9822
16.9047 56.6385
16.9498 56.9365
16.9949 55.4223
17.04 55.3817
17.0851 56.4349
17.1302 57.8662
17.1754 60.6967
17.2205 65.9807
17.2656 73.9072
17.3108 82.9135
17.3559 82.3257
17.401 70.6096
17.4462 61.8086
17.4913 58.6243
17.5365 58.8753
17.5815 58.677
17.6268 59.0587
17.6718 59.8759
17.7171 60.4253
17.7622 60.7916
17.8074 61.4268
17.8525 63.0518
17.8977 66.9389
17.9428 71.7264
17.9881 80.3357
18.0331 97.1003
18.0784 119.577
18.1237 138.663
18.1688 130.717
18.214 103.207
18.2591 85.7372
18.3044 89.0222
18.3495 99.6219
18.3948 105.813
18.4399 96.2562
18.4852 77.633
18.5303 65.8845
18.5756 61.8518
18.6207 60.8261
18.666 59.9993
18.7112 59.1759
18.7565 58.5974
18.8016 58.1643
18.8469 57.6436
18.892 57.1388
18.9374 56.9251
18.9825 56.6454
19.0278 56.5295
19.073 56.5839
19.1183 56.9492
19.1635 57.6486
19.2088 58.8421
19.254 61.3389
19.2993 65.7043
19.3447 72.091
19.3898 76.4716
19.4352 72.0991
19.4804 63.3679
19.5257 56.6607
19.5709 53.9033
19.6163 53.712
19.6615 53.4052
19.7068 53.1202
19.752 52.8934
19.7974 53.0799
19.8426 53.9251
19.888 54.5818
19.9332 55.6008
19.9786 58.0905
20.0238 61.637
20.0692 66.6319
20.1144 69.1874
20.1598 67.8101
20.205 63.0056
20.2504 61.6925
20.2957 63.6885
20.3411 65.7328
20.3863 63.8052
20.4318 58.0873
20.477 53.5673
20.5224 51.5257
20.5677 50.8173
20.6131 49.8664
20.6586 49.2296
20.7038 49.2552
20.7493 48.7281
20.7945 48.6904
20.84 48.6009
20.8853 48.4495
20.9307 48.092
20.976 48.2518
21.0215 48.1813
21.0668 48.5659
21.1122 49.1337
21.1575 49.8903
21.203 50.7417
21.2483 51.0106
21.2938 51.2053
21.3391 49.7078
21.3846 48.6749
21.4299 48.1023
21.4754 48.1256
21.5207 48.2321
21.5662 48.3833
21.6116 48.6825
21.6571 49.3659
21.7024 50.3548
21.7479 51.9451
21.7933 54.5809
21.8388 58.429
21.8843 62.1879
21.9297 64.1459
21.9752 63.0552
22.0206 59.3688
22.0661 56.3465
22.1115 55.72
22.157 55.7291
22.2024 54.0637
22.248 51.313
22.2933 49.7156
22.3389 48.9398
22.3843 48.8406
22.4299 48.7147
22.4753 48.5785
22.5208 48.4232
22.5662 48.2381
22.6118 48.4312
22.6572 48.3192
22.7028 48.8118
22.7483 49.285
22.7939 49.8163
22.8393 51.4293
22.8849 53.6124
22.9303 55.584
22.9759 57.6044
23.0214 57.2639
23.067 54.4969
23.1126 51.0838
23.1581 48.7955
23.2037 48.4961
23.2492 48.4593
23.2948 48.4296
23.3403 48.542
23.3859 49.2015
23.4314 50.3377
23.477 52.257
23.5225 54.2864
23.5682 56.8623
23.6137 57.8077
23.6593 55.4984
23.7048 51.4699
23.7505 48.19
23.796 46.3174
23.8417 45.9221
23.8872 45.1991
23.9329 45.0133
23.9784 44.624
24.0241 44.5007
24.0697 44.0783
24.1154 43.7976
24.1609 43.7508
24.2066 43.5701
24.2522 43.5168
24.2979 43.2818
24.3434 43.221
24.3892 42.9739
24.4349 42.9012
24.4805 42.7327
24.5262 42.7594
24.5718 42.6034
24.6175 42.8809
24.6631 42.399
24.7089 42.2495
24.7545 42.2168
24.8002 41.9076
24.8458 42.0006
24.8916 41.5917
24.9372 41.9446
24.983 42.2239
25.0286 42.6076
25.0744 43.0337
25.12 43.5172
25.1658 44.1092
25.2114 44.4753
25.2572 44.5343
25.3029 44.6031
25.3487 44.7589
25.3943 44.3213
25.4402 43.3247
25.4858 42.2621
25.5316 41.2689
25.5773 40.7231
25.6231 40.6752
25.669 40.2612
25.7147 40.3217
25.7605 40.1126
25.8062 40.3307
25.8521 40.2528
25.8977 40.3613
25.9436 40.6151
25.9893 40.6383
26.0352 41.1249
26.0809 41.4002
26.1268 41.4147
26.1725 41.0807
26.2184 40.5882
26.2641 40.05
26.31 39.8737
26.3557 39.8476
26.4017 39.906
26.4474 40.0919
26.4933 40.4754
26.5391 40.9768
26.585 41.5
26.6308 41.8238
26.6767 41.8568
26.7225 41.8646
26.7684 41.2057
26.8142 40.6888
26.8601 40.2314
26.9059 39.7736
26.9519 39.2716
26.9979 38.9501
27.0437 38.7478
27.0896 38.4342
27.1354 38.6216
27.1814 38.361
27.2272 38.354
27.2732 38.2877
27.3191 38.0452
27.3651 38.3448
27.4109 38.1283
27.4569 38.4244
27.5027 38.2795
27.5488 38.2938
27.5946 38.1969
27.6407 38.102
27.6865 37.8027
27.7326 37.5242
27.7784 37.5394
27.8245 37.6213
27.8703 37.7856
27.9164 37.9657
27.9623 38.1805
28.0084 38.4612
28.0543 38.8447
28.1003 38.8327
28.1462 38.5551
28.1923 38.1584
28.2384 37.8052
28.2843 37.4582
28.3304 37.0531
28.3764 36.5623
28.4225 36.2788
28.4684 36.0669
28.5145 35.7623
28.5605 35.7219
28.6066 35.4825
28.6526 35.3641
28.6987 35.4988
28.7447 35.2708
28.7908 35.3189
28.8368 35.2228
28.8829 35.3023
28.9289 35.2391
28.9751 35.0705
29.0211 34.6345
29.0673 34.4205
29.1133 34.2986
29.1595 34.3193
29.2055 34.2017
29.2517 34.1852
29.2977 34.2023
29.3439 34.1026
29.3899 34.0809
29.4361 34.0923
29.4824 33.74
29.5284 33.572
29.5746 33.3063
29.6207 32.9685
29.6669 32.9047
29.713 32.7546
29.7593 32.7065
29.8053 32.6762
29.8516 32.6313
29.8977 32.6608
29.9439 32.5329
29.99 32.4036
30.0363 32.3031
30.0824 32.4191
30.1287 32.225
30.1748 32.2824
30.2211 32.2574
30.2673 32.0447
30.3136 32.1718
30.3597 32.0832
30.406 32.073
30.4522 31.8995
30.4985 31.8956
30.5447 31.9567
30.591 32.0417
30.6372 32.0197
30.6835 32.038
30.7297 32.1144
30.7761 32.041
30.8224 31.838
30.8686 31.6312
30.915 31.4061
30.9612 31.3263
31.0076 31.0734
31.0538 30.9344
31.1002 30.8455
31.1464 30.7903
31.1928 30.7995
31.2391 30.815
31.2855 30.7251
31.3317 30.6723
31.3781 30.6828
31.4244 30.7406
31.4708 30.5607
31.5171 30.589
31.5636 30.5919
31.6098 30.3697
31.6563 30.2176
31.7026 30.1075
31.7491 29.9294
31.7953 29.9695
31.8418 29.9233
31.8881 30.0146
31.9346 29.8783
31.9809 29.8678
32.0275 29.696
32.074 29.6771
32.1203 29.4439
32.1668 29.3713
32.2132 29.1905
32.2597 29.0748
32.306 29.0777
32.3526 28.805
32.399 28.8451
32.4455 28.6717
32.4919 28.4968
32.5385 28.5373
32.5848 28.4229
32.6314 28.3865
32.6778 28.2336
32.7244 28.1231
32.7708 27.9492
32.8174 28.0511
32.8638 27.8457
32.9104 27.9015
32.9569 27.8538
33.0035 27.7324
33.0499 27.6242
33.0966 27.7356
33.143 27.615
33.1897 27.5876
33.2361 27.4578
33.2828 27.4722
33.3293 27.2871
33.3759 27.1449
33.4226 27.061
33.4691 26.922
33.5158 26.9204
33.5623 26.752
33.609 26.61
33.6555 26.5825
33.7022 26.5284
33.7487 26.3807
33.7954 26.3647
33.842 26.1775
33.8887 26.1846
33.9353 26.1674
33.982 26.0567
34.0286 25.9335
34.0753 25.9061
34.1219 25.8439
34.1687 25.7557
34.2152 25.6195
34.262 25.5725
34.3086 25.4431
34.3554 25.3932
34.402 25.2579
34.4488 25.1869
34.4954 25.1659
34.5422 25.022
34.5889 24.9141
34.6357 24.7652
34.6825 24.7542
34.7292 24.665
34.776 24.5647
34.8227 24.6014
34.8695 24.5254
34.9162 24.4529
34.9631 24.3467
35.0098 24.3041
35.0566 24.1898
35.1033 24.1539
35.1502 24.1642
35.1969 24.0576
35.2438 24.0217
35.2906 24.0418
35.3375 23.847
35.3842 23.8401
35.4311 23.8321
35.4779 23.8783
35.5248 23.8395
35.5716 23.667
35.6185 23.553
35.6653 23.4608
35.7123 23.412
35.759 23.3342
35.806 23.2598
35.8528 23.1031
35.8998 23.0597
35.9468 22.9995
35.9936 22.9881
36.0406 22.92
36.0874 22.8916
36.1345 22.7226
36.1813 22.7234
36.2283 22.5714
36.2752 22.4626
36.3222 22.5042
36.3691 22.4643
36.4161 22.3463
36.463 22.4044
36.5101 22.2449
36.557 22.1851
36.6041 21.9762
36.651 22.0992
36.6981 22.0032
36.745 21.8907
36.7921 21.8137
36.839 21.7575
36.8861 21.727
36.9331 21.5615
36.9802 21.5433
37.0272 21.4701
37.0743 21.4181
37.1213 21.3758
37.1684 21.288
37.2154 21.2749
37.2626 21.1236
37.3098 21.1349
37.3568 20.9541
37.404 21.0115
37.451 20.8651
37.4982 20.833
37.5452 20.7365
37.5924 20.7225
37.6395 20.792
37.6867 20.6122
37.7337 20.5205
37.781 20.3909
37.8281 20.3802
37.8753 20.3088
37.9224 20.254
37.9697 20.1581
38.0168 20.0945
38.064 20.0137
38.1111 20.0451
38.1584 19.9296
38.2056 19.8766
38.2529 19.8798
38.3 19.7497
38.3473 19.7287
38.3945 19.5232
38.4418 19.57
38.489 19.5265
38.5363 19.4052
38.5837 19.3724
38.6309 19.3419
38.6782 19.276
38.7254 19.2031
38.7728 19.1263
38.82 18.9781
38.8674 18.9856
38.9146 18.9497
38.9621 18.8497
39.0093 18.8066
39.0567 18.8174
39.104 18.6641
39.1514 18.6509
39.1987 18.579
39.2461 18.4815
39.2934 18.4576
39.3409 18.3854
39.3882 18.3781
39.4356 18.2752
39.483 18.2331
39.5304 18.1134
39.5778 18.1607
39.6253 18.0895
39.6726 17.945
39.7201 17.923
39.7675 17.9551
39.815 17.9028
39.8624 17.786
39.9099 17.7403
39.9575 17.6769
40.0049 17.5743
40.0525 17.5539
40.0999 17.4547
40.1474 17.4566
40.1949 17.3882
40.2425 17.3133
40.2899 17.2594
40.3375 17.1956
40.385 17.2001
40.4326 17.0685
40.48 17.0703
40.5277 16.9761
40.5752 16.9542
40.6228 16.8411
40.6703 16.8597
40.718 16.7892
40.7655 16.7329
40.8132 16.66
40.8607 16.7003
40.9084 16.5867
40.9559 16.5324
41.0036 16.5045
41.0512 16.3964
41.0989 16.377
41.1465 16.3199
41.1942 16.3126
41.242 16.1711
41.2896 16.0818
41.3373 16.1099
41.3849 16.0444
41.4327 15.9661
41.4803 15.8702
41.5281 15.9193
41.5758 15.7946
41.6236 15.7442
41.6712 15.7363
41.7191 15.6407
41.7667 15.5906
41.8146 15.6114
41.8622 15.5485
41.9101 15.4785
41.9578 15.4044
42.0057 15.4018
42.0534 15.306
42.1013 15.2853
42.149 15.1907
42.1969 15.157
42.2446 15.1558
42.2925 15.0766
42.3403 15.0117
42.3882 14.9802
42.436 14.9408
42.4839 14.8341
42.5319 14.8684
42.5797 14.7495
42.6277 14.7103
42.6755 14.6625
42.7235 14.5689
42.7713 14.5281
42.8193 14.5207
42.8671 14.4658
42.9152 14.4004
42.963 14.4118
43.0111 14.2966
43.0589 14.2469
43.107 14.1652
43.1549 14.233
43.2029 14.0943
43.2508 14.0122
43.2989 13.9629
43.3468 13.9259
43.3949 13.9523
43.4429 13.8601
43.491 13.8943
43.5389 13.7563
43.5871 13.7547
43.635 13.6936
43.6832 13.6256
43.7312 13.5751
43.7793 13.4983
43.8273 13.4836
43.8755 13.416
43.9237 13.4007
43.9717 13.335
44.0199 13.3307
44.068 13.3261
44.1162 13.2158
44.1642 13.1726
44.2125 13.1101
44.2606 13.0951
44.3088 13.0402
44.3569 12.9933
44.4052 12.9766
44.4533 12.8955
44.5016 12.8105
44.5497 12.8089
44.598 12.7579
44.6461 12.6783
44.6945 12.6701
44.7426 12.6265
44.791 12.568
44.8391 12.539
44.8875 12.4682
44.9357 12.4235
44.984 12.429
45.0322 12.3652
45.0806 12.3171
45.1288 12.2814
45.1773 12.2464
45.2257 12.1929
45.2739 12.1811
45.3224 12.0934
45.3706 12.0676
45.4191 12.0368
45.4673 11.9818
45.5158 11.9175
45.5641 11.8717
45.6126 11.8476
45.6609 11.7619
45.7094 11.7359
45.7577 11.6961
45.8063 11.6549
45.8546 11.633
45.9031 11.5695
45.9515 11.5753
46.0001 11.486
46.0484 11.5086
46.097 11.4401
46.1454 11.3743
46.194 11.3665
46.2424 11.2616
46.291 11.2838
46.3395 11.2726
46.3881 11.1924
46.4365 11.1574
46.4852 11.1174
46.5337 11.0946
46.5823 11.0395
46.631 10.9706
46.6795 10.9623
46.7282 10.9668
46.7767 10.8815
46.8254 10.8372
46.8739 10.7862
46.9226 10.7203
46.9712 10.672
47.0199 10.6609
47.0685 10.633
47.1173 10.5418
47.1658 10.5164
47.2146 10.5263
47.2632 10.4565
47.312 10.442
47.3606 10.3982
47.4095 10.3456
47.4581 10.322
47.5069 10.2447
47.5556 10.2614
47.6044 10.2072
47.6531 10.1415
47.702 10.0982
47.7507 10.0456
47.7996 10.0311
47.8483 10.0484
47.8972 9.98792
47.9461 9.97405
47.9948 9.9218
48.0438 9.87668
48.0925 9.8653
48.1415 9.77299
48.1902 9.76441
48.2392 9.76508
48.288 9.69989
48.337 9.61774
48.3858 9.63983
48.4348 9.6225
48.4837 9.58657
48.5327 9.53629
48.5815 9.42181
48.6306 9.44915
48.6795 9.42858
48.7285 9.39084
48.7774 9.38684
48.8265 9.32988
48.8754 9.28029
48.9245 9.26658
48.9734 9.22515
49.0226 9.20241
49.0715 9.12324
49.1206 9.05286
49.1696 9.04425
49.2188 9.03924
49.2679 9.02833
49.3169 8.98507
49.3661 8.91914
49.4151 8.85548
49.4643 8.8607
49.5134 8.88317
49.5626 8.74355
49.6117 8.77246
49.6609 8.738
49.71 8.66537
49.7592 8.65785
49.8083 8.62588
49.8576 8.58709
49.9067 8.54024
49.956 8.52393
50.0052 8.48854
50.0545 8.4629
50.1036 8.44956
50.153 8.4007
50.2022 8.38248
50.2515 8.3352
50.3007 8.25506
50.3501 8.2702
50.3993 8.22146
50.4487 8.21086
50.498 8.14794
50.5474 8.13397
50.5966 8.09409
50.6461 8.09756
50.6955 8.04463
50.7448 8.00486
50.7943 7.98908
50.8436 7.96771
50.8931 7.92362
50.9424 7.92013
50.9919 7.88548
51.0413 7.86826
51.0908 7.79802
51.1402 7.77084
51.1897 7.74818
51.2391 7.69612
51.2887 7.65504
51.3381 7.59832
51.3877 7.61678
51.4371 7.59657
51.4867 7.52374
51.5362 7.55044
51.5858 7.5083
51.6353 7.43716
51.6849 7.40344
51.7344 7.3876
51.7841 7.38546
51.8336 7.31997
51.8833 7.33232
51.9328 7.28386
51.9826 7.22004
52.0323 7.24005
52.0818 7.17649
52.1316 7.14965
52.1812 7.12329
52.231 7.07664
52.2806 7.03681
52.3304 7.03623
52.38 7.02536
52.4298 6.9635
52.4794 6.95614
52.5293 6.93409
52.5789 6.88668
52.6288 6.88659
52.6785 6.82162
52.7284 6.8254
52.7781 6.79097
52.828 6.75462
52.8777 6.71695
52.9276 6.68924
52.9774 6.67511
53.0273 6.63562
53.0771 6.62596
53.1271 6.6306
53.1769 6.55546
53.2269 6.54389
53.2767 6.53597
53.3267 6.47126
53.3765 6.43386
53.4266 6.412
53.4766 6.40645
53.5265 6.36985
53.5765 6.30279
53.6264 6.28886
53.6765 6.26154
53.7264 6.27749
53.7765 6.23158
53.8265 6.18633
53.8766 6.16274
53.9266 6.14614
53.9767 6.11172
54.0267 6.11792
54.0769 6.00667
54.1269 6.05381
54.1771 5.997
54.2271 5.91202
54.2773 5.93602
54.3274 5.91053
54.3776 5.87728
54.4277 5.85505
54.478 5.75913
54.528 5.76131
54.5783 5.69741
54.6285 5.71552
54.6788 5.64116
54.7289 5.63687
54.7792 5.58406
54.8296 5.52554
54.8798 5.4809
54.9301 5.4358
54.9803 5.4164
55.0307 5.42125
55.0809 5.32787
55.1314 5.35921
55.1816 5.29157
55.232 5.24493
55.2823 5.24155
55.3328 5.12332
55.383 5.09182
55.4335 5.02441
55.4838 4.94891
55.5344 4.94012
55.5847 4.9253
55.6352 4.92132
55.6856 4.83801
55.7361 4.81895