File: XRD/Ni3Fe_FD0597.xy
TT I
1.27165 7.62037
1.31627 6.99766
1.36089 6.88316
1.40551 5.0875
1.45013 6.21899
1.49476 5.86063
1.53938 5.31691
1.584 5.32211
1.62863 4.79122
1.67325 5.294
1.71787 5.03129
1.7625 5.09032
1.80712 4.45506
1.85174 4.50058
1.89636 4.8682
1.94099 4.88038
1.98562 4.67709
2.03025 4.20203
2.07487 3.58966
2.11949 4.82639
2.16411 4.82148
2.20874 8.01982
2.25338 11.285
2.298 5.89926
2.34263 5.55548
2.38725 5.518
2.43188 5.85463
2.4765 6.20854
2.52115 6.82369
2.56577 7.08884
2.6104 8.12168
2.65503 7.21307
2.69965 8.05101
2.7443 8.5523
2.78893 7.58278
2.83356 8.24312
2.87818 8.60847
2.92281 8.82129
2.96744 9.73946
3.01209 10.4188
3.05672 10.929
3.10135 12.4643
3.14599 12.8092
3.19062 13.8997
3.23527 15.1092
3.2799 15.2173
3.32454 16.5183
3.36917 17.3856
3.4138 18.7222
3.45844 19.2394
3.50309 20.6547
3.54773 21.4507
3.59237 23.0295
3.637 49.368
3.68164 36.89
3.7263 25.4855
3.77094 25.5269
3.81558 26.5845
3.86022 27.4137
3.90486 28.7732
3.9495 29.7337
3.99416 30.5661
4.0388 31.8733
4.08344 32.7888
4.12809 34.4836
4.17273 36.2005
4.21738 39.1025
4.26204 120.597
4.30669 103.365
4.35133 44.2424
4.39598 43.9422
4.44063 48.7273
4.4853 54.3776
4.52995 55.5627
4.5746 56.2939
4.61925 54.0085
4.6639 55.7206
4.70855 58.8335
4.75322 62.1778
4.79788 68.2446
4.84253 69.0785
4.88719 74.8578
4.93184 77.2039
4.97652 82.0723
5.02118 88.6395
5.06583 96.8129
5.11049 109.315
5.15515 160.339
5.19981 481.198
5.24449 3249.87
5.28916 12333.1
5.33382 2729.74
5.37848 203.272
5.42315 132.769
5.46783 119.657
5.5125 111.894
5.55716 104.015
5.60183 99.6629
5.6465 97.4943
5.69117 96.0699
5.73586 93.9168
5.78053 98.176
5.8252 97.9865
5.86988 99.9976
5.91455 97.5777
5.95924 108.856
6.00392 278.257
6.0486 1107.88
6.09328 4364.83
6.13795 3310.45
6.18263 235.148
6.22733 93.082
6.27201 81.8652
6.3167 85.8783
6.36138 75.1761
6.40606 70.4225
6.45075 69.6986
6.49545 66.1812
6.54014 64.089
6.58483 63.3271
6.62952 62.9826
6.67421 73.909
6.71892 91.5885
6.76361 62.5709
6.8083 59.4085
6.853 59.2945
6.89769 57.1149
6.94239 56.4264
6.98711 56.0278
7.03181 56.1437
7.07651 55.2408
7.12121 54.725
7.16591 56.2945
7.21063 55.7124
7.25533 60.9272
7.30004 101.35
7.34475 68.3204
7.38945 55.1123
7.43416 54.1488
7.47889 54.3274
7.5236 54.679
7.56831 55.07
7.61303 56.2384
7.65774 56.4766
7.70247 57.0312
7.74719 56.6805
7.79191 56.7723
7.83663 57.1172
7.88135 58.1593
7.92607 58.9925
7.97081 60.0209
8.01553 61.2511
8.06026 63.0183
8.10498 64.3954
8.14971 70.7414
8.19446 70.841
8.23919 69.909
8.28392 72.3222
8.32865 74.8014
8.37339 79.5602
8.41812 85.1815
8.46288 106.301
8.50761 198.594
8.55235 438.483
8.59709 1262.4
8.64183 2201.16
8.68658 917.744
8.73134 155.909
8.77609 99.6221
8.82083 93.3305
8.86558 92.6566
8.91033 92.0466
8.9551 90.0252
8.99985 85.5029
9.04461 84.7153
9.08936 84.814
9.13412 83.5121
9.17888 82.9053
9.22365 83.3332
9.26841 82.9664
9.31318 85.3918
9.35794 86.3503
9.4027 85.8852
9.44749 85.7687
9.49226 85.2269
9.53703 86.3733
9.5818 89.8312
9.62657 93.7413
9.67134 95.8027
9.71614 93.8898
9.76091 95.8413
9.80569 99.897
9.85047 101.836
9.89525 113.455
9.94005 132.397
9.98484 211.158
10.0296 382.498
10.0744 878.908
10.1192 1733.79
10.164 1498.76
10.2088 360.911
10.2536 124.523
10.2984 110.735
10.3432 109.87
10.388 107.306
10.4328 127.836
10.4776 172.005
10.5224 301.322
10.5672 512.95
10.612 477.603
10.6568 187.707
10.7017 95.4024
10.7465 87.1065
10.7913 83.7093
10.8361 81.5402
10.8809 79.4088
10.9257 78.2334
10.9706 78.2738
11.0154 75.6946
11.0602 73.4417
11.105 72.0665
11.1499 72.7831
11.1947 74.7649
11.2395 70.9028
11.2844 68.8693
11.3292 67.5509
11.374 66.7394
11.4189 65.8955
11.4637 65.1571
11.5086 64.8328
11.5534 66.0756
11.5983 64.7638
11.6431 63.804
11.688 63.471
11.7328 63.3357
11.7777 63.1302
11.8225 63.0865
11.8674 62.9338
11.9122 62.9743
11.9571 63.6213
12.002 65.037
12.0468 70.8329
12.0917 81.8038
12.1366 107.262
12.1814 157.039
12.2263 203.226
12.2712 160.817
12.3161 89.5201
12.3609 67.2943
12.4058 64.5072
12.4507 64.7468
12.4956 65.1071
12.5405 65.1269
12.5853 65.7253
12.6302 68.8327
12.6751 71.3347
12.72 68.5093
12.7649 68.0477
12.8098 69.0315
12.8547 70.3783
12.8996 72.0396
12.9445 73.3156
12.9894 75.3611
13.0343 76.6832
13.0792 81.5912
13.1242 96.318
13.1691 117.628
13.214 158.55
13.2589 253.752
13.3038 377.045
13.3487 418.262
13.3937 250.272
13.4386 121.5
13.4835 111.465
13.5285 126.699
13.5734 169.075
13.6183 255.755
13.6633 349.621
13.7082 329.533
13.7531 179.267
13.7981 96.7736
13.843 82.1806
13.888 80.2685
13.9329 77.8118
13.9779 76.5157
14.0228 74.9807
14.0678 73.4478
14.1127 73.2432
14.1577 72.4499
14.2027 71.7821
14.2476 71.0584
14.2926 70.5144
14.3376 70.7699
14.3825 70.2805
14.4275 69.6989
14.4725 69.265
14.5175 69.4281
14.5624 69.5575
14.6074 70.4739
14.6524 71.1845
14.6974 71.5241
14.7424 75.0947
14.7874 82.4115
14.8324 92.8667
14.8774 116.587
14.9224 159.576
14.9674 211.006
15.0124 212.484
15.0574 143.077
15.1024 88.3765
15.1474 72.5378
15.1924 70.6651
15.2374 70.0657
15.2824 69.1658
15.3274 67.9559
15.3725 67.4639
15.4175 66.9373
15.4625 66.4026
15.5076 66.3179
15.5526 66.3574
15.5976 66.6481
15.6426 69.6101
15.6877 75.1437
15.7327 82.8314
15.7778 99.6653
15.8228 131.792
15.8679 174.567
15.9129 192.266
15.958 149.383
16.003 92.2166
16.0481 66.9909
16.0931 63.3789
16.1382 61.7807
16.1833 60.5597
16.2283 59.2739
16.2734 58.5313
16.3185 58.3599
16.3636 58.2257
16.4086 57.2253
16.4537 56.2796
16.4988 55.8881
16.5439 55.656
16.589 55.2325
16.6341 55.3718
16.6792 54.8887
16.7243 54.9793
16.7694 55.1049
16.8145 54.9556
16.8596 55.2816
16.9047 56.0386
16.9498 56.4537
16.9949 55.8031
17.04 56.5898
17.0851 58.025
17.1302 59.7118
17.1754 62.8326
17.2205 67.9848
17.2656 75.5102
17.3108 83.2145
17.3559 82.3927
17.401 71.2974
17.4462 62.4454
17.4913 59.7899
17.5365 59.3876
17.5815 59.7159
17.6268 60.089
17.6718 60.7786
17.7171 61.2937
17.7622 61.8649
17.8074 63.2674
17.8525 66.2929
17.8977 69.9732
17.9428 75.6142
17.9881 85.8813
18.0331 103.375
18.0784 124.358
18.1237 141.372
18.1688 131.416
18.214 102.191
18.2591 87.1663
18.3044 92.3441
18.3495 101.346
18.3948 106.062
18.4399 94.8464
18.4852 76.4247
18.5303 65.6125
18.5756 62.4418
18.6207 61.5967
18.666 60.7469
18.7112 60.0063
18.7565 59.4919
18.8016 59.0975
18.8469 58.5448
18.892 58.1762
18.9374 57.7838
18.9825 57.4702
19.0278 57.044
19.073 57.4868
19.1183 57.8783
19.1635 58.5808
19.2088 60.2494
19.254 63.0113
19.2993 67.5364
19.3447 72.8116
19.3898 75.9402
19.4352 71.3915
19.4804 62.7718
19.5257 56.866
19.5709 54.5419
19.6163 54.0963
19.6615 54.1233
19.7068 53.5812
19.752 53.796
19.7974 54.3302
19.8426 54.9593
19.888 55.4237
19.9332 56.942
19.9786 59.7771
20.0238 63.3383
20.0692 68.0272
20.1144 70.2173
20.1598 68.1397
20.205 63.8801
20.2504 62.6035
20.2957 64.3232
20.3411 65.6972
20.3863 63.9134
20.4318 58.022
20.477 53.4378
20.5224 51.3855
20.5677 50.8792
20.6131 50.4625
20.6586 49.9423
20.7038 49.813
20.7493 49.3918
20.7945 49.22
20.84 49.1573
20.8853 49.1634
20.9307 48.9928
20.976 49.0941
21.0215 48.8998
21.0668 49.562
21.1122 49.9836
21.1575 50.4937
21.203 51.2043
21.2483 51.7944
21.2938 51.678
21.3391 50.2157
21.3846 49.1195
21.4299 48.7517
21.4754 48.6674
21.5207 48.9886
21.5662 49.4028
21.6116 49.8175
21.6571 50.5252
21.7024 51.5954
21.7479 53.4301
21.7933 56.2478
21.8388 59.6424
21.8843 63.3209
21.9297 65.0481
21.9752 63.151
22.0206 59.5447
22.0661 56.6187
22.1115 56.3575
22.157 56.3457
22.2024 54.4711
22.248 51.5777
22.2933 49.9429
22.3389 49.2726
22.3843 49.2057
22.4299 48.9685
22.4753 49.0202
22.5208 48.857
22.5662 48.9096
22.6118 49.1647
22.6572 49.3753
22.7028 49.8277
22.7483 50.2331
22.7939 51.0168
22.8393 52.6282
22.8849 54.7297
22.9303 56.7268
22.9759 58.1134
23.0214 57.3666
23.067 54.3096
23.1126 51.0955
23.1581 49.3393
23.2037 49.1388
23.2492 49.3328
23.2948 49.3106
23.3403 49.6163
23.3859 50.2794
23.4314 51.5748
23.477 53.4332
23.5225 55.2684
23.5682 57.4208
23.6137 58.1172
23.6593 55.4533
23.7048 51.4145
23.7505 48.2114
23.796 46.8215
23.8417 46.3429
23.8872 45.878
23.9329 45.5329
23.9784 45.1008
24.0241 44.8534
24.0697 44.7943
24.1154 44.3836
24.1609 44.3484
24.2066 44.114
24.2522 43.9186
24.2979 43.5238
24.3434 43.5896
24.3892 43.3641
24.4349 43.4467
24.4805 43.2791
24.5262 43.3116
24.5718 43.2407
24.6175 43.1456
24.6631 43.022
24.7089 42.7364
24.7545 42.6825
24.8002 42.4925
24.8458 42.4008
24.8916 42.2706
24.9372 42.5218
24.983 42.8147
25.0286 43.2314
25.0744 43.7192
25.12 44.0511
25.1658 44.6759
25.2114 45.0317
25.2572 45.1752
25.3029 45.089
25.3487 45.112
25.3943 44.7541
25.4402 43.5811
25.4858 42.5034
25.5316 41.6767
25.5773 41.0614
25.6231 41.1794
25.669 40.7988
25.7147 40.8757
25.7605 40.6518
25.8062 40.7427
25.8521 40.915
25.8977 40.7606
25.9436 41.2321
25.9893 41.2557
26.0352 41.678
26.0809 41.8248
26.1268 41.9072
26.1725 41.6683
26.2184 40.9728
26.2641 40.4724
26.31 40.3154
26.3557 40.3526
26.4017 40.5034
26.4474 40.7102
26.4933 41.1807
26.5391 41.5507
26.585 42.0249
26.6308 42.3248
26.6767 42.4494
26.7225 42.0546
26.7684 41.5445
26.8142 41.001
26.8601 40.554
26.9059 40.2244
26.9519 39.7108
26.9979 39.2694
27.0437 39.1551
27.0896 39.02
27.1354 39.0284
27.1814 38.8913
27.2272 38.8574
27.2732 38.8275
27.3191 38.5821
27.3651 38.7754
27.4109 38.6132
27.4569 38.8126
27.5027 38.7722
27.5488 38.7722
27.5946 38.6764
27.6407 38.5148
27.6865 38.3109
27.7326 38.1994
27.7784 38.1742
27.8245 38.1471
27.8703 38.1951
27.9164 38.5074
27.9623 38.5932
28.0084 39.0509
28.0543 39.4293
28.1003 39.37
28.1462 39.0441
28.1923 38.6332
28.2384 38.0901
28.2843 37.7728
28.3304 37.2519
28.3764 36.811
28.4225 36.5289
28.4684 36.4818
28.5145 36.2188
28.5605 36.0787
28.6066 35.9362
28.6526 35.8256
28.6987 35.9515
28.7447 35.7574
28.7908 35.5657
28.8368 35.6291
28.8829 35.7176
28.9289 35.5312
28.9751 35.3294
29.0211 35.0969
29.0673 34.9574
29.1133 34.7026
29.1595 34.7673
29.2055 34.561
29.2517 34.5201
29.2977 34.4446
29.3439 34.4883
29.3899 34.4811
29.4361 34.3646
29.4824 34.1187
29.5284 33.935
29.5746 33.5663
29.6207 33.3505
29.6669 33.3719
29.713 33.1054
29.7593 33.1099
29.8053 33.1021
29.8516 32.9783
29.8977 32.9827
29.9439 32.8588
29.99 32.8362
30.0363 32.7084
30.0824 32.667
30.1287 32.6954
30.1748 32.6324
30.2211 32.6423
30.2673 32.4907
30.3136 32.6073
30.3597 32.4644
30.406 32.4024
30.4522 32.3412
30.4985 32.1817
30.5447 32.3406
30.591 32.3959
30.6372 32.3528
30.6835 32.3904
30.7297 32.4997
30.7761 32.3589
30.8224 32.1885
30.8686 32.0507
30.915 31.7338
30.9612 31.7048
31.0076 31.4804
31.0538 31.3209
31.1002 31.2895
31.1464 31.1797
31.1928 31.141
31.2391 31.1092
31.2855 31.1265
31.3317 31.0596
31.3781 31.206
31.4244 31.1968
31.4708 31.0169
31.5171 31.0356
31.5636 31.0295
31.6098 30.7029
31.6563 30.5143
31.7026 30.4674
31.7491 30.3425
31.7953 30.4884
31.8418 30.3856
31.8881 30.3314
31.9346 30.2672
31.9809 30.3268
32.0275 30.0647
32.074 29.9359
32.1203 29.8461
32.1668 29.759
32.2132 29.6149
32.2597 29.4067
32.306 29.308
32.3526 29.1024
32.399 29.0733
32.4455 28.9827
32.4919 28.9461
32.5385 28.8315
32.5848 28.6828
32.6314 28.6974
32.6778 28.5723
32.7244 28.4109
32.7708 28.3027
32.8174 28.3179
32.8638 28.0859
32.9104 28.232
32.9569 28.2042
33.0035 28.0313
33.0499 28.0687
33.0966 28.0177
33.143 27.9418
33.1897 27.8865
33.2361 27.7826
33.2828 27.8018
33.3293 27.6429
33.3759 27.4975
33.4226 27.3807
33.4691 27.2748
33.5158 27.1927
33.5623 27.0962
33.609 26.8778
33.6555 26.8517
33.7022 26.7549
33.7487 26.588
33.7954 26.6883
33.842 26.5233
33.8887 26.4557
33.9353 26.3183
33.982 26.3581
34.0286 26.2244
34.0753 26.0872
34.1219 26.0227
34.1687 26.009
34.2152 25.9319
34.262 25.7653
34.3086 25.6833
34.3554 25.6348
34.402 25.5629
34.4488 25.4875
34.4954 25.3486
34.5422 25.3416
34.5889 25.1916
34.6357 25.0786
34.6825 25.0837
34.7292 24.9184
34.776 24.9107
34.8227 24.8143
34.8695 24.7723
34.9162 24.6965
34.9631 24.6791
35.0098 24.57
35.0566 24.4768
35.1033 24.4055
35.1502 24.4004
35.1969 24.4021
35.2438 24.2545
35.2906 24.2703
35.3375 24.1465
35.3842 24.0802
35.4311 24.16
35.4779 24.1327
35.5248 24.0736
35.5716 23.8986
35.6185 23.8685
35.6653 23.6855
35.7123 23.6192
35.759 23.574
35.806 23.475
35.8528 23.3808
35.8998 23.3055
35.9468 23.2537
35.9936 23.1888
36.0406 23.1545
36.0874 23.1303
36.1345 23.0398
36.1813 22.924
36.2283 22.8359
36.2752 22.7132
36.3222 22.7689
36.3691 22.6149
36.4161 22.5608
36.463 22.551
36.5101 22.5578
36.557 22.477
36.6041 22.3004
36.651 22.289
36.6981 22.191
36.745 22.2135
36.7921 22.0764
36.839 21.9775
36.8861 21.9267
36.9331 21.8377
36.9802 21.7733
37.0272 21.7504
37.0743 21.6139
37.1213 21.6265
37.1684 21.503
37.2154 21.4519
37.2626 21.421
37.3098 21.3371
37.3568 21.2637
37.404 21.2827
37.451 21.0945
37.4982 21.0402
37.5452 20.9815
37.5924 20.9223
37.6395 20.9241
37.6867 20.8586
37.7337 20.7117
37.781 20.6509
37.8281 20.5982
37.8753 20.5189
37.9224 20.407
37.9697 20.4381
38.0168 20.3376
38.064 20.2484
38.1111 20.1982
38.1584 20.1266
38.2056 20.1028
38.2529 20.0011
38.3 19.9661
38.3473 19.9422
38.3945 19.7656
38.4418 19.7701
38.489 19.7186
38.5363 19.6137
38.5837 19.623
38.6309 19.506
38.6782 19.4683
38.7254 19.4072
38.7728 19.2762
38.82 19.2409
38.8674 19.2607
38.9146 19.1021
38.9621 19.0833
39.0093 19.0664
39.0567 18.9482
39.104 18.9748
39.1514 18.8621
39.1987 18.7851
39.2461 18.7394
39.2934 18.6783
39.3409 18.543
39.3882 18.5072
39.4356 18.4458
39.483 18.4491
39.5304 18.3523
39.5778 18.3429
39.6253 18.2294
39.6726 18.1302
39.7201 18.1868
39.7675 18.071
39.815 18.0059
39.8624 17.8703
39.9099 17.9166
39.9575 17.817
40.0049 17.765
40.0525 17.7596
40.0999 17.6245
40.1474 17.6006
40.1949 17.5056
40.2425 17.4941
40.2899 17.449
40.3375 17.4211
40.385 17.3137
40.4326 17.2564
40.48 17.2274
40.5277 17.1443
40.5752 17.1006
40.6228 17.0275
40.6703 17.0031
40.718 16.9356
40.7655 16.9484
40.8132 16.8573
40.8607 16.8278
40.9084 16.7703
40.9559 16.6686
41.0036 16.6751
41.0512 16.5817
41.0989 16.6106
41.1465 16.5044
41.1942 16.4499
41.242 16.393
41.2896 16.2857
41.3373 16.2796
41.3849 16.217
41.4327 16.1514
41.4803 16.0828
41.5281 16.0173
41.5758 15.97
41.6236 15.9158
41.6712 15.8785
41.7191 15.7685
41.7667 15.8234
41.8146 15.7643
41.8622 15.677
41.9101 15.6011
41.9578 15.5483
42.0057 15.4792
42.0534 15.4024
42.1013 15.4445
42.149 15.3513
42.1969 15.2368
42.2446 15.2335
42.2925 15.209
42.3403 15.1714
42.3882 15.1189
42.436 15.0578
42.4839 15.0091
42.5319 14.961
42.5797 14.9171
42.6277 14.8655
42.6755 14.819
42.7235 14.6905
42.7713 14.6799
42.8193 14.654
42.8671 14.5759
42.9152 14.5176
42.963 14.5055
43.0111 14.4245
43.0589 14.3794
43.107 14.3735
43.1549 14.3005
43.2029 14.2324
43.2508 14.2542
43.2989 14.1077
43.3468 14.1001
43.3949 14.0462
43.4429 14.0446
43.491 13.9659
43.5389 13.8594
43.5871 13.8567
43.635 13.8284
43.6832 13.7852
43.7312 13.7184
43.7793 13.6647
43.8273 13.6099
43.8755 13.5626
43.9237 13.5283
43.9717 13.535
44.0199 13.452
44.068 13.3853
44.1162 13.3279
44.1642 13.3042
44.2125 13.2686
44.2606 13.2068
44.3088 13.1467
44.3569 13.1122
44.4052 13.0634
44.4533 13.0093
44.5016 12.964
44.5497 12.9867
44.598 12.8629
44.6461 12.8563
44.6945 12.7767
44.7426 12.7606
44.791 12.7063
44.8391 12.6637
44.8875 12.5915
44.9357 12.556
44.984 12.5193
45.0322 12.4934
45.0806 12.4472
45.1288 12.4022
45.1773 12.2992
45.2257 12.289
45.2739 12.3006
45.3224 12.232
45.3706 12.1766
45.4191 12.132
45.4673 12.0691
45.5158 12.0623
45.5641 11.9988
45.6126 11.9712
45.6609 11.944
45.7094 11.864
45.7577 11.8381
45.8063 11.7481
45.8546 11.8057
45.9031 11.6978
45.9515 11.6431
46.0001 11.6056
46.0484 11.5771
46.097 11.5534
46.1454 11.4862
46.194 11.4736
46.2424 11.4447
46.291 11.3618
46.3395 11.3651
46.3881 11.2797
46.4365 11.3019
46.4852 11.2444
46.5337 11.1583
46.5823 11.1714
46.631 11.0855
46.6795 11.045
46.7282 11.0225
46.7767 10.969
46.8254 10.9443
46.8739 10.9019
46.9226 10.8519
46.9712 10.8134
47.0199 10.7754
47.0685 10.7539
47.1173 10.695
47.1658 10.6996
47.2146 10.6222
47.2632 10.5964
47.312 10.5315
47.3606 10.4912
47.4095 10.4395
47.4581 10.4106
47.5069 10.3534
47.5556 10.3383
47.6044 10.3297
47.6531 10.228
47.702 10.2058
47.7507 10.2093
47.7996 10.1746
47.8483 10.0833
47.8972 10.0927
47.9461 10.0332
47.9948 10.0206
48.0438 9.95815
48.0925 9.91964
48.1415 9.86714
48.1902 9.78459
48.2392 9.86244
48.288 9.80964
48.337 9.76191
48.3858 9.77678
48.4348 9.67013
48.4837 9.7127
48.5327 9.6182
48.5815 9.56611
48.6306 9.53536
48.6795 9.49077
48.7285 9.47359
48.7774 9.40923
48.8265 9.39929
48.8754 9.34995
48.9245 9.31595
48.9734 9.30945
49.0226 9.26281
49.0715 9.2219
49.1206 9.20689
49.1696 9.16965
49.2188 9.10205
49.2679 9.08815
49.3169 9.07838
49.3661 9.02176
49.4151 9.0047
49.4643 8.9678
49.5134 8.91666
49.5626 8.84443
49.6117 8.82978
49.6609 8.80926
49.71 8.75817
49.7592 8.74606
49.8083 8.69785
49.8576 8.66548
49.9067 8.62208
49.956 8.60284
50.0052 8.56202
50.0545 8.52514
50.1036 8.51645
50.153 8.51094
50.2022 8.44961
50.2515 8.4286
50.3007 8.35582
50.3501 8.32425
50.3993 8.30342
50.4487 8.27897
50.498 8.26791
50.5474 8.2361
50.5966 8.17327
50.6461 8.14868
50.6955 8.12506
50.7448 8.08781
50.7943 8.08512
50.8436 8.03241
50.8931 7.9937
50.9424 7.98447
50.9919 7.92628
51.0413 7.91796
51.0908 7.83986
51.1402 7.83608
51.1897 7.79916
51.2391 7.77177
51.2887 7.7448
51.3381 7.70093
51.3877 7.66999
51.4371 7.62138
51.4867 7.63519
51.5362 7.57666
51.5858 7.53025
51.6353 7.49057
51.6849 7.49937
51.7344 7.45592
51.7841 7.46618
51.8336 7.37819
51.8833 7.3702
51.9328 7.34696
51.9826 7.27948
52.0323 7.28304
52.0818 7.25583
52.1316 7.18274
52.1812 7.21333
52.231 7.14321
52.2806 7.1305
52.3304 7.08182
52.38 7.05222
52.4298 7.0312
52.4794 6.99263
52.5293 6.93095
52.5789 6.92578
52.6288 6.93844
52.6785 6.87927
52.7284 6.88984
52.7781 6.81576
52.828 6.7812
52.8777 6.7891
52.9276 6.76215
52.9774 6.7131
53.0273 6.68556
53.0771 6.67055
53.1271 6.64603
53.1769 6.62117
53.2269 6.59114
53.2767 6.57737
53.3267 6.5528
53.3765 6.50487
53.4266 6.46628
53.4766 6.42239
53.5265 6.36756
53.5765 6.39671
53.6264 6.3734
53.6765 6.31889
53.7264 6.32445
53.7765 6.27941
53.8265 6.24878
53.8766 6.21858
53.9266 6.20167
53.9767 6.16651
54.0267 6.14149
54.0769 6.09265
54.1269 6.097
54.1771 6.02467
54.2271 6.02255
54.2773 6.01708
54.3274 5.99593
54.3776 5.97448
54.4277 5.92157
54.478 5.87089
54.528 5.81451
54.5783 5.84305
54.6285 5.72433
54.6788 5.71033
54.7289 5.68152
54.7792 5.61041
54.8296 5.5604
54.8798 5.56823
54.9301 5.50969
54.9803 5.5027
55.0307 5.46168
55.0809 5.38619
55.1314 5.3806
55.1816 5.34154
55.232 5.2766
55.2823 5.20911
55.3328 5.18436
55.383 5.13006
55.4335 5.08345
55.4838 5.0804
55.5344 4.94979
55.5847 4.93677
55.6352 4.92655
55.6856 4.88736
55.7361 4.84138