File: XRD/Ni3Fe_FD1031.xy
TT I
1.27165 6.56923
1.31627 6.00369
1.36089 6.61232
1.40551 6.05084
1.45013 5.82275
1.49476 5.56665
1.53938 5.30981
1.584 5.09998
1.62863 4.89609
1.67325 4.68483
1.71787 4.36985
1.7625 3.99864
1.80712 4.51455
1.85174 4.41597
1.89636 4.86556
1.94099 4.85734
1.98562 3.97107
2.03025 4.38559
2.07487 4.18884
2.11949 4.01625
2.16411 4.46341
2.20874 5.12709
2.25338 6.43553
2.298 5.45277
2.34263 4.9364
2.38725 6.05419
2.43188 7.23817
2.4765 6.52927
2.52115 7.79435
2.56577 7.98385
2.6104 8.49168
2.65503 8.52193
2.69965 8.3428
2.7443 8.64214
2.78893 8.17385
2.83356 9.38565
2.87818 9.20688
2.92281 8.98236
2.96744 9.31061
3.01209 10.0535
3.05672 11.4461
3.10135 11.7772
3.14599 12.9082
3.19062 14.0724
3.23527 14.6709
3.2799 15.6083
3.32454 16.4285
3.36917 17.2153
3.4138 18.4713
3.45844 19.0019
3.50309 19.9641
3.54773 20.3774
3.59237 21.3588
3.637 28.0312
3.68164 27.3108
3.7263 24.1368
3.77094 24.5786
3.81558 25.2593
3.86022 26.2653
3.90486 27.4127
3.9495 28.3215
3.99416 28.8305
4.0388 30.5489
4.08344 31.6699
4.12809 32.602
4.17273 34.1273
4.21738 35.3829
4.26204 52.1585
4.30669 57.6053
4.35133 40.9584
4.39598 40.593
4.44063 43.0694
4.4853 46.1592
4.52995 46.5341
4.5746 48.2786
4.61925 50.2242
4.6639 52.6604
4.70855 54.7957
4.75322 57.8226
4.79788 60.2923
4.84253 64.0067
4.88719 67.444
4.93184 71.4936
4.97652 76.2857
5.02118 82.8197
5.06583 88.8121
5.11049 96.9022
5.15515 116.863
5.19981 227.683
5.24449 2418.42
5.28916 13436.7
5.33382 3370.26
5.37848 222.526
5.42315 124.394
5.46783 107.783
5.5125 100.14
5.55716 97.0076
5.60183 92.8646
5.6465 90.8331
5.69117 89.2852
5.73586 86.9678
5.78053 86.5579
5.8252 85.8933
5.86988 86.2585
5.91455 88.1052
5.95924 94.5434
6.00392 160.192
6.0486 861.318
6.09328 4502.29
6.13795 3546.04
6.18263 244.01
6.22733 87.0657
6.27201 75.4026
6.3167 72.4071
6.36138 68.2672
6.40606 64.7222
6.45075 63.0227
6.49545 61.2583
6.54014 59.8152
6.58483 58.7615
6.62952 57.5873
6.67421 58.7238
6.71892 64.2449
6.76361 56.4732
6.8083 54.124
6.853 53.5566
6.89769 53.1155
6.94239 52.9974
6.98711 52.3328
7.03181 51.9403
7.07651 52.0315
7.12121 51.5966
7.16591 51.5079
7.21063 51.1281
7.25533 51.6358
7.30004 61.7595
7.34475 56.0767
7.38945 51.6538
7.43416 50.8398
7.47889 51.4869
7.5236 60.3773
7.56831 78.0394
7.61303 57.8606
7.65774 52.5873
7.70247 52.7828
7.74719 52.8625
7.79191 53.5902
7.83663 53.6134
7.88135 54.1948
7.92607 55.163
7.97081 56.4389
8.01553 57.354
8.06026 58.2113
8.10498 59.6514
8.14971 61.9163
8.19446 63.5367
8.23919 65.5029
8.28392 67.5644
8.32865 69.7927
8.37339 73.2593
8.41812 77.3303
8.46288 85.5862
8.50761 125.623
8.55235 358.083
8.59709 1060.13
8.64183 2241.6
8.68658 1101.43
8.73134 177.274
8.77609 94.8526
8.82083 88.2689
8.86558 84.637
8.91033 83.2919
8.9551 81.8239
8.99985 80.298
9.04461 79.7574
9.08936 79.0449
9.13412 78.9003
9.17888 79.1579
9.22365 93.5889
9.26841 120.733
9.31318 91.0956
9.35794 80.1132
9.4027 79.4756
9.44749 79.7414
9.49226 80.8168
9.53703 81.4626
9.5818 82.956
9.62657 83.7648
9.67134 85.855
9.71614 86.9302
9.76091 88.5895
9.80569 90.998
9.85047 93.3396
9.89525 98.2772
9.94005 105.506
9.98484 144.642
10.0296 336.771
10.0744 750.016
10.1192 1742.33
10.164 1681.96
10.2088 449.718
10.2536 126.309
10.2984 102.845
10.3432 100.271
10.388 97.2982
10.4328 106.428
10.4776 156.787
10.5224 262.533
10.5672 501.951
10.612 539.458
10.6568 226.483
10.7017 105.73
10.7465 86.8434
10.7913 79.6309
10.8361 77.2064
10.8809 74.7802
10.9257 73.0784
10.9706 72.3749
11.0154 70.211
11.0602 68.8486
11.105 67.8472
11.1499 66.682
11.1947 66.895
11.2395 65.4664
11.2844 64.387
11.3292 63.5
11.374 62.6703
11.4189 62.4854
11.4637 61.4391
11.5086 60.9945
11.5534 60.8619
11.5983 60.3985
11.6431 60.2563
11.688 59.5587
11.7328 59.6202
11.7777 59.5357
11.8225 59.5702
11.8674 59.5435
11.9122 61.9991
11.9571 69.7105
12.002 67.5713
12.0468 64.0891
12.0917 75.8253
12.1366 97.2301
12.1814 145.69
12.2263 205.491
12.2712 174.99
12.3161 95.5591
12.3609 64.0599
12.4058 60.9169
12.4507 60.8702
12.4956 61.1481
12.5405 61.1892
12.5853 61.5954
12.6302 62.0761
12.6751 63.7186
12.72 63.4629
12.7649 64.1287
12.8098 64.714
12.8547 65.8465
12.8996 67.4335
12.9445 68.793
12.9894 70.5569
13.0343 72.2106
13.0792 76.4657
13.1242 82.2679
13.1691 105.954
13.214 143.785
13.2589 223.188
13.3038 361.022
13.3487 440.207
13.3937 282.62
13.4386 127.762
13.4835 98.3055
13.5285 117.867
13.5734 153.043
13.6183 232.884
13.6633 352.109
13.7082 363.37
13.7531 208.706
13.7981 100.859
13.843 79.2105
13.888 76.4353
13.9329 74.2076
13.9779 73.1385
14.0228 71.6128
14.0678 70.4029
14.1127 71.8429
14.1577 76.0689
14.2027 74.4141
14.2476 68.7501
14.2926 66.8546
14.3376 66.8542
14.3825 66.4676
14.4275 65.8816
14.4725 65.9047
14.5175 65.9701
14.5624 66.0678
14.6074 66.0647
14.6524 66.6969
14.6974 66.9659
14.7424 68.1116
14.7874 74.1081
14.8324 87.1645
14.8774 107.343
14.9224 145.647
14.9674 206.732
15.0124 228.633
15.0574 161.35
15.1024 94.0864
15.1474 70.9678
15.1924 67.3645
15.2374 66.1207
15.2824 65.5847
15.3274 64.5213
15.3725 64.0315
15.4175 63.673
15.4625 63.2368
15.5076 62.9814
15.5526 62.9902
15.5976 62.8083
15.6426 63.2374
15.6877 67.919
15.7327 78.277
15.7778 92.2458
15.8228 120.329
15.8679 167.109
15.9129 200.705
15.958 167.777
16.003 103.402
16.0481 69.7089
16.0931 62.9126
16.1382 59.7207
16.1833 58.0189
16.2283 56.6227
16.2734 56.0211
16.3185 55.2127
16.3636 54.8604
16.4086 54.0488
16.4537 53.5272
16.4988 53.0985
16.5439 53.109
16.589 52.8677
16.6341 52.6777
16.6792 52.2886
16.7243 52.3252
16.7694 52.3419
16.8145 52.5258
16.8596 52.5196
16.9047 53.4322
16.9498 54.2225
16.9949 53.7989
17.04 53.4713
17.0851 54.3019
17.1302 56.6379
17.1754 59.6593
17.2205 64.1627
17.2656 71.7349
17.3108 81.5116
17.3559 82.5852
17.401 71.7399
17.4462 61.113
17.4913 57.312
17.5365 56.8536
17.5815 56.917
17.6268 57.3362
17.6718 57.837
17.7171 58.4397
17.7622 59.6157
17.8074 60.5198
17.8525 61.267
17.8977 65.926
17.9428 72.3475
17.9881 80.7696
18.0331 96.2501
18.0784 120.025
18.1237 141.474
18.1688 137.325
18.214 109.108
18.2591 87.8095
18.3044 88.0167
18.3495 98.5946
18.3948 106.693
18.4399 97.6934
18.4852 79.3033
18.5303 65.4471
18.5756 61.2589
18.6207 59.899
18.666 58.5117
18.7112 57.6139
18.7565 57.0541
18.8016 56.81
18.8469 56.0571
18.892 55.7531
18.9374 55.3717
18.9825 55.0569
19.0278 54.6848
19.073 54.7325
19.1183 54.9706
19.1635 55.9164
19.2088 57.5709
19.254 60.0071
19.2993 65.1663
19.3447 71.8561
19.3898 75.9493
19.4352 72.1014
19.4804 63.1867
19.5257 55.8673
19.5709 52.6555
19.6163 52.1702
19.6615 51.8043
19.7068 51.5733
19.752 51.5408
19.7974 51.5544
19.8426 52.292
19.888 53.4314
19.9332 54.58
19.9786 57.0329
20.0238 60.5029
20.0692 66.0119
20.1144 70.229
20.1598 68.8171
20.205 63.6538
20.2504 61.2754
20.2957 63.0204
20.3411 65.1947
20.3863 64.0287
20.4318 58.0213
20.477 52.6906
20.5224 49.7062
20.5677 49.0111
20.6131 48.4252
20.6586 48.0733
20.7038 47.9765
20.7493 47.8625
20.7945 47.841
20.84 47.644
20.8853 47.2063
20.9307 47.0354
20.976 47.2358
21.0215 47.0545
21.0668 47.4621
21.1122 47.9072
21.1575 48.5072
21.203 49.1395
21.2483 50.1308
21.2938 50.3915
21.3391 48.9875
21.3846 47.474
21.4299 47.0861
21.4754 47.1137
21.5207 47.1766
21.5662 47.4813
21.6116 47.5074
21.6571 48.5002
21.7024 49.4979
21.7479 51.3173
21.7933 53.6935
21.8388 57.4338
21.8843 62.3652
21.9297 65.137
21.9752 63.7707
22.0206 59.8154
22.0661 56.1416
22.1115 55.8506
22.157 55.8176
22.2024 54.3255
22.248 50.889
22.2933 48.802
22.3389 47.8218
22.3843 47.361
22.4299 47.3105
22.4753 47.3109
22.5208 47.1042
22.5662 47.2115
22.6118 47.3457
22.6572 47.4642
22.7028 47.927
22.7483 48.5858
22.7939 49.5402
22.8393 50.9312
22.8849 52.9447
22.9303 55.4705
22.9759 57.6239
23.0214 57.4553
23.067 54.5235
23.1126 50.6508
23.1581 48.4425
23.2037 47.6335
23.2492 47.2742
23.2948 47.7035
23.3403 48.1824
23.3859 48.9363
23.4314 50.0381
23.477 51.7527
23.5225 54.1045
23.5682 57.0352
23.6137 58.2107
23.6593 56.2136
23.7048 52.0722
23.7505 47.9115
23.796 45.7437
23.8417 45.05
23.8872 44.4343
23.9329 44.1237
23.9784 43.8002
24.0241 43.4302
24.0697 43.34
24.1154 42.8181
24.1609 42.7136
24.2066 42.5994
24.2522 42.4736
24.2979 42.2613
24.3434 42.1334
24.3892 41.9289
24.4349 41.7886
24.4805 41.7324
24.5262 41.9279
24.5718 41.8128
24.6175 41.9507
24.6631 41.7252
24.7089 41.5104
24.7545 41.3015
24.8002 41.0481
24.8458 40.9485
24.8916 40.9232
24.9372 41.0517
24.983 41.4018
25.0286 41.6772
25.0744 42.1674
25.12 42.9867
25.1658 43.6791
25.2114 44.0196
25.2572 44.0435
25.3029 44.1965
25.3487 44.3846
25.3943 44.149
25.4402 43.085
25.4858 41.9175
25.5316 40.6947
25.5773 40.1023
25.6231 39.9313
25.669 39.4281
25.7147 39.4861
25.7605 39.3421
25.8062 39.3835
25.8521 39.585
25.8977 39.5243
25.9436 39.7787
25.9893 40.0688
26.0352 40.544
26.0809 40.7198
26.1268 41.0533
26.1725 40.7778
26.2184 40.2022
26.2641 39.4911
26.31 39.2865
26.3557 39.2207
26.4017 39.1989
26.4474 39.4894
26.4933 39.8735
26.5391 40.4065
26.585 40.9924
26.6308 41.4532
26.6767 41.6609
26.7225 41.5825
26.7684 41.024
26.8142 40.3129
26.8601 39.9166
26.9059 39.5186
26.9519 39.0058
26.9979 38.4681
27.0437 38.0591
27.0896 37.8851
27.1354 37.9526
27.1814 37.7766
27.2272 37.7629
27.2732 37.7175
27.3191 37.4342
27.3651 37.583
27.4109 37.5593
27.4569 37.7887
27.5027 37.7601
27.5488 37.8579
27.5946 37.6679
27.6407 37.4088
27.6865 37.2975
27.7326 37.1298
27.7784 37.0868
27.8245 36.948
27.8703 37.1298
27.9164 37.5513
27.9623 37.6983
28.0084 38.2023
28.0543 38.666
28.1003 38.7062
28.1462 38.4682
28.1923 38.179
28.2384 37.5119
28.2843 37.1381
28.3304 36.7297
28.3764 36.1625
28.4225 35.69
28.4684 35.4816
28.5145 35.2577
28.5605 35.14
28.6066 34.9442
28.6526 34.946
28.6987 34.776
28.7447 34.721
28.7908 34.6442
28.8368 34.6901
28.8829 34.7342
28.9289 34.6578
28.9751 34.3827
29.0211 34.2474
29.0673 33.9068
29.1133 33.8821
29.1595 33.7629
29.2055 33.5214
29.2517 33.4833
29.2977 33.5512
29.3439 33.5031
29.3899 33.5619
29.4361 33.5407
29.4824 33.2674
29.5284 33.1169
29.5746 32.7601
29.6207 32.4683
29.6669 32.258
29.713 32.1804
29.7593 32.1139
29.8053 32.0681
29.8516 32.1328
29.8977 31.9709
29.9439 31.8315
29.99 31.7504
30.0363 31.8021
30.0824 31.7916
30.1287 31.652
30.1748 31.6826
30.2211 31.722
30.2673 31.5636
30.3136 31.6897
30.3597 31.541
30.406 31.4764
30.4522 31.3337
30.4985 31.412
30.5447 31.4726
30.591 31.4659
30.6372 31.5154
30.6835 31.6068
30.7297 31.7001
30.7761 31.6785
30.8224 31.474
30.8686 31.3841
30.915 31.0556
30.9612 30.9955
31.0076 30.7383
31.0538 30.5612
31.1002 30.5269
31.1464 30.308
31.1928 30.2845
31.2391 30.346
31.2855 30.2272
31.3317 30.2521
31.3781 30.2867
31.4244 30.3205
31.4708 30.3409
31.5171 30.1968
31.5636 30.2009
31.6098 30.0367
31.6563 29.7745
31.7026 29.7213
31.7491 29.509
31.7953 29.5862
31.8418 29.5848
31.8881 29.6437
31.9346 29.6248
31.9809 29.5968
32.0275 29.4263
32.074 29.3664
32.1203 29.1633
32.1668 29.0429
32.2132 28.7975
32.2597 28.7585
32.306 28.6471
32.3526 28.4654
32.399 28.3089
32.4455 28.1868
32.4919 28.1375
32.5385 28.0878
32.5848 27.9223
32.6314 27.9151
32.6778 27.8975
32.7244 27.7072
32.7708 27.5178
32.8174 27.596
32.8638 27.4847
32.9104 27.5409
32.9569 27.5458
33.0035 27.3116
33.0499 27.2548
33.0966 27.2743
33.143 27.2816
33.1897 27.1946
33.2361 27.0972
33.2828 27.0844
33.3293 26.9093
33.3759 26.8319
33.4226 26.7735
33.4691 26.5837
33.5158 26.5121
33.5623 26.4158
33.609 26.2016
33.6555 26.1381
33.7022 26.0432
33.7487 26.0368
33.7954 25.9586
33.842 25.7805
33.8887 25.8316
33.9353 25.7281
33.982 25.5304
34.0286 25.5722
34.0753 25.464
34.1219 25.3887
34.1687 25.3325
34.2152 25.3105
34.262 25.104
34.3086 25.0222
34.3554 24.9976
34.402 24.8754
34.4488 24.7972
34.4954 24.6556
34.5422 24.6434
34.5889 24.5297
34.6357 24.3832
34.6825 24.3332
34.7292 24.2908
34.776 24.1998
34.8227 24.1919
34.8695 24.1841
34.9162 24.1032
34.9631 23.9195
35.0098 24.0262
35.0566 23.8742
35.1033 23.7331
35.1502 23.7621
35.1969 23.7236
35.2438 23.6342
35.2906 23.6268
35.3375 23.5333
35.3842 23.5735
35.4311 23.5642
35.4779 23.4874
35.5248 23.5118
35.5716 23.3095
35.6185 23.3389
35.6653 23.1298
35.7123 23.0992
35.759 23.0179
35.806 22.8644
35.8528 22.7636
35.8998 22.7596
35.9468 22.6763
35.9936 22.6199
36.0406 22.4789
36.0874 22.698
36.1345 22.426
36.1813 22.3903
36.2283 22.2959
36.2752 22.1857
36.3222 22.2378
36.3691 22.1234
36.4161 22.0163
36.463 21.9402
36.5101 22.0484
36.557 21.8648
36.6041 21.7359
36.651 21.7421
36.6981 21.6941
36.745 21.6282
36.7921 21.671
36.839 21.468
36.8861 21.3981
36.9331 21.3038
36.9802 21.2682
37.0272 21.198
37.0743 21.0653
37.1213 21.0647
37.1684 20.9933
37.2154 20.9399
37.2626 20.8652
37.3098 20.7516
37.3568 20.823
37.404 20.7125
37.451 20.6168
37.4982 20.5091
37.5452 20.4591
37.5924 20.3998
37.6395 20.3386
37.6867 20.3172
37.7337 20.1475
37.781 20.1356
37.8281 20.1066
37.8753 19.964
37.9224 19.9529
37.9697 19.8424
38.0168 19.8095
38.064 19.7641
38.1111 19.7375
38.1584 19.61
38.2056 19.5721
38.2529 19.4693
38.3 19.4705
38.3473 19.4288
38.3945 19.2864
38.4418 19.2811
38.489 19.1939
38.5363 19.1473
38.5837 19.0571
38.6309 19.0103
38.6782 18.9379
38.7254 18.884
38.7728 18.8023
38.82 18.7443
38.8674 18.7266
38.9146 18.7166
38.9621 18.5498
39.0093 18.4992
39.0567 18.4491
39.104 18.508
39.1514 18.3045
39.1987 18.2759
39.2461 18.1931
39.2934 18.159
39.3409 18.0942
39.3882 18.0454
39.4356 17.9741
39.483 17.9009
39.5304 17.9293
39.5778 17.8833
39.6253 17.7417
39.6726 17.693
39.7201 17.689
39.7675 17.6924
39.815 17.6105
39.8624 17.4802
39.9099 17.4564
39.9575 17.374
40.0049 17.362
40.0525 17.255
40.0999 17.232
40.1474 17.1786
40.1949 17.1107
40.2425 17.0446
40.2899 17.04
40.3375 16.9717
40.385 16.9297
40.4326 16.8311
40.48 16.7885
40.5277 16.7776
40.5752 16.7181
40.6228 16.634
40.6703 16.6069
40.718 16.555
40.7655 16.5057
40.8132 16.4261
40.8607 16.384
40.9084 16.3224
40.9559 16.2709
41.0036 16.2569
41.0512 16.1811
41.0989 16.1359
41.1465 16.1117
41.1942 16.0482
41.242 15.9419
41.2896 15.8831
41.3373 15.8472
41.3849 15.8152
41.4327 15.7499
41.4803 15.6398
41.5281 15.6474
41.5758 15.5169
41.6236 15.5479
41.6712 15.4981
41.7191 15.4146
41.7667 15.3734
41.8146 15.3163
41.8622 15.273
41.9101 15.2204
41.9578 15.1666
42.0057 15.0726
42.0534 15.105
42.1013 15.0648
42.149 14.937
42.1969 14.901
42.2446 14.8795
42.2925 14.8189
42.3403 14.7852
42.3882 14.7424
42.436 14.7061
42.4839 14.6452
42.5319 14.5998
42.5797 14.5439
42.6277 14.4429
42.6755 14.4589
42.7235 14.3551
42.7713 14.3094
42.8193 14.2715
42.8671 14.2363
42.9152 14.1704
42.963 14.1398
43.0111 14.1345
43.0589 14.0694
43.107 14.0164
43.1549 13.9297
43.2029 13.9297
43.2508 13.8455
43.2989 13.7573
43.3468 13.7361
43.3949 13.7062
43.4429 13.6277
43.491 13.6351
43.5389 13.5678
43.5871 13.5175
43.635 13.4436
43.6832 13.4159
43.7312 13.3847
43.7793 13.2885
43.8273 13.2896
43.8755 13.222
43.9237 13.1739
43.9717 13.1857
44.0199 13.0904
44.068 13.069
44.1162 13.0293
44.1642 12.9724
44.2125 12.9371
44.2606 12.9012
44.3088 12.8259
44.3569 12.7433
44.4052 12.7706
44.4533 12.6585
44.5016 12.6143
44.5497 12.5586
44.598 12.5426
44.6461 12.5421
44.6945 12.4636
44.7426 12.4159
44.791 12.3395
44.8391 12.3662
44.8875 12.2732
44.9357 12.2699
44.984 12.214
45.0322 12.1774
45.0806 12.0978
45.1288 12.0948
45.1773 12.0468
45.2257 11.9564
45.2739 11.9564
45.3224 11.93
45.3706 11.8909
45.4191 11.7765
45.4673 11.8004
45.5158 11.7634
45.5641 11.662
45.6126 11.6523
45.6609 11.5821
45.7094 11.5494
45.7577 11.5195
45.8063 11.4659
45.8546 11.4386
45.9031 11.4116
45.9515 11.3905
46.0001 11.3268
46.0484 11.2451
46.097 11.2417
46.1454 11.1875
46.194 11.1853
46.2424 11.1225
46.291 11.0904
46.3395 11.0355
46.3881 11.0142
46.4365 11.0002
46.4852 10.9514
46.5337 10.8913
46.5823 10.8535
46.631 10.7883
46.6795 10.7454
46.7282 10.7168
46.7767 10.7297
46.8254 10.6294
46.8739 10.6313
46.9226 10.5744
46.9712 10.5403
47.0199 10.4955
47.0685 10.4817
47.1173 10.4037
47.1658 10.3629
47.2146 10.3496
47.2632 10.2724
47.312 10.2739
47.3606 10.2274
47.4095 10.2001
47.4581 10.1232
47.5069 10.1303
47.5556 10.0592
47.6044 10.0213
47.6531 9.99513
47.702 9.92676
47.7507 9.95161
47.7996 9.88744
47.8483 9.87245
47.8972 9.87018
47.9461 9.78633
47.9948 9.7566
48.0438 9.68103
48.0925 9.69352
48.1415 9.62882
48.1902 9.62062
48.2392 9.62301
48.288 9.5698
48.337 9.4948
48.3858 9.50612
48.4348 9.45077
48.4837 9.44683
48.5327 9.38699
48.5815 9.33536
48.6306 9.31779
48.6795 9.2645
48.7285 9.19268
48.7774 9.21215
48.8265 9.19232
48.8754 9.12979
48.9245 9.08351
48.9734 9.0729
49.0226 9.08664
49.0715 8.99616
49.1206 8.93194
49.1696 8.91874
49.2188 8.90677
49.2679 8.83642
49.3169 8.81603
49.3661 8.76618
49.4151 8.78465
49.4643 8.74159
49.5134 8.68587
49.5626 8.64872
49.6117 8.59833
49.6609 8.58033
49.71 8.57739
49.7592 8.52628
49.8083 8.48002
49.8576 8.48241
49.9067 8.43305
49.956 8.41246
50.0052 8.3588
50.0545 8.31663
50.1036 8.2985
50.153 8.28868
50.2022 8.24566
50.2515 8.16701
50.3007 8.15222
50.3501 8.21873
50.3993 8.10382
50.4487 8.07503
50.498 8.04419
50.5474 8.00517
50.5966 7.97239
50.6461 7.92158
50.6955 7.93303
50.7448 7.87794
50.7943 7.90777
50.8436 7.81346
50.8931 7.78684
50.9424 7.74819
50.9919 7.73126
51.0413 7.69856
51.0908 7.66535
51.1402 7.66958
51.1897 7.64072
51.2391 7.62096
51.2887 7.5339
51.3381 7.5089
51.3877 7.49913
51.4371 7.43572
51.4867 7.42213
51.5362 7.416
51.5858 7.37277
51.6353 7.34608
51.6849 7.29719
51.7344 7.28239
51.7841 7.2611
51.8336 7.21607
51.8833 7.23074
51.9328 7.13103
51.9826 7.14942
52.0323 7.10575
52.0818 7.10056
52.1316 7.00496
52.1812 7.04875
52.231 6.96707
52.2806 6.95537
52.3304 6.9419
52.38 6.8968
52.4298 6.85331
52.4794 6.86561
52.5293 6.79327
52.5789 6.81198
52.6288 6.76594
52.6785 6.70456
52.7284 6.73048
52.7781 6.64857
52.828 6.668
52.8777 6.58642
52.9276 6.61682
52.9774 6.57881
53.0273 6.5694
53.0771 6.54827
53.1271 6.48442
53.1769 6.42777
53.2269 6.45748
53.2767 6.41209
53.3267 6.38247
53.3765 6.34259
53.4266 6.33901
53.4766 6.29369
53.5265 6.24242
53.5765 6.27267
53.6264 6.17751
53.6765 6.21342
53.7264 6.16652
53.7765 6.10842
53.8265 6.07
53.8766 6.0779
53.9266 6.03665
53.9767 5.98056
54.0267 5.97711
54.0769 5.98261
54.1269 5.91385
54.1771 5.94789
54.2271 5.88182
54.2773 5.83475
54.3274 5.84567
54.3776 5.79996
54.4277 5.76573
54.478 5.72712
54.528 5.68375
54.5783 5.67803
54.6285 5.60759
54.6788 5.55366
54.7289 5.53261
54.7792 5.51965
54.8296 5.47604
54.8798 5.41732
54.9301 5.34513
54.9803 5.40315
55.0307 5.32998
55.0809 5.26166
55.1314 5.2285
55.1816 5.18851
55.232 5.13617
55.2823 5.10301
55.3328 5.02226
55.383 5.00955
55.4335 4.95368
55.4838 4.89905
55.5344 4.88666
55.5847 4.83299
55.6352 4.85188
55.6856 4.8162
55.7361 4.71365