File: XRD/Ni3Fe_FD0963.xy
TT I
1.27165 7.60876
1.31627 6.5284
1.36089 6.58546
1.40551 5.65171
1.45013 6.16789
1.49476 5.28028
1.53938 6.15175
1.584 4.93542
1.62863 4.70958
1.67325 4.83033
1.71787 4.8616
1.7625 4.73788
1.80712 5.08968
1.85174 4.74159
1.89636 5.28697
1.94099 4.71196
1.98562 4.73799
2.03025 5.00574
2.07487 4.84337
2.11949 5.29138
2.16411 5.07759
2.20874 13.575
2.25338 19.7515
2.298 5.64708
2.34263 5.20048
2.38725 6.31548
2.43188 6.58168
2.4765 7.33402
2.52115 7.79522
2.56577 8.66221
2.6104 8.46753
2.65503 8.30861
2.69965 9.00302
2.7443 7.91515
2.78893 8.60695
2.83356 8.78169
2.87818 8.61073
2.92281 9.31659
2.96744 10.3195
3.01209 10.6003
3.05672 11.361
3.10135 12.4724
3.14599 13.5383
3.19062 14.3
3.23527 15.2707
3.2799 16.1011
3.32454 16.5942
3.36917 17.6697
3.4138 18.6103
3.45844 19.2615
3.50309 20.5716
3.54773 22.0223
3.59237 23.9868
3.637 81.0378
3.68164 52.7048
3.7263 25.8907
3.77094 25.8307
3.81558 26.6183
3.86022 27.5285
3.90486 28.9467
3.9495 29.6633
3.99416 30.6673
4.0388 32.3421
4.08344 33.2593
4.12809 34.6212
4.17273 36.6647
4.21738 41.877
4.26204 217.672
4.30669 187.288
4.35133 47.449
4.39598 43.8569
4.44063 52.8491
4.4853 62.1555
4.52995 49.7396
4.5746 51.3969
4.61925 52.994
4.6639 54.8523
4.70855 57.4647
4.75322 60.1228
4.79788 63.2834
4.84253 66.3896
4.88719 70.4701
4.93184 73.8972
4.97652 78.699
5.02118 85.0053
5.06583 91.9026
5.11049 101.52
5.15515 159.699
5.19981 286.06
5.24449 2506.74
5.28916 13479.1
5.33382 2789.13
5.37848 173.036
5.42315 124.267
5.46783 110.408
5.5125 104.272
5.55716 99.9622
5.60183 96.6119
5.6465 95.059
5.69117 92.5453
5.73586 90.7806
5.78053 90.2549
5.8252 89.5722
5.86988 90.1762
5.91455 91.2167
5.95924 96.832
6.00392 177.485
6.0486 836.432
6.09328 4628.51
6.13795 3133.99
6.18263 209.502
6.22733 88.5503
6.27201 80.6591
6.3167 95.5538
6.36138 77.8082
6.40606 67.7701
6.45075 66.3224
6.49545 64.3772
6.54014 62.74
6.58483 62.1357
6.62952 61.9971
6.67421 89.1137
6.71892 128.851
6.76361 66.5388
6.8083 57.7089
6.853 56.6755
6.89769 55.9732
6.94239 55.7319
6.98711 54.9074
7.03181 54.9729
7.07651 54.2956
7.12121 54.4921
7.16591 54.6128
7.21063 54.7936
7.25533 68.3645
7.30004 157.478
7.34475 84.3341
7.38945 55.5541
7.43416 54.0404
7.47889 53.7241
7.5236 53.7991
7.56831 54.4952
7.61303 55.7707
7.65774 56.2965
7.70247 55.413
7.74719 55.1491
7.79191 55.4399
7.83663 56.0507
7.88135 56.7669
7.92607 57.8313
7.97081 58.59
8.01553 60.1624
8.06026 61.1689
8.10498 63.0344
8.14971 71.6509
8.19446 70.6712
8.23919 68.3282
8.28392 70.561
8.32865 72.8937
8.37339 76.9541
8.41812 83.4267
8.46288 107.093
8.50761 145.68
8.55235 343.859
8.59709 1166.18
8.64183 2265.57
8.68658 903.826
8.73134 155.391
8.77609 96.5965
8.82083 90.6655
8.86558 87.8826
8.91033 88.6661
8.9551 89.5531
8.99985 83.7551
9.04461 82.4192
9.08936 81.5896
9.13412 80.7731
9.17888 80.8728
9.22365 81.4139
9.26841 80.4175
9.31318 81.2802
9.35794 81.722
9.4027 82.2893
9.44749 82.8114
9.49226 82.5714
9.53703 84.135
9.5818 86.2863
9.62657 90.539
9.67134 96.3188
9.71614 91.6181
9.76091 92.6388
9.80569 94.8385
9.85047 97.9845
9.89525 118.734
9.94005 128.521
9.98484 158.795
10.0296 306.918
10.0744 789.262
10.1192 1814.74
10.164 1528.68
10.2088 355.101
10.2536 121.705
10.2984 110.373
10.3432 110.537
10.388 101.721
10.4328 112.05
10.4776 150.749
10.5224 277.032
10.5672 527.837
10.612 494.251
10.6568 193.405
10.7017 94.1171
10.7465 84.7365
10.7913 81.7606
10.8361 79.6562
10.8809 77.498
10.9257 77.1182
10.9706 77.1461
11.0154 73.6127
11.0602 71.7749
11.105 70.6081
11.1499 74.4027
11.1947 79.6946
11.2395 72.3898
11.2844 68.9327
11.3292 66.2065
11.374 65.0049
11.4189 64.5199
11.4637 63.8462
11.5086 64.4182
11.5534 66.5759
11.5983 64.1002
11.6431 62.4741
11.688 61.834
11.7328 61.9645
11.7777 61.7918
11.8225 61.6254
11.8674 61.2541
11.9122 61.6918
11.9571 61.8311
12.002 62.2392
12.0468 65.5472
12.0917 75.6922
12.1366 99.1949
12.1814 156.568
12.2263 205.397
12.2712 161.982
12.3161 94.1489
12.3609 68.5079
12.4058 63.2618
12.4507 63.2777
12.4956 63.3359
12.5405 63.3952
12.5853 64.3169
12.6302 71.1367
12.6751 75.2889
12.72 68.2805
12.7649 66.4569
12.8098 67.3736
12.8547 68.3051
12.8996 69.5887
12.9445 70.8458
12.9894 72.7438
13.0343 74.3758
13.0792 77.4743
13.1242 84.3901
13.1691 104.669
13.214 140.781
13.2589 238.032
13.3038 383.639
13.3487 422.103
13.3937 246.614
13.4386 118.342
13.4835 100.519
13.5285 113.783
13.5734 151.999
13.6183 249.932
13.6633 357.284
13.7082 323.31
13.7531 176.24
13.7981 94.2586
13.843 80.1093
13.888 77.982
13.9329 75.7114
13.9779 74.3984
14.0228 73.0782
14.0678 71.9102
14.1127 71.3274
14.1577 71.3137
14.2027 70.3844
14.2476 69.0388
14.2926 69.4569
14.3376 70.1669
14.3825 68.9063
14.4275 67.4648
14.4725 67.4716
14.5175 67.8076
14.5624 67.8372
14.6074 69.6594
14.6524 70.0257
14.6974 68.9348
14.7424 70.1224
14.7874 75.8023
14.8324 85.0104
14.8774 106.95
14.9224 154.203
14.9674 214.148
15.0124 216.65
15.0574 144.274
15.1024 86.6792
15.1474 70.5391
15.1924 69.2353
15.2374 69.1338
15.2824 68.7074
15.3274 66.8078
15.3725 65.5219
15.4175 65.1919
15.4625 64.8522
15.5076 64.9395
15.5526 64.9511
15.5976 64.5635
15.6426 65.1469
15.6877 69.6388
15.7327 76.4889
15.7778 91.7311
15.8228 125.486
15.8679 174.955
15.9129 193.899
15.958 147.533
16.003 92.273
16.0481 66.3301
16.0931 63.0772
16.1382 61.2886
16.1833 59.4484
16.2283 57.7093
16.2734 57.1183
16.3185 57.4134
16.3636 57.6993
16.4086 56.4562
16.4537 55.2103
16.4988 54.3948
16.5439 54.3705
16.589 54.1817
16.6341 53.6852
16.6792 53.6022
16.7243 53.7967
16.7694 53.9165
16.8145 53.5865
16.8596 54.22
16.9047 55.3653
16.9498 55.3939
16.9949 54.529
17.04 54.5966
17.0851 55.6022
17.1302 57.1083
17.1754 60.0331
17.2205 65.5287
17.2656 74.2866
17.3108 82.3702
17.3559 79.8955
17.401 69.1322
17.4462 60.5401
17.4913 57.9881
17.5365 57.8776
17.5815 58.116
17.6268 58.2928
17.6718 59.2342
17.7171 59.5135
17.7622 60.065
17.8074 60.5722
17.8525 62.3663
17.8977 66.1596
17.9428 71.0687
17.9881 80.2321
18.0331 98.9796
18.0784 123.115
18.1237 137.092
18.1688 124.932
18.214 98.8704
18.2591 84.0448
18.3044 90.0036
18.3495 100.779
18.3948 104.743
18.4399 93.07
18.4852 74.7428
18.5303 64.4808
18.5756 60.9875
18.6207 60.1198
18.666 59.265
18.7112 58.6565
18.7565 57.7803
18.8016 57.5346
18.8469 57.0174
18.892 56.6856
18.9374 56.0644
18.9825 56.1538
19.0278 55.8975
19.073 55.9698
19.1183 56.1944
19.1635 56.7833
19.2088 58.1287
19.254 60.8896
19.2993 65.7033
19.3447 71.594
19.3898 74.593
19.4352 70.029
19.4804 61.2979
19.5257 55.4273
19.5709 53.0937
19.6163 52.9026
19.6615 52.6452
19.7068 52.4808
19.752 52.2191
19.7974 52.5296
19.8426 53.3836
19.888 53.7944
19.9332 55.042
19.9786 57.8886
20.0238 61.8722
20.0692 66.8825
20.1144 68.7078
20.1598 66.0483
20.205 61.777
20.2504 61.239
20.2957 63.639
20.3411 64.8797
20.3863 62.3614
20.4318 56.9528
20.477 52.5608
20.5224 50.634
20.5677 50.0508
20.6131 49.2887
20.6586 48.8015
20.7038 48.683
20.7493 48.5133
20.7945 48.041
20.84 47.9865
20.8853 47.8255
20.9307 47.7306
20.976 47.788
21.0215 47.5297
21.0668 47.9506
21.1122 48.475
21.1575 49.1867
21.203 50.1003
21.2483 50.6205
21.2938 50.3458
21.3391 49.0145
21.3846 48.181
21.4299 47.454
21.4754 47.5042
21.5207 47.6078
21.5662 47.8165
21.6116 48.0474
21.6571 48.8952
21.7024 49.6134
21.7479 51.5112
21.7933 54.4579
21.8388 58.6828
21.8843 62.2565
21.9297 63.3642
21.9752 61.3199
22.0206 57.9402
22.0661 55.6966
22.1115 55.1521
22.157 54.9749
22.2024 52.6664
22.248 50.2729
22.2933 48.9014
22.3389 48.279
22.3843 48.0838
22.4299 48.022
22.4753 47.897
22.5208 47.6765
22.5662 47.49
22.6118 47.6356
22.6572 47.7779
22.7028 48.1727
22.7483 48.605
22.7939 49.4521
22.8393 50.9414
22.8849 53.4213
22.9303 55.5419
22.9759 56.7294
23.0214 56.1987
23.067 53.1174
23.1126 50.0337
23.1581 48.2334
23.2037 47.8505
23.2492 47.8172
23.2948 47.7121
23.3403 47.9864
23.3859 48.8461
23.4314 49.8195
23.477 51.8373
23.5225 54.4353
23.5682 56.5142
23.6137 56.8644
23.6593 54.3184
23.7048 50.2253
23.7505 47.2472
23.796 45.7567
23.8417 45.1161
23.8872 44.7346
23.9329 44.5993
23.9784 44.0711
24.0241 43.8515
24.0697 43.8241
24.1154 43.3499
24.1609 43.2391
24.2066 43.0146
24.2522 42.9712
24.2979 42.7522
24.3434 42.6466
24.3892 42.3499
24.4349 42.4209
24.4805 42.2639
24.5262 42.4615
24.5718 42.2177
24.6175 42.1693
24.6631 41.9728
24.7089 41.8341
24.7545 41.5436
24.8002 41.5732
24.8458 41.3994
24.8916 41.2609
24.9372 41.3462
24.983 41.7097
25.0286 42.0465
25.0744 42.5163
25.12 43.0003
25.1658 43.5394
25.2114 43.785
25.2572 44.0129
25.3029 44.1895
25.3487 44.2766
25.3943 43.7077
25.4402 42.6293
25.4858 41.6415
25.5316 40.6552
25.5773 40.1233
25.6231 40.2544
25.669 39.6942
25.7147 39.8022
25.7605 39.646
25.8062 39.7205
25.8521 39.9929
25.8977 39.8816
25.9436 40.0836
25.9893 40.35
26.0352 40.8698
26.0809 40.8132
26.1268 41.0905
26.1725 40.4833
26.2184 39.9775
26.2641 39.6762
26.31 39.3899
26.3557 39.2944
26.4017 39.4461
26.4474 39.7566
26.4933 40.1243
26.5391 40.7003
26.585 41.121
26.6308 41.4381
26.6767 41.4236
26.7225 41.0975
26.7684 40.6607
26.8142 40.1369
26.8601 39.7083
26.9059 39.2664
26.9519 38.763
26.9979 38.4935
27.0437 38.166
27.0896 38.1123
27.1354 38.032
27.1814 37.8503
27.2272 37.9172
27.2732 37.8799
27.3191 37.7378
27.3651 37.7865
27.4109 37.6976
27.4569 37.9304
27.5027 37.8953
27.5488 37.841
27.5946 37.7352
27.6407 37.3536
27.6865 37.3567
27.7326 37.0631
27.7784 37.261
27.8245 37.0494
27.8703 37.2602
27.9164 37.6021
27.9623 37.7763
28.0084 38.0349
28.0543 38.4892
28.1003 38.3498
28.1462 38.1804
28.1923 37.7675
28.2384 37.2254
28.2843 36.9512
28.3304 36.5051
28.3764 36.0832
28.4225 35.8003
28.4684 35.6426
28.5145 35.213
28.5605 35.3192
28.6066 35.0014
28.6526 35.0361
28.6987 34.9
28.7447 34.9738
28.7908 34.8968
28.8368 34.876
28.8829 34.8013
28.9289 34.7467
28.9751 34.4516
29.0211 34.288
29.0673 34.0509
29.1133 33.8321
29.1595 33.7754
29.2055 33.5969
29.2517 33.732
29.2977 33.7038
29.3439 33.6882
29.3899 33.6022
29.4361 33.5366
29.4824 33.3778
29.5284 33.0608
29.5746 32.746
29.6207 32.5778
29.6669 32.4274
29.713 32.411
29.7593 32.2266
29.8053 32.3644
29.8516 32.2347
29.8977 32.2035
29.9439 32.0425
29.99 32.0177
30.0363 32.0356
30.0824 31.9364
30.1287 31.8011
30.1748 31.8955
30.2211 31.7752
30.2673 31.7119
30.3136 31.783
30.3597 31.7145
30.406 31.5068
30.4522 31.4719
30.4985 31.5278
30.5447 31.6376
30.591 31.6003
30.6372 31.6145
30.6835 31.5875
30.7297 31.6843
30.7761 31.5575
30.8224 31.3468
30.8686 31.2539
30.915 31.0621
30.9612 30.935
31.0076 30.7384
31.0538 30.588
31.1002 30.5221
31.1464 30.4205
31.1928 30.3006
31.2391 30.4421
31.2855 30.3698
31.3317 30.3599
31.3781 30.3727
31.4244 30.2977
31.4708 30.3184
31.5171 30.1913
31.5636 30.2093
31.6098 29.9433
31.6563 29.8278
31.7026 29.7345
31.7491 29.5051
31.7953 29.6097
31.8418 29.5782
31.8881 29.7299
31.9346 29.5497
31.9809 29.5275
32.0275 29.4066
32.074 29.3715
32.1203 29.1217
32.1668 29.0152
32.2132 28.9134
32.2597 28.7841
32.306 28.6601
32.3526 28.485
32.399 28.5347
32.4455 28.2691
32.4919 28.2778
32.5385 28.1377
32.5848 28.0091
32.6314 27.9719
32.6778 27.8609
32.7244 27.8571
32.7708 27.6945
32.8174 27.6656
32.8638 27.5697
32.9104 27.6127
32.9569 27.5823
33.0035 27.4218
33.0499 27.2454
33.0966 27.3146
33.143 27.3307
33.1897 27.1853
33.2361 27.1504
33.2828 27.2011
33.3293 26.9815
33.3759 26.8465
33.4226 26.7777
33.4691 26.6396
33.5158 26.5575
33.5623 26.3614
33.609 26.3076
33.6555 26.2064
33.7022 26.1686
33.7487 26.087
33.7954 26.0293
33.842 25.889
33.8887 25.7884
33.9353 25.8156
33.982 25.6885
34.0286 25.5253
34.0753 25.5168
34.1219 25.4304
34.1687 25.3942
34.2152 25.3382
34.262 25.1934
34.3086 25.076
34.3554 25.1685
34.402 24.9639
34.4488 24.8086
34.4954 24.7416
34.5422 24.7069
34.5889 24.5683
34.6357 24.5375
34.6825 24.4695
34.7292 24.4652
34.776 24.285
34.8227 24.2278
34.8695 24.2095
34.9162 24.1739
34.9631 24.1653
35.0098 24.0994
35.0566 23.9509
35.1033 23.8638
35.1502 23.8115
35.1969 23.7131
35.2438 23.8138
35.2906 23.6227
35.3375 23.5913
35.3842 23.6067
35.4311 23.5843
35.4779 23.6105
35.5248 23.5857
35.5716 23.407
35.6185 23.2407
35.6653 23.2357
35.7123 23.1538
35.759 23.049
35.806 22.9142
35.8528 22.8402
35.8998 22.8064
35.9468 22.7584
35.9936 22.7505
36.0406 22.5752
36.0874 22.5861
36.1345 22.4796
36.1813 22.4947
36.2283 22.3921
36.2752 22.211
36.3222 22.3346
36.3691 22.1511
36.4161 22.0258
36.463 22.0788
36.5101 22.0092
36.557 22.0162
36.6041 21.8431
36.651 21.7752
36.6981 21.7109
36.745 21.6832
36.7921 21.5627
36.839 21.4473
36.8861 21.4285
36.9331 21.2943
36.9802 21.2935
37.0272 21.2476
37.0743 21.0535
37.1213 21.0904
37.1684 21.0297
37.2154 20.9729
37.2626 20.9128
37.3098 20.793
37.3568 20.7595
37.404 20.6763
37.451 20.6005
37.4982 20.5707
37.5452 20.4883
37.5924 20.4706
37.6395 20.4931
37.6867 20.4056
37.7337 20.2636
37.781 20.1888
37.8281 20.1783
37.8753 20.0359
37.9224 20.0053
37.9697 19.9242
38.0168 19.7364
38.064 19.7389
38.1111 19.6969
38.1584 19.7682
38.2056 19.6368
38.2529 19.5538
38.3 19.4856
38.3473 19.41
38.3945 19.2954
38.4418 19.3107
38.489 19.2644
38.5363 19.2162
38.5837 19.1312
38.6309 19.0562
38.6782 18.9438
38.7254 18.9226
38.7728 18.9087
38.82 18.7663
38.8674 18.7839
38.9146 18.6796
38.9621 18.632
39.0093 18.6169
39.0567 18.5556
39.104 18.3882
39.1514 18.3661
39.1987 18.2918
39.2461 18.3398
39.2934 18.2368
39.3409 18.1122
39.3882 18.0367
39.4356 18.0632
39.483 17.9703
39.5304 17.9063
39.5778 17.9343
39.6253 17.8417
39.6726 17.7293
39.7201 17.7383
39.7675 17.7016
39.815 17.6102
39.8624 17.5544
39.9099 17.5271
39.9575 17.421
40.0049 17.3817
40.0525 17.3653
40.0999 17.2818
40.1474 17.3351
40.1949 17.1301
40.2425 17.0795
40.2899 17.0776
40.3375 17.0057
40.385 16.9295
40.4326 16.8756
40.48 16.8347
40.5277 16.7683
40.5752 16.7052
40.6228 16.627
40.6703 16.6045
40.718 16.6011
40.7655 16.5294
40.8132 16.4423
40.8607 16.4797
40.9084 16.3776
40.9559 16.2361
41.0036 16.3257
41.0512 16.1922
41.0989 16.2005
41.1465 16.124
41.1942 16.0911
41.242 15.9236
41.2896 15.909
41.3373 15.8439
41.3849 15.8241
41.4327 15.8075
41.4803 15.6496
41.5281 15.7039
41.5758 15.6327
41.6236 15.5472
41.6712 15.525
41.7191 15.4459
41.7667 15.383
41.8146 15.3842
41.8622 15.3171
41.9101 15.2761
41.9578 15.1415
42.0057 15.2082
42.0534 15.1473
42.1013 15.0661
42.149 14.9845
42.1969 14.9806
42.2446 14.958
42.2925 14.8262
42.3403 14.8352
42.3882 14.749
42.436 14.7409
42.4839 14.6515
42.5319 14.576
42.5797 14.5552
42.6277 14.517
42.6755 14.489
42.7235 14.4112
42.7713 14.3765
42.8193 14.333
42.8671 14.2748
42.9152 14.1818
42.963 14.141
43.0111 14.132
43.0589 14.1096
43.107 14.0177
43.1549 14.0134
43.2029 13.9285
43.2508 13.8958
43.2989 13.8392
43.3468 13.7815
43.3949 13.727
43.4429 13.6793
43.491 13.5981
43.5389 13.5967
43.5871 13.587
43.635 13.4723
43.6832 13.4614
43.7312 13.4087
43.7793 13.3429
43.8273 13.3148
43.8755 13.2711
43.9237 13.2381
43.9717 13.2201
44.0199 13.1062
44.068 13.1115
44.1162 13.0329
44.1642 13.0715
44.2125 12.9304
44.2606 12.9123
44.3088 12.8527
44.3569 12.8611
44.4052 12.773
44.4533 12.7355
44.5016 12.7338
44.5497 12.6525
44.598 12.6211
44.6461 12.5548
44.6945 12.5111
44.7426 12.446
44.791 12.4162
44.8391 12.3733
44.8875 12.321
44.9357 12.2855
44.984 12.2898
45.0322 12.2114
45.0806 12.1684
45.1288 12.1604
45.1773 12.0968
45.2257 12.0282
45.2739 11.9981
45.3224 11.9799
45.3706 11.971
45.4191 11.8422
45.4673 11.8416
45.5158 11.7971
45.5641 11.7234
45.6126 11.7221
45.6609 11.6567
45.7094 11.594
45.7577 11.5791
45.8063 11.5285
45.8546 11.4739
45.9031 11.4056
45.9515 11.3891
46.0001 11.3722
46.0484 11.3023
46.097 11.2658
46.1454 11.2517
46.194 11.1939
46.2424 11.1347
46.291 11.1105
46.3395 11.0895
46.3881 11.0059
46.4365 11.0168
46.4852 10.9384
46.5337 10.9457
46.5823 10.9074
46.631 10.81
46.6795 10.8446
46.7282 10.8116
46.7767 10.7622
46.8254 10.674
46.8739 10.6742
46.9226 10.6269
46.9712 10.5379
47.0199 10.5547
47.0685 10.5137
47.1173 10.4371
47.1658 10.4064
47.2146 10.3724
47.2632 10.3375
47.312 10.2432
47.3606 10.284
47.4095 10.2208
47.4581 10.2263
47.5069 10.1528
47.5556 10.1039
47.6044 10.0451
47.6531 10.0677
47.702 9.9799
47.7507 9.97242
47.7996 9.92379
47.8483 9.89698
47.8972 9.8845
47.9461 9.83123
47.9948 9.788
48.0438 9.68824
48.0925 9.71876
48.1415 9.66081
48.1902 9.6347
48.2392 9.58159
48.288 9.56238
48.337 9.52696
48.3858 9.4721
48.4348 9.43491
48.4837 9.43022
48.5327 9.40346
48.5815 9.36631
48.6306 9.3362
48.6795 9.3117
48.7285 9.21705
48.7774 9.21992
48.8265 9.19909
48.8754 9.14368
48.9245 9.13937
48.9734 9.09358
49.0226 9.07294
49.0715 9.02556
49.1206 9.00487
49.1696 8.93955
49.2188 8.92305
49.2679 8.89966
49.3169 8.80786
49.3661 8.81743
49.4151 8.81069
49.4643 8.75934
49.5134 8.70248
49.5626 8.64821
49.6117 8.65651
49.6609 8.63282
49.71 8.55484
49.7592 8.54422
49.8083 8.5133
49.8576 8.48893
49.9067 8.44125
49.956 8.40227
50.0052 8.38566
50.0545 8.34969
50.1036 8.31626
50.153 8.2817
50.2022 8.25065
50.2515 8.23319
50.3007 8.19418
50.3501 8.18199
50.3993 8.13673
50.4487 8.12478
50.498 8.0766
50.5474 8.02793
50.5966 7.99629
50.6461 7.98752
50.6955 7.96716
50.7448 7.90031
50.7943 7.89946
50.8436 7.82387
50.8931 7.86203
50.9424 7.79553
50.9919 7.76123
51.0413 7.77404
51.0908 7.72405
51.1402 7.68938
51.1897 7.67567
51.2391 7.6054
51.2887 7.58625
51.3381 7.55566
51.3877 7.52663
51.4371 7.48112
51.4867 7.45516
51.5362 7.41227
51.5858 7.42533
51.6353 7.36793
51.6849 7.34749
51.7344 7.33144
51.7841 7.26724
51.8336 7.2218
51.8833 7.22267
51.9328 7.18764
51.9826 7.15003
52.0323 7.13711
52.0818 7.0953
52.1316 7.049
52.1812 7.05508
52.231 7.02161
52.2806 6.99333
52.3304 6.9766
52.38 6.91392
52.4298 6.87602
52.4794 6.8958
52.5293 6.83349
52.5789 6.8358
52.6288 6.80973
52.6785 6.73443
52.7284 6.71808
52.7781 6.70937
52.828 6.67594
52.8777 6.62906
52.9276 6.59074
52.9774 6.59226
53.0273 6.54529
53.0771 6.49991
53.1271 6.57436
53.1769 6.49798
53.2269 6.46927
53.2767 6.42984
53.3267 6.39466
53.3765 6.37765
53.4266 6.33413
53.4766 6.33152
53.5265 6.23922
53.5765 6.25722
53.6264 6.23341
53.6765 6.19306
53.7264 6.15449
53.7765 6.14243
53.8265 6.13876
53.8766 6.13174
53.9266 6.0548
53.9767 6.06856
54.0267 5.9765
54.0769 6.00025
54.1269 6.00043
54.1771 5.89673
54.2271 5.89827
54.2773 5.84675
54.3274 5.88642
54.3776 5.79514
54.4277 5.76915
54.478 5.80459
54.528 5.72607
54.5783 5.6538
54.6285 5.6688
54.6788 5.59298
54.7289 5.57155
54.7792 5.53416
54.8296 5.46175
54.8798 5.40389
54.9301 5.3679
54.9803 5.38691
55.0307 5.34715
55.0809 5.30209
55.1314 5.2615
55.1816 5.21592
55.232 5.10065
55.2823 5.15732
55.3328 5.0588
55.383 5.00185
55.4335 5.00437
55.4838 4.97879
55.5344 4.8963
55.5847 4.91468
55.6352 4.81358
55.6856 4.7473
55.7361 4.73887