File: XRD/Ni3Fe_FD0745.xy
TT I
1.27165 7.21873
1.31627 6.83617
1.36089 6.76098
1.40551 6.71817
1.45013 6.48905
1.49476 5.76973
1.53938 6.21795
1.584 5.37285
1.62863 5.23528
1.67325 5.30728
1.71787 5.35965
1.7625 5.32241
1.80712 4.75811
1.85174 5.36477
1.89636 4.90543
1.94099 4.96187
1.98562 4.99433
2.03025 5.37639
2.07487 4.60272
2.11949 4.44453
2.16411 4.6157
2.20874 14.948
2.25338 24.3225
2.298 5.99597
2.34263 4.83437
2.38725 6.10601
2.43188 5.796
2.4765 7.14693
2.52115 6.56714
2.56577 8.06314
2.6104 8.81239
2.65503 8.43884
2.69965 8.47343
2.7443 8.30338
2.78893 8.06513
2.83356 8.33224
2.87818 8.83677
2.92281 9.50584
2.96744 9.35758
3.01209 10.2041
3.05672 11.2801
3.10135 12.4949
3.14599 12.8624
3.19062 14.2048
3.23527 15.3949
3.2799 16.0467
3.32454 17.1358
3.36917 17.4224
3.4138 19.183
3.45844 19.8487
3.50309 20.9725
3.54773 21.864
3.59237 24.1164
3.637 95.6208
3.68164 61.3798
3.7263 26.4342
3.77094 26.1168
3.81558 26.778
3.86022 27.3506
3.90486 29.0532
3.9495 29.4622
3.99416 30.8884
4.0388 31.9591
4.08344 33.8933
4.12809 34.9962
4.17273 37.0984
4.21738 43.2698
4.26204 258.654
4.30669 231.893
4.35133 49.1658
4.39598 44.7044
4.44063 54.2935
4.4853 66.5345
4.52995 50.1894
4.5746 50.7658
4.61925 52.9449
4.6639 55.2654
4.70855 57.8162
4.75322 60.5332
4.79788 63.4764
4.84253 66.5516
4.88719 70.8196
4.93184 74.5168
4.97652 80.3608
5.02118 85.7036
5.06583 92.7847
5.11049 102.964
5.15515 170.131
5.19981 313.389
5.24449 2611.62
5.28916 12693.7
5.33382 2932.6
5.37848 186.093
5.42315 127.726
5.46783 111.92
5.5125 104.878
5.55716 100.677
5.60183 97.7331
5.6465 96.1471
5.69117 93.216
5.73586 91.1994
5.78053 90.972
5.8252 90.2505
5.86988 90.6353
5.91455 92.6446
5.95924 98.7601
6.00392 184.03
6.0486 873.553
6.09328 4416.66
6.13795 3216.18
6.18263 240.867
6.22733 92.0941
6.27201 82.5877
6.3167 103.378
6.36138 80.92
6.40606 68.4953
6.45075 66.769
6.49545 64.9278
6.54014 63.6927
6.58483 62.5341
6.62952 62.7451
6.67421 95.2361
6.71892 148.812
6.76361 69.436
6.8083 58.2976
6.853 57.6123
6.89769 56.7093
6.94239 56.3887
6.98711 55.7803
7.03181 55.3273
7.07651 55.3387
7.12121 54.7475
7.16591 54.6831
7.21063 55.2569
7.25533 70.8731
7.30004 186.047
7.34475 93.8508
7.38945 56.6171
7.43416 54.4839
7.47889 53.8879
7.5236 54.5132
7.56831 55.3424
7.61303 56.9358
7.65774 56.9161
7.70247 55.9824
7.74719 55.5236
7.79191 56.3812
7.83663 56.5504
7.88135 57.4021
7.92607 58.2629
7.97081 59.019
8.01553 60.608
8.06026 61.8411
8.10498 63.4127
8.14971 73.2773
8.19446 72.4539
8.23919 69.1113
8.28392 71.0569
8.32865 73.3315
8.37339 77.5164
8.41812 84.0632
8.46288 113.321
8.50761 152.526
8.55235 356.146
8.59709 1144.71
8.64183 2153.52
8.68658 1011.2
8.73134 163.696
8.77609 98.7739
8.82083 91.7576
8.86558 88.9044
8.91033 88.8185
8.9551 91.3621
8.99985 84.6251
9.04461 82.6543
9.08936 82.1705
9.13412 81.4298
9.17888 81.7272
9.22365 82.2382
9.26841 81.4566
9.31318 81.9045
9.35794 81.8743
9.4027 82.7074
9.44749 83.242
9.49226 83.7539
9.53703 84.8005
9.5818 86.4782
9.62657 91.1556
9.67134 97.8848
9.71614 93.118
9.76091 92.9386
9.80569 95.4954
9.85047 99.0651
9.89525 123.623
9.94005 135.44
9.98484 162.712
10.0296 316.404
10.0744 774.793
10.1192 1735.08
10.164 1626.89
10.2088 410.678
10.2536 126.64
10.2984 112.935
10.3432 114.656
10.388 103.597
10.4328 113.815
10.4776 152.114
10.5224 270.717
10.5672 514.481
10.612 512.493
10.6568 210.472
10.7017 96.8953
10.7465 86.0598
10.7913 82.7071
10.8361 80.7298
10.8809 78.1683
10.9257 78.137
10.9706 78.5012
11.0154 74.4866
11.0602 72.1173
11.105 71.1717
11.1499 76.1955
11.1947 83.9022
11.2395 74.4786
11.2844 70.4707
11.3292 66.69
11.374 65.673
11.4189 64.9925
11.4637 64.5396
11.5086 65.1156
11.5534 68.3052
11.5983 65.1489
11.6431 63.3457
11.688 62.8091
11.7328 62.6219
11.7777 62.4291
11.8225 62.0664
11.8674 61.6546
11.9122 62.3227
11.9571 62.1551
12.002 62.9937
12.0468 66.2903
12.0917 76.5174
12.1366 99.6733
12.1814 150.675
12.2263 207.059
12.2712 170.323
12.3161 100.521
12.3609 70.7317
12.4058 64.4802
12.4507 63.8101
12.4956 63.6738
12.5405 64.2578
12.5853 65.3411
12.6302 73.1985
12.6751 79.0557
12.72 69.8517
12.7649 67.266
12.8098 67.9526
12.8547 69.1243
12.8996 70.2887
12.9445 71.5042
12.9894 73.3924
13.0343 74.7848
13.0792 77.7105
13.1242 85.4134
13.1691 107.111
13.214 142.599
13.2589 231.552
13.3038 370.155
13.3487 420.462
13.3937 267.959
13.4386 126.665
13.4835 102.864
13.5285 115.876
13.5734 152.597
13.6183 242.873
13.6633 349.674
13.7082 340.95
13.7531 187.936
13.7981 97.9621
13.843 81.6037
13.888 78.9771
13.9329 76.4743
13.9779 75.3393
14.0228 73.8362
14.0678 72.3688
14.1127 71.9006
14.1577 72.0633
14.2027 70.9752
14.2476 69.9613
14.2926 70.1499
14.3376 71.0587
14.3825 70.082
14.4275 68.3812
14.4725 68.0808
14.5175 68.5057
14.5624 68.6707
14.6074 70.7485
14.6524 71.3468
14.6974 69.8351
14.7424 70.6935
14.7874 76.803
14.8324 86.1465
14.8774 107.54
14.9224 150.987
14.9674 206.891
15.0124 217.566
15.0574 152.948
15.1024 92.5631
15.1474 72.301
15.1924 69.8892
15.2374 70.8221
15.2824 70.035
15.3274 67.9452
15.3725 66.2858
15.4175 66.048
15.4625 65.8292
15.5076 65.8546
15.5526 65.6602
15.5976 65.1052
15.6426 66.0558
15.6877 70.4812
15.7327 77.6417
15.7778 92.4
15.8228 124.185
15.8679 170.703
15.9129 194.943
15.958 157.531
16.003 99.4697
16.0481 68.5175
16.0931 64.6101
16.1382 62.5401
16.1833 60.1658
16.2283 58.6366
16.2734 57.8697
16.3185 58.3021
16.3636 59.2538
16.4086 57.5852
16.4537 55.8676
16.4988 55.2107
16.5439 54.9867
16.589 54.8283
16.6341 54.5943
16.6792 54.1461
16.7243 54.5908
16.7694 54.6627
16.8145 54.387
16.8596 55.0212
16.9047 56.6446
16.9498 56.8
16.9949 55.5436
17.04 55.2717
17.0851 56.3664
17.1302 57.9767
17.1754 60.8176
17.2205 65.8844
17.2656 74.2228
17.3108 83.0321
17.3559 82.9189
17.401 70.7575
17.4462 61.8875
17.4913 58.8447
17.5365 58.5573
17.5815 58.8405
17.6268 58.9216
17.6718 59.9402
17.7171 60.3448
17.7622 60.7591
17.8074 61.1482
17.8525 63.0105
17.8977 66.9228
17.9428 72.3061
17.9881 80.8316
18.0331 98.1027
18.0784 121.08
18.1237 139.539
18.1688 130.428
18.214 102.972
18.2591 86.0751
18.3044 89.946
18.3495 100.226
18.3948 105.64
18.4399 96.2156
18.4852 77.529
18.5303 65.7999
18.5756 61.7566
18.6207 60.8348
18.666 59.9824
18.7112 59.3862
18.7565 58.6526
18.8016 58.3392
18.8469 57.594
18.892 57.3181
18.9374 56.8529
18.9825 56.5688
19.0278 56.5642
19.073 56.6687
19.1183 56.8922
19.1635 57.6033
19.2088 58.7559
19.254 61.3735
19.2993 66.3228
19.3447 72.7745
19.3898 76.0006
19.4352 71.8015
19.4804 63.2564
19.5257 56.4613
19.5709 53.9576
19.6163 53.5155
19.6615 53.3929
19.7068 52.8843
19.752 52.9475
19.7974 53.1046
19.8426 53.8605
19.888 54.5037
19.9332 55.6604
19.9786 58.2297
20.0238 61.7942
20.0692 66.6785
20.1144 69.3884
20.1598 67.6972
20.205 63.1622
20.2504 61.8822
20.2957 63.6927
20.3411 65.5904
20.3863 63.4991
20.4318 58.1775
20.477 53.7739
20.5224 51.436
20.5677 50.92
20.6131 50.0038
20.6586 49.3369
20.7038 49.2376
20.7493 48.719
20.7945 48.8356
20.84 48.5419
20.8853 48.3785
20.9307 48.2109
20.976 48.4213
21.0215 48.3558
21.0668 48.7141
21.1122 49.1579
21.1575 49.7089
21.203 50.5202
21.2483 51.1499
21.2938 51.1422
21.3391 49.8029
21.3846 48.6721
21.4299 48.1793
21.4754 47.942
21.5207 48.2411
21.5662 48.33
21.6116 48.7915
21.6571 49.398
21.7024 50.3362
21.7479 52.0048
21.7933 54.8068
21.8388 58.3828
21.8843 62.0443
21.9297 64.3312
21.9752 62.9714
22.0206 59.441
22.0661 56.5352
22.1115 55.8978
22.157 55.6016
22.2024 53.9079
22.248 51.3344
22.2933 49.6339
22.3389 48.7458
22.3843 48.7643
22.4299 48.6063
22.4753 48.8338
22.5208 48.3651
22.5662 48.2166
22.6118 48.3017
22.6572 48.5285
22.7028 48.8887
22.7483 49.3403
22.7939 50.0336
22.8393 51.5036
22.8849 53.865
22.9303 55.8803
22.9759 57.6467
23.0214 57.1563
23.067 54.3236
23.1126 51.1225
23.1581 49.03
23.2037 48.5618
23.2492 48.4961
23.2948 48.3818
23.3403 48.6421
23.3859 49.4589
23.4314 50.2317
23.477 52.3032
23.5225 54.5197
23.5682 56.7186
23.6137 57.6166
23.6593 55.4243
23.7048 51.4976
23.7505 48.2297
23.796 46.4428
23.8417 45.7525
23.8872 45.1504
23.9329 45.0246
23.9784 44.5158
24.0241 44.4565
24.0697 44.0818
24.1154 43.9763
24.1609 43.7676
24.2066 43.6146
24.2522 43.4645
24.2979 43.1581
24.3434 43.1877
24.3892 42.8733
24.4349 42.8754
24.4805 42.612
24.5262 42.889
24.5718 42.7492
24.6175 42.6325
24.6631 42.5492
24.7089 42.2081
24.7545 42.0573
24.8002 41.8061
24.8458 41.905
24.8916 41.7696
24.9372 41.8022
24.983 42.2552
25.0286 42.5714
25.0744 42.8944
25.12 43.4628
25.1658 44.1016
25.2114 44.4896
25.2572 44.5914
25.3029 44.6804
25.3487 44.7185
25.3943 44.429
25.4402 43.3793
25.4858 42.3056
25.5316 41.2857
25.5773 40.7149
25.6231 40.8794
25.669 40.3186
25.7147 40.2664
25.7605 40.1513
25.8062 40.2563
25.8521 40.3333
25.8977 40.4203
25.9436 40.5671
25.9893 40.6589
26.0352 41.1708
26.0809 41.3769
26.1268 41.5003
26.1725 41.1102
26.2184 40.6232
26.2641 40.1324
26.31 39.9214
26.3557 39.9354
26.4017 39.9247
26.4474 40.1308
26.4933 40.4588
26.5391 40.883
26.585 41.4282
26.6308 41.8771
26.6767 41.9512
26.7225 41.6974
26.7684 41.2904
26.8142 40.6709
26.8601 40.2367
26.9059 39.8755
26.9519 39.3736
26.9979 38.969
27.0437 38.7569
27.0896 38.3787
27.1354 38.5327
27.1814 38.3346
27.2272 38.2631
27.2732 38.2047
27.3191 38.1559
27.3651 38.3567
27.4109 38.1651
27.4569 38.3339
27.5027 38.3407
27.5488 38.45
27.5946 38.1638
27.6407 37.9969
27.6865 37.7825
27.7326 37.6046
27.7784 37.5566
27.8245 37.5807
27.8703 37.8007
27.9164 38.0724
27.9623 38.1241
28.0084 38.5115
28.0543 38.8823
28.1003 38.7948
28.1462 38.7283
28.1923 38.3516
28.2384 37.7372
28.2843 37.3977
28.3304 36.9412
28.3764 36.5418
28.4225 36.2968
28.4684 36.0205
28.5145 35.7005
28.5605 35.7118
28.6066 35.4867
28.6526 35.5111
28.6987 35.5064
28.7447 35.3086
28.7908 35.2687
28.8368 35.3284
28.8829 35.2608
28.9289 35.1029
28.9751 34.9518
29.0211 34.7288
29.0673 34.5566
29.1133 34.4769
29.1595 34.1561
29.2055 34.0406
29.2517 34.2808
29.2977 34.1709
29.3439 34.0649
29.3899 34.0985
29.4361 33.8866
29.4824 33.8326
29.5284 33.6554
29.5746 33.1829
29.6207 32.9448
29.6669 32.9388
29.713 32.8357
29.7593 32.6912
29.8053 32.6642
29.8516 32.5769
29.8977 32.5565
29.9439 32.3709
29.99 32.3849
30.0363 32.2456
30.0824 32.243
30.1287 32.16
30.1748 32.1715
30.2211 32.2029
30.2673 32.1679
30.3136 32.2967
30.3597 32.1141
30.406 31.9682
30.4522 31.8931
30.4985 31.9356
30.5447 31.9601
30.591 31.9511
30.6372 32.0163
30.6835 31.9885
30.7297 32.0285
30.7761 31.9672
30.8224 31.9284
30.8686 31.7477
30.915 31.4275
30.9612 31.3085
31.0076 31.0581
31.0538 31.0414
31.1002 30.9933
31.1464 30.7951
31.1928 30.7139
31.2391 30.8401
31.2855 30.6456
31.3317 30.6342
31.3781 30.6893
31.4244 30.7868
31.4708 30.7146
31.5171 30.676
31.5636 30.5815
31.6098 30.3319
31.6563 30.2157
31.7026 30.0292
31.7491 29.9697
31.7953 30.0817
31.8418 30.0278
31.8881 29.9593
31.9346 29.9188
31.9809 29.9386
32.0275 29.6459
32.074 29.6658
32.1203 29.4947
32.1668 29.4381
32.2132 29.2833
32.2597 29.1532
32.306 29.0821
32.3526 28.7645
32.399 28.8572
32.4455 28.6045
32.4919 28.5037
32.5385 28.594
32.5848 28.3552
32.6314 28.389
32.6778 28.1611
32.7244 28.1444
32.7708 28.0234
32.8174 28.0324
32.8638 27.8699
32.9104 27.9389
32.9569 27.8924
33.0035 27.7124
33.0499 27.6945
33.0966 27.6306
33.143 27.603
33.1897 27.6132
33.2361 27.4353
33.2828 27.5362
33.3293 27.2723
33.3759 27.2685
33.4226 27.1373
33.4691 27.0294
33.5158 26.8193
33.5623 26.752
33.609 26.581
33.6555 26.4929
33.7022 26.4884
33.7487 26.3906
33.7954 26.3272
33.842 26.2865
33.8887 26.1991
33.9353 26.167
33.982 26.0527
34.0286 25.9386
34.0753 25.7981
34.1219 25.8137
34.1687 25.7552
34.2152 25.6505
34.262 25.5834
34.3086 25.3942
34.3554 25.4249
34.402 25.2706
34.4488 25.1489
34.4954 25.1579
34.5422 25.0511
34.5889 24.906
34.6357 24.8748
34.6825 24.6803
34.7292 24.7347
34.776 24.6036
34.8227 24.5989
34.8695 24.5392
34.9162 24.4234
34.9631 24.3269
35.0098 24.4083
35.0566 24.1763
35.1033 24.1646
35.1502 24.1538
35.1969 24.0478
35.2438 24.0625
35.2906 23.9088
35.3375 24.0015
35.3842 23.8713
35.4311 23.9149
35.4779 23.8401
35.5248 23.6607
35.5716 23.6699
35.6185 23.6292
35.6653 23.4774
35.7123 23.4597
35.759 23.3581
35.806 23.2297
35.8528 23.1483
35.8998 23.0527
35.9468 22.9762
35.9936 23.0715
36.0406 22.9134
36.0874 22.8609
36.1345 22.7871
36.1813 22.6787
36.2283 22.5709
36.2752 22.4739
36.3222 22.5964
36.3691 22.44
36.4161 22.2665
36.463 22.3959
36.5101 22.2768
36.557 22.2339
36.6041 21.9818
36.651 22.0919
36.6981 21.9928
36.745 22.0014
36.7921 21.8467
36.839 21.7906
36.8861 21.6587
36.9331 21.6062
36.9802 21.5461
37.0272 21.4643
37.0743 21.3993
37.1213 21.3791
37.1684 21.2787
37.2154 21.2065
37.2626 21.1091
37.3098 21.1038
37.3568 21.0828
37.404 21.0154
37.451 20.8734
37.4982 20.7923
37.5452 20.6955
37.5924 20.6717
37.6395 20.7279
37.6867 20.6556
37.7337 20.5149
37.781 20.4247
37.8281 20.3847
37.8753 20.2769
37.9224 20.3028
37.9697 20.1735
38.0168 20.1777
38.064 20.0228
38.1111 19.9646
38.1584 19.9178
38.2056 19.8826
38.2529 19.8369
38.3 19.6916
38.3473 19.7534
38.3945 19.562
38.4418 19.5399
38.489 19.4964
38.5363 19.4814
38.5837 19.403
38.6309 19.2847
38.6782 19.2858
38.7254 19.1753
38.7728 19.116
38.82 19.0819
38.8674 18.9924
38.9146 18.9188
38.9621 18.8525
39.0093 18.7982
39.0567 18.7808
39.104 18.7036
39.1514 18.5684
39.1987 18.5897
39.2461 18.5496
39.2934 18.4553
39.3409 18.3306
39.3882 18.3354
39.4356 18.233
39.483 18.1941
39.5304 18.1528
39.5778 18.1443
39.6253 18.0251
39.6726 17.984
39.7201 17.9197
39.7675 17.8749
39.815 17.8032
39.8624 17.7532
39.9099 17.7431
39.9575 17.6875
40.0049 17.6588
40.0525 17.523
40.0999 17.4719
40.1474 17.405
40.1949 17.3782
40.2425 17.3044
40.2899 17.2732
40.3375 17.1974
40.385 17.1789
40.4326 17.1668
40.48 17.0322
40.5277 17.0544
40.5752 16.9387
40.6228 16.8799
40.6703 16.8158
40.718 16.7749
40.7655 16.7617
40.8132 16.6348
40.8607 16.6379
40.9084 16.5828
40.9559 16.5095
41.0036 16.5025
41.0512 16.4185
41.0989 16.396
41.1465 16.3258
41.1942 16.2294
41.242 16.1994
41.2896 16.1276
41.3373 16.0649
41.3849 16.0811
41.4327 16.0195
41.4803 15.92
41.5281 15.8879
41.5758 15.7955
41.6236 15.7008
41.6712 15.6948
41.7191 15.6311
41.7667 15.6085
41.8146 15.6462
41.8622 15.5174
41.9101 15.5247
41.9578 15.3326
42.0057 15.3533
42.0534 15.335
42.1013 15.2745
42.149 15.2021
42.1969 15.1392
42.2446 15.0579
42.2925 15.052
42.3403 15.0067
42.3882 14.9603
42.436 14.9264
42.4839 14.8167
42.5319 14.8196
42.5797 14.7746
42.6277 14.6844
42.6755 14.6833
42.7235 14.589
42.7713 14.5671
42.8193 14.4475
42.8671 14.4498
42.9152 14.4615
42.963 14.3254
43.0111 14.2987
43.0589 14.244
43.107 14.2021
43.1549 14.23
43.2029 14.0606
43.2508 14.084
43.2989 13.9851
43.3468 13.9818
43.3949 13.945
43.4429 13.8523
43.491 13.8313
43.5389 13.7978
43.5871 13.7231
43.635 13.7379
43.6832 13.6683
43.7312 13.5853
43.7793 13.5038
43.8273 13.485
43.8755 13.4699
43.9237 13.3611
43.9717 13.4273
44.0199 13.2788
44.068 13.268
44.1162 13.2125
44.1642 13.144
44.2125 13.1529
44.2606 13.1225
44.3088 13.0486
44.3569 13.001
44.4052 12.9423
44.4533 12.9314
44.5016 12.8396
44.5497 12.8165
44.598 12.7888
44.6461 12.7173
44.6945 12.6839
44.7426 12.6845
44.791 12.5503
44.8391 12.5692
44.8875 12.5103
44.9357 12.4421
44.984 12.4349
45.0322 12.3675
45.0806 12.3108
45.1288 12.2968
45.1773 12.1971
45.2257 12.1499
45.2739 12.1724
45.3224 12.1116
45.3706 12.0854
45.4191 11.9906
45.4673 11.952
45.5158 11.8936
45.5641 11.8792
45.6126 11.8371
45.6609 11.7766
45.7094 11.7329
45.7577 11.7217
45.8063 11.649
45.8546 11.6699
45.9031 11.5819
45.9515 11.5502
46.0001 11.5526
46.0484 11.4734
46.097 11.4747
46.1454 11.403
46.194 11.3808
46.2424 11.2841
46.291 11.2644
46.3395 11.202
46.3881 11.182
46.4365 11.1661
46.4852 11.1443
46.5337 11.1045
46.5823 11.057
46.631 10.9833
46.6795 10.9473
46.7282 10.9606
46.7767 10.8734
46.8254 10.8532
46.8739 10.7762
46.9226 10.7538
46.9712 10.7403
47.0199 10.6758
47.0685 10.6529
47.1173 10.5772
47.1658 10.5296
47.2146 10.5361
47.2632 10.4467
47.312 10.4452
47.3606 10.4058
47.4095 10.3021
47.4581 10.302
47.5069 10.2413
47.5556 10.2265
47.6044 10.2104
47.6531 10.1215
47.702 10.1228
47.7507 10.0546
47.7996 10.0428
47.8483 10.0251
47.8972 9.99169
47.9461 9.95867
47.9948 9.90776
48.0438 9.87363
48.0925 9.86279
48.1415 9.78752
48.1902 9.70861
48.2392 9.73618
48.288 9.67713
48.337 9.65107
48.3858 9.63371
48.4348 9.58295
48.4837 9.59018
48.5327 9.51473
48.5815 9.50625
48.6306 9.45823
48.6795 9.43851
48.7285 9.37165
48.7774 9.35394
48.8265 9.31599
48.8754 9.29336
48.9245 9.24997
48.9734 9.19629
49.0226 9.20949
49.0715 9.13048
49.1206 9.08037
49.1696 9.07424
49.2188 9.00717
49.2679 8.9965
49.3169 8.97255
49.3661 8.90081
49.4151 8.90421
49.4643 8.85564
49.5134 8.84791
49.5626 8.78053
49.6117 8.77954
49.6609 8.72454
49.71 8.66069
49.7592 8.62991
49.8083 8.59643
49.8576 8.57461
49.9067 8.5421
49.956 8.52509
50.0052 8.47602
50.0545 8.49989
50.1036 8.42456
50.153 8.36494
50.2022 8.35574
50.2515 8.3567
50.3007 8.28357
50.3501 8.25605
50.3993 8.23716
50.4487 8.18442
50.498 8.1697
50.5474 8.12057
50.5966 8.13095
50.6461 8.09508
50.6955 8.06008
50.7448 7.98759
50.7943 8.02228
50.8436 7.96301
50.8931 7.91371
50.9424 7.90407
50.9919 7.83528
51.0413 7.84113
51.0908 7.80588
51.1402 7.78628
51.1897 7.76163
51.2391 7.70832
51.2887 7.6898
51.3381 7.64227
51.3877 7.60679
51.4371 7.55956
51.4867 7.51479
51.5362 7.52346
51.5858 7.50282
51.6353 7.41679
51.6849 7.41441
51.7344 7.38631
51.7841 7.37457
51.8336 7.3532
51.8833 7.2867
51.9328 7.26644
51.9826 7.21044
52.0323 7.23328
52.0818 7.19068
52.1316 7.16699
52.1812 7.13263
52.231 7.08152
52.2806 7.07293
52.3304 7.04214
52.38 7.01186
52.4298 6.98052
52.4794 6.94562
52.5293 6.89002
52.5789 6.89764
52.6288 6.86898
52.6785 6.83189
52.7284 6.80674
52.7781 6.76772
52.828 6.73766
52.8777 6.69907
52.9276 6.73049
52.9774 6.65169
53.0273 6.66491
53.0771 6.6371
53.1271 6.56934
53.1769 6.5549
53.2269 6.54982
53.2767 6.46174
53.3267 6.49629
53.3765 6.44064
53.4266 6.38763
53.4766 6.41062
53.5265 6.3568
53.5765 6.33131
53.6264 6.28427
53.6765 6.27943
53.7264 6.27223
53.7765 6.22602
53.8265 6.18759
53.8766 6.15295
53.9266 6.15558
53.9767 6.12425
54.0267 6.11861
54.0769 6.05163
54.1269 6.02073
54.1771 6.00164
54.2271 5.9743
54.2773 5.94279
54.3274 5.92211
54.3776 5.89369
54.4277 5.8113
54.478 5.78973
54.528 5.74201
54.5783 5.73532
54.6285 5.74015
54.6788 5.6831
54.7289 5.61986
54.7792 5.56722
54.8296 5.57631
54.8798 5.44339
54.9301 5.46346
54.9803 5.43065
55.0307 5.40034
55.0809 5.39483
55.1314 5.33675
55.1816 5.22897
55.232 5.20178
55.2823 5.18693
55.3328 5.12292
55.383 5.09547
55.4335 5.0436
55.4838 4.91969
55.5344 4.91988
55.5847 4.92197
55.6352 4.92473
55.6856 4.79113
55.7361 4.84582