File: XRD/Ni3Fe_FD0107.xy
TT I
1.27165 8.20581
1.31627 8.16106
1.36089 6.87642
1.40551 6.47641
1.45013 7.01296
1.49476 5.86058
1.53938 6.1482
1.584 5.73215
1.62863 6.36024
1.67325 5.7118
1.71787 6.12444
1.7625 4.8712
1.80712 5.5545
1.85174 5.15672
1.89636 5.44692
1.94099 4.95576
1.98562 5.43977
2.03025 5.20142
2.07487 4.93161
2.11949 5.19512
2.16411 5.10372
2.20874 4.82932
2.25338 4.66945
2.298 4.66039
2.34263 4.26612
2.38725 3.99507
2.43188 3.92044
2.4765 4.73805
2.52115 4.21986
2.56577 4.65101
2.6104 4.34328
2.65503 4.8052
2.69965 5.2646
2.7443 5.19861
2.78893 5.99087
2.83356 6.63516
2.87818 7.50719
2.92281 8.32716
2.96744 9.05616
3.01209 10.1281
3.05672 10.6258
3.10135 12.16
3.14599 12.5209
3.19062 13.9758
3.23527 14.546
3.2799 15.6538
3.32454 16.1322
3.36917 17.4092
3.4138 18.55
3.45844 18.9627
3.50309 19.7365
3.54773 20.8835
3.59237 21.4495
3.637 22.241
3.68164 22.6776
3.7263 23.6425
3.77094 24.6713
3.81558 25.3734
3.86022 26.3935
3.90486 27.2619
3.9495 28.5541
3.99416 28.8688
4.0388 29.9667
4.08344 31.9679
4.12809 32.3525
4.17273 33.533
4.21738 35.0673
4.26204 35.3881
4.30669 36.8813
4.35133 39.054
4.39598 40.9324
4.44063 42.808
4.4853 44.0246
4.52995 46.9988
4.5746 48.3701
4.61925 50.8367
4.6639 53.4059
4.70855 56.4477
4.75322 58.8662
4.79788 62.0243
4.84253 65.6444
4.88719 69.8931
4.93184 75.4168
4.97652 83.0288
5.02118 91.9251
5.06583 103.922
5.11049 122.118
5.15515 166.477
5.19981 634.06
5.24449 3780.84
5.28916 6972.58
5.33382 6902.26
5.37848 614.526
5.42315 181.64
5.46783 134.858
5.5125 117.948
5.55716 110.124
5.60183 103.465
5.6465 100.671
5.69117 98.8423
5.73586 96.9115
5.78053 96.4345
5.8252 97.6909
5.86988 100.93
5.91455 109.618
5.95924 132.285
6.00392 322.827
6.0486 1426.83
6.09328 2304.87
6.13795 3932.06
6.18263 884.5
6.22733 139.781
6.27201 93.907
6.3167 80.2551
6.36138 73.157
6.40606 68.4883
6.45075 66.0261
6.49545 63.9552
6.54014 61.9672
6.58483 60.5383
6.62952 59.0068
6.67421 57.7437
6.71892 57.0575
6.76361 55.9568
6.8083 54.8887
6.853 54.1496
6.89769 53.8449
6.94239 53.3131
6.98711 52.8144
7.03181 52.2128
7.07651 52.0353
7.12121 51.8488
7.16591 51.837
7.21063 51.208
7.25533 50.961
7.30004 51.2244
7.34475 51.4737
7.38945 51.5175
7.43416 51.075
7.47889 51.2857
7.5236 57.7022
7.56831 71.2771
7.61303 57.125
7.65774 53.0993
7.70247 53.2059
7.74719 53.4936
7.79191 54.1078
7.83663 54.365
7.88135 55.6077
7.92607 56.2694
7.97081 57.5237
8.01553 58.6242
8.06026 59.9299
8.10498 60.8533
8.14971 63.1094
8.19446 64.7745
8.23919 66.7192
8.28392 70.0361
8.32865 72.6504
8.37339 77.7965
8.41812 83.8694
8.46288 97.0845
8.50761 183.807
8.55235 638.309
8.59709 786.545
8.64183 1236.96
8.68658 1750.18
8.73134 532.996
8.77609 125.588
8.82083 99.7741
8.86558 91.6932
8.91033 87.408
8.9551 84.8282
8.99985 83.1155
9.04461 82.1443
9.08936 81.3567
9.13412 80.633
9.17888 81.0364
9.22365 90.1877
9.26841 110.326
9.31318 91.6294
9.35794 82.3267
9.4027 81.3868
9.44749 82.1418
9.49226 82.3036
9.53703 83.5738
9.5818 84.8112
9.62657 86.0302
9.67134 87.3393
9.71614 89.9535
9.76091 91.8246
9.80569 94.461
9.85047 98.2238
9.89525 103.564
9.94005 115.156
9.98484 195.099
10.0296 577.741
10.0744 687.895
10.1192 839.37
10.164 1527.97
10.2088 1143.78
10.2536 261.865
10.2984 120.368
10.3432 108.729
10.388 105.209
10.4328 122.867
10.4776 223.329
10.5224 248.592
10.5672 279.285
10.612 449.705
10.6568 413.133
10.7017 155.089
10.7465 93.3769
10.7913 83.2286
10.8361 79.8344
10.8809 77.3685
10.9257 74.7446
10.9706 73.5976
11.0154 71.8307
11.0602 70.2376
11.105 69.3995
11.1499 67.9431
11.1947 66.7526
11.2395 65.6445
11.2844 65.2103
11.3292 64.1012
11.374 63.571
11.4189 63.3631
11.4637 62.5203
11.5086 62.1981
11.5534 61.3126
11.5983 61.2827
11.6431 61.3163
11.688 60.7341
11.7328 60.9836
11.7777 60.5279
11.8225 60.2863
11.8674 60.6022
11.9122 62.3002
11.9571 68.0065
12.002 67.5706
12.0468 68.036
12.0917 92.1087
12.1366 107.169
12.1814 107.42
12.2263 131.744
12.2712 181.814
12.3161 152.596
12.3609 79.2032
12.4058 63.8666
12.4507 62.7816
12.4956 62.436
12.5405 62.4778
12.5853 62.5936
12.6302 62.9255
12.6751 63.8131
12.72 64.3759
12.7649 65.2803
12.8098 66.0364
12.8547 67.0958
12.8996 68.666
12.9445 70.206
12.9894 71.9964
13.0343 74.1298
13.0792 78.7169
13.1242 86.9684
13.1691 136.877
13.214 191.999
13.2589 189.192
13.3038 209.613
13.3487 306.379
13.3937 389.306
13.4386 242.805
13.4835 126.993
13.5285 159.283
13.5734 183.483
13.6183 173.627
13.6633 203.158
13.7082 297.054
13.7531 322.694
13.7981 177.71
13.843 90.8733
13.888 80.3492
13.9329 76.9652
13.9779 75.313
14.0228 73.3797
14.0678 72.4585
14.1127 72.5789
14.1577 75.6532
14.2027 74.3427
14.2476 70.5457
14.2926 68.5161
14.3376 67.9942
14.3825 67.6797
14.4275 67.3228
14.4725 67.0446
14.5175 67.4972
14.5624 67.1863
14.6074 67.7436
14.6524 67.9929
14.6974 68.8979
14.7424 70.6557
14.7874 80.5784
14.8324 108.767
14.8774 120.284
14.9224 116.765
14.9674 129.669
15.0124 171.218
15.0574 207.257
15.1024 155.264
15.1474 86.311
15.1924 71.0982
15.2374 68.489
15.2824 67.0816
15.3274 66.1087
15.3725 65.3926
15.4175 65.2565
15.4625 64.8484
15.5076 64.4157
15.5526 64.7519
15.5976 64.6895
15.6426 65.7757
15.6877 73.6851
15.7327 96.9248
15.7778 107.865
15.8228 103.69
15.8679 110.39
15.9129 135.792
15.958 178.399
16.003 164.659
16.0481 97.9835
16.0931 68.1295
16.1382 61.9723
16.1833 59.777
16.2283 58.1772
16.2734 57.2657
16.3185 56.4142
16.3636 55.9885
16.4086 55.1567
16.4537 54.6548
16.4988 54.2426
16.5439 54.1482
16.589 53.862
16.6341 53.6441
16.6792 53.1548
16.7243 53.4611
16.7694 53.3606
16.8145 53.2744
16.8596 53.536
16.9047 54.0924
16.9498 54.4239
16.9949 54.3185
17.04 54.6955
17.0851 56.1252
17.1302 60.5948
17.1754 64.0209
17.2205 63.4558
17.2656 63.9896
17.3108 68.2379
17.3559 75.5093
17.401 80.7417
17.4462 73.4892
17.4913 62.1163
17.5365 58.6269
17.5815 58.2535
17.6268 58.3875
17.6718 59.0047
17.7171 59.3818
17.7622 60.4936
17.8074 61.6432
17.8525 63.163
17.8977 71.8878
17.9428 84.5342
17.9881 87.8262
18.0331 85.894
18.0784 89.7039
18.1237 103.65
18.1688 132.601
18.214 146.69
18.2591 118.325
18.3044 87.785
18.3495 81.8386
18.3948 88.6706
18.4399 99.8838
18.4852 98.3351
18.5303 79.5813
18.5756 65.6486
18.6207 61.8398
18.666 60.3644
18.7112 59.1071
18.7565 58.4016
18.8016 57.9278
18.8469 57.5889
18.892 57.3261
18.9374 56.6908
18.9825 56.3619
19.0278 56.0033
19.073 55.8921
19.1183 56.751
19.1635 59.1015
19.2088 61.4435
19.254 61.3164
19.2993 61.2534
19.3447 62.6249
19.3898 65.9014
19.4352 71.4025
19.4804 73.093
19.5257 65.6647
19.5709 56.8461
19.6163 53.7681
19.6615 53.1262
19.7068 52.6752
19.752 52.5097
19.7974 52.8577
19.8426 53.8889
19.888 56.4689
19.9332 57.8056
19.9786 57.6316
20.0238 57.2876
20.0692 59.3511
20.1144 64.3613
20.1598 70.4408
20.205 71.0453
20.2504 65.779
20.2957 59.8293
20.3411 59.1962
20.3863 62.3151
20.4318 64.1352
20.477 60.1214
20.5224 53.6651
20.5677 50.5741
20.6131 49.7108
20.6586 49.1776
20.7038 48.9094
20.7493 48.5689
20.7945 48.5309
20.84 48.4777
20.8853 48.2482
20.9307 47.9328
20.976 48.2807
21.0215 48.3456
21.0668 48.7222
21.1122 48.7798
21.1575 48.5481
21.203 48.5547
21.2483 48.987
21.2938 50.3058
21.3391 50.713
21.3846 50.198
21.4299 49.0638
21.4754 48.2102
21.5207 48.1085
21.5662 48.3708
21.6116 48.7309
21.6571 50.6978
21.7024 52.8108
21.7479 53.4536
21.7933 53.227
21.8388 53.9452
21.8843 56.3144
21.9297 59.4108
21.9752 63.5475
22.0206 65.4941
22.0661 61.3713
22.1115 55.9252
22.157 54.3322
22.2024 55.4272
22.248 55.0567
22.2933 52.8417
22.3389 49.7911
22.3843 48.6211
22.4299 48.2424
22.4753 48.4165
22.5208 48.162
22.5662 48.0354
22.6118 48.372
22.6572 48.5373
22.7028 49.7649
22.7483 50.9886
22.7939 51.4396
22.8393 51.1226
22.8849 51.3538
22.9303 51.7641
22.9759 53.1448
23.0214 55.0827
23.067 57.4504
23.1126 56.3098
23.1581 52.8133
23.2037 49.7151
23.2492 48.7471
23.2948 49.2585
23.3403 50.5373
23.3859 51.3375
23.4314 51.1403
23.477 50.7531
23.5225 50.8234
23.5682 51.7176
23.6137 53.652
23.6593 56.1005
23.7048 57.2592
23.7505 54.2961
23.796 49.6367
23.8417 46.7215
23.8872 45.6159
23.9329 45.132
23.9784 44.8693
24.0241 44.4269
24.0697 44.2177
24.1154 43.7449
24.1609 43.5878
24.2066 43.278
24.2522 43.2697
24.2979 43.0705
24.3434 43.0894
24.3892 42.6798
24.4349 42.6798
24.4805 42.3123
24.5262 42.4247
24.5718 42.2928
24.6175 42.3966
24.6631 42.5625
24.7089 42.4963
24.7545 42.4509
24.8002 41.913
24.8458 42.0337
24.8916 41.9487
24.9372 42.0218
24.983 42.1973
25.0286 42.276
25.0744 42.7841
25.12 43.1953
25.1658 43.4561
25.2114 43.8011
25.2572 44.1587
25.3029 44.2358
25.3487 43.969
25.3943 43.8626
25.4402 44.2092
25.4858 44.3688
25.5316 42.9572
25.5773 41.4329
25.6231 40.9969
25.669 40.4874
25.7147 40.3113
25.7605 40.2171
25.8062 40.4106
25.8521 40.69
25.8977 40.5385
25.9436 40.3978
25.9893 40.3838
26.0352 40.56
26.0809 40.4481
26.1268 40.8409
26.1725 41.1904
26.2184 41.4649
26.2641 41.1827
26.31 40.6652
26.3557 40.4297
26.4017 40.2816
26.4474 40.3926
26.4933 40.291
26.5391 40.4923
26.585 40.7459
26.6308 40.7718
26.6767 41.1937
26.7225 41.739
26.7684 42.1519
26.8142 41.7126
26.8601 41.0231
26.9059 40.4245
26.9519 39.9406
26.9979 39.6588
27.0437 39.1382
27.0896 38.8431
27.1354 38.6563
27.1814 38.5468
27.2272 38.4898
27.2732 38.4329
27.3191 38.1858
27.3651 38.1227
27.4109 38.1001
27.4569 38.0697
27.5027 38.1485
27.5488 38.097
27.5946 38.1722
27.6407 38.2487
27.6865 38.3729
27.7326 38.1803
27.7784 38.0938
27.8245 37.9524
27.8703 37.7536
27.9164 37.9601
27.9623 37.8739
28.0084 37.9895
28.0543 38.1903
28.1003 38.266
28.1462 38.6519
28.1923 38.8725
28.2384 38.3518
28.2843 37.9521
28.3304 37.652
28.3764 37.2243
28.4225 36.9323
28.4684 36.4406
28.5145 35.9042
28.5605 35.746
28.6066 35.6706
28.6526 35.5048
28.6987 35.4404
28.7447 35.2267
28.7908 35.1043
28.8368 35.0841
28.8829 35.0364
28.9289 35.0267
28.9751 34.9902
29.0211 34.8576
29.0673 34.6959
29.1133 34.5973
29.1595 34.4229
29.2055 34.168
29.2517 34.0522
29.2977 33.9539
29.3439 33.78
29.3899 33.7135
29.4361 33.7134
29.4824 33.7242
29.5284 33.7943
29.5746 33.5563
29.6207 33.1031
29.6669 32.9926
29.713 32.7836
29.7593 32.5876
29.8053 32.584
29.8516 32.6241
29.8977 32.5439
29.9439 32.2863
29.99 32.3969
30.0363 32.259
30.0824 32.364
30.1287 32.1397
30.1748 32.2307
30.2211 32.0095
30.2673 32.0462
30.3136 32.2089
30.3597 32.1651
30.406 32.1627
30.4522 32.0044
30.4985 31.8095
30.5447 31.9184
30.591 31.8404
30.6372 31.7308
30.6835 31.6999
30.7297 31.7751
30.7761 31.8323
30.8224 32.0039
30.8686 31.9763
30.915 31.6624
30.9612 31.5923
31.0076 31.4107
31.0538 31.1716
31.1002 31.0112
31.1464 30.8466
31.1928 30.7807
31.2391 30.8168
31.2855 30.6327
31.3317 30.635
31.3781 30.6932
31.4244 30.5657
31.4708 30.5344
31.5171 30.541
31.5636 30.6895
31.6098 30.4651
31.6563 30.5259
31.7026 30.3365
31.7491 30.0809
31.7953 30.1028
31.8418 29.9582
31.8881 29.8918
31.9346 29.8331
31.9809 29.7894
32.0275 29.7548
32.074 29.7644
32.1203 29.651
32.1668 29.5478
32.2132 29.3545
32.2597 29.281
32.306 29.1064
32.3526 28.949
32.399 28.7864
32.4455 28.6794
32.4919 28.431
32.5385 28.4259
32.5848 28.305
32.6314 28.3614
32.6778 28.3126
32.7244 28.1784
32.7708 27.9231
32.8174 28.002
32.8638 27.9261
32.9104 27.8976
32.9569 27.803
33.0035 27.6734
33.0499 27.6123
33.0966 27.5541
33.143 27.4938
33.1897 27.4645
33.2361 27.3666
33.2828 27.3824
33.3293 27.1952
33.3759 27.3197
33.4226 27.1922
33.4691 27.0919
33.5158 27.0691
33.5623 26.8259
33.609 26.6259
33.6555 26.4514
33.7022 26.3979
33.7487 26.3046
33.7954 26.2713
33.842 26.1617
33.8887 26.1526
33.9353 26.0691
33.982 25.9927
34.0286 25.9167
34.0753 25.96
34.1219 25.7929
34.1687 25.6942
34.2152 25.5509
34.262 25.4825
34.3086 25.3356
34.3554 25.3292
34.402 25.2161
34.4488 25.1136
34.4954 25.0839
34.5422 24.9641
34.5889 24.9437
34.6357 24.798
34.6825 24.7747
34.7292 24.6483
34.776 24.6139
34.8227 24.4688
34.8695 24.3769
34.9162 24.3876
34.9631 24.2823
35.0098 24.3586
35.0566 24.0898
35.1033 24.0991
35.1502 24.0729
35.1969 24.0159
35.2438 23.9853
35.2906 23.912
35.3375 23.8331
35.3842 23.7776
35.4311 23.751
35.4779 23.8093
35.5248 23.7619
35.5716 23.6474
35.6185 23.6209
35.6653 23.5378
35.7123 23.3739
35.759 23.3548
35.806 23.2419
35.8528 23.0792
35.8998 23.0465
35.9468 22.9804
35.9936 22.927
36.0406 22.7777
36.0874 22.8305
36.1345 22.6824
36.1813 22.6501
36.2283 22.5767
36.2752 22.5158
36.3222 22.5295
36.3691 22.3781
36.4161 22.3952
36.463 22.2964
36.5101 22.3088
36.557 22.1684
36.6041 22.0637
36.651 22.0398
36.6981 21.9657
36.745 21.8702
36.7921 21.7908
36.839 21.826
36.8861 21.6627
36.9331 21.6675
36.9802 21.5516
37.0272 21.4503
37.0743 21.3189
37.1213 21.3812
37.1684 21.2266
37.2154 21.2029
37.2626 21.121
37.3098 21.0244
37.3568 21.001
37.404 21.0188
37.451 20.8585
37.4982 20.7922
37.5452 20.6629
37.5924 20.5982
37.6395 20.7316
37.6867 20.5732
37.7337 20.4744
37.781 20.4529
37.8281 20.4098
37.8753 20.2839
37.9224 20.1773
37.9697 20.1556
38.0168 20.0252
38.064 19.9799
38.1111 19.9079
38.1584 19.9254
38.2056 19.7478
38.2529 19.7944
38.3 19.6658
38.3473 19.6965
38.3945 19.5842
38.4418 19.6163
38.489 19.5209
38.5363 19.3436
38.5837 19.3224
38.6309 19.3004
38.6782 19.2419
38.7254 19.0574
38.7728 19.1117
38.82 18.999
38.8674 18.9787
38.9146 18.9279
38.9621 18.8665
39.0093 18.7721
39.0567 18.7091
39.104 18.6101
39.1514 18.5953
39.1987 18.5367
39.2461 18.5518
39.2934 18.4517
39.3409 18.3096
39.3882 18.3117
39.4356 18.2704
39.483 18.1768
39.5304 18.0934
39.5778 18.0952
39.6253 18.0289
39.6726 17.96
39.7201 17.9151
39.7675 17.8035
39.815 17.848
39.8624 17.7228
39.9099 17.7294
39.9575 17.6226
40.0049 17.5805
40.0525 17.5063
40.0999 17.4093
40.1474 17.4343
40.1949 17.3792
40.2425 17.3132
40.2899 17.3005
40.3375 17.2055
40.385 17.1292
40.4326 17.0449
40.48 17.0276
40.5277 17.0083
40.5752 16.9573
40.6228 16.826
40.6703 16.7606
40.718 16.7414
40.7655 16.7209
40.8132 16.6016
40.8607 16.6583
40.9084 16.6164
40.9559 16.519
41.0036 16.4382
41.0512 16.4018
41.0989 16.3519
41.1465 16.2604
41.1942 16.2808
41.242 16.1283
41.2896 16.0982
41.3373 16.0688
41.3849 15.9938
41.4327 15.9755
41.4803 15.8663
41.5281 15.8463
41.5758 15.7783
41.6236 15.7107
41.6712 15.7038
41.7191 15.567
41.7667 15.5829
41.8146 15.5154
41.8622 15.5004
41.9101 15.3897
41.9578 15.3085
42.0057 15.3419
42.0534 15.2705
42.1013 15.2298
42.149 15.1499
42.1969 15.0923
42.2446 15.0872
42.2925 15.017
42.3403 14.9616
42.3882 14.9046
42.436 14.919
42.4839 14.8021
42.5319 14.7843
42.5797 14.7324
42.6277 14.6598
42.6755 14.6201
42.7235 14.5352
42.7713 14.4919
42.8193 14.5142
42.8671 14.3938
42.9152 14.37
42.963 14.3135
43.0111 14.287
43.0589 14.2467
43.107 14.1856
43.1549 14.1516
43.2029 14.1016
43.2508 14.0394
43.2989 13.9542
43.3468 13.9623
43.3949 13.907
43.4429 13.9059
43.491 13.7285
43.5389 13.7667
43.5871 13.7479
43.635 13.6104
43.6832 13.6088
43.7312 13.5357
43.7793 13.4915
43.8273 13.4579
43.8755 13.3802
43.9237 13.366
43.9717 13.352
44.0199 13.2483
44.068 13.2401
44.1162 13.1956
44.1642 13.137
44.2125 13.1073
44.2606 13.0445
44.3088 12.9798
44.3569 12.9539
44.4052 12.9404
44.4533 12.8586
44.5016 12.8102
44.5497 12.7636
44.598 12.7219
44.6461 12.6807
44.6945 12.6448
44.7426 12.5807
44.791 12.4976
44.8391 12.5333
44.8875 12.4354
44.9357 12.4324
44.984 12.3921
45.0322 12.3287
45.0806 12.2659
45.1288 12.2174
45.1773 12.1596
45.2257 12.1435
45.2739 12.0706
45.3224 12.0712
45.3706 12.038
45.4191 11.9888
45.4673 11.9343
45.5158 11.8425
45.5641 11.832
45.6126 11.8468
45.6609 11.7809
45.7094 11.7539
45.7577 11.7231
45.8063 11.6238
45.8546 11.6357
45.9031 11.5223
45.9515 11.5064
46.0001 11.5009
46.0484 11.4161
46.097 11.3922
46.1454 11.3348
46.194 11.344
46.2424 11.3032
46.291 11.243
46.3395 11.2094
46.3881 11.1066
46.4365 11.178
46.4852 11.0603
46.5337 11.0464
46.5823 11.0031
46.631 10.9589
46.6795 10.9309
46.7282 10.8936
46.7767 10.8419
46.8254 10.7612
46.8739 10.7767
46.9226 10.6785
46.9712 10.6506
47.0199 10.6509
47.0685 10.6063
47.1173 10.5337
47.1658 10.5189
47.2146 10.5005
47.2632 10.4365
47.312 10.4192
47.3606 10.3593
47.4095 10.3075
47.4581 10.2996
47.5069 10.2725
47.5556 10.2023
47.6044 10.1484
47.6531 10.0994
47.702 10.076
47.7507 10.0779
47.7996 10.0278
47.8483 10.0132
47.8972 9.96347
47.9461 9.93453
47.9948 9.86797
48.0438 9.82873
48.0925 9.83159
48.1415 9.77536
48.1902 9.74321
48.2392 9.71344
48.288 9.69503
48.337 9.61563
48.3858 9.62039
48.4348 9.59626
48.4837 9.57381
48.5327 9.51361
48.5815 9.43783
48.6306 9.42622
48.6795 9.41176
48.7285 9.35798
48.7774 9.36714
48.8265 9.28875
48.8754 9.26739
48.9245 9.25736
48.9734 9.18157
49.0226 9.15047
49.0715 9.0765
49.1206 9.10871
49.1696 9.03725
49.2188 9.01443
49.2679 8.9561
49.3169 8.92528
49.3661 8.93665
49.4151 8.86328
49.4643 8.85353
49.5134 8.83476
49.5626 8.72672
49.6117 8.74525
49.6609 8.72178
49.71 8.68536
49.7592 8.63886
49.8083 8.57131
49.8576 8.5844
49.9067 8.58316
49.956 8.51529
50.0052 8.45909
50.0545 8.4828
50.1036 8.41879
50.153 8.37684
50.2022 8.37089
50.2515 8.3169
50.3007 8.27801
50.3501 8.24889
50.3993 8.24178
50.4487 8.19345
50.498 8.16915
50.5474 8.14181
50.5966 8.08308
50.6461 8.06994
50.6955 8.02707
50.7448 8.02276
50.7943 7.95963
50.8436 7.9651
50.8931 7.8951
50.9424 7.86969
50.9919 7.84603
51.0413 7.79304
51.0908 7.79359
51.1402 7.75563
51.1897 7.72007
51.2391 7.71527
51.2887 7.64897
51.3381 7.63479
51.3877 7.62953
51.4371 7.55091
51.4867 7.52462
51.5362 7.51326
51.5858 7.49977
51.6353 7.42699
51.6849 7.41921
51.7344 7.39447
51.7841 7.35408
51.8336 7.32879
51.8833 7.318
51.9328 7.24027
51.9826 7.25066
52.0323 7.2006
52.0818 7.17184
52.1316 7.15004
52.1812 7.11632
52.231 7.07649
52.2806 7.05793
52.3304 7.05867
52.38 7.02734
52.4298 6.96775
52.4794 6.9356
52.5293 6.91708
52.5789 6.93054
52.6288 6.84577
52.6785 6.82974
52.7284 6.8248
52.7781 6.77179
52.828 6.79475
52.8777 6.67345
52.9276 6.67584
52.9774 6.6539
53.0273 6.68049
53.0771 6.62116
53.1271 6.5813
53.1769 6.54476
53.2269 6.54486
53.2767 6.49023
53.3267 6.47233
53.3765 6.45447
53.4266 6.45575
53.4766 6.37414
53.5265 6.34229
53.5765 6.32432
53.6264 6.30786
53.6765 6.28367
53.7264 6.19278
53.7765 6.1811
53.8265 6.18813
53.8766 6.16794
53.9266 6.11899
53.9767 6.09691
54.0267 6.10215
54.0769 6.01992
54.1269 5.98902
54.1771 5.97296
54.2271 5.92596
54.2773 5.90279
54.3274 5.92427
54.3776 5.84297
54.4277 5.76307
54.478 5.76434
54.528 5.70428
54.5783 5.65901
54.6285 5.60415
54.6788 5.58623
54.7289 5.52939
54.7792 5.48419
54.8296 5.46107
54.8798 5.41066
54.9301 5.35749
54.9803 5.2973
55.0307 5.32027
55.0809 5.23279
55.1314 5.19064
55.1816 5.14738
55.232 5.07622
55.2823 5.02216
55.3328 4.98965
55.383 4.89669
55.4335 4.92338
55.4838 4.84647
55.5344 4.78025
55.5847 4.80748
55.6352 4.81652
55.6856 4.71819
55.7361 4.71464