File: XRD/Ni3Fe_FD0196.xy
TT I
1.27165 7.87027
1.31627 7.18569
1.36089 7.3572
1.40551 6.64557
1.45013 6.8183
1.49476 6.65171
1.53938 6.33125
1.584 5.80507
1.62863 5.38149
1.67325 5.26348
1.71787 5.83169
1.7625 5.12805
1.80712 5.30939
1.85174 5.45509
1.89636 5.58655
1.94099 4.69596
1.98562 5.21287
2.03025 5.52863
2.07487 5.34277
2.11949 4.68766
2.16411 5.0229
2.20874 4.47063
2.25338 4.6642
2.298 4.45076
2.34263 4.36996
2.38725 4.42476
2.43188 4.29005
2.4765 4.21854
2.52115 5.13385
2.56577 4.65594
2.6104 5.53157
2.65503 4.90026
2.69965 5.84891
2.7443 5.95761
2.78893 6.27604
2.83356 7.12284
2.87818 7.63269
2.92281 8.45966
2.96744 9.1745
3.01209 10.9077
3.05672 11.3878
3.10135 11.838
3.14599 13.2056
3.19062 14.6927
3.23527 15.1802
3.2799 16.1055
3.32454 17.6326
3.36917 18.2944
3.4138 19.3995
3.45844 19.5627
3.50309 20.7568
3.54773 21.613
3.59237 22.5482
3.637 23.5493
3.68164 23.9476
3.7263 25.2053
3.77094 25.9185
3.81558 27.1345
3.86022 27.8669
3.90486 29.2115
3.9495 30.2816
3.99416 31.2315
4.0388 32.2861
4.08344 33.7973
4.12809 34.8836
4.17273 36.293
4.21738 37.8281
4.26204 38.7811
4.30669 40.7533
4.35133 42.8031
4.39598 44.2126
4.44063 46.2232
4.4853 48.6368
4.52995 50.7579
4.5746 53.6245
4.61925 55.3618
4.6639 58.3024
4.70855 60.9195
4.75322 64.5991
4.79788 67.2959
4.84253 71.4771
4.88719 75.4447
4.93184 81.5529
4.97652 88.7655
5.02118 96.8939
5.06583 108.551
5.11049 125.185
5.15515 166.172
5.19981 777.744
5.24449 3974.59
5.28916 9883.99
5.33382 4817.83
5.37848 324.383
5.42315 159.175
5.46783 130.772
5.5125 119.397
5.55716 112.674
5.60183 107.61
5.6465 105.116
5.69117 103.929
5.73586 101.823
5.78053 100.966
5.8252 101.669
5.86988 104.529
5.91455 110.995
5.95924 133.042
6.00392 392.114
6.0486 1457.67
6.09328 3364.53
6.13795 3815.16
6.18263 447.713
6.22733 114.879
6.27201 90.6516
6.3167 81.7569
6.36138 76.5077
6.40606 72.5254
6.45075 70.453
6.49545 68.6544
6.54014 66.6746
6.58483 65.2635
6.62952 64.2186
6.67421 62.5066
6.71892 61.6697
6.76361 60.4446
6.8083 60.1012
6.853 58.8534
6.89769 58.1961
6.94239 57.7231
6.98711 57.4723
7.03181 56.4063
7.07651 56.4339
7.12121 56.2112
7.16591 56.2257
7.21063 55.488
7.25533 55.6235
7.30004 55.3565
7.34475 55.8663
7.38945 55.7392
7.43416 55.5922
7.47889 56.1266
7.5236 58.5966
7.56831 61.4998
7.61303 57.868
7.65774 57.0233
7.70247 57.6818
7.74719 57.8736
7.79191 58.8999
7.83663 59.188
7.88135 60.027
7.92607 61.2605
7.97081 62.6595
8.01553 63.6788
8.06026 64.9833
8.10498 66.4608
8.14971 68.441
8.19446 70.0927
8.23919 73.1146
8.28392 76.0573
8.32865 79.0042
8.37339 83.9459
8.41812 90.165
8.46288 105.702
8.50761 253.058
8.55235 621.355
8.59709 1012.65
8.64183 1830.73
8.68658 1339.39
8.73134 256.643
8.77609 113.381
8.82083 100.915
8.86558 95.8936
8.91033 92.9848
8.9551 90.4852
8.99985 89.3753
9.04461 88.6474
9.08936 87.633
9.13412 87.1764
9.17888 86.7753
9.22365 91.0432
9.26841 94.156
9.31318 89.1515
9.35794 87.8451
9.4027 87.7364
9.44749 89.1867
9.49226 89.4332
9.53703 90.547
9.5818 92.565
9.62657 93.4521
9.67134 94.8988
9.71614 97.1297
9.76091 99.7095
9.80569 102.548
9.85047 106.471
9.89525 112.015
9.94005 127.298
9.98484 269.409
10.0296 553.436
10.0744 772.552
10.1192 1316.32
10.164 1740.92
10.2088 669.622
10.2536 163.238
10.2984 118.902
10.3432 113.394
10.388 111.779
10.4328 150.069
10.4776 222.33
10.5224 275.442
10.5672 407.404
10.612 531.501
10.6568 284.505
10.7017 116.259
10.7465 93.6622
10.7913 88.4427
10.8361 85.341
10.8809 82.8078
10.9257 80.7895
10.9706 79.3093
11.0154 77.6664
11.0602 76.1345
11.105 74.6318
11.1499 73.2599
11.1947 72.1921
11.2395 71.1472
11.2844 70.6811
11.3292 69.8635
11.374 68.8715
11.4189 68.6801
11.4637 67.5256
11.5086 66.9235
11.5534 66.5665
11.5983 66.3525
11.6431 66.1729
11.688 65.7752
11.7328 65.6666
11.7777 65.3574
11.8225 65.1389
11.8674 65.1619
11.9122 66.3711
11.9571 67.6565
12.002 68.7219
12.0468 76.9834
12.0917 96.9136
12.1366 109.003
12.1814 134.184
12.2263 179.42
12.2712 190.087
12.3161 114.754
12.3609 71.9271
12.4058 67.159
12.4507 67.3384
12.4956 67.5138
12.5405 67.2658
12.5853 67.9301
12.6302 68.0229
12.6751 68.9442
12.72 69.6727
12.7649 70.8722
12.8098 71.4661
12.8547 72.7521
12.8996 74.4762
12.9445 76.2551
12.9894 78.0077
13.0343 80.2395
13.0792 85.1956
13.1242 101.71
13.1691 151.16
13.214 181.382
13.2589 220.577
13.3038 296.658
13.3487 405.346
13.3937 334.073
13.4386 161.405
13.4835 130.412
13.5285 160.066
13.5734 177.054
13.6183 215.244
13.6633 290.338
13.7082 360.611
13.7531 250.907
13.7981 120.404
13.843 88.3969
13.888 84.4891
13.9329 81.6617
13.9779 80.1263
14.0228 78.565
14.0678 76.8672
14.1127 76.7673
14.1577 76.8721
14.2027 75.2567
14.2476 74.3392
14.2926 73.4594
14.3376 73.2764
14.3825 72.6643
14.4275 72.3239
14.4725 72.3993
14.5175 72.5732
14.5624 72.3985
14.6074 72.9143
14.6524 73.3939
14.6974 74.0284
14.7424 77.8807
14.7874 94.0404
14.8324 110.433
14.8774 120.131
14.9224 139.668
14.9674 174.52
15.0124 215.243
15.0574 182.635
15.1024 110.96
15.1474 78.4474
15.1924 73.9483
15.2374 72.5497
15.2824 71.3529
15.3274 70.3195
15.3725 70.1383
15.4175 69.9493
15.4625 69.503
15.5076 69.121
15.5526 69.4154
15.5976 69.6957
15.6426 71.9586
15.6877 85.0358
15.7327 98.2302
15.7778 104.936
15.8228 118.409
15.8679 143.482
15.9129 179.083
15.958 178.111
16.003 122.498
16.0481 76.4227
16.0931 66.6077
16.1382 64.4514
16.1833 63.2717
16.2283 61.8298
16.2734 61.0222
16.3185 60.1745
16.3636 59.6883
16.4086 58.8203
16.4537 58.5291
16.4988 58.2478
16.5439 57.934
16.589 57.8177
16.6341 57.4999
16.6792 56.9946
16.7243 57.2195
16.7694 57.2124
16.8145 57.0523
16.8596 57.5779
16.9047 57.6684
16.9498 57.8749
16.9949 57.9989
17.04 58.6208
17.0851 61.364
17.1302 64.4185
17.1754 66.1037
17.2205 68.3663
17.2656 72.1941
17.3108 79.9076
17.3559 84.9228
17.401 79.2095
17.4462 68.5416
17.4913 62.7226
17.5365 62.0883
17.5815 61.9568
17.6268 62.5577
17.6718 63.0157
17.7171 63.5922
17.7622 64.6596
17.8074 65.6376
17.8525 69.9487
17.8977 78.9948
17.9428 84.8085
17.9881 88.3305
18.0331 96.7685
18.0784 109.932
18.1237 132.173
18.1688 145.373
18.214 125.859
18.2591 97.1316
18.3044 89.6121
18.3495 94.2391
18.3948 103.583
18.4399 103.541
18.4852 87.7014
18.5303 71.959
18.5756 65.794
18.6207 64.5589
18.666 63.416
18.7112 62.7794
18.7565 62.1463
18.8016 61.6028
18.8469 61.123
18.892 60.7418
18.9374 60.1824
18.9825 59.8297
19.0278 59.3089
19.073 59.8291
19.1183 61.2663
19.1635 62.5311
19.2088 63.5524
19.254 64.6826
19.2993 66.6148
19.3447 70.124
19.3898 74.5707
19.4352 75.9039
19.4804 69.8353
19.5257 61.4666
19.5709 57.4661
19.6163 56.6729
19.6615 56.4168
19.7068 55.9554
19.752 55.9273
19.7974 56.6268
19.8426 57.9954
19.888 59.0957
19.9332 59.7945
19.9786 61.1122
20.0238 62.9376
20.0692 67.253
20.1144 71.793
20.1598 73.6119
20.205 69.2574
20.2504 64.7272
20.2957 63.8153
20.3411 65.8676
20.3863 67.3329
20.4318 63.5555
20.477 57.8041
20.5224 53.9807
20.5677 53.1114
20.6131 52.6214
20.6586 52.1086
20.7038 52.0044
20.7493 51.3945
20.7945 51.3468
20.84 51.388
20.8853 51.0496
20.9307 51.032
20.976 51.3813
21.0215 51.3334
21.0668 51.5427
21.1122 51.8768
21.1575 51.7719
21.203 52.3396
21.2483 52.8766
21.2938 53.8181
21.3391 52.9666
21.3846 51.7413
21.4299 50.9818
21.4754 50.8644
21.5207 51.0766
21.5662 51.375
21.6116 52.4706
21.6571 53.9616
21.7024 54.7407
21.7479 55.2487
21.7933 56.9479
21.8388 59.3469
21.8843 62.3784
21.9297 65.4155
21.9752 67.1036
22.0206 64.0849
22.0661 59.1762
22.1115 57.3117
22.157 58.0883
22.2024 57.6062
22.248 55.2683
22.2933 52.8999
22.3389 51.4934
22.3843 51.1879
22.4299 50.9285
22.4753 50.9148
22.5208 51.0226
22.5662 50.8789
22.6118 51.0791
22.6572 51.7054
22.7028 52.5684
22.7483 53.2075
22.7939 53.2272
22.8393 53.9046
22.8849 55.038
22.9303 56.371
22.9759 58.2427
23.0214 59.534
23.067 58.447
23.1126 55.3189
23.1581 52.4189
23.2037 51.4002
23.2492 51.5371
23.2948 52.2537
23.3403 52.574
23.3859 52.8524
23.4314 53.2042
23.477 53.8748
23.5225 55.061
23.5682 56.7783
23.6137 58.9655
23.6593 58.9923
23.7048 56.0958
23.7505 52.0655
23.796 49.4443
23.8417 48.5087
23.8872 47.8618
23.9329 47.4829
23.9784 47.1879
24.0241 46.9593
24.0697 46.5638
24.1154 46.2232
24.1609 45.9767
24.2066 45.9149
24.2522 45.9225
24.2979 45.4438
24.3434 45.3586
24.3892 45.2061
24.4349 45.093
24.4805 44.9481
24.5262 45.0844
24.5718 44.7553
24.6175 44.9356
24.6631 44.8353
24.7089 44.584
24.7545 44.303
24.8002 44.1612
24.8458 44.4752
24.8916 44.1864
24.9372 44.3726
24.983 44.726
25.0286 45.0726
25.0744 45.3677
25.12 45.5685
25.1658 46.0514
25.2114 46.4422
25.2572 46.5782
25.3029 46.3392
25.3487 46.3612
25.3943 46.5012
25.4402 45.8802
25.4858 45.1354
25.5316 43.8502
25.5773 43.0042
25.6231 42.8792
25.669 42.5303
25.7147 42.5127
25.7605 42.5209
25.8062 42.5206
25.8521 42.7096
25.8977 42.4814
25.9436 42.6468
25.9893 42.5925
26.0352 42.9202
26.0809 43.1425
26.1268 43.303
26.1725 43.336
26.2184 43.1283
26.2641 42.5874
26.31 42.2153
26.3557 42.1269
26.4017 42.1164
26.4474 42.368
26.4933 42.4911
26.5391 42.8075
26.585 43.0597
26.6308 43.4196
26.6767 43.8389
26.7225 43.917
26.7684 43.5477
26.8142 42.9629
26.8601 42.5098
26.9059 42.1842
26.9519 41.5493
26.9979 41.2908
27.0437 40.7763
27.0896 40.6246
27.1354 40.645
27.1814 40.3739
27.2272 40.3936
27.2732 40.4667
27.3191 40.153
27.3651 40.336
27.4109 39.9366
27.4569 40.2712
27.5027 40.1638
27.5488 40.2602
27.5946 40.2343
27.6407 40.1252
27.6865 40.1647
27.7326 39.85
27.7784 39.724
27.8245 39.674
27.8703 39.6981
27.9164 39.8807
27.9623 39.892
28.0084 40.1499
28.0543 40.5388
28.1003 40.5879
28.1462 40.6491
28.1923 40.3076
28.2384 39.7558
28.2843 39.4462
28.3304 39.0028
28.3764 38.5102
28.4225 38.1187
28.4684 38.07
28.5145 37.6529
28.5605 37.5156
28.6066 37.3133
28.6526 37.2708
28.6987 37.1684
28.7447 37.0863
28.7908 36.902
28.8368 36.9338
28.8829 36.8656
28.9289 36.9524
28.9751 36.8219
29.0211 36.6933
29.0673 36.3632
29.1133 36.2258
29.1595 36.0131
29.2055 35.8981
29.2517 35.8195
29.2977 35.6263
29.3439 35.5824
29.3899 35.7242
29.4361 35.6178
29.4824 35.5159
29.5284 35.4105
29.5746 35.0015
29.6207 34.7874
29.6669 34.5549
29.713 34.4168
29.7593 34.4143
29.8053 34.3873
29.8516 34.281
29.8977 34.3267
29.9439 34.1347
29.99 34.0913
30.0363 33.9042
30.0824 33.9286
30.1287 33.8129
30.1748 33.8491
30.2211 33.7947
30.2673 33.6285
30.3136 33.8315
30.3597 33.8421
30.406 33.7611
30.4522 33.5666
30.4985 33.4237
30.5447 33.6301
30.591 33.4905
30.6372 33.6067
30.6835 33.3565
30.7297 33.5308
30.7761 33.5007
30.8224 33.558
30.8686 33.3202
30.915 33.0943
30.9612 33.0076
31.0076 32.7664
31.0538 32.6073
31.1002 32.6034
31.1464 32.4218
31.1928 32.2832
31.2391 32.5097
31.2855 32.2482
31.3317 32.3658
31.3781 32.2559
31.4244 32.1666
31.4708 32.075
31.5171 32.104
31.5636 32.123
31.6098 31.989
31.6563 31.8145
31.7026 31.645
31.7491 31.4798
31.7953 31.5094
31.8418 31.5059
31.8881 31.3764
31.9346 31.3904
31.9809 31.3067
32.0275 31.2643
32.074 31.1343
32.1203 30.9544
32.1668 30.9114
32.2132 30.7465
32.2597 30.6912
32.306 30.4303
32.3526 30.2867
32.399 30.2664
32.4455 30.1066
32.4919 30.0373
32.5385 29.9494
32.5848 29.8145
32.6314 29.8246
32.6778 29.7182
32.7244 29.5346
32.7708 29.4802
32.8174 29.5513
32.8638 29.3279
32.9104 29.3478
32.9569 29.3055
33.0035 29.1253
33.0499 29.1298
33.0966 29.0221
33.143 29.0419
33.1897 28.8506
33.2361 28.8861
33.2828 28.8332
33.3293 28.6551
33.3759 28.5498
33.4226 28.5885
33.4691 28.3226
33.5158 28.1721
33.5623 28.1173
33.609 27.9288
33.6555 27.8068
33.7022 27.8003
33.7487 27.6858
33.7954 27.6442
33.842 27.5287
33.8887 27.5777
33.9353 27.4537
33.982 27.359
34.0286 27.2645
34.0753 27.2759
34.1219 27.0901
34.1687 26.9258
34.2152 26.9406
34.262 26.8161
34.3086 26.6921
34.3554 26.6951
34.402 26.5363
34.4488 26.4071
34.4954 26.3864
34.5422 26.3022
34.5889 26.2104
34.6357 26.0375
34.6825 26.0832
34.7292 26.0145
34.776 25.7789
34.8227 25.8459
34.8695 25.7581
34.9162 25.6499
34.9631 25.5187
35.0098 25.6277
35.0566 25.4059
35.1033 25.507
35.1502 25.3443
35.1969 25.2627
35.2438 25.2263
35.2906 25.1617
35.3375 25.1186
35.3842 25.0048
35.4311 25.0328
35.4779 24.9964
35.5248 25.0798
35.5716 24.8495
35.6185 24.7871
35.6653 24.6912
35.7123 24.564
35.759 24.4947
35.806 24.4505
35.8528 24.3081
35.8998 24.2508
35.9468 24.1227
35.9936 24.0947
36.0406 23.9795
36.0874 24.0567
36.1345 23.9294
36.1813 23.8694
36.2283 23.7783
36.2752 23.6374
36.3222 23.6374
36.3691 23.5087
36.4161 23.3936
36.463 23.4569
36.5101 23.3837
36.557 23.2744
36.6041 23.1355
36.651 23.2269
36.6981 23.1775
36.745 22.9879
36.7921 22.951
36.839 22.8648
36.8861 22.8218
36.9331 22.753
36.9802 22.6197
37.0272 22.544
37.0743 22.4411
37.1213 22.3981
37.1684 22.3249
37.2154 22.2633
37.2626 22.1541
37.3098 22.1495
37.3568 22.1698
37.404 22.0475
37.451 21.8989
37.4982 21.8779
37.5452 21.7293
37.5924 21.7158
37.6395 21.7375
37.6867 21.7078
37.7337 21.534
37.781 21.4833
37.8281 21.4194
37.8753 21.3059
37.9224 21.1931
37.9697 21.2566
38.0168 21.1196
38.064 20.9727
38.1111 21.0227
38.1584 20.9043
38.2056 20.8609
38.2529 20.7414
38.3 20.6558
38.3473 20.6175
38.3945 20.5656
38.4418 20.5199
38.489 20.4489
38.5363 20.3266
38.5837 20.3303
38.6309 20.3312
38.6782 20.1844
38.7254 20.1072
38.7728 20.0861
38.82 19.8908
38.8674 19.9186
38.9146 19.8718
38.9621 19.7638
39.0093 19.7808
39.0567 19.719
39.104 19.6575
39.1514 19.5177
39.1987 19.5078
39.2461 19.4726
39.2934 19.4025
39.3409 19.2632
39.3882 19.233
39.4356 19.2017
39.483 19.1447
39.5304 19.0503
39.5778 19.0369
39.6253 18.8996
39.6726 18.9249
39.7201 18.8473
39.7675 18.8313
39.815 18.7512
39.8624 18.6843
39.9099 18.619
39.9575 18.559
40.0049 18.4609
40.0525 18.4389
40.0999 18.3797
40.1474 18.3295
40.1949 18.2715
40.2425 18.1765
40.2899 18.1143
40.3375 18.0438
40.385 18.012
40.4326 17.9865
40.48 17.8994
40.5277 17.832
40.5752 17.7792
40.6228 17.744
40.6703 17.7187
40.718 17.6261
40.7655 17.5395
40.8132 17.5421
40.8607 17.4585
40.9084 17.4286
40.9559 17.3436
41.0036 17.3119
41.0512 17.1962
41.0989 17.2367
41.1465 17.1202
41.1942 17.0598
41.242 17.0221
41.2896 16.8971
41.3373 16.8217
41.3849 16.8865
41.4327 16.7624
41.4803 16.6939
41.5281 16.716
41.5758 16.5348
41.6236 16.5692
41.6712 16.4775
41.7191 16.426
41.7667 16.3716
41.8146 16.3241
41.8622 16.2633
41.9101 16.25
41.9578 16.1481
42.0057 16.1353
42.0534 15.9944
42.1013 16.0241
42.149 15.928
42.1969 15.8768
42.2446 15.8117
42.2925 15.7662
42.3403 15.7534
42.3882 15.6917
42.436 15.6368
42.4839 15.5471
42.5319 15.511
42.5797 15.4643
42.6277 15.4206
42.6755 15.374
42.7235 15.3302
42.7713 15.2729
42.8193 15.1323
42.8671 15.1633
42.9152 15.0574
42.963 14.9884
43.0111 15.0081
43.0589 14.9842
43.107 14.857
43.1549 14.8394
43.2029 14.7703
43.2508 14.7522
43.2989 14.7134
43.3468 14.6122
43.3949 14.5852
43.4429 14.5309
43.491 14.4542
43.5389 14.4416
43.5871 14.3892
43.635 14.349
43.6832 14.2758
43.7312 14.2259
43.7793 14.1767
43.8273 14.0874
43.8755 14.0752
43.9237 14.0552
43.9717 14.0087
44.0199 13.9625
44.068 13.952
44.1162 13.7999
44.1642 13.8082
44.2125 13.7799
44.2606 13.7001
44.3088 13.6535
44.3569 13.5898
44.4052 13.583
44.4533 13.5044
44.5016 13.4732
44.5497 13.4297
44.598 13.3333
44.6461 13.3551
44.6945 13.2972
44.7426 13.2596
44.791 13.1512
44.8391 13.1304
44.8875 13.0783
44.9357 13.0569
44.984 13.0223
45.0322 12.9414
45.0806 12.9066
45.1288 12.869
45.1773 12.8063
45.2257 12.7141
45.2739 12.6885
45.3224 12.6539
45.3706 12.6268
45.4191 12.5721
45.4673 12.5689
45.5158 12.4881
45.5641 12.4455
45.6126 12.3991
45.6609 12.3702
45.7094 12.3378
45.7577 12.274
45.8063 12.2032
45.8546 12.2568
45.9031 12.1498
45.9515 12.0435
46.0001 12.0698
46.0484 12.0531
46.097 11.9791
46.1454 11.9204
46.194 11.8939
46.2424 11.8523
46.291 11.8111
46.3395 11.727
46.3881 11.6846
46.4365 11.6713
46.4852 11.6438
46.5337 11.5504
46.5823 11.5485
46.631 11.5058
46.6795 11.462
46.7282 11.4246
46.7767 11.4212
46.8254 11.322
46.8739 11.2476
46.9226 11.2609
46.9712 11.231
47.0199 11.1761
47.0685 11.0997
47.1173 11.0535
47.1658 11.0437
47.2146 11.0183
47.2632 10.9578
47.312 10.9563
47.3606 10.8461
47.4095 10.8504
47.4581 10.7898
47.5069 10.734
47.5556 10.6961
47.6044 10.6743
47.6531 10.6184
47.702 10.5834
47.7507 10.5668
47.7996 10.4979
47.8483 10.5002
47.8972 10.453
47.9461 10.3949
47.9948 10.3523
48.0438 10.3373
48.0925 10.2864
48.1415 10.2493
48.1902 10.2089
48.2392 10.1988
48.288 10.1334
48.337 10.1563
48.3858 10.0404
48.4348 10.038
48.4837 10.0205
48.5327 9.9813
48.5815 9.93688
48.6306 9.90764
48.6795 9.85128
48.7285 9.80294
48.7774 9.78116
48.8265 9.7669
48.8754 9.73589
48.9245 9.6829
48.9734 9.63876
49.0226 9.60732
49.0715 9.58303
49.1206 9.56985
49.1696 9.47893
49.2188 9.44873
49.2679 9.41037
49.3169 9.36268
49.3661 9.35653
49.4151 9.33642
49.4643 9.28738
49.5134 9.25902
49.5626 9.23578
49.6117 9.23259
49.6609 9.14963
49.71 9.10668
49.7592 9.0756
49.8083 9.05116
49.8576 9.02455
49.9067 8.9807
49.956 8.95521
50.0052 8.88663
50.0545 8.88307
50.1036 8.85217
50.153 8.82097
50.2022 8.76427
50.2515 8.74265
50.3007 8.67128
50.3501 8.65694
50.3993 8.62862
50.4487 8.59934
50.498 8.61367
50.5474 8.53824
50.5966 8.507
50.6461 8.46132
50.6955 8.46065
50.7448 8.42108
50.7943 8.37202
50.8436 8.34366
50.8931 8.29821
50.9424 8.27325
50.9919 8.26478
51.0413 8.21317
51.0908 8.19124
51.1402 8.14174
51.1897 8.09169
51.2391 8.0735
51.2887 8.0371
51.3381 8.00567
51.3877 7.97317
51.4371 7.94831
51.4867 7.89815
51.5362 7.88732
51.5858 7.8308
51.6353 7.77725
51.6849 7.73589
51.7344 7.7403
51.7841 7.72066
51.8336 7.68518
51.8833 7.65766
51.9328 7.61211
51.9826 7.58818
52.0323 7.55336
52.0818 7.55638
52.1316 7.47405
52.1812 7.46911
52.231 7.4288
52.2806 7.35378
52.3304 7.37509
52.38 7.31238
52.4298 7.33013
52.4794 7.25726
52.5293 7.27161
52.5789 7.23408
52.6288 7.20235
52.6785 7.14254
52.7284 7.12282
52.7781 7.09479
52.828 7.0315
52.8777 7.02974
52.9276 7.01556
52.9774 6.97432
53.0273 6.91997
53.0771 6.93069
53.1271 6.86975
53.1769 6.86662
53.2269 6.82474
53.2767 6.80769
53.3267 6.77099
53.3765 6.72779
53.4266 6.74535
53.4766 6.68625
53.5265 6.62509
53.5765 6.67482
53.6264 6.59103
53.6765 6.54701
53.7264 6.54241
53.7765 6.47484
53.8265 6.47828
53.8766 6.4579
53.9266 6.4359
53.9767 6.42507
54.0267 6.35801
54.0769 6.32741
54.1269 6.28199
54.1771 6.24191
54.2271 6.25331
54.2773 6.18927
54.3274 6.18352
54.3776 6.10472
54.4277 6.08229
54.478 6.0114
54.528 6.01168
54.5783 5.9217
54.6285 5.86837
54.6788 5.82069
54.7289 5.85102
54.7792 5.79401
54.8296 5.7434
54.8798 5.74256
54.9301 5.68133
54.9803 5.63194
55.0307 5.60424
55.0809 5.56771
55.1314 5.53079
55.1816 5.42306
55.232 5.4051
55.2823 5.36017
55.3328 5.28325
55.383 5.18577
55.4335 5.18062
55.4838 5.12788
55.5344 5.05108
55.5847 5.05273
55.6352 5.02333
55.6856 4.98694
55.7361 4.99658