File: XRD/Ni3Fe_FD0411.xy
TT I
1.27165 7.76135
1.31627 6.50271
1.36089 6.85117
1.40551 6.11659
1.45013 6.53564
1.49476 6.46279
1.53938 6.24956
1.584 5.97906
1.62863 5.45802
1.67325 5.39085
1.71787 5.16978
1.7625 5.06531
1.80712 5.49813
1.85174 4.79775
1.89636 5.34212
1.94099 5.14317
1.98562 4.95823
2.03025 5.34551
2.07487 4.91725
2.11949 5.03561
2.16411 5.14699
2.20874 17.0544
2.25338 28.3832
2.298 5.68101
2.34263 4.51108
2.38725 5.20397
2.43188 5.0921
2.4765 5.7268
2.52115 6.50565
2.56577 6.67996
2.6104 7.12827
2.65503 7.28245
2.69965 7.76545
2.7443 7.58817
2.78893 7.33636
2.83356 8.61201
2.87818 8.20194
2.92281 8.80879
2.96744 9.77833
3.01209 10.581
3.05672 11.6939
3.10135 12.5518
3.14599 12.8119
3.19062 14.0516
3.23527 15.1584
3.2799 16.2464
3.32454 17.5226
3.36917 17.8428
3.4138 19.2775
3.45844 20.0939
3.50309 21.4686
3.54773 22.0831
3.59237 25.0094
3.637 114.964
3.68164 70.9151
3.7263 27.4344
3.77094 26.8957
3.81558 27.8134
3.86022 28.077
3.90486 29.4774
3.9495 30.5543
3.99416 31.4926
4.0388 33.4048
4.08344 34.5838
4.12809 36.3025
4.17273 38.3492
4.21738 45.6962
4.26204 313.056
4.30669 274.595
4.35133 51.3569
4.39598 45.7477
4.44063 57.186
4.4853 72.499
4.52995 52.4208
4.5746 52.405
4.61925 54.3239
4.6639 56.0727
4.70855 59.1153
4.75322 61.8347
4.79788 65.0772
4.84253 68.3203
4.88719 72.2407
4.93184 76.6129
4.97652 82.399
5.02118 88.8673
5.06583 97.3133
5.11049 109.983
5.15515 199.356
5.19981 426.725
5.24449 2908.38
5.28916 11446.8
5.33382 3586.41
5.37848 224.064
5.42315 137.759
5.46783 118.946
5.5125 109.547
5.55716 104.697
5.60183 101.134
5.6465 99.5293
5.69117 96.5176
5.73586 94.3088
5.78053 93.9865
5.8252 93.7898
5.86988 94.5329
5.91455 97.3816
5.95924 106.097
6.00392 231.142
6.0486 1026.32
6.09328 3879.25
6.13795 3463.94
6.18263 307.03
6.22733 100.16
6.27201 86.9913
6.3167 113.553
6.36138 85.786
6.40606 71.2484
6.45075 68.8419
6.49545 67.1215
6.54014 65.5212
6.58483 64.6661
6.62952 64.8593
6.67421 105.205
6.71892 172.697
6.76361 73.1118
6.8083 60.085
6.853 58.7377
6.89769 58.2981
6.94239 58.1035
6.98711 57.108
7.03181 57.0603
7.07651 56.7504
7.12121 56.7826
7.16591 57.2449
7.21063 57.1089
7.25533 75.6973
7.30004 220.26
7.34475 104.916
7.38945 58.4038
7.43416 56.2579
7.47889 55.8972
7.5236 56.016
7.56831 56.8693
7.61303 58.6558
7.65774 59.2964
7.70247 57.3063
7.74719 57.806
7.79191 58.1787
7.83663 58.1923
7.88135 58.9445
7.92607 59.9443
7.97081 60.8783
8.01553 62.3136
8.06026 63.5922
8.10498 65.3446
8.14971 77.3014
8.19446 75.7041
8.23919 71.1536
8.28392 73.2457
8.32865 76.0656
8.37339 79.9278
8.41812 88.0576
8.46288 124.163
8.50761 177.877
8.55235 407.331
8.59709 1068.38
8.64183 2096.1
8.68658 1137.65
8.73134 195.538
8.77609 104.677
8.82083 95.8574
8.86558 92.2175
8.91033 92.878
8.9551 95.0569
8.99985 87.4985
9.04461 84.7936
9.08936 84.5989
9.13412 83.4337
9.17888 83.617
9.22365 84.7834
9.26841 83.6164
9.31318 84.2965
9.35794 84.6648
9.4027 84.6088
9.44749 85.9073
9.49226 86.0933
9.53703 87.432
9.5818 89.2442
9.62657 94.7717
9.67134 103.401
9.71614 96.2056
9.76091 95.7039
9.80569 98.501
9.85047 102.317
9.89525 132.982
9.94005 147.956
9.98484 186.396
10.0296 361.189
10.0744 763.88
10.1192 1593.53
10.164 1752.68
10.2088 507.127
10.2536 141.208
10.2984 119.451
10.3432 121.434
10.388 108.37
10.4328 122.504
10.4776 164.682
10.5224 266.12
10.5672 472.458
10.612 533.155
10.6568 231.212
10.7017 102.497
10.7465 89.2305
10.7913 85.3349
10.8361 83.0515
10.8809 80.8509
10.9257 80.4588
10.9706 81.9492
11.0154 76.9228
11.0602 74.7944
11.105 73.5517
11.1499 79.7746
11.1947 89.9721
11.2395 77.8376
11.2844 73.1122
11.3292 68.979
11.374 67.5258
11.4189 67.2176
11.4637 66.3886
11.5086 67.2733
11.5534 71.5774
11.5983 67.7725
11.6431 64.8917
11.688 64.3692
11.7328 64.5098
11.7777 64.5105
11.8225 64.0699
11.8674 63.9317
11.9122 64.2369
11.9571 64.2584
12.002 65.2633
12.0468 69.8047
12.0917 81.7405
12.1366 102.663
12.1814 143.41
12.2263 201.527
12.2712 184.996
12.3161 109.136
12.3609 74.6232
12.4058 66.6433
12.4507 66.0251
12.4956 65.9553
12.5405 66.1212
12.5853 67.1226
12.6302 77.3111
12.6751 84.4942
12.72 72.6547
12.7649 69.3178
12.8098 69.8539
12.8547 71.2695
12.8996 72.6696
12.9445 73.8575
12.9894 75.6235
13.0343 77.0668
13.0792 80.5611
13.1242 90.2354
13.1691 116.049
13.214 151.611
13.2589 225.118
13.3038 339.784
13.3487 430.312
13.3937 297.997
13.4386 138.651
13.4835 109.587
13.5285 124.428
13.5734 157.454
13.6183 228.346
13.6633 326.895
13.7082 356.753
13.7531 219.216
13.7981 106.572
13.843 84.4726
13.888 81.8522
13.9329 78.7593
13.9779 77.5806
14.0228 75.9137
14.0678 74.6578
14.1127 74.2227
14.1577 74.6989
14.2027 73.1449
14.2476 72.0578
14.2926 72.3606
14.3376 73.7891
14.3825 72.2487
14.4275 70.3501
14.4725 69.9507
14.5175 70.5401
14.5624 70.5597
14.6074 73.2582
14.6524 74.229
14.6974 71.9518
14.7424 73.5976
14.7874 80.9928
14.8324 91.6211
14.8774 109.977
14.9224 144.566
14.9674 195.565
15.0124 222.27
15.0574 164.648
15.1024 100.435
15.1474 75.22
15.1924 72.2581
15.2374 73.4982
15.2824 72.9053
15.3274 70.1161
15.3725 68.5718
15.4175 67.7722
15.4625 67.6439
15.5076 67.9883
15.5526 67.9429
15.5976 67.3008
15.6426 68.4169
15.6877 74.2966
15.7327 82.0857
15.7778 95.5309
15.8228 120.469
15.8679 159.221
15.9129 193.316
15.958 170.8
16.003 107.561
16.0481 72.3255
16.0931 67.1672
16.1382 64.8697
16.1833 62.4042
16.2283 60.804
16.2734 59.8436
16.3185 60.4412
16.3636 61.3604
16.4086 59.8657
16.4537 57.5267
16.4988 56.9785
16.5439 57.0107
16.589 56.6045
16.6341 56.1551
16.6792 55.938
16.7243 56.1073
16.7694 56.4675
16.8145 55.9762
16.8596 56.6733
16.9047 58.8249
16.9498 58.8767
16.9949 57.2979
17.04 57.1512
17.0851 58.4175
17.1302 60.2564
17.1754 62.9504
17.2205 67.0508
17.2656 73.1555
17.3108 81.3167
17.3559 83.2994
17.401 74.5562
17.4462 64.5738
17.4913 60.8421
17.5365 60.6212
17.5815 60.7589
17.6268 60.882
17.6718 61.8588
17.7171 62.2812
17.7622 62.6031
17.8074 63.0397
17.8525 65.5168
17.8977 69.956
17.9428 75.455
17.9881 82.9911
18.0331 96.7281
18.0784 115.755
18.1237 137.351
18.1688 138.215
18.214 112.083
18.2591 89.5114
18.3044 89.6399
18.3495 97.7073
18.3948 106.487
18.4399 101.289
18.4852 82.5372
18.5303 68.7682
18.5756 63.789
18.6207 62.8953
18.666 61.9697
18.7112 61.0551
18.7565 60.5533
18.8016 59.8077
18.8469 59.3952
18.892 59.19
18.9374 58.5842
18.9825 58.6089
19.0278 58.2874
19.073 58.3439
19.1183 58.9698
19.1635 59.7707
19.2088 61.0412
19.254 62.8239
19.2993 66.6072
19.3447 72.3841
19.3898 77.6244
19.4352 75.4547
19.4804 66.6463
19.5257 58.9857
19.5709 55.8723
19.6163 55.189
19.6615 55.2699
19.7068 54.5366
19.752 54.5315
19.7974 54.8561
19.8426 55.7
19.888 56.4985
19.9332 57.4968
19.9786 59.4541
20.0238 62.5386
20.0692 66.9298
20.1144 70.7292
20.1598 70.5978
20.205 65.8898
20.2504 63.0954
20.2957 63.9576
20.3411 66.2785
20.3863 66.1484
20.4318 60.9505
20.477 55.7788
20.5224 53.2689
20.5677 52.3398
20.6131 51.7196
20.6586 50.8832
20.7038 50.8081
20.7493 50.2528
20.7945 50.2156
20.84 49.8513
20.8853 49.8643
20.9307 49.7383
20.976 49.8264
21.0215 49.6921
21.0668 49.9862
21.1122 50.7027
21.1575 51.0801
21.203 51.6405
21.2483 52.4047
21.2938 52.7789
21.3391 51.4209
21.3846 50.2334
21.4299 49.6622
21.4754 49.5683
21.5207 49.5682
21.5662 49.9019
21.6116 50.2545
21.6571 51.0557
21.7024 51.993
21.7479 53.4366
21.7933 55.7921
21.8388 59.1705
21.8843 62.6131
21.9297 65.6959
21.9752 65.7646
22.0206 61.9259
22.0661 58.0319
22.1115 57.1268
22.157 57.285
22.2024 56.1873
22.248 53.3682
22.2933 51.324
22.3389 50.4358
22.3843 50.1841
22.4299 50.2135
22.4753 50.1278
22.5208 49.8031
22.5662 49.5605
22.6118 49.8638
22.6572 50.0253
22.7028 50.3265
22.7483 50.7413
22.7939 51.4438
22.8393 52.6532
22.8849 54.3432
22.9303 56.5012
22.9759 58.3653
23.0214 58.9663
23.067 56.6373
23.1126 52.9426
23.1581 50.6595
23.2037 50.0722
23.2492 49.8819
23.2948 49.9686
23.3403 50.2795
23.3859 50.8344
23.4314 51.7462
23.477 53.1516
23.5225 55.013
23.5682 57.2811
23.6137 58.8923
23.6593 57.7825
23.7048 53.8325
23.7505 50.1013
23.796 47.8859
23.8417 47.3409
23.8872 46.8085
23.9329 46.2579
23.9784 45.8915
24.0241 45.7198
24.0697 45.5478
24.1154 45.2154
24.1609 45.2146
24.2066 45.1061
24.2522 44.8824
24.2979 44.6087
24.3434 44.3993
24.3892 44.1729
24.4349 44.1844
24.4805 43.8576
24.5262 44.0979
24.5718 43.8245
24.6175 44.0311
24.6631 43.95
24.7089 43.6868
24.7545 43.6074
24.8002 43.2476
24.8458 43.3096
24.8916 43.0985
24.9372 43.1272
24.983 43.3789
25.0286 43.7893
25.0744 44.1168
25.12 44.6548
25.1658 45.1951
25.2114 45.68
25.2572 45.7541
25.3029 45.6119
25.3487 45.8624
25.3943 45.7696
25.4402 44.8267
25.4858 43.9647
25.5316 42.5355
25.5773 41.9814
25.6231 42.0437
25.669 41.4965
25.7147 41.5332
25.7605 41.3953
25.8062 41.4649
25.8521 41.703
25.8977 41.6048
25.9436 41.733
25.9893 41.7749
26.0352 42.4297
26.0809 42.4273
26.1268 42.6258
26.1725 42.3758
26.2184 41.9718
26.2641 41.4702
26.31 41.1377
26.3557 41.1073
26.4017 41.1624
26.4474 41.2871
26.4933 41.5597
26.5391 42.0678
26.585 42.3164
26.6308 42.8731
26.6767 43.0717
26.7225 43.0606
26.7684 42.5776
26.8142 41.966
26.8601 41.5789
26.9059 41.1849
26.9519 40.4941
26.9979 40.2258
27.0437 39.8118
27.0896 39.6704
27.1354 39.6777
27.1814 39.5118
27.2272 39.4299
27.2732 39.5276
27.3191 39.2865
27.3651 39.4514
27.4109 39.2113
27.4569 39.3954
27.5027 39.3887
27.5488 39.3362
27.5946 39.3571
27.6407 39.079
27.6865 39.1432
27.7326 38.7075
27.7784 38.7592
27.8245 38.7393
27.8703 38.8139
27.9164 39.1029
27.9623 39.1663
28.0084 39.4081
28.0543 39.8567
28.1003 39.9133
28.1462 39.7349
28.1923 39.4243
28.2384 38.806
28.2843 38.6044
28.3304 38.1124
28.3764 37.7585
28.4225 37.3529
28.4684 37.1687
28.5145 36.956
28.5605 36.7306
28.6066 36.4903
28.6526 36.4912
28.6987 36.5515
28.7447 36.2831
28.7908 36.2878
28.8368 36.3086
28.8829 36.2522
28.9289 36.256
28.9751 35.989
29.0211 35.8456
29.0673 35.5501
29.1133 35.4599
29.1595 35.136
29.2055 35.1216
29.2517 35.1153
29.2977 34.9908
29.3439 35.0114
29.3899 34.948
29.4361 35.0226
29.4824 34.8418
29.5284 34.6687
29.5746 34.3293
29.6207 33.9431
29.6669 33.7465
29.713 33.7704
29.7593 33.6234
29.8053 33.6858
29.8516 33.5051
29.8977 33.5686
29.9439 33.4307
29.99 33.3515
30.0363 33.166
30.0824 33.3174
30.1287 33.2054
30.1748 33.224
30.2211 33.1979
30.2673 33.0175
30.3136 33.199
30.3597 33.093
30.406 32.9087
30.4522 32.7486
30.4985 32.7361
30.5447 32.8775
30.591 32.776
30.6372 32.88
30.6835 32.9983
30.7297 32.9029
30.7761 32.8889
30.8224 32.776
30.8686 32.6289
30.915 32.3873
30.9612 32.3178
31.0076 32.0978
31.0538 31.8542
31.1002 31.8881
31.1464 31.6495
31.1928 31.6779
31.2391 31.8074
31.2855 31.4836
31.3317 31.5873
31.3781 31.6459
31.4244 31.4661
31.4708 31.5196
31.5171 31.4426
31.5636 31.4878
31.6098 31.287
31.6563 31.0646
31.7026 30.9965
31.7491 30.7758
31.7953 30.9116
31.8418 30.7684
31.8881 30.8001
31.9346 30.8619
31.9809 30.8006
32.0275 30.5566
32.074 30.5131
32.1203 30.3917
32.1668 30.1743
32.2132 30.0981
32.2597 30.0168
32.306 29.9655
32.3526 29.6138
32.399 29.6751
32.4455 29.4958
32.4919 29.3976
32.5385 29.2956
32.5848 29.0881
32.6314 29.2069
32.6778 29.1103
32.7244 28.9508
32.7708 28.8037
32.8174 28.8965
32.8638 28.6562
32.9104 28.7139
32.9569 28.6512
33.0035 28.4975
33.0499 28.4878
33.0966 28.4644
33.143 28.4453
33.1897 28.3676
33.2361 28.2908
33.2828 28.2709
33.3293 28.0814
33.3759 28.0386
33.4226 27.8726
33.4691 27.7406
33.5158 27.6976
33.5623 27.5614
33.609 27.4102
33.6555 27.2489
33.7022 27.2739
33.7487 27.0743
33.7954 27.1277
33.842 27.0003
33.8887 26.9374
33.9353 26.9149
33.982 26.7811
34.0286 26.6554
34.0753 26.615
34.1219 26.5049
34.1687 26.4542
34.2152 26.3651
34.262 26.318
34.3086 26.1256
34.3554 26.163
34.402 26.0165
34.4488 26.0097
34.4954 25.8649
34.5422 25.7771
34.5889 25.6852
34.6357 25.6328
34.6825 25.4864
34.7292 25.4544
34.776 25.3426
34.8227 25.2986
34.8695 25.2763
34.9162 25.1923
34.9631 24.977
35.0098 25.1041
35.0566 24.9324
35.1033 24.8272
35.1502 24.875
35.1969 24.761
35.2438 24.6867
35.2906 24.6482
35.3375 24.5948
35.3842 24.462
35.4311 24.5524
35.4779 24.5282
35.5248 24.47
35.5716 24.3678
35.6185 24.1596
35.6653 24.1814
35.7123 24.1034
35.759 24.0066
35.806 23.904
35.8528 23.7075
35.8998 23.7364
35.9468 23.6026
35.9936 23.5754
36.0406 23.56
36.0874 23.4391
36.1345 23.4264
36.1813 23.3455
36.2283 23.2216
36.2752 23.188
36.3222 23.1659
36.3691 23.1064
36.4161 22.9481
36.463 22.9471
36.5101 22.9293
36.557 22.9035
36.6041 22.6416
36.651 22.7897
36.6981 22.7079
36.745 22.5449
36.7921 22.5592
36.839 22.3516
36.8861 22.3222
36.9331 22.2783
36.9802 22.1395
37.0272 22.0953
37.0743 21.9884
37.1213 21.9212
37.1684 21.9217
37.2154 21.905
37.2626 21.8378
37.3098 21.6478
37.3568 21.6586
37.404 21.6374
37.451 21.4711
37.4982 21.3803
37.5452 21.3568
37.5924 21.204
37.6395 21.333
37.6867 21.1297
37.7337 21.1162
37.781 21.0338
37.8281 20.9969
37.8753 20.8182
37.9224 20.796
37.9697 20.7434
38.0168 20.6577
38.064 20.6533
38.1111 20.5502
38.1584 20.51
38.2056 20.4308
38.2529 20.3769
38.3 20.2908
38.3473 20.2758
38.3945 20.1456
38.4418 20.1114
38.489 20.0827
38.5363 19.9436
38.5837 19.8853
38.6309 19.8494
38.6782 19.8229
38.7254 19.7323
38.7728 19.6841
38.82 19.6485
38.8674 19.5516
38.9146 19.4614
38.9621 19.3792
39.0093 19.3519
39.0567 19.2408
39.104 19.2336
39.1514 19.1298
39.1987 19.0693
39.2461 19.0296
39.2934 19.0357
39.3409 18.9087
39.3882 18.8662
39.4356 18.8055
39.483 18.7221
39.5304 18.6984
39.5778 18.6384
39.6253 18.5946
39.6726 18.518
39.7201 18.3914
39.7675 18.3731
39.815 18.4259
39.8624 18.3276
39.9099 18.3205
39.9575 18.1196
40.0049 18.1319
40.0525 18.0632
40.0999 18.0673
40.1474 17.968
40.1949 17.8436
40.2425 17.8327
40.2899 17.8003
40.3375 17.7311
40.385 17.6276
40.4326 17.6599
40.48 17.5093
40.5277 17.4735
40.5752 17.4
40.6228 17.3739
40.6703 17.3032
40.718 17.2722
40.7655 17.2193
40.8132 17.1816
40.8607 17.1427
40.9084 17.0878
40.9559 16.9971
41.0036 16.9973
41.0512 16.9096
41.0989 16.8546
41.1465 16.7724
41.1942 16.7461
41.242 16.6186
41.2896 16.6359
41.3373 16.5732
41.3849 16.492
41.4327 16.4633
41.4803 16.3294
41.5281 16.355
41.5758 16.2472
41.6236 16.2243
41.6712 16.1897
41.7191 16.1213
41.7667 16.0575
41.8146 15.9906
41.8622 15.9495
41.9101 15.8829
41.9578 15.769
42.0057 15.781
42.0534 15.6908
42.1013 15.7007
42.149 15.6188
42.1969 15.5596
42.2446 15.474
42.2925 15.4696
42.3403 15.4207
42.3882 15.3686
42.436 15.3048
42.4839 15.2525
42.5319 15.2076
42.5797 15.1315
42.6277 15.0532
42.6755 15.0526
42.7235 15.0071
42.7713 14.932
42.8193 14.9256
42.8671 14.8574
42.9152 14.8312
42.963 14.8436
43.0111 14.7075
43.0589 14.6291
43.107 14.5688
43.1549 14.5348
43.2029 14.5034
43.2508 14.4726
43.2989 14.4014
43.3468 14.3749
43.3949 14.3395
43.4429 14.2267
43.491 14.2053
43.5389 14.1674
43.5871 14.1597
43.635 14.016
43.6832 14.0694
43.7312 13.9417
43.7793 13.8948
43.8273 13.9216
43.8755 13.7716
43.9237 13.8128
43.9717 13.7556
44.0199 13.6788
44.068 13.6607
44.1162 13.596
44.1642 13.551
44.2125 13.5117
44.2606 13.4161
44.3088 13.405
44.3569 13.3105
44.4052 13.3475
44.4533 13.2624
44.5016 13.1776
44.5497 13.1384
44.598 13.1264
44.6461 13.1238
44.6945 13.0705
44.7426 12.9821
44.791 12.9323
44.8391 12.9414
44.8875 12.8407
44.9357 12.778
44.984 12.7135
45.0322 12.7417
45.0806 12.7056
45.1288 12.5927
45.1773 12.5187
45.2257 12.5256
45.2739 12.5134
45.3224 12.4408
45.3706 12.4092
45.4191 12.3256
45.4673 12.3157
45.5158 12.2306
45.5641 12.2491
45.6126 12.2228
45.6609 12.1371
45.7094 12.0945
45.7577 12.0568
45.8063 11.9843
45.8546 11.9723
45.9031 11.9158
45.9515 11.8809
46.0001 11.8262
46.0484 11.8199
46.097 11.7542
46.1454 11.7206
46.194 11.6824
46.2424 11.636
46.291 11.6085
46.3395 11.5703
46.3881 11.4828
46.4365 11.4466
46.4852 11.4575
46.5337 11.3616
46.5823 11.3261
46.631 11.3047
46.6795 11.2951
46.7282 11.2146
46.7767 11.1759
46.8254 11.1067
46.8739 11.068
46.9226 11.0104
46.9712 10.9888
47.0199 10.9147
47.0685 10.9079
47.1173 10.8518
47.1658 10.8188
47.2146 10.7984
47.2632 10.7449
47.312 10.7581
47.3606 10.7033
47.4095 10.6615
47.4581 10.6399
47.5069 10.5292
47.5556 10.5381
47.6044 10.4561
47.6531 10.4904
47.702 10.4043
47.7507 10.3749
47.7996 10.3115
47.8483 10.2636
47.8972 10.2405
47.9461 10.2381
47.9948 10.166
48.0438 10.1649
48.0925 10.1488
48.1415 10.0996
48.1902 10.0123
48.2392 10.0081
48.288 9.98923
48.337 9.93176
48.3858 9.89197
48.4348 9.87048
48.4837 9.85953
48.5327 9.8153
48.5815 9.77115
48.6306 9.70976
48.6795 9.65652
48.7285 9.6234
48.7774 9.61351
48.8265 9.58244
48.8754 9.52802
48.9245 9.52573
48.9734 9.46579
49.0226 9.42823
49.0715 9.3761
49.1206 9.36725
49.1696 9.29697
49.2188 9.29949
49.2679 9.2237
49.3169 9.22189
49.3661 9.19071
49.4151 9.17565
49.4643 9.10229
49.5134 9.10339
49.5626 9.02655
49.6117 8.99801
49.6609 9.00205
49.71 8.94974
49.7592 8.91531
49.8083 8.86715
49.8576 8.85693
49.9067 8.79154
49.956 8.78144
50.0052 8.72607
50.0545 8.69998
50.1036 8.67842
50.153 8.64635
50.2022 8.61026
50.2515 8.54551
50.3007 8.53481
50.3501 8.47763
50.3993 8.46598
50.4487 8.4296
50.498 8.4444
50.5474 8.37916
50.5966 8.32828
50.6461 8.30722
50.6955 8.30268
50.7448 8.25662
50.7943 8.20855
50.8436 8.18703
50.8931 8.16842
50.9424 8.11291
50.9919 8.06919
51.0413 8.0595
51.0908 7.97795
51.1402 8.03869
51.1897 7.97098
51.2391 7.95428
51.2887 7.87263
51.3381 7.8449
51.3877 7.83184
51.4371 7.77893
51.4867 7.78452
51.5362 7.73093
51.5858 7.70061
51.6353 7.66141
51.6849 7.61398
51.7344 7.5867
51.7841 7.57057
51.8336 7.56282
51.8833 7.4912
51.9328 7.48938
51.9826 7.45415
52.0323 7.41259
52.0818 7.39252
52.1316 7.34192
52.1812 7.3509
52.231 7.30997
52.2806 7.24748
52.3304 7.24183
52.38 7.20378
52.4298 7.17111
52.4794 7.13496
52.5293 7.06921
52.5789 7.09538
52.6288 7.054
52.6785 6.99018
52.7284 6.98953
52.7781 7.00264
52.828 6.9425
52.8777 6.92364
52.9276 6.89912
52.9774 6.82736
53.0273 6.83976
53.0771 6.75772
53.1271 6.78863
53.1769 6.76443
53.2269 6.73227
53.2767 6.67369
53.3267 6.67113
53.3765 6.66456
53.4266 6.60122
53.4766 6.5769
53.5265 6.49935
53.5765 6.48977
53.6264 6.49636
53.6765 6.45067
53.7264 6.46735
53.7765 6.4186
53.8265 6.37114
53.8766 6.32779
53.9266 6.26291
53.9767 6.27323
54.0267 6.25254
54.0769 6.21729
54.1269 6.21827
54.1771 6.13264
54.2271 6.15316
54.2773 6.12561
54.3274 6.07545
54.3776 6.0218
54.4277 6.02425
54.478 5.96418
54.528 5.94747
54.5783 5.92192
54.6285 5.85186
54.6788 5.80278
54.7289 5.80189
54.7792 5.72893
54.8296 5.67496
54.8798 5.59515
54.9301 5.59126
54.9803 5.56416
55.0307 5.57636
55.0809 5.50037
55.1314 5.51424
55.1816 5.42869
55.232 5.36994
55.2823 5.35817
55.3328 5.28231
55.383 5.18773
55.4335 5.18605
55.4838 5.10118
55.5344 5.09514
55.5847 5.03663
55.6352 5.01633
55.6856 4.97345
55.7361 4.90521