File: XRD/Ni3Fe_FD0055.xy
TT I
1.27165 32.4415
1.31627 30.758
1.36089 29.8516
1.40551 27.1227
1.45013 26.8737
1.49476 26.3057
1.53938 24.6709
1.584 23.5206
1.62863 22.4238
1.67325 22.9066
1.71787 21.8134
1.7625 21.8218
1.80712 21.108
1.85174 20.5627
1.89636 20.6616
1.94099 20.5036
1.98562 20.7399
2.03025 20.1862
2.07487 20.9969
2.11949 20.6301
2.16411 20.4062
2.20874 20.86
2.25338 20.2463
2.298 21.5986
2.34263 21.4086
2.38725 21.533
2.43188 21.1015
2.4765 22.3783
2.52115 21.8262
2.56577 22.6554
2.6104 23.9128
2.65503 24.4356
2.69965 26.0023
2.7443 28.181
2.78893 29.9457
2.83356 32.5549
2.87818 36.5695
2.92281 40.6038
2.96744 46.7391
3.01209 56.0627
3.05672 63.7503
3.10135 73.0096
3.14599 76.6148
3.19062 73.7607
3.23527 65.616
3.2799 54.8499
3.32454 45.8841
3.36917 38.8788
3.4138 33.7231
3.45844 30.5266
3.50309 29.3336
3.54773 28.0145
3.59237 26.6932
3.637 26.1114
3.68164 25.8887
3.7263 25.9391
3.77094 25.7736
3.81558 26.1272
3.86022 26.1314
3.90486 26.8836
3.9495 27.18
3.99416 27.4741
4.0388 28.1215
4.08344 28.9059
4.12809 29.5026
4.17273 30.6728
4.21738 31.9904
4.26204 34.1243
4.30669 37.5149
4.35133 42.0648
4.39598 39.8926
4.44063 37.7298
4.4853 37.7458
4.52995 38.8575
4.5746 40.4444
4.61925 41.3819
4.6639 43.0874
4.70855 45.1779
4.75322 47.5718
4.79788 50.9019
4.84253 55.3957
4.88719 61.0839
4.93184 68.8341
4.97652 83.2002
5.02118 105.167
5.06583 122.483
5.11049 143.043
5.15515 190.071
5.19981 318.676
5.24449 738.266
5.28916 1685.58
5.33382 4140.04
5.37848 3042.99
5.42315 770.598
5.46783 298.147
5.5125 192.637
5.55716 150.207
5.60183 125.885
5.6465 115.475
5.69117 109.882
5.73586 103.503
5.78053 101.038
5.8252 101.714
5.86988 108.094
5.91455 120.314
5.95924 143.875
6.00392 201.26
6.0486 339.77
6.09328 581.729
6.13795 1067.66
6.18263 1089.12
6.22733 475.992
6.27201 213.431
6.3167 128.573
6.36138 91.4145
6.40606 73.5915
6.45075 64.5458
6.49545 57.6558
6.54014 53.2691
6.58483 50.1212
6.62952 47.3749
6.67421 45.5263
6.71892 44.3758
6.76361 42.8004
6.8083 42.1409
6.853 41.3658
6.89769 41.5635
6.94239 41.0872
6.98711 41.1541
7.03181 42.3309
7.07651 45.3741
7.12121 46.2384
7.16591 43.6862
7.21063 41.1847
7.25533 39.9544
7.30004 39.4442
7.34475 39.8545
7.38945 39.9816
7.43416 40.1223
7.47889 43.2138
7.5236 61.1625
7.56831 173.324
7.61303 166.465
7.65774 62.7012
7.70247 43.9309
7.74719 40.2685
7.79191 39.5334
7.83663 38.6677
7.88135 38.9943
7.92607 39.3968
7.97081 39.7515
8.01553 40.4739
8.06026 41.2122
8.10498 42.1242
8.14971 43.2766
8.19446 44.5223
8.23919 46.803
8.28392 49.9345
8.32865 52.8637
8.37339 56.0306
8.41812 59.6241
8.46288 68.1291
8.50761 85.0548
8.55235 127.424
8.59709 188.681
8.64183 282.624
8.68658 594.326
8.73134 725.121
8.77609 349.21
8.82083 161.025
8.86558 103.234
8.91033 84.0063
8.9551 74.3904
8.99985 70.059
9.04461 66.6217
9.08936 65.981
9.13412 65.7413
9.17888 69.8296
9.22365 94.7145
9.26841 264.397
9.31318 320.008
9.35794 117.57
9.4027 70.5764
9.44749 62.8941
9.49226 59.5912
9.53703 57.9043
9.5818 58.0074
9.62657 57.7646
9.67134 58.353
9.71614 58.9894
9.76091 60.107
9.80569 61.842
9.85047 64.3543
9.89525 68.1608
9.94005 74.7993
9.98484 88.3801
10.0296 122.668
10.0744 168.444
10.1192 214.102
10.164 371.064
10.2088 694.787
10.2536 596.015
10.2984 260.812
10.3432 141.453
10.388 98.6561
10.4328 85.3218
10.4776 85.5675
10.5224 93.0376
10.5672 99.7804
10.612 134.242
10.6568 230.281
10.7017 266.072
10.7465 191.01
10.7913 96.8792
10.8361 64.4393
10.8809 55.8154
10.9257 52.2687
10.9706 50.069
11.0154 48.2972
11.0602 46.4419
11.105 45.6503
11.1499 44.5931
11.1947 44.0266
11.2395 43.9967
11.2844 43.1464
11.3292 42.2042
11.374 41.414
11.4189 40.8576
11.4637 40.3975
11.5086 39.9859
11.5534 39.6322
11.5983 39.7371
11.6431 39.6266
11.688 39.6591
11.7328 39.8441
11.7777 39.9073
11.8225 40.3586
11.8674 41.2706
11.9122 45.3329
11.9571 69.4002
12.002 116.032
12.0468 89.6981
12.0917 54.0513
12.1366 49.6178
12.1814 50.856
12.2263 55.097
12.2712 67.1371
12.3161 85.9695
12.3609 83.8536
12.4058 63.3287
12.4507 50.5318
12.4956 45.3497
12.5405 42.4835
12.5853 41.5661
12.6302 40.6571
12.6751 40.3386
12.72 40.3204
12.7649 40.6076
12.8098 40.7905
12.8547 41.3137
12.8996 42.0102
12.9445 42.7485
12.9894 43.8241
13.0343 45.2697
13.0792 48.703
13.1242 59.0854
13.1691 68.8996
13.214 66.9909
13.2589 69.7069
13.3038 73.6693
13.3487 89.6092
13.3937 133.659
13.4386 189.126
13.4835 167.409
13.5285 110.073
13.5734 87.0863
13.6183 80.3511
13.6633 79.791
13.7082 96.679
13.7531 141.708
13.7981 181.659
13.843 135.436
13.888 83.3549
13.9329 62.3865
13.9779 54.5656
14.0228 50.8306
14.0678 49.615
14.1127 50.8132
14.1577 66.7959
14.2027 102.269
14.2476 92.3982
14.2926 56.7457
14.3376 46.9609
14.3825 44.5276
14.4275 43.1295
14.4725 42.3825
14.5175 42.2321
14.5624 41.8156
14.6074 41.8268
14.6524 41.8363
14.6974 42.1306
14.7424 42.5532
14.7874 43.4947
14.8324 45.814
14.8774 49.6925
14.9224 51.7682
14.9674 53.8696
15.0124 60.6136
15.0574 79.2962
15.1024 105.501
15.1474 103.933
15.1924 78.7525
15.2374 58.9113
15.2824 49.4617
15.3274 44.9461
15.3725 43.1695
15.4175 42.1856
15.4625 41.6283
15.5076 41.3913
15.5526 41.2553
15.5976 41.1345
15.6426 41.0088
15.6877 41.8925
15.7327 43.4886
15.7778 46.4918
15.8228 48.3966
15.8679 49.8506
15.9129 53.7789
15.958 65.8602
16.003 87.8555
16.0481 103.35
16.0931 94.5711
16.1382 77.2354
16.1833 57.6087
16.2283 44.8105
16.2734 40.6821
16.3185 38.4651
16.3636 37.3479
16.4086 36.4366
16.4537 35.8023
16.4988 35.1411
16.5439 35.187
16.589 34.8536
16.6341 34.4424
16.6792 34.4073
16.7243 34.493
16.7694 34.0935
16.8145 34.0529
16.8596 34.3339
16.9047 34.7073
16.9498 38.1403
16.9949 42.9849
17.04 41.9026
17.0851 37.0247
17.1302 35.4514
17.1754 35.6234
17.2205 35.8685
17.2656 36.2014
17.3108 37.0148
17.3559 38.1903
17.401 41.5064
17.4462 46.475
17.4913 47.7692
17.5365 43.4116
17.5815 39.2696
17.6268 37.6885
17.6718 37.2219
17.7171 37.2356
17.7622 38.6445
17.8074 42.7266
17.8525 45.0795
17.8977 42.614
17.9428 41.2322
17.9881 42.354
18.0331 43.4795
18.0784 43.8588
18.1237 46.3477
18.1688 51.6233
18.214 63.6724
18.2591 79.0437
18.3044 79.4783
18.3495 64.8466
18.3948 53.808
18.4399 51.9867
18.4852 56.5834
18.5303 63.3476
18.5756 61.1412
18.6207 54.4301
18.666 48.0439
18.7112 42.3203
18.7565 39.3615
18.8016 38.1752
18.8469 37.3543
18.892 36.8828
18.9374 36.4559
18.9825 36.0272
19.0278 35.7559
19.073 35.6647
19.1183 35.5522
19.1635 35.7564
19.2088 36.1119
19.254 36.6291
19.2993 37.4622
19.3447 41.388
19.3898 47.4939
19.4352 49.0582
19.4804 45.2291
19.5257 44.8887
19.5709 43.945
19.6163 40.7014
19.6615 37.3021
19.7068 35.3058
19.752 34.3921
19.7974 33.8424
19.8426 33.611
19.888 33.465
19.9332 33.7205
19.9786 34.0264
20.0238 33.6468
20.0692 33.9831
20.1144 34.5854
20.1598 35.9362
20.205 38.2868
20.2504 41.6163
20.2957 42.2861
20.3411 39.9229
20.3863 37.7915
20.4318 37.7941
20.477 39.5981
20.5224 40.4261
20.5677 38.0626
20.6131 35.1856
20.6586 33.0952
20.7038 32.5378
20.7493 32.0743
20.7945 33.0552
20.84 35.204
20.8853 35.4952
20.9307 32.9275
20.976 31.421
21.0215 30.5867
21.0668 30.678
21.1122 30.4809
21.1575 30.3807
21.203 30.3367
21.2483 30.4552
21.2938 30.6743
21.3391 30.7134
21.3846 31.4757
21.4299 32.1415
21.4754 32.2899
21.5207 31.8832
21.5662 31.7204
21.6116 30.8742
21.6571 30.6471
21.7024 30.7912
21.7479 31.2821
21.7933 31.5759
21.8388 31.6056
21.8843 32.0929
21.9297 32.5169
21.9752 33.729
22.0206 35.944
22.0661 38.904
22.1115 40.6585
22.157 40.0503
22.2024 39.0963
22.248 38.0762
22.2933 37.1808
22.3389 35.9469
22.3843 34.4339
22.4299 32.6175
22.4753 31.8755
22.5208 31.369
22.5662 30.8512
22.6118 30.8958
22.6572 30.7927
22.7028 30.8232
22.7483 30.8678
22.7939 31.3412
22.8393 32.1747
22.8849 32.7326
22.9303 32.3152
22.9759 31.8742
23.0214 31.8839
23.067 33.1622
23.1126 34.7356
23.1581 36.6738
23.2037 36.8646
23.2492 34.8836
23.2948 32.8207
23.3403 31.9067
23.3859 31.8474
23.4314 32.4044
23.477 33.4777
23.5225 33.9578
23.5682 33.1468
23.6137 32.4313
23.6593 32.5304
23.7048 33.7556
23.7505 35.9432
23.796 37.1574
23.8417 36.16
23.8872 33.4209
23.9329 31.4333
23.9784 30.3843
24.0241 29.7857
24.0697 29.4939
24.1154 29.624
24.1609 29.2798
24.2066 28.7373
24.2522 28.3311
24.2979 28.1091
24.3434 27.9272
24.3892 27.6871
24.4349 27.6921
24.4805 27.5443
24.5262 27.5525
24.5718 27.4345
24.6175 27.5388
24.6631 27.8644
24.7089 28.2533
24.7545 28.5072
24.8002 28.0422
24.8458 27.5212
24.8916 27.1308
24.9372 27.0262
24.983 27.0477
25.0286 27.0336
25.0744 26.9879
25.12 26.9548
25.1658 27.1506
25.2114 27.1995
25.2572 27.4298
25.3029 28.1005
25.3487 28.6012
25.3943 28.6169
25.4402 28.314
25.4858 28.4814
25.5316 28.9281
25.5773 29.094
25.6231 28.7066
25.669 27.5041
25.7147 26.9289
25.7605 26.5411
25.8062 26.4704
25.8521 26.745
25.8977 26.8287
25.9436 26.8458
25.9893 26.2463
26.0352 26.0798
26.0809 25.8473
26.1268 25.9522
26.1725 26.0691
26.2184 26.1389
26.2641 26.5846
26.31 27.0438
26.3557 27.0342
26.4017 26.5597
26.4474 26.2969
26.4933 26.0696
26.5391 25.9945
26.585 25.8451
26.6308 25.8728
26.6767 25.8978
26.7225 26.1535
26.7684 26.5066
26.8142 26.9011
26.8601 27.4933
26.9059 27.6816
26.9519 27.5217
26.9979 27.4907
27.0437 27.4454
27.0896 26.9267
27.1354 26.2263
27.1814 25.5669
27.2272 25.4507
27.2732 25.2291
27.3191 25.1516
27.3651 25.1339
27.4109 24.9417
27.4569 24.9901
27.5027 24.9357
27.5488 24.9928
27.5946 25.0908
27.6407 24.8872
27.6865 24.8911
27.7326 24.9533
27.7784 25.2561
27.8245 24.929
27.8703 24.9086
27.9164 24.6953
27.9623 24.5247
28.0084 24.7466
28.0543 25.029
28.1003 25.2392
28.1462 25.3388
28.1923 25.2541
28.2384 25.2159
28.2843 25.5343
28.3304 25.6744
28.3764 25.2212
28.4225 25.1286
28.4684 24.8964
28.5145 24.5648
28.5605 24.292
28.6066 24.0298
28.6526 23.877
28.6987 23.6518
28.7447 23.4147
28.7908 23.196
28.8368 23.1462
28.8829 22.9516
28.9289 23.005
28.9751 22.9203
29.0211 22.9438
29.0673 22.8464
29.1133 22.9867
29.1595 22.9586
29.2055 22.8558
29.2517 22.6843
29.2977 22.4782
29.3439 22.3207
29.3899 22.2192
29.4361 22.1344
29.4824 22.1015
29.5284 22.1464
29.5746 22.1292
29.6207 22.0776
29.6669 22.151
29.713 21.966
29.7593 21.763
29.8053 21.6837
29.8516 21.5917
29.8977 21.4393
29.9439 21.3495
29.99 21.314
30.0363 21.2502
30.0824 21.2468
30.1287 21.4084
30.1748 21.467
30.2211 21.2793
30.2673 21.0667
30.3136 21.1003
30.3597 21.056
30.406 21.1472
30.4522 21.0572
30.4985 21.1306
30.5447 21.0853
30.591 20.9823
30.6372 20.8572
30.6835 20.8231
30.7297 20.868
30.7761 20.9057
30.8224 20.9007
30.8686 20.9839
30.915 21.1197
30.9612 21.2388
31.0076 21.1239
31.0538 21.1142
31.1002 21.1084
31.1464 20.9638
31.1928 20.8524
31.2391 20.6391
31.2855 20.472
31.3317 20.4361
31.3781 20.3405
31.4244 20.4088
31.4708 20.2424
31.5171 20.3296
31.5636 20.1919
31.6098 20.2583
31.6563 20.2366
31.7026 20.3088
31.7491 20.2661
31.7953 20.3202
31.8418 20.1951
31.8881 20.1104
31.9346 19.9794
31.9809 19.9358
32.0275 19.7735
32.074 19.8722
32.1203 19.8717
32.1668 19.8316
32.2132 19.9285
32.2597 19.8279
32.306 19.7536
32.3526 19.5338
32.399 19.5519
32.4455 19.3597
32.4919 19.2132
32.5385 19.2625
32.5848 19.1224
32.6314 18.9423
32.6778 18.928
32.7244 18.9454
32.7708 18.783
32.8174 18.7664
32.8638 18.638
32.9104 18.6908
32.9569 18.7519
33.0035 18.6901
33.0499 18.6693
33.0966 18.51
33.143 18.4689
33.1897 18.3794
33.2361 18.3053
33.2828 18.383
33.3293 18.2368
33.3759 18.2699
33.4226 18.277
33.4691 18.3027
33.5158 18.3157
33.5623 18.141
33.609 18.0517
33.6555 17.9694
33.7022 17.8172
33.7487 17.7533
33.7954 17.6457
33.842 17.6824
33.8887 17.6784
33.9353 17.5551
33.982 17.4617
34.0286 17.4892
34.0753 17.4209
34.1219 17.3544
34.1687 17.3517
34.2152 17.2974
34.262 17.1742
34.3086 17.118
34.3554 17.0308
34.402 16.9435
34.4488 16.9892
34.4954 16.81
34.5422 16.912
34.5889 16.7725
34.6357 16.7373
34.6825 16.6882
34.7292 16.5935
34.776 16.5985
34.8227 16.5646
34.8695 16.5221
34.9162 16.3914
34.9631 16.3499
35.0098 16.3226
35.0566 16.2624
35.1033 16.2037
35.1502 16.1763
35.1969 16.2448
35.2438 16.1369
35.2906 16.1452
35.3375 16.0723
35.3842 16.0469
35.4311 15.9658
35.4779 16.0152
35.5248 15.9543
35.5716 15.963
35.6185 15.8783
35.6653 15.9198
35.7123 15.9391
35.759 15.9187
35.806 15.81
35.8528 15.7765
35.8998 15.6999
35.9468 15.6356
35.9936 15.6076
36.0406 15.5
36.0874 15.5396
36.1345 15.4451
36.1813 15.4215
36.2283 15.287
36.2752 15.2877
36.3222 15.2319
36.3691 15.2196
36.4161 15.1494
36.463 15.1674
36.5101 15.1309
36.557 15.142
36.6041 14.9738
36.651 14.9158
36.6981 14.883
36.745 14.9265
36.7921 14.7715
36.839 14.8368
36.8861 14.7962
36.9331 14.733
36.9802 14.7384
37.0272 14.632
37.0743 14.5965
37.1213 14.5159
37.1684 14.4576
37.2154 14.4512
37.2626 14.363
37.3098 14.3766
37.3568 14.3025
37.404 14.2969
37.451 14.1722
37.4982 14.1294
37.5452 14.0569
37.5924 14.0888
37.6395 14.0786
37.6867 14.0369
37.7337 13.9597
37.781 13.8882
37.8281 13.8738
37.8753 13.8019
37.9224 13.7781
37.9697 13.7559
38.0168 13.7249
38.064 13.6642
38.1111 13.6735
38.1584 13.5879
38.2056 13.5594
38.2529 13.5302
38.3 13.4352
38.3473 13.4004
38.3945 13.3474
38.4418 13.3325
38.489 13.3141
38.5363 13.2499
38.5837 13.1334
38.6309 13.1918
38.6782 13.1705
38.7254 13.0435
38.7728 13.1193
38.82 13.0287
38.8674 12.9596
38.9146 12.9245
38.9621 12.8258
39.0093 12.8736
39.0567 12.8714
39.104 12.7748
39.1514 12.6842
39.1987 12.6926
39.2461 12.6603
39.2934 12.625
39.3409 12.551
39.3882 12.5183
39.4356 12.4995
39.483 12.5345
39.5304 12.4305
39.5778 12.4256
39.6253 12.3482
39.6726 12.3111
39.7201 12.3164
39.7675 12.2416
39.815 12.2279
39.8624 12.1625
39.9099 12.1544
39.9575 12.0393
40.0049 12.0812
40.0525 12.0013
40.0999 12.019
40.1474 11.9792
40.1949 11.933
40.2425 11.9027
40.2899 11.8978
40.3375 11.8504
40.385 11.7577
40.4326 11.8083
40.48 11.6999
40.5277 11.6715
40.5752 11.6669
40.6228 11.5674
40.6703 11.593
40.718 11.5644
40.7655 11.5153
40.8132 11.4605
40.8607 11.4346
40.9084 11.4045
40.9559 11.3762
41.0036 11.3611
41.0512 11.3044
41.0989 11.2811
41.1465 11.2978
41.1942 11.1877
41.242 11.161
41.2896 11.1515
41.3373 11.1341
41.3849 11.0592
41.4327 10.995
41.4803 11.0218
41.5281 10.9168
41.5758 10.8893
41.6236 10.8694
41.6712 10.8551
41.7191 10.8198
41.7667 10.7708
41.8146 10.7538
41.8622 10.6858
41.9101 10.6965
41.9578 10.6174
42.0057 10.6433
42.0534 10.5842
42.1013 10.5468
42.149 10.5127
42.1969 10.4656
42.2446 10.4428
42.2925 10.4349
42.3403 10.3765
42.3882 10.3404
42.436 10.331
42.4839 10.2482
42.5319 10.2164
42.5797 10.2217
42.6277 10.1321
42.6755 10.1291
42.7235 10.0582
42.7713 10.1027
42.8193 10.0604
42.8671 10.0548
42.9152 9.98017
42.963 9.95298
43.0111 9.93088
43.0589 9.87144
43.107 9.85076
43.1549 9.84961
43.2029 9.71252
43.2508 9.74806
43.2989 9.71313
43.3468 9.66837
43.3949 9.67103
43.4429 9.58704
43.491 9.61558
43.5389 9.53698
43.5871 9.4935
43.635 9.47571
43.6832 9.47432
43.7312 9.45444
43.7793 9.37523
43.8273 9.38044
43.8755 9.31011
43.9237 9.2748
43.9717 9.27004
44.0199 9.23948
44.068 9.19702
44.1162 9.1543
44.1642 9.1967
44.2125 9.12764
44.2606 9.10173
44.3088 9.05165
44.3569 9.02711
44.4052 9.00416
44.4533 8.95681
44.5016 8.9114
44.5497 8.9349
44.598 8.87489
44.6461 8.84007
44.6945 8.83399
44.7426 8.79945
44.791 8.7809
44.8391 8.75281
44.8875 8.69886
44.9357 8.68525
44.984 8.62744
45.0322 8.63894
45.0806 8.56597
45.1288 8.55895
45.1773 8.54389
45.2257 8.52353
45.2739 8.46598
45.3224 8.46848
45.3706 8.46203
45.4191 8.39205
45.4673 8.3374
45.5158 8.36028
45.5641 8.31649
45.6126 8.26999
45.6609 8.238
45.7094 8.21053
45.7577 8.1726
45.8063 8.1663
45.8546 8.11854
45.9031 8.09952
45.9515 8.0798
46.0001 8.0428
46.0484 8.03457
46.097 8.0043
46.1454 7.98746
46.194 7.94725
46.2424 7.93616
46.291 7.89377
46.3395 7.88772
46.3881 7.8263
46.4365 7.79628
46.4852 7.76117
46.5337 7.75997
46.5823 7.71483
46.631 7.71934
46.6795 7.67268
46.7282 7.68693
46.7767 7.64013
46.8254 7.57668
46.8739 7.55907
46.9226 7.50237
46.9712 7.52517
47.0199 7.41807
47.0685 7.45349
47.1173 7.4474
47.1658 7.4185
47.2146 7.36974
47.2632 7.34039
47.312 7.33456
47.3606 7.30672
47.4095 7.25264
47.4581 7.22901
47.5069 7.23149
47.5556 7.17008
47.6044 7.16398
47.6531 7.11858
47.702 7.10702
47.7507 7.06759
47.7996 7.0368
47.8483 7.03344
47.8972 7.02145
47.9461 6.97891
47.9948 6.96545
48.0438 6.9211
48.0925 6.94598
48.1415 6.8981
48.1902 6.84216
48.2392 6.87183
48.288 6.82491
48.337 6.8017
48.3858 6.77216
48.4348 6.78139
48.4837 6.77009
48.5327 6.71399
48.5815 6.70367
48.6306 6.65121
48.6795 6.6333
48.7285 6.61404
48.7774 6.60618
48.8265 6.54096
48.8754 6.53007
48.9245 6.50676
48.9734 6.52304
49.0226 6.48772
49.0715 6.44005
49.1206 6.41415
49.1696 6.4103
49.2188 6.40269
49.2679 6.36162
49.3169 6.33642
49.3661 6.29738
49.4151 6.26532
49.4643 6.27461
49.5134 6.29072
49.5626 6.184
49.6117 6.19603
49.6609 6.17603
49.71 6.14192
49.7592 6.11792
49.8083 6.09448
49.8576 6.05176
49.9067 6.07069
49.956 6.04923
50.0052 5.96612
50.0545 5.99408
50.1036 5.9701
50.153 5.9556
50.2022 5.89732
50.2515 5.89349
50.3007 5.86733
50.3501 5.86462
50.3993 5.82832
50.4487 5.79471
50.498 5.8063
50.5474 5.76929
50.5966 5.74148
50.6461 5.71675
50.6955 5.71949
50.7448 5.6771
50.7943 5.68417
50.8436 5.66189
50.8931 5.62313
50.9424 5.65118
50.9919 5.5995
51.0413 5.56152
51.0908 5.56159
51.1402 5.56031
51.1897 5.53369
51.2391 5.49297
51.2887 5.44644
51.3381 5.44713
51.3877 5.40172
51.4371 5.39609
51.4867 5.38526
51.5362 5.37664
51.5858 5.35641
51.6353 5.30147
51.6849 5.29174
51.7344 5.248
51.7841 5.28022
51.8336 5.22887
51.8833 5.1871
51.9328 5.19112
51.9826 5.18247
52.0323 5.13367
52.0818 5.13479
52.1316 5.10599
52.1812 5.09987
52.231 5.04169
52.2806 5.02351
52.3304 5.06655
52.38 5.00747
52.4298 4.96741
52.4794 4.98296
52.5293 4.93012
52.5789 4.91727
52.6288 4.92522
52.6785 4.90295
52.7284 4.87632
52.7781 4.85449
52.828 4.87113
52.8777 4.81539
52.9276 4.79608
52.9774 4.78935
53.0273 4.77583
53.0771 4.70564
53.1271 4.75
53.1769 4.71804
53.2269 4.68432
53.2767 4.66456
53.3267 4.69058
53.3765 4.65533
53.4266 4.56269
53.4766 4.56923
53.5265 4.58717
53.5765 4.55779
53.6264 4.52732
53.6765 4.5059
53.7264 4.47943
53.7765 4.50186
53.8265 4.42386
53.8766 4.41039
53.9266 4.39172
53.9767 4.40042
54.0267 4.38026
54.0769 4.35363
54.1269 4.3048
54.1771 4.25784
54.2271 4.29161
54.2773 4.23871
54.3274 4.21153
54.3776 4.15573
54.4277 4.12975
54.478 4.18438
54.528 4.07969
54.5783 4.00574
54.6285 3.99993
54.6788 4.01467
54.7289 3.90412
54.7792 3.95902
54.8296 3.85813
54.8798 3.84883
54.9301 3.84397
54.9803 3.83511
55.0307 3.85819
55.0809 3.75059
55.1314 3.77505
55.1816 3.68088
55.232 3.65044
55.2823 3.61192
55.3328 3.5616
55.383 3.54451
55.4335 3.50279
55.4838 3.45984
55.5344 3.45922
55.5847 3.41398
55.6352 3.39942
55.6856 3.36699
55.7361 3.40625