File: XRD/Ni3Fe_FD0461.xy
TT I
1.27165 7.78118
1.31627 6.78207
1.36089 6.71969
1.40551 6.81338
1.45013 5.87809
1.49476 6.29042
1.53938 5.96844
1.584 5.28731
1.62863 5.63681
1.67325 5.42064
1.71787 5.41308
1.7625 4.95618
1.80712 5.10337
1.85174 5.24745
1.89636 4.37038
1.94099 4.94987
1.98562 5.02401
2.03025 5.44023
2.07487 4.88402
2.11949 4.81606
2.16411 4.80744
2.20874 10.5546
2.25338 14.6796
2.298 5.33946
2.34263 5.0762
2.38725 5.54563
2.43188 5.63099
2.4765 6.39219
2.52115 6.42756
2.56577 6.89288
2.6104 7.26318
2.65503 7.03263
2.69965 8.14966
2.7443 7.66087
2.78893 7.62256
2.83356 8.1682
2.87818 8.52598
2.92281 8.71399
2.96744 9.06564
3.01209 10.1798
3.05672 11.3772
3.10135 12.0522
3.14599 12.9848
3.19062 14.1878
3.23527 15.0011
3.2799 15.971
3.32454 16.9744
3.36917 17.8163
3.4138 18.996
3.45844 20.1103
3.50309 20.7186
3.54773 21.3968
3.59237 23.2523
3.637 61.4311
3.68164 41.9754
3.7263 26.0206
3.77094 25.9703
3.81558 26.8043
3.86022 27.5582
3.90486 29.2439
3.9495 29.9875
3.99416 31.1849
4.0388 32.3079
4.08344 34.0781
4.12809 34.7645
4.17273 36.4331
4.21738 41.2867
4.26204 157.321
4.30669 131.663
4.35133 46.2665
4.39598 44.6219
4.44063 50.6571
4.4853 57.7901
4.52995 52.8882
4.5746 53.332
4.61925 54.612
4.6639 56.2798
4.70855 59.4823
4.75322 62.0748
4.79788 65.7878
4.84253 68.6983
4.88719 74.0855
4.93184 77.7314
4.97652 83.3039
5.02118 89.8714
5.06583 98.7126
5.11049 112.143
5.15515 168.031
5.19981 525.082
5.24449 3488.74
5.28916 11822.3
5.33382 2912.88
5.37848 205.219
5.42315 134.358
5.46783 119.141
5.5125 110.373
5.55716 104.807
5.60183 100.899
5.6465 98.8375
5.69117 96.7364
5.73586 95.1874
5.78053 95.493
5.8252 96.0904
5.86988 97.0134
5.91455 99.5232
5.95924 111.919
6.00392 291.208
6.0486 1192.41
6.09328 4210.76
6.13795 3306.96
6.18263 259.413
6.22733 96.4116
6.27201 84.2429
6.3167 90.8142
6.36138 77.5104
6.40606 70.3479
6.45075 68.6217
6.49545 66.5195
6.54014 64.7053
6.58483 64.1026
6.62952 63.1564
6.67421 79.1528
6.71892 105.171
6.76361 64.4518
6.8083 59.2568
6.853 58.3841
6.89769 57.2133
6.94239 57.1717
6.98711 56.4229
7.03181 56.3537
7.07651 56.0735
7.12121 55.7539
7.16591 56.2771
7.21063 55.4958
7.25533 63.4859
7.30004 119.554
7.34475 75.0517
7.38945 56.7811
7.43416 54.7714
7.47889 54.7231
7.5236 55.0451
7.56831 56.2656
7.61303 56.8574
7.65774 57.106
7.70247 57.0626
7.74719 56.9682
7.79191 57.3938
7.83663 57.5073
7.88135 58.6311
7.92607 59.8766
7.97081 60.6611
8.01553 61.8179
8.06026 63.3461
8.10498 65.1956
8.14971 71.5961
8.19446 71.2401
8.23919 70.6631
8.28392 73.4674
8.32865 75.8916
8.37339 80.879
8.41812 87.0854
8.46288 110.984
8.50761 209.436
8.55235 466.276
8.59709 1229.23
8.64183 2132.28
8.68658 987.213
8.73134 169.406
8.77609 101.718
8.82083 94.4886
8.86558 92.1686
8.91033 91.0793
8.9551 90.8396
8.99985 86.4898
9.04461 85.2788
9.08936 84.7278
9.13412 83.994
9.17888 83.7491
9.22365 84.2835
9.26841 83.5402
9.31318 85.0865
9.35794 85.1391
9.4027 85.8179
9.44749 85.8164
9.49226 86.3488
9.53703 87.5148
9.5818 89.6259
9.62657 93.2648
9.67134 96.8591
9.71614 95.2404
9.76091 96.3933
9.80569 99.6344
9.85047 102.624
9.89525 118.08
9.94005 135.418
9.98484 220.788
10.0296 410.532
10.0744 881.465
10.1192 1694.88
10.164 1615.29
10.2088 407.631
10.2536 130.487
10.2984 113.281
10.3432 112.627
10.388 108.364
10.4328 131.586
10.4776 179.467
10.5224 300.604
10.5672 494.684
10.612 497.991
10.6568 205.331
10.7017 97.9238
10.7465 88.1811
10.7913 84.7771
10.8361 82.5773
10.8809 80.5407
10.9257 79.123
10.9706 79.0611
11.0154 76.0043
11.0602 73.8204
11.105 72.8955
11.1499 74.3316
11.1947 78.1157
11.2395 72.8377
11.2844 70.5488
11.3292 68.1624
11.374 67.2511
11.4189 66.6826
11.4637 65.8208
11.5086 66.0962
11.5534 67.0317
11.5983 65.692
11.6431 64.3004
11.688 63.9303
11.7328 63.937
11.7777 63.7765
11.8225 63.4976
11.8674 63.3585
11.9122 63.7238
11.9571 64.2966
12.002 65.5413
12.0468 72.2933
12.0917 84.5154
12.1366 109.635
12.1814 155.776
12.2263 202.734
12.2712 170.899
12.3161 92.8704
12.3609 69.434
12.4058 65.2692
12.4507 65.3388
12.4956 65.2867
12.5405 65.8291
12.5853 66.3362
12.6302 70.7742
12.6751 74.1885
12.72 69.6517
12.7649 69.0388
12.8098 69.8521
12.8547 71.1683
12.8996 72.4994
12.9445 73.8466
12.9894 76.1786
13.0343 77.7994
13.0792 81.8999
13.1242 97.3542
13.1691 122.407
13.214 162.842
13.2589 251.402
13.3038 365.687
13.3487 417.083
13.3937 260.291
13.4386 124.337
13.4835 114.208
13.5285 131.103
13.5734 171.543
13.6183 254.098
13.6633 339.182
13.7082 337.639
13.7531 187.353
13.7981 97.8268
13.843 83.0929
13.888 81.0025
13.9329 78.5505
13.9779 77.1274
14.0228 75.7862
14.0678 74.3133
14.1127 73.9872
14.1577 73.3882
14.2027 72.7467
14.2476 71.493
14.2926 71.576
14.3376 71.9123
14.3825 71.0848
14.4275 70.1173
14.4725 69.9378
14.5175 70.2791
14.5624 70.1839
14.6074 71.5255
14.6524 72.2141
14.6974 72.0114
14.7424 75.864
14.7874 84.1312
14.8324 95.3706
14.8774 118.604
14.9224 158.098
14.9674 203.776
15.0124 215.037
15.0574 147.262
15.1024 90.4991
15.1474 73.6513
15.1924 71.5357
15.2374 71.486
15.2824 70.4739
15.3274 68.9726
15.3725 67.8959
15.4175 67.5643
15.4625 67.2218
15.5076 67.4742
15.5526 67.3362
15.5976 67.2719
15.6426 70.2029
15.6877 76.8076
15.7327 85.061
15.7778 101.473
15.8228 131.061
15.8679 168.259
15.9129 191.172
15.958 155.164
16.003 95.6481
16.0481 68.5862
16.0931 64.6245
16.1382 62.975
16.1833 61.6582
16.2283 59.7778
16.2734 59.2037
16.3185 58.9542
16.3636 59.2257
16.4086 57.9458
16.4537 57.0009
16.4988 56.2854
16.5439 56.4239
16.589 56.2971
16.6341 56.1178
16.6792 55.4794
16.7243 55.8198
16.7694 55.6936
16.8145 55.6318
16.8596 55.9708
16.9047 56.9882
16.9498 57.1385
16.9949 56.609
17.04 57.0058
17.0851 58.7059
17.1302 60.5772
17.1754 63.7755
17.2205 68.9066
17.2656 75.4451
17.3108 82.2417
17.3559 82.5025
17.401 71.7879
17.4462 62.8663
17.4913 60.1297
17.5365 60.4599
17.5815 60.3624
17.6268 60.862
17.6718 61.2209
17.7171 61.9688
17.7622 62.7562
17.8074 63.6922
17.8525 67.1676
17.8977 71.4439
17.9428 77.3845
17.9881 86.6909
18.0331 102.961
18.0784 121.92
18.1237 139.65
18.1688 132.827
18.214 105.278
18.2591 89.0136
18.3044 92.3042
18.3495 100.474
18.3948 106.423
18.4399 97.0565
18.4852 77.8455
18.5303 66.7044
18.5756 63.1722
18.6207 62.3816
18.666 61.4601
18.7112 60.7341
18.7565 59.9299
18.8016 59.7583
18.8469 59.1024
18.892 58.7373
18.9374 58.213
18.9825 58.1098
19.0278 57.9464
19.073 58.2039
19.1183 58.6682
19.1635 59.4155
19.2088 60.7704
19.254 63.5789
19.2993 67.9772
19.3447 72.7447
19.3898 76.686
19.4352 73.0227
19.4804 64.0867
19.5257 57.3417
19.5709 55.0151
19.6163 54.8784
19.6615 54.6834
19.7068 54.2001
19.752 54.2888
19.7974 54.8514
19.8426 55.7184
19.888 56.4704
19.9332 57.7881
19.9786 60.5069
20.0238 63.7283
20.0692 68.0077
20.1144 70.3577
20.1598 69.2003
20.205 64.6367
20.2504 62.9899
20.2957 64.6617
20.3411 66.0985
20.3863 64.5128
20.4318 58.9219
20.477 54.3046
20.5224 52.1012
20.5677 51.7111
20.6131 51.0201
20.6586 50.6377
20.7038 50.4152
20.7493 49.8699
20.7945 49.9325
20.84 49.7436
20.8853 49.7409
20.9307 49.7208
20.976 49.6012
21.0215 49.6595
21.0668 49.936
21.1122 50.5699
21.1575 51.2005
21.203 51.5925
21.2483 52.3858
21.2938 52.4103
21.3391 50.8229
21.3846 49.7566
21.4299 49.3168
21.4754 49.3709
21.5207 49.6053
21.5662 50.0809
21.6116 50.5617
21.6571 51.2351
21.7024 52.1075
21.7479 53.9603
21.7933 56.8497
21.8388 59.9449
21.8843 63.3138
21.9297 65.5117
21.9752 64.0537
22.0206 60.1827
22.0661 57.1263
22.1115 56.5863
22.157 56.5768
22.2024 55.2496
22.248 52.3342
22.2933 50.5527
22.3389 49.7968
22.3843 49.7321
22.4299 49.4611
22.4753 49.4439
22.5208 49.4609
22.5662 49.2105
22.6118 49.8583
22.6572 50.0191
22.7028 50.4972
22.7483 50.8024
22.7939 51.6802
22.8393 53.2654
22.8849 54.9865
22.9303 56.5631
22.9759 58.4958
23.0214 57.8602
23.067 55.2557
23.1126 51.8588
23.1581 50.1664
23.2037 49.7692
23.2492 49.8134
23.2948 49.9736
23.3403 50.2101
23.3859 50.967
23.4314 52.0237
23.477 53.6368
23.5225 55.5496
23.5682 57.3203
23.6137 58.3687
23.6593 56.14
23.7048 52.4204
23.7505 48.8992
23.796 47.3388
23.8417 46.593
23.8872 46.2035
23.9329 46.0148
23.9784 45.6599
24.0241 45.3792
24.0697 45.0807
24.1154 44.9756
24.1609 44.5583
24.2066 44.5647
24.2522 44.3956
24.2979 44.1953
24.3434 43.9737
24.3892 43.8944
24.4349 43.8649
24.4805 43.7048
24.5262 43.844
24.5718 43.5558
24.6175 43.5718
24.6631 43.4074
24.7089 43.0823
24.7545 43.0153
24.8002 43.0085
24.8458 42.9828
24.8916 42.738
24.9372 42.9885
24.983 43.4511
25.0286 43.6498
25.0744 44.0278
25.12 44.6519
25.1658 45.122
25.2114 45.3573
25.2572 45.6166
25.3029 45.4397
25.3487 45.458
25.3943 45.1779
25.4402 44.105
25.4858 43.0426
25.5316 42.221
25.5773 41.6051
25.6231 41.6878
25.669 41.2251
25.7147 41.2495
25.7605 41.0689
25.8062 41.0082
25.8521 41.1914
25.8977 41.2574
25.9436 41.5336
25.9893 41.7519
26.0352 42.1087
26.0809 42.268
26.1268 42.3993
26.1725 42.0233
26.2184 41.5362
26.2641 40.9932
26.31 40.8154
26.3557 40.9337
26.4017 40.7937
26.4474 41.2023
26.4933 41.4794
26.5391 42.0026
26.585 42.2779
26.6308 42.7817
26.6767 42.7999
26.7225 42.6202
26.7684 41.9271
26.8142 41.4018
26.8601 41.0707
26.9059 40.6086
26.9519 40.2377
26.9979 39.9556
27.0437 39.5333
27.0896 39.4079
27.1354 39.4745
27.1814 39.2101
27.2272 39.2246
27.2732 39.163
27.3191 39.116
27.3651 39.0653
27.4109 38.9862
27.4569 39.0834
27.5027 39.2155
27.5488 39.0987
27.5946 38.9962
27.6407 38.8199
27.6865 38.766
27.7326 38.5178
27.7784 38.4841
27.8245 38.5357
27.8703 38.7216
27.9164 38.8489
27.9623 38.8737
28.0084 39.3218
28.0543 39.6178
28.1003 39.6124
28.1462 39.3955
28.1923 39.0969
28.2384 38.5831
28.2843 38.1964
28.3304 37.7634
28.3764 37.4155
28.4225 37.0345
28.4684 36.8531
28.5145 36.5663
28.5605 36.5154
28.6066 36.1948
28.6526 36.1775
28.6987 36.1707
28.7447 36.1226
28.7908 36.048
28.8368 35.9488
28.8829 36.1135
28.9289 35.8999
28.9751 35.7001
29.0211 35.5026
29.0673 35.2682
29.1133 35.1643
29.1595 34.9329
29.2055 34.8377
29.2517 34.914
29.2977 34.798
29.3439 34.8202
29.3899 34.7518
29.4361 34.6639
29.4824 34.5188
29.5284 34.3233
29.5746 34.0237
29.6207 33.7866
29.6669 33.6694
29.713 33.5125
29.7593 33.3132
29.8053 33.3763
29.8516 33.4244
29.8977 33.3623
29.9439 33.1458
29.99 33.0262
30.0363 32.8902
30.0824 33.0385
30.1287 32.8911
30.1748 32.9282
30.2211 32.9848
30.2673 32.9049
30.3136 32.9009
30.3597 32.878
30.406 32.703
30.4522 32.6387
30.4985 32.6581
30.5447 32.7279
30.591 32.5851
30.6372 32.7568
30.6835 32.58
30.7297 32.7817
30.7761 32.7225
30.8224 32.5241
30.8686 32.3564
30.915 32.1018
30.9612 32.0768
31.0076 31.8217
31.0538 31.6838
31.1002 31.7052
31.1464 31.4404
31.1928 31.4325
31.2391 31.4644
31.2855 31.4185
31.3317 31.325
31.3781 31.5001
31.4244 31.3558
31.4708 31.3128
31.5171 31.2707
31.5636 31.2533
31.6098 31.0192
31.6563 30.782
31.7026 30.7955
31.7491 30.6164
31.7953 30.5849
31.8418 30.6256
31.8881 30.6331
31.9346 30.508
31.9809 30.5173
32.0275 30.3681
32.074 30.2886
32.1203 30.0999
32.1668 29.9921
32.2132 29.8967
32.2597 29.7517
32.306 29.7137
32.3526 29.5701
32.399 29.4298
32.4455 29.1911
32.4919 29.1925
32.5385 29.109
32.5848 28.9378
32.6314 29.1149
32.6778 28.9394
32.7244 28.7101
32.7708 28.6788
32.8174 28.6702
32.8638 28.4487
32.9104 28.5853
32.9569 28.4497
33.0035 28.3506
33.0499 28.3242
33.0966 28.2658
33.143 28.2105
33.1897 28.1723
33.2361 28.1144
33.2828 27.9852
33.3293 27.8424
33.3759 27.855
33.4226 27.7188
33.4691 27.481
33.5158 27.4818
33.5623 27.3744
33.609 27.1572
33.6555 27.0959
33.7022 27.0293
33.7487 26.8929
33.7954 26.9551
33.842 26.8587
33.8887 26.7305
33.9353 26.7424
33.982 26.5069
34.0286 26.5581
34.0753 26.3604
34.1219 26.3092
34.1687 26.2674
34.2152 26.1105
34.262 26.0603
34.3086 26.0451
34.3554 25.912
34.402 25.7902
34.4488 25.6831
34.4954 25.7032
34.5422 25.5633
34.5889 25.4383
34.6357 25.3747
34.6825 25.4243
34.7292 25.1943
34.776 25.1806
34.8227 25.0907
34.8695 25.0708
34.9162 24.935
34.9631 24.9691
35.0098 24.9884
35.0566 24.7089
35.1033 24.7152
35.1502 24.6025
35.1969 24.595
35.2438 24.6137
35.2906 24.5093
35.3375 24.4664
35.3842 24.3817
35.4311 24.3774
35.4779 24.2304
35.5248 24.2752
35.5716 24.1323
35.6185 24.0822
35.6653 23.9743
35.7123 23.9037
35.759 23.8947
35.806 23.7157
35.8528 23.6339
35.8998 23.6061
35.9468 23.505
35.9936 23.461
36.0406 23.3386
36.0874 23.3917
36.1345 23.296
36.1813 23.167
36.2283 23.1291
36.2752 22.9777
36.3222 23.0345
36.3691 22.8801
36.4161 22.7696
36.463 22.8169
36.5101 22.8011
36.557 22.7141
36.6041 22.5117
36.651 22.4716
36.6981 22.4644
36.745 22.3864
36.7921 22.2415
36.839 22.2276
36.8861 22.1383
36.9331 22.0683
36.9802 22.0418
37.0272 21.9418
37.0743 21.8612
37.1213 21.8675
37.1684 21.7615
37.2154 21.6196
37.2626 21.6229
37.3098 21.5672
37.3568 21.46
37.404 21.3461
37.451 21.3526
37.4982 21.2995
37.5452 21.2226
37.5924 21.11
37.6395 21.1399
37.6867 21.0757
37.7337 20.9263
37.781 20.8795
37.8281 20.8094
37.8753 20.7145
37.9224 20.5953
37.9697 20.5897
38.0168 20.5659
38.064 20.458
38.1111 20.4365
38.1584 20.3359
38.2056 20.2967
38.2529 20.2361
38.3 20.0997
38.3473 20.1256
38.3945 19.9842
38.4418 19.9804
38.489 19.9146
38.5363 19.8465
38.5837 19.7598
38.6309 19.729
38.6782 19.5903
38.7254 19.5971
38.7728 19.4884
38.82 19.4473
38.8674 19.3953
38.9146 19.3498
38.9621 19.2815
39.0093 19.2557
39.0567 19.2242
39.104 19.068
39.1514 19.0185
39.1987 18.9649
39.2461 18.8996
39.2934 18.9412
39.3409 18.7137
39.3882 18.7061
39.4356 18.6664
39.483 18.5645
39.5304 18.5274
39.5778 18.623
39.6253 18.4551
39.6726 18.3396
39.7201 18.3128
39.7675 18.3256
39.815 18.192
39.8624 18.1454
39.9099 18.1654
39.9575 18.0653
40.0049 17.9032
40.0525 17.8447
40.0999 17.9
40.1474 17.864
40.1949 17.7545
40.2425 17.6994
40.2899 17.6531
40.3375 17.5811
40.385 17.4888
40.4326 17.5091
40.48 17.3447
40.5277 17.318
40.5752 17.2927
40.6228 17.159
40.6703 17.124
40.718 17.1607
40.7655 17.1582
40.8132 17.0253
40.8607 17.0234
40.9084 16.9069
40.9559 16.8463
41.0036 16.8561
41.0512 16.8625
41.0989 16.73
41.1465 16.7097
41.1942 16.5757
41.242 16.5566
41.2896 16.4748
41.3373 16.3937
41.3849 16.3927
41.4327 16.3079
41.4803 16.2162
41.5281 16.1832
41.5758 16.1573
41.6236 16.0573
41.6712 15.9703
41.7191 15.9839
41.7667 15.9092
41.8146 15.897
41.8622 15.7708
41.9101 15.7355
41.9578 15.7024
42.0057 15.7059
42.0534 15.6134
42.1013 15.5443
42.149 15.5236
42.1969 15.4264
42.2446 15.4014
42.2925 15.3598
42.3403 15.31
42.3882 15.3209
42.436 15.2717
42.4839 15.1252
42.5319 15.1095
42.5797 15.0617
42.6277 14.9728
42.6755 14.9799
42.7235 14.8906
42.7713 14.8488
42.8193 14.7882
42.8671 14.7341
42.9152 14.6646
42.963 14.6407
43.0111 14.5601
43.0589 14.5095
43.107 14.4861
43.1549 14.4588
43.2029 14.3723
43.2508 14.3134
43.2989 14.3113
43.3468 14.2359
43.3949 14.1618
43.4429 14.131
43.491 14.1187
43.5389 14.0577
43.5871 14.0014
43.635 13.9408
43.6832 13.9249
43.7312 13.8456
43.7793 13.7847
43.8273 13.742
43.8755 13.6751
43.9237 13.7141
43.9717 13.6115
44.0199 13.5246
44.068 13.5632
44.1162 13.4868
44.1642 13.4695
44.2125 13.4127
44.2606 13.3353
44.3088 13.298
44.3569 13.1865
44.4052 13.2293
44.4533 13.1513
44.5016 13.0885
44.5497 13.1041
44.598 12.9719
44.6461 12.9613
44.6945 12.9359
44.7426 12.888
44.791 12.8242
44.8391 12.8101
44.8875 12.7145
44.9357 12.7133
44.984 12.6632
45.0322 12.5773
45.0806 12.5468
45.1288 12.5163
45.1773 12.4509
45.2257 12.449
45.2739 12.3988
45.3224 12.306
45.3706 12.2822
45.4191 12.2586
45.4673 12.2315
45.5158 12.1843
45.5641 12.1422
45.6126 12.0962
45.6609 12.0046
45.7094 11.9259
45.7577 11.9616
45.8063 11.8565
45.8546 11.8436
45.9031 11.809
45.9515 11.8107
46.0001 11.7321
46.0484 11.7074
46.097 11.6489
46.1454 11.5784
46.194 11.6194
46.2424 11.5309
46.291 11.4992
46.3395 11.4498
46.3881 11.3876
46.4365 11.3894
46.4852 11.3045
46.5337 11.3387
46.5823 11.2681
46.631 11.2007
46.6795 11.123
46.7282 11.1061
46.7767 11.0799
46.8254 11.0557
46.8739 11.0249
46.9226 10.9455
46.9712 10.9441
47.0199 10.8535
47.0685 10.8301
47.1173 10.7652
47.1658 10.7503
47.2146 10.7561
47.2632 10.6866
47.312 10.6362
47.3606 10.6016
47.4095 10.5496
47.4581 10.5051
47.5069 10.4959
47.5556 10.4484
47.6044 10.3478
47.6531 10.3377
47.702 10.3288
47.7507 10.2644
47.7996 10.2313
47.8483 10.1801
47.8972 10.1557
47.9461 10.1441
47.9948 10.0882
48.0438 10.0321
48.0925 10.0263
48.1415 9.98609
48.1902 9.90785
48.2392 9.96992
48.288 9.89972
48.337 9.87017
48.3858 9.81304
48.4348 9.83084
48.4837 9.75133
48.5327 9.712
48.5815 9.67558
48.6306 9.65764
48.6795 9.58638
48.7285 9.55759
48.7774 9.52936
48.8265 9.51308
48.8754 9.45275
48.9245 9.41902
48.9734 9.39999
49.0226 9.38386
49.0715 9.31339
49.1206 9.26073
49.1696 9.2497
49.2188 9.18461
49.2679 9.20087
49.3169 9.14214
49.3661 9.07717
49.4151 9.08757
49.4643 9.07004
49.5134 9.01035
49.5626 8.9371
49.6117 8.94207
49.6609 8.89147
49.71 8.86931
49.7592 8.82808
49.8083 8.74812
49.8576 8.7887
49.9067 8.7301
49.956 8.69069
50.0052 8.68676
50.0545 8.60496
50.1036 8.59236
50.153 8.58926
50.2022 8.54544
50.2515 8.48115
50.3007 8.41888
50.3501 8.44339
50.3993 8.40198
50.4487 8.37168
50.498 8.32457
50.5474 8.28577
50.5966 8.27918
50.6461 8.27173
50.6955 8.19668
50.7448 8.18095
50.7943 8.15859
50.8436 8.10798
50.8931 8.05601
50.9424 8.06893
50.9919 8.03487
51.0413 7.96503
51.0908 7.96356
51.1402 7.91839
51.1897 7.88416
51.2391 7.83964
51.2887 7.83085
51.3381 7.76377
51.3877 7.76121
51.4371 7.73526
51.4867 7.69563
51.5362 7.66685
51.5858 7.64952
51.6353 7.58928
51.6849 7.57167
51.7344 7.53319
51.7841 7.52274
51.8336 7.49295
51.8833 7.44462
51.9328 7.40809
51.9826 7.36108
52.0323 7.3495
52.0818 7.30034
52.1316 7.25731
52.1812 7.27845
52.231 7.23639
52.2806 7.18618
52.3304 7.17835
52.38 7.13982
52.4298 7.09675
52.4794 7.07431
52.5293 7.05861
52.5789 7.02093
52.6288 6.99785
52.6785 6.93853
52.7284 6.94062
52.7781 6.90734
52.828 6.90583
52.8777 6.83888
52.9276 6.85646
52.9774 6.7695
53.0273 6.78237
53.0771 6.72256
53.1271 6.69919
53.1769 6.70993
53.2269 6.66489
53.2767 6.63475
53.3267 6.55035
53.3765 6.56764
53.4266 6.53042
53.4766 6.47931
53.5265 6.49104
53.5765 6.43763
53.6264 6.43624
53.6765 6.41273
53.7264 6.35558
53.7765 6.3641
53.8265 6.28147
53.8766 6.25003
53.9266 6.23801
53.9767 6.22564
54.0267 6.21778
54.0769 6.15414
54.1269 6.16437
54.1771 6.16426
54.2271 6.11976
54.2773 6.0589
54.3274 6.04695
54.3776 6.00324
54.4277 5.96345
54.478 5.93153
54.528 5.91146
54.5783 5.86293
54.6285 5.82096
54.6788 5.76706
54.7289 5.71886
54.7792 5.70016
54.8296 5.6425
54.8798 5.56971
54.9301 5.53136
54.9803 5.58482
55.0307 5.50438
55.0809 5.43217
55.1314 5.41019
55.1816 5.33428
55.232 5.34604
55.2823 5.27677
55.3328 5.22179
55.383 5.13231
55.4335 5.15346
55.4838 5.1056
55.5344 5.07085
55.5847 5.02374
55.6352 4.95943
55.6856 4.93968
55.7361 4.91038