File: XRD/Ni3Fe_FD1005.xy
TT I
1.27165 7.00816
1.31627 6.48528
1.36089 6.45021
1.40551 6.42711
1.45013 5.9695
1.49476 5.80803
1.53938 5.71104
1.584 5.22592
1.62863 5.09972
1.67325 5.26876
1.71787 5.05724
1.7625 4.4178
1.80712 4.63949
1.85174 4.32106
1.89636 5.14684
1.94099 4.90712
1.98562 4.52948
2.03025 4.2095
2.07487 5.02693
2.11949 4.63039
2.16411 4.83922
2.20874 15.1288
2.25338 27.7138
2.298 6.7095
2.34263 5.63356
2.38725 5.90408
2.43188 6.59985
2.4765 7.27608
2.52115 7.89448
2.56577 8.01797
2.6104 9.58387
2.65503 8.44095
2.69965 8.74764
2.7443 8.23353
2.78893 8.33927
2.83356 8.91486
2.87818 8.94948
2.92281 9.1013
2.96744 9.67083
3.01209 10.9581
3.05672 11.4039
3.10135 12.6628
3.14599 13.4404
3.19062 14.5927
3.23527 15.5314
3.2799 15.5526
3.32454 16.3195
3.36917 17.1818
3.4138 18.8507
3.45844 19.4065
3.50309 21.3176
3.54773 20.8966
3.59237 23.9349
3.637 105.839
3.68164 71.643
3.7263 26.4247
3.77094 26.0487
3.81558 26.6125
3.86022 27.1717
3.90486 28.2716
3.9495 29.3203
3.99416 30.555
4.0388 31.7543
4.08344 32.8834
4.12809 34.0343
4.17273 36.5153
4.21738 42.6463
4.26204 285.89
4.30669 281.944
4.35133 49.6358
4.39598 43.6294
4.44063 53.7853
4.4853 70.0837
4.52995 49.2372
4.5746 49.4555
4.61925 50.8443
4.6639 53.1896
4.70855 55.9745
4.75322 58.302
4.79788 61.4094
4.84253 64.4176
4.88719 68.2803
4.93184 71.4288
4.97652 76.6612
5.02118 82.2417
5.06583 88.7204
5.11049 97.8204
5.15515 166.852
5.19981 256.379
5.24449 1996.04
5.28916 13312.8
5.33382 2977.88
5.37848 174.496
5.42315 122.218
5.46783 108.19
5.5125 100.766
5.55716 96.9823
5.60183 93.9976
5.6465 92.8757
5.69117 90.1087
5.73586 88.0847
5.78053 86.7805
5.8252 86.2171
5.86988 86.6257
5.91455 87.9558
5.95924 92.7849
6.00392 151.832
6.0486 696.2
6.09328 4423.87
6.13795 3451.22
6.18263 233.589
6.22733 88.8041
6.27201 79.9956
6.3167 104.954
6.36138 82.0281
6.40606 66.7383
6.45075 65.2143
6.49545 63.5299
6.54014 62.0329
6.58483 61.3788
6.62952 61.1226
6.67421 94.039
6.71892 168.106
6.76361 72.7187
6.8083 57.2601
6.853 56.1055
6.89769 55.4163
6.94239 55.1069
6.98711 53.8827
7.03181 54.0123
7.07651 54.2284
7.12121 53.6903
7.16591 53.9965
7.21063 54.1277
7.25533 68.866
7.30004 207.45
7.34475 107.843
7.38945 55.6684
7.43416 53.4248
7.47889 53.1515
7.5236 53.2078
7.56831 53.7878
7.61303 55.5221
7.65774 56.4133
7.70247 54.5001
7.74719 54.6154
7.79191 54.6392
7.83663 54.9576
7.88135 55.7564
7.92607 56.616
7.97081 57.9998
8.01553 58.7294
8.06026 60.2303
8.10498 61.9048
8.14971 72.2662
8.19446 72.1013
8.23919 67.11
8.28392 69.1597
8.32865 70.5667
8.37339 74.604
8.41812 81.0444
8.46288 112.518
8.50761 134.74
8.55235 293.402
8.59709 1006.59
8.64183 2307.01
8.68658 1049.2
8.73134 168.075
8.77609 95.7372
8.82083 89.1428
8.86558 85.8557
8.91033 86.2654
8.9551 90.4385
8.99985 83.0692
9.04461 80.5284
9.08936 79.7468
9.13412 78.831
9.17888 79.1977
9.22365 80.1055
9.26841 79.195
9.31318 79.3664
9.35794 79.5924
9.4027 79.4706
9.44749 80.6397
9.49226 80.9522
9.53703 81.9449
9.5818 83.6929
9.62657 88.3561
9.67134 97.4849
9.71614 90.9082
9.76091 90.1212
9.80569 92.0421
9.85047 95.2826
9.89525 120.963
9.94005 138.714
9.98484 144.633
10.0296 264.17
10.0744 665.527
10.1192 1715.77
10.164 1654.03
10.2088 412.218
10.2536 124.801
10.2984 109.692
10.3432 113.472
10.388 101.258
10.4328 106.162
10.4776 136.438
10.5224 244.845
10.5672 511.961
10.612 535.383
10.6568 206.677
10.7017 94.9318
10.7465 83.1263
10.7913 80.2038
10.8361 78.4369
10.8809 76.2518
10.9257 75.7471
10.9706 77.5427
11.0154 72.9614
11.0602 70.471
11.105 69.4366
11.1499 74.1647
11.1947 85.0808
11.2395 75.0386
11.2844 69.2724
11.3292 65.293
11.374 64.1037
11.4189 63.6174
11.4637 62.5079
11.5086 63.0877
11.5534 67.3956
11.5983 64.4871
11.6431 61.703
11.688 60.7836
11.7328 60.8282
11.7777 61.0184
11.8225 60.2953
11.8674 60.0976
11.9122 60.6883
11.9571 60.6984
12.002 60.9453
12.0468 63.192
12.0917 72.2583
12.1366 92.5304
12.1814 143.612
12.2263 205.883
12.2712 170.578
12.3161 98.8953
12.3609 71.1606
12.4058 63.027
12.4507 62.2823
12.4956 62.3745
12.5405 62.2773
12.5853 63.1549
12.6302 71.585
12.6751 80.4814
12.72 69.9521
12.7649 65.6027
12.8098 65.8059
12.8547 67.2147
12.8996 68.0856
12.9445 69.352
12.9894 70.9325
13.0343 72.5875
13.0792 75.2051
13.1242 80.5928
13.1691 99.6679
13.214 129.56
13.2589 211.792
13.3038 360.955
13.3487 442.168
13.3937 272.53
13.4386 124.519
13.4835 97.6758
13.5285 107.969
13.5734 140.043
13.6183 226.852
13.6633 353.431
13.7082 357.152
13.7531 193.92
13.7981 96.7439
13.843 79.3143
13.888 77.0585
13.9329 74.3852
13.9779 73.0495
14.0228 71.7848
14.0678 70.5209
14.1127 69.8628
14.1577 70.2106
14.2027 69.3236
14.2476 67.8292
14.2926 68.0965
14.3376 69.8567
14.3825 68.6516
14.4275 66.5976
14.4725 66.2067
14.5175 66.1601
14.5624 66.2435
14.6074 68.9089
14.6524 69.7065
14.6974 68.0947
14.7424 68.3208
14.7874 72.6969
14.8324 80.8749
14.8774 99.3928
14.9224 140.089
14.9674 205.281
15.0124 224.136
15.0574 156.136
15.1024 91.499
15.1474 70.5841
15.1924 67.9997
15.2374 69.2056
15.2824 68.8651
15.3274 66.4294
15.3725 64.8192
15.4175 63.9964
15.4625 63.692
15.5076 64.0141
15.5526 63.9318
15.5976 63.4259
15.6426 63.6663
15.6877 67.1525
15.7327 73.2036
15.7778 86.5541
15.8228 114.709
15.8679 164.562
15.9129 198.809
15.958 164.796
16.003 99.0852
16.0481 67.6429
16.0931 63.3893
16.1382 61.8884
16.1833 58.8295
16.2283 57.2631
16.2734 56.5263
16.3185 56.8136
16.3636 58.3172
16.4086 56.8051
16.4537 54.8149
16.4988 53.8984
16.5439 53.8184
16.589 53.3273
16.6341 53.1804
16.6792 52.7887
16.7243 53.1811
16.7694 53.2023
16.8145 53.1345
16.8596 53.5078
16.9047 55.4935
16.9498 55.9362
16.9949 54.2302
17.04 53.8567
17.0851 54.5739
17.1302 56.0452
17.1754 58.6876
17.2205 63.5458
17.2656 71.3497
17.3108 81.364
17.3559 81.7031
17.401 70.1595
17.4462 60.5116
17.4913 57.2654
17.5365 57.0826
17.5815 57.2681
17.6268 57.448
17.6718 58.3386
17.7171 59.0042
17.7622 59.1646
17.8074 59.5273
17.8525 61.0773
17.8977 64.186
17.9428 69.0259
17.9881 76.4932
18.0331 92.9826
18.0784 118.008
18.1237 139.507
18.1688 132.16
18.214 102.815
18.2591 84.0338
18.3044 86.2906
18.3495 98.5265
18.3948 107.091
18.4399 96.8008
18.4852 77.7395
18.5303 64.7969
18.5756 60.5017
18.6207 59.5285
18.666 58.8249
18.7112 57.8683
18.7565 57.2599
18.8016 56.8256
18.8469 56.2706
18.892 55.9786
18.9374 55.4162
18.9825 55.2926
19.0278 55.1512
19.073 55.2707
19.1183 55.3571
19.1635 56.1985
19.2088 57.1603
19.254 59.3254
19.2993 63.6969
19.3447 70.488
19.3898 75.8239
19.4352 72.3501
19.4804 62.5915
19.5257 55.7239
19.5709 52.8627
19.6163 52.1335
19.6615 52.0413
19.7068 51.7346
19.752 51.5343
19.7974 51.6158
19.8426 52.524
19.888 53.046
19.9332 54.2015
19.9786 56.3762
20.0238 59.8361
20.0692 65.3401
20.1144 68.9954
20.1598 67.2833
20.205 62.0778
20.2504 60.2204
20.2957 62.6275
20.3411 65.236
20.3863 63.9014
20.4318 57.8483
20.477 52.638
20.5224 50.5144
20.5677 49.6926
20.6131 48.8613
20.6586 48.1862
20.7038 48.1103
20.7493 47.7001
20.7945 47.5666
20.84 47.565
20.8853 47.2355
20.9307 47.1354
20.976 47.1126
21.0215 46.8543
21.0668 47.4084
21.1122 47.8412
21.1575 48.6699
21.203 49.3613
21.2483 50.2196
21.2938 50.0958
21.3391 48.7359
21.3846 47.6765
21.4299 47.0065
21.4754 46.8557
21.5207 46.9473
21.5662 47.2222
21.6116 47.5419
21.6571 48.0781
21.7024 49.0777
21.7479 50.5001
21.7933 52.963
21.8388 56.96
21.8843 61.5715
21.9297 63.8513
21.9752 62.6286
22.0206 58.6422
22.0661 55.5051
22.1115 55.1016
22.157 55.0579
22.2024 53.2281
22.248 50.389
22.2933 48.7238
22.3389 47.9939
22.3843 47.7416
22.4299 47.8088
22.4753 47.7636
22.5208 47.3703
22.5662 47.1166
22.6118 47.2178
22.6572 47.2512
22.7028 47.5267
22.7483 47.9809
22.7939 48.6195
22.8393 50.0501
22.8849 52.4242
22.9303 54.8062
22.9759 56.7628
23.0214 56.9631
23.067 53.8708
23.1126 49.9618
23.1581 48.0472
23.2037 47.5523
23.2492 47.3636
23.2948 47.2663
23.3403 47.5377
23.3859 48.0959
23.4314 48.8968
23.477 50.7768
23.5225 53.5368
23.5682 56.2615
23.6137 57.6051
23.6593 55.2713
23.7048 51.2215
23.7505 47.5744
23.796 45.5936
23.8417 44.7852
23.8872 44.2993
23.9329 44.0032
23.9784 43.6775
24.0241 43.4579
24.0697 43.3382
24.1154 42.9589
24.1609 42.8952
24.2066 42.7529
24.2522 42.5647
24.2979 42.2241
24.3434 42.1566
24.3892 42.0621
24.4349 41.9742
24.4805 41.6292
24.5262 42.024
24.5718 41.7975
24.6175 41.89
24.6631 41.7448
24.7089 41.5044
24.7545 41.3726
24.8002 41.2538
24.8458 41.0627
24.8916 40.8648
24.9372 40.9381
24.983 41.2421
25.0286 41.5872
25.0744 42.0061
25.12 42.6203
25.1658 43.1354
25.2114 43.5852
25.2572 43.7521
25.3029 44.0182
25.3487 44.1896
25.3943 43.9465
25.4402 42.7752
25.4858 41.7096
25.5316 40.6472
25.5773 40.0096
25.6231 39.8338
25.669 39.5883
25.7147 39.4737
25.7605 39.2883
25.8062 39.4267
25.8521 39.6125
25.8977 39.4158
25.9436 39.7676
25.9893 39.8231
26.0352 40.5265
26.0809 40.6
26.1268 40.9424
26.1725 40.6367
26.2184 39.9266
26.2641 39.2852
26.31 39.1272
26.3557 38.9954
26.4017 39.0304
26.4474 39.3348
26.4933 39.7906
26.5391 40.1259
26.585 40.8313
26.6308 41.1452
26.6767 41.3075
26.7225 41.1721
26.7684 40.5992
26.8142 39.9982
26.8601 39.7308
26.9059 39.2027
26.9519 38.4981
26.9979 38.2026
27.0437 37.9643
27.0896 37.7697
27.1354 37.7729
27.1814 37.6804
27.2272 37.4965
27.2732 37.5296
27.3191 37.3003
27.3651 37.4855
27.4109 37.4292
27.4569 37.4763
27.5027 37.5567
27.5488 37.6664
27.5946 37.5109
27.6407 37.2461
27.6865 37.238
27.7326 36.8741
27.7784 36.986
27.8245 36.7837
27.8703 36.9542
27.9164 37.2958
27.9623 37.4322
28.0084 37.7744
28.0543 38.2615
28.1003 38.1908
28.1462 38.0264
28.1923 37.6815
28.2384 37.3555
28.2843 36.8057
28.3304 36.4719
28.3764 35.9492
28.4225 35.5308
28.4684 35.3905
28.5145 35.0701
28.5605 35.0041
28.6066 34.8465
28.6526 34.773
28.6987 34.7727
28.7447 34.6556
28.7908 34.5678
28.8368 34.5778
28.8829 34.6677
28.9289 34.5034
28.9751 34.384
29.0211 34.161
29.0673 33.9348
29.1133 33.7458
29.1595 33.623
29.2055 33.5661
29.2517 33.4601
29.2977 33.4049
29.3439 33.4412
29.3899 33.4368
29.4361 33.3992
29.4824 33.1327
29.5284 32.9423
29.5746 32.5692
29.6207 32.4138
29.6669 32.298
29.713 32.1086
29.7593 32.1014
29.8053 32.0583
29.8516 31.9941
29.8977 31.9685
29.9439 31.801
29.99 31.7666
30.0363 31.6534
30.0824 31.8714
30.1287 31.5319
30.1748 31.691
30.2211 31.7111
30.2673 31.5332
30.3136 31.5212
30.3597 31.5314
30.406 31.5067
30.4522 31.2575
30.4985 31.2272
30.5447 31.3442
30.591 31.308
30.6372 31.4892
30.6835 31.5166
30.7297 31.4296
30.7761 31.4133
30.8224 31.249
30.8686 31.0887
30.915 30.8969
30.9612 30.8099
31.0076 30.5901
31.0538 30.464
31.1002 30.339
31.1464 30.2063
31.1928 30.235
31.2391 30.1615
31.2855 30.133
31.3317 30.0677
31.3781 30.1469
31.4244 30.1562
31.4708 30.1126
31.5171 30.1434
31.5636 30.0619
31.6098 29.8004
31.6563 29.5922
31.7026 29.5369
31.7491 29.3241
31.7953 29.484
31.8418 29.4011
31.8881 29.4109
31.9346 29.4404
31.9809 29.4698
32.0275 29.2387
32.074 29.183
32.1203 28.9316
32.1668 28.8602
32.2132 28.6453
32.2597 28.6734
32.306 28.4816
32.3526 28.2591
32.399 28.2206
32.4455 28.0994
32.4919 27.9407
32.5385 27.9586
32.5848 27.9119
32.6314 27.7087
32.6778 27.7689
32.7244 27.6227
32.7708 27.5332
32.8174 27.4292
32.8638 27.4046
32.9104 27.4047
32.9569 27.3184
33.0035 27.188
33.0499 27.2448
33.0966 27.1303
33.143 27.2145
33.1897 27.092
33.2361 26.9751
33.2828 26.9482
33.3293 26.6863
33.3759 26.7687
33.4226 26.6514
33.4691 26.4062
33.5158 26.4111
33.5623 26.2739
33.609 26.1215
33.6555 26.0046
33.7022 26.0404
33.7487 25.9391
33.7954 25.9236
33.842 25.8129
33.8887 25.6608
33.9353 25.6531
33.982 25.5051
34.0286 25.4581
34.0753 25.3934
34.1219 25.2775
34.1687 25.1631
34.2152 25.1256
34.262 25.1038
34.3086 24.9145
34.3554 24.9447
34.402 24.8609
34.4488 24.7331
34.4954 24.6722
34.5422 24.5886
34.5889 24.5393
34.6357 24.4109
34.6825 24.2792
34.7292 24.283
34.776 24.1857
34.8227 24.1628
34.8695 24.0827
34.9162 24.0407
34.9631 23.845
35.0098 23.9498
35.0566 23.8728
35.1033 23.7821
35.1502 23.6056
35.1969 23.6699
35.2438 23.5759
35.2906 23.5131
35.3375 23.4911
35.3842 23.4624
35.4311 23.4969
35.4779 23.4182
35.5248 23.3977
35.5716 23.2573
35.6185 23.1987
35.6653 23.1302
35.7123 23.0135
35.759 22.901
35.806 22.9026
35.8528 22.6872
35.8998 22.7041
35.9468 22.5935
35.9936 22.5991
36.0406 22.4527
36.0874 22.4605
36.1345 22.4002
36.1813 22.2322
36.2283 22.1854
36.2752 22.1331
36.3222 22.1567
36.3691 22.0697
36.4161 21.9269
36.463 21.9498
36.5101 21.8605
36.557 21.8327
36.6041 21.6718
36.651 21.6689
36.6981 21.6016
36.745 21.5482
36.7921 21.4676
36.839 21.4218
36.8861 21.3105
36.9331 21.237
36.9802 21.1552
37.0272 21.051
37.0743 21.027
37.1213 20.9956
37.1684 20.9104
37.2154 20.8717
37.2626 20.7694
37.3098 20.7774
37.3568 20.6281
37.404 20.6032
37.451 20.4914
37.4982 20.5208
37.5452 20.3935
37.5924 20.3267
37.6395 20.4131
37.6867 20.2465
37.7337 20.1811
37.781 20.0974
37.8281 19.9992
37.8753 19.8998
37.9224 19.8977
37.9697 19.8007
38.0168 19.7445
38.064 19.6525
38.1111 19.6151
38.1584 19.5951
38.2056 19.5759
38.2529 19.4717
38.3 19.3481
38.3473 19.3708
38.3945 19.2466
38.4418 19.2252
38.489 19.1562
38.5363 19.0398
38.5837 18.9852
38.6309 19.0133
38.6782 18.916
38.7254 18.8471
38.7728 18.783
38.82 18.6964
38.8674 18.7031
38.9146 18.628
38.9621 18.5335
39.0093 18.446
39.0567 18.4449
39.104 18.3495
39.1514 18.3349
39.1987 18.217
39.2461 18.1926
39.2934 18.1561
39.3409 18.0736
39.3882 17.9994
39.4356 17.9379
39.483 17.9023
39.5304 17.7983
39.5778 17.7822
39.6253 17.726
39.6726 17.6924
39.7201 17.6171
39.7675 17.5818
39.815 17.5714
39.8624 17.4671
39.9099 17.4041
39.9575 17.3362
40.0049 17.2339
40.0525 17.201
40.0999 17.2131
40.1474 17.1582
40.1949 17.1006
40.2425 17.0202
40.2899 17.0024
40.3375 16.9246
40.385 16.799
40.4326 16.7987
40.48 16.7136
40.5277 16.729
40.5752 16.654
40.6228 16.5708
40.6703 16.5277
40.718 16.5027
40.7655 16.4257
40.8132 16.3429
40.8607 16.3858
40.9084 16.283
40.9559 16.2053
41.0036 16.2423
41.0512 16.084
41.0989 16.1016
41.1465 16.0171
41.1942 15.9544
41.242 15.8862
41.2896 15.8867
41.3373 15.8043
41.3849 15.7313
41.4327 15.7562
41.4803 15.6441
41.5281 15.5354
41.5758 15.5259
41.6236 15.504
41.6712 15.4281
41.7191 15.3616
41.7667 15.3073
41.8146 15.316
41.8622 15.2161
41.9101 15.1896
41.9578 15.0962
42.0057 15.16
42.0534 15.0332
42.1013 14.9903
42.149 14.8928
42.1969 14.8907
42.2446 14.8705
42.2925 14.8233
42.3403 14.7284
42.3882 14.7445
42.436 14.6347
42.4839 14.6159
42.5319 14.5706
42.5797 14.4833
42.6277 14.4519
42.6755 14.3794
42.7235 14.2721
42.7713 14.3441
42.8193 14.2562
42.8671 14.1822
42.9152 14.1592
42.963 14.158
43.0111 14.0267
43.0589 14.044
43.107 13.9695
43.1549 13.9185
43.2029 13.8917
43.2508 13.8191
43.2989 13.7392
43.3468 13.7741
43.3949 13.6675
43.4429 13.5952
43.491 13.5803
43.5389 13.5479
43.5871 13.4859
43.635 13.4442
43.6832 13.429
43.7312 13.3704
43.7793 13.2876
43.8273 13.2495
43.8755 13.2161
43.9237 13.1954
43.9717 13.141
44.0199 13.0801
44.068 13.0898
44.1162 12.9817
44.1642 12.9613
44.2125 12.9534
44.2606 12.845
44.3088 12.7672
44.3569 12.8087
44.4052 12.7374
44.4533 12.6348
44.5016 12.638
44.5497 12.5868
44.598 12.5871
44.6461 12.5412
44.6945 12.4836
44.7426 12.3913
44.791 12.371
44.8391 12.344
44.8875 12.2765
44.9357 12.2743
44.984 12.2027
45.0322 12.1666
45.0806 12.1197
45.1288 12.0386
45.1773 12.0548
45.2257 12.023
45.2739 11.9481
45.3224 11.8878
45.3706 11.8864
45.4191 11.8093
45.4673 11.8077
45.5158 11.7385
45.5641 11.692
45.6126 11.6486
45.6609 11.5915
45.7094 11.5496
45.7577 11.5389
45.8063 11.4774
45.8546 11.419
45.9031 11.3948
45.9515 11.4034
46.0001 11.2933
46.0484 11.3069
46.097 11.277
46.1454 11.2459
46.194 11.1807
46.2424 11.1406
46.291 11.0678
46.3395 11.0351
46.3881 10.9919
46.4365 11.0049
46.4852 10.9433
46.5337 10.8937
46.5823 10.8586
46.631 10.7769
46.6795 10.7758
46.7282 10.7378
46.7767 10.7148
46.8254 10.6174
46.8739 10.5775
46.9226 10.5378
46.9712 10.5321
47.0199 10.5069
47.0685 10.4696
47.1173 10.3573
47.1658 10.3875
47.2146 10.3622
47.2632 10.3056
47.312 10.3158
47.3606 10.2123
47.4095 10.1906
47.4581 10.1679
47.5069 10.1038
47.5556 10.0686
47.6044 10.0203
47.6531 10.0138
47.702 9.99148
47.7507 9.89472
47.7996 9.90949
47.8483 9.84362
47.8972 9.85866
47.9461 9.76206
47.9948 9.71445
48.0438 9.70653
48.0925 9.66321
48.1415 9.63264
48.1902 9.61054
48.2392 9.58179
48.288 9.59039
48.337 9.50805
48.3858 9.48756
48.4348 9.46866
48.4837 9.40722
48.5327 9.37908
48.5815 9.35889
48.6306 9.31011
48.6795 9.24543
48.7285 9.20434
48.7774 9.17486
48.8265 9.14499
48.8754 9.10852
48.9245 9.08265
48.9734 9.08577
49.0226 9.0108
49.0715 8.98769
49.1206 8.94627
49.1696 8.9334
49.2188 8.8642
49.2679 8.8763
49.3169 8.84184
49.3661 8.77419
49.4151 8.75813
49.4643 8.73273
49.5134 8.65489
49.5626 8.63951
49.6117 8.61334
49.6609 8.57811
49.71 8.56082
49.7592 8.51549
49.8083 8.4262
49.8576 8.47876
49.9067 8.40405
49.956 8.38532
50.0052 8.34044
50.0545 8.34756
50.1036 8.28379
50.153 8.28529
50.2022 8.20439
50.2515 8.18031
50.3007 8.17243
50.3501 8.1078
50.3993 8.07576
50.4487 8.07783
50.498 8.01155
50.5474 7.99574
50.5966 7.96027
50.6461 7.92611
50.6955 7.89376
50.7448 7.88196
50.7943 7.87558
50.8436 7.84915
50.8931 7.75294
50.9424 7.76636
50.9919 7.71591
51.0413 7.71169
51.0908 7.62785
51.1402 7.64349
51.1897 7.58974
51.2391 7.58351
51.2887 7.52664
51.3381 7.527
51.3877 7.48915
51.4371 7.44768
51.4867 7.38892
51.5362 7.41512
51.5858 7.39542
51.6353 7.34564
51.6849 7.27491
51.7344 7.26995
51.7841 7.27243
51.8336 7.21742
51.8833 7.1671
51.9328 7.16041
51.9826 7.11702
52.0323 7.0786
52.0818 7.10693
52.1316 7.02695
52.1812 7.03089
52.231 6.96264
52.2806 6.93186
52.3304 6.92376
52.38 6.88336
52.4298 6.8778
52.4794 6.83985
52.5293 6.79733
52.5789 6.77434
52.6288 6.75151
52.6785 6.72487
52.7284 6.66472
52.7781 6.66931
52.828 6.68274
52.8777 6.597
52.9276 6.62695
52.9774 6.59774
53.0273 6.56105
53.0771 6.53274
53.1271 6.5304
53.1769 6.4619
53.2269 6.41977
53.2767 6.40824
53.3267 6.40718
53.3765 6.36002
53.4266 6.3541
53.4766 6.28399
53.5265 6.2635
53.5765 6.20544
53.6264 6.22468
53.6765 6.18076
53.7264 6.15538
53.7765 6.1587
53.8265 6.12395
53.8766 6.07345
53.9266 6.08195
53.9767 6.0392
54.0267 6.00358
54.0769 5.94702
54.1269 5.92605
54.1771 5.91938
54.2271 5.83525
54.2773 5.82945
54.3274 5.83807
54.3776 5.76672
54.4277 5.75258
54.478 5.74295
54.528 5.66787
54.5783 5.64594
54.6285 5.60748
54.6788 5.55464
54.7289 5.53055
54.7792 5.48975
54.8296 5.43109
54.8798 5.41669
54.9301 5.40741
54.9803 5.29586
55.0307 5.33625
55.0809 5.24636
55.1314 5.2322
55.1816 5.19989
55.232 5.14397
55.2823 5.09506
55.3328 5.03702
55.383 5.00788
55.4335 4.94389
55.4838 4.91929
55.5344 4.84483
55.5847 4.80313
55.6352 4.77417
55.6856 4.74625
55.7361 4.76193