File: XRD/Ni3Fe_FD0007.xy
TT I
1.27165 36.3076
1.31627 36.2951
1.36089 35.689
1.40551 34.4122
1.45013 32.6295
1.49476 31.5395
1.53938 30.2399
1.584 29.4057
1.62863 28.9857
1.67325 27.2
1.71787 27.8562
1.7625 26.8124
1.80712 27.0758
1.85174 26.0669
1.89636 25.7674
1.94099 26.2327
1.98562 25.6821
2.03025 25.5985
2.07487 24.9228
2.11949 25.8126
2.16411 25.7355
2.20874 25.9216
2.25338 26.5583
2.298 27.3574
2.34263 25.3595
2.38725 26.0547
2.43188 26.0765
2.4765 25.8822
2.52115 26.5445
2.56577 27.3762
2.6104 28.0988
2.65503 28.9898
2.69965 30.096
2.7443 31.6896
2.78893 34.2999
2.83356 36.2297
2.87818 39.5747
2.92281 44.484
2.96744 49.0589
3.01209 57.9534
3.05672 65.9157
3.10135 77.3004
3.14599 83.1549
3.19062 86.1951
3.23527 81.2753
3.2799 71.4979
3.32454 60.5391
3.36917 51.7816
3.4138 45.7239
3.45844 42.4333
3.50309 40.6503
3.54773 39.4846
3.59237 39.5467
3.637 40.8818
3.68164 41.7939
3.7263 42.545
3.77094 41.9543
3.81558 42.0573
3.86022 41.702
3.90486 42.8267
3.9495 43.8594
3.99416 45.3163
4.0388 47.8685
4.08344 51.0358
4.12809 54.4329
4.17273 59.909
4.21738 66.8807
4.26204 72.6658
4.30669 78.0491
4.35133 79.8065
4.39598 76.7083
4.44063 72.8441
4.4853 69.8128
4.52995 65.6849
4.5746 61.2024
4.61925 57.9843
4.6639 55.9205
4.70855 54.8624
4.75322 56.1272
4.79788 57.5183
4.84253 60.4774
4.88719 64.1339
4.93184 69.8094
4.97652 77.9768
5.02118 91.3757
5.06583 114.106
5.11049 135.83
5.15515 172.121
5.19981 250.057
5.24449 477.665
5.28916 984.727
5.33382 2549.07
5.37848 4126.14
5.42315 1575.96
5.46783 438.665
5.5125 234.558
5.55716 164.529
5.60183 129.37
5.6465 113.321
5.69117 105.526
5.73586 99.823
5.78053 94.8449
5.8252 94.3907
5.86988 98.2678
5.91455 106.089
5.95924 121.741
6.00392 156.84
6.0486 236.474
6.09328 397.452
6.13795 676.745
6.18263 1238.94
6.22733 924.979
6.27201 377.854
6.3167 187.229
6.36138 116.744
6.40606 87.9648
6.45075 73.671
6.49545 64.9989
6.54014 59.4852
6.58483 56.1467
6.62952 54.5721
6.67421 53.478
6.71892 52.799
6.76361 52.4574
6.8083 51.7265
6.853 50.957
6.89769 50.1049
6.94239 49.2788
6.98711 48.708
7.03181 48.13
7.07651 48.9461
7.12121 49.7519
7.16591 51.5155
7.21063 54.1029
7.25533 57.4825
7.30004 62.9537
7.34475 69.9671
7.38945 71.9595
7.43416 68.3843
7.47889 64.1785
7.5236 64.2143
7.56831 89.4188
7.61303 168.238
7.65774 105.958
7.70247 53.3018
7.74719 44.4447
7.79191 41.4736
7.83663 39.9461
7.88135 39.5522
7.92607 38.9414
7.97081 39.1405
8.01553 38.9286
8.06026 39.9275
8.10498 40.2574
8.14971 41.1201
8.19446 42.4274
8.23919 44.0109
8.28392 45.8353
8.32865 47.3432
8.37339 50.5597
8.41812 54.1221
8.46288 60.9234
8.50761 71.1496
8.55235 91.8907
8.59709 139.013
8.64183 195.146
8.68658 299.039
8.73134 610.29
8.77609 774.718
8.82083 388.936
8.86558 169.26
8.91033 106.268
8.9551 81.3313
8.99985 71.4092
9.04461 65.3499
9.08936 61.0326
9.13412 58.4042
9.17888 58.6384
9.22365 63.1684
9.26841 97.2396
9.31318 234.964
9.35794 214.039
9.4027 83.2607
9.44749 56.5105
9.49226 51.1997
9.53703 49.6003
9.5818 48.8161
9.62657 48.7337
9.67134 49.0985
9.71614 50.0247
9.76091 51.3704
9.80569 52.4682
9.85047 55.002
9.89525 58.1137
9.94005 63.0554
9.98484 70.718
10.0296 86.0471
10.0744 118.161
10.1192 165.488
10.164 207.59
10.2088 361.183
10.2536 721.728
10.2984 743.22
10.3432 358.232
10.388 160.774
10.4328 103.998
10.4776 84.5233
10.5224 81.1975
10.5672 88.0006
10.612 92.8232
10.6568 121.637
10.7017 223.728
10.7465 302.833
10.7913 202.622
10.8361 94.2105
10.8809 58.858
10.9257 48.9563
10.9706 45.4723
11.0154 43.2059
11.0602 42.1385
11.105 41.1874
11.1499 40.4786
11.1947 39.9129
11.2395 39.8236
11.2844 39.7432
11.3292 39.508
11.374 39.2299
11.4189 38.7746
11.4637 38.3986
11.5086 37.8056
11.5534 37.4951
11.5983 37.2363
11.6431 37.5792
11.688 37.1844
11.7328 36.9194
11.7777 36.8098
11.8225 36.9038
11.8674 36.9764
11.9122 38.6337
11.9571 42.5923
12.002 61.7543
12.0468 95.797
12.0917 79.3963
12.1366 50.2705
12.1814 45.681
12.2263 47.2743
12.2712 50.968
12.3161 61.542
12.3609 84.3123
12.4058 99.0069
12.4507 78.8386
12.4956 56.7092
12.5405 46.3886
12.5853 42.4686
12.6302 39.9291
12.6751 39.166
12.72 38.7854
12.7649 39.3678
12.8098 39.033
12.8547 38.9327
12.8996 38.9233
12.9445 38.8221
12.9894 39.1959
13.0343 39.2302
13.0792 40.5101
13.1242 42.8836
13.1691 51.5784
13.214 61.4455
13.2589 61.3319
13.3038 64.9809
13.3487 69.7119
13.3937 81.0607
13.4386 115.356
13.4835 191.692
13.5285 233.847
13.5734 167.504
13.6183 106.385
13.6633 85.9998
13.7082 79.4658
13.7531 86.512
13.7981 123.571
13.843 199.334
13.888 210.405
13.9329 127.35
13.9779 73.4716
14.0228 54.1477
14.0678 46.3992
14.1127 43.5398
14.1577 44.3785
14.2027 54.9332
14.2476 82.8729
14.2926 86.8557
14.3376 55.4924
14.3825 40.3848
14.4275 37.3975
14.4725 36.3241
14.5175 35.9929
14.5624 35.558
14.6074 35.2039
14.6524 35.4429
14.6974 35.4678
14.7424 36.0216
14.7874 36.5848
14.8324 37.6654
14.8774 39.8709
14.9224 43.794
14.9674 47.1598
15.0124 49.2748
15.0574 54.0411
15.1024 67.1481
15.1474 99.2477
15.1924 133.737
15.2374 120.147
15.2824 79.9871
15.3274 55.298
15.3725 45.2199
15.4175 41.1771
15.4625 38.8279
15.5076 37.6684
15.5526 37.293
15.5976 36.9605
15.6426 36.5044
15.6877 36.8781
15.7327 37.3971
15.7778 38.8166
15.8228 41.6725
15.8679 45.0088
15.9129 46.9609
15.958 49.8052
16.003 58.217
16.0481 79.3229
16.0931 115.984
16.1382 137.902
16.1833 114.385
16.2283 76.1731
16.2734 51.3423
16.3185 41.2641
16.3636 37.1158
16.4086 34.7896
16.4537 33.43
16.4988 32.4602
16.5439 32.0024
16.589 31.4293
16.6341 31.0037
16.6792 30.5918
16.7243 30.6881
16.7694 30.3767
16.8145 30.3162
16.8596 30.4563
16.9047 30.6126
16.9498 31.0515
16.9949 32.9034
17.04 37.6075
17.0851 40.2073
17.1302 36.0108
17.1754 32.3654
17.2205 31.939
17.2656 32.6385
17.3108 33.0557
17.3559 33.1635
17.401 34.0861
17.4462 36.4412
17.4913 41.6593
17.5365 50.0305
17.5815 52.6939
17.6268 45.5147
17.6718 38.0988
17.7171 34.6349
17.7622 33.8986
17.8074 34.3795
17.8525 36.8634
17.8977 41.1189
17.9428 41.5646
17.9881 37.9921
18.0331 38.6235
18.0784 40.3148
18.1237 41.7119
18.1688 42.8505
18.214 46.4996
18.2591 55.2158
18.3044 75.2296
18.3495 102.649
18.3948 109.078
18.4399 84.6598
18.4852 62.6157
18.5303 57.4279
18.5756 64.1145
18.6207 77.5796
18.666 78.097
18.7112 64.0082
18.7565 48.8242
18.8016 40.1074
18.8469 36.0803
18.892 34.2639
18.9374 33.2204
18.9825 32.5818
19.0278 32.1469
19.073 32.0371
19.1183 31.6495
19.1635 31.5751
19.2088 31.7336
19.254 32.3113
19.2993 33.0299
19.3447 34.1878
19.3898 36.6943
19.4352 42.6734
19.4804 48.924
19.5257 48.3274
19.5709 45.6147
19.6163 48.9166
19.6615 51.1834
19.7068 45.9906
19.752 39.0079
19.7974 34.5193
19.8426 32.4768
19.888 31.31
19.9332 30.75
19.9786 30.8814
20.0238 30.8689
20.0692 31.3941
20.1144 31.4594
20.1598 31.8809
20.205 32.5896
20.2504 34.773
20.2957 38.5923
20.3411 44.802
20.3863 49.3184
20.4318 46.7508
20.477 41.1809
20.5224 39.281
20.5677 42.6541
20.6131 46.5477
20.6586 44.6517
20.7038 38.0177
20.7493 33.0404
20.7945 30.9308
20.84 30.5943
20.8853 31.8384
20.9307 33.8824
20.976 33.1565
21.0215 29.9475
21.0668 28.442
21.1122 27.706
21.1575 27.573
21.203 27.5577
21.2483 27.4342
21.2938 27.4074
21.3391 27.4548
21.3846 27.7509
21.4299 28.104
21.4754 29.6327
21.5207 31.5589
21.5662 32.6166
21.6116 31.8066
21.6571 30.2619
21.7024 29.0448
21.7479 28.6342
21.7933 28.7637
21.8388 29.5235
21.8843 29.9178
21.9297 30.0828
21.9752 30.7766
22.0206 32.0885
22.0661 33.8726
22.1115 37.5236
22.157 43.542
22.2024 50.7501
22.248 52.6878
22.2933 49.1163
22.3389 44.3076
22.3843 41.5896
22.4299 41.0093
22.4753 39.1707
22.5208 35.2305
22.5662 32.0419
22.6118 30.3802
22.6572 29.4846
22.7028 29.0502
22.7483 28.713
22.7939 28.6876
22.8393 29.2041
22.8849 30.0251
22.9303 31.2961
22.9759 31.8849
23.0214 31.1178
23.067 30.588
23.1126 30.86
23.1581 32.4395
23.2037 35.7662
23.2492 41.087
23.2948 45.0655
23.3403 43.5378
23.3859 38.0302
23.4314 33.8793
23.477 32.4277
23.5225 32.9423
23.5682 34.5059
23.6137 35.1646
23.6593 33.894
23.7048 32.4427
23.7505 32.8041
23.796 34.751
23.8417 39.1577
23.8872 45.1275
23.9329 48.0632
23.9784 43.8236
24.0241 36.8248
24.0697 32.0698
24.1154 29.6559
24.1609 28.7363
24.2066 28.312
24.2522 28.0086
24.2979 27.142
24.3434 26.2873
24.3892 25.9365
24.4349 25.6492
24.4805 25.4288
24.5262 25.3579
24.5718 25.3338
24.6175 25.2785
24.6631 25.3603
24.7089 25.5687
24.7545 26.1732
24.8002 27.2198
24.8458 27.7641
24.8916 27.0463
24.9372 26.4607
24.983 25.9839
25.0286 25.5067
25.0744 25.4132
25.12 25.1718
25.1658 25.3422
25.2114 25.3396
25.2572 25.7578
25.3029 26.0753
25.3487 26.7362
25.3943 27.7874
25.4402 28.9527
25.4858 30.3154
25.5316 30.9432
25.5773 30.8325
25.6231 31.4758
25.669 32.7556
25.7147 33.5316
25.7605 32.0516
25.8062 29.2558
25.8521 27.287
25.8977 26.3618
25.9436 26.4766
25.9893 26.5589
26.0352 26.5972
26.0809 25.8043
26.1268 25.0922
26.1725 24.9476
26.2184 24.8771
26.2641 25.1229
26.31 25.5295
26.3557 26.5073
26.4017 27.695
26.4474 29.1636
26.4933 29.4989
26.5391 28.3533
26.585 27.0523
26.6308 26.1631
26.6767 25.6675
26.7225 25.4456
26.7684 25.6112
26.8142 25.773
26.8601 26.5041
26.9059 27.5381
26.9519 29.329
26.9979 31.5286
27.0437 32.6052
27.0896 32.339
27.1354 31.4202
27.1814 30.2482
27.2272 28.6563
27.2732 27.0401
27.3191 25.6019
27.3651 24.8899
27.4109 24.4278
27.4569 24.2496
27.5027 24.0368
27.5488 23.9553
27.5946 23.9058
27.6407 24.0884
27.6865 24.2684
27.7326 24.1413
27.7784 24.2475
27.8245 24.571
27.8703 25.2039
27.9164 25.8756
27.9623 25.7652
28.0084 25.2156
28.0543 24.8529
28.1003 24.6747
28.1462 25.276
28.1923 25.8901
28.2384 26.2746
28.2843 26.2381
28.3304 26.5965
28.3764 27.7791
28.4225 29.5529
28.4684 30.5133
28.5145 29.5581
28.5605 28.5347
28.6066 28.0774
28.6526 27.5001
28.6987 26.5519
28.7447 25.2996
28.7908 24.1967
28.8368 23.393
28.8829 23.0298
28.9289 22.5274
28.9751 22.3413
29.0211 22.1568
29.0673 22.0272
29.1133 22.176
29.1595 22.2394
29.2055 22.5595
29.2517 23.0172
29.2977 23.3713
29.3439 23.246
29.3899 22.7286
29.4361 22.1289
29.4824 21.6903
29.5284 21.5884
29.5746 21.4354
29.6207 21.5626
29.6669 21.7623
29.713 22.1862
29.7593 22.6219
29.8053 22.9744
29.8516 22.8754
29.8977 22.3674
29.9439 21.6875
29.99 21.1857
30.0363 20.9298
30.0824 20.8761
30.1287 20.7622
30.1748 20.9065
30.2211 21.1922
30.2673 21.3043
30.3136 21.3955
30.3597 21.094
30.406 20.73
30.4522 20.557
30.4985 20.6807
30.5447 20.9435
30.591 21.2618
30.6372 21.4825
30.6835 21.5003
30.7297 21.2839
30.7761 20.9985
30.8224 20.9438
30.8686 20.8092
30.915 20.8899
30.9612 21.1713
31.0076 21.5816
31.0538 22.2711
31.1002 23.3626
31.1464 23.8308
31.1928 23.7823
31.2391 23.3587
31.2855 22.9998
31.3317 22.2871
31.3781 21.5621
31.4244 20.9842
31.4708 20.6341
31.5171 20.3776
31.5636 20.3265
31.6098 20.3088
31.6563 20.3281
31.7026 20.5196
31.7491 20.7139
31.7953 21.0473
31.8418 21.3464
31.8881 21.8988
31.9346 22.1106
31.9809 21.8782
32.0275 21.1987
32.074 20.6196
32.1203 20.3587
32.1668 20.4512
32.2132 20.4598
32.2597 20.5875
32.306 20.934
32.3526 21.2064
32.399 21.5965
32.4455 21.4802
32.4919 21.0771
32.5385 20.6156
32.5848 20.156
32.6314 19.894
32.6778 19.551
32.7244 19.2131
32.7708 18.8701
32.8174 18.8162
32.8638 18.5373
32.9104 18.5976
32.9569 18.533
33.0035 18.3825
33.0499 18.5428
33.0966 18.7133
33.143 18.8362
33.1897 18.8111
33.2361 18.6235
33.2828 18.385
33.3293 18.2874
33.3759 18.327
33.4226 18.2822
33.4691 18.4818
33.5158 18.6283
33.5623 18.9774
33.609 19.2082
33.6555 19.4366
33.7022 19.4458
33.7487 19.4723
33.7954 19.3728
33.842 18.9499
33.8887 18.4121
33.9353 18.0233
33.982 17.8276
34.0286 17.7885
34.0753 17.6952
34.1219 17.5643
34.1687 17.53
34.2152 17.478
34.262 17.5506
34.3086 17.6274
34.3554 17.7073
34.402 17.597
34.4488 17.3673
34.4954 17.2893
34.5422 17.1369
34.5889 16.9349
34.6357 16.8857
34.6825 16.9707
34.7292 17.0331
34.776 17.0862
34.8227 17.1218
34.8695 17.0578
34.9162 16.8973
34.9631 16.6473
35.0098 16.5608
35.0566 16.3532
35.1033 16.2857
35.1502 16.2075
35.1969 16.1901
35.2438 16.2149
35.2906 16.1404
35.3375 16.2651
35.3842 16.1865
35.4311 16.2807
35.4779 16.2242
35.5248 16.2284
35.5716 16.2051
35.6185 16.2
35.6653 16.2421
35.7123 16.3227
35.759 16.5332
35.806 16.6612
35.8528 16.8399
35.8998 17.1363
35.9468 17.267
35.9936 17.289
36.0406 17.1111
36.0874 16.8426
36.1345 16.5352
36.1813 16.2229
36.2283 15.9786
36.2752 15.8382
36.3222 15.8185
36.3691 15.6527
36.4161 15.5151
36.463 15.5434
36.5101 15.5782
36.557 15.6867
36.6041 15.7085
36.651 15.8902
36.6981 15.7777
36.745 15.6805
36.7921 15.4561
36.839 15.2863
36.8861 15.2737
36.9331 15.2311
36.9802 15.3545
37.0272 15.4193
37.0743 15.4165
37.1213 15.5233
37.1684 15.4207
37.2154 15.3079
37.2626 15.1063
37.3098 14.9104
37.3568 14.7916
37.404 14.7024
37.451 14.6535
37.4982 14.5686
37.5452 14.4529
37.5924 14.471
37.6395 14.4902
37.6867 14.4116
37.7337 14.3065
37.781 14.3028
37.8281 14.273
37.8753 14.1689
37.9224 14.1454
37.9697 14.1
38.0168 14.0762
38.064 14.0779
38.1111 14.0736
38.1584 14.1185
38.2056 14.0852
38.2529 14.1232
38.3 13.9858
38.3473 13.9217
38.3945 13.8242
38.4418 13.6803
38.489 13.6227
38.5363 13.6004
38.5837 13.438
38.6309 13.4658
38.6782 13.4982
38.7254 13.4894
38.7728 13.5514
38.82 13.5831
38.8674 13.5284
38.9146 13.3873
38.9621 13.351
39.0093 13.2573
39.0567 13.2602
39.104 13.2695
39.1514 13.2609
39.1987 13.3002
39.2461 13.3351
39.2934 13.201
39.3409 13.0293
39.3882 12.989
39.4356 12.8561
39.483 12.7482
39.5304 12.7785
39.5778 12.7137
39.6253 12.624
39.6726 12.578
39.7201 12.6238
39.7675 12.5055
39.815 12.527
39.8624 12.4509
39.9099 12.499
39.9575 12.3883
40.0049 12.4178
40.0525 12.3209
40.0999 12.311
40.1474 12.326
40.1949 12.3308
40.2425 12.3685
40.2899 12.3664
40.3375 12.4159
40.385 12.3707
40.4326 12.321
40.48 12.2526
40.5277 12.1702
40.5752 12.079
40.6228 12.0574
40.6703 12.062
40.718 11.9828
40.7655 11.9651
40.8132 11.8462
40.8607 11.9218
40.9084 11.8982
40.9559 11.8562
41.0036 11.8554
41.0512 11.7508
41.0989 11.7316
41.1465 11.6997
41.1942 11.7373
41.242 11.769
41.2896 11.7602
41.3373 11.6913
41.3849 11.7045
41.4327 11.5519
41.4803 11.4664
41.5281 11.4464
41.5758 11.3158
41.6236 11.2511
41.6712 11.2571
41.7191 11.1821
41.7667 11.1378
41.8146 11.1641
41.8622 11.1854
41.9101 11.1126
41.9578 11.0125
42.0057 11.0381
42.0534 10.9661
42.1013 10.9803
42.149 10.9424
42.1969 10.9516
42.2446 10.9661
42.2925 11.0011
42.3403 10.9705
42.3882 10.9295
42.436 10.8497
42.4839 10.7133
42.5319 10.6815
42.5797 10.5883
42.6277 10.5306
42.6755 10.5164
42.7235 10.464
42.7713 10.3823
42.8193 10.4229
42.8671 10.3889
42.9152 10.3329
42.963 10.2887
43.0111 10.2914
43.0589 10.185
43.107 10.1759
43.1549 10.1238
43.2029 10.1152
43.2508 10.062
43.2989 10.076
43.3468 9.96761
43.3949 9.93851
43.4429 9.89444
43.491 9.82476
43.5389 9.81534
43.5871 9.79605
43.635 9.76753
43.6832 9.77611
43.7312 9.70594
43.7793 9.6503
43.8273 9.63998
43.8755 9.62184
43.9237 9.57761
43.9717 9.60992
44.0199 9.52331
44.068 9.5123
44.1162 9.57089
44.1642 9.56252
44.2125 9.51331
44.2606 9.41436
44.3088 9.43877
44.3569 9.41561
44.4052 9.37868
44.4533 9.30157
44.5016 9.247
44.5497 9.23807
44.598 9.20105
44.6461 9.19488
44.6945 9.18429
44.7426 9.1448
44.791 9.11609
44.8391 9.12599
44.8875 9.10203
44.9357 9.06023
44.984 9.01598
45.0322 9.02129
45.0806 8.94821
45.1288 8.91767
45.1773 8.9444
45.2257 8.88985
45.2739 8.84317
45.3224 8.8291
45.3706 8.80611
45.4191 8.71807
45.4673 8.72156
45.5158 8.70212
45.5641 8.61724
45.6126 8.57442
45.6609 8.58073
45.7094 8.49591
45.7577 8.46716
45.8063 8.44782
45.8546 8.50806
45.9031 8.42538
45.9515 8.39019
46.0001 8.39692
46.0484 8.36381
46.097 8.37655
46.1454 8.36574
46.194 8.30719
46.2424 8.29154
46.291 8.27018
46.3395 8.21093
46.3881 8.13141
46.4365 8.16613
46.4852 8.06203
46.5337 8.09156
46.5823 8.03025
46.631 8.0289
46.6795 8.00582
46.7282 7.96317
46.7767 7.93431
46.8254 7.88236
46.8739 7.87621
46.9226 7.81351
46.9712 7.81132
47.0199 7.8379
47.0685 7.78399
47.1173 7.72422
47.1658 7.6964
47.2146 7.67808
47.2632 7.61317
47.312 7.58256
47.3606 7.57237
47.4095 7.5591
47.4581 7.54245
47.5069 7.48548
47.5556 7.44985
47.6044 7.44285
47.6531 7.44083
47.702 7.38767
47.7507 7.38311
47.7996 7.34171
47.8483 7.319
47.8972 7.31192
47.9461 7.28727
47.9948 7.28386
48.0438 7.21432
48.0925 7.2
48.1415 7.20196
48.1902 7.1331
48.2392 7.12066
48.288 7.10286
48.337 7.08415
48.3858 7.01697
48.4348 6.99774
48.4837 7.01336
48.5327 6.97066
48.5815 6.94855
48.6306 6.90762
48.6795 6.90135
48.7285 6.86332
48.7774 6.87384
48.8265 6.83564
48.8754 6.80761
48.9245 6.76917
48.9734 6.74115
49.0226 6.76448
49.0715 6.67813
49.1206 6.66322
49.1696 6.65604
49.2188 6.62762
49.2679 6.58283
49.3169 6.54972
49.3661 6.50449
49.4151 6.5339
49.4643 6.50481
49.5134 6.49143
49.5626 6.45087
49.6117 6.45927
49.6609 6.42686
49.71 6.37605
49.7592 6.39065
49.8083 6.33467
49.8576 6.30775
49.9067 6.28581
49.956 6.31533
50.0052 6.29935
50.0545 6.25852
50.1036 6.23743
50.153 6.21466
50.2022 6.18956
50.2515 6.16952
50.3007 6.14715
50.3501 6.08132
50.3993 6.0674
50.4487 6.06656
50.498 6.11041
50.5474 6.07005
50.5966 6.04156
50.6461 5.99648
50.6955 5.96894
50.7448 5.96273
50.7943 5.89139
50.8436 5.88037
50.8931 5.89541
50.9424 5.86131
50.9919 5.83545
51.0413 5.81883
51.0908 5.7819
51.1402 5.78041
51.1897 5.75069
51.2391 5.7346
51.2887 5.72444
51.3381 5.69499
51.3877 5.65778
51.4371 5.64076
51.4867 5.61841
51.5362 5.62028
51.5858 5.56928
51.6353 5.54081
51.6849 5.5225
51.7344 5.49988
51.7841 5.4863
51.8336 5.44131
51.8833 5.41306
51.9328 5.40523
51.9826 5.36751
52.0323 5.3756
52.0818 5.34892
52.1316 5.29065
52.1812 5.28915
52.231 5.27234
52.2806 5.23928
52.3304 5.25546
52.38 5.21953
52.4298 5.21427
52.4794 5.16951
52.5293 5.18997
52.5789 5.1248
52.6288 5.1188
52.6785 5.09509
52.7284 5.05339
52.7781 5.08675
52.828 5.0798
52.8777 5.03061
52.9276 4.99598
52.9774 4.99042
53.0273 4.97901
53.0771 4.96059
53.1271 4.94189
53.1769 4.90428
53.2269 4.89042
53.2767 4.86683
53.3267 4.83821
53.3765 4.81893
53.4266 4.82042
53.4766 4.77425
53.5265 4.7721
53.5765 4.74267
53.6264 4.70732
53.6765 4.69639
53.7264 4.6519
53.7765 4.6665
53.8265 4.64904
53.8766 4.59798
53.9266 4.56052
53.9767 4.57658
54.0267 4.56558
54.0769 4.49766
54.1269 4.51474
54.1771 4.44188
54.2271 4.4565
54.2773 4.40297
54.3274 4.40008
54.3776 4.34467
54.4277 4.32781
54.478 4.31326
54.528 4.32656
54.5783 4.24351
54.6285 4.20218
54.6788 4.17569
54.7289 4.17565
54.7792 4.13608
54.8296 4.07354
54.8798 4.05445
54.9301 4.04978
54.9803 4.01494
55.0307 3.98614
55.0809 3.93582
55.1314 3.90117
55.1816 3.84349
55.232 3.81683
55.2823 3.83429
55.3328 3.7324
55.383 3.69099
55.4335 3.69039
55.4838 3.66065
55.5344 3.60004
55.5847 3.6132
55.6352 3.59426
55.6856 3.55944
55.7361 3.52718