File: XRD/Ni3Fe_FD0252.xy
TT I
1.27165 8.02351
1.31627 6.89225
1.36089 6.73252
1.40551 5.62048
1.45013 6.31643
1.49476 6.9081
1.53938 6.28401
1.584 5.70447
1.62863 5.42209
1.67325 5.58097
1.71787 5.38174
1.7625 5.13582
1.80712 5.04429
1.85174 5.25527
1.89636 4.91863
1.94099 4.80653
1.98562 4.96851
2.03025 4.64575
2.07487 4.63119
2.11949 4.72833
2.16411 4.88973
2.20874 4.89444
2.25338 5.22013
2.298 4.08742
2.34263 4.6459
2.38725 5.05181
2.43188 4.3672
2.4765 5.4977
2.52115 4.97779
2.56577 5.78417
2.6104 5.80525
2.65503 6.23479
2.69965 6.62278
2.7443 6.81742
2.78893 7.19576
2.83356 7.36743
2.87818 7.70165
2.92281 8.623
2.96744 9.04334
3.01209 10.1121
3.05672 10.6033
3.10135 12.6067
3.14599 12.4515
3.19062 14.1726
3.23527 15.0203
3.2799 15.7623
3.32454 16.716
3.36917 17.4149
3.4138 19.364
3.45844 19.5342
3.50309 20.8688
3.54773 21.6064
3.59237 22.3915
3.637 23.3591
3.68164 23.7424
3.7263 25.3824
3.77094 26.006
3.81558 27.0457
3.86022 27.8408
3.90486 29.062
3.9495 30.0192
3.99416 31.2632
4.0388 32.1408
4.08344 33.9898
4.12809 34.9028
4.17273 35.9943
4.21738 38.0405
4.26204 39.3933
4.30669 40.3833
4.35133 42.6767
4.39598 44.1454
4.44063 46.1128
4.4853 48.7507
4.52995 53.2169
4.5746 54.1149
4.61925 55.2344
4.6639 57.8435
4.70855 61.2313
4.75322 64.3744
4.79788 68.5029
4.84253 71.7334
4.88719 77.1363
4.93184 80.9875
4.97652 87.996
5.02118 95.432
5.06583 106.602
5.11049 122.894
5.15515 167.504
5.19981 880.089
5.24449 3965.08
5.28916 10538.5
5.33382 3961.53
5.37848 261.35
5.42315 150.751
5.46783 128.504
5.5125 118.116
5.55716 111.517
5.60183 105.65
5.6465 103.555
5.69117 102.086
5.73586 100.506
5.78053 102.201
5.8252 101.888
5.86988 104.533
5.91455 108.557
5.95924 131.505
6.00392 442.061
6.0486 1427.55
6.09328 3716.07
6.13795 3623.01
6.18263 343.773
6.22733 106.855
6.27201 88.1312
6.3167 80.0753
6.36138 75.6842
6.40606 72.7038
6.45075 71.2065
6.49545 68.0871
6.54014 66.3883
6.58483 65.1154
6.62952 64.4774
6.67421 62.2407
6.71892 61.1428
6.76361 60.314
6.8083 60.294
6.853 59.3361
6.89769 58.3161
6.94239 57.9513
6.98711 57.5749
7.03181 57.0471
7.07651 56.2766
7.12121 55.9319
7.16591 56.5954
7.21063 55.6576
7.25533 55.1574
7.30004 55.2839
7.34475 55.6404
7.38945 55.8625
7.43416 55.1814
7.47889 55.2273
7.5236 56.1154
7.56831 56.5637
7.61303 56.8696
7.65774 56.6389
7.70247 58.1372
7.74719 58.165
7.79191 58.9818
7.83663 58.9317
7.88135 59.9605
7.92607 60.7749
7.97081 62.1566
8.01553 63.7496
8.06026 65.212
8.10498 66.4171
8.14971 68.9821
8.19446 70.5266
8.23919 73.0099
8.28392 75.9651
8.32865 78.9542
8.37339 83.7723
8.41812 89.6099
8.46288 110.745
8.50761 288.248
8.55235 579.435
8.59709 1086.02
8.64183 1989.6
8.68658 1172.19
8.73134 207.302
8.77609 109.278
8.82083 99.6825
8.86558 96.0073
8.91033 93.1402
8.9551 90.6257
8.99985 88.9245
9.04461 88.3252
9.08936 87.6639
9.13412 86.7524
9.17888 86.1111
9.22365 86.2197
9.26841 86.3756
9.31318 87.9992
9.35794 87.6171
9.4027 88.3866
9.44749 89.0766
9.49226 89.3046
9.53703 90.3423
9.5818 92.5468
9.62657 94.6143
9.67134 95.3292
9.71614 96.9799
9.76091 99.8904
9.80569 103.249
9.85047 106.275
9.89525 111.824
9.94005 136.893
9.98484 300.802
10.0296 513.708
10.0744 815.545
10.1192 1487.39
10.164 1719.96
10.2088 518.74
10.2536 144.982
10.2984 116.727
10.3432 112.428
10.388 114.872
10.4328 158.049
10.4776 210.352
10.5224 285.134
10.5672 452.087
10.612 530.531
10.6568 244.162
10.7017 106.057
10.7465 91.632
10.7913 87.6916
10.8361 85.002
10.8809 82.7521
10.9257 80.7319
10.9706 79.4289
11.0154 77.3449
11.0602 75.5252
11.105 74.2993
11.1499 72.9269
11.1947 71.8216
11.2395 70.8237
11.2844 70.2909
11.3292 69.4983
11.374 68.8051
11.4189 68.3411
11.4637 67.5029
11.5086 66.9109
11.5534 66.6252
11.5983 66.3051
11.6431 66.1863
11.688 65.6737
11.7328 65.291
11.7777 65.3392
11.8225 65.1576
11.8674 65.2325
11.9122 65.6133
11.9571 66.2302
12.002 68.1554
12.0468 79.4674
12.0917 93.5192
12.1366 109.48
12.1814 142.194
12.2263 194.975
12.2712 184.707
12.3161 103.638
12.3609 69.82
12.4058 66.9044
12.4507 66.9545
12.4956 67.0997
12.5405 67.14
12.5853 67.8003
12.6302 67.9712
12.6751 68.6684
12.72 69.5867
12.7649 70.6279
12.8098 71.6402
12.8547 72.9492
12.8996 74.4311
12.9445 76.2668
12.9894 78.4884
13.0343 80.4786
13.0792 86.238
13.1242 110.896
13.1691 145.725
13.214 174.905
13.2589 233.148
13.3038 326.561
13.3487 419.117
13.3937 303.656
13.4386 146.62
13.4835 132.426
13.5285 151.964
13.5734 176.25
13.6183 229.496
13.6633 317.405
13.7082 360.154
13.7531 224.158
13.7981 109.605
13.843 86.4934
13.888 83.8426
13.9329 80.8805
13.9779 79.3862
14.0228 77.9711
14.0678 76.4261
14.1127 76.0057
14.1577 75.0354
14.2027 74.7426
14.2476 73.9958
14.2926 72.9104
14.3376 72.6828
14.3825 72.4373
14.4275 72.1134
14.4725 72.0048
14.5175 72.3461
14.5624 72.3434
14.6074 72.4154
14.6524 73.2875
14.6974 74.5389
14.7424 81.2443
14.7874 94.8606
14.8324 105.85
14.8774 120.492
14.9224 147.109
14.9674 189.53
15.0124 220.483
15.0574 167.472
15.1024 99.7889
15.1474 76.4943
15.1924 73.4357
15.2374 72.2227
15.2824 71.211
15.3274 70.365
15.3725 70.0376
15.4175 69.4274
15.4625 69.117
15.5076 68.9046
15.5526 69.0298
15.5976 69.42
15.6426 74.7995
15.6877 85.6522
15.7327 94.2532
15.7778 104.005
15.8228 122.905
15.8679 153.928
15.9129 188.385
15.958 169.079
16.003 108.689
16.0481 72.1108
16.0931 65.473
16.1382 63.4848
16.1833 62.5019
16.2283 61.2932
16.2734 60.632
16.3185 60.0149
16.3636 59.1467
16.4086 58.4938
16.4537 58.3102
16.4988 57.8767
16.5439 57.8797
16.589 57.3343
16.6341 56.9603
16.6792 56.8208
16.7243 56.9598
16.7694 57.0173
16.8145 56.72
16.8596 57.0918
16.9047 57.3271
16.9498 57.5846
16.9949 57.5661
17.04 59.0255
17.0851 61.4635
17.1302 63.402
17.1754 65.5309
17.2205 69.204
17.2656 74.071
17.3108 82.3563
17.3559 85.1739
17.401 76.3051
17.4462 66.1417
17.4913 62.1415
17.5365 61.7317
17.5815 61.8262
17.6268 62.2646
17.6718 62.9272
17.7171 63.2484
17.7622 64.4623
17.8074 66.2984
17.8525 72.0931
17.8977 77.6142
17.9428 82.4685
17.9881 88.578
18.0331 99.7198
18.0784 116.577
18.1237 139.08
18.1688 142.815
18.214 116.409
18.2591 93.3027
18.3044 90.4235
18.3495 97.634
18.3948 106.581
18.4399 101.3
18.4852 82.9101
18.5303 69.5511
18.5756 65.2997
18.6207 63.995
18.666 63.0575
18.7112 62.433
18.7565 61.7288
18.8016 61.2875
18.8469 60.7902
18.892 60.3232
18.9374 60.1011
18.9825 59.5415
19.0278 59.4453
19.073 60.1675
19.1183 61.1131
19.1635 61.7993
19.2088 62.6818
19.254 64.5538
19.2993 67.3636
19.3447 71.3903
19.3898 76.3098
19.4352 75.6113
19.4804 67.2257
19.5257 59.9159
19.5709 56.8398
19.6163 56.3722
19.6615 56.0793
19.7068 55.6925
19.752 55.9778
19.7974 56.7805
19.8426 57.9873
19.888 58.6104
19.9332 59.409
19.9786 61.2601
20.0238 64.0706
20.0692 68.4297
20.1144 72.3432
20.1598 72.3
20.205 67.6572
20.2504 64.2871
20.2957 64.486
20.3411 66.7799
20.3863 66.9996
20.4318 61.9618
20.477 56.2066
20.5224 53.4104
20.5677 52.6009
20.6131 52.3846
20.6586 51.9571
20.7038 51.5294
20.7493 51.2028
20.7945 51.1614
20.84 50.9109
20.8853 51.0701
20.9307 51.1465
20.976 51.1198
21.0215 50.9857
21.0668 51.339
21.1122 51.4539
21.1575 51.9862
21.203 52.4471
21.2483 53.1452
21.2938 53.62
21.3391 52.5164
21.3846 51.3046
21.4299 50.6868
21.4754 50.7498
21.5207 50.9789
21.5662 51.8028
21.6116 52.5545
21.6571 53.396
21.7024 54.0362
21.7479 55.4863
21.7933 57.3377
21.8388 59.9483
21.8843 63.567
21.9297 66.506
21.9752 66.7527
22.0206 62.5435
22.0661 58.5153
22.1115 57.6969
22.157 57.9718
22.2024 57.0612
22.248 54.2145
22.2933 52.2186
22.3389 51.1821
22.3843 51.0563
22.4299 50.6957
22.4753 50.7436
22.5208 50.6637
22.5662 50.7929
22.6118 51.2582
22.6572 51.8303
22.7028 52.2054
22.7483 52.4465
22.7939 52.992
22.8393 54.054
22.8849 55.4762
22.9303 57.1857
22.9759 59.3157
23.0214 59.7242
23.067 57.6532
23.1126 54.0052
23.1581 51.5041
23.2037 51.2608
23.2492 51.7074
23.2948 51.9488
23.3403 52.1266
23.3859 52.4046
23.4314 53.1929
23.477 54.2254
23.5225 55.609
23.5682 57.7586
23.6137 59.6525
23.6593 58.433
23.7048 54.7284
23.7505 50.9221
23.796 48.9752
23.8417 48.0104
23.8872 47.6379
23.9329 47.2968
23.9784 46.8264
24.0241 46.5212
24.0697 46.4219
24.1154 46.0412
24.1609 45.8501
24.2066 45.7677
24.2522 45.6095
24.2979 45.3285
24.3434 45.1163
24.3892 45.0006
24.4349 44.9048
24.4805 44.8515
24.5262 44.8707
24.5718 44.8105
24.6175 44.7935
24.6631 44.7795
24.7089 44.4189
24.7545 44.3053
24.8002 44.1416
24.8458 44.17
24.8916 44.0975
24.9372 44.3233
24.983 44.6973
25.0286 44.9418
25.0744 45.0246
25.12 45.5455
25.1658 46.1201
25.2114 46.47
25.2572 46.3074
25.3029 46.2399
25.3487 46.4441
25.3943 46.4491
25.4402 45.6473
25.4858 44.5023
25.5316 43.3774
25.5773 42.7261
25.6231 42.6834
25.669 42.3542
25.7147 42.4641
25.7605 42.2257
25.8062 42.3228
25.8521 42.2596
25.8977 42.3531
25.9436 42.6068
25.9893 42.598
26.0352 42.9712
26.0809 43.1647
26.1268 43.3796
26.1725 43.3515
26.2184 42.6957
26.2641 42.3175
26.31 42.0998
26.3557 42.083
26.4017 42.0522
26.4474 42.3137
26.4933 42.4266
26.5391 42.7918
26.585 43.1447
26.6308 43.5623
26.6767 43.9681
26.7225 43.7823
26.7684 43.2706
26.8142 42.6122
26.8601 42.216
26.9059 41.7213
26.9519 41.2405
26.9979 40.8978
27.0437 40.5932
27.0896 40.4721
27.1354 40.5599
27.1814 40.4248
27.2272 40.2113
27.2732 40.305
27.3191 40.0222
27.3651 40.147
27.4109 40.109
27.4569 40.1103
27.5027 40.2243
27.5488 40.2557
27.5946 40.1219
27.6407 40.1096
27.6865 39.8478
27.7326 39.5337
27.7784 39.5663
27.8245 39.345
27.8703 39.637
27.9164 39.9033
27.9623 39.8645
28.0084 40.1075
28.0543 40.4683
28.1003 40.5358
28.1462 40.5191
28.1923 39.97
28.2384 39.5251
28.2843 39.2519
28.3304 38.7637
28.3764 38.3138
28.4225 37.9919
28.4684 37.947
28.5145 37.4063
28.5605 37.4083
28.6066 37.2207
28.6526 37.1661
28.6987 37.1816
28.7447 37.0311
28.7908 36.8374
28.8368 36.7986
28.8829 36.9337
28.9289 36.7674
28.9751 36.6804
29.0211 36.4367
29.0673 36.3597
29.1133 36.1842
29.1595 35.9357
29.2055 35.7374
29.2517 35.735
29.2977 35.6725
29.3439 35.6478
29.3899 35.5834
29.4361 35.5784
29.4824 35.442
29.5284 35.1909
29.5746 34.7941
29.6207 34.6249
29.6669 34.4608
29.713 34.4128
29.7593 34.2025
29.8053 34.2755
29.8516 34.2397
29.8977 34.2027
29.9439 33.93
29.99 33.939
30.0363 33.7905
30.0824 33.9376
30.1287 33.7383
30.1748 33.7758
30.2211 33.731
30.2673 33.6571
30.3136 33.6948
30.3597 33.581
30.406 33.6578
30.4522 33.4722
30.4985 33.3915
30.5447 33.4685
30.591 33.507
30.6372 33.5524
30.6835 33.4135
30.7297 33.5597
30.7761 33.5989
30.8224 33.4586
30.8686 33.1743
30.915 32.925
30.9612 32.9524
31.0076 32.6389
31.0538 32.588
31.1002 32.404
31.1464 32.2123
31.1928 32.3113
31.2391 32.3299
31.2855 32.2236
31.3317 32.1676
31.3781 32.1923
31.4244 32.2363
31.4708 32.1387
31.5171 32.0647
31.5636 32.1171
31.6098 31.9176
31.6563 31.7237
31.7026 31.5388
31.7491 31.3875
31.7953 31.5033
31.8418 31.3818
31.8881 31.4524
31.9346 31.2346
31.9809 31.2135
32.0275 31.2255
32.074 31.0784
32.1203 30.8488
32.1668 30.72
32.2132 30.6315
32.2597 30.6168
32.306 30.4049
32.3526 30.2679
32.399 30.221
32.4455 30.0504
32.4919 29.9008
32.5385 29.8073
32.5848 29.6897
32.6314 29.6983
32.6778 29.6254
32.7244 29.5041
32.7708 29.253
32.8174 29.3197
32.8638 29.2821
32.9104 29.2791
32.9569 29.2934
33.0035 28.9418
33.0499 29.1007
33.0966 28.9634
33.143 28.8637
33.1897 28.8426
33.2361 28.7975
33.2828 28.7155
33.3293 28.5101
33.3759 28.5868
33.4226 28.3748
33.4691 28.2468
33.5158 28.1679
33.5623 28.1266
33.609 27.9252
33.6555 27.6831
33.7022 27.7248
33.7487 27.6026
33.7954 27.5812
33.842 27.4633
33.8887 27.4024
33.9353 27.3909
33.982 27.2056
34.0286 27.1092
34.0753 27.0988
34.1219 26.9938
34.1687 26.9377
34.2152 26.8197
34.262 26.7191
34.3086 26.6054
34.3554 26.6323
34.402 26.4153
34.4488 26.3634
34.4954 26.3543
34.5422 26.246
34.5889 26.0714
34.6357 25.973
34.6825 25.9481
34.7292 25.8025
34.776 25.7596
34.8227 25.6651
34.8695 25.5747
34.9162 25.5697
34.9631 25.4673
35.0098 25.5958
35.0566 25.449
35.1033 25.3043
35.1502 25.3111
35.1969 25.2635
35.2438 25.1808
35.2906 25.1306
35.3375 25.0222
35.3842 25.0363
35.4311 24.9878
35.4779 24.9372
35.5248 24.8954
35.5716 24.8063
35.6185 24.7121
35.6653 24.6065
35.7123 24.4638
35.759 24.4546
35.806 24.3129
35.8528 24.1866
35.8998 24.2651
35.9468 24.0459
35.9936 23.9979
36.0406 23.9474
36.0874 24.0161
36.1345 23.8591
36.1813 23.7386
36.2283 23.6412
36.2752 23.5952
36.3222 23.6492
36.3691 23.5041
36.4161 23.3307
36.463 23.3107
36.5101 23.2649
36.557 23.3714
36.6041 23.1652
36.651 23.0945
36.6981 23.0552
36.745 22.949
36.7921 22.928
36.839 22.7799
36.8861 22.6669
36.9331 22.619
36.9802 22.6306
37.0272 22.4459
37.0743 22.3402
37.1213 22.3683
37.1684 22.2613
37.2154 22.2225
37.2626 22.1796
37.3098 22.073
37.3568 21.9756
37.404 22.0158
37.451 21.858
37.4982 21.8493
37.5452 21.7142
37.5924 21.6546
37.6395 21.6925
37.6867 21.5849
37.7337 21.5017
37.781 21.4024
37.8281 21.354
37.8753 21.2078
37.9224 21.1784
37.9697 21.047
38.0168 21.1055
38.064 20.9543
38.1111 20.8883
38.1584 20.898
38.2056 20.8054
38.2529 20.7021
38.3 20.7133
38.3473 20.6757
38.3945 20.5182
38.4418 20.4538
38.489 20.4589
38.5363 20.311
38.5837 20.2268
38.6309 20.14
38.6782 20.135
38.7254 20.0837
38.7728 20.0237
38.82 20.0171
38.8674 19.9544
38.9146 19.7865
38.9621 19.7372
39.0093 19.6752
39.0567 19.7223
39.104 19.6174
39.1514 19.4923
39.1987 19.5048
39.2461 19.4266
39.2934 19.3368
39.3409 19.249
39.3882 19.2026
39.4356 19.1649
39.483 19.1595
39.5304 18.9866
39.5778 18.9404
39.6253 18.8948
39.6726 18.8425
39.7201 18.8702
39.7675 18.8028
39.815 18.6267
39.8624 18.5909
39.9099 18.5895
39.9575 18.5108
40.0049 18.4393
40.0525 18.425
40.0999 18.3479
40.1474 18.2728
40.1949 18.1576
40.2425 18.1318
40.2899 18.0667
40.3375 18.0254
40.385 17.8994
40.4326 17.8931
40.48 17.8369
40.5277 17.8384
40.5752 17.712
40.6228 17.6116
40.6703 17.629
40.718 17.5796
40.7655 17.5479
40.8132 17.4067
40.8607 17.4482
40.9084 17.3796
40.9559 17.3361
41.0036 17.2446
41.0512 17.1718
41.0989 17.1781
41.1465 17.0297
41.1942 17.0059
41.242 16.9232
41.2896 16.9275
41.3373 16.7947
41.3849 16.7946
41.4327 16.7813
41.4803 16.6627
41.5281 16.6193
41.5758 16.4919
41.6236 16.4459
41.6712 16.4145
41.7191 16.352
41.7667 16.3454
41.8146 16.3214
41.8622 16.221
41.9101 16.1785
41.9578 16.1229
42.0057 16.0946
42.0534 16.0117
42.1013 15.9806
42.149 15.8844
42.1969 15.8261
42.2446 15.8055
42.2925 15.7455
42.3403 15.7127
42.3882 15.7312
42.436 15.5611
42.4839 15.5397
42.5319 15.472
42.5797 15.4603
42.6277 15.3173
42.6755 15.3581
42.7235 15.2409
42.7713 15.2065
42.8193 15.141
42.8671 15.0955
42.9152 15.0195
42.963 15.0147
43.0111 14.9472
43.0589 14.926
43.107 14.8872
43.1549 14.8158
43.2029 14.7437
43.2508 14.7275
43.2989 14.6543
43.3468 14.5434
43.3949 14.5507
43.4429 14.479
43.491 14.4082
43.5389 14.405
43.5871 14.4026
43.635 14.2917
43.6832 14.2768
43.7312 14.2028
43.7793 14.1023
43.8273 14.1291
43.8755 14.043
43.9237 14.0725
43.9717 13.9642
44.0199 13.8879
44.068 13.8332
44.1162 13.8299
44.1642 13.8157
44.2125 13.7126
44.2606 13.7034
44.3088 13.6515
44.3569 13.5616
44.4052 13.5822
44.4533 13.4337
44.5016 13.4097
44.5497 13.3648
44.598 13.3239
44.6461 13.2949
44.6945 13.2616
44.7426 13.1861
44.791 13.1274
44.8391 13.1158
44.8875 13.0255
44.9357 13.018
44.984 12.9293
45.0322 12.9218
45.0806 12.8683
45.1288 12.8294
45.1773 12.7381
45.2257 12.7406
45.2739 12.6984
45.3224 12.6482
45.3706 12.5668
45.4191 12.528
45.4673 12.5428
45.5158 12.4699
45.5641 12.4025
45.6126 12.4051
45.6609 12.322
45.7094 12.2884
45.7577 12.2288
45.8063 12.1754
45.8546 12.1482
45.9031 12.1009
45.9515 12.0364
46.0001 12.032
46.0484 11.9738
46.097 11.9741
46.1454 11.882
46.194 11.8311
46.2424 11.8144
46.291 11.79
46.3395 11.7162
46.3881 11.6427
46.4365 11.6852
46.4852 11.5576
46.5337 11.5372
46.5823 11.5182
46.631 11.4584
46.6795 11.4184
46.7282 11.3787
46.7767 11.3195
46.8254 11.2979
46.8739 11.2663
46.9226 11.2028
46.9712 11.2105
47.0199 11.1257
47.0685 11.0794
47.1173 11.0153
47.1658 11.039
47.2146 10.9522
47.2632 10.8979
47.312 10.8945
47.3606 10.7843
47.4095 10.793
47.4581 10.7478
47.5069 10.7139
47.5556 10.6871
47.6044 10.6103
47.6531 10.6242
47.702 10.5707
47.7507 10.5414
47.7996 10.4723
47.8483 10.4682
47.8972 10.4071
47.9461 10.398
47.9948 10.3141
48.0438 10.3075
48.0925 10.2676
48.1415 10.2313
48.1902 10.1962
48.2392 10.1653
48.288 10.1349
48.337 10.107
48.3858 10.0498
48.4348 9.98444
48.4837 9.9704
48.5327 9.96347
48.5815 9.87978
48.6306 9.88366
48.6795 9.82313
48.7285 9.79042
48.7774 9.77302
48.8265 9.71717
48.8754 9.70882
48.9245 9.59749
48.9734 9.60866
49.0226 9.60403
49.0715 9.55709
49.1206 9.50093
49.1696 9.45317
49.2188 9.45432
49.2679 9.4188
49.3169 9.34919
49.3661 9.34955
49.4151 9.27549
49.4643 9.26897
49.5134 9.21191
49.5626 9.13236
49.6117 9.15033
49.6609 9.13253
49.71 9.04916
49.7592 9.03162
49.8083 8.9822
49.8576 8.96788
49.9067 8.90975
49.956 8.88961
50.0052 8.86035
50.0545 8.85742
50.1036 8.79719
50.153 8.76577
50.2022 8.72278
50.2515 8.71142
50.3007 8.66223
50.3501 8.60019
50.3993 8.57178
50.4487 8.57149
50.498 8.54267
50.5474 8.50623
50.5966 8.4677
50.6461 8.45306
50.6955 8.41995
50.7448 8.34646
50.7943 8.34394
50.8436 8.32003
50.8931 8.27158
50.9424 8.21535
50.9919 8.20051
51.0413 8.16083
51.0908 8.14382
51.1402 8.0934
51.1897 8.11068
51.2391 8.06105
51.2887 7.99051
51.3381 7.95866
51.3877 7.95095
51.4371 7.86848
51.4867 7.88021
51.5362 7.85205
51.5858 7.80399
51.6353 7.78244
51.6849 7.72137
51.7344 7.71132
51.7841 7.67776
51.8336 7.64699
51.8833 7.64076
51.9328 7.59613
51.9826 7.53373
52.0323 7.52728
52.0818 7.51088
52.1316 7.46972
52.1812 7.4332
52.231 7.38985
52.2806 7.39472
52.3304 7.34281
52.38 7.31657
52.4298 7.25834
52.4794 7.23895
52.5293 7.19564
52.5789 7.14982
52.6288 7.16048
52.6785 7.11718
52.7284 7.11189
52.7781 7.09281
52.828 7.03156
52.8777 7.00816
52.9276 7.02059
52.9774 6.9196
53.0273 6.93484
53.0771 6.90768
53.1271 6.87212
53.1769 6.82806
53.2269 6.82138
53.2767 6.77981
53.3267 6.74453
53.3765 6.68612
53.4266 6.69972
53.4766 6.69962
53.5265 6.64258
53.5765 6.63128
53.6264 6.55632
53.6765 6.55807
53.7264 6.51209
53.7765 6.48177
53.8265 6.46645
53.8766 6.40791
53.9266 6.39112
53.9767 6.36679
54.0267 6.3483
54.0769 6.294
54.1269 6.29067
54.1771 6.2354
54.2271 6.20543
54.2773 6.14504
54.3274 6.15508
54.3776 6.12293
54.4277 6.0812
54.478 6.05164
54.528 5.99979
54.5783 5.93671
54.6285 5.92769
54.6788 5.85354
54.7289 5.81144
54.7792 5.80709
54.8296 5.75536
54.8798 5.69977
54.9301 5.6788
54.9803 5.65199
55.0307 5.61943
55.0809 5.58445
55.1314 5.52403
55.1816 5.40182
55.232 5.42014
55.2823 5.36564
55.3328 5.31546
55.383 5.21426
55.4335 5.21201
55.4838 5.1465
55.5344 5.14369
55.5847 5.05875
55.6352 5.06048
55.6856 5.03316
55.7361 4.9825