File: XRD/Ni3Fe_FD0292.xy
TT I
1.27165 7.83656
1.31627 7.65771
1.36089 6.99515
1.40551 6.29472
1.45013 5.92178
1.49476 6.00151
1.53938 6.27833
1.584 5.62314
1.62863 5.34935
1.67325 5.43399
1.71787 5.14446
1.7625 5.45655
1.80712 5.47345
1.85174 5.34691
1.89636 4.95393
1.94099 5.06164
1.98562 4.78358
2.03025 5.56033
2.07487 4.86864
2.11949 4.4393
2.16411 4.91825
2.20874 16.7814
2.25338 28.8937
2.298 6.14041
2.34263 4.76575
2.38725 5.07225
2.43188 4.5465
2.4765 5.59549
2.52115 6.3302
2.56577 5.805
2.6104 6.86644
2.65503 6.42005
2.69965 6.49136
2.7443 7.55064
2.78893 7.3925
2.83356 7.844
2.87818 8.3757
2.92281 8.81492
2.96744 9.8296
3.01209 10.2964
3.05672 11.1004
3.10135 12.5789
3.14599 13.0673
3.19062 13.7488
3.23527 15.4747
3.2799 16.0481
3.32454 17.2177
3.36917 17.701
3.4138 19.6287
3.45844 19.8263
3.50309 21.3684
3.54773 22.5441
3.59237 25.2094
3.637 114.22
3.68164 72.3901
3.7263 27.1393
3.77094 26.9008
3.81558 27.4338
3.86022 27.9398
3.90486 29.4031
3.9495 30.6381
3.99416 31.5661
4.0388 32.9812
4.08344 34.4201
4.12809 36.2437
4.17273 38.5651
4.21738 46.4693
4.26204 307.766
4.30669 282.072
4.35133 51.8657
4.39598 46.5319
4.44063 57.1024
4.4853 72.9947
4.52995 53.6903
4.5746 53.0615
4.61925 54.6344
4.6639 56.6913
4.70855 59.7651
4.75322 62.8834
4.79788 66.2084
4.84253 69.4417
4.88719 74.3209
4.93184 77.9791
4.97652 83.5209
5.02118 90.7981
5.06583 99.3706
5.11049 113.996
5.15515 208.903
5.19981 500.557
5.24449 3098.28
5.28916 10937.1
5.33382 4277.01
5.37848 259.389
5.42315 146.331
5.46783 123.889
5.5125 113.33
5.55716 107.519
5.60183 103.208
5.6465 101.152
5.69117 98.3015
5.73586 96.6637
5.78053 96.9615
5.8252 96.3594
5.86988 97.6287
5.91455 100.788
5.95924 111.985
6.00392 256.274
6.0486 1072.88
6.09328 3721.3
6.13795 3816.7
6.18263 372.518
6.22733 107.212
6.27201 89.7857
6.3167 115.502
6.36138 87.6197
6.40606 72.9772
6.45075 70.3596
6.49545 68.2262
6.54014 65.9746
6.58483 65.5719
6.62952 65.5581
6.67421 103.154
6.71892 176.164
6.76361 74.9534
6.8083 61.6037
6.853 59.9252
6.89769 59.1548
6.94239 58.8647
6.98711 57.7643
7.03181 57.7861
7.07651 57.5406
7.12121 57.5102
7.16591 58.0683
7.21063 58.0567
7.25533 75.452
7.30004 221.836
7.34475 107.846
7.38945 58.9737
7.43416 56.8161
7.47889 56.1704
7.5236 56.9333
7.56831 57.4701
7.61303 59.7379
7.65774 60.2075
7.70247 58.4768
7.74719 58.2295
7.79191 58.7064
7.83663 58.9757
7.88135 60.0372
7.92607 60.8487
7.97081 61.5173
8.01553 62.7574
8.06026 64.5755
8.10498 66.0213
8.14971 78.3335
8.19446 76.8716
8.23919 72.0677
8.28392 74.4593
8.32865 76.8964
8.37339 81.371
8.41812 89.2307
8.46288 127.065
8.50761 190.388
8.55235 439.927
8.59709 1011.3
8.64183 2040.14
8.68658 1257.25
8.73134 225.567
8.77609 108.462
8.82083 97.6481
8.86558 94.2791
8.91033 94.6272
8.9551 97.0713
8.99985 89.0973
9.04461 86.6472
9.08936 85.9317
9.13412 84.4611
9.17888 84.7425
9.22365 86.0318
9.26841 85.1054
9.31318 85.3573
9.35794 86.2365
9.4027 85.9538
9.44749 86.592
9.49226 87.2043
9.53703 88.3241
9.5818 90.7211
9.62657 96.1005
9.67134 104.994
9.71614 97.3647
9.76091 96.8728
9.80569 100.03
9.85047 103.932
9.89525 133.587
9.94005 152.28
9.98484 197.575
10.0296 386.555
10.0744 715.381
10.1192 1489.24
10.164 1811.78
10.2088 606.477
10.2536 152.484
10.2984 121.741
10.3432 123.845
10.388 110.697
10.4328 126.407
10.4776 172.844
10.5224 255.281
10.5672 445.504
10.612 553.476
10.6568 263.85
10.7017 107.086
10.7465 90.8736
10.7913 86.735
10.8361 84.2744
10.8809 81.9047
10.9257 82.0199
10.9706 83.3739
11.0154 78.1668
11.0602 75.5814
11.105 74.5202
11.1499 80.1806
11.1947 91.0528
11.2395 79.2596
11.2844 73.8487
11.3292 69.7018
11.374 68.7303
11.4189 68.2257
11.4637 67.0593
11.5086 68.1596
11.5534 72.1383
11.5983 68.6681
11.6431 65.8215
11.688 64.9802
11.7328 65.351
11.7777 65.2524
11.8225 64.713
11.8674 64.5376
11.9122 64.8822
11.9571 65.3104
12.002 66.1057
12.0468 71.0445
12.0917 84.3819
12.1366 102.497
12.1814 137.699
12.2263 194.716
12.2712 191.154
12.3161 114.743
12.3609 76.8888
12.4058 67.9261
12.4507 66.9536
12.4956 67.0663
12.5405 67.0936
12.5853 67.957
12.6302 77.6924
12.6751 85.8889
12.72 73.8516
12.7649 70.3976
12.8098 70.8653
12.8547 71.9295
12.8996 73.5606
12.9445 74.7476
12.9894 76.6338
13.0343 78.1904
13.0792 81.7932
13.1242 92.6832
13.1691 121.616
13.214 154.673
13.2589 213.096
13.3038 325.632
13.3487 438.182
13.3937 326.501
13.4386 149.774
13.4835 114.271
13.5285 130.435
13.5734 157.342
13.6183 215.621
13.6633 314.586
13.7082 371.722
13.7531 240.64
13.7981 114.474
13.843 86.15
13.888 82.9156
13.9329 80.1561
13.9779 78.6855
14.0228 76.9704
14.0678 75.5476
14.1127 75.1804
14.1577 75.4368
14.2027 74.3673
14.2476 72.8667
14.2926 73.1456
14.3376 74.9326
14.3825 73.2613
14.4275 71.316
14.4725 71.1027
14.5175 71.4733
14.5624 71.2833
14.6074 74.1311
14.6524 74.7971
14.6974 73.2768
14.7424 74.6381
14.7874 82.9962
14.8324 94.7773
14.8774 109.825
14.9224 138.283
14.9674 189.417
15.0124 227.844
15.0574 176.512
15.1024 105.787
15.1474 76.8916
15.1924 73.7394
15.2374 74.8331
15.2824 73.8242
15.3274 71.083
15.3725 69.4555
15.4175 68.7772
15.4625 68.4316
15.5076 68.8422
15.5526 68.8213
15.5976 68.3022
15.6426 69.4526
15.6877 75.7078
15.7327 84.9671
15.7778 96.0567
15.8228 116.37
15.8679 153.342
15.9129 192.184
15.958 178.668
16.003 116.419
16.0481 74.5569
16.0931 68.6243
16.1382 66.1141
16.1833 63.3948
16.2283 61.288
16.2734 60.7291
16.3185 61.2722
16.3636 62.3614
16.4086 60.6466
16.4537 58.7917
16.4988 57.8019
16.5439 57.6353
16.589 57.3559
16.6341 57.0631
16.6792 56.7169
16.7243 56.8482
16.7694 56.9833
16.8145 57.0133
16.8596 57.4046
16.9047 59.4574
16.9498 59.8467
16.9949 58.0724
17.04 57.8178
17.0851 59.4447
17.1302 61.4105
17.1754 63.9483
17.2205 67.1001
17.2656 72.6213
17.3108 81.9405
17.3559 85.8854
17.401 77.4338
17.4462 66.4318
17.4913 61.7216
17.5365 61.3363
17.5815 61.2849
17.6268 61.8147
17.6718 62.7013
17.7171 63.3108
17.7622 63.5336
17.8074 63.9055
17.8525 66.6522
17.8977 71.7865
17.9428 77.4202
17.9881 83.2025
18.0331 94.9145
18.0784 113.148
18.1237 137.236
18.1688 143.8
18.214 118.257
18.2591 92.7628
18.3044 89.1722
18.3495 97.3011
18.3948 108.491
18.4399 104.939
18.4852 85.7788
18.5303 70.4547
18.5756 65.1711
18.6207 63.7365
18.666 63.0397
18.7112 62.0711
18.7565 61.2516
18.8016 60.8251
18.8469 60.2582
18.892 59.8583
18.9374 59.4131
18.9825 59.1881
19.0278 58.994
19.073 59.1397
19.1183 59.6581
19.1635 60.9862
19.2088 61.8764
19.254 63.2894
19.2993 66.4181
19.3447 72.0117
19.3898 78.1277
19.4352 77.2811
19.4804 68.9962
19.5257 60.425
19.5709 56.728
19.6163 55.9743
19.6615 55.7662
19.7068 55.3919
19.752 55.2528
19.7974 55.8111
19.8426 56.6924
19.888 57.3505
19.9332 58.5692
19.9786 59.8399
20.0238 62.4503
20.0692 66.963
20.1144 71.5389
20.1598 72.4575
20.205 67.5891
20.2504 63.8119
20.2957 63.9494
20.3411 66.8414
20.3863 67.6155
20.4318 62.6564
20.477 57.1131
20.5224 54.2408
20.5677 53.2252
20.6131 52.3988
20.6586 51.7564
20.7038 51.4607
20.7493 51.0707
20.7945 50.844
20.84 50.7185
20.8853 50.5187
20.9307 50.409
20.976 50.637
21.0215 50.5885
21.0668 50.8314
21.1122 51.333
21.1575 51.702
21.203 52.3591
21.2483 52.9921
21.2938 53.5157
21.3391 52.4467
21.3846 51.138
21.4299 50.3023
21.4754 50.2772
21.5207 50.3506
21.5662 50.5358
21.6116 51.2296
21.6571 52.0678
21.7024 52.8824
21.7479 54.1765
21.7933 55.8429
21.8388 59.1541
21.8843 62.8003
21.9297 66.5033
21.9752 67.0526
22.0206 63.7355
22.0661 58.937
22.1115 57.7103
22.157 57.8618
22.2024 57.3707
22.248 54.3028
22.2933 52.4934
22.3389 51.2875
22.3843 51.0656
22.4299 50.9934
22.4753 51.0321
22.5208 50.57
22.5662 50.2623
22.6118 50.5457
22.6572 50.8691
22.7028 51.1883
22.7483 51.6439
22.7939 52.2058
22.8393 53.109
22.8849 54.8874
22.9303 56.5701
22.9759 58.9973
23.0214 60.2284
23.067 58.3086
23.1126 54.3784
23.1581 51.5406
23.2037 50.7353
23.2492 50.8272
23.2948 50.8218
23.3403 51.1051
23.3859 51.547
23.4314 52.1146
23.477 53.4518
23.5225 55.1057
23.5682 57.4228
23.6137 59.8839
23.6593 58.9592
23.7048 55.3709
23.7505 51.1865
23.796 48.819
23.8417 47.8645
23.8872 47.5008
23.9329 47.0726
23.9784 46.6641
24.0241 46.3915
24.0697 46.2146
24.1154 45.7645
24.1609 45.7978
24.2066 45.6203
24.2522 45.4431
24.2979 45.15
24.3434 45.0342
24.3892 44.8459
24.4349 44.7794
24.4805 44.6071
24.5262 44.5948
24.5718 44.5479
24.6175 44.4929
24.6631 44.5319
24.7089 44.2629
24.7545 44.1996
24.8002 43.9759
24.8458 43.8901
24.8916 43.6115
24.9372 43.8033
24.983 44.1746
25.0286 44.3441
25.0744 44.6781
25.12 45.1181
25.1658 45.8492
25.2114 46.2759
25.2572 46.2763
25.3029 46.2588
25.3487 46.2926
25.3943 46.5187
25.4402 45.819
25.4858 44.7561
25.5316 43.4198
25.5773 42.5935
25.6231 42.4654
25.669 42.2123
25.7147 42.2344
25.7605 41.9597
25.8062 42.2209
25.8521 42.2455
25.8977 42.1423
25.9436 42.3103
25.9893 42.2532
26.0352 42.8496
26.0809 42.8514
26.1268 43.3792
26.1725 43.1993
26.2184 42.6478
26.2641 41.9933
26.31 41.6017
26.3557 41.7569
26.4017 41.6523
26.4474 41.8322
26.4933 42.259
26.5391 42.4939
26.585 42.7982
26.6308 43.3361
26.6767 43.5458
26.7225 43.5358
26.7684 43.278
26.8142 42.624
26.8601 42.1599
26.9059 41.6433
26.9519 41.0928
26.9979 40.7946
27.0437 40.4471
27.0896 40.2055
27.1354 40.2516
27.1814 40.1113
27.2272 39.9724
27.2732 40.0801
27.3191 39.7257
27.3651 39.9617
27.4109 39.9203
27.4569 39.8792
27.5027 39.895
27.5488 39.9116
27.5946 39.9077
27.6407 39.6969
27.6865 39.5548
27.7326 39.2904
27.7784 39.1953
27.8245 39.1984
27.8703 39.4068
27.9164 39.6171
27.9623 39.6823
28.0084 39.968
28.0543 40.3245
28.1003 40.383
28.1462 40.3679
28.1923 39.8921
28.2384 39.5123
28.2843 39.207
28.3304 38.8154
28.3764 38.3656
28.4225 38.0014
28.4684 37.6803
28.5145 37.3588
28.5605 37.3117
28.6066 37.0893
28.6526 37.0176
28.6987 36.9589
28.7447 36.8207
28.7908 36.7524
28.8368 36.6414
28.8829 36.8504
28.9289 36.7686
28.9751 36.6245
29.0211 36.382
29.0673 36.0371
29.1133 35.9641
29.1595 35.6837
29.2055 35.5821
29.2517 35.6903
29.2977 35.398
29.3439 35.4841
29.3899 35.4941
29.4361 35.4416
29.4824 35.445
29.5284 35.1264
29.5746 34.8675
29.6207 34.5961
29.6669 34.382
29.713 34.3852
29.7593 34.2381
29.8053 34.2244
29.8516 34.0348
29.8977 34.0542
29.9439 33.8823
29.99 33.8181
30.0363 33.733
30.0824 33.8115
30.1287 33.6824
30.1748 33.6399
30.2211 33.6786
30.2673 33.4818
30.3136 33.6654
30.3597 33.6141
30.406 33.4518
30.4522 33.337
30.4985 33.2395
30.5447 33.3782
30.591 33.3262
30.6372 33.3818
30.6835 33.2421
30.7297 33.3505
30.7761 33.4332
30.8224 33.1549
30.8686 33.0717
30.915 32.9536
30.9612 32.7841
31.0076 32.5592
31.0538 32.3224
31.1002 32.42
31.1464 32.1629
31.1928 32.1805
31.2391 32.0392
31.2855 31.9246
31.3317 32.0602
31.3781 32.023
31.4244 32.0461
31.4708 31.928
31.5171 31.9591
31.5636 32.1204
31.6098 31.7517
31.6563 31.5146
31.7026 31.3635
31.7491 31.2741
31.7953 31.415
31.8418 31.2925
31.8881 31.2343
31.9346 31.2242
31.9809 31.1696
32.0275 31.1224
32.074 31.0089
32.1203 30.7748
32.1668 30.7377
32.2132 30.5395
32.2597 30.4796
32.306 30.3669
32.3526 30.1084
32.399 29.9989
32.4455 29.9172
32.4919 29.7953
32.5385 29.7248
32.5848 29.5949
32.6314 29.6559
32.6778 29.4237
32.7244 29.3573
32.7708 29.2555
32.8174 29.2527
32.8638 29.1862
32.9104 29.2336
32.9569 29.0696
33.0035 28.9675
33.0499 28.884
33.0966 28.8583
33.143 28.8291
33.1897 28.733
33.2361 28.6445
33.2828 28.6385
33.3293 28.4505
33.3759 28.5069
33.4226 28.3525
33.4691 28.1663
33.5158 28.0894
33.5623 27.9891
33.609 27.8213
33.6555 27.7096
33.7022 27.6376
33.7487 27.5016
33.7954 27.4128
33.842 27.4036
33.8887 27.3873
33.9353 27.2862
33.982 27.2385
34.0286 27.1667
34.0753 27.0059
34.1219 26.9113
34.1687 26.8016
34.2152 26.7448
34.262 26.6313
34.3086 26.537
34.3554 26.5047
34.402 26.3836
34.4488 26.2473
34.4954 26.1588
34.5422 26.1514
34.5889 26.0295
34.6357 25.8903
34.6825 25.9099
34.7292 25.7574
34.776 25.7062
34.8227 25.7192
34.8695 25.5434
34.9162 25.526
34.9631 25.3626
35.0098 25.5392
35.0566 25.2988
35.1033 25.2308
35.1502 25.1954
35.1969 25.114
35.2438 25.0396
35.2906 24.9816
35.3375 24.9923
35.3842 24.9123
35.4311 24.8332
35.4779 24.8516
35.5248 24.8203
35.5716 24.73
35.6185 24.6125
35.6653 24.4426
35.7123 24.3872
35.759 24.4013
35.806 24.272
35.8528 24.158
35.8998 24.0274
35.9468 24.0219
35.9936 23.9685
36.0406 23.8669
36.0874 23.9046
36.1345 23.8057
36.1813 23.6561
36.2283 23.5787
36.2752 23.5074
36.3222 23.5026
36.3691 23.441
36.4161 23.266
36.463 23.2703
36.5101 23.2994
36.557 23.2704
36.6041 23.0776
36.651 22.9743
36.6981 22.9112
36.745 22.9216
36.7921 22.803
36.839 22.7203
36.8861 22.6483
36.9331 22.6413
36.9802 22.5038
37.0272 22.3895
37.0743 22.3283
37.1213 22.2915
37.1684 22.3028
37.2154 22.1715
37.2626 22.0648
37.3098 22.0508
37.3568 21.9133
37.404 21.8708
37.451 21.8551
37.4982 21.7677
37.5452 21.5877
37.5924 21.5829
37.6395 21.6364
37.6867 21.5141
37.7337 21.4088
37.781 21.3411
37.8281 21.2785
37.8753 21.1517
37.9224 21.059
37.9697 21.0697
38.0168 21.0023
38.064 20.8746
38.1111 20.8938
38.1584 20.8237
38.2056 20.7093
38.2529 20.6794
38.3 20.6045
38.3473 20.6214
38.3945 20.4344
38.4418 20.4691
38.489 20.407
38.5363 20.2225
38.5837 20.2025
38.6309 20.1455
38.6782 20.0844
38.7254 20.0394
38.7728 19.9782
38.82 19.8351
38.8674 19.8753
38.9146 19.7558
38.9621 19.7269
39.0093 19.6461
39.0567 19.6304
39.104 19.5345
39.1514 19.439
39.1987 19.4104
39.2461 19.3122
39.2934 19.2879
39.3409 19.2435
39.3882 19.1404
39.4356 19.1143
39.483 19.0425
39.5304 18.961
39.5778 18.9477
39.6253 18.8994
39.6726 18.8131
39.7201 18.6981
39.7675 18.6878
39.815 18.6342
39.8624 18.5627
39.9099 18.5599
39.9575 18.4217
40.0049 18.3924
40.0525 18.3159
40.0999 18.2965
40.1474 18.1767
40.1949 18.1086
40.2425 18.1087
40.2899 18.0218
40.3375 17.9592
40.385 17.95
40.4326 17.8612
40.48 17.6975
40.5277 17.7634
40.5752 17.714
40.6228 17.6854
40.6703 17.6219
40.718 17.4853
40.7655 17.4133
40.8132 17.3989
40.8607 17.4001
40.9084 17.3627
40.9559 17.28
41.0036 17.2488
41.0512 17.1552
41.0989 17.0707
41.1465 16.9767
41.1942 16.9778
41.242 16.885
41.2896 16.8152
41.3373 16.7872
41.3849 16.713
41.4327 16.7125
41.4803 16.6186
41.5281 16.578
41.5758 16.5353
41.6236 16.4103
41.6712 16.3897
41.7191 16.3691
41.7667 16.2391
41.8146 16.2852
41.8622 16.1579
41.9101 16.1772
41.9578 16.0338
42.0057 16.0608
42.0534 16.0354
42.1013 15.9382
42.149 15.8063
42.1969 15.826
42.2446 15.7367
42.2925 15.6841
42.3403 15.6528
42.3882 15.5845
42.436 15.5379
42.4839 15.4848
42.5319 15.4804
42.5797 15.3618
42.6277 15.3775
42.6755 15.2968
42.7235 15.1698
42.7713 15.2245
42.8193 15.1507
42.8671 15.0762
42.9152 15.0782
42.963 14.9876
43.0111 14.9152
43.0589 14.8927
43.107 14.8737
43.1549 14.739
43.2029 14.6907
43.2508 14.6876
43.2989 14.5954
43.3468 14.5313
43.3949 14.5242
43.4429 14.4368
43.491 14.4371
43.5389 14.3257
43.5871 14.3132
43.635 14.2595
43.6832 14.2452
43.7312 14.1518
43.7793 14.1253
43.8273 14.092
43.8755 13.999
43.9237 13.9461
43.9717 13.921
44.0199 13.8868
44.068 13.8578
44.1162 13.8128
44.1642 13.7802
44.2125 13.6429
44.2606 13.6477
44.3088 13.5525
44.3569 13.5586
44.4052 13.4921
44.4533 13.4178
44.5016 13.3869
44.5497 13.3651
44.598 13.3606
44.6461 13.2564
44.6945 13.2248
44.7426 13.1842
44.791 13.134
44.8391 13.082
44.8875 13.0267
44.9357 12.9811
44.984 12.9614
45.0322 12.8636
45.0806 12.7859
45.1288 12.8179
45.1773 12.7387
45.2257 12.7139
45.2739 12.6679
45.3224 12.6265
45.3706 12.5858
45.4191 12.5121
45.4673 12.5594
45.5158 12.4681
45.5641 12.3978
45.6126 12.3596
45.6609 12.2708
45.7094 12.2177
45.7577 12.2577
45.8063 12.192
45.8546 12.1564
45.9031 12.0502
45.9515 12.034
46.0001 11.9669
46.0484 11.9496
46.097 11.9421
46.1454 11.937
46.194 11.8732
46.2424 11.7717
46.291 11.746
46.3395 11.7264
46.3881 11.6724
46.4365 11.6554
46.4852 11.5762
46.5337 11.5616
46.5823 11.5355
46.631 11.4459
46.6795 11.439
46.7282 11.3713
46.7767 11.2885
46.8254 11.2909
46.8739 11.2359
46.9226 11.2281
46.9712 11.1622
47.0199 11.144
47.0685 11.1131
47.1173 11.0385
47.1658 10.9916
47.2146 10.9307
47.2632 10.8892
47.312 10.8934
47.3606 10.8277
47.4095 10.7942
47.4581 10.7489
47.5069 10.7192
47.5556 10.7072
47.6044 10.65
47.6531 10.5613
47.702 10.5515
47.7507 10.5048
47.7996 10.4932
47.8483 10.4197
47.8972 10.4108
47.9461 10.3764
47.9948 10.3307
48.0438 10.2549
48.0925 10.2888
48.1415 10.2595
48.1902 10.1589
48.2392 10.1523
48.288 10.1382
48.337 10.0689
48.3858 10.0225
48.4348 10.0095
48.4837 9.97317
48.5327 9.95096
48.5815 9.88099
48.6306 9.88942
48.6795 9.81721
48.7285 9.76289
48.7774 9.76913
48.8265 9.73356
48.8754 9.70435
48.9245 9.6338
48.9734 9.58319
49.0226 9.58559
49.0715 9.54003
49.1206 9.47638
49.1696 9.45588
49.2188 9.42756
49.2679 9.39244
49.3169 9.37334
49.3661 9.28303
49.4151 9.26395
49.4643 9.23374
49.5134 9.23609
49.5626 9.13441
49.6117 9.1235
49.6609 9.11544
49.71 9.03956
49.7592 9.03553
49.8083 8.99391
49.8576 8.98624
49.9067 8.92928
49.956 8.94883
50.0052 8.87613
50.0545 8.8348
50.1036 8.7873
50.153 8.75153
50.2022 8.73505
50.2515 8.69292
50.3007 8.67115
50.3501 8.58799
50.3993 8.56955
50.4487 8.53879
50.498 8.50782
50.5474 8.46597
50.5966 8.43688
50.6461 8.42763
50.6955 8.38934
50.7448 8.35494
50.7943 8.32494
50.8436 8.29248
50.8931 8.2823
50.9424 8.22882
50.9919 8.21024
51.0413 8.17616
51.0908 8.12249
51.1402 8.10742
51.1897 8.09123
51.2391 8.02235
51.2887 7.97576
51.3381 7.98774
51.3877 7.93837
51.4371 7.91158
51.4867 7.86198
51.5362 7.82239
51.5858 7.83396
51.6353 7.79166
51.6849 7.71857
51.7344 7.72237
51.7841 7.71001
51.8336 7.64542
51.8833 7.61282
51.9328 7.55213
51.9826 7.5418
52.0323 7.50539
52.0818 7.47281
52.1316 7.46584
52.1812 7.45232
52.231 7.39435
52.2806 7.36639
52.3304 7.33694
52.38 7.29892
52.4298 7.25299
52.4794 7.23342
52.5293 7.18899
52.5789 7.22172
52.6288 7.16327
52.6785 7.12369
52.7284 7.12525
52.7781 7.03646
52.828 7.02345
52.8777 7.01088
52.9276 6.9742
52.9774 6.94647
53.0273 6.91049
53.0771 6.85179
53.1271 6.86788
53.1769 6.79286
53.2269 6.79602
53.2767 6.77818
53.3267 6.75114
53.3765 6.71793
53.4266 6.68637
53.4766 6.64427
53.5265 6.62101
53.5765 6.56434
53.6264 6.60545
53.6765 6.55676
53.7264 6.52715
53.7765 6.48137
53.8265 6.45441
53.8766 6.41694
53.9266 6.41873
53.9767 6.36945
54.0267 6.34873
54.0769 6.34638
54.1269 6.30762
54.1771 6.26308
54.2271 6.23483
54.2773 6.19467
54.3274 6.16254
54.3776 6.082
54.4277 6.07555
54.478 6.08386
54.528 6.00358
54.5783 6.02341
54.6285 5.95213
54.6788 5.89806
54.7289 5.84399
54.7792 5.78495
54.8296 5.71597
54.8798 5.70657
54.9301 5.68391
54.9803 5.64556
55.0307 5.63622
55.0809 5.58381
55.1314 5.56901
55.1816 5.47247
55.232 5.42123
55.2823 5.3727
55.3328 5.33414
55.383 5.30106
55.4335 5.28731
55.4838 5.21205
55.5344 5.13597
55.5847 5.10346
55.6352 5.06573
55.6856 4.98594
55.7361 4.99712