File: XRD/Ni3Fe_FD0122.xy
TT I
1.27165 8.29974
1.31627 7.2763
1.36089 7.18684
1.40551 6.74482
1.45013 6.63501
1.49476 6.1178
1.53938 6.00395
1.584 5.86605
1.62863 5.60455
1.67325 5.6318
1.71787 5.47927
1.7625 5.68834
1.80712 5.30592
1.85174 4.98301
1.89636 4.84601
1.94099 5.24894
1.98562 4.77449
2.03025 4.8863
2.07487 4.77933
2.11949 5.05915
2.16411 4.68844
2.20874 5.07802
2.25338 3.8221
2.298 4.21822
2.34263 4.1701
2.38725 4.27447
2.43188 3.88189
2.4765 4.87277
2.52115 4.1452
2.56577 4.62567
2.6104 5.11223
2.65503 4.21548
2.69965 4.79309
2.7443 5.49786
2.78893 6.52476
2.83356 7.21063
2.87818 7.70971
2.92281 8.27853
2.96744 9.4374
3.01209 10.1444
3.05672 11.1297
3.10135 12.8035
3.14599 12.7102
3.19062 13.7371
3.23527 14.6498
3.2799 15.3981
3.32454 16.3691
3.36917 17.6296
3.4138 18.2728
3.45844 19.2244
3.50309 20.1521
3.54773 20.8835
3.59237 21.8108
3.637 22.4733
3.68164 22.7214
3.7263 23.948
3.77094 25.1136
3.81558 25.5951
3.86022 26.1413
3.90486 27.4547
3.9495 28.1793
3.99416 29.1271
4.0388 30.3671
4.08344 31.514
4.12809 32.3918
4.17273 33.7165
4.21738 35.275
4.26204 35.959
4.30669 37.4914
4.35133 39.5009
4.39598 40.5423
4.44063 42.8782
4.4853 44.5136
4.52995 46.7932
4.5746 48.6859
4.61925 51.5182
4.6639 52.8977
4.70855 56.157
4.75322 58.5956
4.79788 62.2995
4.84253 66.0166
4.88719 69.9747
4.93184 74.9083
4.97652 82.3566
5.02118 91.1431
5.06583 101.95
5.11049 119.158
5.15515 160.068
5.19981 591.642
5.24449 3769.98
5.28916 7672.54
5.33382 6711.8
5.37848 538.604
5.42315 171.272
5.46783 130.073
5.5125 115.192
5.55716 108.478
5.60183 102.682
5.6465 99.4589
5.69117 97.5342
5.73586 95.676
5.78053 95.0138
5.8252 96.1646
5.86988 99.0339
5.91455 107.324
5.95924 127.506
6.00392 304.002
6.0486 1402.59
6.09328 2494.85
6.13795 3923.21
6.18263 759.762
6.22733 129.572
6.27201 91.2181
6.3167 78.9187
6.36138 72.8621
6.40606 68.5797
6.45075 66.1011
6.49545 64.0951
6.54014 62.247
6.58483 60.7087
6.62952 59.2222
6.67421 57.7044
6.71892 57.0628
6.76361 56.1555
6.8083 55.2712
6.853 54.4922
6.89769 54.2215
6.94239 53.7101
6.98711 52.8384
7.03181 52.5827
7.07651 52.2091
7.12121 52.2946
7.16591 51.7599
7.21063 51.3967
7.25533 51.211
7.30004 51.3006
7.34475 51.7065
7.38945 51.9688
7.43416 51.2898
7.47889 51.7067
7.5236 56.3804
7.56831 66.4369
7.61303 55.766
7.65774 52.8749
7.70247 53.2678
7.74719 53.7861
7.79191 54.3964
7.83663 55.0089
7.88135 55.5409
7.92607 56.4338
7.97081 57.8288
8.01553 58.6357
8.06026 59.8528
8.10498 61.0183
8.14971 63.0752
8.19446 64.7934
8.23919 67.4357
8.28392 69.7775
8.32865 73.2104
8.37339 77.4138
8.41812 83.1833
8.46288 96.3179
8.50761 177.934
8.55235 618.416
8.59709 832.507
8.64183 1358.07
8.68658 1712.95
8.73134 457.769
8.77609 119.688
8.82083 98.1042
8.86558 91.2149
8.91033 87.6154
8.9551 85.1965
8.99985 83.5322
9.04461 82.0517
9.08936 81.7812
9.13412 80.7531
9.17888 80.9026
9.22365 88.167
9.26841 102.451
9.31318 88.6355
9.35794 81.9542
9.4027 81.8363
9.44749 82.034
9.49226 82.6309
9.53703 83.7861
9.5818 85.3884
9.62657 86.2894
9.67134 87.9215
9.71614 89.6203
9.76091 92.1596
9.80569 94.4136
9.85047 98.1301
9.89525 103.485
9.94005 114.568
9.98484 189.695
10.0296 561.082
10.0744 709.606
10.1192 928.958
10.164 1578.24
10.2088 1066.94
10.2536 237.393
10.2984 117.772
10.3432 108.098
10.388 104.239
10.4328 121.509
10.4776 218.73
10.5224 253.626
10.5672 303.038
10.612 471.308
10.6568 399.694
10.7017 144.49
10.7465 91.5883
10.7913 83.034
10.8361 80.0441
10.8809 77.3795
10.9257 74.6505
10.9706 73.8365
11.0154 72.2103
11.0602 70.6632
11.105 69.7076
11.1499 68.1319
11.1947 66.8885
11.2395 65.9705
11.2844 65.4839
11.3292 64.8778
11.374 63.7797
11.4189 63.28
11.4637 62.7246
11.5086 62.1767
11.5534 61.4362
11.5983 61.3947
11.6431 61.438
11.688 61.1455
11.7328 61.129
11.7777 60.6007
11.8225 60.462
11.8674 60.7762
11.9122 61.9407
11.9571 66.2574
12.002 65.9372
12.0468 67.6584
12.0917 91.1461
12.1366 107.309
12.1814 112.066
12.2263 140.853
12.2712 188.302
12.3161 146.554
12.3609 76.4021
12.4058 63.7077
12.4507 62.7535
12.4956 62.6643
12.5405 62.5196
12.5853 62.8941
12.6302 63.315
12.6751 63.6637
12.72 64.1474
12.7649 65.4678
12.8098 66.2592
12.8547 67.2552
12.8996 68.9349
12.9445 70.4306
12.9894 72.2826
13.0343 74.2729
13.0792 78.4993
13.1242 86.5185
13.1691 134.013
13.214 188.486
13.2589 196.093
13.3038 226.028
13.3487 327.631
13.3937 386.558
13.4386 223.993
13.4835 122.42
13.5285 156.967
13.5734 181.693
13.6183 182.037
13.6633 219.403
13.7082 313.455
13.7531 313.565
13.7981 163.598
13.843 89.2173
13.888 80.0596
13.9329 77.0337
13.9779 75.2798
14.0228 73.8768
14.0678 72.3733
14.1127 72.1497
14.1577 74.7796
14.2027 72.9369
14.2476 70.1088
14.2926 68.6802
14.3376 68.5352
14.3825 67.9905
14.4275 67.5321
14.4725 67.3875
14.5175 67.7005
14.5624 67.6211
14.6074 67.7094
14.6524 68.5262
14.6974 69.0315
14.7424 70.6283
14.7874 80.5043
14.8324 107.686
14.8774 119.881
14.9224 121.445
14.9674 138.381
15.0124 180.405
15.0574 205.884
15.1024 146.541
15.1474 83.5141
15.1924 70.9986
15.2374 68.4038
15.2824 67.443
15.3274 66.431
15.3725 65.7846
15.4175 65.5998
15.4625 64.9537
15.5076 64.4617
15.5526 64.9239
15.5976 64.8898
15.6426 65.9604
15.6877 73.4494
15.7327 95.7554
15.7778 107.162
15.8228 106.802
15.8679 116.598
15.9129 145.38
15.958 183.541
16.003 158.452
16.0481 92.4211
16.0931 66.6721
16.1382 61.552
16.1833 60.0171
16.2283 58.3932
16.2734 57.4398
16.3185 56.6232
16.3636 56.1883
16.4086 55.2435
16.4537 54.7624
16.4988 54.4574
16.5439 54.5627
16.589 54.1419
16.6341 53.9382
16.6792 53.3429
16.7243 53.6956
16.7694 53.7217
16.8145 53.5445
16.8596 53.701
16.9047 54.2224
16.9498 54.5884
16.9949 54.5822
17.04 54.9087
17.0851 56.3573
17.1302 60.5661
17.1754 64.0882
17.2205 64.2505
17.2656 65.2951
17.3108 70.02
17.3559 77.1075
17.401 80.9008
17.4462 71.8917
17.4913 61.4444
17.5365 58.6764
17.5815 58.3216
17.6268 58.7095
17.6718 59.1416
17.7171 59.735
17.7622 60.7172
17.8074 61.6371
17.8525 63.3905
17.8977 71.6861
17.9428 83.835
17.9881 87.8486
18.0331 88.1094
18.0784 93.3979
18.1237 108.712
18.1688 136.26
18.214 143.968
18.2591 113.97
18.3044 87.1827
18.3495 83.9909
18.3948 91.6684
18.4399 101.559
18.4852 97.0012
18.5303 77.4643
18.5756 64.9199
18.6207 61.8523
18.666 60.3732
18.7112 59.4818
18.7565 58.7733
18.8016 58.3224
18.8469 57.6439
18.892 57.1768
18.9374 56.7249
18.9825 56.3872
19.0278 56.305
19.073 56.2136
19.1183 56.8497
19.1635 59.2496
19.2088 61.3926
19.254 61.5822
19.2993 61.8824
19.3447 63.5981
19.3898 67.1508
19.4352 72.4844
19.4804 72.7462
19.5257 64.4318
19.5709 56.2839
19.6163 53.77
19.6615 53.3612
19.7068 52.9295
19.752 52.8349
19.7974 53.0291
19.8426 54.2053
19.888 56.3709
19.9332 58.1402
19.9786 57.9973
20.0238 58.0869
20.0692 60.5717
20.1144 65.3095
20.1598 71.3711
20.205 70.8711
20.2504 65.2111
20.2957 60.2734
20.3411 60.2784
20.3863 63.4606
20.4318 64.2049
20.477 59.6281
20.5224 53.4285
20.5677 50.5832
20.6131 49.9809
20.6586 49.2574
20.7038 49.116
20.7493 48.7134
20.7945 48.7779
20.84 48.7117
20.8853 48.358
20.9307 47.9594
20.976 48.289
21.0215 48.5838
21.0668 49.0365
21.1122 48.9893
21.1575 48.9454
21.203 49.062
21.2483 49.4612
21.2938 50.6273
21.3391 50.7227
21.3846 50.025
21.4299 49.1172
21.4754 48.2612
21.5207 48.2507
21.5662 48.4661
21.6116 48.9038
21.6571 50.9079
21.7024 52.9159
21.7479 53.8114
21.7933 53.6169
21.8388 54.7638
21.8843 57.2984
21.9297 60.5972
21.9752 64.7534
22.0206 65.4085
22.0661 60.9597
22.1115 55.9778
22.157 54.9
22.2024 55.8707
22.248 54.8029
22.2933 52.3415
22.3389 49.8222
22.3843 48.9054
22.4299 48.3881
22.4753 48.5149
22.5208 48.2455
22.5662 48.2289
22.6118 48.4207
22.6572 48.7534
22.7028 49.8564
22.7483 51.1799
22.7939 51.5609
22.8393 51.5547
22.8849 51.8526
22.9303 52.3338
22.9759 53.8172
23.0214 56.003
23.067 57.7773
23.1126 56.0736
23.1581 52.265
23.2037 49.6505
23.2492 48.9624
23.2948 49.2827
23.3403 50.7735
23.3859 51.5804
23.4314 51.412
23.477 51.2484
23.5225 51.5263
23.5682 52.4597
23.6137 54.5973
23.6593 56.8255
23.7048 56.9403
23.7505 53.7064
23.796 49.1789
23.8417 46.6099
23.8872 45.7527
23.9329 45.2903
23.9784 44.9759
24.0241 44.5794
24.0697 44.357
24.1154 43.9931
24.1609 43.6831
24.2066 43.558
24.2522 43.5785
24.2979 43.2472
24.3434 43.0938
24.3892 42.9682
24.4349 42.9566
24.4805 42.495
24.5262 42.6388
24.5718 42.5816
24.6175 42.587
24.6631 42.7266
24.7089 42.5516
24.7545 42.3628
24.8002 42.0411
24.8458 42.1089
24.8916 42.0252
24.9372 42.2325
24.983 42.4068
25.0286 42.5506
25.0744 43.1572
25.12 43.397
25.1658 43.6405
25.2114 44.0167
25.2572 44.5177
25.3029 44.4481
25.3487 44.2604
25.3943 44.4735
25.4402 44.6568
25.4858 44.423
25.5316 43.0803
25.5773 41.5394
25.6231 41.0778
25.669 40.5506
25.7147 40.448
25.7605 40.3554
25.8062 40.6605
25.8521 40.7491
25.8977 40.6808
25.9436 40.6273
25.9893 40.5121
26.0352 40.8129
26.0809 40.7332
26.1268 40.9854
26.1725 41.4565
26.2184 41.6278
26.2641 41.2701
26.31 40.7241
26.3557 40.5481
26.4017 40.4954
26.4474 40.5447
26.4933 40.6056
26.5391 40.7712
26.585 40.9795
26.6308 41.2978
26.6767 41.426
26.7225 42.216
26.7684 42.3877
26.8142 41.7802
26.8601 40.9966
26.9059 40.3998
26.9519 40.0642
26.9979 39.8212
27.0437 39.2811
27.0896 38.9449
27.1354 38.724
27.1814 38.7343
27.2272 38.5981
27.2732 38.6133
27.3191 38.3412
27.3651 38.352
27.4109 38.2124
27.4569 38.4374
27.5027 38.3379
27.5488 38.3666
27.5946 38.3128
27.6407 38.4197
27.6865 38.4404
27.7326 38.3529
27.7784 38.2308
27.8245 38.2158
27.8703 38.0852
27.9164 38.0838
27.9623 38.1482
28.0084 38.374
28.0543 38.435
28.1003 38.622
28.1462 38.952
28.1923 38.9557
28.2384 38.4635
28.2843 38.1054
28.3304 37.6624
28.3764 37.3045
28.4225 36.8847
28.4684 36.545
28.5145 36.0024
28.5605 35.9775
28.6066 35.7102
28.6526 35.761
28.6987 35.6939
28.7447 35.5318
28.7908 35.2455
28.8368 35.2065
28.8829 35.2533
28.9289 35.2521
28.9751 35.1215
29.0211 35.0779
29.0673 34.8758
29.1133 34.7677
29.1595 34.5526
29.2055 34.2869
29.2517 34.1901
29.2977 34.1006
29.3439 34.1087
29.3899 33.9951
29.4361 33.9975
29.4824 33.8659
29.5284 33.8818
29.5746 33.588
29.6207 33.2757
29.6669 33.1902
29.713 32.9002
29.7593 32.7773
29.8053 32.8096
29.8516 32.7298
29.8977 32.731
29.9439 32.5098
29.99 32.5267
30.0363 32.337
30.0824 32.3068
30.1287 32.3538
30.1748 32.2195
30.2211 32.2914
30.2673 32.0842
30.3136 32.3518
30.3597 32.3424
30.406 32.3297
30.4522 32.1706
30.4985 31.9623
30.5447 32.0091
30.591 31.9647
30.6372 31.9399
30.6835 31.9607
30.7297 32.0367
30.7761 32.0772
30.8224 32.1238
30.8686 32.194
30.915 31.9478
30.9612 31.604
31.0076 31.3764
31.0538 31.2994
31.1002 31.197
31.1464 31.0738
31.1928 31.036
31.2391 30.9724
31.2855 30.9463
31.3317 30.828
31.3781 30.8625
31.4244 30.8528
31.4708 30.6469
31.5171 30.7353
31.5636 30.8459
31.6098 30.6792
31.6563 30.5464
31.7026 30.4921
31.7491 30.179
31.7953 30.1735
31.8418 30.1576
31.8881 30.0459
31.9346 30.0026
31.9809 29.8507
32.0275 29.804
32.074 29.8892
32.1203 29.7765
32.1668 29.6744
32.2132 29.4556
32.2597 29.3395
32.306 29.2308
32.3526 29.027
32.399 28.9019
32.4455 28.7074
32.4919 28.6614
32.5385 28.5527
32.5848 28.5172
32.6314 28.5008
32.6778 28.4036
32.7244 28.2467
32.7708 28.1416
32.8174 28.1731
32.8638 27.9306
32.9104 28.0192
32.9569 28.0704
33.0035 27.8073
33.0499 27.8457
33.0966 27.7237
33.143 27.5979
33.1897 27.582
33.2361 27.501
33.2828 27.5143
33.3293 27.4031
33.3759 27.4182
33.4226 27.2691
33.4691 27.2567
33.5158 27.0909
33.5623 26.9145
33.609 26.727
33.6555 26.5948
33.7022 26.5746
33.7487 26.4595
33.7954 26.3981
33.842 26.346
33.8887 26.2719
33.9353 26.2162
33.982 26.1497
34.0286 26.1114
34.0753 25.9537
34.1219 25.9079
34.1687 25.7837
34.2152 25.6981
34.262 25.6321
34.3086 25.5027
34.3554 25.4565
34.402 25.3469
34.4488 25.3484
34.4954 25.251
34.5422 25.1
34.5889 25.0056
34.6357 24.8681
34.6825 24.8913
34.7292 24.8254
34.776 24.6908
34.8227 24.5788
34.8695 24.5726
34.9162 24.4985
34.9631 24.3959
35.0098 24.4014
35.0566 24.2604
35.1033 24.2441
35.1502 24.2241
35.1969 24.1528
35.2438 24.0353
35.2906 24.0083
35.3375 24.0624
35.3842 23.9034
35.4311 23.8539
35.4779 23.7904
35.5248 23.7891
35.5716 23.7706
35.6185 23.7478
35.6653 23.5933
35.7123 23.5133
35.759 23.4659
35.806 23.2731
35.8528 23.2626
35.8998 23.1717
35.9468 23.118
35.9936 23.0675
36.0406 22.914
36.0874 22.9085
36.1345 22.832
36.1813 22.678
36.2283 22.6766
36.2752 22.5632
36.3222 22.7376
36.3691 22.5525
36.4161 22.4435
36.463 22.3713
36.5101 22.3656
36.557 22.3351
36.6041 22.1819
36.651 22.173
36.6981 22.1131
36.745 22.0819
36.7921 22.0305
36.839 21.8295
36.8861 21.7659
36.9331 21.707
36.9802 21.6576
37.0272 21.4674
37.0743 21.4273
37.1213 21.4441
37.1684 21.307
37.2154 21.3027
37.2626 21.2774
37.3098 21.22
37.3568 21.0406
37.404 21.0826
37.451 20.9683
37.4982 20.9177
37.5452 20.7516
37.5924 20.6791
37.6395 20.7886
37.6867 20.632
37.7337 20.5492
37.781 20.4607
37.8281 20.49
37.8753 20.4341
37.9224 20.2758
37.9697 20.2706
38.0168 20.1638
38.064 20.1683
38.1111 20.0985
38.1584 19.9846
38.2056 19.9428
38.2529 19.8504
38.3 19.7648
38.3473 19.7376
38.3945 19.713
38.4418 19.5845
38.489 19.5352
38.5363 19.4589
38.5837 19.408
38.6309 19.332
38.6782 19.252
38.7254 19.187
38.7728 19.1879
38.82 19.064
38.8674 19.0539
38.9146 18.9767
38.9621 18.9444
39.0093 18.8454
39.0567 18.8016
39.104 18.7326
39.1514 18.6341
39.1987 18.5951
39.2461 18.5896
39.2934 18.4917
39.3409 18.3946
39.3882 18.3443
39.4356 18.3247
39.483 18.3022
39.5304 18.2416
39.5778 18.2056
39.6253 18.078
39.6726 17.9969
39.7201 18.0164
39.7675 17.9649
39.815 17.8642
39.8624 17.7906
39.9099 17.8332
39.9575 17.7326
40.0049 17.6288
40.0525 17.607
40.0999 17.5709
40.1474 17.5154
40.1949 17.3977
40.2425 17.4194
40.2899 17.3247
40.3375 17.3028
40.385 17.2095
40.4326 17.166
40.48 17.12
40.5277 17.0411
40.5752 16.9696
40.6228 16.8951
40.6703 16.8794
40.718 16.851
40.7655 16.7683
40.8132 16.711
40.8607 16.6763
40.9084 16.6416
40.9559 16.5623
41.0036 16.5283
41.0512 16.4616
41.0989 16.4541
41.1465 16.3777
41.1942 16.3436
41.242 16.1714
41.2896 16.1863
41.3373 16.1972
41.3849 16.1126
41.4327 16.0161
41.4803 15.9504
41.5281 15.9384
41.5758 15.8545
41.6236 15.7857
41.6712 15.7109
41.7191 15.6668
41.7667 15.6636
41.8146 15.6086
41.8622 15.551
41.9101 15.4623
41.9578 15.4311
42.0057 15.3742
42.0534 15.3495
42.1013 15.2971
42.149 15.2425
42.1969 15.1349
42.2446 15.1493
42.2925 15.0998
42.3403 15.0176
42.3882 14.9873
42.436 14.9886
42.4839 14.8853
42.5319 14.8448
42.5797 14.7981
42.6277 14.7482
42.6755 14.7231
42.7235 14.5715
42.7713 14.6453
42.8193 14.5073
42.8671 14.5137
42.9152 14.4528
42.963 14.4158
43.0111 14.381
43.0589 14.2951
43.107 14.2466
43.1549 14.1949
43.2029 14.161
43.2508 14.1191
43.2989 14.0259
43.3468 13.9585
43.3949 13.9691
43.4429 13.9268
43.491 13.8394
43.5389 13.8129
43.5871 13.7772
43.635 13.6861
43.6832 13.6638
43.7312 13.5787
43.7793 13.5463
43.8273 13.5246
43.8755 13.5049
43.9237 13.4219
43.9717 13.3905
44.0199 13.3364
44.068 13.3193
44.1162 13.2714
44.1642 13.2134
44.2125 13.1327
44.2606 13.1174
44.3088 13.0184
44.3569 13.0498
44.4052 12.9819
44.4533 12.9075
44.5016 12.8227
44.5497 12.8057
44.598 12.8429
44.6461 12.7607
44.6945 12.7061
44.7426 12.6259
44.791 12.5692
44.8391 12.5861
44.8875 12.4802
44.9357 12.469
44.984 12.4629
45.0322 12.3897
45.0806 12.3622
45.1288 12.2693
45.1773 12.2741
45.2257 12.2403
45.2739 12.2055
45.3224 12.1738
45.3706 12.0638
45.4191 12.0369
45.4673 11.99
45.5158 11.9376
45.5641 11.9219
45.6126 11.8812
45.6609 11.8187
45.7094 11.7644
45.7577 11.7178
45.8063 11.7097
45.8546 11.6991
45.9031 11.6267
45.9515 11.5607
46.0001 11.5466
46.0484 11.4807
46.097 11.4483
46.1454 11.4249
46.194 11.398
46.2424 11.3165
46.291 11.263
46.3395 11.2586
46.3881 11.185
46.4365 11.1857
46.4852 11.1302
46.5337 11.0463
46.5823 11.0765
46.631 11.0144
46.6795 10.9634
46.7282 10.9113
46.7767 10.8898
46.8254 10.8076
46.8739 10.7966
46.9226 10.7725
46.9712 10.7279
47.0199 10.6735
47.0685 10.6242
47.1173 10.5803
47.1658 10.54
47.2146 10.5199
47.2632 10.4477
47.312 10.4369
47.3606 10.4062
47.4095 10.3755
47.4581 10.2922
47.5069 10.3022
47.5556 10.1874
47.6044 10.224
47.6531 10.2046
47.702 10.1717
47.7507 10.1435
47.7996 10.0757
47.8483 10.0424
47.8972 10.0119
47.9461 9.98069
47.9948 9.90382
48.0438 9.88004
48.0925 9.86952
48.1415 9.82042
48.1902 9.77921
48.2392 9.75019
48.288 9.73628
48.337 9.6635
48.3858 9.63554
48.4348 9.59519
48.4837 9.58939
48.5327 9.53499
48.5815 9.52045
48.6306 9.4967
48.6795 9.43496
48.7285 9.3843
48.7774 9.36352
48.8265 9.34266
48.8754 9.27163
48.9245 9.26155
48.9734 9.23177
49.0226 9.21595
49.0715 9.15079
49.1206 9.12936
49.1696 9.10247
49.2188 9.04014
49.2679 9.00817
49.3169 9.02046
49.3661 8.9321
49.4151 8.90968
49.4643 8.92304
49.5134 8.82594
49.5626 8.78266
49.6117 8.79203
49.6609 8.74025
49.71 8.72534
49.7592 8.67868
49.8083 8.66206
49.8576 8.64446
49.9067 8.5661
49.956 8.54389
50.0052 8.496
50.0545 8.49851
50.1036 8.42
50.153 8.41633
50.2022 8.40207
50.2515 8.34641
50.3007 8.28842
50.3501 8.25392
50.3993 8.26035
50.4487 8.19881
50.498 8.21758
50.5474 8.17388
50.5966 8.14057
50.6461 8.13749
50.6955 8.10962
50.7448 8.03836
50.7943 8.03706
50.8436 7.98371
50.8931 7.96984
50.9424 7.90786
50.9919 7.90934
51.0413 7.84995
51.0908 7.81556
51.1402 7.7947
51.1897 7.74025
51.2391 7.75051
51.2887 7.70477
51.3381 7.65679
51.3877 7.65622
51.4371 7.61056
51.4867 7.5825
51.5362 7.5398
51.5858 7.50603
51.6353 7.4624
51.6849 7.43694
51.7344 7.38446
51.7841 7.39394
51.8336 7.32608
51.8833 7.38196
51.9328 7.31295
51.9826 7.22416
52.0323 7.23049
52.0818 7.20442
52.1316 7.15207
52.1812 7.1404
52.231 7.1073
52.2806 7.10237
52.3304 7.05153
52.38 7.03982
52.4298 7.00372
52.4794 6.98919
52.5293 6.94874
52.5789 6.93959
52.6288 6.88207
52.6785 6.85025
52.7284 6.84621
52.7781 6.79105
52.828 6.76455
52.8777 6.73103
52.9276 6.69918
52.9774 6.70205
53.0273 6.66971
53.0771 6.6143
53.1271 6.62478
53.1769 6.5423
53.2269 6.55197
53.2767 6.52045
53.3267 6.48554
53.3765 6.46942
53.4266 6.43689
53.4766 6.43109
53.5265 6.39511
53.5765 6.38568
53.6264 6.37385
53.6765 6.30147
53.7264 6.22828
53.7765 6.24681
53.8265 6.18421
53.8766 6.17976
53.9266 6.1425
53.9767 6.10916
54.0267 6.09771
54.0769 6.04952
54.1269 6.01873
54.1771 6.02568
54.2271 5.94278
54.2773 5.94238
54.3274 5.9111
54.3776 5.81604
54.4277 5.86006
54.478 5.75768
54.528 5.74771
54.5783 5.70534
54.6285 5.64845
54.6788 5.5823
54.7289 5.56616
54.7792 5.53494
54.8296 5.49695
54.8798 5.42406
54.9301 5.39414
54.9803 5.37899
55.0307 5.35079
55.0809 5.28726
55.1314 5.25895
55.1816 5.20874
55.232 5.15924
55.2823 5.06865
55.3328 4.97896
55.383 5.01815
55.4335 4.93418
55.4838 4.87441
55.5344 4.8618
55.5847 4.78272
55.6352 4.76875
55.6856 4.76926
55.7361 4.69651