File: XRD/Ni3Fe_FD0190.xy
TT I
1.27165 7.85139
1.31627 6.84399
1.36089 7.1511
1.40551 7.52715
1.45013 6.45681
1.49476 6.14971
1.53938 5.97778
1.584 5.97527
1.62863 4.90649
1.67325 5.74737
1.71787 5.12566
1.7625 5.51167
1.80712 5.23241
1.85174 4.87351
1.89636 4.76944
1.94099 5.25676
1.98562 5.01861
2.03025 4.49899
2.07487 4.41956
2.11949 5.04261
2.16411 4.74808
2.20874 5.29186
2.25338 4.78343
2.298 4.44033
2.34263 4.8006
2.38725 4.35961
2.43188 4.62679
2.4765 4.88781
2.52115 4.2811
2.56577 5.20083
2.6104 5.59292
2.65503 5.79394
2.69965 5.76087
2.7443 6.4273
2.78893 6.8587
2.83356 7.1575
2.87818 8.88867
2.92281 8.70567
2.96744 9.77993
3.01209 10.5497
3.05672 11.4816
3.10135 12.5274
3.14599 13.4303
3.19062 14.1591
3.23527 15.1938
3.2799 15.9818
3.32454 16.9869
3.36917 17.9195
3.4138 18.8012
3.45844 19.7447
3.50309 20.9684
3.54773 21.5539
3.59237 22.4157
3.637 23.2814
3.68164 23.847
3.7263 24.6177
3.77094 25.4868
3.81558 26.7821
3.86022 27.3038
3.90486 28.6715
3.9495 29.4855
3.99416 30.6375
4.0388 31.4899
4.08344 32.9754
4.12809 33.6644
4.17273 35.136
4.21738 36.494
4.26204 38.2148
4.30669 39.2744
4.35133 41.3992
4.39598 42.8422
4.44063 44.3496
4.4853 46.6345
4.52995 48.6787
4.5746 51.1662
4.61925 54.2397
4.6639 56.3257
4.70855 58.7674
4.75322 62.2819
4.79788 65.0243
4.84253 68.4538
4.88719 73.2385
4.93184 78.4543
4.97652 85.282
5.02118 93.9367
5.06583 104.382
5.11049 120.163
5.15515 157.516
5.19981 585.944
5.24449 3930.59
5.28916 9124.98
5.33382 5420.82
5.37848 366.356
5.42315 159.84
5.46783 128.825
5.5125 116.391
5.55716 110.214
5.60183 104.945
5.6465 102.002
5.69117 100.292
5.73586 98.3296
5.78053 97.8274
5.8252 98.642
5.86988 101.398
5.91455 107.829
5.95924 127.156
6.00392 307.971
6.0486 1432.68
6.09328 3065.88
6.13795 3906.87
6.18263 550.408
6.22733 116.983
6.27201 89.8001
6.3167 80.1042
6.36138 74.4361
6.40606 70.7494
6.45075 68.5301
6.49545 66.1332
6.54014 64.3819
6.58483 63.4503
6.62952 61.8677
6.67421 60.6967
6.71892 59.4549
6.76361 58.3962
6.8083 57.7813
6.853 56.8189
6.89769 56.6617
6.94239 56.1827
6.98711 55.4899
7.03181 55.0662
7.07651 55.0807
7.12121 54.2845
7.16591 54.2281
7.21063 54.0037
7.25533 53.7695
7.30004 53.5818
7.34475 53.8321
7.38945 54.112
7.43416 53.8779
7.47889 53.9353
7.5236 57.3786
7.56831 62.638
7.61303 56.0715
7.65774 55.4064
7.70247 55.7533
7.74719 56.3061
7.79191 56.8296
7.83663 57.4043
7.88135 58.483
7.92607 59.0992
7.97081 60.2665
8.01553 61.3262
8.06026 62.9284
8.10498 64.1716
8.14971 65.9728
8.19446 67.8515
8.23919 70.4248
8.28392 73.6869
8.32865 76.3598
8.37339 81.2703
8.41812 86.645
8.46288 99.0143
8.50761 192.38
8.55235 616.292
8.59709 958.261
8.64183 1657.57
8.68658 1487.56
8.73134 326.244
8.77609 114.393
8.82083 98.9575
8.86558 93.5843
8.91033 90.7639
8.9551 87.9287
8.99985 86.991
9.04461 85.7649
9.08936 84.6926
9.13412 84.1637
9.17888 84.3718
9.22365 89.4469
9.26841 94.8046
9.31318 87.6861
9.35794 85.0118
9.4027 85.1538
9.44749 86.0102
9.49226 86.6539
9.53703 87.883
9.5818 89.4742
9.62657 90.3226
9.67134 91.7704
9.71614 94.064
9.76091 96.1949
9.80569 99.3778
9.85047 102.523
9.89525 107.405
9.94005 118.227
9.98484 205.984
10.0296 555.31
10.0744 767.56
10.1192 1174.53
10.164 1711.46
10.2088 814.617
10.2536 183.97
10.2984 117.134
10.3432 110.649
10.388 107.727
10.4328 129.492
10.4776 220.284
10.5224 272.303
10.5672 368.591
10.612 519.19
10.6568 333.18
10.7017 123.27
10.7465 91.7997
10.7913 86.1165
10.8361 83.1664
10.8809 80.6503
10.9257 78.2862
10.9706 76.6845
11.0154 74.9293
11.0602 73.8979
11.105 72.4306
11.1499 70.7811
11.1947 70.1506
11.2395 68.8676
11.2844 68.5821
11.3292 67.7317
11.374 66.71
11.4189 66.2552
11.4637 65.6946
11.5086 64.8264
11.5534 64.3625
11.5983 64.1985
11.6431 64.1605
11.688 63.6264
11.7328 63.5972
11.7777 63.2345
11.8225 63.1245
11.8674 63.4347
11.9122 64.7976
11.9571 66.8911
12.002 66.7496
12.0468 70.6604
12.0917 93.695
12.1366 109.596
12.1814 126.276
12.2263 164.535
12.2712 191.507
12.3161 125.854
12.3609 72.6673
12.4058 65.3744
12.4507 65.2612
12.4956 65.3593
12.5405 65.1139
12.5853 65.6765
12.6302 66.0084
12.6751 66.7083
12.72 67.4087
12.7649 68.4937
12.8098 69.2908
12.8547 70.506
12.8996 71.9325
12.9445 73.7653
12.9894 75.8306
13.0343 77.8307
13.0792 81.6798
13.1242 90.7113
13.1691 139.628
13.214 187.327
13.2589 214.627
13.3038 270.56
13.3487 375.711
13.3937 356.368
13.4386 182.674
13.4835 120.026
13.5285 157.069
13.5734 182.558
13.6183 204.852
13.6633 261.603
13.7082 343.366
13.7531 277.445
13.7981 135.129
13.843 87.8023
13.888 82.4028
13.9329 79.4553
13.9779 78.2304
14.0228 76.6233
14.0678 75.1071
14.1127 74.971
14.1577 75.4007
14.2027 73.9291
14.2476 72.1393
14.2926 71.3432
14.3376 70.7899
14.3825 70.7691
14.4275 69.9374
14.4725 70.3686
14.5175 70.5175
14.5624 70.4565
14.6074 70.7354
14.6524 71.4137
14.6974 71.7507
14.7424 73.6151
14.7874 85.0194
14.8324 108.916
14.8774 122.015
14.9224 133.851
14.9674 160.711
15.0124 203.567
15.0574 193.366
15.1024 122.884
15.1474 79.6986
15.1924 72.5209
15.2374 70.8856
15.2824 69.6459
15.3274 68.6713
15.3725 68.2137
15.4175 67.956
15.4625 67.5247
15.5076 67.3204
15.5526 67.482
15.5976 67.525
15.6426 68.4697
15.6877 77.3719
15.7327 97.0244
15.7778 107.793
15.8228 115.36
15.8679 133.99
15.9129 166.466
15.958 182.441
16.003 135.458
16.0481 81.1568
16.0931 66.1696
16.1382 62.9848
16.1833 61.7988
16.2283 60.2276
16.2734 59.6293
16.3185 58.8169
16.3636 58.182
16.4086 57.438
16.4537 56.9241
16.4988 56.4485
16.5439 56.6438
16.589 56.3518
16.6341 56.0265
16.6792 55.5689
16.7243 55.8954
16.7694 55.7166
16.8145 55.582
16.8596 55.7361
16.9047 56.1503
16.9498 56.4584
16.9949 56.446
17.04 56.8062
17.0851 58.6568
17.1302 62.5731
17.1754 65.4418
17.2205 66.8517
17.2656 69.7884
17.3108 76.0302
17.3559 81.9517
17.401 79.8986
17.4462 69.2073
17.4913 61.9514
17.5365 60.6268
17.5815 60.5015
17.6268 60.7348
17.6718 61.4498
17.7171 61.9885
17.7622 63.0059
17.8074 63.8036
17.8525 65.8396
17.8977 74.8828
17.9428 84.5718
17.9881 88.872
18.0331 94.2145
18.0784 103.714
18.1237 122.199
18.1688 143.35
18.214 133.927
18.2591 103.286
18.3044 88.5187
18.3495 90.084
18.3948 99.0219
18.4399 103.018
18.4852 90.708
18.5303 73.7332
18.5756 65.4334
18.6207 63.3344
18.666 62.286
18.7112 61.2222
18.7565 60.7448
18.8016 60.2021
18.8469 59.6193
18.892 59.2231
18.9374 58.6604
18.9825 58.2572
19.0278 58.1167
19.073 58.2741
19.1183 58.8957
19.1635 61.0716
19.2088 62.6705
19.254 63.4614
19.2993 64.9928
19.3447 67.6271
19.3898 71.6883
19.4352 75.0722
19.4804 71.0766
19.5257 62.4755
19.5709 56.6438
19.6163 55.362
19.6615 55.0872
19.7068 54.5655
19.752 54.6448
19.7974 54.7832
19.8426 56.2395
19.888 57.9287
19.9332 58.9593
19.9786 59.7718
20.0238 60.9594
20.0692 64.2042
20.1144 69.2451
20.1598 73.22
20.205 69.9253
20.2504 64.7437
20.2957 62.1873
20.3411 63.4381
20.3863 66.1142
20.4318 63.9005
20.477 58.0866
20.5224 53.5155
20.5677 51.9505
20.6131 51.5733
20.6586 50.8754
20.7038 50.8281
20.7493 50.2507
20.7945 50.3832
20.84 50.2375
20.8853 49.9557
20.9307 49.6353
20.976 49.986
21.0215 50.1587
21.0668 50.7036
21.1122 50.5491
21.1575 50.6992
21.203 51.0285
21.2483 51.7227
21.2938 52.5608
21.3391 52.1305
21.3846 51.1589
21.4299 50.0
21.4754 49.769
21.5207 49.8925
21.5662 50.1165
21.6116 50.7573
21.6571 52.4676
21.7024 53.7934
21.7479 54.8599
21.7933 55.7064
21.8388 57.431
21.8843 60.2744
21.9297 63.7281
21.9752 66.2549
22.0206 64.851
22.0661 59.8858
22.1115 56.7542
22.157 56.6168
22.2024 56.9951
22.248 54.8506
22.2933 52.3259
22.3389 50.6239
22.3843 50.1687
22.4299 49.9325
22.4753 49.9553
22.5208 49.8029
22.5662 49.7456
22.6118 49.9909
22.6572 50.2971
22.7028 51.2048
22.7483 52.2577
22.7939 52.6419
22.8393 53.017
22.8849 53.8683
22.9303 54.7222
22.9759 56.5435
23.0214 58.3482
23.067 58.3762
23.1126 55.3597
23.1581 52.0849
23.2037 50.378
23.2492 50.1238
23.2948 50.7348
23.3403 51.7582
23.3859 52.4553
23.4314 52.455
23.477 52.8645
23.5225 53.6045
23.5682 55.1507
23.6137 57.2542
23.6593 58.3794
23.7048 56.1984
23.7505 52.4569
23.796 49.0436
23.8417 47.5534
23.8872 46.9458
23.9329 46.5666
23.9784 46.0325
24.0241 45.861
24.0697 45.6092
24.1154 45.1946
24.1609 45.0691
24.2066 44.9192
24.2522 44.7623
24.2979 44.4767
24.3434 44.4231
24.3892 44.1412
24.4349 44.2775
24.4805 43.9525
24.5262 43.9126
24.5718 43.8012
24.6175 43.8953
24.6631 44.0641
24.7089 43.5312
24.7545 43.5371
24.8002 43.2984
24.8458 43.3455
24.8916 43.3913
24.9372 43.5016
24.983 43.8575
25.0286 43.9036
25.0744 44.3988
25.12 44.7674
25.1658 45.1361
25.2114 45.6488
25.2572 45.6684
25.3029 45.5475
25.3487 45.4493
25.3943 45.7165
25.4402 45.3868
25.4858 44.6371
25.5316 43.322
25.5773 42.2986
25.6231 42.0624
25.669 41.7549
25.7147 41.6022
25.7605 41.5801
25.8062 41.7615
25.8521 41.7488
25.8977 41.7193
25.9436 41.7405
25.9893 41.6688
26.0352 41.9824
26.0809 42.1519
26.1268 42.5237
26.1725 42.6685
26.2184 42.4881
26.2641 41.8066
26.31 41.4491
26.3557 41.4983
26.4017 41.4738
26.4474 41.429
26.4933 41.7191
26.5391 41.9742
26.585 42.2292
26.6308 42.3224
26.6767 42.9679
26.7225 43.3259
26.7684 43.02
26.8142 42.4606
26.8601 41.7138
26.9059 41.3705
26.9519 40.9491
26.9979 40.5474
27.0437 40.0637
27.0896 39.7524
27.1354 39.8791
27.1814 39.6842
27.2272 39.5261
27.2732 39.5897
27.3191 39.416
27.3651 39.4746
27.4109 39.2688
27.4569 39.3857
27.5027 39.3686
27.5488 39.4495
27.5946 39.5013
27.6407 39.3354
27.6865 39.3774
27.7326 39.1312
27.7784 39.0835
27.8245 38.8913
27.8703 38.9732
27.9164 39.2171
27.9623 39.294
28.0084 39.2511
28.0543 39.6234
28.1003 39.9036
28.1462 39.8538
28.1923 39.7601
28.2384 39.1815
28.2843 38.7212
28.3304 38.3954
28.3764 37.9526
28.4225 37.5255
28.4684 37.3406
28.5145 36.9814
28.5605 36.8229
28.6066 36.6182
28.6526 36.5492
28.6987 36.5313
28.7447 36.4995
28.7908 36.2936
28.8368 36.1521
28.8829 36.2164
28.9289 36.2425
28.9751 36.0648
29.0211 35.9732
29.0673 35.717
29.1133 35.543
29.1595 35.2869
29.2055 35.147
29.2517 35.2037
29.2977 34.9826
29.3439 34.9484
29.3899 34.8963
29.4361 34.9118
29.4824 34.9021
29.5284 34.7644
29.5746 34.4838
29.6207 34.0805
29.6669 34.0162
29.713 33.873
29.7593 33.7444
29.8053 33.6738
29.8516 33.6154
29.8977 33.5904
29.9439 33.4701
29.99 33.3345
30.0363 33.2205
30.0824 33.3161
30.1287 33.1824
30.1748 33.1352
30.2211 33.0644
30.2673 33.084
30.3136 33.2038
30.3597 33.1558
30.406 33.225
30.4522 32.96
30.4985 32.8781
30.5447 32.9083
30.591 32.8503
30.6372 32.9396
30.6835 32.8217
30.7297 32.9308
30.7761 32.8833
30.8224 32.831
30.8686 32.7796
30.915 32.5261
30.9612 32.4903
31.0076 32.2324
31.0538 31.9274
31.1002 32.0367
31.1464 31.7363
31.1928 31.7641
31.2391 31.7806
31.2855 31.5737
31.3317 31.644
31.3781 31.6861
31.4244 31.6442
31.4708 31.5136
31.5171 31.5331
31.5636 31.5272
31.6098 31.4518
31.6563 31.2893
31.7026 31.2137
31.7491 30.9367
31.7953 30.9596
31.8418 30.96
31.8881 30.8681
31.9346 30.8164
31.9809 30.666
32.0275 30.764
32.074 30.6743
32.1203 30.4503
32.1668 30.3711
32.2132 30.2417
32.2597 30.0539
32.306 29.9452
32.3526 29.6876
32.399 29.6692
32.4455 29.5347
32.4919 29.4199
32.5385 29.3921
32.5848 29.2064
32.6314 29.2429
32.6778 29.1597
32.7244 29.0484
32.7708 28.9428
32.8174 28.9947
32.8638 28.7507
32.9104 28.7801
32.9569 28.7734
33.0035 28.5987
33.0499 28.5192
33.0966 28.4309
33.143 28.4736
33.1897 28.3726
33.2361 28.2608
33.2828 28.2423
33.3293 28.2041
33.3759 28.1556
33.4226 27.9589
33.4691 27.8175
33.5158 27.6727
33.5623 27.6348
33.609 27.3697
33.6555 27.342
33.7022 27.2257
33.7487 27.1755
33.7954 27.1799
33.842 26.9326
33.8887 26.9264
33.9353 26.9413
33.982 26.7755
34.0286 26.6209
34.0753 26.5666
34.1219 26.5387
34.1687 26.405
34.2152 26.3862
34.262 26.2987
34.3086 26.2388
34.3554 26.1396
34.402 26.0008
34.4488 25.9248
34.4954 25.9024
34.5422 25.7937
34.5889 25.6252
34.6357 25.6032
34.6825 25.4446
34.7292 25.4448
34.776 25.3713
34.8227 25.3189
34.8695 25.2815
34.9162 25.2364
34.9631 25.0408
35.0098 25.0987
35.0566 24.9099
35.1033 24.9005
35.1502 24.7793
35.1969 24.7749
35.2438 24.7796
35.2906 24.6242
35.3375 24.6465
35.3842 24.4751
35.4311 24.566
35.4779 24.4487
35.5248 24.4962
35.5716 24.4074
35.6185 24.316
35.6653 24.2579
35.7123 24.1376
35.759 24.0571
35.806 23.9255
35.8528 23.7426
35.8998 23.8423
35.9468 23.6356
35.9936 23.653
36.0406 23.5695
36.0874 23.5367
36.1345 23.4357
36.1813 23.3705
36.2283 23.3192
36.2752 23.2095
36.3222 23.2327
36.3691 23.0959
36.4161 22.9931
36.463 23.0534
36.5101 22.9504
36.557 22.8841
36.6041 22.7878
36.651 22.7193
36.6981 22.7055
36.745 22.5656
36.7921 22.5113
36.839 22.4349
36.8861 22.4099
36.9331 22.281
36.9802 22.162
37.0272 22.1207
37.0743 22.0062
37.1213 22.0285
37.1684 21.855
37.2154 21.8177
37.2626 21.8133
37.3098 21.7308
37.3568 21.6821
37.404 21.5952
37.451 21.4723
37.4982 21.4448
37.5452 21.3234
37.5924 21.2979
37.6395 21.3543
37.6867 21.2418
37.7337 21.0473
37.781 21.0761
37.8281 20.975
37.8753 20.9116
37.9224 20.8556
37.9697 20.7939
38.0168 20.6855
38.064 20.6625
38.1111 20.5858
38.1584 20.6399
38.2056 20.4702
38.2529 20.3698
38.3 20.3083
38.3473 20.3627
38.3945 20.2364
38.4418 20.1694
38.489 20.0191
38.5363 20.0302
38.5837 19.9229
38.6309 19.8461
38.6782 19.8164
38.7254 19.7287
38.7728 19.6919
38.82 19.5646
38.8674 19.5706
38.9146 19.5192
38.9621 19.4079
39.0093 19.4502
39.0567 19.3372
39.104 19.2796
39.1514 19.1073
39.1987 19.1777
39.2461 19.0518
39.2934 19.0133
39.3409 18.8511
39.3882 18.8504
39.4356 18.8132
39.483 18.7772
39.5304 18.6723
39.5778 18.6323
39.6253 18.5704
39.6726 18.5892
39.7201 18.5057
39.7675 18.4288
39.815 18.3952
39.8624 18.279
39.9099 18.2688
39.9575 18.1608
40.0049 18.1585
40.0525 18.0448
40.0999 18.0593
40.1474 17.9501
40.1949 17.902
40.2425 17.7993
40.2899 17.778
40.3375 17.6894
40.385 17.6439
40.4326 17.6307
40.48 17.5614
40.5277 17.5765
40.5752 17.4416
40.6228 17.3951
40.6703 17.3063
40.718 17.317
40.7655 17.3048
40.8132 17.0796
40.8607 17.1309
40.9084 17.0736
40.9559 16.9805
41.0036 16.9892
41.0512 16.9562
41.0989 16.89
41.1465 16.7962
41.1942 16.7368
41.242 16.6796
41.2896 16.6692
41.3373 16.5134
41.3849 16.5174
41.4327 16.4871
41.4803 16.3747
41.5281 16.3485
41.5758 16.2503
41.6236 16.209
41.6712 16.1105
41.7191 16.1243
41.7667 16.0336
41.8146 16.0508
41.8622 15.9285
41.9101 15.9555
41.9578 15.8527
42.0057 15.7878
42.0534 15.7144
42.1013 15.6832
42.149 15.6399
42.1969 15.5729
42.2446 15.4906
42.2925 15.4735
42.3403 15.4423
42.3882 15.4061
42.436 15.3929
42.4839 15.2572
42.5319 15.2198
42.5797 15.158
42.6277 15.0857
42.6755 15.0539
42.7235 14.98
42.7713 14.9663
42.8193 14.9239
42.8671 14.8754
42.9152 14.7847
42.963 14.7493
43.0111 14.6641
43.0589 14.6498
43.107 14.5985
43.1549 14.5182
43.2029 14.5165
43.2508 14.4359
43.2989 14.4282
43.3468 14.3253
43.3949 14.3374
43.4429 14.3163
43.491 14.2135
43.5389 14.174
43.5871 14.1595
43.635 14.0366
43.6832 13.9913
43.7312 13.9561
43.7793 13.8924
43.8273 13.883
43.8755 13.8172
43.9237 13.7045
43.9717 13.7299
44.0199 13.6906
44.068 13.671
44.1162 13.6205
44.1642 13.5568
44.2125 13.5178
44.2606 13.4358
44.3088 13.3774
44.3569 13.3447
44.4052 13.3045
44.4533 13.2241
44.5016 13.1581
44.5497 13.1373
44.598 13.098
44.6461 13.089
44.6945 13.0481
44.7426 12.9735
44.791 12.9185
44.8391 12.8713
44.8875 12.8138
44.9357 12.7841
44.984 12.76
45.0322 12.7957
45.0806 12.6197
45.1288 12.5989
45.1773 12.5093
45.2257 12.5034
45.2739 12.4888
45.3224 12.4188
45.3706 12.3742
45.4191 12.2839
45.4673 12.297
45.5158 12.324
45.5641 12.2008
45.6126 12.1495
45.6609 12.1479
45.7094 12.0628
45.7577 12.0335
45.8063 11.9581
45.8546 11.9179
45.9031 11.9843
45.9515 11.8728
46.0001 11.8279
46.0484 11.808
46.097 11.7546
46.1454 11.712
46.194 11.641
46.2424 11.6155
46.291 11.5623
46.3395 11.5168
46.3881 11.4464
46.4365 11.4441
46.4852 11.4151
46.5337 11.3719
46.5823 11.3401
46.631 11.3107
46.6795 11.2525
46.7282 11.1958
46.7767 11.156
46.8254 11.066
46.8739 11.0134
46.9226 11.0151
46.9712 11.0014
47.0199 10.9428
47.0685 10.9363
47.1173 10.8387
47.1658 10.8255
47.2146 10.7947
47.2632 10.755
47.312 10.7106
47.3606 10.6991
47.4095 10.6129
47.4581 10.6239
47.5069 10.5566
47.5556 10.4974
47.6044 10.4806
47.6531 10.4436
47.702 10.3632
47.7507 10.401
47.7996 10.3147
47.8483 10.2871
47.8972 10.2643
47.9461 10.2235
47.9948 10.1903
48.0438 10.1236
48.0925 10.1212
48.1415 10.0341
48.1902 10.0202
48.2392 10.0303
48.288 9.96145
48.337 9.90334
48.3858 9.8698
48.4348 9.86435
48.4837 9.82538
48.5327 9.79481
48.5815 9.73732
48.6306 9.73812
48.6795 9.67567
48.7285 9.65056
48.7774 9.62378
48.8265 9.57466
48.8754 9.51913
48.9245 9.48702
48.9734 9.47458
49.0226 9.47384
49.0715 9.40991
49.1206 9.36146
49.1696 9.32292
49.2188 9.29469
49.2679 9.24463
49.3169 9.18139
49.3661 9.19134
49.4151 9.17172
49.4643 9.12947
49.5134 9.07835
49.5626 9.04109
49.6117 9.0339
49.6609 8.9841
49.71 8.89409
49.7592 8.90508
49.8083 8.86406
49.8576 8.83253
49.9067 8.82742
49.956 8.75873
50.0052 8.7128
50.0545 8.73134
50.1036 8.67148
50.153 8.61061
50.2022 8.58747
50.2515 8.53146
50.3007 8.5362
50.3501 8.46112
50.3993 8.49689
50.4487 8.46768
50.498 8.42622
50.5474 8.38294
50.5966 8.34545
50.6461 8.298
50.6955 8.26904
50.7448 8.24966
50.7943 8.25682
50.8436 8.21255
50.8931 8.18596
50.9424 8.11418
50.9919 8.06498
51.0413 8.04891
51.0908 8.02205
51.1402 7.97715
51.1897 7.97919
51.2391 7.93436
51.2887 7.89732
51.3381 7.86554
51.3877 7.8275
51.4371 7.79363
51.4867 7.75931
51.5362 7.73724
51.5858 7.66808
51.6353 7.63731
51.6849 7.63055
51.7344 7.61832
51.7841 7.59094
51.8336 7.52121
51.8833 7.49815
51.9328 7.46473
51.9826 7.42055
52.0323 7.4078
52.0818 7.38193
52.1316 7.30595
52.1812 7.31119
52.231 7.28987
52.2806 7.26123
52.3304 7.27234
52.38 7.23734
52.4298 7.15537
52.4794 7.14222
52.5293 7.13862
52.5789 7.10023
52.6288 7.07113
52.6785 7.02985
52.7284 6.9867
52.7781 6.93564
52.828 6.95445
52.8777 6.90672
52.9276 6.91115
52.9774 6.88232
53.0273 6.87033
53.0771 6.82324
53.1271 6.75042
53.1769 6.72215
53.2269 6.73156
53.2767 6.71078
53.3267 6.65888
53.3765 6.62619
53.4266 6.5535
53.4766 6.6162
53.5265 6.52082
53.5765 6.49412
53.6264 6.48374
53.6765 6.44504
53.7264 6.41425
53.7765 6.40302
53.8265 6.33152
53.8766 6.36076
53.9266 6.30782
53.9767 6.26422
54.0267 6.2818
54.0769 6.23497
54.1269 6.20965
54.1771 6.18054
54.2271 6.14825
54.2773 6.11223
54.3274 6.00854
54.3776 6.03257
54.4277 5.952
54.478 5.98888
54.528 5.94646
54.5783 5.82307
54.6285 5.80014
54.6788 5.79495
54.7289 5.71779
54.7792 5.62054
54.8296 5.65977
54.8798 5.53197
54.9301 5.55239
54.9803 5.5005
55.0307 5.54436
55.0809 5.40672
55.1314 5.41547
55.1816 5.26834
55.232 5.24132
55.2823 5.25429
55.3328 5.12181
55.383 5.16107
55.4335 5.04848
55.4838 5.01967
55.5344 4.97261
55.5847 4.94826
55.6352 4.93057
55.6856 4.90562
55.7361 4.85755