File: XRD/Ni3Fe_FD0819.xy
TT I
1.27165 7.22911
1.31627 6.98261
1.36089 6.67009
1.40551 5.46304
1.45013 6.27978
1.49476 5.60979
1.53938 5.73699
1.584 4.74436
1.62863 5.57425
1.67325 5.25606
1.71787 5.17918
1.7625 4.47889
1.80712 4.83843
1.85174 4.41366
1.89636 4.95239
1.94099 4.48028
1.98562 4.78216
2.03025 4.72038
2.07487 4.63394
2.11949 4.83606
2.16411 4.81158
2.20874 8.38074
2.25338 11.7039
2.298 5.03228
2.34263 5.76152
2.38725 5.54265
2.43188 6.30305
2.4765 7.31514
2.52115 7.40968
2.56577 7.82172
2.6104 8.68905
2.65503 8.08191
2.69965 8.00529
2.7443 8.30942
2.78893 8.42757
2.83356 8.40108
2.87818 8.69063
2.92281 9.23049
2.96744 9.7169
3.01209 10.2044
3.05672 10.8997
3.10135 12.4711
3.14599 13.268
3.19062 14.8032
3.23527 14.8592
3.2799 15.4965
3.32454 16.8244
3.36917 17.7528
3.4138 19.0387
3.45844 20.1
3.50309 20.5884
3.54773 21.3387
3.59237 23.3653
3.637 47.4807
3.68164 36.2833
3.7263 25.3835
3.77094 25.6564
3.81558 26.4504
3.86022 27.3209
3.90486 28.1324
3.9495 29.9189
3.99416 30.4154
4.0388 32.2321
4.08344 32.7182
4.12809 34.3815
4.17273 35.5495
4.21738 38.5517
4.26204 114.217
4.30669 102.321
4.35133 44.1641
4.39598 42.7595
4.44063 48.2904
4.4853 53.4024
4.52995 57.1158
4.5746 57.8121
4.61925 53.7457
4.6639 55.474
4.70855 58.2341
4.75322 61.2842
4.79788 68.4081
4.84253 68.1041
4.88719 75.1767
4.93184 75.9218
4.97652 80.0433
5.02118 86.8985
5.06583 93.9387
5.11049 105.068
5.15515 155.644
5.19981 400.972
5.24449 2879.68
5.28916 12419.7
5.33382 2465.92
5.37848 192.376
5.42315 129.806
5.46783 119.434
5.5125 112.019
5.55716 101.377
5.60183 97.8105
5.6465 95.4996
5.69117 94.1171
5.73586 92.108
5.78053 98.3102
5.8252 97.8691
5.86988 101.237
5.91455 94.3489
5.95924 103.458
6.00392 240.053
6.0486 966.102
6.09328 4578.98
6.13795 3015.59
6.18263 208.987
6.22733 89.3918
6.27201 79.6236
6.3167 83.3818
6.36138 73.6009
6.40606 69.4511
6.45075 69.6805
6.49545 64.9871
6.54014 62.9318
6.58483 62.3385
6.62952 62.3429
6.67421 71.9149
6.71892 86.4862
6.76361 61.005
6.8083 58.9744
6.853 59.6426
6.89769 56.195
6.94239 55.5911
6.98711 54.8606
7.03181 55.4555
7.07651 54.4051
7.12121 54.1869
7.16591 55.5106
7.21063 54.6864
7.25533 59.3766
7.30004 96.7506
7.34475 66.2569
7.38945 54.398
7.43416 53.5477
7.47889 53.057
7.5236 53.873
7.56831 54.4244
7.61303 55.1427
7.65774 55.6779
7.70247 56.3659
7.74719 56.0497
7.79191 55.8139
7.83663 56.1453
7.88135 57.1883
7.92607 57.865
7.97081 59.0085
8.01553 60.2511
8.06026 62.2428
8.10498 63.7083
8.14971 70.2657
8.19446 70.4687
8.23919 68.7193
8.28392 71.3804
8.32865 73.4105
8.37339 78.1457
8.41812 82.9043
8.46288 102.077
8.50761 177.326
8.55235 381.969
8.59709 1223.8
8.64183 2212.05
8.68658 838.147
8.73134 146.108
8.77609 96.855
8.82083 91.369
8.86558 92.3183
8.91033 91.6481
8.9551 88.9632
8.99985 84.8609
9.04461 83.2259
9.08936 83.563
9.13412 82.2162
9.17888 81.4963
9.22365 81.7045
9.26841 81.3529
9.31318 84.236
9.35794 86.3572
9.4027 85.259
9.44749 84.7591
9.49226 84.389
9.53703 85.1048
9.5818 89.1093
9.62657 94.0719
9.67134 94.6812
9.71614 92.256
9.76091 94.2519
9.80569 99.1997
9.85047 101.192
9.89525 111.056
9.94005 126.082
9.98484 189.637
10.0296 342.711
10.0744 839.002
10.1192 1830.43
10.164 1507.3
10.2088 346.728
10.2536 120.111
10.2984 108.067
10.3432 107.345
10.388 104.411
10.4328 121.317
10.4776 162.793
10.5224 295.813
10.5672 539.093
10.612 489.889
10.6568 183.788
10.7017 93.5391
10.7465 85.2921
10.7913 82.4692
10.8361 80.2608
10.8809 78.0852
10.9257 77.0278
10.9706 77.5537
11.0154 74.7263
11.0602 72.3254
11.105 70.8281
11.1499 71.3131
11.1947 73.1415
11.2395 69.5372
11.2844 67.5873
11.3292 66.4556
11.374 65.6712
11.4189 64.9924
11.4637 64.0025
11.5086 63.8253
11.5534 64.8585
11.5983 63.6106
11.6431 62.7575
11.688 62.2241
11.7328 62.4048
11.7777 62.0158
11.8225 62.1705
11.8674 61.9781
11.9122 61.9543
11.9571 62.5245
12.002 63.9997
12.0468 68.335
12.0917 77.874
12.1366 103.194
12.1814 161.06
12.2263 215.655
12.2712 162.881
12.3161 86.3928
12.3609 66.3805
12.4058 63.19
12.4507 63.4066
12.4956 63.8907
12.5405 64.5747
12.5853 64.6708
12.6302 67.6781
12.6751 69.5542
12.72 67.4796
12.7649 67.0855
12.8098 67.6949
12.8547 69.3743
12.8996 70.904
12.9445 72.5145
12.9894 74.1658
13.0343 75.4549
13.0792 79.972
13.1242 92.3887
13.1691 111.171
13.214 149.328
13.2589 249.209
13.3038 393.985
13.3487 412.404
13.3937 233.992
13.4386 117.529
13.4835 105.802
13.5285 120.164
13.5734 161.899
13.6183 259.031
13.6633 366.074
13.7082 327.704
13.7531 169.627
13.7981 93.1333
13.843 80.6908
13.888 78.9282
13.9329 76.6308
13.9779 75.0942
14.0228 73.6579
14.0678 72.4715
14.1127 71.6684
14.1577 71.2105
14.2027 70.369
14.2476 69.6099
14.2926 69.265
14.3376 69.6153
14.3825 69.0006
14.4275 68.2453
14.4725 68.295
14.5175 68.2422
14.5624 68.3922
14.6074 69.2074
14.6524 69.7822
14.6974 70.004
14.7424 73.2431
14.7874 79.0988
14.8324 88.5211
14.8774 112.1
14.9224 160.271
14.9674 218.539
15.0124 218.934
15.0574 140.269
15.1024 85.7782
15.1474 71.3551
15.1924 69.4694
15.2374 68.872
15.2824 67.9007
15.3274 66.8386
15.3725 66.1447
15.4175 65.5754
15.4625 65.1249
15.5076 65.0567
15.5526 65.2502
15.5976 65.2999
15.6426 67.8577
15.6877 72.1956
15.7327 79.5543
15.7778 95.3747
15.8228 129.812
15.8679 177.614
15.9129 197.38
15.958 146.144
16.003 88.4234
16.0481 65.5708
16.0931 62.3173
16.1382 60.8413
16.1833 59.5528
16.2283 58.0588
16.2734 57.7272
16.3185 57.0611
16.3636 56.9268
16.4086 56.2505
16.4537 55.2776
16.4988 54.9432
16.5439 54.8708
16.589 54.6129
16.6341 54.3852
16.6792 53.8052
16.7243 54.0711
16.7694 53.9797
16.8145 53.8229
16.8596 54.2008
16.9047 55.073
16.9498 55.2244
16.9949 54.8113
17.04 55.5202
17.0851 56.7179
17.1302 58.1776
17.1754 61.2743
17.2205 66.9259
17.2656 75.1836
17.3108 83.8825
17.3559 80.5879
17.401 68.5606
17.4462 60.7969
17.4913 58.5106
17.5365 58.5104
17.5815 58.4441
17.6268 59.0696
17.6718 59.6504
17.7171 60.1131
17.7622 60.6183
17.8074 61.7214
17.8525 64.8078
17.8977 67.7807
17.9428 73.2976
17.9881 83.0123
18.0331 101.931
18.0784 125.917
18.1237 141.457
18.1688 126.638
18.214 98.733
18.2591 84.8371
18.3044 91.0401
18.3495 101.626
18.3948 105.353
18.4399 91.9299
18.4852 74.0085
18.5303 64.3569
18.5756 61.3211
18.6207 60.2921
18.666 59.4916
18.7112 58.8566
18.7565 58.3493
18.8016 57.899
18.8469 57.2951
18.892 57.0241
18.9374 56.5866
18.9825 56.1153
19.0278 56.1942
19.073 56.6558
19.1183 56.7496
19.1635 57.1468
19.2088 58.6346
19.254 61.8234
19.2993 66.8475
19.3447 72.4992
19.3898 75.572
19.4352 69.6952
19.4804 60.7675
19.5257 55.4804
19.5709 53.6155
19.6163 53.3162
19.6615 53.0677
19.7068 52.7004
19.752 52.8542
19.7974 53.2679
19.8426 53.8644
19.888 54.3071
19.9332 55.8195
19.9786 58.5467
20.0238 62.8057
20.0692 67.9364
20.1144 69.7881
20.1598 66.8981
20.205 62.1711
20.2504 61.7167
20.2957 64.042
20.3411 65.3215
20.3863 62.3559
20.4318 56.6364
20.477 52.3951
20.5224 50.2819
20.5677 49.865
20.6131 49.5546
20.6586 49.0749
20.7038 48.9617
20.7493 48.3542
20.7945 48.4073
20.84 48.2537
20.8853 48.2557
20.9307 48.1845
20.976 48.2001
21.0215 48.2016
21.0668 48.5162
21.1122 49.1068
21.1575 49.7968
21.203 50.599
21.2483 51.0709
21.2938 50.9644
21.3391 49.4933
21.3846 48.3141
21.4299 47.964
21.4754 47.9331
21.5207 48.1225
21.5662 48.5155
21.6116 48.867
21.6571 49.4521
21.7024 50.477
21.7479 52.4059
21.7933 55.297
21.8388 59.1941
21.8843 63.1541
21.9297 64.1913
21.9752 61.6423
22.0206 57.9686
22.0661 55.8289
22.1115 55.7366
22.157 55.361
22.2024 53.3743
22.248 50.5451
22.2933 49.0801
22.3389 48.5793
22.3843 48.2919
22.4299 48.2755
22.4753 48.0755
22.5208 48.1445
22.5662 48.025
22.6118 48.2826
22.6572 48.4188
22.7028 48.9487
22.7483 49.2422
22.7939 50.0838
22.8393 51.7466
22.8849 53.8799
22.9303 56.101
22.9759 57.444
23.0214 56.4477
23.067 53.4718
23.1126 50.1144
23.1581 48.5142
23.2037 48.2693
23.2492 48.4061
23.2948 48.3704
23.3403 48.5957
23.3859 49.2447
23.4314 50.5605
23.477 52.5045
23.5225 54.7532
23.5682 56.9777
23.6137 57.3733
23.6593 54.3266
23.7048 50.2181
23.7505 47.4359
23.796 46.024
23.8417 45.4698
23.8872 45.0193
23.9329 44.6893
23.9784 44.4832
24.0241 44.1003
24.0697 43.9206
24.1154 43.601
24.1609 43.372
24.2066 43.3996
24.2522 43.3171
24.2979 42.9683
24.3434 42.8877
24.3892 42.6973
24.4349 42.6668
24.4805 42.6533
24.5262 42.6749
24.5718 42.6156
24.6175 42.5867
24.6631 42.2956
24.7089 41.8634
24.7545 41.8714
24.8002 41.9029
24.8458 41.7971
24.8916 41.5421
24.9372 41.8198
24.983 42.198
25.0286 42.4248
25.0744 42.895
25.12 43.4729
25.1658 44.0119
25.2114 44.2287
25.2572 44.236
25.3029 44.3619
25.3487 44.4579
25.3943 43.926
25.4402 42.8461
25.4858 41.6694
25.5316 40.9289
25.5773 40.3518
25.6231 40.3416
25.669 40.1261
25.7147 40.1014
25.7605 40.0063
25.8062 40.1156
25.8521 40.207
25.8977 40.0439
25.9436 40.4798
25.9893 40.6752
26.0352 41.286
26.0809 41.1786
26.1268 41.3426
26.1725 40.8058
26.2184 40.4016
26.2641 39.7438
26.31 39.5727
26.3557 39.6941
26.4017 39.7073
26.4474 39.9603
26.4933 40.3096
26.5391 40.9008
26.585 41.402
26.6308 41.6605
26.6767 41.7652
26.7225 41.5242
26.7684 40.9316
26.8142 40.2984
26.8601 39.8806
26.9059 39.4794
26.9519 39.128
26.9979 38.6606
27.0437 38.4913
27.0896 38.325
27.1354 38.2802
27.1814 38.1883
27.2272 38.2378
27.2732 38.23
27.3191 37.9862
27.3651 38.0702
27.4109 38.0906
27.4569 38.1687
27.5027 38.2008
27.5488 38.2076
27.5946 38.02
27.6407 37.7493
27.6865 37.6502
27.7326 37.4705
27.7784 37.4767
27.8245 37.382
27.8703 37.7208
27.9164 37.9468
27.9623 38.0645
28.0084 38.4577
28.0543 38.8501
28.1003 38.5848
28.1462 38.3561
28.1923 37.9227
28.2384 37.4123
28.2843 37.1409
28.3304 36.593
28.3764 36.2578
28.4225 35.9667
28.4684 35.8282
28.5145 35.5393
28.5605 35.3585
28.6066 35.212
28.6526 35.2458
28.6987 35.2074
28.7447 35.1962
28.7908 35.0304
28.8368 35.13
28.8829 34.995
28.9289 34.9931
28.9751 34.7708
29.0211 34.4825
29.0673 34.3473
29.1133 34.1871
29.1595 34.0638
29.2055 33.9723
29.2517 33.9395
29.2977 34.0146
29.3439 33.8485
29.3899 33.8618
29.4361 33.7366
29.4824 33.5205
29.5284 33.2664
29.5746 33.1026
29.6207 32.7689
29.6669 32.719
29.713 32.6089
29.7593 32.505
29.8053 32.4828
29.8516 32.4734
29.8977 32.3868
29.9439 32.2645
29.99 32.1817
30.0363 32.116
30.0824 32.1786
30.1287 32.1172
30.1748 32.0847
30.2211 32.1184
30.2673 31.9044
30.3136 31.9179
30.3597 31.9492
30.406 31.8388
30.4522 31.7894
30.4985 31.6446
30.5447 31.9472
30.591 31.8548
30.6372 31.8942
30.6835 31.9414
30.7297 31.8962
30.7761 31.8073
30.8224 31.5372
30.8686 31.5256
30.915 31.3219
30.9612 31.182
31.0076 30.988
31.0538 30.7881
31.1002 30.7484
31.1464 30.6872
31.1928 30.6494
31.2391 30.5843
31.2855 30.511
31.3317 30.6263
31.3781 30.5781
31.4244 30.5949
31.4708 30.5138
31.5171 30.5619
31.5636 30.4455
31.6098 30.1669
31.6563 29.9654
31.7026 29.8745
31.7491 29.9676
31.7953 29.9083
31.8418 29.9314
31.8881 29.9328
31.9346 29.8107
31.9809 29.801
32.0275 29.5894
32.074 29.3979
32.1203 29.2313
32.1668 29.2018
32.2132 29.0791
32.2597 28.9747
32.306 28.7993
32.3526 28.6915
32.399 28.6792
32.4455 28.4813
32.4919 28.3184
32.5385 28.4089
32.5848 28.1534
32.6314 28.2249
32.6778 28.1778
32.7244 28.0371
32.7708 27.8818
32.8174 27.9055
32.8638 27.8268
32.9104 27.8198
32.9569 27.6496
33.0035 27.5434
33.0499 27.5957
33.0966 27.4941
33.143 27.4607
33.1897 27.3662
33.2361 27.3445
33.2828 27.2989
33.3293 27.1583
33.3759 27.1146
33.4226 26.9335
33.4691 26.8511
33.5158 26.7111
33.5623 26.6104
33.609 26.5223
33.6555 26.4787
33.7022 26.366
33.7487 26.196
33.7954 26.2511
33.842 26.108
33.8887 26.0271
33.9353 26.0174
33.982 25.8423
34.0286 25.8215
34.0753 25.8005
34.1219 25.6988
34.1687 25.5722
34.2152 25.5361
34.262 25.2984
34.3086 25.2463
34.3554 25.2735
34.402 25.1457
34.4488 25.0345
34.4954 24.9592
34.5422 24.9127
34.5889 24.8044
34.6357 24.7458
34.6825 24.6383
34.7292 24.6553
34.776 24.5453
34.8227 24.433
34.8695 24.3704
34.9162 24.2663
34.9631 24.218
35.0098 24.2414
35.0566 24.0767
35.1033 24.094
35.1502 24.0314
35.1969 23.9744
35.2438 23.9191
35.2906 23.8695
35.3375 23.8456
35.3842 23.7345
35.4311 23.7755
35.4779 23.732
35.5248 23.6591
35.5716 23.5582
35.6185 23.4702
35.6653 23.3288
35.7123 23.3292
35.759 23.1636
35.806 23.1158
35.8528 23.0283
35.8998 22.9711
35.9468 22.9067
35.9936 22.8227
36.0406 22.7165
36.0874 22.8019
36.1345 22.6306
36.1813 22.6029
36.2283 22.3903
36.2752 22.3236
36.3222 22.3915
36.3691 22.3591
36.4161 22.2705
36.463 22.2742
36.5101 22.1926
36.557 22.129
36.6041 21.9198
36.651 22.0084
36.6981 21.8794
36.745 21.8091
36.7921 21.7663
36.839 21.6052
36.8861 21.4743
36.9331 21.5012
36.9802 21.5193
37.0272 21.3789
37.0743 21.3129
37.1213 21.2544
37.1684 21.1672
37.2154 21.1636
37.2626 21.0096
37.3098 20.9407
37.3568 20.9075
37.404 20.8672
37.451 20.8211
37.4982 20.6882
37.5452 20.6664
37.5924 20.5506
37.6395 20.6184
37.6867 20.5236
37.7337 20.3797
37.781 20.3016
37.8281 20.2359
37.8753 20.1741
37.9224 20.1141
37.9697 20.0357
38.0168 19.9841
38.064 19.9676
38.1111 19.8752
38.1584 19.795
38.2056 19.7518
38.2529 19.7266
38.3 19.6104
38.3473 19.5996
38.3945 19.5157
38.4418 19.4488
38.489 19.3858
38.5363 19.2896
38.5837 19.2447
38.6309 19.1534
38.6782 19.1269
38.7254 19.0996
38.7728 19.0154
38.82 18.9012
38.8674 18.9186
38.9146 18.8364
38.9621 18.8002
39.0093 18.6741
39.0567 18.6837
39.104 18.6466
39.1514 18.5442
39.1987 18.4961
39.2461 18.4617
39.2934 18.3669
39.3409 18.3062
39.3882 18.2221
39.4356 18.2166
39.483 18.1382
39.5304 18.0493
39.5778 18.0223
39.6253 18.0009
39.6726 17.8704
39.7201 17.8278
39.7675 17.8386
39.815 17.7575
39.8624 17.661
39.9099 17.6338
39.9575 17.573
40.0049 17.5822
40.0525 17.4973
40.0999 17.4226
40.1474 17.367
40.1949 17.2128
40.2425 17.1898
40.2899 17.2183
40.3375 17.1555
40.385 17.0443
40.4326 17.0022
40.48 17.0095
40.5277 16.9297
40.5752 16.9034
40.6228 16.7413
40.6703 16.7839
40.718 16.6706
40.7655 16.6019
40.8132 16.5199
40.8607 16.5284
40.9084 16.5179
40.9559 16.419
41.0036 16.4198
41.0512 16.3954
41.0989 16.2814
41.1465 16.1583
41.1942 16.1375
41.242 16.1114
41.2896 16.0435
41.3373 15.9955
41.3849 15.9413
41.4327 15.8284
41.4803 15.7926
41.5281 15.8311
41.5758 15.7005
41.6236 15.6794
41.6712 15.641
41.7191 15.5522
41.7667 15.5092
41.8146 15.4583
41.8622 15.3881
41.9101 15.3825
41.9578 15.2785
42.0057 15.2739
42.0534 15.1974
42.1013 15.1569
42.149 15.1333
42.1969 15.0597
42.2446 15.003
42.2925 14.9475
42.3403 14.9151
42.3882 14.8448
42.436 14.8351
42.4839 14.739
42.5319 14.7553
42.5797 14.6549
42.6277 14.6044
42.6755 14.568
42.7235 14.5047
42.7713 14.4576
42.8193 14.46
42.8671 14.3599
42.9152 14.2991
42.963 14.2883
43.0111 14.208
43.0589 14.1941
43.107 14.1014
43.1549 14.103
43.2029 14.003
43.2508 13.9174
43.2989 13.9699
43.3468 13.8213
43.3949 13.8573
43.4429 13.7396
43.491 13.7393
43.5389 13.6711
43.5871 13.6864
43.635 13.5971
43.6832 13.571
43.7312 13.4727
43.7793 13.4668
43.8273 13.4407
43.8755 13.3205
43.9237 13.289
43.9717 13.2833
44.0199 13.184
44.068 13.2108
44.1162 13.1176
44.1642 13.0621
44.2125 13.0524
44.2606 13.0288
44.3088 12.9696
44.3569 12.9221
44.4052 12.8378
44.4533 12.7723
44.5016 12.7235
44.5497 12.7105
44.598 12.6843
44.6461 12.6175
44.6945 12.5666
44.7426 12.5431
44.791 12.4861
44.8391 12.48
44.8875 12.432
44.9357 12.4111
44.984 12.2698
45.0322 12.2779
45.0806 12.2358
45.1288 12.1624
45.1773 12.135
45.2257 12.1047
45.2739 12.0294
45.3224 12.0369
45.3706 11.9741
45.4191 11.9278
45.4673 11.9083
45.5158 11.8607
45.5641 11.7857
45.6126 11.7571
45.6609 11.7119
45.7094 11.6762
45.7577 11.6722
45.8063 11.5786
45.8546 11.5463
45.9031 11.5262
45.9515 11.4806
46.0001 11.4197
46.0484 11.4416
46.097 11.387
46.1454 11.3214
46.194 11.3006
46.2424 11.269
46.291 11.1983
46.3395 11.1752
46.3881 11.1122
46.4365 11.0972
46.4852 11.0459
46.5337 10.9673
46.5823 10.9223
46.631 10.9108
46.6795 10.874
46.7282 10.8135
46.7767 10.8295
46.8254 10.776
46.8739 10.7152
46.9226 10.6636
46.9712 10.6413
47.0199 10.6083
47.0685 10.5454
47.1173 10.5081
47.1658 10.4737
47.2146 10.4587
47.2632 10.3922
47.312 10.3654
47.3606 10.3285
47.4095 10.267
47.4581 10.2724
47.5069 10.2097
47.5556 10.1682
47.6044 10.1028
47.6531 10.108
47.702 10.069
47.7507 10.011
47.7996 9.98901
47.8483 9.96673
47.8972 9.89268
47.9461 9.85017
47.9948 9.85648
48.0438 9.80712
48.0925 9.73756
48.1415 9.74053
48.1902 9.67838
48.2392 9.70864
48.288 9.63053
48.337 9.59964
48.3858 9.52638
48.4348 9.55633
48.4837 9.51988
48.5327 9.46045
48.5815 9.37975
48.6306 9.3964
48.6795 9.35142
48.7285 9.29816
48.7774 9.28533
48.8265 9.26338
48.8754 9.21576
48.9245 9.16086
48.9734 9.14248
49.0226 9.13959
49.0715 9.06458
49.1206 9.04897
49.1696 8.98688
49.2188 8.98236
49.2679 8.91383
49.3169 8.92362
49.3661 8.85764
49.4151 8.84338
49.4643 8.81029
49.5134 8.77689
49.5626 8.69615
49.6117 8.72731
49.6609 8.64212
49.71 8.63813
49.7592 8.56313
49.8083 8.56821
49.8576 8.5676
49.9067 8.48326
49.956 8.45937
50.0052 8.43332
50.0545 8.37844
50.1036 8.39832
50.153 8.29216
50.2022 8.30364
50.2515 8.27875
50.3007 8.20169
50.3501 8.22095
50.3993 8.20133
50.4487 8.16133
50.498 8.10435
50.5474 8.08701
50.5966 8.07362
50.6461 8.04365
50.6955 8.02311
50.7448 7.9624
50.7943 7.93423
50.8436 7.90548
50.8931 7.85802
50.9424 7.84124
50.9919 7.82853
51.0413 7.77657
51.0908 7.75708
51.1402 7.70714
51.1897 7.68342
51.2391 7.65133
51.2887 7.63547
51.3381 7.61
51.3877 7.57543
51.4371 7.54682
51.4867 7.49223
51.5362 7.46758
51.5858 7.43056
51.6353 7.40103
51.6849 7.41383
51.7344 7.34727
51.7841 7.35015
51.8336 7.27734
51.8833 7.23738
51.9328 7.20489
51.9826 7.1849
52.0323 7.18528
52.0818 7.09722
52.1316 7.10088
52.1812 7.09164
52.231 7.0632
52.2806 7.03637
52.3304 6.98469
52.38 6.93282
52.4298 6.93291
52.4794 6.88261
52.5293 6.86253
52.5789 6.81749
52.6288 6.8144
52.6785 6.75904
52.7284 6.7548
52.7781 6.71837
52.828 6.73427
52.8777 6.70298
52.9276 6.65103
52.9774 6.60684
53.0273 6.594
53.0771 6.55689
53.1271 6.56971
53.1769 6.52787
53.2269 6.50692
53.2767 6.47732
53.3267 6.45601
53.3765 6.3862
53.4266 6.37547
53.4766 6.36401
53.5265 6.30001
53.5765 6.28125
53.6264 6.2901
53.6765 6.24177
53.7264 6.21981
53.7765 6.16742
53.8265 6.1297
53.8766 6.14239
53.9266 6.15327
53.9767 6.09236
54.0267 6.05716
54.0769 5.97631
54.1269 5.99342
54.1771 5.98277
54.2271 5.95581
54.2773 5.90511
54.3274 5.87954
54.3776 5.80221
54.4277 5.81665
54.478 5.76776
54.528 5.71656
54.5783 5.65984
54.6285 5.65884
54.6788 5.61032
54.7289 5.58856
54.7792 5.53985
54.8296 5.54813
54.8798 5.4784
54.9301 5.39222
54.9803 5.37957
55.0307 5.39513
55.0809 5.3445
55.1314 5.28408
55.1816 5.1919
55.232 5.16247
55.2823 5.15251
55.3328 5.11486
55.383 5.03917
55.4335 4.99585
55.4838 4.91801
55.5344 4.91312
55.5847 4.87928
55.6352 4.85259
55.6856 4.82475
55.7361 4.71611