File: XRD/Ni3Fe_FD0909.xy
TT I
1.27165 7.22698
1.31627 6.28167
1.36089 6.59178
1.40551 5.59901
1.45013 6.41043
1.49476 5.53958
1.53938 5.29299
1.584 5.73396
1.62863 4.70478
1.67325 4.71358
1.71787 5.04573
1.7625 4.43703
1.80712 4.68498
1.85174 4.70733
1.89636 4.56842
1.94099 4.85087
1.98562 5.19452
2.03025 4.54448
2.07487 4.77212
2.11949 5.3045
2.16411 5.23774
2.20874 10.2883
2.25338 14.6528
2.298 5.71272
2.34263 6.0003
2.38725 6.50341
2.43188 6.23054
2.4765 6.97488
2.52115 7.08547
2.56577 8.00104
2.6104 8.68937
2.65503 8.45758
2.69965 8.18915
2.7443 8.17299
2.78893 8.29842
2.83356 9.1338
2.87818 9.62503
2.92281 9.62372
2.96744 9.56905
3.01209 10.3927
3.05672 11.4116
3.10135 11.9269
3.14599 13.124
3.19062 14.1956
3.23527 14.7498
3.2799 15.9454
3.32454 16.9786
3.36917 17.6134
3.4138 19.369
3.45844 19.0587
3.50309 20.8784
3.54773 21.1826
3.59237 23.1946
3.637 62.208
3.68164 43.2392
3.7263 25.165
3.77094 25.5191
3.81558 26.3965
3.86022 27.4765
3.90486 28.8005
3.9495 29.4199
3.99416 30.1465
4.0388 32.0031
4.08344 33.1636
4.12809 34.0117
4.17273 36.0195
4.21738 40.3361
4.26204 155.128
4.30669 134.682
4.35133 45.0677
4.39598 43.0858
4.44063 50.1481
4.4853 56.8351
4.52995 53.1299
4.5746 53.8943
4.61925 52.9648
4.6639 55.0079
4.70855 57.3552
4.75322 61.066
4.79788 65.0688
4.84253 67.8007
4.88719 72.441
4.93184 74.834
4.97652 79.7663
5.02118 85.9435
5.06583 93.2073
5.11049 103.974
5.15515 155.23
5.19981 346.128
5.24449 2721.65
5.28916 13761.2
5.33382 2612.84
5.37848 178.822
5.42315 125.85
5.46783 114.08
5.5125 107.067
5.55716 100.679
5.60183 96.8175
5.6465 94.8864
5.69117 92.653
5.73586 91.4897
5.78053 93.6291
5.8252 92.9665
5.86988 95.0545
5.91455 93.328
5.95924 101.612
6.00392 212.671
6.0486 928.902
6.09328 4726.29
6.13795 3028.31
6.18263 194.739
6.22733 87.7587
6.27201 79.7386
6.3167 87.9787
6.36138 74.7927
6.40606 68.4786
6.45075 67.8342
6.49545 64.3306
6.54014 62.5994
6.58483 61.6288
6.62952 61.5101
6.67421 78.6686
6.71892 103.643
6.76361 63.4966
6.8083 58.3247
6.853 58.0696
6.89769 56.0374
6.94239 55.4354
6.98711 54.7034
7.03181 54.9584
7.07651 54.2615
7.12121 54.3666
7.16591 55.135
7.21063 54.5506
7.25533 63.4286
7.30004 119.74
7.34475 73.8813
7.38945 54.7428
7.43416 53.3025
7.47889 53.4066
7.5236 53.8003
7.56831 54.358
7.61303 55.208
7.65774 55.4842
7.70247 55.5129
7.74719 55.4211
7.79191 55.8029
7.83663 55.8742
7.88135 56.9517
7.92607 57.6504
7.97081 58.9095
8.01553 60.0095
8.06026 61.6042
8.10498 63.0727
8.14971 70.0363
8.19446 69.8887
8.23919 68.6047
8.28392 70.8943
8.32865 73.1392
8.37339 77.3578
8.41812 83.2625
8.46288 103.447
8.50761 166.818
8.55235 365.325
8.59709 1201.64
8.64183 2294.58
8.68658 825.46
8.73134 141.288
8.77609 95.9463
8.82083 90.252
8.86558 89.3999
8.91033 89.3432
8.9551 88.4073
8.99985 83.7558
9.04461 82.5202
9.08936 82.3448
9.13412 81.0366
9.17888 80.6938
9.22365 81.1673
9.26841 81.019
9.31318 82.3435
9.35794 83.5253
9.4027 83.2524
9.44749 83.1478
9.49226 83.6443
9.53703 84.6211
9.5818 87.1615
9.62657 91.2764
9.67134 94.5114
9.71614 91.8589
9.76091 93.1583
9.80569 96.5657
9.85047 99.1321
9.89525 114.047
9.94005 126.728
9.98484 179.303
10.0296 329.308
10.0744 820.363
10.1192 1874.35
10.164 1481.41
10.2088 324.66
10.2536 117.968
10.2984 108.176
10.3432 108.36
10.388 102.917
10.4328 118.221
10.4776 157.034
10.5224 290.012
10.5672 544.01
10.612 488.489
10.6568 178.179
10.7017 92.4088
10.7465 84.7009
10.7913 82.0353
10.8361 79.7848
10.8809 77.4012
10.9257 76.9081
10.9706 76.7042
11.0154 73.6205
11.0602 71.4411
11.105 70.6494
11.1499 72.8902
11.1947 75.8747
11.2395 70.2131
11.2844 67.9009
11.3292 65.8836
11.374 64.7159
11.4189 64.2552
11.4637 63.8266
11.5086 63.9192
11.5534 65.0444
11.5983 63.6273
11.6431 62.4001
11.688 61.8961
11.7328 61.7251
11.7777 61.6196
11.8225 61.6476
11.8674 61.4375
11.9122 61.6599
11.9571 61.9587
12.002 62.9252
12.0468 66.8595
12.0917 77.235
12.1366 101.111
12.1814 157.622
12.2263 214.109
12.2712 153.035
12.3161 85.6868
12.3609 66.3656
12.4058 63.0438
12.4507 63.0757
12.4956 63.6032
12.5405 63.5757
12.5853 64.1964
12.6302 68.7036
12.6751 71.8969
12.72 67.3525
12.7649 66.703
12.8098 67.2355
12.8547 68.663
12.8996 70.1911
12.9445 71.407
12.9894 73.2049
13.0343 74.6262
13.0792 78.3845
13.1242 88.6841
13.1691 109.163
13.214 145.072
13.2589 243.87
13.3038 390.118
13.3487 424.653
13.3937 231.654
13.4386 113.41
13.4835 103.7
13.5285 117.375
13.5734 155.993
13.6183 258.174
13.6633 374.43
13.7082 328.421
13.7531 167.399
13.7981 91.4715
13.843 79.9896
13.888 78.1912
13.9329 75.6717
13.9779 74.5049
14.0228 73.1835
14.0678 71.6246
14.1127 71.3319
14.1577 70.8667
14.2027 69.8158
14.2476 69.1361
14.2926 69.14
14.3376 69.2705
14.3825 68.7072
14.4275 67.5524
14.4725 67.5878
14.5175 67.6072
14.5624 67.7518
14.6074 69.1815
14.6524 69.852
14.6974 69.4004
14.7424 71.7454
14.7874 77.7868
14.8324 86.9163
14.8774 109.709
14.9224 156.91
14.9674 217.758
15.0124 215.186
15.0574 138.49
15.1024 84.0291
15.1474 70.2948
15.1924 68.8066
15.2374 68.7663
15.2824 67.7929
15.3274 66.4775
15.3725 65.5386
15.4175 65.1896
15.4625 64.8904
15.5076 64.6697
15.5526 64.9874
15.5976 64.6982
15.6426 66.2783
15.6877 71.4578
15.7327 78.2934
15.7778 93.298
15.8228 128.579
15.8679 177.291
15.9129 194.761
15.958 144.641
16.003 87.0622
16.0481 64.8244
16.0931 62.2995
16.1382 60.6618
16.1833 59.1448
16.2283 57.7912
16.2734 57.0753
16.3185 57.0846
16.3636 57.2927
16.4086 56.2938
16.4537 55.1143
16.4988 54.2767
16.5439 54.4068
16.589 54.0042
16.6341 53.8331
16.6792 53.4204
16.7243 53.6968
16.7694 53.9688
16.8145 53.8373
16.8596 53.8522
16.9047 55.0663
16.9498 55.1935
16.9949 54.5109
17.04 54.9633
17.0851 56.2361
17.1302 57.5462
17.1754 60.5102
17.2205 65.9799
17.2656 74.7814
17.3108 83.4756
17.3559 80.0586
17.401 67.568
17.4462 59.8836
17.4913 57.9151
17.5365 58.0027
17.5815 57.8256
17.6268 58.5863
17.6718 59.2526
17.7171 59.7383
17.7622 60.4384
17.8074 61.1548
17.8525 63.6038
17.8977 67.0928
17.9428 72.09
17.9881 81.185
18.0331 100.32
18.0784 125.029
18.1237 139.753
18.1688 125.121
18.214 96.2131
18.2591 83.2612
18.3044 90.3911
18.3495 102.42
18.3948 105.222
18.4399 90.8312
18.4852 73.0905
18.5303 63.7343
18.5756 60.869
18.6207 60.0851
18.666 59.1536
18.7112 58.5124
18.7565 57.8152
18.8016 57.5003
18.8469 57.0536
18.892 56.7942
18.9374 56.0872
18.9825 55.9674
19.0278 55.8277
19.073 55.9223
19.1183 56.3942
19.1635 56.9852
19.2088 58.2414
19.254 61.2261
19.2993 66.0537
19.3447 72.2924
19.3898 75.0334
19.4352 69.2678
19.4804 60.5203
19.5257 54.9289
19.5709 52.9969
19.6163 52.8424
19.6615 52.8261
19.7068 52.2685
19.752 52.4317
19.7974 52.5912
19.8426 53.494
19.888 54.1063
19.9332 55.2755
19.9786 57.9057
20.0238 62.1438
20.0692 67.2975
20.1144 69.2367
20.1598 66.0789
20.205 61.589
20.2504 61.2438
20.2957 64.0681
20.3411 65.2232
20.3863 62.1858
20.4318 56.1653
20.477 51.8371
20.5224 50.3636
20.5677 49.9695
20.6131 49.3634
20.6586 48.655
20.7038 48.4676
20.7493 48.3161
20.7945 48.2593
20.84 47.8955
20.8853 47.9913
20.9307 47.7435
20.976 47.8211
21.0215 47.704
21.0668 48.0992
21.1122 48.6219
21.1575 49.3192
21.203 49.9198
21.2483 50.6271
21.2938 50.5295
21.3391 48.9545
21.3846 48.0137
21.4299 47.6027
21.4754 47.5969
21.5207 47.8516
21.5662 48.0294
21.6116 48.3848
21.6571 48.9023
21.7024 50.0438
21.7479 51.8236
21.7933 54.908
21.8388 59.0395
21.8843 63.0016
21.9297 64.2224
21.9752 61.2315
22.0206 57.4771
22.0661 55.5191
22.1115 55.6358
22.157 55.0176
22.2024 52.7454
22.248 50.0368
22.2933 48.6984
22.3389 48.0621
22.3843 47.9728
22.4299 47.8236
22.4753 47.9517
22.5208 47.868
22.5662 47.6357
22.6118 47.8542
22.6572 47.9167
22.7028 48.4527
22.7483 48.6591
22.7939 49.5677
22.8393 51.3197
22.8849 53.6993
22.9303 55.9898
22.9759 57.2772
23.0214 56.1894
23.067 52.7248
23.1126 49.6059
23.1581 48.0286
23.2037 47.9516
23.2492 48.043
23.2948 47.9674
23.3403 48.2595
23.3859 48.7782
23.4314 50.0874
23.477 52.0951
23.5225 54.582
23.5682 56.8018
23.6137 57.2485
23.6593 54.063
23.7048 49.805
23.7505 46.8295
23.796 45.7929
23.8417 45.2267
23.8872 44.8386
23.9329 44.2597
23.9784 44.1078
24.0241 43.8901
24.0697 43.5794
24.1154 43.3079
24.1609 43.2062
24.2066 43.0648
24.2522 42.8029
24.2979 42.6307
24.3434 42.6383
24.3892 42.4411
24.4349 42.3924
24.4805 42.2599
24.5262 42.3708
24.5718 42.3054
24.6175 42.1952
24.6631 42.0557
24.7089 41.7336
24.7545 41.5851
24.8002 41.4753
24.8458 41.4509
24.8916 41.4731
24.9372 41.4031
24.983 41.764
25.0286 42.0796
25.0744 42.6851
25.12 43.174
25.1658 43.7411
25.2114 44.0136
25.2572 44.109
25.3029 44.2925
25.3487 44.4576
25.3943 43.7987
25.4402 42.5293
25.4858 41.5289
25.5316 40.6073
25.5773 40.1132
25.6231 40.2005
25.669 39.842
25.7147 39.7827
25.7605 39.7036
25.8062 39.8237
25.8521 39.9476
25.8977 39.9482
25.9436 40.2165
25.9893 40.3929
26.0352 40.9346
26.0809 40.8723
26.1268 41.0753
26.1725 40.5119
26.2184 39.9777
26.2641 39.5341
26.31 39.4172
26.3557 39.4759
26.4017 39.3421
26.4474 39.6834
26.4933 39.9931
26.5391 40.7036
26.585 41.31
26.6308 41.6362
26.6767 41.4606
26.7225 41.1698
26.7684 40.5811
26.8142 40.0926
26.8601 39.7261
26.9059 39.3715
26.9519 38.6876
26.9979 38.5215
27.0437 38.1955
27.0896 38.065
27.1354 38.0303
27.1814 37.9641
27.2272 37.7157
27.2732 37.9008
27.3191 37.7288
27.3651 37.8974
27.4109 37.8814
27.4569 37.8901
27.5027 38.024
27.5488 37.9826
27.5946 37.6532
27.6407 37.4986
27.6865 37.4833
27.7326 37.1547
27.7784 37.3133
27.8245 37.1077
27.8703 37.5193
27.9164 37.7499
27.9623 37.8451
28.0084 38.1589
28.0543 38.5199
28.1003 38.3201
28.1462 38.1328
28.1923 37.7253
28.2384 37.2719
28.2843 36.9465
28.3304 36.3863
28.3764 35.9926
28.4225 35.7651
28.4684 35.5941
28.5145 35.3549
28.5605 35.1228
28.6066 34.9786
28.6526 35.0876
28.6987 34.9942
28.7447 34.8584
28.7908 34.886
28.8368 34.8814
28.8829 34.8699
28.9289 34.7595
28.9751 34.4974
29.0211 34.3246
29.0673 34.121
29.1133 33.8688
29.1595 33.8234
29.2055 33.8046
29.2517 33.7343
29.2977 33.7233
29.3439 33.7748
29.3899 33.6489
29.4361 33.586
29.4824 33.3276
29.5284 33.0919
29.5746 32.8039
29.6207 32.5242
29.6669 32.5487
29.713 32.4302
29.7593 32.3431
29.8053 32.2309
29.8516 32.2373
29.8977 32.2044
29.9439 32.1036
29.99 32.0009
30.0363 31.8659
30.0824 31.9591
30.1287 31.7936
30.1748 31.8775
30.2211 31.9492
30.2673 31.7756
30.3136 31.6987
30.3597 31.6516
30.406 31.7506
30.4522 31.5196
30.4985 31.483
30.5447 31.5977
30.591 31.6802
30.6372 31.62
30.6835 31.6523
30.7297 31.7147
30.7761 31.6199
30.8224 31.3486
30.8686 31.274
30.915 31.0623
30.9612 30.8927
31.0076 30.7659
31.0538 30.6433
31.1002 30.5839
31.1464 30.4597
31.1928 30.4357
31.2391 30.4461
31.2855 30.4789
31.3317 30.3278
31.3781 30.4957
31.4244 30.4201
31.4708 30.4107
31.5171 30.3596
31.5636 30.2049
31.6098 30.0839
31.6563 29.8135
31.7026 29.7988
31.7491 29.5731
31.7953 29.6856
31.8418 29.6308
31.8881 29.7258
31.9346 29.6316
31.9809 29.5123
32.0275 29.4775
32.074 29.2199
32.1203 29.0981
32.1668 28.903
32.2132 28.883
32.2597 28.7991
32.306 28.6329
32.3526 28.4597
32.399 28.3716
32.4455 28.2426
32.4919 28.2525
32.5385 28.1839
32.5848 28.0475
32.6314 28.0091
32.6778 27.9643
32.7244 27.9548
32.7708 27.6348
32.8174 27.7066
32.8638 27.4802
32.9104 27.6293
32.9569 27.6126
33.0035 27.3959
33.0499 27.3464
33.0966 27.3847
33.143 27.3614
33.1897 27.2736
33.2361 27.136
33.2828 27.1405
33.3293 26.9224
33.3759 26.8887
33.4226 26.8015
33.4691 26.6628
33.5158 26.5389
33.5623 26.4162
33.609 26.3223
33.6555 26.2304
33.7022 26.1676
33.7487 26.0838
33.7954 25.9909
33.842 25.9453
33.8887 25.8344
33.9353 25.7772
33.982 25.6899
34.0286 25.6298
34.0753 25.546
34.1219 25.5376
34.1687 25.417
34.2152 25.3533
34.262 25.192
34.3086 25.1287
34.3554 25.119
34.402 24.9184
34.4488 24.8068
34.4954 24.8388
34.5422 24.6846
34.5889 24.5253
34.6357 24.4778
34.6825 24.4883
34.7292 24.4679
34.776 24.2772
34.8227 24.2599
34.8695 24.2514
34.9162 24.1578
34.9631 24.055
35.0098 24.084
35.0566 23.9462
35.1033 23.8435
35.1502 23.8005
35.1969 23.7584
35.2438 23.7084
35.2906 23.7463
35.3375 23.6197
35.3842 23.6058
35.4311 23.5833
35.4779 23.5219
35.5248 23.5635
35.5716 23.3117
35.6185 23.3282
35.6653 23.1576
35.7123 23.1551
35.759 23.039
35.806 23.0316
35.8528 22.9388
35.8998 22.7744
35.9468 22.7834
35.9936 22.6508
36.0406 22.6262
36.0874 22.7072
36.1345 22.5744
36.1813 22.5009
36.2283 22.2989
36.2752 22.2723
36.3222 22.2595
36.3691 22.142
36.4161 22.0952
36.463 22.0503
36.5101 22.0789
36.557 21.9291
36.6041 21.827
36.651 21.7582
36.6981 21.7124
36.745 21.6414
36.7921 21.6237
36.839 21.5063
36.8861 21.4474
36.9331 21.3529
36.9802 21.314
37.0272 21.2741
37.0743 21.1553
37.1213 21.1289
37.1684 21.1708
37.2154 21.0305
37.2626 20.9347
37.3098 20.863
37.3568 20.7432
37.404 20.7291
37.451 20.6641
37.4982 20.5795
37.5452 20.432
37.5924 20.4891
37.6395 20.4803
37.6867 20.3891
37.7337 20.2575
37.781 20.1836
37.8281 20.1488
37.8753 20.0163
37.9224 19.9641
37.9697 19.9725
38.0168 19.9115
38.064 19.7722
38.1111 19.824
38.1584 19.6696
38.2056 19.6476
38.2529 19.5786
38.3 19.5172
38.3473 19.4536
38.3945 19.4232
38.4418 19.2931
38.489 19.2529
38.5363 19.1602
38.5837 19.1984
38.6309 19.0957
38.6782 19.0677
38.7254 18.9386
38.7728 18.8412
38.82 18.8194
38.8674 18.6995
38.9146 18.7025
38.9621 18.6606
39.0093 18.6313
39.0567 18.5448
39.104 18.453
39.1514 18.369
39.1987 18.3506
39.2461 18.3255
39.2934 18.2445
39.3409 18.1729
39.3882 18.125
39.4356 18.0507
39.483 18.0759
39.5304 17.943
39.5778 17.8831
39.6253 17.8281
39.6726 17.7964
39.7201 17.7373
39.7675 17.7043
39.815 17.6456
39.8624 17.5981
39.9099 17.584
39.9575 17.4728
40.0049 17.4049
40.0525 17.3307
40.0999 17.3502
40.1474 17.243
40.1949 17.14
40.2425 17.1005
40.2899 17.0782
40.3375 17.0003
40.385 16.938
40.4326 16.9014
40.48 16.8297
40.5277 16.829
40.5752 16.6886
40.6228 16.6856
40.6703 16.6696
40.718 16.5844
40.7655 16.5676
40.8132 16.4204
40.8607 16.4894
40.9084 16.4244
40.9559 16.2829
41.0036 16.2742
41.0512 16.2159
41.0989 16.1552
41.1465 16.0932
41.1942 16.0554
41.242 15.9266
41.2896 15.9209
41.3373 15.8655
41.3849 15.8842
41.4327 15.8586
41.4803 15.7032
41.5281 15.6889
41.5758 15.6268
41.6236 15.5974
41.6712 15.5282
41.7191 15.4618
41.7667 15.4637
41.8146 15.4141
41.8622 15.2927
41.9101 15.2946
41.9578 15.1896
42.0057 15.2152
42.0534 15.1135
42.1013 15.0843
42.149 15.0264
42.1969 14.9713
42.2446 14.8854
42.2925 14.878
42.3403 14.8079
42.3882 14.7531
42.436 14.7246
42.4839 14.6766
42.5319 14.5961
42.5797 14.5605
42.6277 14.5443
42.6755 14.4931
42.7235 14.435
42.7713 14.348
42.8193 14.3273
42.8671 14.3014
42.9152 14.259
42.963 14.191
43.0111 14.1405
43.0589 14.0866
43.107 14.0005
43.1549 14.0032
43.2029 13.9294
43.2508 13.9257
43.2989 13.8249
43.3468 13.8189
43.3949 13.7547
43.4429 13.7171
43.491 13.6765
43.5389 13.5944
43.5871 13.6016
43.635 13.4826
43.6832 13.4587
43.7312 13.4048
43.7793 13.367
43.8273 13.3128
43.8755 13.3196
43.9237 13.2714
43.9717 13.2167
44.0199 13.1402
44.068 13.1229
44.1162 12.993
44.1642 13.025
44.2125 12.9811
44.2606 12.9121
44.3088 12.8444
44.3569 12.8282
44.4052 12.7877
44.4533 12.7197
44.5016 12.6966
44.5497 12.6968
44.598 12.6245
44.6461 12.58
44.6945 12.5414
44.7426 12.5138
44.791 12.3983
44.8391 12.353
44.8875 12.3444
44.9357 12.3248
44.984 12.2625
45.0322 12.2188
45.0806 12.1633
45.1288 12.1377
45.1773 12.0497
45.2257 12.0619
45.2739 11.956
45.3224 11.9802
45.3706 11.9202
45.4191 11.8571
45.4673 11.869
45.5158 11.7938
45.5641 11.7209
45.6126 11.6752
45.6609 11.6566
45.7094 11.6501
45.7577 11.5738
45.8063 11.5016
45.8546 11.5265
45.9031 11.4409
45.9515 11.4208
46.0001 11.3479
46.0484 11.3449
46.097 11.292
46.1454 11.2434
46.194 11.2355
46.2424 11.1581
46.291 11.1695
46.3395 11.0831
46.3881 11.0466
46.4365 11.0448
46.4852 10.9669
46.5337 10.9
46.5823 10.9086
46.631 10.841
46.6795 10.8186
46.7282 10.7514
46.7767 10.7568
46.8254 10.6778
46.8739 10.6427
46.9226 10.6308
46.9712 10.564
47.0199 10.5165
47.0685 10.4978
47.1173 10.4503
47.1658 10.4311
47.2146 10.4155
47.2632 10.3157
47.312 10.3071
47.3606 10.294
47.4095 10.2138
47.4581 10.2301
47.5069 10.1409
47.5556 10.1085
47.6044 10.0812
47.6531 10.0157
47.702 9.99603
47.7507 9.93943
47.7996 9.93876
47.8483 9.93451
47.8972 9.86075
47.9461 9.83312
47.9948 9.78241
48.0438 9.73304
48.0925 9.71736
48.1415 9.66887
48.1902 9.63718
48.2392 9.61245
48.288 9.6033
48.337 9.53327
48.3858 9.49175
48.4348 9.48239
48.4837 9.45088
48.5327 9.40429
48.5815 9.39939
48.6306 9.35073
48.6795 9.32944
48.7285 9.26067
48.7774 9.25025
48.8265 9.22047
48.8754 9.12947
48.9245 9.15739
48.9734 9.10684
49.0226 9.09131
49.0715 9.01563
49.1206 8.99829
49.1696 8.97412
49.2188 8.94905
49.2679 8.9321
49.3169 8.83937
49.3661 8.82984
49.4151 8.78631
49.4643 8.76606
49.5134 8.72287
49.5626 8.67496
49.6117 8.66698
49.6609 8.63807
49.71 8.5413
49.7592 8.55615
49.8083 8.4762
49.8576 8.53104
49.9067 8.41544
49.956 8.44436
50.0052 8.37457
50.0545 8.36568
50.1036 8.33325
50.153 8.30703
50.2022 8.24223
50.2515 8.21548
50.3007 8.21131
50.3501 8.1643
50.3993 8.16718
50.4487 8.12139
50.498 8.10522
50.5474 8.04026
50.5966 8.00086
50.6461 8.00445
50.6955 7.95829
50.7448 7.91848
50.7943 7.87508
50.8436 7.87676
50.8931 7.82287
50.9424 7.76876
50.9919 7.77625
51.0413 7.75878
51.0908 7.71076
51.1402 7.68481
51.1897 7.64725
51.2391 7.66824
51.2887 7.54538
51.3381 7.53132
51.3877 7.53798
51.4371 7.42336
51.4867 7.44156
51.5362 7.42304
51.5858 7.42502
51.6353 7.36221
51.6849 7.35381
51.7344 7.31202
51.7841 7.25674
51.8336 7.25282
51.8833 7.22167
51.9328 7.18134
51.9826 7.14439
52.0323 7.11057
52.0818 7.10329
52.1316 7.08698
52.1812 7.04432
52.231 6.99995
52.2806 6.99472
52.3304 6.9275
52.38 6.91288
52.4298 6.90656
52.4794 6.83496
52.5293 6.798
52.5789 6.82161
52.6288 6.79522
52.6785 6.74674
52.7284 6.7388
52.7781 6.7258
52.828 6.67966
52.8777 6.61916
52.9276 6.6212
52.9774 6.57789
53.0273 6.59096
53.0771 6.52627
53.1271 6.53445
53.1769 6.47871
53.2269 6.39898
53.2767 6.38724
53.3267 6.37272
53.3765 6.34109
53.4266 6.36519
53.4766 6.30629
53.5265 6.28278
53.5765 6.2582
53.6264 6.22794
53.6765 6.23275
53.7264 6.20187
53.7765 6.17357
53.8265 6.14314
53.8766 6.1287
53.9266 6.07499
53.9767 6.05122
54.0267 6.01955
54.0769 5.99185
54.1269 5.94522
54.1771 5.88571
54.2271 5.93926
54.2773 5.86775
54.3274 5.86291
54.3776 5.80808
54.4277 5.77915
54.478 5.76181
54.528 5.68889
54.5783 5.69547
54.6285 5.66694
54.6788 5.59853
54.7289 5.51757
54.7792 5.52923
54.8296 5.49619
54.8798 5.41646
54.9301 5.38919
54.9803 5.35236
55.0307 5.35811
55.0809 5.30271
55.1314 5.26307
55.1816 5.17724
55.232 5.14898
55.2823 5.13837
55.3328 5.10579
55.383 5.02379
55.4335 4.99323
55.4838 4.95917
55.5344 4.9497
55.5847 4.79929
55.6352 4.85967
55.6856 4.71955
55.7361 4.72149