File: XRD/Ni3Fe_FD0067.xy
TT I
1.27165 30.3944
1.31627 28.6829
1.36089 27.1401
1.40551 26.7277
1.45013 24.7463
1.49476 23.5955
1.53938 22.4951
1.584 21.0277
1.62863 20.5822
1.67325 20.3458
1.71787 20.0958
1.7625 19.7872
1.80712 19.4243
1.85174 18.1543
1.89636 18.6473
1.94099 19.1505
1.98562 18.9412
2.03025 18.7481
2.07487 18.8149
2.11949 18.6962
2.16411 18.2617
2.20874 19.0618
2.25338 17.8991
2.298 19.4173
2.34263 19.1421
2.38725 18.4022
2.43188 19.922
2.4765 19.9759
2.52115 19.7168
2.56577 19.921
2.6104 21.3426
2.65503 22.111
2.69965 23.3413
2.7443 25.3655
2.78893 27.3596
2.83356 29.5797
2.87818 33.6123
2.92281 37.9378
2.96744 43.5283
3.01209 51.7591
3.05672 58.5496
3.10135 67.0412
3.14599 68.3735
3.19062 64.5186
3.23527 56.1106
3.2799 46.955
3.32454 39.7403
3.36917 34.1281
3.4138 30.6288
3.45844 28.4715
3.50309 27.4062
3.54773 25.9215
3.59237 25.766
3.637 25.2938
3.68164 24.8406
3.7263 25.2142
3.77094 25.0515
3.81558 25.144
3.86022 25.6084
3.90486 26.2209
3.9495 26.9271
3.99416 26.8514
4.0388 27.8697
4.08344 29.2865
4.12809 29.549
4.17273 30.7482
4.21738 32.2937
4.26204 33.4117
4.30669 36.9805
4.35133 39.9793
4.39598 38.7944
4.44063 38.0914
4.4853 38.0812
4.52995 39.5893
4.5746 40.7232
4.61925 42.5811
4.6639 44.5911
4.70855 47.2963
4.75322 50.0071
4.79788 53.1478
4.84253 57.38
4.88719 63.4903
4.93184 71.7272
4.97652 85.5732
5.02118 105.708
5.06583 123.436
5.11049 146.925
5.15515 202.152
5.19981 376.202
5.24449 950.22
5.28916 2065.21
5.33382 4393.86
5.37848 2475.91
5.42315 591.307
5.46783 259.763
5.5125 178.431
5.55716 144.226
5.60183 124.015
5.6465 115.484
5.69117 110.008
5.73586 104.237
5.78053 102.032
5.8252 103.925
5.86988 110.48
5.91455 124.587
5.95924 152.662
6.00392 228.359
6.0486 414.827
6.09328 683.075
6.13795 1198.96
6.18263 967.841
6.22733 385.499
6.27201 182.585
6.3167 115.915
6.36138 86.1691
6.40606 71.2905
6.45075 63.4447
6.49545 57.8473
6.54014 53.6637
6.58483 50.7857
6.62952 48.7976
6.67421 46.7982
6.71892 45.3342
6.76361 44.1861
6.8083 43.0696
6.853 42.8633
6.89769 42.618
6.94239 42.2076
6.98711 42.3957
7.03181 43.3055
7.07651 45.0874
7.12121 44.8537
7.16591 42.7653
7.21063 41.1591
7.25533 40.8085
7.30004 40.6362
7.34475 40.3573
7.38945 41.0653
7.43416 41.5102
7.47889 44.9787
7.5236 71.3955
7.56831 190.699
7.61303 132.738
7.65774 54.7196
7.70247 43.5254
7.74719 41.2435
7.79191 40.5711
7.83663 40.2211
7.88135 40.2429
7.92607 41.0206
7.97081 41.6441
8.01553 42.3413
8.06026 42.8895
8.10498 43.8689
8.14971 45.2542
8.19446 46.7458
8.23919 49.2616
8.28392 52.0479
8.32865 55.0343
8.37339 58.6619
8.41812 63.5826
8.46288 73.9408
8.50761 98.5583
8.55235 163.229
8.59709 222.407
8.64183 340.748
8.68658 691.452
8.73134 633.985
8.77609 259.508
8.82083 132.792
8.86558 94.3906
8.91033 80.5681
8.9551 73.7231
8.99985 70.2374
9.04461 68.2392
9.08936 67.2778
9.13412 67.6037
9.17888 72.9929
9.22365 112.03
9.26841 301.878
9.31318 255.118
9.35794 93.2411
9.4027 68.7798
9.44749 63.7037
9.49226 61.5854
9.53703 60.9507
9.5818 60.5348
9.62657 60.9823
9.67134 61.3418
9.71614 62.2973
9.76091 63.8675
9.80569 65.5893
9.85047 68.4295
9.89525 73.3534
9.94005 81.4059
9.98484 101.898
10.0296 155.091
10.0744 197.318
10.1192 244.87
10.164 464.417
10.2088 720.03
10.2536 452.876
10.2984 192.717
10.3432 119.639
10.388 92.252
10.4328 85.5178
10.4776 93.7708
10.5224 100.921
10.5672 107.615
10.612 160.291
10.6568 253.461
10.7017 234.723
10.7465 151.179
10.7913 80.4757
10.8361 61.8452
10.8809 56.2784
10.9257 53.322
10.9706 51.6253
11.0154 49.8771
11.0602 48.3831
11.105 47.5258
11.1499 46.466
11.1947 46.035
11.2395 45.3852
11.2844 44.8607
11.3292 43.9243
11.374 43.2106
11.4189 42.8629
11.4637 42.1866
11.5086 42.0828
11.5534 41.6408
11.5983 41.5175
11.6431 41.593
11.688 41.3399
11.7328 41.7392
11.7777 41.7293
11.8225 42.2988
11.8674 43.7444
11.9122 49.5844
11.9571 81.2577
12.002 110.864
12.0468 71.8035
12.0917 52.7287
12.1366 52.478
12.1814 53.5423
12.2263 58.9126
12.2712 74.1402
12.3161 88.2099
12.3609 74.7354
12.4058 56.4339
12.4507 48.2803
12.4956 45.1113
12.5405 43.2414
12.5853 42.4586
12.6302 42.1325
12.6751 41.9869
12.72 42.0213
12.7649 42.4499
12.8098 42.6831
12.8547 43.3023
12.8996 43.9382
12.9445 44.9558
12.9894 46.403
13.0343 47.8008
13.0792 52.6214
13.1242 64.3157
13.1691 70.3085
13.214 72.5262
13.2589 74.4291
13.3038 78.9758
13.3487 102.168
13.3937 157.068
13.4386 185.607
13.4835 134.539
13.5285 94.9247
13.5734 85.7976
13.6183 79.9244
13.6633 83.433
13.7082 109.926
13.7531 160.505
13.7981 163.626
13.843 102.635
13.888 70.0336
13.9329 58.8046
13.9779 53.905
14.0228 51.5815
14.0678 50.9193
14.1127 54.2568
14.1577 76.6219
14.2027 100.284
14.2476 73.8229
14.2926 51.697
14.3376 47.1766
14.3825 45.6011
14.4275 44.5119
14.4725 44.1633
14.5175 43.9549
14.5624 43.78
14.6074 43.7584
14.6524 43.8062
14.6974 43.8606
14.7424 44.7411
14.7874 46.1107
14.8324 50.216
14.8774 53.5041
14.9224 54.1408
14.9674 56.7267
15.0124 66.7826
15.0574 90.1355
15.1024 106.614
15.1474 87.3622
15.1924 65.5795
15.2374 53.1454
15.2824 47.6053
15.3274 44.8538
15.3725 43.7313
15.4175 43.3196
15.4625 42.6449
15.5076 42.6135
15.5526 42.6843
15.5976 42.4995
15.6426 42.7813
15.6877 44.0763
15.7327 46.7647
15.7778 49.6697
15.8228 50.0029
15.8679 51.6068
15.9129 57.3342
15.958 73.4213
16.003 94.194
16.0481 93.7701
16.0931 79.057
16.1382 63.6973
16.1833 49.2779
16.2283 42.4814
16.2734 40.2736
16.3185 38.6768
16.3636 37.7653
16.4086 37.0062
16.4537 36.6667
16.4988 36.215
16.5439 35.9368
16.589 35.588
16.6341 35.5816
16.6792 35.3068
16.7243 35.333
16.7694 35.2859
16.8145 35.3473
16.8596 35.428
16.9047 36.5441
16.9498 40.367
16.9949 42.5869
17.04 39.5745
17.0851 36.5074
17.1302 36.4912
17.1754 37.114
17.2205 37.2154
17.2656 37.3088
17.3108 38.4402
17.3559 40.194
17.401 44.1668
17.4462 47.7084
17.4913 45.4734
17.5365 40.8695
17.5815 38.5975
17.6268 37.9582
17.6718 37.9408
17.7171 38.3214
17.7622 40.591
17.8074 44.3063
17.8525 44.327
17.8977 42.2422
17.9428 43.0293
17.9881 44.1625
18.0331 44.546
18.0784 44.8835
18.1237 48.3126
18.1688 56.0905
18.214 70.1622
18.2591 77.6037
18.3044 67.2185
18.3495 54.6637
18.3948 50.4628
18.4399 52.441
18.4852 58.2668
18.5303 60.3386
18.5756 54.4489
18.6207 48.9178
18.666 44.1423
18.7112 40.668
18.7565 39.1372
18.8016 38.4339
18.8469 37.7537
18.892 37.4344
18.9374 37.0652
18.9825 36.662
19.0278 36.5344
19.073 36.701
19.1183 36.4879
19.1635 36.6355
19.2088 37.2071
19.254 37.8258
19.2993 38.9651
19.3447 43.4172
19.3898 47.1919
19.4352 45.3063
19.4804 43.8008
19.5257 43.9958
19.5709 41.5391
19.6163 38.4065
19.6615 36.4884
19.7068 35.1445
19.752 34.541
19.7974 34.277
19.8426 34.299
19.888 34.4197
19.9332 34.6612
19.9786 34.6976
20.0238 34.4889
20.0692 34.8226
20.1144 35.532
20.1598 37.423
20.205 39.8031
20.2504 41.4594
20.2957 39.9647
20.3411 37.5288
20.3863 36.9722
20.4318 38.3008
20.477 39.521
20.5224 38.3908
20.5677 35.747
20.6131 33.832
20.6586 32.8911
20.7038 32.6504
20.7493 32.7419
20.7945 34.0275
20.84 34.869
20.8853 33.7095
20.9307 32.187
20.976 31.6161
21.0215 31.188
21.0668 31.3371
21.1122 31.2018
21.1575 30.9154
21.203 30.9469
21.2483 31.0414
21.2938 31.4016
21.3391 31.7533
21.3846 32.1724
21.4299 32.3077
21.4754 32.0233
21.5207 31.8547
21.5662 31.6182
21.6116 31.1955
21.6571 31.2024
21.7024 31.5229
21.7479 31.89
21.7933 31.8846
21.8388 32.0664
21.8843 32.508
21.9297 33.163
21.9752 34.7983
22.0206 37.1272
22.0661 38.7837
22.1115 38.4499
22.157 37.2499
22.2024 36.8568
22.248 36.3694
22.2933 35.408
22.3389 34.2254
22.3843 32.9802
22.4299 31.9571
22.4753 31.516
22.5208 31.2262
22.5662 31.1302
22.6118 31.2006
22.6572 31.1417
22.7028 31.2583
22.7483 31.5281
22.7939 31.9715
22.8393 32.406
22.8849 32.1686
22.9303 31.9716
22.9759 31.9937
23.0214 32.4499
23.067 33.7027
23.1126 35.3728
23.1581 35.9344
23.2037 34.5671
23.2492 32.8901
23.2948 31.8501
23.3403 31.7368
23.3859 32.0917
23.4314 32.6135
23.477 33.043
23.5225 32.9882
23.5682 32.1775
23.6137 32.1616
23.6593 32.783
23.7048 34.2291
23.7505 35.6749
23.796 35.2413
23.8417 33.1356
23.8872 31.392
23.9329 30.4448
23.9784 30.0258
24.0241 29.6712
24.0697 29.6287
24.1154 29.363
24.1609 29.1484
24.2066 28.6986
24.2522 28.6596
24.2979 28.2628
24.3434 28.2289
24.3892 27.9544
24.4349 27.9917
24.4805 27.7864
24.5262 27.8951
24.5718 27.698
24.6175 27.8349
24.6631 28.1937
24.7089 28.36
24.7545 28.3113
24.8002 27.8109
24.8458 27.5183
24.8916 27.3039
24.9372 27.179
24.983 27.324
25.0286 27.225
25.0744 27.2148
25.12 27.2807
25.1658 27.2857
25.2114 27.3888
25.2572 27.6884
25.3029 28.0809
25.3487 28.2821
25.3943 28.0082
25.4402 27.9483
25.4858 28.3769
25.5316 28.442
25.5773 28.1884
25.6231 27.586
25.669 26.855
25.7147 26.6141
25.7605 26.4543
25.8062 26.5413
25.8521 26.8179
25.8977 26.643
25.9436 26.325
25.9893 26.076
26.0352 26.0964
26.0809 26.0262
26.1268 26.0756
26.1725 26.1122
26.2184 26.4677
26.2641 26.6065
26.31 26.7875
26.3557 26.3885
26.4017 26.1723
26.4474 26.1394
26.4933 25.9074
26.5391 25.8584
26.585 25.879
26.6308 25.8856
26.6767 25.9149
26.7225 26.175
26.7684 26.4733
26.8142 26.9259
26.8601 27.003
26.9059 26.8215
26.9519 26.8422
26.9979 26.7636
27.0437 26.4949
27.0896 26.0375
27.1354 25.6516
27.1814 25.4696
27.2272 25.1506
27.2732 25.0633
27.3191 24.9736
27.3651 24.9838
27.4109 24.8489
27.4569 24.7761
27.5027 24.7779
27.5488 24.8714
27.5946 24.8653
27.6407 24.7973
27.6865 24.8872
27.7326 24.8817
27.7784 24.851
27.8245 24.6674
27.8703 24.5555
27.9164 24.5726
27.9623 24.5605
28.0084 24.602
28.0543 24.8876
28.1003 24.9114
28.1462 24.8751
28.1923 24.9498
28.2384 25.0568
28.2843 25.0265
28.3304 24.8697
28.3764 24.6219
28.4225 24.5117
28.4684 24.3278
28.5145 23.9549
28.5605 23.8802
28.6066 23.6472
28.6526 23.4926
28.6987 23.3211
28.7447 23.1785
28.7908 23.0459
28.8368 23.0052
28.8829 22.9207
28.9289 22.9237
28.9751 22.8623
29.0211 22.8319
29.0673 22.7591
29.1133 22.9645
29.1595 22.655
29.2055 22.6076
29.2517 22.3432
29.2977 22.2847
29.3439 22.2576
29.3899 22.165
29.4361 22.127
29.4824 22.071
29.5284 22.0974
29.5746 22.0589
29.6207 21.938
29.6669 21.8896
29.713 21.8152
29.7593 21.6009
29.8053 21.5527
29.8516 21.5255
29.8977 21.4679
29.9439 21.444
29.99 21.2676
30.0363 21.2374
30.0824 21.3834
30.1287 21.2925
30.1748 21.3387
30.2211 21.1039
30.2673 21.0135
30.3136 21.0656
30.3597 21.1011
30.406 21.019
30.4522 21.0294
30.4985 20.9099
30.5447 20.9159
30.591 20.7676
30.6372 20.8589
30.6835 20.6855
30.7297 20.7702
30.7761 20.7416
30.8224 20.8136
30.8686 20.9229
30.915 20.8428
30.9612 20.9091
31.0076 20.6876
31.0538 20.7118
31.1002 20.7997
31.1464 20.5337
31.1928 20.4739
31.2391 20.3877
31.2855 20.246
31.3317 20.1435
31.3781 20.2528
31.4244 20.1474
31.4708 20.0249
31.5171 20.1422
31.5636 20.1716
31.6098 20.0308
31.6563 20.0833
31.7026 20.1157
31.7491 19.9847
31.7953 19.9739
31.8418 19.8335
31.8881 19.7601
31.9346 19.6823
31.9809 19.6889
32.0275 19.6259
32.074 19.6957
32.1203 19.6321
32.1668 19.6487
32.2132 19.534
32.2597 19.4925
32.306 19.4072
32.3526 19.3631
32.399 19.2601
32.4455 19.0644
32.4919 19.0515
32.5385 19.0113
32.5848 18.8444
32.6314 18.8481
32.6778 18.8305
32.7244 18.7013
32.7708 18.6185
32.8174 18.5995
32.8638 18.557
32.9104 18.6232
32.9569 18.5043
33.0035 18.4582
33.0499 18.4614
33.0966 18.282
33.143 18.304
33.1897 18.2917
33.2361 18.167
33.2828 18.1685
33.3293 18.1019
33.3759 18.1585
33.4226 18.1171
33.4691 18.0707
33.5158 17.9721
33.5623 17.9019
33.609 17.8298
33.6555 17.6932
33.7022 17.66
33.7487 17.5916
33.7954 17.5412
33.842 17.4933
33.8887 17.4433
33.9353 17.4046
33.982 17.3634
34.0286 17.293
34.0753 17.256
34.1219 17.233
34.1687 17.2369
34.2152 17.1427
34.262 16.9603
34.3086 16.8937
34.3554 16.9457
34.402 16.806
34.4488 16.8319
34.4954 16.8245
34.5422 16.7864
34.5889 16.6739
34.6357 16.6399
34.6825 16.5936
34.7292 16.4654
34.776 16.379
34.8227 16.4061
34.8695 16.3512
34.9162 16.3808
34.9631 16.2664
35.0098 16.277
35.0566 16.1396
35.1033 16.0777
35.1502 16.1425
35.1969 16.062
35.2438 16.0331
35.2906 15.9785
35.3375 15.9573
35.3842 15.8557
35.4311 15.8727
35.4779 15.8441
35.5248 15.7913
35.5716 15.7671
35.6185 15.7538
35.6653 15.7639
35.7123 15.7942
35.759 15.6611
35.806 15.6063
35.8528 15.498
35.8998 15.5118
35.9468 15.4484
35.9936 15.3849
36.0406 15.3878
36.0874 15.2944
36.1345 15.2621
36.1813 15.166
36.2283 15.1312
36.2752 15.0557
36.3222 15.1594
36.3691 15.0618
36.4161 14.9593
36.463 15.0152
36.5101 15.0005
36.557 14.923
36.6041 14.8213
36.651 14.8274
36.6981 14.7858
36.745 14.7531
36.7921 14.6919
36.839 14.6031
36.8861 14.5434
36.9331 14.5236
36.9802 14.5317
37.0272 14.4308
37.0743 14.3123
37.1213 14.3661
37.1684 14.3144
37.2154 14.293
37.2626 14.146
37.3098 14.185
37.3568 14.1512
37.404 14.1091
37.451 14.0324
37.4982 13.9923
37.5452 13.9794
37.5924 13.9255
37.6395 13.9817
37.6867 13.8714
37.7337 13.8536
37.781 13.7543
37.8281 13.6982
37.8753 13.6915
37.9224 13.6122
37.9697 13.6721
38.0168 13.5798
38.064 13.4566
38.1111 13.5181
38.1584 13.4145
38.2056 13.3264
38.2529 13.3746
38.3 13.2688
38.3473 13.2559
38.3945 13.204
38.4418 13.1915
38.489 13.1859
38.5363 13.0568
38.5837 13.06
38.6309 13.017
38.6782 12.9763
38.7254 12.8804
38.7728 12.9037
38.82 12.8817
38.8674 12.8088
38.9146 12.7344
38.9621 12.7849
39.0093 12.669
39.0567 12.6552
39.104 12.6466
39.1514 12.616
39.1987 12.5885
39.2461 12.489
39.2934 12.4859
39.3409 12.4096
39.3882 12.371
39.4356 12.3529
39.483 12.3445
39.5304 12.2942
39.5778 12.2184
39.6253 12.1985
39.6726 12.179
39.7201 12.1915
39.7675 12.0734
39.815 12.0821
39.8624 12.002
39.9099 12.0285
39.9575 11.9601
40.0049 11.9086
40.0525 11.8996
40.0999 11.8299
40.1474 11.8347
40.1949 11.7466
40.2425 11.7287
40.2899 11.754
40.3375 11.6769
40.385 11.6084
40.4326 11.6188
40.48 11.5665
40.5277 11.5609
40.5752 11.5496
40.6228 11.4531
40.6703 11.4226
40.718 11.4052
40.7655 11.3695
40.8132 11.2798
40.8607 11.3342
40.9084 11.281
40.9559 11.2349
41.0036 11.1805
41.0512 11.204
41.0989 11.1539
41.1465 11.1173
41.1942 11.0277
41.242 10.9679
41.2896 10.9654
41.3373 10.9518
41.3849 10.9388
41.4327 10.8433
41.4803 10.8246
41.5281 10.8036
41.5758 10.745
41.6236 10.7381
41.6712 10.683
41.7191 10.6183
41.7667 10.6333
41.8146 10.5913
41.8622 10.534
41.9101 10.5464
41.9578 10.4929
42.0057 10.4777
42.0534 10.4283
42.1013 10.3932
42.149 10.4178
42.1969 10.3223
42.2446 10.315
42.2925 10.2877
42.3403 10.242
42.3882 10.1999
42.436 10.1371
42.4839 10.1335
42.5319 10.0662
42.5797 10.058
42.6277 10.0597
42.6755 10.0302
42.7235 9.94701
42.7713 9.91663
42.8193 9.87374
42.8671 9.86663
42.9152 9.86664
42.963 9.80504
43.0111 9.77696
43.0589 9.69329
43.107 9.70752
43.1549 9.70697
43.2029 9.645
43.2508 9.61579
43.2989 9.5643
43.3468 9.56252
43.3949 9.57057
43.4429 9.49129
43.491 9.46086
43.5389 9.45323
43.5871 9.37233
43.635 9.37409
43.6832 9.31912
43.7312 9.27792
43.7793 9.2403
43.8273 9.23664
43.8755 9.19303
43.9237 9.14802
43.9717 9.14655
44.0199 9.12007
44.068 9.12191
44.1162 9.03485
44.1642 9.08271
44.2125 9.05633
44.2606 8.97606
44.3088 8.90972
44.3569 8.90687
44.4052 8.89144
44.4533 8.82894
44.5016 8.74385
44.5497 8.76202
44.598 8.77182
44.6461 8.70591
44.6945 8.73053
44.7426 8.66126
44.791 8.58877
44.8391 8.62693
44.8875 8.5618
44.9357 8.55776
44.984 8.49763
45.0322 8.47684
45.0806 8.44469
45.1288 8.42097
45.1773 8.40272
45.2257 8.34408
45.2739 8.3673
45.3224 8.37503
45.3706 8.28622
45.4191 8.21897
45.4673 8.22007
45.5158 8.23764
45.5641 8.17294
45.6126 8.16692
45.6609 8.14619
45.7094 8.06001
45.7577 8.07322
45.8063 8.01752
45.8546 8.01583
45.9031 7.97666
45.9515 7.93365
46.0001 7.98764
46.0484 7.92104
46.097 7.87048
46.1454 7.83354
46.194 7.83721
46.2424 7.77822
46.291 7.77705
46.3395 7.69341
46.3881 7.65871
46.4365 7.67464
46.4852 7.63375
46.5337 7.62364
46.5823 7.60671
46.631 7.57684
46.6795 7.54079
46.7282 7.54596
46.7767 7.49347
46.8254 7.43015
46.8739 7.45388
46.9226 7.39495
46.9712 7.39182
47.0199 7.35581
47.0685 7.32962
47.1173 7.30315
47.1658 7.31827
47.2146 7.26684
47.2632 7.22937
47.312 7.21643
47.3606 7.14997
47.4095 7.11261
47.4581 7.10073
47.5069 7.12064
47.5556 7.10518
47.6044 7.02881
47.6531 6.9901
47.702 6.98004
47.7507 6.9541
47.7996 6.93843
47.8483 6.91704
47.8972 6.88248
47.9461 6.89113
47.9948 6.89273
48.0438 6.83269
48.0925 6.82841
48.1415 6.79777
48.1902 6.76135
48.2392 6.7708
48.288 6.71359
48.337 6.70794
48.3858 6.6386
48.4348 6.66673
48.4837 6.64586
48.5327 6.5984
48.5815 6.58621
48.6306 6.54129
48.6795 6.54203
48.7285 6.51735
48.7774 6.47479
48.8265 6.44513
48.8754 6.44237
48.9245 6.44657
48.9734 6.38791
49.0226 6.37598
49.0715 6.31017
49.1206 6.31967
49.1696 6.29279
49.2188 6.26946
49.2679 6.25967
49.3169 6.20053
49.3661 6.19046
49.4151 6.20189
49.4643 6.15863
49.5134 6.13072
49.5626 6.11534
49.6117 6.11624
49.6609 6.06796
49.71 6.03964
49.7592 6.0282
49.8083 5.99292
49.8576 5.99606
49.9067 5.9515
49.956 5.95606
50.0052 5.9143
50.0545 5.90688
50.1036 5.88343
50.153 5.83028
50.2022 5.82462
50.2515 5.82298
50.3007 5.78046
50.3501 5.77189
50.3993 5.74399
50.4487 5.72119
50.498 5.70165
50.5474 5.66513
50.5966 5.66189
50.6461 5.62397
50.6955 5.62452
50.7448 5.5851
50.7943 5.56476
50.8436 5.5367
50.8931 5.53389
50.9424 5.52992
50.9919 5.49584
51.0413 5.48496
51.0908 5.48229
51.1402 5.47117
51.1897 5.40618
51.2391 5.39497
51.2887 5.3912
51.3381 5.37774
51.3877 5.32856
51.4371 5.32972
51.4867 5.31158
51.5362 5.28448
51.5858 5.26553
51.6353 5.23449
51.6849 5.21573
51.7344 5.19252
51.7841 5.17957
51.8336 5.13483
51.8833 5.14492
51.9328 5.09648
51.9826 5.05844
52.0323 5.06108
52.0818 5.03883
52.1316 5.0009
52.1812 5.0523
52.231 4.97113
52.2806 4.93501
52.3304 4.95525
52.38 4.94003
52.4298 4.90973
52.4794 4.87615
52.5293 4.88766
52.5789 4.83617
52.6288 4.80118
52.6785 4.81101
52.7284 4.76278
52.7781 4.78033
52.828 4.77587
52.8777 4.69778
52.9276 4.70216
52.9774 4.72036
53.0273 4.70065
53.0771 4.65053
53.1271 4.65528
53.1769 4.61303
53.2269 4.599
53.2767 4.57539
53.3267 4.61017
53.3765 4.53267
53.4266 4.56684
53.4766 4.48422
53.5265 4.49891
53.5765 4.48397
53.6264 4.45619
53.6765 4.43959
53.7264 4.41222
53.7765 4.40579
53.8265 4.34334
53.8766 4.33954
53.9266 4.35891
53.9767 4.27232
54.0267 4.31563
54.0769 4.24866
54.1269 4.2671
54.1771 4.21142
54.2271 4.20235
54.2773 4.13913
54.3274 4.15317
54.3776 4.12808
54.4277 4.07585
54.478 4.05573
54.528 4.01059
54.5783 4.02297
54.6285 3.91403
54.6788 3.90604
54.7289 3.89545
54.7792 3.8913
54.8296 3.86021
54.8798 3.77992
54.9301 3.77678
54.9803 3.75588
55.0307 3.75084
55.0809 3.67201
55.1314 3.66061
55.1816 3.64954
55.232 3.58808
55.2823 3.51303
55.3328 3.5268
55.383 3.44004
55.4335 3.43631
55.4838 3.39202
55.5344 3.35066
55.5847 3.32757
55.6352 3.32812
55.6856 3.3119
55.7361 3.25468