File: XRD/Ni3Fe_FD1025.xy
TT I
1.27165 6.95388
1.31627 6.1057
1.36089 6.15869
1.40551 5.87818
1.45013 5.61452
1.49476 6.0758
1.53938 5.73596
1.584 4.92917
1.62863 4.90023
1.67325 4.65497
1.71787 4.63833
1.7625 4.62677
1.80712 4.58391
1.85174 4.08605
1.89636 4.34537
1.94099 4.34448
1.98562 4.24504
2.03025 4.39009
2.07487 4.19556
2.11949 4.7878
2.16411 4.90315
2.20874 5.57685
2.25338 7.03485
2.298 4.27122
2.34263 5.75755
2.38725 6.01763
2.43188 6.75605
2.4765 7.30532
2.52115 7.22306
2.56577 7.59264
2.6104 8.68279
2.65503 8.41336
2.69965 8.72169
2.7443 8.29622
2.78893 8.32773
2.83356 9.15214
2.87818 9.23995
2.92281 8.64464
2.96744 10.0429
3.01209 10.1319
3.05672 11.3348
3.10135 12.5205
3.14599 13.5977
3.19062 14.9281
3.23527 15.2716
3.2799 15.4669
3.32454 16.1534
3.36917 17.3237
3.4138 18.0841
3.45844 18.8285
3.50309 20.2038
3.54773 20.6054
3.59237 21.6168
3.637 28.3509
3.68164 26.8884
3.7263 24.143
3.77094 24.5785
3.81558 24.7871
3.86022 26.1892
3.90486 27.518
3.9495 28.2296
3.99416 29.139
4.0388 30.3087
4.08344 31.661
4.12809 32.0997
4.17273 33.5301
4.21738 35.3785
4.26204 52.6729
4.30669 57.8733
4.35133 40.5344
4.39598 40.7442
4.44063 43.1741
4.4853 46.1653
4.52995 46.9107
4.5746 48.4346
4.61925 50.5685
4.6639 52.6293
4.70855 55.1779
4.75322 57.8461
4.79788 60.3674
4.84253 63.6966
4.88719 67.518
4.93184 71.2708
4.97652 76.5675
5.02118 82.8535
5.06583 88.7582
5.11049 97.1171
5.15515 117.338
5.19981 228.239
5.24449 2390.93
5.28916 13282.6
5.33382 3375.8
5.37848 229.462
5.42315 124.92
5.46783 108.122
5.5125 100.717
5.55716 96.9563
5.60183 92.7148
5.6465 90.3494
5.69117 88.9078
5.73586 87.148
5.78053 86.4413
5.8252 85.5905
5.86988 86.3353
5.91455 88.2951
5.95924 95.1106
6.00392 159.328
6.0486 843.95
6.09328 4391.85
6.13795 3495.16
6.18263 248.123
6.22733 86.8793
6.27201 75.7454
6.3167 72.7092
6.36138 67.9975
6.40606 64.4336
6.45075 62.8894
6.49545 61.3759
6.54014 59.8507
6.58483 58.6659
6.62952 57.8041
6.67421 58.1428
6.71892 64.3908
6.76361 56.5145
6.8083 54.3729
6.853 53.5833
6.89769 53.0739
6.94239 53.1475
6.98711 52.2824
7.03181 51.8274
7.07651 51.6656
7.12121 51.4831
7.16591 51.7614
7.21063 50.8061
7.25533 51.6241
7.30004 61.7614
7.34475 56.3564
7.38945 51.8192
7.43416 50.8439
7.47889 51.5666
7.5236 61.0379
7.56831 80.4234
7.61303 58.1353
7.65774 52.7312
7.70247 52.6306
7.74719 53.0958
7.79191 53.5072
7.83663 53.5563
7.88135 54.439
7.92607 55.3147
7.97081 56.5294
8.01553 57.0969
8.06026 58.812
8.10498 59.8325
8.14971 62.0241
8.19446 63.4326
8.23919 65.2281
8.28392 67.6806
8.32865 69.878
8.37339 73.3227
8.41812 77.3413
8.46288 85.6578
8.50761 126.118
8.55235 353.405
8.59709 1065.14
8.64183 2270.23
8.68658 1090.38
8.73134 178.618
8.77609 94.7897
8.82083 87.9544
8.86558 85.1251
8.91033 83.2142
8.9551 81.7429
8.99985 80.2752
9.04461 79.5144
9.08936 79.2623
9.13412 78.91
9.17888 79.3388
9.22365 95.3378
9.26841 124.04
9.31318 92.2674
9.35794 79.9811
9.4027 79.6093
9.44749 79.9414
9.49226 80.5468
9.53703 81.2706
9.5818 82.7768
9.62657 83.8311
9.67134 85.5725
9.71614 87.2016
9.76091 88.8387
9.80569 90.9731
9.85047 93.0512
9.89525 98.2183
9.94005 105.489
9.98484 144.433
10.0296 330.371
10.0744 744.785
10.1192 1740.22
10.164 1679.92
10.2088 448.985
10.2536 126.279
10.2984 102.568
10.3432 100.273
10.388 97.0467
10.4328 106.668
10.4776 155.048
10.5224 260.815
10.5672 496.354
10.612 532.967
10.6568 223.151
10.7017 106.511
10.7465 87.162
10.7913 79.7245
10.8361 76.8297
10.8809 75.054
10.9257 72.9585
10.9706 71.9447
11.0154 70.1145
11.0602 68.6073
11.105 67.7231
11.1499 66.9449
11.1947 66.8812
11.2395 65.22
11.2844 64.5158
11.3292 63.2445
11.374 62.477
11.4189 62.1567
11.4637 61.3682
11.5086 60.827
11.5534 60.7836
11.5983 60.6503
11.6431 60.0267
11.688 59.8007
11.7328 59.4521
11.7777 59.2834
11.8225 59.5117
11.8674 59.5763
11.9122 62.3627
11.9571 70.3569
12.002 68.0297
12.0468 64.4117
12.0917 75.4697
12.1366 96.423
12.1814 144.104
12.2263 201.871
12.2712 172.342
12.3161 94.8386
12.3609 64.1379
12.4058 60.6213
12.4507 60.7842
12.4956 61.1152
12.5405 60.9586
12.5853 61.5651
12.6302 62.3385
12.6751 63.6776
12.72 63.4346
12.7649 64.0405
12.8098 64.7159
12.8547 65.9803
12.8996 66.9298
12.9445 68.7714
12.9894 70.2862
13.0343 72.0777
13.0792 76.17
13.1242 82.3681
13.1691 105.356
13.214 142.45
13.2589 221.523
13.3038 360.554
13.3487 442.384
13.3937 280.66
13.4386 126.471
13.4835 97.888
13.5285 116.909
13.5734 152.109
13.6183 232.211
13.6633 353.867
13.7082 362.017
13.7531 204.872
13.7981 100.018
13.843 78.8353
13.888 76.5062
13.9329 74.3888
13.9779 72.9316
14.0228 71.4785
14.0678 70.4813
14.1127 71.8652
14.1577 76.9204
14.2027 74.7098
14.2476 68.8977
14.2926 66.7146
14.3376 66.5987
14.3825 66.4981
14.4275 65.8466
14.4725 65.5481
14.5175 66.1193
14.5624 65.9197
14.6074 65.9623
14.6524 66.7431
14.6974 66.9776
14.7424 68.0255
14.7874 73.5428
14.8324 86.6051
14.8774 106.606
14.9224 145.042
14.9674 206.546
15.0124 227.092
15.0574 158.616
15.1024 93.8013
15.1474 70.5452
15.1924 67.5257
15.2374 65.918
15.2824 65.193
15.3274 64.4061
15.3725 63.7545
15.4175 63.5982
15.4625 63.0202
15.5076 62.7966
15.5526 63.0309
15.5976 62.8651
15.6426 63.3078
15.6877 67.7492
15.7327 77.5771
15.7778 91.9545
15.8228 119.722
15.8679 166.933
15.9129 200.842
15.958 167.536
16.003 102.863
16.0481 69.6099
16.0931 63.1283
16.1382 59.7627
16.1833 57.9141
16.2283 56.5796
16.2734 55.8104
16.3185 55.3094
16.3636 54.7945
16.4086 54.0839
16.4537 53.508
16.4988 53.0719
16.5439 52.9501
16.589 52.9607
16.6341 52.6893
16.6792 52.0537
16.7243 52.3846
16.7694 52.4117
16.8145 52.3619
16.8596 52.2181
16.9047 53.3207
16.9498 54.2291
16.9949 53.8114
17.04 53.4797
17.0851 54.4881
17.1302 56.533
17.1754 59.2548
17.2205 63.9998
17.2656 71.8605
17.3108 81.3694
17.3559 81.8397
17.401 70.994
17.4462 60.9255
17.4913 57.1061
17.5365 56.6471
17.5815 56.9245
17.6268 57.3223
17.6718 57.455
17.7171 58.3873
17.7622 59.6195
17.8074 60.3127
17.8525 61.3015
17.8977 65.526
17.9428 71.835
17.9881 79.9787
18.0331 95.7251
18.0784 119.397
18.1237 141.087
18.1688 136.982
18.214 108.59
18.2591 87.2018
18.3044 87.7378
18.3495 98.6896
18.3948 106.124
18.4399 97.4767
18.4852 78.5811
18.5303 65.3942
18.5756 61.2215
18.6207 59.7822
18.666 58.4723
18.7112 57.7104
18.7565 56.93
18.8016 56.5473
18.8469 56.1388
18.892 55.7659
18.9374 55.4623
18.9825 54.9706
19.0278 54.6126
19.073 54.6949
19.1183 54.8185
19.1635 55.7568
19.2088 57.2915
19.254 60.0777
19.2993 65.1195
19.3447 71.7168
19.3898 76.0654
19.4352 71.8644
19.4804 63.1638
19.5257 55.7802
19.5709 52.3795
19.6163 51.979
19.6615 51.8382
19.7068 51.3236
19.752 51.3352
19.7974 51.2954
19.8426 52.1664
19.888 53.0627
19.9332 54.5923
19.9786 56.8544
20.0238 60.4335
20.0692 66.1855
20.1144 69.8157
20.1598 68.815
20.205 63.526
20.2504 61.2217
20.2957 62.7651
20.3411 65.1272
20.3863 64.0427
20.4318 58.134
20.477 52.5861
20.5224 49.7651
20.5677 48.8692
20.6131 48.4475
20.6586 48.0431
20.7038 47.9459
20.7493 47.7438
20.7945 47.7814
20.84 47.5546
20.8853 47.1454
20.9307 46.9461
20.976 47.0991
21.0215 46.8512
21.0668 47.3314
21.1122 47.7237
21.1575 48.2887
21.203 49.1524
21.2483 50.3232
21.2938 50.1313
21.3391 48.7165
21.3846 47.5439
21.4299 46.9161
21.4754 46.9501
21.5207 47.1666
21.5662 47.0529
21.6116 47.4908
21.6571 48.4323
21.7024 49.4847
21.7479 51.0907
21.7933 53.5329
21.8388 57.31
21.8843 62.2189
21.9297 64.9997
21.9752 63.7014
22.0206 59.4402
22.0661 56.0256
22.1115 55.6498
22.157 55.7345
22.2024 54.1389
22.248 50.8647
22.2933 48.7361
22.3389 47.7132
22.3843 47.3651
22.4299 47.1031
22.4753 47.0409
22.5208 47.0068
22.5662 46.9831
22.6118 47.2092
22.6572 47.2885
22.7028 47.9273
22.7483 48.7086
22.7939 49.3453
22.8393 50.8165
22.8849 52.7337
22.9303 55.2638
22.9759 57.2824
23.0214 57.1207
23.067 54.32
23.1126 50.7081
23.1581 48.1577
23.2037 47.4214
23.2492 47.3859
23.2948 47.502
23.3403 48.0365
23.3859 48.9074
23.4314 49.802
23.477 51.6391
23.5225 54.0703
23.5682 56.7283
23.6137 58.1508
23.6593 55.9233
23.7048 51.8436
23.7505 47.9661
23.796 45.7543
23.8417 44.9725
23.8872 44.2878
23.9329 44.0554
23.9784 43.674
24.0241 43.4047
24.0697 43.2616
24.1154 42.8621
24.1609 42.6458
24.2066 42.3496
24.2522 42.2791
24.2979 42.1197
24.3434 41.9748
24.3892 41.8188
24.4349 41.836
24.4805 41.6479
24.5262 42.0677
24.5718 41.7915
24.6175 41.9302
24.6631 41.6455
24.7089 41.532
24.7545 41.1372
24.8002 41.0315
24.8458 41.12
24.8916 40.8957
24.9372 41.1208
24.983 41.2337
25.0286 41.6903
25.0744 42.3063
25.12 42.7979
25.1658 43.4545
25.2114 44.0349
25.2572 43.9774
25.3029 44.2151
25.3487 44.2863
25.3943 44.0788
25.4402 42.9388
25.4858 41.6891
25.5316 40.52
25.5773 39.9023
25.6231 39.7577
25.669 39.4272
25.7147 39.4658
25.7605 39.2813
25.8062 39.4326
25.8521 39.7044
25.8977 39.571
25.9436 39.8495
25.9893 39.8827
26.0352 40.5267
26.0809 40.6263
26.1268 41.0514
26.1725 40.7389
26.2184 40.0233
26.2641 39.344
26.31 39.1456
26.3557 39.1913
26.4017 39.1757
26.4474 39.5057
26.4933 39.7438
26.5391 40.2587
26.585 40.9778
26.6308 41.3393
26.6767 41.6657
26.7225 41.4218
26.7684 40.8276
26.8142 40.2525
26.8601 39.8592
26.9059 39.3502
26.9519 38.8125
26.9979 38.3431
27.0437 38.0205
27.0896 37.8602
27.1354 37.958
27.1814 37.5493
27.2272 37.5997
27.2732 37.582
27.3191 37.4245
27.3651 37.4887
27.4109 37.5134
27.4569 37.592
27.5027 37.7048
27.5488 37.8084
27.5946 37.6946
27.6407 37.3765
27.6865 37.33
27.7326 36.97
27.7784 36.8576
27.8245 36.8674
27.8703 37.1201
27.9164 37.482
27.9623 37.7263
28.0084 38.2449
28.0543 38.6675
28.1003 38.5368
28.1462 38.4021
28.1923 38.0072
28.2384 37.4357
28.2843 37.012
28.3304 36.5077
28.3764 36.0261
28.4225 35.642
28.4684 35.5799
28.5145 35.1396
28.5605 35.0768
28.6066 34.7853
28.6526 34.7779
28.6987 34.7602
28.7447 34.6992
28.7908 34.4966
28.8368 34.6148
28.8829 34.5856
28.9289 34.5466
28.9751 34.3743
29.0211 34.1089
29.0673 33.9071
29.1133 33.749
29.1595 33.6059
29.2055 33.4794
29.2517 33.5087
29.2977 33.5251
29.3439 33.5055
29.3899 33.5167
29.4361 33.4135
29.4824 33.2977
29.5284 33.0312
29.5746 32.6276
29.6207 32.3653
29.6669 32.252
29.713 32.1803
29.7593 32.0915
29.8053 32.053
29.8516 31.882
29.8977 31.8782
29.9439 31.8288
29.99 31.7509
30.0363 31.6174
30.0824 31.782
30.1287 31.6359
30.1748 31.7132
30.2211 31.6787
30.2673 31.5064
30.3136 31.6421
30.3597 31.4468
30.406 31.4755
30.4522 31.3221
30.4985 31.3505
30.5447 31.4063
30.591 31.3942
30.6372 31.5268
30.6835 31.4865
30.7297 31.58
30.7761 31.5785
30.8224 31.4465
30.8686 31.2545
30.915 30.8649
30.9612 30.8919
31.0076 30.681
31.0538 30.5416
31.1002 30.5043
31.1464 30.315
31.1928 30.3
31.2391 30.2252
31.2855 30.2265
31.3317 30.1225
31.3781 30.3121
31.4244 30.2606
31.4708 30.1969
31.5171 30.2097
31.5636 30.2046
31.6098 29.919
31.6563 29.7766
31.7026 29.5867
31.7491 29.4128
31.7953 29.5021
31.8418 29.524
31.8881 29.5598
31.9346 29.5005
31.9809 29.4565
32.0275 29.3077
32.074 29.3087
32.1203 29.0992
32.1668 28.9368
32.2132 28.6677
32.2597 28.6547
32.306 28.561
32.3526 28.2645
32.399 28.2882
32.4455 28.1727
32.4919 27.989
32.5385 28.053
32.5848 27.7703
32.6314 27.8907
32.6778 27.7893
32.7244 27.5897
32.7708 27.435
32.8174 27.5312
32.8638 27.3381
32.9104 27.3653
32.9569 27.3988
33.0035 27.2641
33.0499 27.2901
33.0966 27.2813
33.143 27.2611
33.1897 27.0896
33.2361 27.0672
33.2828 27.0716
33.3293 26.8573
33.3759 26.7837
33.4226 26.5989
33.4691 26.5383
33.5158 26.4503
33.5623 26.2372
33.609 26.1321
33.6555 26.0512
33.7022 25.9912
33.7487 25.9354
33.7954 25.8427
33.842 25.8018
33.8887 25.7573
33.9353 25.6349
33.982 25.5041
34.0286 25.425
34.0753 25.3389
34.1219 25.311
34.1687 25.2495
34.2152 25.1292
34.262 25.0047
34.3086 24.9778
34.3554 24.9888
34.402 24.8606
34.4488 24.7173
34.4954 24.6964
34.5422 24.5742
34.5889 24.4852
34.6357 24.4352
34.6825 24.2971
34.7292 24.193
34.776 24.2005
34.8227 24.1015
34.8695 24.0649
34.9162 24.0128
34.9631 23.9391
35.0098 24.0046
35.0566 23.7744
35.1033 23.821
35.1502 23.7917
35.1969 23.6225
35.2438 23.5567
35.2906 23.489
35.3375 23.5584
35.3842 23.4238
35.4311 23.4268
35.4779 23.4634
35.5248 23.4379
35.5716 23.2873
35.6185 23.2309
35.6653 23.1186
35.7123 22.9893
35.759 23.0143
35.806 22.8444
35.8528 22.7453
35.8998 22.7207
35.9468 22.6632
35.9936 22.6172
36.0406 22.4585
36.0874 22.5227
36.1345 22.3916
36.1813 22.3839
36.2283 22.1716
36.2752 22.169
36.3222 22.2275
36.3691 22.0716
36.4161 21.9556
36.463 22.0003
36.5101 21.9245
36.557 21.9296
36.6041 21.7348
36.651 21.7235
36.6981 21.6159
36.745 21.5161
36.7921 21.4745
36.839 21.3722
36.8861 21.2997
36.9331 21.2242
36.9802 21.1899
37.0272 21.1001
37.0743 21.0043
37.1213 21.0375
37.1684 20.9815
37.2154 20.8863
37.2626 20.7659
37.3098 20.6737
37.3568 20.6217
37.404 20.6353
37.451 20.5353
37.4982 20.4922
37.5452 20.4453
37.5924 20.2897
37.6395 20.3469
37.6867 20.2931
37.7337 20.1712
37.781 20.0737
37.8281 19.9911
37.8753 19.939
37.9224 19.8314
37.9697 19.8234
38.0168 19.7254
38.064 19.6844
38.1111 19.6482
38.1584 19.5862
38.2056 19.5071
38.2529 19.4191
38.3 19.3737
38.3473 19.4052
38.3945 19.276
38.4418 19.1604
38.489 19.1493
38.5363 19.0479
38.5837 18.9991
38.6309 18.9599
38.6782 18.896
38.7254 18.8085
38.7728 18.8302
38.82 18.7252
38.8674 18.694
38.9146 18.5803
38.9621 18.538
39.0093 18.5192
39.0567 18.4652
39.104 18.3238
39.1514 18.2702
39.1987 18.2942
39.2461 18.2526
39.2934 18.1269
39.3409 18.0284
39.3882 18.0122
39.4356 17.9891
39.483 17.8839
39.5304 17.802
39.5778 17.798
39.6253 17.7622
39.6726 17.6769
39.7201 17.6219
39.7675 17.5661
39.815 17.5109
39.8624 17.4793
39.9099 17.3998
39.9575 17.3044
40.0049 17.2703
40.0525 17.2096
40.0999 17.1771
40.1474 17.1483
40.1949 17.0914
40.2425 17.0045
40.2899 17.0079
40.3375 16.8932
40.385 16.8728
40.4326 16.7944
40.48 16.7206
40.5277 16.7408
40.5752 16.6528
40.6228 16.5752
40.6703 16.5409
40.718 16.5029
40.7655 16.4092
40.8132 16.4101
40.8607 16.3421
40.9084 16.3211
40.9559 16.2328
41.0036 16.2169
41.0512 16.149
41.0989 16.0847
41.1465 16.0342
41.1942 15.9562
41.242 15.8871
41.2896 15.8262
41.3373 15.7671
41.3849 15.7831
41.4327 15.7504
41.4803 15.5762
41.5281 15.6175
41.5758 15.5581
41.6236 15.4654
41.6712 15.4249
41.7191 15.3886
41.7667 15.318
41.8146 15.3125
41.8622 15.2419
41.9101 15.1967
41.9578 15.0733
42.0057 15.0869
42.0534 15.0431
42.1013 15.0526
42.149 14.9474
42.1969 14.8946
42.2446 14.8081
42.2925 14.8158
42.3403 14.7371
42.3882 14.7532
42.436 14.6518
42.4839 14.5629
42.5319 14.5173
42.5797 14.5135
42.6277 14.4423
42.6755 14.4079
42.7235 14.3366
42.7713 14.307
42.8193 14.2413
42.8671 14.25
42.9152 14.1407
42.963 14.0836
43.0111 14.0152
43.0589 13.9763
43.107 13.958
43.1549 13.9651
43.2029 13.8765
43.2508 13.811
43.2989 13.7208
43.3468 13.7103
43.3949 13.6546
43.4429 13.5693
43.491 13.5406
43.5389 13.5103
43.5871 13.523
43.635 13.4058
43.6832 13.3745
43.7312 13.3474
43.7793 13.2203
43.8273 13.2558
43.8755 13.2106
43.9237 13.2011
43.9717 13.1617
44.0199 13.0648
44.068 13.0376
44.1162 12.9867
44.1642 12.9744
44.2125 12.9303
44.2606 12.8841
44.3088 12.7937
44.3569 12.7736
44.4052 12.7306
44.4533 12.672
44.5016 12.638
44.5497 12.6338
44.598 12.5668
44.6461 12.4613
44.6945 12.4346
44.7426 12.3728
44.791 12.3401
44.8391 12.3376
44.8875 12.2596
44.9357 12.2576
44.984 12.1459
45.0322 12.1608
45.0806 12.0939
45.1288 12.0432
45.1773 11.981
45.2257 12.0208
45.2739 11.9334
45.3224 11.8884
45.3706 11.8629
45.4191 11.8294
45.4673 11.7501
45.5158 11.7332
45.5641 11.6664
45.6126 11.6346
45.6609 11.6241
45.7094 11.5608
45.7577 11.4973
45.8063 11.4502
45.8546 11.4346
45.9031 11.3618
45.9515 11.3391
46.0001 11.3558
46.0484 11.2962
46.097 11.2284
46.1454 11.2091
46.194 11.132
46.2424 11.0956
46.291 11.0615
46.3395 11.0167
46.3881 10.9774
46.4365 10.9956
46.4852 10.9306
46.5337 10.84
46.5823 10.7805
46.631 10.7345
46.6795 10.7392
46.7282 10.734
46.7767 10.6879
46.8254 10.6075
46.8739 10.5772
46.9226 10.5518
46.9712 10.5156
47.0199 10.4998
47.0685 10.4512
47.1173 10.391
47.1658 10.3908
47.2146 10.3264
47.2632 10.2327
47.312 10.272
47.3606 10.198
47.4095 10.1459
47.4581 10.1216
47.5069 10.0799
47.5556 10.0909
47.6044 10.0278
47.6531 9.98779
47.702 9.94658
47.7507 9.96026
47.7996 9.89743
47.8483 9.83319
47.8972 9.80758
47.9461 9.78185
47.9948 9.71332
48.0438 9.68494
48.0925 9.63516
48.1415 9.60441
48.1902 9.57812
48.2392 9.56316
48.288 9.53448
48.337 9.49848
48.3858 9.44031
48.4348 9.40919
48.4837 9.39718
48.5327 9.36573
48.5815 9.30145
48.6306 9.30581
48.6795 9.26717
48.7285 9.226
48.7774 9.15773
48.8265 9.17251
48.8754 9.1205
48.9245 9.08804
48.9734 9.02755
49.0226 9.01283
49.0715 8.95343
49.1206 8.93197
49.1696 8.9038
49.2188 8.87966
49.2679 8.83253
49.3169 8.80066
49.3661 8.76935
49.4151 8.74836
49.4643 8.75574
49.5134 8.70175
49.5626 8.59146
49.6117 8.58833
49.6609 8.58108
49.71 8.53582
49.7592 8.48972
49.8083 8.47778
49.8576 8.43802
49.9067 8.384
49.956 8.38331
50.0052 8.35198
50.0545 8.30217
50.1036 8.28034
50.153 8.28147
50.2022 8.2225
50.2515 8.17952
50.3007 8.14347
50.3501 8.11672
50.3993 8.09573
50.4487 8.04882
50.498 8.01723
50.5474 7.99911
50.5966 7.93213
50.6461 7.92071
50.6955 7.91325
50.7448 7.85098
50.7943 7.84513
50.8436 7.82067
50.8931 7.79034
50.9424 7.75191
50.9919 7.70931
51.0413 7.66504
51.0908 7.68427
51.1402 7.63404
51.1897 7.57993
51.2391 7.56738
51.2887 7.56232
51.3381 7.53684
51.3877 7.51167
51.4371 7.44221
51.4867 7.4072
51.5362 7.42068
51.5858 7.3656
51.6353 7.30603
51.6849 7.26933
51.7344 7.27456
51.7841 7.26244
51.8336 7.22081
51.8833 7.15824
51.9328 7.14844
51.9826 7.09051
52.0323 7.09115
52.0818 7.04248
52.1316 7.03215
52.1812 7.01891
52.231 6.95855
52.2806 6.95717
52.3304 6.9162
52.38 6.88656
52.4298 6.87003
52.4794 6.8111
52.5293 6.80193
52.5789 6.75899
52.6288 6.77307
52.6785 6.72003
52.7284 6.66749
52.7781 6.68455
52.828 6.65453
52.8777 6.57249
52.9276 6.56883
52.9774 6.56242
53.0273 6.52557
53.0771 6.48909
53.1271 6.53217
53.1769 6.41512
53.2269 6.40237
53.2767 6.38981
53.3267 6.37939
53.3765 6.29492
53.4266 6.31257
53.4766 6.2624
53.5265 6.23734
53.5765 6.24468
53.6264 6.20992
53.6765 6.1957
53.7264 6.12392
53.7765 6.12705
53.8265 6.07454
53.8766 6.06839
53.9266 6.03443
53.9767 6.02112
54.0267 5.99216
54.0769 5.96701
54.1269 5.91489
54.1771 5.90606
54.2271 5.893
54.2773 5.83079
54.3274 5.84595
54.3776 5.7902
54.4277 5.72745
54.478 5.77359
54.528 5.67608
54.5783 5.67987
54.6285 5.6075
54.6788 5.54916
54.7289 5.51776
54.7792 5.45332
54.8296 5.47075
54.8798 5.38928
54.9301 5.33173
54.9803 5.36152
55.0307 5.36029
55.0809 5.23793
55.1314 5.24654
55.1816 5.12378
55.232 5.11677
55.2823 5.07366
55.3328 5.04681
55.383 5.01119
55.4335 4.93522
55.4838 4.92388
55.5344 4.85798
55.5847 4.81313
55.6352 4.76593
55.6856 4.76041
55.7361 4.73503