File: XRD/Ni3Fe_FD0952.xy
TT I
1.27165 7.47705
1.31627 6.50423
1.36089 6.1964
1.40551 5.2497
1.45013 6.08231
1.49476 6.14363
1.53938 5.02197
1.584 5.41479
1.62863 5.26264
1.67325 5.14443
1.71787 4.89566
1.7625 5.48753
1.80712 5.15771
1.85174 4.68326
1.89636 5.01664
1.94099 5.21339
1.98562 4.20368
2.03025 4.16592
2.07487 4.7329
2.11949 4.57159
2.16411 5.10754
2.20874 10.3561
2.25338 15.5466
2.298 6.05809
2.34263 5.78407
2.38725 6.05478
2.43188 6.54542
2.4765 7.54339
2.52115 7.56331
2.56577 8.14025
2.6104 8.85854
2.65503 8.15031
2.69965 9.01014
2.7443 8.50423
2.78893 8.45993
2.83356 9.11313
2.87818 8.19731
2.92281 8.95667
2.96744 9.86974
3.01209 10.6018
3.05672 11.0416
3.10135 12.4933
3.14599 12.778
3.19062 14.8414
3.23527 15.1431
3.2799 15.5912
3.32454 16.3343
3.36917 17.74
3.4138 18.8217
3.45844 19.6906
3.50309 20.6646
3.54773 21.5002
3.59237 23.1971
3.637 63.0839
3.68164 43.7537
3.7263 25.658
3.77094 26.2615
3.81558 26.3683
3.86022 27.4576
3.90486 28.6042
3.9495 29.9048
3.99416 30.5467
4.0388 31.7804
4.08344 33.2514
4.12809 34.3606
4.17273 36.2227
4.21738 41.0879
4.26204 160.913
4.30669 140.182
4.35133 46.2655
4.39598 44.1506
4.44063 50.5376
4.4853 57.232
4.52995 53.2474
4.5746 53.8112
4.61925 52.5755
4.6639 54.8578
4.70855 57.6436
4.75322 60.3634
4.79788 65.7066
4.84253 67.0496
4.88719 72.6006
4.93184 75.1465
4.97652 79.3915
5.02118 85.9655
5.06583 93.7498
5.11049 103.458
5.15515 154.94
5.19981 305.52
5.24449 2634.95
5.28916 13469.5
5.33382 2780.7
5.37848 182.676
5.42315 126.41
5.46783 115.762
5.5125 108.157
5.55716 100.671
5.60183 96.6554
5.6465 94.9046
5.69117 93.0516
5.73586 90.8924
5.78053 94.0219
5.8252 93.6325
5.86988 94.7158
5.91455 92.4674
5.95924 98.5465
6.00392 191.64
6.0486 871.786
6.09328 4519.46
6.13795 3090.29
6.18263 212.93
6.22733 88.8697
6.27201 79.7387
6.3167 89.0336
6.36138 75.2029
6.40606 67.9311
6.45075 67.8077
6.49545 64.1728
6.54014 62.7947
6.58483 62.4674
6.62952 62.0497
6.67421 80.4962
6.71892 105.833
6.76361 63.7188
6.8083 58.6811
6.853 57.9006
6.89769 56.0544
6.94239 55.8272
6.98711 55.0267
7.03181 55.1503
7.07651 54.4777
7.12121 54.5389
7.16591 55.4638
7.21063 54.8669
7.25533 64.4527
7.30004 125.886
7.34475 74.4243
7.38945 54.9791
7.43416 53.0795
7.47889 53.6535
7.5236 53.8128
7.56831 54.494
7.61303 55.3323
7.65774 55.8634
7.70247 55.6473
7.74719 55.5297
7.79191 55.9985
7.83663 56.1203
7.88135 56.7791
7.92607 57.7861
7.97081 59.0144
8.01553 60.0922
8.06026 61.8183
8.10498 62.9656
8.14971 70.3239
8.19446 70.2357
8.23919 68.688
8.28392 70.8293
8.32865 72.7003
8.37339 77.081
8.41812 82.9362
8.46288 101.936
8.50761 151.714
8.55235 354.838
8.59709 1173.67
8.64183 2186.58
8.68658 922.38
8.73134 155.117
8.77609 96.3801
8.82083 90.9535
8.86558 90.0677
8.91033 90.0237
8.9551 88.9894
8.99985 84.1595
9.04461 82.7745
9.08936 82.6801
9.13412 81.5263
9.17888 80.7162
9.22365 81.1154
9.26841 80.9806
9.31318 82.5876
9.35794 83.7957
9.4027 83.8747
9.44749 83.6359
9.49226 83.5191
9.53703 84.1351
9.5818 86.9211
9.62657 92.1483
9.67134 94.6502
9.71614 91.5113
9.76091 92.8782
9.80569 96.3471
9.85047 99.0422
9.89525 113.809
9.94005 123.419
9.98484 166.681
10.0296 321.022
10.0744 805.469
10.1192 1763.59
10.164 1526.87
10.2088 368.875
10.2536 122.021
10.2984 108.719
10.3432 108.492
10.388 102.057
10.4328 114.378
10.4776 154.344
10.5224 282.98
10.5672 529.789
10.612 489.789
10.6568 187.306
10.7017 94.1871
10.7465 84.8568
10.7913 81.8031
10.8361 80.0914
10.8809 77.6741
10.9257 76.7724
10.9706 77.0559
11.0154 73.9971
11.0602 71.6699
11.105 70.4402
11.1499 72.7062
11.1947 76.043
11.2395 70.5465
11.2844 68.2678
11.3292 66.0891
11.374 64.9748
11.4189 64.6136
11.4637 63.8283
11.5086 63.8533
11.5534 65.2085
11.5983 63.3471
11.6431 62.5867
11.688 62.0034
11.7328 61.8697
11.7777 61.7994
11.8225 61.6211
11.8674 61.2692
11.9122 61.8089
11.9571 61.7194
12.002 62.4987
12.0468 66.1463
12.0917 76.6396
12.1366 101.228
12.1814 156.841
12.2263 204.534
12.2712 157.143
12.3161 91.5968
12.3609 67.232
12.4058 63.1907
12.4507 63.0714
12.4956 63.3373
12.5405 63.9614
12.5853 64.2717
12.6302 69.1214
12.6751 72.0222
12.72 67.2351
12.7649 66.8161
12.8098 67.1116
12.8547 68.4835
12.8996 69.9554
12.9445 71.3981
12.9894 72.8951
13.0343 74.7834
13.0792 77.6781
13.1242 86.4152
13.1691 106.831
13.214 143.966
13.2589 241.676
13.3038 383.224
13.3487 419.666
13.3937 245.205
13.4386 118.998
13.4835 102.076
13.5285 115.865
13.5734 155.628
13.6183 256.188
13.6633 361.415
13.7082 323.812
13.7531 177.927
13.7981 94.7863
13.843 80.3251
13.888 78.5966
13.9329 75.984
13.9779 74.76
14.0228 72.9573
14.0678 71.8562
14.1127 71.4621
14.1577 70.9359
14.2027 70.2007
14.2476 69.0522
14.2926 69.0613
14.3376 69.5075
14.3825 68.6082
14.4275 67.7179
14.4725 67.7477
14.5175 67.5709
14.5624 67.7259
14.6074 69.3475
14.6524 69.5498
14.6974 69.2553
14.7424 70.9322
14.7874 76.7261
14.8324 86.4789
14.8774 109.497
14.9224 157.115
14.9674 212.823
15.0124 215.01
15.0574 144.478
15.1024 87.3016
15.1474 71.0509
15.1924 69.1795
15.2374 68.9885
15.2824 68.1715
15.3274 66.4971
15.3725 65.6809
15.4175 65.3065
15.4625 64.5655
15.5076 65.073
15.5526 64.7619
15.5976 64.7744
15.6426 65.8504
15.6877 70.3839
15.7327 77.4644
15.7778 93.3554
15.8228 127.476
15.8679 174.503
15.9129 193.186
15.958 149.92
16.003 92.7555
16.0481 66.4866
16.0931 62.7627
16.1382 60.8244
16.1833 59.1025
16.2283 57.6036
16.2734 57.2173
16.3185 57.2016
16.3636 57.3936
16.4086 56.0798
16.4537 55.2144
16.4988 54.6216
16.5439 54.4929
16.589 54.2307
16.6341 54.0567
16.6792 53.3857
16.7243 53.6438
16.7694 53.9356
16.8145 53.7503
16.8596 54.1675
16.9047 55.0969
16.9498 55.1711
16.9949 54.4683
17.04 54.8411
17.0851 55.8493
17.1302 57.4829
17.1754 60.4742
17.2205 65.983
17.2656 74.6988
17.3108 82.9806
17.3559 79.7695
17.401 68.7377
17.4462 60.8427
17.4913 58.2254
17.5365 58.0825
17.5815 58.0908
17.6268 58.4767
17.6718 59.2193
17.7171 59.6072
17.7622 60.0973
17.8074 61.0576
17.8525 63.0424
17.8977 66.6357
17.9428 71.9535
17.9881 81.6543
18.0331 100.329
18.0784 123.335
18.1237 136.666
18.1688 125.542
18.214 100.434
18.2591 84.965
18.3044 90.2946
18.3495 100.447
18.3948 104.295
18.4399 92.3669
18.4852 75.0871
18.5303 64.5985
18.5756 61.1934
18.6207 60.2959
18.666 59.3579
18.7112 58.6296
18.7565 58.0377
18.8016 57.6408
18.8469 57.1049
18.892 56.6689
18.9374 56.2536
18.9825 56.0412
19.0278 55.6771
19.073 55.9524
19.1183 56.0387
19.1635 56.7056
19.2088 58.3143
19.254 61.1012
19.2993 65.8886
19.3447 71.6018
19.3898 74.1943
19.4352 69.62
19.4804 61.3491
19.5257 55.5233
19.5709 53.2548
19.6163 52.9074
19.6615 52.8243
19.7068 52.4805
19.752 52.3209
19.7974 52.606
19.8426 53.3288
19.888 53.933
19.9332 55.1569
19.9786 57.8861
20.0238 61.9859
20.0692 66.8689
20.1144 68.7731
20.1598 66.7047
20.205 62.4062
20.2504 61.7757
20.2957 63.5326
20.3411 64.7467
20.3863 62.6612
20.4318 57.003
20.477 52.5483
20.5224 50.5451
20.5677 49.9491
20.6131 49.2581
20.6586 48.9696
20.7038 48.6297
20.7493 48.2886
20.7945 48.2912
20.84 48.1132
20.8853 47.9391
20.9307 47.6413
20.976 47.9547
21.0215 47.8831
21.0668 48.0753
21.1122 48.604
21.1575 49.3421
21.203 50.0324
21.2483 50.8575
21.2938 50.515
21.3391 49.3527
21.3846 48.2156
21.4299 47.5328
21.4754 47.5249
21.5207 47.9112
21.5662 47.9903
21.6116 48.465
21.6571 48.94
21.7024 49.8797
21.7479 51.8919
21.7933 54.7644
21.8388 58.5206
21.8843 62.1905
21.9297 63.7569
21.9752 61.8425
22.0206 58.1256
22.0661 55.6669
22.1115 55.3325
22.157 54.9245
22.2024 52.9012
22.248 50.4533
22.2933 48.7833
22.3389 48.1476
22.3843 48.1345
22.4299 47.8828
22.4753 47.9908
22.5208 47.7161
22.5662 47.8075
22.6118 47.8722
22.6572 47.7867
22.7028 48.4363
22.7483 48.9076
22.7939 49.5438
22.8393 51.1437
22.8849 53.3562
22.9303 55.7465
22.9759 56.9757
23.0214 55.9631
23.067 53.3511
23.1126 50.2408
23.1581 48.3162
23.2037 47.8576
23.2492 48.0694
23.2948 48.027
23.3403 48.269
23.3859 48.8981
23.4314 49.9636
23.477 52.1183
23.5225 54.6083
23.5682 56.4927
23.6137 56.9351
23.6593 54.3609
23.7048 50.4497
23.7505 47.451
23.796 45.8105
23.8417 45.1289
23.8872 44.8205
23.9329 44.5599
23.9784 44.2366
24.0241 43.8013
24.0697 43.6828
24.1154 43.5013
24.1609 43.3448
24.2066 42.9252
24.2522 42.9438
24.2979 42.5466
24.3434 42.5605
24.3892 42.5056
24.4349 42.4307
24.4805 42.1967
24.5262 42.3076
24.5718 42.0749
24.6175 42.2506
24.6631 42.0664
24.7089 41.7605
24.7545 41.6627
24.8002 41.5315
24.8458 41.5328
24.8916 41.3603
24.9372 41.4763
24.983 41.9306
25.0286 42.1606
25.0744 42.6289
25.12 43.2512
25.1658 43.856
25.2114 43.9096
25.2572 44.0453
25.3029 44.343
25.3487 44.2434
25.3943 43.7193
25.4402 42.5051
25.4858 41.5069
25.5316 40.7111
25.5773 40.3266
25.6231 40.2092
25.669 39.8764
25.7147 39.8093
25.7605 39.7186
25.8062 39.777
25.8521 39.9034
25.8977 39.9155
25.9436 40.1991
25.9893 40.3242
26.0352 40.8223
26.0809 40.9659
26.1268 41.0901
26.1725 40.5801
26.2184 40.1006
26.2641 39.4736
26.31 39.3306
26.3557 39.5142
26.4017 39.501
26.4474 39.7624
26.4933 39.9957
26.5391 40.6127
26.585 41.0676
26.6308 41.2072
26.6767 41.4632
26.7225 41.2147
26.7684 40.7
26.8142 40.0998
26.8601 39.7411
26.9059 39.2741
26.9519 38.7289
26.9979 38.5631
27.0437 38.1569
27.0896 38.0802
27.1354 38.0353
27.1814 37.9955
27.2272 37.9782
27.2732 37.9833
27.3191 37.7473
27.3651 37.8991
27.4109 37.7042
27.4569 37.9567
27.5027 37.9088
27.5488 38.0007
27.5946 37.778
27.6407 37.58
27.6865 37.5358
27.7326 37.195
27.7784 37.2877
27.8245 37.1175
27.8703 37.3672
27.9164 37.7318
27.9623 37.8159
28.0084 38.0003
28.0543 38.5374
28.1003 38.3021
28.1462 38.2785
28.1923 37.8232
28.2384 37.3642
28.2843 37.0478
28.3304 36.5657
28.3764 36.0355
28.4225 35.7521
28.4684 35.6249
28.5145 35.406
28.5605 35.2058
28.6066 35.1229
28.6526 35.0507
28.6987 34.9902
28.7447 34.8353
28.7908 34.8709
28.8368 34.9084
28.8829 34.7906
28.9289 34.7371
28.9751 34.4725
29.0211 34.3326
29.0673 34.0247
29.1133 34.0102
29.1595 33.774
29.2055 33.7614
29.2517 33.7934
29.2977 33.672
29.3439 33.8034
29.3899 33.7399
29.4361 33.6819
29.4824 33.3718
29.5284 33.2414
29.5746 32.8619
29.6207 32.5503
29.6669 32.5074
29.713 32.3974
29.7593 32.3335
29.8053 32.2124
29.8516 32.2178
29.8977 32.3048
29.9439 32.0324
29.99 31.9819
30.0363 31.9249
30.0824 31.9916
30.1287 31.8906
30.1748 31.836
30.2211 31.8272
30.2673 31.7028
30.3136 31.8533
30.3597 31.751
30.406 31.6721
30.4522 31.6115
30.4985 31.5157
30.5447 31.5664
30.591 31.5822
30.6372 31.6163
30.6835 31.6086
30.7297 31.6468
30.7761 31.6365
30.8224 31.4529
30.8686 31.324
30.915 31.115
30.9612 31.0356
31.0076 30.773
31.0538 30.7319
31.1002 30.6143
31.1464 30.5064
31.1928 30.3877
31.2391 30.4227
31.2855 30.3289
31.3317 30.33
31.3781 30.422
31.4244 30.4036
31.4708 30.3325
31.5171 30.401
31.5636 30.2752
31.6098 30.0482
31.6563 29.8847
31.7026 29.8287
31.7491 29.6612
31.7953 29.7325
31.8418 29.6965
31.8881 29.6609
31.9346 29.6822
31.9809 29.594
32.0275 29.3719
32.074 29.2913
32.1203 29.2204
32.1668 29.1162
32.2132 28.8857
32.2597 28.7797
32.306 28.687
32.3526 28.4724
32.399 28.4957
32.4455 28.2627
32.4919 28.202
32.5385 28.2587
32.5848 27.9816
32.6314 28.0913
32.6778 28.0189
32.7244 27.7508
32.7708 27.624
32.8174 27.7014
32.8638 27.5636
32.9104 27.5773
32.9569 27.5492
33.0035 27.4008
33.0499 27.4603
33.0966 27.3079
33.143 27.3451
33.1897 27.2284
33.2361 27.156
33.2828 27.184
33.3293 26.9819
33.3759 27.0467
33.4226 26.8579
33.4691 26.585
33.5158 26.5395
33.5623 26.4918
33.609 26.3022
33.6555 26.2339
33.7022 26.1264
33.7487 26.1109
33.7954 26.1007
33.842 25.9516
33.8887 25.8878
33.9353 25.798
33.982 25.6747
34.0286 25.6195
34.0753 25.5265
34.1219 25.5002
34.1687 25.4038
34.2152 25.3951
34.262 25.2779
34.3086 25.0815
34.3554 25.073
34.402 25.045
34.4488 24.9135
34.4954 24.8852
34.5422 24.8231
34.5889 24.6586
34.6357 24.5494
34.6825 24.56
34.7292 24.4153
34.776 24.3141
34.8227 24.3575
34.8695 24.2007
34.9162 24.1645
34.9631 24.04
35.0098 24.1493
35.0566 23.9674
35.1033 23.9266
35.1502 23.8642
35.1969 23.7512
35.2438 23.8394
35.2906 23.7446
35.3375 23.6856
35.3842 23.5523
35.4311 23.6198
35.4779 23.5853
35.5248 23.5211
35.5716 23.4068
35.6185 23.3475
35.6653 23.3026
35.7123 23.1715
35.759 23.1156
35.806 22.9631
35.8528 22.8639
35.8998 22.8649
35.9468 22.6856
35.9936 22.7568
36.0406 22.6926
36.0874 22.5714
36.1345 22.6131
36.1813 22.4653
36.2283 22.3781
36.2752 22.354
36.3222 22.3674
36.3691 22.2181
36.4161 22.0386
36.463 22.1065
36.5101 22.0277
36.557 21.9832
36.6041 21.9009
36.651 21.7803
36.6981 21.8137
36.745 21.6464
36.7921 21.62
36.839 21.4941
36.8861 21.4675
36.9331 21.4168
36.9802 21.3168
37.0272 21.2291
37.0743 21.0891
37.1213 21.1507
37.1684 21.1314
37.2154 21.0122
37.2626 20.8825
37.3098 20.8274
37.3568 20.8251
37.404 20.6782
37.451 20.6236
37.4982 20.5655
37.5452 20.4644
37.5924 20.4254
37.6395 20.5194
37.6867 20.3825
37.7337 20.3355
37.781 20.191
37.8281 20.1326
37.8753 20.1109
37.9224 19.9595
37.9697 19.8915
38.0168 19.86
38.064 19.8157
38.1111 19.767
38.1584 19.7945
38.2056 19.5888
38.2529 19.566
38.3 19.4773
38.3473 19.5075
38.3945 19.3716
38.4418 19.3715
38.489 19.3252
38.5363 19.1952
38.5837 19.1237
38.6309 19.0829
38.6782 19.0204
38.7254 18.9685
38.7728 18.8866
38.82 18.8102
38.8674 18.8319
38.9146 18.7239
38.9621 18.6837
39.0093 18.6146
39.0567 18.5574
39.104 18.4616
39.1514 18.4077
39.1987 18.3141
39.2461 18.393
39.2934 18.2577
39.3409 18.158
39.3882 18.1281
39.4356 18.0913
39.483 18.0532
39.5304 17.9606
39.5778 17.8513
39.6253 17.9149
39.6726 17.8198
39.7201 17.8141
39.7675 17.7262
39.815 17.6547
39.8624 17.5321
39.9099 17.5831
39.9575 17.4448
40.0049 17.4362
40.0525 17.3614
40.0999 17.3134
40.1474 17.2437
40.1949 17.1665
40.2425 17.081
40.2899 17.0844
40.3375 16.9991
40.385 16.9719
40.4326 16.8649
40.48 16.8354
40.5277 16.8073
40.5752 16.7354
40.6228 16.6843
40.6703 16.65
40.718 16.574
40.7655 16.6053
40.8132 16.4691
40.8607 16.4917
40.9084 16.4569
40.9559 16.3126
41.0036 16.3072
41.0512 16.2153
41.0989 16.1806
41.1465 16.1087
41.1942 16.0964
41.242 15.9718
41.2896 15.944
41.3373 15.9419
41.3849 15.8867
41.4327 15.8456
41.4803 15.707
41.5281 15.6791
41.5758 15.6678
41.6236 15.6128
41.6712 15.5346
41.7191 15.5078
41.7667 15.4308
41.8146 15.3942
41.8622 15.3381
41.9101 15.3157
41.9578 15.1952
42.0057 15.1989
42.0534 15.1277
42.1013 15.1033
42.149 15.0539
42.1969 14.9801
42.2446 14.9354
42.2925 14.9412
42.3403 14.8385
42.3882 14.8226
42.436 14.705
42.4839 14.6063
42.5319 14.6825
42.5797 14.6648
42.6277 14.5628
42.6755 14.4697
42.7235 14.3997
42.7713 14.3733
42.8193 14.3506
42.8671 14.3007
42.9152 14.2405
42.963 14.2484
43.0111 14.1195
43.0589 14.0813
43.107 14.0236
43.1549 13.9648
43.2029 13.959
43.2508 13.8946
43.2989 13.8536
43.3468 13.8296
43.3949 13.7488
43.4429 13.6836
43.491 13.6968
43.5389 13.6041
43.5871 13.6089
43.635 13.5291
43.6832 13.4462
43.7312 13.4276
43.7793 13.3684
43.8273 13.3548
43.8755 13.2799
43.9237 13.2329
43.9717 13.2716
44.0199 13.1608
44.068 13.0958
44.1162 13.0632
44.1642 13.0409
44.2125 12.9841
44.2606 12.891
44.3088 12.8648
44.3569 12.7973
44.4052 12.779
44.4533 12.7577
44.5016 12.6591
44.5497 12.6215
44.598 12.647
44.6461 12.5963
44.6945 12.5308
44.7426 12.5109
44.791 12.4342
44.8391 12.3986
44.8875 12.352
44.9357 12.3243
44.984 12.2992
45.0322 12.2239
45.0806 12.1966
45.1288 12.1392
45.1773 12.0682
45.2257 12.0467
45.2739 12.0163
45.3224 11.9695
45.3706 11.9457
45.4191 11.8519
45.4673 11.8507
45.5158 11.8172
45.5641 11.7181
45.6126 11.7338
45.6609 11.6496
45.7094 11.598
45.7577 11.5954
45.8063 11.5338
45.8546 11.5692
45.9031 11.4761
45.9515 11.4606
46.0001 11.4091
46.0484 11.372
46.097 11.3011
46.1454 11.3265
46.194 11.2181
46.2424 11.1519
46.291 11.1455
46.3395 11.1106
46.3881 11.0211
46.4365 11.0305
46.4852 11.0215
46.5337 10.9339
46.5823 10.9149
46.631 10.8306
46.6795 10.8261
46.7282 10.7902
46.7767 10.7474
46.8254 10.6939
46.8739 10.664
46.9226 10.6511
46.9712 10.5752
47.0199 10.5512
47.0685 10.5495
47.1173 10.4665
47.1658 10.4319
47.2146 10.3862
47.2632 10.3391
47.312 10.3523
47.3606 10.2549
47.4095 10.2264
47.4581 10.1855
47.5069 10.1341
47.5556 10.1006
47.6044 10.0655
47.6531 10.0163
47.702 10.0056
47.7507 9.96644
47.7996 9.95779
47.8483 9.89451
47.8972 9.8506
47.9461 9.813
47.9948 9.78611
48.0438 9.76214
48.0925 9.75474
48.1415 9.692
48.1902 9.6483
48.2392 9.66461
48.288 9.60856
48.337 9.55313
48.3858 9.51538
48.4348 9.50383
48.4837 9.4573
48.5327 9.42997
48.5815 9.38243
48.6306 9.36628
48.6795 9.36594
48.7285 9.25784
48.7774 9.25806
48.8265 9.18209
48.8754 9.18443
48.9245 9.14306
48.9734 9.08532
49.0226 9.10038
49.0715 9.04529
49.1206 8.99546
49.1696 8.95903
49.2188 8.94296
49.2679 8.8901
49.3169 8.85845
49.3661 8.84724
49.4151 8.78026
49.4643 8.76356
49.5134 8.75703
49.5626 8.68118
49.6117 8.65133
49.6609 8.64372
49.71 8.55644
49.7592 8.57657
49.8083 8.49819
49.8576 8.49028
49.9067 8.44367
49.956 8.40516
50.0052 8.41129
50.0545 8.36074
50.1036 8.35486
50.153 8.29834
50.2022 8.23509
50.2515 8.1962
50.3007 8.17193
50.3501 8.19475
50.3993 8.12695
50.4487 8.08306
50.498 8.04001
50.5474 8.02958
50.5966 7.99603
50.6461 7.97196
50.6955 7.99216
50.7448 7.8966
50.7943 7.88983
50.8436 7.87165
50.8931 7.82251
50.9424 7.79825
50.9919 7.78143
51.0413 7.74398
51.0908 7.69852
51.1402 7.71207
51.1897 7.61553
51.2391 7.62983
51.2887 7.58698
51.3381 7.53479
51.3877 7.5254
51.4371 7.47577
51.4867 7.45924
51.5362 7.43746
51.5858 7.41848
51.6353 7.34153
51.6849 7.35978
51.7344 7.32409
51.7841 7.28891
51.8336 7.28574
51.8833 7.24918
51.9328 7.17803
51.9826 7.1651
52.0323 7.13287
52.0818 7.08909
52.1316 7.05966
52.1812 7.0302
52.231 7.02222
52.2806 6.98122
52.3304 6.97477
52.38 6.92226
52.4298 6.90949
52.4794 6.88794
52.5293 6.82173
52.5789 6.83787
52.6288 6.78249
52.6785 6.74778
52.7284 6.74278
52.7781 6.72746
52.828 6.6663
52.8777 6.62833
52.9276 6.57751
52.9774 6.59684
53.0273 6.54543
53.0771 6.52057
53.1271 6.53799
53.1769 6.48232
53.2269 6.47814
53.2767 6.40526
53.3267 6.43342
53.3765 6.37255
53.4266 6.34957
53.4766 6.35964
53.5265 6.32625
53.5765 6.26064
53.6264 6.27216
53.6765 6.21919
53.7264 6.19889
53.7765 6.14957
53.8265 6.1438
53.8766 6.09447
53.9266 6.09031
53.9767 6.07266
54.0267 5.99779
54.0769 5.98765
54.1269 5.95308
54.1771 5.91402
54.2271 5.9337
54.2773 5.87465
54.3274 5.84824
54.3776 5.81202
54.4277 5.7702
54.478 5.73919
54.528 5.7554
54.5783 5.67869
54.6285 5.5997
54.6788 5.56926
54.7289 5.556
54.7792 5.55803
54.8296 5.47871
54.8798 5.44388
54.9301 5.39806
54.9803 5.33946
55.0307 5.33545
55.0809 5.29377
55.1314 5.26606
55.1816 5.20412
55.232 5.13236
55.2823 5.12687
55.3328 5.056
55.383 5.01384
55.4335 5.00022
55.4838 4.89959
55.5344 4.90439
55.5847 4.84891
55.6352 4.80819
55.6856 4.78685
55.7361 4.78825