File: XRD/Ni3Fe_FD0512.xy
TT I
1.27165 7.78579
1.31627 6.78206
1.36089 6.55281
1.40551 6.54273
1.45013 6.58712
1.49476 6.50151
1.53938 5.83259
1.584 5.19915
1.62863 4.96863
1.67325 5.12578
1.71787 5.17472
1.7625 4.82012
1.80712 5.12194
1.85174 4.47265
1.89636 5.0263
1.94099 4.95098
1.98562 4.94045
2.03025 4.53446
2.07487 4.19847
2.11949 4.88184
2.16411 5.56641
2.20874 15.6904
2.25338 24.5399
2.298 6.4903
2.34263 5.71076
2.38725 5.96787
2.43188 5.74682
2.4765 6.38694
2.52115 6.48195
2.56577 6.36367
2.6104 7.84024
2.65503 7.48086
2.69965 7.61438
2.7443 7.96015
2.78893 8.1038
2.83356 8.53224
2.87818 8.76654
2.92281 9.40639
2.96744 9.72966
3.01209 10.7873
3.05672 11.5407
3.10135 12.4892
3.14599 13.4182
3.19062 14.2092
3.23527 15.3942
3.2799 15.88
3.32454 17.2712
3.36917 17.9451
3.4138 19.3547
3.45844 20.0047
3.50309 21.2609
3.54773 21.7154
3.59237 24.8302
3.637 99.7201
3.68164 62.3558
3.7263 26.6708
3.77094 26.6582
3.81558 27.3605
3.86022 27.5391
3.90486 29.2812
3.9495 30.3369
3.99416 31.4584
4.0388 32.3436
4.08344 34.2869
4.12809 35.8121
4.17273 38.0453
4.21738 44.09
4.26204 266.801
4.30669 230.615
4.35133 50.4847
4.39598 45.1771
4.44063 55.6561
4.4853 68.172
4.52995 51.5438
4.5746 52.0175
4.61925 53.896
4.6639 56.0616
4.70855 58.817
4.75322 61.8558
4.79788 64.7328
4.84253 68.0479
4.88719 72.4995
4.93184 75.703
4.97652 81.9284
5.02118 87.996
5.06583 95.7167
5.11049 108.575
5.15515 182.82
5.19981 388.646
5.24449 2945.38
5.28916 11994.6
5.33382 3253.94
5.37848 204.806
5.42315 134.365
5.46783 116.357
5.5125 107.712
5.55716 103.497
5.60183 100.091
5.6465 98.3327
5.69117 95.5461
5.73586 93.8946
5.78053 93.0541
5.8252 92.7358
5.86988 93.3997
5.91455 95.9043
5.95924 104.003
6.00392 216.818
6.0486 1011.22
6.09328 4115.87
6.13795 3457.51
6.18263 292.708
6.22733 97.3988
6.27201 84.9868
6.3167 105.9
6.36138 82.6705
6.40606 70.0499
6.45075 68.4593
6.49545 66.5451
6.54014 64.7846
6.58483 63.8407
6.62952 64.0748
6.67421 98.1622
6.71892 151.714
6.76361 70.3872
6.8083 59.4391
6.853 58.1315
6.89769 57.7857
6.94239 57.1533
6.98711 56.9303
7.03181 56.2312
7.07651 56.3812
7.12121 55.7843
7.16591 56.0019
7.21063 56.2305
7.25533 72.3086
7.30004 189.349
7.34475 96.0074
7.38945 57.948
7.43416 55.544
7.47889 54.9984
7.5236 55.7548
7.56831 56.207
7.61303 57.9431
7.65774 58.1865
7.70247 56.879
7.74719 56.8685
7.79191 57.5391
7.83663 57.6852
7.88135 58.7581
7.92607 59.3519
7.97081 60.8286
8.01553 61.5419
8.06026 62.9021
8.10498 64.5537
8.14971 74.8381
8.19446 73.6385
8.23919 70.508
8.28392 72.8112
8.32865 75.1859
8.37339 79.6318
8.41812 86.4361
8.46288 117.519
8.50761 168.219
8.55235 398.015
8.59709 1142.01
8.64183 2163.16
8.68658 1075.56
8.73134 182.803
8.77609 102.235
8.82083 94.5747
8.86558 91.0997
8.91033 91.2696
8.9551 93.5103
8.99985 86.5299
9.04461 84.5522
9.08936 83.9131
9.13412 82.8534
9.17888 82.8818
9.22365 83.9176
9.26841 82.9996
9.31318 83.7657
9.35794 83.6916
9.4027 84.0246
9.44749 84.9735
9.49226 85.3331
9.53703 86.8181
9.5818 88.4792
9.62657 92.9887
9.67134 100.708
9.71614 95.1345
9.76091 94.6951
9.80569 97.6597
9.85047 101.433
9.89525 126.922
9.94005 139.926
9.98484 179.954
10.0296 352.264
10.0744 797.453
10.1192 1646.32
10.164 1646.57
10.2088 449.424
10.2536 135.265
10.2984 116.186
10.3432 117.486
10.388 106.425
10.4328 119.771
10.4776 161.726
10.5224 279.396
10.5672 498.265
10.612 515.372
10.6568 228.357
10.7017 100.54
10.7465 87.6402
10.7913 84.3007
10.8361 82.0833
10.8809 80.0724
10.9257 79.6333
10.9706 80.5189
11.0154 75.9539
11.0602 73.8018
11.105 72.9101
11.1499 77.9444
11.1947 85.3409
11.2395 75.8153
11.2844 71.4639
11.3292 68.2819
11.374 67.2152
11.4189 66.5081
11.4637 65.7524
11.5086 66.3633
11.5534 69.5194
11.5983 66.5391
11.6431 64.634
11.688 63.7216
11.7328 63.8911
11.7777 63.9178
11.8225 63.0663
11.8674 63.3084
11.9122 63.3388
11.9571 63.5346
12.002 64.3398
12.0468 68.602
12.0917 80.3814
12.1366 104.122
12.1814 154.593
12.2263 203.065
12.2712 174.591
12.3161 102.831
12.3609 72.4892
12.4058 65.6499
12.4507 65.3511
12.4956 65.0914
12.5405 65.5108
12.5853 66.3822
12.6302 74.7951
12.6751 80.5672
12.72 71.2841
12.7649 68.5786
12.8098 69.223
12.8547 70.4222
12.8996 71.8414
12.9445 73.0532
12.9894 74.7828
13.0343 76.5778
13.0792 79.6444
13.1242 88.9457
13.1691 114.006
13.214 151.164
13.2589 234.88
13.3038 357.325
13.3487 427.967
13.3937 282.947
13.4386 132.033
13.4835 107.739
13.5285 122.705
13.5734 159.961
13.6183 240.74
13.6633 332.946
13.7082 340.317
13.7531 201.356
13.7981 103.518
13.843 83.0224
13.888 80.7308
13.9329 78.1912
13.9779 76.8702
14.0228 75.1296
14.0678 74.122
14.1127 73.6317
14.1577 73.5307
14.2027 72.4469
14.2476 71.3263
14.2926 71.2986
14.3376 72.6505
14.3825 71.2439
14.4275 69.7834
14.4725 69.6055
14.5175 69.9237
14.5624 69.9233
14.6074 72.2635
14.6524 72.6346
14.6974 71.4158
14.7424 73.0149
14.7874 79.65
14.8324 90.1913
14.8774 111.281
14.9224 151.376
14.9674 199.742
15.0124 216.021
15.0574 155.362
15.1024 95.3237
15.1474 73.864
15.1924 71.7902
15.2374 72.1425
15.2824 71.4056
15.3274 68.9627
15.3725 67.8826
15.4175 67.2512
15.4625 66.7557
15.5076 67.2293
15.5526 67.2945
15.5976 66.716
15.6426 67.6528
15.6877 72.8191
15.7327 81.0756
15.7778 95.8622
15.8228 125.184
15.8679 166.244
15.9129 191.747
15.958 161.003
16.003 103.425
16.0481 70.6758
16.0931 65.888
16.1382 63.8074
16.1833 61.5742
16.2283 59.7753
16.2734 59.3262
16.3185 59.7299
16.3636 60.4409
16.4086 58.8018
16.4537 57.1498
16.4988 56.4559
16.5439 56.2925
16.589 55.9885
16.6341 55.6734
16.6792 55.3241
16.7243 55.5656
16.7694 55.8831
16.8145 55.6776
16.8596 56.069
16.9047 57.7559
16.9498 57.942
16.9949 56.449
17.04 56.6133
17.0851 57.6524
17.1302 59.2355
17.1754 62.3749
17.2205 67.1226
17.2656 74.109
17.3108 81.574
17.3559 82.4755
17.401 72.8554
17.4462 63.4749
17.4913 60.0727
17.5365 59.9131
17.5815 60.1414
17.6268 60.3703
17.6718 61.1408
17.7171 61.6718
17.7622 61.9546
17.8074 62.4252
17.8525 64.9662
17.8977 68.9424
17.9428 74.7615
17.9881 83.1543
18.0331 99.0394
18.0784 119.166
18.1237 137.193
18.1688 133.842
18.214 107.454
18.2591 88.9075
18.3044 90.5429
18.3495 99.4901
18.3948 106.195
18.4399 99.0604
18.4852 80.7487
18.5303 67.7335
18.5756 63.2803
18.6207 62.0828
18.666 61.2846
18.7112 60.5139
18.7565 59.6313
18.8016 59.3493
18.8469 58.5823
18.892 58.423
18.9374 58.0776
18.9825 57.8346
19.0278 57.6975
19.073 57.6433
19.1183 58.2104
19.1635 59.2619
19.2088 60.4953
19.254 62.802
19.2993 66.9549
19.3447 72.7533
19.3898 76.7112
19.4352 73.6363
19.4804 64.8347
19.5257 57.9565
19.5709 55.0934
19.6163 54.5948
19.6615 54.5131
19.7068 54.1039
19.752 54.0557
19.7974 54.3558
19.8426 55.11
19.888 55.5602
19.9332 57.0986
19.9786 59.2331
20.0238 62.6209
20.0692 67.1596
20.1144 70.1366
20.1598 69.2144
20.205 64.8448
20.2504 62.7767
20.2957 64.1244
20.3411 65.8413
20.3863 65.0527
20.4318 59.858
20.477 54.7773
20.5224 52.5703
20.5677 51.6329
20.6131 51.1643
20.6586 50.395
20.7038 50.2874
20.7493 49.7314
20.7945 49.6251
20.84 49.6047
20.8853 49.2135
20.9307 49.1419
20.976 49.3637
21.0215 49.4231
21.0668 49.6459
21.1122 50.2013
21.1575 50.6612
21.203 51.4284
21.2483 51.747
21.2938 52.2257
21.3391 50.8426
21.3846 49.7535
21.4299 49.1586
21.4754 49.01
21.5207 49.0821
21.5662 49.3884
21.6116 49.8007
21.6571 50.6731
21.7024 51.582
21.7479 53.2439
21.7933 55.7757
21.8388 59.1794
21.8843 62.7857
21.9297 65.0299
21.9752 64.2432
22.0206 60.9434
22.0661 57.484
22.1115 56.505
22.157 56.6269
22.2024 55.2371
22.248 52.3109
22.2933 50.5483
22.3389 49.9393
22.3843 49.8385
22.4299 49.7389
22.4753 49.6021
22.5208 49.2806
22.5662 49.2046
22.6118 49.3055
22.6572 49.4825
22.7028 49.8802
22.7483 50.3501
22.7939 51.0938
22.8393 52.3787
22.8849 54.5427
22.9303 56.4954
22.9759 58.1221
23.0214 58.1603
23.067 55.5323
23.1126 52.2036
23.1581 50.1069
23.2037 49.666
23.2492 49.5502
23.2948 49.5719
23.3403 49.8055
23.3859 50.371
23.4314 51.3621
23.477 53.0406
23.5225 55.0191
23.5682 57.0713
23.6137 58.2404
23.6593 56.6284
23.7048 52.7818
23.7505 49.1807
23.796 47.4233
23.8417 46.6902
23.8872 46.1576
23.9329 45.8326
23.9784 45.5699
24.0241 45.2162
24.0697 45.0823
24.1154 44.7182
24.1609 44.6119
24.2066 44.4521
24.2522 44.3562
24.2979 44.0243
24.3434 43.8439
24.3892 43.8598
24.4349 43.6613
24.4805 43.6
24.5262 43.707
24.5718 43.4732
24.6175 43.4962
24.6631 43.4019
24.7089 43.1816
24.7545 42.9125
24.8002 42.6574
24.8458 42.8093
24.8916 42.6896
24.9372 42.7407
24.983 43.1216
25.0286 43.3695
25.0744 43.7647
25.12 44.2383
25.1658 44.7897
25.2114 45.1627
25.2572 45.3597
25.3029 45.3484
25.3487 45.3783
25.3943 45.2737
25.4402 44.2212
25.4858 43.1789
25.5316 42.2954
25.5773 41.4552
25.6231 41.419
25.669 41.2664
25.7147 41.1228
25.7605 41.0344
25.8062 41.1148
25.8521 41.1376
25.8977 41.1409
25.9436 41.2865
25.9893 41.5026
26.0352 41.9763
26.0809 41.9267
26.1268 42.2133
26.1725 41.9701
26.2184 41.4833
26.2641 40.7968
26.31 40.5056
26.3557 40.7597
26.4017 40.6938
26.4474 40.9584
26.4933 41.4227
26.5391 41.7542
26.585 42.2064
26.6308 42.4227
26.6767 42.6653
26.7225 42.6339
26.7684 41.9118
26.8142 41.4916
26.8601 40.9838
26.9059 40.4929
26.9519 40.0394
26.9979 39.8166
27.0437 39.3598
27.0896 39.3661
27.1354 39.205
27.1814 39.1616
27.2272 39.0359
27.2732 38.9817
27.3191 38.9439
27.3651 38.9011
27.4109 38.8822
27.4569 38.88
27.5027 39.1274
27.5488 39.1018
27.5946 38.7625
27.6407 38.7472
27.6865 38.6766
27.7326 38.4116
27.7784 38.2965
27.8245 38.2742
27.8703 38.4774
27.9164 38.7456
27.9623 38.8311
28.0084 39.0682
28.0543 39.5566
28.1003 39.4094
28.1462 39.3297
28.1923 39.0219
28.2384 38.5057
28.2843 37.9859
28.3304 37.7644
28.3764 37.2192
28.4225 36.9958
28.4684 36.7972
28.5145 36.356
28.5605 36.3661
28.6066 36.0932
28.6526 36.072
28.6987 36.1277
28.7447 35.956
28.7908 35.8415
28.8368 35.9157
28.8829 35.8679
28.9289 35.8498
28.9751 35.5825
29.0211 35.4584
29.0673 35.1329
29.1133 35.0857
29.1595 34.9077
29.2055 34.7906
29.2517 34.8685
29.2977 34.7125
29.3439 34.7412
29.3899 34.7602
29.4361 34.6218
29.4824 34.4734
29.5284 34.2179
29.5746 33.9084
29.6207 33.5336
29.6669 33.6258
29.713 33.4442
29.7593 33.3219
29.8053 33.3221
29.8516 33.1641
29.8977 33.2487
29.9439 33.0425
29.99 33.003
30.0363 32.8956
30.0824 32.9313
30.1287 32.758
30.1748 32.9551
30.2211 32.9043
30.2673 32.6862
30.3136 32.84
30.3597 32.5849
30.406 32.5876
30.4522 32.4712
30.4985 32.3727
30.5447 32.6908
30.591 32.5454
30.6372 32.6179
30.6835 32.6243
30.7297 32.635
30.7761 32.6083
30.8224 32.4639
30.8686 32.2266
30.915 32.0938
30.9612 31.9078
31.0076 31.8671
31.0538 31.5673
31.1002 31.5484
31.1464 31.4687
31.1928 31.3378
31.2391 31.2996
31.2855 31.2704
31.3317 31.3178
31.3781 31.3034
31.4244 31.2743
31.4708 31.1836
31.5171 31.1997
31.5636 31.157
31.6098 30.929
31.6563 30.7989
31.7026 30.6267
31.7491 30.511
31.7953 30.5706
31.8418 30.497
31.8881 30.4913
31.9346 30.5206
31.9809 30.4348
32.0275 30.3377
32.074 30.1783
32.1203 29.9958
32.1668 29.8864
32.2132 29.7232
32.2597 29.6026
32.306 29.5578
32.3526 29.3417
32.399 29.2506
32.4455 29.1843
32.4919 29.0653
32.5385 28.9945
32.5848 28.7985
32.6314 28.796
32.6778 28.8263
32.7244 28.6724
32.7708 28.5193
32.8174 28.6545
32.8638 28.4129
32.9104 28.437
32.9569 28.4516
33.0035 28.2185
33.0499 28.1881
33.0966 28.1621
33.143 28.1663
33.1897 28.0423
33.2361 27.9395
33.2828 27.9627
33.3293 27.7862
33.3759 27.7519
33.4226 27.5514
33.4691 27.4614
33.5158 27.4761
33.5623 27.3013
33.609 27.163
33.6555 27.0561
33.7022 27.0086
33.7487 26.8409
33.7954 26.8763
33.842 26.7451
33.8887 26.6544
33.9353 26.6733
33.982 26.537
34.0286 26.3909
34.0753 26.34
34.1219 26.2062
34.1687 26.2665
34.2152 26.1605
34.262 25.9248
34.3086 25.7953
34.3554 25.8373
34.402 25.7032
34.4488 25.678
34.4954 25.554
34.5422 25.505
34.5889 25.4183
34.6357 25.3323
34.6825 25.329
34.7292 25.2073
34.776 25.0447
34.8227 25.0465
34.8695 24.9973
34.9162 24.8981
34.9631 24.8108
35.0098 24.7836
35.0566 24.6982
35.1033 24.5927
35.1502 24.6536
35.1969 24.5318
35.2438 24.4325
35.2906 24.4978
35.3375 24.4042
35.3842 24.3048
35.4311 24.3012
35.4779 24.3159
35.5248 24.1839
35.5716 24.0732
35.6185 24.0571
35.6653 23.9414
35.7123 23.8502
35.759 23.74
35.806 23.6278
35.8528 23.5067
35.8998 23.6113
35.9468 23.4134
35.9936 23.3865
36.0406 23.3872
36.0874 23.2731
36.1345 23.1885
36.1813 23.115
36.2283 23.0329
36.2752 22.9148
36.3222 23.0225
36.3691 22.8789
36.4161 22.7322
36.463 22.7058
36.5101 22.6552
36.557 22.6328
36.6041 22.522
36.651 22.4657
36.6981 22.4008
36.745 22.3246
36.7921 22.2914
36.839 22.148
36.8861 22.1606
36.9331 21.9327
36.9802 22.041
37.0272 21.8485
37.0743 21.756
37.1213 21.6958
37.1684 21.5853
37.2154 21.6419
37.2626 21.524
37.3098 21.5775
37.3568 21.4394
37.404 21.3368
37.451 21.2169
37.4982 21.2151
37.5452 21.1186
37.5924 21.1064
37.6395 21.1062
37.6867 20.9593
37.7337 20.8622
37.781 20.7598
37.8281 20.7909
37.8753 20.6282
37.9224 20.6256
37.9697 20.5346
38.0168 20.4096
38.064 20.4233
38.1111 20.324
38.1584 20.3335
38.2056 20.2736
38.2529 20.1536
38.3 20.0851
38.3473 20.0215
38.3945 19.9971
38.4418 19.9641
38.489 19.8745
38.5363 19.7818
38.5837 19.7381
38.6309 19.6666
38.6782 19.5661
38.7254 19.501
38.7728 19.4652
38.82 19.3418
38.8674 19.3922
38.9146 19.2508
38.9621 19.1805
39.0093 19.2269
39.0567 19.1139
39.104 19.041
39.1514 18.9414
39.1987 18.9573
39.2461 18.9221
39.2934 18.7525
39.3409 18.7109
39.3882 18.6256
39.4356 18.5936
39.483 18.5725
39.5304 18.4626
39.5778 18.4682
39.6253 18.3652
39.6726 18.3524
39.7201 18.3172
39.7675 18.1981
39.815 18.1611
39.8624 18.1206
39.9099 18.0619
39.9575 17.996
40.0049 17.8693
40.0525 17.8686
40.0999 17.7988
40.1474 17.7583
40.1949 17.7582
40.2425 17.6014
40.2899 17.6067
40.3375 17.5879
40.385 17.4942
40.4326 17.3765
40.48 17.3565
40.5277 17.346
40.5752 17.2225
40.6228 17.1786
40.6703 17.1329
40.718 17.0843
40.7655 17.0529
40.8132 16.9491
40.8607 16.9839
40.9084 16.8703
40.9559 16.8226
41.0036 16.8262
41.0512 16.7531
41.0989 16.7021
41.1465 16.5687
41.1942 16.5879
41.242 16.4912
41.2896 16.4149
41.3373 16.3845
41.3849 16.3532
41.4327 16.2801
41.4803 16.2175
41.5281 16.1583
41.5758 16.1079
41.6236 16.0501
41.6712 15.9685
41.7191 15.9527
41.7667 15.8911
41.8146 15.8577
41.8622 15.8319
41.9101 15.7252
41.9578 15.7473
42.0057 15.6084
42.0534 15.5812
42.1013 15.5687
42.149 15.4392
42.1969 15.4557
42.2446 15.4139
42.2925 15.334
42.3403 15.2233
42.3882 15.2565
42.436 15.1858
42.4839 15.1111
42.5319 15.092
42.5797 14.9766
42.6277 14.9122
42.6755 14.9543
42.7235 14.8031
42.7713 14.8339
42.8193 14.7823
42.8671 14.7281
42.9152 14.6776
42.963 14.6222
43.0111 14.5645
43.0589 14.4961
43.107 14.4477
43.1549 14.4255
43.2029 14.3553
43.2508 14.3571
43.2989 14.2661
43.3468 14.1617
43.3949 14.1752
43.4429 14.1321
43.491 14.0621
43.5389 13.9733
43.5871 13.9619
43.635 13.8602
43.6832 13.962
43.7312 13.8054
43.7793 13.7954
43.8273 13.7887
43.8755 13.6689
43.9237 13.6982
43.9717 13.6105
44.0199 13.5096
44.068 13.5384
44.1162 13.4149
44.1642 13.3963
44.2125 13.3765
44.2606 13.2985
44.3088 13.2503
44.3569 13.2328
44.4052 13.199
44.4533 13.1065
44.5016 13.0324
44.5497 13.0458
44.598 12.9869
44.6461 12.9455
44.6945 12.873
44.7426 12.8398
44.791 12.7854
44.8391 12.8027
44.8875 12.6915
44.9357 12.7026
44.984 12.6294
45.0322 12.6
45.0806 12.488
45.1288 12.4846
45.1773 12.4517
45.2257 12.3904
45.2739 12.3765
45.3224 12.2892
45.3706 12.2631
45.4191 12.207
45.4673 12.2175
45.5158 12.1608
45.5641 12.0847
45.6126 12.076
45.6609 12.0375
45.7094 11.968
45.7577 11.959
45.8063 11.8723
45.8546 11.8842
45.9031 11.8028
45.9515 11.7451
46.0001 11.7074
46.0484 11.6587
46.097 11.661
46.1454 11.6084
46.194 11.5478
46.2424 11.4963
46.291 11.4249
46.3395 11.3976
46.3881 11.3327
46.4365 11.3572
46.4852 11.305
46.5337 11.212
46.5823 11.2551
46.631 11.1537
46.6795 11.1518
46.7282 11.0954
46.7767 11.0808
46.8254 11.0164
46.8739 10.9641
46.9226 10.9138
46.9712 10.9164
47.0199 10.8378
47.0685 10.8233
47.1173 10.7786
47.1658 10.7014
47.2146 10.6975
47.2632 10.639
47.312 10.6291
47.3606 10.5446
47.4095 10.5109
47.4581 10.5183
47.5069 10.4412
47.5556 10.4299
47.6044 10.372
47.6531 10.3528
47.702 10.3322
47.7507 10.2449
47.7996 10.2131
47.8483 10.2032
47.8972 10.1678
47.9461 10.1209
47.9948 10.0932
48.0438 10.0757
48.0925 10.0135
48.1415 9.99673
48.1902 9.91371
48.2392 9.8938
48.288 9.87365
48.337 9.85124
48.3858 9.79135
48.4348 9.74181
48.4837 9.75049
48.5327 9.73622
48.5815 9.66313
48.6306 9.62911
48.6795 9.6068
48.7285 9.55824
48.7774 9.50246
48.8265 9.4921
48.8754 9.39357
48.9245 9.43289
48.9734 9.34987
49.0226 9.35014
49.0715 9.308
49.1206 9.28479
49.1696 9.24743
49.2188 9.181
49.2679 9.16959
49.3169 9.13395
49.3661 9.09283
49.4151 9.06092
49.4643 9.0452
49.5134 8.98882
49.5626 8.92699
49.6117 8.89171
49.6609 8.90143
49.71 8.82622
49.7592 8.79448
49.8083 8.75269
49.8576 8.77962
49.9067 8.69659
49.956 8.66315
50.0052 8.63993
50.0545 8.60063
50.1036 8.58465
50.153 8.52823
50.2022 8.5268
50.2515 8.4755
50.3007 8.41183
50.3501 8.42944
50.3993 8.40641
50.4487 8.34843
50.498 8.30646
50.5474 8.30164
50.5966 8.27494
50.6461 8.20667
50.6955 8.18995
50.7448 8.16383
50.7943 8.14608
50.8436 8.10123
50.8931 8.05272
50.9424 8.03343
50.9919 8.00742
51.0413 7.97055
51.0908 7.91053
51.1402 7.90467
51.1897 7.88905
51.2391 7.85082
51.2887 7.82227
51.3381 7.79903
51.3877 7.73166
51.4371 7.70324
51.4867 7.67472
51.5362 7.67763
51.5858 7.64425
51.6353 7.54835
51.6849 7.52468
51.7344 7.51224
51.7841 7.50111
51.8336 7.46209
51.8833 7.41548
51.9328 7.40142
51.9826 7.35177
52.0323 7.36641
52.0818 7.30575
52.1316 7.26932
52.1812 7.22818
52.231 7.18578
52.2806 7.16589
52.3304 7.19559
52.38 7.19137
52.4298 7.13115
52.4794 7.05274
52.5293 7.02329
52.5789 7.01434
52.6288 6.97241
52.6785 6.93916
52.7284 6.91367
52.7781 6.87946
52.828 6.88748
52.8777 6.81656
52.9276 6.82598
52.9774 6.79581
53.0273 6.79192
53.0771 6.74619
53.1271 6.68403
53.1769 6.70313
53.2269 6.62626
53.2767 6.60339
53.3267 6.55686
53.3765 6.54765
53.4266 6.53625
53.4766 6.51454
53.5265 6.46185
53.5765 6.45503
53.6264 6.43784
53.6765 6.36457
53.7264 6.37843
53.7765 6.33211
53.8265 6.31432
53.8766 6.26668
53.9266 6.24037
53.9767 6.22161
54.0267 6.18993
54.0769 6.18856
54.1269 6.12612
54.1771 6.08697
54.2271 6.05799
54.2773 6.03134
54.3274 6.02782
54.3776 5.99408
54.4277 5.95286
54.478 5.89877
54.528 5.90319
54.5783 5.84373
54.6285 5.81305
54.6788 5.77262
54.7289 5.71955
54.7792 5.72292
54.8296 5.63734
54.8798 5.57618
54.9301 5.5478
54.9803 5.52775
55.0307 5.52282
55.0809 5.46855
55.1314 5.41451
55.1816 5.32583
55.232 5.34133
55.2823 5.31405
55.3328 5.2336
55.383 5.15241
55.4335 5.1544
55.4838 5.1146
55.5344 5.04556
55.5847 5.04711
55.6352 4.98877
55.6856 4.95213
55.7361 4.89465