File: XRD/Ni3Fe_FD0040.xy
TT I
1.27165 32.5784
1.31627 31.0294
1.36089 30.2805
1.40551 28.3942
1.45013 27.6149
1.49476 26.4674
1.53938 25.467
1.584 23.8405
1.62863 24.1995
1.67325 23.2021
1.71787 22.7599
1.7625 22.2729
1.80712 21.7017
1.85174 21.5806
1.89636 22.0155
1.94099 21.4986
1.98562 21.1934
2.03025 21.8215
2.07487 21.474
2.11949 21.2959
2.16411 21.7014
2.20874 21.9861
2.25338 22.1358
2.298 23.021
2.34263 22.4074
2.38725 22.0553
2.43188 21.8778
2.4765 22.2889
2.52115 22.0202
2.56577 23.0523
2.6104 24.0724
2.65503 24.854
2.69965 26.6307
2.7443 27.6483
2.78893 30.4501
2.83356 33.244
2.87818 36.8622
2.92281 40.9453
2.96744 47.4702
3.01209 54.909
3.05672 63.6289
3.10135 74.0954
3.14599 78.4325
3.19062 77.0285
3.23527 70.1312
3.2799 59.4177
3.32454 48.7165
3.36917 41.8667
3.4138 35.8233
3.45844 33.0389
3.50309 31.4
3.54773 29.9328
3.59237 30.3505
3.637 31.3749
3.68164 31.0981
3.7263 29.9237
3.77094 28.5329
3.81558 27.4747
3.86022 27.3262
3.90486 28.0893
3.9495 27.9853
3.99416 28.3099
4.0388 29.1787
4.08344 30.9198
4.12809 32.2224
4.17273 34.9872
4.21738 40.876
4.26204 47.6434
4.30669 51.7959
4.35133 48.2362
4.39598 42.9858
4.44063 41.008
4.4853 41.5288
4.52995 40.8402
4.5746 40.2701
4.61925 40.7007
4.6639 41.5631
4.70855 43.6659
4.75322 45.2496
4.79788 48.7512
4.84253 52.3295
4.88719 56.7912
4.93184 63.4181
4.97652 72.6481
5.02118 89.9116
5.06583 111.752
5.11049 136.255
5.15515 184.45
5.19981 296.912
5.24449 660.302
5.28916 1428.09
5.33382 3760.69
5.37848 3508.49
5.42315 961.299
5.46783 332.754
5.5125 203.696
5.55716 153.149
5.60183 125.589
5.6465 113.365
5.69117 108.034
5.73586 101.19
5.78053 98.6782
5.8252 98.5132
5.86988 104.453
5.91455 115.198
5.95924 137.008
6.00392 186.946
6.0486 308.85
6.09328 525.205
6.13795 953.09
6.18263 1232.17
6.22733 603.338
6.27201 254.548
6.3167 143.986
6.36138 98.4144
6.40606 76.791
6.45075 65.8844
6.49545 58.2301
6.54014 53.1517
6.58483 50.0795
6.62952 48.4686
6.67421 47.6919
6.71892 47.9667
6.76361 47.2938
6.8083 44.2926
6.853 42.3153
6.89769 41.2007
6.94239 40.3384
6.98711 39.5359
7.03181 39.5064
7.07651 39.6924
7.12121 40.1053
7.16591 40.4152
7.21063 41.4251
7.25533 43.7623
7.30004 49.2449
7.34475 50.082
7.38945 45.1808
7.43416 41.4774
7.47889 42.0039
7.5236 52.1786
7.56831 133.822
7.61303 176.934
7.65774 68.3228
7.70247 42.9631
7.74719 39.0668
7.79191 37.776
7.83663 37.1866
7.88135 37.1531
7.92607 37.1684
7.97081 37.8871
8.01553 38.1784
8.06026 38.9425
8.10498 40.0519
8.14971 41.32
8.19446 43.0072
8.23919 44.1469
8.28392 46.2945
8.32865 47.9395
8.37339 51.8839
8.41812 56.5847
8.46288 64.8062
8.50761 79.9503
8.55235 114.966
8.59709 178.535
8.64183 246.436
8.68658 489.55
8.73134 788.036
8.77609 483.532
8.82083 204.465
8.86558 115.172
8.91033 87.9359
8.9551 75.5059
8.99985 69.2809
9.04461 64.9549
9.08936 62.6762
9.13412 61.9737
9.17888 64.2189
9.22365 77.3563
9.26841 192.632
9.31318 325.309
9.35794 141.586
9.4027 69.9427
9.44749 59.8007
9.49226 55.8429
9.53703 54.2611
9.5818 54.7186
9.62657 54.3878
9.67134 55.2881
9.71614 55.9124
9.76091 56.9191
9.80569 58.6271
9.85047 60.9708
9.89525 65.3165
9.94005 71.8504
9.98484 83.0114
10.0296 110.213
10.0744 158.14
10.1192 199.671
10.164 300.135
10.2088 620.386
10.2536 753.517
10.2984 382.054
10.3432 178.967
10.388 110.052
10.4328 87.7524
10.4776 82.9569
10.5224 89.9302
10.5672 95.8109
10.612 114.734
10.6568 194.751
10.7017 284.653
10.7465 231.157
10.7913 118.335
10.8361 67.04
10.8809 54.6278
10.9257 49.8055
10.9706 47.4186
11.0154 45.4885
11.0602 44.1062
11.105 43.0893
11.1499 42.0561
11.1947 41.8482
11.2395 41.2145
11.2844 40.922
11.3292 40.2553
11.374 39.2106
11.4189 38.8604
11.4637 38.2401
11.5086 37.8472
11.5534 38.0541
11.5983 38.1094
11.6431 37.87
11.688 37.4435
11.7328 37.5096
11.7777 37.6547
11.8225 37.7756
11.8674 38.6568
11.9122 41.1671
11.9571 54.442
12.002 101.285
12.0468 101.404
12.0917 57.1415
12.1366 47.7777
12.1814 48.8628
12.2263 51.5615
12.2712 60.4795
12.3161 79.4496
12.3609 92.1515
12.4058 74.9277
12.4507 54.9956
12.4956 46.42
12.5405 42.3714
12.5853 40.7405
12.6302 39.5599
12.6751 40.0541
12.72 39.892
12.7649 39.6294
12.8098 39.2595
12.8547 39.3627
12.8996 39.7943
12.9445 40.5959
12.9894 41.2997
13.0343 42.3471
13.0792 44.7299
13.1242 52.0046
13.1691 65.0536
13.214 65.977
13.2589 67.808
13.3038 71.7318
13.3487 81.422
13.3937 113.095
13.4386 178.597
13.4835 206.551
13.5285 145.373
13.5734 99.5446
13.6183 84.7381
13.6633 79.7464
13.7082 87.2127
13.7531 120.021
13.7981 183.55
13.843 181.642
13.888 110.876
13.9329 70.5217
13.9779 56.4843
14.0228 50.4509
14.0678 47.5375
14.1127 47.6565
14.1577 55.0517
14.2027 88.4639
14.2476 101.143
14.2926 63.5855
14.3376 46.4556
14.3825 42.6682
14.4275 41.279
14.4725 40.4576
14.5175 40.0889
14.5624 39.5434
14.6074 39.6536
14.6524 39.7549
14.6974 40.0265
14.7424 40.2994
14.7874 40.9705
14.8324 43.1294
14.8774 46.695
14.9224 50.1723
14.9674 51.6221
15.0124 55.8796
15.0574 68.7878
15.1024 96.7559
15.1474 118.681
15.1924 100.591
15.2374 70.2977
15.2824 53.2496
15.3274 45.8801
15.3725 42.7497
15.4175 41.358
15.4625 40.2901
15.5076 39.8259
15.5526 39.6534
15.5976 39.4539
15.6426 39.4219
15.6877 39.8318
15.7327 41.1282
15.7778 43.9525
15.8228 47.1956
15.8679 48.7818
15.9129 50.9968
15.958 59.3828
16.003 77.773
16.0481 107.144
16.0931 113.447
16.1382 94.3284
16.1833 69.5736
16.2283 49.2785
16.2734 41.5448
16.3185 38.5725
16.3636 36.819
16.4086 35.5891
16.4537 34.896
16.4988 34.1158
16.5439 33.6815
16.589 33.5319
16.6341 33.0246
16.6792 32.8223
16.7243 32.8115
16.7694 32.7699
16.8145 32.5662
16.8596 32.7517
16.9047 33.3631
16.9498 35.0807
16.9949 40.3633
17.04 42.9704
17.0851 37.7479
17.1302 34.3826
17.1754 34.3639
17.2205 34.8671
17.2656 35.1177
17.3108 35.7448
17.3559 36.2386
17.401 38.6388
17.4462 43.6878
17.4913 49.2014
17.5365 48.0879
17.5815 41.7742
17.6268 38.0653
17.6718 36.5318
17.7171 35.9927
17.7622 36.5804
17.8074 39.7465
17.8525 43.884
17.8977 43.4975
17.9428 40.5259
17.9881 41.0993
18.0331 42.7154
18.0784 43.3384
18.1237 44.493
18.1688 48.0465
18.214 57.1774
18.2591 74.9877
18.3044 91.1582
18.3495 83.5095
18.3948 64.0523
18.4399 54.4888
18.4852 54.8134
18.5303 63.2008
18.5756 68.7064
18.6207 63.4538
18.666 54.0619
18.7112 45.5865
18.7565 39.6693
18.8016 37.7512
18.8469 36.6176
18.892 36.0635
18.9374 35.3305
18.9825 34.8279
19.0278 34.7428
19.073 34.5889
19.1183 34.3165
19.1635 34.3581
19.2088 34.8234
19.254 35.4643
19.2993 36.1485
19.3447 38.3602
19.3898 44.7242
19.4352 50.0354
19.4804 47.6579
19.5257 45.2121
19.5709 46.5079
19.6163 45.0501
19.6615 40.2295
19.7068 36.29
19.752 34.4165
19.7974 33.434
19.8426 32.9865
19.888 32.597
19.9332 32.648
19.9786 33.0643
20.0238 33.0755
20.0692 33.0659
20.1144 33.4298
20.1598 34.5679
20.205 36.4804
20.2504 40.0756
20.2957 44.0991
20.3411 43.7273
20.3863 40.4066
20.4318 38.1542
20.477 38.9799
20.5224 41.549
20.5677 41.795
20.6131 38.1754
20.6586 34.6387
20.7038 32.6317
20.7493 31.6735
20.7945 31.7356
20.84 33.7469
20.8853 35.2513
20.9307 34.0692
20.976 31.3155
21.0215 30.024
21.0668 29.8118
21.1122 29.8098
21.1575 29.7195
21.203 29.5348
21.2483 29.4919
21.2938 29.7788
21.3391 29.7589
21.3846 30.3812
21.4299 31.4109
21.4754 32.3555
21.5207 32.1299
21.5662 31.7092
21.6116 30.8871
21.6571 30.1636
21.7024 29.9568
21.7479 30.5895
21.7933 30.9148
21.8388 31.2535
21.8843 31.4246
21.9297 31.865
21.9752 33.0999
22.0206 35.0193
22.0661 37.8572
22.1115 41.9539
22.157 43.9031
22.2024 42.8554
22.248 40.9327
22.2933 39.3959
22.3389 38.0602
22.3843 36.8038
22.4299 34.6085
22.4753 32.6878
22.5208 31.4649
22.5662 30.8471
22.6118 30.5957
22.6572 30.1117
22.7028 30.2863
22.7483 30.3487
22.7939 30.535
22.8393 31.5178
22.8849 32.5677
22.9303 32.5371
22.9759 31.7687
23.0214 31.5158
23.067 32.1941
23.1126 33.686
23.1581 36.484
23.2037 39.0618
23.2492 38.6106
23.2948 35.6398
23.3403 32.966
23.3859 32.1133
23.4314 32.0125
23.477 33.0672
23.5225 34.3712
23.5682 34.4793
23.6137 33.0469
23.6593 32.4031
23.7048 33.1282
23.7505 35.1115
23.796 38.3215
23.8417 39.974
23.8872 37.9486
23.9329 34.3085
23.9784 31.6037
24.0241 30.3075
24.0697 29.5777
24.1154 29.3485
24.1609 29.3564
24.2066 28.9387
24.2522 28.3023
24.2979 27.7344
24.3434 27.4875
24.3892 27.2549
24.4349 27.1933
24.4805 27.1088
24.5262 27.1197
24.5718 26.8718
24.6175 26.8157
24.6631 27.0827
24.7089 27.7102
24.7545 28.4422
24.8002 28.3588
24.8458 27.6923
24.8916 27.0094
24.9372 26.6733
24.983 26.629
25.0286 26.6315
25.0744 26.7643
25.12 26.5851
25.1658 26.6864
25.2114 26.8481
25.2572 27.1295
25.3029 27.6293
25.3487 28.4404
25.3943 28.9994
25.4402 29.0393
25.4858 29.0155
25.5316 29.2028
25.5773 29.9309
25.6231 30.4102
25.669 29.3176
25.7147 28.0391
25.7605 26.9689
25.8062 26.434
25.8521 26.4878
25.8977 26.7945
25.9436 26.9271
25.9893 26.5271
26.0352 26.1166
26.0809 25.7318
26.1268 25.7878
26.1725 25.6634
26.2184 25.9246
26.2641 26.3474
26.31 26.9031
26.3557 27.5831
26.4017 27.4729
26.4474 27.0687
26.4933 26.5189
26.5391 26.232
26.585 25.949
26.6308 25.9099
26.6767 25.9147
26.7225 26.0844
26.7684 26.4419
26.8142 26.8636
26.8601 27.5858
26.9059 28.4941
26.9519 28.7086
26.9979 28.6788
27.0437 28.4979
27.0896 28.2875
27.1354 27.441
27.1814 26.4505
27.2272 25.8012
27.2732 25.3592
27.3191 25.1087
27.3651 24.9592
27.4109 24.8446
27.4569 24.7781
27.5027 24.8409
27.5488 24.8204
27.5946 24.8146
27.6407 24.8808
27.6865 24.9618
27.7326 25.0117
27.7784 24.9984
27.8245 25.2453
27.8703 25.158
27.9164 24.9758
27.9623 24.752
28.0084 24.6838
28.0543 25.1484
28.1003 25.4207
28.1462 25.6543
28.1923 25.6576
28.2384 25.5335
28.2843 26.0113
28.3304 26.5733
28.3764 26.6574
28.4225 26.2277
28.4684 25.7904
28.5145 25.6436
28.5605 25.2089
28.6066 24.8212
28.6526 24.4002
28.6987 24.1655
28.7447 23.6315
28.7908 23.3733
28.8368 23.0618
28.8829 22.9733
28.9289 22.994
28.9751 22.772
29.0211 22.8718
29.0673 22.6852
29.1133 22.7961
29.1595 23.0695
29.2055 23.1431
29.2517 22.9725
29.2977 22.6398
29.3439 22.3704
29.3899 22.2526
29.4361 22.1172
29.4824 22.0267
29.5284 22.0113
29.5746 21.9771
29.6207 22.0786
29.6669 22.2793
29.713 22.2583
29.7593 22.1553
29.8053 21.917
29.8516 21.7235
29.8977 21.464
29.9439 21.4205
29.99 21.404
30.0363 21.2734
30.0824 21.306
30.1287 21.3189
30.1748 21.4618
30.2211 21.5023
30.2673 21.1948
30.3136 21.1565
30.3597 21.0044
30.406 21.1165
30.4522 21.0956
30.4985 21.1663
30.5447 21.2449
30.591 21.132
30.6372 21.1384
30.6835 20.9204
30.7297 20.8991
30.7761 20.8922
30.8224 20.9923
30.8686 21.0715
30.915 21.2394
30.9612 21.5173
31.0076 21.6579
31.0538 21.7104
31.1002 21.726
31.1464 21.5283
31.1928 21.3861
31.2391 21.2433
31.2855 20.8562
31.3317 20.7023
31.3781 20.5753
31.4244 20.4867
31.4708 20.3472
31.5171 20.4246
31.5636 20.3851
31.6098 20.4654
31.6563 20.5025
31.7026 20.5847
31.7491 20.6101
31.7953 20.7187
31.8418 20.6974
31.8881 20.5559
31.9346 20.3107
31.9809 20.1387
32.0275 20.0313
32.074 20.1741
32.1203 20.132
32.1668 20.1105
32.2132 20.2806
32.2597 20.25
32.306 20.3032
32.3526 19.9942
32.399 19.9417
32.4455 19.7126
32.4919 19.5724
32.5385 19.4956
32.5848 19.271
32.6314 19.3098
32.6778 19.1637
32.7244 19.0263
32.7708 18.9203
32.8174 18.85
32.8638 18.7215
32.9104 18.7712
32.9569 18.7979
33.0035 18.7759
33.0499 18.8312
33.0966 18.7866
33.143 18.6225
33.1897 18.5045
33.2361 18.4611
33.2828 18.3791
33.3293 18.331
33.3759 18.442
33.4226 18.4448
33.4691 18.5519
33.5158 18.5446
33.5623 18.5669
33.609 18.419
33.6555 18.3614
33.7022 18.2051
33.7487 18.0854
33.7954 17.9788
33.842 17.8195
33.8887 17.7527
33.9353 17.7277
33.982 17.6349
34.0286 17.5034
34.0753 17.5224
34.1219 17.5798
34.1687 17.5126
34.2152 17.4942
34.262 17.3716
34.3086 17.2655
34.3554 17.2609
34.402 17.0882
34.4488 17.1369
34.4954 17.0224
34.5422 17.0261
34.5889 16.8746
34.6357 16.9161
34.6825 16.9187
34.7292 16.8208
34.776 16.7199
34.8227 16.6323
34.8695 16.5966
34.9162 16.5142
34.9631 16.424
35.0098 16.4522
35.0566 16.3553
35.1033 16.3402
35.1502 16.3286
35.1969 16.2509
35.2438 16.2597
35.2906 16.2003
35.3375 16.1887
35.3842 16.1875
35.4311 16.1854
35.4779 16.0955
35.5248 16.1743
35.5716 16.0448
35.6185 16.1505
35.6653 16.0471
35.7123 16.1604
35.759 16.2141
35.806 16.1364
35.8528 16.1251
35.8998 15.999
35.9468 15.956
35.9936 15.8524
36.0406 15.7731
36.0874 15.7887
36.1345 15.7178
36.1813 15.5588
36.2283 15.5003
36.2752 15.383
36.3222 15.5242
36.3691 15.382
36.4161 15.2687
36.463 15.379
36.5101 15.3412
36.557 15.3768
36.6041 15.2054
36.651 15.2609
36.6981 15.1487
36.745 15.1089
36.7921 14.9579
36.839 14.9781
36.8861 15.0115
36.9331 14.9962
36.9802 14.9251
37.0272 14.857
37.0743 14.7838
37.1213 14.7311
37.1684 14.6929
37.2154 14.5731
37.2626 14.4777
37.3098 14.5145
37.3568 14.4404
37.404 14.4612
37.451 14.358
37.4982 14.3424
37.5452 14.2394
37.5924 14.195
37.6395 14.2533
37.6867 14.1927
37.7337 14.119
37.781 14.0148
37.8281 14.0224
37.8753 13.9423
37.9224 13.906
37.9697 13.8724
38.0168 13.794
38.064 13.8074
38.1111 13.778
38.1584 13.7446
38.2056 13.6981
38.2529 13.6082
38.3 13.5763
38.3473 13.5456
38.3945 13.4435
38.4418 13.4034
38.489 13.4297
38.5363 13.3655
38.5837 13.3218
38.6309 13.343
38.6782 13.2312
38.7254 13.2287
38.7728 13.1884
38.82 13.1871
38.8674 13.0966
38.9146 13.0762
38.9621 12.9756
39.0093 13.009
39.0567 13.0086
39.104 12.9696
39.1514 12.8721
39.1987 12.8403
39.2461 12.8302
39.2934 12.7452
39.3409 12.6832
39.3882 12.6294
39.4356 12.6471
39.483 12.5819
39.5304 12.5174
39.5778 12.5561
39.6253 12.4333
39.6726 12.3758
39.7201 12.3949
39.7675 12.3447
39.815 12.338
39.8624 12.2376
39.9099 12.2287
39.9575 12.1871
40.0049 12.2376
40.0525 12.147
40.0999 12.1718
40.1474 12.1549
40.1949 12.0472
40.2425 12.0488
40.2899 12.0204
40.3375 12.0344
40.385 11.9046
40.4326 11.858
40.48 11.8514
40.5277 11.8169
40.5752 11.7645
40.6228 11.7338
40.6703 11.6987
40.718 11.6941
40.7655 11.659
40.8132 11.6178
40.8607 11.5955
40.9084 11.5673
40.9559 11.5149
41.0036 11.5083
41.0512 11.4689
41.0989 11.4633
41.1465 11.4128
41.1942 11.3834
41.242 11.2857
41.2896 11.2825
41.3373 11.1792
41.3849 11.261
41.4327 11.1872
41.4803 11.1548
41.5281 11.0887
41.5758 10.9973
41.6236 11.0142
41.6712 10.9811
41.7191 10.9493
41.7667 10.8837
41.8146 10.8884
41.8622 10.7969
41.9101 10.7914
41.9578 10.7174
42.0057 10.7396
42.0534 10.7328
42.1013 10.6845
42.149 10.6795
42.1969 10.6041
42.2446 10.6022
42.2925 10.5636
42.3403 10.4929
42.3882 10.4691
42.436 10.4353
42.4839 10.4158
42.5319 10.4023
42.5797 10.2875
42.6277 10.2879
42.6755 10.2442
42.7235 10.2252
42.7713 10.1904
42.8193 10.1993
42.8671 10.1083
42.9152 10.1033
42.963 10.0687
43.0111 9.98122
43.0589 9.96726
43.107 9.89341
43.1549 9.88429
43.2029 9.8571
43.2508 9.90211
43.2989 9.7926
43.3468 9.76626
43.3949 9.762
43.4429 9.70265
43.491 9.69397
43.5389 9.66471
43.5871 9.62972
43.635 9.56861
43.6832 9.55021
43.7312 9.50399
43.7793 9.51187
43.8273 9.47219
43.8755 9.40256
43.9237 9.41421
43.9717 9.42805
44.0199 9.3349
44.068 9.30481
44.1162 9.30517
44.1642 9.26686
44.2125 9.23412
44.2606 9.16696
44.3088 9.17915
44.3569 9.14048
44.4052 9.08657
44.4533 9.0644
44.5016 9.007
44.5497 9.00928
44.598 8.98012
44.6461 8.96496
44.6945 8.94282
44.7426 8.89957
44.791 8.8445
44.8391 8.83501
44.8875 8.78473
44.9357 8.79923
44.984 8.73686
45.0322 8.7243
45.0806 8.66523
45.1288 8.6427
45.1773 8.59793
45.2257 8.60397
45.2739 8.6075
45.3224 8.54013
45.3706 8.54208
45.4191 8.45757
45.4673 8.45312
45.5158 8.42228
45.5641 8.39701
45.6126 8.37803
45.6609 8.31236
45.7094 8.32521
45.7577 8.31874
45.8063 8.23649
45.8546 8.22765
45.9031 8.16776
45.9515 8.19024
46.0001 8.10829
46.0484 8.11517
46.097 8.07921
46.1454 8.07735
46.194 8.06637
46.2424 7.9913
46.291 7.98299
46.3395 7.92838
46.3881 7.91391
46.4365 7.96486
46.4852 7.87131
46.5337 7.81613
46.5823 7.83077
46.631 7.76643
46.6795 7.79601
46.7282 7.73807
46.7767 7.706
46.8254 7.63986
46.8739 7.63454
46.9226 7.61772
46.9712 7.58098
47.0199 7.55346
47.0685 7.54571
47.1173 7.50992
47.1658 7.47667
47.2146 7.46822
47.2632 7.42994
47.312 7.41758
47.3606 7.40642
47.4095 7.36578
47.4581 7.3108
47.5069 7.28838
47.5556 7.24414
47.6044 7.19497
47.6531 7.21898
47.702 7.17832
47.7507 7.17345
47.7996 7.12595
47.8483 7.09992
47.8972 7.10174
47.9461 7.11292
47.9948 7.02664
48.0438 7.01451
48.0925 7.00443
48.1415 6.97236
48.1902 6.91699
48.2392 6.9497
48.288 6.89985
48.337 6.83771
48.3858 6.85677
48.4348 6.82788
48.4837 6.78445
48.5327 6.77009
48.5815 6.71829
48.6306 6.74637
48.6795 6.70883
48.7285 6.68931
48.7774 6.63106
48.8265 6.62447
48.8754 6.60786
48.9245 6.60182
48.9734 6.60069
49.0226 6.58064
49.0715 6.53984
49.1206 6.49077
49.1696 6.43839
49.2188 6.46997
49.2679 6.42276
49.3169 6.3735
49.3661 6.37788
49.4151 6.34298
49.4643 6.35214
49.5134 6.28442
49.5626 6.27264
49.6117 6.30169
49.6609 6.25576
49.71 6.21424
49.7592 6.19526
49.8083 6.15535
49.8576 6.1517
49.9067 6.10893
49.956 6.10409
50.0052 6.06437
50.0545 6.06362
50.1036 6.00594
50.153 6.00775
50.2022 5.9603
50.2515 5.9478
50.3007 5.93053
50.3501 5.94147
50.3993 5.91068
50.4487 5.88253
50.498 5.86905
50.5474 5.85164
50.5966 5.81472
50.6461 5.8091
50.6955 5.79339
50.7448 5.75027
50.7943 5.78138
50.8436 5.72158
50.8931 5.72514
50.9424 5.66698
50.9919 5.64275
51.0413 5.64075
51.0908 5.63594
51.1402 5.59518
51.1897 5.58258
51.2391 5.55468
51.2887 5.52708
51.3381 5.47942
51.3877 5.50728
51.4371 5.45009
51.4867 5.45311
51.5362 5.44102
51.5858 5.37617
51.6353 5.36967
51.6849 5.34503
51.7344 5.33005
51.7841 5.33148
51.8336 5.30485
51.8833 5.28635
51.9328 5.22149
51.9826 5.23406
52.0323 5.21019
52.0818 5.21571
52.1316 5.13386
52.1812 5.15951
52.231 5.10757
52.2806 5.10105
52.3304 5.10754
52.38 5.04869
52.4298 5.04778
52.4794 5.02383
52.5293 5.0317
52.5789 4.98832
52.6288 4.9469
52.6785 4.95134
52.7284 4.96691
52.7781 4.96677
52.828 4.91407
52.8777 4.89844
52.9276 4.86473
52.9774 4.86618
53.0273 4.83611
53.0771 4.80109
53.1271 4.79944
53.1769 4.74373
53.2269 4.74944
53.2767 4.72112
53.3267 4.71076
53.3765 4.6926
53.4266 4.65351
53.4766 4.6502
53.5265 4.63755
53.5765 4.5815
53.6264 4.57819
53.6765 4.56026
53.7264 4.56225
53.7765 4.50676
53.8265 4.5002
53.8766 4.50489
53.9266 4.45702
53.9767 4.4669
54.0267 4.44537
54.0769 4.36815
54.1269 4.33386
54.1771 4.33232
54.2271 4.36423
54.2773 4.29928
54.3274 4.30564
54.3776 4.20613
54.4277 4.2458
54.478 4.19558
54.528 4.14161
54.5783 4.13243
54.6285 4.01916
54.6788 4.0555
54.7289 4.03692
54.7792 3.97775
54.8296 3.94512
54.8798 3.91116
54.9301 3.89296
54.9803 3.86383
55.0307 3.89897
55.0809 3.76996
55.1314 3.82308
55.1816 3.71926
55.232 3.66049
55.2823 3.63365
55.3328 3.64277
55.383 3.59537
55.4335 3.55981
55.4838 3.55747
55.5344 3.4978
55.5847 3.43533
55.6352 3.48357
55.6856 3.43432
55.7361 3.39939