File: XRD/Ni3Fe_FD0940.xy
TT I
1.27165 7.21916
1.31627 6.79525
1.36089 6.8321
1.40551 5.62416
1.45013 5.82943
1.49476 5.57858
1.53938 5.89156
1.584 5.00074
1.62863 5.7506
1.67325 5.07432
1.71787 5.0137
1.7625 4.26629
1.80712 4.6756
1.85174 4.58231
1.89636 4.47676
1.94099 4.72056
1.98562 4.39906
2.03025 4.2875
2.07487 4.07076
2.11949 5.01213
2.16411 4.36541
2.20874 8.33855
2.25338 9.77333
2.298 5.59752
2.34263 5.01522
2.38725 5.60583
2.43188 6.24658
2.4765 7.4264
2.52115 7.55552
2.56577 7.75207
2.6104 8.33429
2.65503 7.66875
2.69965 8.14158
2.7443 8.3482
2.78893 7.99598
2.83356 8.46563
2.87818 10.0299
2.92281 8.76516
2.96744 10.0995
3.01209 10.424
3.05672 10.788
3.10135 12.5683
3.14599 13.3668
3.19062 14.9832
3.23527 15.3588
3.2799 15.5746
3.32454 16.3108
3.36917 17.3629
3.4138 18.5921
3.45844 19.1573
3.50309 20.2337
3.54773 21.3202
3.59237 22.7772
3.637 41.983
3.68164 33.272
3.7263 25.0052
3.77094 25.5312
3.81558 25.7788
3.86022 26.6953
3.90486 28.1155
3.9495 28.8431
3.99416 29.889
4.0388 31.2158
4.08344 32.4598
4.12809 33.524
4.17273 35.02
4.21738 38.4932
4.26204 99.5578
4.30669 88.3436
4.35133 43.6436
4.39598 42.7527
4.44063 47.5897
4.4853 51.695
4.52995 59.8187
4.5746 60.1757
4.61925 53.4858
4.6639 54.7681
4.70855 57.909
4.75322 61.8148
4.79788 69.4913
4.84253 68.4705
4.88719 76.1822
4.93184 76.6344
4.97652 80.5497
5.02118 86.0515
5.06583 93.5993
5.11049 105.195
5.15515 153.319
5.19981 372.054
5.24449 2772.53
5.28916 13595.0
5.33382 2696.86
5.37848 197.888
5.42315 130.385
5.46783 120.89
5.5125 114.301
5.55716 101.212
5.60183 96.6723
5.6465 95.6327
5.69117 93.0771
5.73586 92.0822
5.78053 99.6652
5.8252 99.8557
5.86988 102.816
5.91455 94.3442
5.95924 102.139
6.00392 227.806
6.0486 907.816
6.09328 4689.62
6.13795 2998.42
6.18263 192.236
6.22733 87.4821
6.27201 78.4559
6.3167 80.3058
6.36138 72.552
6.40606 69.4031
6.45075 69.8357
6.49545 64.5425
6.54014 62.5037
6.58483 61.9956
6.62952 62.3381
6.67421 68.9693
6.71892 80.8407
6.76361 60.6217
6.8083 59.0041
6.853 60.151
6.89769 55.8624
6.94239 55.2979
6.98711 54.8823
7.03181 55.2835
7.07651 54.1486
7.12121 53.8389
7.16591 55.7503
7.21063 55.2229
7.25533 58.4162
7.30004 87.0701
7.34475 63.7733
7.38945 54.2884
7.43416 52.9235
7.47889 52.8304
7.5236 53.3653
7.56831 54.0548
7.61303 54.6955
7.65774 55.3084
7.70247 56.3315
7.74719 55.8878
7.79191 55.233
7.83663 55.818
7.88135 57.1482
7.92607 57.4799
7.97081 58.8896
8.01553 60.0992
8.06026 61.9276
8.10498 63.6011
8.14971 70.7582
8.19446 70.4299
8.23919 68.4451
8.28392 70.6275
8.32865 72.5718
8.37339 77.2699
8.41812 82.3294
8.46288 99.0186
8.50761 170.95
8.55235 365.119
8.59709 1200.62
8.64183 2240.28
8.68658 833.685
8.73134 140.614
8.77609 95.5056
8.82083 90.9375
8.86558 92.7171
8.91033 92.4306
8.9551 89.2481
8.99985 84.4017
9.04461 82.9519
9.08936 83.925
9.13412 82.3337
9.17888 80.8875
9.22365 80.8438
9.26841 81.0319
9.31318 84.5545
9.35794 87.9556
9.4027 85.7891
9.44749 84.8442
9.49226 83.8426
9.53703 84.8592
9.5818 88.8727
9.62657 94.9239
9.67134 94.7361
9.71614 91.4139
9.76091 94.1249
9.80569 99.4584
9.85047 100.695
9.89525 108.929
9.94005 123.552
9.98484 185.013
10.0296 330.575
10.0744 830.839
10.1192 1840.27
10.164 1468.38
10.2088 325.789
10.2536 118.454
10.2984 106.758
10.3432 105.514
10.388 103.367
10.4328 119.44
10.4776 157.965
10.5224 291.047
10.5672 549.712
10.612 481.029
10.6568 176.78
10.7017 91.8398
10.7465 84.3985
10.7913 81.8616
10.8361 79.868
10.8809 77.9189
10.9257 76.9943
10.9706 76.954
11.0154 74.6989
11.0602 71.8731
11.105 70.4656
11.1499 70.4914
11.1947 71.7928
11.2395 68.6742
11.2844 67.2612
11.3292 65.7681
11.374 65.2023
11.4189 64.3495
11.4637 63.6263
11.5086 63.6049
11.5534 64.0075
11.5983 63.1618
11.6431 62.639
11.688 61.5104
11.7328 61.6766
11.7777 61.4013
11.8225 62.0516
11.8674 61.8472
11.9122 61.8764
11.9571 62.2707
12.002 63.4712
12.0468 67.9049
12.0917 77.2645
12.1366 102.023
12.1814 159.968
12.2263 209.459
12.2712 154.333
12.3161 86.3139
12.3609 65.1363
12.4058 62.7172
12.4507 63.291
12.4956 63.5748
12.5405 64.2746
12.5853 64.2238
12.6302 66.4544
12.6751 68.8522
12.72 66.7386
12.7649 66.4135
12.8098 67.3897
12.8547 68.8746
12.8996 70.38
12.9445 72.1494
12.9894 73.6859
13.0343 74.9223
13.0792 79.2628
13.1242 91.1242
13.1691 109.255
13.214 146.085
13.2589 246.919
13.3038 393.066
13.3487 418.998
13.3937 227.299
13.4386 114.082
13.4835 104.221
13.5285 118.297
13.5734 158.371
13.6183 260.192
13.6633 371.603
13.7082 323.111
13.7531 165.839
13.7981 91.6535
13.843 80.2809
13.888 78.5572
13.9329 76.0367
13.9779 74.5222
14.0228 73.3229
14.0678 71.9282
14.1127 71.2485
14.1577 70.6578
14.2027 70.0588
14.2476 69.3056
14.2926 68.7281
14.3376 68.8845
14.3825 68.3556
14.4275 67.5411
14.4725 67.7767
14.5175 67.5555
14.5624 67.6381
14.6074 68.5287
14.6524 69.1984
14.6974 69.6991
14.7424 72.8801
14.7874 78.3927
14.8324 87.3586
14.8774 110.553
14.9224 159.935
14.9674 219.357
15.0124 212.448
15.0574 136.384
15.1024 83.9635
15.1474 70.6666
15.1924 68.9733
15.2374 68.2492
15.2824 67.2431
15.3274 66.2156
15.3725 65.6665
15.4175 65.2263
15.4625 64.7854
15.5076 64.5161
15.5526 64.7932
15.5976 64.8591
15.6426 66.9784
15.6877 71.6747
15.7327 78.6137
15.7778 93.8625
15.8228 128.411
15.8679 177.927
15.9129 195.403
15.958 145.162
16.003 87.0242
16.0481 64.7125
16.0931 61.8119
16.1382 60.3067
16.1833 59.1074
16.2283 57.7452
16.2734 57.016
16.3185 56.8293
16.3636 56.5799
16.4086 55.6958
16.4537 54.8854
16.4988 54.3984
16.5439 54.3088
16.589 54.2585
16.6341 53.8981
16.6792 53.4908
16.7243 53.6907
16.7694 53.8205
16.8145 53.7081
16.8596 53.6666
16.9047 54.4577
16.9498 54.5562
16.9949 54.4247
17.04 55.1031
17.0851 56.2445
17.1302 57.7154
17.1754 60.5515
17.2205 66.0449
17.2656 74.9128
17.3108 83.5463
17.3559 80.0218
17.401 67.7614
17.4462 60.1985
17.4913 58.2403
17.5365 58.1081
17.5815 58.1949
17.6268 58.7133
17.6718 59.2898
17.7171 59.5941
17.7622 60.215
17.8074 61.5784
17.8525 64.0661
17.8977 67.0713
17.9428 72.4692
17.9881 81.8554
18.0331 101.136
18.0784 126.493
18.1237 141.015
18.1688 125.456
18.214 97.0052
18.2591 83.6761
18.3044 90.8042
18.3495 101.512
18.3948 105.453
18.4399 90.5637
18.4852 73.0374
18.5303 63.8022
18.5756 60.9221
18.6207 59.9684
18.666 59.2949
18.7112 58.53
18.7565 57.8142
18.8016 57.7031
18.8469 57.1084
18.892 56.7386
18.9374 56.271
18.9825 56.0574
19.0278 55.6236
19.073 55.9654
19.1183 56.2135
19.1635 56.7301
19.2088 58.0373
19.254 61.3874
19.2993 66.4428
19.3447 72.275
19.3898 74.9917
19.4352 69.2508
19.4804 60.2523
19.5257 54.822
19.5709 53.0826
19.6163 52.9497
19.6615 52.8317
19.7068 52.3515
19.752 52.4693
19.7974 52.8147
19.8426 53.226
19.888 53.9745
19.9332 55.446
19.9786 58.0589
20.0238 62.3659
20.0692 67.6887
20.1144 69.211
20.1598 66.2358
20.205 61.7538
20.2504 61.5219
20.2957 64.2436
20.3411 65.4427
20.3863 62.2373
20.4318 56.0202
20.477 51.836
20.5224 50.2687
20.5677 49.5939
20.6131 49.23
20.6586 48.7705
20.7038 48.6613
20.7493 48.2164
20.7945 48.1303
20.84 47.9875
20.8853 47.8735
20.9307 47.9355
20.976 47.8244
21.0215 47.6972
21.0668 48.2686
21.1122 48.6622
21.1575 49.3207
21.203 50.27
21.2483 50.6742
21.2938 50.438
21.3391 48.9639
21.3846 47.9691
21.4299 47.6473
21.4754 47.5188
21.5207 47.8776
21.5662 48.3056
21.6116 48.6561
21.6571 48.9389
21.7024 50.0723
21.7479 51.9296
21.7933 54.889
21.8388 59.094
21.8843 63.0111
21.9297 64.0603
21.9752 61.2585
22.0206 57.4961
22.0661 55.4584
22.1115 55.531
22.157 54.9595
22.2024 52.8378
22.248 49.9953
22.2933 48.6681
22.3389 48.052
22.3843 47.8648
22.4299 47.6757
22.4753 47.904
22.5208 47.6869
22.5662 47.5555
22.6118 48.0249
22.6572 48.0622
22.7028 48.354
22.7483 48.76
22.7939 49.7797
22.8393 51.2762
22.8849 53.7591
22.9303 55.9707
22.9759 57.3229
23.0214 56.1448
23.067 52.806
23.1126 49.6663
23.1581 48.3203
23.2037 47.9626
23.2492 47.9786
23.2948 47.9188
23.3403 48.2389
23.3859 48.7754
23.4314 50.168
23.477 52.2174
23.5225 54.7517
23.5682 57.1237
23.6137 57.2542
23.6593 53.9563
23.7048 49.7918
23.7505 46.955
23.796 45.5544
23.8417 45.1466
23.8872 44.8025
23.9329 44.5287
23.9784 44.2383
24.0241 43.7848
24.0697 43.6489
24.1154 43.3184
24.1609 43.2303
24.2066 43.0162
24.2522 42.9307
24.2979 42.711
24.3434 42.5483
24.3892 42.3843
24.4349 42.4153
24.4805 42.2228
24.5262 42.3343
24.5718 42.4039
24.6175 42.1966
24.6631 42.1446
24.7089 41.7745
24.7545 41.6581
24.8002 41.4158
24.8458 41.5243
24.8916 41.3074
24.9372 41.7117
24.983 41.8974
25.0286 42.0973
25.0744 42.6635
25.12 43.2327
25.1658 43.6085
25.2114 43.9273
25.2572 44.059
25.3029 44.2432
25.3487 44.4623
25.3943 43.7766
25.4402 42.4517
25.4858 41.4444
25.5316 40.5711
25.5773 40.255
25.6231 40.1929
25.669 39.8373
25.7147 39.6683
25.7605 39.7193
25.8062 39.7069
25.8521 39.8393
25.8977 39.8073
25.9436 40.2249
25.9893 40.3731
26.0352 40.8623
26.0809 40.9328
26.1268 41.1292
26.1725 40.602
26.2184 39.8987
26.2641 39.5555
26.31 39.3025
26.3557 39.4276
26.4017 39.5359
26.4474 39.7942
26.4933 40.166
26.5391 40.6879
26.585 41.2578
26.6308 41.6131
26.6767 41.6079
26.7225 41.1527
26.7684 40.6378
26.8142 40.0129
26.8601 39.8296
26.9059 39.3267
26.9519 38.7425
26.9979 38.4765
27.0437 38.1977
27.0896 38.0856
27.1354 38.0891
27.1814 37.9933
27.2272 37.8432
27.2732 38.0045
27.3191 37.7214
27.3651 37.8626
27.4109 37.6666
27.4569 38.0232
27.5027 38.0387
27.5488 37.931
27.5946 37.7568
27.6407 37.5792
27.6865 37.3702
27.7326 37.2672
27.7784 37.1399
27.8245 37.2143
27.8703 37.4557
27.9164 37.7153
27.9623 37.9176
28.0084 38.1324
28.0543 38.5548
28.1003 38.4725
28.1462 38.0615
28.1923 37.783
28.2384 37.2323
28.2843 36.9446
28.3304 36.5213
28.3764 36.0707
28.4225 35.8815
28.4684 35.5791
28.5145 35.3065
28.5605 35.194
28.6066 35.1149
28.6526 34.928
28.6987 34.9168
28.7447 34.9417
28.7908 34.81
28.8368 34.869
28.8829 34.8371
28.9289 34.6478
28.9751 34.5821
29.0211 34.3436
29.0673 34.0982
29.1133 33.8999
29.1595 33.7243
29.2055 33.733
29.2517 33.8362
29.2977 33.6942
29.3439 33.8156
29.3899 33.6736
29.4361 33.5568
29.4824 33.3195
29.5284 33.0806
29.5746 32.7524
29.6207 32.5695
29.6669 32.4166
29.713 32.5117
29.7593 32.3639
29.8053 32.3192
29.8516 32.2168
29.8977 32.2412
29.9439 32.0204
29.99 31.9731
30.0363 31.9769
30.0824 32.0686
30.1287 31.9445
30.1748 32.0014
30.2211 31.9266
30.2673 31.6115
30.3136 31.7834
30.3597 31.7194
30.406 31.5656
30.4522 31.5055
30.4985 31.5126
30.5447 31.6414
30.591 31.6444
30.6372 31.6967
30.6835 31.6748
30.7297 31.7212
30.7761 31.6181
30.8224 31.4298
30.8686 31.2373
30.915 31.1375
30.9612 31.0319
31.0076 30.7462
31.0538 30.6585
31.1002 30.5595
31.1464 30.4979
31.1928 30.5144
31.2391 30.4224
31.2855 30.3664
31.3317 30.3279
31.3781 30.371
31.4244 30.3993
31.4708 30.3613
31.5171 30.3521
31.5636 30.2946
31.6098 29.9709
31.6563 29.816
31.7026 29.7169
31.7491 29.5992
31.7953 29.6707
31.8418 29.6651
31.8881 29.6837
31.9346 29.5822
31.9809 29.5538
32.0275 29.4634
32.074 29.3268
32.1203 29.0399
32.1668 28.9755
32.2132 28.8231
32.2597 28.7014
32.306 28.7756
32.3526 28.5359
32.399 28.4057
32.4455 28.2708
32.4919 28.2342
32.5385 28.2062
32.5848 27.9677
32.6314 28.0013
32.6778 27.8579
32.7244 27.7596
32.7708 27.609
32.8174 27.6913
32.8638 27.5408
32.9104 27.6532
32.9569 27.5245
33.0035 27.3074
33.0499 27.3413
33.0966 27.3162
33.143 27.3281
33.1897 27.2585
33.2361 27.1607
33.2828 27.1063
33.3293 26.9032
33.3759 26.9239
33.4226 26.7714
33.4691 26.5981
33.5158 26.5452
33.5623 26.3726
33.609 26.3452
33.6555 26.1313
33.7022 26.12
33.7487 26.0654
33.7954 25.9835
33.842 25.8536
33.8887 25.8455
33.9353 25.8533
33.982 25.6163
34.0286 25.4998
34.0753 25.5434
34.1219 25.457
34.1687 25.3988
34.2152 25.4065
34.262 25.1631
34.3086 25.1406
34.3554 25.2019
34.402 24.9499
34.4488 24.7841
34.4954 24.8316
34.5422 24.7269
34.5889 24.6594
34.6357 24.566
34.6825 24.4773
34.7292 24.3858
34.776 24.3356
34.8227 24.2741
34.8695 24.1988
34.9162 24.1981
34.9631 24.1301
35.0098 24.0647
35.0566 23.9109
35.1033 23.8569
35.1502 23.9011
35.1969 23.7947
35.2438 23.8343
35.2906 23.7813
35.3375 23.6046
35.3842 23.6149
35.4311 23.6003
35.4779 23.5775
35.5248 23.4638
35.5716 23.3935
35.6185 23.315
35.6653 23.2444
35.7123 23.1301
35.759 23.1369
35.806 22.9655
35.8528 22.8532
35.8998 22.8608
35.9468 22.6997
35.9936 22.6942
36.0406 22.6557
36.0874 22.6425
36.1345 22.4922
36.1813 22.3916
36.2283 22.2795
36.2752 22.249
36.3222 22.3372
36.3691 22.1648
36.4161 22.0507
36.463 22.0908
36.5101 22.0264
36.557 21.9236
36.6041 21.8171
36.651 21.8215
36.6981 21.766
36.745 21.6889
36.7921 21.6322
36.839 21.521
36.8861 21.4021
36.9331 21.3303
36.9802 21.3375
37.0272 21.2283
37.0743 21.1148
37.1213 21.1201
37.1684 21.0319
37.2154 20.9424
37.2626 20.9336
37.3098 20.8603
37.3568 20.7206
37.404 20.6709
37.451 20.6379
37.4982 20.5332
37.5452 20.4996
37.5924 20.4314
37.6395 20.4329
37.6867 20.3584
37.7337 20.2198
37.781 20.1624
37.8281 20.0751
37.8753 20.0427
37.9224 20.0074
37.9697 19.9858
38.0168 19.9129
38.064 19.8119
38.1111 19.7928
38.1584 19.6925
38.2056 19.5876
38.2529 19.5805
38.3 19.5281
38.3473 19.4307
38.3945 19.371
38.4418 19.3402
38.489 19.3033
38.5363 19.1365
38.5837 19.1416
38.6309 19.0468
38.6782 19.0266
38.7254 18.9465
38.7728 18.841
38.82 18.7933
38.8674 18.7863
38.9146 18.6858
38.9621 18.6334
39.0093 18.6056
39.0567 18.5463
39.104 18.4326
39.1514 18.358
39.1987 18.3911
39.2461 18.3289
39.2934 18.3095
39.3409 18.1074
39.3882 18.0568
39.4356 18.1012
39.483 17.9433
39.5304 17.933
39.5778 17.9181
39.6253 17.858
39.6726 17.7787
39.7201 17.7892
39.7675 17.6931
39.815 17.5592
39.8624 17.4549
39.9099 17.5629
39.9575 17.4722
40.0049 17.3926
40.0525 17.3095
40.0999 17.3198
40.1474 17.2851
40.1949 17.1398
40.2425 17.1289
40.2899 17.0778
40.3375 17.0327
40.385 16.9152
40.4326 16.8875
40.48 16.7743
40.5277 16.7926
40.5752 16.7019
40.6228 16.6228
40.6703 16.5974
40.718 16.6091
40.7655 16.5301
40.8132 16.4247
40.8607 16.459
40.9084 16.3742
40.9559 16.3663
41.0036 16.2745
41.0512 16.2787
41.0989 16.1907
41.1465 16.1107
41.1942 16.1058
41.242 15.9606
41.2896 15.9035
41.3373 15.8926
41.3849 15.8353
41.4327 15.792
41.4803 15.7036
41.5281 15.6608
41.5758 15.5687
41.6236 15.5073
41.6712 15.5498
41.7191 15.4045
41.7667 15.4409
41.8146 15.3336
41.8622 15.2984
41.9101 15.2581
41.9578 15.1906
42.0057 15.1581
42.0534 15.1218
42.1013 15.1173
42.149 14.9951
42.1969 14.9424
42.2446 14.8788
42.2925 14.8861
42.3403 14.7977
42.3882 14.7796
42.436 14.719
42.4839 14.6846
42.5319 14.6606
42.5797 14.5874
42.6277 14.4932
42.6755 14.4755
42.7235 14.3671
42.7713 14.3834
42.8193 14.347
42.8671 14.2644
42.9152 14.2098
42.963 14.1505
43.0111 14.1246
43.0589 14.0781
43.107 14.0122
43.1549 13.9774
43.2029 13.8983
43.2508 13.9104
43.2989 13.8284
43.3468 13.8072
43.3949 13.7089
43.4429 13.6971
43.491 13.6074
43.5389 13.6153
43.5871 13.5479
43.635 13.5104
43.6832 13.4276
43.7312 13.4158
43.7793 13.3829
43.8273 13.3698
43.8755 13.3023
43.9237 13.2793
43.9717 13.2028
44.0199 13.1261
44.068 13.1132
44.1162 13.0482
44.1642 12.9911
44.2125 12.9396
44.2606 12.9229
44.3088 12.8507
44.3569 12.8363
44.4052 12.7714
44.4533 12.7065
44.5016 12.6347
44.5497 12.6149
44.598 12.6269
44.6461 12.5055
44.6945 12.548
44.7426 12.4658
44.791 12.4158
44.8391 12.3939
44.8875 12.3752
44.9357 12.3124
44.984 12.2342
45.0322 12.1801
45.0806 12.1772
45.1288 12.11
45.1773 12.0962
45.2257 12.106
45.2739 12.0321
45.3224 11.9328
45.3706 11.9459
45.4191 11.8608
45.4673 11.8496
45.5158 11.7844
45.5641 11.7189
45.6126 11.7218
45.6609 11.6257
45.7094 11.6058
45.7577 11.5517
45.8063 11.5429
45.8546 11.493
45.9031 11.4184
45.9515 11.3886
46.0001 11.3476
46.0484 11.3231
46.097 11.3346
46.1454 11.2415
46.194 11.227
46.2424 11.193
46.291 11.1081
46.3395 11.0849
46.3881 11.0121
46.4365 11.0029
46.4852 10.9899
46.5337 10.917
46.5823 10.8861
46.631 10.8631
46.6795 10.8046
46.7282 10.7787
46.7767 10.8001
46.8254 10.6733
46.8739 10.6461
46.9226 10.5973
46.9712 10.5429
47.0199 10.5294
47.0685 10.4869
47.1173 10.4647
47.1658 10.4204
47.2146 10.4054
47.2632 10.309
47.312 10.2685
47.3606 10.2858
47.4095 10.1899
47.4581 10.1788
47.5069 10.1873
47.5556 10.1175
47.6044 10.044
47.6531 10.0237
47.702 9.99637
47.7507 9.92067
47.7996 9.92407
47.8483 9.88955
47.8972 9.85312
47.9461 9.80286
47.9948 9.78483
48.0438 9.72686
48.0925 9.71928
48.1415 9.66797
48.1902 9.65665
48.2392 9.61969
48.288 9.60149
48.337 9.53013
48.3858 9.48228
48.4348 9.4522
48.4837 9.45314
48.5327 9.42961
48.5815 9.35331
48.6306 9.35205
48.6795 9.31429
48.7285 9.26641
48.7774 9.22579
48.8265 9.18679
48.8754 9.15348
48.9245 9.11252
48.9734 9.0831
49.0226 9.07581
49.0715 9.01288
49.1206 8.99434
49.1696 8.96901
49.2188 8.89218
49.2679 8.91622
49.3169 8.86199
49.3661 8.80285
49.4151 8.78658
49.4643 8.73283
49.5134 8.72714
49.5626 8.65856
49.6117 8.6677
49.6609 8.60359
49.71 8.53451
49.7592 8.5644
49.8083 8.48596
49.8576 8.49588
49.9067 8.44739
49.956 8.42321
50.0052 8.39403
50.0545 8.3944
50.1036 8.31231
50.153 8.26043
50.2022 8.25236
50.2515 8.22229
50.3007 8.18513
50.3501 8.14537
50.3993 8.12126
50.4487 8.10637
50.498 8.06765
50.5474 7.99877
50.5966 8.02
50.6461 7.97169
50.6955 7.94063
50.7448 7.92477
50.7943 7.87702
50.8436 7.84097
50.8931 7.82167
50.9424 7.80352
50.9919 7.74473
51.0413 7.71222
51.0908 7.70634
51.1402 7.65866
51.1897 7.66875
51.2391 7.62444
51.2887 7.5712
51.3381 7.57371
51.3877 7.50965
51.4371 7.44889
51.4867 7.43226
51.5362 7.42486
51.5858 7.37675
51.6353 7.34159
51.6849 7.33084
51.7344 7.32332
51.7841 7.27024
51.8336 7.24987
51.8833 7.21752
51.9328 7.20511
51.9826 7.13729
52.0323 7.09115
52.0818 7.08628
52.1316 7.00432
52.1812 7.01191
52.231 6.99498
52.2806 6.97615
52.3304 6.95181
52.38 6.96223
52.4298 6.89874
52.4794 6.86098
52.5293 6.83767
52.5789 6.80669
52.6288 6.78322
52.6785 6.73897
52.7284 6.74006
52.7781 6.71742
52.828 6.65188
52.8777 6.64361
52.9276 6.612
52.9774 6.56806
53.0273 6.56853
53.0771 6.51196
53.1271 6.48435
53.1769 6.48457
53.2269 6.45432
53.2767 6.44022
53.3267 6.39499
53.3765 6.37292
53.4266 6.33442
53.4766 6.32977
53.5265 6.28213
53.5765 6.22675
53.6264 6.19768
53.6765 6.24236
53.7264 6.21363
53.7765 6.19342
53.8265 6.11031
53.8766 6.09335
53.9266 6.04283
53.9767 6.0332
54.0267 5.99699
54.0769 6.01536
54.1269 5.98075
54.1771 5.92411
54.2271 5.87251
54.2773 5.88238
54.3274 5.86219
54.3776 5.7829
54.4277 5.80689
54.478 5.71807
54.528 5.75158
54.5783 5.66197
54.6285 5.65469
54.6788 5.60354
54.7289 5.58964
54.7792 5.53124
54.8296 5.44208
54.8798 5.39789
54.9301 5.41878
54.9803 5.3379
55.0307 5.3119
55.0809 5.28418
55.1314 5.28294
55.1816 5.20642
55.232 5.17933
55.2823 5.16652
55.3328 5.04877
55.383 4.99544
55.4335 4.97762
55.4838 4.89071
55.5344 4.86716
55.5847 4.87855
55.6352 4.80642
55.6856 4.76139
55.7361 4.7691