File: XRD/Ni3Fe_FD1008.xy
TT I
1.27165 6.77461
1.31627 6.54663
1.36089 6.37702
1.40551 5.50763
1.45013 6.47928
1.49476 4.90225
1.53938 5.42508
1.584 5.09377
1.62863 4.68547
1.67325 4.07295
1.71787 4.64518
1.7625 4.34369
1.80712 4.52464
1.85174 4.70349
1.89636 4.42574
1.94099 4.39744
1.98562 4.70413
2.03025 4.56161
2.07487 4.47287
2.11949 4.95719
2.16411 4.68189
2.20874 14.3384
2.25338 28.2723
2.298 6.94329
2.34263 5.28468
2.38725 6.28326
2.43188 6.75168
2.4765 7.14837
2.52115 7.24246
2.56577 8.06367
2.6104 8.42863
2.65503 8.52143
2.69965 8.72046
2.7443 8.69916
2.78893 8.56969
2.83356 9.04376
2.87818 8.86149
2.92281 9.02781
2.96744 9.59221
3.01209 11.2141
3.05672 11.2781
3.10135 12.4473
3.14599 13.4441
3.19062 14.2846
3.23527 15.1974
3.2799 15.5956
3.32454 16.628
3.36917 17.6913
3.4138 18.6602
3.45844 19.1544
3.50309 20.9011
3.54773 21.6521
3.59237 23.4658
3.637 99.4274
3.68164 73.8818
3.7263 26.308
3.77094 25.2911
3.81558 26.4868
3.86022 26.8136
3.90486 27.873
3.9495 28.574
3.99416 29.5854
4.0388 31.1604
4.08344 32.0689
4.12809 33.7729
4.17273 35.8557
4.21738 40.9212
4.26204 261.359
4.30669 295.994
4.35133 50.6366
4.39598 42.75
4.44063 51.84
4.4853 69.2508
4.52995 48.0116
4.5746 48.0197
4.61925 49.8866
4.6639 52.0703
4.70855 53.9853
4.75322 56.7689
4.79788 59.3078
4.84253 62.6072
4.88719 66.4787
4.93184 69.7541
4.97652 73.4991
5.02118 79.905
5.06583 86.2386
5.11049 94.3446
5.15515 157.101
5.19981 243.066
5.24449 1836.7
5.28916 13138.3
5.33382 3216.22
5.37848 179.351
5.42315 119.713
5.46783 105.403
5.5125 98.7098
5.55716 95.1136
5.60183 91.7022
5.6465 90.6701
5.69117 87.8017
5.73586 85.42
5.78053 84.5109
5.8252 84.0244
5.86988 84.6766
5.91455 86.0347
5.95924 89.8818
6.00392 141.796
6.0486 653.101
6.09328 4239.38
6.13795 3711.76
6.18263 285.407
6.22733 88.7084
6.27201 78.1498
6.3167 101.803
6.36138 82.3057
6.40606 65.431
6.45075 63.3526
6.49545 61.7688
6.54014 60.2497
6.58483 59.8373
6.62952 59.521
6.67421 86.1414
6.71892 169.816
6.76361 74.7032
6.8083 55.7643
6.853 54.7745
6.89769 54.0778
6.94239 53.8683
6.98711 53.0642
7.03181 52.7353
7.07651 52.3294
7.12121 52.422
7.16591 52.553
7.21063 52.9953
7.25533 63.6504
7.30004 201.724
7.34475 116.136
7.38945 55.7219
7.43416 52.2279
7.47889 51.8152
7.5236 52.2792
7.56831 52.732
7.61303 54.0453
7.65774 55.5301
7.70247 53.6094
7.74719 53.0238
7.79191 53.9404
7.83663 53.7948
7.88135 54.681
7.92607 55.5583
7.97081 56.7837
8.01553 57.5206
8.06026 58.4719
8.10498 60.0216
8.14971 69.7813
8.19446 71.3268
8.23919 65.6028
8.28392 67.3041
8.32865 69.0033
8.37339 72.8748
8.41812 77.8924
8.46288 108.727
8.50761 129.636
8.55235 279.953
8.59709 959.873
8.64183 2291.02
8.68658 1121.09
8.73134 182.323
8.77609 94.5828
8.82083 87.4361
8.86558 84.2933
8.91033 84.162
8.9551 88.406
8.99985 81.6658
9.04461 78.2901
9.08936 77.9496
9.13412 76.7098
9.17888 76.6852
9.22365 78.0259
9.26841 77.4193
9.31318 77.6309
9.35794 77.352
9.4027 77.798
9.44749 78.48
9.49226 79.2178
9.53703 80.0905
9.5818 81.6207
9.62657 85.4504
9.67134 95.2624
9.71614 89.3565
9.76091 87.7495
9.80569 89.6763
9.85047 92.7252
9.89525 114.52
9.94005 137.438
9.98484 139.286
10.0296 252.768
10.0744 616.713
10.1192 1642.1
10.164 1756.65
10.2088 455.68
10.2536 127.607
10.2984 106.79
10.3432 111.859
10.388 100.01
10.4328 102.924
10.4776 132.607
10.5224 229.803
10.5672 496.721
10.612 554.678
10.6568 229.733
10.7017 95.9991
10.7465 81.7255
10.7913 78.6832
10.8361 76.6261
10.8809 74.5706
10.9257 73.8971
10.9706 75.9564
11.0154 71.6515
11.0602 68.7948
11.105 67.7318
11.1499 70.9975
11.1947 83.4598
11.2395 74.55
11.2844 68.3613
11.3292 64.2774
11.374 62.5432
11.4189 62.3276
11.4637 61.7685
11.5086 61.6129
11.5534 65.74
11.5983 63.8252
11.6431 60.6318
11.688 59.6717
11.7328 59.7211
11.7777 59.481
11.8225 59.3434
11.8674 59.1129
11.9122 59.3786
11.9571 59.3629
12.002 59.712
12.0468 61.5535
12.0917 70.2071
12.1366 89.7168
12.1814 138.804
12.2263 201.453
12.2712 179.219
12.3161 101.662
12.3609 71.3627
12.4058 62.1302
12.4507 61.0536
12.4956 61.0379
12.5405 61.0439
12.5853 62.0616
12.6302 68.8122
12.6751 79.3464
12.72 69.8582
12.7649 64.5371
12.8098 64.8625
12.8547 65.9341
12.8996 67.0041
12.9445 67.9545
12.9894 69.6258
13.0343 71.1239
13.0792 73.7442
13.1242 78.2922
13.1691 97.146
13.214 125.497
13.2589 202.178
13.3038 349.473
13.3487 455.072
13.3937 299.716
13.4386 134.17
13.4835 96.4624
13.5285 105.8
13.5734 135.231
13.6183 217.276
13.6633 344.361
13.7082 371.803
13.7531 213.613
13.7981 100.797
13.843 78.5356
13.888 75.9428
13.9329 73.2848
13.9779 72.1757
14.0228 70.8262
14.0678 69.2516
14.1127 68.7603
14.1577 69.1239
14.2027 68.1794
14.2476 67.0581
14.2926 66.6155
14.3376 68.2703
14.3825 67.5376
14.4275 65.6058
14.4725 65.0724
14.5175 65.4098
14.5624 65.345
14.6074 67.4406
14.6524 68.9246
14.6974 67.0839
14.7424 66.9732
14.7874 71.0367
14.8324 79.5482
14.8774 96.3694
14.9224 135.71
14.9674 200.841
15.0124 230.826
15.0574 169.716
15.1024 97.362
15.1474 71.1622
15.1924 67.2689
15.2374 68.0838
15.2824 68.1583
15.3274 65.7568
15.3725 64.013
15.4175 63.2737
15.4625 62.767
15.5076 63.0742
15.5526 63.2178
15.5976 62.5076
15.6426 62.45
15.6877 65.7135
15.7327 71.9989
15.7778 83.6516
15.8228 111.46
15.8679 161.384
15.9129 201.918
15.958 174.182
16.003 106.455
16.0481 68.481
16.0931 62.6261
16.1382 61.234
16.1833 58.4381
16.2283 56.5315
16.2734 55.825
16.3185 55.9071
16.3636 57.3478
16.4086 56.3113
16.4537 53.9481
16.4988 53.1308
16.5439 53.203
16.589 52.7955
16.6341 52.411
16.6792 52.1953
16.7243 52.4672
16.7694 52.5668
16.8145 52.3993
16.8596 52.5182
16.9047 54.3459
16.9498 55.4118
16.9949 53.8699
17.04 53.2768
17.0851 53.9132
17.1302 55.3302
17.1754 57.8116
17.2205 62.0421
17.2656 70.0098
17.3108 80.2519
17.3559 82.7257
17.401 71.627
17.4462 60.7453
17.4913 56.6459
17.5365 56.4977
17.5815 56.5811
17.6268 56.8747
17.6718 57.54
17.7171 58.1978
17.7622 58.4824
17.8074 58.7936
17.8525 59.9386
17.8977 63.3107
17.9428 67.9093
17.9881 75.4313
18.0331 90.8319
18.0784 115.862
18.1237 139.821
18.1688 138.42
18.214 108.577
18.2591 85.3822
18.3044 85.656
18.3495 97.7
18.3948 108.297
18.4399 101.065
18.4852 80.1258
18.5303 65.6174
18.5756 60.3257
18.6207 58.7727
18.666 58.0684
18.7112 57.4058
18.7565 56.7191
18.8016 56.3731
18.8469 55.5897
18.892 55.3686
18.9374 54.8725
18.9825 54.7121
19.0278 54.5311
19.073 54.3912
19.1183 54.6857
19.1635 55.4629
19.2088 56.7201
19.254 58.5403
19.2993 62.9266
19.3447 69.7723
19.3898 76.0403
19.4352 73.9377
19.4804 64.0324
19.5257 55.9396
19.5709 52.429
19.6163 51.8017
19.6615 51.533
19.7068 51.0017
19.752 51.015
19.7974 51.2352
19.8426 51.8274
19.888 52.5933
19.9332 53.4136
19.9786 55.6189
20.0238 59.0335
20.0692 64.9198
20.1144 69.244
20.1598 68.7566
20.205 62.8347
20.2504 60.3742
20.2957 62.2378
20.3411 65.2183
20.3863 64.41
20.4318 58.814
20.477 52.9753
20.5224 50.2553
20.5677 49.4836
20.6131 48.5581
20.6586 47.8658
20.7038 47.4906
20.7493 47.064
20.7945 47.1243
20.84 46.8802
20.8853 46.7172
20.9307 46.7169
20.976 46.6871
21.0215 46.6522
21.0668 46.9644
21.1122 47.3176
21.1575 47.9939
21.203 49.1573
21.2483 49.8179
21.2938 49.9446
21.3391 48.8856
21.3846 47.3585
21.4299 46.6417
21.4754 46.5378
21.5207 46.6507
21.5662 46.7797
21.6116 46.8831
21.6571 47.6703
21.7024 48.3871
21.7479 50.0051
21.7933 52.3907
21.8388 56.3225
21.8843 61.3652
21.9297 64.6319
21.9752 63.9895
22.0206 59.7746
22.0661 56.044
22.1115 55.1969
22.157 55.5076
22.2024 54.0067
22.248 50.6241
22.2933 48.4352
22.3389 47.5251
22.3843 47.2611
22.4299 47.4084
22.4753 47.43
22.5208 47.1322
22.5662 46.6933
22.6118 46.7504
22.6572 46.813
22.7028 47.2276
22.7483 47.6903
22.7939 48.4259
22.8393 49.7425
22.8849 51.771
22.9303 54.2547
22.9759 57.0769
23.0214 57.4506
23.067 54.5299
23.1126 50.5048
23.1581 47.9712
23.2037 47.2733
23.2492 47.1664
23.2948 46.9262
23.3403 47.2177
23.3859 47.7144
23.4314 48.6972
23.477 50.4548
23.5225 53.1256
23.5682 56.1635
23.6137 58.1296
23.6593 56.5562
23.7048 52.3383
23.7505 47.9292
23.796 45.5045
23.8417 44.5922
23.8872 43.8597
23.9329 43.6043
23.9784 43.422
24.0241 43.2367
24.0697 43.0484
24.1154 42.6472
24.1609 42.6533
24.2066 42.4242
24.2522 42.2869
24.2979 42.0599
24.3434 41.8022
24.3892 41.7417
24.4349 41.663
24.4805 41.46
24.5262 41.7263
24.5718 41.5642
24.6175 41.4507
24.6631 41.524
24.7089 41.2641
24.7545 41.0747
24.8002 40.8541
24.8458 40.8905
24.8916 40.7106
24.9372 40.7093
24.983 40.9769
25.0286 41.2924
25.0744 41.8129
25.12 42.4399
25.1658 43.0531
25.2114 43.5468
25.2572 43.7243
25.3029 43.9989
25.3487 44.3268
25.3943 44.0035
25.4402 42.9158
25.4858 41.6199
25.5316 40.4454
25.5773 39.7143
25.6231 39.7278
25.669 39.2513
25.7147 39.1134
25.7605 39.1076
25.8062 39.0995
25.8521 39.391
25.8977 39.2658
25.9436 39.4921
25.9893 39.6068
26.0352 40.292
26.0809 40.5727
26.1268 40.9452
26.1725 40.5492
26.2184 39.867
26.2641 39.2102
26.31 38.7987
26.3557 38.9035
26.4017 38.8321
26.4474 39.2107
26.4933 39.4673
26.5391 39.9805
26.585 40.5621
26.6308 41.0518
26.6767 41.4671
26.7225 41.3223
26.7684 40.6941
26.8142 40.0855
26.8601 39.5897
26.9059 39.1347
26.9519 38.6614
26.9979 38.0993
27.0437 37.8414
27.0896 37.5243
27.1354 37.5147
27.1814 37.3331
27.2272 37.259
27.2732 37.3667
27.3191 37.12
27.3651 37.2594
27.4109 37.2892
27.4569 37.3764
27.5027 37.4922
27.5488 37.5285
27.5946 37.3135
27.6407 37.2644
27.6865 37.0612
27.7326 36.6937
27.7784 36.6416
27.8245 36.6658
27.8703 36.9299
27.9164 37.2145
27.9623 37.409
28.0084 37.6304
28.0543 38.3256
28.1003 38.3354
28.1462 38.2835
28.1923 37.8466
28.2384 37.4062
28.2843 36.8497
28.3304 36.3545
28.3764 35.9621
28.4225 35.5479
28.4684 35.3397
28.5145 35.0505
28.5605 34.8808
28.6066 34.6335
28.6526 34.7451
28.6987 34.5487
28.7447 34.4859
28.7908 34.3947
28.8368 34.4083
28.8829 34.4911
28.9289 34.4292
28.9751 34.1953
29.0211 33.9876
29.0673 33.7771
29.1133 33.5207
29.1595 33.4121
29.2055 33.3249
29.2517 33.2945
29.2977 33.2614
29.3439 33.4
29.3899 33.3624
29.4361 33.2463
29.4824 33.1349
29.5284 32.9703
29.5746 32.5274
29.6207 32.2993
29.6669 32.0914
29.713 32.0633
29.7593 31.9159
29.8053 31.9704
29.8516 31.8804
29.8977 31.7956
29.9439 31.6355
29.99 31.524
30.0363 31.5485
30.0824 31.4984
30.1287 31.4187
30.1748 31.5342
30.2211 31.4473
30.2673 31.4141
30.3136 31.4569
30.3597 31.1783
30.406 31.3048
30.4522 31.1501
30.4985 31.1357
30.5447 31.3077
30.591 31.109
30.6372 31.3261
30.6835 31.3651
30.7297 31.3921
30.7761 31.4681
30.8224 31.2807
30.8686 31.126
30.915 30.8013
30.9612 30.6666
31.0076 30.4696
31.0538 30.2967
31.1002 30.2581
31.1464 30.1321
31.1928 30.0098
31.2391 30.0734
31.2855 30.0283
31.3317 29.9461
31.3781 30.0891
31.4244 30.0455
31.4708 30.1169
31.5171 30.0633
31.5636 30.0169
31.6098 29.7542
31.6563 29.5502
31.7026 29.4528
31.7491 29.3947
31.7953 29.3511
31.8418 29.2706
31.8881 29.3867
31.9346 29.3966
31.9809 29.3324
32.0275 29.1977
32.074 29.1512
32.1203 28.9428
32.1668 28.8442
32.2132 28.5748
32.2597 28.5832
32.306 28.4368
32.3526 28.2181
32.399 28.1793
32.4455 28.0552
32.4919 28.0418
32.5385 27.9597
32.5848 27.7831
32.6314 27.6815
32.6778 27.6736
32.7244 27.5241
32.7708 27.4068
32.8174 27.3749
32.8638 27.1029
32.9104 27.3269
32.9569 27.2168
33.0035 27.0843
33.0499 27.105
33.0966 27.0867
33.143 27.2088
33.1897 27.0547
33.2361 26.8875
33.2828 26.9274
33.3293 26.6924
33.3759 26.6516
33.4226 26.5345
33.4691 26.4228
33.5158 26.3424
33.5623 26.1841
33.609 25.9471
33.6555 25.9506
33.7022 25.8678
33.7487 25.8834
33.7954 25.8099
33.842 25.6109
33.8887 25.6379
33.9353 25.582
33.982 25.437
34.0286 25.4112
34.0753 25.29
34.1219 25.2026
34.1687 25.0715
34.2152 25.0937
34.262 24.9352
34.3086 24.9112
34.3554 24.81
34.402 24.8466
34.4488 24.6708
34.4954 24.5792
34.5422 24.4959
34.5889 24.4001
34.6357 24.334
34.6825 24.2203
34.7292 24.1707
34.776 24.0496
34.8227 24.0391
34.8695 23.9951
34.9162 23.9488
34.9631 23.8109
35.0098 23.8193
35.0566 23.7008
35.1033 23.6221
35.1502 23.5734
35.1969 23.5196
35.2438 23.4972
35.2906 23.4523
35.3375 23.4546
35.3842 23.3648
35.4311 23.4255
35.4779 23.368
35.5248 23.2564
35.5716 23.1901
35.6185 23.1326
35.6653 23.0217
35.7123 22.9034
35.759 22.8526
35.806 22.7291
35.8528 22.6491
35.8998 22.6094
35.9468 22.4908
35.9936 22.4288
36.0406 22.4518
36.0874 22.4091
36.1345 22.284
36.1813 22.2408
36.2283 22.1392
36.2752 22.0742
36.3222 22.1132
36.3691 21.9483
36.4161 21.9105
36.463 21.829
36.5101 21.8873
36.557 21.7469
36.6041 21.603
36.651 21.6237
36.6981 21.5453
36.745 21.5073
36.7921 21.3475
36.839 21.3006
36.8861 21.1586
36.9331 21.2022
36.9802 21.1109
37.0272 21.0501
37.0743 20.8976
37.1213 20.9563
37.1684 20.8471
37.2154 20.7864
37.2626 20.7777
37.3098 20.6309
37.3568 20.5948
37.404 20.5078
37.451 20.4993
37.4982 20.447
37.5452 20.2159
37.5924 20.2383
37.6395 20.2789
37.6867 20.1528
37.7337 20.0701
37.781 20.0378
37.8281 19.9614
37.8753 19.8835
37.9224 19.8596
37.9697 19.795
38.0168 19.6684
38.064 19.6073
38.1111 19.5468
38.1584 19.4639
38.2056 19.4829
38.2529 19.4269
38.3 19.314
38.3473 19.3602
38.3945 19.2045
38.4418 19.2581
38.489 19.0228
38.5363 19.0007
38.5837 18.9496
38.6309 18.9242
38.6782 18.8547
38.7254 18.7585
38.7728 18.7455
38.82 18.6402
38.8674 18.5888
38.9146 18.5857
38.9621 18.5587
39.0093 18.4271
39.0567 18.3194
39.104 18.3236
39.1514 18.2437
39.1987 18.1975
39.2461 18.1605
39.2934 18.1124
39.3409 17.9806
39.3882 17.8828
39.4356 17.9061
39.483 17.8653
39.5304 17.7589
39.5778 17.7954
39.6253 17.6988
39.6726 17.6381
39.7201 17.5861
39.7675 17.5383
39.815 17.535
39.8624 17.3758
39.9099 17.3951
39.9575 17.2383
40.0049 17.2719
40.0525 17.1726
40.0999 17.1409
40.1474 17.1319
40.1949 17.0442
40.2425 16.9665
40.2899 16.9241
40.3375 16.9096
40.385 16.7757
40.4326 16.6874
40.48 16.6346
40.5277 16.7146
40.5752 16.5869
40.6228 16.5816
40.6703 16.4483
40.718 16.4333
40.7655 16.4257
40.8132 16.3063
40.8607 16.3091
40.9084 16.2975
40.9559 16.1832
41.0036 16.1748
41.0512 16.0449
41.0989 16.0684
41.1465 15.9697
41.1942 15.9988
41.242 15.8128
41.2896 15.8328
41.3373 15.7693
41.3849 15.7041
41.4327 15.7401
41.4803 15.6116
41.5281 15.5742
41.5758 15.4507
41.6236 15.4661
41.6712 15.4573
41.7191 15.3065
41.7667 15.3087
41.8146 15.2616
41.8622 15.2179
41.9101 15.1514
41.9578 15.0926
42.0057 15.0289
42.0534 15.0103
42.1013 14.9815
42.149 14.9172
42.1969 14.8883
42.2446 14.7993
42.2925 14.7693
42.3403 14.6995
42.3882 14.6803
42.436 14.6089
42.4839 14.6048
42.5319 14.5006
42.5797 14.4413
42.6277 14.3932
42.6755 14.387
42.7235 14.3267
42.7713 14.2585
42.8193 14.2235
42.8671 14.1711
42.9152 14.1701
42.963 14.0842
43.0111 14.0447
43.0589 14.0279
43.107 13.9257
43.1549 13.9489
43.2029 13.8166
43.2508 13.7935
43.2989 13.7327
43.3468 13.686
43.3949 13.5819
43.4429 13.636
43.491 13.5455
43.5389 13.4556
43.5871 13.4643
43.635 13.4209
43.6832 13.354
43.7312 13.3302
43.7793 13.2382
43.8273 13.2492
43.8755 13.1992
43.9237 13.1466
43.9717 13.0945
44.0199 13.0967
44.068 12.9981
44.1162 13.0022
44.1642 12.9276
44.2125 12.8472
44.2606 12.8161
44.3088 12.7912
44.3569 12.6933
44.4052 12.737
44.4533 12.5859
44.5016 12.5955
44.5497 12.5826
44.598 12.5257
44.6461 12.4632
44.6945 12.4414
44.7426 12.3628
44.791 12.3183
44.8391 12.3248
44.8875 12.2928
44.9357 12.195
44.984 12.1685
45.0322 12.1558
45.0806 12.1235
45.1288 12.0515
45.1773 11.9871
45.2257 11.9569
45.2739 11.9125
45.3224 11.8971
45.3706 11.8697
45.4191 11.7519
45.4673 11.7422
45.5158 11.7412
45.5641 11.6505
45.6126 11.6204
45.6609 11.5608
45.7094 11.5103
45.7577 11.4817
45.8063 11.4149
45.8546 11.403
45.9031 11.3867
45.9515 11.3683
46.0001 11.309
46.0484 11.2702
46.097 11.2304
46.1454 11.1698
46.194 11.1368
46.2424 11.1147
46.291 11.0387
46.3395 11.0181
46.3881 10.9825
46.4365 10.9137
46.4852 10.8793
46.5337 10.8696
46.5823 10.8463
46.631 10.7859
46.6795 10.7416
46.7282 10.7293
46.7767 10.6784
46.8254 10.6211
46.8739 10.6161
46.9226 10.5378
46.9712 10.5103
47.0199 10.4685
47.0685 10.4287
47.1173 10.4146
47.1658 10.3222
47.2146 10.3276
47.2632 10.2644
47.312 10.2409
47.3606 10.1912
47.4095 10.1391
47.4581 10.0857
47.5069 10.0921
47.5556 10.0309
47.6044 9.99597
47.6531 9.97104
47.702 9.89455
47.7507 9.89986
47.7996 9.87161
47.8483 9.81472
47.8972 9.82937
47.9461 9.74623
47.9948 9.69396
48.0438 9.66105
48.0925 9.66171
48.1415 9.5734
48.1902 9.58415
48.2392 9.56322
48.288 9.5293
48.337 9.512
48.3858 9.43
48.4348 9.40686
48.4837 9.42369
48.5327 9.32599
48.5815 9.30915
48.6306 9.28165
48.6795 9.21874
48.7285 9.19673
48.7774 9.19431
48.8265 9.11531
48.8754 9.10068
48.9245 9.09696
48.9734 9.03771
49.0226 8.99539
49.0715 8.97511
49.1206 8.92346
49.1696 8.88419
49.2188 8.84974
49.2679 8.80685
49.3169 8.82139
49.3661 8.76057
49.4151 8.72917
49.4643 8.69457
49.5134 8.67348
49.5626 8.61862
49.6117 8.61934
49.6609 8.57119
49.71 8.53259
49.7592 8.50786
49.8083 8.41492
49.8576 8.4456
49.9067 8.41233
49.956 8.36943
50.0052 8.31448
50.0545 8.28604
50.1036 8.28666
50.153 8.24959
50.2022 8.21726
50.2515 8.17719
50.3007 8.15769
50.3501 8.1001
50.3993 8.08612
50.4487 8.04018
50.498 8.02427
50.5474 7.97784
50.5966 7.96354
50.6461 7.93994
50.6955 7.91208
50.7448 7.84194
50.7943 7.83322
50.8436 7.81384
50.8931 7.78145
50.9424 7.7645
50.9919 7.70771
51.0413 7.7094
51.0908 7.68431
51.1402 7.6431
51.1897 7.57082
51.2391 7.57212
51.2887 7.51665
51.3381 7.5131
51.3877 7.48375
51.4371 7.42324
51.4867 7.39523
51.5362 7.40223
51.5858 7.35462
51.6353 7.30045
51.6849 7.31094
51.7344 7.2491
51.7841 7.26281
51.8336 7.208
51.8833 7.19502
51.9328 7.15025
51.9826 7.11058
52.0323 7.07825
52.0818 7.06184
52.1316 7.01272
52.1812 7.01539
52.231 6.95736
52.2806 6.94208
52.3304 6.92157
52.38 6.92897
52.4298 6.82475
52.4794 6.79885
52.5293 6.78086
52.5789 6.78407
52.6288 6.73797
52.6785 6.72052
52.7284 6.71301
52.7781 6.65973
52.828 6.64528
52.8777 6.62537
52.9276 6.60175
52.9774 6.57993
53.0273 6.52818
53.0771 6.48602
53.1271 6.51964
53.1769 6.47697
53.2269 6.42951
53.2767 6.40354
53.3267 6.32512
53.3765 6.34596
53.4266 6.34745
53.4766 6.28682
53.5265 6.27863
53.5765 6.23417
53.6264 6.2239
53.6765 6.22142
53.7264 6.15331
53.7765 6.10754
53.8265 6.09878
53.8766 6.03511
53.9266 6.03227
53.9767 6.01789
54.0267 6.0354
54.0769 5.98746
54.1269 5.93643
54.1771 5.86287
54.2271 5.90801
54.2773 5.82581
54.3274 5.78797
54.3776 5.78505
54.4277 5.742
54.478 5.70509
54.528 5.66693
54.5783 5.649
54.6285 5.65101
54.6788 5.56833
54.7289 5.55867
54.7792 5.47221
54.8296 5.42666
54.8798 5.37329
54.9301 5.32367
54.9803 5.33077
55.0307 5.31291
55.0809 5.26504
55.1314 5.24894
55.1816 5.14653
55.232 5.15182
55.2823 5.08815
55.3328 5.01104
55.383 4.98034
55.4335 4.93203
55.4838 4.8948
55.5344 4.79479
55.5847 4.84259
55.6352 4.79787
55.6856 4.78247
55.7361 4.72969