File: XRD/Ni3Fe_FD0076.xy
TT I
1.27165 11.5904
1.31627 10.3918
1.36089 10.4559
1.40551 9.99956
1.45013 9.48055
1.49476 9.1472
1.53938 8.52888
1.584 7.94628
1.62863 7.84495
1.67325 8.08947
1.71787 7.32062
1.7625 7.22682
1.80712 7.78544
1.85174 7.38684
1.89636 7.43713
1.94099 6.90473
1.98562 7.03083
2.03025 7.55757
2.07487 6.8771
2.11949 7.31186
2.16411 6.74401
2.20874 7.40118
2.25338 6.99979
2.298 6.79232
2.34263 6.80043
2.38725 6.18735
2.43188 6.13122
2.4765 5.92272
2.52115 5.83496
2.56577 5.87676
2.6104 6.74308
2.65503 6.43926
2.69965 6.78463
2.7443 6.77163
2.78893 8.17063
2.83356 8.16337
2.87818 9.2088
2.92281 9.79394
2.96744 10.8834
3.01209 12.3237
3.05672 12.9102
3.10135 14.8534
3.14599 15.0518
3.19062 15.5237
3.23527 16.0485
3.2799 16.1495
3.32454 17.0984
3.36917 17.8279
3.4138 18.4638
3.45844 18.8152
3.50309 19.9296
3.54773 19.9216
3.59237 20.4849
3.637 20.7225
3.68164 21.356
3.7263 22.7986
3.77094 22.9595
3.81558 23.862
3.86022 24.5756
3.90486 25.3295
3.9495 26.2012
3.99416 27.3861
4.0388 28.1507
4.08344 29.1288
4.12809 29.7162
4.17273 30.9674
4.21738 32.6383
4.26204 33.7402
4.30669 35.2512
4.35133 37.0194
4.39598 38.418
4.44063 39.6044
4.4853 40.5121
4.52995 43.4511
4.5746 44.7444
4.61925 47.2638
4.6639 49.157
4.70855 52.3875
4.75322 55.0196
4.79788 58.4327
4.84253 62.2044
4.88719 66.9193
4.93184 73.59
4.97652 83.1344
5.02118 96.9642
5.06583 112.529
5.11049 136.491
5.15515 199.912
5.19981 665.061
5.24449 2551.55
5.28916 3531.32
5.33382 7763.52
5.37848 1769.73
5.42315 321.983
5.46783 174.259
5.5125 136.842
5.55716 120.864
5.60183 109.033
5.6465 103.905
5.69117 100.916
5.73586 97.7511
5.78053 98.3159
5.8252 99.7808
5.86988 106.089
5.91455 120.007
5.95924 155.181
6.00392 345.765
6.0486 996.096
6.09328 1101.52
6.13795 2800.18
6.18263 1364.12
6.22733 232.589
6.27201 115.659
6.3167 87.3916
6.36138 74.3448
6.40606 67.0227
6.45075 63.1071
6.49545 59.9608
6.54014 57.2907
6.58483 55.3729
6.62952 53.8914
6.67421 52.5193
6.71892 51.3286
6.76361 50.3994
6.8083 49.4784
6.853 48.5989
6.89769 48.3586
6.94239 47.9492
6.98711 47.5929
7.03181 47.2392
7.07651 47.5886
7.12121 47.5342
7.16591 46.7509
7.21063 46.3568
7.25533 46.0298
7.30004 46.3111
7.34475 46.7077
7.38945 47.1785
7.43416 47.3452
7.47889 50.2966
7.5236 78.5561
7.56831 177.321
7.61303 102.383
7.65774 54.2523
7.70247 49.4963
7.74719 48.5321
7.79191 48.5931
7.83663 48.7721
7.88135 49.3596
7.92607 50.1207
7.97081 50.9619
8.01553 51.5375
8.06026 53.0527
8.10498 54.4777
8.14971 55.5278
8.19446 57.7083
8.23919 59.7194
8.28392 62.7681
8.32865 65.7825
8.37339 71.142
8.41812 77.7649
8.46288 95.0354
8.50761 176.193
8.55235 479.702
8.59709 431.21
8.64183 521.231
8.68658 1515.22
8.73134 847.239
8.77609 172.085
8.82083 105.03
8.86558 89.4655
8.91033 82.9585
8.9551 79.0241
8.99985 77.048
9.04461 76.1285
9.08936 75.7707
9.13412 76.5585
9.17888 80.9335
9.22365 126.227
9.26841 285.173
9.31318 190.459
9.35794 89.0668
9.4027 77.8029
9.44749 75.9434
9.49226 75.2378
9.53703 74.8781
9.5818 76.1014
9.62657 76.6383
9.67134 77.7563
9.71614 79.5113
9.76091 81.8794
9.80569 84.2761
9.85047 88.0046
9.89525 95.0383
9.94005 109.477
9.98484 183.578
10.0296 444.198
10.0744 420.414
10.1192 326.989
10.164 880.309
10.2088 1368.09
10.2536 442.677
10.2984 136.45
10.3432 107.026
10.388 98.8706
10.4328 113.119
10.4776 183.918
10.5224 173.4
10.5672 138.961
10.612 260.618
10.6568 452.12
10.7017 250.762
10.7465 125.31
10.7913 82.1097
10.8361 72.9853
10.8809 69.4145
10.9257 66.5236
10.9706 65.2852
11.0154 63.3364
11.0602 61.8446
11.105 60.9168
11.1499 59.5959
11.1947 58.9496
11.2395 58.0416
11.2844 57.3341
11.3292 56.5409
11.374 55.7346
11.4189 55.4562
11.4637 54.8459
11.5086 54.4731
11.5534 53.9308
11.5983 53.8335
11.6431 53.707
11.688 53.4995
11.7328 53.8861
11.7777 53.5918
11.8225 53.9704
11.8674 55.1025
11.9122 62.0791
11.9571 95.1558
12.002 102.863
12.0468 75.7643
12.0917 79.3878
12.1366 83.7249
12.1814 73.0347
12.2263 77.125
12.2712 126.473
12.3161 160.452
12.3609 92.644
12.4058 61.4355
12.4507 56.4211
12.4956 55.105
12.5405 54.6438
12.5853 54.5601
12.6302 54.8186
12.6751 55.2843
12.72 55.8181
12.7649 56.3312
12.8098 57.1033
12.8547 58.0208
12.8996 59.309
12.9445 60.8274
12.9894 62.1103
13.0343 64.5955
13.0792 72.436
13.1242 86.9276
13.1691 119.76
13.214 150.614
13.2589 125.569
13.3038 109.902
13.3487 154.463
13.3937 314.205
13.4386 306.258
13.4835 150.919
13.5285 139.23
13.5734 143.631
13.6183 112.307
13.6633 106.101
13.7082 168.224
13.7531 303.545
13.7981 233.712
13.843 101.276
13.888 74.6377
13.9329 69.2133
13.9779 67.2774
14.0228 65.7647
14.0678 65.2677
14.1127 69.865
14.1577 93.1219
14.2027 99.1795
14.2476 76.2615
14.2926 63.2282
14.3376 60.8854
14.3825 60.0814
14.4275 59.2695
14.4725 58.8101
14.5175 58.845
14.5624 58.8527
14.6074 59.0285
14.6524 59.3336
14.6974 60.1781
14.7424 62.184
14.7874 70.1455
14.8324 90.2463
14.8774 93.6235
14.9224 80.4078
14.9674 77.1542
15.0124 97.2774
15.0574 165.747
15.1024 177.429
15.1474 101.649
15.1924 69.7104
15.2374 62.2305
15.2824 59.2719
15.3274 57.7983
15.3725 57.047
15.4175 56.8932
15.4625 56.2833
15.5076 56.1683
15.5526 56.1642
15.5976 56.6226
15.6426 57.8549
15.6877 64.302
15.7327 80.4761
15.7778 85.3859
15.8228 74.0374
15.8679 68.7143
15.9129 76.7868
15.958 122.93
16.003 168.463
16.0481 125.893
16.0931 81.0671
16.1382 64.5439
16.1833 56.1207
16.2283 52.1655
16.2734 50.8318
16.3185 49.9266
16.3636 49.1708
16.4086 48.4207
16.4537 47.9016
16.4988 47.4626
16.5439 47.4261
16.589 47.172
16.6341 46.8606
16.6792 46.549
16.7243 46.7927
16.7694 46.382
16.8145 46.5215
16.8596 46.9464
16.9047 48.5528
16.9498 51.6321
16.9949 51.9368
17.04 49.7043
17.0851 49.1558
17.1302 51.7909
17.1754 53.96
17.2205 52.3663
17.2656 50.586
17.3108 51.6203
17.3559 55.6642
17.401 67.6134
17.4462 71.1734
17.4913 59.0541
17.5365 52.0447
17.5815 50.3772
17.6268 50.5258
17.6718 50.985
17.7171 51.7216
17.7622 54.704
17.8074 56.7875
17.8525 57.323
17.8977 61.7396
17.9428 70.4511
17.9881 70.5382
18.0331 64.3988
18.0784 61.8947
18.1237 66.6792
18.1688 88.18
18.214 126.593
18.2591 122.844
18.3044 82.8965
18.3495 64.334
18.3948 63.5536
18.4399 74.6398
18.4852 91.0996
18.5303 83.6162
18.5756 65.0969
18.6207 57.8333
18.666 54.1908
18.7112 52.0287
18.7565 51.2756
18.8016 50.6332
18.8469 50.164
18.892 49.8608
18.9374 49.1751
18.9825 48.8201
19.0278 48.7074
19.073 48.7727
19.1183 49.5711
19.1635 50.9783
19.2088 52.6112
19.254 52.2314
19.2993 52.2167
19.3447 55.1421
19.3898 56.4602
19.4352 57.7531
19.4804 63.8428
19.5257 63.8536
19.5709 54.1749
19.6163 48.3779
19.6615 46.6585
19.7068 46.0047
19.752 46.0552
19.7974 45.8676
19.8426 46.7943
19.888 48.3805
19.9332 48.9822
19.9786 48.209
20.0238 46.9089
20.0692 47.7016
20.1144 49.8703
20.1598 54.4543
20.205 60.3548
20.2504 59.8144
20.2957 51.9635
20.3411 47.8861
20.3863 49.2325
20.4318 54.408
20.477 56.5972
20.5224 50.7141
20.5677 45.1374
20.6131 43.5468
20.6586 42.8179
20.7038 42.6907
20.7493 43.0721
20.7945 44.1203
20.84 44.1602
20.8853 43.0609
20.9307 42.0982
20.976 41.8679
21.0215 41.8972
21.0668 42.1489
21.1122 41.9366
21.1575 41.4426
21.203 41.2041
21.2483 41.3753
21.2938 41.9755
21.3391 42.9347
21.3846 44.0946
21.4299 43.543
21.4754 42.3999
21.5207 41.939
21.5662 41.9592
21.6116 42.3044
21.6571 43.4585
21.7024 44.9651
21.7479 44.8938
21.7933 43.8398
21.8388 43.6235
21.8843 44.5389
21.9297 45.7985
21.9752 48.915
22.0206 54.9542
22.0661 56.2651
22.1115 51.2707
22.157 47.2068
22.2024 47.42
22.248 48.8337
22.2933 48.2882
22.3389 44.966
22.3843 42.6068
22.4299 41.7977
22.4753 41.7082
22.5208 41.5813
22.5662 41.4704
22.6118 41.6202
22.6572 41.8505
22.7028 42.6703
22.7483 43.7808
22.7939 44.1836
22.8393 43.6326
22.8849 42.9641
22.9303 42.5932
22.9759 42.8195
23.0214 43.9103
23.067 47.5877
23.1126 50.6101
23.1581 49.0303
23.2037 44.8828
23.2492 42.7869
23.2948 42.6218
23.3403 43.5528
23.3859 44.3119
23.4314 44.1504
23.477 43.3801
23.5225 42.4365
23.5682 42.1298
23.6137 42.5872
23.6593 44.4569
23.7048 48.9694
23.7505 50.2685
23.796 46.3983
23.8417 41.9291
23.8872 40.022
23.9329 39.3693
23.9784 39.16
24.0241 38.7398
24.0697 38.8151
24.1154 38.2421
24.1609 38.0493
24.2066 37.8646
24.2522 37.5894
24.2979 37.4028
24.3434 37.233
24.3892 37.0926
24.4349 36.9478
24.4805 36.723
24.5262 36.7241
24.5718 36.579
24.6175 36.7417
24.6631 37.1675
24.7089 37.2807
24.7545 37.1557
24.8002 36.5893
24.8458 36.4006
24.8916 36.2496
24.9372 36.3704
24.983 36.398
25.0286 36.2708
25.0744 36.5438
25.12 36.6543
25.1658 36.6783
25.2114 36.6373
25.2572 37.0715
25.3029 37.7294
25.3487 37.7495
25.3943 37.0978
25.4402 37.4389
25.4858 38.6207
25.5316 38.5722
25.5773 37.0305
25.6231 35.8059
25.669 35.0228
25.7147 35.0172
25.7605 34.8766
25.8062 35.0894
25.8521 35.3517
25.8977 35.0052
25.9436 34.8134
25.9893 34.4469
26.0352 34.6512
26.0809 34.3195
26.1268 34.6443
26.1725 34.9522
26.2184 35.6839
26.2641 36.0934
26.31 35.77
26.3557 35.206
26.4017 34.8387
26.4474 34.6797
26.4933 34.4744
26.5391 34.4785
26.585 34.4029
26.6308 34.4829
26.6767 34.4262
26.7225 34.8915
26.7684 35.9251
26.8142 36.3658
26.8601 35.941
26.9059 35.1859
26.9519 35.0694
26.9979 34.9785
27.0437 34.5615
27.0896 33.7642
27.1354 33.5924
27.1814 33.4218
27.2272 33.282
27.2732 33.161
27.3191 32.8853
27.3651 33.0158
27.4109 32.9068
27.4569 32.8244
27.5027 32.7084
27.5488 32.5287
27.5946 32.6386
27.6407 32.8149
27.6865 33.2213
27.7326 33.1948
27.7784 33.0864
27.8245 32.638
27.8703 32.5111
27.9164 32.6152
27.9623 32.4731
28.0084 32.5068
28.0543 32.5341
28.1003 32.5158
28.1462 32.7226
28.1923 33.2932
28.2384 33.4215
28.2843 33.0622
28.3304 32.4838
28.3764 32.4131
28.4225 32.3451
28.4684 31.8528
28.5145 31.22
28.5605 31.0001
28.6066 30.9392
28.6526 30.757
28.6987 30.6226
28.7447 30.3678
28.7908 30.2426
28.8368 30.2021
28.8829 30.1742
28.9289 30.0128
28.9751 30.0448
29.0211 30.1022
29.0673 30.2115
29.1133 30.0585
29.1595 29.8171
29.2055 29.4336
29.2517 29.3453
29.2977 29.1094
29.3439 29.0907
29.3899 28.9304
29.4361 28.8789
29.4824 28.9562
29.5284 29.1347
29.5746 29.1397
29.6207 28.9271
29.6669 28.6503
29.713 28.2963
29.7593 28.2829
29.8053 28.1049
29.8516 28.1302
29.8977 28.1146
29.9439 27.9427
29.99 27.9553
30.0363 27.7938
30.0824 27.8441
30.1287 27.6835
30.1748 27.6906
30.2211 27.5512
30.2673 27.4654
30.3136 27.6849
30.3597 27.6383
30.406 27.7014
30.4522 27.5786
30.4985 27.4178
30.5447 27.3322
30.591 27.2461
30.6372 27.3055
30.6835 27.1303
30.7297 27.245
30.7761 27.2303
30.8224 27.3161
30.8686 27.535
30.915 27.4008
30.9612 27.2991
31.0076 27.0962
31.0538 26.9616
31.1002 26.8926
31.1464 26.663
31.1928 26.5522
31.2391 26.5455
31.2855 26.2939
31.3317 26.2605
31.3781 26.2844
31.4244 26.1928
31.4708 26.1691
31.5171 26.2249
31.5636 26.2204
31.6098 26.213
31.6563 26.2726
31.7026 26.2241
31.7491 25.9908
31.7953 25.8085
31.8418 25.7102
31.8881 25.6174
31.9346 25.5832
31.9809 25.4999
32.0275 25.4879
32.074 25.5141
32.1203 25.5485
32.1668 25.4517
32.2132 25.3239
32.2597 25.2439
32.306 25.1771
32.3526 24.9511
32.399 24.8171
32.4455 24.6902
32.4919 24.5246
32.5385 24.5741
32.5848 24.4106
32.6314 24.4123
32.6778 24.366
32.7244 24.1641
32.7708 24.0748
32.8174 24.1043
32.8638 23.9692
32.9104 24.0394
32.9569 23.9577
33.0035 23.7872
33.0499 23.7775
33.0966 23.6694
33.143 23.5533
33.1897 23.5986
33.2361 23.4698
33.2828 23.4945
33.3293 23.4019
33.3759 23.4836
33.4226 23.3991
33.4691 23.3552
33.5158 23.3702
33.5623 23.1874
33.609 22.9561
33.6555 22.8059
33.7022 22.7153
33.7487 22.6041
33.7954 22.6441
33.842 22.4988
33.8887 22.4376
33.9353 22.3842
33.982 22.3441
34.0286 22.2294
34.0753 22.3096
34.1219 22.1927
34.1687 22.1213
34.2152 22.0845
34.262 21.8175
34.3086 21.8547
34.3554 21.8081
34.402 21.6018
34.4488 21.6124
34.4954 21.5594
34.5422 21.6114
34.5889 21.3965
34.6357 21.353
34.6825 21.3082
34.7292 21.2375
34.776 21.0767
34.8227 21.0828
34.8695 21.002
34.9162 20.9316
34.9631 20.8225
35.0098 20.8438
35.0566 20.808
35.1033 20.712
35.1502 20.739
35.1969 20.5942
35.2438 20.6387
35.2906 20.4865
35.3375 20.4979
35.3842 20.4012
35.4311 20.4115
35.4779 20.3541
35.5248 20.249
35.5716 20.279
35.6185 20.197
35.6653 20.2432
35.7123 20.1296
35.759 20.0459
35.806 19.9817
35.8528 19.8608
35.8998 19.7955
35.9468 19.7169
35.9936 19.7161
36.0406 19.6134
36.0874 19.6213
36.1345 19.5344
36.1813 19.4863
36.2283 19.2379
36.2752 19.3513
36.3222 19.3324
36.3691 19.2673
36.4161 19.1063
36.463 19.1183
36.5101 19.1281
36.557 18.9945
36.6041 18.9634
36.651 18.871
36.6981 18.9108
36.745 18.846
36.7921 18.8243
36.839 18.6526
36.8861 18.5721
36.9331 18.628
36.9802 18.5346
37.0272 18.4511
37.0743 18.3128
37.1213 18.3344
37.1684 18.2224
37.2154 18.2663
37.2626 18.1517
37.3098 18.0791
37.3568 18.0474
37.404 18.0245
37.451 17.8942
37.4982 17.8665
37.5452 17.7393
37.5924 17.7511
37.6395 17.7244
37.6867 17.6187
37.7337 17.5743
37.781 17.5769
37.8281 17.4668
37.8753 17.4151
37.9224 17.3598
37.9697 17.3211
38.0168 17.25
38.064 17.1776
38.1111 17.1697
38.1584 17.1045
38.2056 17.0228
38.2529 16.9747
38.3 16.9588
38.3473 16.865
38.3945 16.854
38.4418 16.7923
38.489 16.7317
38.5363 16.6643
38.5837 16.5833
38.6309 16.5015
38.6782 16.4841
38.7254 16.4137
38.7728 16.3982
38.82 16.3232
38.8674 16.3119
38.9146 16.2138
38.9621 16.233
39.0093 16.1771
39.0567 16.0499
39.104 16.0711
39.1514 15.951
39.1987 15.9383
39.2461 15.9234
39.2934 15.8624
39.3409 15.7668
39.3882 15.7267
39.4356 15.7334
39.483 15.6438
39.5304 15.563
39.5778 15.6001
39.6253 15.564
39.6726 15.4556
39.7201 15.3891
39.7675 15.3712
39.815 15.3088
39.8624 15.2336
39.9099 15.2062
39.9575 15.0983
40.0049 15.1236
40.0525 15.0673
40.0999 15.0366
40.1474 14.9803
40.1949 14.9352
40.2425 14.8905
40.2899 14.8821
40.3375 14.7924
40.385 14.7344
40.4326 14.6789
40.48 14.627
40.5277 14.6515
40.5752 14.598
40.6228 14.5047
40.6703 14.5103
40.718 14.4062
40.7655 14.3869
40.8132 14.2794
40.8607 14.2634
40.9084 14.2727
40.9559 14.2373
41.0036 14.1861
41.0512 14.1505
41.0989 14.0511
41.1465 14.001
41.1942 13.9913
41.242 13.932
41.2896 13.9047
41.3373 13.7802
41.3849 13.8324
41.4327 13.724
41.4803 13.6717
41.5281 13.6706
41.5758 13.5518
41.6236 13.4978
41.6712 13.505
41.7191 13.4404
41.7667 13.421
41.8146 13.4042
41.8622 13.2612
41.9101 13.2858
41.9578 13.2013
42.0057 13.2119
42.0534 13.1637
42.1013 13.124
42.149 13.1156
42.1969 13.0537
42.2446 13.0058
42.2925 12.9269
42.3403 12.9353
42.3882 12.7836
42.436 12.8481
42.4839 12.7171
42.5319 12.7283
42.5797 12.7219
42.6277 12.5935
42.6755 12.5682
42.7235 12.5343
42.7713 12.5085
42.8193 12.4839
42.8671 12.4283
42.9152 12.3875
42.963 12.3172
43.0111 12.2918
43.0589 12.2632
43.107 12.2282
43.1549 12.2038
43.2029 12.0953
43.2508 12.0806
43.2989 12.0901
43.3468 11.9701
43.3949 11.9578
43.4429 11.9542
43.491 11.9302
43.5389 11.8195
43.5871 11.8167
43.635 11.7546
43.6832 11.7334
43.7312 11.6935
43.7793 11.6267
43.8273 11.5858
43.8755 11.6028
43.9237 11.5138
43.9717 11.4784
44.0199 11.4248
44.068 11.4497
44.1162 11.338
44.1642 11.3134
44.2125 11.2926
44.2606 11.2627
44.3088 11.2177
44.3569 11.1763
44.4052 11.1674
44.4533 11.0898
44.5016 11.0422
44.5497 11.0531
44.598 10.9868
44.6461 10.9476
44.6945 10.8855
44.7426 10.887
44.791 10.8141
44.8391 10.7934
44.8875 10.7641
44.9357 10.7456
44.984 10.6567
45.0322 10.6402
45.0806 10.608
45.1288 10.5845
45.1773 10.5652
45.2257 10.5207
45.2739 10.4776
45.3224 10.3984
45.3706 10.3803
45.4191 10.3067
45.4673 10.2939
45.5158 10.2871
45.5641 10.223
45.6126 10.1779
45.6609 10.1281
45.7094 10.1414
45.7577 10.0973
45.8063 10.0436
45.8546 10.0383
45.9031 9.98556
45.9515 9.92372
46.0001 9.95618
46.0484 9.9113
46.097 9.84006
46.1454 9.80592
46.194 9.77614
46.2424 9.72668
46.291 9.70477
46.3395 9.65798
46.3881 9.64506
46.4365 9.6384
46.4852 9.56235
46.5337 9.54862
46.5823 9.52081
46.631 9.44965
46.6795 9.4641
46.7282 9.39682
46.7767 9.35271
46.8254 9.29127
46.8739 9.28394
46.9226 9.24062
46.9712 9.22242
47.0199 9.18245
47.0685 9.14476
47.1173 9.13257
47.1658 9.08897
47.2146 9.0228
47.2632 9.00877
47.312 9.0069
47.3606 8.97258
47.4095 8.90236
47.4581 8.90344
47.5069 8.84989
47.5556 8.84811
47.6044 8.80555
47.6531 8.74855
47.702 8.70646
47.7507 8.70522
47.7996 8.64297
47.8483 8.66299
47.8972 8.57606
47.9461 8.60265
47.9948 8.53432
48.0438 8.49772
48.0925 8.51333
48.1415 8.455
48.1902 8.39581
48.2392 8.41329
48.288 8.37722
48.337 8.33019
48.3858 8.28632
48.4348 8.28277
48.4837 8.28976
48.5327 8.23702
48.5815 8.14448
48.6306 8.19048
48.6795 8.1096
48.7285 8.06435
48.7774 8.05337
48.8265 8.04049
48.8754 7.98082
48.9245 8.00487
48.9734 7.99031
49.0226 7.90056
49.0715 7.87319
49.1206 7.81535
49.1696 7.84301
49.2188 7.80699
49.2679 7.76369
49.3169 7.75235
49.3661 7.6979
49.4151 7.69977
49.4643 7.6988
49.5134 7.62889
49.5626 7.58901
49.6117 7.57802
49.6609 7.58383
49.71 7.49608
49.7592 7.4684
49.8083 7.42852
49.8576 7.43441
49.9067 7.37273
49.956 7.3834
50.0052 7.34587
50.0545 7.34156
50.1036 7.31078
50.153 7.2783
50.2022 7.24609
50.2515 7.20765
50.3007 7.17327
50.3501 7.14829
50.3993 7.13878
50.4487 7.08557
50.498 7.07309
50.5474 7.03243
50.5966 6.99613
50.6461 6.99543
50.6955 6.9773
50.7448 6.95575
50.7943 6.92215
50.8436 6.90386
50.8931 6.83704
50.9424 6.84303
50.9919 6.80765
51.0413 6.78276
51.0908 6.74694
51.1402 6.73016
51.1897 6.70635
51.2391 6.63197
51.2887 6.62947
51.3381 6.6031
51.3877 6.56527
51.4371 6.56846
51.4867 6.52824
51.5362 6.47999
51.5858 6.50691
51.6353 6.41877
51.6849 6.3931
51.7344 6.39973
51.7841 6.40158
51.8336 6.35636
51.8833 6.33924
51.9328 6.28983
51.9826 6.24929
52.0323 6.24597
52.0818 6.22718
52.1316 6.18174
52.1812 6.17064
52.231 6.14412
52.2806 6.05961
52.3304 6.08435
52.38 6.06718
52.4298 6.02638
52.4794 5.98744
52.5293 5.9682
52.5789 5.98607
52.6288 5.91463
52.6785 5.91946
52.7284 5.91166
52.7781 5.89076
52.828 5.86764
52.8777 5.80575
52.9276 5.75791
52.9774 5.80441
53.0273 5.73179
53.0771 5.73645
53.1271 5.68279
53.1769 5.68746
53.2269 5.65199
53.2767 5.61502
53.3267 5.62356
53.3765 5.55804
53.4266 5.54681
53.4766 5.55485
53.5265 5.48727
53.5765 5.50601
53.6264 5.48605
53.6765 5.41498
53.7264 5.42874
53.7765 5.36538
53.8265 5.41513
53.8766 5.30731
53.9266 5.2918
53.9767 5.27045
54.0267 5.29019
54.0769 5.2233
54.1269 5.1781
54.1771 5.14046
54.2271 5.15976
54.2773 5.07577
54.3274 5.07774
54.3776 5.0038
54.4277 4.96697
54.478 4.94021
54.528 4.91353
54.5783 4.85831
54.6285 4.82815
54.6788 4.77122
54.7289 4.74252
54.7792 4.65145
54.8296 4.59887
54.8798 4.60544
54.9301 4.59997
54.9803 4.54364
55.0307 4.52792
55.0809 4.52686
55.1314 4.46132
55.1816 4.43157
55.232 4.32719
55.2823 4.30492
55.3328 4.24819
55.383 4.23352
55.4335 4.19838
55.4838 4.12301
55.5344 4.13542
55.5847 4.04533
55.6352 4.06011
55.6856 4.02801
55.7361 4.01728