File: XRD/Ni3Fe_FD0911.xy
TT I
1.27165 7.5196
1.31627 6.69436
1.36089 6.51711
1.40551 5.97367
1.45013 5.44914
1.49476 5.69976
1.53938 5.65908
1.584 4.96021
1.62863 5.36451
1.67325 4.94403
1.71787 5.26347
1.7625 4.72555
1.80712 4.82888
1.85174 4.97049
1.89636 5.28239
1.94099 5.0752
1.98562 4.2738
2.03025 4.55347
2.07487 4.36024
2.11949 4.75057
2.16411 5.00438
2.20874 10.2912
2.25338 15.0283
2.298 6.26152
2.34263 5.98336
2.38725 6.96557
2.43188 6.12015
2.4765 7.72253
2.52115 7.48537
2.56577 7.47149
2.6104 8.95624
2.65503 8.67705
2.69965 8.17213
2.7443 8.48203
2.78893 8.94393
2.83356 8.31189
2.87818 9.13046
2.92281 8.97394
2.96744 9.97703
3.01209 10.4461
3.05672 11.2107
3.10135 12.4901
3.14599 13.3026
3.19062 14.461
3.23527 15.5109
3.2799 16.2195
3.32454 16.9735
3.36917 17.3264
3.4138 18.3854
3.45844 19.5025
3.50309 21.1562
3.54773 21.4256
3.59237 23.1552
3.637 60.4412
3.68164 41.5533
3.7263 25.5132
3.77094 25.744
3.81558 25.9692
3.86022 27.2743
3.90486 28.3878
3.9495 29.4341
3.99416 30.5144
4.0388 31.6331
4.08344 32.771
4.12809 34.1765
4.17273 35.789
4.21738 40.1587
4.26204 149.56
4.30669 128.525
4.35133 45.0617
4.39598 43.6259
4.44063 49.4688
4.4853 56.0679
4.52995 53.2514
4.5746 54.4425
4.61925 52.9963
4.6639 54.9495
4.70855 57.7751
4.75322 60.5702
4.79788 66.2385
4.84253 67.0608
4.88719 72.6273
4.93184 74.9824
4.97652 79.5267
5.02118 86.0804
5.06583 93.4395
5.11049 104.068
5.15515 154.321
5.19981 350.245
5.24449 2734.26
5.28916 13687.9
5.33382 2617.9
5.37848 180.364
5.42315 126.268
5.46783 114.47
5.5125 108.154
5.55716 100.57
5.60183 96.2908
5.6465 94.7636
5.69117 92.7183
5.73586 91.2378
5.78053 94.3576
5.8252 93.9477
5.86988 95.7706
5.91455 93.0981
5.95924 101.255
6.00392 214.189
6.0486 927.018
6.09328 4748.69
6.13795 3035.1
6.18263 196.676
6.22733 88.2347
6.27201 79.1256
6.3167 87.1192
6.36138 75.0378
6.40606 68.5808
6.45075 68.0989
6.49545 64.5148
6.54014 62.5408
6.58483 61.8655
6.62952 61.9139
6.67421 77.7489
6.71892 101.328
6.76361 63.0754
6.8083 58.6619
6.853 58.2864
6.89769 56.5038
6.94239 55.4819
6.98711 54.8615
7.03181 55.0271
7.07651 54.4174
7.12121 54.1302
7.16591 55.4107
7.21063 54.7982
7.25533 62.5204
7.30004 116.119
7.34475 72.6639
7.38945 54.7381
7.43416 53.6236
7.47889 53.1753
7.5236 53.7442
7.56831 54.2321
7.61303 55.2878
7.65774 55.6786
7.70247 55.6173
7.74719 55.5932
7.79191 55.9607
7.83663 55.9912
7.88135 56.938
7.92607 57.7962
7.97081 58.8969
8.01553 60.0882
8.06026 61.6217
8.10498 62.8752
8.14971 70.4234
8.19446 69.6891
8.23919 68.5654
8.28392 70.6171
8.32865 72.9978
8.37339 77.1275
8.41812 83.0174
8.46288 103.427
8.50761 166.823
8.55235 365.16
8.59709 1201.27
8.64183 2296.83
8.68658 827.381
8.73134 141.331
8.77609 95.9579
8.82083 90.4222
8.86558 89.8039
8.91033 90.0072
8.9551 88.5923
8.99985 84.0642
9.04461 82.5976
9.08936 82.4277
9.13412 81.3605
9.17888 80.9199
9.22365 81.211
9.26841 80.8185
9.31318 82.9187
9.35794 83.6934
9.4027 83.8604
9.44749 83.5756
9.49226 83.5837
9.53703 84.7623
9.5818 87.4915
9.62657 91.7398
9.67134 94.7568
9.71614 91.7078
9.76091 93.3671
9.80569 96.7966
9.85047 99.5792
9.89525 113.372
9.94005 126.354
9.98484 180.355
10.0296 328.68
10.0744 822.257
10.1192 1873.52
10.164 1477.31
10.2088 325.157
10.2536 118.145
10.2984 108.475
10.3432 107.969
10.388 102.911
10.4328 118.338
10.4776 157.469
10.5224 289.026
10.5672 544.748
10.612 492.338
10.6568 178.038
10.7017 91.9396
10.7465 84.7956
10.7913 81.8261
10.8361 79.6631
10.8809 77.6304
10.9257 76.9206
10.9706 76.97
11.0154 74.0455
11.0602 71.469
11.105 70.4278
11.1499 72.0855
11.1947 75.37
11.2395 70.0869
11.2844 67.8691
11.3292 65.9676
11.374 64.7833
11.4189 64.4944
11.4637 63.8153
11.5086 63.7467
11.5534 65.0147
11.5983 63.6185
11.6431 62.2423
11.688 61.8781
11.7328 61.8231
11.7777 61.5987
11.8225 61.6154
11.8674 61.4095
11.9122 61.8959
11.9571 62.114
12.002 62.9368
12.0468 67.0304
12.0917 77.0869
12.1366 100.545
12.1814 157.812
12.2263 212.261
12.2712 153.517
12.3161 85.5979
12.3609 66.4147
12.4058 62.9693
12.4507 63.1089
12.4956 63.5616
12.5405 63.5757
12.5853 64.1866
12.6302 68.3905
12.6751 71.3841
12.72 67.4297
12.7649 66.6908
12.8098 67.4429
12.8547 68.8526
12.8996 70.083
12.9445 71.508
12.9894 73.2948
13.0343 74.7249
13.0792 78.5777
13.1242 89.1221
13.1691 109.454
13.214 145.133
13.2589 244.069
13.3038 390.818
13.3487 427.095
13.3937 231.859
13.4386 113.706
13.4835 104.007
13.5285 117.472
13.5734 156.214
13.6183 258.591
13.6633 376.712
13.7082 325.208
13.7531 167.436
13.7981 91.6692
13.843 79.7172
13.888 78.0112
13.9329 75.9572
13.9779 74.673
14.0228 73.0493
14.0678 71.8107
14.1127 71.2733
14.1577 70.7142
14.2027 70.1814
14.2476 69.2131
14.2926 68.7085
14.3376 69.4132
14.3825 68.5323
14.4275 67.6279
14.4725 67.5836
14.5175 67.7552
14.5624 67.8314
14.6074 68.9833
14.6524 69.5261
14.6974 69.4124
14.7424 71.8782
14.7874 78.0352
14.8324 86.9869
14.8774 109.808
14.9224 158.003
14.9674 217.467
15.0124 215.753
15.0574 138.224
15.1024 84.1616
15.1474 70.5364
15.1924 68.891
15.2374 68.7631
15.2824 67.818
15.3274 66.5163
15.3725 65.6186
15.4175 65.218
15.4625 64.8252
15.5076 65.1548
15.5526 64.7518
15.5976 64.6752
15.6426 66.5131
15.6877 71.4676
15.7327 78.3249
15.7778 93.8064
15.8228 128.711
15.8679 177.566
15.9129 195.165
15.958 145.157
16.003 87.0695
16.0481 64.9724
16.0931 62.2575
16.1382 60.5669
16.1833 59.2663
16.2283 57.715
16.2734 57.1626
16.3185 57.2148
16.3636 57.0745
16.4086 56.0669
16.4537 55.1311
16.4988 54.5207
16.5439 54.4189
16.589 54.307
16.6341 53.87
16.6792 53.5753
16.7243 53.7647
16.7694 53.7437
16.8145 53.7139
16.8596 54.0432
16.9047 54.9092
16.9498 55.074
16.9949 54.644
17.04 54.9239
17.0851 56.0147
17.1302 57.6562
17.1754 60.5077
17.2205 66.0055
17.2656 74.6373
17.3108 83.4325
17.3559 79.7601
17.401 67.5081
17.4462 60.0727
17.4913 58.1803
17.5365 58.062
17.5815 58.2393
17.6268 58.5
17.6718 59.1486
17.7171 59.6623
17.7622 60.2908
17.8074 61.2
17.8525 63.6452
17.8977 67.3471
17.9428 72.279
17.9881 81.4692
18.0331 100.553
18.0784 125.566
18.1237 139.967
18.1688 125.188
18.214 96.0417
18.2591 83.7783
18.3044 90.434
18.3495 102.32
18.3948 105.833
18.4399 90.8844
18.4852 73.0748
18.5303 64.018
18.5756 60.7482
18.6207 60.1513
18.666 59.2802
18.7112 58.5212
18.7565 57.8937
18.8016 57.616
18.8469 56.9039
18.892 56.7716
18.9374 56.2138
18.9825 56.0604
19.0278 55.8211
19.073 55.7453
19.1183 56.3562
19.1635 56.8735
19.2088 58.2158
19.254 60.9757
19.2993 65.9723
19.3447 72.3251
19.3898 75.0268
19.4352 69.2265
19.4804 60.3267
19.5257 55.0089
19.5709 53.1785
19.6163 52.9266
19.6615 52.7993
19.7068 52.4498
19.752 52.4148
19.7974 52.8923
19.8426 53.2773
19.888 54.0385
19.9332 55.26
19.9786 57.9846
20.0238 62.3795
20.0692 67.4616
20.1144 69.2933
20.1598 66.3983
20.205 61.6741
20.2504 61.271
20.2957 64.1936
20.3411 65.1365
20.3863 62.1215
20.4318 56.2579
20.477 51.8809
20.5224 50.342
20.5677 49.7953
20.6131 49.1901
20.6586 48.7371
20.7038 48.7278
20.7493 48.0582
20.7945 48.0726
20.84 48.0497
20.8853 47.9717
20.9307 47.8515
20.976 48.0028
21.0215 47.8998
21.0668 48.0889
21.1122 48.6954
21.1575 49.3305
21.203 50.2239
21.2483 50.6304
21.2938 50.431
21.3391 49.0089
21.3846 47.9968
21.4299 47.5865
21.4754 47.5135
21.5207 47.7944
21.5662 48.1119
21.6116 48.4981
21.6571 48.958
21.7024 50.0974
21.7479 51.9734
21.7933 54.7505
21.8388 59.0899
21.8843 62.9832
21.9297 64.1067
21.9752 61.0996
22.0206 57.6571
22.0661 55.4163
22.1115 55.3431
22.157 54.9277
22.2024 52.5373
22.248 50.0211
22.2933 48.8271
22.3389 47.9857
22.3843 47.9673
22.4299 47.8464
22.4753 47.7771
22.5208 47.7597
22.5662 47.8215
22.6118 48.0089
22.6572 48.0585
22.7028 48.4425
22.7483 48.868
22.7939 49.6386
22.8393 51.2412
22.8849 53.5713
22.9303 56.0049
22.9759 57.4591
23.0214 56.0415
23.067 52.9053
23.1126 49.5827
23.1581 48.1785
23.2037 47.8885
23.2492 47.976
23.2948 47.9818
23.3403 48.3284
23.3859 48.8082
23.4314 50.1273
23.477 52.1608
23.5225 54.5575
23.5682 56.8658
23.6137 57.1459
23.6593 53.9978
23.7048 49.8861
23.7505 46.9384
23.796 45.7703
23.8417 45.2354
23.8872 44.7424
23.9329 44.5147
23.9784 44.0512
24.0241 43.7964
24.0697 43.5983
24.1154 43.4019
24.1609 43.3485
24.2066 43.0613
24.2522 42.9236
24.2979 42.6139
24.3434 42.4465
24.3892 42.4352
24.4349 42.3144
24.4805 42.218
24.5262 42.3649
24.5718 42.2388
24.6175 42.1974
24.6631 41.9788
24.7089 41.6173
24.7545 41.632
24.8002 41.5189
24.8458 41.5255
24.8916 41.3701
24.9372 41.5236
24.983 41.7906
25.0286 42.1344
25.0744 42.7231
25.12 43.2329
25.1658 43.7374
25.2114 43.9839
25.2572 44.0585
25.3029 44.2228
25.3487 44.3022
25.3943 43.7808
25.4402 42.561
25.4858 41.2909
25.5316 40.7668
25.5773 40.1314
25.6231 40.2175
25.669 39.8767
25.7147 39.7567
25.7605 39.8156
25.8062 39.5808
25.8521 39.81
25.8977 39.9059
25.9436 40.2628
25.9893 40.3553
26.0352 41.0249
26.0809 41.0417
26.1268 41.0521
26.1725 40.6721
26.2184 39.9386
26.2641 39.6026
26.31 39.4219
26.3557 39.5414
26.4017 39.4221
26.4474 39.7956
26.4933 40.0651
26.5391 40.5517
26.585 41.1972
26.6308 41.5566
26.6767 41.4453
26.7225 41.1158
26.7684 40.6908
26.8142 40.1145
26.8601 39.7223
26.9059 39.2372
26.9519 38.7683
26.9979 38.5754
27.0437 38.1817
27.0896 38.0076
27.1354 38.1539
27.1814 38.0294
27.2272 37.8783
27.2732 37.8787
27.3191 37.7609
27.3651 37.8817
27.4109 37.8134
27.4569 37.9561
27.5027 37.9232
27.5488 38.0257
27.5946 37.7437
27.6407 37.5143
27.6865 37.3903
27.7326 37.1955
27.7784 37.1845
27.8245 37.2303
27.8703 37.3011
27.9164 37.7048
27.9623 37.936
28.0084 38.3128
28.0543 38.548
28.1003 38.4122
28.1462 38.0979
28.1923 37.7205
28.2384 37.1947
28.2843 36.9309
28.3304 36.5019
28.3764 36.0708
28.4225 35.764
28.4684 35.6657
28.5145 35.3612
28.5605 35.2694
28.6066 35.1248
28.6526 35.1909
28.6987 34.9347
28.7447 34.9328
28.7908 34.8978
28.8368 34.8899
28.8829 34.9074
28.9289 34.7385
28.9751 34.4756
29.0211 34.2803
29.0673 34.0523
29.1133 33.9563
29.1595 33.7854
29.2055 33.7144
29.2517 33.8052
29.2977 33.6335
29.3439 33.7003
29.3899 33.722
29.4361 33.5482
29.4824 33.4248
29.5284 33.1141
29.5746 32.6915
29.6207 32.5656
29.6669 32.4965
29.713 32.4728
29.7593 32.2734
29.8053 32.173
29.8516 32.2092
29.8977 32.2263
29.9439 32.1402
29.99 31.9829
30.0363 31.8666
30.0824 32.0981
30.1287 31.848
30.1748 31.811
30.2211 31.9037
30.2673 31.7672
30.3136 31.7362
30.3597 31.679
30.406 31.7383
30.4522 31.4752
30.4985 31.4751
30.5447 31.5839
30.591 31.6346
30.6372 31.7634
30.6835 31.7238
30.7297 31.7736
30.7761 31.5727
30.8224 31.441
30.8686 31.3356
30.915 31.0503
30.9612 30.9454
31.0076 30.7484
31.0538 30.5946
31.1002 30.6478
31.1464 30.3984
31.1928 30.4104
31.2391 30.4416
31.2855 30.3179
31.3317 30.3299
31.3781 30.4339
31.4244 30.3927
31.4708 30.2657
31.5171 30.2992
31.5636 30.2304
31.6098 30.0283
31.6563 29.8763
31.7026 29.6634
31.7491 29.6035
31.7953 29.6752
31.8418 29.6566
31.8881 29.7504
31.9346 29.579
31.9809 29.6027
32.0275 29.417
32.074 29.3481
32.1203 29.0695
32.1668 28.9844
32.2132 28.9138
32.2597 28.7813
32.306 28.6343
32.3526 28.464
32.399 28.4969
32.4455 28.3163
32.4919 28.3011
32.5385 28.1761
32.5848 27.9615
32.6314 28.0846
32.6778 28.0121
32.7244 27.735
32.7708 27.6581
32.8174 27.6349
32.8638 27.5516
32.9104 27.6201
32.9569 27.5862
33.0035 27.3704
33.0499 27.3821
33.0966 27.3755
33.143 27.3224
33.1897 27.2557
33.2361 27.1562
33.2828 27.1236
33.3293 27.0377
33.3759 26.9062
33.4226 26.7189
33.4691 26.6138
33.5158 26.5697
33.5623 26.4854
33.609 26.2571
33.6555 26.1876
33.7022 26.1871
33.7487 26.0023
33.7954 26.0439
33.842 25.8548
33.8887 25.8885
33.9353 25.9201
33.982 25.695
34.0286 25.6344
34.0753 25.5601
34.1219 25.4258
34.1687 25.3949
34.2152 25.3306
34.262 25.2458
34.3086 25.1435
34.3554 25.0958
34.402 24.9178
34.4488 24.853
34.4954 24.8569
34.5422 24.7344
34.5889 24.6002
34.6357 24.6114
34.6825 24.5035
34.7292 24.4641
34.776 24.3576
34.8227 24.3146
34.8695 24.2402
34.9162 24.1842
34.9631 24.0432
35.0098 24.1386
35.0566 23.8768
35.1033 23.8928
35.1502 23.8866
35.1969 23.7894
35.2438 23.81
35.2906 23.7224
35.3375 23.6641
35.3842 23.5527
35.4311 23.6379
35.4779 23.6104
35.5248 23.5219
35.5716 23.4453
35.6185 23.2701
35.6653 23.2661
35.7123 23.2047
35.759 23.111
35.806 23.0044
35.8528 22.8678
35.8998 22.8364
35.9468 22.7188
35.9936 22.6761
36.0406 22.6617
36.0874 22.6018
36.1345 22.48
36.1813 22.4445
36.2283 22.3563
36.2752 22.2751
36.3222 22.3316
36.3691 22.202
36.4161 22.1275
36.463 22.0195
36.5101 22.0362
36.557 22.0288
36.6041 21.8043
36.651 21.7918
36.6981 21.7709
36.745 21.6662
36.7921 21.5853
36.839 21.4439
36.8861 21.4296
36.9331 21.3801
36.9802 21.3752
37.0272 21.2322
37.0743 21.2034
37.1213 21.0878
37.1684 21.1295
37.2154 20.964
37.2626 20.9136
37.3098 20.8218
37.3568 20.8343
37.404 20.7359
37.451 20.7202
37.4982 20.5902
37.5452 20.4717
37.5924 20.4282
37.6395 20.4877
37.6867 20.3873
37.7337 20.3404
37.781 20.189
37.8281 20.1634
37.8753 20.0611
37.9224 20.0119
37.9697 19.969
38.0168 19.8892
38.064 19.764
38.1111 19.8221
38.1584 19.677
38.2056 19.6687
38.2529 19.5383
38.3 19.5297
38.3473 19.4076
38.3945 19.3536
38.4418 19.2788
38.489 19.2847
38.5363 19.2206
38.5837 19.0899
38.6309 19.1608
38.6782 18.9884
38.7254 18.9404
38.7728 18.8631
38.82 18.8373
38.8674 18.7865
38.9146 18.6953
38.9621 18.6507
39.0093 18.5899
39.0567 18.5263
39.104 18.4254
39.1514 18.352
39.1987 18.3096
39.2461 18.3765
39.2934 18.2239
39.3409 18.1538
39.3882 17.9924
39.4356 18.0649
39.483 17.9836
39.5304 17.9245
39.5778 17.9574
39.6253 17.8636
39.6726 17.7716
39.7201 17.7492
39.7675 17.7292
39.815 17.644
39.8624 17.5404
39.9099 17.5525
39.9575 17.4629
40.0049 17.3417
40.0525 17.2801
40.0999 17.309
40.1474 17.2658
40.1949 17.1422
40.2425 17.0878
40.2899 17.0913
40.3375 16.9573
40.385 16.9074
40.4326 16.904
40.48 16.8355
40.5277 16.7295
40.5752 16.7365
40.6228 16.6469
40.6703 16.6664
40.718 16.5923
40.7655 16.5449
40.8132 16.5072
40.8607 16.4901
40.9084 16.4324
40.9559 16.3254
41.0036 16.2623
41.0512 16.2257
41.0989 16.1754
41.1465 16.0751
41.1942 16.1262
41.242 15.966
41.2896 15.9485
41.3373 15.9099
41.3849 15.8519
41.4327 15.7839
41.4803 15.7333
41.5281 15.7054
41.5758 15.6073
41.6236 15.5743
41.6712 15.5405
41.7191 15.4601
41.7667 15.4625
41.8146 15.3919
41.8622 15.3283
41.9101 15.2826
41.9578 15.2094
42.0057 15.1725
42.0534 15.142
42.1013 15.0909
42.149 15.0395
42.1969 14.9625
42.2446 14.8882
42.2925 14.8579
42.3403 14.7841
42.3882 14.8195
42.436 14.7309
42.4839 14.6142
42.5319 14.6036
42.5797 14.5279
42.6277 14.5226
42.6755 14.5143
42.7235 14.3841
42.7713 14.3787
42.8193 14.2931
42.8671 14.2509
42.9152 14.2372
42.963 14.146
43.0111 14.1294
43.0589 14.0824
43.107 13.9913
43.1549 13.98
43.2029 13.9282
43.2508 13.9035
43.2989 13.8536
43.3468 13.7782
43.3949 13.7988
43.4429 13.7385
43.491 13.6276
43.5389 13.6015
43.5871 13.5654
43.635 13.4963
43.6832 13.4578
43.7312 13.4169
43.7793 13.3804
43.8273 13.3306
43.8755 13.3073
43.9237 13.2399
43.9717 13.2189
44.0199 13.1245
44.068 13.1037
44.1162 13.0263
44.1642 13.0139
44.2125 12.9917
44.2606 12.8995
44.3088 12.8566
44.3569 12.8185
44.4052 12.781
44.4533 12.7424
44.5016 12.6703
44.5497 12.6595
44.598 12.6064
44.6461 12.5396
44.6945 12.5538
44.7426 12.4457
44.791 12.4152
44.8391 12.3887
44.8875 12.3476
44.9357 12.2876
44.984 12.2675
45.0322 12.2384
45.0806 12.1261
45.1288 12.1472
45.1773 12.0295
45.2257 12.0633
45.2739 12.0006
45.3224 11.9685
45.3706 11.98
45.4191 11.9107
45.4673 11.8423
45.5158 11.8162
45.5641 11.7442
45.6126 11.7082
45.6609 11.65
45.7094 11.6313
45.7577 11.5933
45.8063 11.5377
45.8546 11.4902
45.9031 11.4436
45.9515 11.4175
46.0001 11.3707
46.0484 11.3483
46.097 11.272
46.1454 11.2896
46.194 11.2198
46.2424 11.1553
46.291 11.1448
46.3395 11.1356
46.3881 11.0006
46.4365 11.0339
46.4852 10.9294
46.5337 10.8859
46.5823 10.9115
46.631 10.858
46.6795 10.8371
46.7282 10.7313
46.7767 10.7218
46.8254 10.6671
46.8739 10.6645
46.9226 10.5852
46.9712 10.5645
47.0199 10.5431
47.0685 10.5041
47.1173 10.4675
47.1658 10.4468
47.2146 10.383
47.2632 10.3257
47.312 10.2965
47.3606 10.2657
47.4095 10.2098
47.4581 10.1808
47.5069 10.1603
47.5556 10.1233
47.6044 10.0498
47.6531 10.0393
47.702 9.99786
47.7507 9.96981
47.7996 9.91633
47.8483 9.87911
47.8972 9.87046
47.9461 9.85819
47.9948 9.7495
48.0438 9.78875
48.0925 9.69196
48.1415 9.68455
48.1902 9.6485
48.2392 9.6152
48.288 9.59094
48.337 9.56085
48.3858 9.47372
48.4348 9.46941
48.4837 9.45556
48.5327 9.41987
48.5815 9.35476
48.6306 9.35038
48.6795 9.2862
48.7285 9.2513
48.7774 9.22746
48.8265 9.22026
48.8754 9.14797
48.9245 9.1474
48.9734 9.10367
49.0226 9.07882
49.0715 9.04153
49.1206 9.00835
49.1696 8.93833
49.2188 8.93316
49.2679 8.92152
49.3169 8.83902
49.3661 8.8078
49.4151 8.77037
49.4643 8.76626
49.5134 8.7078
49.5626 8.65514
49.6117 8.67993
49.6609 8.62343
49.71 8.59079
49.7592 8.55452
49.8083 8.49617
49.8576 8.48051
49.9067 8.4401
49.956 8.42761
50.0052 8.41439
50.0545 8.34595
50.1036 8.3302
50.153 8.26264
50.2022 8.25475
50.2515 8.21752
50.3007 8.20836
50.3501 8.12081
50.3993 8.14506
50.4487 8.11632
50.498 8.08073
50.5474 8.08493
50.5966 8.01595
50.6461 7.9728
50.6955 7.94834
50.7448 7.93779
50.7943 7.89454
50.8436 7.88432
50.8931 7.82431
50.9424 7.81387
50.9919 7.75013
51.0413 7.73053
51.0908 7.69209
51.1402 7.71172
51.1897 7.66007
51.2391 7.60292
51.2887 7.58489
51.3381 7.55716
51.3877 7.58473
51.4371 7.45931
51.4867 7.47399
51.5362 7.42252
51.5858 7.43485
51.6353 7.38335
51.6849 7.3008
51.7344 7.31398
51.7841 7.31575
51.8336 7.25388
51.8833 7.21689
51.9328 7.16288
51.9826 7.16542
52.0323 7.16645
52.0818 7.1208
52.1316 7.07298
52.1812 7.0634
52.231 6.99654
52.2806 6.98124
52.3304 6.95015
52.38 6.96533
52.4298 6.91214
52.4794 6.85417
52.5293 6.83913
52.5789 6.80934
52.6288 6.79812
52.6785 6.72522
52.7284 6.72363
52.7781 6.70914
52.828 6.65759
52.8777 6.63542
52.9276 6.62877
52.9774 6.54992
53.0273 6.58394
53.0771 6.5175
53.1271 6.55647
53.1769 6.49778
53.2269 6.47629
53.2767 6.42637
53.3267 6.39344
53.3765 6.36228
53.4266 6.39353
53.4766 6.32614
53.5265 6.27176
53.5765 6.2447
53.6264 6.23391
53.6765 6.21769
53.7264 6.17902
53.7765 6.13713
53.8265 6.12517
53.8766 6.10315
53.9266 6.08977
53.9767 6.06539
54.0267 6.06633
54.0769 6.02188
54.1269 5.96376
54.1771 5.94183
54.2271 5.94148
54.2773 5.83576
54.3274 5.90658
54.3776 5.79941
54.4277 5.7989
54.478 5.76404
54.528 5.73149
54.5783 5.68188
54.6285 5.62818
54.6788 5.64271
54.7289 5.56795
54.7792 5.53334
54.8296 5.50357
54.8798 5.42061
54.9301 5.38084
54.9803 5.4028
55.0307 5.33068
55.0809 5.26743
55.1314 5.29934
55.1816 5.22218
55.232 5.16691
55.2823 5.16057
55.3328 5.07749
55.383 5.00945
55.4335 4.92488
55.4838 4.93582
55.5344 4.91415
55.5847 4.82331
55.6352 4.85829
55.6856 4.80001
55.7361 4.80987