File: XRD/Ni3Fe_FD0333.xy
TT I
1.27165 7.86666
1.31627 7.54071
1.36089 7.13997
1.40551 6.68642
1.45013 6.76792
1.49476 6.41865
1.53938 5.74261
1.584 5.82335
1.62863 5.71404
1.67325 5.89208
1.71787 5.67535
1.7625 4.87807
1.80712 4.78031
1.85174 4.9813
1.89636 5.36072
1.94099 5.02693
1.98562 5.01478
2.03025 4.90331
2.07487 4.48842
2.11949 5.0354
2.16411 4.60753
2.20874 11.8314
2.25338 16.7539
2.298 5.06483
2.34263 5.07101
2.38725 5.40148
2.43188 4.84539
2.4765 6.27766
2.52115 6.4351
2.56577 6.81324
2.6104 7.16021
2.65503 6.99119
2.69965 7.57256
2.7443 6.39807
2.78893 8.1579
2.83356 7.98692
2.87818 8.66572
2.92281 8.68504
2.96744 9.49616
3.01209 10.0098
3.05672 11.4235
3.10135 12.5133
3.14599 13.1354
3.19062 14.208
3.23527 15.658
3.2799 15.7313
3.32454 16.9186
3.36917 18.2038
3.4138 19.1471
3.45844 19.9368
3.50309 21.6638
3.54773 22.0063
3.59237 24.0697
3.637 73.9016
3.68164 48.624
3.7263 26.4338
3.77094 26.8296
3.81558 27.5002
3.86022 27.8675
3.90486 29.4254
3.9495 30.1442
3.99416 31.5536
4.0388 32.4707
4.08344 34.0783
4.12809 35.8716
4.17273 37.6549
4.21738 42.4971
4.26204 195.5
4.30669 165.352
4.35133 47.6361
4.39598 45.4989
4.44063 52.557
4.4853 61.7756
4.52995 53.1122
4.5746 52.9781
4.61925 54.8688
4.6639 57.1521
4.70855 59.8779
4.75322 62.8797
4.79788 66.1569
4.84253 69.5576
4.88719 74.4403
4.93184 78.7296
4.97652 84.4544
5.02118 91.5079
5.06583 101.069
5.11049 115.102
5.15515 181.832
5.19981 566.384
5.24449 3568.52
5.28916 11399.7
5.33382 3520.65
5.37848 227.496
5.42315 139.958
5.46783 120.728
5.5125 111.226
5.55716 106.642
5.60183 102.347
5.6465 100.71
5.69117 98.558
5.73586 96.0559
5.78053 96.32
5.8252 96.3727
5.86988 97.8837
5.91455 102.479
5.95924 114.972
6.00392 301.874
6.0486 1244.3
6.09328 4071.39
6.13795 3446.78
6.18263 289.229
6.22733 101.122
6.27201 86.6306
6.3167 97.5483
6.36138 80.4696
6.40606 71.4851
6.45075 69.4901
6.49545 67.1816
6.54014 65.7225
6.58483 64.8465
6.62952 63.994
6.67421 86.18
6.71892 121.343
6.76361 67.2278
6.8083 59.9442
6.853 59.3617
6.89769 58.0487
6.94239 57.6962
6.98711 57.2865
7.03181 56.9811
7.07651 56.7541
7.12121 56.4884
7.16591 56.9347
7.21063 56.3271
7.25533 67.6742
7.30004 144.504
7.34475 82.3627
7.38945 57.5747
7.43416 55.6409
7.47889 55.564
7.5236 55.8831
7.56831 56.9542
7.61303 57.999
7.65774 58.4937
7.70247 57.7539
7.74719 57.5833
7.79191 58.0716
7.83663 58.1677
7.88135 59.1335
7.92607 60.2784
7.97081 61.072
8.01553 62.8537
8.06026 64.3818
8.10498 65.9656
8.14971 73.8762
8.19446 73.0915
8.23919 71.8411
8.28392 74.5261
8.32865 76.7896
8.37339 81.4166
8.41812 88.9398
8.46288 115.897
8.50761 214.117
8.55235 487.168
8.59709 1164.65
8.64183 2127.1
8.68658 1076.33
8.73134 184.763
8.77609 104.83
8.82083 96.6209
8.86558 93.0041
8.91033 92.3503
8.9551 92.7296
8.99985 87.6855
9.04461 86.4509
9.08936 85.6866
9.13412 84.6398
9.17888 84.7186
9.22365 85.0971
9.26841 84.63
9.31318 85.8932
9.35794 85.7232
9.4027 85.6969
9.44749 86.7055
9.49226 87.2571
9.53703 88.0454
9.5818 90.1879
9.62657 94.5687
9.67134 99.4431
9.71614 96.5717
9.76091 97.47
9.80569 100.576
9.85047 103.641
9.89525 123.251
9.94005 140.224
9.98484 223.55
10.0296 427.276
10.0744 853.021
10.1192 1613.63
10.164 1679.18
10.2088 491.814
10.2536 138.586
10.2984 117.169
10.3432 116.264
10.388 109.829
10.4328 133.863
10.4776 184.075
10.5224 292.943
10.5672 481.616
10.612 526.86
10.6568 217.749
10.7017 100.708
10.7465 89.8715
10.7913 85.7985
10.8361 83.3844
10.8809 81.158
10.9257 80.266
10.9706 80.5242
11.0154 77.0045
11.0602 75.1857
11.105 73.6898
11.1499 76.2755
11.1947 81.526
11.2395 74.7724
11.2844 71.508
11.3292 69.1055
11.374 68.2342
11.4189 67.2747
11.4637 66.9157
11.5086 66.8325
11.5534 68.9262
11.5983 67.1869
11.6431 65.6461
11.688 64.8483
11.7328 64.6592
11.7777 64.7334
11.8225 64.4923
11.8674 64.2749
11.9122 64.8769
11.9571 64.8531
12.002 66.1011
12.0468 73.0576
12.0917 86.1886
12.1366 108.944
12.1814 148.753
12.2263 198.648
12.2712 176.711
12.3161 99.8957
12.3609 71.489
12.4058 66.4362
12.4507 66.2742
12.4956 66.3614
12.5405 66.2485
12.5853 67.3179
12.6302 72.9095
12.6751 77.725
12.72 71.1062
12.7649 69.9617
12.8098 70.5213
12.8547 71.6765
12.8996 73.3462
12.9445 74.8293
12.9894 76.5163
13.0343 78.3009
13.0792 82.5898
13.1242 97.135
13.1691 126.001
13.214 165.72
13.2589 243.817
13.3038 350.25
13.3487 425.886
13.3937 283.966
13.4386 133.565
13.4835 116.487
13.5285 134.918
13.5734 171.697
13.6183 240.761
13.6633 329.041
13.7082 343.164
13.7531 203.099
13.7981 103.037
13.843 84.8563
13.888 82.2701
13.9329 79.5313
13.9779 78.0686
14.0228 76.6307
14.0678 75.3776
14.1127 74.7353
14.1577 74.3878
14.2027 73.552
14.2476 72.6882
14.2926 72.5739
14.3376 73.1541
14.3825 72.4136
14.4275 71.0962
14.4725 70.9345
14.5175 71.1951
14.5624 71.3016
14.6074 72.8618
14.6524 73.5169
14.6974 72.842
14.7424 76.0736
14.7874 85.2646
14.8324 97.2181
14.8774 118.43
14.9224 153.192
14.9674 199.117
15.0124 218.307
15.0574 156.596
15.1024 95.0037
15.1474 74.6334
15.1924 72.5143
15.2374 72.7097
15.2824 71.7937
15.3274 69.9155
15.3725 68.8582
15.4175 68.6992
15.4625 68.146
15.5076 68.376
15.5526 68.231
15.5976 68.3328
15.6426 70.5385
15.6877 78.0943
15.7327 86.774
15.7778 101.793
15.8228 127.518
15.8679 162.81
15.9129 192.721
15.958 165.392
16.003 103.427
16.0481 70.3296
16.0931 65.9672
16.1382 64.0346
16.1833 62.2611
16.2283 60.8409
16.2734 60.0461
16.3185 60.1591
16.3636 60.4678
16.4086 59.1233
16.4537 58.0536
16.4988 57.1932
16.5439 57.19
16.589 57.0246
16.6341 56.5616
16.6792 56.1037
16.7243 56.4436
16.7694 56.4722
16.8145 56.5387
16.8596 56.7236
16.9047 58.0279
16.9498 58.2521
16.9949 57.3817
17.04 57.86
17.0851 59.5554
17.1302 61.5097
17.1754 64.3323
17.2205 68.8454
17.2656 74.8289
17.3108 82.885
17.3559 84.2371
17.401 74.3609
17.4462 64.5817
17.4913 61.0633
17.5365 60.7327
17.5815 60.9962
17.6268 61.3653
17.6718 62.2001
17.7171 62.6399
17.7622 63.2842
17.8074 64.4069
17.8525 67.7522
17.8977 72.6397
17.9428 78.8294
17.9881 87.2763
18.0331 101.794
18.0784 119.173
18.1237 139.914
18.1688 138.161
18.214 111.644
18.2591 91.1517
18.3044 91.6707
18.3495 98.9524
18.3948 106.597
18.4399 99.2197
18.4852 80.3951
18.5303 67.9435
18.5756 64.0613
18.6207 63.2391
18.666 62.155
18.7112 61.5666
18.7565 60.7104
18.8016 60.2236
18.8469 59.8499
18.892 59.6166
18.9374 58.8913
18.9825 59.0501
19.0278 58.6103
19.073 58.9807
19.1183 59.5978
19.1635 60.5459
19.2088 61.8219
19.254 64.3208
19.2993 67.812
19.3447 72.5385
19.3898 77.3099
19.4352 74.8187
19.4804 65.971
19.5257 58.6876
19.5709 55.9964
19.6163 55.6363
19.6615 55.4919
19.7068 54.8773
19.752 55.0773
19.7974 55.4969
19.8426 56.6677
19.888 57.1508
19.9332 58.4897
19.9786 60.9116
20.0238 63.827
20.0692 67.8141
20.1144 71.5865
20.1598 71.201
20.205 66.3445
20.2504 63.7061
20.2957 64.7543
20.3411 66.5009
20.3863 66.1272
20.4318 60.6435
20.477 55.5775
20.5224 53.315
20.5677 52.5332
20.6131 51.8327
20.6586 51.203
20.7038 51.0028
20.7493 50.5621
20.7945 50.5478
20.84 50.09
20.8853 50.3568
20.9307 50.289
20.976 50.3542
21.0215 50.2213
21.0668 50.6034
21.1122 50.9991
21.1575 51.7423
21.203 52.0458
21.2483 52.7441
21.2938 53.2108
21.3391 52.0867
21.3846 50.671
21.4299 49.8328
21.4754 49.9804
21.5207 50.3792
21.5662 50.552
21.6116 51.1576
21.6571 51.9044
21.7024 52.9961
21.7479 54.6917
21.7933 57.016
21.8388 60.1474
21.8843 63.518
21.9297 66.4115
21.9752 65.7288
22.0206 61.8761
22.0661 58.0486
22.1115 57.4499
22.157 57.3847
22.2024 56.0636
22.248 53.3816
22.2933 51.3415
22.3389 50.6191
22.3843 50.5485
22.4299 50.4131
22.4753 50.3604
22.5208 50.017
22.5662 50.1518
22.6118 50.327
22.6572 50.6981
22.7028 51.0671
22.7483 51.4868
22.7939 52.3456
22.8393 53.6543
22.8849 55.312
22.9303 57.0771
22.9759 58.9473
23.0214 59.1408
23.067 56.5019
23.1126 52.9011
23.1581 50.8815
23.2037 50.5318
23.2492 50.6387
23.2948 50.5722
23.3403 51.0278
23.3859 51.5983
23.4314 52.6235
23.477 54.0333
23.5225 55.7952
23.5682 57.6436
23.6137 59.2529
23.6593 57.5949
23.7048 53.6233
23.7505 49.9772
23.796 47.9633
23.8417 47.4143
23.8872 47.0217
23.9329 46.585
23.9784 46.2723
24.0241 46.0449
24.0697 45.9858
24.1154 45.4683
24.1609 45.3305
24.2066 45.2181
24.2522 45.0563
24.2979 44.9252
24.3434 44.6678
24.3892 44.5782
24.4349 44.3049
24.4805 44.0326
24.5262 44.4686
24.5718 44.1077
24.6175 44.2524
24.6631 44.1442
24.7089 43.8789
24.7545 43.6385
24.8002 43.4869
24.8458 43.5581
24.8916 43.3969
24.9372 43.6085
24.983 43.8976
25.0286 44.3105
25.0744 44.5428
25.12 44.9612
25.1658 45.7147
25.2114 46.0847
25.2572 46.0631
25.3029 45.8367
25.3487 45.9746
25.3943 46.0491
25.4402 45.1854
25.4858 43.9471
25.5316 42.8143
25.5773 42.2286
25.6231 42.1114
25.669 41.7583
25.7147 41.8177
25.7605 41.7216
25.8062 41.8591
25.8521 41.9351
25.8977 41.9169
25.9436 42.1907
25.9893 42.1938
26.0352 42.4562
26.0809 42.6551
26.1268 42.9994
26.1725 42.6503
26.2184 42.1334
26.2641 41.6909
26.31 41.4548
26.3557 41.376
26.4017 41.342
26.4474 41.8179
26.4933 42.0795
26.5391 42.3425
26.585 42.8417
26.6308 43.0867
26.6767 43.3908
26.7225 43.4354
26.7684 42.6785
26.8142 42.0709
26.8601 41.7731
26.9059 41.1797
26.9519 40.6551
26.9979 40.4574
27.0437 39.9975
27.0896 39.9525
27.1354 40.1161
27.1814 39.7662
27.2272 39.7717
27.2732 39.7223
27.3191 39.6178
27.3651 39.6239
27.4109 39.465
27.4569 39.6697
27.5027 39.6948
27.5488 39.6355
27.5946 39.5619
27.6407 39.6254
27.6865 40.1436
27.7326 41.4851
27.7784 40.1219
27.8245 39.5497
27.8703 39.635
27.9164 39.6097
27.9623 39.7421
28.0084 39.751
28.0543 40.172
28.1003 40.1572
28.1462 39.9188
28.1923 39.6123
28.2384 39.1899
28.2843 38.7472
28.3304 38.3709
28.3764 37.7926
28.4225 37.4541
28.4684 37.318
28.5145 36.9941
28.5605 36.897
28.6066 36.7479
28.6526 36.6558
28.6987 36.734
28.7447 36.7131
28.7908 36.4515
28.8368 36.8128
28.8829 36.669
28.9289 36.6944
28.9751 36.2723
29.0211 35.9661
29.0673 36.3543
29.1133 35.8775
29.1595 35.5187
29.2055 35.318
29.2517 35.4251
29.2977 35.1835
29.3439 35.26
29.3899 35.3112
29.4361 35.2286
29.4824 34.9953
29.5284 34.8136
29.5746 34.3879
29.6207 34.2672
29.6669 34.0844
29.713 34.0497
29.7593 33.7811
29.8053 33.8973
29.8516 33.7707
29.8977 33.7364
29.9439 33.5868
29.99 33.5229
30.0363 33.443
30.0824 33.5748
30.1287 33.4011
30.1748 33.3365
30.2211 33.3252
30.2673 33.2379
30.3136 33.2965
30.3597 33.1886
30.406 33.1811
30.4522 33.0338
30.4985 33.0168
30.5447 33.1116
30.591 33.0977
30.6372 33.1542
30.6835 32.9821
30.7297 33.1355
30.7761 33.1251
30.8224 32.9881
30.8686 32.8049
30.915 32.6136
30.9612 32.4755
31.0076 32.2546
31.0538 32.1659
31.1002 32.1276
31.1464 31.869
31.1928 31.9563
31.2391 31.9226
31.2855 31.8319
31.3317 31.7549
31.3781 31.7451
31.4244 31.7903
31.4708 31.7603
31.5171 31.6337
31.5636 31.7579
31.6098 31.4646
31.6563 31.3738
31.7026 31.1856
31.7491 31.0828
31.7953 31.0801
31.8418 31.0531
31.8881 31.0628
31.9346 30.9689
31.9809 30.9479
32.0275 30.8268
32.074 30.7088
32.1203 30.4837
32.1668 30.4233
32.2132 30.2502
32.2597 30.131
32.306 30.0967
32.3526 29.8218
32.399 29.8087
32.4455 29.6552
32.4919 29.5671
32.5385 29.5644
32.5848 29.4013
32.6314 29.3838
32.6778 29.2421
32.7244 29.1179
32.7708 29.0796
32.8174 29.0247
32.8638 28.8899
32.9104 28.9556
32.9569 28.7799
33.0035 28.6731
33.0499 28.7095
33.0966 28.6293
33.143 28.5872
33.1897 28.5114
33.2361 28.4244
33.2828 28.3754
33.3293 28.1861
33.3759 28.1996
33.4226 28.1245
33.4691 27.8576
33.5158 27.8094
33.5623 27.7011
33.609 27.4831
33.6555 27.5649
33.7022 27.4325
33.7487 27.3588
33.7954 27.3124
33.842 27.2081
33.8887 27.1552
33.9353 27.1042
33.982 26.9035
34.0286 26.7802
34.0753 26.794
34.1219 26.7238
34.1687 26.6147
34.2152 26.4995
34.262 26.4185
34.3086 26.2945
34.3554 26.3239
34.402 26.1488
34.4488 26.0306
34.4954 25.9402
34.5422 25.8436
34.5889 25.7716
34.6357 25.7893
34.6825 25.6599
34.7292 25.6098
34.776 25.5133
34.8227 25.4159
34.8695 25.412
34.9162 25.2913
34.9631 25.2274
35.0098 25.1573
35.0566 25.0245
35.1033 25.034
35.1502 25.0076
35.1969 24.9208
35.2438 24.8929
35.2906 24.8027
35.3375 24.7698
35.3842 24.7019
35.4311 24.7043
35.4779 24.5886
35.5248 24.5786
35.5716 24.5222
35.6185 24.4444
35.6653 24.3059
35.7123 24.2234
35.759 24.1747
35.806 24.139
35.8528 23.8906
35.8998 23.8881
35.9468 23.8351
35.9936 23.7488
36.0406 23.6838
36.0874 23.6653
36.1345 23.5726
36.1813 23.5276
36.2283 23.3855
36.2752 23.3064
36.3222 23.3591
36.3691 23.2758
36.4161 23.0843
36.463 23.1092
36.5101 23.0398
36.557 23.0089
36.6041 22.8621
36.651 22.8191
36.6981 22.8105
36.745 22.6916
36.7921 22.623
36.839 22.5229
36.8861 22.4358
36.9331 22.3237
36.9802 22.3343
37.0272 22.2581
37.0743 22.1902
37.1213 22.1109
37.1684 22.0377
37.2154 22.0224
37.2626 21.899
37.3098 21.817
37.3568 21.7946
37.404 21.7246
37.451 21.5893
37.4982 21.5628
37.5452 21.4798
37.5924 21.3903
37.6395 21.4251
37.6867 21.2912
37.7337 21.2089
37.781 21.1593
37.8281 21.095
37.8753 20.9981
37.9224 20.9031
37.9697 20.8959
38.0168 20.754
38.064 20.7273
38.1111 20.6491
38.1584 20.6171
38.2056 20.5767
38.2529 20.525
38.3 20.3761
38.3473 20.4368
38.3945 20.1968
38.4418 20.2303
38.489 20.2085
38.5363 20.1078
38.5837 19.9502
38.6309 19.9786
38.6782 19.9322
38.7254 19.8233
38.7728 19.7756
38.82 19.7106
38.8674 19.6719
38.9146 19.6041
38.9621 19.5927
39.0093 19.4699
39.0567 19.425
39.104 19.3617
39.1514 19.1938
39.1987 19.1999
39.2461 19.1363
39.2934 19.1106
39.3409 19.0109
39.3882 18.9804
39.4356 18.9293
39.483 18.8884
39.5304 18.7882
39.5778 18.807
39.6253 18.6818
39.6726 18.6054
39.7201 18.5892
39.7675 18.4513
39.815 18.4425
39.8624 18.3459
39.9099 18.386
39.9575 18.2862
40.0049 18.2519
40.0525 18.104
40.0999 18.0408
40.1474 18.0972
40.1949 17.9362
40.2425 17.9032
40.2899 17.8971
40.3375 17.8148
40.385 17.7125
40.4326 17.7113
40.48 17.6335
40.5277 17.6324
40.5752 17.5549
40.6228 17.4545
40.6703 17.3738
40.718 17.3484
40.7655 17.3351
40.8132 17.2594
40.8607 17.2386
40.9084 17.2411
40.9559 17.1543
41.0036 17.0534
41.0512 17.0382
41.0989 16.9868
41.1465 16.8801
41.1942 16.8633
41.242 16.7072
41.2896 16.7288
41.3373 16.6184
41.3849 16.6427
41.4327 16.5571
41.4803 16.4437
41.5281 16.4489
41.5758 16.3838
41.6236 16.2877
41.6712 16.2419
41.7191 16.2001
41.7667 16.1756
41.8146 16.1458
41.8622 16.0404
41.9101 16.0642
41.9578 15.8946
42.0057 15.8689
42.0534 15.7935
42.1013 15.7774
42.149 15.7214
42.1969 15.7127
42.2446 15.6218
42.2925 15.5591
42.3403 15.493
42.3882 15.4482
42.436 15.4451
42.4839 15.3308
42.5319 15.3151
42.5797 15.3247
42.6277 15.2384
42.6755 15.2035
42.7235 15.0885
42.7713 15.0177
42.8193 15.0439
42.8671 14.9297
42.9152 14.8926
42.963 14.8559
43.0111 14.805
43.0589 14.7488
43.107 14.6064
43.1549 14.6029
43.2029 14.5426
43.2508 14.5289
43.2989 14.4836
43.3468 14.4251
43.3949 14.3577
43.4429 14.3532
43.491 14.2738
43.5389 14.2877
43.5871 14.1878
43.635 14.1441
43.6832 14.1269
43.7312 14.037
43.7793 13.974
43.8273 13.9489
43.8755 13.9035
43.9237 13.8259
43.9717 13.7924
44.0199 13.7485
44.068 13.7049
44.1162 13.6548
44.1642 13.6587
44.2125 13.5864
44.2606 13.5068
44.3088 13.3934
44.3569 13.4551
44.4052 13.3561
44.4533 13.3554
44.5016 13.2856
44.5497 13.2247
44.598 13.1893
44.6461 13.1533
44.6945 13.1023
44.7426 13.0416
44.791 12.9517
44.8391 12.9947
44.8875 12.9201
44.9357 12.9064
44.984 12.8164
45.0322 12.7582
45.0806 12.7024
45.1288 12.7361
45.1773 12.6444
45.2257 12.618
45.2739 12.5229
45.3224 12.5357
45.3706 12.4875
45.4191 12.404
45.4673 12.3851
45.5158 12.3537
45.5641 12.322
45.6126 12.2496
45.6609 12.1854
45.7094 12.1495
45.7577 12.1418
45.8063 12.0249
45.8546 12.0584
45.9031 12.0133
45.9515 11.9479
46.0001 11.8895
46.0484 11.8944
46.097 11.7902
46.1454 11.7927
46.194 11.7457
46.2424 11.6677
46.291 11.6541
46.3395 11.6167
46.3881 11.5773
46.4365 11.5323
46.4852 11.4504
46.5337 11.3813
46.5823 11.3935
46.631 11.3584
46.6795 11.3189
46.7282 11.2973
46.7767 11.2153
46.8254 11.1851
46.8739 11.1142
46.9226 11.095
46.9712 11.0822
47.0199 11.0145
47.0685 10.9502
47.1173 10.879
47.1658 10.8634
47.2146 10.8441
47.2632 10.756
47.312 10.8083
47.3606 10.6982
47.4095 10.699
47.4581 10.6907
47.5069 10.5935
47.5556 10.5904
47.6044 10.5068
47.6531 10.477
47.702 10.458
47.7507 10.401
47.7996 10.371
47.8483 10.3019
47.8972 10.3358
47.9461 10.2697
47.9948 10.1687
48.0438 10.1955
48.0925 10.1946
48.1415 10.1514
48.1902 10.0537
48.2392 10.0803
48.288 10.0151
48.337 10.0109
48.3858 9.9366
48.4348 9.92393
48.4837 9.8936
48.5327 9.84219
48.5815 9.77796
48.6306 9.78656
48.6795 9.7591
48.7285 9.70714
48.7774 9.64061
48.8265 9.62723
48.8754 9.54732
48.9245 9.518
48.9734 9.53674
49.0226 9.49521
49.0715 9.43373
49.1206 9.40833
49.1696 9.35951
49.2188 9.33637
49.2679 9.29259
49.3169 9.24308
49.3661 9.2517
49.4151 9.21091
49.4643 9.16242
49.5134 9.10663
49.5626 9.07039
49.6117 9.0419
49.6609 9.03418
49.71 8.95092
49.7592 8.9676
49.8083 8.92864
49.8576 8.85827
49.9067 8.82654
49.956 8.84308
50.0052 8.79143
50.0545 8.75812
50.1036 8.68706
50.153 8.69692
50.2022 8.6622
50.2515 8.63685
50.3007 8.55571
50.3501 8.53558
50.3993 8.49533
50.4487 8.46965
50.498 8.4683
50.5474 8.41966
50.5966 8.35983
50.6461 8.34625
50.6955 8.33413
50.7448 8.28921
50.7943 8.25507
50.8436 8.22877
50.8931 8.18462
50.9424 8.18101
50.9919 8.13367
51.0413 8.10163
51.0908 8.04271
51.1402 8.01481
51.1897 7.97571
51.2391 7.97286
51.2887 7.93088
51.3381 7.8925
51.3877 7.86744
51.4371 7.85882
51.4867 7.80215
51.5362 7.75347
51.5858 7.72353
51.6353 7.7119
51.6849 7.65701
51.7344 7.62415
51.7841 7.62019
51.8336 7.5952
51.8833 7.58879
51.9328 7.51937
51.9826 7.44146
52.0323 7.44104
52.0818 7.40489
52.1316 7.37605
52.1812 7.37929
52.231 7.2988
52.2806 7.27715
52.3304 7.29376
52.38 7.22715
52.4298 7.20555
52.4794 7.14934
52.5293 7.12641
52.5789 7.14425
52.6288 7.09799
52.6785 7.02759
52.7284 7.01188
52.7781 7.01516
52.828 6.9572
52.8777 6.92464
52.9276 6.91735
52.9774 6.91934
53.0273 6.88999
53.0771 6.82728
53.1271 6.81045
53.1769 6.75929
53.2269 6.7552
53.2767 6.7233
53.3267 6.6941
53.3765 6.66477
53.4266 6.61627
53.4766 6.57794
53.5265 6.56601
53.5765 6.50289
53.6264 6.52114
53.6765 6.48123
53.7264 6.46882
53.7765 6.43657
53.8265 6.41802
53.8766 6.3751
53.9266 6.30114
53.9767 6.27785
54.0267 6.30179
54.0769 6.20633
54.1269 6.19697
54.1771 6.20492
54.2271 6.16639
54.2773 6.14742
54.3274 6.12249
54.3776 6.06428
54.4277 5.99474
54.478 6.01644
54.528 5.94641
54.5783 5.92426
54.6285 5.86588
54.6788 5.84272
54.7289 5.77067
54.7792 5.74966
54.8296 5.72776
54.8798 5.65901
54.9301 5.63315
54.9803 5.59906
55.0307 5.53744
55.0809 5.53929
55.1314 5.51012
55.1816 5.44963
55.232 5.39373
55.2823 5.37436
55.3328 5.31766
55.383 5.22528
55.4335 5.18301
55.4838 5.18949
55.5344 5.08861
55.5847 5.05709
55.6352 5.05199
55.6856 5.04095
55.7361 4.92769