File: XRD/Ni3Fe_FD0538.xy
TT I
1.27165 7.47434
1.31627 6.8373
1.36089 6.9699
1.40551 6.70701
1.45013 6.00356
1.49476 6.1901
1.53938 6.0142
1.584 5.13289
1.62863 5.16687
1.67325 5.73368
1.71787 5.62278
1.7625 4.53179
1.80712 4.92725
1.85174 4.81985
1.89636 4.48851
1.94099 5.14824
1.98562 4.92802
2.03025 3.96902
2.07487 4.90889
2.11949 4.81151
2.16411 5.40555
2.20874 17.9997
2.25338 30.3258
2.298 6.16577
2.34263 5.3636
2.38725 6.06785
2.43188 6.254
2.4765 6.48116
2.52115 6.81524
2.56577 6.95093
2.6104 7.62915
2.65503 7.43868
2.69965 8.11716
2.7443 7.90528
2.78893 7.84124
2.83356 8.58288
2.87818 8.24445
2.92281 8.76267
2.96744 9.56066
3.01209 10.244
3.05672 11.3893
3.10135 12.518
3.14599 13.0108
3.19062 14.7982
3.23527 15.0925
3.2799 16.0178
3.32454 17.1101
3.36917 17.8888
3.4138 19.2757
3.45844 20.021
3.50309 21.7683
3.54773 22.4316
3.59237 24.9606
3.637 119.108
3.68164 73.4034
3.7263 27.185
3.77094 26.8866
3.81558 27.5601
3.86022 28.018
3.90486 29.3171
3.9495 30.4214
3.99416 31.412
4.0388 32.7224
4.08344 34.5517
4.12809 35.7144
4.17273 38.0749
4.21738 45.3818
4.26204 320.279
4.30669 289.813
4.35133 51.8004
4.39598 45.6556
4.44063 57.9324
4.4853 73.9607
4.52995 51.0628
4.5746 51.7096
4.61925 53.6629
4.6639 55.8702
4.70855 58.3668
4.75322 61.0058
4.79788 63.8845
4.84253 67.4363
4.88719 71.4839
4.93184 75.3603
4.97652 81.2298
5.02118 87.0156
5.06583 94.6284
5.11049 107.211
5.15515 194.891
5.19981 371.76
5.24449 2718.59
5.28916 11846.1
5.33382 3383.34
5.37848 208.15
5.42315 133.912
5.46783 115.873
5.5125 107.423
5.55716 103.231
5.60183 100.203
5.6465 98.2924
5.69117 95.6412
5.73586 92.524
5.78053 92.1712
5.8252 91.6775
5.86988 92.6414
5.91455 94.9446
5.95924 102.795
6.00392 206.632
6.0486 934.566
6.09328 4057.16
6.13795 3548.48
6.18263 288.81
6.22733 97.3338
6.27201 86.0157
6.3167 114.257
6.36138 85.6782
6.40606 70.1532
6.45075 68.3043
6.49545 66.4988
6.54014 65.0988
6.58483 64.3194
6.62952 64.3515
6.67421 105.715
6.71892 178.338
6.76361 73.9775
6.8083 59.9236
6.853 58.4365
6.89769 57.813
6.94239 57.6232
6.98711 56.835
7.03181 56.5774
7.07651 56.1117
7.12121 56.0542
7.16591 56.5064
7.21063 57.1978
7.25533 76.3717
7.30004 228.61
7.34475 106.636
7.38945 58.4077
7.43416 55.7026
7.47889 55.6587
7.5236 55.954
7.56831 56.5241
7.61303 58.992
7.65774 59.2517
7.70247 57.0929
7.74719 57.2411
7.79191 57.6284
7.83663 57.9713
7.88135 58.6286
7.92607 59.3712
7.97081 60.6508
8.01553 61.5654
8.06026 63.3027
8.10498 64.3457
8.14971 77.1445
8.19446 74.9974
8.23919 70.3021
8.28392 72.3337
8.32865 74.9551
8.37339 79.0697
8.41812 86.7731
8.46288 124.289
8.50761 166.22
8.55235 375.508
8.59709 1089.37
8.64183 2149.64
8.68658 1076.34
8.73134 192.004
8.77609 102.552
8.82083 94.4065
8.86558 90.9084
8.91033 91.6269
8.9551 95.0954
8.99985 86.8809
9.04461 84.3429
9.08936 83.5746
9.13412 82.7629
9.17888 82.7604
9.22365 83.9025
9.26841 82.6029
9.31318 82.8847
9.35794 83.5483
9.4027 84.0221
9.44749 84.4327
9.49226 85.065
9.53703 86.3526
9.5818 87.8263
9.62657 93.8358
9.67134 103.142
9.71614 95.4489
9.76091 94.8529
9.80569 97.1541
9.85047 100.978
9.89525 132.885
9.94005 147.086
9.98484 174.616
10.0296 331.443
10.0744 744.772
10.1192 1620.03
10.164 1711.49
10.2088 468.262
10.2536 134.152
10.2984 117.323
10.3432 120.772
10.388 106.944
10.4328 117.652
10.4776 157.705
10.5224 266.458
10.5672 497.104
10.612 544.045
10.6568 226.62
10.7017 100.165
10.7465 87.617
10.7913 84.1319
10.8361 81.8792
10.8809 79.8356
10.9257 79.997
10.9706 81.1392
11.0154 75.7447
11.0602 73.8583
11.105 72.8343
11.1499 78.9835
11.1947 89.8791
11.2395 77.7392
11.2844 72.4801
11.3292 68.4299
11.374 67.0944
11.4189 66.4826
11.4637 65.6771
11.5086 66.5215
11.5534 70.8421
11.5983 66.995
11.6431 64.6923
11.688 63.6082
11.7328 63.6927
11.7777 63.9738
11.8225 63.2988
11.8674 63.1283
11.9122 63.5793
11.9571 63.634
12.002 64.234
12.0468 67.8913
12.0917 79.4133
12.1366 101.77
12.1814 147.011
12.2263 204.139
12.2712 177.855
12.3161 105.953
12.3609 73.9597
12.4058 66.0518
12.4507 65.4143
12.4956 65.3141
12.5405 65.4447
12.5853 66.639
12.6302 77.0038
12.6751 84.6433
12.72 72.0926
12.7649 68.7336
12.8098 69.0584
12.8547 70.3309
12.8996 71.6893
12.9445 72.9065
12.9894 74.6499
13.0343 76.1226
13.0792 79.3557
13.1242 87.9671
13.1691 111.757
13.214 146.14
13.2589 224.172
13.3038 346.864
13.3487 436.592
13.3937 291.946
13.4386 132.496
13.4835 106.772
13.5285 119.123
13.5734 153.657
13.6183 231.4
13.6633 332.283
13.7082 356.057
13.7531 205.81
13.7981 103.685
13.843 83.2952
13.888 80.5803
13.9329 78.1889
13.9779 76.5829
14.0228 75.1445
14.0678 74.0098
14.1127 73.3792
14.1577 73.6157
14.2027 72.614
14.2476 71.056
14.2926 71.513
14.3376 73.3284
14.3825 71.704
14.4275 69.8192
14.4725 69.3911
14.5175 69.4148
14.5624 69.4385
14.6074 72.6484
14.6524 73.3541
14.6974 71.3531
14.7424 72.4269
14.7874 78.6647
14.8324 88.4942
14.8774 107.98
14.9224 145.439
14.9674 198.25
15.0124 223.737
15.0574 161.827
15.1024 96.4526
15.1474 73.8899
15.1924 71.7336
15.2374 73.1757
15.2824 72.1848
15.3274 69.5427
15.3725 67.4896
15.4175 67.1613
15.4625 66.8899
15.5076 67.4106
15.5526 67.3456
15.5976 66.6333
15.6426 67.2109
15.6877 72.277
15.7327 79.6043
15.7778 93.5284
15.8228 120.368
15.8679 161.339
15.9129 193.26
15.958 166.054
16.003 103.659
16.0481 70.7126
16.0931 66.7386
16.1382 64.5394
16.1833 61.9183
16.2283 59.8206
16.2734 59.2569
16.3185 59.8122
16.3636 61.1082
16.4086 59.071
16.4537 57.2543
16.4988 56.2704
16.5439 56.3778
16.589 55.8058
16.6341 55.7606
16.6792 55.2723
16.7243 55.5623
16.7694 55.8913
16.8145 55.798
16.8596 56.0174
16.9047 58.1635
16.9498 58.3956
16.9949 56.7411
17.04 56.6131
17.0851 57.4606
17.1302 59.1128
17.1754 61.9109
17.2205 66.1431
17.2656 73.3291
17.3108 82.1065
17.3559 83.1464
17.401 73.9079
17.4462 63.574
17.4913 60.0187
17.5365 59.7632
17.5815 59.9606
17.6268 60.1655
17.6718 61.1825
17.7171 61.727
17.7622 61.8567
17.8074 62.4928
17.8525 64.4586
17.8977 68.4262
17.9428 73.6961
17.9881 81.8214
18.0331 96.6556
18.0784 116.712
18.1237 137.951
18.1688 135.761
18.214 108.973
18.2591 88.0204
18.3044 89.5693
18.3495 98.8144
18.3948 106.863
18.4399 100.563
18.4852 81.4004
18.5303 67.8133
18.5756 63.2567
18.6207 62.0933
18.666 61.2039
18.7112 60.5084
18.7565 59.6299
18.8016 59.4573
18.8469 58.6655
18.892 58.3055
18.9374 57.9528
18.9825 57.7903
19.0278 57.6466
19.073 57.681
19.1183 58.2671
19.1635 58.9936
19.2088 60.1586
19.254 62.3714
19.2993 66.0102
19.3447 72.019
19.3898 77.053
19.4352 74.3982
19.4804 65.0924
19.5257 58.0755
19.5709 54.9614
19.6163 54.5912
19.6615 54.329
19.7068 54.0081
19.752 53.9305
19.7974 54.2799
19.8426 54.9766
19.888 55.5976
19.9332 56.8017
19.9786 58.7773
20.0238 61.7871
20.0692 66.4784
20.1144 70.3199
20.1598 70.0864
20.205 64.9753
20.2504 62.2564
20.2957 63.6483
20.3411 66.216
20.3863 65.5435
20.4318 59.9912
20.477 55.0245
20.5224 52.6359
20.5677 51.806
20.6131 50.992
20.6586 50.289
20.7038 50.0431
20.7493 49.7012
20.7945 49.5626
20.84 49.5281
20.8853 49.3676
20.9307 49.07
20.976 49.1393
21.0215 49.1832
21.0668 49.6331
21.1122 49.9013
21.1575 50.5953
21.203 51.1545
21.2483 51.9246
21.2938 52.089
21.3391 50.9919
21.3846 49.7739
21.4299 49.0836
21.4754 49.0878
21.5207 49.2264
21.5662 49.3771
21.6116 49.6317
21.6571 50.2476
21.7024 51.4084
21.7479 52.7803
21.7933 55.3436
21.8388 58.4934
21.8843 62.1479
21.9297 64.9556
21.9752 64.7458
22.0206 61.0052
22.0661 57.2838
22.1115 56.2845
22.157 56.5878
22.2024 55.4089
22.248 52.5533
22.2933 50.4943
22.3389 49.7395
22.3843 49.5732
22.4299 49.6999
22.4753 49.6929
22.5208 49.1988
22.5662 49.022
22.6118 49.2405
22.6572 49.3309
22.7028 49.766
22.7483 50.2998
22.7939 50.7792
22.8393 52.1079
22.8849 54.0015
22.9303 55.8578
22.9759 58.2098
23.0214 58.5253
23.067 55.946
23.1126 52.2577
23.1581 49.9782
23.2037 49.5378
23.2492 49.4629
23.2948 49.2636
23.3403 49.6351
23.3859 50.138
23.4314 50.9197
23.477 52.6354
23.5225 54.6584
23.5682 56.8657
23.6137 58.3983
23.6593 56.8736
23.7048 52.9559
23.7505 49.1996
23.796 47.2561
23.8417 46.6658
23.8872 46.1623
23.9329 45.8531
23.9784 45.4768
24.0241 45.2547
24.0697 45.0098
24.1154 44.6754
24.1609 44.6524
24.2066 44.427
24.2522 44.2695
24.2979 43.9494
24.3434 43.9513
24.3892 43.6566
24.4349 43.6779
24.4805 43.4727
24.5262 43.6708
24.5718 43.5482
24.6175 43.4622
24.6631 43.4337
24.7089 43.0007
24.7545 42.9485
24.8002 42.6828
24.8458 42.738
24.8916 42.4998
24.9372 42.7096
24.983 43.0188
25.0286 43.2567
25.0744 43.6898
25.12 44.0417
25.1658 44.7198
25.2114 45.0712
25.2572 45.2025
25.3029 45.2
25.3487 45.3682
25.3943 45.3106
25.4402 44.218
25.4858 43.2072
25.5316 41.9732
25.5773 41.4678
25.6231 41.4911
25.669 40.9906
25.7147 41.1499
25.7605 41.0988
25.8062 41.059
25.8521 41.2111
25.8977 41.0753
25.9436 41.2515
25.9893 41.2232
26.0352 41.8355
26.0809 41.8053
26.1268 42.2039
26.1725 41.9375
26.2184 41.4422
26.2641 40.8552
26.31 40.6357
26.3557 40.6592
26.4017 40.5434
26.4474 40.8582
26.4933 41.233
26.5391 41.5524
26.585 42.1074
26.6308 42.4515
26.6767 42.5904
26.7225 42.6198
26.7684 42.1393
26.8142 41.403
26.8601 40.9337
26.9059 40.5708
26.9519 40.14
26.9979 39.8203
27.0437 39.2905
27.0896 39.0948
27.1354 39.2015
27.1814 39.1974
27.2272 39.0244
27.2732 39.0721
27.3191 38.7619
27.3651 38.9851
27.4109 38.8986
27.4569 38.945
27.5027 38.8064
27.5488 39.1081
27.5946 38.8213
27.6407 38.6315
27.6865 38.5405
27.7326 38.3818
27.7784 38.2356
27.8245 38.2605
27.8703 38.3729
27.9164 38.6477
27.9623 38.6653
28.0084 39.1346
28.0543 39.4996
28.1003 39.4593
28.1462 39.3274
28.1923 39.0283
28.2384 38.3299
28.2843 38.1658
28.3304 37.8086
28.3764 37.2253
28.4225 36.9762
28.4684 36.695
28.5145 36.3857
28.5605 36.2886
28.6066 36.0914
28.6526 36.1738
28.6987 36.1385
28.7447 35.9416
28.7908 35.8132
28.8368 35.7808
28.8829 35.7934
28.9289 35.7315
28.9751 35.6613
29.0211 35.4529
29.0673 35.075
29.1133 34.9477
29.1595 34.7267
29.2055 34.7306
29.2517 34.7552
29.2977 34.8069
29.3439 34.5711
29.3899 34.6316
29.4361 34.5825
29.4824 34.3839
29.5284 34.2179
29.5746 33.9291
29.6207 33.5227
29.6669 33.4275
29.713 33.4483
29.7593 33.2648
29.8053 33.3008
29.8516 33.2849
29.8977 33.1907
29.9439 33.0289
29.99 32.8998
30.0363 32.8893
30.0824 32.8865
30.1287 32.8305
30.1748 32.8528
30.2211 32.9123
30.2673 32.7818
30.3136 32.7603
30.3597 32.7019
30.406 32.5268
30.4522 32.4493
30.4985 32.3427
30.5447 32.5074
30.591 32.4791
30.6372 32.4883
30.6835 32.5152
30.7297 32.6374
30.7761 32.5369
30.8224 32.3638
30.8686 32.3002
30.915 32.0272
30.9612 31.8877
31.0076 31.6694
31.0538 31.571
31.1002 31.4235
31.1464 31.248
31.1928 31.2174
31.2391 31.3229
31.2855 31.253
31.3317 31.1799
31.3781 31.2338
31.4244 31.2779
31.4708 31.2202
31.5171 31.2026
31.5636 31.0722
31.6098 30.9461
31.6563 30.7946
31.7026 30.6676
31.7491 30.4137
31.7953 30.4941
31.8418 30.4458
31.8881 30.5118
31.9346 30.4467
31.9809 30.3952
32.0275 30.2548
32.074 30.2195
32.1203 29.9633
32.1668 29.9937
32.2132 29.7763
32.2597 29.6257
32.306 29.5329
32.3526 29.3827
32.399 29.2441
32.4455 29.058
32.4919 28.9927
32.5385 29.0034
32.5848 28.9541
32.6314 28.8837
32.6778 28.8296
32.7244 28.6368
32.7708 28.508
32.8174 28.5961
32.8638 28.3429
32.9104 28.3226
32.9569 28.3393
33.0035 28.1979
33.0499 28.1911
33.0966 28.0896
33.143 28.1467
33.1897 27.9499
33.2361 27.8892
33.2828 27.8371
33.3293 27.7166
33.3759 27.779
33.4226 27.5606
33.4691 27.4879
33.5158 27.4693
33.5623 27.2244
33.609 27.1119
33.6555 26.9841
33.7022 26.8286
33.7487 26.8216
33.7954 26.8093
33.842 26.6874
33.8887 26.6359
33.9353 26.6308
33.982 26.5399
34.0286 26.3732
34.0753 26.3681
34.1219 26.279
34.1687 26.1964
34.2152 26.0301
34.262 26.0106
34.3086 25.8824
34.3554 25.8508
34.402 25.6688
34.4488 25.6374
34.4954 25.593
34.5422 25.4264
34.5889 25.3567
34.6357 25.3118
34.6825 25.2842
34.7292 25.1087
34.776 25.0652
34.8227 24.9644
34.8695 24.9804
34.9162 24.8826
34.9631 24.7955
35.0098 24.809
35.0566 24.7091
35.1033 24.6707
35.1502 24.6523
35.1969 24.4651
35.2438 24.4635
35.2906 24.4649
35.3375 24.2543
35.3842 24.3318
35.4311 24.2524
35.4779 24.2391
35.5248 24.2503
35.5716 24.1074
35.6185 24.0335
35.6653 23.8347
35.7123 23.8223
35.759 23.7926
35.806 23.6633
35.8528 23.6042
35.8998 23.5611
35.9468 23.3913
35.9936 23.3799
36.0406 23.2546
36.0874 23.3129
36.1345 23.2087
36.1813 23.2199
36.2283 22.9648
36.2752 22.8989
36.3222 22.9491
36.3691 22.8498
36.4161 22.782
36.463 22.6301
36.5101 22.6558
36.557 22.6365
36.6041 22.4803
36.651 22.4046
36.6981 22.398
36.745 22.3346
36.7921 22.2717
36.839 22.1322
36.8861 22.0713
36.9331 22.0722
36.9802 21.9389
37.0272 21.7982
37.0743 21.701
37.1213 21.739
37.1684 21.6755
37.2154 21.6031
37.2626 21.5166
37.3098 21.5347
37.3568 21.4105
37.404 21.3465
37.451 21.221
37.4982 21.3347
37.5452 21.0914
37.5924 21.0569
37.6395 21.0752
37.6867 21.0261
37.7337 20.7936
37.781 20.811
37.8281 20.7364
37.8753 20.6669
37.9224 20.6319
37.9697 20.5566
38.0168 20.4544
38.064 20.336
38.1111 20.2921
38.1584 20.2184
38.2056 20.2693
38.2529 20.1249
38.3 20.1132
38.3473 20.0696
38.3945 20.0188
38.4418 19.8655
38.489 19.8495
38.5363 19.7949
38.5837 19.7024
38.6309 19.6101
38.6782 19.5214
38.7254 19.5661
38.7728 19.4264
38.82 19.3558
38.8674 19.3527
38.9146 19.2368
38.9621 19.1626
39.0093 19.1762
39.0567 19.1109
39.104 19.0523
39.1514 18.97
39.1987 18.9979
39.2461 18.8846
39.2934 18.832
39.3409 18.7394
39.3882 18.6906
39.4356 18.6179
39.483 18.519
39.5304 18.5573
39.5778 18.4523
39.6253 18.3658
39.6726 18.3172
39.7201 18.2822
39.7675 18.2197
39.815 18.1343
39.8624 18.1098
39.9099 18.0405
39.9575 17.9753
40.0049 17.9371
40.0525 17.8158
40.0999 17.7962
40.1474 17.7256
40.1949 17.6859
40.2425 17.6257
40.2899 17.6163
40.3375 17.5043
40.385 17.4432
40.4326 17.4102
40.48 17.3282
40.5277 17.3489
40.5752 17.2796
40.6228 17.1439
40.6703 17.2186
40.718 17.0149
40.7655 17.0485
40.8132 16.9493
40.8607 16.9256
40.9084 16.9653
40.9559 16.8473
41.0036 16.832
41.0512 16.7321
41.0989 16.664
41.1465 16.6287
41.1942 16.5399
41.242 16.4855
41.2896 16.4363
41.3373 16.3608
41.3849 16.3793
41.4327 16.3257
41.4803 16.2201
41.5281 16.1573
41.5758 16.0982
41.6236 16.0826
41.6712 16.0027
41.7191 15.91
41.7667 15.8728
41.8146 15.8471
41.8622 15.7472
41.9101 15.8031
41.9578 15.6662
42.0057 15.6355
42.0534 15.5773
42.1013 15.5591
42.149 15.4127
42.1969 15.3904
42.2446 15.3734
42.2925 15.2836
42.3403 15.2955
42.3882 15.2629
42.436 15.2408
42.4839 15.1104
42.5319 15.0636
42.5797 14.9979
42.6277 14.9866
42.6755 14.9312
42.7235 14.8667
42.7713 14.81
42.8193 14.8101
42.8671 14.7253
42.9152 14.6817
42.963 14.6095
43.0111 14.5072
43.0589 14.5323
43.107 14.4623
43.1549 14.4208
43.2029 14.3389
43.2508 14.3393
43.2989 14.313
43.3468 14.1697
43.3949 14.15
43.4429 14.1269
43.491 14.0623
43.5389 14.0045
43.5871 13.973
43.635 13.9033
43.6832 13.8593
43.7312 13.8228
43.7793 13.7346
43.8273 13.7484
43.8755 13.6607
43.9237 13.6505
43.9717 13.5896
44.0199 13.548
44.068 13.4672
44.1162 13.4304
44.1642 13.3978
44.2125 13.4009
44.2606 13.2844
44.3088 13.2649
44.3569 13.2248
44.4052 13.2011
44.4533 13.12
44.5016 13.0873
44.5497 13.0834
44.598 12.9305
44.6461 12.9445
44.6945 12.883
44.7426 12.8566
44.791 12.7749
44.8391 12.7867
44.8875 12.6816
44.9357 12.6814
44.984 12.6347
45.0322 12.5669
45.0806 12.5409
45.1288 12.5068
45.1773 12.4338
45.2257 12.4439
45.2739 12.3486
45.3224 12.2864
45.3706 12.3013
45.4191 12.252
45.4673 12.1848
45.5158 12.1263
45.5641 12.1004
45.6126 12.0233
45.6609 12.03
45.7094 11.9453
45.7577 11.8984
45.8063 11.8607
45.8546 11.8098
45.9031 11.7958
45.9515 11.7363
46.0001 11.705
46.0484 11.6966
46.097 11.6153
46.1454 11.5994
46.194 11.5707
46.2424 11.5033
46.291 11.4635
46.3395 11.4096
46.3881 11.3883
46.4365 11.3626
46.4852 11.329
46.5337 11.2346
46.5823 11.2237
46.631 11.1583
46.6795 11.1566
46.7282 11.1126
46.7767 11.0461
46.8254 10.9906
46.8739 11.0066
46.9226 10.9099
46.9712 10.873
47.0199 10.8282
47.0685 10.807
47.1173 10.7546
47.1658 10.7259
47.2146 10.6967
47.2632 10.6317
47.312 10.6055
47.3606 10.5775
47.4095 10.4971
47.4581 10.4865
47.5069 10.4533
47.5556 10.4358
47.6044 10.3656
47.6531 10.3425
47.702 10.2812
47.7507 10.2713
47.7996 10.2365
47.8483 10.1796
47.8972 10.1713
47.9461 10.1087
47.9948 10.074
48.0438 10.0364
48.0925 10.0451
48.1415 9.95343
48.1902 9.94648
48.2392 9.96294
48.288 9.88564
48.337 9.84019
48.3858 9.8164
48.4348 9.73795
48.4837 9.71225
48.5327 9.6874
48.5815 9.66573
48.6306 9.64161
48.6795 9.61581
48.7285 9.53939
48.7774 9.50847
48.8265 9.48715
48.8754 9.43356
48.9245 9.43986
48.9734 9.35794
49.0226 9.37151
49.0715 9.29626
49.1206 9.22226
49.1696 9.21962
49.2188 9.18961
49.2679 9.16101
49.3169 9.11632
49.3661 9.07934
49.4151 9.04122
49.4643 9.05731
49.5134 8.96246
49.5626 8.91569
49.6117 8.90667
49.6609 8.91071
49.71 8.8293
49.7592 8.83218
49.8083 8.7638
49.8576 8.74873
49.9067 8.68065
49.956 8.70229
50.0052 8.65733
50.0545 8.65152
50.1036 8.57362
50.153 8.54154
50.2022 8.56057
50.2515 8.4924
50.3007 8.46203
50.3501 8.45369
50.3993 8.37219
50.4487 8.36177
50.498 8.3022
50.5474 8.28732
50.5966 8.27145
50.6461 8.23075
50.6955 8.18314
50.7448 8.15908
50.7943 8.13661
50.8436 8.09724
50.8931 8.06768
50.9424 8.02746
50.9919 7.98795
51.0413 7.9785
51.0908 7.93303
51.1402 7.94822
51.1897 7.89297
51.2391 7.82324
51.2887 7.84017
51.3381 7.76575
51.3877 7.76763
51.4371 7.70733
51.4867 7.6835
51.5362 7.67374
51.5858 7.60258
51.6353 7.57926
51.6849 7.54637
51.7344 7.50721
51.7841 7.52254
51.8336 7.47376
51.8833 7.43838
51.9328 7.39852
51.9826 7.35207
52.0323 7.3163
52.0818 7.3363
52.1316 7.29775
52.1812 7.24039
52.231 7.1743
52.2806 7.16363
52.3304 7.16983
52.38 7.18308
52.4298 7.08348
52.4794 7.02119
52.5293 7.04545
52.5789 7.02899
52.6288 6.99763
52.6785 6.9086
52.7284 6.95637
52.7781 6.89962
52.828 6.88352
52.8777 6.8612
52.9276 6.80786
52.9774 6.79001
53.0273 6.77585
53.0771 6.70744
53.1271 6.71083
53.1769 6.6541
53.2269 6.67172
53.2767 6.60441
53.3267 6.59221
53.3765 6.58222
53.4266 6.5444
53.4766 6.52226
53.5265 6.47402
53.5765 6.45054
53.6264 6.41213
53.6765 6.42347
53.7264 6.34441
53.7765 6.36303
53.8265 6.3307
53.8766 6.25696
53.9266 6.21634
53.9767 6.20807
54.0267 6.2262
54.0769 6.17854
54.1269 6.19699
54.1771 6.12102
54.2271 6.09139
54.2773 6.06037
54.3274 6.02782
54.3776 6.02143
54.4277 5.98501
54.478 5.88729
54.528 5.89726
54.5783 5.79876
54.6285 5.79886
54.6788 5.77004
54.7289 5.72079
54.7792 5.72941
54.8296 5.62948
54.8798 5.61948
54.9301 5.54915
54.9803 5.51113
55.0307 5.52861
55.0809 5.43113
55.1314 5.46726
55.1816 5.3632
55.232 5.34303
55.2823 5.29525
55.3328 5.21586
55.383 5.1652
55.4335 5.13522
55.4838 5.04721
55.5344 4.99966
55.5847 4.99611
55.6352 4.92146
55.6856 4.90285
55.7361 4.8614