File: XRD/Ni3Fe_FD0720.xy
TT I
1.27165 7.60657
1.31627 6.67338
1.36089 6.03797
1.40551 5.97125
1.45013 6.35215
1.49476 6.38626
1.53938 5.70371
1.584 4.9895
1.62863 5.77266
1.67325 5.1013
1.71787 5.51764
1.7625 5.17383
1.80712 5.01496
1.85174 5.02302
1.89636 4.65825
1.94099 4.95189
1.98562 5.14983
2.03025 4.71616
2.07487 4.92514
2.11949 4.73025
2.16411 5.21166
2.20874 11.8009
2.25338 16.1699
2.298 6.3395
2.34263 5.60084
2.38725 6.54534
2.43188 5.78401
2.4765 7.23815
2.52115 6.3119
2.56577 7.59271
2.6104 8.38753
2.65503 7.41743
2.69965 7.89292
2.7443 7.75505
2.78893 8.21593
2.83356 7.99371
2.87818 8.77344
2.92281 9.25511
2.96744 9.77087
3.01209 10.2882
3.05672 11.0323
3.10135 12.1026
3.14599 13.0216
3.19062 14.3159
3.23527 15.3758
3.2799 15.8001
3.32454 17.342
3.36917 17.5065
3.4138 18.5188
3.45844 19.5172
3.50309 21.0342
3.54773 21.9234
3.59237 23.682
3.637 68.765
3.68164 45.3331
3.7263 25.6716
3.77094 26.1974
3.81558 26.8386
3.86022 27.9606
3.90486 28.7143
3.9495 29.588
3.99416 30.6605
4.0388 32.1815
4.08344 33.5891
4.12809 34.5557
4.17273 36.4383
4.21738 41.5193
4.26204 177.632
4.30669 151.076
4.35133 46.3868
4.39598 44.2975
4.44063 51.5688
4.4853 58.2279
4.52995 52.4092
4.5746 53.2924
4.61925 53.559
4.6639 55.4422
4.70855 58.4962
4.75322 61.5967
4.79788 65.4891
4.84253 68.0213
4.88719 72.5688
4.93184 75.7443
4.97652 80.833
5.02118 87.7025
5.06583 94.9298
5.11049 106.554
5.15515 160.286
5.19981 362.202
5.24449 2977.97
5.28916 12649.6
5.33382 2844.94
5.37848 191.378
5.42315 129.089
5.46783 115.51
5.5125 108.315
5.55716 102.657
5.60183 98.7836
5.6465 97.0156
5.69117 94.2404
5.73586 92.7701
5.78053 93.374
5.8252 93.0104
5.86988 94.7603
5.91455 94.6968
5.95924 102.827
6.00392 218.357
6.0486 982.271
6.09328 4428.0
6.13795 3201.78
6.18263 232.905
6.22733 91.589
6.27201 81.8104
6.3167 92.0825
6.36138 76.8382
6.40606 69.2625
6.45075 68.0761
6.49545 65.5123
6.54014 63.5767
6.58483 62.4624
6.62952 62.6365
6.67421 83.3754
6.71892 111.875
6.76361 64.9334
6.8083 58.8835
6.853 57.8532
6.89769 56.8706
6.94239 56.4144
6.98711 55.8945
7.03181 55.4042
7.07651 54.889
7.12121 55.1433
7.16591 55.6162
7.21063 55.1664
7.25533 65.3596
7.30004 131.777
7.34475 77.3162
7.38945 55.8887
7.43416 54.2933
7.47889 53.989
7.5236 54.6303
7.56831 55.1249
7.61303 56.1224
7.65774 56.1031
7.70247 56.3723
7.74719 55.9291
7.79191 56.8667
7.83663 56.8299
7.88135 57.595
7.92607 58.5632
7.97081 59.9024
8.01553 60.6793
8.06026 62.0485
8.10498 64.2043
8.14971 71.2582
8.19446 71.0458
8.23919 69.155
8.28392 71.8201
8.32865 74.0737
8.37339 78.2718
8.41812 84.6652
8.46288 106.413
8.50761 169.079
8.55235 397.239
8.59709 1217.28
8.64183 2138.99
8.68658 941.525
8.73134 168.595
8.77609 98.9733
8.82083 92.5983
8.86558 90.387
8.91033 90.3315
8.9551 89.8167
8.99985 85.4567
9.04461 83.643
9.08936 83.1029
9.13412 82.4783
9.17888 82.5354
9.22365 82.6372
9.26841 82.2721
9.31318 83.1148
9.35794 84.1544
9.4027 83.9369
9.44749 84.4936
9.49226 84.6633
9.53703 85.641
9.5818 88.1095
9.62657 92.4201
9.67134 96.3107
9.71614 93.2004
9.76091 94.5357
9.80569 97.5005
9.85047 100.664
9.89525 117.502
9.94005 128.202
9.98484 181.662
10.0296 353.434
10.0744 846.314
10.1192 1731.48
10.164 1605.75
10.2088 408.92
10.2536 126.147
10.2984 111.266
10.3432 110.951
10.388 104.47
10.4328 120.163
10.4776 162.626
10.5224 291.807
10.5672 504.805
10.612 501.377
10.6568 205.302
10.7017 96.4712
10.7465 86.4573
10.7913 82.9678
10.8361 81.0531
10.8809 79.0255
10.9257 77.9212
10.9706 78.0627
11.0154 74.995
11.0602 72.7754
11.105 71.2661
11.1499 74.0899
11.1947 78.2018
11.2395 71.9974
11.2844 69.4778
11.3292 66.9568
11.374 66.1046
11.4189 65.6727
11.4637 64.6087
11.5086 65.1113
11.5534 66.5582
11.5983 64.7048
11.6431 63.3068
11.688 62.7401
11.7328 62.6202
11.7777 62.7141
11.8225 62.1054
11.8674 62.3032
11.9122 62.6615
11.9571 62.7539
12.002 63.5977
12.0468 68.2899
12.0917 79.049
12.1366 104.814
12.1814 154.805
12.2263 199.652
12.2712 162.022
12.3161 94.329
12.3609 68.6214
12.4058 64.2373
12.4507 64.2183
12.4956 64.2476
12.5405 64.5497
12.5853 65.3455
12.6302 70.2817
12.6751 73.6904
12.72 68.6664
12.7649 67.6015
12.8098 67.9668
12.8547 69.7495
12.8996 71.1446
12.9445 72.5959
12.9894 74.2436
13.0343 75.847
13.0792 78.9729
13.1242 89.373
13.1691 112.029
13.214 151.234
13.2589 246.911
13.3038 369.511
13.3487 409.395
13.3937 261.959
13.4386 126.216
13.4835 106.375
13.5285 121.499
13.5734 162.962
13.6183 254.542
13.6633 342.995
13.7082 326.677
13.7531 184.773
13.7981 97.7002
13.843 81.723
13.888 79.566
13.9329 77.02
13.9779 75.8703
14.0228 74.2843
14.0678 73.1555
14.1127 72.6076
14.1577 72.0333
14.2027 71.3772
14.2476 70.2191
14.2926 70.1028
14.3376 70.8401
14.3825 69.7698
14.4275 68.8243
14.4725 68.5919
14.5175 68.7409
14.5624 68.8509
14.6074 70.1948
14.6524 70.8527
14.6974 70.3859
14.7424 72.4079
14.7874 78.9286
14.8324 89.8129
14.8774 113.208
14.9224 157.139
14.9674 206.711
15.0124 213.762
15.0574 146.884
15.1024 90.6937
15.1474 72.2839
15.1924 70.3632
15.2374 70.2515
15.2824 69.1963
15.3274 67.7297
15.3725 66.8863
15.4175 66.259
15.4625 65.9923
15.5076 66.0625
15.5526 66.2391
15.5976 65.7423
15.6426 67.3825
15.6877 72.6509
15.7327 80.0788
15.7778 96.543
15.8228 129.525
15.8679 171.365
15.9129 188.867
15.958 153.919
16.003 96.586
16.0481 68.2102
16.0931 63.7112
16.1382 61.9466
16.1833 60.2097
16.2283 58.6702
16.2734 58.2359
16.3185 58.182
16.3636 58.3366
16.4086 57.1554
16.4537 56.0179
16.4988 55.2584
16.5439 55.2439
16.589 55.1313
16.6341 54.7196
16.6792 54.2191
16.7243 54.7217
16.7694 54.7426
16.8145 54.5653
16.8596 54.8587
16.9047 55.9811
16.9498 56.3403
16.9949 55.3985
17.04 55.661
17.0851 57.0855
17.1302 58.5486
17.1754 61.7862
17.2205 67.1805
17.2656 74.8115
17.3108 81.9515
17.3559 81.1504
17.401 71.0503
17.4462 61.9316
17.4913 59.1325
17.5365 58.9885
17.5815 59.145
17.6268 59.5126
17.6718 60.1901
17.7171 60.6727
17.7622 61.2726
17.8074 61.9919
17.8525 64.329
17.8977 68.3503
17.9428 73.7866
17.9881 83.3854
18.0331 101.503
18.0784 122.439
18.1237 137.503
18.1688 130.207
18.214 103.903
18.2591 87.6685
18.3044 91.3576
18.3495 99.7504
18.3948 104.304
18.4399 95.2039
18.4852 77.2302
18.5303 65.7714
18.5756 62.1163
18.6207 61.1149
18.666 60.2057
18.7112 59.5827
18.7565 58.8923
18.8016 58.5234
18.8469 58.003
18.892 57.547
18.9374 57.1443
18.9825 57.0156
19.0278 56.7129
19.073 56.6482
19.1183 57.3159
19.1635 57.8618
19.2088 59.3365
19.254 62.4467
19.2993 66.9304
19.3447 72.659
19.3898 75.3578
19.4352 71.0331
19.4804 63.0904
19.5257 56.631
19.5709 54.2448
19.6163 53.8126
19.6615 53.6621
19.7068 53.2395
19.752 53.386
19.7974 53.4953
19.8426 54.3554
19.888 54.7533
19.9332 56.1384
19.9786 59.1245
20.0238 62.8485
20.0692 67.0435
20.1144 69.1342
20.1598 67.816
20.205 63.5672
20.2504 62.7004
20.2957 63.633
20.3411 64.8706
20.3863 63.0726
20.4318 58.2623
20.477 53.5657
20.5224 51.4473
20.5677 50.7253
20.6131 50.382
20.6586 49.7144
20.7038 49.4876
20.7493 48.8561
20.7945 48.9232
20.84 48.6702
20.8853 48.6082
20.9307 48.6058
20.976 48.8902
21.0215 48.5201
21.0668 48.963
21.1122 49.4814
21.1575 50.1092
21.203 50.708
21.2483 51.2503
21.2938 51.3162
21.3391 49.9745
21.3846 48.8582
21.4299 48.3519
21.4754 48.3055
21.5207 48.5909
21.5662 48.8382
21.6116 49.2515
21.6571 49.7423
21.7024 50.8008
21.7479 52.6705
21.7933 55.6803
21.8388 59.198
21.8843 62.7254
21.9297 64.3311
21.9752 62.8322
22.0206 59.7263
22.0661 56.6246
22.1115 55.7874
22.157 55.5016
22.2024 53.9757
22.248 51.4854
22.2933 49.7195
22.3389 48.998
22.3843 49.0362
22.4299 48.7313
22.4753 48.6558
22.5208 48.5542
22.5662 48.6749
22.6118 48.6683
22.6572 48.8996
22.7028 49.2877
22.7483 49.6137
22.7939 50.463
22.8393 52.2312
22.8849 54.2818
22.9303 56.0395
22.9759 57.3418
23.0214 57.0246
23.067 54.3885
23.1126 51.1421
23.1581 49.198
23.2037 48.6121
23.2492 48.8747
23.2948 48.7034
23.3403 49.1897
23.3859 49.7538
23.4314 50.9001
23.477 52.7269
23.5225 54.9072
23.5682 56.851
23.6137 57.377
23.6593 55.2544
23.7048 51.4473
23.7505 48.1471
23.796 46.5374
23.8417 46.0262
23.8872 45.5272
23.9329 45.2372
23.9784 44.8061
24.0241 44.6379
24.0697 44.5537
24.1154 43.9918
24.1609 43.8041
24.2066 43.6867
24.2522 43.5948
24.2979 43.4957
24.3434 43.2309
24.3892 43.0296
24.4349 43.1269
24.4805 42.7881
24.5262 42.994
24.5718 42.8283
24.6175 42.8775
24.6631 42.7336
24.7089 42.5504
24.7545 42.301
24.8002 42.1474
24.8458 42.1327
24.8916 42.0666
24.9372 42.2669
24.983 42.4756
25.0286 42.845
25.0744 43.2684
25.12 43.6945
25.1658 44.2352
25.2114 44.5996
25.2572 44.7618
25.3029 44.8396
25.3487 44.8176
25.3943 44.4076
25.4402 43.3632
25.4858 42.4029
25.5316 41.4445
25.5773 41.0153
25.6231 40.8935
25.669 40.5138
25.7147 40.5234
25.7605 40.4142
25.8062 40.3296
25.8521 40.6022
25.8977 40.5422
25.9436 40.8336
25.9893 40.9928
26.0352 41.4588
26.0809 41.3876
26.1268 41.5988
26.1725 41.2829
26.2184 40.7741
26.2641 40.4854
26.31 40.1203
26.3557 40.1498
26.4017 39.9877
26.4474 40.3871
26.4933 40.7788
26.5391 41.2424
26.585 41.5119
26.6308 41.9371
26.6767 42.0329
26.7225 41.8041
26.7684 41.5815
26.8142 40.8433
26.8601 40.5043
26.9059 40.014
26.9519 39.5125
26.9979 39.1459
27.0437 38.7561
27.0896 38.5342
27.1354 38.5745
27.1814 38.5346
27.2272 38.4802
27.2732 38.4056
27.3191 38.3731
27.3651 38.4623
27.4109 38.4533
27.4569 38.4411
27.5027 38.4051
27.5488 38.405
27.5946 38.3308
27.6407 38.1556
27.6865 38.065
27.7326 37.7853
27.7784 37.8972
27.8245 37.8009
27.8703 37.9893
27.9164 38.258
27.9623 38.4635
28.0084 38.6449
28.0543 38.9621
28.1003 38.91
28.1462 38.8715
28.1923 38.3919
28.2384 37.8235
28.2843 37.5132
28.3304 37.0007
28.3764 36.6308
28.4225 36.3544
28.4684 36.2245
28.5145 35.8599
28.5605 35.8693
28.6066 35.5626
28.6526 35.561
28.6987 35.5726
28.7447 35.5005
28.7908 35.4561
28.8368 35.435
28.8829 35.4384
28.9289 35.2712
28.9751 35.1143
29.0211 35.0305
29.0673 34.6522
29.1133 34.5606
29.1595 34.4188
29.2055 34.4397
29.2517 34.2908
29.2977 34.259
29.3439 34.2721
29.3899 34.1952
29.4361 34.0406
29.4824 33.9244
29.5284 33.6805
29.5746 33.3085
29.6207 33.1001
29.6669 33.0582
29.713 32.9319
29.7593 32.8054
29.8053 32.8861
29.8516 32.7374
29.8977 32.672
29.9439 32.5721
29.99 32.5264
30.0363 32.4999
30.0824 32.4583
30.1287 32.44
30.1748 32.3898
30.2211 32.4164
30.2673 32.2372
30.3136 32.4034
30.3597 32.2278
30.406 32.1955
30.4522 32.071
30.4985 32.0652
30.5447 32.0612
30.591 32.0834
30.6372 32.1208
30.6835 31.9649
30.7297 32.1069
30.7761 32.0733
30.8224 31.8462
30.8686 31.7709
30.915 31.6141
30.9612 31.4122
31.0076 31.2047
31.0538 31.1779
31.1002 31.1345
31.1464 30.8759
31.1928 30.8912
31.2391 30.969
31.2855 30.8446
31.3317 30.868
31.3781 30.9366
31.4244 30.7788
31.4708 30.6636
31.5171 30.7102
31.5636 30.7781
31.6098 30.4902
31.6563 30.3407
31.7026 30.1955
31.7491 30.0504
31.7953 30.1379
31.8418 30.1002
31.8881 30.0923
31.9346 30.0898
31.9809 29.98
32.0275 29.8755
32.074 29.8038
32.1203 29.6012
32.1668 29.5323
32.2132 29.3357
32.2597 29.1778
32.306 29.1742
32.3526 29.0145
32.399 28.8629
32.4455 28.7679
32.4919 28.5749
32.5385 28.669
32.5848 28.4261
32.6314 28.4171
32.6778 28.4593
32.7244 28.2133
32.7708 28.0599
32.8174 28.1694
32.8638 27.9351
32.9104 28.0559
32.9569 28.001
33.0035 27.9265
33.0499 27.8409
33.0966 27.712
33.143 27.7402
33.1897 27.6156
33.2361 27.5448
33.2828 27.5251
33.3293 27.2206
33.3759 27.3027
33.4226 27.1899
33.4691 27.0461
33.5158 26.9683
33.5623 26.8761
33.609 26.6742
33.6555 26.7037
33.7022 26.5532
33.7487 26.4627
33.7954 26.4353
33.842 26.3909
33.8887 26.2255
33.9353 26.1962
33.982 26.0893
34.0286 26.027
34.0753 25.9833
34.1219 25.9087
34.1687 25.8125
34.2152 25.7175
34.262 25.5799
34.3086 25.5254
34.3554 25.4465
34.402 25.3985
34.4488 25.2465
34.4954 25.1895
34.5422 25.1842
34.5889 24.9451
34.6357 24.9318
34.6825 24.9
34.7292 24.8278
34.776 24.6943
34.8227 24.6677
34.8695 24.6243
34.9162 24.5763
34.9631 24.4039
35.0098 24.4241
35.0566 24.2383
35.1033 24.2891
35.1502 24.2151
35.1969 24.2332
35.2438 24.1197
35.2906 24.0181
35.3375 23.9218
35.3842 23.9152
35.4311 23.9078
35.4779 23.8495
35.5248 23.8611
35.5716 23.7256
35.6185 23.6366
35.6653 23.5418
35.7123 23.4815
35.759 23.4658
35.806 23.3509
35.8528 23.2367
35.8998 23.1856
35.9468 23.1182
35.9936 23.1046
36.0406 23.0075
36.0874 22.9402
36.1345 22.882
36.1813 22.7387
36.2283 22.7232
36.2752 22.5802
36.3222 22.5973
36.3691 22.5382
36.4161 22.4669
36.463 22.3666
36.5101 22.3748
36.557 22.3388
36.6041 22.1727
36.651 22.0817
36.6981 22.0292
36.745 22.0209
36.7921 21.9044
36.839 21.928
36.8861 21.8024
36.9331 21.7255
36.9802 21.6824
37.0272 21.5168
37.0743 21.4597
37.1213 21.4066
37.1684 21.4221
37.2154 21.3155
37.2626 21.2286
37.3098 21.1625
37.3568 21.1458
37.404 21.0934
37.451 20.9737
37.4982 20.8639
37.5452 20.7616
37.5924 20.7507
37.6395 20.7453
37.6867 20.6466
37.7337 20.5694
37.781 20.5048
37.8281 20.4744
37.8753 20.3481
37.9224 20.2824
37.9697 20.2359
38.0168 20.1213
38.064 20.138
38.1111 20.0773
38.1584 19.9897
38.2056 19.9409
38.2529 19.9033
38.3 19.8088
38.3473 19.7582
38.3945 19.6317
38.4418 19.6333
38.489 19.5428
38.5363 19.466
38.5837 19.4171
38.6309 19.3624
38.6782 19.3657
38.7254 19.1895
38.7728 19.1573
38.82 19.0959
38.8674 19.0815
38.9146 18.9632
38.9621 18.9664
39.0093 18.8679
39.0567 18.7979
39.104 18.7952
39.1514 18.6671
39.1987 18.6214
39.2461 18.5463
39.2934 18.5724
39.3409 18.4199
39.3882 18.3454
39.4356 18.3379
39.483 18.2471
39.5304 18.1779
39.5778 18.2483
39.6253 18.1138
39.6726 18.0371
39.7201 18.0006
39.7675 17.9702
39.815 17.9144
39.8624 17.8466
39.9099 17.8506
39.9575 17.6815
40.0049 17.68
40.0525 17.6023
40.0999 17.5311
40.1474 17.5174
40.1949 17.4106
40.2425 17.3464
40.2899 17.3176
40.3375 17.282
40.385 17.2334
40.4326 17.1949
40.48 17.0675
40.5277 17.1
40.5752 17.0031
40.6228 16.9146
40.6703 16.864
40.718 16.921
40.7655 16.8097
40.8132 16.7468
40.8607 16.7117
40.9084 16.6208
40.9559 16.5707
41.0036 16.5456
41.0512 16.4888
41.0989 16.4667
41.1465 16.3744
41.1942 16.2689
41.242 16.2208
41.2896 16.1458
41.3373 16.1344
41.3849 16.0495
41.4327 16.0465
41.4803 15.9861
41.5281 15.9235
41.5758 15.8853
41.6236 15.8048
41.6712 15.7735
41.7191 15.6368
41.7667 15.6539
41.8146 15.6022
41.8622 15.5391
41.9101 15.5435
41.9578 15.3814
42.0057 15.347
42.0534 15.3917
42.1013 15.3602
42.149 15.2232
42.1969 15.1507
42.2446 15.1633
42.2925 15.1208
42.3403 15.051
42.3882 15.0276
42.436 14.9813
42.4839 14.9069
42.5319 14.8533
42.5797 14.8044
42.6277 14.7625
42.6755 14.7206
42.7235 14.6059
42.7713 14.6767
42.8193 14.559
42.8671 14.5337
42.9152 14.4303
42.963 14.3908
43.0111 14.3565
43.0589 14.307
43.107 14.237
43.1549 14.1983
43.2029 14.1182
43.2508 14.1209
43.2989 14.0713
43.3468 14.0207
43.3949 13.9692
43.4429 13.9437
43.491 13.8152
43.5389 13.7882
43.5871 13.7967
43.635 13.696
43.6832 13.6704
43.7312 13.5902
43.7793 13.6043
43.8273 13.5476
43.8755 13.4291
43.9237 13.4306
43.9717 13.4116
44.0199 13.3889
44.068 13.33
44.1162 13.2421
44.1642 13.2265
44.2125 13.1803
44.2606 13.1401
44.3088 13.0636
44.3569 13.0255
44.4052 12.9752
44.4533 12.9429
44.5016 12.8663
44.5497 12.8052
44.598 12.8273
44.6461 12.7917
44.6945 12.6877
44.7426 12.6814
44.791 12.6262
44.8391 12.5783
44.8875 12.5701
44.9357 12.499
44.984 12.429
45.0322 12.3537
45.0806 12.3399
45.1288 12.3113
45.1773 12.2244
45.2257 12.1973
45.2739 12.1648
45.3224 12.1189
45.3706 12.0783
45.4191 12.0204
45.4673 12.0222
45.5158 11.9751
45.5641 11.8951
45.6126 11.9023
45.6609 11.8326
45.7094 11.7857
45.7577 11.7706
45.8063 11.7318
45.8546 11.6654
45.9031 11.6045
45.9515 11.5871
46.0001 11.5612
46.0484 11.4884
46.097 11.4932
46.1454 11.4336
46.194 11.397
46.2424 11.3598
46.291 11.2693
46.3395 11.258
46.3881 11.2112
46.4365 11.2158
46.4852 11.1379
46.5337 11.0493
46.5823 11.0506
46.631 10.9872
46.6795 10.9658
46.7282 10.97
46.7767 10.8896
46.8254 10.8411
46.8739 10.7974
46.9226 10.766
46.9712 10.7478
47.0199 10.6646
47.0685 10.6754
47.1173 10.6434
47.1658 10.5687
47.2146 10.5343
47.2632 10.4715
47.312 10.441
47.3606 10.4391
47.4095 10.4289
47.4581 10.3122
47.5069 10.2902
47.5556 10.2446
47.6044 10.2135
47.6531 10.1612
47.702 10.1078
47.7507 10.1059
47.7996 10.029
47.8483 10.0387
47.8972 10.0124
47.9461 9.98409
47.9948 9.9152
48.0438 9.89454
48.0925 9.87465
48.1415 9.81327
48.1902 9.76058
48.2392 9.78307
48.288 9.73029
48.337 9.67193
48.3858 9.61142
48.4348 9.61315
48.4837 9.59185
48.5327 9.5801
48.5815 9.50489
48.6306 9.48536
48.6795 9.47786
48.7285 9.41756
48.7774 9.35985
48.8265 9.34019
48.8754 9.3038
48.9245 9.28259
48.9734 9.23334
49.0226 9.20291
49.0715 9.15384
49.1206 9.09969
49.1696 9.0746
49.2188 9.06207
49.2679 9.01758
49.3169 8.97797
49.3661 8.92474
49.4151 8.91558
49.4643 8.87326
49.5134 8.90734
49.5626 8.77264
49.6117 8.76945
49.6609 8.78399
49.71 8.6869
49.7592 8.65717
49.8083 8.62612
49.8576 8.63085
49.9067 8.55075
49.956 8.56261
50.0052 8.52004
50.0545 8.48485
50.1036 8.44343
50.153 8.41711
50.2022 8.38824
50.2515 8.33372
50.3007 8.28125
50.3501 8.27896
50.3993 8.278
50.4487 8.2157
50.498 8.23065
50.5474 8.16929
50.5966 8.12138
50.6461 8.11488
50.6955 8.06827
50.7448 8.02741
50.7943 8.01093
50.8436 7.98404
50.8931 7.96059
50.9424 7.91076
50.9919 7.87
51.0413 7.85409
51.0908 7.83309
51.1402 7.77974
51.1897 7.73913
51.2391 7.75444
51.2887 7.69948
51.3381 7.6201
51.3877 7.63487
51.4371 7.59579
51.4867 7.53844
51.5362 7.51479
51.5858 7.51004
51.6353 7.46977
51.6849 7.42671
51.7344 7.40962
51.7841 7.41709
51.8336 7.32043
51.8833 7.31957
51.9328 7.28302
51.9826 7.25436
52.0323 7.26164
52.0818 7.20699
52.1316 7.13425
52.1812 7.14398
52.231 7.10157
52.2806 7.10812
52.3304 7.05057
52.38 7.00052
52.4298 7.00223
52.4794 6.92707
52.5293 6.96506
52.5789 6.92123
52.6288 6.87469
52.6785 6.83405
52.7284 6.85727
52.7781 6.82048
52.828 6.79
52.8777 6.7186
52.9276 6.73651
52.9774 6.73492
53.0273 6.64794
53.0771 6.62754
53.1271 6.58662
53.1769 6.58906
53.2269 6.56751
53.2767 6.51036
53.3267 6.49365
53.3765 6.47378
53.4266 6.46342
53.4766 6.39195
53.5265 6.35974
53.5765 6.38193
53.6264 6.31062
53.6765 6.33453
53.7264 6.23767
53.7765 6.25034
53.8265 6.21432
53.8766 6.19087
53.9266 6.15982
53.9767 6.12341
54.0267 6.13943
54.0769 6.05647
54.1269 6.04064
54.1771 6.00303
54.2271 5.96968
54.2773 5.96091
54.3274 5.92316
54.3776 5.89919
54.4277 5.89349
54.478 5.86164
54.528 5.86485
54.5783 5.74448
54.6285 5.75561
54.6788 5.69517
54.7289 5.62114
54.7792 5.54272
54.8296 5.56907
54.8798 5.48315
54.9301 5.52991
54.9803 5.44516
55.0307 5.44159
55.0809 5.39478
55.1314 5.31759
55.1816 5.2807
55.232 5.26227
55.2823 5.19776
55.3328 5.15844
55.383 5.13209
55.4335 5.07025
55.4838 4.97668
55.5344 4.9379
55.5847 4.9151
55.6352 4.92746
55.6856 4.86984
55.7361 4.79858