File: XRD/Ni3Fe_FD0003.xy
TT I
1.27165 35.8514
1.31627 36.3128
1.36089 34.8944
1.40551 33.0693
1.45013 31.9316
1.49476 31.9443
1.53938 30.3501
1.584 29.2274
1.62863 27.9756
1.67325 27.7971
1.71787 27.2327
1.7625 26.0437
1.80712 25.9374
1.85174 26.0083
1.89636 24.6788
1.94099 26.0463
1.98562 25.2958
2.03025 25.8521
2.07487 25.3632
2.11949 25.4664
2.16411 25.9846
2.20874 26.7827
2.25338 25.7435
2.298 26.1557
2.34263 26.691
2.38725 26.102
2.43188 25.9523
2.4765 26.101
2.52115 25.7679
2.56577 26.6466
2.6104 27.5231
2.65503 28.6557
2.69965 29.4655
2.7443 31.4412
2.78893 33.518
2.83356 36.502
2.87818 39.9854
2.92281 43.9935
2.96744 49.6297
3.01209 57.3193
3.05672 65.3667
3.10135 76.3004
3.14599 84.5888
3.19062 86.4589
3.23527 81.8167
3.2799 72.0941
3.32454 60.8978
3.36917 52.0913
3.4138 46.0633
3.45844 42.5198
3.50309 40.4456
3.54773 39.3012
3.59237 39.588
3.637 41.1263
3.68164 41.5375
3.7263 41.7182
3.77094 41.7888
3.81558 42.2822
3.86022 42.4937
3.90486 42.4298
3.9495 43.6105
3.99416 45.2274
4.0388 47.6517
4.08344 50.8146
4.12809 54.046
4.17273 59.3426
4.21738 66.3461
4.26204 72.4007
4.30669 77.4469
4.35133 79.7854
4.39598 76.6932
4.44063 73.2267
4.4853 69.6731
4.52995 65.2859
4.5746 60.9172
4.61925 57.9236
4.6639 55.6711
4.70855 55.1589
4.75322 55.5741
4.79788 57.1833
4.84253 60.0413
4.88719 64.158
4.93184 68.8336
4.97652 77.2628
5.02118 90.196
5.06583 112.921
5.11049 134.219
5.15515 170.252
5.19981 246.068
5.24449 465.696
5.28916 958.788
5.33382 2454.65
5.37848 4182.12
5.42315 1670.15
5.46783 455.718
5.5125 238.516
5.55716 165.897
5.60183 129.605
5.6465 113.219
5.69117 104.706
5.73586 98.8797
5.78053 94.0847
5.8252 92.9075
5.86988 96.7817
5.91455 105.414
5.95924 120.443
6.00392 154.556
6.0486 231.284
6.09328 389.467
6.13795 658.695
6.18263 1226.97
6.22733 961.541
6.27201 395.12
6.3167 192.715
6.36138 117.968
6.40606 87.8885
6.45075 73.4353
6.49545 65.1074
6.54014 59.6343
6.58483 56.291
6.62952 54.2537
6.67421 52.65
6.71892 52.0899
6.76361 51.9566
6.8083 51.288
6.853 50.6517
6.89769 50.0914
6.94239 48.8847
6.98711 47.7357
7.03181 47.9298
7.07651 48.2027
7.12121 49.4457
7.16591 51.4244
7.21063 53.169
7.25533 56.8512
7.30004 63.0117
7.34475 69.2336
7.38945 72.1239
7.43416 68.5789
7.47889 63.517
7.5236 63.7063
7.56831 85.9887
7.61303 167.117
7.65774 111.651
7.70247 53.7607
7.74719 44.1129
7.79191 41.2133
7.83663 39.4374
7.88135 39.0569
7.92607 38.3213
7.97081 38.5675
8.01553 38.61
8.06026 39.0916
8.10498 39.898
8.14971 40.4314
8.19446 41.5013
8.23919 43.2752
8.28392 44.9353
8.32865 46.785
8.37339 49.4392
8.41812 53.4953
8.46288 60.0158
8.50761 69.9698
8.55235 89.3685
8.59709 135.3
8.64183 191.476
8.68658 287.549
8.73134 586.195
8.77609 795.63
8.82083 416.117
8.86558 176.728
8.91033 108.621
8.9551 82.2158
8.99985 71.4168
9.04461 64.6634
9.08936 60.1412
9.13412 57.5016
9.17888 57.5426
9.22365 61.6558
9.26841 92.1057
9.31318 226.066
9.35794 225.818
9.4027 87.0134
9.44749 56.4968
9.49226 50.7693
9.53703 48.1452
9.5818 47.9373
9.62657 47.5957
9.67134 48.3816
9.71614 49.1484
9.76091 50.0737
9.80569 51.5943
9.85047 53.8915
9.89525 56.733
9.94005 61.4747
9.98484 68.9068
10.0296 83.7887
10.0744 114.709
10.1192 162.092
10.164 203.176
10.2088 344.078
10.2536 700.049
10.2984 776.141
10.3432 388.375
10.388 169.611
10.4328 106.392
10.4776 84.5498
10.5224 80.4692
10.5672 86.8819
10.612 91.7812
10.6568 117.135
10.7017 214.541
10.7465 306.072
10.7913 214.781
10.8361 99.779
10.8809 59.5351
10.9257 48.7391
10.9706 44.7294
11.0154 42.5984
11.0602 41.3055
11.105 40.4544
11.1499 39.5225
11.1947 39.541
11.2395 38.9282
11.2844 39.0718
11.3292 38.7564
11.374 38.6456
11.4189 38.1945
11.4637 37.5376
11.5086 36.9503
11.5534 36.9396
11.5983 36.5245
11.6431 36.6433
11.688 36.5444
11.7328 36.5037
11.7777 36.1005
11.8225 36.18
11.8674 36.5878
11.9122 37.7084
11.9571 41.4244
12.002 58.897
12.0468 94.624
12.0917 83.0875
12.1366 50.9926
12.1814 45.2329
12.2263 46.7139
12.2712 50.1696
12.3161 60.0837
12.3609 82.4749
12.4058 99.3767
12.4507 81.6844
12.4956 58.1848
12.5405 46.8602
12.5853 42.1899
12.6302 39.702
12.6751 38.6961
12.72 38.4439
12.7649 38.7603
12.8098 38.496
12.8547 38.4559
12.8996 38.2612
12.9445 38.1109
12.9894 38.3139
13.0343 38.5866
13.0792 39.9844
13.1242 41.7575
13.1691 50.0998
13.214 60.4646
13.2589 61.0536
13.3038 63.9487
13.3487 69.0229
13.3937 79.4021
13.4386 111.175
13.4835 184.882
13.5285 238.875
13.5734 178.772
13.6183 110.739
13.6633 87.2096
13.7082 79.51
13.7531 85.1333
13.7981 118.873
13.843 194.377
13.888 219.448
13.9329 137.293
13.9779 76.9664
14.0228 54.9491
14.0678 46.1669
14.1127 43.0039
14.1577 43.367
14.2027 52.2678
14.2476 80.2022
14.2926 89.4995
14.3376 57.8632
14.3825 40.6375
14.4275 36.8855
14.4725 35.7699
14.5175 35.0365
14.5624 34.6023
14.6074 34.6601
14.6524 34.4151
14.6974 34.9303
14.7424 35.4099
14.7874 35.7749
14.8324 37.0344
14.8774 38.8837
14.9224 42.7509
14.9674 46.5755
15.0124 48.6406
15.0574 52.8551
15.1024 65.1507
15.1474 95.389
15.1924 133.604
15.2374 126.376
15.2824 84.9613
15.3274 57.1579
15.3725 45.7073
15.4175 40.9849
15.4625 38.6658
15.5076 37.2546
15.5526 36.6294
15.5976 36.2464
15.6426 35.9063
15.6877 36.2912
15.7327 36.6746
15.7778 37.9993
15.8228 40.9073
15.8679 44.5151
15.9129 46.4942
15.958 49.4187
16.003 56.8847
16.0481 76.5369
16.0931 113.311
16.1382 140.846
16.1833 121.299
16.2283 81.567
16.2734 53.3059
16.3185 41.9043
16.3636 37.053
16.4086 34.3824
16.4537 33.0691
16.4988 32.1919
16.5439 31.5559
16.589 31.0158
16.6341 30.4739
16.6792 30.0392
16.7243 29.9646
16.7694 29.8366
16.8145 29.8418
16.8596 29.7723
16.9047 30.1847
16.9498 30.3217
16.9949 32.4006
17.04 36.8982
17.0851 40.1628
17.1302 36.1688
17.1754 32.3517
17.2205 31.533
17.2656 31.8736
17.3108 32.7361
17.3559 32.7723
17.401 33.4981
17.4462 35.6519
17.4913 40.628
17.5365 49.0093
17.5815 53.2632
17.6268 46.7583
17.6718 38.6866
17.7171 34.4148
17.7622 33.4256
17.8074 33.557
17.8525 35.818
17.8977 40.5029
17.9428 41.7852
17.9881 38.0864
18.0331 37.7693
18.0784 39.7518
18.1237 41.3458
18.1688 42.4429
18.214 45.7457
18.2591 53.752
18.3044 72.6243
18.3495 101.203
18.3948 113.617
18.4399 90.6636
18.4852 65.2526
18.5303 57.7281
18.5756 62.976
18.6207 77.4232
18.666 80.6601
18.7112 66.766
18.7565 50.7918
18.8016 40.5589
18.8469 35.9619
18.892 34.0447
18.9374 32.7692
18.9825 32.0704
19.0278 31.6601
19.073 31.4541
19.1183 31.1739
19.1635 31.0987
19.2088 31.2903
19.254 31.7056
19.2993 32.7459
19.3447 33.679
19.3898 35.8969
19.4352 41.67
19.4804 48.7973
19.5257 49.2698
19.5709 45.8379
19.6163 48.9385
19.6615 51.8658
19.7068 47.4488
19.752 39.8462
19.7974 34.8696
19.8426 32.4327
19.888 31.1427
19.9332 30.493
19.9786 30.5015
20.0238 30.67
20.0692 30.9177
20.1144 31.0451
20.1598 31.3585
20.205 32.0311
20.2504 34.2132
20.2957 37.8765
20.3411 43.9761
20.3863 49.5804
20.4318 47.9792
20.477 42.0677
20.5224 39.3581
20.5677 42.2751
20.6131 46.8679
20.6586 45.7106
20.7038 39.2887
20.7493 33.3776
20.7945 30.831
20.84 30.2539
20.8853 31.3934
20.9307 33.5373
20.976 33.4588
21.0215 30.1956
21.0668 28.143
21.1122 27.4039
21.1575 27.1897
21.203 27.0782
21.2483 27.133
21.2938 27.0378
21.3391 26.9601
21.3846 27.1374
21.4299 27.7103
21.4754 29.0826
21.5207 31.108
21.5662 32.4768
21.6116 32.0423
21.6571 30.3294
21.7024 29.0208
21.7479 28.3938
21.7933 28.4411
21.8388 28.927
21.8843 29.5489
21.9297 29.8925
21.9752 30.3887
22.0206 31.6002
22.0661 33.526
22.1115 36.8746
22.157 42.8576
22.2024 50.7337
22.248 54.1983
22.2933 51.117
22.3389 45.6442
22.3843 42.509
22.4299 41.47
22.4753 40.0717
22.5208 36.1531
22.5662 32.4098
22.6118 30.3705
22.6572 29.1997
22.7028 28.9121
22.7483 28.4809
22.7939 28.2537
22.8393 28.6863
22.8849 29.6435
22.9303 30.909
22.9759 31.8224
23.0214 31.2118
23.067 30.445
23.1126 30.6381
23.1581 31.9065
23.2037 34.9965
23.2492 40.6367
23.2948 45.7722
23.3403 45.1492
23.3859 39.4157
23.4314 34.4174
23.477 32.362
23.5225 32.553
23.5682 34.112
23.6137 35.3995
23.6593 34.3013
23.7048 32.4137
23.7505 32.6165
23.796 34.3809
23.8417 38.7533
23.8872 45.1317
23.9329 49.3376
23.9784 46.1355
24.0241 38.4623
24.0697 32.8222
24.1154 29.8658
24.1609 28.8004
24.2066 28.3202
24.2522 27.9032
24.2979 26.8627
24.3434 26.0361
24.3892 25.6216
24.4349 25.4517
24.4805 25.2229
24.5262 25.1913
24.5718 24.9599
24.6175 25.0203
24.6631 25.0762
24.7089 25.1558
24.7545 25.6994
24.8002 26.811
24.8458 27.5971
24.8916 27.2155
24.9372 26.352
24.983 25.9393
25.0286 25.3178
25.0744 25.1215
25.12 24.9919
25.1658 25.0346
25.2114 25.1044
25.2572 25.3542
25.3029 25.8254
25.3487 26.4865
25.3943 27.5704
25.4402 28.7065
25.4858 30.2976
25.5316 31.2104
25.5773 31.2168
25.6231 31.4722
25.669 32.8083
25.7147 34.3035
25.7605 32.963
25.8062 30.0236
25.8521 27.6565
25.8977 26.4367
25.9436 26.3032
25.9893 26.459
26.0352 26.5789
26.0809 25.7477
26.1268 25.0433
26.1725 24.9031
26.2184 24.7711
26.2641 24.9774
26.31 25.3675
26.3557 26.2225
26.4017 27.5682
26.4474 29.2415
26.4933 29.8055
26.5391 28.8361
26.585 27.2067
26.6308 26.2536
26.6767 25.5941
26.7225 25.4017
26.7684 25.5267
26.8142 25.6283
26.8601 26.2359
26.9059 27.3157
26.9519 29.0336
26.9979 31.6506
27.0437 33.0776
27.0896 33.0729
27.1354 32.0067
27.1814 30.7875
27.2272 29.1928
27.2732 27.5589
27.3191 25.8914
27.3651 24.7514
27.4109 24.2052
27.4569 23.9956
27.5027 23.717
27.5488 23.6969
27.5946 23.6117
27.6407 23.8494
27.6865 23.9748
27.7326 23.9395
27.7784 24.1439
27.8245 24.3318
27.8703 25.0321
27.9164 25.7904
27.9623 25.8634
28.0084 25.2658
28.0543 24.8474
28.1003 24.7205
28.1462 25.1503
28.1923 25.8363
28.2384 26.2248
28.2843 26.2944
28.3304 26.4187
28.3764 27.6757
28.4225 29.716
28.4684 31.0057
28.5145 30.4195
28.5605 29.2046
28.6066 28.4107
28.6526 27.96
28.6987 27.0406
28.7447 25.6331
28.7908 24.4143
28.8368 23.5356
28.8829 22.9463
28.9289 22.4809
28.9751 22.2789
29.0211 22.1308
29.0673 21.9071
29.1133 21.9399
29.1595 22.0968
29.2055 22.4339
29.2517 22.8889
29.2977 23.2856
29.3439 23.3431
29.3899 22.7957
29.4361 22.2581
29.4824 21.6671
29.5284 21.4667
29.5746 21.2989
29.6207 21.3763
29.6669 21.6106
29.713 21.9506
29.7593 22.5114
29.8053 23.1076
29.8516 23.1179
29.8977 22.6226
29.9439 21.7653
29.99 21.1382
30.0363 20.8678
30.0824 20.7071
30.1287 20.5942
30.1748 20.6885
30.2211 21.0655
30.2673 21.3256
30.3136 21.4107
30.3597 20.9774
30.406 20.6905
30.4522 20.5096
30.4985 20.5811
30.5447 20.799
30.591 21.0718
30.6372 21.547
30.6835 21.5373
30.7297 21.3008
30.7761 20.9951
30.8224 20.8282
30.8686 20.693
30.915 20.7375
30.9612 21.0476
31.0076 21.4585
31.0538 22.2265
31.1002 23.2817
31.1464 23.9593
31.1928 24.2712
31.2391 23.8882
31.2855 23.3623
31.3317 22.6229
31.3781 21.8037
31.4244 21.0874
31.4708 20.5995
31.5171 20.3874
31.5636 20.2281
31.6098 20.1347
31.6563 20.2077
31.7026 20.4582
31.7491 20.712
31.7953 20.9675
31.8418 21.3673
31.8881 21.9179
31.9346 22.3495
31.9809 22.2202
32.0275 21.4699
32.074 20.8822
32.1203 20.3925
32.1668 20.3655
32.2132 20.4982
32.2597 20.6033
32.306 20.9713
32.3526 21.3166
32.399 21.7195
32.4455 21.7525
32.4919 21.3465
32.5385 20.869
32.5848 20.3705
32.6314 20.0506
32.6778 19.6202
32.7244 19.2015
32.7708 18.8649
32.8174 18.7368
32.8638 18.4081
32.9104 18.5369
32.9569 18.4432
33.0035 18.3472
33.0499 18.4623
33.0966 18.5561
33.143 18.816
33.1897 18.7684
33.2361 18.5773
33.2828 18.3526
33.3293 18.1597
33.3759 18.1987
33.4226 18.1625
33.4691 18.3884
33.5158 18.5294
33.5623 18.878
33.609 19.2472
33.6555 19.5664
33.7022 19.6522
33.7487 19.6968
33.7954 19.6045
33.842 19.2213
33.8887 18.6138
33.9353 18.2125
33.982 17.824
34.0286 17.7403
34.0753 17.6679
34.1219 17.5949
34.1687 17.485
34.2152 17.5067
34.262 17.4502
34.3086 17.5495
34.3554 17.7615
34.402 17.7128
34.4488 17.5675
34.4954 17.2746
34.5422 17.0412
34.5889 16.9705
34.6357 16.8608
34.6825 16.9503
34.7292 16.9859
34.776 17.0714
34.8227 17.1975
34.8695 17.076
34.9162 16.9049
34.9631 16.6403
35.0098 16.5264
35.0566 16.3061
35.1033 16.2484
35.1502 16.1904
35.1969 16.0748
35.2438 16.055
35.2906 16.1131
35.3375 16.1385
35.3842 16.1988
35.4311 16.245
35.4779 16.2685
35.5248 16.1386
35.5716 16.0997
35.6185 16.2514
35.6653 16.1717
35.7123 16.2331
35.759 16.4002
35.806 16.6834
35.8528 16.8319
35.8998 17.2194
35.9468 17.4705
35.9936 17.5431
36.0406 17.302
36.0874 17.0487
36.1345 16.6502
36.1813 16.4008
36.2283 16.0728
36.2752 15.8552
36.3222 15.7206
36.3691 15.6437
36.4161 15.5939
36.463 15.5148
36.5101 15.5723
36.557 15.5848
36.6041 15.6693
36.651 15.8718
36.6981 15.8422
36.745 15.7668
36.7921 15.563
36.839 15.3171
36.8861 15.2521
36.9331 15.2947
36.9802 15.3664
37.0272 15.4238
37.0743 15.4991
37.1213 15.5579
37.1684 15.4826
37.2154 15.3823
37.2626 15.1499
37.3098 14.9947
37.3568 14.7873
37.404 14.6861
37.451 14.6052
37.4982 14.556
37.5452 14.5463
37.5924 14.4372
37.6395 14.4534
37.6867 14.4063
37.7337 14.3717
37.781 14.3085
37.8281 14.2521
37.8753 14.1868
37.9224 14.0669
37.9697 14.1095
38.0168 13.998
38.064 14.0421
38.1111 14.0809
38.1584 14.0637
38.2056 14.1926
38.2529 14.1062
38.3 14.0873
38.3473 13.9571
38.3945 13.7922
38.4418 13.7249
38.489 13.5726
38.5363 13.5322
38.5837 13.4418
38.6309 13.4081
38.6782 13.4244
38.7254 13.468
38.7728 13.4867
38.82 13.6075
38.8674 13.5808
38.9146 13.4758
38.9621 13.4005
39.0093 13.2605
39.0567 13.2474
39.104 13.2486
39.1514 13.2712
39.1987 13.3378
39.2461 13.3692
39.2934 13.2817
39.3409 13.0882
39.3882 12.9491
39.4356 12.8663
39.483 12.7758
39.5304 12.707
39.5778 12.6872
39.6253 12.6167
39.6726 12.5812
39.7201 12.5561
39.7675 12.5499
39.815 12.4501
39.8624 12.4441
39.9099 12.4872
39.9575 12.4517
40.0049 12.3724
40.0525 12.3438
40.0999 12.3202
40.1474 12.2731
40.1949 12.3037
40.2425 12.2899
40.2899 12.3662
40.3375 12.4015
40.385 12.4553
40.4326 12.3885
40.48 12.3313
40.5277 12.241
40.5752 12.1219
40.6228 12.0129
40.6703 12.0108
40.718 12.0042
40.7655 11.9375
40.8132 11.9567
40.8607 11.9339
40.9084 11.8751
40.9559 11.8449
41.0036 11.8405
41.0512 11.7175
41.0989 11.7983
41.1465 11.6686
41.1942 11.7298
41.242 11.6941
41.2896 11.7901
41.3373 11.7047
41.3849 11.7162
41.4327 11.6392
41.4803 11.489
41.5281 11.4308
41.5758 11.3401
41.6236 11.2557
41.6712 11.2253
41.7191 11.2125
41.7667 11.1625
41.8146 11.1606
41.8622 11.1371
41.9101 11.1108
41.9578 11.0384
42.0057 11.0159
42.0534 10.9416
42.1013 10.9488
42.149 10.9209
42.1969 10.9809
42.2446 11.0444
42.2925 11.0702
42.3403 11.0219
42.3882 10.9961
42.436 10.8928
42.4839 10.7761
42.5319 10.7268
42.5797 10.6289
42.6277 10.6049
42.6755 10.4859
42.7235 10.4373
42.7713 10.4129
42.8193 10.3831
42.8671 10.3412
42.9152 10.3228
42.963 10.3316
43.0111 10.2449
43.0589 10.2038
43.107 10.1724
43.1549 10.1031
43.2029 10.1246
43.2508 10.0116
43.2989 10.0199
43.3468 9.97141
43.3949 9.91035
43.4429 9.88926
43.491 9.81204
43.5389 9.8178
43.5871 9.78653
43.635 9.79496
43.6832 9.73405
43.7312 9.68491
43.7793 9.70662
43.8273 9.6341
43.8755 9.60483
43.9237 9.5759
43.9717 9.5854
44.0199 9.5351
44.068 9.56152
44.1162 9.54902
44.1642 9.50432
44.2125 9.51306
44.2606 9.51772
44.3088 9.44498
44.3569 9.46184
44.4052 9.40094
44.4533 9.3589
44.5016 9.27139
44.5497 9.26823
44.598 9.18068
44.6461 9.15672
44.6945 9.10686
44.7426 9.14719
44.791 9.11407
44.8391 9.14311
44.8875 9.11492
44.9357 9.05551
44.984 9.0195
45.0322 8.957
45.0806 9.00872
45.1288 8.98354
45.1773 8.95315
45.2257 8.91306
45.2739 8.86595
45.3224 8.82703
45.3706 8.79622
45.4191 8.70217
45.4673 8.73997
45.5158 8.66436
45.5641 8.58393
45.6126 8.60471
45.6609 8.53471
45.7094 8.53329
45.7577 8.50375
45.8063 8.48948
45.8546 8.49003
45.9031 8.49169
45.9515 8.43077
46.0001 8.40451
46.0484 8.38727
46.097 8.3321
46.1454 8.34652
46.194 8.32625
46.2424 8.29868
46.291 8.26166
46.3395 8.19078
46.3881 8.17614
46.4365 8.10839
46.4852 8.14386
46.5337 8.05776
46.5823 8.07734
46.631 8.04609
46.6795 8.03738
46.7282 7.97842
46.7767 7.95257
46.8254 7.94352
46.8739 7.88187
46.9226 7.86035
46.9712 7.84491
47.0199 7.83021
47.0685 7.76804
47.1173 7.74932
47.1658 7.7338
47.2146 7.68732
47.2632 7.66294
47.312 7.64891
47.3606 7.54727
47.4095 7.54891
47.4581 7.51499
47.5069 7.47866
47.5556 7.4507
47.6044 7.40592
47.6531 7.42621
47.702 7.40673
47.7507 7.36886
47.7996 7.37911
47.8483 7.30125
47.8972 7.34186
47.9461 7.32166
47.9948 7.27483
48.0438 7.24735
48.0925 7.20655
48.1415 7.1672
48.1902 7.11566
48.2392 7.13328
48.288 7.08175
48.337 7.07081
48.3858 7.05087
48.4348 7.01595
48.4837 7.00092
48.5327 6.95663
48.5815 6.91479
48.6306 6.89428
48.6795 6.8769
48.7285 6.87655
48.7774 6.79839
48.8265 6.83598
48.8754 6.80482
48.9245 6.738
48.9734 6.7549
49.0226 6.73557
49.0715 6.67495
49.1206 6.66484
49.1696 6.63427
49.2188 6.60885
49.2679 6.58533
49.3169 6.57545
49.3661 6.52681
49.4151 6.51449
49.4643 6.51932
49.5134 6.48104
49.5626 6.44022
49.6117 6.46056
49.6609 6.4356
49.71 6.40034
49.7592 6.39614
49.8083 6.36654
49.8576 6.36688
49.9067 6.33085
49.956 6.30042
50.0052 6.28185
50.0545 6.25573
50.1036 6.22177
50.153 6.19835
50.2022 6.2037
50.2515 6.18517
50.3007 6.14836
50.3501 6.11029
50.3993 6.10223
50.4487 6.08763
50.498 6.08841
50.5474 6.06555
50.5966 6.06307
50.6461 5.98253
50.6955 5.98404
50.7448 5.96467
50.7943 5.94417
50.8436 5.86861
50.8931 5.85056
50.9424 5.83089
50.9919 5.84772
51.0413 5.82754
51.0908 5.78418
51.1402 5.76751
51.1897 5.75481
51.2391 5.70674
51.2887 5.683
51.3381 5.69037
51.3877 5.65061
51.4371 5.63186
51.4867 5.60012
51.5362 5.59502
51.5858 5.56097
51.6353 5.50606
51.6849 5.50776
51.7344 5.50614
51.7841 5.5171
51.8336 5.43491
51.8833 5.40511
51.9328 5.4295
51.9826 5.37418
52.0323 5.40754
52.0818 5.36799
52.1316 5.28603
52.1812 5.3122
52.231 5.28203
52.2806 5.2716
52.3304 5.24619
52.38 5.23133
52.4298 5.20172
52.4794 5.16245
52.5293 5.1764
52.5789 5.12093
52.6288 5.10055
52.6785 5.05945
52.7284 5.06473
52.7781 5.05256
52.828 5.05448
52.8777 4.9821
52.9276 4.99038
52.9774 4.99038
53.0273 4.9662
53.0771 4.95165
53.1271 4.91628
53.1769 4.94501
53.2269 4.89997
53.2767 4.83581
53.3267 4.84695
53.3765 4.82219
53.4266 4.79105
53.4766 4.7584
53.5265 4.76312
53.5765 4.74131
53.6264 4.72387
53.6765 4.6859
53.7264 4.65183
53.7765 4.6573
53.8265 4.61368
53.8766 4.5912
53.9266 4.56808
53.9767 4.55306
54.0267 4.53205
54.0769 4.51783
54.1269 4.46756
54.1771 4.45805
54.2271 4.43831
54.2773 4.39722
54.3274 4.39807
54.3776 4.39396
54.4277 4.34466
54.478 4.28532
54.528 4.28799
54.5783 4.2139
54.6285 4.21539
54.6788 4.16508
54.7289 4.16544
54.7792 4.12849
54.8296 4.10966
54.8798 4.04198
54.9301 4.0195
54.9803 4.00938
55.0307 3.96403
55.0809 3.91232
55.1314 3.9443
55.1816 3.87417
55.232 3.86065
55.2823 3.81569
55.3328 3.74491
55.383 3.71902
55.4335 3.64652
55.4838 3.62527
55.5344 3.58845
55.5847 3.61597
55.6352 3.55077
55.6856 3.57511
55.7361 3.53347