File: XRD/Ni3Fe_FD0564.xy
TT I
1.27165 7.57687
1.31627 6.91046
1.36089 6.89374
1.40551 6.2759
1.45013 6.23401
1.49476 5.69733
1.53938 5.77083
1.584 5.13187
1.62863 5.3502
1.67325 5.41266
1.71787 5.11376
1.7625 5.07862
1.80712 5.07799
1.85174 4.57851
1.89636 4.7238
1.94099 4.38082
1.98562 4.43148
2.03025 4.77337
2.07487 4.46528
2.11949 4.65825
2.16411 4.89662
2.20874 11.352
2.25338 16.0137
2.298 5.40156
2.34263 5.29022
2.38725 5.39527
2.43188 5.27277
2.4765 6.35642
2.52115 7.09271
2.56577 7.25175
2.6104 7.61224
2.65503 7.82441
2.69965 7.60837
2.7443 7.86138
2.78893 7.86573
2.83356 8.11607
2.87818 8.99762
2.92281 9.03589
2.96744 9.59055
3.01209 10.2156
3.05672 10.7764
3.10135 12.0773
3.14599 12.3378
3.19062 13.937
3.23527 15.1345
3.2799 15.4681
3.32454 17.0919
3.36917 17.7831
3.4138 18.4942
3.45844 19.8967
3.50309 21.0323
3.54773 21.6178
3.59237 23.4398
3.637 67.256
3.68164 45.3901
3.7263 25.7046
3.77094 25.8611
3.81558 26.3696
3.86022 27.8215
3.90486 28.98
3.9495 29.5692
3.99416 30.5833
4.0388 31.9575
4.08344 33.3833
4.12809 34.6858
4.17273 36.4965
4.21738 40.8858
4.26204 172.22
4.30669 147.686
4.35133 46.1319
4.39598 44.0634
4.44063 51.2401
4.4853 58.5683
4.52995 51.3635
4.5746 52.3972
4.61925 53.3386
4.6639 56.1182
4.70855 58.4937
4.75322 61.6071
4.79788 64.6519
4.84253 67.3527
4.88719 72.4589
4.93184 76.3586
4.97652 81.944
5.02118 88.7499
5.06583 95.9801
5.11049 108.93
5.15515 165.661
5.19981 438.955
5.24449 3181.85
5.28916 12283.8
5.33382 2964.86
5.37848 197.146
5.42315 130.735
5.46783 115.238
5.5125 107.93
5.55716 103.297
5.60183 99.1652
5.6465 97.4211
5.69117 95.5076
5.73586 93.137
5.78053 93.9439
5.8252 93.7305
5.86988 95.0703
5.91455 96.7629
5.95924 107.696
6.00392 255.404
6.0486 1102.18
6.09328 4431.72
6.13795 3391.03
6.18263 251.241
6.22733 93.6809
6.27201 82.6851
6.3167 92.4076
6.36138 77.4217
6.40606 69.1564
6.45075 67.7328
6.49545 65.7571
6.54014 63.9351
6.58483 63.0642
6.62952 62.732
6.67421 82.3263
6.71892 112.899
6.76361 65.4311
6.8083 58.6997
6.853 57.8721
6.89769 56.9568
6.94239 56.6366
6.98711 55.7117
7.03181 55.4277
7.07651 55.7196
7.12121 54.8598
7.16591 55.6062
7.21063 55.0945
7.25533 65.1151
7.30004 133.144
7.34475 78.574
7.38945 55.8959
7.43416 54.3365
7.47889 54.0468
7.5236 55.1955
7.56831 55.468
7.61303 56.3836
7.65774 56.8066
7.70247 56.3848
7.74719 56.53
7.79191 56.6372
7.83663 57.2806
7.88135 58.166
7.92607 59.04
7.97081 60.3803
8.01553 61.1805
8.06026 62.5685
8.10498 64.3732
8.14971 71.3537
8.19446 70.8181
8.23919 70.1511
8.28392 72.0756
8.32865 74.8646
8.37339 78.9829
8.41812 85.3275
8.46288 109.31
8.50761 188.297
8.55235 434.905
8.59709 1232.25
8.64183 2210.2
8.68658 967.237
8.73134 163.861
8.77609 99.9256
8.82083 93.3725
8.86558 90.6739
8.91033 89.8545
8.9551 90.1256
8.99985 85.5746
9.04461 84.3589
9.08936 83.6273
9.13412 82.5238
9.17888 82.6855
9.22365 82.9186
9.26841 82.7209
9.31318 83.3174
9.35794 83.8132
9.4027 84.2398
9.44749 84.5331
9.49226 85.1876
9.53703 86.2714
9.5818 88.4333
9.62657 91.8479
9.67134 96.2187
9.71614 93.7148
9.76091 94.8883
9.80569 97.7622
9.85047 100.955
9.89525 117.968
9.94005 133.097
9.98484 202.438
10.0296 379.594
10.0744 854.691
10.1192 1706.71
10.164 1535.93
10.2088 397.258
10.2536 126.767
10.2984 112.321
10.3432 112.29
10.388 105.899
10.4328 125.654
10.4776 170.516
10.5224 296.911
10.5672 522.581
10.612 503.14
10.6568 194.651
10.7017 95.7025
10.7465 87.4069
10.7913 83.4949
10.8361 81.3319
10.8809 79.1874
10.9257 78.2521
10.9706 78.2632
11.0154 74.937
11.0602 73.2454
11.105 72.0836
11.1499 74.4007
11.1947 78.5114
11.2395 72.5432
11.2844 69.7365
11.3292 67.5337
11.374 66.5516
11.4189 65.8838
11.4637 65.0121
11.5086 65.4153
11.5534 66.8471
11.5983 65.0407
11.6431 64.033
11.688 63.3796
11.7328 63.2388
11.7777 63.0461
11.8225 62.532
11.8674 62.7741
11.9122 63.4301
11.9571 63.5074
12.002 64.6329
12.0468 69.9786
12.0917 81.688
12.1366 106.075
12.1814 155.152
12.2263 200.941
12.2712 160.654
12.3161 91.2355
12.3609 68.9449
12.4058 64.5955
12.4507 64.4948
12.4956 64.4253
12.5405 64.9105
12.5853 65.594
12.6302 70.3085
12.6751 74.3459
12.72 69.2484
12.7649 68.3366
12.8098 68.7219
12.8547 70.1994
12.8996 71.6634
12.9445 73.021
12.9894 74.7881
13.0343 76.7058
13.0792 80.2753
13.1242 93.1572
13.1691 117.792
13.214 157.658
13.2589 249.564
13.3038 374.177
13.3487 425.75
13.3937 257.276
13.4386 122.529
13.4835 109.886
13.5285 125.879
13.5734 166.05
13.6183 253.635
13.6633 348.933
13.7082 336.826
13.7531 180.86
13.7981 96.74
13.843 82.2097
13.888 80.2804
13.9329 77.832
13.9779 76.12
14.0228 75.0976
14.0678 73.7592
14.1127 72.7924
14.1577 72.6233
14.2027 71.8857
14.2476 70.9776
14.2926 70.7141
14.3376 71.2799
14.3825 70.562
14.4275 69.348
14.4725 69.0774
14.5175 69.4119
14.5624 69.4842
14.6074 71.1212
14.6524 71.5747
14.6974 71.1167
14.7424 74.0148
14.7874 81.7552
14.8324 92.5726
14.8774 115.604
14.9224 157.648
14.9674 209.485
15.0124 217.684
15.0574 144.412
15.1024 88.9566
15.1474 72.5636
15.1924 70.4463
15.2374 70.7504
15.2824 69.9717
15.3274 68.0588
15.3725 67.2668
15.4175 66.8674
15.4625 66.4189
15.5076 66.3987
15.5526 66.6654
15.5976 66.6071
15.6426 68.4783
15.6877 74.5688
15.7327 82.616
15.7778 98.6564
15.8228 130.67
15.8679 172.627
15.9129 195.559
15.958 153.603
16.003 95.1376
16.0481 67.6353
16.0931 63.9541
16.1382 62.5413
16.1833 60.6356
16.2283 59.1799
16.2734 58.6686
16.3185 58.7058
16.3636 58.9474
16.4086 57.4641
16.4537 56.4987
16.4988 55.6871
16.5439 55.9308
16.589 55.5053
16.6341 55.2763
16.6792 54.873
16.7243 55.1968
16.7694 55.1422
16.8145 55.1734
16.8596 55.3521
16.9047 56.2927
16.9498 56.718
16.9949 56.1263
17.04 56.4111
17.0851 57.6807
17.1302 59.3577
17.1754 62.5805
17.2205 67.7888
17.2656 75.0293
17.3108 82.4004
17.3559 81.6176
17.401 70.946
17.4462 62.2002
17.4913 59.4997
17.5365 59.5442
17.5815 59.6686
17.6268 59.8261
17.6718 60.789
17.7171 61.2418
17.7622 61.8777
17.8074 62.627
17.8525 65.7733
17.8977 69.9921
17.9428 75.4661
17.9881 84.7613
18.0331 102.563
18.0784 123.045
18.1237 141.593
18.1688 132.939
18.214 103.48
18.2591 87.1625
18.3044 92.0004
18.3495 101.212
18.3948 106.39
18.4399 95.426
18.4852 77.2144
18.5303 65.9886
18.5756 62.5691
18.6207 61.562
18.666 60.7276
18.7112 60.0614
18.7565 59.2442
18.8016 59.1064
18.8469 58.4897
18.892 58.128
18.9374 57.7149
18.9825 57.4968
19.0278 57.0934
19.073 57.4806
19.1183 58.0939
19.1635 58.4851
19.2088 60.2251
19.254 62.8441
19.2993 67.4038
19.3447 72.9722
19.3898 76.2608
19.4352 72.17
19.4804 63.0718
19.5257 56.5145
19.5709 54.6026
19.6163 54.165
19.6615 54.0683
19.7068 53.8378
19.752 53.6848
19.7974 54.1741
19.8426 54.954
19.888 55.607
19.9332 56.9592
19.9786 59.6608
20.0238 63.4682
20.0692 67.7519
20.1144 70.3831
20.1598 68.4775
20.205 63.9917
20.2504 62.7604
20.2957 64.2875
20.3411 65.7833
20.3863 64.1087
20.4318 58.4513
20.477 53.7067
20.5224 51.7396
20.5677 51.0652
20.6131 50.4827
20.6586 49.8554
20.7038 49.8034
20.7493 49.3801
20.7945 49.3018
20.84 49.0101
20.8853 49.1235
20.9307 48.9002
20.976 49.0803
21.0215 48.8576
21.0668 49.4358
21.1122 49.791
21.1575 50.6668
21.203 51.1529
21.2483 51.6613
21.2938 51.7584
21.3391 50.2266
21.3846 49.3789
21.4299 48.7384
21.4754 48.77
21.5207 48.9077
21.5662 49.3155
21.6116 49.6888
21.6571 50.4867
21.7024 51.4267
21.7479 53.4042
21.7933 56.1769
21.8388 59.5691
21.8843 63.2435
21.9297 65.1279
21.9752 63.577
22.0206 59.7457
22.0661 56.7112
22.1115 56.552
22.157 56.162
22.2024 54.3512
22.248 51.7541
22.2933 50.2333
22.3389 49.3386
22.3843 49.2604
22.4299 49.039
22.4753 49.0427
22.5208 48.8613
22.5662 48.9084
22.6118 49.0199
22.6572 49.4142
22.7028 49.6108
22.7483 50.1573
22.7939 51.1098
22.8393 52.5751
22.8849 54.5038
22.9303 56.5812
22.9759 58.1948
23.0214 57.484
23.067 54.7544
23.1126 51.2767
23.1581 49.4536
23.2037 49.1707
23.2492 49.3657
23.2948 49.2754
23.3403 49.5787
23.3859 50.2635
23.4314 51.4442
23.477 53.2805
23.5225 55.3699
23.5682 57.2976
23.6137 58.0081
23.6593 55.8445
23.7048 51.6502
23.7505 48.3748
23.796 46.9215
23.8417 46.1365
23.8872 45.8711
23.9329 45.573
23.9784 45.1661
24.0241 44.8296
24.0697 44.7075
24.1154 44.4089
24.1609 44.3302
24.2066 44.1166
24.2522 44.0215
24.2979 43.6669
24.3434 43.6091
24.3892 43.6104
24.4349 43.4484
24.4805 43.2269
24.5262 43.3438
24.5718 43.2776
24.6175 43.1163
24.6631 43.0063
24.7089 42.6739
24.7545 42.6838
24.8002 42.4852
24.8458 42.5063
24.8916 42.3866
24.9372 42.4949
24.983 42.9011
25.0286 43.227
25.0744 43.7837
25.12 44.1933
25.1658 44.8679
25.2114 44.8867
25.2572 45.0087
25.3029 45.0611
25.3487 45.289
25.3943 44.8374
25.4402 43.6974
25.4858 42.5944
25.5316 41.5423
25.5773 41.2195
25.6231 41.1935
25.669 40.7251
25.7147 40.8216
25.7605 40.7332
25.8062 40.7252
25.8521 40.9363
25.8977 41.0089
25.9436 41.2431
25.9893 41.2461
26.0352 41.8347
26.0809 41.9107
26.1268 42.0503
26.1725 41.6277
26.2184 41.203
26.2641 40.6612
26.31 40.4283
26.3557 40.4079
26.4017 40.3929
26.4474 40.6871
26.4933 41.0087
26.5391 41.4926
26.585 42.0955
26.6308 42.3996
26.6767 42.4802
26.7225 42.179
26.7684 41.6365
26.8142 41.0328
26.8601 40.6755
26.9059 40.2476
26.9519 39.7493
26.9979 39.4973
27.0437 39.0738
27.0896 39.0047
27.1354 38.9668
27.1814 38.8201
27.2272 38.7855
27.2732 38.8394
27.3191 38.6135
27.3651 38.786
27.4109 38.7617
27.4569 38.7498
27.5027 38.6921
27.5488 38.7196
27.5946 38.6479
27.6407 38.5523
27.6865 38.2348
27.7326 38.1313
27.7784 38.1742
27.8245 38.1252
27.8703 38.3824
27.9164 38.5419
27.9623 38.7283
28.0084 38.9916
28.0543 39.4856
28.1003 39.3048
28.1462 39.1864
28.1923 38.6399
28.2384 38.1515
28.2843 37.9063
28.3304 37.4006
28.3764 36.933
28.4225 36.6161
28.4684 36.4246
28.5145 36.1918
28.5605 36.1021
28.6066 35.9008
28.6526 35.8971
28.6987 35.8255
28.7447 35.8097
28.7908 35.7692
28.8368 35.8059
28.8829 35.577
28.9289 35.6219
28.9751 35.3335
29.0211 35.0407
29.0673 34.869
29.1133 34.7307
29.1595 34.5131
29.2055 34.4969
29.2517 34.5709
29.2977 34.5443
29.3439 34.4442
29.3899 34.5012
29.4361 34.4225
29.4824 34.1777
29.5284 33.9755
29.5746 33.623
29.6207 33.326
29.6669 33.3113
29.713 33.2045
29.7593 33.0653
29.8053 32.9939
29.8516 32.9639
29.8977 33.0209
29.9439 32.8471
29.99 32.7883
30.0363 32.7062
30.0824 32.7222
30.1287 32.609
30.1748 32.6242
30.2211 32.6048
30.2673 32.4586
30.3136 32.5146
30.3597 32.3994
30.406 32.4359
30.4522 32.2894
30.4985 32.2745
30.5447 32.3686
30.591 32.2998
30.6372 32.5008
30.6835 32.3301
30.7297 32.383
30.7761 32.3556
30.8224 32.1716
30.8686 32.0044
30.915 31.7503
30.9612 31.8103
31.0076 31.4464
31.0538 31.3796
31.1002 31.3237
31.1464 31.1915
31.1928 31.1329
31.2391 31.1627
31.2855 31.0304
31.3317 31.0089
31.3781 31.1579
31.4244 31.1281
31.4708 30.9934
31.5171 30.9118
31.5636 30.9924
31.6098 30.7898
31.6563 30.5566
31.7026 30.3587
31.7491 30.3292
31.7953 30.3866
31.8418 30.39
31.8881 30.3975
31.9346 30.3601
31.9809 30.3368
32.0275 30.0079
32.074 29.967
32.1203 29.7688
32.1668 29.6626
32.2132 29.5325
32.2597 29.4845
32.306 29.3199
32.3526 29.2249
32.399 29.0815
32.4455 28.9171
32.4919 28.8529
32.5385 28.8256
32.5848 28.5976
32.6314 28.6875
32.6778 28.6491
32.7244 28.4606
32.7708 28.3607
32.8174 28.3689
32.8638 28.1866
32.9104 28.3419
32.9569 28.2741
33.0035 27.9766
33.0499 28.0676
33.0966 27.967
33.143 27.9345
33.1897 27.8191
33.2361 27.8034
33.2828 27.7676
33.3293 27.5716
33.3759 27.5283
33.4226 27.4711
33.4691 27.3019
33.5158 27.1586
33.5623 27.0157
33.609 26.9918
33.6555 26.8658
33.7022 26.7546
33.7487 26.6046
33.7954 26.6437
33.842 26.6279
33.8887 26.3965
33.9353 26.4094
33.982 26.2465
34.0286 26.2862
34.0753 26.2116
34.1219 26.0434
34.1687 26.0263
34.2152 25.9619
34.262 25.8363
34.3086 25.7151
34.3554 25.661
34.402 25.5125
34.4488 25.4447
34.4954 25.4273
34.5422 25.2911
34.5889 25.2504
34.6357 25.1711
34.6825 25.1011
34.7292 25.0285
34.776 24.9552
34.8227 24.7782
34.8695 24.8286
34.9162 24.7339
34.9631 24.6493
35.0098 24.6229
35.0566 24.5834
35.1033 24.4474
35.1502 24.4775
35.1969 24.3444
35.2438 24.3201
35.2906 24.2913
35.3375 24.1645
35.3842 24.1732
35.4311 24.1986
35.4779 24.0872
35.5248 24.0263
35.5716 23.9454
35.6185 23.8186
35.6653 23.7874
35.7123 23.6714
35.759 23.6573
35.806 23.5295
35.8528 23.3725
35.8998 23.4036
35.9468 23.236
35.9936 23.3019
36.0406 23.1968
36.0874 23.0763
36.1345 22.9993
36.1813 22.9577
36.2283 22.8758
36.2752 22.705
36.3222 22.8093
36.3691 22.6885
36.4161 22.5606
36.463 22.5785
36.5101 22.5658
36.557 22.5
36.6041 22.3413
36.651 22.3598
36.6981 22.3102
36.745 22.1869
36.7921 22.052
36.839 22.0152
36.8861 21.9141
36.9331 21.8129
36.9802 21.8233
37.0272 21.6698
37.0743 21.616
37.1213 21.5846
37.1684 21.5892
37.2154 21.5432
37.2626 21.3622
37.3098 21.3472
37.3568 21.2636
37.404 21.1976
37.451 21.1156
37.4982 21.0579
37.5452 20.9723
37.5924 20.9722
37.6395 20.9716
37.6867 20.8719
37.7337 20.7612
37.781 20.7103
37.8281 20.5827
37.8753 20.5081
37.9224 20.5068
37.9697 20.421
38.0168 20.3547
38.064 20.1923
38.1111 20.165
38.1584 20.0989
38.2056 20.0864
38.2529 20.0567
38.3 19.9723
38.3473 19.95
38.3945 19.8114
38.4418 19.7854
38.489 19.778
38.5363 19.616
38.5837 19.5923
38.6309 19.5327
38.6782 19.5103
38.7254 19.3745
38.7728 19.335
38.82 19.2483
38.8674 19.1973
38.9146 19.2
38.9621 19.0502
39.0093 19.017
39.0567 19.0177
39.104 18.9502
39.1514 18.8315
39.1987 18.8214
39.2461 18.7965
39.2934 18.7063
39.3409 18.5699
39.3882 18.5163
39.4356 18.4275
39.483 18.3863
39.5304 18.3758
39.5778 18.3613
39.6253 18.2389
39.6726 18.1643
39.7201 18.1742
39.7675 18.1222
39.815 18.0306
39.8624 17.9578
39.9099 17.9811
39.9575 17.866
40.0049 17.809
40.0525 17.7458
40.0999 17.7197
40.1474 17.6061
40.1949 17.5686
40.2425 17.4936
40.2899 17.4573
40.3375 17.4302
40.385 17.3793
40.4326 17.2387
40.48 17.1987
40.5277 17.2291
40.5752 17.1433
40.6228 17.0632
40.6703 17.059
40.718 16.9578
40.7655 16.9269
40.8132 16.8679
40.8607 16.8215
40.9084 16.8057
40.9559 16.7291
41.0036 16.6292
41.0512 16.6378
41.0989 16.5634
41.1465 16.4655
41.1942 16.4387
41.242 16.3039
41.2896 16.2678
41.3373 16.2639
41.3849 16.2254
41.4327 16.2157
41.4803 16.1167
41.5281 16.0567
41.5758 15.9906
41.6236 15.9541
41.6712 15.9132
41.7191 15.8333
41.7667 15.7854
41.8146 15.757
41.8622 15.6597
41.9101 15.6363
41.9578 15.5978
42.0057 15.5139
42.0534 15.4316
42.1013 15.4315
42.149 15.3869
42.1969 15.2895
42.2446 15.2674
42.2925 15.2212
42.3403 15.1747
42.3882 15.1079
42.436 15.0864
42.4839 14.9832
42.5319 15.0262
42.5797 14.8892
42.6277 14.8641
42.6755 14.792
42.7235 14.7337
42.7713 14.7226
42.8193 14.6769
42.8671 14.6145
42.9152 14.5038
42.963 14.5172
43.0111 14.4465
43.0589 14.4249
43.107 14.3141
43.1549 14.3168
43.2029 14.277
43.2508 14.2133
43.2989 14.1476
43.3468 14.0727
43.3949 14.054
43.4429 14.0256
43.491 13.9658
43.5389 13.9267
43.5871 13.8499
43.635 13.8389
43.6832 13.7585
43.7312 13.7338
43.7793 13.6615
43.8273 13.6019
43.8755 13.5881
43.9237 13.5405
43.9717 13.5335
44.0199 13.4313
44.068 13.3954
44.1162 13.3264
44.1642 13.317
44.2125 13.3045
44.2606 13.2023
44.3088 13.1324
44.3569 13.1304
44.4052 13.1262
44.4533 12.9987
44.5016 12.9569
44.5497 12.9371
44.598 12.9451
44.6461 12.8554
44.6945 12.7812
44.7426 12.7845
44.791 12.7108
44.8391 12.657
44.8875 12.597
44.9357 12.6011
44.984 12.5251
45.0322 12.4487
45.0806 12.4539
45.1288 12.4119
45.1773 12.3503
45.2257 12.3299
45.2739 12.2874
45.3224 12.2119
45.3706 12.1944
45.4191 12.0785
45.4673 12.1417
45.5158 12.0529
45.5641 12.0173
45.6126 11.972
45.6609 11.912
45.7094 11.8859
45.7577 11.8354
45.8063 11.7588
45.8546 11.7744
45.9031 11.7075
45.9515 11.6403
46.0001 11.6432
46.0484 11.577
46.097 11.5553
46.1454 11.5563
46.194 11.5006
46.2424 11.4262
46.291 11.3952
46.3395 11.3439
46.3881 11.305
46.4365 11.3068
46.4852 11.2166
46.5337 11.1868
46.5823 11.118
46.631 11.077
46.6795 11.0408
46.7282 11.0031
46.7767 11.0178
46.8254 10.9284
46.8739 10.8723
46.9226 10.8578
46.9712 10.796
47.0199 10.7424
47.0685 10.7203
47.1173 10.6935
47.1658 10.6462
47.2146 10.6285
47.2632 10.5356
47.312 10.5748
47.3606 10.5165
47.4095 10.4273
47.4581 10.4259
47.5069 10.3923
47.5556 10.3182
47.6044 10.2964
47.6531 10.2641
47.702 10.2423
47.7507 10.1826
47.7996 10.1697
47.8483 10.1372
47.8972 10.0997
47.9461 10.0749
47.9948 10.0238
48.0438 9.96465
48.0925 9.98324
48.1415 9.90829
48.1902 9.84235
48.2392 9.85976
48.288 9.83195
48.337 9.74856
48.3858 9.68989
48.4348 9.64242
48.4837 9.7051
48.5327 9.64332
48.5815 9.61616
48.6306 9.53313
48.6795 9.55135
48.7285 9.49092
48.7774 9.45472
48.8265 9.47224
48.8754 9.36457
48.9245 9.34452
48.9734 9.31041
49.0226 9.28281
49.0715 9.22368
49.1206 9.18686
49.1696 9.14845
49.2188 9.14922
49.2679 9.10366
49.3169 9.057
49.3661 9.01888
49.4151 9.00277
49.4643 8.97803
49.5134 8.9274
49.5626 8.84764
49.6117 8.86392
49.6609 8.82802
49.71 8.73794
49.7592 8.78396
49.8083 8.68606
49.8576 8.6733
49.9067 8.63223
49.956 8.59793
50.0052 8.58712
50.0545 8.56542
50.1036 8.49351
50.153 8.45355
50.2022 8.45179
50.2515 8.43758
50.3007 8.36973
50.3501 8.34922
50.3993 8.33417
50.4487 8.29689
50.498 8.2556
50.5474 8.23978
50.5966 8.18786
50.6461 8.16195
50.6955 8.14009
50.7448 8.10163
50.7943 8.09169
50.8436 8.05749
50.8931 7.98718
50.9424 7.97683
50.9919 7.91925
51.0413 7.95537
51.0908 7.87789
51.1402 7.82756
51.1897 7.8387
51.2391 7.7836
51.2887 7.78234
51.3381 7.70075
51.3877 7.68588
51.4371 7.66378
51.4867 7.65225
51.5362 7.62369
51.5858 7.52996
51.6353 7.52606
51.6849 7.48781
51.7344 7.46098
51.7841 7.43468
51.8336 7.42275
51.8833 7.36047
51.9328 7.33823
51.9826 7.33293
52.0323 7.28083
52.0818 7.24899
52.1316 7.23577
52.1812 7.22048
52.231 7.12723
52.2806 7.12657
52.3304 7.11611
52.38 7.07267
52.4298 7.04645
52.4794 7.02161
52.5293 7.01585
52.5789 6.943
52.6288 6.93597
52.6785 6.91752
52.7284 6.9012
52.7781 6.8434
52.828 6.84395
52.8777 6.78301
52.9276 6.76869
52.9774 6.75295
53.0273 6.69256
53.0771 6.69114
53.1271 6.66171
53.1769 6.63886
53.2269 6.58754
53.2767 6.53202
53.3267 6.54183
53.3765 6.49713
53.4266 6.47791
53.4766 6.45899
53.5265 6.4367
53.5765 6.3628
53.6264 6.34778
53.6765 6.37219
53.7264 6.29313
53.7765 6.31929
53.8265 6.26032
53.8766 6.2022
53.9266 6.20197
53.9767 6.16525
54.0267 6.19013
54.0769 6.08775
54.1269 6.03294
54.1771 6.12377
54.2271 6.0162
54.2773 5.98942
54.3274 5.99163
54.3776 5.90299
54.4277 5.86946
54.478 5.88596
54.528 5.91675
54.5783 5.75823
54.6285 5.77825
54.6788 5.72711
54.7289 5.65758
54.7792 5.61246
54.8296 5.58574
54.8798 5.53523
54.9301 5.51231
54.9803 5.49586
55.0307 5.43347
55.0809 5.43788
55.1314 5.4297
55.1816 5.34747
55.232 5.25114
55.2823 5.24891
55.3328 5.19781
55.383 5.14584
55.4335 5.1269
55.4838 5.02011
55.5344 4.99985
55.5847 4.89975
55.6352 4.89014
55.6856 4.9238
55.7361 4.84353