File: XRD/Ni3Fe_FD0135.xy
TT I
1.27165 8.64269
1.31627 7.35218
1.36089 6.53121
1.40551 6.42706
1.45013 7.20133
1.49476 6.18205
1.53938 5.94383
1.584 5.5395
1.62863 5.44816
1.67325 5.51179
1.71787 5.60942
1.7625 5.23176
1.80712 5.14817
1.85174 5.08307
1.89636 4.9299
1.94099 4.78857
1.98562 5.05386
2.03025 4.99034
2.07487 5.0819
2.11949 5.05248
2.16411 4.5626
2.20874 4.84811
2.25338 4.65258
2.298 4.37934
2.34263 4.08808
2.38725 4.47767
2.43188 4.40399
2.4765 4.45963
2.52115 4.19854
2.56577 4.21797
2.6104 5.69497
2.65503 5.40817
2.69965 4.64705
2.7443 5.58463
2.78893 6.23271
2.83356 6.78766
2.87818 7.9067
2.92281 8.21356
2.96744 9.36746
3.01209 10.4816
3.05672 10.8537
3.10135 12.1547
3.14599 12.9547
3.19062 14.1982
3.23527 15.1899
3.2799 15.8908
3.32454 16.7301
3.36917 17.433
3.4138 18.3197
3.45844 19.2192
3.50309 20.4374
3.54773 20.824
3.59237 21.6889
3.637 22.27
3.68164 22.8593
3.7263 24.093
3.77094 24.6542
3.81558 25.2243
3.86022 25.7538
3.90486 27.5285
3.9495 28.285
3.99416 29.3395
4.0388 30.6334
4.08344 31.7811
4.12809 32.6193
4.17273 34.043
4.21738 35.3489
4.26204 35.9201
4.30669 37.3452
4.35133 39.2643
4.39598 41.097
4.44063 42.5608
4.4853 44.4158
4.52995 47.4249
4.5746 48.8781
4.61925 51.4048
4.6639 53.476
4.70855 56.0705
4.75322 59.3646
4.79788 62.2261
4.84253 66.0217
4.88719 70.0535
4.93184 74.9457
4.97652 82.0895
5.02118 90.8385
5.06583 101.453
5.11049 117.541
5.15515 156.505
5.19981 567.971
5.24449 3766.96
5.28916 7925.54
5.33382 6422.17
5.37848 476.962
5.42315 165.772
5.46783 128.366
5.5125 114.566
5.55716 107.5
5.60183 101.631
5.6465 98.9288
5.69117 97.2773
5.73586 95.1293
5.78053 95.416
5.8252 95.3751
5.86988 98.4599
5.91455 105.485
5.95924 125.029
6.00392 294.773
6.0486 1389.48
6.09328 2605.43
6.13795 3941.34
6.18263 722.409
6.22733 125.578
6.27201 89.6893
6.3167 78.326
6.36138 72.2162
6.40606 68.0223
6.45075 66.313
6.49545 63.8756
6.54014 62.1261
6.58483 60.5771
6.62952 59.2705
6.67421 58.1129
6.71892 56.883
6.76361 55.6992
6.8083 55.2756
6.853 54.6792
6.89769 54.0451
6.94239 53.6839
6.98711 52.9043
7.03181 52.3885
7.07651 52.2248
7.12121 52.1805
7.16591 51.9972
7.21063 51.5302
7.25533 51.42
7.30004 51.7817
7.34475 51.5315
7.38945 51.9544
7.43416 51.2531
7.47889 51.6169
7.5236 56.0927
7.56831 64.658
7.61303 55.4413
7.65774 53.1312
7.70247 53.4562
7.74719 53.7493
7.79191 54.5293
7.83663 54.5975
7.88135 55.6445
7.92607 56.812
7.97081 57.8389
8.01553 58.7836
8.06026 59.9991
8.10498 61.1309
8.14971 62.9944
8.19446 64.9238
8.23919 67.8146
8.28392 70.116
8.32865 73.0625
8.37339 77.8108
8.41812 83.1364
8.46288 95.1923
8.50761 174.631
8.55235 609.925
8.59709 860.698
8.64183 1424.21
8.68658 1674.52
8.73134 436.55
8.77609 117.752
8.82083 97.2759
8.86558 91.1005
8.91033 87.4853
8.9551 84.7707
8.99985 83.4062
9.04461 82.5491
9.08936 81.7953
9.13412 80.9079
9.17888 81.4191
9.22365 87.4037
9.26841 99.4372
9.31318 87.2839
9.35794 81.6141
9.4027 81.428
9.44749 82.3256
9.49226 82.7609
9.53703 83.6751
9.5818 85.3842
9.62657 86.286
9.67134 88.0819
9.71614 89.7971
9.76091 92.2504
9.80569 94.7233
9.85047 98.073
9.89525 103.56
9.94005 113.498
9.98484 186.365
10.0296 551.879
10.0744 722.791
10.1192 982.449
10.164 1644.26
10.2088 1015.94
10.2536 224.434
10.2984 117.056
10.3432 107.535
10.388 103.818
10.4328 121.108
10.4776 216.234
10.5224 257.263
10.5672 317.001
10.612 479.427
10.6568 384.651
10.7017 140.275
10.7465 90.8847
10.7913 83.5541
10.8361 80.0156
10.8809 77.5852
10.9257 75.1869
10.9706 73.8314
11.0154 72.0077
11.0602 70.8613
11.105 69.7051
11.1499 68.2642
11.1947 67.2322
11.2395 66.3031
11.2844 65.7732
11.3292 64.788
11.374 64.0656
11.4189 63.8757
11.4637 63.1556
11.5086 62.3062
11.5534 61.8232
11.5983 61.5601
11.6431 61.6969
11.688 60.9314
11.7328 61.112
11.7777 60.8971
11.8225 60.7112
11.8674 60.8005
11.9122 61.725
11.9571 65.8677
12.002 65.5556
12.0468 67.4966
12.0917 90.3673
12.1366 107.132
12.1814 114.743
12.2263 145.417
12.2712 189.274
12.3161 142.876
12.3609 76.2225
12.4058 63.8335
12.4507 62.9438
12.4956 62.7144
12.5405 62.7411
12.5853 63.119
12.6302 63.6031
12.6751 63.8477
12.72 64.5708
12.7649 65.8721
12.8098 66.4048
12.8547 67.7033
12.8996 68.9359
12.9445 70.5911
12.9894 72.6691
13.0343 74.4157
13.0792 78.8996
13.1242 86.0792
13.1691 133.027
13.214 187.54
13.2589 199.844
13.3038 235.308
13.3487 337.311
13.3937 384.11
13.4386 220.31
13.4835 121.164
13.5285 154.947
13.5734 181.552
13.6183 187.223
13.6633 228.633
13.7082 321.181
13.7531 311.771
13.7981 159.782
13.843 88.5519
13.888 80.1902
13.9329 77.3117
13.9779 75.4891
14.0228 73.7478
14.0678 72.3248
14.1127 72.4387
14.1577 74.1898
14.2027 72.5571
14.2476 70.0501
14.2926 68.992
14.3376 68.5598
14.3825 68.1878
14.4275 67.5793
14.4725 67.6673
14.5175 67.8295
14.5624 67.7635
14.6074 68.0362
14.6524 68.6537
14.6974 69.1236
14.7424 71.1015
14.7874 80.1664
14.8324 107.119
14.8774 120.396
14.9224 123.876
14.9674 143.395
15.0124 185.66
15.0574 204.653
15.1024 141.638
15.1474 82.4167
15.1924 70.8548
15.2374 68.6274
15.2824 67.419
15.3274 66.3471
15.3725 65.805
15.4175 65.7199
15.4625 65.1853
15.5076 64.9748
15.5526 65.1046
15.5976 65.1286
15.6426 66.034
15.6877 73.3441
15.7327 95.3108
15.7778 107.184
15.8228 108.46
15.8679 120.513
15.9129 149.493
15.958 183.289
16.003 155.028
16.0481 90.6506
16.0931 66.3432
16.1382 61.7256
16.1833 60.0911
16.2283 58.4886
16.2734 57.7719
16.3185 56.9868
16.3636 56.3585
16.4086 55.4935
16.4537 55.1658
16.4988 54.7472
16.5439 54.5232
16.589 54.4754
16.6341 53.8213
16.6792 53.7426
16.7243 53.8955
16.7694 53.7907
16.8145 53.833
16.8596 53.9115
16.9047 54.2111
16.9498 54.5668
16.9949 54.6293
17.04 54.8862
17.0851 56.322
17.1302 60.7537
17.1754 64.1894
17.2205 64.5353
17.2656 66.2082
17.3108 71.0768
17.3559 78.0116
17.401 80.9601
17.4462 71.6924
17.4913 61.4888
17.5365 58.698
17.5815 58.5542
17.6268 58.9918
17.6718 59.4607
17.7171 59.8205
17.7622 60.7391
17.8074 61.8569
17.8525 63.1867
17.8977 71.4424
17.9428 83.5736
17.9881 88.2074
18.0331 89.4554
18.0784 95.4925
18.1237 111.904
18.1688 138.309
18.214 142.975
18.2591 113.096
18.3044 87.9232
18.3495 85.0793
18.3948 93.1324
18.4399 102.386
18.4852 95.5927
18.5303 76.8263
18.5756 64.822
18.6207 61.8484
18.666 60.5473
18.7112 59.4762
18.7565 58.8057
18.8016 58.4738
18.8469 57.8796
18.892 57.4009
18.9374 56.8598
18.9825 56.4981
19.0278 56.3772
19.073 56.3264
19.1183 56.8865
19.1635 59.2613
19.2088 61.4894
19.254 61.9614
19.2993 62.2278
19.3447 64.192
19.3898 68.007
19.4352 72.9593
19.4804 72.5378
19.5257 64.0842
19.5709 56.2913
19.6163 54.016
19.6615 53.4354
19.7068 52.934
19.752 53.1494
19.7974 53.3335
19.8426 54.2881
19.888 56.3636
19.9332 57.9974
19.9786 58.2223
20.0238 58.6204
20.0692 61.0947
20.1144 66.0338
20.1598 71.7845
20.205 70.628
20.2504 65.1588
20.2957 60.5792
20.3411 60.9217
20.3863 63.9395
20.4318 64.4971
20.477 59.3915
20.5224 53.2839
20.5677 50.7883
20.6131 50.0431
20.6586 49.4333
20.7038 49.3461
20.7493 48.8106
20.7945 48.8257
20.84 48.7423
20.8853 48.6053
20.9307 48.2501
20.976 48.4555
21.0215 48.6561
21.0668 49.0838
21.1122 49.2658
21.1575 49.1025
21.203 49.2603
21.2483 49.7047
21.2938 50.9461
21.3391 50.9898
21.3846 50.2364
21.4299 48.8896
21.4754 48.369
21.5207 48.4935
21.5662 48.6964
21.6116 48.9092
21.6571 50.9922
21.7024 52.8936
21.7479 53.7614
21.7933 54.0564
21.8388 55.1538
21.8843 57.6926
21.9297 61.143
21.9752 65.019
22.0206 65.3865
22.0661 60.6707
22.1115 55.8839
22.157 55.1251
22.2024 56.0187
22.248 54.9365
22.2933 52.25
22.3389 49.8229
22.3843 48.8932
22.4299 48.5152
22.4753 48.6634
22.5208 48.4786
22.5662 48.4857
22.6118 48.6283
22.6572 48.8915
22.7028 49.8756
22.7483 51.2597
22.7939 51.4461
22.8393 51.704
22.8849 52.0679
22.9303 52.8058
22.9759 54.3631
23.0214 56.386
23.067 58.0349
23.1126 56.0394
23.1581 52.2783
23.2037 49.6512
23.2492 48.8755
23.2948 49.3547
23.3403 50.7043
23.3859 51.4466
23.4314 51.434
23.477 51.5567
23.5225 51.8341
23.5682 52.919
23.6137 55.0
23.6593 57.4352
23.7048 57.1291
23.7505 53.4626
23.796 49.079
23.8417 46.8083
23.8872 45.7443
23.9329 45.3406
23.9784 45.0686
24.0241 44.7207
24.0697 44.501
24.1154 44.0507
24.1609 43.9486
24.2066 43.787
24.2522 43.5485
24.2979 43.4159
24.3434 43.2189
24.3892 43.1307
24.4349 43.1396
24.4805 42.7405
24.5262 42.8373
24.5718 42.678
24.6175 42.8474
24.6631 42.9181
24.7089 42.7404
24.7545 42.4887
24.8002 42.3709
24.8458 42.2042
24.8916 42.4958
24.9372 42.3225
24.983 42.5345
25.0286 42.7094
25.0744 43.1601
25.12 43.6339
25.1658 43.8729
25.2114 44.3747
25.2572 44.7257
25.3029 44.74
25.3487 44.4644
25.3943 44.4248
25.4402 44.7641
25.4858 44.2793
25.5316 43.0352
25.5773 41.6924
25.6231 41.0462
25.669 40.638
25.7147 40.612
25.7605 40.5991
25.8062 40.6738
25.8521 40.9296
25.8977 40.7395
25.9436 40.7607
25.9893 40.6275
26.0352 41.0621
26.0809 40.9164
26.1268 41.3445
26.1725 41.7495
26.2184 41.7055
26.2641 41.3196
26.31 40.8533
26.3557 40.5729
26.4017 40.5696
26.4474 40.6902
26.4933 40.6211
26.5391 40.9284
26.585 41.1223
26.6308 41.4039
26.6767 41.7765
26.7225 42.3938
26.7684 42.4864
26.8142 41.9276
26.8601 41.0953
26.9059 40.5282
26.9519 40.204
26.9979 39.9938
27.0437 39.4306
27.0896 39.0777
27.1354 39.0086
27.1814 38.7334
27.2272 38.764
27.2732 38.8252
27.3191 38.4649
27.3651 38.5322
27.4109 38.3463
27.4569 38.4381
27.5027 38.4354
27.5488 38.4504
27.5946 38.5283
27.6407 38.5054
27.6865 38.5272
27.7326 38.4378
27.7784 38.3477
27.8245 38.1546
27.8703 38.0353
27.9164 38.2966
27.9623 38.3543
28.0084 38.4867
28.0543 38.732
28.1003 38.8318
28.1462 39.1446
28.1923 39.2647
28.2384 38.5982
28.2843 38.1655
28.3304 37.8825
28.3764 37.4788
28.4225 37.0014
28.4684 36.604
28.5145 36.07
28.5605 35.9666
28.6066 35.6646
28.6526 35.8347
28.6987 35.7414
28.7447 35.6
28.7908 35.42
28.8368 35.2731
28.8829 35.3042
28.9289 35.3636
28.9751 35.1963
29.0211 35.1564
29.0673 35.039
29.1133 34.8532
29.1595 34.5773
29.2055 34.4558
29.2517 34.4616
29.2977 34.2297
29.3439 34.1767
29.3899 34.0853
29.4361 34.1342
29.4824 34.019
29.5284 34.0429
29.5746 33.7589
29.6207 33.4297
29.6669 33.1506
29.713 33.0435
29.7593 32.9384
29.8053 32.8526
29.8516 32.8183
29.8977 32.7561
29.9439 32.6766
29.99 32.5357
30.0363 32.4871
30.0824 32.4742
30.1287 32.4079
30.1748 32.4141
30.2211 32.2754
30.2673 32.3152
30.3136 32.4856
30.3597 32.4053
30.406 32.369
30.4522 32.2183
30.4985 32.1309
30.5447 32.2014
30.591 32.1068
30.6372 32.0905
30.6835 32.0615
30.7297 32.1449
30.7761 32.2631
30.8224 32.2781
30.8686 32.1627
30.915 31.9083
30.9612 31.7535
31.0076 31.6275
31.0538 31.3661
31.1002 31.3247
31.1464 31.0825
31.1928 31.1033
31.2391 31.2262
31.2855 30.9349
31.3317 31.02
31.3781 30.9686
31.4244 30.9516
31.4708 30.7471
31.5171 30.783
31.5636 30.9326
31.6098 30.8421
31.6563 30.7727
31.7026 30.4324
31.7491 30.3001
31.7953 30.2348
31.8418 30.2325
31.8881 30.1583
31.9346 30.1213
31.9809 30.0731
32.0275 30.0855
32.074 29.9369
32.1203 29.857
32.1668 29.7396
32.2132 29.5441
32.2597 29.4706
32.306 29.3451
32.3526 29.1239
32.399 29.0531
32.4455 28.8388
32.4919 28.7357
32.5385 28.7704
32.5848 28.5891
32.6314 28.6015
32.6778 28.5406
32.7244 28.4512
32.7708 28.2018
32.8174 28.1647
32.8638 28.0711
32.9104 28.132
32.9569 28.0408
33.0035 27.9127
33.0499 27.8782
33.0966 27.8087
33.143 27.7947
33.1897 27.6999
33.2361 27.6469
33.2828 27.6424
33.3293 27.4949
33.3759 27.5347
33.4226 27.4065
33.4691 27.3052
33.5158 27.1411
33.5623 27.015
33.609 26.755
33.6555 26.7837
33.7022 26.6636
33.7487 26.6656
33.7954 26.5344
33.842 26.3879
33.8887 26.4334
33.9353 26.3125
33.982 26.1893
34.0286 26.1321
34.0753 26.0865
34.1219 26.02
34.1687 25.8649
34.2152 25.8209
34.262 25.6433
34.3086 25.534
34.3554 25.5877
34.402 25.4796
34.4488 25.2912
34.4954 25.2388
34.5422 25.2351
34.5889 25.0229
34.6357 24.9768
34.6825 24.8784
34.7292 24.9069
34.776 24.8483
34.8227 24.729
34.8695 24.6477
34.9162 24.6545
34.9631 24.5453
35.0098 24.5296
35.0566 24.3929
35.1033 24.3632
35.1502 24.3334
35.1969 24.2179
35.2438 24.1824
35.2906 24.1217
35.3375 24.0396
35.3842 23.9767
35.4311 24.0301
35.4779 23.9745
35.5248 23.8618
35.5716 23.719
35.6185 23.7615
35.6653 23.7402
35.7123 23.6224
35.759 23.5298
35.806 23.4099
35.8528 23.351
35.8998 23.2458
35.9468 23.1876
35.9936 23.1283
36.0406 23.0523
36.0874 23.0098
36.1345 22.9588
36.1813 22.9068
36.2283 22.7775
36.2752 22.698
36.3222 22.8308
36.3691 22.6794
36.4161 22.4694
36.463 22.4845
36.5101 22.4896
36.557 22.357
36.6041 22.248
36.651 22.2555
36.6981 22.1589
36.745 22.1194
36.7921 22.0663
36.839 21.8685
36.8861 21.9571
36.9331 21.7863
36.9802 21.7221
37.0272 21.588
37.0743 21.5234
37.1213 21.5032
37.1684 21.456
37.2154 21.379
37.2626 21.2977
37.3098 21.2188
37.3568 21.1976
37.404 21.1476
37.451 21.0314
37.4982 20.9455
37.5452 20.8347
37.5924 20.7861
37.6395 20.9002
37.6867 20.792
37.7337 20.5775
37.781 20.5351
37.8281 20.5381
37.8753 20.4989
37.9224 20.3615
37.9697 20.3304
38.0168 20.2574
38.064 20.19
38.1111 20.1338
38.1584 20.0427
38.2056 19.9903
38.2529 19.9827
38.3 19.8089
38.3473 19.8417
38.3945 19.7327
38.4418 19.6491
38.489 19.7013
38.5363 19.62
38.5837 19.4501
38.6309 19.4136
38.6782 19.317
38.7254 19.298
38.7728 19.2228
38.82 19.158
38.8674 19.1276
38.9146 19.084
38.9621 19.0137
39.0093 18.9209
39.0567 18.8722
39.104 18.8078
39.1514 18.7031
39.1987 18.6783
39.2461 18.6493
39.2934 18.6089
39.3409 18.5397
39.3882 18.3899
39.4356 18.3885
39.483 18.3579
39.5304 18.2796
39.5778 18.2236
39.6253 18.1883
39.6726 18.1335
39.7201 18.098
39.7675 18.0285
39.815 17.9364
39.8624 17.8725
39.9099 17.8604
39.9575 17.7047
40.0049 17.7388
40.0525 17.6594
40.0999 17.6164
40.1474 17.594
40.1949 17.5445
40.2425 17.4235
40.2899 17.4005
40.3375 17.3513
40.385 17.3103
40.4326 17.185
40.48 17.1305
40.5277 17.1504
40.5752 17.0691
40.6228 17.0413
40.6703 16.9738
40.718 16.8812
40.7655 16.8766
40.8132 16.7635
40.8607 16.7723
40.9084 16.7401
40.9559 16.5763
41.0036 16.6058
41.0512 16.5783
41.0989 16.469
41.1465 16.4091
41.1942 16.3785
41.242 16.2595
41.2896 16.2755
41.3373 16.1985
41.3849 16.1511
41.4327 16.0975
41.4803 15.994
41.5281 15.9364
41.5758 15.9552
41.6236 15.8511
41.6712 15.811
41.7191 15.7228
41.7667 15.6795
41.8146 15.6577
41.8622 15.6079
41.9101 15.589
41.9578 15.4643
42.0057 15.4931
42.0534 15.4131
42.1013 15.3673
42.149 15.2929
42.1969 15.2001
42.2446 15.1786
42.2925 15.1229
42.3403 15.1234
42.3882 15.0572
42.436 15.0183
42.4839 14.9191
42.5319 14.8772
42.5797 14.8567
42.6277 14.765
42.6755 14.7135
42.7235 14.6659
42.7713 14.6025
42.8193 14.5515
42.8671 14.5242
42.9152 14.494
42.963 14.4315
43.0111 14.4005
43.0589 14.3619
43.107 14.2657
43.1549 14.2784
43.2029 14.187
43.2508 14.1288
43.2989 14.1
43.3468 14.0223
43.3949 13.992
43.4429 13.9708
43.491 13.9037
43.5389 13.8609
43.5871 13.8018
43.635 13.7547
43.6832 13.7145
43.7312 13.605
43.7793 13.6142
43.8273 13.525
43.8755 13.4408
43.9237 13.4837
43.9717 13.4428
44.0199 13.3965
44.068 13.3516
44.1162 13.3113
44.1642 13.2487
44.2125 13.1947
44.2606 13.135
44.3088 13.1074
44.3569 13.0929
44.4052 13.0097
44.4533 12.9844
44.5016 12.9258
44.5497 12.8941
44.598 12.8202
44.6461 12.8007
44.6945 12.7276
44.7426 12.712
44.791 12.64
44.8391 12.6207
44.8875 12.5622
44.9357 12.56
44.984 12.4829
45.0322 12.4275
45.0806 12.4083
45.1288 12.3206
45.1773 12.2883
45.2257 12.2703
45.2739 12.2469
45.3224 12.2022
45.3706 12.0843
45.4191 12.0892
45.4673 12.0267
45.5158 11.97
45.5641 11.941
45.6126 11.9447
45.6609 11.8751
45.7094 11.8258
45.7577 11.8369
45.8063 11.7146
45.8546 11.7094
45.9031 11.6235
45.9515 11.6117
46.0001 11.5852
46.0484 11.5832
46.097 11.4957
46.1454 11.4837
46.194 11.4604
46.2424 11.3718
46.291 11.3369
46.3395 11.3105
46.3881 11.2293
46.4365 11.2317
46.4852 11.1772
46.5337 11.0981
46.5823 11.0771
46.631 11.05
46.6795 11.0279
46.7282 10.9899
46.7767 10.9012
46.8254 10.8728
46.8739 10.8404
46.9226 10.8109
46.9712 10.7514
47.0199 10.7234
47.0685 10.6707
47.1173 10.6227
47.1658 10.5854
47.2146 10.5854
47.2632 10.5239
47.312 10.4799
47.3606 10.4757
47.4095 10.3812
47.4581 10.3699
47.5069 10.2941
47.5556 10.3101
47.6044 10.2513
47.6531 10.1893
47.702 10.1843
47.7507 10.1382
47.7996 10.081
47.8483 10.0409
47.8972 10.0478
47.9461 9.97998
47.9948 9.94363
48.0438 9.91094
48.0925 9.8972
48.1415 9.83317
48.1902 9.79502
48.2392 9.8189
48.288 9.79221
48.337 9.71062
48.3858 9.66824
48.4348 9.63074
48.4837 9.6533
48.5327 9.59061
48.5815 9.50934
48.6306 9.52505
48.6795 9.45057
48.7285 9.39632
48.7774 9.41982
48.8265 9.40216
48.8754 9.29935
48.9245 9.30009
48.9734 9.25929
49.0226 9.23649
49.0715 9.17246
49.1206 9.16061
49.1696 9.07627
49.2188 9.07662
49.2679 9.0582
49.3169 9.0552
49.3661 8.97071
49.4151 8.97234
49.4643 8.91204
49.5134 8.87089
49.5626 8.84046
49.6117 8.7993
49.6609 8.77597
49.71 8.73264
49.7592 8.71451
49.8083 8.66077
49.8576 8.66025
49.9067 8.62283
49.956 8.62154
50.0052 8.57441
50.0545 8.53385
50.1036 8.47959
50.153 8.45314
50.2022 8.40463
50.2515 8.39478
50.3007 8.30923
50.3501 8.33323
50.3993 8.31615
50.4487 8.26779
50.498 8.2289
50.5474 8.20683
50.5966 8.12339
50.6461 8.15448
50.6955 8.0992
50.7448 8.05926
50.7943 8.046
50.8436 7.98937
50.8931 7.98792
50.9424 7.94572
50.9919 7.91324
51.0413 7.90914
51.0908 7.83739
51.1402 7.8518
51.1897 7.76889
51.2391 7.7765
51.2887 7.69678
51.3381 7.6884
51.3877 7.6706
51.4371 7.6167
51.4867 7.59564
51.5362 7.55272
51.5858 7.54145
51.6353 7.49258
51.6849 7.44932
51.7344 7.44213
51.7841 7.4131
51.8336 7.40367
51.8833 7.35666
51.9328 7.326
51.9826 7.26821
52.0323 7.27655
52.0818 7.23569
52.1316 7.19928
52.1812 7.18152
52.231 7.14673
52.2806 7.09246
52.3304 7.08761
52.38 7.07091
52.4298 7.01777
52.4794 6.98369
52.5293 6.96752
52.5789 6.94085
52.6288 6.88653
52.6785 6.88447
52.7284 6.81545
52.7781 6.84742
52.828 6.81395
52.8777 6.74432
52.9276 6.72418
52.9774 6.70552
53.0273 6.71046
53.0771 6.66965
53.1271 6.67446
53.1769 6.56957
53.2269 6.58033
53.2767 6.54864
53.3267 6.50325
53.3765 6.53111
53.4266 6.48368
53.4766 6.46667
53.5265 6.40084
53.5765 6.40151
53.6264 6.33346
53.6765 6.33805
53.7264 6.26998
53.7765 6.25321
53.8265 6.22174
53.8766 6.19779
53.9266 6.17621
53.9767 6.12782
54.0267 6.13735
54.0769 6.07139
54.1269 6.0404
54.1771 5.99503
54.2271 6.0144
54.2773 5.93404
54.3274 5.96907
54.3776 5.86709
54.4277 5.86132
54.478 5.78641
54.528 5.75367
54.5783 5.72227
54.6285 5.66141
54.6788 5.6332
54.7289 5.58308
54.7792 5.54136
54.8296 5.47368
54.8798 5.47439
54.9301 5.44195
54.9803 5.37702
55.0307 5.38656
55.0809 5.26123
55.1314 5.2646
55.1816 5.18491
55.232 5.16808
55.2823 5.06677
55.3328 5.02743
55.383 4.96845
55.4335 4.92748
55.4838 4.92024
55.5344 4.88868
55.5847 4.86014
55.6352 4.75765
55.6856 4.79932
55.7361 4.72023