File: XRD/Ni3Fe_FD0864.xy
TT I
1.27165 6.98827
1.31627 6.27792
1.36089 6.35116
1.40551 5.97872
1.45013 6.12698
1.49476 5.47763
1.53938 5.63217
1.584 4.84899
1.62863 5.4426
1.67325 5.10052
1.71787 4.56311
1.7625 4.09393
1.80712 4.75155
1.85174 5.01516
1.89636 4.75361
1.94099 5.32814
1.98562 4.70351
2.03025 4.56584
2.07487 4.78116
2.11949 4.82579
2.16411 5.0964
2.20874 15.44
2.25338 24.9788
2.298 6.55623
2.34263 4.99309
2.38725 5.78102
2.43188 6.77234
2.4765 6.93623
2.52115 7.2812
2.56577 8.21057
2.6104 8.50211
2.65503 7.91841
2.69965 8.11235
2.7443 8.63795
2.78893 8.63617
2.83356 8.07493
2.87818 8.83789
2.92281 9.63017
2.96744 9.80695
3.01209 10.1873
3.05672 11.5237
3.10135 12.1153
3.14599 13.3192
3.19062 14.6161
3.23527 15.5851
3.2799 15.8458
3.32454 16.879
3.36917 17.5609
3.4138 18.9969
3.45844 19.311
3.50309 20.6346
3.54773 21.9157
3.59237 24.2133
3.637 97.051
3.68164 61.3805
3.7263 26.3562
3.77094 26.3533
3.81558 27.0294
3.86022 27.262
3.90486 28.7939
3.9495 29.5203
3.99416 30.8179
4.0388 32.1441
4.08344 33.4628
4.12809 34.8138
4.17273 36.7132
4.21738 42.7605
4.26204 259.955
4.30669 233.102
4.35133 48.8622
4.39598 44.111
4.44063 53.5152
4.4853 66.5382
4.52995 49.7683
4.5746 50.7826
4.61925 52.2833
4.6639 54.2107
4.70855 57.3189
4.75322 60.2508
4.79788 62.7132
4.84253 65.9951
4.88719 70.0052
4.93184 73.4404
4.97652 78.5903
5.02118 84.4591
5.06583 91.9993
5.11049 101.913
5.15515 168.022
5.19981 292.304
5.24449 2425.54
5.28916 12581.5
5.33382 2818.7
5.37848 177.191
5.42315 124.929
5.46783 110.87
5.5125 103.876
5.55716 99.6187
5.60183 96.8945
5.6465 95.134
5.69117 92.4563
5.73586 90.4153
5.78053 89.9384
5.8252 88.8253
5.86988 89.3422
5.91455 91.0039
5.95924 96.9464
6.00392 172.423
6.0486 817.991
6.09328 4350.05
6.13795 3244.02
6.18263 223.339
6.22733 90.476
6.27201 81.3486
6.3167 102.132
6.36138 80.2392
6.40606 68.2103
6.45075 66.519
6.49545 64.7449
6.54014 63.1472
6.58483 62.175
6.62952 62.4786
6.67421 94.5255
6.71892 148.4
6.76361 69.2286
6.8083 57.9281
6.853 56.8962
6.89769 56.1192
6.94239 56.2948
6.98711 55.4045
7.03181 54.9163
7.07651 54.4437
7.12121 54.6781
7.16591 54.8215
7.21063 55.2906
7.25533 71.0417
7.30004 183.71
7.34475 93.4394
7.38945 56.291
7.43416 54.2123
7.47889 54.0651
7.5236 54.0505
7.56831 54.7527
7.61303 56.501
7.65774 57.0278
7.70247 55.6466
7.74719 55.5694
7.79191 55.9893
7.83663 55.998
7.88135 56.9959
7.92607 57.7098
7.97081 59.0275
8.01553 59.8366
8.06026 61.4456
8.10498 63.0262
8.14971 72.9314
8.19446 71.6189
8.23919 68.8262
8.28392 70.5894
8.32865 72.8331
8.37339 76.4253
8.41812 83.5722
8.46288 112.168
8.50761 144.606
8.55235 334.971
8.59709 1129.7
8.64183 2239.71
8.68658 962.069
8.73134 172.122
8.77609 97.7085
8.82083 91.0274
8.86558 88.1358
8.91033 88.3981
8.9551 90.3559
8.99985 84.1603
9.04461 82.3832
9.08936 81.3194
9.13412 80.833
9.17888 80.7487
9.22365 81.4316
9.26841 81.1034
9.31318 81.3387
9.35794 81.1469
9.4027 81.5035
9.44749 82.39
9.49226 82.9046
9.53703 83.9628
9.5818 85.7348
9.62657 90.7622
9.67134 97.7937
9.71614 92.4259
9.76091 92.2505
9.80569 94.8043
9.85047 97.9503
9.89525 123.012
9.94005 134.043
9.98484 156.822
10.0296 301.308
10.0744 759.874
10.1192 1767.3
10.164 1597.86
10.2088 405.182
10.2536 124.714
10.2984 111.959
10.3432 113.526
10.388 102.423
10.4328 111.934
10.4776 147.895
10.5224 266.167
10.5672 521.641
10.612 504.749
10.6568 203.797
10.7017 95.6693
10.7465 85.1235
10.7913 82.1145
10.8361 79.9204
10.8809 77.618
10.9257 77.6627
10.9706 78.0462
11.0154 73.8113
11.0602 71.8374
11.105 71.0873
11.1499 75.4856
11.1947 83.1017
11.2395 74.2036
11.2844 69.7303
11.3292 66.5245
11.374 65.382
11.4189 64.3516
11.4637 64.3207
11.5086 64.7409
11.5534 67.6531
11.5983 64.7567
11.6431 62.9259
11.688 61.9834
11.7328 61.9098
11.7777 61.9044
11.8225 61.6241
11.8674 61.4981
11.9122 62.209
11.9571 62.0509
12.002 62.281
12.0468 65.2467
12.0917 75.172
12.1366 97.8751
12.1814 150.371
12.2263 207.479
12.2712 168.429
12.3161 96.9088
12.3609 70.2241
12.4058 63.8417
12.4507 63.4653
12.4956 63.6476
12.5405 63.7214
12.5853 64.5037
12.6302 72.9285
12.6751 78.3793
12.72 69.1641
12.7649 66.6064
12.8098 67.2049
12.8547 68.3847
12.8996 69.9917
12.9445 70.7473
12.9894 72.4754
13.0343 74.1989
13.0792 78.5305
13.1242 84.1756
13.1691 104.798
13.214 138.797
13.2589 228.259
13.3038 369.102
13.3487 421.832
13.3937 260.448
13.4386 122.531
13.4835 100.644
13.5285 113.349
13.5734 150.456
13.6183 242.944
13.6633 352.076
13.7082 341.437
13.7531 183.691
13.7981 95.9246
13.843 80.4911
13.888 78.4044
13.9329 75.8655
13.9779 74.4752
14.0228 73.1911
14.0678 71.8675
14.1127 71.6512
14.1577 71.2381
14.2027 70.3895
14.2476 69.4195
14.2926 69.6668
14.3376 70.6744
14.3825 69.1376
14.4275 67.678
14.4725 67.5976
14.5175 67.6356
14.5624 67.9588
14.6074 70.2893
14.6524 70.8349
14.6974 69.2068
14.7424 70.1071
14.7874 75.4191
14.8324 84.2944
14.8774 105.032
14.9224 150.129
14.9674 209.454
15.0124 217.812
15.0574 147.146
15.1024 89.5464
15.1474 71.0842
15.1924 69.6302
15.2374 70.2101
15.2824 69.3324
15.3274 67.1185
15.3725 65.7826
15.4175 65.199
15.4625 64.9902
15.5076 65.4036
15.5526 65.2765
15.5976 64.5963
15.6426 64.9767
15.6877 69.3533
15.7327 76.202
15.7778 90.3935
15.8228 122.745
15.8679 170.429
15.9129 195.576
15.958 155.853
16.003 93.9424
16.0481 67.0891
16.0931 64.0923
16.1382 61.7867
16.1833 59.5989
16.2283 58.2101
16.2734 57.6242
16.3185 57.9771
16.3636 58.8456
16.4086 57.1865
16.4537 55.5183
16.4988 54.6336
16.5439 54.5986
16.589 54.1571
16.6341 53.9934
16.6792 53.6846
16.7243 54.089
16.7694 54.2615
16.8145 53.9929
16.8596 54.374
16.9047 55.9863
16.9498 56.2663
16.9949 54.7588
17.04 54.8948
17.0851 55.7733
17.1302 57.266
17.1754 60.3824
17.2205 65.1948
17.2656 73.4966
17.3108 83.0065
17.3559 82.3843
17.401 70.3582
17.4462 60.8946
17.4913 58.256
17.5365 58.1995
17.5815 58.254
17.6268 58.6871
17.6718 59.4135
17.7171 60.034
17.7622 60.2619
17.8074 60.6427
17.8525 62.3624
17.8977 66.0142
17.9428 71.3737
17.9881 79.7025
18.0331 97.4732
18.0784 120.909
18.1237 138.719
18.1688 128.39
18.214 100.877
18.2591 84.3702
18.3044 89.4181
18.3495 100.317
18.3948 105.046
18.4399 95.0878
18.4852 76.7198
18.5303 65.0265
18.5756 61.2273
18.6207 60.31
18.666 59.6209
18.7112 58.7876
18.7565 58.0059
18.8016 57.5309
18.8469 57.1282
18.892 56.7779
18.9374 56.1886
18.9825 56.1588
19.0278 56.0022
19.073 56.0326
19.1183 56.3616
19.1635 57.2052
19.2088 58.2262
19.254 60.9151
19.2993 65.5129
19.3447 72.1329
19.3898 76.0744
19.4352 71.3315
19.4804 62.4493
19.5257 55.771
19.5709 53.3865
19.6163 53.2529
19.6615 52.9802
19.7068 52.4909
19.752 52.5082
19.7974 52.6614
19.8426 53.3713
19.888 54.0622
19.9332 55.3007
19.9786 57.5216
20.0238 61.4757
20.0692 66.479
20.1144 69.0381
20.1598 66.9247
20.205 62.3015
20.2504 61.2435
20.2957 63.6905
20.3411 65.5211
20.3863 63.5738
20.4318 57.7387
20.477 53.009
20.5224 50.9422
20.5677 50.4058
20.6131 49.6061
20.6586 48.8002
20.7038 48.8686
20.7493 48.2226
20.7945 48.3541
20.84 48.1318
20.8853 48.0406
20.9307 47.9664
20.976 48.0938
21.0215 47.8117
21.0668 48.3297
21.1122 48.7306
21.1575 49.4077
21.203 50.253
21.2483 50.7641
21.2938 50.5535
21.3391 49.2992
21.3846 48.2689
21.4299 47.6369
21.4754 47.6629
21.5207 47.6731
21.5662 47.9988
21.6116 48.2779
21.6571 48.8178
21.7024 49.764
21.7479 51.5118
21.7933 54.2281
21.8388 58.311
21.8843 62.1751
21.9297 63.7292
21.9752 62.3375
22.0206 58.5899
22.0661 55.8477
22.1115 55.7319
22.157 55.1611
22.2024 53.3489
22.248 50.6315
22.2933 49.2201
22.3389 48.5437
22.3843 48.3596
22.4299 48.339
22.4753 48.1083
22.5208 47.9111
22.5662 47.7051
22.6118 47.9791
22.6572 48.0567
22.7028 48.4921
22.7483 48.7693
22.7939 49.3501
22.8393 50.9952
22.8849 53.3496
22.9303 55.4481
22.9759 57.2541
23.0214 56.7174
23.067 53.8032
23.1126 50.6493
23.1581 48.4658
23.2037 48.0673
23.2492 48.1161
23.2948 48.0855
23.3403 48.0777
23.3859 48.7667
23.4314 49.8288
23.477 51.835
23.5225 54.1931
23.5682 56.3611
23.6137 57.3824
23.6593 54.8548
23.7048 50.943
23.7505 47.7868
23.796 46.0056
23.8417 45.4496
23.8872 44.9432
23.9329 44.5876
23.9784 44.2775
24.0241 44.1236
24.0697 43.8405
24.1154 43.4906
24.1609 43.492
24.2066 43.433
24.2522 43.0945
24.2979 42.8926
24.3434 42.6831
24.3892 42.5363
24.4349 42.3653
24.4805 42.4025
24.5262 42.5511
24.5718 42.5333
24.6175 42.2284
24.6631 42.1167
24.7089 42.0608
24.7545 41.8321
24.8002 41.6754
24.8458 41.6839
24.8916 41.393
24.9372 41.5233
24.983 41.9021
25.0286 42.2333
25.0744 42.6787
25.12 43.1343
25.1658 43.8288
25.2114 43.9682
25.2572 44.0739
25.3029 44.3409
25.3487 44.5232
25.3943 44.0712
25.4402 43.0455
25.4858 41.9819
25.5316 40.9109
25.5773 40.5536
25.6231 40.3402
25.669 39.8656
25.7147 40.1011
25.7605 39.8376
25.8062 39.909
25.8521 40.2171
25.8977 40.0657
25.9436 40.2521
25.9893 40.3743
26.0352 40.9749
26.0809 41.0155
26.1268 41.1288
26.1725 40.705
26.2184 40.1385
26.2641 39.677
26.31 39.5528
26.3557 39.6259
26.4017 39.4218
26.4474 39.6627
26.4933 40.1156
26.5391 40.5971
26.585 41.1564
26.6308 41.3636
26.6767 41.6085
26.7225 41.3701
26.7684 40.8729
26.8142 40.4072
26.8601 39.8436
26.9059 39.4964
26.9519 38.9876
26.9979 38.5813
27.0437 38.3284
27.0896 38.2074
27.1354 38.0187
27.1814 38.1618
27.2272 37.972
27.2732 37.9358
27.3191 37.7396
27.3651 37.9753
27.4109 37.8225
27.4569 37.9265
27.5027 37.985
27.5488 38.1635
27.5946 37.9343
27.6407 37.7171
27.6865 37.5535
27.7326 37.442
27.7784 37.1499
27.8245 37.3369
27.8703 37.515
27.9164 37.7441
27.9623 37.915
28.0084 38.1713
28.0543 38.594
28.1003 38.5227
28.1462 38.2377
28.1923 37.9905
28.2384 37.4433
28.2843 37.0845
28.3304 36.7034
28.3764 36.2751
28.4225 35.8477
28.4684 35.8097
28.5145 35.4856
28.5605 35.3857
28.6066 35.2349
28.6526 35.2193
28.6987 35.1369
28.7447 35.0935
28.7908 34.964
28.8368 34.9576
28.8829 35.0664
28.9289 34.8879
28.9751 34.6385
29.0211 34.5546
29.0673 34.3332
29.1133 34.2512
29.1595 33.9167
29.2055 33.8692
29.2517 33.9419
29.2977 33.9681
29.3439 33.8283
29.3899 33.8258
29.4361 33.8675
29.4824 33.6102
29.5284 33.2956
29.5746 33.0215
29.6207 32.7083
29.6669 32.6798
29.713 32.5219
29.7593 32.4988
29.8053 32.4503
29.8516 32.3345
29.8977 32.3654
29.9439 32.1454
29.99 32.1242
30.0363 32.0675
30.0824 32.1381
30.1287 31.9679
30.1748 32.0024
30.2211 32.0144
30.2673 31.8313
30.3136 31.9963
30.3597 31.821
30.406 31.6944
30.4522 31.6047
30.4985 31.6164
30.5447 31.766
30.591 31.5794
30.6372 31.7515
30.6835 31.8544
30.7297 31.8086
30.7761 31.6685
30.8224 31.4894
30.8686 31.4135
30.915 31.2643
30.9612 31.1237
31.0076 30.8704
31.0538 30.6931
31.1002 30.7817
31.1464 30.6395
31.1928 30.4937
31.2391 30.6185
31.2855 30.4408
31.3317 30.4304
31.3781 30.5264
31.4244 30.5892
31.4708 30.3384
31.5171 30.4853
31.5636 30.3304
31.6098 30.1363
31.6563 30.0241
31.7026 29.8739
31.7491 29.7268
31.7953 29.7905
31.8418 29.7065
31.8881 29.7613
31.9346 29.7235
31.9809 29.5955
32.0275 29.46
32.074 29.4177
32.1203 29.2267
32.1668 29.1503
32.2132 29.0517
32.2597 28.8796
32.306 28.765
32.3526 28.5622
32.399 28.5522
32.4455 28.4708
32.4919 28.368
32.5385 28.2641
32.5848 28.0808
32.6314 28.0277
32.6778 28.0949
32.7244 27.8692
32.7708 27.8096
32.8174 27.8016
32.8638 27.6937
32.9104 27.6618
32.9569 27.6759
33.0035 27.4758
33.0499 27.4344
33.0966 27.501
33.143 27.4125
33.1897 27.4248
33.2361 27.1628
33.2828 27.2335
33.3293 26.997
33.3759 27.0581
33.4226 26.8702
33.4691 26.6943
33.5158 26.6644
33.5623 26.5341
33.609 26.3694
33.6555 26.3224
33.7022 26.2191
33.7487 26.1106
33.7954 26.1808
33.842 26.0678
33.8887 25.9803
33.9353 25.9413
33.982 25.8782
34.0286 25.8087
34.0753 25.6888
34.1219 25.5934
34.1687 25.445
34.2152 25.5302
34.262 25.4188
34.3086 25.2229
34.3554 25.2711
34.402 25.0609
34.4488 24.974
34.4954 24.9516
34.5422 24.8318
34.5889 24.7521
34.6357 24.6311
34.6825 24.5852
34.7292 24.4538
34.776 24.5124
34.8227 24.357
34.8695 24.3001
34.9162 24.3278
34.9631 24.2175
35.0098 24.2471
35.0566 24.0873
35.1033 23.9073
35.1502 23.8893
35.1969 23.8168
35.2438 23.8726
35.2906 23.8104
35.3375 23.8372
35.3842 23.6705
35.4311 23.7048
35.4779 23.6484
35.5248 23.7139
35.5716 23.4414
35.6185 23.4555
35.6653 23.3336
35.7123 23.3138
35.759 23.0824
35.806 23.0001
35.8528 22.8677
35.8998 22.9663
35.9468 22.8195
35.9936 22.7932
36.0406 22.7501
36.0874 22.6211
36.1345 22.6576
36.1813 22.5886
36.2283 22.4539
36.2752 22.367
36.3222 22.3758
36.3691 22.2652
36.4161 22.1381
36.463 22.1261
36.5101 22.2039
36.557 22.1681
36.6041 21.8938
36.651 21.8626
36.6981 21.8569
36.745 21.7318
36.7921 21.7131
36.839 21.6258
36.8861 21.5392
36.9331 21.4766
36.9802 21.3914
37.0272 21.3402
37.0743 21.1837
37.1213 21.2554
37.1684 21.0882
37.2154 21.0423
37.2626 20.9732
37.3098 20.9407
37.3568 20.9011
37.404 20.7693
37.451 20.7707
37.4982 20.6826
37.5452 20.6201
37.5924 20.551
37.6395 20.5601
37.6867 20.4482
37.7337 20.3997
37.781 20.2461
37.8281 20.2831
37.8753 20.0839
37.9224 20.0268
37.9697 19.9782
38.0168 19.9341
38.064 19.8596
38.1111 19.8669
38.1584 19.76
38.2056 19.7341
38.2529 19.6643
38.3 19.5783
38.3473 19.5597
38.3945 19.4175
38.4418 19.4429
38.489 19.379
38.5363 19.2591
38.5837 19.1553
38.6309 19.2333
38.6782 19.0925
38.7254 18.9547
38.7728 18.9021
38.82 18.7904
38.8674 18.9086
38.9146 18.7478
38.9621 18.7543
39.0093 18.7107
39.0567 18.5912
39.104 18.5431
39.1514 18.5063
39.1987 18.4212
39.2461 18.4601
39.2934 18.2993
39.3409 18.2457
39.3882 18.1456
39.4356 18.1106
39.483 18.133
39.5304 18.0055
39.5778 18.0062
39.6253 17.9758
39.6726 17.8859
39.7201 17.8454
39.7675 17.7915
39.815 17.7389
39.8624 17.6003
39.9099 17.6444
39.9575 17.5272
40.0049 17.439
40.0525 17.3654
40.0999 17.3411
40.1474 17.3501
40.1949 17.177
40.2425 17.1702
40.2899 17.1366
40.3375 17.1033
40.385 17.0159
40.4326 16.9726
40.48 16.9318
40.5277 16.9334
40.5752 16.8436
40.6228 16.707
40.6703 16.6735
40.718 16.7039
40.7655 16.6008
40.8132 16.5289
40.8607 16.5698
40.9084 16.4396
40.9559 16.3931
41.0036 16.407
41.0512 16.3652
41.0989 16.2721
41.1465 16.2277
41.1942 16.1725
41.242 16.0519
41.2896 16.0074
41.3373 15.9767
41.3849 15.9502
41.4327 15.8453
41.4803 15.7595
41.5281 15.7842
41.5758 15.706
41.6236 15.6551
41.6712 15.5796
41.7191 15.5162
41.7667 15.5002
41.8146 15.4563
41.8622 15.4109
41.9101 15.3596
41.9578 15.2208
42.0057 15.2433
42.0534 15.2173
42.1013 15.1829
42.149 15.1317
42.1969 15.0596
42.2446 14.9809
42.2925 15.0095
42.3403 14.8603
42.3882 14.877
42.436 14.7981
42.4839 14.7198
42.5319 14.7269
42.5797 14.6189
42.6277 14.5806
42.6755 14.5496
42.7235 14.4742
42.7713 14.4566
42.8193 14.3482
42.8671 14.3457
42.9152 14.2917
42.963 14.2472
43.0111 14.1734
43.0589 14.1595
43.107 14.1274
43.1549 14.0923
43.2029 14.0542
43.2508 13.9846
43.2989 13.8927
43.3468 13.7893
43.3949 13.7523
43.4429 13.7429
43.491 13.6827
43.5389 13.6545
43.5871 13.6417
43.635 13.5602
43.6832 13.5741
43.7312 13.4915
43.7793 13.4673
43.8273 13.4141
43.8755 13.3229
43.9237 13.3191
43.9717 13.2308
44.0199 13.2081
44.068 13.2067
44.1162 13.0686
44.1642 13.1075
44.2125 13.0346
44.2606 13.0014
44.3088 12.9266
44.3569 12.8968
44.4052 12.8455
44.4533 12.7528
44.5016 12.7252
44.5497 12.7475
44.598 12.6699
44.6461 12.6255
44.6945 12.551
44.7426 12.528
44.791 12.442
44.8391 12.4474
44.8875 12.413
44.9357 12.3487
44.984 12.3596
45.0322 12.2881
45.0806 12.2377
45.1288 12.2081
45.1773 12.0997
45.2257 12.1281
45.2739 12.0585
45.3224 12.0446
45.3706 11.9622
45.4191 11.902
45.4673 11.8841
45.5158 11.8945
45.5641 11.8228
45.6126 11.7905
45.6609 11.7068
45.7094 11.687
45.7577 11.611
45.8063 11.5848
45.8546 11.5526
45.9031 11.5215
45.9515 11.4871
46.0001 11.441
46.0484 11.3858
46.097 11.3637
46.1454 11.3352
46.194 11.2741
46.2424 11.2531
46.291 11.1647
46.3395 11.1725
46.3881 11.0544
46.4365 11.0553
46.4852 11.0542
46.5337 10.9391
46.5823 10.9684
46.631 10.8848
46.6795 10.8835
46.7282 10.8292
46.7767 10.7845
46.8254 10.7005
46.8739 10.7172
46.9226 10.6638
46.9712 10.6312
47.0199 10.5954
47.0685 10.5417
47.1173 10.5024
47.1658 10.4787
47.2146 10.4675
47.2632 10.4083
47.312 10.3536
47.3606 10.307
47.4095 10.2682
47.4581 10.2013
47.5069 10.2109
47.5556 10.1564
47.6044 10.1338
47.6531 10.0724
47.702 10.0304
47.7507 10.0146
47.7996 9.99369
47.8483 9.92018
47.8972 9.87141
47.9461 9.85109
47.9948 9.7865
48.0438 9.80804
48.0925 9.78865
48.1415 9.72149
48.1902 9.67396
48.2392 9.64412
48.288 9.63947
48.337 9.61317
48.3858 9.54
48.4348 9.52029
48.4837 9.53834
48.5327 9.4446
48.5815 9.40685
48.6306 9.40534
48.6795 9.38302
48.7285 9.28525
48.7774 9.27632
48.8265 9.25184
48.8754 9.18403
48.9245 9.18279
48.9734 9.12657
49.0226 9.1267
49.0715 9.0536
49.1206 9.04143
49.1696 9.00912
49.2188 8.93967
49.2679 8.90806
49.3169 8.92831
49.3661 8.86717
49.4151 8.85328
49.4643 8.82348
49.5134 8.73884
49.5626 8.68665
49.6117 8.69524
49.6609 8.65513
49.71 8.58979
49.7592 8.58145
49.8083 8.53578
49.8576 8.53682
49.9067 8.48589
49.956 8.44646
50.0052 8.45368
50.0545 8.39704
50.1036 8.33049
50.153 8.37001
50.2022 8.29195
50.2515 8.25363
50.3007 8.20704
50.3501 8.22775
50.3993 8.17852
50.4487 8.17172
50.498 8.12888
50.5474 8.08621
50.5966 8.04378
50.6461 8.00749
50.6955 7.97151
50.7448 7.97
50.7943 7.95631
50.8436 7.91413
50.8931 7.87462
50.9424 7.84926
50.9919 7.76691
51.0413 7.79294
51.0908 7.72599
51.1402 7.72324
51.1897 7.7027
51.2391 7.66287
51.2887 7.60701
51.3381 7.57715
51.3877 7.59244
51.4371 7.49822
51.4867 7.49342
51.5362 7.45404
51.5858 7.41965
51.6353 7.38561
51.6849 7.37971
51.7344 7.33923
51.7841 7.3191
51.8336 7.26487
51.8833 7.25173
51.9328 7.17023
51.9826 7.14047
52.0323 7.1571
52.0818 7.13218
52.1316 7.10577
52.1812 7.09421
52.231 7.02392
52.2806 7.03872
52.3304 6.99976
52.38 6.98169
52.4298 6.94743
52.4794 6.87229
52.5293 6.87077
52.5789 6.80664
52.6288 6.80065
52.6785 6.8118
52.7284 6.7262
52.7781 6.725
52.828 6.67272
52.8777 6.68056
52.9276 6.64061
52.9774 6.61071
53.0273 6.59253
53.0771 6.54557
53.1271 6.54652
53.1769 6.50408
53.2269 6.47966
53.2767 6.41569
53.3267 6.45232
53.3765 6.40278
53.4266 6.39963
53.4766 6.30568
53.5265 6.28678
53.5765 6.29983
53.6264 6.27803
53.6765 6.25906
53.7264 6.16391
53.7765 6.18068
53.8265 6.13955
53.8766 6.12538
53.9266 6.11398
53.9767 6.04923
54.0267 6.03635
54.0769 6.0047
54.1269 6.0111
54.1771 5.92825
54.2271 5.93052
54.2773 5.8524
54.3274 5.87582
54.3776 5.85401
54.4277 5.79447
54.478 5.76386
54.528 5.74514
54.5783 5.74825
54.6285 5.63756
54.6788 5.64219
54.7289 5.60452
54.7792 5.52824
54.8296 5.47679
54.8798 5.44037
54.9301 5.43786
54.9803 5.37528
55.0307 5.38487
55.0809 5.30318
55.1314 5.31591
55.1816 5.1961
55.232 5.17201
55.2823 5.14928
55.3328 5.05532
55.383 5.02837
55.4335 5.00462
55.4838 4.91338
55.5344 4.91847
55.5847 4.84407
55.6352 4.84498
55.6856 4.76941
55.7361 4.73021