File: XRD/Ni3Fe_FD0532.xy
TT I
1.27165 7.762
1.31627 6.89078
1.36089 6.7149
1.40551 6.70259
1.45013 6.30243
1.49476 5.61256
1.53938 6.06895
1.584 5.31055
1.62863 5.56934
1.67325 4.80707
1.71787 5.11224
1.7625 5.02939
1.80712 4.74562
1.85174 4.75399
1.89636 4.70949
1.94099 4.75386
1.98562 4.9321
2.03025 4.75783
2.07487 4.74329
2.11949 4.76352
2.16411 4.84268
2.20874 16.6465
2.25338 28.5991
2.298 6.5424
2.34263 4.83698
2.38725 5.64575
2.43188 6.25896
2.4765 6.18837
2.52115 6.10388
2.56577 6.61881
2.6104 7.74688
2.65503 7.29677
2.69965 7.21769
2.7443 8.41013
2.78893 7.88254
2.83356 7.91874
2.87818 8.43093
2.92281 8.99648
2.96744 9.87663
3.01209 10.3036
3.05672 10.9218
3.10135 12.0202
3.14599 13.0827
3.19062 13.9846
3.23527 15.2263
3.2799 15.6426
3.32454 17.1789
3.36917 17.7713
3.4138 18.7383
3.45844 19.9358
3.50309 21.1762
3.54773 22.272
3.59237 24.472
3.637 114.194
3.68164 70.9459
3.7263 26.6736
3.77094 26.2387
3.81558 27.0529
3.86022 27.8589
3.90486 29.0617
3.9495 29.9647
3.99416 31.3424
4.0388 33.009
4.08344 34.4545
4.12809 35.7155
4.17273 38.0781
4.21738 45.3203
4.26204 307.518
4.30669 279.353
4.35133 51.1904
4.39598 45.3986
4.44063 56.6278
4.4853 71.7598
4.52995 50.8422
4.5746 51.6663
4.61925 53.6801
4.6639 56.015
4.70855 58.3359
4.75322 61.1425
4.79788 64.0905
4.84253 67.1778
4.88719 71.4483
4.93184 75.4017
4.97652 80.8689
5.02118 87.291
5.06583 94.7734
5.11049 107.512
5.15515 192.294
5.19981 370.412
5.24449 2724.03
5.28916 11866.4
5.33382 3334.05
5.37848 206.413
5.42315 133.905
5.46783 115.869
5.5125 107.123
5.55716 103.418
5.60183 99.5826
5.6465 98.0204
5.69117 94.7624
5.73586 92.9046
5.78053 92.3442
5.8252 91.2616
5.86988 92.9005
5.91455 95.1193
5.95924 102.716
6.00392 206.649
6.0486 940.487
6.09328 4081.79
6.13795 3565.51
6.18263 297.711
6.22733 97.3067
6.27201 85.6865
6.3167 112.103
6.36138 84.898
6.40606 69.7625
6.45075 68.4353
6.49545 66.2592
6.54014 64.6329
6.58483 64.3514
6.62952 63.9492
6.67421 103.096
6.71892 173.083
6.76361 72.9384
6.8083 59.7376
6.853 58.2136
6.89769 57.6095
6.94239 57.3855
6.98711 56.4759
7.03181 56.5196
7.07651 56.2602
7.12121 56.3669
7.16591 56.4785
7.21063 56.669
7.25533 74.5103
7.30004 220.707
7.34475 105.545
7.38945 57.7254
7.43416 55.6152
7.47889 55.0191
7.5236 55.8104
7.56831 56.1141
7.61303 58.3829
7.65774 58.9811
7.70247 57.0459
7.74719 56.8402
7.79191 57.4799
7.83663 57.4886
7.88135 58.612
7.92607 59.2424
7.97081 60.4911
8.01553 61.3936
8.06026 62.9713
8.10498 64.3877
8.14971 76.3979
8.19446 74.7316
8.23919 70.3151
8.28392 72.3935
8.32865 74.5933
8.37339 78.8698
8.41812 86.4086
8.46288 122.104
8.50761 165.007
8.55235 378.26
8.59709 1097.5
8.64183 2158.8
8.68658 1084.86
8.73134 196.052
8.77609 102.06
8.82083 94.1426
8.86558 90.7887
8.91033 91.2776
8.9551 94.5137
8.99985 86.6646
9.04461 84.4483
9.08936 83.582
9.13412 82.7717
9.17888 82.8571
9.22365 83.9624
9.26841 82.4814
9.31318 82.918
9.35794 83.0551
9.4027 83.7614
9.44749 84.4695
9.49226 85.2854
9.53703 86.0787
9.5818 88.1115
9.62657 93.529
9.67134 102.007
9.71614 94.8959
9.76091 94.5252
9.80569 97.1001
9.85047 101.0
9.89525 130.482
9.94005 145.426
9.98484 173.967
10.0296 331.561
10.0744 751.799
10.1192 1622.41
10.164 1700.39
10.2088 467.29
10.2536 134.219
10.2984 116.947
10.3432 119.566
10.388 106.29
10.4328 117.595
10.4776 157.76
10.5224 268.018
10.5672 493.191
10.612 547.083
10.6568 225.842
10.7017 100.416
10.7465 87.68
10.7913 84.4452
10.8361 82.3311
10.8809 79.8234
10.9257 79.8681
10.9706 81.3139
11.0154 75.9751
11.0602 73.8417
11.105 72.7435
11.1499 78.6131
11.1947 89.2894
11.2395 77.1328
11.2844 72.2425
11.3292 68.2908
11.374 66.6336
11.4189 66.3274
11.4637 65.5823
11.5086 66.5393
11.5534 70.7753
11.5983 67.1483
11.6431 64.5415
11.688 63.9525
11.7328 63.9607
11.7777 63.7684
11.8225 63.1589
11.8674 63.2492
11.9122 63.4937
11.9571 63.6358
12.002 64.0066
12.0468 68.1377
12.0917 79.226
12.1366 102.036
12.1814 146.945
12.2263 202.362
12.2712 177.203
12.3161 105.201
12.3609 73.7435
12.4058 65.8912
12.4507 65.4351
12.4956 65.4557
12.5405 65.325
12.5853 66.4394
12.6302 76.2978
12.6751 83.9782
12.72 72.1483
12.7649 68.8495
12.8098 69.389
12.8547 70.4975
12.8996 71.7393
12.9445 72.7696
12.9894 74.531
13.0343 76.1526
13.0792 79.6604
13.1242 87.9
13.1691 111.719
13.214 146.717
13.2589 225.451
13.3038 349.869
13.3487 438.143
13.3937 292.172
13.4386 131.968
13.4835 106.468
13.5285 120.105
13.5734 154.449
13.6183 233.817
13.6633 336.23
13.7082 354.332
13.7531 202.405
13.7981 103.409
13.843 83.3729
13.888 80.7452
13.9329 77.7835
13.9779 76.6143
14.0228 74.9441
14.0678 74.0683
14.1127 73.4749
14.1577 73.5293
14.2027 72.5844
14.2476 71.1013
14.2926 71.5517
14.3376 73.2544
14.3825 71.7036
14.4275 69.8208
14.4725 69.5589
14.5175 69.4368
14.5624 69.9691
14.6074 72.6052
14.6524 73.1892
14.6974 71.2633
14.7424 72.3119
14.7874 78.65
14.8324 88.5879
14.8774 108.355
14.9224 146.29
14.9674 198.008
15.0124 220.994
15.0574 160.191
15.1024 96.0033
15.1474 74.0155
15.1924 71.5744
15.2374 72.711
15.2824 71.9422
15.3274 69.4428
15.3725 67.5972
15.4175 67.3088
15.4625 66.9121
15.5076 67.2568
15.5526 67.2712
15.5976 66.6429
15.6426 67.1063
15.6877 72.3863
15.7327 79.721
15.7778 93.791
15.8228 121.432
15.8679 163.76
15.9129 194.574
15.958 164.764
16.003 103.686
16.0481 70.735
16.0931 66.5166
16.1382 64.3234
16.1833 61.7056
16.2283 59.9436
16.2734 59.2532
16.3185 59.7514
16.3636 61.0657
16.4086 59.0116
16.4537 57.0996
16.4988 56.2481
16.5439 56.0075
16.589 55.7687
16.6341 55.6245
16.6792 55.2295
16.7243 55.4081
16.7694 55.7657
16.8145 55.634
16.8596 56.0254
16.9047 57.9893
16.9498 58.3123
16.9949 56.6938
17.04 56.4701
17.0851 57.5728
17.1302 59.2393
17.1754 62.0419
17.2205 66.6025
17.2656 73.2101
17.3108 82.0756
17.3559 83.0636
17.401 73.6832
17.4462 63.7794
17.4913 59.9799
17.5365 59.9162
17.5815 59.9541
17.6268 60.2345
17.6718 61.1906
17.7171 61.7355
17.7622 61.9731
17.8074 62.3662
17.8525 64.5084
17.8977 68.6013
17.9428 73.8561
17.9881 81.8259
18.0331 97.0518
18.0784 117.425
18.1237 138.146
18.1688 135.339
18.214 108.863
18.2591 88.3706
18.3044 89.7759
18.3495 98.7764
18.3948 107.093
18.4399 100.894
18.4852 81.5014
18.5303 67.6896
18.5756 63.1529
18.6207 62.075
18.666 61.3767
18.7112 60.5658
18.7565 59.7181
18.8016 59.3932
18.8469 58.7152
18.892 58.2693
18.9374 57.8313
18.9825 57.656
19.0278 57.7506
19.073 57.7316
19.1183 58.3626
19.1635 59.1258
19.2088 60.1872
19.254 62.2469
19.2993 66.2494
19.3447 72.3232
19.3898 77.3162
19.4352 74.5296
19.4804 65.1448
19.5257 57.7725
19.5709 55.0608
19.6163 54.5391
19.6615 54.3766
19.7068 53.9407
19.752 53.9622
19.7974 54.1527
19.8426 55.1511
19.888 55.7132
19.9332 56.5947
19.9786 58.9583
20.0238 61.9757
20.0692 66.8322
20.1144 70.2326
20.1598 69.7176
20.205 64.6528
20.2504 62.5667
20.2957 63.8135
20.3411 66.0265
20.3863 65.6061
20.4318 59.7585
20.477 54.7691
20.5224 52.6853
20.5677 51.8496
20.6131 51.0421
20.6586 50.2226
20.7038 50.2168
20.7493 49.7356
20.7945 49.727
20.84 49.4953
20.8853 49.1938
20.9307 49.0482
20.976 49.2267
21.0215 49.1351
21.0668 49.5458
21.1122 50.1457
21.1575 50.518
21.203 51.3039
21.2483 51.9966
21.2938 52.1939
21.3391 50.9202
21.3846 49.7495
21.4299 49.0112
21.4754 48.9932
21.5207 48.9946
21.5662 49.233
21.6116 49.7577
21.6571 50.4172
21.7024 51.1669
21.7479 52.862
21.7933 55.5077
21.8388 58.5507
21.8843 62.4952
21.9297 65.0319
21.9752 64.7761
22.0206 61.0632
22.0661 57.4343
22.1115 56.3859
22.157 56.655
22.2024 55.3598
22.248 52.6376
22.2933 50.733
22.3389 49.8733
22.3843 49.7347
22.4299 49.5704
22.4753 49.4642
22.5208 49.348
22.5662 49.0325
22.6118 49.0873
22.6572 49.3571
22.7028 49.6947
22.7483 50.2317
22.7939 50.8947
22.8393 52.147
22.8849 54.0209
22.9303 56.0916
22.9759 58.2343
23.0214 58.5292
23.067 55.8322
23.1126 52.1265
23.1581 49.9184
23.2037 49.3927
23.2492 49.3785
23.2948 49.2783
23.3403 49.463
23.3859 50.1602
23.4314 51.0612
23.477 52.7048
23.5225 54.6615
23.5682 56.8933
23.6137 58.5698
23.6593 56.8942
23.7048 53.1142
23.7505 49.2993
23.796 47.1714
23.8417 46.6298
23.8872 46.0979
23.9329 45.8828
23.9784 45.2562
24.0241 45.1166
24.0697 45.1531
24.1154 44.6957
24.1609 44.4869
24.2066 44.3337
24.2522 44.2298
24.2979 43.8411
24.3434 43.9807
24.3892 43.7783
24.4349 43.5496
24.4805 43.3987
24.5262 43.6483
24.5718 43.5411
24.6175 43.3586
24.6631 43.3326
24.7089 43.1706
24.7545 42.936
24.8002 42.7879
24.8458 42.7147
24.8916 42.6616
24.9372 42.6951
24.983 42.9429
25.0286 43.2965
25.0744 43.5504
25.12 43.9721
25.1658 44.8266
25.2114 45.0277
25.2572 45.141
25.3029 45.257
25.3487 45.3766
25.3943 45.2305
25.4402 44.2078
25.4858 43.3198
25.5316 42.0158
25.5773 41.375
25.6231 41.4694
25.669 40.888
25.7147 41.0039
25.7605 40.8507
25.8062 40.9774
25.8521 41.1837
25.8977 41.0687
25.9436 41.1787
25.9893 41.3609
26.0352 41.8282
26.0809 41.9604
26.1268 42.1318
26.1725 41.8109
26.2184 41.3159
26.2641 40.8546
26.31 40.6225
26.3557 40.7135
26.4017 40.5873
26.4474 40.8838
26.4933 41.2115
26.5391 41.7017
26.585 42.0891
26.6308 42.3451
26.6767 42.6402
26.7225 42.5984
26.7684 42.0796
26.8142 41.5086
26.8601 41.0015
26.9059 40.5538
26.9519 40.0443
26.9979 39.7087
27.0437 39.3992
27.0896 39.1879
27.1354 39.1664
27.1814 39.0025
27.2272 38.9995
27.2732 39.0236
27.3191 38.8057
27.3651 38.8845
27.4109 38.8245
27.4569 39.0241
27.5027 38.9776
27.5488 39.0214
27.5946 38.7752
27.6407 38.6308
27.6865 38.5023
27.7326 38.3414
27.7784 38.2772
27.8245 38.239
27.8703 38.4077
27.9164 38.6602
27.9623 38.7762
28.0084 39.1666
28.0543 39.3795
28.1003 39.5397
28.1462 39.2613
28.1923 39.018
28.2384 38.3523
28.2843 38.1658
28.3304 37.7413
28.3764 37.2149
28.4225 37.014
28.4684 36.7194
28.5145 36.4116
28.5605 36.3694
28.6066 36.1208
28.6526 35.9626
28.6987 36.066
28.7447 35.9141
28.7908 35.8413
28.8368 35.8941
28.8829 35.8551
28.9289 35.8612
28.9751 35.6486
29.0211 35.4149
29.0673 35.1074
29.1133 35.0097
29.1595 34.8325
29.2055 34.7661
29.2517 34.761
29.2977 34.6935
29.3439 34.6845
29.3899 34.6308
29.4361 34.5606
29.4824 34.4727
29.5284 34.1971
29.5746 34.0562
29.6207 33.5374
29.6669 33.5034
29.713 33.3627
29.7593 33.3635
29.8053 33.2144
29.8516 33.1795
29.8977 33.1446
29.9439 32.9888
29.99 32.9682
30.0363 32.8962
30.0824 32.9024
30.1287 32.8238
30.1748 32.8664
30.2211 32.8325
30.2673 32.7356
30.3136 32.8029
30.3597 32.6932
30.406 32.6107
30.4522 32.457
30.4985 32.3634
30.5447 32.592
30.591 32.5009
30.6372 32.5541
30.6835 32.4343
30.7297 32.5508
30.7761 32.4803
30.8224 32.384
30.8686 32.2906
30.915 32.0634
30.9612 31.8735
31.0076 31.6354
31.0538 31.6541
31.1002 31.5562
31.1464 31.3139
31.1928 31.2689
31.2391 31.3609
31.2855 31.232
31.3317 31.2085
31.3781 31.2684
31.4244 31.2516
31.4708 31.1526
31.5171 31.1995
31.5636 31.0765
31.6098 30.9437
31.6563 30.7336
31.7026 30.6329
31.7491 30.516
31.7953 30.5442
31.8418 30.4735
31.8881 30.5217
31.9346 30.4394
31.9809 30.4699
32.0275 30.2584
32.074 30.1767
32.1203 30.0413
32.1668 29.8631
32.2132 29.7683
32.2597 29.5973
32.306 29.537
32.3526 29.3409
32.399 29.2748
32.4455 29.1052
32.4919 29.0567
32.5385 29.1474
32.5848 28.8119
32.6314 28.8582
32.6778 28.847
32.7244 28.7011
32.7708 28.5057
32.8174 28.5579
32.8638 28.4058
32.9104 28.3797
32.9569 28.3219
33.0035 28.205
33.0499 28.158
33.0966 28.2121
33.143 28.1132
33.1897 28.0544
33.2361 27.8869
33.2828 27.9745
33.3293 27.7283
33.3759 27.8016
33.4226 27.628
33.4691 27.5002
33.5158 27.4216
33.5623 27.3039
33.609 27.1111
33.6555 26.9509
33.7022 26.9117
33.7487 26.8647
33.7954 26.8172
33.842 26.6554
33.8887 26.6942
33.9353 26.6478
33.982 26.4485
34.0286 26.3573
34.0753 26.3031
34.1219 26.1898
34.1687 26.1938
34.2152 26.1192
34.262 25.9486
34.3086 25.9226
34.3554 25.8934
34.402 25.6622
34.4488 25.6226
34.4954 25.5508
34.5422 25.4483
34.5889 25.3676
34.6357 25.3302
34.6825 25.2867
34.7292 25.2105
34.776 25.1075
34.8227 25.0245
34.8695 24.9171
34.9162 24.8737
34.9631 24.768
35.0098 24.8083
35.0566 24.6533
35.1033 24.5603
35.1502 24.5939
35.1969 24.5175
35.2438 24.476
35.2906 24.5072
35.3375 24.2985
35.3842 24.2391
35.4311 24.3056
35.4779 24.3019
35.5248 24.1756
35.5716 24.1089
35.6185 23.9544
35.6653 23.8795
35.7123 23.8226
35.759 23.7843
35.806 23.6153
35.8528 23.5304
35.8998 23.4819
35.9468 23.4351
35.9936 23.3986
36.0406 23.3269
36.0874 23.3343
36.1345 23.2517
36.1813 23.0918
36.2283 23.0268
36.2752 22.9398
36.3222 22.9347
36.3691 22.8245
36.4161 22.7131
36.463 22.7261
36.5101 22.708
36.557 22.5888
36.6041 22.4873
36.651 22.4485
36.6981 22.4069
36.745 22.3331
36.7921 22.2809
36.839 22.1459
36.8861 22.1244
36.9331 21.9693
36.9802 21.9416
37.0272 21.8228
37.0743 21.7928
37.1213 21.7991
37.1684 21.6765
37.2154 21.6419
37.2626 21.5636
37.3098 21.4799
37.3568 21.3624
37.404 21.3871
37.451 21.3073
37.4982 21.2246
37.5452 21.1209
37.5924 21.115
37.6395 21.0449
37.6867 21.0366
37.7337 20.8609
37.781 20.7722
37.8281 20.7451
37.8753 20.605
37.9224 20.5981
37.9697 20.5306
38.0168 20.5235
38.064 20.4807
38.1111 20.3637
38.1584 20.2999
38.2056 20.1547
38.2529 20.1203
38.3 20.0796
38.3473 20.0521
38.3945 19.937
38.4418 19.9479
38.489 19.8656
38.5363 19.7698
38.5837 19.656
38.6309 19.6505
38.6782 19.6336
38.7254 19.5039
38.7728 19.4317
38.82 19.4406
38.8674 19.3773
38.9146 19.232
38.9621 19.1997
39.0093 19.2097
39.0567 19.1479
39.104 19.0355
39.1514 18.9517
39.1987 18.9148
39.2461 18.9192
39.2934 18.7954
39.3409 18.6779
39.3882 18.6613
39.4356 18.6524
39.483 18.5422
39.5304 18.5013
39.5778 18.4759
39.6253 18.4063
39.6726 18.3769
39.7201 18.2855
39.7675 18.2399
39.815 18.1551
39.8624 18.1125
39.9099 18.0782
39.9575 17.975
40.0049 17.9385
40.0525 17.8995
40.0999 17.8618
40.1474 17.7491
40.1949 17.7241
40.2425 17.6244
40.2899 17.6598
40.3375 17.5183
40.385 17.4935
40.4326 17.3897
40.48 17.3433
40.5277 17.2803
40.5752 17.3116
40.6228 17.1458
40.6703 17.15
40.718 17.0525
40.7655 17.0933
40.8132 16.9736
40.8607 16.9634
40.9084 16.8933
40.9559 16.8758
41.0036 16.8098
41.0512 16.7473
41.0989 16.6711
41.1465 16.6461
41.1942 16.5705
41.242 16.4549
41.2896 16.4711
41.3373 16.3613
41.3849 16.4099
41.4327 16.2353
41.4803 16.2016
41.5281 16.1756
41.5758 16.0948
41.6236 16.0624
41.6712 15.9345
41.7191 15.9343
41.7667 15.928
41.8146 15.9092
41.8622 15.7536
41.9101 15.7303
41.9578 15.649
42.0057 15.6502
42.0534 15.5837
42.1013 15.5522
42.149 15.4773
42.1969 15.4368
42.2446 15.3684
42.2925 15.2661
42.3403 15.2981
42.3882 15.2807
42.436 15.2034
42.4839 15.0842
42.5319 15.0631
42.5797 15.0453
42.6277 15.0033
42.6755 14.9086
42.7235 14.8684
42.7713 14.8437
42.8193 14.7947
42.8671 14.6947
42.9152 14.6961
42.963 14.6407
43.0111 14.573
43.0589 14.5269
43.107 14.4784
43.1549 14.4097
43.2029 14.3973
43.2508 14.3796
43.2989 14.2054
43.3468 14.2232
43.3949 14.1609
43.4429 14.1443
43.491 14.0607
43.5389 14.0321
43.5871 13.9737
43.635 13.9604
43.6832 13.9099
43.7312 13.8422
43.7793 13.8039
43.8273 13.7437
43.8755 13.6704
43.9237 13.6337
43.9717 13.5703
44.0199 13.5952
44.068 13.5156
44.1162 13.4636
44.1642 13.4282
44.2125 13.4009
44.2606 13.3417
44.3088 13.2491
44.3569 13.2435
44.4052 13.2663
44.4533 13.1041
44.5016 13.0255
44.5497 13.1043
44.598 13.0382
44.6461 12.9343
44.6945 12.8768
44.7426 12.8325
44.791 12.7777
44.8391 12.7677
44.8875 12.733
44.9357 12.6575
44.984 12.6553
45.0322 12.5593
45.0806 12.5419
45.1288 12.5428
45.1773 12.4459
45.2257 12.3884
45.2739 12.3596
45.3224 12.343
45.3706 12.3092
45.4191 12.1869
45.4673 12.2269
45.5158 12.1609
45.5641 12.076
45.6126 12.0836
45.6609 11.9976
45.7094 11.9582
45.7577 11.9487
45.8063 11.8366
45.8546 11.858
45.9031 11.8417
45.9515 11.7858
46.0001 11.7281
46.0484 11.705
46.097 11.6802
46.1454 11.6335
46.194 11.5567
46.2424 11.5087
46.291 11.5044
46.3395 11.4039
46.3881 11.3564
46.4365 11.3515
46.4852 11.3268
46.5337 11.2426
46.5823 11.2771
46.631 11.1865
46.6795 11.1584
46.7282 11.096
46.7767 11.0527
46.8254 11.0262
46.8739 10.9571
46.9226 10.9394
46.9712 10.8942
47.0199 10.8425
47.0685 10.7734
47.1173 10.8055
47.1658 10.7497
47.2146 10.6847
47.2632 10.6328
47.312 10.6267
47.3606 10.5656
47.4095 10.5458
47.4581 10.4917
47.5069 10.456
47.5556 10.4207
47.6044 10.3863
47.6531 10.3623
47.702 10.2798
47.7507 10.2886
47.7996 10.2259
47.8483 10.2278
47.8972 10.1321
47.9461 10.1211
47.9948 10.0921
48.0438 10.0179
48.0925 10.0197
48.1415 9.97555
48.1902 9.93992
48.2392 9.91464
48.288 9.87852
48.337 9.83675
48.3858 9.76559
48.4348 9.74639
48.4837 9.76932
48.5327 9.74227
48.5815 9.62684
48.6306 9.64432
48.6795 9.60481
48.7285 9.50305
48.7774 9.50775
48.8265 9.53182
48.8754 9.40533
48.9245 9.44111
48.9734 9.37809
49.0226 9.32932
49.0715 9.28501
49.1206 9.24459
49.1696 9.21397
49.2188 9.1826
49.2679 9.16997
49.3169 9.09155
49.3661 9.0895
49.4151 9.04189
49.4643 9.02348
49.5134 8.98078
49.5626 8.89901
49.6117 8.91893
49.6609 8.88185
49.71 8.80363
49.7592 8.83211
49.8083 8.75427
49.8576 8.75945
49.9067 8.70683
49.956 8.71257
50.0052 8.62738
50.0545 8.61662
50.1036 8.56654
50.153 8.56225
50.2022 8.49732
50.2515 8.46648
50.3007 8.42484
50.3501 8.40543
50.3993 8.37457
50.4487 8.34314
50.498 8.29486
50.5474 8.28636
50.5966 8.24098
50.6461 8.24096
50.6955 8.19555
50.7448 8.14862
50.7943 8.18051
50.8436 8.10202
50.8931 8.05413
50.9424 8.05203
50.9919 7.99202
51.0413 7.97504
51.0908 7.97451
51.1402 7.89525
51.1897 7.90974
51.2391 7.85538
51.2887 7.79674
51.3381 7.78548
51.3877 7.74197
51.4371 7.69065
51.4867 7.69002
51.5362 7.65843
51.5858 7.62886
51.6353 7.59884
51.6849 7.53658
51.7344 7.5199
51.7841 7.53658
51.8336 7.46424
51.8833 7.4645
51.9328 7.38046
51.9826 7.31624
52.0323 7.33288
52.0818 7.31995
52.1316 7.25848
52.1812 7.28309
52.231 7.23258
52.2806 7.16943
52.3304 7.15824
52.38 7.09055
52.4298 7.07975
52.4794 7.04242
52.5293 7.05854
52.5789 7.02265
52.6288 6.97479
52.6785 6.93016
52.7284 6.93591
52.7781 6.88545
52.828 6.87931
52.8777 6.84122
52.9276 6.81087
52.9774 6.80379
53.0273 6.77005
53.0771 6.73014
53.1271 6.68541
53.1769 6.65592
53.2269 6.65759
53.2767 6.60168
53.3267 6.59675
53.3765 6.58326
53.4266 6.55269
53.4766 6.48356
53.5265 6.46388
53.5765 6.42981
53.6264 6.43391
53.6765 6.37565
53.7264 6.39986
53.7765 6.31106
53.8265 6.32712
53.8766 6.25485
53.9266 6.26827
53.9767 6.2157
54.0267 6.21577
54.0769 6.17783
54.1269 6.17394
54.1771 6.12016
54.2271 6.09286
54.2773 6.06862
54.3274 6.04912
54.3776 5.97527
54.4277 5.95956
54.478 5.89747
54.528 5.87351
54.5783 5.86139
54.6285 5.82405
54.6788 5.75606
54.7289 5.72693
54.7792 5.68733
54.8296 5.60574
54.8798 5.58101
54.9301 5.54907
54.9803 5.56347
55.0307 5.49632
55.0809 5.43267
55.1314 5.39432
55.1816 5.37899
55.232 5.31573
55.2823 5.33785
55.3328 5.17893
55.383 5.17417
55.4335 5.16775
55.4838 5.06434
55.5344 5.04541
55.5847 4.98567
55.6352 4.96705
55.6856 4.94759
55.7361 4.90997