File: XRD/Ni3Fe_FD0630.xy
TT I
1.27165 7.59184
1.31627 7.54627
1.36089 7.20028
1.40551 6.21932
1.45013 6.14929
1.49476 5.87253
1.53938 6.18089
1.584 5.45352
1.62863 5.49549
1.67325 5.56185
1.71787 4.5762
1.7625 5.16885
1.80712 4.58767
1.85174 4.59868
1.89636 4.6731
1.94099 5.72539
1.98562 4.71536
2.03025 4.53043
2.07487 4.5834
2.11949 4.97414
2.16411 4.96579
2.20874 15.4514
2.25338 25.5817
2.298 6.11458
2.34263 5.42162
2.38725 5.74071
2.43188 6.40213
2.4765 6.81888
2.52115 6.77173
2.56577 7.69652
2.6104 7.73311
2.65503 7.6072
2.69965 8.51579
2.7443 8.42598
2.78893 8.39129
2.83356 8.58694
2.87818 8.90599
2.92281 9.14594
2.96744 9.49964
3.01209 10.3165
3.05672 11.2129
3.10135 12.4265
3.14599 13.2856
3.19062 14.3287
3.23527 15.0261
3.2799 15.749
3.32454 17.0048
3.36917 18.097
3.4138 18.834
3.45844 20.1376
3.50309 20.9596
3.54773 22.298
3.59237 24.6967
3.637 100.381
3.68164 63.2004
3.7263 26.2466
3.77094 26.4087
3.81558 26.7923
3.86022 27.3055
3.90486 29.1911
3.9495 30.1048
3.99416 31.2639
4.0388 32.6251
4.08344 33.874
4.12809 35.237
4.17273 37.4312
4.21738 43.8694
4.26204 268.775
4.30669 237.686
4.35133 49.8915
4.39598 45.2142
4.44063 55.155
4.4853 67.6113
4.52995 50.2496
4.5746 51.297
4.61925 53.6079
4.6639 55.3398
4.70855 58.238
4.75322 60.9079
4.79788 64.0238
4.84253 67.4098
4.88719 71.5728
4.93184 75.2499
4.97652 80.6974
5.02118 86.7355
5.06583 94.1198
5.11049 105.939
5.15515 178.243
5.19981 343.912
5.24449 2740.14
5.28916 12467.7
5.33382 2992.23
5.37848 194.68
5.42315 129.93
5.46783 114.137
5.5125 106.726
5.55716 102.603
5.60183 98.9406
5.6465 96.8937
5.69117 94.7605
5.73586 92.5038
5.78053 91.5494
5.8252 91.2707
5.86988 91.7046
5.91455 94.1725
5.95924 101.565
6.00392 198.458
6.0486 950.428
6.09328 4392.83
6.13795 3559.02
6.18263 260.958
6.22733 94.8864
6.27201 84.3719
6.3167 105.974
6.36138 82.2503
6.40606 69.6723
6.45075 67.4789
6.49545 65.8553
6.54014 63.952
6.58483 63.2476
6.62952 63.3665
6.67421 98.0453
6.71892 154.847
6.76361 69.8199
6.8083 59.1416
6.853 57.8311
6.89769 57.0773
6.94239 56.9829
6.98711 56.2921
7.03181 55.6808
7.07651 55.3527
7.12121 55.3457
7.16591 55.8012
7.21063 55.9489
7.25533 72.2042
7.30004 196.156
7.34475 97.1174
7.38945 57.106
7.43416 54.8681
7.47889 54.7117
7.5236 55.2579
7.56831 55.7176
7.61303 57.905
7.65774 58.1222
7.70247 56.1846
7.74719 56.2745
7.79191 57.1414
7.83663 57.2285
7.88135 57.9449
7.92607 58.8566
7.97081 59.816
8.01553 61.0242
8.06026 62.6132
8.10498 64.0656
8.14971 74.052
8.19446 73.3699
8.23919 69.9546
8.28392 71.8841
8.32865 73.9992
8.37339 78.293
8.41812 85.1625
8.46288 115.86
8.50761 158.863
8.55235 374.295
8.59709 1141.13
8.64183 2179.79
8.68658 1025.1
8.73134 172.354
8.77609 100.348
8.82083 93.2281
8.86558 90.3484
8.91033 90.229
8.9551 92.3949
8.99985 85.6868
9.04461 84.0286
9.08936 83.0328
9.13412 82.1522
9.17888 82.4215
9.22365 83.2431
9.26841 82.6204
9.31318 82.5259
9.35794 82.9361
9.4027 83.0621
9.44749 83.8096
9.49226 84.5586
9.53703 85.6704
9.5818 87.4392
9.62657 92.2788
9.67134 99.9429
9.71614 94.3785
9.76091 93.638
9.80569 96.6259
9.85047 99.8324
9.89525 125.681
9.94005 138.898
9.98484 170.232
10.0296 329.973
10.0744 790.315
10.1192 1707.12
10.164 1628.46
10.2088 430.619
10.2536 130.409
10.2984 114.598
10.3432 116.837
10.388 104.444
10.4328 116.452
10.4776 156.433
10.5224 271.872
10.5672 505.678
10.612 512.63
10.6568 213.808
10.7017 98.3908
10.7465 86.973
10.7913 83.5989
10.8361 81.4438
10.8809 79.0965
10.9257 79.0493
10.9706 79.6378
11.0154 74.9915
11.0602 73.0512
11.105 72.0004
11.1499 77.2839
11.1947 85.4299
11.2395 75.2736
11.2844 71.0452
11.3292 67.3922
11.374 66.3872
11.4189 65.8795
11.4637 64.9568
11.5086 65.805
11.5534 69.0732
11.5983 66.2098
11.6431 63.9123
11.688 63.3634
11.7328 63.1789
11.7777 63.1023
11.8225 62.7401
11.8674 62.7195
11.9122 62.7793
11.9571 62.7707
12.002 63.803
12.0468 67.3912
12.0917 78.0569
12.1366 101.792
12.1814 149.543
12.2263 206.937
12.2712 172.942
12.3161 100.893
12.3609 71.9705
12.4058 64.876
12.4507 64.6712
12.4956 64.7828
12.5405 64.7556
12.5853 65.9207
12.6302 74.3823
12.6751 80.6953
12.72 70.6591
12.7649 68.1397
12.8098 68.6123
12.8547 69.8127
12.8996 71.0202
12.9445 72.073
12.9894 74.0034
13.0343 75.8662
13.0792 78.7721
13.1242 86.8367
13.1691 110.142
13.214 146.204
13.2589 232.944
13.3038 363.22
13.3487 426.507
13.3937 275.294
13.4386 128.293
13.4835 104.766
13.5285 119.05
13.5734 156.21
13.6183 242.531
13.6633 344.085
13.7082 345.175
13.7531 196.825
13.7981 100.671
13.843 82.4621
13.888 79.8911
13.9329 77.2783
13.9779 76.1469
14.0228 74.587
14.0678 73.2483
14.1127 72.8041
14.1577 72.8923
14.2027 71.8799
14.2476 70.6333
14.2926 70.7259
14.3376 72.2072
14.3825 70.7588
14.4275 69.1275
14.4725 68.793
14.5175 69.024
14.5624 69.317
14.6074 71.5362
14.6524 71.9711
14.6974 70.7071
14.7424 71.6609
14.7874 78.0213
14.8324 87.8167
14.8774 108.898
14.9224 150.682
14.9674 202.075
15.0124 216.359
15.0574 151.628
15.1024 92.9373
15.1474 72.8803
15.1924 70.7835
15.2374 71.7245
15.2824 70.7888
15.3274 68.4858
15.3725 67.1353
15.4175 66.5677
15.4625 66.3594
15.5076 66.5549
15.5526 66.4979
15.5976 65.996
15.6426 66.4398
15.6877 71.5102
15.7327 79.1303
15.7778 93.9919
15.8228 124.074
15.8679 166.291
15.9129 193.615
15.958 158.771
16.003 100.317
16.0481 69.2405
16.0931 65.4383
16.1382 63.3589
16.1833 60.9798
16.2283 59.255
16.2734 58.724
16.3185 59.0224
16.3636 59.8592
16.4086 58.2869
16.4537 56.4495
16.4988 55.7826
16.5439 55.947
16.589 55.3279
16.6341 54.9582
16.6792 54.7817
16.7243 55.1879
16.7694 55.1834
16.8145 55.1156
16.8596 55.5612
16.9047 57.3031
16.9498 57.4588
16.9949 55.9541
17.04 55.9597
17.0851 56.9291
17.1302 58.6666
17.1754 61.6474
17.2205 66.4658
17.2656 73.7582
17.3108 81.9322
17.3559 83.1767
17.401 72.4322
17.4462 62.8231
17.4913 59.3854
17.5365 59.3008
17.5815 59.3428
17.6268 59.735
17.6718 60.4637
17.7171 61.1347
17.7622 61.4093
17.8074 61.7832
17.8525 63.9346
17.8977 68.0089
17.9428 73.4133
17.9881 81.8789
18.0331 98.7498
18.0784 120.435
18.1237 138.936
18.1688 132.339
18.214 105.814
18.2591 87.5218
18.3044 90.2629
18.3495 100.299
18.3948 105.82
18.4399 97.7626
18.4852 79.2398
18.5303 66.8797
18.5756 62.6303
18.6207 61.4658
18.666 60.8019
18.7112 59.9049
18.7565 59.2207
18.8016 58.8982
18.8469 58.1798
18.892 57.938
18.9374 57.3393
18.9825 57.3991
19.0278 57.2219
19.073 57.2634
19.1183 57.5191
19.1635 58.3285
19.2088 59.5852
19.254 61.9626
19.2993 66.1298
19.3447 72.9194
19.3898 76.8308
19.4352 72.8295
19.4804 64.4269
19.5257 57.3867
19.5709 54.6057
19.6163 54.0668
19.6615 53.8774
19.7068 53.5317
19.752 53.4695
19.7974 53.6031
19.8426 54.595
19.888 55.2925
19.9332 56.2103
19.9786 58.6968
20.0238 62.2226
20.0692 67.0975
20.1144 69.6654
20.1598 68.5013
20.205 63.7983
20.2504 62.2628
20.2957 63.8668
20.3411 65.783
20.3863 64.7317
20.4318 59.152
20.477 54.0449
20.5224 52.038
20.5677 51.3694
20.6131 50.5708
20.6586 49.8912
20.7038 49.756
20.7493 49.2062
20.7945 49.3814
20.84 49.0655
20.8853 48.7966
20.9307 48.6976
20.976 48.9853
21.0215 48.6447
21.0668 49.1361
21.1122 49.5896
21.1575 50.2638
21.203 51.067
21.2483 51.4462
21.2938 51.5318
21.3391 50.4163
21.3846 49.2099
21.4299 48.6934
21.4754 48.5064
21.5207 48.7143
21.5662 48.7712
21.6116 49.3252
21.6571 49.9122
21.7024 50.964
21.7479 52.732
21.7933 55.1542
21.8388 58.7313
21.8843 62.513
21.9297 64.6406
21.9752 63.8031
22.0206 60.2791
22.0661 56.7866
22.1115 56.2914
22.157 56.0275
22.2024 54.54
22.248 51.8486
22.2933 50.1034
22.3389 49.282
22.3843 49.2
22.4299 49.1747
22.4753 49.0982
22.5208 48.8811
22.5662 48.5578
22.6118 48.9041
22.6572 48.9536
22.7028 49.5549
22.7483 49.7182
22.7939 50.433
22.8393 52.0729
22.8849 54.0514
22.9303 55.9446
22.9759 58.0267
23.0214 57.6551
23.067 54.9714
23.1126 51.6756
23.1581 49.5246
23.2037 48.9613
23.2492 49.0818
23.2948 48.9243
23.3403 49.1589
23.3859 49.7699
23.4314 50.8507
23.477 52.6252
23.5225 54.8285
23.5682 57.0151
23.6137 58.069
23.6593 56.0871
23.7048 52.2441
23.7505 48.6763
23.796 46.9121
23.8417 46.1773
23.8872 45.5801
23.9329 45.5089
23.9784 45.0179
24.0241 44.8443
24.0697 44.6868
24.1154 44.4055
24.1609 44.1211
24.2066 44.248
24.2522 43.887
24.2979 43.6134
24.3434 43.5934
24.3892 43.3112
24.4349 43.4005
24.4805 43.1007
24.5262 43.1977
24.5718 43.1346
24.6175 43.1013
24.6631 43.0531
24.7089 42.7817
24.7545 42.6464
24.8002 42.3467
24.8458 42.4377
24.8916 42.1998
24.9372 42.3584
24.983 42.6134
25.0286 42.9298
25.0744 43.533
25.12 43.9357
25.1658 44.4755
25.2114 44.6468
25.2572 44.9094
25.3029 44.9812
25.3487 45.0615
25.3943 44.7371
25.4402 43.7862
25.4858 42.8031
25.5316 41.6701
25.5773 41.0426
25.6231 41.1234
25.669 40.6975
25.7147 40.7652
25.7605 40.6249
25.8062 40.8439
25.8521 40.7708
25.8977 40.8537
25.9436 41.0418
25.9893 41.1027
26.0352 41.6729
26.0809 41.7269
26.1268 41.7131
26.1725 41.4992
26.2184 41.0194
26.2641 40.5434
26.31 40.2345
26.3557 40.255
26.4017 40.3153
26.4474 40.6807
26.4933 40.9406
26.5391 41.4323
26.585 41.8694
26.6308 42.11
26.6767 42.2894
26.7225 42.2033
26.7684 41.742
26.8142 41.1077
26.8601 40.6204
26.9059 40.3006
26.9519 39.6506
26.9979 39.496
27.0437 39.0508
27.0896 38.8943
27.1354 38.9797
27.1814 38.7174
27.2272 38.6905
27.2732 38.8391
27.3191 38.555
27.3651 38.7543
27.4109 38.619
27.4569 38.6472
27.5027 38.6565
27.5488 38.7923
27.5946 38.5335
27.6407 38.2902
27.6865 38.3841
27.7326 38.0546
27.7784 38.096
27.8245 37.9739
27.8703 38.2424
27.9164 38.3572
27.9623 38.5162
28.0084 38.9189
28.0543 39.1521
28.1003 39.1583
28.1462 39.0503
28.1923 38.7071
28.2384 38.3065
28.2843 37.8619
28.3304 37.3846
28.3764 37.0213
28.4225 36.5781
28.4684 36.3889
28.5145 36.0912
28.5605 36.0715
28.6066 35.8936
28.6526 35.8508
28.6987 35.7772
28.7447 35.6707
28.7908 35.5006
28.8368 35.7033
28.8829 35.6935
28.9289 35.6038
28.9751 35.3345
29.0211 34.9668
29.0673 34.8328
29.1133 34.694
29.1595 34.6108
29.2055 34.4298
29.2517 34.4286
29.2977 34.4525
29.3439 34.4278
29.3899 34.3839
29.4361 34.2548
29.4824 34.1022
29.5284 33.8554
29.5746 33.5438
29.6207 33.4215
29.6669 33.3246
29.713 33.1711
29.7593 33.0794
29.8053 33.0106
29.8516 32.9486
29.8977 33.0169
29.9439 32.71
29.99 32.7772
30.0363 32.6156
30.0824 32.7106
30.1287 32.5671
30.1748 32.5713
30.2211 32.5095
30.2673 32.4078
30.3136 32.4769
30.3597 32.3502
30.406 32.3303
30.4522 32.1787
30.4985 32.2393
30.5447 32.306
30.591 32.1825
30.6372 32.2876
30.6835 32.2851
30.7297 32.1928
30.7761 32.2353
30.8224 32.1013
30.8686 32.0095
30.915 31.7364
30.9612 31.6949
31.0076 31.501
31.0538 31.4012
31.1002 31.306
31.1464 31.1523
31.1928 31.0753
31.2391 31.1348
31.2855 30.975
31.3317 30.9906
31.3781 31.0154
31.4244 31.0408
31.4708 30.9942
31.5171 30.9658
31.5636 30.8536
31.6098 30.683
31.6563 30.3906
31.7026 30.3535
31.7491 30.2589
31.7953 30.3124
31.8418 30.2709
31.8881 30.3795
31.9346 30.2429
31.9809 30.2231
32.0275 29.9957
32.074 30.0288
32.1203 29.7294
32.1668 29.6404
32.2132 29.5479
32.2597 29.3858
32.306 29.3183
32.3526 29.0792
32.399 29.0704
32.4455 28.8991
32.4919 28.8882
32.5385 28.7516
32.5848 28.718
32.6314 28.6137
32.6778 28.5199
32.7244 28.4524
32.7708 28.3261
32.8174 28.3237
32.8638 28.0754
32.9104 28.1992
32.9569 28.09
33.0035 27.9989
33.0499 28.0856
33.0966 27.9379
33.143 27.9661
33.1897 27.8629
33.2361 27.7299
33.2828 27.7835
33.3293 27.592
33.3759 27.5914
33.4226 27.3906
33.4691 27.126
33.5158 27.1799
33.5623 27.0131
33.609 26.8919
33.6555 26.8346
33.7022 26.7366
33.7487 26.629
33.7954 26.6066
33.842 26.4996
33.8887 26.4989
33.9353 26.4089
33.982 26.2868
34.0286 26.1135
34.0753 26.0718
34.1219 25.993
34.1687 25.9098
34.2152 25.901
34.262 25.7271
34.3086 25.698
34.3554 25.6727
34.402 25.4752
34.4488 25.4019
34.4954 25.36
34.5422 25.2819
34.5889 25.1811
34.6357 25.117
34.6825 25.0189
34.7292 25.0043
34.776 24.8838
34.8227 24.7894
34.8695 24.6992
34.9162 24.6955
34.9631 24.5046
35.0098 24.5898
35.0566 24.4697
35.1033 24.4127
35.1502 24.3231
35.1969 24.2606
35.2438 24.304
35.2906 24.2945
35.3375 24.1986
35.3842 24.1454
35.4311 24.1012
35.4779 24.0886
35.5248 24.0787
35.5716 23.8805
35.6185 23.8484
35.6653 23.8
35.7123 23.6905
35.759 23.5594
35.806 23.4962
35.8528 23.3263
35.8998 23.3024
35.9468 23.2222
35.9936 23.1524
36.0406 23.0769
36.0874 23.0971
36.1345 22.9993
36.1813 22.9309
36.2283 22.8398
36.2752 22.7068
36.3222 22.7495
36.3691 22.6672
36.4161 22.5152
36.463 22.5895
36.5101 22.4614
36.557 22.4499
36.6041 22.3217
36.651 22.3019
36.6981 22.2027
36.745 22.1751
36.7921 22.1596
36.839 21.9419
36.8861 21.8806
36.9331 21.8153
36.9802 21.8545
37.0272 21.6941
37.0743 21.6372
37.1213 21.6075
37.1684 21.5437
37.2154 21.4938
37.2626 21.363
37.3098 21.29
37.3568 21.1952
37.404 21.2364
37.451 21.1234
37.4982 21.0211
37.5452 21.0078
37.5924 20.8895
37.6395 20.9646
37.6867 20.7893
37.7337 20.7665
37.781 20.6366
37.8281 20.5774
37.8753 20.4823
37.9224 20.4447
37.9697 20.4377
38.0168 20.2818
38.064 20.1989
38.1111 20.2799
38.1584 20.0799
38.2056 20.0339
38.2529 20.021
38.3 19.9732
38.3473 19.9626
38.3945 19.7624
38.4418 19.7605
38.489 19.7482
38.5363 19.6397
38.5837 19.5599
38.6309 19.519
38.6782 19.4781
38.7254 19.334
38.7728 19.3408
38.82 19.2688
38.8674 19.1953
38.9146 19.1257
38.9621 19.068
39.0093 19.0295
39.0567 18.9616
39.104 18.9004
39.1514 18.7822
39.1987 18.747
39.2461 18.784
39.2934 18.697
39.3409 18.5643
39.3882 18.4983
39.4356 18.5106
39.483 18.4654
39.5304 18.2962
39.5778 18.3169
39.6253 18.2936
39.6726 18.2429
39.7201 18.1319
39.7675 18.0811
39.815 17.986
39.8624 17.9247
39.9099 18.021
39.9575 17.824
40.0049 17.8279
40.0525 17.6867
40.0999 17.6593
40.1474 17.6298
40.1949 17.5877
40.2425 17.4226
40.2899 17.44
40.3375 17.3938
40.385 17.3335
40.4326 17.3137
40.48 17.2209
40.5277 17.2153
40.5752 17.1561
40.6228 17.0419
40.6703 17.0464
40.718 17.0103
40.7655 16.8941
40.8132 16.8702
40.8607 16.8627
40.9084 16.7702
40.9559 16.7044
41.0036 16.6723
41.0512 16.6149
41.0989 16.4944
41.1465 16.4384
41.1942 16.4623
41.242 16.3804
41.2896 16.344
41.3373 16.2371
41.3849 16.1912
41.4327 16.1075
41.4803 16.0473
41.5281 16.0699
41.5758 16.0389
41.6236 15.9404
41.6712 15.8713
41.7191 15.8238
41.7667 15.7282
41.8146 15.7773
41.8622 15.7184
41.9101 15.6375
41.9578 15.5178
42.0057 15.5627
42.0534 15.475
42.1013 15.4489
42.149 15.3581
42.1969 15.2821
42.2446 15.2683
42.2925 15.2203
42.3403 15.1309
42.3882 15.0978
42.436 15.0483
42.4839 14.9935
42.5319 14.9787
42.5797 14.8725
42.6277 14.8463
42.6755 14.8113
42.7235 14.7284
42.7713 14.7355
42.8193 14.6523
42.8671 14.6031
42.9152 14.537
42.963 14.5042
43.0111 14.4459
43.0589 14.4241
43.107 14.3974
43.1549 14.2728
43.2029 14.1858
43.2508 14.2087
43.2989 14.1619
43.3468 14.0896
43.3949 14.0556
43.4429 14.04
43.491 13.9332
43.5389 13.888
43.5871 13.8404
43.635 13.7777
43.6832 13.7819
43.7312 13.6894
43.7793 13.6611
43.8273 13.6215
43.8755 13.5303
43.9237 13.5552
43.9717 13.4693
44.0199 13.4591
44.068 13.3769
44.1162 13.3523
44.1642 13.3587
44.2125 13.2715
44.2606 13.2095
44.3088 13.2025
44.3569 13.1208
44.4052 13.0709
44.4533 13.0136
44.5016 12.9869
44.5497 12.9587
44.598 12.8817
44.6461 12.8508
44.6945 12.8169
44.7426 12.767
44.791 12.6547
44.8391 12.651
44.8875 12.6322
44.9357 12.5956
44.984 12.5395
45.0322 12.4763
45.0806 12.4425
45.1288 12.3806
45.1773 12.3614
45.2257 12.3183
45.2739 12.234
45.3224 12.2429
45.3706 12.2064
45.4191 12.1
45.4673 12.1199
45.5158 12.052
45.5641 11.9964
45.6126 11.9722
45.6609 11.9425
45.7094 11.866
45.7577 11.8353
45.8063 11.7959
45.8546 11.7428
45.9031 11.6709
45.9515 11.6539
46.0001 11.6222
46.0484 11.5705
46.097 11.5742
46.1454 11.513
46.194 11.5174
46.2424 11.4391
46.291 11.3888
46.3395 11.2562
46.3881 11.287
46.4365 11.2523
46.4852 11.2182
46.5337 11.1906
46.5823 11.1896
46.631 11.0908
46.6795 11.0498
46.7282 11.0664
46.7767 10.9734
46.8254 10.8826
46.8739 10.8851
46.9226 10.789
46.9712 10.7891
47.0199 10.7451
47.0685 10.7407
47.1173 10.6661
47.1658 10.6393
47.2146 10.6213
47.2632 10.5863
47.312 10.5118
47.3606 10.523
47.4095 10.4585
47.4581 10.4394
47.5069 10.4111
47.5556 10.3064
47.6044 10.3019
47.6531 10.2569
47.702 10.2005
47.7507 10.1985
47.7996 10.1126
47.8483 10.1359
47.8972 10.0974
47.9461 10.0364
47.9948 9.99944
48.0438 10.0129
48.0925 9.92445
48.1415 9.86478
48.1902 9.86225
48.2392 9.83442
48.288 9.80355
48.337 9.75924
48.3858 9.68181
48.4348 9.70336
48.4837 9.66437
48.5327 9.64835
48.5815 9.58744
48.6306 9.54227
48.6795 9.50647
48.7285 9.48901
48.7774 9.43686
48.8265 9.39253
48.8754 9.36151
48.9245 9.34323
48.9734 9.28365
49.0226 9.27779
49.0715 9.26156
49.1206 9.18199
49.1696 9.16129
49.2188 9.11065
49.2679 9.06324
49.3169 9.02767
49.3661 8.99438
49.4151 8.98481
49.4643 8.95073
49.5134 8.91327
49.5626 8.85897
49.6117 8.86854
49.6609 8.8305
49.71 8.73782
49.7592 8.75213
49.8083 8.70734
49.8576 8.68213
49.9067 8.62546
49.956 8.61718
50.0052 8.57403
50.0545 8.59324
50.1036 8.51774
50.153 8.48628
50.2022 8.43415
50.2515 8.41597
50.3007 8.38248
50.3501 8.32367
50.3993 8.33144
50.4487 8.28018
50.498 8.26707
50.5474 8.22062
50.5966 8.18935
50.6461 8.14327
50.6955 8.14397
50.7448 8.10538
50.7943 8.07452
50.8436 8.06186
50.8931 7.99419
50.9424 7.99128
50.9919 7.93174
51.0413 7.92579
51.0908 7.8877
51.1402 7.86979
51.1897 7.81749
51.2391 7.8088
51.2887 7.72074
51.3381 7.73422
51.3877 7.69873
51.4371 7.65523
51.4867 7.6366
51.5362 7.58651
51.5858 7.52949
51.6353 7.51816
51.6849 7.48161
51.7344 7.47839
51.7841 7.43456
51.8336 7.36831
51.8833 7.40871
51.9328 7.37464
51.9826 7.30074
52.0323 7.30044
52.0818 7.27646
52.1316 7.17476
52.1812 7.21536
52.231 7.13122
52.2806 7.14362
52.3304 7.13374
52.38 7.0636
52.4298 7.00713
52.4794 7.02475
52.5293 6.97449
52.5789 6.95776
52.6288 6.92627
52.6785 6.89543
52.7284 6.89224
52.7781 6.83683
52.828 6.8315
52.8777 6.77369
52.9276 6.73301
52.9774 6.72528
53.0273 6.72724
53.0771 6.67918
53.1271 6.62503
53.1769 6.62324
53.2269 6.58911
53.2767 6.52831
53.3267 6.52468
53.3765 6.51777
53.4266 6.48387
53.4766 6.47547
53.5265 6.43274
53.5765 6.3808
53.6264 6.3865
53.6765 6.32833
53.7264 6.31384
53.7765 6.30273
53.8265 6.24563
53.8766 6.22095
53.9266 6.1798
53.9767 6.18701
54.0267 6.11501
54.0769 6.11669
54.1269 6.11164
54.1771 6.06166
54.2271 6.02444
54.2773 5.9912
54.3274 6.00517
54.3776 5.92598
54.4277 5.91324
54.478 5.87426
54.528 5.831
54.5783 5.79726
54.6285 5.76181
54.6788 5.73543
54.7289 5.70038
54.7792 5.66054
54.8296 5.63857
54.8798 5.53873
54.9301 5.53008
54.9803 5.50268
55.0307 5.44827
55.0809 5.43757
55.1314 5.39605
55.1816 5.32893
55.232 5.30321
55.2823 5.25479
55.3328 5.20762
55.383 5.16217
55.4335 5.16547
55.4838 5.00531
55.5344 5.00185
55.5847 4.95343
55.6352 4.92348
55.6856 4.8622
55.7361 4.79591