File: XRD/Ni3Fe_FD0158.xy
TT I
1.27165 8.02456
1.31627 7.21679
1.36089 7.31604
1.40551 6.20259
1.45013 6.41609
1.49476 6.49425
1.53938 6.21729
1.584 5.61164
1.62863 6.02337
1.67325 5.63168
1.71787 5.8356
1.7625 4.97275
1.80712 5.40315
1.85174 4.82271
1.89636 4.99003
1.94099 5.79833
1.98562 5.04411
2.03025 4.63596
2.07487 4.28931
2.11949 4.53291
2.16411 3.97261
2.20874 4.43056
2.25338 4.86471
2.298 4.73081
2.34263 3.53401
2.38725 4.38612
2.43188 3.74398
2.4765 4.63699
2.52115 4.28853
2.56577 5.15377
2.6104 5.23859
2.65503 4.98342
2.69965 5.84045
2.7443 5.78266
2.78893 7.09649
2.83356 7.18539
2.87818 8.32857
2.92281 8.34655
2.96744 8.78171
3.01209 10.4006
3.05672 11.5576
3.10135 12.3522
3.14599 13.2015
3.19062 14.1767
3.23527 15.3452
3.2799 16.0358
3.32454 16.4285
3.36917 17.5759
3.4138 19.0484
3.45844 19.2591
3.50309 20.17
3.54773 20.5302
3.59237 21.6256
3.637 22.3416
3.68164 23.1671
3.7263 24.3541
3.77094 24.9175
3.81558 25.5289
3.86022 26.5299
3.90486 28.1589
3.9495 28.4209
3.99416 29.6392
4.0388 30.6267
4.08344 32.1195
4.12809 32.5967
4.17273 34.3812
4.21738 35.6369
4.26204 36.9738
4.30669 37.7106
4.35133 39.4743
4.39598 41.4112
4.44063 43.1975
4.4853 44.6327
4.52995 46.9487
4.5746 49.0638
4.61925 51.6178
4.6639 53.5147
4.70855 56.4934
4.75322 59.5321
4.79788 63.0586
4.84253 65.6635
4.88719 70.6832
4.93184 75.5845
4.97652 82.1492
5.02118 90.4857
5.06583 101.033
5.11049 117.661
5.15515 154.25
5.19981 544.876
5.24449 3760.78
5.28916 8437.17
5.33382 6341.7
5.37848 434.487
5.42315 161.481
5.46783 127.28
5.5125 113.948
5.55716 107.361
5.60183 101.55
5.6465 98.7576
5.69117 97.4829
5.73586 95.8204
5.78053 95.0212
5.8252 95.2653
5.86988 98.3265
5.91455 104.809
5.95924 123.358
6.00392 287.179
6.0486 1386.15
6.09328 2777.08
6.13795 4034.7
6.18263 705.949
6.22733 121.317
6.27201 88.7927
6.3167 78.4808
6.36138 72.2808
6.40606 68.4209
6.45075 66.5082
6.49545 63.9287
6.54014 62.4351
6.58483 60.805
6.62952 60.0195
6.67421 58.4267
6.71892 57.464
6.76361 56.6365
6.8083 55.6744
6.853 54.8798
6.89769 54.5272
6.94239 54.2949
6.98711 53.7789
7.03181 53.0752
7.07651 53.0804
7.12121 52.9169
7.16591 52.3206
7.21063 52.0688
7.25533 52.2109
7.30004 52.0487
7.34475 52.2519
7.38945 52.7308
7.43416 51.691
7.47889 52.1595
7.5236 56.1023
7.56831 62.7139
7.61303 55.2317
7.65774 53.6443
7.70247 53.8874
7.74719 54.2269
7.79191 55.0263
7.83663 55.2004
7.88135 56.4036
7.92607 57.2388
7.97081 58.1857
8.01553 59.1367
8.06026 60.7023
8.10498 62.0318
8.14971 63.9667
8.19446 65.399
8.23919 68.032
8.28392 70.6921
8.32865 73.3395
8.37339 77.8947
8.41812 83.5482
8.46288 95.4575
8.50761 173.361
8.55235 602.163
8.59709 897.037
8.64183 1513.68
8.68658 1596.08
8.73134 391.994
8.77609 115.122
8.82083 97.0251
8.86558 91.1679
8.91033 87.7706
8.9551 85.203
8.99985 83.8358
9.04461 83.4184
9.08936 82.2606
9.13412 81.5136
9.17888 81.2614
9.22365 86.8001
9.26841 96.5019
9.31318 86.3235
9.35794 82.4972
9.4027 82.3831
9.44749 83.1296
9.49226 83.8906
9.53703 84.465
9.5818 86.0087
9.62657 87.0359
9.67134 88.5587
9.71614 90.9681
9.76091 92.8587
9.80569 95.4489
9.85047 98.9233
9.89525 104.099
9.94005 113.843
9.98484 185.893
10.0296 543.681
10.0744 740.029
10.1192 1050.71
10.164 1683.76
10.2088 978.402
10.2536 213.498
10.2984 116.079
10.3432 107.724
10.388 104.804
10.4328 121.665
10.4776 214.512
10.5224 262.594
10.5672 336.174
10.612 495.511
10.6568 369.237
10.7017 133.126
10.7465 90.6455
10.7913 83.6081
10.8361 80.5672
10.8809 78.1058
10.9257 75.5407
10.9706 74.8029
11.0154 72.7121
11.0602 71.2227
11.105 70.0822
11.1499 68.7528
11.1947 67.9814
11.2395 66.8546
11.2844 66.1806
11.3292 65.4924
11.374 64.782
11.4189 64.3116
11.4637 63.465
11.5086 62.8755
11.5534 62.5547
11.5983 62.2254
11.6431 62.2505
11.688 61.5742
11.7328 61.5807
11.7777 61.3902
11.8225 60.9107
11.8674 61.2105
11.9122 62.3728
11.9571 65.4244
12.002 65.2468
12.0468 67.5585
12.0917 90.5033
12.1366 108.082
12.1814 118.457
12.2263 151.555
12.2712 190.79
12.3161 135.734
12.3609 74.4931
12.4058 64.2694
12.4507 63.3437
12.4956 62.8886
12.5405 63.185
12.5853 63.7239
12.6302 63.9401
12.6751 64.6341
12.72 65.1652
12.7649 66.2407
12.8098 66.9206
12.8547 68.2754
12.8996 69.7828
12.9445 71.1678
12.9894 73.1299
13.0343 75.1975
13.0792 79.3225
13.1242 86.7537
13.1691 132.893
13.214 186.371
13.2589 205.927
13.3038 248.025
13.3487 354.825
13.3937 382.241
13.4386 206.545
13.4835 118.8
13.5285 153.705
13.5734 181.94
13.6183 193.592
13.6633 240.789
13.7082 332.558
13.7531 301.473
13.7981 150.627
13.843 87.7702
13.888 80.6382
13.9329 77.5978
13.9779 75.7744
14.0228 74.3324
14.0678 72.9819
14.1127 72.8629
14.1577 74.1962
14.2027 72.6253
14.2476 70.4666
14.2926 69.5464
14.3376 68.8708
14.3825 68.6779
14.4275 68.3501
14.4725 68.3363
14.5175 68.4733
14.5624 68.1917
14.6074 68.6796
14.6524 69.2149
14.6974 69.815
14.7424 71.3506
14.7874 80.61
14.8324 106.841
14.8774 121.023
14.9224 127.703
14.9674 150.33
15.0124 194.173
15.0574 204.743
15.1024 137.031
15.1474 81.6312
15.1924 71.1949
15.2374 69.2724
15.2824 67.9766
15.3274 66.7943
15.3725 66.6136
15.4175 66.2225
15.4625 65.8139
15.5076 65.4866
15.5526 65.4425
15.5976 65.7113
15.6426 66.4275
15.6877 73.7512
15.7327 95.1404
15.7778 107.313
15.8228 111.376
15.8679 126.021
15.9129 156.99
15.958 186.628
16.003 149.87
16.0481 88.0275
16.0931 66.2685
16.1382 62.0204
16.1833 60.1606
16.2283 58.6877
16.2734 57.9287
16.3185 57.3554
16.3636 56.694
16.4086 55.9941
16.4537 55.4562
16.4988 55.0781
16.5439 55.0293
16.589 54.9544
16.6341 54.4432
16.6792 54.0447
16.7243 54.4468
16.7694 54.4495
16.8145 53.9705
16.8596 54.3074
16.9047 54.6836
16.9498 55.0618
16.9949 54.8205
17.04 55.4624
17.0851 56.678
17.1302 61.1198
17.1754 64.4121
17.2205 65.3568
17.2656 67.4231
17.3108 72.9163
17.3559 79.6874
17.401 80.7106
17.4462 71.2034
17.4913 61.5746
17.5365 59.1152
17.5815 59.1732
17.6268 59.2045
17.6718 59.7547
17.7171 60.2222
17.7622 61.332
17.8074 62.2089
17.8525 63.7391
17.8977 72.0777
17.9428 83.6879
17.9881 88.292
18.0331 91.4165
18.0784 98.8584
18.1237 115.827
18.1688 141.585
18.214 140.969
18.2591 110.344
18.3044 88.6603
18.3495 87.198
18.3948 95.7666
18.4399 103.495
18.4852 94.4455
18.5303 75.7576
18.5756 64.7451
18.6207 62.3564
18.666 61.0394
18.7112 59.9819
18.7565 59.1582
18.8016 58.9543
18.8469 58.1627
18.892 58.0962
18.9374 57.319
18.9825 57.1653
19.0278 56.7124
19.073 56.7251
19.1183 57.3111
19.1635 59.7907
19.2088 61.6838
19.254 62.4294
19.2993 63.3967
19.3447 65.4598
19.3898 69.3615
19.4352 73.9108
19.4804 72.2199
19.5257 63.6488
19.5709 56.2
19.6163 54.1907
19.6615 53.949
19.7068 53.3486
19.752 53.3502
19.7974 53.5957
19.8426 54.5742
19.888 56.9405
19.9332 58.2588
19.9786 58.8008
20.0238 59.3689
20.0692 62.0913
20.1144 67.3394
20.1598 72.3362
20.205 71.0303
20.2504 65.1055
20.2957 61.2868
20.3411 61.9874
20.3863 64.9176
20.4318 64.2776
20.477 58.9375
20.5224 53.2393
20.5677 51.0575
20.6131 50.3269
20.6586 49.7827
20.7038 49.6189
20.7493 49.1682
20.7945 49.2076
20.84 49.1445
20.8853 48.9642
20.9307 48.6283
20.976 48.8153
21.0215 49.021
21.0668 49.6356
21.1122 49.6046
21.1575 49.5277
21.203 49.61
21.2483 50.2937
21.2938 51.4847
21.3391 51.4535
21.3846 50.3731
21.4299 49.4601
21.4754 48.868
21.5207 48.8348
21.5662 48.869
21.6116 49.3731
21.6571 51.371
21.7024 53.0946
21.7479 54.0628
21.7933 54.3515
21.8388 56.2191
21.8843 58.7921
21.9297 62.2474
21.9752 65.9586
22.0206 65.5382
22.0661 60.4171
22.1115 56.3116
22.157 55.651
22.2024 56.411
22.248 54.9889
22.2933 52.4905
22.3389 50.1206
22.3843 49.3419
22.4299 48.8032
22.4753 48.9474
22.5208 48.8601
22.5662 48.6936
22.6118 48.8384
22.6572 49.1669
22.7028 50.2532
22.7483 51.2386
22.7939 52.0645
22.8393 52.0936
22.8849 52.7702
22.9303 53.443
22.9759 55.1855
23.0214 57.2695
23.067 58.2453
23.1126 55.9019
23.1581 52.1908
23.2037 49.77
23.2492 49.3515
23.2948 49.7061
23.3403 51.0548
23.3859 51.6807
23.4314 51.8811
23.477 52.037
23.5225 52.4263
23.5682 53.9707
23.6137 56.0024
23.6593 58.0373
23.7048 57.0935
23.7505 53.1097
23.796 49.0705
23.8417 46.8496
23.8872 46.2573
23.9329 45.5947
23.9784 45.3771
24.0241 45.1105
24.0697 44.7578
24.1154 44.3758
24.1609 44.1496
24.2066 44.0306
24.2522 43.8127
24.2979 43.5911
24.3434 43.5845
24.3892 43.3448
24.4349 43.3804
24.4805 43.1476
24.5262 43.0938
24.5718 42.8978
24.6175 43.0934
24.6631 43.1429
24.7089 43.0192
24.7545 42.8395
24.8002 42.4932
24.8458 42.3868
24.8916 42.6512
24.9372 42.7184
24.983 42.9056
25.0286 43.1593
25.0744 43.4548
25.12 44.0703
25.1658 44.4509
25.2114 44.692
25.2572 45.1627
25.3029 44.9276
25.3487 44.7528
25.3943 44.9748
25.4402 44.8414
25.4858 44.5257
25.5316 43.0277
25.5773 41.6972
25.6231 41.4248
25.669 40.829
25.7147 40.9337
25.7605 40.8456
25.8062 40.855
25.8521 41.0745
25.8977 40.9978
25.9436 41.0
25.9893 40.9651
26.0352 41.1577
26.0809 41.3074
26.1268 41.6295
26.1725 41.9873
26.2184 41.9587
26.2641 41.383
26.31 40.8794
26.3557 40.8329
26.4017 40.7921
26.4474 40.9512
26.4933 41.1307
26.5391 41.3115
26.585 41.5024
26.6308 41.765
26.6767 42.1428
26.7225 42.7571
26.7684 42.6982
26.8142 42.0254
26.8601 41.3685
26.9059 40.9118
26.9519 40.5984
26.9979 40.1104
27.0437 39.5827
27.0896 39.1447
27.1354 39.2775
27.1814 39.156
27.2272 38.9876
27.2732 38.9249
27.3191 38.7829
27.3651 38.7335
27.4109 38.6093
27.4569 38.8219
27.5027 38.5517
27.5488 38.792
27.5946 38.7481
27.6407 38.8621
27.6865 38.8522
27.7326 38.7444
27.7784 38.4246
27.8245 38.4562
27.8703 38.3363
27.9164 38.6049
27.9623 38.5727
28.0084 38.806
28.0543 39.1304
28.1003 39.2217
28.1462 39.4381
28.1923 39.2841
28.2384 38.9677
28.2843 38.5404
28.3304 38.0827
28.3764 37.561
28.4225 37.1912
28.4684 36.6988
28.5145 36.3451
28.5605 36.2434
28.6066 36.0125
28.6526 36.0135
28.6987 35.9807
28.7447 35.7401
28.7908 35.6818
28.8368 35.6482
28.8829 35.6449
28.9289 35.5888
28.9751 35.4456
29.0211 35.4561
29.0673 35.2928
29.1133 35.0964
29.1595 34.8593
29.2055 34.6296
29.2517 34.493
29.2977 34.5578
29.3439 34.4723
29.3899 34.3743
29.4361 34.3716
29.4824 34.3908
29.5284 34.2616
29.5746 33.9564
29.6207 33.6014
29.6669 33.3426
29.713 33.1684
29.7593 33.0687
29.8053 33.1139
29.8516 33.0681
29.8977 33.0616
29.9439 32.8911
29.99 32.8701
30.0363 32.7349
30.0824 32.7201
30.1287 32.7442
30.1748 32.6756
30.2211 32.6142
30.2673 32.4553
30.3136 32.6852
30.3597 32.6721
30.406 32.6194
30.4522 32.4049
30.4985 32.3132
30.5447 32.5161
30.591 32.3379
30.6372 32.3572
30.6835 32.3424
30.7297 32.4115
30.7761 32.5339
30.8224 32.4126
30.8686 32.4678
30.915 32.1917
30.9612 32.0432
31.0076 31.7998
31.0538 31.5346
31.1002 31.4948
31.1464 31.2124
31.1928 31.2827
31.2391 31.2742
31.2855 31.2068
31.3317 31.203
31.3781 31.2012
31.4244 31.2072
31.4708 30.9931
31.5171 31.0782
31.5636 31.1495
31.6098 31.0717
31.6563 30.8899
31.7026 30.7678
31.7491 30.4375
31.7953 30.4669
31.8418 30.3911
31.8881 30.3891
31.9346 30.3306
31.9809 30.2032
32.0275 30.1589
32.074 30.2987
32.1203 30.1043
32.1668 30.0184
32.2132 29.6987
32.2597 29.6049
32.306 29.5199
32.3526 29.3158
32.399 29.0959
32.4455 29.0988
32.4919 28.9183
32.5385 28.9047
32.5848 28.7585
32.6314 28.8032
32.6778 28.696
32.7244 28.5334
32.7708 28.3956
32.8174 28.395
32.8638 28.2653
32.9104 28.41
32.9569 28.317
33.0035 28.1052
33.0499 28.0691
33.0966 28.0641
33.143 27.9602
33.1897 27.8914
33.2361 27.8271
33.2828 27.7515
33.3293 27.7678
33.3759 27.6062
33.4226 27.6919
33.4691 27.4571
33.5158 27.3696
33.5623 27.189
33.609 27.0659
33.6555 26.923
33.7022 26.788
33.7487 26.7103
33.7954 26.7353
33.842 26.5085
33.8887 26.6238
33.9353 26.424
33.982 26.3773
34.0286 26.3528
34.0753 26.3317
34.1219 26.173
34.1687 26.103
34.2152 26.0432
34.262 25.8216
34.3086 25.7856
34.3554 25.7496
34.402 25.5728
34.4488 25.6076
34.4954 25.4365
34.5422 25.4433
34.5889 25.2574
34.6357 25.2415
34.6825 25.0946
34.7292 25.0237
34.776 24.9526
34.8227 24.9029
34.8695 24.792
34.9162 24.7163
34.9631 24.7527
35.0098 24.7345
35.0566 24.5802
35.1033 24.4817
35.1502 24.551
35.1969 24.5061
35.2438 24.3143
35.2906 24.3354
35.3375 24.2126
35.3842 24.2317
35.4311 24.1747
35.4779 24.0738
35.5248 24.0671
35.5716 24.0355
35.6185 24.0914
35.6653 23.8453
35.7123 23.7647
35.759 23.7082
35.806 23.6636
35.8528 23.4318
35.8998 23.3815
35.9468 23.3092
35.9936 23.3193
36.0406 23.2397
36.0874 23.1325
36.1345 23.0878
36.1813 23.0863
36.2283 22.8964
36.2752 22.8746
36.3222 22.856
36.3691 22.8361
36.4161 22.6351
36.463 22.6383
36.5101 22.5952
36.557 22.5602
36.6041 22.3543
36.651 22.3311
36.6981 22.2887
36.745 22.2421
36.7921 22.1786
36.839 22.1
36.8861 21.953
36.9331 21.8882
36.9802 21.9011
37.0272 21.8355
37.0743 21.6925
37.1213 21.7834
37.1684 21.6674
37.2154 21.5495
37.2626 21.4471
37.3098 21.4033
37.3568 21.3512
37.404 21.2786
37.451 21.1874
37.4982 21.1405
37.5452 21.026
37.5924 20.9619
37.6395 21.0474
37.6867 20.9093
37.7337 20.8401
37.781 20.7306
37.8281 20.7088
37.8753 20.6506
37.9224 20.5073
37.9697 20.5064
38.0168 20.3969
38.064 20.3217
38.1111 20.2782
38.1584 20.2166
38.2056 20.1636
38.2529 20.1157
38.3 19.9957
38.3473 19.9813
38.3945 19.93
38.4418 19.7984
38.489 19.7836
38.5363 19.6877
38.5837 19.6129
38.6309 19.5642
38.6782 19.4276
38.7254 19.4466
38.7728 19.338
38.82 19.3527
38.8674 19.32
38.9146 19.235
38.9621 19.1961
39.0093 19.0335
39.0567 19.0655
39.104 18.9847
39.1514 18.8567
39.1987 18.7672
39.2461 18.7867
39.2934 18.7404
39.3409 18.6172
39.3882 18.5547
39.4356 18.5031
39.483 18.4384
39.5304 18.4158
39.5778 18.3963
39.6253 18.2934
39.6726 18.2017
39.7201 18.1976
39.7675 18.0666
39.815 18.0939
39.8624 17.9877
39.9099 17.9985
39.9575 17.8673
40.0049 17.8195
40.0525 17.8461
40.0999 17.7276
40.1474 17.6472
40.1949 17.5799
40.2425 17.5347
40.2899 17.5241
40.3375 17.3849
40.385 17.3892
40.4326 17.403
40.48 17.3332
40.5277 17.2596
40.5752 17.2268
40.6228 17.1217
40.6703 17.1189
40.718 17.0393
40.7655 17.0041
40.8132 16.9408
40.8607 16.9205
40.9084 16.8043
40.9559 16.7323
41.0036 16.6542
41.0512 16.6533
41.0989 16.5961
41.1465 16.5183
41.1942 16.4982
41.242 16.3419
41.2896 16.3074
41.3373 16.2769
41.3849 16.2895
41.4327 16.185
41.4803 16.0896
41.5281 16.0816
41.5758 16.0094
41.6236 15.9639
41.6712 15.9369
41.7191 15.841
41.7667 15.8108
41.8146 15.8101
41.8622 15.6782
41.9101 15.6703
41.9578 15.5763
42.0057 15.5837
42.0534 15.4875
42.1013 15.4402
42.149 15.3625
42.1969 15.341
42.2446 15.2976
42.2925 15.2241
42.3403 15.2225
42.3882 15.1639
42.436 15.0803
42.4839 15.0585
42.5319 14.9699
42.5797 14.9833
42.6277 14.9224
42.6755 14.8498
42.7235 14.7887
42.7713 14.7363
42.8193 14.6938
42.8671 14.6494
42.9152 14.5753
42.963 14.5627
43.0111 14.4802
43.0589 14.4082
43.107 14.3932
43.1549 14.3727
43.2029 14.2556
43.2508 14.2223
43.2989 14.1972
43.3468 14.163
43.3949 14.0714
43.4429 14.0204
43.491 14.0124
43.5389 13.9349
43.5871 13.8777
43.635 13.8492
43.6832 13.8564
43.7312 13.7785
43.7793 13.7029
43.8273 13.6848
43.8755 13.601
43.9237 13.6091
43.9717 13.5046
44.0199 13.4471
44.068 13.4676
44.1162 13.4014
44.1642 13.3829
44.2125 13.2963
44.2606 13.2766
44.3088 13.1698
44.3569 13.1741
44.4052 13.1389
44.4533 13.0407
44.5016 12.9774
44.5497 12.9917
44.598 12.9489
44.6461 12.8609
44.6945 12.8439
44.7426 12.7685
44.791 12.6873
44.8391 12.6984
44.8875 12.6536
44.9357 12.6658
44.984 12.5434
45.0322 12.5222
45.0806 12.4408
45.1288 12.4291
45.1773 12.3633
45.2257 12.3878
45.2739 12.2807
45.3224 12.2518
45.3706 12.2304
45.4191 12.1578
45.4673 12.156
45.5158 12.0795
45.5641 12.0185
45.6126 11.9623
45.6609 11.984
45.7094 11.9069
45.7577 11.8376
45.8063 11.8149
45.8546 11.806
45.9031 11.7233
45.9515 11.6355
46.0001 11.6488
46.0484 11.6425
46.097 11.5895
46.1454 11.5516
46.194 11.5038
46.2424 11.4463
46.291 11.3838
46.3395 11.355
46.3881 11.3308
46.4365 11.3002
46.4852 11.2622
46.5337 11.2248
46.5823 11.2094
46.631 11.096
46.6795 11.1015
46.7282 11.0468
46.7767 10.9835
46.8254 10.906
46.8739 10.9023
46.9226 10.8618
46.9712 10.8357
47.0199 10.7642
47.0685 10.7303
47.1173 10.6791
47.1658 10.657
47.2146 10.6309
47.2632 10.5975
47.312 10.5718
47.3606 10.5026
47.4095 10.4902
47.4581 10.472
47.5069 10.4232
47.5556 10.3052
47.6044 10.272
47.6531 10.2748
47.702 10.2205
47.7507 10.233
47.7996 10.1714
47.8483 10.0985
47.8972 10.098
47.9461 10.0401
47.9948 10.0208
48.0438 9.98389
48.0925 9.97811
48.1415 9.93743
48.1902 9.88365
48.2392 9.83291
48.288 9.83639
48.337 9.72817
48.3858 9.72964
48.4348 9.72536
48.4837 9.69107
48.5327 9.61148
48.5815 9.60771
48.6306 9.59935
48.6795 9.52434
48.7285 9.45646
48.7774 9.42702
48.8265 9.43231
48.8754 9.40486
48.9245 9.37482
48.9734 9.31972
49.0226 9.29122
49.0715 9.25104
49.1206 9.18135
49.1696 9.18635
49.2188 9.13199
49.2679 9.1285
49.3169 9.09649
49.3661 9.02139
49.4151 9.00064
49.4643 8.9956
49.5134 8.90634
49.5626 8.88987
49.6117 8.88672
49.6609 8.85986
49.71 8.76108
49.7592 8.78208
49.8083 8.74456
49.8576 8.70034
49.9067 8.65638
49.956 8.66402
50.0052 8.63267
50.0545 8.57319
50.1036 8.53305
50.153 8.51643
50.2022 8.4693
50.2515 8.42628
50.3007 8.40991
50.3501 8.40081
50.3993 8.36137
50.4487 8.28914
50.498 8.28537
50.5474 8.22404
50.5966 8.18496
50.6461 8.1802
50.6955 8.17917
50.7448 8.1314
50.7943 8.11599
50.8436 8.07541
50.8931 8.01601
50.9424 7.97966
50.9919 7.96016
51.0413 7.91873
51.0908 7.92626
51.1402 7.90156
51.1897 7.86283
51.2391 7.81659
51.2887 7.77676
51.3381 7.75745
51.3877 7.68493
51.4371 7.69282
51.4867 7.61281
51.5362 7.54324
51.5858 7.58423
51.6353 7.53997
51.6849 7.51168
51.7344 7.46404
51.7841 7.4664
51.8336 7.41714
51.8833 7.40038
51.9328 7.36729
51.9826 7.31761
52.0323 7.30056
52.0818 7.30189
52.1316 7.23221
52.1812 7.18742
52.231 7.16724
52.2806 7.12381
52.3304 7.14344
52.38 7.06763
52.4298 7.03769
52.4794 7.00742
52.5293 7.0088
52.5789 6.96854
52.6288 6.94496
52.6785 6.91534
52.7284 6.88062
52.7781 6.87458
52.828 6.84435
52.8777 6.8048
52.9276 6.79933
52.9774 6.76975
53.0273 6.73913
53.0771 6.68683
53.1271 6.72033
53.1769 6.65347
53.2269 6.61423
53.2767 6.56648
53.3267 6.56345
53.3765 6.55189
53.4266 6.51321
53.4766 6.45868
53.5265 6.47292
53.5765 6.42415
53.6264 6.38488
53.6765 6.3711
53.7264 6.34399
53.7765 6.29852
53.8265 6.29599
53.8766 6.20072
53.9266 6.20901
53.9767 6.13791
54.0267 6.12535
54.0769 6.09265
54.1269 6.105
54.1771 6.05258
54.2271 6.02342
54.2773 5.93285
54.3274 6.00586
54.3776 5.92911
54.4277 5.89025
54.478 5.86391
54.528 5.78292
54.5783 5.76171
54.6285 5.73041
54.6788 5.72142
54.7289 5.65693
54.7792 5.61532
54.8296 5.53129
54.8798 5.51212
54.9301 5.48775
54.9803 5.38413
55.0307 5.40157
55.0809 5.3193
55.1314 5.32705
55.1816 5.23817
55.232 5.21152
55.2823 5.17167
55.3328 5.09641
55.383 5.06933
55.4335 4.98938
55.4838 4.94272
55.5344 4.9061
55.5847 4.8808
55.6352 4.86798
55.6856 4.8132
55.7361 4.74654