File: XRD/Ni3Fe_FD0405.xy
TT I
1.27165 7.74505
1.31627 6.77056
1.36089 6.37561
1.40551 6.51282
1.45013 6.28308
1.49476 6.38241
1.53938 6.22707
1.584 6.1596
1.62863 5.99731
1.67325 5.40607
1.71787 4.98621
1.7625 5.1826
1.80712 4.82729
1.85174 5.39783
1.89636 5.37639
1.94099 4.72674
1.98562 4.78306
2.03025 4.88377
2.07487 4.6743
2.11949 5.04423
2.16411 5.39776
2.20874 16.6512
2.25338 26.8635
2.298 6.17926
2.34263 5.50414
2.38725 5.35942
2.43188 4.83342
2.4765 6.46427
2.52115 6.19513
2.56577 6.68924
2.6104 7.48945
2.65503 6.77572
2.69965 7.17262
2.7443 7.42666
2.78893 8.0167
2.83356 8.14646
2.87818 8.13127
2.92281 8.75014
2.96744 9.17886
3.01209 10.0119
3.05672 11.2161
3.10135 12.626
3.14599 13.0666
3.19062 13.7805
3.23527 14.8054
3.2799 15.9525
3.32454 17.1324
3.36917 18.3415
3.4138 19.397
3.45844 19.8121
3.50309 21.4093
3.54773 22.1215
3.59237 25.0233
3.637 109.683
3.68164 67.5939
3.7263 26.8854
3.77094 26.9758
3.81558 27.3582
3.86022 28.1295
3.90486 29.4089
3.9495 30.3261
3.99416 31.3076
4.0388 32.8308
4.08344 34.6764
4.12809 35.7831
4.17273 38.0486
4.21738 45.8441
4.26204 298.625
4.30669 262.751
4.35133 51.2487
4.39598 46.1159
4.44063 56.6934
4.4853 71.2734
4.52995 52.5251
4.5746 52.6912
4.61925 54.6788
4.6639 56.3491
4.70855 59.1376
4.75322 62.1233
4.79788 64.9947
4.84253 68.2689
4.88719 73.1373
4.93184 76.7144
4.97652 82.3901
5.02118 88.9064
5.06583 97.7165
5.11049 110.035
5.15515 197.556
5.19981 430.354
5.24449 2966.65
5.28916 11605.5
5.33382 3618.54
5.37848 224.15
5.42315 138.427
5.46783 119.018
5.5125 109.764
5.55716 105.243
5.60183 101.108
5.6465 99.1583
5.69117 96.8166
5.73586 94.7959
5.78053 94.2938
5.8252 94.1804
5.86988 94.8254
5.91455 97.714
5.95924 106.561
6.00392 232.81
6.0486 1034.24
6.09328 3963.25
6.13795 3472.3
6.18263 305.496
6.22733 100.456
6.27201 87.2842
6.3167 111.699
6.36138 85.2495
6.40606 71.654
6.45075 69.2644
6.49545 67.087
6.54014 65.1812
6.58483 64.5532
6.62952 64.8595
6.67421 101.956
6.71892 166.347
6.76361 72.8116
6.8083 60.3809
6.853 59.0707
6.89769 58.4731
6.94239 58.0421
6.98711 57.5016
7.03181 57.1553
7.07651 56.6467
7.12121 56.4557
7.16591 57.1976
7.21063 57.1058
7.25533 75.2126
7.30004 212.077
7.34475 102.203
7.38945 58.7352
7.43416 56.0438
7.47889 55.8627
7.5236 55.9343
7.56831 56.9934
7.61303 59.0556
7.65774 59.3458
7.70247 57.7001
7.74719 57.442
7.79191 57.9848
7.83663 58.0144
7.88135 59.0663
7.92607 59.5889
7.97081 60.7104
8.01553 61.842
8.06026 63.7749
8.10498 65.5132
8.14971 76.9406
8.19446 75.0601
8.23919 71.1226
8.28392 73.3193
8.32865 75.4686
8.37339 80.2373
8.41812 87.97
8.46288 123.111
8.50761 178.182
8.55235 415.9
8.59709 1087.63
8.64183 2099.12
8.68658 1126.19
8.73134 199.031
8.77609 104.737
8.82083 95.8242
8.86558 92.3741
8.91033 92.5431
8.9551 95.6108
8.99985 87.6476
9.04461 85.3178
9.08936 84.6333
9.13412 83.67
9.17888 83.7297
9.22365 84.952
9.26841 83.9046
9.31318 84.6309
9.35794 85.0516
9.4027 85.0177
9.44749 85.5525
9.49226 86.2732
9.53703 87.4804
9.5818 89.1005
9.62657 94.7636
9.67134 102.78
9.71614 96.057
9.76091 95.7651
9.80569 98.5723
9.85047 102.361
9.89525 131.31
9.94005 146.668
9.98484 187.295
10.0296 364.062
10.0744 767.219
10.1192 1575.64
10.164 1745.09
10.2088 508.471
10.2536 141.632
10.2984 118.826
10.3432 120.743
10.388 108.101
10.4328 122.556
10.4776 166.093
10.5224 268.578
10.5672 477.539
10.612 541.934
10.6568 230.572
10.7017 102.669
10.7465 89.4598
10.7913 85.4755
10.8361 83.1109
10.8809 81.1444
10.9257 80.7256
10.9706 81.7641
11.0154 77.0363
11.0602 74.7022
11.105 73.6785
11.1499 79.1822
11.1947 88.822
11.2395 77.8933
11.2844 72.9757
11.3292 69.156
11.374 67.7139
11.4189 67.0806
11.4637 66.4957
11.5086 67.3434
11.5534 71.1478
11.5983 67.5774
11.6431 65.0691
11.688 64.4139
11.7328 64.5707
11.7777 64.4739
11.8225 64.1759
11.8674 63.7982
11.9122 64.2933
11.9571 64.5741
12.002 65.2575
12.0468 69.5927
12.0917 81.7699
12.1366 103.302
12.1814 144.547
12.2263 200.166
12.2712 184.303
12.3161 108.798
12.3609 74.2052
12.4058 66.508
12.4507 65.7588
12.4956 66.1852
12.5405 66.0862
12.5853 67.2708
12.6302 76.8829
12.6751 83.8374
12.72 72.6593
12.7649 69.4727
12.8098 70.1074
12.8547 71.1999
12.8996 72.8412
12.9445 73.7491
12.9894 75.354
13.0343 77.2336
13.0792 80.3895
13.1242 90.3941
13.1691 116.384
13.214 152.071
13.2589 226.077
13.3038 342.216
13.3487 429.629
13.3937 297.115
13.4386 138.786
13.4835 110.17
13.5285 125.08
13.5734 158.538
13.6183 230.709
13.6633 326.55
13.7082 356.484
13.7531 216.948
13.7981 106.814
13.843 84.4656
13.888 81.3529
13.9329 79.1685
13.9779 77.6854
14.0228 75.9833
14.0678 74.6287
14.1127 74.3918
14.1577 74.3117
14.2027 73.3147
14.2476 72.0899
14.2926 72.3516
14.3376 73.8673
14.3825 72.0804
14.4275 70.384
14.4725 69.8949
14.5175 70.3315
14.5624 70.69
14.6074 73.0082
14.6524 73.8974
14.6974 72.0928
14.7424 73.7384
14.7874 80.9487
14.8324 91.7305
14.8774 110.988
14.9224 146.341
14.9674 196.421
15.0124 220.353
15.0574 165.741
15.1024 100.697
15.1474 75.431
15.1924 72.6615
15.2374 73.382
15.2824 72.5577
15.3274 70.0042
15.3725 68.5791
15.4175 67.9095
15.4625 67.6647
15.5076 67.9283
15.5526 67.7063
15.5976 67.373
15.6426 68.3954
15.6877 74.1431
15.7327 82.2182
15.7778 95.5585
15.8228 121.298
15.8679 160.027
15.9129 193.737
15.958 171.16
16.003 107.755
16.0481 72.0486
16.0931 67.043
16.1382 65.0907
16.1833 62.4237
16.2283 60.7312
16.2734 59.845
16.3185 60.5065
16.3636 61.5096
16.4086 59.6191
16.4537 57.8588
16.4988 57.0214
16.5439 56.8222
16.589 56.6844
16.6341 56.3606
16.6792 56.0207
16.7243 56.1426
16.7694 56.2217
16.8145 56.1632
16.8596 56.6803
16.9047 58.6119
16.9498 58.7835
16.9949 57.2221
17.04 57.2036
17.0851 58.4592
17.1302 60.069
17.1754 62.8929
17.2205 67.0733
17.2656 73.3887
17.3108 81.8835
17.3559 83.412
17.401 74.4984
17.4462 64.5143
17.4913 60.6937
17.5365 60.7047
17.5815 60.5108
17.6268 60.8007
17.6718 61.8661
17.7171 62.267
17.7622 62.8369
17.8074 63.1507
17.8525 65.4465
17.8977 70.1351
17.9428 75.699
17.9881 83.0477
18.0331 97.3227
18.0784 116.398
18.1237 137.071
18.1688 137.776
18.214 111.831
18.2591 90.1575
18.3044 89.7615
18.3495 98.0337
18.3948 106.765
18.4399 101.98
18.4852 82.5754
18.5303 68.6721
18.5756 63.9977
18.6207 62.8639
18.666 61.8425
18.7112 61.2223
18.7565 60.4542
18.8016 60.1698
18.8469 59.36
18.892 59.1787
18.9374 58.6839
18.9825 58.3408
19.0278 58.2599
19.073 58.4177
19.1183 59.0545
19.1635 60.0957
19.2088 61.0549
19.254 63.0547
19.2993 66.5492
19.3447 72.2625
19.3898 77.2498
19.4352 75.0885
19.4804 66.4504
19.5257 59.0812
19.5709 55.7267
19.6163 55.2019
19.6615 55.0796
19.7068 54.7176
19.752 54.6296
19.7974 54.8546
19.8426 55.8424
19.888 56.6358
19.9332 57.4625
19.9786 59.7004
20.0238 62.5167
20.0692 67.0895
20.1144 70.6528
20.1598 70.5671
20.205 65.5855
20.2504 63.1945
20.2957 64.0507
20.3411 66.4136
20.3863 66.2201
20.4318 61.2676
20.477 56.0145
20.5224 53.3141
20.5677 52.3723
20.6131 51.4508
20.6586 50.7565
20.7038 50.9545
20.7493 50.345
20.7945 49.9747
20.84 49.9727
20.8853 49.9416
20.9307 49.7986
20.976 49.8749
21.0215 49.8396
21.0668 50.3073
21.1122 50.6277
21.1575 51.1362
21.203 51.7793
21.2483 52.5115
21.2938 52.6931
21.3391 51.5556
21.3846 50.4186
21.4299 49.6731
21.4754 49.5913
21.5207 49.7303
21.5662 49.9235
21.6116 50.41
21.6571 51.1144
21.7024 51.9773
21.7479 53.6496
21.7933 55.8919
21.8388 59.1328
21.8843 62.7768
21.9297 65.5943
21.9752 65.4954
22.0206 62.0209
22.0661 58.0914
22.1115 57.1079
22.157 57.0904
22.2024 56.23
22.248 53.352
22.2933 51.5531
22.3389 50.4829
22.3843 50.3198
22.4299 50.3681
22.4753 49.9595
22.5208 49.8035
22.5662 49.6223
22.6118 49.8491
22.6572 49.9495
22.7028 50.4207
22.7483 50.8959
22.7939 51.4875
22.8393 52.9655
22.8849 54.5727
22.9303 56.5132
22.9759 58.5976
23.0214 58.9827
23.067 56.5619
23.1126 53.0567
23.1581 50.5586
23.2037 50.0407
23.2492 50.2006
23.2948 50.0122
23.3403 50.2097
23.3859 50.9727
23.4314 51.7628
23.477 53.1862
23.5225 54.9207
23.5682 57.4769
23.6137 59.0367
23.6593 57.6969
23.7048 53.8453
23.7505 50.1577
23.796 47.9809
23.8417 47.1608
23.8872 46.6648
23.9329 46.3314
23.9784 46.0909
24.0241 45.7681
24.0697 45.5092
24.1154 45.0916
24.1609 45.1421
24.2066 44.9987
24.2522 44.8067
24.2979 44.6919
24.3434 44.4023
24.3892 44.2407
24.4349 44.1379
24.4805 43.9416
24.5262 44.2615
24.5718 43.8601
24.6175 43.9867
24.6631 43.8882
24.7089 43.6274
24.7545 43.4928
24.8002 43.2492
24.8458 43.2183
24.8916 43.0865
24.9372 43.2545
24.983 43.5367
25.0286 43.6932
25.0744 43.9944
25.12 44.6318
25.1658 45.1348
25.2114 45.6699
25.2572 45.6828
25.3029 45.8025
25.3487 45.855
25.3943 45.7895
25.4402 44.9358
25.4858 43.882
25.5316 42.4918
25.5773 41.8579
25.6231 42.0045
25.669 41.4359
25.7147 41.48
25.7605 41.4196
25.8062 41.6478
25.8521 41.6184
25.8977 41.6085
25.9436 41.8198
25.9893 41.8509
26.0352 42.3401
26.0809 42.407
26.1268 42.7358
26.1725 42.4205
26.2184 41.9764
26.2641 41.4823
26.31 41.0465
26.3557 41.1855
26.4017 41.2153
26.4474 41.3555
26.4933 41.7255
26.5391 42.0317
26.585 42.4703
26.6308 42.868
26.6767 43.0505
26.7225 43.0459
26.7684 42.5548
26.8142 41.9497
26.8601 41.511
26.9059 41.1163
26.9519 40.6291
26.9979 40.1447
27.0437 39.7758
27.0896 39.5991
27.1354 39.646
27.1814 39.5894
27.2272 39.5171
27.2732 39.4197
27.3191 39.1636
27.3651 39.4734
27.4109 39.3398
27.4569 39.4812
27.5027 39.4487
27.5488 39.4793
27.5946 39.3069
27.6407 39.0605
27.6865 39.014
27.7326 38.7407
27.7784 38.8919
27.8245 38.6373
27.8703 38.9659
27.9164 39.1073
27.9623 39.0774
28.0084 39.5075
28.0543 39.8596
28.1003 39.9221
28.1462 39.8142
28.1923 39.4151
28.2384 38.8738
28.2843 38.6486
28.3304 38.2037
28.3764 37.696
28.4225 37.4029
28.4684 37.3611
28.5145 36.7742
28.5605 36.7044
28.6066 36.5794
28.6526 36.6145
28.6987 36.4129
28.7447 36.2974
28.7908 36.2166
28.8368 36.1932
28.8829 36.2336
28.9289 36.1447
28.9751 35.916
29.0211 35.8142
29.0673 35.588
29.1133 35.4001
29.1595 35.1866
29.2055 35.1453
29.2517 35.2304
29.2977 35.1886
29.3439 35.0328
29.3899 35.0172
29.4361 34.952
29.4824 34.8445
29.5284 34.6524
29.5746 34.3066
29.6207 33.9879
29.6669 33.8523
29.713 33.8412
29.7593 33.7697
29.8053 33.7337
29.8516 33.5677
29.8977 33.5626
29.9439 33.3468
29.99 33.4078
30.0363 33.2539
30.0824 33.2866
30.1287 33.0934
30.1748 33.2051
30.2211 33.1599
30.2673 33.0803
30.3136 33.1731
30.3597 33.1006
30.406 33.0677
30.4522 32.7524
30.4985 32.7673
30.5447 32.8446
30.591 32.8159
30.6372 32.9258
30.6835 32.9017
30.7297 33.1006
30.7761 32.9407
30.8224 32.7698
30.8686 32.6164
30.915 32.3509
30.9612 32.2465
31.0076 32.0828
31.0538 31.998
31.1002 31.8886
31.1464 31.8387
31.1928 31.7584
31.2391 31.6658
31.2855 31.6444
31.3317 31.5207
31.3781 31.6353
31.4244 31.6282
31.4708 31.5887
31.5171 31.4611
31.5636 31.5929
31.6098 31.1731
31.6563 31.0491
31.7026 30.9874
31.7491 30.8613
31.7953 30.8722
31.8418 30.7509
31.8881 30.9405
31.9346 30.7958
31.9809 30.7686
32.0275 30.7165
32.074 30.6313
32.1203 30.3595
32.1668 30.2823
32.2132 30.1485
32.2597 29.9214
32.306 29.949
32.3526 29.6859
32.399 29.6149
32.4455 29.514
32.4919 29.4349
32.5385 29.3586
32.5848 29.1847
32.6314 29.159
32.6778 29.0809
32.7244 28.9701
32.7708 28.837
32.8174 28.9039
32.8638 28.783
32.9104 28.747
32.9569 28.6214
33.0035 28.5632
33.0499 28.5752
33.0966 28.3712
33.143 28.4317
33.1897 28.3927
33.2361 28.2519
33.2828 28.2966
33.3293 28.074
33.3759 28.0306
33.4226 27.8718
33.4691 27.7354
33.5158 27.6853
33.5623 27.5946
33.609 27.393
33.6555 27.3055
33.7022 27.2366
33.7487 27.1257
33.7954 27.152
33.842 27.0041
33.8887 26.972
33.9353 26.978
33.982 26.8341
34.0286 26.6714
34.0753 26.6761
34.1219 26.5332
34.1687 26.4542
34.2152 26.4452
34.262 26.2986
34.3086 26.1331
34.3554 26.1205
34.402 25.9644
34.4488 25.8871
34.4954 25.8324
34.5422 25.751
34.5889 25.7285
34.6357 25.5951
34.6825 25.5237
34.7292 25.3859
34.776 25.2937
34.8227 25.1585
34.8695 25.2956
34.9162 25.1773
34.9631 25.0297
35.0098 25.1285
35.0566 24.91
35.1033 24.8223
35.1502 24.815
35.1969 24.8282
35.2438 24.7483
35.2906 24.5547
35.3375 24.5971
35.3842 24.5487
35.4311 24.5793
35.4779 24.4858
35.5248 24.448
35.5716 24.3432
35.6185 24.2569
35.6653 24.1434
35.7123 24.0701
35.759 24.0087
35.806 23.8623
35.8528 23.8304
35.8998 23.7636
35.9468 23.5631
35.9936 23.6508
36.0406 23.6083
36.0874 23.562
36.1345 23.4333
36.1813 23.2997
36.2283 23.2241
36.2752 23.1961
36.3222 23.1898
36.3691 23.0669
36.4161 22.9512
36.463 22.973
36.5101 22.9358
36.557 22.8512
36.6041 22.6955
36.651 22.6988
36.6981 22.6755
36.745 22.5506
36.7921 22.3893
36.839 22.3491
36.8861 22.3984
36.9331 22.2152
36.9802 22.1841
37.0272 22.1379
37.0743 22.0165
37.1213 21.9237
37.1684 21.9066
37.2154 21.7718
37.2626 21.7836
37.3098 21.7108
37.3568 21.6618
37.404 21.6091
37.451 21.4704
37.4982 21.4616
37.5452 21.3835
37.5924 21.3828
37.6395 21.3095
37.6867 21.1642
37.7337 21.0778
37.781 21.0218
37.8281 20.9738
37.8753 20.9154
37.9224 20.7811
37.9697 20.7826
38.0168 20.7311
38.064 20.6845
38.1111 20.5408
38.1584 20.4705
38.2056 20.4904
38.2529 20.4156
38.3 20.3635
38.3473 20.2804
38.3945 20.1966
38.4418 20.1053
38.489 20.0809
38.5363 20.0117
38.5837 19.8999
38.6309 19.8863
38.6782 19.7695
38.7254 19.7139
38.7728 19.7031
38.82 19.6506
38.8674 19.5864
38.9146 19.4987
38.9621 19.3937
39.0093 19.3842
39.0567 19.2601
39.104 19.3214
39.1514 19.1312
39.1987 19.1325
39.2461 19.0297
39.2934 19.034
39.3409 18.9157
39.3882 18.8771
39.4356 18.8195
39.483 18.7551
39.5304 18.7319
39.5778 18.6975
39.6253 18.5324
39.6726 18.5177
39.7201 18.5193
39.7675 18.4797
39.815 18.4
39.8624 18.3295
39.9099 18.2554
39.9575 18.171
40.0049 18.1427
40.0525 18.0502
40.0999 17.9986
40.1474 17.9593
40.1949 17.9041
40.2425 17.8303
40.2899 17.7679
40.3375 17.728
40.385 17.6186
40.4326 17.5929
40.48 17.4806
40.5277 17.5398
40.5752 17.4159
40.6228 17.3162
40.6703 17.3208
40.718 17.2982
40.7655 17.2138
40.8132 17.1924
40.8607 17.1368
40.9084 17.1171
40.9559 16.9861
41.0036 16.9887
41.0512 16.8608
41.0989 16.8318
41.1465 16.7569
41.1942 16.7366
41.242 16.6126
41.2896 16.6347
41.3373 16.5652
41.3849 16.483
41.4327 16.4538
41.4803 16.3487
41.5281 16.3271
41.5758 16.2166
41.6236 16.2305
41.6712 16.1447
41.7191 16.0991
41.7667 16.0829
41.8146 15.971
41.8622 15.9179
41.9101 15.9508
41.9578 15.8243
42.0057 15.7819
42.0534 15.7022
42.1013 15.7023
42.149 15.6075
42.1969 15.567
42.2446 15.5489
42.2925 15.4777
42.3403 15.4471
42.3882 15.431
42.436 15.3373
42.4839 15.2204
42.5319 15.2237
42.5797 15.162
42.6277 15.1347
42.6755 15.1025
42.7235 14.9802
42.7713 14.9581
42.8193 14.8392
42.8671 14.855
42.9152 14.8008
42.963 14.7716
43.0111 14.7199
43.0589 14.6806
43.107 14.5757
43.1549 14.5382
43.2029 14.4443
43.2508 14.4879
43.2989 14.4142
43.3468 14.3396
43.3949 14.3232
43.4429 14.2715
43.491 14.2003
43.5389 14.1344
43.5871 14.1205
43.635 14.0888
43.6832 14.0399
43.7312 13.9284
43.7793 13.8743
43.8273 13.8751
43.8755 13.7857
43.9237 13.7417
43.9717 13.7728
44.0199 13.7256
44.068 13.661
44.1162 13.6099
44.1642 13.4957
44.2125 13.5462
44.2606 13.455
44.3088 13.4076
44.3569 13.3677
44.4052 13.3105
44.4533 13.2555
44.5016 13.2154
44.5497 13.2075
44.598 13.1777
44.6461 13.0928
44.6945 13.0031
44.7426 12.9249
44.791 12.9588
44.8391 12.9029
44.8875 12.8509
44.9357 12.81
44.984 12.7513
45.0322 12.7008
45.0806 12.6661
45.1288 12.5792
45.1773 12.5719
45.2257 12.5386
45.2739 12.517
45.3224 12.4573
45.3706 12.4038
45.4191 12.3161
45.4673 12.3507
45.5158 12.264
45.5641 12.235
45.6126 12.177
45.6609 12.1212
45.7094 12.0773
45.7577 12.0812
45.8063 12.0109
45.8546 11.998
45.9031 11.9157
45.9515 11.8778
46.0001 11.7998
46.0484 11.813
46.097 11.7997
46.1454 11.7479
46.194 11.6601
46.2424 11.6061
46.291 11.5594
46.3395 11.5491
46.3881 11.4899
46.4365 11.4961
46.4852 11.3792
46.5337 11.375
46.5823 11.3503
46.631 11.2868
46.6795 11.3007
46.7282 11.2117
46.7767 11.1499
46.8254 11.1152
46.8739 11.0619
46.9226 11.0385
46.9712 11.0212
47.0199 10.9198
47.0685 10.8663
47.1173 10.8572
47.1658 10.8317
47.2146 10.8071
47.2632 10.7633
47.312 10.7434
47.3606 10.6951
47.4095 10.6127
47.4581 10.6051
47.5069 10.5561
47.5556 10.5193
47.6044 10.4667
47.6531 10.4501
47.702 10.4015
47.7507 10.3364
47.7996 10.3141
47.8483 10.2981
47.8972 10.223
47.9461 10.2442
47.9948 10.1623
48.0438 10.1188
48.0925 10.1219
48.1415 10.0501
48.1902 10.0337
48.2392 9.97949
48.288 9.97223
48.337 9.94903
48.3858 9.91561
48.4348 9.85942
48.4837 9.81918
48.5327 9.82012
48.5815 9.75639
48.6306 9.72079
48.6795 9.6972
48.7285 9.63368
48.7774 9.61918
48.8265 9.61564
48.8754 9.55414
48.9245 9.48474
48.9734 9.49504
49.0226 9.45715
49.0715 9.38104
49.1206 9.37188
49.1696 9.33451
49.2188 9.31785
49.2679 9.24687
49.3169 9.21344
49.3661 9.18404
49.4151 9.1575
49.4643 9.12278
49.5134 9.06104
49.5626 9.02049
49.6117 9.01058
49.6609 8.94652
49.71 8.9021
49.7592 8.91472
49.8083 8.88178
49.8576 8.83962
49.9067 8.79416
49.956 8.77202
50.0052 8.73318
50.0545 8.70557
50.1036 8.66188
50.153 8.6488
50.2022 8.62526
50.2515 8.50979
50.3007 8.52485
50.3501 8.51472
50.3993 8.47562
50.4487 8.43525
50.498 8.38858
50.5474 8.38306
50.5966 8.33743
50.6461 8.30753
50.6955 8.29895
50.7448 8.22785
50.7943 8.22044
50.8436 8.16196
50.8931 8.14526
50.9424 8.10562
50.9919 8.0828
51.0413 8.01886
51.0908 8.03898
51.1402 7.98381
51.1897 7.96835
51.2391 7.88644
51.2887 7.8551
51.3381 7.85655
51.3877 7.83605
51.4371 7.78252
51.4867 7.78668
51.5362 7.75014
51.5858 7.69325
51.6353 7.69842
51.6849 7.5973
51.7344 7.58705
51.7841 7.57005
51.8336 7.56833
51.8833 7.52847
51.9328 7.46632
51.9826 7.39584
52.0323 7.39671
52.0818 7.35046
52.1316 7.33058
52.1812 7.33026
52.231 7.31645
52.2806 7.26695
52.3304 7.24098
52.38 7.20013
52.4298 7.15737
52.4794 7.15374
52.5293 7.11875
52.5789 7.07281
52.6288 7.03677
52.6785 7.01795
52.7284 6.9595
52.7781 6.96249
52.828 6.94887
52.8777 6.9161
52.9276 6.83229
52.9774 6.81057
53.0273 6.83304
53.0771 6.79169
53.1271 6.79075
53.1769 6.70717
53.2269 6.72588
53.2767 6.65779
53.3267 6.66526
53.3765 6.55991
53.4266 6.63051
53.4766 6.57158
53.5265 6.52341
53.5765 6.48548
53.6264 6.49586
53.6765 6.44766
53.7264 6.43091
53.7765 6.4322
53.8265 6.34909
53.8766 6.31536
53.9266 6.32635
53.9767 6.28533
54.0267 6.27793
54.0769 6.27844
54.1269 6.20084
54.1771 6.18009
54.2271 6.09765
54.2773 6.09245
54.3274 6.08348
54.3776 6.05838
54.4277 6.00179
54.478 5.98476
54.528 5.93145
54.5783 5.91074
54.6285 5.87252
54.6788 5.84885
54.7289 5.78224
54.7792 5.75272
54.8296 5.66378
54.8798 5.61893
54.9301 5.60601
54.9803 5.55474
55.0307 5.62666
55.0809 5.46807
55.1314 5.52098
55.1816 5.45232
55.232 5.38239
55.2823 5.35447
55.3328 5.24309
55.383 5.2097
55.4335 5.15714
55.4838 5.14459
55.5344 5.03429
55.5847 5.03331
55.6352 5.03633
55.6856 4.98032
55.7361 4.91194