File: XRD/Ni3Fe_FD0186.xy
TT I
1.27165 8.01171
1.31627 6.79394
1.36089 6.95009
1.40551 6.25274
1.45013 6.60345
1.49476 6.1631
1.53938 6.06477
1.584 5.85714
1.62863 6.1361
1.67325 5.78926
1.71787 5.23319
1.7625 5.50424
1.80712 4.66835
1.85174 5.07472
1.89636 4.74236
1.94099 5.07285
1.98562 4.57401
2.03025 5.15031
2.07487 4.75216
2.11949 5.24863
2.16411 4.68422
2.20874 4.62061
2.25338 4.77075
2.298 4.71503
2.34263 4.0283
2.38725 4.25614
2.43188 4.06383
2.4765 5.07891
2.52115 4.27024
2.56577 4.78963
2.6104 5.74287
2.65503 5.12309
2.69965 5.85733
2.7443 6.06171
2.78893 7.13321
2.83356 7.61387
2.87818 8.27352
2.92281 8.80917
2.96744 9.74974
3.01209 10.1918
3.05672 10.6721
3.10135 12.5833
3.14599 13.225
3.19062 14.0212
3.23527 14.9375
3.2799 16.1766
3.32454 16.5892
3.36917 17.6052
3.4138 18.9642
3.45844 19.8119
3.50309 20.191
3.54773 21.2758
3.59237 22.0169
3.637 22.9721
3.68164 23.0398
3.7263 24.3811
3.77094 25.4974
3.81558 25.7631
3.86022 27.066
3.90486 28.1029
3.9495 29.0948
3.99416 29.9074
4.0388 31.1945
4.08344 32.4318
4.12809 33.285
4.17273 34.7035
4.21738 35.972
4.26204 36.9022
4.30669 37.606
4.35133 40.1834
4.39598 41.6894
4.44063 43.7807
4.4853 45.16
4.52995 47.6948
4.5746 49.7734
4.61925 52.1263
4.6639 53.9939
4.70855 57.1502
4.75322 59.6792
4.79788 63.2412
4.84253 67.0488
4.88719 71.3399
4.93184 75.6591
4.97652 82.6674
5.02118 90.932
5.06583 101.151
5.11049 116.694
5.15515 152.117
5.19981 520.292
5.24449 3777.89
5.28916 8705.89
5.33382 6088.49
5.37848 407.996
5.42315 158.706
5.46783 126.465
5.5125 113.908
5.55716 108.386
5.60183 102.236
5.6465 99.5257
5.69117 97.562
5.73586 95.9292
5.78053 95.6304
5.8252 95.8506
5.86988 99.0334
5.91455 104.895
5.95924 122.397
6.00392 279.153
6.0486 1371.43
6.09328 2915.01
6.13795 4043.12
6.18263 646.426
6.22733 118.538
6.27201 88.8023
6.3167 78.3956
6.36138 73.1908
6.40606 69.2164
6.45075 66.8957
6.49545 64.6263
6.54014 62.8825
6.58483 61.401
6.62952 60.2466
6.67421 58.7019
6.71892 58.2007
6.76361 57.0101
6.8083 56.0694
6.853 55.5628
6.89769 54.9385
6.94239 54.8811
6.98711 54.2459
7.03181 53.4518
7.07651 53.6451
7.12121 52.9069
7.16591 53.3396
7.21063 52.2009
7.25533 52.6357
7.30004 52.6179
7.34475 52.3433
7.38945 52.5182
7.43416 52.4484
7.47889 52.5857
7.5236 56.2039
7.56831 61.6311
7.61303 54.9787
7.65774 53.8787
7.70247 54.5942
7.74719 54.8136
7.79191 55.9872
7.83663 55.7577
7.88135 56.9255
7.92607 57.6283
7.97081 58.7975
8.01553 59.8727
8.06026 61.2644
8.10498 62.3846
8.14971 64.3906
8.19446 66.1911
8.23919 68.7319
8.28392 71.473
8.32865 74.1958
8.37339 78.9168
8.41812 83.9484
8.46288 95.9275
8.50761 171.504
8.55235 592.144
8.59709 930.901
8.64183 1609.32
8.68658 1622.69
8.73134 378.282
8.77609 114.67
8.82083 97.3161
8.86558 92.0069
8.91033 88.0916
8.9551 86.0277
8.99985 84.6713
9.04461 84.1131
9.08936 83.055
9.13412 81.9416
9.17888 82.0658
9.22365 86.9048
9.26841 94.6678
9.31318 86.2115
9.35794 82.8582
9.4027 82.8123
9.44749 83.8781
9.49226 84.3253
9.53703 85.1998
9.5818 86.9947
9.62657 88.0378
9.67134 89.5632
9.71614 91.9279
9.76091 93.7608
9.80569 96.3235
9.85047 99.9157
9.89525 104.702
9.94005 114.495
9.98484 184.442
10.0296 535.894
10.0744 759.648
10.1192 1114.67
10.164 1712.3
10.2088 921.952
10.2536 201.507
10.2984 116.499
10.3432 108.313
10.388 105.142
10.4328 121.94
10.4776 213.037
10.5224 267.551
10.5672 349.701
10.612 512.896
10.6568 359.935
10.7017 129.427
10.7465 90.6848
10.7913 84.5747
10.8361 81.2673
10.8809 78.6132
10.9257 76.5957
10.9706 75.1967
11.0154 73.5673
11.0602 72.3843
11.105 70.6282
11.1499 69.5201
11.1947 68.2059
11.2395 67.3639
11.2844 66.8531
11.3292 66.1676
11.374 65.371
11.4189 64.9418
11.4637 64.1656
11.5086 63.5586
11.5534 63.0096
11.5983 62.688
11.6431 62.9595
11.688 62.104
11.7328 62.231
11.7777 61.9443
11.8225 61.9043
11.8674 61.8537
11.9122 63.025
11.9571 65.8128
12.002 65.2838
12.0468 68.1631
12.0917 90.1676
12.1366 108.554
12.1814 122.781
12.2263 158.086
12.2712 194.089
12.3161 134.259
12.3609 73.8721
12.4058 64.5167
12.4507 63.6872
12.4956 63.8437
12.5405 63.7521
12.5853 64.1562
12.6302 64.441
12.6751 65.2654
12.72 65.8429
12.7649 66.7496
12.8098 67.7847
12.8547 68.9016
12.8996 70.5271
12.9445 71.9983
12.9894 73.9388
13.0343 75.8972
13.0792 79.8998
13.1242 86.9852
13.1691 132.398
13.214 185.628
13.2589 211.566
13.3038 260.744
13.3487 369.33
13.3937 376.209
13.4386 200.465
13.4835 118.239
13.5285 153.221
13.5734 182.81
13.6183 201.047
13.6633 252.661
13.7082 341.672
13.7531 298.578
13.7981 147.097
13.843 88.055
13.888 81.2888
13.9329 78.417
13.9779 76.7802
14.0228 75.1811
14.0678 73.6451
14.1127 73.2982
14.1577 74.3717
14.2027 72.6987
14.2476 71.1124
14.2926 70.2509
14.3376 69.3756
14.3825 69.2726
14.4275 69.033
14.4725 68.9358
14.5175 69.0335
14.5624 69.064
14.6074 69.1457
14.6524 69.6231
14.6974 70.613
14.7424 72.0689
14.7874 81.1976
14.8324 106.883
14.8774 121.973
14.9224 131.637
14.9674 156.643
15.0124 200.355
15.0574 204.135
15.1024 132.735
15.1474 80.8434
15.1924 71.499
15.2374 69.5479
15.2824 68.6483
15.3274 67.8442
15.3725 67.1299
15.4175 66.7535
15.4625 66.3716
15.5076 66.1553
15.5526 65.9858
15.5976 66.1957
15.6426 67.1741
15.6877 74.3572
15.7327 94.8443
15.7778 107.892
15.8228 114.281
15.8679 130.668
15.9129 162.524
15.958 187.478
16.003 147.608
16.0481 86.3306
16.0931 66.3219
16.1382 62.1724
16.1833 60.8002
16.2283 59.4466
16.2734 58.5703
16.3185 57.9691
16.3636 57.2098
16.4086 56.3352
16.4537 56.1272
16.4988 55.6493
16.5439 55.5516
16.589 55.1404
16.6341 55.0344
16.6792 54.6569
16.7243 54.7841
16.7694 54.775
16.8145 54.6997
16.8596 54.7156
16.9047 55.3184
16.9498 55.5315
16.9949 55.4987
17.04 55.7907
17.0851 57.3905
17.1302 61.6735
17.1754 64.8088
17.2205 66.2265
17.2656 68.38
17.3108 74.6187
17.3559 81.1985
17.401 81.7954
17.4462 70.8551
17.4913 61.8164
17.5365 59.8718
17.5815 59.6276
17.6268 59.9396
17.6718 60.3697
17.7171 60.7444
17.7622 61.9008
17.8074 62.7923
17.8525 64.4664
17.8977 72.4786
17.9428 84.2106
17.9881 89.1038
18.0331 93.5687
18.0784 101.816
18.1237 119.583
18.1688 143.807
18.214 141.02
18.2591 109.455
18.3044 89.1662
18.3495 88.9482
18.3948 97.9115
18.4399 104.858
18.4852 94.3842
18.5303 75.3385
18.5756 65.3723
18.6207 62.8895
18.666 61.6434
18.7112 60.7352
18.7565 59.813
18.8016 59.497
18.8469 58.7832
18.892 58.5013
18.9374 57.9852
18.9825 57.333
19.0278 57.4663
19.073 57.2437
19.1183 57.5559
19.1635 60.1109
19.2088 62.1796
19.254 63.1666
19.2993 64.2192
19.3447 66.4769
19.3898 70.554
19.4352 75.0618
19.4804 72.521
19.5257 63.3617
19.5709 56.6146
19.6163 54.6824
19.6615 54.511
19.7068 53.7976
19.752 53.939
19.7974 54.1548
19.8426 55.2969
19.888 57.1821
19.9332 58.5257
19.9786 59.412
20.0238 60.216
20.0692 63.2031
20.1144 68.3177
20.1598 73.5448
20.205 71.2645
20.2504 65.9561
20.2957 62.1161
20.3411 62.9129
20.3863 65.807
20.4318 64.5576
20.477 59.0262
20.5224 53.6322
20.5677 51.5831
20.6131 50.8351
20.6586 50.1945
20.7038 50.1486
20.7493 49.8298
20.7945 49.68
20.84 49.4255
20.8853 49.3183
20.9307 49.1646
20.976 49.4265
21.0215 49.409
21.0668 49.9024
21.1122 50.0621
21.1575 50.0791
21.203 50.2829
21.2483 50.9252
21.2938 52.0717
21.3391 51.9352
21.3846 51.0251
21.4299 49.629
21.4754 49.1266
21.5207 49.3481
21.5662 49.4952
21.6116 49.924
21.6571 51.9117
21.7024 53.603
21.7479 54.6796
21.7933 55.2611
21.8388 56.7145
21.8843 59.8642
21.9297 63.369
21.9752 66.7989
22.0206 66.1051
22.0661 60.8002
22.1115 56.8461
22.157 56.4248
22.2024 57.1444
22.248 55.4039
22.2933 52.8117
22.3389 50.4413
22.3843 49.7071
22.4299 49.3772
22.4753 49.4365
22.5208 49.332
22.5662 49.3095
22.6118 49.3906
22.6572 49.6914
22.7028 50.8052
22.7483 51.82
22.7939 52.3068
22.8393 52.6904
22.8849 53.3985
22.9303 54.3364
22.9759 56.0681
23.0214 58.2467
23.067 58.9169
23.1126 56.2271
23.1581 52.515
23.2037 50.2639
23.2492 49.7103
23.2948 50.3367
23.3403 51.5386
23.3859 52.316
23.4314 52.3192
23.477 52.7819
23.5225 53.4284
23.5682 54.6946
23.6137 57.0411
23.6593 58.7711
23.7048 57.4103
23.7505 53.2252
23.796 49.3348
23.8417 47.4287
23.8872 46.6092
23.9329 46.1411
23.9784 45.806
24.0241 45.3904
24.0697 45.2122
24.1154 44.8974
24.1609 44.6256
24.2066 44.5121
24.2522 44.3641
24.2979 44.2147
24.3434 44.0003
24.3892 43.914
24.4349 43.6506
24.4805 43.4475
24.5262 43.7005
24.5718 43.4356
24.6175 43.5586
24.6631 43.6813
24.7089 43.4701
24.7545 43.2557
24.8002 42.9369
24.8458 43.0102
24.8916 42.9365
24.9372 43.1028
24.983 43.3121
25.0286 43.5741
25.0744 44.0234
25.12 44.5159
25.1658 44.9232
25.2114 45.2755
25.2572 45.5137
25.3029 45.5523
25.3487 45.4245
25.3943 45.5553
25.4402 45.3765
25.4858 44.8316
25.5316 43.3984
25.5773 42.0835
25.6231 41.7969
25.669 41.2548
25.7147 41.21
25.7605 41.2169
25.8062 41.6013
25.8521 41.5524
25.8977 41.4362
25.9436 41.6029
25.9893 41.4932
26.0352 41.6671
26.0809 41.7591
26.1268 42.2537
26.1725 42.4066
26.2184 42.3879
26.2641 41.7471
26.31 41.3025
26.3557 41.2478
26.4017 41.2132
26.4474 41.4259
26.4933 41.4625
26.5391 41.707
26.585 42.0275
26.6308 42.2452
26.6767 42.5399
26.7225 43.2183
26.7684 43.2507
26.8142 42.4105
26.8601 41.6688
26.9059 41.4112
26.9519 40.9657
26.9979 40.5124
27.0437 39.9899
27.0896 39.7303
27.1354 39.5584
27.1814 39.4436
27.2272 39.3012
27.2732 39.4397
27.3191 39.1567
27.3651 39.1986
27.4109 39.142
27.4569 39.1488
27.5027 39.1385
27.5488 39.3099
27.5946 39.0935
27.6407 39.153
27.6865 39.1165
27.7326 38.9037
27.7784 38.9989
27.8245 38.8451
27.8703 38.8575
27.9164 38.9935
27.9623 38.9583
28.0084 39.3598
28.0543 39.524
28.1003 39.7382
28.1462 39.8778
28.1923 39.7978
28.2384 39.2305
28.2843 38.8248
28.3304 38.3602
28.3764 38.0784
28.4225 37.627
28.4684 37.1446
28.5145 36.7148
28.5605 36.5125
28.6066 36.4308
28.6526 36.366
28.6987 36.3827
28.7447 36.0342
28.7908 36.051
28.8368 35.9723
28.8829 36.0424
28.9289 35.9631
28.9751 35.8759
29.0211 35.709
29.0673 35.5473
29.1133 35.3454
29.1595 35.2212
29.2055 34.8771
29.2517 34.986
29.2977 34.8516
29.3439 34.7977
29.3899 34.6856
29.4361 34.6016
29.4824 34.6769
29.5284 34.5933
29.5746 34.2911
29.6207 34.0032
29.6669 33.7096
29.713 33.5257
29.7593 33.4571
29.8053 33.4662
29.8516 33.4075
29.8977 33.3485
29.9439 33.1582
29.99 33.1687
30.0363 33.0428
30.0824 33.1399
30.1287 33.016
30.1748 32.9598
30.2211 32.9858
30.2673 32.9149
30.3136 33.0761
30.3597 33.007
30.406 32.8996
30.4522 32.7657
30.4985 32.7013
30.5447 32.8137
30.591 32.707
30.6372 32.7345
30.6835 32.739
30.7297 32.7414
30.7761 32.7922
30.8224 32.8044
30.8686 32.6854
30.915 32.5259
30.9612 32.3836
31.0076 32.0859
31.0538 31.9311
31.1002 31.8479
31.1464 31.6535
31.1928 31.6881
31.2391 31.6109
31.2855 31.5449
31.3317 31.3934
31.3781 31.5037
31.4244 31.405
31.4708 31.3779
31.5171 31.3004
31.5636 31.3516
31.6098 31.2913
31.6563 31.1585
31.7026 31.0249
31.7491 30.8107
31.7953 30.885
31.8418 30.7433
31.8881 30.718
31.9346 30.5878
31.9809 30.6463
32.0275 30.5666
32.074 30.6058
32.1203 30.4147
32.1668 30.2081
32.2132 30.0696
32.2597 29.9141
32.306 29.9131
32.3526 29.6983
32.399 29.5321
32.4455 29.4091
32.4919 29.3544
32.5385 29.2306
32.5848 29.0849
32.6314 29.0116
32.6778 28.9441
32.7244 28.9524
32.7708 28.8249
32.8174 28.6782
32.8638 28.585
32.9104 28.6062
32.9569 28.5104
33.0035 28.425
33.0499 28.2665
33.0966 28.2837
33.143 28.2522
33.1897 28.2593
33.2361 28.2192
33.2828 28.112
33.3293 27.9856
33.3759 28.0407
33.4226 27.8212
33.4691 27.7521
33.5158 27.6848
33.5623 27.5143
33.609 27.2989
33.6555 27.1978
33.7022 27.1117
33.7487 26.9633
33.7954 26.9689
33.842 26.9167
33.8887 26.8037
33.9353 26.7251
33.982 26.6149
34.0286 26.6308
34.0753 26.533
34.1219 26.4285
34.1687 26.3455
34.2152 26.255
34.262 26.1746
34.3086 25.9388
34.3554 26.0401
34.402 25.8932
34.4488 25.7721
34.4954 25.7793
34.5422 25.6884
34.5889 25.5687
34.6357 25.506
34.6825 25.3434
34.7292 25.3613
34.776 25.1999
34.8227 25.1748
34.8695 25.1264
34.9162 25.0346
34.9631 24.9892
35.0098 24.9447
35.0566 24.8508
35.1033 24.7551
35.1502 24.7523
35.1969 24.7616
35.2438 24.6139
35.2906 24.5323
35.3375 24.5099
35.3842 24.4086
35.4311 24.4405
35.4779 24.3611
35.5248 24.3986
35.5716 24.303
35.6185 24.2234
35.6653 24.087
35.7123 24.1015
35.759 24.0154
35.806 23.825
35.8528 23.6947
35.8998 23.6524
35.9468 23.5769
35.9936 23.5038
36.0406 23.4725
36.0874 23.4325
36.1345 23.3524
36.1813 23.2561
36.2283 23.2545
36.2752 23.139
36.3222 23.0974
36.3691 23.0678
36.4161 22.9274
36.463 22.9059
36.5101 22.9159
36.557 22.7956
36.6041 22.6414
36.651 22.6796
36.6981 22.5604
36.745 22.6038
36.7921 22.3782
36.839 22.2877
36.8861 22.2803
36.9331 22.1383
36.9802 22.092
37.0272 22.0277
37.0743 21.9201
37.1213 21.9013
37.1684 21.8774
37.2154 21.7537
37.2626 21.6859
37.3098 21.5461
37.3568 21.5604
37.404 21.544
37.451 21.3696
37.4982 21.3288
37.5452 21.2099
37.5924 21.1373
37.6395 21.2392
37.6867 21.1065
37.7337 21.0277
37.781 20.9326
37.8281 20.8738
37.8753 20.7516
37.9224 20.8407
37.9697 20.6797
38.0168 20.7074
38.064 20.5272
38.1111 20.4454
38.1584 20.4867
38.2056 20.3002
38.2529 20.322
38.3 20.2795
38.3473 20.1649
38.3945 20.0372
38.4418 19.9829
38.489 19.9722
38.5363 19.8826
38.5837 19.7987
38.6309 19.7809
38.6782 19.7279
38.7254 19.6185
38.7728 19.564
38.82 19.471
38.8674 19.4776
38.9146 19.4075
38.9621 19.3313
39.0093 19.2671
39.0567 19.2104
39.104 19.1379
39.1514 19.0887
39.1987 19.1305
39.2461 18.9669
39.2934 18.9141
39.3409 18.8092
39.3882 18.7917
39.4356 18.7484
39.483 18.6891
39.5304 18.6332
39.5778 18.6091
39.6253 18.4447
39.6726 18.4598
39.7201 18.4033
39.7675 18.3809
39.815 18.2562
39.8624 18.2378
39.9099 18.1471
39.9575 18.1275
40.0049 18.0417
40.0525 17.9834
40.0999 17.9853
40.1474 17.8754
40.1949 17.7975
40.2425 17.7351
40.2899 17.6712
40.3375 17.7044
40.385 17.5184
40.4326 17.5417
40.48 17.4836
40.5277 17.459
40.5752 17.302
40.6228 17.2955
40.6703 17.2469
40.718 17.1711
40.7655 17.1784
40.8132 17.0718
40.8607 17.1119
40.9084 17.0161
40.9559 16.9357
41.0036 16.9328
41.0512 16.8387
41.0989 16.7828
41.1465 16.7205
41.1942 16.6626
41.242 16.5839
41.2896 16.5401
41.3373 16.4995
41.3849 16.4157
41.4327 16.3746
41.4803 16.334
41.5281 16.242
41.5758 16.1897
41.6236 16.1159
41.6712 16.0718
41.7191 16.0795
41.7667 16.014
41.8146 15.9425
41.8622 15.8626
41.9101 15.8506
41.9578 15.7556
42.0057 15.6937
42.0534 15.6894
42.1013 15.5837
42.149 15.5501
42.1969 15.5048
42.2446 15.4848
42.2925 15.42
42.3403 15.377
42.3882 15.3175
42.436 15.2734
42.4839 15.2344
42.5319 15.1608
42.5797 15.0864
42.6277 15.0401
42.6755 15.0157
42.7235 14.9111
42.7713 14.9139
42.8193 14.8452
42.8671 14.7894
42.9152 14.7977
42.963 14.698
43.0111 14.6448
43.0589 14.5611
43.107 14.5722
43.1549 14.5215
43.2029 14.4185
43.2508 14.4131
43.2989 14.3462
43.3468 14.2929
43.3949 14.1882
43.4429 14.2154
43.491 14.128
43.5389 14.0748
43.5871 14.0549
43.635 14.0238
43.6832 13.9802
43.7312 13.9071
43.7793 13.8565
43.8273 13.8135
43.8755 13.7638
43.9237 13.7152
43.9717 13.6774
44.0199 13.6136
44.068 13.5666
44.1162 13.4848
44.1642 13.4724
44.2125 13.4493
44.2606 13.3609
44.3088 13.3606
44.3569 13.2967
44.4052 13.2554
44.4533 13.1682
44.5016 13.1121
44.5497 13.1051
44.598 13.0745
44.6461 12.9767
44.6945 13.0017
44.7426 12.9404
44.791 12.8578
44.8391 12.8453
44.8875 12.8012
44.9357 12.7532
44.984 12.6815
45.0322 12.6357
45.0806 12.5752
45.1288 12.5672
45.1773 12.506
45.2257 12.4892
45.2739 12.449
45.3224 12.3709
45.3706 12.2995
45.4191 12.3195
45.4673 12.2759
45.5158 12.2073
45.5641 12.0999
45.6126 12.1242
45.6609 12.0601
45.7094 12.04
45.7577 11.9715
45.8063 11.9029
45.8546 11.8929
45.9031 11.8342
45.9515 11.7685
46.0001 11.7645
46.0484 11.7663
46.097 11.7068
46.1454 11.6728
46.194 11.5889
46.2424 11.5758
46.291 11.4987
46.3395 11.4873
46.3881 11.4088
46.4365 11.4144
46.4852 11.363
46.5337 11.3092
46.5823 11.2927
46.631 11.2205
46.6795 11.2051
46.7282 11.1744
46.7767 11.1107
46.8254 11.0496
46.8739 11.0357
46.9226 10.9669
46.9712 10.9632
47.0199 10.8896
47.0685 10.8871
47.1173 10.842
47.1658 10.8026
47.2146 10.7317
47.2632 10.6944
47.312 10.696
47.3606 10.6315
47.4095 10.5732
47.4581 10.5567
47.5069 10.5255
47.5556 10.4578
47.6044 10.3906
47.6531 10.3774
47.702 10.317
47.7507 10.2864
47.7996 10.2421
47.8483 10.219
47.8972 10.1762
47.9461 10.1482
47.9948 10.1186
48.0438 10.0609
48.0925 10.0877
48.1415 10.0128
48.1902 9.98956
48.2392 9.95103
48.288 9.92607
48.337 9.87917
48.3858 9.8514
48.4348 9.83187
48.4837 9.7938
48.5327 9.7532
48.5815 9.70214
48.6306 9.67846
48.6795 9.61748
48.7285 9.59861
48.7774 9.55969
48.8265 9.53198
48.8754 9.46864
48.9245 9.47474
48.9734 9.44532
49.0226 9.42488
49.0715 9.3506
49.1206 9.29448
49.1696 9.25728
49.2188 9.20276
49.2679 9.20482
49.3169 9.18914
49.3661 9.1275
49.4151 9.07229
49.4643 9.04702
49.5134 9.04792
49.5626 8.99107
49.6117 8.9833
49.6609 8.93274
49.71 8.88569
49.7592 8.82989
49.8083 8.81512
49.8576 8.78723
49.9067 8.76756
49.956 8.74893
50.0052 8.65456
50.0545 8.66076
50.1036 8.63551
50.153 8.61057
50.2022 8.57569
50.2515 8.53293
50.3007 8.46385
50.3501 8.43085
50.3993 8.39352
50.4487 8.40309
50.498 8.34133
50.5474 8.32806
50.5966 8.27999
50.6461 8.3003
50.6955 8.24654
50.7448 8.17558
50.7943 8.19305
50.8436 8.09774
50.8931 8.10934
50.9424 8.07743
50.9919 8.02544
51.0413 8.03427
51.0908 7.98975
51.1402 7.96208
51.1897 7.90067
51.2391 7.89848
51.2887 7.86157
51.3381 7.83172
51.3877 7.77992
51.4371 7.73445
51.4867 7.72803
51.5362 7.7079
51.5858 7.66384
51.6353 7.61708
51.6849 7.57868
51.7344 7.53458
51.7841 7.53387
51.8336 7.51187
51.8833 7.49148
51.9328 7.44202
51.9826 7.40198
52.0323 7.35555
52.0818 7.3473
52.1316 7.31689
52.1812 7.29584
52.231 7.2444
52.2806 7.21888
52.3304 7.185
52.38 7.20221
52.4298 7.11896
52.4794 7.08814
52.5293 7.09394
52.5789 7.06567
52.6288 7.04956
52.6785 6.97923
52.7284 6.98599
52.7781 6.93546
52.828 6.9222
52.8777 6.86544
52.9276 6.83597
52.9774 6.81294
53.0273 6.80483
53.0771 6.79935
53.1271 6.78196
53.1769 6.74147
53.2269 6.71025
53.2767 6.64032
53.3267 6.61516
53.3765 6.5712
53.4266 6.59833
53.4766 6.54432
53.5265 6.50317
53.5765 6.48331
53.6264 6.43542
53.6765 6.416
53.7264 6.45987
53.7765 6.35406
53.8265 6.33877
53.8766 6.31334
53.9266 6.32355
53.9767 6.2445
54.0267 6.24585
54.0769 6.16914
54.1269 6.18022
54.1771 6.1246
54.2271 6.04225
54.2773 6.02983
54.3274 6.01995
54.3776 5.94921
54.4277 5.93595
54.478 5.92683
54.528 5.89585
54.5783 5.80688
54.6285 5.79744
54.6788 5.67256
54.7289 5.73982
54.7792 5.65865
54.8296 5.60663
54.8798 5.60351
54.9301 5.51575
54.9803 5.4951
55.0307 5.47933
55.0809 5.37193
55.1314 5.34556
55.1816 5.32657
55.232 5.23831
55.2823 5.25504
55.3328 5.07578
55.383 5.11504
55.4335 5.11328
55.4838 5.03055
55.5344 4.95957
55.5847 4.87602
55.6352 4.95195
55.6856 4.87813
55.7361 4.84364