File: XRD/Ni3Fe_FD0149.xy
TT I
1.27165 7.62692
1.31627 7.0349
1.36089 7.52549
1.40551 7.07616
1.45013 6.16202
1.49476 6.08154
1.53938 5.87322
1.584 5.65337
1.62863 5.79323
1.67325 5.74233
1.71787 5.45866
1.7625 5.28867
1.80712 5.42776
1.85174 5.29904
1.89636 4.92839
1.94099 5.72755
1.98562 4.34143
2.03025 4.99691
2.07487 4.90452
2.11949 5.39333
2.16411 4.403
2.20874 5.35491
2.25338 4.48912
2.298 5.14181
2.34263 4.14605
2.38725 4.36183
2.43188 4.50202
2.4765 4.24779
2.52115 4.87816
2.56577 4.93556
2.6104 5.54452
2.65503 5.30538
2.69965 5.93267
2.7443 6.52883
2.78893 6.57981
2.83356 7.25167
2.87818 8.31796
2.92281 8.63254
2.96744 9.55819
3.01209 10.5811
3.05672 11.1681
3.10135 12.5057
3.14599 13.0249
3.19062 14.1058
3.23527 14.7255
3.2799 15.231
3.32454 17.0177
3.36917 17.5469
3.4138 18.6911
3.45844 19.637
3.50309 20.554
3.54773 20.7522
3.59237 21.593
3.637 22.5049
3.68164 23.2663
3.7263 24.4015
3.77094 25.1893
3.81558 26.0888
3.86022 26.1197
3.90486 27.6948
3.9495 28.5535
3.99416 29.605
4.0388 30.2414
4.08344 31.3266
4.12809 32.1084
4.17273 33.7268
4.21738 35.3852
4.26204 36.0022
4.30669 37.7569
4.35133 39.4932
4.39598 41.1644
4.44063 43.0162
4.4853 44.8748
4.52995 47.1061
4.5746 49.2212
4.61925 51.4296
4.6639 53.7807
4.70855 56.8872
4.75322 59.3109
4.79788 62.4546
4.84253 66.1257
4.88719 70.3513
4.93184 74.8752
4.97652 81.9412
5.02118 90.06
5.06583 101.025
5.11049 117.36
5.15515 154.384
5.19981 550.587
5.24449 3772.32
5.28916 8141.78
5.33382 6363.03
5.37848 452.201
5.42315 163.056
5.46783 127.536
5.5125 114.052
5.55716 107.169
5.60183 101.36
5.6465 98.6412
5.69117 97.1755
5.73586 95.1916
5.78053 94.8226
5.8252 95.3081
5.86988 98.2074
5.91455 105.196
5.95924 124.267
6.00392 287.913
6.0486 1380.76
6.09328 2697.94
6.13795 3988.56
6.18263 723.942
6.22733 122.93
6.27201 88.7713
6.3167 78.0782
6.36138 72.3657
6.40606 68.2885
6.45075 66.2442
6.49545 64.2254
6.54014 62.0674
6.58483 60.7941
6.62952 59.5629
6.67421 58.255
6.71892 57.5697
6.76361 56.6785
6.8083 55.3306
6.853 54.6715
6.89769 54.181
6.94239 54.4492
6.98711 53.2389
7.03181 52.9306
7.07651 52.6818
7.12121 52.2128
7.16591 52.3928
7.21063 51.8789
7.25533 51.8674
7.30004 51.9731
7.34475 52.0067
7.38945 52.2228
7.43416 51.5
7.47889 51.9655
7.5236 56.0321
7.56831 63.438
7.61303 54.8112
7.65774 53.3342
7.70247 53.733
7.74719 54.264
7.79191 54.6098
7.83663 54.9404
7.88135 55.7662
7.92607 56.7809
7.97081 58.1758
8.01553 59.1139
8.06026 60.8325
8.10498 61.7057
8.14971 63.4572
8.19446 65.2332
8.23919 67.8137
8.28392 70.3596
8.32865 72.9888
8.37339 78.2132
8.41812 83.5201
8.46288 95.0779
8.50761 172.16
8.55235 602.016
8.59709 882.268
8.64183 1478.66
8.68658 1647.25
8.73134 412.813
8.77609 116.265
8.82083 97.2237
8.86558 90.9752
8.91033 87.2265
8.9551 84.6983
8.99985 83.9047
9.04461 82.7961
9.08936 81.7689
9.13412 81.2775
9.17888 80.9455
9.22365 86.9527
9.26841 97.6277
9.31318 86.2149
9.35794 81.7865
9.4027 81.7674
9.44749 82.4416
9.49226 83.2823
9.53703 84.2478
9.5818 85.8704
9.62657 87.0402
9.67134 88.37
9.71614 90.7162
9.76091 92.8098
9.80569 94.9514
9.85047 98.6186
9.89525 103.606
9.94005 113.748
9.98484 184.27
10.0296 544.228
10.0744 732.63
10.1192 1021.21
10.164 1660.99
10.2088 991.513
10.2536 217.46
10.2984 116.549
10.3432 107.726
10.388 104.109
10.4328 121.053
10.4776 214.256
10.5224 260.996
10.5672 328.632
10.612 489.396
10.6568 374.569
10.7017 135.716
10.7465 90.2033
10.7913 83.7795
10.8361 80.4202
10.8809 77.9087
10.9257 75.6131
10.9706 74.2591
11.0154 72.3806
11.0602 71.242
11.105 69.7435
11.1499 68.3525
11.1947 67.667
11.2395 66.3538
11.2844 65.944
11.3292 65.0193
11.374 64.332
11.4189 64.2464
11.4637 63.3296
11.5086 62.3357
11.5534 62.0463
11.5983 61.897
11.6431 61.8042
11.688 61.43
11.7328 61.144
11.7777 61.0514
11.8225 60.9245
11.8674 61.1379
11.9122 62.0874
11.9571 65.7783
12.002 65.2027
12.0468 67.6908
12.0917 90.4372
12.1366 107.672
12.1814 117.496
12.2263 150.825
12.2712 191.855
12.3161 139.734
12.3609 75.2571
12.4058 63.6679
12.4507 63.1028
12.4956 62.7868
12.5405 62.9831
12.5853 63.3525
12.6302 63.8231
12.6751 64.3111
12.72 64.9846
12.7649 66.0288
12.8098 66.9283
12.8547 68.0477
12.8996 69.5476
12.9445 71.1565
12.9894 73.0157
13.0343 74.9242
13.0792 78.9414
13.1242 86.2149
13.1691 132.347
13.214 186.665
13.2589 203.391
13.3038 243.068
13.3487 346.791
13.3937 382.52
13.4386 210.559
13.4835 119.221
13.5285 153.99
13.5734 182.279
13.6183 191.532
13.6633 236.164
13.7082 328.48
13.7531 307.362
13.7981 153.759
13.843 87.9274
13.888 80.3822
13.9329 77.1242
13.9779 75.6795
14.0228 74.0875
14.0678 72.602
14.1127 72.5451
14.1577 74.2405
14.2027 72.468
14.2476 70.2879
14.2926 69.2738
14.3376 69.106
14.3825 68.3088
14.4275 67.794
14.4725 67.8223
14.5175 68.0541
14.5624 68.085
14.6074 68.47
14.6524 69.03
14.6974 69.4421
14.7424 71.0649
14.7874 80.3002
14.8324 106.493
14.8774 120.615
14.9224 126.377
14.9674 147.266
15.0124 190.247
15.0574 204.276
15.1024 140.055
15.1474 82.4414
15.1924 71.0882
15.2374 68.7726
15.2824 67.6572
15.3274 66.5422
15.3725 65.9637
15.4175 65.9937
15.4625 65.4477
15.5076 65.1351
15.5526 65.2695
15.5976 65.4892
15.6426 66.1958
15.6877 73.2672
15.7327 94.7682
15.7778 107.023
15.8228 110.217
15.8679 123.705
15.9129 152.661
15.958 183.289
16.003 151.009
16.0481 88.8495
16.0931 66.3083
16.1382 61.5922
16.1833 60.3388
16.2283 58.4637
16.2734 57.9261
16.3185 57.1895
16.3636 56.4698
16.4086 55.8319
16.4537 55.3985
16.4988 54.806
16.5439 54.8982
16.589 54.6359
16.6341 54.2785
16.6792 53.9212
16.7243 54.0252
16.7694 53.8339
16.8145 53.9027
16.8596 54.0826
16.9047 54.6318
16.9498 54.7219
16.9949 54.6125
17.04 55.15
17.0851 56.489
17.1302 60.7114
17.1754 64.0493
17.2205 64.7511
17.2656 66.9886
17.3108 71.9505
17.3559 79.1745
17.401 81.2321
17.4462 70.8146
17.4913 61.1579
17.5365 59.1638
17.5815 58.8603
17.6268 59.0926
17.6718 59.6638
17.7171 59.9905
17.7622 61.0701
17.8074 61.9599
17.8525 63.7711
17.8977 71.594
17.9428 83.45
17.9881 88.4406
18.0331 90.8279
18.0784 97.5497
18.1237 114.128
18.1688 139.719
18.214 142.199
18.2591 110.897
18.3044 88.2709
18.3495 86.0929
18.3948 94.437
18.4399 103.258
18.4852 95.0043
18.5303 76.3993
18.5756 64.961
18.6207 61.9648
18.666 60.6925
18.7112 59.6408
18.7565 59.0666
18.8016 58.7952
18.8469 58.0541
18.892 57.7934
18.9374 57.2701
18.9825 56.7733
19.0278 56.6312
19.073 56.6427
19.1183 57.1497
19.1635 59.5101
19.2088 61.6312
19.254 62.1364
19.2993 62.757
19.3447 65.0204
19.3898 68.8964
19.4352 73.5863
19.4804 72.4801
19.5257 63.7451
19.5709 56.3363
19.6163 54.0309
19.6615 53.603
19.7068 53.2398
19.752 52.9618
19.7974 53.3023
19.8426 54.2751
19.888 56.6057
19.9332 57.8633
19.9786 58.5891
20.0238 58.7711
20.0692 61.5963
20.1144 66.6451
20.1598 72.1466
20.205 70.7752
20.2504 65.1824
20.2957 60.9703
20.3411 61.185
20.3863 64.187
20.4318 64.2426
20.477 58.7443
20.5224 53.1736
20.5677 50.9375
20.6131 50.1659
20.6586 49.5654
20.7038 49.4193
20.7493 49.1916
20.7945 49.0173
20.84 48.8421
20.8853 48.8205
20.9307 48.3899
20.976 48.7023
21.0215 48.9124
21.0668 49.1551
21.1122 49.3656
21.1575 49.3211
21.203 49.5273
21.2483 49.9817
21.2938 51.3397
21.3391 51.2756
21.3846 50.367
21.4299 49.1112
21.4754 48.5103
21.5207 48.5427
21.5662 48.785
21.6116 49.1653
21.6571 51.1483
21.7024 52.9011
21.7479 53.8276
21.7933 54.218
21.8388 55.739
21.8843 58.2731
21.9297 61.8812
21.9752 65.6038
22.0206 65.531
22.0661 60.4608
22.1115 56.1285
22.157 55.4349
22.2024 56.2476
22.248 55.0025
22.2933 52.4655
22.3389 50.0204
22.3843 49.0984
22.4299 48.6452
22.4753 48.6583
22.5208 48.5953
22.5662 48.6166
22.6118 48.634
22.6572 48.9125
22.7028 50.1495
22.7483 51.2412
22.7939 51.8791
22.8393 52.0941
22.8849 52.455
22.9303 53.2668
22.9759 54.9111
23.0214 57.0035
23.067 58.2626
23.1126 55.9266
23.1581 52.2396
23.2037 49.7721
23.2492 49.2239
23.2948 49.6293
23.3403 50.6897
23.3859 51.613
23.4314 51.4863
23.477 51.7565
23.5225 52.2242
23.5682 53.44
23.6137 55.5974
23.6593 57.5271
23.7048 57.1002
23.7505 53.0385
23.796 49.0728
23.8417 46.9226
23.8872 45.8146
23.9329 45.4771
23.9784 45.0493
24.0241 44.8896
24.0697 44.6817
24.1154 44.2473
24.1609 43.9525
24.2066 43.994
24.2522 43.7496
24.2979 43.656
24.3434 43.2929
24.3892 43.1219
24.4349 43.1146
24.4805 42.8715
24.5262 42.932
24.5718 42.7998
24.6175 42.9256
24.6631 42.9277
24.7089 42.7133
24.7545 42.5263
24.8002 42.3622
24.8458 42.4509
24.8916 42.401
24.9372 42.5385
24.983 42.7973
25.0286 42.8874
25.0744 43.5403
25.12 43.7982
25.1658 44.1743
25.2114 44.3872
25.2572 44.8738
25.3029 44.9451
25.3487 44.802
25.3943 44.6899
25.4402 44.8889
25.4858 44.2819
25.5316 43.0589
25.5773 41.6594
25.6231 41.319
25.669 40.7018
25.7147 40.6668
25.7605 40.5622
25.8062 40.9195
25.8521 41.08
25.8977 40.9277
25.9436 41.0067
25.9893 40.8424
26.0352 41.148
26.0809 41.049
26.1268 41.5956
26.1725 41.8329
26.2184 41.8525
26.2641 41.4833
26.31 40.8507
26.3557 40.804
26.4017 40.6807
26.4474 40.761
26.4933 40.8616
26.5391 41.0031
26.585 41.3518
26.6308 41.5653
26.6767 42.0251
26.7225 42.4861
26.7684 42.588
26.8142 41.9481
26.8601 41.2341
26.9059 40.7308
26.9519 40.4434
26.9979 40.0687
27.0437 39.4198
27.0896 39.1332
27.1354 39.0672
27.1814 38.8341
27.2272 38.846
27.2732 38.8919
27.3191 38.6144
27.3651 38.5969
27.4109 38.4599
27.4569 38.5499
27.5027 38.6526
27.5488 38.7071
27.5946 38.6451
27.6407 38.7007
27.6865 38.6629
27.7326 38.5252
27.7784 38.4916
27.8245 38.2907
27.8703 38.2357
27.9164 38.5803
27.9623 38.4945
28.0084 38.6311
28.0543 38.8919
28.1003 39.0369
28.1462 39.2904
28.1923 39.2911
28.2384 38.746
28.2843 38.4323
28.3304 37.928
28.3764 37.5513
28.4225 37.0526
28.4684 36.5274
28.5145 36.3168
28.5605 36.0768
28.6066 35.9735
28.6526 35.8956
28.6987 35.8533
28.7447 35.7351
28.7908 35.5387
28.8368 35.5601
28.8829 35.3304
28.9289 35.3793
28.9751 35.4084
29.0211 35.3426
29.0673 35.0928
29.1133 34.8943
29.1595 34.6976
29.2055 34.5062
29.2517 34.4208
29.2977 34.3414
29.3439 34.2552
29.3899 34.2715
29.4361 34.1408
29.4824 34.2329
29.5284 34.2091
29.5746 33.8345
29.6207 33.5831
29.6669 33.3564
29.713 33.1527
29.7593 32.9081
29.8053 33.0984
29.8516 32.8688
29.8977 32.9104
29.9439 32.7575
29.99 32.7424
30.0363 32.6644
30.0824 32.6699
30.1287 32.5795
30.1748 32.4691
30.2211 32.5172
30.2673 32.423
30.3136 32.5541
30.3597 32.5516
30.406 32.4915
30.4522 32.337
30.4985 32.3253
30.5447 32.2001
30.591 32.1708
30.6372 32.1274
30.6835 32.1113
30.7297 32.2187
30.7761 32.3826
30.8224 32.3244
30.8686 32.2667
30.915 32.034
30.9612 31.9165
31.0076 31.6765
31.0538 31.5904
31.1002 31.3786
31.1464 31.2081
31.1928 31.1857
31.2391 31.1607
31.2855 31.0316
31.3317 31.0832
31.3781 31.0133
31.4244 31.0299
31.4708 30.9042
31.5171 30.9549
31.5636 31.0608
31.6098 30.8955
31.6563 30.8106
31.7026 30.5734
31.7491 30.3987
31.7953 30.3846
31.8418 30.2538
31.8881 30.255
31.9346 30.2311
31.9809 30.2146
32.0275 30.0732
32.074 30.1158
32.1203 29.8842
32.1668 29.893
32.2132 29.6338
32.2597 29.4959
32.306 29.3277
32.3526 29.2731
32.399 29.1826
32.4455 28.9733
32.4919 28.8757
32.5385 28.8639
32.5848 28.7012
32.6314 28.6103
32.6778 28.6251
32.7244 28.4282
32.7708 28.4033
32.8174 28.3973
32.8638 28.2562
32.9104 28.247
32.9569 28.0949
33.0035 28.0053
33.0499 27.9834
33.0966 27.9559
33.143 27.8762
33.1897 27.9134
33.2361 27.6916
33.2828 27.7261
33.3293 27.6256
33.3759 27.6431
33.4226 27.5211
33.4691 27.4469
33.5158 27.2614
33.5623 27.1297
33.609 26.9295
33.6555 26.9385
33.7022 26.7842
33.7487 26.721
33.7954 26.674
33.842 26.4659
33.8887 26.4569
33.9353 26.4209
33.982 26.2589
34.0286 26.2971
34.0753 26.156
34.1219 26.0413
34.1687 25.8787
34.2152 25.9731
34.262 25.7509
34.3086 25.6904
34.3554 25.7078
34.402 25.5668
34.4488 25.3884
34.4954 25.3883
34.5422 25.323
34.5889 25.2153
34.6357 25.1066
34.6825 25.0824
34.7292 25.0045
34.776 24.8325
34.8227 24.797
34.8695 24.7269
34.9162 24.8153
34.9631 24.6063
35.0098 24.6796
35.0566 24.5345
35.1033 24.4327
35.1502 24.4217
35.1969 24.3256
35.2438 24.2486
35.2906 24.2491
35.3375 24.1259
35.3842 24.1151
35.4311 24.0991
35.4779 24.0598
35.5248 23.9819
35.5716 23.9366
35.6185 23.8649
35.6653 23.7741
35.7123 23.6746
35.759 23.6445
35.806 23.5094
35.8528 23.4024
35.8998 23.3343
35.9468 23.1998
35.9936 23.2578
36.0406 23.2035
36.0874 23.1066
36.1345 22.992
36.1813 22.8817
36.2283 22.8409
36.2752 22.8289
36.3222 22.7986
36.3691 22.6995
36.4161 22.5444
36.463 22.6224
36.5101 22.5163
36.557 22.4774
36.6041 22.3455
36.651 22.2786
36.6981 22.2528
36.745 22.2002
36.7921 22.1446
36.839 22.0113
36.8861 22.0026
36.9331 21.938
36.9802 21.8383
37.0272 21.7349
37.0743 21.5982
37.1213 21.5631
37.1684 21.5197
37.2154 21.4428
37.2626 21.4071
37.3098 21.3344
37.3568 21.2434
37.404 21.2298
37.451 21.0955
37.4982 21.1021
37.5452 21.0106
37.5924 20.9478
37.6395 20.9115
37.6867 20.8169
37.7337 20.7134
37.781 20.6619
37.8281 20.6395
37.8753 20.5273
37.9224 20.4893
37.9697 20.4114
38.0168 20.3835
38.064 20.1891
38.1111 20.2125
38.1584 20.0896
38.2056 20.1073
38.2529 20.0039
38.3 19.9766
38.3473 19.8699
38.3945 19.7499
38.4418 19.7937
38.489 19.6328
38.5363 19.586
38.5837 19.5857
38.6309 19.4729
38.6782 19.3335
38.7254 19.3317
38.7728 19.3285
38.82 19.236
38.8674 19.1401
38.9146 19.1232
38.9621 19.0189
39.0093 19.0233
39.0567 18.9637
39.104 18.9138
39.1514 18.8498
39.1987 18.795
39.2461 18.7708
39.2934 18.657
39.3409 18.6449
39.3882 18.4916
39.4356 18.495
39.483 18.4176
39.5304 18.3669
39.5778 18.358
39.6253 18.2373
39.6726 18.1853
39.7201 18.1434
39.7675 18.0624
39.815 18.0094
39.8624 17.9488
39.9099 17.9462
39.9575 17.8325
40.0049 17.7654
40.0525 17.704
40.0999 17.6121
40.1474 17.6561
40.1949 17.5732
40.2425 17.454
40.2899 17.4559
40.3375 17.4066
40.385 17.2984
40.4326 17.279
40.48 17.1963
40.5277 17.1327
40.5752 17.1789
40.6228 17.0837
40.6703 17.0158
40.718 16.9592
40.7655 16.8912
40.8132 16.8771
40.8607 16.7965
40.9084 16.8279
40.9559 16.7062
41.0036 16.6797
41.0512 16.5733
41.0989 16.533
41.1465 16.4222
41.1942 16.4119
41.242 16.3398
41.2896 16.2732
41.3373 16.2132
41.3849 16.1873
41.4327 16.1463
41.4803 16.0821
41.5281 16.0245
41.5758 15.996
41.6236 15.9148
41.6712 15.9074
41.7191 15.7988
41.7667 15.7286
41.8146 15.7463
41.8622 15.6763
41.9101 15.6147
41.9578 15.5049
42.0057 15.5785
42.0534 15.4409
42.1013 15.4065
42.149 15.3391
42.1969 15.2743
42.2446 15.2416
42.2925 15.2205
42.3403 15.1655
42.3882 15.1229
42.436 15.0575
42.4839 15.0204
42.5319 14.9373
42.5797 14.8585
42.6277 14.8238
42.6755 14.8437
42.7235 14.6851
42.7713 14.7503
42.8193 14.6438
42.8671 14.5538
42.9152 14.5176
42.963 14.487
43.0111 14.4497
43.0589 14.3843
43.107 14.3737
43.1549 14.3501
43.2029 14.2632
43.2508 14.1913
43.2989 14.137
43.3468 14.098
43.3949 14.0394
43.4429 14.0161
43.491 13.9301
43.5389 13.9016
43.5871 13.8868
43.635 13.7894
43.6832 13.7681
43.7312 13.7134
43.7793 13.6578
43.8273 13.6291
43.8755 13.5687
43.9237 13.5171
43.9717 13.4757
44.0199 13.4827
44.068 13.3611
44.1162 13.3356
44.1642 13.2951
44.2125 13.2702
44.2606 13.2242
44.3088 13.1314
44.3569 13.1101
44.4052 13.04
44.4533 13.0065
44.5016 12.9584
44.5497 12.9635
44.598 12.8929
44.6461 12.8393
44.6945 12.807
44.7426 12.7438
44.791 12.6375
44.8391 12.6412
44.8875 12.5782
44.9357 12.6254
44.984 12.5329
45.0322 12.4582
45.0806 12.4306
45.1288 12.3793
45.1773 12.3533
45.2257 12.2861
45.2739 12.2269
45.3224 12.1899
45.3706 12.1423
45.4191 12.0854
45.4673 12.1214
45.5158 12.0791
45.5641 11.9981
45.6126 11.9511
45.6609 11.9482
45.7094 11.8889
45.7577 11.8165
45.8063 11.7188
45.8546 11.7447
45.9031 11.6994
45.9515 11.6903
46.0001 11.5763
46.0484 11.5841
46.097 11.509
46.1454 11.4991
46.194 11.4741
46.2424 11.4508
46.291 11.3854
46.3395 11.3238
46.3881 11.2874
46.4365 11.2216
46.4852 11.2096
46.5337 11.1979
46.5823 11.1107
46.631 11.0654
46.6795 11.0174
46.7282 11.0134
46.7767 10.9826
46.8254 10.9039
46.8739 10.8609
46.9226 10.8587
46.9712 10.7625
47.0199 10.7361
47.0685 10.7116
47.1173 10.6719
47.1658 10.6235
47.2146 10.6084
47.2632 10.5164
47.312 10.5389
47.3606 10.4921
47.4095 10.4359
47.4581 10.4363
47.5069 10.3593
47.5556 10.3232
47.6044 10.285
47.6531 10.2414
47.702 10.226
47.7507 10.2225
47.7996 10.1207
47.8483 10.1175
47.8972 10.0674
47.9461 10.0385
47.9948 9.99362
48.0438 9.93073
48.0925 9.91068
48.1415 9.90266
48.1902 9.8964
48.2392 9.85992
48.288 9.82028
48.337 9.77452
48.3858 9.72092
48.4348 9.66717
48.4837 9.63748
48.5327 9.61384
48.5815 9.57847
48.6306 9.53731
48.6795 9.50105
48.7285 9.46518
48.7774 9.42071
48.8265 9.41994
48.8754 9.36363
48.9245 9.34423
48.9734 9.27831
49.0226 9.23886
49.0715 9.21693
49.1206 9.17865
49.1696 9.1596
49.2188 9.13033
49.2679 9.09367
49.3169 9.05623
49.3661 9.05039
49.4151 8.967
49.4643 8.94161
49.5134 8.89709
49.5626 8.84785
49.6117 8.8444
49.6609 8.80809
49.71 8.76207
49.7592 8.77537
49.8083 8.68591
49.8576 8.68775
49.9067 8.60992
49.956 8.60314
50.0052 8.57748
50.0545 8.53194
50.1036 8.51057
50.153 8.48703
50.2022 8.3982
50.2515 8.37693
50.3007 8.38716
50.3501 8.35962
50.3993 8.30413
50.4487 8.24755
50.498 8.24417
50.5474 8.21867
50.5966 8.16633
50.6461 8.16535
50.6955 8.12577
50.7448 8.09805
50.7943 8.0747
50.8436 8.04343
50.8931 8.03045
50.9424 7.97319
50.9919 7.94634
51.0413 7.92647
51.0908 7.87323
51.1402 7.85173
51.1897 7.8016
51.2391 7.83631
51.2887 7.74934
51.3381 7.66033
51.3877 7.68754
51.4371 7.64136
51.4867 7.58975
51.5362 7.62664
51.5858 7.52777
51.6353 7.52509
51.6849 7.48793
51.7344 7.47088
51.7841 7.44922
51.8336 7.4138
51.8833 7.38179
51.9328 7.32294
51.9826 7.28737
52.0323 7.25727
52.0818 7.20882
52.1316 7.20262
52.1812 7.22903
52.231 7.19495
52.2806 7.10185
52.3304 7.11737
52.38 7.10417
52.4298 7.05739
52.4794 7.00071
52.5293 7.00668
52.5789 6.96145
52.6288 6.93686
52.6785 6.87573
52.7284 6.86443
52.7781 6.81376
52.828 6.78813
52.8777 6.79206
52.9276 6.75407
52.9774 6.7525
53.0273 6.705
53.0771 6.66334
53.1271 6.65847
53.1769 6.64419
53.2269 6.55152
53.2767 6.55738
53.3267 6.52303
53.3765 6.50372
53.4266 6.50131
53.4766 6.41978
53.5265 6.44704
53.5765 6.41745
53.6264 6.38059
53.6765 6.38817
53.7264 6.29125
53.7765 6.27501
53.8265 6.26805
53.8766 6.21843
53.9266 6.13769
53.9767 6.16876
54.0267 6.15468
54.0769 6.10335
54.1269 6.08103
54.1771 6.0333
54.2271 6.01271
54.2773 5.99422
54.3274 5.96084
54.3776 5.88363
54.4277 5.84621
54.478 5.82199
54.528 5.8171
54.5783 5.76532
54.6285 5.68354
54.6788 5.69092
54.7289 5.61582
54.7792 5.57334
54.8296 5.50193
54.8798 5.46497
54.9301 5.44615
54.9803 5.36582
55.0307 5.36959
55.0809 5.37596
55.1314 5.26343
55.1816 5.18162
55.232 5.1926
55.2823 5.1535
55.3328 5.06677
55.383 5.03933
55.4335 5.04767
55.4838 4.97661
55.5344 4.87939
55.5847 4.83833
55.6352 4.83999
55.6856 4.82317
55.7361 4.84299