File: XRD/Ni3Fe_FD0976.xy
TT I
1.27165 6.86955
1.31627 6.39926
1.36089 6.0611
1.40551 5.73226
1.45013 5.82443
1.49476 5.91061
1.53938 5.55383
1.584 5.11415
1.62863 5.30006
1.67325 5.59193
1.71787 5.10544
1.7625 4.84922
1.80712 5.12727
1.85174 4.50843
1.89636 4.8485
1.94099 4.89624
1.98562 4.68625
2.03025 4.54731
2.07487 4.76124
2.11949 4.98485
2.16411 5.23196
2.20874 14.2995
2.25338 23.2519
2.298 6.37744
2.34263 5.28791
2.38725 6.11865
2.43188 6.61727
2.4765 7.77635
2.52115 7.98628
2.56577 8.06719
2.6104 8.5507
2.65503 7.95885
2.69965 8.2801
2.7443 8.5603
2.78893 8.56616
2.83356 9.10391
2.87818 9.38419
2.92281 9.32102
2.96744 9.03508
3.01209 10.5653
3.05672 11.1393
3.10135 12.2338
3.14599 13.1992
3.19062 14.8474
3.23527 15.073
3.2799 15.7955
3.32454 16.836
3.36917 17.5597
3.4138 18.8947
3.45844 19.6614
3.50309 20.9781
3.54773 21.5915
3.59237 23.554
3.637 91.1863
3.68164 59.1433
3.7263 26.0753
3.77094 26.0512
3.81558 26.3253
3.86022 27.639
3.90486 29.0399
3.9495 29.6865
3.99416 30.3397
4.0388 32.3238
4.08344 33.4235
4.12809 34.5064
4.17273 36.5686
4.21738 42.7179
4.26204 248.867
4.30669 219.401
4.35133 48.0229
4.39598 44.2234
4.44063 53.854
4.4853 65.0882
4.52995 49.7001
4.5746 50.3081
4.61925 52.1525
4.6639 54.5745
4.70855 57.1396
4.75322 59.848
4.79788 62.5407
4.84253 66.1553
4.88719 69.9151
4.93184 73.0756
4.97652 78.6652
5.02118 84.7989
5.06583 91.4099
5.11049 100.778
5.15515 163.53
5.19981 274.659
5.24449 2326.07
5.28916 13359.6
5.33382 2775.88
5.37848 172.421
5.42315 123.406
5.46783 110.239
5.5125 103.149
5.55716 99.4821
5.60183 95.7255
5.6465 94.7272
5.69117 92.2652
5.73586 89.3742
5.78053 88.8533
5.8252 88.4443
5.86988 89.1089
5.91455 90.7195
5.95924 95.7056
6.00392 168.037
6.0486 797.085
6.09328 4566.94
6.13795 3172.33
6.18263 214.35
6.22733 88.8339
6.27201 80.9505
6.3167 99.9058
6.36138 79.2918
6.40606 67.9111
6.45075 65.7797
6.49545 64.2582
6.54014 62.9211
6.58483 61.812
6.62952 61.7424
6.67421 92.8709
6.71892 142.108
6.76361 68.0189
6.8083 57.6742
6.853 56.6115
6.89769 56.3288
6.94239 55.918
6.98711 55.0465
7.03181 54.7005
7.07651 54.5828
7.12121 54.1524
7.16591 54.2916
7.21063 54.9512
7.25533 70.1776
7.30004 176.994
7.34475 90.6829
7.38945 55.6525
7.43416 53.6601
7.47889 53.3376
7.5236 53.7569
7.56831 54.4025
7.61303 56.1978
7.65774 56.6662
7.70247 55.1414
7.74719 55.1443
7.79191 55.7159
7.83663 55.8887
7.88135 56.6456
7.92607 57.4553
7.97081 58.7985
8.01553 59.6238
8.06026 61.0986
8.10498 62.4938
8.14971 72.0664
8.19446 71.2361
8.23919 68.2847
8.28392 70.1632
8.32865 72.7816
8.37339 76.1296
8.41812 82.9215
8.46288 109.968
8.50761 141.619
8.55235 325.944
8.59709 1121.26
8.64183 2276.5
8.68658 922.107
8.73134 158.793
8.77609 96.3599
8.82083 90.3668
8.86558 87.8044
8.91033 88.018
8.9551 90.1853
8.99985 83.7152
9.04461 81.6264
9.08936 81.1989
9.13412 80.3725
9.17888 80.7463
9.22365 81.4505
9.26841 80.2686
9.31318 80.6764
9.35794 80.8386
9.4027 81.5572
9.44749 82.2832
9.49226 82.7934
9.53703 83.518
9.5818 85.4411
9.62657 90.1407
9.67134 96.9071
9.71614 91.7933
9.76091 91.9369
9.80569 94.4112
9.85047 97.4854
9.89525 121.057
9.94005 131.226
9.98484 154.255
10.0296 294.086
10.0744 761.416
10.1192 1773.62
10.164 1529.17
10.2088 362.697
10.2536 121.961
10.2984 110.513
10.3432 112.007
10.388 101.774
10.4328 110.272
10.4776 146.334
10.5224 269.616
10.5672 522.727
10.612 498.622
10.6568 196.194
10.7017 94.4732
10.7465 84.7537
10.7913 81.5725
10.8361 79.5326
10.8809 77.1926
10.9257 76.991
10.9706 77.5956
11.0154 73.5536
11.0602 71.3144
11.105 70.389
11.1499 75.0112
11.1947 82.0382
11.2395 73.5652
11.2844 69.1949
11.3292 65.8058
11.374 64.9654
11.4189 64.5354
11.4637 63.7178
11.5086 64.1723
11.5534 67.3566
11.5983 64.5459
11.6431 62.1778
11.688 61.5586
11.7328 61.8446
11.7777 61.7329
11.8225 61.2482
11.8674 60.9547
11.9122 61.3478
11.9571 61.5753
12.002 62.1083
12.0468 64.8956
12.0917 74.6365
12.1366 98.0456
12.1814 153.372
12.2263 207.174
12.2712 162.76
12.3161 95.2022
12.3609 69.1748
12.4058 63.4161
12.4507 62.8633
12.4956 63.1304
12.5405 63.3433
12.5853 64.2745
12.6302 72.1395
12.6751 77.0323
12.72 68.8058
12.7649 66.7458
12.8098 66.7403
12.8547 68.2348
12.8996 69.5641
12.9445 70.7797
12.9894 72.2383
13.0343 74.0856
13.0792 76.857
13.1242 83.4804
13.1691 103.425
13.214 137.586
13.2589 232.174
13.3038 380.198
13.3487 428.528
13.3937 247.227
13.4386 119.777
13.4835 99.5205
13.5285 112.121
13.5734 148.712
13.6183 245.756
13.6633 360.076
13.7082 329.798
13.7531 176.885
13.7981 94.7165
13.843 79.9036
13.888 77.678
13.9329 75.4758
13.9779 74.257
14.0228 72.6193
14.0678 71.6403
14.1127 71.1246
14.1577 71.0035
14.2027 70.1721
14.2476 69.039
14.2926 69.0692
14.3376 70.2606
14.3825 68.6851
14.4275 67.4514
14.4725 67.1341
14.5175 67.3991
14.5624 67.3792
14.6074 69.7143
14.6524 70.1695
14.6974 68.585
14.7424 69.6875
14.7874 74.6128
14.8324 83.8809
14.8774 105.117
14.9224 151.008
14.9674 212.207
15.0124 217.015
15.0574 146.791
15.1024 87.8593
15.1474 70.7244
15.1924 69.063
15.2374 69.6624
15.2824 68.8753
15.3274 66.7237
15.3725 65.727
15.4175 65.0324
15.4625 64.6525
15.5076 64.9924
15.5526 64.8679
15.5976 64.2756
15.6426 65.0005
15.6877 68.7059
15.7327 75.7055
15.7778 89.9313
15.8228 123.458
15.8679 173.718
15.9129 197.526
15.958 151.233
16.003 93.9961
16.0481 67.0998
16.0931 63.3988
16.1382 61.362
16.1833 59.3247
16.2283 57.7399
16.2734 57.3227
16.3185 57.64
16.3636 58.3474
16.4086 56.5396
16.4537 55.0746
16.4988 54.3719
16.5439 54.301
16.589 54.0795
16.6341 53.7122
16.6792 53.4003
16.7243 53.6812
16.7694 53.7923
16.8145 53.808
16.8596 54.2332
16.9047 55.7358
16.9498 55.8982
16.9949 54.5347
17.04 54.5537
17.0851 55.4626
17.1302 56.9532
17.1754 59.7924
17.2205 64.8491
17.2656 73.4263
17.3108 82.4421
17.3559 80.3964
17.401 68.8287
17.4462 60.47
17.4913 57.8839
17.5365 57.7749
17.5815 58.0072
17.6268 58.0447
17.6718 59.146
17.7171 59.7247
17.7622 59.7655
17.8074 60.4048
17.8525 62.0492
17.8977 65.6966
17.9428 70.6696
17.9881 79.2942
18.0331 97.6966
18.0784 122.49
18.1237 138.561
18.1688 125.02
18.214 99.1574
18.2591 83.6793
18.3044 89.094
18.3495 100.089
18.3948 105.87
18.4399 94.0429
18.4852 75.6563
18.5303 64.5526
18.5756 60.9616
18.6207 59.8787
18.666 59.2201
18.7112 58.6246
18.7565 57.8516
18.8016 57.5492
18.8469 56.8875
18.892 56.6775
18.9374 55.9429
18.9825 55.8887
19.0278 55.6359
19.073 55.76
19.1183 56.0075
19.1635 56.6168
19.2088 57.9962
19.254 60.5075
19.2993 65.401
19.3447 71.9868
19.3898 75.2327
19.4352 70.2245
19.4804 61.3587
19.5257 55.3279
19.5709 53.0999
19.6163 52.7862
19.6615 52.773
19.7068 52.252
19.752 52.1656
19.7974 52.5167
19.8426 53.1371
19.888 53.7315
19.9332 54.8103
19.9786 57.4197
20.0238 61.3682
20.0692 66.6895
20.1144 68.7328
20.1598 66.2286
20.205 61.931
20.2504 61.0624
20.2957 63.3057
20.3411 65.0522
20.3863 62.4175
20.4318 57.0033
20.477 52.6188
20.5224 50.8667
20.5677 49.8638
20.6131 49.3485
20.6586 48.7227
20.7038 48.5061
20.7493 48.0129
20.7945 47.927
20.84 47.8824
20.8853 47.892
20.9307 47.4997
20.976 47.5648
21.0215 47.5891
21.0668 48.0319
21.1122 48.3625
21.1575 49.0633
21.203 50.0916
21.2483 50.552
21.2938 50.35
21.3391 48.8894
21.3846 47.7776
21.4299 47.4511
21.4754 47.3603
21.5207 47.5381
21.5662 47.73
21.6116 47.862
21.6571 48.5461
21.7024 49.5093
21.7479 51.2374
21.7933 54.1413
21.8388 57.998
21.8843 62.1177
21.9297 63.5568
21.9752 61.6681
22.0206 58.1486
22.0661 55.5909
22.1115 55.2108
22.157 54.7577
22.2024 53.0547
22.248 50.2434
22.2933 48.8328
22.3389 48.3363
22.3843 47.9898
22.4299 47.9111
22.4753 47.8204
22.5208 47.6218
22.5662 47.6573
22.6118 47.6274
22.6572 47.6941
22.7028 48.0616
22.7483 48.4036
22.7939 49.1328
22.8393 50.6984
22.8849 53.1588
22.9303 55.4327
22.9759 56.9042
23.0214 56.1643
23.067 53.2979
23.1126 49.9695
23.1581 48.319
23.2037 47.8313
23.2492 47.6107
23.2948 47.7081
23.3403 47.9813
23.3859 48.5012
23.4314 49.5517
23.477 51.5317
23.5225 54.215
23.5682 56.4037
23.6137 56.947
23.6593 54.3443
23.7048 50.4125
23.7505 47.2941
23.796 45.7643
23.8417 45.1388
23.8872 44.5784
23.9329 44.4103
23.9784 44.1095
24.0241 43.789
24.0697 43.4729
24.1154 43.2553
24.1609 43.1058
24.2066 42.9197
24.2522 42.9356
24.2979 42.6022
24.3434 42.4815
24.3892 42.3372
24.4349 42.2388
24.4805 42.1537
24.5262 42.3462
24.5718 42.1176
24.6175 42.1186
24.6631 41.9538
24.7089 41.8099
24.7545 41.682
24.8002 41.2866
24.8458 41.359
24.8916 41.1518
24.9372 41.3686
24.983 41.6684
25.0286 41.9476
25.0744 42.4681
25.12 42.9038
25.1658 43.3762
25.2114 43.7332
25.2572 43.905
25.3029 44.2433
25.3487 44.2537
25.3943 43.8762
25.4402 42.5822
25.4858 41.4213
25.5316 40.8119
25.5773 40.1787
25.6231 40.0697
25.669 39.7963
25.7147 39.6336
25.7605 39.6767
25.8062 39.713
25.8521 39.8639
25.8977 39.8517
25.9436 39.9184
25.9893 40.1579
26.0352 40.8527
26.0809 40.881
26.1268 40.9935
26.1725 40.4799
26.2184 39.9748
26.2641 39.5074
26.31 39.35
26.3557 39.25
26.4017 39.2227
26.4474 39.4839
26.4933 39.7912
26.5391 40.6249
26.585 40.9777
26.6308 41.3358
26.6767 41.4391
26.7225 41.0846
26.7684 40.6684
26.8142 40.1968
26.8601 39.7432
26.9059 39.1998
26.9519 38.6357
26.9979 38.4184
27.0437 38.1996
27.0896 37.9705
27.1354 38.0193
27.1814 37.9644
27.2272 37.7851
27.2732 37.6549
27.3191 37.626
27.3651 37.7707
27.4109 37.6321
27.4569 37.6035
27.5027 37.8819
27.5488 37.8397
27.5946 37.6567
27.6407 37.4485
27.6865 37.3267
27.7326 37.1468
27.7784 37.0638
27.8245 37.0271
27.8703 37.0844
27.9164 37.551
27.9623 37.7263
28.0084 38.1154
28.0543 38.4468
28.1003 38.3429
28.1462 38.0069
28.1923 37.7389
28.2384 37.1984
28.2843 36.9405
28.3304 36.4086
28.3764 35.9868
28.4225 35.7619
28.4684 35.5486
28.5145 35.3268
28.5605 35.1303
28.6066 34.981
28.6526 34.7664
28.6987 34.9688
28.7447 34.7644
28.7908 34.875
28.8368 34.7492
28.8829 34.7635
28.9289 34.6721
28.9751 34.4216
29.0211 34.1837
29.0673 34.0231
29.1133 33.9343
29.1595 33.7054
29.2055 33.7236
29.2517 33.6523
29.2977 33.7049
29.3439 33.633
29.3899 33.6313
29.4361 33.6082
29.4824 33.2674
29.5284 33.1229
29.5746 32.8197
29.6207 32.5358
29.6669 32.466
29.713 32.4085
29.7593 32.2051
29.8053 32.2032
29.8516 32.1859
29.8977 32.0074
29.9439 31.8821
29.99 32.0742
30.0363 31.8744
30.0824 32.0136
30.1287 31.8218
30.1748 31.8058
30.2211 31.9118
30.2673 31.657
30.3136 31.7142
30.3597 31.6219
30.406 31.5574
30.4522 31.4924
30.4985 31.4337
30.5447 31.6274
30.591 31.5858
30.6372 31.6834
30.6835 31.6198
30.7297 31.6362
30.7761 31.5194
30.8224 31.3818
30.8686 31.1762
30.915 31.0229
30.9612 30.9024
31.0076 30.7942
31.0538 30.559
31.1002 30.5976
31.1464 30.3148
31.1928 30.3395
31.2391 30.3296
31.2855 30.2281
31.3317 30.2805
31.3781 30.3536
31.4244 30.3387
31.4708 30.301
31.5171 30.1803
31.5636 30.2887
31.6098 29.9253
31.6563 29.7847
31.7026 29.5996
31.7491 29.5467
31.7953 29.5867
31.8418 29.5832
31.8881 29.6063
31.9346 29.579
31.9809 29.483
32.0275 29.2878
32.074 29.2278
32.1203 29.0343
32.1668 29.0254
32.2132 28.8396
32.2597 28.6305
32.306 28.6588
32.3526 28.485
32.399 28.4157
32.4455 28.2485
32.4919 28.1956
32.5385 28.1267
32.5848 27.9555
32.6314 28.0257
32.6778 27.8406
32.7244 27.7369
32.7708 27.6275
32.8174 27.656
32.8638 27.4791
32.9104 27.5136
32.9569 27.5132
33.0035 27.3433
33.0499 27.3117
33.0966 27.329
33.143 27.2139
33.1897 27.0389
33.2361 27.1144
33.2828 27.1731
33.3293 26.8814
33.3759 26.924
33.4226 26.6906
33.4691 26.6535
33.5158 26.5721
33.5623 26.3637
33.609 26.2066
33.6555 26.2317
33.7022 26.0623
33.7487 25.9909
33.7954 25.9392
33.842 25.9061
33.8887 25.8123
33.9353 25.7855
33.982 25.6648
34.0286 25.6243
34.0753 25.5104
34.1219 25.4261
34.1687 25.2966
34.2152 25.295
34.262 25.2413
34.3086 25.0581
34.3554 25.0596
34.402 24.9088
34.4488 24.8581
34.4954 24.8102
34.5422 24.7029
34.5889 24.5619
34.6357 24.5382
34.6825 24.5119
34.7292 24.4397
34.776 24.3506
34.8227 24.1989
34.8695 24.1797
34.9162 24.0702
34.9631 23.9985
35.0098 24.023
35.0566 23.8901
35.1033 23.82
35.1502 23.871
35.1969 23.7348
35.2438 23.6446
35.2906 23.7283
35.3375 23.6496
35.3842 23.573
35.4311 23.5092
35.4779 23.4901
35.5248 23.4215
35.5716 23.344
35.6185 23.2348
35.6653 23.1314
35.7123 23.0807
35.759 23.0171
35.806 22.8986
35.8528 22.8573
35.8998 22.8066
35.9468 22.6887
35.9936 22.6595
36.0406 22.6007
36.0874 22.5217
36.1345 22.4548
36.1813 22.4677
36.2283 22.29
36.2752 22.2385
36.3222 22.1914
36.3691 22.0904
36.4161 22.0463
36.463 22.0386
36.5101 21.9722
36.557 21.9236
36.6041 21.7178
36.651 21.7591
36.6981 21.6816
36.745 21.644
36.7921 21.5109
36.839 21.4828
36.8861 21.4576
36.9331 21.351
36.9802 21.2959
37.0272 21.2477
37.0743 21.1216
37.1213 21.0518
37.1684 20.975
37.2154 20.9999
37.2626 20.8965
37.3098 20.8933
37.3568 20.7467
37.404 20.6891
37.451 20.6027
37.4982 20.6199
37.5452 20.4539
37.5924 20.4231
37.6395 20.3685
37.6867 20.3317
37.7337 20.2531
37.781 20.1569
37.8281 20.1734
37.8753 20.0402
37.9224 19.9503
37.9697 19.8579
38.0168 19.8302
38.064 19.7124
38.1111 19.6829
38.1584 19.6985
38.2056 19.5842
38.2529 19.5396
38.3 19.4802
38.3473 19.4579
38.3945 19.2316
38.4418 19.3353
38.489 19.2728
38.5363 19.1642
38.5837 19.0564
38.6309 19.0771
38.6782 18.9967
38.7254 18.9214
38.7728 18.821
38.82 18.7205
38.8674 18.8025
38.9146 18.7267
38.9621 18.596
39.0093 18.5911
39.0567 18.476
39.104 18.5096
39.1514 18.3672
39.1987 18.3756
39.2461 18.3219
39.2934 18.2954
39.3409 18.1101
39.3882 18.0958
39.4356 18.0437
39.483 17.9111
39.5304 17.8674
39.5778 17.838
39.6253 17.8412
39.6726 17.7878
39.7201 17.7023
39.7675 17.6654
39.815 17.5803
39.8624 17.5772
39.9099 17.5577
39.9575 17.4249
40.0049 17.3637
40.0525 17.2567
40.0999 17.2789
40.1474 17.1678
40.1949 17.1746
40.2425 17.0538
40.2899 17.0609
40.3375 16.9891
40.385 16.9114
40.4326 16.8011
40.48 16.8784
40.5277 16.7851
40.5752 16.7167
40.6228 16.6285
40.6703 16.6572
40.718 16.5266
40.7655 16.5343
40.8132 16.437
40.8607 16.503
40.9084 16.3804
40.9559 16.2923
41.0036 16.2375
41.0512 16.187
41.0989 16.1958
41.1465 16.0743
41.1942 16.0363
41.242 15.9316
41.2896 15.8763
41.3373 15.9088
41.3849 15.8394
41.4327 15.7908
41.4803 15.7468
41.5281 15.661
41.5758 15.623
41.6236 15.5753
41.6712 15.4743
41.7191 15.4788
41.7667 15.4181
41.8146 15.3138
41.8622 15.3073
41.9101 15.2578
41.9578 15.1768
42.0057 15.1181
42.0534 15.1042
42.1013 15.0403
42.149 15.0025
42.1969 14.9778
42.2446 14.8885
42.2925 14.8539
42.3403 14.7784
42.3882 14.7961
42.436 14.7476
42.4839 14.6807
42.5319 14.6057
42.5797 14.5761
42.6277 14.5239
42.6755 14.4447
42.7235 14.4107
42.7713 14.4009
42.8193 14.3342
42.8671 14.2641
42.9152 14.2661
42.963 14.1946
43.0111 14.0897
43.0589 14.0758
43.107 14.0266
43.1549 13.9718
43.2029 13.9224
43.2508 13.9208
43.2989 13.8161
43.3468 13.7544
43.3949 13.7347
43.4429 13.6913
43.491 13.664
43.5389 13.6774
43.5871 13.54
43.635 13.5034
43.6832 13.4345
43.7312 13.3797
43.7793 13.3526
43.8273 13.3265
43.8755 13.2536
43.9237 13.205
43.9717 13.1876
44.0199 13.1377
44.068 13.0882
44.1162 13.0378
44.1642 13.0492
44.2125 13.0246
44.2606 12.9026
44.3088 12.8689
44.3569 12.8304
44.4052 12.8113
44.4533 12.7312
44.5016 12.6717
44.5497 12.6843
44.598 12.5885
44.6461 12.5563
44.6945 12.4991
44.7426 12.4568
44.791 12.3836
44.8391 12.3567
44.8875 12.3389
44.9357 12.3105
44.984 12.1753
45.0322 12.2092
45.0806 12.1516
45.1288 12.1138
45.1773 12.0535
45.2257 12.0178
45.2739 11.9962
45.3224 11.9364
45.3706 11.8751
45.4191 11.8494
45.4673 11.8343
45.5158 11.7622
45.5641 11.713
45.6126 11.6441
45.6609 11.6609
45.7094 11.5805
45.7577 11.5936
45.8063 11.4756
45.8546 11.5317
45.9031 11.4268
45.9515 11.4696
46.0001 11.3844
46.0484 11.3523
46.097 11.2975
46.1454 11.2377
46.194 11.1864
46.2424 11.1564
46.291 11.1032
46.3395 11.0825
46.3881 11.0069
46.4365 11.0038
46.4852 10.954
46.5337 10.9204
46.5823 10.9238
46.631 10.8435
46.6795 10.7937
46.7282 10.7616
46.7767 10.7551
46.8254 10.6734
46.8739 10.6153
46.9226 10.5916
46.9712 10.5432
47.0199 10.5025
47.0685 10.4217
47.1173 10.4429
47.1658 10.4072
47.2146 10.3626
47.2632 10.2808
47.312 10.2998
47.3606 10.2592
47.4095 10.2558
47.4581 10.187
47.5069 10.0885
47.5556 10.1049
47.6044 10.0603
47.6531 10.0209
47.702 10.0189
47.7507 9.95983
47.7996 9.91363
47.8483 9.88046
47.8972 9.8873
47.9461 9.79313
47.9948 9.72054
48.0438 9.75098
48.0925 9.68746
48.1415 9.69899
48.1902 9.62982
48.2392 9.63231
48.288 9.55037
48.337 9.54082
48.3858 9.48651
48.4348 9.44003
48.4837 9.49358
48.5327 9.41022
48.5815 9.37766
48.6306 9.34441
48.6795 9.29681
48.7285 9.26677
48.7774 9.20824
48.8265 9.20704
48.8754 9.1399
48.9245 9.12305
48.9734 9.08759
49.0226 9.06079
49.0715 9.02521
49.1206 8.9972
49.1696 8.94944
49.2188 8.8849
49.2679 8.87889
49.3169 8.81701
49.3661 8.77261
49.4151 8.79523
49.4643 8.72663
49.5134 8.72833
49.5626 8.62256
49.6117 8.62779
49.6609 8.62839
49.71 8.56428
49.7592 8.56101
49.8083 8.48664
49.8576 8.44145
49.9067 8.41455
49.956 8.41815
50.0052 8.42151
50.0545 8.39149
50.1036 8.33
50.153 8.29719
50.2022 8.26203
50.2515 8.22517
50.3007 8.1796
50.3501 8.1741
50.3993 8.13536
50.4487 8.0735
50.498 8.07195
50.5474 8.05678
50.5966 7.97844
50.6461 8.00883
50.6955 7.90351
50.7448 7.93841
50.7943 7.90114
50.8436 7.83668
50.8931 7.80068
50.9424 7.78224
50.9919 7.70785
51.0413 7.69978
51.0908 7.6937
51.1402 7.66141
51.1897 7.64599
51.2391 7.62601
51.2887 7.57216
51.3381 7.56866
51.3877 7.49606
51.4371 7.45741
51.4867 7.44997
51.5362 7.37993
51.5858 7.39007
51.6353 7.35991
51.6849 7.34908
51.7344 7.28103
51.7841 7.2983
51.8336 7.24538
51.8833 7.22095
51.9328 7.17506
51.9826 7.14224
52.0323 7.12776
52.0818 7.10709
52.1316 7.04101
52.1812 7.06365
52.231 7.01716
52.2806 6.96172
52.3304 6.95053
52.38 6.92059
52.4298 6.87326
52.4794 6.87127
52.5293 6.84753
52.5789 6.81743
52.6288 6.7807
52.6785 6.71446
52.7284 6.69163
52.7781 6.69303
52.828 6.69554
52.8777 6.63013
52.9276 6.61891
52.9774 6.60333
53.0273 6.61643
53.0771 6.51309
53.1271 6.51467
53.1769 6.51957
53.2269 6.43012
53.2767 6.4092
53.3267 6.42174
53.3765 6.39923
53.4266 6.28853
53.4766 6.33141
53.5265 6.30253
53.5765 6.25993
53.6264 6.22384
53.6765 6.197
53.7264 6.16313
53.7765 6.18606
53.8265 6.17049
53.8766 6.0778
53.9266 6.09473
53.9767 6.01645
54.0267 6.04245
54.0769 5.97172
54.1269 5.92333
54.1771 5.93864
54.2271 5.88742
54.2773 5.86424
54.3274 5.86365
54.3776 5.78547
54.4277 5.79844
54.478 5.73365
54.528 5.69503
54.5783 5.66679
54.6285 5.64172
54.6788 5.59243
54.7289 5.52846
54.7792 5.51058
54.8296 5.46159
54.8798 5.40414
54.9301 5.45009
54.9803 5.37833
55.0307 5.30502
55.0809 5.31933
55.1314 5.28005
55.1816 5.21886
55.232 5.16283
55.2823 5.12332
55.3328 5.05704
55.383 5.01497
55.4335 4.99354
55.4838 4.8877
55.5344 4.89699
55.5847 4.78977
55.6352 4.86465
55.6856 4.7599
55.7361 4.69523