File: XRD/Ni3Fe_FD0501.xy
TT I
1.27165 7.58059
1.31627 6.69512
1.36089 7.27648
1.40551 7.17689
1.45013 5.84587
1.49476 6.46194
1.53938 5.90217
1.584 5.45357
1.62863 5.75066
1.67325 5.45738
1.71787 4.97077
1.7625 5.05906
1.80712 5.06874
1.85174 4.55885
1.89636 4.67164
1.94099 5.33281
1.98562 5.21723
2.03025 4.45497
2.07487 4.64574
2.11949 4.52951
2.16411 5.07936
2.20874 13.0527
2.25338 21.4726
2.298 5.87314
2.34263 5.28348
2.38725 5.1461
2.43188 6.39242
2.4765 6.46661
2.52115 6.24154
2.56577 7.3527
2.6104 7.71478
2.65503 7.33542
2.69965 7.76813
2.7443 7.88139
2.78893 8.01682
2.83356 7.97667
2.87818 8.50147
2.92281 8.97069
2.96744 9.05996
3.01209 10.3926
3.05672 10.7632
3.10135 12.2228
3.14599 13.0894
3.19062 13.9713
3.23527 15.168
3.2799 15.9221
3.32454 16.713
3.36917 17.6028
3.4138 19.109
3.45844 20.1018
3.50309 20.9609
3.54773 21.848
3.59237 24.2655
3.637 88.7612
3.68164 56.5366
3.7263 26.3549
3.77094 26.6656
3.81558 27.0522
3.86022 27.7699
3.90486 29.2264
3.9495 30.2294
3.99416 31.0727
4.0388 32.1683
4.08344 33.7702
4.12809 35.1868
4.17273 37.5552
4.21738 43.4119
4.26204 233.925
4.30669 204.113
4.35133 49.0754
4.39598 44.9899
4.44063 54.2553
4.4853 65.3491
4.52995 51.3354
4.5746 52.0455
4.61925 53.7655
4.6639 55.9711
4.70855 58.6138
4.75322 62.0237
4.79788 64.7278
4.84253 68.4498
4.88719 72.5492
4.93184 75.8255
4.97652 81.8483
5.02118 88.7068
5.06583 95.8987
5.11049 108.767
5.15515 177.05
5.19981 400.334
5.24449 3057.82
5.28916 11953.3
5.33382 3229.28
5.37848 204.965
5.42315 134.183
5.46783 117.143
5.5125 108.247
5.55716 104.097
5.60183 100.274
5.6465 98.7417
5.69117 95.996
5.73586 93.9447
5.78053 93.603
5.8252 93.707
5.86988 93.8269
5.91455 96.2472
5.95924 105.688
6.00392 224.452
6.0486 1036.91
6.09328 4146.94
6.13795 3423.08
6.18263 292.976
6.22733 97.3529
6.27201 85.0349
6.3167 102.196
6.36138 80.5102
6.40606 70.4821
6.45075 68.2038
6.49545 66.1488
6.54014 64.9822
6.58483 63.7253
6.62952 63.7136
6.67421 93.4536
6.71892 139.753
6.76361 68.7937
6.8083 59.4742
6.853 58.1114
6.89769 57.1596
6.94239 57.268
6.98711 56.4231
7.03181 56.4063
7.07651 55.9738
7.12121 55.8849
7.16591 55.7374
7.21063 56.0221
7.25533 69.9965
7.30004 170.548
7.34475 89.2725
7.38945 57.136
7.43416 55.2322
7.47889 54.9779
7.5236 55.2515
7.56831 56.1673
7.61303 57.8977
7.65774 58.1955
7.70247 56.9176
7.74719 56.9488
7.79191 57.4914
7.83663 57.7409
7.88135 58.5331
7.92607 59.3888
7.97081 60.6946
8.01553 61.6209
8.06026 62.8419
8.10498 64.4501
8.14971 73.7133
8.19446 72.6926
8.23919 70.5669
8.28392 72.4866
8.32865 75.2684
8.37339 79.1136
8.41812 86.2295
8.46288 114.144
8.50761 171.694
8.55235 413.109
8.59709 1185.26
8.64183 2141.11
8.68658 1043.43
8.73134 180.683
8.77609 102.255
8.82083 94.2386
8.86558 91.2441
8.91033 90.9212
8.9551 92.7394
8.99985 86.3743
9.04461 84.7419
9.08936 83.9369
9.13412 83.3391
9.17888 83.0032
9.22365 83.9387
9.26841 82.8379
9.31318 84.0346
9.35794 84.3125
9.4027 84.3818
9.44749 85.1314
9.49226 85.6551
9.53703 86.7239
9.5818 88.5259
9.62657 93.1081
9.67134 99.1058
9.71614 95.184
9.76091 95.0551
9.80569 97.932
9.85047 101.435
9.89525 124.139
9.94005 136.5
9.98484 184.189
10.0296 362.688
10.0744 825.074
10.1192 1666.14
10.164 1662.91
10.2088 447.138
10.2536 135.637
10.2984 115.58
10.3432 115.79
10.388 106.037
10.4328 121.375
10.4776 165.501
10.5224 285.974
10.5672 497.214
10.612 507.453
10.6568 225.826
10.7017 99.9949
10.7465 88.0513
10.7913 84.2645
10.8361 82.5725
10.8809 79.7423
10.9257 79.2762
10.9706 80.0066
11.0154 75.7842
11.0602 73.7747
11.105 72.838
11.1499 76.678
11.1947 83.3367
11.2395 74.8981
11.2844 70.8995
11.3292 68.0497
11.374 66.9914
11.4189 66.3536
11.4637 65.823
11.5086 66.2455
11.5534 68.763
11.5983 66.2639
11.6431 64.6048
11.688 63.6676
11.7328 63.4942
11.7777 63.8063
11.8225 63.2563
11.8674 62.9547
11.9122 63.7216
11.9571 63.8781
12.002 64.5114
12.0468 68.7911
12.0917 80.9022
12.1366 105.747
12.1814 154.085
12.2263 198.5
12.2712 171.004
12.3161 102.36
12.3609 71.4491
12.4058 65.4832
12.4507 65.1794
12.4956 65.196
12.5405 65.432
12.5853 66.5274
12.6302 73.5207
12.6751 78.683
12.72 70.5136
12.7649 68.754
12.8098 69.2514
12.8547 70.5496
12.8996 71.8529
12.9445 72.8668
12.9894 74.8388
13.0343 76.8892
13.0792 80.1132
13.1242 89.6194
13.1691 114.727
13.214 152.988
13.2589 238.999
13.3038 360.45
13.3487 418.819
13.3937 278.499
13.4386 132.109
13.4835 108.408
13.5285 124.363
13.5734 162.544
13.6183 245.583
13.6633 333.035
13.7082 341.523
13.7531 202.007
13.7981 103.12
13.843 83.3744
13.888 80.7136
13.9329 78.2763
13.9779 76.9183
14.0228 75.2969
14.0678 73.9979
14.1127 73.6622
14.1577 73.2836
14.2027 72.3429
14.2476 71.1846
14.2926 71.4622
14.3376 72.4666
14.3825 71.0999
14.4275 69.7357
14.4725 69.6343
14.5175 69.7354
14.5624 70.0623
14.6074 72.0102
14.6524 72.695
14.6974 71.1377
14.7424 72.8456
14.7874 80.2389
14.8324 91.091
14.8774 112.639
14.9224 153.486
14.9674 200.124
15.0124 214.296
15.0574 156.423
15.1024 96.0597
15.1474 73.9099
15.1924 71.5082
15.2374 71.9524
15.2824 70.9817
15.3274 68.9336
15.3725 67.6218
15.4175 67.1888
15.4625 66.9984
15.5076 67.0571
15.5526 67.1584
15.5976 66.532
15.6426 67.664
15.6877 73.6989
15.7327 81.8173
15.7778 96.956
15.8228 127.271
15.8679 168.068
15.9129 188.985
15.958 159.904
16.003 102.282
16.0481 70.353
16.0931 65.6206
16.1382 63.5782
16.1833 61.518
16.2283 59.8993
16.2734 59.4227
16.3185 59.4542
16.3636 60.0289
16.4086 58.6272
16.4537 57.1848
16.4988 56.1737
16.5439 56.187
16.589 55.8177
16.6341 55.6434
16.6792 55.2733
16.7243 55.5064
16.7694 55.5773
16.8145 55.6758
16.8596 56.0286
16.9047 57.4707
16.9498 57.6156
16.9949 56.338
17.04 56.4407
17.0851 57.9452
17.1302 59.5747
17.1754 62.6136
17.2205 67.5572
17.2656 74.7679
17.3108 81.7804
17.3559 82.6126
17.401 72.7163
17.4462 63.5662
17.4913 60.0348
17.5365 59.8423
17.5815 60.1812
17.6268 60.1477
17.6718 61.1991
17.7171 61.8301
17.7622 62.1355
17.8074 62.858
17.8525 65.1579
17.8977 69.2958
17.9428 75.0842
17.9881 83.9935
18.0331 100.73
18.0784 120.268
18.1237 136.499
18.1688 133.022
18.214 106.927
18.2591 88.9699
18.3044 91.6067
18.3495 99.5196
18.3948 105.41
18.4399 98.4212
18.4852 80.6293
18.5303 67.5277
18.5756 63.0936
18.6207 62.2279
18.666 61.2072
18.7112 60.684
18.7565 59.8273
18.8016 59.3313
18.8469 58.7374
18.892 58.5805
18.9374 57.9775
18.9825 57.7253
19.0278 57.6494
19.073 57.8973
19.1183 58.2394
19.1635 58.981
19.2088 60.4307
19.254 63.0809
19.2993 67.3012
19.3447 72.704
19.3898 76.5793
19.4352 73.1012
19.4804 64.9047
19.5257 58.01
19.5709 55.1489
19.6163 54.6125
19.6615 54.5128
19.7068 54.0981
19.752 54.1732
19.7974 54.2955
19.8426 55.2619
19.888 55.9417
19.9332 57.1313
19.9786 59.6568
20.0238 63.018
20.0692 67.1955
20.1144 69.8429
20.1598 69.3906
20.205 64.9968
20.2504 63.0464
20.2957 64.0278
20.3411 65.6071
20.3863 64.7736
20.4318 59.6792
20.477 54.6921
20.5224 52.4875
20.5677 51.733
20.6131 51.0628
20.6586 50.3806
20.7038 50.1261
20.7493 49.7729
20.7945 49.5487
20.84 49.5319
20.8853 49.2797
20.9307 49.1869
20.976 49.435
21.0215 49.3048
21.0668 49.6209
21.1122 50.2058
21.1575 50.7341
21.203 51.4089
21.2483 52.023
21.2938 52.1016
21.3391 50.7868
21.3846 49.6048
21.4299 49.1596
21.4754 49.0396
21.5207 49.1581
21.5662 49.4156
21.6116 49.9818
21.6571 50.5816
21.7024 51.6296
21.7479 53.3575
21.7933 56.1791
21.8388 59.5906
21.8843 62.8829
21.9297 64.6237
21.9752 64.2721
22.0206 61.2105
22.0661 57.5815
22.1115 56.6097
22.157 56.3958
22.2024 55.108
22.248 52.4203
22.2933 50.6495
22.3389 49.7677
22.3843 49.6534
22.4299 49.5203
22.4753 49.5775
22.5208 49.2875
22.5662 49.0066
22.6118 49.3192
22.6572 49.5553
22.7028 49.8964
22.7483 50.6142
22.7939 51.2206
22.8393 52.7398
22.8849 54.8376
22.9303 56.3571
22.9759 57.8544
23.0214 57.9313
23.067 55.5945
23.1126 52.3065
23.1581 50.0366
23.2037 49.3619
23.2492 49.4654
23.2948 49.5167
23.3403 49.6641
23.3859 50.5947
23.4314 51.5464
23.477 53.3934
23.5225 55.2255
23.5682 57.2145
23.6137 58.2154
23.6593 56.3307
23.7048 52.7065
23.7505 49.3245
23.796 47.5062
23.8417 46.6659
23.8872 46.1539
23.9329 45.8544
23.9784 45.5282
24.0241 45.2348
24.0697 45.0587
24.1154 44.7294
24.1609 44.6242
24.2066 44.5472
24.2522 44.3175
24.2979 44.0155
24.3434 43.9273
24.3892 43.6733
24.4349 43.742
24.4805 43.4364
24.5262 43.6682
24.5718 43.6707
24.6175 43.5028
24.6631 43.3933
24.7089 43.1254
24.7545 43.1024
24.8002 42.829
24.8458 42.8566
24.8916 42.6047
24.9372 42.8637
24.983 43.1375
25.0286 43.5261
25.0744 43.8516
25.12 44.3185
25.1658 44.9003
25.2114 45.1758
25.2572 45.3018
25.3029 45.3921
25.3487 45.461
25.3943 44.9991
25.4402 44.2442
25.4858 43.2314
25.5316 42.098
25.5773 41.4996
25.6231 41.4021
25.669 40.9931
25.7147 41.0645
25.7605 40.9767
25.8062 41.168
25.8521 41.1979
25.8977 41.2007
25.9436 41.398
25.9893 41.6265
26.0352 42.0228
26.0809 42.0312
26.1268 42.1285
26.1725 41.8991
26.2184 41.4335
26.2641 41.0595
26.31 40.8116
26.3557 40.6136
26.4017 40.6696
26.4474 40.972
26.4933 41.451
26.5391 41.7091
26.585 42.2655
26.6308 42.6047
26.6767 42.6201
26.7225 42.5421
26.7684 42.048
26.8142 41.3242
26.8601 41.0635
26.9059 40.7205
26.9519 40.2223
26.9979 39.7951
27.0437 39.4138
27.0896 39.2574
27.1354 39.1733
27.1814 39.1875
27.2272 39.1562
27.2732 39.1747
27.3191 38.8268
27.3651 39.0547
27.4109 38.8891
27.4569 39.0002
27.5027 38.9555
27.5488 39.0528
27.5946 38.9838
27.6407 38.8291
27.6865 38.6793
27.7326 38.4658
27.7784 38.4523
27.8245 38.3625
27.8703 38.6337
27.9164 38.8871
27.9623 38.9129
28.0084 39.0528
28.0543 39.5136
28.1003 39.5191
28.1462 39.272
28.1923 39.0593
28.2384 38.5265
28.2843 38.181
28.3304 37.7642
28.3764 37.3162
28.4225 36.9927
28.4684 36.8473
28.5145 36.4203
28.5605 36.3127
28.6066 36.2041
28.6526 36.1219
28.6987 36.1412
28.7447 36.0155
28.7908 36.0366
28.8368 35.9334
28.8829 36.0262
28.9289 35.8347
28.9751 35.5333
29.0211 35.4096
29.0673 35.0983
29.1133 35.1315
29.1595 34.9207
29.2055 34.771
29.2517 34.7978
29.2977 34.7783
29.3439 34.5398
29.3899 34.7261
29.4361 34.5291
29.4824 34.388
29.5284 34.2544
29.5746 33.8615
29.6207 33.6707
29.6669 33.5831
29.713 33.4345
29.7593 33.324
29.8053 33.3219
29.8516 33.198
29.8977 33.1856
29.9439 33.1041
29.99 33.0623
30.0363 32.9077
30.0824 32.8405
30.1287 32.7613
30.1748 32.8838
30.2211 32.8346
30.2673 32.8227
30.3136 32.8448
30.3597 32.6208
30.406 32.65
30.4522 32.519
30.4985 32.4876
30.5447 32.6105
30.591 32.4876
30.6372 32.6226
30.6835 32.6662
30.7297 32.6109
30.7761 32.4364
30.8224 32.4068
30.8686 32.2222
30.915 32.1141
30.9612 31.8396
31.0076 31.8013
31.0538 31.6774
31.1002 31.5619
31.1464 31.4118
31.1928 31.4046
31.2391 31.301
31.2855 31.3877
31.3317 31.2343
31.3781 31.3676
31.4244 31.3303
31.4708 31.2135
31.5171 31.1772
31.5636 31.1991
31.6098 30.9573
31.6563 30.7248
31.7026 30.7947
31.7491 30.5711
31.7953 30.6567
31.8418 30.5271
31.8881 30.6032
31.9346 30.5068
31.9809 30.4747
32.0275 30.4401
32.074 30.2685
32.1203 30.0221
32.1668 29.989
32.2132 29.8946
32.2597 29.6916
32.306 29.648
32.3526 29.4666
32.399 29.3057
32.4455 29.1616
32.4919 29.1688
32.5385 28.9117
32.5848 28.889
32.6314 28.8964
32.6778 28.7835
32.7244 28.6264
32.7708 28.4794
32.8174 28.5355
32.8638 28.3912
32.9104 28.5589
32.9569 28.4219
33.0035 28.3166
33.0499 28.2571
33.0966 28.2238
33.143 28.1155
33.1897 28.0996
33.2361 28.0547
33.2828 27.8886
33.3293 27.717
33.3759 27.7599
33.4226 27.6579
33.4691 27.5007
33.5158 27.4547
33.5623 27.2463
33.609 27.0903
33.6555 27.0821
33.7022 26.9747
33.7487 26.8755
33.7954 26.8396
33.842 26.8064
33.8887 26.6773
33.9353 26.6044
33.982 26.4938
34.0286 26.431
34.0753 26.3494
34.1219 26.2488
34.1687 26.2198
34.2152 26.1264
34.262 26.0658
34.3086 25.861
34.3554 25.9081
34.402 25.7774
34.4488 25.6273
34.4954 25.6093
34.5422 25.4463
34.5889 25.3998
34.6357 25.3492
34.6825 25.2429
34.7292 25.1792
34.776 25.0631
34.8227 25.0517
34.8695 25.0473
34.9162 24.863
34.9631 24.8329
35.0098 24.9258
35.0566 24.706
35.1033 24.6461
35.1502 24.6799
35.1969 24.5511
35.2438 24.4508
35.2906 24.4369
35.3375 24.436
35.3842 24.2883
35.4311 24.3244
35.4779 24.2328
35.5248 24.3101
35.5716 24.0968
35.6185 24.0753
35.6653 23.9316
35.7123 23.8617
35.759 23.8064
35.806 23.7194
35.8528 23.5774
35.8998 23.5916
35.9468 23.3909
35.9936 23.4385
36.0406 23.325
36.0874 23.3876
36.1345 23.2402
36.1813 23.18
36.2283 23.0323
36.2752 22.9852
36.3222 23.0185
36.3691 22.8283
36.4161 22.7671
36.463 22.7738
36.5101 22.7635
36.557 22.7008
36.6041 22.5368
36.651 22.5549
36.6981 22.4283
36.745 22.4392
36.7921 22.2766
36.839 22.1297
36.8861 22.083
36.9331 22.0036
36.9802 21.954
37.0272 21.8537
37.0743 21.8187
37.1213 21.7581
37.1684 21.7136
37.2154 21.663
37.2626 21.6425
37.3098 21.4704
37.3568 21.4358
37.404 21.373
37.451 21.2763
37.4982 21.2252
37.5452 21.1388
37.5924 21.1184
37.6395 21.1518
37.6867 21.0205
37.7337 20.9025
37.781 20.8295
37.8281 20.7893
37.8753 20.6128
37.9224 20.6597
37.9697 20.5913
38.0168 20.5299
38.064 20.4398
38.1111 20.3503
38.1584 20.285
38.2056 20.2456
38.2529 20.1805
38.3 20.1142
38.3473 20.0747
38.3945 19.9328
38.4418 19.9193
38.489 19.8801
38.5363 19.7424
38.5837 19.725
38.6309 19.6579
38.6782 19.6222
38.7254 19.5339
38.7728 19.472
38.82 19.4009
38.8674 19.3753
38.9146 19.3141
38.9621 19.2578
39.0093 19.1813
39.0567 19.1571
39.104 19.0941
39.1514 18.9653
39.1987 18.9579
39.2461 18.9298
39.2934 18.7632
39.3409 18.7019
39.3882 18.6982
39.4356 18.583
39.483 18.6399
39.5304 18.5178
39.5778 18.4956
39.6253 18.4012
39.6726 18.3697
39.7201 18.2359
39.7675 18.2453
39.815 18.195
39.8624 18.1419
39.9099 18.116
39.9575 17.9495
40.0049 17.9077
40.0525 17.8771
40.0999 17.8741
40.1474 17.7939
40.1949 17.6726
40.2425 17.6201
40.2899 17.6488
40.3375 17.5469
40.385 17.524
40.4326 17.4303
40.48 17.3665
40.5277 17.3551
40.5752 17.2734
40.6228 17.2126
40.6703 17.1452
40.718 17.103
40.7655 17.0373
40.8132 17.0297
40.8607 16.9906
40.9084 16.9191
40.9559 16.794
41.0036 16.7898
41.0512 16.6912
41.0989 16.7171
41.1465 16.628
41.1942 16.5484
41.242 16.5272
41.2896 16.4357
41.3373 16.3841
41.3849 16.346
41.4327 16.2918
41.4803 16.2288
41.5281 16.223
41.5758 16.1477
41.6236 16.0527
41.6712 16.0382
41.7191 15.9462
41.7667 15.9151
41.8146 15.89
41.8622 15.8079
41.9101 15.7505
41.9578 15.6333
42.0057 15.6333
42.0534 15.5857
42.1013 15.5604
42.149 15.4766
42.1969 15.4372
42.2446 15.3649
42.2925 15.3543
42.3403 15.3239
42.3882 15.2801
42.436 15.1567
42.4839 15.1578
42.5319 15.0969
42.5797 15.0181
42.6277 14.9405
42.6755 14.9803
42.7235 14.8501
42.7713 14.8324
42.8193 14.7706
42.8671 14.6844
42.9152 14.6732
42.963 14.6157
43.0111 14.549
43.0589 14.5425
43.107 14.5169
43.1549 14.4226
43.2029 14.3304
43.2508 14.371
43.2989 14.2124
43.3468 14.1991
43.3949 14.1764
43.4429 14.084
43.491 14.0216
43.5389 14.0085
43.5871 13.9833
43.635 13.9308
43.6832 13.8949
43.7312 13.805
43.7793 13.8162
43.8273 13.7455
43.8755 13.6559
43.9237 13.6531
43.9717 13.6219
44.0199 13.5615
44.068 13.5213
44.1162 13.4653
44.1642 13.4384
44.2125 13.3934
44.2606 13.2951
44.3088 13.2787
44.3569 13.2315
44.4052 13.2165
44.4533 13.1457
44.5016 13.0467
44.5497 13.0217
44.598 13.0295
44.6461 12.9465
44.6945 12.8907
44.7426 12.8267
44.791 12.7801
44.8391 12.7971
44.8875 12.7066
44.9357 12.7077
44.984 12.5977
45.0322 12.6097
45.0806 12.5426
45.1288 12.5081
45.1773 12.413
45.2257 12.3778
45.2739 12.3777
45.3224 12.3185
45.3706 12.3015
45.4191 12.2435
45.4673 12.1944
45.5158 12.1799
45.5641 12.0849
45.6126 12.0659
45.6609 11.9935
45.7094 11.9644
45.7577 11.9124
45.8063 11.8706
45.8546 11.8673
45.9031 11.7903
45.9515 11.7257
46.0001 11.7258
46.0484 11.6809
46.097 11.6504
46.1454 11.6073
46.194 11.5884
46.2424 11.5519
46.291 11.4708
46.3395 11.4219
46.3881 11.3337
46.4365 11.3554
46.4852 11.3224
46.5337 11.2754
46.5823 11.2154
46.631 11.2066
46.6795 11.131
46.7282 11.0882
46.7767 11.0688
46.8254 10.977
46.8739 11.0038
46.9226 10.9565
46.9712 10.8694
47.0199 10.8344
47.0685 10.8376
47.1173 10.7299
47.1658 10.7023
47.2146 10.6942
47.2632 10.6424
47.312 10.6095
47.3606 10.5627
47.4095 10.5401
47.4581 10.4827
47.5069 10.441
47.5556 10.4226
47.6044 10.3714
47.6531 10.337
47.702 10.31
47.7507 10.245
47.7996 10.2277
47.8483 10.1975
47.8972 10.1723
47.9461 10.1051
47.9948 10.0795
48.0438 10.0591
48.0925 10.0331
48.1415 9.98965
48.1902 9.91989
48.2392 9.93733
48.288 9.89312
48.337 9.84582
48.3858 9.78948
48.4348 9.79037
48.4837 9.73981
48.5327 9.66886
48.5815 9.63671
48.6306 9.64312
48.6795 9.6337
48.7285 9.57358
48.7774 9.53047
48.8265 9.51924
48.8754 9.46226
48.9245 9.4386
48.9734 9.38631
49.0226 9.35844
49.0715 9.32485
49.1206 9.27601
49.1696 9.25599
49.2188 9.21919
49.2679 9.15621
49.3169 9.10097
49.3661 9.07802
49.4151 9.05973
49.4643 9.06223
49.5134 9.01129
49.5626 8.93031
49.6117 8.94933
49.6609 8.90738
49.71 8.8235
49.7592 8.80692
49.8083 8.74373
49.8576 8.78656
49.9067 8.74431
49.956 8.69189
50.0052 8.65427
50.0545 8.61867
50.1036 8.58222
50.153 8.55233
50.2022 8.53146
50.2515 8.49033
50.3007 8.46517
50.3501 8.42669
50.3993 8.36752
50.4487 8.35992
50.498 8.31985
50.5474 8.29936
50.5966 8.26792
50.6461 8.20209
50.6955 8.1814
50.7448 8.1969
50.7943 8.10659
50.8436 8.10832
50.8931 8.0258
50.9424 8.0216
50.9919 7.97395
51.0413 7.95468
51.0908 7.95926
51.1402 7.93861
51.1897 7.86759
51.2391 7.84496
51.2887 7.83212
51.3381 7.74892
51.3877 7.74987
51.4371 7.71737
51.4867 7.70456
51.5362 7.65397
51.5858 7.62211
51.6353 7.59507
51.6849 7.53913
51.7344 7.55009
51.7841 7.53384
51.8336 7.46714
51.8833 7.47431
51.9328 7.36786
51.9826 7.34475
52.0323 7.31956
52.0818 7.3032
52.1316 7.26312
52.1812 7.24284
52.231 7.20196
52.2806 7.16213
52.3304 7.15262
52.38 7.1185
52.4298 7.06651
52.4794 7.08442
52.5293 7.02963
52.5789 7.0185
52.6288 6.95281
52.6785 6.95004
52.7284 6.95842
52.7781 6.93914
52.828 6.87267
52.8777 6.84812
52.9276 6.80884
52.9774 6.79454
53.0273 6.7411
53.0771 6.77171
53.1271 6.70709
53.1769 6.66829
53.2269 6.64238
53.2767 6.60766
53.3267 6.58489
53.3765 6.58161
53.4266 6.50264
53.4766 6.4949
53.5265 6.49607
53.5765 6.40797
53.6264 6.37414
53.6765 6.37404
53.7264 6.38092
53.7765 6.34284
53.8265 6.29326
53.8766 6.23195
53.9266 6.24942
53.9767 6.22696
54.0267 6.21643
54.0769 6.16281
54.1269 6.12599
54.1771 6.11658
54.2271 6.07647
54.2773 6.00251
54.3274 6.00283
54.3776 6.00036
54.4277 5.95016
54.478 5.91497
54.528 5.88486
54.5783 5.84781
54.6285 5.79342
54.6788 5.80236
54.7289 5.71616
54.7792 5.73174
54.8296 5.63424
54.8798 5.62875
54.9301 5.5302
54.9803 5.5006
55.0307 5.50069
55.0809 5.45973
55.1314 5.44697
55.1816 5.36223
55.232 5.30554
55.2823 5.26975
55.3328 5.19053
55.383 5.13457
55.4335 5.08403
55.4838 5.04222
55.5344 5.04101
55.5847 4.92652
55.6352 4.92987
55.6856 4.94378
55.7361 4.87582