File: XRD/Ni3Fe_FD0248.xy
TT I
1.27165 7.58588
1.31627 7.04927
1.36089 6.82431
1.40551 6.21388
1.45013 5.98849
1.49476 6.67376
1.53938 5.99902
1.584 5.76531
1.62863 5.88352
1.67325 5.99837
1.71787 5.05463
1.7625 5.36089
1.80712 4.61627
1.85174 4.74996
1.89636 4.73941
1.94099 4.91019
1.98562 4.86423
2.03025 4.71705
2.07487 4.22352
2.11949 4.53106
2.16411 4.46536
2.20874 4.74739
2.25338 3.92544
2.298 4.3877
2.34263 5.28357
2.38725 4.77559
2.43188 4.79192
2.4765 4.79415
2.52115 5.53693
2.56577 5.88632
2.6104 6.0115
2.65503 6.87034
2.69965 6.39722
2.7443 6.39843
2.78893 7.09838
2.83356 7.44843
2.87818 7.14387
2.92281 8.81485
2.96744 9.42132
3.01209 10.7806
3.05672 11.0917
3.10135 12.1205
3.14599 12.8737
3.19062 14.3157
3.23527 14.4516
3.2799 15.5893
3.32454 16.7819
3.36917 17.8301
3.4138 18.6813
3.45844 19.8146
3.50309 20.4794
3.54773 21.4208
3.59237 22.2136
3.637 23.1995
3.68164 24.2326
3.7263 25.229
3.77094 26.0324
3.81558 26.366
3.86022 27.4293
3.90486 29.2931
3.9495 30.1218
3.99416 31.0684
4.0388 32.3648
4.08344 33.9536
4.12809 34.5287
4.17273 36.4591
4.21738 37.5999
4.26204 39.0487
4.30669 40.6007
4.35133 42.9231
4.39598 44.4228
4.44063 46.3808
4.4853 48.4737
4.52995 53.0879
4.5746 54.3293
4.61925 55.8033
4.6639 58.2141
4.70855 60.7052
4.75322 64.4976
4.79788 68.4924
4.84253 71.7185
4.88719 76.9219
4.93184 81.4399
4.97652 87.7288
5.02118 96.1465
5.06583 106.626
5.11049 123.111
5.15515 168.39
5.19981 892.394
5.24449 3955.36
5.28916 10604.0
5.33382 3985.38
5.37848 264.208
5.42315 151.637
5.46783 129.053
5.5125 117.52
5.55716 111.719
5.60183 105.646
5.6465 103.83
5.69117 102.657
5.73586 100.267
5.78053 101.932
5.8252 102.492
5.86988 104.654
5.91455 109.279
5.95924 132.217
6.00392 444.958
6.0486 1423.96
6.09328 3723.67
6.13795 3664.98
6.18263 345.218
6.22733 107.446
6.27201 88.4921
6.3167 80.6924
6.36138 75.7098
6.40606 73.3372
6.45075 71.1971
6.49545 67.9412
6.54014 66.4297
6.58483 65.0065
6.62952 64.0973
6.67421 62.3683
6.71892 61.0455
6.76361 60.3476
6.8083 60.1178
6.853 59.1342
6.89769 58.3097
6.94239 57.8897
6.98711 57.2952
7.03181 57.1493
7.07651 55.9968
7.12121 55.9218
7.16591 56.8857
7.21063 55.6083
7.25533 55.56
7.30004 55.7034
7.34475 55.8094
7.38945 55.7791
7.43416 55.7469
7.47889 55.6322
7.5236 56.0139
7.56831 57.2063
7.61303 56.7126
7.65774 57.2271
7.70247 57.9966
7.74719 57.9057
7.79191 58.737
7.83663 59.4009
7.88135 60.047
7.92607 61.111
7.97081 62.2855
8.01553 63.2523
8.06026 65.3144
8.10498 66.7111
8.14971 69.2233
8.19446 70.9462
8.23919 73.1281
8.28392 76.2054
8.32865 78.7797
8.37339 83.9945
8.41812 89.9368
8.46288 111.612
8.50761 291.302
8.55235 577.688
8.59709 1086.65
8.64183 2012.17
8.68658 1171.99
8.73134 211.156
8.77609 109.426
8.82083 99.9757
8.86558 95.6523
8.91033 93.3797
8.9551 90.4056
8.99985 89.2555
9.04461 88.5003
9.08936 87.939
9.13412 86.643
9.17888 86.4449
9.22365 86.3687
9.26841 86.3384
9.31318 88.225
9.35794 88.2045
9.4027 88.0715
9.44749 89.1941
9.49226 89.4717
9.53703 90.6056
9.5818 92.9136
9.62657 94.5462
9.67134 95.1912
9.71614 97.5727
9.76091 99.8252
9.80569 103.293
9.85047 106.654
9.89525 112.26
9.94005 137.856
9.98484 302.999
10.0296 510.686
10.0744 812.609
10.1192 1478.58
10.164 1692.42
10.2088 526.167
10.2536 146.373
10.2984 117.161
10.3432 111.96
10.388 115.365
10.4328 158.632
10.4776 209.933
10.5224 284.262
10.5672 451.638
10.612 526.419
10.6568 247.112
10.7017 106.508
10.7465 91.9484
10.7913 87.7349
10.8361 84.9425
10.8809 82.886
10.9257 80.7203
10.9706 79.5527
11.0154 77.494
11.0602 75.922
11.105 74.6724
11.1499 73.0633
11.1947 71.6672
11.2395 70.9742
11.2844 70.5807
11.3292 69.608
11.374 69.0667
11.4189 68.5039
11.4637 67.4267
11.5086 66.9281
11.5534 66.7123
11.5983 66.1219
11.6431 66.2247
11.688 65.5564
11.7328 65.4738
11.7777 65.3771
11.8225 65.0173
11.8674 65.189
11.9122 65.9174
11.9571 65.9995
12.002 68.9039
12.0468 79.7744
12.0917 93.6562
12.1366 109.292
12.1814 141.24
12.2263 196.438
12.2712 184.929
12.3161 102.719
12.3609 69.8026
12.4058 66.9891
12.4507 66.8824
12.4956 67.2756
12.5405 67.0129
12.5853 67.563
12.6302 67.8931
12.6751 68.7749
12.72 69.4182
12.7649 70.7225
12.8098 71.4601
12.8547 72.989
12.8996 74.4608
12.9445 76.2322
12.9894 78.1842
13.0343 80.6498
13.0792 86.4636
13.1242 111.425
13.1691 145.483
13.214 174.656
13.2589 231.931
13.3038 328.391
13.3487 422.062
13.3937 305.448
13.4386 147.527
13.4835 132.822
13.5285 151.802
13.5734 175.516
13.6183 228.71
13.6633 316.013
13.7082 361.717
13.7531 223.098
13.7981 109.485
13.843 86.4694
13.888 83.8416
13.9329 81.227
13.9779 79.7632
14.0228 78.1511
14.0678 76.5149
14.1127 76.2589
14.1577 74.9282
14.2027 74.5059
14.2476 73.7042
14.2926 73.1971
14.3376 72.8422
14.3825 72.5606
14.4275 72.2614
14.4725 72.2016
14.5175 72.4751
14.5624 72.3907
14.6074 72.5301
14.6524 73.4382
14.6974 74.4649
14.7424 81.4777
14.7874 94.877
14.8324 105.918
14.8774 119.95
14.9224 146.719
14.9674 189.707
15.0124 221.523
15.0574 167.189
15.1024 99.7314
15.1474 76.4842
15.1924 73.4365
15.2374 72.183
15.2824 71.3755
15.3274 70.1399
15.3725 69.7651
15.4175 69.3122
15.4625 69.1693
15.5076 68.9844
15.5526 68.9958
15.5976 69.7054
15.6426 74.9181
15.6877 85.7645
15.7327 94.016
15.7778 103.716
15.8228 123.325
15.8679 154.039
15.9129 189.884
15.958 170.126
16.003 108.761
16.0481 71.9454
16.0931 65.7183
16.1382 63.6329
16.1833 62.8666
16.2283 61.4863
16.2734 60.7235
16.3185 59.929
16.3636 59.4469
16.4086 58.8505
16.4537 58.1999
16.4988 57.8306
16.5439 57.6284
16.589 57.5386
16.6341 57.4164
16.6792 56.7219
16.7243 57.0997
16.7694 57.0944
16.8145 56.8587
16.8596 57.2974
16.9047 57.4158
16.9498 57.6347
16.9949 57.7086
17.04 59.1716
17.0851 61.5667
17.1302 63.5235
17.1754 65.5603
17.2205 68.9556
17.2656 74.2166
17.3108 82.2508
17.3559 85.6088
17.401 76.9311
17.4462 66.4504
17.4913 62.3671
17.5365 62.0975
17.5815 62.1248
17.6268 62.4826
17.6718 62.797
17.7171 63.4507
17.7622 64.5748
17.8074 66.5702
17.8525 72.1521
17.8977 77.8026
17.9428 82.4943
17.9881 88.4075
18.0331 99.9862
18.0784 116.394
18.1237 139.098
18.1688 142.452
18.214 116.463
18.2591 93.2706
18.3044 90.4799
18.3495 97.5413
18.3948 107.016
18.4399 101.523
18.4852 82.9299
18.5303 69.3815
18.5756 65.3628
18.6207 64.3246
18.666 63.2619
18.7112 62.4336
18.7565 61.7392
18.8016 61.4355
18.8469 61.0502
18.892 60.4229
18.9374 59.857
18.9825 59.581
19.0278 59.2285
19.073 60.2683
19.1183 61.0014
19.1635 61.7876
19.2088 62.8496
19.254 64.6795
19.2993 67.4718
19.3447 71.5122
19.3898 76.5278
19.4352 76.1688
19.4804 68.0213
19.5257 59.9984
19.5709 56.8529
19.6163 56.2671
19.6615 56.329
19.7068 55.8288
19.752 56.0761
19.7974 56.9167
19.8426 58.1845
19.888 58.5765
19.9332 59.4524
19.9786 61.5151
20.0238 64.0945
20.0692 68.6265
20.1144 72.451
20.1598 72.7328
20.205 67.6875
20.2504 64.0797
20.2957 64.4873
20.3411 66.9475
20.3863 67.3836
20.4318 62.1052
20.477 56.3504
20.5224 53.3677
20.5677 52.8507
20.6131 52.4104
20.6586 51.8028
20.7038 51.7699
20.7493 51.2625
20.7945 51.2552
20.84 51.0558
20.8853 51.0531
20.9307 51.0237
20.976 51.3089
21.0215 51.109
21.0668 51.2804
21.1122 51.7234
21.1575 52.089
21.203 52.4903
21.2483 53.1432
21.2938 53.7548
21.3391 52.6856
21.3846 51.4875
21.4299 50.7384
21.4754 50.8229
21.5207 51.0323
21.5662 51.6403
21.6116 52.5501
21.6571 53.3947
21.7024 54.3181
21.7479 55.5453
21.7933 57.6445
21.8388 60.1209
21.8843 63.6388
21.9297 66.7345
21.9752 66.7566
22.0206 62.9748
22.0661 58.3789
22.1115 57.6049
22.157 58.2514
22.2024 57.2872
22.248 54.3997
22.2933 52.223
22.3389 51.3101
22.3843 50.9308
22.4299 50.842
22.4753 50.8383
22.5208 50.8749
22.5662 50.9344
22.6118 51.3371
22.6572 51.8019
22.7028 52.2931
22.7483 52.6909
22.7939 53.1635
22.8393 54.0444
22.8849 55.6367
22.9303 57.1652
22.9759 59.3642
23.0214 59.8069
23.067 57.568
23.1126 54.1868
23.1581 51.6613
23.2037 51.3186
23.2492 51.8843
23.2948 51.8215
23.3403 52.0769
23.3859 52.562
23.4314 53.2107
23.477 54.2178
23.5225 55.6159
23.5682 57.721
23.6137 59.5759
23.6593 58.5212
23.7048 54.8787
23.7505 51.0653
23.796 48.9728
23.8417 48.2218
23.8872 47.7046
23.9329 47.2822
23.9784 47.0844
24.0241 46.5988
24.0697 46.3427
24.1154 46.2331
24.1609 45.8407
24.2066 45.7344
24.2522 45.5904
24.2979 45.4834
24.3434 45.149
24.3892 45.0973
24.4349 44.8873
24.4805 44.795
24.5262 44.9775
24.5718 44.83
24.6175 44.8581
24.6631 44.7939
24.7089 44.3648
24.7545 44.3161
24.8002 44.1181
24.8458 44.328
24.8916 44.1673
24.9372 44.2947
24.983 44.8039
25.0286 44.9612
25.0744 45.3513
25.12 45.4611
25.1658 46.2843
25.2114 46.3366
25.2572 46.4457
25.3029 46.2996
25.3487 46.4962
25.3943 46.3897
25.4402 45.6837
25.4858 44.5621
25.5316 43.4984
25.5773 42.7205
25.6231 42.9136
25.669 42.4174
25.7147 42.4718
25.7605 42.3271
25.8062 42.4159
25.8521 42.3673
25.8977 42.2338
25.9436 42.4682
25.9893 42.6394
26.0352 43.1675
26.0809 43.0404
26.1268 43.5169
26.1725 43.3078
26.2184 42.8117
26.2641 42.33
26.31 42.0716
26.3557 42.1614
26.4017 42.0586
26.4474 42.3961
26.4933 42.4265
26.5391 42.8194
26.585 43.2394
26.6308 43.6065
26.6767 43.9401
26.7225 43.929
26.7684 43.24
26.8142 42.6897
26.8601 42.2885
26.9059 41.8133
26.9519 41.2942
26.9979 41.0051
27.0437 40.6701
27.0896 40.5981
27.1354 40.551
27.1814 40.4962
27.2272 40.278
27.2732 40.444
27.3191 39.9956
27.3651 40.2575
27.4109 40.0736
27.4569 40.1233
27.5027 40.1983
27.5488 40.4234
27.5946 40.0266
27.6407 40.0737
27.6865 39.9992
27.7326 39.5995
27.7784 39.5289
27.8245 39.6556
27.8703 39.694
27.9164 39.8788
27.9623 39.959
28.0084 40.3311
28.0543 40.5403
28.1003 40.6649
28.1462 40.466
28.1923 40.1144
28.2384 39.7074
28.2843 39.3345
28.3304 38.8304
28.3764 38.5048
28.4225 37.9562
28.4684 37.982
28.5145 37.5125
28.5605 37.3853
28.6066 37.2628
28.6526 37.2302
28.6987 37.1206
28.7447 37.0481
28.7908 36.8308
28.8368 36.8607
28.8829 36.8701
28.9289 36.7731
28.9751 36.7174
29.0211 36.5859
29.0673 36.1717
29.1133 36.1371
29.1595 35.8437
29.2055 35.8091
29.2517 35.7383
29.2977 35.6893
29.3439 35.7156
29.3899 35.6907
29.4361 35.6285
29.4824 35.3758
29.5284 35.3099
29.5746 34.922
29.6207 34.6303
29.6669 34.5876
29.713 34.4959
29.7593 34.3464
29.8053 34.3532
29.8516 34.2876
29.8977 34.1675
29.9439 34.0413
29.99 33.9574
30.0363 33.7974
30.0824 33.9126
30.1287 33.7853
30.1748 33.7814
30.2211 33.779
30.2673 33.6484
30.3136 33.8077
30.3597 33.7756
30.406 33.6699
30.4522 33.5415
30.4985 33.4588
30.5447 33.5419
30.591 33.4837
30.6372 33.5551
30.6835 33.6195
30.7297 33.5844
30.7761 33.5363
30.8224 33.4111
30.8686 33.2333
30.915 32.9654
30.9612 32.9626
31.0076 32.6621
31.0538 32.5587
31.1002 32.5708
31.1464 32.3388
31.1928 32.2943
31.2391 32.3115
31.2855 32.1938
31.3317 32.171
31.3781 32.3266
31.4244 32.2291
31.4708 32.1066
31.5171 32.1255
31.5636 32.1278
31.6098 31.9174
31.6563 31.6855
31.7026 31.5904
31.7491 31.5139
31.7953 31.4645
31.8418 31.304
31.8881 31.4803
31.9346 31.3676
31.9809 31.3617
32.0275 31.2244
32.074 31.0579
32.1203 30.9579
32.1668 30.8538
32.2132 30.6784
32.2597 30.5519
32.306 30.4468
32.3526 30.2277
32.399 30.2304
32.4455 30.0214
32.4919 29.9218
32.5385 29.9033
32.5848 29.6935
32.6314 29.7864
32.6778 29.5868
32.7244 29.5113
32.7708 29.4355
32.8174 29.4837
32.8638 29.1908
32.9104 29.2218
32.9569 29.2899
33.0035 29.1035
33.0499 29.0101
33.0966 28.9697
33.143 28.9995
33.1897 28.8631
33.2361 28.8555
33.2828 28.7224
33.3293 28.5579
33.3759 28.634
33.4226 28.4276
33.4691 28.2857
33.5158 28.1873
33.5623 28.0437
33.609 27.8631
33.6555 27.8558
33.7022 27.7609
33.7487 27.6363
33.7954 27.5878
33.842 27.5146
33.8887 27.5067
33.9353 27.369
33.982 27.3105
34.0286 27.236
34.0753 27.0554
34.1219 27.0771
34.1687 27.0371
34.2152 26.9245
34.262 26.7601
34.3086 26.6307
34.3554 26.6689
34.402 26.4919
34.4488 26.3779
34.4954 26.4096
34.5422 26.21
34.5889 26.1005
34.6357 26.0655
34.6825 26.0111
34.7292 25.8534
34.776 25.7937
34.8227 25.7526
34.8695 25.7596
34.9162 25.6363
34.9631 25.4477
35.0098 25.5592
35.0566 25.4048
35.1033 25.4125
35.1502 25.2955
35.1969 25.2071
35.2438 25.1869
35.2906 25.055
35.3375 25.0349
35.3842 25.021
35.4311 25.0253
35.4779 24.8914
35.5248 24.9125
35.5716 24.8324
35.6185 24.699
35.6653 24.6548
35.7123 24.512
35.759 24.5237
35.806 24.4372
35.8528 24.208
35.8998 24.1902
35.9468 24.1164
35.9936 24.1027
36.0406 24.0295
36.0874 23.9815
36.1345 23.814
36.1813 23.7231
36.2283 23.7574
36.2752 23.5988
36.3222 23.6306
36.3691 23.5759
36.4161 23.437
36.463 23.3726
36.5101 23.2752
36.557 23.3348
36.6041 23.1259
36.651 23.1776
36.6981 23.0699
36.745 23.0337
36.7921 22.9319
36.839 22.8099
36.8861 22.7375
36.9331 22.6682
36.9802 22.6121
37.0272 22.4862
37.0743 22.4476
37.1213 22.4297
37.1684 22.3137
37.2154 22.1928
37.2626 22.1652
37.3098 22.0975
37.3568 22.1093
37.404 22.0384
37.451 21.848
37.4982 21.8186
37.5452 21.6942
37.5924 21.7444
37.6395 21.7322
37.6867 21.5676
37.7337 21.4655
37.781 21.4291
37.8281 21.3199
37.8753 21.2273
37.9224 21.1361
37.9697 21.1706
38.0168 21.0805
38.064 20.975
38.1111 21.0313
38.1584 20.9198
38.2056 20.8149
38.2529 20.7606
38.3 20.6588
38.3473 20.6978
38.3945 20.5251
38.4418 20.5631
38.489 20.5232
38.5363 20.3146
38.5837 20.2447
38.6309 20.2498
38.6782 20.205
38.7254 20.1303
38.7728 20.0596
38.82 20.0088
38.8674 19.9206
38.9146 19.844
38.9621 19.8037
39.0093 19.7241
39.0567 19.7334
39.104 19.5094
39.1514 19.4893
39.1987 19.4591
39.2461 19.4224
39.2934 19.3627
39.3409 19.3047
39.3882 19.1317
39.4356 19.1197
39.483 19.0997
39.5304 19.0401
39.5778 19.0087
39.6253 18.9706
39.6726 18.8557
39.7201 18.8261
39.7675 18.7822
39.815 18.6793
39.8624 18.6373
39.9099 18.6048
39.9575 18.5297
40.0049 18.418
40.0525 18.3686
40.0999 18.3291
40.1474 18.2783
40.1949 18.193
40.2425 18.1376
40.2899 18.0703
40.3375 18.0502
40.385 18.0419
40.4326 18.0224
40.48 17.8572
40.5277 17.8538
40.5752 17.7626
40.6228 17.6726
40.6703 17.5718
40.718 17.5492
40.7655 17.5741
40.8132 17.4868
40.8607 17.45
40.9084 17.3101
40.9559 17.3052
41.0036 17.2916
41.0512 17.2296
41.0989 17.1597
41.1465 17.1554
41.1942 17.0233
41.242 16.9901
41.2896 16.8916
41.3373 16.8068
41.3849 16.7452
41.4327 16.7405
41.4803 16.642
41.5281 16.6627
41.5758 16.5685
41.6236 16.4347
41.6712 16.4299
41.7191 16.3843
41.7667 16.3199
41.8146 16.347
41.8622 16.192
41.9101 16.2205
41.9578 16.1234
42.0057 16.0476
42.0534 16.0675
42.1013 15.9925
42.149 15.9145
42.1969 15.8887
42.2446 15.7964
42.2925 15.7419
42.3403 15.7098
42.3882 15.6696
42.436 15.5931
42.4839 15.5273
42.5319 15.5149
42.5797 15.4601
42.6277 15.4087
42.6755 15.3212
42.7235 15.2562
42.7713 15.274
42.8193 15.1886
42.8671 15.1075
42.9152 15.106
42.963 15.0156
43.0111 14.9444
43.0589 14.9427
43.107 14.8472
43.1549 14.8141
43.2029 14.7669
43.2508 14.6889
43.2989 14.6147
43.3468 14.6567
43.3949 14.5818
43.4429 14.4642
43.491 14.4778
43.5389 14.3824
43.5871 14.3556
43.635 14.3316
43.6832 14.3257
43.7312 14.1963
43.7793 14.1485
43.8273 14.1258
43.8755 14.0418
43.9237 14.0468
43.9717 13.9895
44.0199 13.8589
44.068 13.9194
44.1162 13.8247
44.1642 13.7959
44.2125 13.7949
44.2606 13.7137
44.3088 13.652
44.3569 13.5472
44.4052 13.5635
44.4533 13.4743
44.5016 13.4113
44.5497 13.4419
44.598 13.4012
44.6461 13.312
44.6945 13.251
44.7426 13.2086
44.791 13.1356
44.8391 13.1407
44.8875 13.087
44.9357 13.0328
44.984 12.964
45.0322 12.8939
45.0806 12.8791
45.1288 12.851
45.1773 12.795
45.2257 12.7647
45.2739 12.7018
45.3224 12.6621
45.3706 12.6408
45.4191 12.5468
45.4673 12.5519
45.5158 12.4682
45.5641 12.4086
45.6126 12.387
45.6609 12.3361
45.7094 12.2922
45.7577 12.2692
45.8063 12.1984
45.8546 12.1461
45.9031 12.1228
45.9515 12.0774
46.0001 12.0615
46.0484 11.9429
46.097 11.9715
46.1454 11.9297
46.194 11.8746
46.2424 11.7874
46.291 11.7788
46.3395 11.74
46.3881 11.7061
46.4365 11.6553
46.4852 11.6073
46.5337 11.5595
46.5823 11.5353
46.631 11.4623
46.6795 11.4411
46.7282 11.4139
46.7767 11.4225
46.8254 11.2995
46.8739 11.3065
46.9226 11.2573
46.9712 11.2159
47.0199 11.1444
47.0685 11.1119
47.1173 11.066
47.1658 11.0142
47.2146 10.9942
47.2632 10.9182
47.312 10.8949
47.3606 10.8964
47.4095 10.7843
47.4581 10.789
47.5069 10.7092
47.5556 10.6508
47.6044 10.6309
47.6531 10.5925
47.702 10.518
47.7507 10.561
47.7996 10.4959
47.8483 10.4165
47.8972 10.4179
47.9461 10.3648
47.9948 10.3177
48.0438 10.3047
48.0925 10.3021
48.1415 10.2599
48.1902 10.183
48.2392 10.1718
48.288 10.171
48.337 10.0904
48.3858 10.0708
48.4348 10.0113
48.4837 9.98774
48.5327 9.98084
48.5815 9.92811
48.6306 9.88497
48.6795 9.85772
48.7285 9.78919
48.7774 9.77113
48.8265 9.69957
48.8754 9.68908
48.9245 9.65216
48.9734 9.61816
49.0226 9.62333
49.0715 9.54098
49.1206 9.52334
49.1696 9.47758
49.2188 9.40382
49.2679 9.40739
49.3169 9.36273
49.3661 9.32502
49.4151 9.28246
49.4643 9.2658
49.5134 9.24245
49.5626 9.14156
49.6117 9.15045
49.6609 9.11501
49.71 9.0248
49.7592 9.04449
49.8083 8.97852
49.8576 8.95777
49.9067 8.93517
49.956 8.90673
50.0052 8.86638
50.0545 8.85109
50.1036 8.7879
50.153 8.80607
50.2022 8.7571
50.2515 8.68362
50.3007 8.66302
50.3501 8.62379
50.3993 8.60221
50.4487 8.53529
50.498 8.54073
50.5474 8.52874
50.5966 8.45892
50.6461 8.44705
50.6955 8.40545
50.7448 8.4001
50.7943 8.36407
50.8436 8.28554
50.8931 8.25544
50.9424 8.24513
50.9919 8.20111
51.0413 8.19164
51.0908 8.13726
51.1402 8.11569
51.1897 8.09504
51.2391 8.07097
51.2887 8.04702
51.3381 7.99835
51.3877 7.96357
51.4371 7.90911
51.4867 7.87522
51.5362 7.86991
51.5858 7.81915
51.6353 7.81638
51.6849 7.74417
51.7344 7.68811
51.7841 7.69426
51.8336 7.64759
51.8833 7.64151
51.9328 7.56538
51.9826 7.57652
52.0323 7.51254
52.0818 7.48036
52.1316 7.46322
52.1812 7.42214
52.231 7.43065
52.2806 7.37475
52.3304 7.37036
52.38 7.30908
52.4298 7.2944
52.4794 7.27121
52.5293 7.19551
52.5789 7.17457
52.6288 7.1645
52.6785 7.09516
52.7284 7.09172
52.7781 7.06746
52.828 7.06056
52.8777 6.98399
52.9276 6.95887
52.9774 6.9821
53.0273 6.9301
53.0771 6.92776
53.1271 6.85795
53.1769 6.81374
53.2269 6.78236
53.2767 6.78847
53.3267 6.77637
53.3765 6.68916
53.4266 6.71566
53.4766 6.6496
53.5265 6.61318
53.5765 6.6264
53.6264 6.56686
53.6765 6.52714
53.7264 6.52627
53.7765 6.51153
53.8265 6.4643
53.8766 6.42267
53.9266 6.39589
53.9767 6.35804
54.0267 6.34979
54.0769 6.29605
54.1269 6.29355
54.1771 6.27225
54.2271 6.25656
54.2773 6.16961
54.3274 6.1542
54.3776 6.13163
54.4277 6.07672
54.478 6.05779
54.528 6.01045
54.5783 5.96223
54.6285 5.88057
54.6788 5.87054
54.7289 5.86217
54.7792 5.80668
54.8296 5.78386
54.8798 5.76476
54.9301 5.70655
54.9803 5.65055
55.0307 5.60772
55.0809 5.63425
55.1314 5.54436
55.1816 5.40977
55.232 5.40562
55.2823 5.3752
55.3328 5.29981
55.383 5.22568
55.4335 5.22619
55.4838 5.17734
55.5344 5.11333
55.5847 5.07449
55.6352 5.06848
55.6856 5.00784
55.7361 4.96124