File: XRD/Ni3Fe_FD0278.xy
TT I
1.27165 8.27713
1.31627 7.00855
1.36089 7.00356
1.40551 5.80608
1.45013 6.48277
1.49476 6.37873
1.53938 5.91747
1.584 5.64994
1.62863 5.29062
1.67325 5.53783
1.71787 4.99752
1.7625 5.04976
1.80712 5.56285
1.85174 5.06977
1.89636 5.16986
1.94099 5.02407
1.98562 5.15502
2.03025 4.86193
2.07487 4.97075
2.11949 4.86593
2.16411 4.86721
2.20874 13.642
2.25338 23.2533
2.298 6.9016
2.34263 5.51983
2.38725 5.30032
2.43188 5.60272
2.4765 5.39642
2.52115 5.98693
2.56577 6.40313
2.6104 7.16668
2.65503 6.77884
2.69965 6.58097
2.7443 7.3909
2.78893 7.4533
2.83356 7.55623
2.87818 7.85808
2.92281 9.44855
2.96744 9.06564
3.01209 10.3271
3.05672 11.0899
3.10135 12.0477
3.14599 13.0764
3.19062 14.2044
3.23527 14.9762
3.2799 16.0887
3.32454 16.8969
3.36917 18.0513
3.4138 19.0408
3.45844 19.6199
3.50309 21.2942
3.54773 22.2123
3.59237 24.4178
3.637 94.7516
3.68164 61.7241
3.7263 26.9259
3.77094 26.5284
3.81558 27.5673
3.86022 28.2125
3.90486 29.6157
3.9495 30.43
3.99416 31.8405
4.0388 32.8022
4.08344 34.7972
4.12809 35.649
4.17273 38.4225
4.21738 45.0704
4.26204 254.799
4.30669 231.308
4.35133 50.5626
4.39598 46.0527
4.44063 55.5631
4.4853 67.6485
4.52995 53.6515
4.5746 53.4511
4.61925 54.8228
4.6639 57.8509
4.70855 60.2806
4.75322 63.4735
4.79788 66.7113
4.84253 69.9412
4.88719 74.4773
4.93184 78.1513
4.97652 84.4764
5.02118 92.0166
5.06583 100.904
5.11049 115.775
5.15515 197.448
5.19981 517.823
5.24449 3287.38
5.28916 10839.2
5.33382 4188.29
5.37848 269.187
5.42315 148.016
5.46783 125.84
5.5125 114.782
5.55716 108.527
5.60183 104.599
5.6465 102.105
5.69117 99.8929
5.73586 96.9418
5.78053 98.1708
5.8252 97.8794
5.86988 98.9717
5.91455 102.16
5.95924 114.742
6.00392 266.748
6.0486 1140.16
6.09328 3675.45
6.13795 3731.46
6.18263 383.925
6.22733 107.398
6.27201 89.865
6.3167 108.188
6.36138 85.2353
6.40606 72.9225
6.45075 70.4493
6.49545 68.3797
6.54014 66.2187
6.58483 65.3592
6.62952 65.1853
6.67421 95.8448
6.71892 151.267
6.76361 71.9362
6.8083 61.1821
6.853 59.9945
6.89769 59.3394
6.94239 58.6318
6.98711 57.7538
7.03181 57.498
7.07651 57.4181
7.12121 57.4369
7.16591 57.6564
7.21063 57.9869
7.25533 71.9165
7.30004 187.168
7.34475 97.6417
7.38945 58.6956
7.43416 56.5121
7.47889 56.1303
7.5236 56.3862
7.56831 57.8733
7.61303 59.4303
7.65774 59.2215
7.70247 58.3514
7.74719 58.2919
7.79191 58.8644
7.83663 59.3507
7.88135 60.2564
7.92607 60.9356
7.97081 61.6964
8.01553 63.5119
8.06026 65.3981
8.10498 66.3382
8.14971 76.3022
8.19446 75.5511
8.23919 72.4695
8.28392 74.5712
8.32865 77.2786
8.37339 81.9623
8.41812 89.8285
8.46288 122.126
8.50761 193.811
8.55235 466.144
8.59709 1056.68
8.64183 2054.42
8.68658 1262.93
8.73134 231.506
8.77609 109.397
8.82083 98.7148
8.86558 95.1546
8.91033 94.6043
8.9551 96.0067
8.99985 89.4385
9.04461 86.9932
9.08936 86.3927
9.13412 85.6386
9.17888 85.1599
9.22365 85.8872
9.26841 85.0579
9.31318 86.0706
9.35794 86.1767
9.4027 86.5283
9.44749 87.2637
9.49226 87.8993
9.53703 88.9821
9.5818 91.1858
9.62657 95.629
9.67134 102.831
9.71614 97.2685
9.76091 97.9479
9.80569 100.337
9.85047 104.284
9.89525 129.238
9.94005 145.849
9.98484 203.263
10.0296 410.548
10.0744 755.606
10.1192 1481.85
10.164 1753.75
10.2088 595.551
10.2536 153.657
10.2984 121.044
10.3432 121.164
10.388 110.591
10.4328 128.662
10.4776 179.163
10.5224 267.209
10.5672 454.796
10.612 540.322
10.6568 262.887
10.7017 108.455
10.7465 91.4835
10.7913 86.8826
10.8361 84.3328
10.8809 82.5719
10.9257 81.4039
10.9706 82.6948
11.0154 78.2124
11.0602 75.5686
11.105 75.0335
11.1499 78.9583
11.1947 87.0929
11.2395 77.6385
11.2844 73.2666
11.3292 69.9509
11.374 68.8465
11.4189 68.3794
11.4637 67.4417
11.5086 68.1429
11.5534 71.0797
11.5983 68.1955
11.6431 66.2213
11.688 65.3625
11.7328 65.4212
11.7777 65.7444
11.8225 64.9547
11.8674 64.8477
11.9122 65.4293
11.9571 65.4986
12.002 66.5637
12.0468 71.7541
12.0917 86.3657
12.1366 104.498
12.1814 140.524
12.2263 195.097
12.2712 191.932
12.3161 116.656
12.3609 75.9149
12.4058 67.6562
12.4507 67.0753
12.4956 67.2745
12.5405 67.077
12.5853 68.1978
12.6302 75.7465
12.6751 82.2301
12.72 72.9772
12.7649 70.3873
12.8098 71.0839
12.8547 72.5014
12.8996 73.8092
12.9445 75.1506
12.9894 76.8599
13.0343 78.8376
13.0792 82.2565
13.1242 93.4884
13.1691 124.084
13.214 159.823
13.2589 220.811
13.3038 327.129
13.3487 431.77
13.3937 325.033
13.4386 152.021
13.4835 115.637
13.5285 134.606
13.5734 162.819
13.6183 222.553
13.6633 317.648
13.7082 362.168
13.7531 237.839
13.7981 114.632
13.843 86.2536
13.888 83.4238
13.9329 80.4391
13.9779 79.008
14.0228 77.2598
14.0678 76.0235
14.1127 75.5537
14.1577 75.492
14.2027 74.6819
14.2476 73.2996
14.2926 73.5167
14.3376 74.5227
14.3825 73.1848
14.4275 71.5477
14.4725 71.3874
14.5175 71.558
14.5624 71.7683
14.6074 73.9557
14.6524 74.5015
14.6974 73.0873
14.7424 75.4326
14.7874 84.0288
14.8324 96.9982
14.8774 113.005
14.9224 143.04
14.9674 189.962
15.0124 220.595
15.0574 174.605
15.1024 106.716
15.1474 77.3752
15.1924 73.6924
15.2374 74.1319
15.2824 73.2685
15.3274 71.0303
15.3725 69.5628
15.4175 69.0639
15.4625 68.6555
15.5076 68.9788
15.5526 69.1083
15.5976 68.5188
15.6426 69.9596
15.6877 76.8196
15.7327 87.0386
15.7778 98.1644
15.8228 119.25
15.8679 154.95
15.9129 190.364
15.958 177.889
16.003 116.502
16.0481 74.9544
16.0931 68.4215
16.1382 65.8021
16.1833 63.362
16.2283 61.5683
16.2734 60.8062
16.3185 61.1306
16.3636 61.7878
16.4086 60.4428
16.4537 58.5458
16.4988 57.7438
16.5439 57.6362
16.589 57.6512
16.6341 57.0548
16.6792 56.7517
16.7243 57.0867
16.7694 57.4413
16.8145 57.0973
16.8596 57.4726
16.9047 59.2099
16.9498 59.2577
16.9949 58.0066
17.04 58.1526
17.0851 59.628
17.1302 61.7553
17.1754 64.4791
17.2205 67.7546
17.2656 73.6562
17.3108 81.8457
17.3559 85.5538
17.401 77.9648
17.4462 67.1123
17.4913 62.1547
17.5365 61.5762
17.5815 61.8509
17.6268 61.9736
17.6718 62.9006
17.7171 63.3523
17.7622 63.8376
17.8074 64.4408
17.8525 67.0745
17.8977 72.5293
17.9428 78.8417
17.9881 85.0626
18.0331 96.6953
18.0784 114.676
18.1237 136.717
18.1688 141.931
18.214 118.531
18.2591 93.4915
18.3044 90.0011
18.3495 97.777
18.3948 107.416
18.4399 104.454
18.4852 86.3482
18.5303 70.9384
18.5756 65.2764
18.6207 64.0183
18.666 63.3172
18.7112 62.4156
18.7565 61.3155
18.8016 61.1947
18.8469 60.292
18.892 60.2048
18.9374 59.6866
18.9825 59.4891
19.0278 59.4237
19.073 59.4463
19.1183 60.1546
19.1635 61.27
19.2088 62.3309
19.254 63.8512
19.2993 66.9934
19.3447 72.1639
19.3898 77.6487
19.4352 77.2467
19.4804 68.961
19.5257 60.7485
19.5709 56.9214
19.6163 56.3442
19.6615 55.9141
19.7068 55.6671
19.752 55.5004
19.7974 55.8143
19.8426 56.7788
19.888 57.7127
19.9332 58.786
19.9786 60.4734
20.0238 62.8718
20.0692 67.5683
20.1144 71.4784
20.1598 72.4652
20.205 67.6441
20.2504 64.4097
20.2957 64.8825
20.3411 66.9331
20.3863 67.5561
20.4318 62.6458
20.477 57.4246
20.5224 54.242
20.5677 53.241
20.6131 52.408
20.6586 51.9122
20.7038 51.6305
20.7493 51.123
20.7945 50.9952
20.84 50.8396
20.8853 50.8627
20.9307 50.6925
20.976 50.7161
21.0215 50.8254
21.0668 51.1906
21.1122 51.3828
21.1575 51.839
21.203 52.5262
21.2483 53.252
21.2938 53.7172
21.3391 52.6375
21.3846 51.3932
21.4299 50.5953
21.4754 50.6341
21.5207 50.5082
21.5662 50.7813
21.6116 51.4074
21.6571 52.269
21.7024 53.3366
21.7479 54.5657
21.7933 56.5637
21.8388 59.4472
21.8843 63.0839
21.9297 66.3858
21.9752 67.0549
22.0206 63.6562
22.0661 59.2778
22.1115 57.6798
22.157 58.0795
22.2024 57.391
22.248 54.6476
22.2933 52.3791
22.3389 51.2749
22.3843 51.2117
22.4299 50.965
22.4753 50.9338
22.5208 50.8062
22.5662 50.4411
22.6118 50.5551
22.6572 50.8993
22.7028 51.5662
22.7483 51.8733
22.7939 52.3179
22.8393 53.6056
22.8849 55.1418
22.9303 56.9999
22.9759 59.1876
23.0214 60.0699
23.067 58.1322
23.1126 54.3897
23.1581 51.6761
23.2037 50.879
23.2492 50.9033
23.2948 50.9728
23.3403 51.5039
23.3859 51.8945
23.4314 52.4517
23.477 53.8364
23.5225 55.4949
23.5682 57.91
23.6137 59.5042
23.6593 58.8439
23.7048 55.268
23.7505 51.3513
23.796 49.0498
23.8417 48.0891
23.8872 47.5771
23.9329 47.1843
23.9784 46.815
24.0241 46.3588
24.0697 46.2563
24.1154 46.0102
24.1609 45.9369
24.2066 45.7381
24.2522 45.6825
24.2979 45.2868
24.3434 45.0542
24.3892 45.0398
24.4349 44.7595
24.4805 44.4387
24.5262 44.8353
24.5718 44.7188
24.6175 44.6076
24.6631 44.5218
24.7089 44.3182
24.7545 44.0813
24.8002 43.8558
24.8458 44.0709
24.8916 43.7832
24.9372 44.0
24.983 44.227
25.0286 44.4629
25.0744 44.8216
25.12 45.4826
25.1658 45.8027
25.2114 46.1215
25.2572 46.4119
25.3029 46.4858
25.3487 46.5623
25.3943 46.6023
25.4402 45.7315
25.4858 44.8041
25.5316 43.3935
25.5773 42.6209
25.6231 42.6005
25.669 42.0713
25.7147 42.2429
25.7605 42.0997
25.8062 42.2473
25.8521 42.2768
25.8977 42.1613
25.9436 42.3961
25.9893 42.5211
26.0352 42.938
26.0809 42.8354
26.1268 43.3347
26.1725 43.1015
26.2184 42.6795
26.2641 42.232
26.31 41.8499
26.3557 41.97
26.4017 41.86
26.4474 42.0314
26.4933 42.4294
26.5391 42.6671
26.585 42.9383
26.6308 43.4802
26.6767 43.7507
26.7225 43.8549
26.7684 43.3133
26.8142 42.7492
26.8601 42.1578
26.9059 41.9345
26.9519 41.2248
26.9979 40.9237
27.0437 40.5384
27.0896 40.385
27.1354 40.293
27.1814 40.1794
27.2272 40.194
27.2732 40.1847
27.3191 39.9704
27.3651 39.9794
27.4109 39.8859
27.4569 40.0469
27.5027 40.135
27.5488 40.189
27.5946 39.8763
27.6407 39.7627
27.6865 39.8526
27.7326 39.4019
27.7784 39.5304
27.8245 39.4384
27.8703 39.5441
27.9164 39.7413
27.9623 39.765
28.0084 40.1417
28.0543 40.4395
28.1003 40.4822
28.1462 40.4231
28.1923 40.2213
28.2384 39.5852
28.2843 39.2586
28.3304 38.8547
28.3764 38.32
28.4225 38.0469
28.4684 37.8801
28.5145 37.4143
28.5605 37.3183
28.6066 37.1541
28.6526 37.1265
28.6987 37.1711
28.7447 36.9195
28.7908 36.8248
28.8368 36.8151
28.8829 36.7322
28.9289 36.795
28.9751 36.5686
29.0211 36.3938
29.0673 36.0336
29.1133 36.0454
29.1595 35.8433
29.2055 35.8679
29.2517 35.7174
29.2977 35.712
29.3439 35.4937
29.3899 35.6577
29.4361 35.5102
29.4824 35.4142
29.5284 35.2077
29.5746 34.8874
29.6207 34.5934
29.6669 34.5117
29.713 34.3897
29.7593 34.2266
29.8053 34.2408
29.8516 34.1392
29.8977 34.1093
29.9439 34.011
29.99 33.949
30.0363 33.8173
30.0824 33.89
30.1287 33.7636
30.1748 33.7004
30.2211 33.6987
30.2673 33.5325
30.3136 33.7998
30.3597 33.5394
30.406 33.6764
30.4522 33.3854
30.4985 33.4332
30.5447 33.4603
30.591 33.3264
30.6372 33.4643
30.6835 33.5099
30.7297 33.4085
30.7761 33.5463
30.8224 33.3168
30.8686 33.2091
30.915 33.0211
30.9612 32.8322
31.0076 32.5843
31.0538 32.5287
31.1002 32.4771
31.1464 32.2178
31.1928 32.2625
31.2391 32.1868
31.2855 32.1706
31.3317 32.0811
31.3781 32.1945
31.4244 32.0907
31.4708 32.0926
31.5171 32.0098
31.5636 32.0839
31.6098 31.8265
31.6563 31.6942
31.7026 31.4565
31.7491 31.3545
31.7953 31.4065
31.8418 31.3789
31.8881 31.3885
31.9346 31.311
31.9809 31.2618
32.0275 31.1437
32.074 30.9808
32.1203 30.8811
32.1668 30.8527
32.2132 30.6509
32.2597 30.5159
32.306 30.4102
32.3526 30.1131
32.399 30.2352
32.4455 29.995
32.4919 29.8692
32.5385 29.8259
32.5848 29.683
32.6314 29.6574
32.6778 29.5927
32.7244 29.4121
32.7708 29.3235
32.8174 29.3164
32.8638 29.2358
32.9104 29.0995
32.9569 29.1648
33.0035 29.0213
33.0499 29.0804
33.0966 28.95
33.143 28.8823
33.1897 28.8558
33.2361 28.6895
33.2828 28.7669
33.3293 28.5476
33.3759 28.5905
33.4226 28.4646
33.4691 28.197
33.5158 28.0986
33.5623 28.058
33.609 27.8899
33.6555 27.792
33.7022 27.7739
33.7487 27.6112
33.7954 27.5086
33.842 27.47
33.8887 27.4467
33.9353 27.3709
33.982 27.2083
34.0286 27.1141
34.0753 27.0929
34.1219 26.9682
34.1687 26.9259
34.2152 26.834
34.262 26.727
34.3086 26.5535
34.3554 26.6205
34.402 26.4856
34.4488 26.3165
34.4954 26.2769
34.5422 26.2131
34.5889 26.1775
34.6357 25.9764
34.6825 25.9075
34.7292 25.7465
34.776 25.7131
34.8227 25.7482
34.8695 25.6797
34.9162 25.53
34.9631 25.4138
35.0098 25.4876
35.0566 25.3585
35.1033 25.3657
35.1502 25.2532
35.1969 25.1825
35.2438 25.1616
35.2906 25.1132
35.3375 25.0141
35.3842 24.9642
35.4311 24.9203
35.4779 24.903
35.5248 24.9154
35.5716 24.7619
35.6185 24.6675
35.6653 24.5697
35.7123 24.5298
35.759 24.3953
35.806 24.3094
35.8528 24.1967
35.8998 24.1655
35.9468 24.105
35.9936 24.0113
36.0406 23.9678
36.0874 23.928
36.1345 23.8045
36.1813 23.769
36.2283 23.6669
36.2752 23.5426
36.3222 23.6308
36.3691 23.5409
36.4161 23.3284
36.463 23.4371
36.5101 23.3389
36.557 23.2932
36.6041 23.0253
36.651 23.0968
36.6981 23.0733
36.745 22.9365
36.7921 22.8768
36.839 22.7935
36.8861 22.7433
36.9331 22.6544
36.9802 22.5996
37.0272 22.52
37.0743 22.3781
37.1213 22.3424
37.1684 22.2897
37.2154 22.2585
37.2626 22.1689
37.3098 22.0744
37.3568 22.0431
37.404 21.9879
37.451 21.8544
37.4982 21.818
37.5452 21.7408
37.5924 21.6471
37.6395 21.6439
37.6867 21.6691
37.7337 21.4355
37.781 21.3745
37.8281 21.3407
37.8753 21.1918
37.9224 21.1919
37.9697 21.179
38.0168 21.0462
38.064 20.9667
38.1111 20.9047
38.1584 20.8567
38.2056 20.7836
38.2529 20.7608
38.3 20.6215
38.3473 20.6607
38.3945 20.4832
38.4418 20.5486
38.489 20.4305
38.5363 20.3003
38.5837 20.2607
38.6309 20.1239
38.6782 20.1138
38.7254 20.0713
38.7728 20.0375
38.82 19.9554
38.8674 19.9239
38.9146 19.7688
38.9621 19.7119
39.0093 19.7812
39.0567 19.6278
39.104 19.5794
39.1514 19.503
39.1987 19.4481
39.2461 19.3986
39.2934 19.374
39.3409 19.2117
39.3882 19.2009
39.4356 19.0967
39.483 19.0151
39.5304 19.0359
39.5778 18.958
39.6253 18.9154
39.6726 18.8472
39.7201 18.8065
39.7675 18.7254
39.815 18.6334
39.8624 18.6019
39.9099 18.6243
39.9575 18.426
40.0049 18.4467
40.0525 18.3581
40.0999 18.2845
40.1474 18.2278
40.1949 18.1966
40.2425 18.0963
40.2899 18.0793
40.3375 18.0114
40.385 17.9537
40.4326 17.878
40.48 17.7863
40.5277 17.814
40.5752 17.7711
40.6228 17.6633
40.6703 17.5966
40.718 17.6299
40.7655 17.5256
40.8132 17.4644
40.8607 17.4284
40.9084 17.3819
40.9559 17.3594
41.0036 17.2781
41.0512 17.1745
41.0989 17.1114
41.1465 17.0483
41.1942 17.0993
41.242 16.9822
41.2896 16.899
41.3373 16.8339
41.3849 16.7976
41.4327 16.7601
41.4803 16.6544
41.5281 16.6026
41.5758 16.5864
41.6236 16.5149
41.6712 16.449
41.7191 16.3853
41.7667 16.3492
41.8146 16.3259
41.8622 16.1974
41.9101 16.1759
41.9578 16.0614
42.0057 16.0478
42.0534 16.0261
42.1013 15.9961
42.149 15.8888
42.1969 15.8945
42.2446 15.7862
42.2925 15.7721
42.3403 15.689
42.3882 15.6762
42.436 15.552
42.4839 15.4796
42.5319 15.4516
42.5797 15.4321
42.6277 15.3545
42.6755 15.3495
42.7235 15.2831
42.7713 15.2726
42.8193 15.1671
42.8671 15.0729
42.9152 15.0858
42.963 15.02
43.0111 14.947
43.0589 14.9011
43.107 14.8527
43.1549 14.8301
43.2029 14.7028
43.2508 14.6924
43.2989 14.6427
43.3468 14.5787
43.3949 14.5417
43.4429 14.4626
43.491 14.4693
43.5389 14.4355
43.5871 14.3462
43.635 14.3339
43.6832 14.2974
43.7312 14.1305
43.7793 14.1618
43.8273 14.1155
43.8755 14.0345
43.9237 14.0305
43.9717 13.9838
44.0199 13.9373
44.068 13.8729
44.1162 13.7403
44.1642 13.7862
44.2125 13.7139
44.2606 13.7035
44.3088 13.599
44.3569 13.5619
44.4052 13.524
44.4533 13.51
44.5016 13.4047
44.5497 13.4131
44.598 13.3094
44.6461 13.2836
44.6945 13.2504
44.7426 13.1842
44.791 13.1483
44.8391 13.1577
44.8875 13.0779
44.9357 12.9727
44.984 12.9333
45.0322 12.8742
45.0806 12.8079
45.1288 12.8839
45.1773 12.7589
45.2257 12.7429
45.2739 12.6625
45.3224 12.6687
45.3706 12.638
45.4191 12.5106
45.4673 12.5044
45.5158 12.4836
45.5641 12.4387
45.6126 12.3957
45.6609 12.3019
45.7094 12.2811
45.7577 12.1969
45.8063 12.1623
45.8546 12.2003
45.9031 12.1228
45.9515 12.0156
46.0001 12.0374
46.0484 11.9728
46.097 11.967
46.1454 11.9171
46.194 11.8879
46.2424 11.8306
46.291 11.7929
46.3395 11.7341
46.3881 11.6876
46.4365 11.6627
46.4852 11.6272
46.5337 11.5278
46.5823 11.5329
46.631 11.4329
46.6795 11.4619
46.7282 11.4096
46.7767 11.4069
46.8254 11.2807
46.8739 11.2562
46.9226 11.2286
46.9712 11.1733
47.0199 11.1643
47.0685 11.1064
47.1173 11.0606
47.1658 11.0286
47.2146 10.9985
47.2632 10.9415
47.312 10.8934
47.3606 10.8617
47.4095 10.8005
47.4581 10.7995
47.5069 10.6893
47.5556 10.6712
47.6044 10.6392
47.6531 10.5911
47.702 10.5537
47.7507 10.5334
47.7996 10.4571
47.8483 10.4592
47.8972 10.4034
47.9461 10.4106
47.9948 10.3452
48.0438 10.3212
48.0925 10.2665
48.1415 10.2696
48.1902 10.1858
48.2392 10.1981
48.288 10.1211
48.337 10.1229
48.3858 10.0342
48.4348 10.0065
48.4837 9.97768
48.5327 10.0109
48.5815 9.89269
48.6306 9.89655
48.6795 9.85043
48.7285 9.79888
48.7774 9.7633
48.8265 9.73943
48.8754 9.68534
48.9245 9.69085
48.9734 9.60093
49.0226 9.59928
49.0715 9.52926
49.1206 9.52228
49.1696 9.43653
49.2188 9.41967
49.2679 9.39723
49.3169 9.35456
49.3661 9.35084
49.4151 9.31264
49.4643 9.30234
49.5134 9.22274
49.5626 9.189
49.6117 9.13362
49.6609 9.13861
49.71 9.10205
49.7592 9.07805
49.8083 9.0262
49.8576 8.98393
49.9067 8.96872
49.956 8.90679
50.0052 8.8704
50.0545 8.83796
50.1036 8.82449
50.153 8.76482
50.2022 8.7433
50.2515 8.72034
50.3007 8.65615
50.3501 8.63033
50.3993 8.60839
50.4487 8.56527
50.498 8.53482
50.5474 8.53235
50.5966 8.49287
50.6461 8.44611
50.6955 8.38869
50.7448 8.36205
50.7943 8.34474
50.8436 8.32705
50.8931 8.2768
50.9424 8.27344
50.9919 8.22994
51.0413 8.18299
51.0908 8.1343
51.1402 8.12914
51.1897 8.05074
51.2391 8.05066
51.2887 8.0022
51.3381 7.96898
51.3877 7.98354
51.4371 7.91349
51.4867 7.87972
51.5362 7.85726
51.5858 7.82399
51.6353 7.80638
51.6849 7.77558
51.7344 7.70939
51.7841 7.74521
51.8336 7.69135
51.8833 7.61793
51.9328 7.5956
51.9826 7.54063
52.0323 7.56074
52.0818 7.48195
52.1316 7.47362
52.1812 7.4737
52.231 7.42282
52.2806 7.36237
52.3304 7.37394
52.38 7.33056
52.4298 7.26526
52.4794 7.28434
52.5293 7.23502
52.5789 7.21137
52.6288 7.15501
52.6785 7.15453
52.7284 7.11551
52.7781 7.091
52.828 7.05961
52.8777 7.00657
52.9276 6.96599
52.9774 6.97319
53.0273 6.9468
53.0771 6.89407
53.1271 6.88502
53.1769 6.86063
53.2269 6.8222
53.2767 6.79192
53.3267 6.75615
53.3765 6.74645
53.4266 6.67945
53.4766 6.6437
53.5265 6.63615
53.5765 6.61455
53.6264 6.58992
53.6765 6.55753
53.7264 6.49622
53.7765 6.509
53.8265 6.47121
53.8766 6.4118
53.9266 6.41582
53.9767 6.36461
54.0267 6.34307
54.0769 6.31138
54.1269 6.30637
54.1771 6.28703
54.2271 6.25673
54.2773 6.17857
54.3274 6.20048
54.3776 6.10778
54.4277 6.11667
54.478 6.05886
54.528 6.02412
54.5783 5.9731
54.6285 5.97356
54.6788 5.90342
54.7289 5.86672
54.7792 5.78667
54.8296 5.73613
54.8798 5.71798
54.9301 5.70851
54.9803 5.69423
55.0307 5.65702
55.0809 5.58125
55.1314 5.58498
55.1816 5.49631
55.232 5.4581
55.2823 5.3619
55.3328 5.28908
55.383 5.24586
55.4335 5.23591
55.4838 5.14399
55.5344 5.14498
55.5847 5.03258
55.6352 5.13092
55.6856 5.03015
55.7361 5.01309