File: XRD/Ni3Fe_FD0198.xy
TT I
1.27165 8.28789
1.31627 7.40165
1.36089 6.45635
1.40551 7.05884
1.45013 6.27829
1.49476 6.86607
1.53938 6.48686
1.584 5.51245
1.62863 5.52425
1.67325 5.42149
1.71787 5.75474
1.7625 5.24374
1.80712 5.17176
1.85174 5.13599
1.89636 5.4687
1.94099 5.33964
1.98562 4.99034
2.03025 4.89671
2.07487 5.13885
2.11949 5.33622
2.16411 4.24894
2.20874 4.61253
2.25338 5.26818
2.298 4.12843
2.34263 4.03281
2.38725 4.53527
2.43188 4.68667
2.4765 4.80513
2.52115 4.64543
2.56577 4.56306
2.6104 5.6669
2.65503 5.45278
2.69965 6.01088
2.7443 5.72687
2.78893 6.44855
2.83356 7.27569
2.87818 7.92241
2.92281 8.49672
2.96744 8.95919
3.01209 10.5046
3.05672 10.8085
3.10135 12.3196
3.14599 12.7261
3.19062 14.1771
3.23527 15.244
3.2799 15.8399
3.32454 17.4736
3.36917 17.8494
3.4138 18.9468
3.45844 19.8197
3.50309 21.1971
3.54773 21.6438
3.59237 22.6078
3.637 23.501
3.68164 24.0536
3.7263 25.5092
3.77094 25.7684
3.81558 26.6416
3.86022 27.5178
3.90486 29.2541
3.9495 30.2645
3.99416 31.6903
4.0388 32.6786
4.08344 34.0978
4.12809 34.8823
4.17273 36.5853
4.21738 38.5278
4.26204 39.0841
4.30669 40.8109
4.35133 42.7655
4.39598 44.4341
4.44063 46.7646
4.4853 48.328
4.52995 51.3525
4.5746 53.1446
4.61925 55.9533
4.6639 58.0616
4.70855 61.0308
4.75322 64.1577
4.79788 67.457
4.84253 71.7943
4.88719 76.3586
4.93184 81.6973
4.97652 89.0197
5.02118 97.458
5.06583 108.744
5.11049 125.86
5.15515 169.45
5.19981 860.457
5.24449 3976.49
5.28916 10120.6
5.33382 4824.52
5.37848 303.599
5.42315 158.399
5.46783 130.849
5.5125 118.941
5.55716 113.192
5.60183 107.758
5.6465 105.795
5.69117 104.154
5.73586 101.812
5.78053 101.387
5.8252 101.71
5.86988 104.787
5.91455 112.207
5.95924 135.369
6.00392 429.165
6.0486 1450.53
6.09328 3421.29
6.13795 3905.88
6.18263 415.446
6.22733 113.533
6.27201 90.5308
6.3167 81.9733
6.36138 76.6218
6.40606 72.9464
6.45075 70.6804
6.49545 68.9276
6.54014 66.7647
6.58483 65.2622
6.62952 64.1073
6.67421 62.9881
6.71892 61.929
6.76361 60.8451
6.8083 60.1199
6.853 58.9715
6.89769 58.4482
6.94239 58.2259
6.98711 56.9861
7.03181 57.1006
7.07651 56.9393
7.12121 56.8244
7.16591 56.3759
7.21063 56.1734
7.25533 55.9826
7.30004 55.9379
7.34475 56.0039
7.38945 56.1822
7.43416 55.4114
7.47889 55.8076
7.5236 57.8159
7.56831 61.1907
7.61303 57.9117
7.65774 57.7638
7.70247 57.8663
7.74719 58.3128
7.79191 59.1449
7.83663 59.3378
7.88135 60.5305
7.92607 61.3604
7.97081 62.7802
8.01553 63.8357
8.06026 65.2728
8.10498 66.7825
8.14971 68.7359
8.19446 70.5103
8.23919 73.3568
8.28392 76.3854
8.32865 79.6365
8.37339 84.9839
8.41812 90.956
8.46288 108.09
8.50761 278.758
8.55235 605.815
8.59709 1015.05
8.64183 1901.07
8.68658 1304.45
8.73134 242.53
8.77609 113.176
8.82083 101.033
8.86558 96.2293
8.91033 93.5053
8.9551 90.9562
8.99985 89.7654
9.04461 88.7908
9.08936 88.1451
9.13412 87.1933
9.17888 87.4656
9.22365 90.5496
9.26841 93.5219
9.31318 89.1951
9.35794 88.3929
9.4027 88.4348
9.44749 89.4801
9.49226 90.0464
9.53703 91.3594
9.5818 92.7641
9.62657 94.044
9.67134 95.7483
9.71614 98.2315
9.76091 100.29
9.80569 103.144
9.85047 107.256
9.89525 112.951
9.94005 131.154
9.98484 294.078
10.0296 539.317
10.0744 773.938
10.1192 1356.34
10.164 1755.75
10.2088 647.19
10.2536 158.37
10.2984 118.965
10.3432 113.955
10.388 113.624
10.4328 157.326
10.4776 218.95
10.5224 274.75
10.5672 421.798
10.612 535.906
10.6568 280.655
10.7017 112.719
10.7465 93.6158
10.7913 88.6327
10.8361 85.5668
10.8809 83.2375
10.9257 81.0402
10.9706 79.5517
11.0154 77.9173
11.0602 76.2605
11.105 74.982
11.1499 73.7624
11.1947 72.2665
11.2395 71.6263
11.2844 70.947
11.3292 69.9917
11.374 69.0938
11.4189 68.5382
11.4637 67.7054
11.5086 67.1839
11.5534 66.9435
11.5983 66.7626
11.6431 66.5639
11.688 65.8302
11.7328 65.8122
11.7777 65.6635
11.8225 65.4618
11.8674 65.6547
11.9122 66.3161
11.9571 67.6164
12.002 69.0507
12.0468 79.2683
12.0917 96.2339
12.1366 108.326
12.1814 134.548
12.2263 184.204
12.2712 189.336
12.3161 108.988
12.3609 71.4369
12.4058 67.4811
12.4507 67.5176
12.4956 67.6182
12.5405 67.6652
12.5853 68.0381
12.6302 68.3
12.6751 69.0068
12.72 70.1335
12.7649 70.8575
12.8098 72.1107
12.8547 73.3443
12.8996 74.835
12.9445 76.2856
12.9894 78.596
13.0343 80.9917
13.0792 85.7396
13.1242 107.196
13.1691 151.963
13.214 177.481
13.2589 221.109
13.3038 303.668
13.3487 409.597
13.3937 326.291
13.4386 158.001
13.4835 134.425
13.5285 158.463
13.5734 174.625
13.6183 217.807
13.6633 296.678
13.7082 361.237
13.7531 243.098
13.7981 117.729
13.843 88.1537
13.888 84.4133
13.9329 81.9095
13.9779 80.417
14.0228 79.114
14.0678 77.4132
14.1127 77.0146
14.1577 76.8403
14.2027 75.6995
14.2476 74.412
14.2926 73.5797
14.3376 73.6442
14.3825 72.9624
14.4275 72.5291
14.4725 72.7717
14.5175 72.9054
14.5624 72.9959
14.6074 73.0252
14.6524 73.4981
14.6974 74.9005
14.7424 79.4808
14.7874 95.8567
14.8324 109.109
14.8774 118.618
14.9224 140.521
14.9674 176.474
15.0124 217.151
15.0574 181.356
15.1024 108.834
15.1474 78.4604
15.1924 74.3552
15.2374 72.58
15.2824 71.5974
15.3274 70.9028
15.3725 70.2783
15.4175 70.0652
15.4625 69.8059
15.5076 69.582
15.5526 69.5533
15.5976 69.9328
15.6426 73.4741
15.6877 86.7333
15.7327 97.211
15.7778 103.611
15.8228 119.275
15.8679 146.07
15.9129 182.385
15.958 179.763
16.003 119.472
16.0481 75.6267
16.0931 66.7401
16.1382 64.2888
16.1833 63.3253
16.2283 61.9735
16.2734 61.1352
16.3185 60.6464
16.3636 59.7852
16.4086 59.1116
16.4537 58.7238
16.4988 58.3341
16.5439 57.9723
16.589 57.8257
16.6341 57.65
16.6792 57.3512
16.7243 57.4216
16.7694 57.3475
16.8145 57.318
16.8596 57.5457
16.9047 57.7552
16.9498 58.0097
16.9949 58.2079
17.04 59.1416
17.0851 61.9988
17.1302 64.2581
17.1754 65.9162
17.2205 68.8654
17.2656 72.7429
17.3108 80.1824
17.3559 85.0897
17.401 79.3203
17.4462 68.0185
17.4913 62.7677
17.5365 62.1948
17.5815 62.2969
17.6268 62.8079
17.6718 63.3493
17.7171 63.6036
17.7622 64.8638
17.8074 65.9907
17.8525 71.4574
17.8977 79.0713
17.9428 84.2122
17.9881 87.8973
18.0331 97.2876
18.0784 111.047
18.1237 134.57
18.1688 145.945
18.214 124.047
18.2591 96.1595
18.3044 89.5551
18.3495 94.9688
18.3948 104.761
18.4399 103.738
18.4852 86.4169
18.5303 71.527
18.5756 65.9767
18.6207 64.8809
18.666 63.75
18.7112 62.8812
18.7565 62.3115
18.8016 61.9304
18.8469 61.1532
18.892 60.9993
18.9374 60.2597
18.9825 59.9114
19.0278 59.7348
19.073 60.1003
19.1183 61.4073
19.1635 62.5294
19.2088 63.3701
19.254 64.6287
19.2993 66.968
19.3447 70.6213
19.3898 75.1316
19.4352 76.8088
19.4804 69.6355
19.5257 61.6616
19.5709 57.6547
19.6163 56.7342
19.6615 56.6338
19.7068 56.1508
19.752 56.1844
19.7974 56.9668
19.8426 58.4632
19.888 59.1774
19.9332 59.68
19.9786 61.3235
20.0238 63.4631
20.0692 67.7671
20.1144 72.0781
20.1598 73.6076
20.205 68.939
20.2504 64.8959
20.2957 64.0694
20.3411 66.3315
20.3863 67.6686
20.4318 63.7112
20.477 57.5343
20.5224 54.0649
20.5677 53.1853
20.6131 52.6093
20.6586 52.3153
20.7038 52.0886
20.7493 51.7376
20.7945 51.5797
20.84 51.3761
20.8853 51.4084
20.9307 51.2152
20.976 51.6429
21.0215 51.5047
21.0668 51.4994
21.1122 51.9084
21.1575 52.2033
21.203 52.4983
21.2483 53.3424
21.2938 54.0444
21.3391 53.1401
21.3846 52.1763
21.4299 51.1234
21.4754 50.9559
21.5207 51.1795
21.5662 51.7208
21.6116 52.9751
21.6571 53.904
21.7024 54.7182
21.7479 55.4749
21.7933 57.0186
21.8388 59.576
21.8843 62.8559
21.9297 66.1074
21.9752 67.3493
22.0206 64.1914
22.0661 59.293
22.1115 57.5158
22.157 57.899
22.2024 57.7945
22.248 55.0392
22.2933 52.9564
22.3389 51.6761
22.3843 51.3896
22.4299 50.8314
22.4753 51.0873
22.5208 51.0953
22.5662 50.9126
22.6118 51.3855
22.6572 52.1742
22.7028 52.6659
22.7483 53.0843
22.7939 53.1879
22.8393 54.071
22.8849 55.3912
22.9303 56.5698
22.9759 58.715
23.0214 59.9376
23.067 58.6691
23.1126 55.0548
23.1581 52.4147
23.2037 51.5225
23.2492 51.8825
23.2948 52.3249
23.3403 52.5474
23.3859 52.9576
23.4314 53.0831
23.477 54.0594
23.5225 55.2692
23.5682 56.9075
23.6137 59.2685
23.6593 59.1654
23.7048 55.9061
23.7505 51.9572
23.796 49.4968
23.8417 48.4627
23.8872 47.9283
23.9329 47.4998
23.9784 47.1477
24.0241 46.8267
24.0697 46.7324
24.1154 46.2366
24.1609 46.0411
24.2066 46.0448
24.2522 45.8641
24.2979 45.5375
24.3434 45.4283
24.3892 45.2619
24.4349 45.2791
24.4805 44.993
24.5262 45.2589
24.5718 44.9082
24.6175 45.1735
24.6631 44.9304
24.7089 44.6818
24.7545 44.6076
24.8002 44.4513
24.8458 44.54
24.8916 44.292
24.9372 44.5343
24.983 44.9048
25.0286 45.1693
25.0744 45.5014
25.12 45.6053
25.1658 46.1859
25.2114 46.5322
25.2572 46.7027
25.3029 46.5473
25.3487 46.4585
25.3943 46.6017
25.4402 46.0664
25.4858 44.9567
25.5316 43.8822
25.5773 43.0909
25.6231 42.999
25.669 42.7482
25.7147 42.7452
25.7605 42.6405
25.8062 42.6311
25.8521 42.6635
25.8977 42.4991
25.9436 42.6805
25.9893 42.7056
26.0352 43.0846
26.0809 43.1184
26.1268 43.669
26.1725 43.449
26.2184 43.233
26.2641 42.6213
26.31 42.4688
26.3557 42.2818
26.4017 42.3641
26.4474 42.4836
26.4933 42.6657
26.5391 42.8339
26.585 43.118
26.6308 43.3625
26.6767 43.9279
26.7225 44.0409
26.7684 43.5638
26.8142 42.8764
26.8601 42.3238
26.9059 42.1916
26.9519 41.6082
26.9979 41.2645
27.0437 40.8911
27.0896 40.7601
27.1354 40.7945
27.1814 40.5656
27.2272 40.5699
27.2732 40.2973
27.3191 40.1574
27.3651 40.3816
27.4109 40.1735
27.4569 40.2539
27.5027 40.3087
27.5488 40.3688
27.5946 40.3267
27.6407 40.2678
27.6865 40.3146
27.7326 39.8719
27.7784 39.8033
27.8245 39.8208
27.8703 39.8639
27.9164 39.9152
27.9623 39.9199
28.0084 40.2162
28.0543 40.5468
28.1003 40.6793
28.1462 40.617
28.1923 40.3077
28.2384 39.8855
28.2843 39.5114
28.3304 39.1757
28.3764 38.702
28.4225 38.2531
28.4684 38.1086
28.5145 37.8089
28.5605 37.5809
28.6066 37.422
28.6526 37.2708
28.6987 37.2626
28.7447 37.2787
28.7908 37.022
28.8368 37.0795
28.8829 37.014
28.9289 37.0113
28.9751 36.785
29.0211 36.6649
29.0673 36.4108
29.1133 36.2726
29.1595 36.1275
29.2055 35.9684
29.2517 35.9062
29.2977 35.9157
29.3439 35.6996
29.3899 35.7651
29.4361 35.5683
29.4824 35.6927
29.5284 35.4216
29.5746 35.0979
29.6207 34.7485
29.6669 34.7125
29.713 34.5517
29.7593 34.4695
29.8053 34.4592
29.8516 34.4124
29.8977 34.3321
29.9439 34.2532
29.99 34.14
30.0363 34.018
30.0824 34.0863
30.1287 33.8621
30.1748 33.9422
30.2211 33.9238
30.2673 33.7575
30.3136 33.9618
30.3597 33.8394
30.406 33.7574
30.4522 33.7216
30.4985 33.595
30.5447 33.7024
30.591 33.5867
30.6372 33.6256
30.6835 33.5458
30.7297 33.704
30.7761 33.7015
30.8224 33.3368
30.8686 33.3653
30.915 33.1092
30.9612 33.0414
31.0076 32.7956
31.0538 32.7379
31.1002 32.6148
31.1464 32.4803
31.1928 32.5377
31.2391 32.4441
31.2855 32.307
31.3317 32.3533
31.3781 32.2835
31.4244 32.297
31.4708 32.2298
31.5171 32.2958
31.5636 32.2799
31.6098 32.04
31.6563 31.8706
31.7026 31.7106
31.7491 31.6033
31.7953 31.5669
31.8418 31.5577
31.8881 31.5392
31.9346 31.5476
31.9809 31.5259
32.0275 31.4338
32.074 31.3082
32.1203 31.1069
32.1668 31.032
32.2132 30.8687
32.2597 30.6945
32.306 30.5928
32.3526 30.4395
32.399 30.3605
32.4455 30.1556
32.4919 30.0479
32.5385 30.1025
32.5848 30.0129
32.6314 29.8674
32.6778 29.7578
32.7244 29.5752
32.7708 29.4969
32.8174 29.5344
32.8638 29.3648
32.9104 29.4725
32.9569 29.4253
33.0035 29.1702
33.0499 29.1155
33.0966 29.0675
33.143 29.1115
33.1897 28.9205
33.2361 28.8369
33.2828 28.9111
33.3293 28.7139
33.3759 28.7106
33.4226 28.5378
33.4691 28.4981
33.5158 28.3625
33.5623 28.1591
33.609 28.1396
33.6555 27.9681
33.7022 27.8263
33.7487 27.7629
33.7954 27.7668
33.842 27.6244
33.8887 27.5272
33.9353 27.4996
33.982 27.3546
34.0286 27.2676
34.0753 27.2295
34.1219 27.2061
34.1687 27.0666
34.2152 26.978
34.262 26.8003
34.3086 26.7641
34.3554 26.7768
34.402 26.6249
34.4488 26.4769
34.4954 26.5214
34.5422 26.3594
34.5889 26.1994
34.6357 26.1299
34.6825 26.1766
34.7292 25.9604
34.776 25.8974
34.8227 25.8593
34.8695 25.8207
34.9162 25.7974
34.9631 25.6752
35.0098 25.6581
35.0566 25.46
35.1033 25.4176
35.1502 25.362
35.1969 25.3785
35.2438 25.3253
35.2906 25.264
35.3375 25.1316
35.3842 25.0965
35.4311 25.0599
35.4779 25.0572
35.5248 24.9727
35.5716 24.9398
35.6185 24.7505
35.6653 24.7902
35.7123 24.7254
35.759 24.6033
35.806 24.4514
35.8528 24.3654
35.8998 24.373
35.9468 24.1184
35.9936 24.1531
36.0406 24.0855
36.0874 24.0232
36.1345 23.9918
36.1813 23.9098
36.2283 23.7482
36.2752 23.694
36.3222 23.7544
36.3691 23.6437
36.4161 23.4646
36.463 23.5031
36.5101 23.5017
36.557 23.4083
36.6041 23.2758
36.651 23.2735
36.6981 23.1728
36.745 23.0916
36.7921 23.002
36.839 22.8271
36.8861 22.8801
36.9331 22.7715
36.9802 22.6478
37.0272 22.5841
37.0743 22.5224
37.1213 22.4496
37.1684 22.4022
37.2154 22.3306
37.2626 22.2827
37.3098 22.174
37.3568 22.1256
37.404 22.0472
37.451 21.9711
37.4982 22.0045
37.5452 21.8093
37.5924 21.7929
37.6395 21.8
37.6867 21.7519
37.7337 21.5591
37.781 21.5676
37.8281 21.4763
37.8753 21.3281
37.9224 21.2953
37.9697 21.2056
38.0168 21.1976
38.064 21.1017
38.1111 21.0927
38.1584 21.0046
38.2056 20.8814
38.2529 20.8234
38.3 20.7947
38.3473 20.7402
38.3945 20.6025
38.4418 20.5632
38.489 20.484
38.5363 20.4334
38.5837 20.3227
38.6309 20.258
38.6782 20.2613
38.7254 20.1292
38.7728 20.0885
38.82 19.9793
38.8674 19.9775
38.9146 19.9163
38.9621 19.827
39.0093 19.8305
39.0567 19.7418
39.104 19.6849
39.1514 19.6088
39.1987 19.5642
39.2461 19.5033
39.2934 19.4797
39.3409 19.3304
39.3882 19.2557
39.4356 19.2062
39.483 19.1292
39.5304 19.0737
39.5778 19.0686
39.6253 18.9548
39.6726 18.9087
39.7201 18.9608
39.7675 18.8181
39.815 18.8067
39.8624 18.7224
39.9099 18.6998
39.9575 18.5825
40.0049 18.4784
40.0525 18.4561
40.0999 18.444
40.1474 18.3576
40.1949 18.3323
40.2425 18.2591
40.2899 18.1647
40.3375 18.1489
40.385 18.0697
40.4326 18.0024
40.48 17.9112
40.5277 17.8943
40.5752 17.846
40.6228 17.7354
40.6703 17.7575
40.718 17.6473
40.7655 17.6226
40.8132 17.521
40.8607 17.5804
40.9084 17.4777
40.9559 17.3906
41.0036 17.3375
41.0512 17.2758
41.0989 17.2669
41.1465 17.1515
41.1942 17.0923
41.242 17.0071
41.2896 16.992
41.3373 16.9488
41.3849 16.8454
41.4327 16.77
41.4803 16.7163
41.5281 16.6452
41.5758 16.5876
41.6236 16.5839
41.6712 16.4621
41.7191 16.4705
41.7667 16.424
41.8146 16.3944
41.8622 16.2678
41.9101 16.2666
41.9578 16.1587
42.0057 16.1186
42.0534 16.0714
42.1013 16.0782
42.149 15.9838
42.1969 15.9044
42.2446 15.8703
42.2925 15.8
42.3403 15.7669
42.3882 15.7372
42.436 15.6691
42.4839 15.603
42.5319 15.5233
42.5797 15.4869
42.6277 15.4554
42.6755 15.4405
42.7235 15.322
42.7713 15.3203
42.8193 15.2591
42.8671 15.1813
42.9152 15.1435
42.963 15.125
43.0111 14.9982
43.0589 14.9659
43.107 14.9437
43.1549 14.913
43.2029 14.8165
43.2508 14.7644
43.2989 14.7125
43.3468 14.6274
43.3949 14.6166
43.4429 14.5758
43.491 14.5283
43.5389 14.4643
43.5871 14.4768
43.635 14.3359
43.6832 14.3168
43.7312 14.2634
43.7793 14.2018
43.8273 14.1864
43.8755 14.1068
43.9237 14.0672
43.9717 14.0101
44.0199 13.9444
44.068 13.9556
44.1162 13.8624
44.1642 13.7937
44.2125 13.8169
44.2606 13.7437
44.3088 13.7251
44.3569 13.6267
44.4052 13.6391
44.4533 13.5224
44.5016 13.5095
44.5497 13.4479
44.598 13.4125
44.6461 13.3683
44.6945 13.2859
44.7426 13.2376
44.791 13.1804
44.8391 13.1742
44.8875 13.1481
44.9357 13.1165
44.984 13.0302
45.0322 12.9671
45.0806 12.9064
45.1288 12.8747
45.1773 12.8456
45.2257 12.8018
45.2739 12.718
45.3224 12.7441
45.3706 12.6554
45.4191 12.558
45.4673 12.5874
45.5158 12.5425
45.5641 12.4516
45.6126 12.4256
45.6609 12.3621
45.7094 12.2728
45.7577 12.2875
45.8063 12.2318
45.8546 12.207
45.9031 12.1753
45.9515 12.1418
46.0001 12.0309
46.0484 12.0169
46.097 11.9718
46.1454 11.9767
46.194 11.9364
46.2424 11.8836
46.291 11.8244
46.3395 11.8177
46.3881 11.7415
46.4365 11.6919
46.4852 11.6637
46.5337 11.6319
46.5823 11.5538
46.631 11.5275
46.6795 11.4712
46.7282 11.4982
46.7767 11.4085
46.8254 11.3475
46.8739 11.3076
46.9226 11.2693
46.9712 11.2339
47.0199 11.1866
47.0685 11.1393
47.1173 11.0695
47.1658 11.0456
47.2146 11.0141
47.2632 10.9395
47.312 10.9935
47.3606 10.9032
47.4095 10.8661
47.4581 10.812
47.5069 10.7357
47.5556 10.7636
47.6044 10.6824
47.6531 10.6745
47.702 10.575
47.7507 10.5926
47.7996 10.532
47.8483 10.5102
47.8972 10.4642
47.9461 10.4223
47.9948 10.4079
48.0438 10.3528
48.0925 10.3227
48.1415 10.2861
48.1902 10.2329
48.2392 10.22
48.288 10.1731
48.337 10.1817
48.3858 10.0513
48.4348 10.0415
48.4837 10.0248
48.5327 9.98618
48.5815 9.96395
48.6306 9.93689
48.6795 9.88397
48.7285 9.87393
48.7774 9.79249
48.8265 9.81273
48.8754 9.76197
48.9245 9.73924
48.9734 9.63132
49.0226 9.6207
49.0715 9.56186
49.1206 9.50273
49.1696 9.51302
49.2188 9.48934
49.2679 9.47704
49.3169 9.38622
49.3661 9.36306
49.4151 9.32554
49.4643 9.29925
49.5134 9.25732
49.5626 9.2334
49.6117 9.1995
49.6609 9.15929
49.71 9.12209
49.7592 9.10949
49.8083 9.03599
49.8576 9.0538
49.9067 8.96579
49.956 8.94903
50.0052 8.93721
50.0545 8.88452
50.1036 8.85848
50.153 8.82227
50.2022 8.81435
50.2515 8.73611
50.3007 8.71355
50.3501 8.6757
50.3993 8.65511
50.4487 8.61327
50.498 8.55361
50.5474 8.50139
50.5966 8.50326
50.6461 8.51769
50.6955 8.42949
50.7448 8.4128
50.7943 8.418
50.8436 8.32218
50.8931 8.30412
50.9424 8.29386
50.9919 8.26501
51.0413 8.23541
51.0908 8.19901
51.1402 8.14561
51.1897 8.11934
51.2391 8.08969
51.2887 8.07522
51.3381 8.02399
51.3877 8.03477
51.4371 7.97855
51.4867 7.9106
51.5362 7.89746
51.5858 7.87189
51.6353 7.82694
51.6849 7.80012
51.7344 7.76854
51.7841 7.75602
51.8336 7.71131
51.8833 7.66042
51.9328 7.64359
51.9826 7.5849
52.0323 7.5474
52.0818 7.55036
52.1316 7.4856
52.1812 7.4878
52.231 7.46357
52.2806 7.44125
52.3304 7.40434
52.38 7.33958
52.4298 7.33101
52.4794 7.28191
52.5293 7.25162
52.5789 7.23018
52.6288 7.18729
52.6785 7.15413
52.7284 7.19423
52.7781 7.14471
52.828 7.07995
52.8777 7.04927
52.9276 6.99535
52.9774 7.01989
53.0273 6.96295
53.0771 6.95059
53.1271 6.93748
53.1769 6.85019
53.2269 6.85428
53.2767 6.84532
53.3267 6.77533
53.3765 6.78067
53.4266 6.71554
53.4766 6.70038
53.5265 6.62922
53.5765 6.62774
53.6264 6.60973
53.6765 6.61409
53.7264 6.55284
53.7765 6.57679
53.8265 6.4993
53.8766 6.49623
53.9266 6.43999
53.9767 6.41984
54.0267 6.41782
54.0769 6.42451
54.1269 6.29447
54.1771 6.28235
54.2271 6.2782
54.2773 6.2348
54.3274 6.1829
54.3776 6.15618
54.4277 6.15009
54.478 6.06152
54.528 5.99689
54.5783 5.96519
54.6285 5.94866
54.6788 5.9201
54.7289 5.87918
54.7792 5.81161
54.8296 5.76319
54.8798 5.69173
54.9301 5.69826
54.9803 5.60797
55.0307 5.63046
55.0809 5.5399
55.1314 5.56424
55.1816 5.48291
55.232 5.41147
55.2823 5.35401
55.3328 5.29693
55.383 5.24911
55.4335 5.22026
55.4838 5.1763
55.5344 5.1094
55.5847 5.1011
55.6352 5.03078
55.6856 4.99844
55.7361 4.98006