File: XRD/Ni3Fe_FD0441.xy
TT I
1.27165 7.70569
1.31627 7.25625
1.36089 6.99376
1.40551 6.68687
1.45013 6.76743
1.49476 6.24517
1.53938 6.15018
1.584 5.46711
1.62863 5.81992
1.67325 5.16307
1.71787 5.35278
1.7625 4.91755
1.80712 5.21016
1.85174 4.42909
1.89636 4.51142
1.94099 5.5134
1.98562 4.85067
2.03025 4.9308
2.07487 4.42517
2.11949 4.55178
2.16411 4.77039
2.20874 12.4908
2.25338 17.9395
2.298 5.33744
2.34263 5.44858
2.38725 5.35912
2.43188 5.60004
2.4765 6.30089
2.52115 6.43204
2.56577 6.08356
2.6104 7.64076
2.65503 7.39054
2.69965 7.44689
2.7443 7.27598
2.78893 7.48523
2.83356 8.08168
2.87818 8.87561
2.92281 8.34116
2.96744 9.23001
3.01209 10.4527
3.05672 10.7067
3.10135 12.3137
3.14599 13.0853
3.19062 14.8639
3.23527 15.0381
3.2799 15.9218
3.32454 17.0156
3.36917 18.0002
3.4138 19.3689
3.45844 19.6638
3.50309 20.7493
3.54773 21.7366
3.59237 24.0656
3.637 76.8103
3.68164 49.6694
3.7263 26.2002
3.77094 26.0772
3.81558 26.703
3.86022 28.096
3.90486 29.0172
3.9495 29.8231
3.99416 30.8277
4.0388 32.4014
4.08344 33.8087
4.12809 34.9556
4.17273 37.1555
4.21738 42.5535
4.26204 203.149
4.30669 170.154
4.35133 47.4699
4.39598 44.8482
4.44063 52.8012
4.4853 61.7487
4.52995 51.7722
4.5746 52.3617
4.61925 54.4072
4.6639 56.095
4.70855 59.3845
4.75322 62.0389
4.79788 64.9402
4.84253 68.6207
4.88719 73.379
4.93184 76.8682
4.97652 83.0084
5.02118 89.9375
5.06583 98.2194
5.11049 111.705
5.15515 175.374
5.19981 477.173
5.24449 3345.12
5.28916 11706.0
5.33382 3003.66
5.37848 203.776
5.42315 133.635
5.46783 117.451
5.5125 108.601
5.55716 104.387
5.60183 100.792
5.6465 98.9264
5.69117 96.3977
5.73586 94.2908
5.78053 94.5292
5.8252 94.3131
5.86988 95.1098
5.91455 98.7267
5.95924 110.179
6.00392 265.333
6.0486 1157.39
6.09328 4353.32
6.13795 3370.05
6.18263 279.754
6.22733 97.424
6.27201 84.9663
6.3167 97.0978
6.36138 79.4883
6.40606 70.6481
6.45075 68.3965
6.49545 66.3189
6.54014 64.7428
6.58483 63.8231
6.62952 63.5347
6.67421 87.608
6.71892 123.128
6.76361 66.7998
6.8083 59.2851
6.853 58.1498
6.89769 57.5463
6.94239 57.2626
6.98711 56.2565
7.03181 56.8983
7.07651 56.2517
7.12121 55.8661
7.16591 55.7977
7.21063 56.0245
7.25533 68.1881
7.30004 148.149
7.34475 82.9797
7.38945 56.8924
7.43416 55.0929
7.47889 55.0229
7.5236 55.3618
7.56831 56.3167
7.61303 57.1837
7.65774 57.8951
7.70247 56.8792
7.74719 56.6769
7.79191 57.6069
7.83663 57.7906
7.88135 58.8199
7.92607 59.4391
7.97081 60.8245
8.01553 61.794
8.06026 63.2228
8.10498 64.8356
8.14971 72.7393
8.19446 72.3234
8.23919 70.9723
8.28392 73.321
8.32865 75.8825
8.37339 80.3964
8.41812 87.0917
8.46288 113.404
8.50761 194.592
8.55235 454.364
8.59709 1230.7
8.64183 2141.84
8.68658 1008.19
8.73134 172.674
8.77609 102.204
8.82083 94.7248
8.86558 91.2069
8.91033 91.1542
8.9551 91.9093
8.99985 86.6012
9.04461 85.159
9.08936 84.5029
9.13412 83.5062
9.17888 83.5066
9.22365 84.3795
9.26841 83.2818
9.31318 84.1317
9.35794 84.438
9.4027 84.5842
9.44749 85.5447
9.49226 86.3892
9.53703 87.0533
9.5818 89.1549
9.62657 92.9807
9.67134 98.5078
9.71614 94.8994
9.76091 96.2565
9.80569 99.1167
9.85047 102.306
9.89525 122.333
9.94005 136.975
9.98484 206.801
10.0296 398.003
10.0744 860.835
10.1192 1722.09
10.164 1622.16
10.2088 423.835
10.2536 131.827
10.2984 114.626
10.3432 114.94
10.388 107.313
10.4328 127.397
10.4776 176.185
10.5224 295.298
10.5672 506.298
10.612 500.943
10.6568 206.189
10.7017 98.2079
10.7465 88.5141
10.7913 84.6649
10.8361 82.4745
10.8809 80.2996
10.9257 79.6243
10.9706 79.6886
11.0154 76.0559
11.0602 74.0322
11.105 72.9949
11.1499 76.1294
11.1947 81.105
11.2395 73.9115
11.2844 70.9839
11.3292 68.301
11.374 67.1571
11.4189 66.8022
11.4637 66.0925
11.5086 66.2146
11.5534 68.5704
11.5983 65.9946
11.6431 64.7281
11.688 64.1051
11.7328 63.8709
11.7777 63.7623
11.8225 63.5424
11.8674 63.3819
11.9122 64.0104
11.9571 64.0859
12.002 65.1799
12.0468 70.9713
12.0917 83.6452
12.1366 108.306
12.1814 154.635
12.2263 202.208
12.2712 170.826
12.3161 96.1958
12.3609 70.4273
12.4058 65.5976
12.4507 65.1285
12.4956 65.6919
12.5405 65.771
12.5853 66.5187
12.6302 72.6325
12.6751 76.7977
12.72 70.2782
12.7649 68.932
12.8098 69.6498
12.8547 70.9223
12.8996 72.6007
12.9445 73.8317
12.9894 75.6211
13.0343 77.3361
13.0792 81.2409
13.1242 93.7161
13.1691 120.609
13.214 160.834
13.2589 247.304
13.3038 363.293
13.3487 422.625
13.3937 268.588
13.4386 126.406
13.4835 112.408
13.5285 129.345
13.5734 168.321
13.6183 249.589
13.6633 337.563
13.7082 344.424
13.7531 191.746
13.7981 98.6392
13.843 83.2934
13.888 81.1344
13.9329 78.4574
13.9779 77.2123
14.0228 75.5923
14.0678 74.2685
14.1127 73.8124
14.1577 73.5985
14.2027 72.7386
14.2476 71.7972
14.2926 71.8235
14.3376 72.237
14.3825 71.3555
14.4275 70.2642
14.4725 69.8367
14.5175 70.356
14.5624 70.4651
14.6074 72.1616
14.6524 72.7097
14.6974 72.0016
14.7424 74.3949
14.7874 82.7054
14.8324 94.2312
14.8774 116.67
14.9224 155.853
14.9674 203.515
15.0124 217.767
15.0574 152.162
15.1024 91.4949
15.1474 73.6296
15.1924 71.6635
15.2374 71.7145
15.2824 71.1282
15.3274 69.2238
15.3725 67.7448
15.4175 67.7396
15.4625 67.2905
15.5076 67.3863
15.5526 67.3547
15.5976 67.1992
15.6426 68.9394
15.6877 75.8246
15.7327 84.2234
15.7778 100.128
15.8228 129.297
15.8679 167.742
15.9129 190.7
15.958 157.262
16.003 96.8701
16.0481 68.942
16.0931 65.1419
16.1382 63.1471
16.1833 61.5682
16.2283 59.9727
16.2734 59.3448
16.3185 59.4313
16.3636 59.8773
16.4086 58.3055
16.4537 57.2783
16.4988 56.5025
16.5439 56.3579
16.589 56.1002
16.6341 56.0267
16.6792 55.3917
16.7243 55.7953
16.7694 55.7153
16.8145 55.7515
16.8596 55.9373
16.9047 57.3376
16.9498 57.5069
16.9949 56.7348
17.04 56.9452
17.0851 58.4656
17.1302 60.2737
17.1754 63.5967
17.2205 68.402
17.2656 75.1258
17.3108 82.4306
17.3559 82.758
17.401 72.2066
17.4462 63.1389
17.4913 60.2401
17.5365 60.147
17.5815 60.1691
17.6268 60.7113
17.6718 61.2375
17.7171 62.1085
17.7622 62.5673
17.8074 63.3702
17.8525 66.4179
17.8977 70.8344
17.9428 76.7545
17.9881 85.7343
18.0331 102.011
18.0784 121.135
18.1237 138.722
18.1688 132.893
18.214 105.988
18.2591 88.4708
18.3044 91.9776
18.3495 100.554
18.3948 106.57
18.4399 97.3014
18.4852 78.315
18.5303 66.9671
18.5756 63.4011
18.6207 62.1971
18.666 61.3236
18.7112 60.7339
18.7565 59.9973
18.8016 59.7799
18.8469 59.0788
18.892 58.706
18.9374 58.3773
18.9825 58.3647
19.0278 57.9309
19.073 58.0901
19.1183 58.6078
19.1635 59.4679
19.2088 60.937
19.254 63.4684
19.2993 67.7686
19.3447 73.1221
19.3898 77.3961
19.4352 73.4071
19.4804 63.9221
19.5257 57.5535
19.5709 55.1737
19.6163 54.8542
19.6615 54.8112
19.7068 54.3217
19.752 54.4059
19.7974 54.9179
19.8426 55.5976
19.888 56.5046
19.9332 57.6218
19.9786 60.2969
20.0238 63.5643
20.0692 67.9553
20.1144 70.8448
20.1598 69.495
20.205 64.6756
20.2504 63.0363
20.2957 64.4558
20.3411 66.3869
20.3863 64.7033
20.4318 59.2223
20.477 54.3698
20.5224 52.4004
20.5677 51.8189
20.6131 50.984
20.6586 50.715
20.7038 50.383
20.7493 49.9404
20.7945 49.8824
20.84 49.6113
20.8853 49.5916
20.9307 49.4178
20.976 49.6952
21.0215 49.5994
21.0668 50.1005
21.1122 50.5065
21.1575 51.096
21.203 51.6317
21.2483 52.1574
21.2938 52.4082
21.3391 51.0715
21.3846 49.8947
21.4299 49.4006
21.4754 49.3253
21.5207 49.3627
21.5662 49.7762
21.6116 50.5066
21.6571 51.1173
21.7024 52.2441
21.7479 54.1105
21.7933 56.5634
21.8388 59.9076
21.8843 63.5448
21.9297 65.5414
21.9752 64.4267
22.0206 60.5738
22.0661 57.2775
22.1115 56.7703
22.157 56.755
22.2024 55.2201
22.248 52.4918
22.2933 50.6892
22.3389 50.1292
22.3843 49.9239
22.4299 49.5656
22.4753 49.7282
22.5208 49.4227
22.5662 49.3722
22.6118 49.5979
22.6572 49.9524
22.7028 50.3756
22.7483 50.8063
22.7939 51.5365
22.8393 52.9539
22.8849 54.9429
22.9303 56.8888
22.9759 58.7071
23.0214 58.2732
23.067 55.4085
23.1126 51.9973
23.1581 50.1516
23.2037 49.7004
23.2492 50.0031
23.2948 49.822
23.3403 50.1582
23.3859 50.7943
23.4314 51.8641
23.477 53.6194
23.5225 55.4509
23.5682 57.4334
23.6137 58.6357
23.6593 56.6049
23.7048 52.6083
23.7505 49.1415
23.796 47.4571
23.8417 46.7771
23.8872 46.206
23.9329 46.0844
23.9784 45.5225
24.0241 45.5185
24.0697 45.3452
24.1154 44.8654
24.1609 44.6298
24.2066 44.6326
24.2522 44.7039
24.2979 44.3107
24.3434 43.9915
24.3892 43.9707
24.4349 43.9587
24.4805 43.8595
24.5262 43.8203
24.5718 43.6639
24.6175 43.6546
24.6631 43.4939
24.7089 43.3811
24.7545 43.29
24.8002 43.082
24.8458 42.959
24.8916 42.8575
24.9372 42.8562
24.983 43.4511
25.0286 43.6918
25.0744 44.2021
25.12 44.6181
25.1658 45.207
25.2114 45.4296
25.2572 45.4756
25.3029 45.2938
25.3487 45.6174
25.3943 45.4188
25.4402 44.1146
25.4858 43.0537
25.5316 42.2001
25.5773 41.6965
25.6231 41.6296
25.669 41.2254
25.7147 41.2308
25.7605 41.1348
25.8062 41.2718
25.8521 41.3096
25.8977 41.4597
25.9436 41.461
25.9893 41.6186
26.0352 42.0625
26.0809 42.1023
26.1268 42.4001
26.1725 41.9898
26.2184 41.502
26.2641 41.0972
26.31 40.886
26.3557 40.9733
26.4017 40.8497
26.4474 41.2354
26.4933 41.5427
26.5391 41.9614
26.585 42.3131
26.6308 42.5804
26.6767 42.9539
26.7225 42.7756
26.7684 42.1376
26.8142 41.5714
26.8601 41.1414
26.9059 40.7407
26.9519 40.192
26.9979 39.8614
27.0437 39.5381
27.0896 39.3446
27.1354 39.593
27.1814 39.2839
27.2272 39.2295
27.2732 39.2644
27.3191 39.1477
27.3651 39.1118
27.4109 39.0626
27.4569 39.2323
27.5027 39.1983
27.5488 39.3968
27.5946 39.1878
27.6407 38.8178
27.6865 38.8005
27.7326 38.6518
27.7784 38.7159
27.8245 38.6929
27.8703 38.6624
27.9164 39.0088
27.9623 39.1184
28.0084 39.3968
28.0543 39.6507
28.1003 39.6756
28.1462 39.4842
28.1923 39.0888
28.2384 38.6795
28.2843 38.3143
28.3304 37.7515
28.3764 37.2318
28.4225 37.0335
28.4684 36.8203
28.5145 36.5449
28.5605 36.4943
28.6066 36.2734
28.6526 36.2813
28.6987 36.3116
28.7447 36.1429
28.7908 35.9814
28.8368 36.072
28.8829 35.8591
28.9289 35.8987
28.9751 35.815
29.0211 35.5839
29.0673 35.2897
29.1133 35.2115
29.1595 34.9985
29.2055 34.8362
29.2517 34.9742
29.2977 34.9031
29.3439 34.8501
29.3899 34.8924
29.4361 34.7597
29.4824 34.5338
29.5284 34.2601
29.5746 33.9859
29.6207 33.7558
29.6669 33.7424
29.713 33.6448
29.7593 33.4205
29.8053 33.505
29.8516 33.4148
29.8977 33.3421
29.9439 33.0324
29.99 33.1753
30.0363 33.0026
30.0824 33.0917
30.1287 32.8884
30.1748 32.93
30.2211 33.0289
30.2673 32.7485
30.3136 32.9747
30.3597 32.8649
30.406 32.7777
30.4522 32.6018
30.4985 32.5103
30.5447 32.7417
30.591 32.6407
30.6372 32.786
30.6835 32.7233
30.7297 32.8587
30.7761 32.7169
30.8224 32.4814
30.8686 32.4077
30.915 32.1456
30.9612 32.0734
31.0076 31.8565
31.0538 31.6903
31.1002 31.7324
31.1464 31.4258
31.1928 31.4532
31.2391 31.5685
31.2855 31.5076
31.3317 31.3857
31.3781 31.4737
31.4244 31.5761
31.4708 31.2968
31.5171 31.3396
31.5636 31.2368
31.6098 31.0152
31.6563 30.8302
31.7026 30.7446
31.7491 30.6474
31.7953 30.6883
31.8418 30.5651
31.8881 30.6671
31.9346 30.5645
31.9809 30.5653
32.0275 30.4676
32.074 30.3028
32.1203 30.1264
32.1668 30.0428
32.2132 29.8658
32.2597 29.7785
32.306 29.6514
32.3526 29.5095
32.399 29.3997
32.4455 29.334
32.4919 29.1707
32.5385 29.1569
32.5848 29.0039
32.6314 28.9318
32.6778 28.9475
32.7244 28.7732
32.7708 28.6516
32.8174 28.6556
32.8638 28.561
32.9104 28.5142
32.9569 28.5538
33.0035 28.356
33.0499 28.3022
33.0966 28.2716
33.143 28.2146
33.1897 28.1754
33.2361 28.0455
33.2828 28.0581
33.3293 27.8445
33.3759 27.8456
33.4226 27.759
33.4691 27.5251
33.5158 27.4243
33.5623 27.3914
33.609 27.254
33.6555 27.1142
33.7022 27.1493
33.7487 26.9514
33.7954 26.9355
33.842 26.7815
33.8887 26.7493
33.9353 26.7531
33.982 26.6651
34.0286 26.4561
34.0753 26.4668
34.1219 26.3619
34.1687 26.2127
34.2152 26.1763
34.262 26.0551
34.3086 26.058
34.3554 26.0173
34.402 25.7421
34.4488 25.7036
34.4954 25.7237
34.5422 25.5726
34.5889 25.4694
34.6357 25.421
34.6825 25.3385
34.7292 25.2727
34.776 25.1493
34.8227 25.0873
34.8695 25.0261
34.9162 25.0536
34.9631 24.8526
35.0098 24.8517
35.0566 24.7149
35.1033 24.6952
35.1502 24.7017
35.1969 24.5445
35.2438 24.5359
35.2906 24.4642
35.3375 24.497
35.3842 24.3536
35.4311 24.3403
35.4779 24.4199
35.5248 24.2755
35.5716 24.1506
35.6185 24.1438
35.6653 23.989
35.7123 23.9275
35.759 23.8521
35.806 23.7612
35.8528 23.6357
35.8998 23.6586
35.9468 23.5128
35.9936 23.4703
36.0406 23.4224
36.0874 23.4815
36.1345 23.2533
36.1813 23.206
36.2283 23.0827
36.2752 23.0027
36.3222 23.1083
36.3691 22.9167
36.4161 22.793
36.463 22.7774
36.5101 22.8487
36.557 22.6681
36.6041 22.6244
36.651 22.5099
36.6981 22.5418
36.745 22.3788
36.7921 22.3794
36.839 22.184
36.8861 22.1954
36.9331 22.1156
36.9802 22.149
37.0272 21.9527
37.0743 21.9119
37.1213 21.8127
37.1684 21.7319
37.2154 21.6986
37.2626 21.6062
37.3098 21.5622
37.3568 21.5077
37.404 21.4671
37.451 21.3569
37.4982 21.3152
37.5452 21.2346
37.5924 21.1747
37.6395 21.1719
37.6867 21.0934
37.7337 20.9701
37.781 20.8782
37.8281 20.8669
37.8753 20.6796
37.9224 20.7341
37.9697 20.6019
38.0168 20.5839
38.064 20.5186
38.1111 20.4847
38.1584 20.3943
38.2056 20.3063
38.2529 20.2844
38.3 20.1065
38.3473 20.2315
38.3945 19.9907
38.4418 20.0105
38.489 19.9728
38.5363 19.8692
38.5837 19.7868
38.6309 19.695
38.6782 19.6995
38.7254 19.6351
38.7728 19.6399
38.82 19.4565
38.8674 19.4553
38.9146 19.302
38.9621 19.3429
39.0093 19.2913
39.0567 19.2216
39.104 19.1152
39.1514 19.0374
39.1987 18.998
39.2461 18.8797
39.2934 18.9139
39.3409 18.7275
39.3882 18.7009
39.4356 18.6399
39.483 18.6233
39.5304 18.5378
39.5778 18.5462
39.6253 18.4337
39.6726 18.3449
39.7201 18.2827
39.7675 18.3213
39.815 18.1852
39.8624 18.1501
39.9099 18.161
39.9575 18.0685
40.0049 18.0231
40.0525 17.8849
40.0999 17.9244
40.1474 17.8832
40.1949 17.809
40.2425 17.6983
40.2899 17.6628
40.3375 17.6025
40.385 17.569
40.4326 17.5222
40.48 17.4467
40.5277 17.3239
40.5752 17.3056
40.6228 17.2539
40.6703 17.2151
40.718 17.1782
40.7655 17.1488
40.8132 17.0673
40.8607 17.0138
40.9084 16.9393
40.9559 16.9224
41.0036 16.839
41.0512 16.8255
41.0989 16.7556
41.1465 16.6518
41.1942 16.6413
41.242 16.526
41.2896 16.5338
41.3373 16.4434
41.3849 16.3566
41.4327 16.375
41.4803 16.3002
41.5281 16.2214
41.5758 16.2183
41.6236 16.1255
41.6712 16.0521
41.7191 15.9674
41.7667 15.9568
41.8146 15.879
41.8622 15.8472
41.9101 15.8024
41.9578 15.7125
42.0057 15.6998
42.0534 15.6866
42.1013 15.5703
42.149 15.5686
42.1969 15.4789
42.2446 15.4452
42.2925 15.3821
42.3403 15.3548
42.3882 15.3325
42.436 15.2311
42.4839 15.1686
42.5319 15.1209
42.5797 15.0288
42.6277 15.0051
42.6755 14.9593
42.7235 14.8791
42.7713 14.8486
42.8193 14.7922
42.8671 14.7694
42.9152 14.7473
42.963 14.6533
43.0111 14.6242
43.0589 14.5949
43.107 14.5567
43.1549 14.4892
43.2029 14.3778
43.2508 14.3906
43.2989 14.2773
43.3468 14.1892
43.3949 14.2339
43.4429 14.1521
43.491 14.1008
43.5389 14.0917
43.5871 14.0038
43.635 13.9552
43.6832 13.9469
43.7312 13.8921
43.7793 13.8278
43.8273 13.7838
43.8755 13.7037
43.9237 13.6418
43.9717 13.6763
44.0199 13.5255
44.068 13.5646
44.1162 13.5016
44.1642 13.4641
44.2125 13.3949
44.2606 13.3479
44.3088 13.3088
44.3569 13.2303
44.4052 13.2614
44.4533 13.1544
44.5016 13.1182
44.5497 13.0745
44.598 13.0778
44.6461 12.9943
44.6945 12.903
44.7426 12.8881
44.791 12.8314
44.8391 12.8085
44.8875 12.7858
44.9357 12.7019
44.984 12.6852
45.0322 12.6183
45.0806 12.6425
45.1288 12.5122
45.1773 12.5084
45.2257 12.4506
45.2739 12.4113
45.3224 12.3317
45.3706 12.3412
45.4191 12.2445
45.4673 12.2258
45.5158 12.1989
45.5641 12.1114
45.6126 12.0877
45.6609 12.0388
45.7094 12.0061
45.7577 11.9639
45.8063 11.9147
45.8546 11.8743
45.9031 11.7919
45.9515 11.8222
46.0001 11.7528
46.0484 11.7284
46.097 11.7028
46.1454 11.629
46.194 11.5901
46.2424 11.5318
46.291 11.4876
46.3395 11.4309
46.3881 11.366
46.4365 11.3943
46.4852 11.3177
46.5337 11.2688
46.5823 11.2687
46.631 11.2353
46.6795 11.2091
46.7282 11.1341
46.7767 11.1383
46.8254 11.0505
46.8739 11.0274
46.9226 10.9457
46.9712 10.9332
47.0199 10.9231
47.0685 10.8807
47.1173 10.8011
47.1658 10.7448
47.2146 10.7344
47.2632 10.6371
47.312 10.6286
47.3606 10.6304
47.4095 10.5241
47.4581 10.5076
47.5069 10.491
47.5556 10.448
47.6044 10.39
47.6531 10.3589
47.702 10.3039
47.7507 10.2688
47.7996 10.2479
47.8483 10.2192
47.8972 10.177
47.9461 10.145
47.9948 10.092
48.0438 10.0625
48.0925 10.0513
48.1415 9.99516
48.1902 9.95536
48.2392 9.98017
48.288 9.8885
48.337 9.82725
48.3858 9.82468
48.4348 9.84807
48.4837 9.77408
48.5327 9.74684
48.5815 9.67548
48.6306 9.66278
48.6795 9.62791
48.7285 9.56061
48.7774 9.52401
48.8265 9.49827
48.8754 9.44482
48.9245 9.46206
48.9734 9.43359
49.0226 9.38748
49.0715 9.37269
49.1206 9.28709
49.1696 9.25927
49.2188 9.23415
49.2679 9.15059
49.3169 9.14532
49.3661 9.11444
49.4151 9.06329
49.4643 9.06757
49.5134 9.0162
49.5626 8.95431
49.6117 8.962
49.6609 8.91892
49.71 8.87676
49.7592 8.83348
49.8083 8.78444
49.8576 8.79078
49.9067 8.69756
49.956 8.69645
50.0052 8.72776
50.0545 8.65758
50.1036 8.57775
50.153 8.59347
50.2022 8.53295
50.2515 8.51168
50.3007 8.48307
50.3501 8.46759
50.3993 8.41746
50.4487 8.3854
50.498 8.34294
50.5474 8.32381
50.5966 8.27623
50.6461 8.2337
50.6955 8.22948
50.7448 8.1863
50.7943 8.16357
50.8436 8.12174
50.8931 8.09611
50.9424 8.0759
50.9919 8.02514
51.0413 7.9984
51.0908 7.9632
51.1402 7.96807
51.1897 7.91449
51.2391 7.86938
51.2887 7.85285
51.3381 7.79535
51.3877 7.80676
51.4371 7.70216
51.4867 7.65509
51.5362 7.68849
51.5858 7.6468
51.6353 7.59545
51.6849 7.55565
51.7344 7.56078
51.7841 7.52474
51.8336 7.47455
51.8833 7.45107
51.9328 7.40314
51.9826 7.36541
52.0323 7.36436
52.0818 7.30324
52.1316 7.31292
52.1812 7.27193
52.231 7.23012
52.2806 7.20645
52.3304 7.17204
52.38 7.18738
52.4298 7.12821
52.4794 7.06437
52.5293 7.02792
52.5789 7.00258
52.6288 7.04793
52.6785 6.98389
52.7284 6.9726
52.7781 6.90194
52.828 6.91441
52.8777 6.80984
52.9276 6.84487
52.9774 6.80137
53.0273 6.77363
53.0771 6.74577
53.1271 6.73125
53.1769 6.68773
53.2269 6.69294
53.2767 6.62412
53.3267 6.60918
53.3765 6.59624
53.4266 6.53538
53.4766 6.50612
53.5265 6.46037
53.5765 6.45403
53.6264 6.43781
53.6765 6.40737
53.7264 6.41453
53.7765 6.32143
53.8265 6.33534
53.8766 6.30279
53.9266 6.24171
53.9767 6.25483
54.0267 6.22059
54.0769 6.17798
54.1269 6.15574
54.1771 6.10662
54.2271 6.10476
54.2773 6.03865
54.3274 6.06299
54.3776 5.9991
54.4277 5.91279
54.478 5.94958
54.528 5.90195
54.5783 5.84278
54.6285 5.81087
54.6788 5.76607
54.7289 5.74727
54.7792 5.67784
54.8296 5.60505
54.8798 5.59292
54.9301 5.63071
54.9803 5.53695
55.0307 5.49665
55.0809 5.42641
55.1314 5.42633
55.1816 5.36684
55.232 5.33235
55.2823 5.28385
55.3328 5.25195
55.383 5.18039
55.4335 5.13036
55.4838 5.11519
55.5344 5.08328
55.5847 5.02549
55.6352 4.99135
55.6856 4.88372
55.7361 4.91045