File: XRD/Ni3Fe_FD0117.xy
TT I
1.27165 8.34833
1.31627 6.97075
1.36089 6.97974
1.40551 6.35038
1.45013 6.47817
1.49476 6.88048
1.53938 6.16842
1.584 6.14705
1.62863 5.82186
1.67325 5.89946
1.71787 5.48651
1.7625 5.76573
1.80712 5.64543
1.85174 5.45811
1.89636 5.122
1.94099 5.49484
1.98562 5.42766
2.03025 4.42032
2.07487 4.94578
2.11949 5.15873
2.16411 4.50997
2.20874 5.26324
2.25338 4.50912
2.298 3.72399
2.34263 4.45155
2.38725 4.30379
2.43188 3.23904
2.4765 3.86699
2.52115 4.28915
2.56577 4.51832
2.6104 4.99481
2.65503 5.02318
2.69965 5.13516
2.7443 5.66441
2.78893 6.51769
2.83356 6.43568
2.87818 7.70651
2.92281 8.19744
2.96744 8.93743
3.01209 9.97332
3.05672 11.6428
3.10135 12.5649
3.14599 12.5366
3.19062 14.0927
3.23527 14.888
3.2799 16.1357
3.32454 16.8122
3.36917 17.6133
3.4138 18.6942
3.45844 19.2556
3.50309 20.1462
3.54773 21.0167
3.59237 21.7072
3.637 22.2434
3.68164 23.0411
3.7263 24.0117
3.77094 24.6011
3.81558 25.0691
3.86022 26.2104
3.90486 27.6038
3.9495 28.1008
3.99416 29.1738
4.0388 30.2678
4.08344 31.4606
4.12809 32.5391
4.17273 33.8641
4.21738 35.0767
4.26204 35.8158
4.30669 37.5893
4.35133 39.2982
4.39598 40.7627
4.44063 42.3718
4.4853 44.2912
4.52995 47.4434
4.5746 48.7675
4.61925 51.238
4.6639 53.0999
4.70855 56.2114
4.75322 58.8651
4.79788 62.1416
4.84253 65.8482
4.88719 70.18
4.93184 75.4915
4.97652 82.4473
5.02118 91.8391
5.06583 102.652
5.11049 119.643
5.15515 162.492
5.19981 601.889
5.24449 3782.42
5.28916 7513.08
5.33382 6713.22
5.37848 548.003
5.42315 173.417
5.46783 131.534
5.5125 115.945
5.55716 108.846
5.60183 102.777
5.6465 99.4976
5.69117 98.2487
5.73586 95.5226
5.78053 95.5461
5.8252 96.7487
5.86988 99.3398
5.91455 107.549
5.95924 128.34
6.00392 309.589
6.0486 1410.7
6.09328 2447.27
6.13795 3935.89
6.18263 784.898
6.22733 132.116
6.27201 91.7075
6.3167 79.1687
6.36138 72.6168
6.40606 68.3825
6.45075 66.3665
6.49545 63.9345
6.54014 62.0682
6.58483 60.5419
6.62952 59.3575
6.67421 57.9588
6.71892 57.071
6.76361 55.9877
6.8083 55.0106
6.853 54.5802
6.89769 54.0577
6.94239 53.7648
6.98711 52.9708
7.03181 52.8493
7.07651 52.4181
7.12121 52.1277
7.16591 51.7599
7.21063 51.7475
7.25533 51.5048
7.30004 51.9195
7.34475 51.1962
7.38945 51.801
7.43416 51.1843
7.47889 51.5133
7.5236 56.3021
7.56831 68.2792
7.61303 56.13
7.65774 53.0981
7.70247 53.7039
7.74719 53.466
7.79191 54.5627
7.83663 54.4183
7.88135 55.6041
7.92607 56.7718
7.97081 57.6374
8.01553 58.7359
8.06026 60.0833
8.10498 61.1171
8.14971 63.0377
8.19446 64.4654
8.23919 67.2713
8.28392 70.2842
8.32865 73.2119
8.37339 77.68
8.41812 83.9033
8.46288 96.1871
8.50761 179.173
8.55235 621.744
8.59709 819.111
8.64183 1322.54
8.68658 1712.45
8.73134 478.809
8.77609 120.952
8.82083 98.527
8.86558 91.1348
8.91033 87.6032
8.9551 84.8952
8.99985 83.2134
9.04461 82.6728
9.08936 81.5403
9.13412 80.735
9.17888 80.8767
9.22365 88.6482
9.26841 105.059
9.31318 89.107
9.35794 82.0449
9.4027 81.696
9.44749 82.0158
9.49226 82.8092
9.53703 83.7352
9.5818 85.4554
9.62657 86.0126
9.67134 87.7065
9.71614 89.9288
9.76091 91.975
9.80569 94.79
9.85047 98.1564
9.89525 103.407
9.94005 114.51
9.98484 191.405
10.0296 565.913
10.0744 703.157
10.1192 902.157
10.164 1584.4
10.2088 1096.37
10.2536 240.535
10.2984 118.745
10.3432 107.928
10.388 104.384
10.4328 122.056
10.4776 220.243
10.5224 253.438
10.5672 295.633
10.612 460.754
10.6568 398.646
10.7017 144.561
10.7465 92.0285
10.7913 83.6487
10.8361 79.8915
10.8809 77.4466
10.9257 75.1979
10.9706 73.8471
11.0154 72.0748
11.0602 70.8099
11.105 69.4593
11.1499 68.209
11.1947 67.2185
11.2395 66.2529
11.2844 65.2688
11.3292 64.6435
11.374 63.7611
11.4189 63.3764
11.4637 62.5271
11.5086 62.3123
11.5534 61.6531
11.5983 61.1103
11.6431 61.3067
11.688 60.9973
11.7328 61.0185
11.7777 60.6915
11.8225 60.5934
11.8674 60.6958
11.9122 62.2413
11.9571 67.0361
12.002 66.6502
12.0468 67.8222
12.0917 91.2692
12.1366 107.512
12.1814 110.906
12.2263 139.106
12.2712 187.485
12.3161 147.725
12.3609 77.6767
12.4058 64.0016
12.4507 62.7158
12.4956 62.729
12.5405 62.5668
12.5853 62.9073
12.6302 63.2373
12.6751 63.6893
12.72 64.5429
12.7649 65.5465
12.8098 66.2863
12.8547 67.4066
12.8996 68.8905
12.9445 70.5748
12.9894 72.3099
13.0343 74.6626
13.0792 78.6717
13.1242 86.4781
13.1691 134.881
13.214 189.892
13.2589 194.041
13.3038 221.213
13.3487 322.367
13.3937 388.255
13.4386 230.619
13.4835 123.689
13.5285 157.83
13.5734 182.606
13.6183 179.823
13.6633 214.638
13.7082 309.227
13.7531 317.732
13.7981 167.416
13.843 89.6051
13.888 80.1702
13.9329 76.8737
13.9779 75.487
14.0228 73.7204
14.0678 72.245
14.1127 72.4394
14.1577 74.8177
14.2027 73.0871
14.2476 69.9645
14.2926 68.9807
14.3376 68.3672
14.3825 67.5661
14.4275 67.5393
14.4725 67.5379
14.5175 67.7325
14.5624 67.471
14.6074 68.0661
14.6524 68.2267
14.6974 68.9339
14.7424 70.6364
14.7874 80.622
14.8324 108.229
14.8774 120.306
14.9224 120.109
14.9674 136.123
15.0124 178.058
15.0574 205.002
15.1024 148.175
15.1474 84.3149
15.1924 71.0831
15.2374 68.5645
15.2824 67.3045
15.3274 66.1416
15.3725 65.7498
15.4175 65.4309
15.4625 64.8965
15.5076 64.7625
15.5526 64.9148
15.5976 64.9175
15.6426 66.0136
15.6877 73.5598
15.7327 95.8276
15.7778 107.501
15.8228 106.016
15.8679 114.984
15.9129 142.309
15.958 181.494
16.003 159.968
16.0481 93.4862
16.0931 67.0283
16.1382 61.5629
16.1833 59.9203
16.2283 58.3125
16.2734 57.3975
16.3185 56.6457
16.3636 55.9932
16.4086 55.5634
16.4537 54.9717
16.4988 54.4735
16.5439 54.3809
16.589 54.1345
16.6341 53.9576
16.6792 53.4738
16.7243 53.9206
16.7694 53.6083
16.8145 53.6707
16.8596 53.6515
16.9047 54.2318
16.9498 54.7545
16.9949 54.5695
17.04 54.8147
17.0851 56.1205
17.1302 60.7416
17.1754 64.2047
17.2205 63.9728
17.2656 64.8636
17.3108 69.736
17.3559 76.8587
17.401 81.1098
17.4462 72.7539
17.4913 62.0131
17.5365 58.7845
17.5815 58.4393
17.6268 58.6571
17.6718 59.1534
17.7171 59.6422
17.7622 60.7942
17.8074 61.7336
17.8525 63.3484
17.8977 71.9024
17.9428 84.1464
17.9881 87.9897
18.0331 87.7843
18.0784 92.6446
18.1237 107.481
18.1688 135.058
18.214 144.629
18.2591 114.686
18.3044 87.5637
18.3495 83.3277
18.3948 90.7411
18.4399 101.504
18.4852 97.1839
18.5303 78.1237
18.5756 65.3265
18.6207 62.0893
18.666 60.3089
18.7112 59.3915
18.7565 58.7115
18.8016 58.3022
18.8469 57.5823
18.892 57.3631
18.9374 56.7921
18.9825 56.463
19.0278 56.1761
19.073 56.1136
19.1183 56.7382
19.1635 59.4656
19.2088 61.3706
19.254 61.5995
19.2993 61.9124
19.3447 63.4318
19.3898 66.9995
19.4352 72.098
19.4804 72.8165
19.5257 64.7223
19.5709 56.3734
19.6163 53.9916
19.6615 53.3354
19.7068 52.8327
19.752 52.7447
19.7974 52.7841
19.8426 54.0998
19.888 56.3964
19.9332 57.9615
19.9786 58.0092
20.0238 57.8058
20.0692 60.1936
20.1144 65.2539
20.1598 70.9699
20.205 70.9664
20.2504 65.4127
20.2957 60.1644
20.3411 60.0448
20.3863 63.2783
20.4318 64.2012
20.477 59.4775
20.5224 53.518
20.5677 50.5855
20.6131 49.8903
20.6586 49.3502
20.7038 49.1353
20.7493 48.7687
20.7945 48.7868
20.84 48.5931
20.8853 48.4868
20.9307 48.0721
20.976 48.2574
21.0215 48.5373
21.0668 49.1218
21.1122 48.8863
21.1575 48.8327
21.203 49.0506
21.2483 49.5418
21.2938 50.5556
21.3391 50.7604
21.3846 50.2815
21.4299 49.0083
21.4754 48.2843
21.5207 48.25
21.5662 48.5603
21.6116 48.9377
21.6571 50.9751
21.7024 52.8964
21.7479 53.6562
21.7933 53.4731
21.8388 54.4
21.8843 57.2281
21.9297 60.3065
21.9752 64.5487
22.0206 65.4947
22.0661 60.9285
22.1115 55.9256
22.157 54.7836
22.2024 55.7322
22.248 54.9796
22.2933 52.5715
22.3389 49.9644
22.3843 48.9474
22.4299 48.4464
22.4753 48.4305
22.5208 48.467
22.5662 48.3552
22.6118 48.4422
22.6572 48.6547
22.7028 49.8393
22.7483 51.024
22.7939 51.6813
22.8393 51.154
22.8849 51.6167
22.9303 52.2106
22.9759 53.8558
23.0214 55.8828
23.067 57.7571
23.1126 56.5076
23.1581 52.6332
23.2037 49.6462
23.2492 48.8271
23.2948 49.4485
23.3403 50.6658
23.3859 51.5212
23.4314 51.2546
23.477 51.1307
23.5225 51.4137
23.5682 52.3845
23.6137 54.4617
23.6593 56.6403
23.7048 57.1452
23.7505 53.786
23.796 49.326
23.8417 46.8433
23.8872 45.7398
23.9329 45.3463
23.9784 44.9269
24.0241 44.5817
24.0697 44.4878
24.1154 44.0141
24.1609 43.6315
24.2066 43.6731
24.2522 43.5541
24.2979 43.1996
24.3434 43.1289
24.3892 42.9944
24.4349 42.9111
24.4805 42.6399
24.5262 42.6655
24.5718 42.3983
24.6175 42.5471
24.6631 42.6445
24.7089 42.6141
24.7545 42.5247
24.8002 42.0498
24.8458 42.1272
24.8916 42.247
24.9372 42.3146
24.983 42.5715
25.0286 42.554
25.0744 43.1203
25.12 43.3713
25.1658 43.7988
25.2114 43.8083
25.2572 44.378
25.3029 44.3881
25.3487 44.3119
25.3943 44.2022
25.4402 44.4035
25.4858 44.3441
25.5316 43.1072
25.5773 41.6068
25.6231 41.008
25.669 40.3696
25.7147 40.5126
25.7605 40.4353
25.8062 40.6266
25.8521 40.8442
25.8977 40.5275
25.9436 40.5577
25.9893 40.4786
26.0352 40.6124
26.0809 40.7033
26.1268 41.17
26.1725 41.527
26.2184 41.7009
26.2641 41.2866
26.31 40.8279
26.3557 40.6905
26.4017 40.4379
26.4474 40.5144
26.4933 40.5599
26.5391 40.7308
26.585 40.8292
26.6308 41.1625
26.6767 41.5023
26.7225 42.1071
26.7684 42.2786
26.8142 41.8105
26.8601 40.9289
26.9059 40.5111
26.9519 40.0754
26.9979 39.8114
27.0437 39.1406
27.0896 38.8408
27.1354 38.7735
27.1814 38.6428
27.2272 38.6907
27.2732 38.6206
27.3191 38.4662
27.3651 38.4241
27.4109 38.2274
27.4569 38.2066
27.5027 38.2738
27.5488 38.3038
27.5946 38.4449
27.6407 38.4317
27.6865 38.3451
27.7326 38.2718
27.7784 38.3693
27.8245 38.1042
27.8703 38.0203
27.9164 38.0667
27.9623 38.1135
28.0084 38.1866
28.0543 38.4517
28.1003 38.5637
28.1462 38.9281
28.1923 38.9953
28.2384 38.5977
28.2843 38.138
28.3304 37.8115
28.3764 37.4197
28.4225 37.001
28.4684 36.5015
28.5145 35.9721
28.5605 35.756
28.6066 35.7002
28.6526 35.66
28.6987 35.5733
28.7447 35.3921
28.7908 35.2788
28.8368 35.1912
28.8829 35.2315
28.9289 35.1137
28.9751 35.0342
29.0211 35.0856
29.0673 34.9305
29.1133 34.7431
29.1595 34.4525
29.2055 34.2861
29.2517 34.1754
29.2977 34.0665
29.3439 33.9159
29.3899 33.9221
29.4361 33.8668
29.4824 33.9817
29.5284 33.9375
29.5746 33.7384
29.6207 33.3021
29.6669 33.0727
29.713 32.8635
29.7593 32.7543
29.8053 32.7477
29.8516 32.6303
29.8977 32.5977
29.9439 32.555
29.99 32.4094
30.0363 32.3707
30.0824 32.3674
30.1287 32.1529
30.1748 32.3065
30.2211 32.2813
30.2673 32.048
30.3136 32.2816
30.3597 32.3469
30.406 32.3322
30.4522 32.1305
30.4985 31.972
30.5447 32.0491
30.591 32.0425
30.6372 31.949
30.6835 31.8124
30.7297 31.951
30.7761 32.0273
30.8224 32.0879
30.8686 32.0573
30.915 31.7523
30.9612 31.6243
31.0076 31.3834
31.0538 31.2891
31.1002 31.3133
31.1464 30.8516
31.1928 30.8831
31.2391 30.9096
31.2855 30.8029
31.3317 30.7681
31.3781 30.7908
31.4244 30.7795
31.4708 30.6599
31.5171 30.6667
31.5636 30.7798
31.6098 30.6544
31.6563 30.6076
31.7026 30.4038
31.7491 30.1654
31.7953 30.1084
31.8418 30.1852
31.8881 29.9619
31.9346 30.0008
31.9809 29.886
32.0275 29.887
32.074 29.9173
32.1203 29.7393
32.1668 29.6814
32.2132 29.4577
32.2597 29.1693
32.306 29.2462
32.3526 28.9682
32.399 28.9397
32.4455 28.704
32.4919 28.7646
32.5385 28.5485
32.5848 28.3246
32.6314 28.4012
32.6778 28.3508
32.7244 28.3045
32.7708 28.0982
32.8174 28.1201
32.8638 27.9883
32.9104 28.0115
32.9569 27.9439
33.0035 27.8022
33.0499 27.8043
33.0966 27.7761
33.143 27.6556
33.1897 27.5882
33.2361 27.4717
33.2828 27.6291
33.3293 27.3454
33.3759 27.4411
33.4226 27.2602
33.4691 27.1708
33.5158 27.134
33.5623 26.9546
33.609 26.7216
33.6555 26.5818
33.7022 26.55
33.7487 26.3857
33.7954 26.4389
33.842 26.3206
33.8887 26.2018
33.9353 26.2371
33.982 26.0816
34.0286 25.9757
34.0753 25.972
34.1219 25.8546
34.1687 25.8126
34.2152 25.6657
34.262 25.6073
34.3086 25.4892
34.3554 25.4622
34.402 25.3505
34.4488 25.2884
34.4954 25.227
34.5422 25.1743
34.5889 25.0757
34.6357 24.9745
34.6825 24.8875
34.7292 24.8182
34.776 24.7228
34.8227 24.6657
34.8695 24.5449
34.9162 24.5157
34.9631 24.3668
35.0098 24.4646
35.0566 24.328
35.1033 24.306
35.1502 24.2308
35.1969 24.1395
35.2438 24.1171
35.2906 24.0722
35.3375 23.9249
35.3842 23.92
35.4311 23.8706
35.4779 23.866
35.5248 23.7681
35.5716 23.7495
35.6185 23.6801
35.6653 23.6092
35.7123 23.504
35.759 23.4177
35.806 23.3529
35.8528 23.1492
35.8998 23.1706
35.9468 23.0081
35.9936 22.9755
36.0406 23.0199
36.0874 22.9771
36.1345 22.8634
36.1813 22.7126
36.2283 22.6448
36.2752 22.5371
36.3222 22.7113
36.3691 22.4986
36.4161 22.391
36.463 22.3702
36.5101 22.326
36.557 22.2801
36.6041 22.1849
36.651 22.0936
36.6981 22.1078
36.745 22.0798
36.7921 22.0186
36.839 21.8351
36.8861 21.773
36.9331 21.7245
36.9802 21.5768
37.0272 21.5086
37.0743 21.4914
37.1213 21.4837
37.1684 21.3969
37.2154 21.3119
37.2626 21.192
37.3098 21.1527
37.3568 21.0989
37.404 21.0493
37.451 20.9897
37.4982 20.9077
37.5452 20.7853
37.5924 20.7023
37.6395 20.7718
37.6867 20.6263
37.7337 20.5764
37.781 20.4641
37.8281 20.4524
37.8753 20.2852
37.9224 20.2803
37.9697 20.2737
38.0168 20.141
38.064 20.1242
38.1111 20.0258
38.1584 19.9255
38.2056 19.9566
38.2529 19.8116
38.3 19.7525
38.3473 19.7274
38.3945 19.6276
38.4418 19.6243
38.489 19.5831
38.5363 19.4973
38.5837 19.4102
38.6309 19.4084
38.6782 19.3039
38.7254 19.2015
38.7728 19.0937
38.82 19.043
38.8674 19.0979
38.9146 19.036
38.9621 18.8413
39.0093 18.8792
39.0567 18.8361
39.104 18.7896
39.1514 18.5993
39.1987 18.6037
39.2461 18.6176
39.2934 18.538
39.3409 18.3567
39.3882 18.3175
39.4356 18.3385
39.483 18.2539
39.5304 18.1957
39.5778 18.1686
39.6253 18.0941
39.6726 18.0583
39.7201 18.037
39.7675 17.9174
39.815 17.9047
39.8624 17.8281
39.9099 17.8137
39.9575 17.7147
40.0049 17.6636
40.0525 17.5812
40.0999 17.5226
40.1474 17.4744
40.1949 17.3986
40.2425 17.3314
40.2899 17.2818
40.3375 17.2668
40.385 17.2467
40.4326 17.1463
40.48 17.11
40.5277 17.0817
40.5752 16.9858
40.6228 16.9201
40.6703 16.8721
40.718 16.7984
40.7655 16.7766
40.8132 16.6883
40.8607 16.6691
40.9084 16.6556
40.9559 16.5833
41.0036 16.5462
41.0512 16.4515
41.0989 16.4779
41.1465 16.3665
41.1942 16.3668
41.242 16.1902
41.2896 16.1918
41.3373 16.1272
41.3849 16.0506
41.4327 16.0213
41.4803 15.9381
41.5281 15.9805
41.5758 15.8443
41.6236 15.797
41.6712 15.759
41.7191 15.6949
41.7667 15.6398
41.8146 15.6062
41.8622 15.5438
41.9101 15.5016
41.9578 15.422
42.0057 15.4112
42.0534 15.3711
42.1013 15.3084
42.149 15.2259
42.1969 15.2388
42.2446 15.1126
42.2925 15.084
42.3403 15.0008
42.3882 14.9866
42.436 14.9291
42.4839 14.8226
42.5319 14.8173
42.5797 14.788
42.6277 14.7198
42.6755 14.7358
42.7235 14.6406
42.7713 14.6219
42.8193 14.5292
42.8671 14.4828
42.9152 14.4305
42.963 14.3836
43.0111 14.3126
43.0589 14.2835
43.107 14.2017
43.1549 14.1744
43.2029 14.0966
43.2508 14.0269
43.2989 14.0122
43.3468 13.9834
43.3949 13.9834
43.4429 13.9144
43.491 13.863
43.5389 13.7883
43.5871 13.7608
43.635 13.6873
43.6832 13.6486
43.7312 13.5941
43.7793 13.5475
43.8273 13.5249
43.8755 13.4493
43.9237 13.4451
43.9717 13.3906
44.0199 13.3416
44.068 13.3158
44.1162 13.2376
44.1642 13.2291
44.2125 13.1458
44.2606 13.11
44.3088 13.0309
44.3569 13.0006
44.4052 12.9927
44.4533 12.8672
44.5016 12.8605
44.5497 12.8379
44.598 12.8022
44.6461 12.742
44.6945 12.6558
44.7426 12.6666
44.791 12.5719
44.8391 12.5984
44.8875 12.5003
44.9357 12.4477
44.984 12.4023
45.0322 12.3804
45.0806 12.3039
45.1288 12.2878
45.1773 12.2261
45.2257 12.1896
45.2739 12.1662
45.3224 12.0863
45.3706 12.0948
45.4191 11.9789
45.4673 11.9817
45.5158 11.9932
45.5641 11.9065
45.6126 11.8617
45.6609 11.7939
45.7094 11.7663
45.7577 11.696
45.8063 11.6802
45.8546 11.6609
45.9031 11.594
45.9515 11.6034
46.0001 11.5182
46.0484 11.5107
46.097 11.4327
46.1454 11.3997
46.194 11.3735
46.2424 11.2936
46.291 11.2844
46.3395 11.2574
46.3881 11.1661
46.4365 11.1938
46.4852 11.097
46.5337 11.0363
46.5823 11.0437
46.631 10.9917
46.6795 10.9465
46.7282 10.9708
46.7767 10.9
46.8254 10.8228
46.8739 10.7846
46.9226 10.7875
46.9712 10.7143
47.0199 10.6796
47.0685 10.6049
47.1173 10.6041
47.1658 10.5619
47.2146 10.5225
47.2632 10.4556
47.312 10.4379
47.3606 10.3744
47.4095 10.3547
47.4581 10.3274
47.5069 10.2678
47.5556 10.2699
47.6044 10.1706
47.6531 10.1034
47.702 10.1219
47.7507 10.1021
47.7996 10.0214
47.8483 10.0692
47.8972 9.99313
47.9461 9.93942
47.9948 9.89313
48.0438 9.86376
48.0925 9.83808
48.1415 9.80653
48.1902 9.77321
48.2392 9.76272
48.288 9.731
48.337 9.65814
48.3858 9.65191
48.4348 9.63557
48.4837 9.60412
48.5327 9.52656
48.5815 9.51216
48.6306 9.45829
48.6795 9.46358
48.7285 9.39726
48.7774 9.38094
48.8265 9.36422
48.8754 9.29256
48.9245 9.27486
48.9734 9.25901
49.0226 9.18751
49.0715 9.17682
49.1206 9.13613
49.1696 9.056
49.2188 9.09274
49.2679 9.03059
49.3169 8.97911
49.3661 8.94977
49.4151 8.93859
49.4643 8.91598
49.5134 8.84547
49.5626 8.78177
49.6117 8.78868
49.6609 8.76801
49.71 8.72884
49.7592 8.68608
49.8083 8.67131
49.8576 8.62299
49.9067 8.56238
49.956 8.53626
50.0052 8.50194
50.0545 8.50056
50.1036 8.44276
50.153 8.40616
50.2022 8.39329
50.2515 8.33798
50.3007 8.30707
50.3501 8.30682
50.3993 8.26046
50.4487 8.22731
50.498 8.21797
50.5474 8.15971
50.5966 8.09821
50.6461 8.12225
50.6955 8.0653
50.7448 8.04319
50.7943 8.02165
50.8436 8.01244
50.8931 7.9439
50.9424 7.91727
50.9919 7.92563
51.0413 7.8491
51.0908 7.85693
51.1402 7.79634
51.1897 7.78532
51.2391 7.76104
51.2887 7.67613
51.3381 7.6525
51.3877 7.6386
51.4371 7.62122
51.4867 7.55673
51.5362 7.54725
51.5858 7.51776
51.6353 7.45957
51.6849 7.45139
51.7344 7.41796
51.7841 7.41497
51.8336 7.34516
51.8833 7.33439
51.9328 7.2565
51.9826 7.26301
52.0323 7.24083
52.0818 7.15629
52.1316 7.19241
52.1812 7.17011
52.231 7.10574
52.2806 7.0793
52.3304 7.06342
52.38 7.00277
52.4298 7.01304
52.4794 6.94752
52.5293 6.96185
52.5789 6.91428
52.6288 6.86648
52.6785 6.84692
52.7284 6.80493
52.7781 6.80503
52.828 6.76211
52.8777 6.69899
52.9276 6.72764
52.9774 6.65516
53.0273 6.70549
53.0771 6.64039
53.1271 6.59843
53.1769 6.62152
53.2269 6.53661
53.2767 6.55923
53.3267 6.45168
53.3765 6.46749
53.4266 6.43426
53.4766 6.39824
53.5265 6.40365
53.5765 6.35624
53.6264 6.27647
53.6765 6.31884
53.7264 6.31447
53.7765 6.22358
53.8265 6.22283
53.8766 6.15884
53.9266 6.12376
53.9767 6.10497
54.0267 6.10008
54.0769 6.05155
54.1269 6.00686
54.1771 5.98695
54.2271 5.97198
54.2773 5.90977
54.3274 5.89459
54.3776 5.86443
54.4277 5.82695
54.478 5.76835
54.528 5.70071
54.5783 5.71662
54.6285 5.6621
54.6788 5.58416
54.7289 5.56778
54.7792 5.56627
54.8296 5.43126
54.8798 5.45748
54.9301 5.41354
54.9803 5.38248
55.0307 5.37455
55.0809 5.2603
55.1314 5.29613
55.1816 5.18923
55.232 5.11393
55.2823 5.09698
55.3328 5.003
55.383 4.97296
55.4335 4.93578
55.4838 4.84067
55.5344 4.85951
55.5847 4.79311
55.6352 4.81892
55.6856 4.76009
55.7361 4.72683