File: XRD/Ni3Fe_FD0264.xy
TT I
1.27165 7.74943
1.31627 6.88154
1.36089 7.1109
1.40551 6.61852
1.45013 6.43015
1.49476 6.44944
1.53938 6.59851
1.584 5.52523
1.62863 5.44608
1.67325 5.65938
1.71787 5.18795
1.7625 4.79283
1.80712 4.9068
1.85174 4.90765
1.89636 5.24115
1.94099 5.0429
1.98562 4.90191
2.03025 4.09771
2.07487 4.68434
2.11949 4.7728
2.16411 4.90583
2.20874 10.6438
2.25338 16.7802
2.298 4.94458
2.34263 5.10616
2.38725 4.56493
2.43188 5.18736
2.4765 5.20616
2.52115 5.89189
2.56577 6.46792
2.6104 6.34935
2.65503 5.78188
2.69965 6.2945
2.7443 7.29817
2.78893 7.21281
2.83356 7.39178
2.87818 8.50282
2.92281 8.68979
2.96744 9.24396
3.01209 10.6375
3.05672 11.1558
3.10135 12.2012
3.14599 12.8257
3.19062 13.4034
3.23527 14.9215
3.2799 16.1013
3.32454 17.3494
3.36917 17.7353
3.4138 19.3386
3.45844 20.3093
3.50309 20.7988
3.54773 21.4481
3.59237 23.8204
3.637 69.5332
3.68164 47.4063
3.7263 26.2726
3.77094 26.2298
3.81558 27.2577
3.86022 27.802
3.90486 29.5372
3.9495 30.3147
3.99416 31.6467
4.0388 32.5938
4.08344 34.5609
4.12809 35.7263
4.17273 38.0436
4.21738 43.4876
4.26204 178.277
4.30669 158.336
4.35133 48.3515
4.39598 45.6521
4.44063 52.2701
4.4853 60.8401
4.52995 53.8283
4.5746 54.0171
4.61925 55.7554
4.6639 57.7017
4.70855 60.5313
4.75322 63.9269
4.79788 67.5602
4.84253 70.4357
4.88719 75.4874
4.93184 79.4427
4.97652 85.9303
5.02118 93.1082
5.06583 102.716
5.11049 118.398
5.15515 184.027
5.19981 549.615
5.24449 3588.1
5.28916 10688.1
5.33382 4364.75
5.37848 271.903
5.42315 150.708
5.46783 127.37
5.5125 116.183
5.55716 110.09
5.60183 105.842
5.6465 103.358
5.69117 100.78
5.73586 98.5842
5.78053 99.7897
5.8252 99.9864
5.86988 100.858
5.91455 104.715
5.95924 117.745
6.00392 286.582
6.0486 1255.41
6.09328 3693.23
6.13795 3655.81
6.18263 375.751
6.22733 108.598
6.27201 90.0116
6.3167 98.5629
6.36138 82.3809
6.40606 73.1138
6.45075 71.0148
6.49545 68.7498
6.54014 66.8238
6.58483 65.4143
6.62952 64.9736
6.67421 84.8382
6.71892 117.97
6.76361 67.8768
6.8083 60.8108
6.853 59.9271
6.89769 59.2186
6.94239 58.7358
6.98711 57.9287
7.03181 57.858
7.07651 57.3693
7.12121 57.25
7.16591 57.3495
7.21063 57.0279
7.25533 67.1706
7.30004 139.263
7.34475 82.18
7.38945 58.1262
7.43416 55.9874
7.47889 56.2146
7.5236 56.7416
7.56831 57.5971
7.61303 58.9222
7.65774 58.9961
7.70247 58.2062
7.74719 58.3328
7.79191 59.0572
7.83663 59.4413
7.88135 60.1669
7.92607 60.9535
7.97081 62.2451
8.01553 63.4529
8.06026 65.3437
8.10498 66.3414
8.14971 73.8252
8.19446 73.4987
8.23919 72.4188
8.28392 75.3031
8.32865 77.8341
8.37339 82.9522
8.41812 89.8089
8.46288 114.725
8.50761 199.138
8.55235 505.776
8.59709 1106.62
8.64183 1976.45
8.68658 1246.37
8.73134 233.871
8.77609 110.255
8.82083 99.4266
8.86558 95.5253
8.91033 94.223
8.9551 94.4351
8.99985 89.2122
9.04461 87.7442
9.08936 87.5202
9.13412 86.2837
9.17888 85.98
9.22365 86.3228
9.26841 85.9287
9.31318 87.2948
9.35794 87.5682
9.4027 87.4827
9.44749 87.8258
9.49226 88.5802
9.53703 89.6621
9.5818 92.1926
9.62657 95.6236
9.67134 100.207
9.71614 97.7223
9.76091 98.7796
9.80569 101.599
9.85047 105.295
9.89525 122.528
9.94005 137.273
9.98484 210.385
10.0296 448.892
10.0744 806.797
10.1192 1460.98
10.164 1693.62
10.2088 600.87
10.2536 154.267
10.2984 120.28
10.3432 118.579
10.388 110.809
10.4328 131.19
10.4776 191.711
10.5224 282.496
10.5672 451.4
10.612 530.847
10.6568 274.011
10.7017 108.787
10.7465 91.8438
10.7913 87.836
10.8361 85.0125
10.8809 82.8537
10.9257 81.433
10.9706 81.7115
11.0154 78.0845
11.0602 75.927
11.105 74.6469
11.1499 77.0727
11.1947 82.0861
11.2395 75.5499
11.2844 72.7188
11.3292 70.2556
11.374 69.0057
11.4189 68.2077
11.4637 67.6468
11.5086 67.4904
11.5534 69.3967
11.5983 67.8125
11.6431 66.2304
11.688 65.6747
11.7328 65.6436
11.7777 65.2912
11.8225 65.1593
11.8674 65.1718
11.9122 65.6696
11.9571 65.7781
12.002 66.7757
12.0468 72.4442
12.0917 88.4543
12.1366 108.964
12.1814 143.912
12.2263 191.792
12.2712 189.102
12.3161 112.909
12.3609 74.0791
12.4058 67.5379
12.4507 67.28
12.4956 67.1593
12.5405 67.4891
12.5853 68.2443
12.6302 73.309
12.6751 77.5619
12.72 72.1104
12.7649 70.7149
12.8098 71.2002
12.8547 72.878
12.8996 74.3167
12.9445 75.4274
12.9894 77.5992
13.0343 79.366
13.0792 83.1283
13.1242 94.7766
13.1691 128.831
13.214 169.134
13.2589 231.363
13.3038 328.136
13.3487 419.148
13.3937 317.31
13.4386 151.129
13.4835 117.284
13.5285 140.354
13.5734 171.133
13.6183 231.386
13.6633 313.722
13.7082 360.042
13.7531 234.714
13.7981 115.403
13.843 87.0033
13.888 83.8433
13.9329 81.0266
13.9779 79.3951
14.0228 77.7736
14.0678 76.4199
14.1127 75.694
14.1577 75.5016
14.2027 74.3994
14.2476 73.5231
14.2926 73.3859
14.3376 74.0377
14.3825 73.2786
14.4275 71.6864
14.4725 71.8115
14.5175 71.8709
14.5624 71.9578
14.6074 73.4489
14.6524 74.3192
14.6974 73.6253
14.7424 75.9219
14.7874 85.3504
14.8324 100.54
14.8774 117.618
14.9224 146.769
14.9674 188.992
15.0124 218.692
15.0574 177.413
15.1024 106.804
15.1474 77.5459
15.1924 73.8347
15.2374 73.4896
15.2824 72.8596
15.3274 70.9265
15.3725 69.9002
15.4175 69.5387
15.4625 69.2614
15.5076 69.2458
15.5526 69.0527
15.5976 68.997
15.6426 70.482
15.6877 77.8007
15.7327 89.9027
15.7778 102.185
15.8228 123.068
15.8679 155.623
15.9129 187.069
15.958 175.908
16.003 115.689
16.0481 74.8155
16.0931 67.3404
16.1382 65.2827
16.1833 63.2014
16.2283 61.4447
16.2734 60.8623
16.3185 60.8649
16.3636 61.1824
16.4086 59.7176
16.4537 58.4506
16.4988 57.9427
16.5439 57.8544
16.589 57.6703
16.6341 57.3093
16.6792 56.8291
16.7243 57.1918
16.7694 57.3684
16.8145 57.1018
16.8596 57.3563
16.9047 58.4359
16.9498 58.7086
16.9949 57.7509
17.04 58.2034
17.0851 59.9839
17.1302 62.5155
17.1754 65.1865
17.2205 68.5224
17.2656 74.1782
17.3108 82.121
17.3559 85.4553
17.401 77.6056
17.4462 67.0786
17.4913 62.1125
17.5365 61.7441
17.5815 61.7927
17.6268 62.3064
17.6718 62.7878
17.7171 63.3214
17.7622 63.8736
17.8074 64.7428
17.8525 67.8445
17.8977 73.6175
17.9428 80.4924
17.9881 87.1537
18.0331 98.7555
18.0784 115.079
18.1237 135.596
18.1688 141.465
18.214 119.462
18.2591 95.0579
18.3044 91.2514
18.3495 97.8282
18.3948 105.882
18.4399 102.491
18.4852 85.0639
18.5303 70.6762
18.5756 65.4585
18.6207 64.3907
18.666 63.1623
18.7112 62.3674
18.7565 61.6855
18.8016 61.2986
18.8469 60.6853
18.892 60.2248
18.9374 59.9175
18.9825 59.4343
19.0278 59.482
19.073 59.4995
19.1183 60.1077
19.1635 61.2369
19.2088 62.7217
19.254 64.5185
19.2993 67.4063
19.3447 72.1391
19.3898 76.7428
19.4352 76.4292
19.4804 69.0587
19.5257 61.1042
19.5709 56.9057
19.6163 56.183
19.6615 56.2126
19.7068 55.7029
19.752 55.5033
19.7974 55.9981
19.8426 57.1593
19.888 58.3245
19.9332 59.2898
19.9786 60.9865
20.0238 63.3603
20.0692 67.8981
20.1144 71.5291
20.1598 72.2428
20.205 68.0943
20.2504 64.7596
20.2957 64.8288
20.3411 66.4237
20.3863 67.0412
20.4318 62.8466
20.477 57.3353
20.5224 54.1365
20.5677 53.2883
20.6131 52.4214
20.6586 51.978
20.7038 51.7665
20.7493 51.3494
20.7945 51.2268
20.84 50.9616
20.8853 50.8915
20.9307 50.8645
20.976 50.956
21.0215 50.7071
21.0668 51.4851
21.1122 51.6597
21.1575 51.9606
21.203 52.5984
21.2483 53.2159
21.2938 53.6947
21.3391 52.7419
21.3846 51.5132
21.4299 50.8154
21.4754 50.4693
21.5207 50.7059
21.5662 51.1348
21.6116 51.5046
21.6571 52.5875
21.7024 53.7252
21.7479 55.1654
21.7933 57.2045
21.8388 60.0422
21.8843 63.3111
21.9297 66.2001
21.9752 66.824
22.0206 63.7107
22.0661 59.2803
22.1115 57.8229
22.157 57.9017
22.2024 57.3473
22.248 54.6833
22.2933 52.6492
22.3389 51.4288
22.3843 51.2072
22.4299 50.9223
22.4753 51.1172
22.5208 50.9083
22.5662 50.584
22.6118 50.8234
22.6572 51.2684
22.7028 51.7008
22.7483 52.3155
22.7939 52.8916
22.8393 53.7859
22.8849 55.3611
22.9303 57.3312
22.9759 58.8046
23.0214 59.6508
23.067 57.9613
23.1126 54.5549
23.1581 51.9809
23.2037 51.1578
23.2492 51.2791
23.2948 51.4344
23.3403 51.881
23.3859 52.2427
23.4314 52.8752
23.477 54.1715
23.5225 55.9509
23.5682 57.555
23.6137 59.4444
23.6593 58.6387
23.7048 55.4095
23.7505 51.5692
23.796 49.0838
23.8417 48.2705
23.8872 47.616
23.9329 47.2658
23.9784 46.8923
24.0241 46.7396
24.0697 46.2776
24.1154 46.1717
24.1609 45.9039
24.2066 45.7104
24.2522 45.7089
24.2979 45.3808
24.3434 45.2058
24.3892 44.9636
24.4349 45.005
24.4805 44.7585
24.5262 45.0453
24.5718 44.7058
24.6175 44.8096
24.6631 44.7807
24.7089 44.4412
24.7545 44.3677
24.8002 44.1477
24.8458 44.1487
24.8916 44.0592
24.9372 44.1583
24.983 44.4996
25.0286 44.6802
25.0744 45.1838
25.12 45.4683
25.1658 45.9831
25.2114 46.2967
25.2572 46.64
25.3029 46.3965
25.3487 46.4557
25.3943 46.4811
25.4402 45.8028
25.4858 44.7609
25.5316 43.5898
25.5773 42.8112
25.6231 42.7718
25.669 42.3119
25.7147 42.4391
25.7605 42.2289
25.8062 42.3038
25.8521 42.6401
25.8977 42.2404
25.9436 42.5064
25.9893 42.6317
26.0352 43.0034
26.0809 43.0764
26.1268 43.3195
26.1725 43.3586
26.2184 42.9657
26.2641 42.2116
26.31 42.0547
26.3557 41.9791
26.4017 42.0293
26.4474 42.2389
26.4933 42.52
26.5391 42.8693
26.585 43.2592
26.6308 43.4958
26.6767 43.8144
26.7225 43.766
26.7684 43.3064
26.8142 42.7113
26.8601 42.2391
26.9059 41.9144
26.9519 41.3494
26.9979 41.0951
27.0437 40.7176
27.0896 40.5228
27.1354 40.445
27.1814 40.2601
27.2272 40.3245
27.2732 40.2646
27.3191 39.938
27.3651 40.1862
27.4109 39.9522
27.4569 40.1146
27.5027 40.0137
27.5488 40.2168
27.5946 40.102
27.6407 39.7953
27.6865 39.8736
27.7326 39.5416
27.7784 39.4902
27.8245 39.4806
27.8703 39.5475
27.9164 39.8917
27.9623 39.907
28.0084 40.1528
28.0543 40.4835
28.1003 40.6171
28.1462 40.4542
28.1923 40.1564
28.2384 39.6121
28.2843 39.2715
28.3304 38.7946
28.3764 38.3866
28.4225 38.1241
28.4684 38.0086
28.5145 37.6036
28.5605 37.4848
28.6066 37.2447
28.6526 37.2009
28.6987 37.1721
28.7447 36.8719
28.7908 36.9098
28.8368 36.9456
28.8829 36.824
28.9289 36.9176
28.9751 36.7524
29.0211 36.5046
29.0673 36.22
29.1133 36.1453
29.1595 35.9532
29.2055 35.9109
29.2517 35.7389
29.2977 35.7491
29.3439 35.7167
29.3899 35.6996
29.4361 35.5538
29.4824 35.5179
29.5284 35.4361
29.5746 34.8671
29.6207 34.6125
29.6669 34.5862
29.713 34.5272
29.7593 34.2723
29.8053 34.4072
29.8516 34.1838
29.8977 34.194
29.9439 34.0724
29.99 34.039
30.0363 33.9391
30.0824 33.9265
30.1287 33.743
30.1748 33.7761
30.2211 33.7477
30.2673 33.6117
30.3136 33.8298
30.3597 33.7055
30.406 33.5669
30.4522 33.4563
30.4985 33.4108
30.5447 33.5973
30.591 33.4749
30.6372 33.5377
30.6835 33.4425
30.7297 33.4604
30.7761 33.5217
30.8224 33.4599
30.8686 33.2267
30.915 33.1786
30.9612 32.9284
31.0076 32.7242
31.0538 32.5365
31.1002 32.4848
31.1464 32.3634
31.1928 32.3055
31.2391 32.3523
31.2855 32.1772
31.3317 32.226
31.3781 32.1351
31.4244 32.2589
31.4708 32.0887
31.5171 32.2704
31.5636 32.1217
31.6098 31.9101
31.6563 31.7635
31.7026 31.54
31.7491 31.4265
31.7953 31.4873
31.8418 31.4812
31.8881 31.3845
31.9346 31.3923
31.9809 31.2465
32.0275 31.2648
32.074 31.1569
32.1203 31.0477
32.1668 30.8096
32.2132 30.7114
32.2597 30.4825
32.306 30.4222
32.3526 30.3262
32.399 30.2607
32.4455 30.1112
32.4919 29.8577
32.5385 29.8894
32.5848 29.7441
32.6314 29.8017
32.6778 29.6364
32.7244 29.55
32.7708 29.4041
32.8174 29.3565
32.8638 29.2636
32.9104 29.2572
32.9569 29.2208
33.0035 29.0791
33.0499 29.0806
33.0966 28.9607
33.143 28.971
33.1897 28.868
33.2361 28.7989
33.2828 28.7535
33.3293 28.7014
33.3759 28.6848
33.4226 28.2935
33.4691 28.3557
33.5158 28.1947
33.5623 28.2011
33.609 27.9097
33.6555 27.8182
33.7022 27.6867
33.7487 27.6713
33.7954 27.5976
33.842 27.4959
33.8887 27.5648
33.9353 27.3922
33.982 27.3235
34.0286 27.2865
34.0753 27.1447
34.1219 27.1066
34.1687 26.8702
34.2152 26.8663
34.262 26.8148
34.3086 26.7005
34.3554 26.6348
34.402 26.4969
34.4488 26.501
34.4954 26.3437
34.5422 26.2697
34.5889 26.2597
34.6357 26.0594
34.6825 25.9911
34.7292 25.9563
34.776 25.8194
34.8227 25.7891
34.8695 25.7363
34.9162 25.6476
34.9631 25.4429
35.0098 25.6117
35.0566 25.3771
35.1033 25.3957
35.1502 25.3361
35.1969 25.2928
35.2438 25.2396
35.2906 25.0906
35.3375 25.0154
35.3842 24.9897
35.4311 25.0306
35.4779 25.0107
35.5248 24.9015
35.5716 24.7876
35.6185 24.6798
35.6653 24.7854
35.7123 24.5191
35.759 24.4505
35.806 24.3192
35.8528 24.2895
35.8998 24.2826
35.9468 24.0968
35.9936 24.1235
36.0406 24.0086
36.0874 24.0007
36.1345 23.9292
36.1813 23.8013
36.2283 23.6631
36.2752 23.5908
36.3222 23.6016
36.3691 23.5627
36.4161 23.3974
36.463 23.3697
36.5101 23.4366
36.557 23.308
36.6041 23.2131
36.651 23.1396
36.6981 23.0462
36.745 23.0106
36.7921 22.9527
36.839 22.7808
36.8861 22.7856
36.9331 22.7147
36.9802 22.6509
37.0272 22.5268
37.0743 22.4267
37.1213 22.431
37.1684 22.3615
37.2154 22.3242
37.2626 22.2189
37.3098 22.1571
37.3568 22.0496
37.404 21.9979
37.451 21.9573
37.4982 21.8301
37.5452 21.754
37.5924 21.6901
37.6395 21.7246
37.6867 21.5982
37.7337 21.5086
37.781 21.4614
37.8281 21.3772
37.8753 21.2771
37.9224 21.1965
37.9697 21.223
38.0168 21.1052
38.064 21.0046
38.1111 21.043
38.1584 20.9554
38.2056 20.7395
38.2529 20.769
38.3 20.6742
38.3473 20.6665
38.3945 20.5915
38.4418 20.5277
38.489 20.4393
38.5363 20.3879
38.5837 20.2914
38.6309 20.2678
38.6782 20.1821
38.7254 20.0625
38.7728 19.9915
38.82 19.965
38.8674 19.9369
38.9146 19.8605
38.9621 19.8262
39.0093 19.7393
39.0567 19.6745
39.104 19.6187
39.1514 19.5422
39.1987 19.5043
39.2461 19.4171
39.2934 19.3838
39.3409 19.3017
39.3882 19.189
39.4356 19.1958
39.483 19.0909
39.5304 19.0446
39.5778 19.03
39.6253 18.9068
39.6726 18.9046
39.7201 18.8486
39.7675 18.7475
39.815 18.6751
39.8624 18.6237
39.9099 18.6055
39.9575 18.5261
40.0049 18.5035
40.0525 18.3933
40.0999 18.3786
40.1474 18.3323
40.1949 18.2467
40.2425 18.1475
40.2899 18.1352
40.3375 18.0196
40.385 17.9459
40.4326 17.918
40.48 17.8352
40.5277 17.8603
40.5752 17.8003
40.6228 17.6912
40.6703 17.6492
40.718 17.5523
40.7655 17.549
40.8132 17.4802
40.8607 17.4587
40.9084 17.3899
40.9559 17.3348
41.0036 17.2752
41.0512 17.254
41.0989 17.1496
41.1465 17.0788
41.1942 17.0197
41.242 16.9777
41.2896 16.9365
41.3373 16.8702
41.3849 16.843
41.4327 16.7426
41.4803 16.6345
41.5281 16.6696
41.5758 16.5531
41.6236 16.5085
41.6712 16.5299
41.7191 16.3807
41.7667 16.3622
41.8146 16.3524
41.8622 16.3061
41.9101 16.2121
41.9578 16.0274
42.0057 16.0675
42.0534 16.0368
42.1013 15.9734
42.149 15.9034
42.1969 15.8859
42.2446 15.8828
42.2925 15.7793
42.3403 15.7014
42.3882 15.7283
42.436 15.6176
42.4839 15.5565
42.5319 15.5091
42.5797 15.4881
42.6277 15.3876
42.6755 15.3522
42.7235 15.3272
42.7713 15.2745
42.8193 15.1666
42.8671 15.1177
42.9152 15.0977
42.963 15.0429
43.0111 14.955
43.0589 14.9073
43.107 14.8636
43.1549 14.846
43.2029 14.7851
43.2508 14.7208
43.2989 14.6463
43.3468 14.601
43.3949 14.5811
43.4429 14.5255
43.491 14.4884
43.5389 14.4539
43.5871 14.3494
43.635 14.3198
43.6832 14.2943
43.7312 14.2005
43.7793 14.1616
43.8273 14.1092
43.8755 14.0599
43.9237 14.0146
43.9717 14.0544
44.0199 13.9212
44.068 13.9367
44.1162 13.8269
44.1642 13.8147
44.2125 13.7489
44.2606 13.6795
44.3088 13.6492
44.3569 13.575
44.4052 13.5688
44.4533 13.5096
44.5016 13.4888
44.5497 13.4484
44.598 13.3564
44.6461 13.3174
44.6945 13.257
44.7426 13.1882
44.791 13.1888
44.8391 13.0869
44.8875 13.0832
44.9357 13.0634
44.984 12.9819
45.0322 12.9263
45.0806 12.8794
45.1288 12.8623
45.1773 12.7784
45.2257 12.7487
45.2739 12.7449
45.3224 12.6612
45.3706 12.6683
45.4191 12.5976
45.4673 12.5589
45.5158 12.4523
45.5641 12.4141
45.6126 12.4291
45.6609 12.3689
45.7094 12.303
45.7577 12.2419
45.8063 12.2026
45.8546 12.193
45.9031 12.1637
45.9515 12.0964
46.0001 12.068
46.0484 12.0121
46.097 11.9509
46.1454 11.9249
46.194 11.9136
46.2424 11.8034
46.291 11.7623
46.3395 11.7421
46.3881 11.6784
46.4365 11.6463
46.4852 11.6134
46.5337 11.5356
46.5823 11.5566
46.631 11.4912
46.6795 11.4324
46.7282 11.4463
46.7767 11.3456
46.8254 11.3209
46.8739 11.23
46.9226 11.2093
46.9712 11.2268
47.0199 11.1647
47.0685 11.1223
47.1173 11.0924
47.1658 11.0193
47.2146 10.9818
47.2632 10.9786
47.312 10.9322
47.3606 10.8331
47.4095 10.83
47.4581 10.766
47.5069 10.7081
47.5556 10.7008
47.6044 10.6642
47.6531 10.6358
47.702 10.5693
47.7507 10.5454
47.7996 10.5137
47.8483 10.4763
47.8972 10.4447
47.9461 10.39
47.9948 10.3565
48.0438 10.3482
48.0925 10.3022
48.1415 10.2901
48.1902 10.2237
48.2392 10.2084
48.288 10.1678
48.337 10.1141
48.3858 10.074
48.4348 10.0839
48.4837 10.0352
48.5327 9.98298
48.5815 9.92311
48.6306 9.90874
48.6795 9.86684
48.7285 9.78434
48.7774 9.77539
48.8265 9.76216
48.8754 9.7236
48.9245 9.69306
48.9734 9.64357
49.0226 9.62492
49.0715 9.57574
49.1206 9.59001
49.1696 9.50942
49.2188 9.47038
49.2679 9.40692
49.3169 9.38542
49.3661 9.34816
49.4151 9.31076
49.4643 9.27885
49.5134 9.24581
49.5626 9.14739
49.6117 9.18475
49.6609 9.14175
49.71 9.07992
49.7592 9.0662
49.8083 8.9994
49.8576 8.99961
49.9067 8.94419
49.956 8.90723
50.0052 8.88339
50.0545 8.82881
50.1036 8.83491
50.153 8.77337
50.2022 8.78207
50.2515 8.73289
50.3007 8.66373
50.3501 8.63766
50.3993 8.61279
50.4487 8.56473
50.498 8.54433
50.5474 8.52029
50.5966 8.49437
50.6461 8.46707
50.6955 8.42199
50.7448 8.40213
50.7943 8.37255
50.8436 8.3746
50.8931 8.28969
50.9424 8.26131
50.9919 8.20515
51.0413 8.18666
51.0908 8.16659
51.1402 8.14597
51.1897 8.09581
51.2391 8.05215
51.2887 8.03101
51.3381 7.99121
51.3877 7.98114
51.4371 7.93864
51.4867 7.88268
51.5362 7.91351
51.5858 7.83922
51.6353 7.76176
51.6849 7.74945
51.7344 7.71881
51.7841 7.72884
51.8336 7.66144
51.8833 7.64847
51.9328 7.60677
51.9826 7.53643
52.0323 7.51254
52.0818 7.52789
52.1316 7.51051
52.1812 7.47273
52.231 7.43093
52.2806 7.37848
52.3304 7.39069
52.38 7.3086
52.4298 7.26586
52.4794 7.2356
52.5293 7.20752
52.5789 7.21991
52.6288 7.16645
52.6785 7.11967
52.7284 7.14914
52.7781 7.12008
52.828 7.04989
52.8777 7.01601
52.9276 7.03229
52.9774 6.97751
53.0273 6.95455
53.0771 6.92956
53.1271 6.88153
53.1769 6.8187
53.2269 6.82444
53.2767 6.7846
53.3267 6.79373
53.3765 6.73397
53.4266 6.70466
53.4766 6.66094
53.5265 6.64421
53.5765 6.6427
53.6264 6.58019
53.6765 6.56053
53.7264 6.55388
53.7765 6.52736
53.8265 6.46402
53.8766 6.42055
53.9266 6.4067
53.9767 6.37921
54.0267 6.3469
54.0769 6.35125
54.1269 6.32444
54.1771 6.32413
54.2271 6.23025
54.2773 6.16698
54.3274 6.21364
54.3776 6.10681
54.4277 6.08542
54.478 6.04742
54.528 6.01784
54.5783 5.97998
54.6285 5.9729
54.6788 5.9316
54.7289 5.8433
54.7792 5.86474
54.8296 5.77005
54.8798 5.71004
54.9301 5.69379
54.9803 5.68382
55.0307 5.67661
55.0809 5.58788
55.1314 5.54548
55.1816 5.43942
55.232 5.41466
55.2823 5.37869
55.3328 5.30794
55.383 5.28539
55.4335 5.22589
55.4838 5.15302
55.5344 5.18922
55.5847 5.12399
55.6352 5.11347
55.6856 5.01344
55.7361 5.02115