File: XRD/Ni3Fe_FD0893.xy
TT I
1.27165 7.58765
1.31627 6.89041
1.36089 6.69638
1.40551 6.04954
1.45013 6.13916
1.49476 6.09378
1.53938 5.53582
1.584 5.09212
1.62863 5.4696
1.67325 4.89261
1.71787 5.06189
1.7625 4.60303
1.80712 5.18267
1.85174 4.72163
1.89636 4.28336
1.94099 4.547
1.98562 4.22267
2.03025 4.29821
2.07487 4.28566
2.11949 4.75706
2.16411 4.86356
2.20874 14.1357
2.25338 21.345
2.298 6.16682
2.34263 6.01462
2.38725 6.36012
2.43188 6.53959
2.4765 7.04616
2.52115 8.05882
2.56577 7.8744
2.6104 8.45288
2.65503 8.0348
2.69965 9.18798
2.7443 9.09976
2.78893 8.49284
2.83356 8.32486
2.87818 9.59615
2.92281 9.49841
2.96744 9.90505
3.01209 10.5986
3.05672 11.1394
3.10135 12.2687
3.14599 13.182
3.19062 14.7143
3.23527 14.9536
3.2799 15.6029
3.32454 17.0346
3.36917 17.977
3.4138 18.9139
3.45844 19.5017
3.50309 20.8102
3.54773 21.603
3.59237 23.782
3.637 85.1451
3.68164 54.9515
3.7263 25.7417
3.77094 26.1625
3.81558 26.444
3.86022 27.2216
3.90486 28.797
3.9495 29.5676
3.99416 30.5738
4.0388 31.7629
4.08344 33.1752
4.12809 34.6226
4.17273 36.3178
4.21738 41.6358
4.26204 225.129
4.30669 197.654
4.35133 47.2874
4.39598 43.8497
4.44063 52.3954
4.4853 62.9609
4.52995 49.3286
4.5746 50.2595
4.61925 52.8181
4.6639 54.6985
4.70855 57.2446
4.75322 59.579
4.79788 62.6182
4.84253 66.2599
4.88719 70.3826
4.93184 74.2365
4.97652 78.9112
5.02118 85.0936
5.06583 92.3481
5.11049 102.054
5.15515 162.149
5.19981 299.527
5.24449 2557.36
5.28916 13336.2
5.33382 2578.98
5.37848 168.795
5.42315 122.635
5.46783 109.557
5.5125 102.83
5.55716 99.6094
5.60183 96.1126
5.6465 94.6163
5.69117 91.9351
5.73586 90.6411
5.78053 89.357
5.8252 88.7933
5.86988 89.7794
5.91455 91.5079
5.95924 98.8709
6.00392 180.642
6.0486 867.43
6.09328 4514.45
6.13795 3033.67
6.18263 200.615
6.22733 88.3372
6.27201 79.9711
6.3167 97.0643
6.36138 77.9767
6.40606 67.649
6.45075 66.3444
6.49545 63.9344
6.54014 62.7645
6.58483 61.9267
6.62952 61.8403
6.67421 89.4292
6.71892 132.359
6.76361 66.9103
6.8083 57.6119
6.853 56.597
6.89769 55.9013
6.94239 55.5047
6.98711 55.0737
7.03181 54.6513
7.07651 54.2245
7.12121 54.0957
7.16591 54.2362
7.21063 54.3483
7.25533 68.0637
7.30004 162.858
7.34475 86.3532
7.38945 55.2398
7.43416 53.7075
7.47889 52.7994
7.5236 53.8152
7.56831 54.3203
7.61303 55.9231
7.65774 55.9141
7.70247 55.302
7.74719 55.0801
7.79191 55.5791
7.83663 56.1406
7.88135 56.9286
7.92607 57.5833
7.97081 58.4348
8.01553 59.7605
8.06026 61.0963
8.10498 62.7871
8.14971 71.5411
8.19446 70.1762
8.23919 67.9572
8.28392 70.3418
8.32865 72.8513
8.37339 76.306
8.41812 83.3052
8.46288 108.487
8.50761 150.664
8.55235 347.842
8.59709 1180.57
8.64183 2287.99
8.68658 911.121
8.73134 149.356
8.77609 96.0107
8.82083 90.2506
8.86558 87.7195
8.91033 87.6749
8.9551 89.2602
8.99985 83.67
9.04461 81.8054
9.08936 81.0994
9.13412 80.5598
9.17888 80.7436
9.22365 81.0976
9.26841 80.6229
9.31318 81.119
9.35794 80.9557
9.4027 81.3815
9.44749 82.3308
9.49226 82.617
9.53703 84.0194
9.5818 85.6772
9.62657 89.7021
9.67134 95.8746
9.71614 91.7928
9.76091 91.7825
9.80569 94.5266
9.85047 97.51
9.89525 119.787
9.94005 131.138
9.98484 161.384
10.0296 312.414
10.0744 780.635
10.1192 1852.08
10.164 1516.97
10.2088 341.497
10.2536 118.496
10.2984 109.372
10.3432 111.333
10.388 101.65
10.4328 112.635
10.4776 151.889
10.5224 276.941
10.5672 534.401
10.612 502.798
10.6568 182.488
10.7017 92.4782
10.7465 84.2625
10.7913 81.6378
10.8361 79.2984
10.8809 77.5835
10.9257 76.682
10.9706 77.0539
11.0154 73.4511
11.0602 71.0765
11.105 70.3529
11.1499 74.1515
11.1947 80.4122
11.2395 72.5248
11.2844 68.802
11.3292 65.9455
11.374 64.5657
11.4189 64.3999
11.4637 63.7534
11.5086 63.9879
11.5534 66.8266
11.5983 64.2198
11.6431 62.4685
11.688 61.5419
11.7328 61.5528
11.7777 61.6244
11.8225 61.2499
11.8674 61.0749
11.9122 61.5242
11.9571 61.7647
12.002 62.1067
12.0468 65.2132
12.0917 75.7896
12.1366 99.094
12.1814 157.32
12.2263 220.669
12.2712 158.818
12.3161 89.1812
12.3609 68.4622
12.4058 63.2986
12.4507 63.0004
12.4956 63.174
12.5405 63.1238
12.5853 64.1876
12.6302 71.1866
12.6751 75.9179
12.72 68.4165
12.7649 66.6984
12.8098 66.8157
12.8547 68.2179
12.8996 69.4948
12.9445 70.7217
12.9894 72.3194
13.0343 74.1965
13.0792 77.429
13.1242 84.7419
13.1691 106.284
13.214 140.561
13.2589 235.005
13.3038 388.624
13.3487 427.269
13.3937 239.445
13.4386 114.025
13.4835 100.6
13.5285 114.34
13.5734 151.597
13.6183 249.978
13.6633 368.03
13.7082 334.322
13.7531 167.125
13.7981 91.3268
13.843 79.7432
13.888 77.8847
13.9329 75.3258
13.9779 74.3876
14.0228 72.8764
14.0678 71.499
14.1127 71.0525
14.1577 71.0111
14.2027 70.2547
14.2476 68.9941
14.2926 69.2385
14.3376 70.0303
14.3825 68.9718
14.4275 67.4471
14.4725 67.1276
14.5175 67.5204
14.5624 67.7089
14.6074 69.591
14.6524 70.2119
14.6974 69.074
14.7424 69.9901
14.7874 75.7412
14.8324 85.3543
14.8774 106.952
14.9224 154.293
14.9674 219.453
15.0124 219.044
15.0574 136.434
15.1024 84.6884
15.1474 70.1959
15.1924 68.7233
15.2374 69.1653
15.2824 68.5722
15.3274 66.4969
15.3725 65.5946
15.4175 65.1204
15.4625 64.7509
15.5076 64.8359
15.5526 64.734
15.5976 64.6682
15.6426 64.966
15.6877 69.5677
15.7327 76.7156
15.7778 91.4538
15.8228 125.601
15.8679 176.504
15.9129 198.692
15.958 149.759
16.003 89.2937
16.0481 65.4393
16.0931 62.8761
16.1382 61.2762
16.1833 59.2956
16.2283 57.7788
16.2734 57.0113
16.3185 57.3653
16.3636 57.986
16.4086 56.4972
16.4537 55.0466
16.4988 54.3294
16.5439 54.3461
16.589 54.1021
16.6341 53.8544
16.6792 53.6134
16.7243 53.6681
16.7694 53.8036
16.8145 53.5671
16.8596 54.0683
16.9047 55.4728
16.9498 55.808
16.9949 54.6835
17.04 54.5779
17.0851 55.6145
17.1302 57.346
17.1754 59.7697
17.2205 65.0854
17.2656 73.7957
17.3108 83.7362
17.3559 81.6025
17.401 68.0408
17.4462 59.9073
17.4913 57.6189
17.5365 57.7433
17.5815 57.7961
17.6268 58.2723
17.6718 59.1391
17.7171 59.812
17.7622 60.0376
17.8074 60.6185
17.8525 62.5115
17.8977 66.0843
17.9428 71.2536
17.9881 79.9237
18.0331 99.0601
18.0784 124.842
18.1237 140.78
18.1688 125.976
18.214 96.6912
18.2591 82.7658
18.3044 89.6799
18.3495 102.219
18.3948 107.259
18.4399 92.2988
18.4852 73.6471
18.5303 63.9385
18.5756 60.8531
18.6207 60.0351
18.666 59.4038
18.7112 58.4908
18.7565 57.7983
18.8016 57.5271
18.8469 56.8512
18.892 56.6283
18.9374 56.0624
18.9825 56.0481
19.0278 55.8764
19.073 55.7581
19.1183 56.2248
19.1635 56.881
19.2088 58.1597
19.254 60.8443
19.2993 65.6997
19.3447 72.6758
19.3898 76.0912
19.4352 70.1974
19.4804 61.092
19.5257 55.0964
19.5709 53.1019
19.6163 52.783
19.6615 52.5699
19.7068 52.2646
19.752 52.1219
19.7974 52.7778
19.8426 53.1761
19.888 53.9334
19.9332 55.0685
19.9786 57.711
20.0238 61.8028
20.0692 67.1042
20.1144 69.2891
20.1598 66.4475
20.205 61.2296
20.2504 60.9049
20.2957 63.8815
20.3411 65.72
20.3863 62.8818
20.4318 56.5133
20.477 52.264
20.5224 50.6511
20.5677 49.9789
20.6131 49.3092
20.6586 48.6986
20.7038 48.579
20.7493 48.2016
20.7945 48.0861
20.84 47.7869
20.8853 47.8968
20.9307 47.6507
20.976 47.7352
21.0215 47.7592
21.0668 48.1399
21.1122 48.6094
21.1575 49.3203
21.203 50.2272
21.2483 50.8841
21.2938 50.4498
21.3391 48.8849
21.3846 47.9004
21.4299 47.5358
21.4754 47.4623
21.5207 47.641
21.5662 47.8423
21.6116 48.3996
21.6571 48.9485
21.7024 49.6378
21.7479 51.4922
21.7933 54.2491
21.8388 58.4883
21.8843 62.9673
21.9297 64.0616
21.9752 61.5782
22.0206 57.6224
22.0661 55.4931
22.1115 55.624
22.157 55.1452
22.2024 52.6933
22.248 50.0461
22.2933 48.6498
22.3389 48.1886
22.3843 48.0611
22.4299 48.0194
22.4753 47.9084
22.5208 47.7167
22.5662 47.6368
22.6118 47.8323
22.6572 47.9099
22.7028 48.3189
22.7483 48.6749
22.7939 49.3229
22.8393 50.8974
22.8849 53.4656
22.9303 55.7643
22.9759 57.5404
23.0214 56.2895
23.067 53.0617
23.1126 49.8899
23.1581 48.1765
23.2037 47.8651
23.2492 47.8184
23.2948 47.9177
23.3403 48.1066
23.3859 48.6735
23.4314 49.7703
23.477 51.7752
23.5225 54.4529
23.5682 56.8806
23.6137 57.5596
23.6593 54.1933
23.7048 50.0347
23.7505 46.9186
23.796 45.6663
23.8417 45.2052
23.8872 44.697
23.9329 44.4991
23.9784 44.095
24.0241 43.7384
24.0697 43.6372
24.1154 43.3784
24.1609 43.2035
24.2066 43.0509
24.2522 42.8357
24.2979 42.6425
24.3434 42.5891
24.3892 42.4526
24.4349 42.3306
24.4805 42.0629
24.5262 42.4561
24.5718 42.2231
24.6175 42.2586
24.6631 42.0083
24.7089 41.6818
24.7545 41.7311
24.8002 41.4074
24.8458 41.5294
24.8916 41.3563
24.9372 41.463
24.983 41.6946
25.0286 41.9964
25.0744 42.5692
25.12 43.191
25.1658 43.6898
25.2114 43.9632
25.2572 43.9873
25.3029 44.1902
25.3487 44.4426
25.3943 43.7333
25.4402 42.5722
25.4858 41.618
25.5316 40.5989
25.5773 40.3139
25.6231 40.1254
25.669 39.7891
25.7147 39.6979
25.7605 39.7478
25.8062 39.7634
25.8521 40.0015
25.8977 39.8596
25.9436 40.037
25.9893 40.2997
26.0352 40.88
26.0809 41.027
26.1268 41.0429
26.1725 40.5815
26.2184 39.997
26.2641 39.5529
26.31 39.3244
26.3557 39.4509
26.4017 39.3697
26.4474 39.6611
26.4933 39.9803
26.5391 40.5333
26.585 41.1619
26.6308 41.5503
26.6767 41.5574
26.7225 41.263
26.7684 40.6412
26.8142 39.954
26.8601 39.8383
26.9059 39.2229
26.9519 38.6951
26.9979 38.5332
27.0437 38.2411
27.0896 38.1544
27.1354 38.0845
27.1814 37.8819
27.2272 37.8363
27.2732 37.8874
27.3191 37.7353
27.3651 37.7843
27.4109 37.6598
27.4569 37.9491
27.5027 37.8772
27.5488 37.9487
27.5946 37.7052
27.6407 37.408
27.6865 37.3847
27.7326 37.1263
27.7784 37.2124
27.8245 37.0885
27.8703 37.3077
27.9164 37.6853
27.9623 37.8658
28.0084 38.2213
28.0543 38.5402
28.1003 38.3913
28.1462 38.1
28.1923 37.8224
28.2384 37.3032
28.2843 36.8025
28.3304 36.4478
28.3764 36.013
28.4225 35.6881
28.4684 35.6163
28.5145 35.4
28.5605 35.2801
28.6066 34.9946
28.6526 34.977
28.6987 35.0533
28.7447 34.7685
28.7908 34.8524
28.8368 34.9132
28.8829 34.8523
28.9289 34.7631
28.9751 34.4962
29.0211 34.3141
29.0673 34.0937
29.1133 33.8612
29.1595 33.8351
29.2055 33.74
29.2517 33.7524
29.2977 33.6496
29.3439 33.703
29.3899 33.6397
29.4361 33.424
29.4824 33.3828
29.5284 33.0154
29.5746 32.8453
29.6207 32.6078
29.6669 32.5344
29.713 32.3285
29.7593 32.255
29.8053 32.3658
29.8516 32.1381
29.8977 32.2286
29.9439 31.9443
29.99 31.9981
30.0363 31.8208
30.0824 31.951
30.1287 31.8221
30.1748 31.9533
30.2211 31.8396
30.2673 31.7691
30.3136 31.7196
30.3597 31.653
30.406 31.6757
30.4522 31.5947
30.4985 31.3925
30.5447 31.5754
30.591 31.6121
30.6372 31.6216
30.6835 31.6146
30.7297 31.726
30.7761 31.5408
30.8224 31.4223
30.8686 31.2344
30.915 30.9671
30.9612 30.9055
31.0076 30.6997
31.0538 30.5857
31.1002 30.5608
31.1464 30.4227
31.1928 30.3381
31.2391 30.3953
31.2855 30.2896
31.3317 30.2989
31.3781 30.4616
31.4244 30.4183
31.4708 30.3874
31.5171 30.2647
31.5636 30.2479
31.6098 29.9775
31.6563 29.7802
31.7026 29.6957
31.7491 29.5232
31.7953 29.6604
31.8418 29.6674
31.8881 29.6266
31.9346 29.6347
31.9809 29.5082
32.0275 29.3954
32.074 29.3408
32.1203 29.0889
32.1668 28.9905
32.2132 28.9051
32.2597 28.7533
32.306 28.7245
32.3526 28.4685
32.399 28.3597
32.4455 28.3147
32.4919 28.2433
32.5385 28.1827
32.5848 28.0262
32.6314 27.9917
32.6778 27.982
32.7244 27.7508
32.7708 27.7165
32.8174 27.7026
32.8638 27.546
32.9104 27.6101
32.9569 27.5302
33.0035 27.4
33.0499 27.3283
33.0966 27.3401
33.143 27.3513
33.1897 27.19
33.2361 27.1413
33.2828 27.1126
33.3293 26.9481
33.3759 26.9037
33.4226 26.7397
33.4691 26.6622
33.5158 26.5439
33.5623 26.388
33.609 26.2386
33.6555 26.0778
33.7022 26.0473
33.7487 26.0446
33.7954 25.9968
33.842 25.972
33.8887 25.8601
33.9353 25.8411
33.982 25.6163
34.0286 25.6012
34.0753 25.6211
34.1219 25.3496
34.1687 25.4512
34.2152 25.3201
34.262 25.1752
34.3086 25.1383
34.3554 25.0732
34.402 24.9767
34.4488 24.9181
34.4954 24.8182
34.5422 24.6772
34.5889 24.6512
34.6357 24.5224
34.6825 24.5243
34.7292 24.3395
34.776 24.2231
34.8227 24.265
34.8695 24.2708
34.9162 24.1636
34.9631 24.03
35.0098 24.1419
35.0566 23.8883
35.1033 23.8093
35.1502 23.9079
35.1969 23.6731
35.2438 23.7656
35.2906 23.6508
35.3375 23.6632
35.3842 23.627
35.4311 23.5559
35.4779 23.5451
35.5248 23.4756
35.5716 23.3509
35.6185 23.3093
35.6653 23.1628
35.7123 23.0907
35.759 22.9926
35.806 22.9316
35.8528 22.9132
35.8998 22.7882
35.9468 22.7001
35.9936 22.7501
36.0406 22.603
36.0874 22.5982
36.1345 22.5681
36.1813 22.4508
36.2283 22.3581
36.2752 22.2522
36.3222 22.3329
36.3691 22.1977
36.4161 22.0826
36.463 22.1383
36.5101 21.9641
36.557 21.9483
36.6041 21.7862
36.651 21.8307
36.6981 21.7352
36.745 21.5219
36.7921 21.6277
36.839 21.4984
36.8861 21.4208
36.9331 21.349
36.9802 21.2973
37.0272 21.2017
37.0743 21.0581
37.1213 21.0927
37.1684 21.036
37.2154 20.9517
37.2626 20.8531
37.3098 20.8617
37.3568 20.7308
37.404 20.682
37.451 20.651
37.4982 20.5733
37.5452 20.4619
37.5924 20.4567
37.6395 20.4708
37.6867 20.347
37.7337 20.2486
37.781 20.2012
37.8281 20.1458
37.8753 20.0527
37.9224 19.9907
37.9697 19.9427
38.0168 19.8376
38.064 19.8118
38.1111 19.7375
38.1584 19.6902
38.2056 19.611
38.2529 19.6022
38.3 19.4962
38.3473 19.4587
38.3945 19.3568
38.4418 19.3245
38.489 19.2833
38.5363 19.213
38.5837 19.1517
38.6309 19.0898
38.6782 18.9965
38.7254 18.91
38.7728 18.8236
38.82 18.7799
38.8674 18.7384
38.9146 18.6439
38.9621 18.62
39.0093 18.6236
39.0567 18.5378
39.104 18.4188
39.1514 18.3876
39.1987 18.3467
39.2461 18.3048
39.2934 18.2097
39.3409 18.1642
39.3882 18.022
39.4356 18.0655
39.483 17.9578
39.5304 17.9771
39.5778 17.9293
39.6253 17.8428
39.6726 17.8176
39.7201 17.7852
39.7675 17.6909
39.815 17.6434
39.8624 17.5366
39.9099 17.5734
39.9575 17.4408
40.0049 17.4023
40.0525 17.3382
40.0999 17.2875
40.1474 17.2637
40.1949 17.1452
40.2425 17.0954
40.2899 17.0323
40.3375 17.0064
40.385 16.9189
40.4326 16.9103
40.48 16.7682
40.5277 16.8494
40.5752 16.7013
40.6228 16.6849
40.6703 16.6458
40.718 16.6013
40.7655 16.5195
40.8132 16.4277
40.8607 16.4703
40.9084 16.4046
40.9559 16.3352
41.0036 16.3026
41.0512 16.2166
41.0989 16.1984
41.1465 16.0953
41.1942 16.0757
41.242 15.9858
41.2896 15.8827
41.3373 15.922
41.3849 15.8913
41.4327 15.7996
41.4803 15.7298
41.5281 15.6967
41.5758 15.6089
41.6236 15.6066
41.6712 15.532
41.7191 15.4612
41.7667 15.4551
41.8146 15.3983
41.8622 15.3134
41.9101 15.2755
41.9578 15.2494
42.0057 15.1696
42.0534 15.1287
42.1013 15.0569
42.149 15.0286
42.1969 14.9208
42.2446 14.9094
42.2925 14.9063
42.3403 14.8232
42.3882 14.7704
42.436 14.7928
42.4839 14.689
42.5319 14.6055
42.5797 14.5883
42.6277 14.5483
42.6755 14.5075
42.7235 14.4508
42.7713 14.398
42.8193 14.301
42.8671 14.3093
42.9152 14.2261
42.963 14.1705
43.0111 14.1144
43.0589 14.0891
43.107 14.0619
43.1549 13.971
43.2029 13.9524
43.2508 13.8639
43.2989 13.861
43.3468 13.7753
43.3949 13.7676
43.4429 13.7278
43.491 13.6203
43.5389 13.6133
43.5871 13.5639
43.635 13.5396
43.6832 13.4854
43.7312 13.4196
43.7793 13.3455
43.8273 13.2894
43.8755 13.2526
43.9237 13.2451
43.9717 13.2003
44.0199 13.1558
44.068 13.1386
44.1162 13.0003
44.1642 13.0164
44.2125 12.9968
44.2606 12.9365
44.3088 12.8389
44.3569 12.8794
44.4052 12.8123
44.4533 12.7338
44.5016 12.6786
44.5497 12.6461
44.598 12.6184
44.6461 12.5563
44.6945 12.5353
44.7426 12.5067
44.791 12.4276
44.8391 12.4157
44.8875 12.3746
44.9357 12.2933
44.984 12.275
45.0322 12.2374
45.0806 12.1438
45.1288 12.1095
45.1773 12.1224
45.2257 12.054
45.2739 12.0033
45.3224 11.9043
45.3706 11.9332
45.4191 11.8429
45.4673 11.8617
45.5158 11.7992
45.5641 11.7648
45.6126 11.6729
45.6609 11.6331
45.7094 11.6438
45.7577 11.5791
45.8063 11.5063
45.8546 11.5171
45.9031 11.4331
45.9515 11.4214
46.0001 11.319
46.0484 11.3455
46.097 11.304
46.1454 11.2655
46.194 11.2294
46.2424 11.1798
46.291 11.121
46.3395 11.1102
46.3881 11.0137
46.4365 11.0531
46.4852 10.9348
46.5337 10.956
46.5823 10.8865
46.631 10.8413
46.6795 10.8448
46.7282 10.7908
46.7767 10.7502
46.8254 10.6754
46.8739 10.6206
46.9226 10.6318
46.9712 10.5552
47.0199 10.5391
47.0685 10.5168
47.1173 10.4047
47.1658 10.4173
47.2146 10.381
47.2632 10.3293
47.312 10.3035
47.3606 10.2927
47.4095 10.2003
47.4581 10.2066
47.5069 10.1458
47.5556 10.0922
47.6044 10.0586
47.6531 10.0406
47.702 9.97766
47.7507 9.97652
47.7996 9.9186
47.8483 9.88052
47.8972 9.88321
47.9461 9.84871
47.9948 9.76779
48.0438 9.75063
48.0925 9.72854
48.1415 9.70586
48.1902 9.61668
48.2392 9.61142
48.288 9.611
48.337 9.55001
48.3858 9.50389
48.4348 9.52529
48.4837 9.46426
48.5327 9.39783
48.5815 9.36247
48.6306 9.34992
48.6795 9.31095
48.7285 9.2837
48.7774 9.20523
48.8265 9.20918
48.8754 9.16161
48.9245 9.11082
48.9734 9.09407
49.0226 9.07457
49.0715 9.05378
49.1206 9.00287
49.1696 8.93306
49.2188 8.93448
49.2679 8.87656
49.3169 8.84446
49.3661 8.8048
49.4151 8.79354
49.4643 8.74344
49.5134 8.72307
49.5626 8.65284
49.6117 8.66628
49.6609 8.60182
49.71 8.57113
49.7592 8.5626
49.8083 8.50775
49.8576 8.50762
49.9067 8.46433
49.956 8.39278
50.0052 8.38644
50.0545 8.36451
50.1036 8.32737
50.153 8.28641
50.2022 8.2397
50.2515 8.23409
50.3007 8.16977
50.3501 8.17527
50.3993 8.13287
50.4487 8.11281
50.498 8.06994
50.5474 8.01281
50.5966 8.01169
50.6461 7.98487
50.6955 7.96176
50.7448 7.91054
50.7943 7.88878
50.8436 7.86781
50.8931 7.83876
50.9424 7.77222
50.9919 7.7624
51.0413 7.73549
51.0908 7.69663
51.1402 7.69557
51.1897 7.62498
51.2391 7.60292
51.2887 7.58261
51.3381 7.50651
51.3877 7.51186
51.4371 7.4778
51.4867 7.44447
51.5362 7.40608
51.5858 7.39323
51.6353 7.34834
51.6849 7.32482
51.7344 7.32771
51.7841 7.26727
51.8336 7.26963
51.8833 7.21571
51.9328 7.14973
51.9826 7.18081
52.0323 7.16289
52.0818 7.10489
52.1316 7.07024
52.1812 7.06174
52.231 7.01411
52.2806 6.95172
52.3304 6.96647
52.38 6.94253
52.4298 6.89979
52.4794 6.87707
52.5293 6.84881
52.5789 6.7904
52.6288 6.79539
52.6785 6.70449
52.7284 6.74899
52.7781 6.73346
52.828 6.68059
52.8777 6.61695
52.9276 6.63232
52.9774 6.60893
53.0273 6.55659
53.0771 6.52394
53.1271 6.53789
53.1769 6.53513
53.2269 6.44363
53.2767 6.39544
53.3267 6.41659
53.3765 6.38461
53.4266 6.34266
53.4766 6.35028
53.5265 6.27409
53.5765 6.24732
53.6264 6.23584
53.6765 6.19825
53.7264 6.16247
53.7765 6.14329
53.8265 6.14202
53.8766 6.09374
53.9266 6.10359
53.9767 6.03846
54.0267 6.01864
54.0769 5.99415
54.1269 5.96778
54.1771 5.90629
54.2271 5.89771
54.2773 5.88802
54.3274 5.84801
54.3776 5.76771
54.4277 5.76571
54.478 5.74355
54.528 5.69733
54.5783 5.66449
54.6285 5.63415
54.6788 5.58072
54.7289 5.54656
54.7792 5.4864
54.8296 5.42257
54.8798 5.45168
54.9301 5.36104
54.9803 5.38715
55.0307 5.36144
55.0809 5.2518
55.1314 5.28912
55.1816 5.22717
55.232 5.17525
55.2823 5.09007
55.3328 5.0413
55.383 5.00476
55.4335 5.00197
55.4838 4.85122
55.5344 4.85203
55.5847 4.84569
55.6352 4.80066
55.6856 4.72396
55.7361 4.79709