File: XRD/Ni3Fe_FD0060.xy
TT I
1.27165 32.3936
1.31627 29.8764
1.36089 29.4695
1.40551 26.4221
1.45013 26.2378
1.49476 24.6515
1.53938 23.7581
1.584 23.4796
1.62863 22.9666
1.67325 21.9677
1.71787 21.8361
1.7625 20.4491
1.80712 21.2369
1.85174 20.7719
1.89636 20.5274
1.94099 20.2351
1.98562 20.0609
2.03025 20.0212
2.07487 20.1757
2.11949 20.1281
2.16411 20.0508
2.20874 20.0409
2.25338 19.8169
2.298 20.7041
2.34263 20.3107
2.38725 20.0741
2.43188 21.2709
2.4765 20.6028
2.52115 21.0108
2.56577 21.6726
2.6104 23.6806
2.65503 24.3836
2.69965 25.5681
2.7443 26.9847
2.78893 29.0122
2.83356 32.4816
2.87818 35.2072
2.92281 40.2333
2.96744 45.9023
3.01209 54.825
3.05672 63.2051
3.10135 72.8477
3.14599 75.1167
3.19062 72.1512
3.23527 63.899
3.2799 53.1227
3.32454 44.3083
3.36917 38.0753
3.4138 33.4303
3.45844 30.1697
3.50309 28.5261
3.54773 27.1381
3.59237 26.6752
3.637 26.132
3.68164 25.4921
3.7263 25.8823
3.77094 25.1926
3.81558 25.8804
3.86022 25.877
3.90486 26.6144
3.9495 26.5306
3.99416 27.6869
4.0388 28.0939
4.08344 29.1192
4.12809 29.3746
4.17273 30.7669
4.21738 32.1015
4.26204 33.8934
4.30669 37.693
4.35133 41.1442
4.39598 39.6691
4.44063 37.8994
4.4853 38.0136
4.52995 38.9305
4.5746 39.9797
4.61925 42.2445
4.6639 43.4119
4.70855 46.1428
4.75322 49.1167
4.79788 51.9105
4.84253 55.7955
4.88719 62.1287
4.93184 70.1595
4.97652 84.3587
5.02118 105.245
5.06583 122.608
5.11049 144.063
5.15515 193.036
5.19981 333.521
5.24449 784.958
5.28916 1794.94
5.33382 4215.67
5.37848 2843.01
5.42315 703.963
5.46783 284.868
5.5125 187.686
5.55716 148.54
5.60183 125.354
5.6465 115.296
5.69117 110.299
5.73586 104.097
5.78053 101.769
5.8252 102.738
5.86988 108.997
5.91455 121.31
5.95924 146.214
6.00392 208.66
6.0486 356.878
6.09328 608.393
6.13795 1103.1
6.18263 1033.62
6.22733 438.105
6.27201 201.656
6.3167 123.792
6.36138 89.4775
6.40606 72.278
6.45075 63.8979
6.49545 57.9005
6.54014 53.5679
6.58483 49.8867
6.62952 48.3122
6.67421 46.0244
6.71892 44.836
6.76361 43.8521
6.8083 42.2905
6.853 42.1505
6.89769 41.5681
6.94239 41.364
6.98711 41.9036
7.03181 42.7942
7.07651 45.6458
7.12121 45.8712
7.16591 43.508
7.21063 41.0314
7.25533 40.1274
7.30004 40.2793
7.34475 39.8019
7.38945 40.6316
7.43416 40.4982
7.47889 43.7077
7.5236 64.81
7.56831 182.328
7.61303 156.369
7.65774 59.7107
7.70247 43.8809
7.74719 40.5464
7.79191 39.6586
7.83663 39.2875
7.88135 39.4894
7.92607 40.0933
7.97081 40.3857
8.01553 41.0096
8.06026 41.595
8.10498 42.2979
8.14971 43.959
8.19446 45.2252
8.23919 47.4486
8.28392 50.6946
8.32865 53.5185
8.37339 57.0806
8.41812 61.0609
8.46288 69.5278
8.50761 88.2296
8.55235 135.409
8.59709 196.532
8.64183 299.42
8.68658 625.591
8.73134 689.743
8.77609 311.839
8.82083 149.064
8.86558 99.5593
8.91033 82.3978
8.9551 74.2768
8.99985 70.2957
9.04461 67.6608
9.08936 66.3181
9.13412 66.4554
9.17888 71.248
9.22365 100.993
9.26841 282.923
9.31318 301.658
9.35794 107.902
9.4027 69.6486
9.44749 62.807
9.49226 59.773
9.53703 59.0901
9.5818 58.7305
9.62657 58.8039
9.67134 58.9961
9.71614 60.2445
9.76091 61.0494
9.80569 63.1758
9.85047 65.825
9.89525 70.0737
9.94005 76.824
9.98484 91.9287
10.0296 130.232
10.0744 174.09
10.1192 222.137
10.164 400.445
10.2088 703.283
10.2536 537.747
10.2984 231.566
10.3432 131.863
10.388 95.8767
10.4328 84.4436
10.4776 87.591
10.5224 94.375
10.5672 101.7
10.612 142.409
10.6568 238.602
10.7017 254.525
10.7465 176.62
10.7913 89.9784
10.8361 62.8407
10.8809 55.9905
10.9257 52.4157
10.9706 50.5819
11.0154 48.5932
11.0602 46.9935
11.105 46.0509
11.1499 45.0931
11.1947 45.315
11.2395 44.3757
11.2844 43.6823
11.3292 42.7605
11.374 42.0483
11.4189 41.535
11.4637 41.1481
11.5086 40.7002
11.5534 40.299
11.5983 40.325
11.6431 40.4553
11.688 40.0859
11.7328 40.4656
11.7777 40.6658
11.8225 40.8179
11.8674 41.9576
11.9122 46.5294
11.9571 74.2699
12.002 116.26
12.0468 82.915
12.0917 53.0613
12.1366 50.2363
12.1814 51.6844
12.2263 56.3332
12.2712 69.3292
12.3161 86.5861
12.3609 79.5856
12.4058 60.1956
12.4507 49.6447
12.4956 45.3375
12.5405 42.5836
12.5853 41.5052
12.6302 40.7657
12.6751 40.7256
12.72 40.6062
12.7649 41.2016
12.8098 41.4884
12.8547 41.9814
12.8996 42.7275
12.9445 43.2982
12.9894 44.5974
13.0343 45.9214
13.0792 49.8194
13.1242 60.8936
13.1691 69.0206
13.214 67.746
13.2589 70.1401
13.3038 74.9583
13.3487 93.5962
13.3937 140.903
13.4386 188.027
13.4835 153.48
13.5285 102.378
13.5734 85.0662
13.6183 79.3279
13.6633 80.5419
13.7082 100.469
13.7531 148.213
13.7981 175.03
13.843 121.339
13.888 77.1203
13.9329 60.3538
13.9779 54.3374
14.0228 51.1813
14.0678 49.915
14.1127 52.1646
14.1577 70.6219
14.2027 103.116
14.2476 85.4446
14.2926 54.6164
14.3376 47.0468
14.3825 44.6283
14.4275 43.6191
14.4725 43.1423
14.5175 42.8524
14.5624 42.4269
14.6074 42.4501
14.6524 42.538
14.6974 42.6081
14.7424 43.1889
14.7874 44.3026
14.8324 47.0776
14.8774 50.4549
14.9224 52.306
14.9674 54.7477
15.0124 62.6172
15.0574 82.6768
15.1024 106.033
15.1474 97.2658
15.1924 72.9946
15.2374 56.4078
15.2824 48.2699
15.3274 44.6594
15.3725 43.1799
15.4175 42.6253
15.4625 42.0101
15.5076 41.7291
15.5526 41.5711
15.5976 41.582
15.6426 41.655
15.6877 42.4697
15.7327 44.4122
15.7778 46.9795
15.8228 48.6559
15.8679 50.3168
15.9129 55.0528
15.958 68.2089
16.003 90.0413
16.0481 99.7507
16.0931 87.9786
16.1382 72.1379
16.1833 53.9755
16.2283 43.7092
16.2734 40.3263
16.3185 38.4515
16.3636 37.3621
16.4086 36.7194
16.4537 36.1817
16.4988 35.6916
16.5439 35.2767
16.589 35.1849
16.6341 34.9314
16.6792 34.5519
16.7243 34.6423
16.7694 34.4796
16.8145 34.38
16.8596 34.5915
16.9047 35.4251
16.9498 39.2053
16.9949 43.1608
17.04 40.9004
17.0851 36.4698
17.1302 35.6246
17.1754 36.0947
17.2205 36.4421
17.2656 36.6219
17.3108 37.3824
17.3559 38.7972
17.401 42.3745
17.4462 46.9185
17.4913 46.708
17.5365 42.1047
17.5815 38.8357
17.6268 37.5275
17.6718 37.1329
17.7171 37.4577
17.7622 39.2818
17.8074 43.1554
17.8525 44.7333
17.8977 42.0849
17.9428 41.6156
17.9881 42.7341
18.0331 43.5526
18.0784 44.2503
18.1237 46.8013
18.1688 53.0045
18.214 65.5672
18.2591 78.552
18.3044 74.4568
18.3495 60.0517
18.3948 52.0696
18.4399 51.8269
18.4852 56.9478
18.5303 62.0566
18.5756 58.3
18.6207 52.0395
18.666 46.3664
18.7112 41.5346
18.7565 38.8921
18.8016 38.2003
18.8469 37.4378
18.892 37.0357
18.9374 36.7731
18.9825 36.429
19.0278 35.8581
19.073 35.982
19.1183 35.8835
19.1635 35.9242
19.2088 36.4627
19.254 37.0171
19.2993 37.9794
19.3447 42.1253
19.3898 47.4538
19.4352 47.3803
19.4804 44.4852
19.5257 44.4909
19.5709 42.792
19.6163 39.4574
19.6615 36.8244
19.7068 35.0228
19.752 34.4058
19.7974 34.0746
19.8426 33.805
19.888 33.5961
19.9332 33.7281
19.9786 34.01
20.0238 33.9887
20.0692 34.3966
20.1144 34.8409
20.1598 36.2224
20.205 38.6685
20.2504 41.4525
20.2957 41.3497
20.3411 38.6754
20.3863 37.0623
20.4318 37.6753
20.477 39.5498
20.5224 39.5144
20.5677 36.8839
20.6131 34.3908
20.6586 33.0434
20.7038 32.429
20.7493 32.1885
20.7945 33.5188
20.84 35.1908
20.8853 34.6348
20.9307 32.4677
20.976 31.2294
21.0215 30.7774
21.0668 30.7125
21.1122 30.5978
21.1575 30.49
21.203 30.46
21.2483 30.4027
21.2938 30.6988
21.3391 31.0295
21.3846 31.623
21.4299 32.187
21.4754 32.0622
21.5207 31.7881
21.5662 31.5384
21.6116 31.1089
21.6571 30.6141
21.7024 30.8526
21.7479 31.3503
21.7933 31.5201
21.8388 31.7169
21.8843 32.1122
21.9297 32.7347
21.9752 34.0982
22.0206 36.2463
22.0661 38.7637
22.1115 39.7651
22.157 38.81
22.2024 37.9331
22.248 37.1736
22.2933 36.3597
22.3389 35.2524
22.3843 33.6369
22.4299 32.3727
22.4753 31.6107
22.5208 31.1377
22.5662 30.8532
22.6118 30.8764
22.6572 30.7636
22.7028 30.8286
22.7483 31.0702
22.7939 31.4593
22.8393 32.1841
22.8849 32.6435
22.9303 32.0343
22.9759 31.7837
23.0214 32.0816
23.067 33.2185
23.1126 34.9068
23.1581 36.3121
23.2037 35.8858
23.2492 33.9499
23.2948 32.2357
23.3403 31.6806
23.3859 31.7417
23.4314 32.3615
23.477 33.2289
23.5225 33.6585
23.5682 32.6813
23.6137 32.3128
23.6593 32.5559
23.7048 33.9458
23.7505 35.6514
23.796 36.41
23.8417 34.7353
23.8872 32.4553
23.9329 30.9357
23.9784 30.1271
24.0241 29.6212
24.0697 29.5835
24.1154 29.3898
24.1609 29.1008
24.2066 28.6641
24.2522 28.4271
24.2979 28.1925
24.3434 28.0075
24.3892 27.8334
24.4349 27.9025
24.4805 27.6269
24.5262 27.6739
24.5718 27.5445
24.6175 27.5873
24.6631 28.0501
24.7089 28.4489
24.7545 28.4921
24.8002 27.7869
24.8458 27.4561
24.8916 27.0204
24.9372 26.9777
24.983 27.0553
25.0286 27.0003
25.0744 26.964
25.12 26.9485
25.1658 27.0855
25.2114 27.229
25.2572 27.504
25.3029 27.972
25.3487 28.2387
25.3943 28.3169
25.4402 28.17
25.4858 28.3255
25.5316 28.6123
25.5773 28.6612
25.6231 28.1078
25.669 27.1185
25.7147 26.6861
25.7605 26.493
25.8062 26.3955
25.8521 26.6381
25.8977 26.6687
25.9436 26.5763
25.9893 26.0488
26.0352 26.1345
26.0809 25.8353
26.1268 25.8341
26.1725 26.0627
26.2184 26.2194
26.2641 26.5375
26.31 26.8516
26.3557 26.6213
26.4017 26.3075
26.4474 26.2111
26.4933 25.9561
26.5391 25.845
26.585 25.8365
26.6308 25.8119
26.6767 25.8727
26.7225 26.1141
26.7684 26.3717
26.8142 26.8912
26.8601 27.3128
26.9059 27.2058
26.9519 27.1424
26.9979 27.1533
27.0437 26.9758
27.0896 26.4118
27.1354 25.9084
27.1814 25.5475
27.2272 25.3831
27.2732 25.2087
27.3191 24.9156
27.3651 25.0385
27.4109 24.7985
27.4569 24.8913
27.5027 24.8655
27.5488 24.9562
27.5946 24.9038
27.6407 24.852
27.6865 24.8748
27.7326 24.9773
27.7784 24.9326
27.8245 24.6441
27.8703 24.5756
27.9164 24.586
27.9623 24.5369
28.0084 24.6486
28.0543 24.9196
28.1003 24.9926
28.1462 24.9871
28.1923 25.1004
28.2384 25.019
28.2843 25.3221
28.3304 25.2144
28.3764 24.9575
28.4225 24.6782
28.4684 24.7239
28.5145 24.2246
28.5605 24.0225
28.6066 23.8165
28.6526 23.6104
28.6987 23.3834
28.7447 23.2391
28.7908 23.0327
28.8368 23.0508
28.8829 22.8652
28.9289 22.8967
28.9751 22.829
29.0211 22.76
29.0673 22.8095
29.1133 22.9235
29.1595 22.7506
29.2055 22.6314
29.2517 22.4508
29.2977 22.3682
29.3439 22.1818
29.3899 22.1196
29.4361 22.0051
29.4824 22.0029
29.5284 22.0748
29.5746 22.1237
29.6207 21.9933
29.6669 22.0008
29.713 21.7752
29.7593 21.7084
29.8053 21.5955
29.8516 21.5125
29.8977 21.4166
29.9439 21.3091
29.99 21.3295
30.0363 21.2903
30.0824 21.3885
30.1287 21.3722
30.1748 21.2942
30.2211 21.2143
30.2673 21.0165
30.3136 21.0481
30.3597 21.0558
30.406 21.0504
30.4522 20.9857
30.4985 20.9748
30.5447 20.9247
30.591 20.8484
30.6372 20.8068
30.6835 20.6818
30.7297 20.7552
30.7761 20.853
30.8224 20.8817
30.8686 21.0165
30.915 20.8678
30.9612 21.1163
31.0076 20.9594
31.0538 20.9228
31.1002 20.8682
31.1464 20.7632
31.1928 20.576
31.2391 20.4822
31.2855 20.3942
31.3317 20.3089
31.3781 20.2601
31.4244 20.1951
31.4708 20.0955
31.5171 20.0778
31.5636 20.262
31.6098 20.1991
31.6563 20.1434
31.7026 20.1582
31.7491 20.118
31.7953 20.0466
31.8418 19.983
31.8881 19.938
31.9346 19.7888
31.9809 19.7375
32.0275 19.8131
32.074 19.7422
32.1203 19.6926
32.1668 19.7406
32.2132 19.7389
32.2597 19.6626
32.306 19.644
32.3526 19.3851
32.399 19.3316
32.4455 19.1994
32.4919 19.1222
32.5385 19.0798
32.5848 18.9702
32.6314 18.9311
32.6778 18.9273
32.7244 18.7621
32.7708 18.682
32.8174 18.7007
32.8638 18.59
32.9104 18.6662
32.9569 18.6532
33.0035 18.5469
33.0499 18.5206
33.0966 18.4191
33.143 18.4017
33.1897 18.2185
33.2361 18.2283
33.2828 18.2837
33.3293 18.1391
33.3759 18.2237
33.4226 18.1693
33.4691 18.1397
33.5158 18.0717
33.5623 18.0827
33.609 17.9426
33.6555 17.8354
33.7022 17.8183
33.7487 17.6426
33.7954 17.5406
33.842 17.5011
33.8887 17.4859
33.9353 17.4513
33.982 17.4221
34.0286 17.4543
34.0753 17.3726
34.1219 17.2496
34.1687 17.2617
34.2152 17.1358
34.262 17.0923
34.3086 17.0294
34.3554 17.0311
34.402 16.8724
34.4488 16.7872
34.4954 16.8286
34.5422 16.77
34.5889 16.766
34.6357 16.6764
34.6825 16.5749
34.7292 16.6015
34.776 16.4315
34.8227 16.4863
34.8695 16.4733
34.9162 16.3645
34.9631 16.2394
35.0098 16.2797
35.0566 16.2541
35.1033 16.151
35.1502 16.1183
35.1969 16.1234
35.2438 16.1012
35.2906 16.0921
35.3375 16.0039
35.3842 15.891
35.4311 15.9421
35.4779 15.8975
35.5248 15.9038
35.5716 15.8089
35.6185 15.814
35.6653 15.8331
35.7123 15.8043
35.759 15.8135
35.806 15.7687
35.8528 15.6707
35.8998 15.5997
35.9468 15.5662
35.9936 15.4839
36.0406 15.4551
36.0874 15.4314
36.1345 15.3445
36.1813 15.2519
36.2283 15.2395
36.2752 15.1376
36.3222 15.2036
36.3691 15.1771
36.4161 15.0284
36.463 15.0475
36.5101 15.0966
36.557 15.008
36.6041 14.8727
36.651 14.8698
36.6981 14.8155
36.745 14.771
36.7921 14.718
36.839 14.7422
36.8861 14.6648
36.9331 14.6745
36.9802 14.5962
37.0272 14.5078
37.0743 14.4948
37.1213 14.4832
37.1684 14.4281
37.2154 14.343
37.2626 14.3122
37.3098 14.243
37.3568 14.2341
37.404 14.219
37.451 14.1293
37.4982 14.0471
37.5452 14.0548
37.5924 14.0116
37.6395 13.9478
37.6867 13.9326
37.7337 13.7809
37.781 13.8401
37.8281 13.7632
37.8753 13.7334
37.9224 13.6131
37.9697 13.6486
38.0168 13.6023
38.064 13.5411
38.1111 13.5938
38.1584 13.4966
38.2056 13.438
38.2529 13.435
38.3 13.3511
38.3473 13.2971
38.3945 13.3049
38.4418 13.2554
38.489 13.2338
38.5363 13.18
38.5837 13.1331
38.6309 13.1316
38.6782 13.0448
38.7254 12.9822
38.7728 13.0141
38.82 12.9133
38.8674 12.8944
38.9146 12.8463
38.9621 12.7838
39.0093 12.8482
39.0567 12.7585
39.104 12.7311
39.1514 12.6685
39.1987 12.6458
39.2461 12.6187
39.2934 12.5576
39.3409 12.4715
39.3882 12.4634
39.4356 12.4409
39.483 12.3504
39.5304 12.3094
39.5778 12.3369
39.6253 12.3234
39.6726 12.259
39.7201 12.1716
39.7675 12.1651
39.815 12.078
39.8624 12.0373
39.9099 12.0691
39.9575 12.003
40.0049 11.9497
40.0525 11.9633
40.0999 11.8602
40.1474 11.8886
40.1949 11.8103
40.2425 11.8147
40.2899 11.8165
40.3375 11.7653
40.385 11.6853
40.4326 11.7363
40.48 11.6473
40.5277 11.6613
40.5752 11.5814
40.6228 11.5182
40.6703 11.5269
40.718 11.4323
40.7655 11.4415
40.8132 11.41
40.8607 11.3787
40.9084 11.3311
40.9559 11.3289
41.0036 11.3063
41.0512 11.2552
41.0989 11.2466
41.1465 11.1789
41.1942 11.1415
41.242 11.1498
41.2896 11.0999
41.3373 11.0502
41.3849 11.0517
41.4327 10.9807
41.4803 10.9142
41.5281 10.8914
41.5758 10.8327
41.6236 10.8047
41.6712 10.7476
41.7191 10.7054
41.7667 10.709
41.8146 10.7185
41.8622 10.62
41.9101 10.6527
41.9578 10.5566
42.0057 10.5592
42.0534 10.4919
42.1013 10.5139
42.149 10.4467
42.1969 10.4133
42.2446 10.3328
42.2925 10.3301
42.3403 10.3279
42.3882 10.3086
42.436 10.2205
42.4839 10.2404
42.5319 10.1714
42.5797 10.1665
42.6277 10.1116
42.6755 10.0855
42.7235 10.0575
42.7713 10.017
42.8193 10.0106
42.8671 9.94976
42.9152 9.92937
42.963 9.86529
43.0111 9.80502
43.0589 9.78685
43.107 9.82406
43.1549 9.72723
43.2029 9.70989
43.2508 9.67498
43.2989 9.65457
43.3468 9.60255
43.3949 9.58793
43.4429 9.57553
43.491 9.53259
43.5389 9.49314
43.5871 9.41939
43.635 9.39453
43.6832 9.38074
43.7312 9.32241
43.7793 9.31846
43.8273 9.32644
43.8755 9.25619
43.9237 9.23132
43.9717 9.24411
44.0199 9.15664
44.068 9.15714
44.1162 9.11027
44.1642 9.10695
44.2125 8.99456
44.2606 9.02976
44.3088 8.97078
44.3569 8.96728
44.4052 8.95691
44.4533 8.93133
44.5016 8.88102
44.5497 8.82712
44.598 8.81381
44.6461 8.79869
44.6945 8.75643
44.7426 8.73451
44.791 8.70875
44.8391 8.70269
44.8875 8.64178
44.9357 8.61701
44.984 8.56316
45.0322 8.56107
45.0806 8.51526
45.1288 8.53561
45.1773 8.46973
45.2257 8.44594
45.2739 8.4091
45.3224 8.39471
45.3706 8.35053
45.4191 8.35188
45.4673 8.32903
45.5158 8.27897
45.5641 8.24552
45.6126 8.23328
45.6609 8.20094
45.7094 8.18601
45.7577 8.12741
45.8063 8.11813
45.8546 8.11068
45.9031 8.08918
45.9515 7.99899
46.0001 8.00319
46.0484 7.92838
46.097 7.95763
46.1454 7.95765
46.194 7.9062
46.2424 7.8615
46.291 7.84587
46.3395 7.81497
46.3881 7.73472
46.4365 7.79395
46.4852 7.72112
46.5337 7.69403
46.5823 7.6629
46.631 7.64028
46.6795 7.57518
46.7282 7.61276
46.7767 7.56306
46.8254 7.54056
46.8739 7.49049
46.9226 7.43537
46.9712 7.43985
47.0199 7.4529
47.0685 7.42164
47.1173 7.3373
47.1658 7.33236
47.2146 7.31116
47.2632 7.29307
47.312 7.26528
47.3606 7.2379
47.4095 7.18809
47.4581 7.1899
47.5069 7.11643
47.5556 7.14522
47.6044 7.11983
47.6531 7.07686
47.702 7.05939
47.7507 7.03696
47.7996 7.00161
47.8483 6.98784
47.8972 6.96574
47.9461 6.95225
47.9948 6.89653
48.0438 6.89088
48.0925 6.86396
48.1415 6.85606
48.1902 6.78906
48.2392 6.81766
48.288 6.7769
48.337 6.739
48.3858 6.72778
48.4348 6.73423
48.4837 6.68449
48.5327 6.65231
48.5815 6.63323
48.6306 6.60402
48.6795 6.60002
48.7285 6.54448
48.7774 6.51316
48.8265 6.52608
48.8754 6.46968
48.9245 6.49239
48.9734 6.4478
49.0226 6.43848
49.0715 6.38896
49.1206 6.37493
49.1696 6.35528
49.2188 6.32182
49.2679 6.28733
49.3169 6.26458
49.3661 6.23985
49.4151 6.26012
49.4643 6.23178
49.5134 6.17474
49.5626 6.1331
49.6117 6.15833
49.6609 6.11904
49.71 6.10979
49.7592 6.06149
49.8083 6.03493
49.8576 6.05506
49.9067 6.00382
49.956 5.98636
50.0052 5.96655
50.0545 5.99229
50.1036 5.90831
50.153 5.95181
50.2022 5.89768
50.2515 5.87094
50.3007 5.78145
50.3501 5.83387
50.3993 5.80746
50.4487 5.76051
50.498 5.7409
50.5474 5.75432
50.5966 5.71057
50.6461 5.67616
50.6955 5.66544
50.7448 5.67067
50.7943 5.63631
50.8436 5.61918
50.8931 5.59855
50.9424 5.5819
50.9919 5.56663
51.0413 5.51531
51.0908 5.49712
51.1402 5.52311
51.1897 5.47115
51.2391 5.46395
51.2887 5.42945
51.3381 5.38258
51.3877 5.33356
51.4371 5.37723
51.4867 5.35116
51.5362 5.32075
51.5858 5.30765
51.6353 5.2765
51.6849 5.26666
51.7344 5.21418
51.7841 5.22772
51.8336 5.18568
51.8833 5.17212
51.9328 5.15672
51.9826 5.12685
52.0323 5.10524
52.0818 5.07922
52.1316 5.07466
52.1812 5.06282
52.231 5.05703
52.2806 5.02108
52.3304 5.00745
52.38 4.97499
52.4298 4.97351
52.4794 4.92279
52.5293 4.94249
52.5789 4.91444
52.6288 4.87286
52.6785 4.83971
52.7284 4.84229
52.7781 4.83808
52.828 4.82877
52.8777 4.76778
52.9276 4.77257
52.9774 4.73741
53.0273 4.74068
53.0771 4.74146
53.1271 4.73244
53.1769 4.64701
53.2269 4.65869
53.2767 4.63942
53.3267 4.61299
53.3765 4.60512
53.4266 4.59542
53.4766 4.54889
53.5265 4.53479
53.5765 4.51053
53.6264 4.49225
53.6765 4.47846
53.7264 4.46014
53.7765 4.45019
53.8265 4.42662
53.8766 4.383
53.9266 4.37408
53.9767 4.3288
54.0267 4.33882
54.0769 4.33211
54.1269 4.28978
54.1771 4.2422
54.2271 4.21873
54.2773 4.19783
54.3274 4.16909
54.3776 4.1175
54.4277 4.12132
54.478 4.04533
54.528 4.06938
54.5783 4.04282
54.6285 4.01157
54.6788 3.99947
54.7289 3.92196
54.7792 3.88932
54.8296 3.89051
54.8798 3.77883
54.9301 3.7923
54.9803 3.80221
55.0307 3.74373
55.0809 3.71611
55.1314 3.74241
55.1816 3.65834
55.232 3.64295
55.2823 3.61296
55.3328 3.55318
55.383 3.46453
55.4335 3.46046
55.4838 3.47681
55.5344 3.40588
55.5847 3.34959
55.6352 3.40611
55.6856 3.33461
55.7361 3.31214