File: XRD/Ni3Fe_FD1035.xy
TT I
1.27165 6.96217
1.31627 6.43031
1.36089 6.33592
1.40551 5.61598
1.45013 5.78779
1.49476 5.63944
1.53938 5.97103
1.584 5.13798
1.62863 4.99329
1.67325 5.01738
1.71787 4.51798
1.7625 4.25643
1.80712 4.36157
1.85174 4.38748
1.89636 4.68847
1.94099 4.26835
1.98562 4.45922
2.03025 4.12016
2.07487 4.45341
2.11949 4.6429
2.16411 4.26929
2.20874 5.12825
2.25338 6.20807
2.298 5.52153
2.34263 5.23409
2.38725 5.92967
2.43188 6.49088
2.4765 7.15973
2.52115 7.25254
2.56577 8.53144
2.6104 7.87336
2.65503 8.2532
2.69965 8.76664
2.7443 8.84248
2.78893 8.22119
2.83356 8.31631
2.87818 9.33599
2.92281 9.33678
2.96744 9.26226
3.01209 10.1325
3.05672 10.6928
3.10135 11.8012
3.14599 12.7441
3.19062 14.5752
3.23527 14.5096
3.2799 15.4037
3.32454 16.5838
3.36917 17.2317
3.4138 17.8863
3.45844 18.6523
3.50309 19.6481
3.54773 20.2122
3.59237 21.0999
3.637 27.7833
3.68164 27.1362
3.7263 24.16
3.77094 24.5937
3.81558 25.3434
3.86022 26.1836
3.90486 27.3188
3.9495 28.0905
3.99416 29.3652
4.0388 30.4772
4.08344 31.7129
4.12809 32.346
4.17273 33.5212
4.21738 35.5996
4.26204 52.3678
4.30669 57.0786
4.35133 41.2409
4.39598 41.0425
4.44063 43.5991
4.4853 46.1896
4.52995 46.5052
4.5746 48.8666
4.61925 50.6356
4.6639 52.771
4.70855 55.4322
4.75322 57.8526
4.79788 60.8633
4.84253 64.0822
4.88719 67.9008
4.93184 71.8513
4.97652 77.1285
5.02118 83.2578
5.06583 89.1263
5.11049 98.0082
5.15515 118.213
5.19981 231.183
5.24449 2450.95
5.28916 13529.0
5.33382 3304.67
5.37848 218.079
5.42315 124.383
5.46783 108.536
5.5125 101.257
5.55716 97.367
5.60183 93.0522
5.6465 91.106
5.69117 89.7522
5.73586 87.4015
5.78053 86.5491
5.8252 86.0582
5.86988 86.6399
5.91455 88.7725
5.95924 94.834
6.00392 162.954
6.0486 873.998
6.09328 4602.68
6.13795 3549.15
6.18263 239.716
6.22733 87.927
6.27201 75.7704
6.3167 73.1787
6.36138 68.8745
6.40606 65.0774
6.45075 63.1486
6.49545 61.8438
6.54014 60.2287
6.58483 58.7003
6.62952 58.2718
6.67421 58.7906
6.71892 64.2676
6.76361 56.7336
6.8083 54.5674
6.853 53.6094
6.89769 53.3538
6.94239 53.699
6.98711 52.6639
7.03181 51.9295
7.07651 52.2629
7.12121 51.9589
7.16591 51.6674
7.21063 50.9065
7.25533 51.7474
7.30004 62.2076
7.34475 56.1885
7.38945 51.8763
7.43416 50.9048
7.47889 51.4884
7.5236 60.1833
7.56831 77.465
7.61303 57.5945
7.65774 53.1179
7.70247 52.9412
7.74719 53.4013
7.79191 53.6895
7.83663 53.6544
7.88135 54.8613
7.92607 55.6326
7.97081 56.6461
8.01553 57.9763
8.06026 59.2087
8.10498 60.1528
8.14971 62.1353
8.19446 63.7992
8.23919 65.4062
8.28392 68.3332
8.32865 70.1061
8.37339 74.2007
8.41812 77.3903
8.46288 86.2278
8.50761 127.891
8.55235 362.526
8.59709 1073.77
8.64183 2260.95
8.68658 1112.89
8.73134 176.945
8.77609 95.0538
8.82083 88.0658
8.86558 85.5319
8.91033 83.6039
8.9551 82.2886
8.99985 80.821
9.04461 79.972
9.08936 79.5557
9.13412 79.2174
9.17888 79.2585
9.22365 93.1491
9.26841 119.001
9.31318 90.9567
9.35794 80.1914
9.4027 79.7177
9.44749 80.3692
9.49226 81.344
9.53703 81.5313
9.5818 82.9882
9.62657 84.2781
9.67134 86.6625
9.71614 87.2324
9.76091 88.9369
9.80569 91.508
9.85047 93.7035
9.89525 98.5612
9.94005 105.659
9.98484 146.07
10.0296 340.792
10.0744 762.682
10.1192 1751.05
10.164 1675.6
10.2088 440.148
10.2536 125.611
10.2984 103.115
10.3432 100.599
10.388 97.5884
10.4328 107.218
10.4776 158.549
10.5224 265.759
10.5672 507.033
10.612 543.806
10.6568 225.609
10.7017 105.551
10.7465 86.6446
10.7913 79.6645
10.8361 77.7089
10.8809 75.0966
10.9257 73.3676
10.9706 72.4399
11.0154 70.5076
11.0602 68.9969
11.105 68.0696
11.1499 66.9475
11.1947 67.3869
11.2395 65.3914
11.2844 64.9163
11.3292 63.5974
11.374 63.0805
11.4189 62.4532
11.4637 61.8354
11.5086 61.148
11.5534 61.175
11.5983 60.7597
11.6431 60.5446
11.688 59.8874
11.7328 60.0407
11.7777 59.8715
11.8225 59.3592
11.8674 59.8829
11.9122 62.1817
11.9571 69.2735
12.002 67.4947
12.0468 64.5285
12.0917 76.1674
12.1366 98.3724
12.1814 147.372
12.2263 207.592
12.2712 177.676
12.3161 96.3202
12.3609 64.3098
12.4058 61.07
12.4507 61.1722
12.4956 61.0575
12.5405 61.208
12.5853 61.567
12.6302 62.4198
12.6751 64.038
12.72 63.7854
12.7649 64.3942
12.8098 65.0527
12.8547 66.1785
12.8996 67.67
12.9445 69.2284
12.9894 70.786
13.0343 72.4918
13.0792 76.4383
13.1242 82.5485
13.1691 106.565
13.214 145.602
13.2589 225.695
13.3038 363.12
13.3487 440.29
13.3937 278.185
13.4386 126.863
13.4835 98.7548
13.5285 118.726
13.5734 154.487
13.6183 235.203
13.6633 353.842
13.7082 362.317
13.7531 207.078
13.7981 100.253
13.843 79.4852
13.888 76.9947
13.9329 74.5051
13.9779 73.4722
14.0228 72.0447
14.0678 70.6782
14.1127 72.0536
14.1577 76.2052
14.2027 74.184
14.2476 68.9988
14.2926 67.2563
14.3376 67.19
14.3825 66.7607
14.4275 66.1686
14.4725 66.138
14.5175 66.113
14.5624 66.1031
14.6074 66.5116
14.6524 66.9114
14.6974 67.3001
14.7424 68.5266
14.7874 74.2741
14.8324 87.855
14.8774 108.776
14.9224 146.688
14.9674 208.0
15.0124 228.376
15.0574 160.507
15.1024 93.3212
15.1474 70.9176
15.1924 67.8395
15.2374 66.2983
15.2824 65.7256
15.3274 64.942
15.3725 64.3995
15.4175 63.9568
15.4625 63.5346
15.5076 63.1518
15.5526 63.4064
15.5976 63.3024
15.6426 63.6966
15.6877 68.4334
15.7327 78.7261
15.7778 93.2449
15.8228 121.204
15.8679 168.352
15.9129 200.851
15.958 166.616
16.003 102.466
16.0481 69.3812
16.0931 63.3694
16.1382 59.984
16.1833 58.0906
16.2283 56.8593
16.2734 56.3196
16.3185 55.4662
16.3636 55.0457
16.4086 54.4133
16.4537 53.7841
16.4988 53.2176
16.5439 53.0974
16.589 52.9319
16.6341 52.7743
16.6792 52.2385
16.7243 52.6406
16.7694 52.5604
16.8145 52.7187
16.8596 52.7858
16.9047 53.5882
16.9498 54.3839
16.9949 53.7632
17.04 53.7073
17.0851 54.5748
17.1302 56.8134
17.1754 59.8335
17.2205 64.4787
17.2656 72.1845
17.3108 81.4881
17.3559 82.5183
17.401 71.3389
17.4462 61.1332
17.4913 57.2749
17.5365 57.0766
17.5815 57.2184
17.6268 57.5747
17.6718 57.854
17.7171 58.5471
17.7622 59.6864
17.8074 60.6069
17.8525 61.5438
17.8977 66.148
17.9428 72.6254
17.9881 81.0275
18.0331 96.7982
18.0784 120.559
18.1237 141.501
18.1688 136.776
18.214 108.201
18.2591 87.687
18.3044 88.3144
18.3495 99.1795
18.3948 106.534
18.4399 97.6379
18.4852 78.8353
18.5303 65.6004
18.5756 61.243
18.6207 59.966
18.666 58.7026
18.7112 57.9342
18.7565 57.2057
18.8016 56.924
18.8469 56.1455
18.892 55.9383
18.9374 55.4919
18.9825 54.9964
19.0278 54.9997
19.073 55.0023
19.1183 55.0552
19.1635 56.0186
19.2088 57.739
19.254 60.3743
19.2993 65.5444
19.3447 71.9098
19.3898 76.2456
19.4352 72.0982
19.4804 63.0987
19.5257 55.867
19.5709 52.8494
19.6163 52.3829
19.6615 52.11
19.7068 51.6081
19.752 51.6763
19.7974 51.7647
19.8426 52.4889
19.888 53.5268
19.9332 54.8833
19.9786 57.4292
20.0238 60.5398
20.0692 66.3009
20.1144 70.0971
20.1598 68.8359
20.205 63.918
20.2504 61.4077
20.2957 63.5349
20.3411 65.465
20.3863 63.7727
20.4318 58.0982
20.477 52.7395
20.5224 50.0888
20.5677 49.1208
20.6131 48.6084
20.6586 48.4278
20.7038 48.1511
20.7493 47.8261
20.7945 47.9471
20.84 47.7351
20.8853 47.4679
20.9307 47.0929
20.976 47.1521
21.0215 47.2118
21.0668 47.5948
21.1122 47.9055
21.1575 48.5534
21.203 49.4374
21.2483 50.3525
21.2938 50.6226
21.3391 49.0349
21.3846 47.5428
21.4299 47.0795
21.4754 47.2536
21.5207 47.222
21.5662 47.5534
21.6116 47.5926
21.6571 48.7088
21.7024 49.8377
21.7479 51.6124
21.7933 53.937
21.8388 57.9472
21.8843 62.443
21.9297 65.2036
21.9752 63.758
22.0206 59.4947
22.0661 56.223
22.1115 55.5728
22.157 55.8511
22.2024 54.1832
22.248 50.9733
22.2933 48.7672
22.3389 47.7169
22.3843 47.5346
22.4299 47.405
22.4753 47.4596
22.5208 47.3688
22.5662 47.1879
22.6118 47.4145
22.6572 47.3555
22.7028 48.2038
22.7483 48.7009
22.7939 49.7196
22.8393 51.0354
22.8849 52.9955
22.9303 55.7144
22.9759 57.6329
23.0214 57.4507
23.067 54.5492
23.1126 50.878
23.1581 48.2844
23.2037 47.6733
23.2492 47.4913
23.2948 47.6533
23.3403 48.3427
23.3859 49.1613
23.4314 50.264
23.477 51.9967
23.5225 54.4321
23.5682 57.0556
23.6137 58.3001
23.6593 56.1507
23.7048 52.0665
23.7505 48.1131
23.796 45.8937
23.8417 45.0447
23.8872 44.447
23.9329 44.1394
23.9784 43.8532
24.0241 43.7046
24.0697 43.478
24.1154 42.9882
24.1609 42.8948
24.2066 42.6585
24.2522 42.5054
24.2979 42.3078
24.3434 42.1199
24.3892 41.9407
24.4349 41.9721
24.4805 41.8301
24.5262 42.0746
24.5718 41.876
24.6175 41.9756
24.6631 41.9246
24.7089 41.5128
24.7545 41.4016
24.8002 41.0785
24.8458 41.0965
24.8916 41.1356
24.9372 41.1758
24.983 41.46
25.0286 41.8021
25.0744 42.3516
25.12 42.9982
25.1658 43.7727
25.2114 44.0746
25.2572 44.0638
25.3029 44.3524
25.3487 44.5109
25.3943 44.3329
25.4402 43.1072
25.4858 41.7236
25.5316 40.5845
25.5773 39.9202
25.6231 39.8404
25.669 39.5468
25.7147 39.5592
25.7605 39.5393
25.8062 39.6384
25.8521 39.7738
25.8977 39.7371
25.9436 39.9183
25.9893 40.0774
26.0352 40.5329
26.0809 40.8499
26.1268 41.1419
26.1725 40.9502
26.2184 40.184
26.2641 39.6552
26.31 39.3305
26.3557 39.2685
26.4017 39.2238
26.4474 39.5744
26.4933 39.8022
26.5391 40.4081
26.585 40.9723
26.6308 41.7358
26.6767 41.7505
26.7225 41.526
26.7684 40.901
26.8142 40.4115
26.8601 40.0603
26.9059 39.5237
26.9519 38.9859
26.9979 38.4732
27.0437 38.1828
27.0896 37.9397
27.1354 37.9582
27.1814 37.936
27.2272 37.7194
27.2732 37.7535
27.3191 37.6471
27.3651 37.6671
27.4109 37.6305
27.4569 37.7653
27.5027 37.8454
27.5488 37.9534
27.5946 37.7645
27.6407 37.5034
27.6865 37.5115
27.7326 37.2053
27.7784 37.2453
27.8245 37.1023
27.8703 37.2807
27.9164 37.5145
27.9623 37.8551
28.0084 38.1773
28.0543 38.8276
28.1003 38.7703
28.1462 38.5394
28.1923 38.2502
28.2384 37.5821
28.2843 37.2392
28.3304 36.6939
28.3764 36.1805
28.4225 35.7763
28.4684 35.5404
28.5145 35.2473
28.5605 35.2097
28.6066 35.0015
28.6526 34.9247
28.6987 34.9379
28.7447 34.7909
28.7908 34.7366
28.8368 34.7262
28.8829 34.7426
28.9289 34.7644
28.9751 34.4342
29.0211 34.1945
29.0673 34.048
29.1133 33.9777
29.1595 33.6959
29.2055 33.6061
29.2517 33.5552
29.2977 33.5932
29.3439 33.6308
29.3899 33.6621
29.4361 33.6014
29.4824 33.4057
29.5284 33.2108
29.5746 32.7727
29.6207 32.5173
29.6669 32.4922
29.713 32.2626
29.7593 32.158
29.8053 32.1043
29.8516 32.0887
29.8977 32.1668
29.9439 31.9357
29.99 31.8931
30.0363 31.8008
30.0824 31.8886
30.1287 31.5715
30.1748 31.8494
30.2211 31.8916
30.2673 31.6094
30.3136 31.7238
30.3597 31.5534
30.406 31.6344
30.4522 31.4924
30.4985 31.4966
30.5447 31.6098
30.591 31.5206
30.6372 31.6372
30.6835 31.6506
30.7297 31.7333
30.7761 31.727
30.8224 31.4778
30.8686 31.4323
30.915 31.1088
30.9612 30.9832
31.0076 30.8168
31.0538 30.572
31.1002 30.652
31.1464 30.3541
31.1928 30.3507
31.2391 30.4345
31.2855 30.3379
31.3317 30.2909
31.3781 30.3393
31.4244 30.3323
31.4708 30.3728
31.5171 30.2105
31.5636 30.3286
31.6098 30.0499
31.6563 29.906
31.7026 29.8158
31.7491 29.5184
31.7953 29.7213
31.8418 29.71
31.8881 29.7041
31.9346 29.6396
31.9809 29.613
32.0275 29.4557
32.074 29.436
32.1203 29.1151
32.1668 29.0955
32.2132 28.8507
32.2597 28.7535
32.306 28.7075
32.3526 28.3494
32.399 28.386
32.4455 28.2702
32.4919 28.2053
32.5385 28.1786
32.5848 27.9735
32.6314 28.0572
32.6778 27.8581
32.7244 27.7076
32.7708 27.6448
32.8174 27.5901
32.8638 27.5532
32.9104 27.5916
32.9569 27.5813
33.0035 27.3456
33.0499 27.3288
33.0966 27.3324
33.143 27.3209
33.1897 27.189
33.2361 27.0898
33.2828 27.1402
33.3293 27.0162
33.3759 26.9207
33.4226 26.7887
33.4691 26.7242
33.5158 26.5423
33.5623 26.5157
33.609 26.2663
33.6555 26.1925
33.7022 26.1719
33.7487 26.0301
33.7954 25.9453
33.842 25.9426
33.8887 25.8502
33.9353 25.7455
33.982 25.6997
34.0286 25.5938
34.0753 25.5462
34.1219 25.4297
34.1687 25.2838
34.2152 25.332
34.262 25.2133
34.3086 25.1045
34.3554 25.068
34.402 24.8761
34.4488 24.8574
34.4954 24.781
34.5422 24.7309
34.5889 24.5755
34.6357 24.5032
34.6825 24.454
34.7292 24.3573
34.776 24.2827
34.8227 24.1351
34.8695 24.1042
34.9162 24.1831
34.9631 24.0837
35.0098 24.0847
35.0566 23.8875
35.1033 23.8215
35.1502 23.7828
35.1969 23.6807
35.2438 23.751
35.2906 23.6618
35.3375 23.6729
35.3842 23.5494
35.4311 23.5755
35.4779 23.5147
35.5248 23.5399
35.5716 23.3085
35.6185 23.3507
35.6653 23.2349
35.7123 23.1372
35.759 23.0293
35.806 22.9444
35.8528 22.8714
35.8998 22.7946
35.9468 22.668
35.9936 22.6752
36.0406 22.5626
36.0874 22.5316
36.1345 22.4023
36.1813 22.4341
36.2283 22.3154
36.2752 22.1831
36.3222 22.2097
36.3691 22.1707
36.4161 22.083
36.463 22.0687
36.5101 22.0003
36.557 21.9695
36.6041 21.8379
36.651 21.8032
36.6981 21.6807
36.745 21.694
36.7921 21.5815
36.839 21.5266
36.8861 21.4452
36.9331 21.4082
36.9802 21.2904
37.0272 21.254
37.0743 21.0934
37.1213 21.1049
37.1684 21.0144
37.2154 20.9279
37.2626 20.8752
37.3098 20.8333
37.3568 20.7465
37.404 20.7677
37.451 20.596
37.4982 20.5849
37.5452 20.422
37.5924 20.4051
37.6395 20.4409
37.6867 20.3101
37.7337 20.2356
37.781 20.1263
37.8281 20.1102
37.8753 20.0646
37.9224 20.0436
37.9697 19.9162
38.0168 19.8795
38.064 19.8074
38.1111 19.6701
38.1584 19.6983
38.2056 19.5954
38.2529 19.6383
38.3 19.4463
38.3473 19.4571
38.3945 19.323
38.4418 19.3
38.489 19.2439
38.5363 19.1855
38.5837 19.0484
38.6309 19.0735
38.6782 18.9683
38.7254 18.8912
38.7728 18.8387
38.82 18.7925
38.8674 18.7451
38.9146 18.6953
38.9621 18.577
39.0093 18.5641
39.0567 18.4992
39.104 18.4127
39.1514 18.3481
39.1987 18.3818
39.2461 18.2757
39.2934 18.1737
39.3409 18.1011
39.3882 18.0456
39.4356 18.0161
39.483 18.0024
39.5304 17.9055
39.5778 17.8879
39.6253 17.7835
39.6726 17.7829
39.7201 17.7352
39.7675 17.6345
39.815 17.5811
39.8624 17.5407
39.9099 17.4542
39.9575 17.4139
40.0049 17.3565
40.0525 17.2951
40.0999 17.2618
40.1474 17.215
40.1949 17.1639
40.2425 17.091
40.2899 17.0248
40.3375 16.9239
40.385 16.8951
40.4326 16.858
40.48 16.8111
40.5277 16.8356
40.5752 16.75
40.6228 16.6161
40.6703 16.6361
40.718 16.5806
40.7655 16.5212
40.8132 16.4327
40.8607 16.4907
40.9084 16.4452
40.9559 16.3184
41.0036 16.2703
41.0512 16.2201
41.0989 16.2032
41.1465 16.0932
41.1942 16.0472
41.242 15.9399
41.2896 15.9323
41.3373 15.8624
41.3849 15.8102
41.4327 15.7737
41.4803 15.6763
41.5281 15.6457
41.5758 15.6195
41.6236 15.5667
41.6712 15.5699
41.7191 15.467
41.7667 15.4424
41.8146 15.3637
41.8622 15.3057
41.9101 15.2991
41.9578 15.1909
42.0057 15.1649
42.0534 15.0903
42.1013 15.0638
42.149 14.9964
42.1969 14.903
42.2446 14.9001
42.2925 14.8776
42.3403 14.7973
42.3882 14.7839
42.436 14.7716
42.4839 14.6545
42.5319 14.6181
42.5797 14.5661
42.6277 14.4295
42.6755 14.4715
42.7235 14.304
42.7713 14.3128
42.8193 14.2738
42.8671 14.2428
42.9152 14.2363
42.963 14.1452
43.0111 14.0494
43.0589 14.0166
43.107 14.0071
43.1549 13.954
43.2029 13.8956
43.2508 13.8624
43.2989 13.8064
43.3468 13.7853
43.3949 13.7159
43.4429 13.6602
43.491 13.6379
43.5389 13.5966
43.5871 13.5627
43.635 13.5289
43.6832 13.4102
43.7312 13.4235
43.7793 13.3328
43.8273 13.2922
43.8755 13.2763
43.9237 13.2278
43.9717 13.1437
44.0199 13.1016
44.068 13.0893
44.1162 12.9925
44.1642 13.0471
44.2125 12.987
44.2606 12.8903
44.3088 12.8438
44.3569 12.7708
44.4052 12.7901
44.4533 12.6871
44.5016 12.6706
44.5497 12.6303
44.598 12.6121
44.6461 12.5096
44.6945 12.5068
44.7426 12.4823
44.791 12.4047
44.8391 12.3413
44.8875 12.3056
44.9357 12.3273
44.984 12.2091
45.0322 12.1774
45.0806 12.1207
45.1288 12.1091
45.1773 12.0231
45.2257 12.0088
45.2739 11.9541
45.3224 11.961
45.3706 11.8955
45.4191 11.8322
45.4673 11.8149
45.5158 11.7955
45.5641 11.6883
45.6126 11.7039
45.6609 11.6307
45.7094 11.5766
45.7577 11.5477
45.8063 11.4531
45.8546 11.506
45.9031 11.4428
45.9515 11.374
46.0001 11.3357
46.0484 11.275
46.097 11.2787
46.1454 11.2361
46.194 11.1976
46.2424 11.1981
46.291 11.146
46.3395 11.0804
46.3881 11.0242
46.4365 10.9911
46.4852 10.9333
46.5337 10.8961
46.5823 10.8853
46.631 10.7975
46.6795 10.7812
46.7282 10.781
46.7767 10.7004
46.8254 10.6449
46.8739 10.6198
46.9226 10.5627
46.9712 10.5636
47.0199 10.4834
47.0685 10.4776
47.1173 10.4115
47.1658 10.3858
47.2146 10.3751
47.2632 10.3211
47.312 10.2696
47.3606 10.2519
47.4095 10.1947
47.4581 10.1579
47.5069 10.1412
47.5556 10.0888
47.6044 10.0062
47.6531 9.96183
47.702 9.95032
47.7507 9.96929
47.7996 9.92462
47.8483 9.87441
47.8972 9.84879
47.9461 9.80981
47.9948 9.76013
48.0438 9.71668
48.0925 9.67074
48.1415 9.6728
48.1902 9.57982
48.2392 9.57656
48.288 9.56151
48.337 9.54229
48.3858 9.47807
48.4348 9.47591
48.4837 9.41543
48.5327 9.36401
48.5815 9.33012
48.6306 9.315
48.6795 9.31202
48.7285 9.23167
48.7774 9.2238
48.8265 9.17771
48.8754 9.18217
48.9245 9.08613
48.9734 9.08368
49.0226 9.05515
49.0715 9.01061
49.1206 9.01973
49.1696 8.97114
49.2188 8.92048
49.2679 8.84792
49.3169 8.85595
49.3661 8.79652
49.4151 8.77117
49.4643 8.71133
49.5134 8.70619
49.5626 8.66899
49.6117 8.66824
49.6609 8.59458
49.71 8.52795
49.7592 8.52266
49.8083 8.50133
49.8576 8.48185
49.9067 8.48035
49.956 8.41091
50.0052 8.36027
50.0545 8.36002
50.1036 8.28776
50.153 8.26446
50.2022 8.26089
50.2515 8.23079
50.3007 8.15489
50.3501 8.12941
50.3993 8.12463
50.4487 8.06246
50.498 8.04466
50.5474 8.03552
50.5966 7.99589
50.6461 7.97523
50.6955 7.95577
50.7448 7.90522
50.7943 7.90329
50.8436 7.86489
50.8931 7.80784
50.9424 7.80088
50.9919 7.72188
51.0413 7.70797
51.0908 7.71921
51.1402 7.66126
51.1897 7.63615
51.2391 7.60062
51.2887 7.56193
51.3381 7.53031
51.3877 7.51783
51.4371 7.45764
51.4867 7.44762
51.5362 7.40148
51.5858 7.36512
51.6353 7.35857
51.6849 7.30437
51.7344 7.31354
51.7841 7.28468
51.8336 7.25137
51.8833 7.21038
51.9328 7.16304
51.9826 7.1268
52.0323 7.14842
52.0818 7.09248
52.1316 7.06659
52.1812 7.03823
52.231 6.99151
52.2806 6.96302
52.3304 6.95496
52.38 6.92389
52.4298 6.8759
52.4794 6.87093
52.5293 6.81152
52.5789 6.78631
52.6288 6.79159
52.6785 6.73904
52.7284 6.73078
52.7781 6.67836
52.828 6.65815
52.8777 6.56206
52.9276 6.59917
52.9774 6.58772
53.0273 6.56515
53.0771 6.50374
53.1271 6.51031
53.1769 6.47404
53.2269 6.45025
53.2767 6.40367
53.3267 6.38511
53.3765 6.34963
53.4266 6.35474
53.4766 6.29913
53.5265 6.29212
53.5765 6.21185
53.6264 6.21826
53.6765 6.20391
53.7264 6.1544
53.7765 6.13001
53.8265 6.10681
53.8766 6.02563
53.9266 6.06046
53.9767 5.9961
54.0267 6.01901
54.0769 5.97076
54.1269 5.90865
54.1771 5.96962
54.2271 5.89666
54.2773 5.86349
54.3274 5.84565
54.3776 5.81149
54.4277 5.78641
54.478 5.74274
54.528 5.70728
54.5783 5.6631
54.6285 5.60097
54.6788 5.57736
54.7289 5.56197
54.7792 5.52216
54.8296 5.42779
54.8798 5.45639
54.9301 5.35899
54.9803 5.33236
55.0307 5.37098
55.0809 5.29691
55.1314 5.28057
55.1816 5.17142
55.232 5.19154
55.2823 5.12205
55.3328 5.02383
55.383 5.00424
55.4335 4.98928
55.4838 4.90996
55.5344 4.86304
55.5847 4.82154
55.6352 4.8724
55.6856 4.80806
55.7361 4.73652