File: XRD/Ni3Fe_FD0356.xy
TT I
1.27165 7.49452
1.31627 6.889
1.36089 6.71905
1.40551 5.89941
1.45013 6.76135
1.49476 5.88896
1.53938 5.76087
1.584 5.28957
1.62863 5.17553
1.67325 5.3584
1.71787 5.61472
1.7625 4.82725
1.80712 4.64134
1.85174 4.67093
1.89636 4.78249
1.94099 4.90255
1.98562 5.03384
2.03025 4.75077
2.07487 4.66166
2.11949 4.69838
2.16411 4.40937
2.20874 9.21255
2.25338 12.5707
2.298 5.08387
2.34263 4.81841
2.38725 5.32165
2.43188 5.25767
2.4765 5.9824
2.52115 6.06647
2.56577 6.58678
2.6104 6.51412
2.65503 7.4394
2.69965 7.13732
2.7443 8.13717
2.78893 8.22727
2.83356 7.70579
2.87818 8.07089
2.92281 8.46938
2.96744 9.41896
3.01209 10.1486
3.05672 11.2819
3.10135 12.3186
3.14599 13.0272
3.19062 14.3033
3.23527 14.8938
3.2799 15.645
3.32454 16.9039
3.36917 18.2503
3.4138 18.9666
3.45844 19.9445
3.50309 20.854
3.54773 21.7806
3.59237 23.4846
3.637 56.0381
3.68164 39.9977
3.7263 25.8636
3.77094 26.3388
3.81558 26.7586
3.86022 27.7167
3.90486 29.0677
3.9495 30.0506
3.99416 31.2861
4.0388 32.4589
4.08344 33.8355
4.12809 34.866
4.17273 36.8769
4.21738 40.9533
4.26204 136.303
4.30669 122.765
4.35133 46.0104
4.39598 45.0849
4.44063 49.8357
4.4853 56.1381
4.52995 52.6511
4.5746 53.4021
4.61925 54.6902
4.6639 56.8898
4.70855 59.8202
4.75322 62.9072
4.79788 66.5364
4.84253 70.0281
4.88719 75.0538
4.93184 78.9177
4.97652 84.3634
5.02118 91.8761
5.06583 100.888
5.11049 115.404
5.15515 170.966
5.19981 611.587
5.24449 3699.21
5.28916 11346.4
5.33382 3382.42
5.37848 221.528
5.42315 138.949
5.46783 121.467
5.5125 112.115
5.55716 106.722
5.60183 101.94
5.6465 100.114
5.69117 98.2511
5.73586 96.9626
5.78053 97.606
5.8252 97.3448
5.86988 99.1449
5.91455 101.72
5.95924 117.611
6.00392 327.657
6.0486 1279.36
6.09328 3969.8
6.13795 3347.5
6.18263 286.601
6.22733 99.7533
6.27201 85.343
6.3167 90.4269
6.36138 78.1184
6.40606 71.3626
6.45075 69.4103
6.49545 66.9052
6.54014 65.2779
6.58483 64.2857
6.62952 63.4966
6.67421 77.3808
6.71892 98.9015
6.76361 64.5188
6.8083 59.7159
6.853 58.8005
6.89769 58.0601
6.94239 57.3921
6.98711 56.9193
7.03181 56.4703
7.07651 56.1582
7.12121 56.0538
7.16591 56.2316
7.21063 56.5022
7.25533 62.547
7.30004 113.93
7.34475 72.9415
7.38945 56.5919
7.43416 55.2906
7.47889 55.322
7.5236 55.8341
7.56831 56.6282
7.61303 57.1972
7.65774 57.7417
7.70247 57.3325
7.74719 57.2052
7.79191 58.1017
7.83663 58.395
7.88135 59.2373
7.92607 60.0457
7.97081 61.2385
8.01553 62.8299
8.06026 63.9919
8.10498 65.4159
8.14971 71.447
8.19446 71.8558
8.23919 71.3119
8.28392 74.474
8.32865 76.7681
8.37339 81.6423
8.41812 88.1554
8.46288 112.145
8.50761 227.192
8.55235 505.428
8.59709 1190.78
8.64183 2086.67
8.68658 1037.88
8.73134 178.799
8.77609 103.902
8.82083 96.2427
8.86558 93.3525
8.91033 92.0059
8.9551 90.8395
8.99985 87.5699
9.04461 86.2644
9.08936 85.6244
9.13412 84.4978
9.17888 84.6662
9.22365 84.8535
9.26841 84.4555
9.31318 85.8147
9.35794 86.3009
9.4027 85.9997
9.44749 86.657
9.49226 87.2042
9.53703 88.6729
9.5818 90.9675
9.62657 93.9859
9.67134 96.9479
9.71614 96.0836
9.76091 97.6474
9.80569 100.115
9.85047 104.18
9.89525 117.479
9.94005 137.286
9.98484 237.93
10.0296 443.458
10.0744 873.167
10.1192 1595.19
10.164 1628.83
10.2088 458.659
10.2536 134.931
10.2984 114.824
10.3432 113.316
10.388 110.247
10.4328 137.502
10.4776 188.953
10.5224 300.497
10.5672 489.955
10.612 513.121
10.6568 215.228
10.7017 99.8014
10.7465 89.6142
10.7913 85.5475
10.8361 83.5217
10.8809 81.1875
10.9257 79.568
10.9706 79.8863
11.0154 76.6476
11.0602 74.7198
11.105 73.6314
11.1499 74.832
11.1947 77.8802
11.2395 72.8216
11.2844 70.6396
11.3292 68.6509
11.374 67.5428
11.4189 67.3767
11.4637 66.6155
11.5086 66.5123
11.5534 67.5823
11.5983 65.9253
11.6431 65.1687
11.688 64.4957
11.7328 64.6365
11.7777 64.3073
11.8225 64.3384
11.8674 63.9882
11.9122 64.5602
11.9571 64.9632
12.002 66.3892
12.0468 73.8124
12.0917 87.1469
12.1366 109.959
12.1814 151.072
12.2263 200.871
12.2712 171.488
12.3161 96.1965
12.3609 70.2051
12.4058 66.275
12.4507 66.2341
12.4956 65.8771
12.5405 66.0416
12.5853 67.0342
12.6302 70.5222
12.6751 73.8193
12.72 70.0411
12.7649 69.5749
12.8098 70.3619
12.8547 71.7383
12.8996 73.5371
12.9445 74.5815
12.9894 76.9177
13.0343 78.5705
13.0792 83.0936
13.1242 100.146
13.1691 128.343
13.214 168.874
13.2589 246.687
13.3038 352.713
13.3487 420.755
13.3937 276.714
13.4386 132.244
13.4835 118.565
13.5285 137.061
13.5734 175.068
13.6183 245.278
13.6633 334.285
13.7082 345.472
13.7531 200.893
13.7981 102.448
13.843 84.2163
13.888 82.1297
13.9329 79.4354
13.9779 78.162
14.0228 76.5407
14.0678 75.2954
14.1127 74.756
14.1577 73.9872
14.2027 73.363
14.2476 72.8183
14.2926 72.3743
14.3376 72.5444
14.3825 71.7665
14.4275 70.876
14.4725 70.8661
14.5175 71.1116
14.5624 71.1248
14.6074 72.12
14.6524 72.721
14.6974 72.757
14.7424 77.0976
14.7874 86.4152
14.8324 98.3033
14.8774 120.313
14.9224 155.471
14.9674 199.665
15.0124 216.904
15.0574 152.488
15.1024 93.728
15.1474 74.5101
15.1924 72.3639
15.2374 71.876
15.2824 71.0141
15.3274 69.8255
15.3725 68.8566
15.4175 68.4251
15.4625 68.0302
15.5076 67.8864
15.5526 68.0158
15.5976 68.108
15.6426 71.3814
15.6877 79.0564
15.7327 87.8617
15.7778 103.568
15.8228 129.483
15.8679 165.133
15.9129 192.523
15.958 162.058
16.003 101.823
16.0481 69.9071
16.0931 65.0949
16.1382 63.5588
16.1833 61.9758
16.2283 60.7445
16.2734 59.9387
16.3185 59.693
16.3636 59.5429
16.4086 58.4924
16.4537 57.7106
16.4988 56.8647
16.5439 56.9598
16.589 56.6227
16.6341 56.4436
16.6792 55.9682
16.7243 56.4769
16.7694 56.3797
16.8145 56.2097
16.8596 56.4581
16.9047 57.2879
16.9498 57.5708
16.9949 57.049
17.04 57.9108
17.0851 59.5916
17.1302 61.3423
17.1754 64.7104
17.2205 69.2902
17.2656 75.0688
17.3108 82.7498
17.3559 83.6105
17.401 73.322
17.4462 64.3807
17.4913 61.0632
17.5365 60.9567
17.5815 61.09
17.6268 61.4907
17.6718 62.1628
17.7171 62.6628
17.7622 63.3155
17.8074 64.6536
17.8525 68.7161
17.8977 73.1548
17.9428 79.0798
17.9881 88.0535
18.0331 102.499
18.0784 120.122
18.1237 140.058
18.1688 137.014
18.214 111.251
18.2591 90.8503
18.3044 91.8863
18.3495 99.2829
18.3948 106.254
18.4399 97.9858
18.4852 79.333
18.5303 67.7291
18.5756 63.8001
18.6207 62.9794
18.666 61.9897
18.7112 61.2614
18.7565 60.6077
18.8016 60.42
18.8469 59.9023
18.892 59.3109
18.9374 58.8828
18.9825 58.824
19.0278 58.3992
19.073 59.0127
19.1183 59.5419
19.1635 60.3385
19.2088 61.6735
19.254 64.5297
19.2993 67.8509
19.3447 72.3449
19.3898 76.9682
19.4352 74.2449
19.4804 65.3295
19.5257 58.3263
19.5709 55.883
19.6163 55.4829
19.6615 55.2924
19.7068 54.9755
19.752 54.8855
19.7974 55.4704
19.8426 56.4033
19.888 57.0248
19.9332 58.7157
19.9786 61.1706
20.0238 64.1286
20.0692 67.9863
20.1144 71.4575
20.1598 70.9958
20.205 65.9808
20.2504 63.6018
20.2957 64.5505
20.3411 66.5373
20.3863 66.0272
20.4318 60.367
20.477 54.9361
20.5224 52.7577
20.5677 52.3324
20.6131 51.496
20.6586 51.2496
20.7038 50.9221
20.7493 50.4423
20.7945 50.3698
20.84 50.2792
20.8853 50.2225
20.9307 50.1626
20.976 50.2767
21.0215 50.1562
21.0668 50.4888
21.1122 50.9986
21.1575 51.5391
21.203 51.8918
21.2483 52.669
21.2938 53.0036
21.3391 51.5406
21.3846 50.4403
21.4299 50.0236
21.4754 49.9272
21.5207 50.1726
21.5662 50.6364
21.6116 51.2804
21.6571 51.9341
21.7024 52.9145
21.7479 54.7792
21.7933 57.1719
21.8388 60.0485
21.8843 63.5419
21.9297 66.1825
21.9752 65.3786
22.0206 61.4836
22.0661 57.7977
22.1115 57.1781
22.157 57.3834
22.2024 55.9603
22.248 53.1342
22.2933 51.5314
22.3389 50.5648
22.3843 50.3473
22.4299 50.1469
22.4753 50.2545
22.5208 50.0918
22.5662 50.0016
22.6118 50.2852
22.6572 50.6121
22.7028 51.0925
22.7483 51.6197
22.7939 52.4162
22.8393 53.7524
22.8849 55.3503
22.9303 57.0779
22.9759 59.0008
23.0214 58.822
23.067 56.4
23.1126 52.8238
23.1581 50.8158
23.2037 50.3081
23.2492 50.5876
23.2948 50.4861
23.3403 51.0545
23.3859 51.6662
23.4314 52.6599
23.477 54.1812
23.5225 55.7918
23.5682 57.7239
23.6137 58.9634
23.6593 57.1946
23.7048 53.2868
23.7505 49.7398
23.796 47.9245
23.8417 47.3817
23.8872 46.8851
23.9329 46.5483
23.9784 46.1177
24.0241 45.8349
24.0697 45.7415
24.1154 45.4606
24.1609 45.2487
24.2066 44.9613
24.2522 44.8817
24.2979 44.6517
24.3434 44.5353
24.3892 44.3919
24.4349 44.2651
24.4805 44.2083
24.5262 44.4056
24.5718 43.9895
24.6175 44.1735
24.6631 44.0411
24.7089 43.6893
24.7545 43.6928
24.8002 43.4597
24.8458 43.6049
24.8916 43.355
24.9372 43.5477
24.983 43.9463
25.0286 44.2321
25.0744 44.5503
25.12 44.8971
25.1658 45.685
25.2114 45.9823
25.2572 45.9776
25.3029 45.8981
25.3487 46.064
25.3943 45.8615
25.4402 44.8752
25.4858 43.754
25.5316 42.714
25.5773 42.1346
25.6231 42.0735
25.669 41.7989
25.7147 41.7397
25.7605 41.5853
25.8062 41.7373
25.8521 41.7389
25.8977 41.7899
25.9436 42.1372
25.9893 42.17
26.0352 42.45
26.0809 42.7246
26.1268 42.8571
26.1725 42.5776
26.2184 41.9561
26.2641 41.5849
26.31 41.2608
26.3557 41.3189
26.4017 41.3923
26.4474 41.6371
26.4933 41.9854
26.5391 42.2741
26.585 42.8276
26.6308 43.0709
26.6767 43.4035
26.7225 43.1193
26.7684 42.5077
26.8142 41.9139
26.8601 41.6648
26.9059 41.1676
26.9519 40.7035
26.9979 40.3932
27.0437 39.9725
27.0896 39.9161
27.1354 39.9696
27.1814 39.7691
27.2272 39.6349
27.2732 39.7027
27.3191 39.5568
27.3651 39.4758
27.4109 39.5023
27.4569 39.4213
27.5027 39.6926
27.5488 39.6611
27.5946 39.5448
27.6407 39.3405
27.6865 39.2289
27.7326 38.9132
27.7784 39.041
27.8245 39.0124
27.8703 39.1335
27.9164 39.287
27.9623 39.4543
28.0084 39.8759
28.0543 40.1686
28.1003 40.0991
28.1462 39.8078
28.1923 39.4701
28.2384 39.0492
28.2843 38.653
28.3304 38.2115
28.3764 37.8003
28.4225 37.4681
28.4684 37.2268
28.5145 36.9957
28.5605 36.8395
28.6066 36.6109
28.6526 36.6068
28.6987 36.5448
28.7447 36.4812
28.7908 36.4727
28.8368 36.3199
28.8829 36.2564
28.9289 36.2968
28.9751 36.1001
29.0211 35.8905
29.0673 35.6428
29.1133 35.5991
29.1595 35.412
29.2055 35.2386
29.2517 35.2091
29.2977 35.1769
29.3439 35.1559
29.3899 35.1098
29.4361 35.0446
29.4824 34.8736
29.5284 34.5758
29.5746 34.362
29.6207 34.07
29.6669 33.9769
29.713 33.8168
29.7593 33.8432
29.8053 33.7858
29.8516 33.6209
29.8977 33.6835
29.9439 33.5593
29.99 33.4951
30.0363 33.3098
30.0824 33.3573
30.1287 33.3344
30.1748 33.2819
30.2211 33.3581
30.2673 33.199
30.3136 33.2682
30.3597 33.1308
30.406 33.1759
30.4522 33.0351
30.4985 32.9045
30.5447 33.1213
30.591 32.9701
30.6372 32.9838
30.6835 33.0031
30.7297 33.116
30.7761 33.0265
30.8224 32.8859
30.8686 32.702
30.915 32.4458
30.9612 32.3259
31.0076 32.2067
31.0538 32.1506
31.1002 31.9723
31.1464 31.7776
31.1928 31.8221
31.2391 31.8566
31.2855 31.7455
31.3317 31.6455
31.3781 31.7359
31.4244 31.7337
31.4708 31.6391
31.5171 31.635
31.5636 31.6098
31.6098 31.4491
31.6563 31.2197
31.7026 30.9831
31.7491 30.9676
31.7953 31.0063
31.8418 30.9241
31.8881 30.9077
31.9346 30.9585
31.9809 30.862
32.0275 30.8412
32.074 30.706
32.1203 30.3752
32.1668 30.3299
32.2132 30.1455
32.2597 30.0845
32.306 30.0445
32.3526 29.8377
32.399 29.7546
32.4455 29.5749
32.4919 29.4856
32.5385 29.4249
32.5848 29.2702
32.6314 29.2911
32.6778 29.1762
32.7244 28.9986
32.7708 28.9093
32.8174 28.9866
32.8638 28.7578
32.9104 28.8078
32.9569 28.8017
33.0035 28.6556
33.0499 28.6181
33.0966 28.5779
33.143 28.527
33.1897 28.3954
33.2361 28.4007
33.2828 28.4037
33.3293 28.1122
33.3759 28.1283
33.4226 27.9576
33.4691 27.8742
33.5158 27.7584
33.5623 27.7685
33.609 27.4464
33.6555 27.4221
33.7022 27.29
33.7487 27.2676
33.7954 27.2353
33.842 27.1424
33.8887 26.9816
33.9353 26.9709
33.982 26.8685
34.0286 26.7766
34.0753 26.7074
34.1219 26.6183
34.1687 26.5607
34.2152 26.4583
34.262 26.4123
34.3086 26.181
34.3554 26.2832
34.402 26.127
34.4488 25.9557
34.4954 25.9308
34.5422 25.8913
34.5889 25.7521
34.6357 25.6949
34.6825 25.6296
34.7292 25.5411
34.776 25.2811
34.8227 25.2672
34.8695 25.3493
34.9162 25.3168
34.9631 25.253
35.0098 25.1213
35.0566 24.9708
35.1033 24.995
35.1502 24.9181
35.1969 24.8912
35.2438 24.7794
35.2906 24.7791
35.3375 24.677
35.3842 24.6539
35.4311 24.5692
35.4779 24.563
35.5248 24.5254
35.5716 24.4416
35.6185 24.291
35.6653 24.2058
35.7123 24.2237
35.759 24.1002
35.806 23.9826
35.8528 23.8071
35.8998 23.8522
35.9468 23.7196
35.9936 23.7224
36.0406 23.6133
36.0874 23.5933
36.1345 23.4844
36.1813 23.4215
36.2283 23.3349
36.2752 23.2073
36.3222 23.246
36.3691 23.1439
36.4161 23.04
36.463 22.9759
36.5101 22.9693
36.557 22.9213
36.6041 22.7742
36.651 22.7609
36.6981 22.6454
36.745 22.5971
36.7921 22.6409
36.839 22.4453
36.8861 22.4296
36.9331 22.3156
36.9802 22.2044
37.0272 22.1696
37.0743 22.0445
37.1213 22.0414
37.1684 21.9748
37.2154 21.9209
37.2626 21.8637
37.3098 21.7599
37.3568 21.6223
37.404 21.6248
37.451 21.5494
37.4982 21.5608
37.5452 21.4127
37.5924 21.3633
37.6395 21.4393
37.6867 21.2708
37.7337 21.1936
37.781 21.1408
37.8281 21.0569
37.8753 20.9521
37.9224 20.9152
37.9697 20.8495
38.0168 20.7306
38.064 20.7292
38.1111 20.5852
38.1584 20.5059
38.2056 20.4382
38.2529 20.5025
38.3 20.3187
38.3473 20.3519
38.3945 20.2284
38.4418 20.1798
38.489 20.1544
38.5363 20.0554
38.5837 19.9438
38.6309 19.9418
38.6782 19.8537
38.7254 19.8371
38.7728 19.7334
38.82 19.6794
38.8674 19.6239
38.9146 19.5573
38.9621 19.4002
39.0093 19.419
39.0567 19.3275
39.104 19.2443
39.1514 19.1763
39.1987 19.1662
39.2461 19.1342
39.2934 19.0946
39.3409 18.9769
39.3882 18.9161
39.4356 18.8314
39.483 18.8376
39.5304 18.7726
39.5778 18.6792
39.6253 18.6381
39.6726 18.5909
39.7201 18.5169
39.7675 18.4734
39.815 18.4192
39.8624 18.3637
39.9099 18.3226
39.9575 18.1697
40.0049 18.2195
40.0525 18.0735
40.0999 18.0148
40.1474 18.0073
40.1949 17.8888
40.2425 17.8344
40.2899 17.8082
40.3375 17.7712
40.385 17.7234
40.4326 17.6456
40.48 17.5336
40.5277 17.5848
40.5752 17.4263
40.6228 17.405
40.6703 17.4122
40.718 17.3573
40.7655 17.2895
40.8132 17.1568
40.8607 17.1981
40.9084 17.1012
40.9559 17.0381
41.0036 16.9955
41.0512 16.9103
41.0989 16.8961
41.1465 16.8281
41.1942 16.7561
41.242 16.7019
41.2896 16.6098
41.3373 16.5621
41.3849 16.5384
41.4327 16.489
41.4803 16.4321
41.5281 16.3937
41.5758 16.2682
41.6236 16.243
41.6712 16.213
41.7191 16.1283
41.7667 16.14
41.8146 16.0611
41.8622 15.9998
41.9101 15.9341
41.9578 15.8564
42.0057 15.8086
42.0534 15.7586
42.1013 15.7232
42.149 15.6836
42.1969 15.6365
42.2446 15.5807
42.2925 15.5624
42.3403 15.4976
42.3882 15.4348
42.436 15.3657
42.4839 15.2918
42.5319 15.2383
42.5797 15.2233
42.6277 15.1273
42.6755 15.0918
42.7235 15.0343
42.7713 14.9947
42.8193 14.9381
42.8671 14.9475
42.9152 14.8695
42.963 14.7834
43.0111 14.7733
43.0589 14.682
43.107 14.6869
43.1549 14.6013
43.2029 14.497
43.2508 14.489
43.2989 14.3963
43.3468 14.4536
43.3949 14.3481
43.4429 14.3028
43.491 14.2151
43.5389 14.1866
43.5871 14.1327
43.635 14.1086
43.6832 14.0635
43.7312 14.0046
43.7793 14.0071
43.8273 13.9225
43.8755 13.8397
43.9237 13.8417
43.9717 13.7737
44.0199 13.6557
44.068 13.71
44.1162 13.5731
44.1642 13.6211
44.2125 13.5189
44.2606 13.4632
44.3088 13.4555
44.3569 13.3918
44.4052 13.3552
44.4533 13.2828
44.5016 13.2483
44.5497 13.1982
44.598 13.1668
44.6461 13.0892
44.6945 13.0434
44.7426 12.9923
44.791 12.9634
44.8391 12.9
44.8875 12.8746
44.9357 12.8328
44.984 12.8006
45.0322 12.7485
45.0806 12.6608
45.1288 12.6399
45.1773 12.6253
45.2257 12.5243
45.2739 12.5142
45.3224 12.4522
45.3706 12.4702
45.4191 12.343
45.4673 12.3372
45.5158 12.3305
45.5641 12.2449
45.6126 12.2094
45.6609 12.2143
45.7094 12.0834
45.7577 12.0418
45.8063 12.0319
45.8546 11.9624
45.9031 11.9453
45.9515 11.8913
46.0001 11.853
46.0484 11.8582
46.097 11.7684
46.1454 11.7493
46.194 11.6889
46.2424 11.6055
46.291 11.631
46.3395 11.5569
46.3881 11.4952
46.4365 11.4683
46.4852 11.409
46.5337 11.3882
46.5823 11.3803
46.631 11.2946
46.6795 11.2813
46.7282 11.2347
46.7767 11.1899
46.8254 11.1321
46.8739 11.0735
46.9226 11.073
46.9712 10.9998
47.0199 10.9665
47.0685 10.957
47.1173 10.9285
47.1658 10.863
47.2146 10.8592
47.2632 10.7713
47.312 10.7683
47.3606 10.7205
47.4095 10.673
47.4581 10.6154
47.5069 10.5849
47.5556 10.5536
47.6044 10.4937
47.6531 10.5048
47.702 10.3855
47.7507 10.4085
47.7996 10.339
47.8483 10.3146
47.8972 10.2656
47.9461 10.2579
47.9948 10.2073
48.0438 10.1705
48.0925 10.1768
48.1415 10.1391
48.1902 10.0773
48.2392 10.0555
48.288 10.0273
48.337 9.94138
48.3858 9.86984
48.4348 9.88392
48.4837 9.86273
48.5327 9.84399
48.5815 9.76567
48.6306 9.77247
48.6795 9.74128
48.7285 9.65523
48.7774 9.64264
48.8265 9.58334
48.8754 9.57388
48.9245 9.54388
48.9734 9.50638
49.0226 9.45113
49.0715 9.39372
49.1206 9.37792
49.1696 9.3447
49.2188 9.30269
49.2679 9.28525
49.3169 9.22098
49.3661 9.19379
49.4151 9.14901
49.4643 9.16482
49.5134 9.10324
49.5626 9.0562
49.6117 9.03447
49.6609 9.00295
49.71 8.9501
49.7592 8.94183
49.8083 8.8744
49.8576 8.87459
49.9067 8.83271
49.956 8.77932
50.0052 8.73935
50.0545 8.72177
50.1036 8.70331
50.153 8.63431
50.2022 8.61507
50.2515 8.57946
50.3007 8.55656
50.3501 8.49808
50.3993 8.50388
50.4487 8.42397
50.498 8.44898
50.5474 8.40397
50.5966 8.36348
50.6461 8.30411
50.6955 8.29003
50.7448 8.22367
50.7943 8.23475
50.8436 8.17655
50.8931 8.16077
50.9424 8.12931
50.9919 8.11351
51.0413 8.08758
51.0908 8.04988
51.1402 7.99181
51.1897 7.97377
51.2391 7.93007
51.2887 7.91318
51.3381 7.84923
51.3877 7.84417
51.4371 7.85065
51.4867 7.78602
51.5362 7.76955
51.5858 7.70317
51.6353 7.66984
51.6849 7.63051
51.7344 7.60912
51.7841 7.57337
51.8336 7.56539
51.8833 7.53187
51.9328 7.49154
51.9826 7.43496
52.0323 7.4596
52.0818 7.38183
52.1316 7.37723
52.1812 7.34177
52.231 7.31835
52.2806 7.25476
52.3304 7.25975
52.38 7.21822
52.4298 7.16518
52.4794 7.16299
52.5293 7.14044
52.5789 7.11532
52.6288 7.07205
52.6785 7.01774
52.7284 7.00215
52.7781 6.99627
52.828 6.91842
52.8777 6.93194
52.9276 6.90136
52.9774 6.8356
53.0273 6.82059
53.0771 6.8395
53.1271 6.81315
53.1769 6.75193
53.2269 6.76704
53.2767 6.66482
53.3267 6.63656
53.3765 6.6417
53.4266 6.61435
53.4766 6.57394
53.5265 6.51729
53.5765 6.48657
53.6264 6.46171
53.6765 6.44313
53.7264 6.46549
53.7765 6.44937
53.8265 6.34814
53.8766 6.33306
53.9266 6.3375
53.9767 6.34745
54.0267 6.28516
54.0769 6.25535
54.1269 6.17787
54.1771 6.16958
54.2271 6.14474
54.2773 6.08899
54.3274 6.10482
54.3776 6.02743
54.4277 6.04372
54.478 5.94702
54.528 5.93851
54.5783 5.89985
54.6285 5.85071
54.6788 5.8013
54.7289 5.73655
54.7792 5.73741
54.8296 5.6666
54.8798 5.59877
54.9301 5.58791
54.9803 5.60443
55.0307 5.54467
55.0809 5.50032
55.1314 5.48928
55.1816 5.41813
55.232 5.36243
55.2823 5.32343
55.3328 5.3149
55.383 5.19374
55.4335 5.21702
55.4838 5.12567
55.5344 5.06639
55.5847 5.05261
55.6352 5.03811
55.6856 4.97456
55.7361 4.93991