File: XRD/Ni3Fe_FD0473.xy
TT I
1.27165 7.76684
1.31627 6.97876
1.36089 6.5688
1.40551 6.37144
1.45013 6.38331
1.49476 6.36523
1.53938 6.0095
1.584 5.13794
1.62863 5.05955
1.67325 4.96013
1.71787 5.79863
1.7625 4.92859
1.80712 5.61194
1.85174 4.55733
1.89636 4.44337
1.94099 4.66025
1.98562 4.83802
2.03025 4.18527
2.07487 4.84438
2.11949 5.16355
2.16411 4.48726
2.20874 8.58085
2.25338 11.8806
2.298 5.08899
2.34263 5.38654
2.38725 5.72895
2.43188 5.66591
2.4765 6.50677
2.52115 7.29051
2.56577 7.60396
2.6104 7.22187
2.65503 6.87414
2.69965 7.52048
2.7443 7.72848
2.78893 8.04567
2.83356 7.93521
2.87818 8.78162
2.92281 8.84793
2.96744 9.31334
3.01209 10.2786
3.05672 11.4504
3.10135 12.159
3.14599 12.7831
3.19062 13.7865
3.23527 14.9083
3.2799 15.9782
3.32454 17.4275
3.36917 17.8354
3.4138 18.9852
3.45844 19.3905
3.50309 20.884
3.54773 21.8
3.59237 23.1651
3.637 54.6418
3.68164 39.6266
3.7263 25.8012
3.77094 26.0265
3.81558 26.3469
3.86022 27.5129
3.90486 28.6897
3.9495 29.96
3.99416 31.2325
4.0388 32.3286
4.08344 33.7132
4.12809 34.6653
4.17273 36.235
4.21738 39.8537
4.26204 134.876
4.30669 118.328
4.35133 45.2587
4.39598 44.3289
4.44063 49.4664
4.4853 55.8227
4.52995 54.2981
4.5746 54.1493
4.61925 54.5031
4.6639 56.5167
4.70855 59.5598
4.75322 62.5821
4.79788 67.1629
4.84253 69.2784
4.88719 75.0606
4.93184 77.3904
4.97652 83.4587
5.02118 89.7604
5.06583 98.8715
5.11049 111.884
5.15515 165.048
5.19981 536.838
5.24449 3524.25
5.28916 11709.2
5.33382 2872.48
5.37848 206.13
5.42315 134.896
5.46783 120.171
5.5125 111.357
5.55716 104.898
5.60183 100.437
5.6465 98.7819
5.69117 97.0359
5.73586 95.0711
5.78053 96.8465
5.8252 97.227
5.86988 98.6694
5.91455 98.8327
5.95924 112.374
6.00392 297.485
6.0486 1188.5
6.09328 4285.01
6.13795 3293.69
6.18263 249.335
6.22733 95.845
6.27201 83.2501
6.3167 88.4354
6.36138 76.8109
6.40606 70.549
6.45075 69.4321
6.49545 66.1296
6.54014 64.6144
6.58483 63.7467
6.62952 63.4172
6.67421 76.4105
6.71892 97.3911
6.76361 64.0346
6.8083 59.5075
6.853 59.0906
6.89769 57.5744
6.94239 57.0693
6.98711 56.5073
7.03181 56.1316
7.07651 55.8682
7.12121 55.5323
7.16591 56.3137
7.21063 55.8121
7.25533 61.7716
7.30004 108.897
7.34475 70.927
7.38945 55.9367
7.43416 54.7234
7.47889 54.655
7.5236 54.9138
7.56831 55.7228
7.61303 56.6098
7.65774 57.0011
7.70247 57.2966
7.74719 56.8976
7.79191 57.3908
7.83663 57.9279
7.88135 58.9364
7.92607 59.6762
7.97081 60.8266
8.01553 61.7934
8.06026 63.3915
8.10498 64.885
8.14971 71.3639
8.19446 71.1262
8.23919 70.6706
8.28392 73.2424
8.32865 75.8156
8.37339 80.5947
8.41812 86.4169
8.46288 109.693
8.50761 210.754
8.55235 467.358
8.59709 1246.51
8.64183 2188.74
8.68658 963.957
8.73134 166.313
8.77609 101.457
8.82083 94.9101
8.86558 92.5795
8.91033 91.7528
8.9551 90.3016
8.99985 86.5559
9.04461 85.4616
9.08936 85.1497
9.13412 84.1767
9.17888 83.1996
9.22365 84.3252
9.26841 83.7058
9.31318 85.1235
9.35794 85.9317
9.4027 85.6709
9.44749 85.8147
9.49226 86.5561
9.53703 87.4125
9.5818 90.4061
9.62657 93.3056
9.67134 96.386
9.71614 94.7409
9.76091 96.4748
9.80569 99.267
9.85047 102.812
9.89525 116.178
9.94005 134.73
9.98484 222.474
10.0296 412.145
10.0744 890.277
10.1192 1713.0
10.164 1616.85
10.2088 402.275
10.2536 129.284
10.2984 112.973
10.3432 111.632
10.388 108.663
10.4328 131.971
10.4776 179.755
10.5224 303.254
10.5672 500.282
10.612 491.106
10.6568 200.094
10.7017 97.2635
10.7465 87.9113
10.7913 84.6482
10.8361 82.6154
10.8809 80.1691
10.9257 78.7059
10.9706 78.7252
11.0154 75.7333
11.0602 73.6606
11.105 72.4117
11.1499 74.0198
11.1947 76.6062
11.2395 71.8572
11.2844 69.9387
11.3292 68.1412
11.374 66.9718
11.4189 66.5205
11.4637 65.6807
11.5086 65.6178
11.5534 66.6921
11.5983 65.3266
11.6431 64.407
11.688 63.9008
11.7328 63.7586
11.7777 63.5796
11.8225 63.5467
11.8674 63.5479
11.9122 63.9671
11.9571 64.089
12.002 65.7625
12.0468 72.2731
12.0917 84.2545
12.1366 109.748
12.1814 156.149
12.2263 201.59
12.2712 168.894
12.3161 90.9638
12.3609 68.823
12.4058 65.2304
12.4507 65.356
12.4956 65.6626
12.5405 65.5952
12.5853 66.517
12.6302 69.8027
12.6751 72.9584
12.72 69.3651
12.7649 68.7167
12.8098 69.3573
12.8547 70.7364
12.8996 72.6139
12.9445 74.1437
12.9894 75.5274
13.0343 77.7372
13.0792 82.064
13.1242 97.7204
13.1691 122.635
13.214 163.453
13.2589 252.08
13.3038 369.562
13.3487 421.853
13.3937 260.467
13.4386 124.757
13.4835 114.117
13.5285 131.042
13.5734 172.309
13.6183 254.597
13.6633 341.798
13.7082 342.292
13.7531 187.618
13.7981 97.5233
13.843 83.2705
13.888 81.2228
13.9329 78.3529
13.9779 77.2531
14.0228 75.6505
14.0678 74.3626
14.1127 73.6342
14.1577 73.2501
14.2027 72.5661
14.2476 71.6956
14.2926 71.2954
14.3376 71.7997
14.3825 70.9408
14.4275 69.9742
14.4725 69.8731
14.5175 70.2059
14.5624 70.069
14.6074 71.3686
14.6524 71.9357
14.6974 72.1048
14.7424 76.0993
14.7874 84.1649
14.8324 95.2666
14.8774 118.491
14.9224 158.409
14.9674 202.497
15.0124 215.492
15.0574 146.951
15.1024 90.4163
15.1474 73.4023
15.1924 71.206
15.2374 70.8872
15.2824 69.9014
15.3274 68.79
15.3725 67.8239
15.4175 67.5935
15.4625 67.1925
15.5076 66.9413
15.5526 67.131
15.5976 67.4767
15.6426 70.2559
15.6877 76.5769
15.7327 84.8957
15.7778 101.484
15.8228 131.307
15.8679 169.438
15.9129 191.569
15.958 154.36
16.003 94.7643
16.0481 68.1465
16.0931 64.4401
16.1382 62.513
16.1833 61.2395
16.2283 59.6588
16.2734 59.1835
16.3185 58.8473
16.3636 58.7666
16.4086 57.92
16.4537 56.8783
16.4988 56.4882
16.5439 56.2282
16.589 55.9164
16.6341 55.8158
16.6792 55.3405
16.7243 55.6341
16.7694 55.6603
16.8145 55.5273
16.8596 56.0237
16.9047 56.4952
16.9498 56.8096
16.9949 56.4358
17.04 57.1891
17.0851 58.6046
17.1302 60.2718
17.1754 63.6362
17.2205 68.6694
17.2656 75.582
17.3108 82.4769
17.3559 81.9984
17.401 71.4773
17.4462 62.9198
17.4913 60.0579
17.5365 59.8283
17.5815 60.2978
17.6268 60.5022
17.6718 61.3779
17.7171 61.8075
17.7622 62.5097
17.8074 63.6525
17.8525 67.419
17.8977 71.3465
17.9428 77.1025
17.9881 87.0857
18.0331 103.361
18.0784 121.989
18.1237 140.517
18.1688 132.917
18.214 105.666
18.2591 88.8877
18.3044 92.2234
18.3495 100.536
18.3948 106.801
18.4399 97.2011
18.4852 78.5443
18.5303 66.7385
18.5756 63.0715
18.6207 62.2942
18.666 61.3588
18.7112 60.5913
18.7565 59.9998
18.8016 59.7133
18.8469 58.7626
18.892 58.7089
18.9374 58.2943
18.9825 57.9382
19.0278 57.715
19.073 58.2667
19.1183 58.4548
19.1635 59.1652
19.2088 60.9023
19.254 63.775
19.2993 67.9781
19.3447 72.9176
19.3898 76.5111
19.4352 72.8761
19.4804 63.5307
19.5257 57.1527
19.5709 55.0714
19.6163 54.8287
19.6615 54.5146
19.7068 54.3902
19.752 54.1414
19.7974 54.6582
19.8426 55.5745
19.888 56.277
19.9332 57.805
19.9786 60.1471
20.0238 63.7662
20.0692 68.0617
20.1144 70.4732
20.1598 69.198
20.205 64.8141
20.2504 63.1235
20.2957 64.4402
20.3411 65.9796
20.3863 64.6175
20.4318 58.7087
20.477 54.1268
20.5224 52.04
20.5677 51.2987
20.6131 50.9143
20.6586 50.2562
20.7038 50.378
20.7493 49.813
20.7945 49.7246
20.84 49.5524
20.8853 49.6194
20.9307 49.3966
20.976 49.5784
21.0215 49.6188
21.0668 49.7463
21.1122 50.4969
21.1575 50.8342
21.203 51.496
21.2483 52.129
21.2938 52.2937
21.3391 50.7503
21.3846 49.8306
21.4299 49.176
21.4754 49.3904
21.5207 49.5117
21.5662 49.9318
21.6116 50.4739
21.6571 50.8768
21.7024 52.1581
21.7479 54.141
21.7933 56.777
21.8388 60.0287
21.8843 63.3122
21.9297 65.5682
21.9752 63.9911
22.0206 60.0129
22.0661 56.8021
22.1115 56.6011
22.157 56.5631
22.2024 54.9786
22.248 52.062
22.2933 50.4968
22.3389 49.7812
22.3843 49.7373
22.4299 49.5683
22.4753 49.4678
22.5208 49.3198
22.5662 49.3948
22.6118 49.6316
22.6572 49.7599
22.7028 50.264
22.7483 50.7855
22.7939 51.5325
22.8393 53.1993
22.8849 54.8426
22.9303 56.8372
22.9759 58.2857
23.0214 57.9143
23.067 54.9089
23.1126 51.7758
23.1581 49.9725
23.2037 49.6929
23.2492 49.9833
23.2948 49.6023
23.3403 50.1426
23.3859 50.8895
23.4314 51.9609
23.477 53.5752
23.5225 55.4099
23.5682 57.4626
23.6137 58.3178
23.6593 56.0455
23.7048 52.4002
23.7505 48.8652
23.796 47.2574
23.8417 46.6278
23.8872 46.338
23.9329 45.9402
23.9784 45.5385
24.0241 45.2748
24.0697 45.0287
24.1154 44.7284
24.1609 44.7315
24.2066 44.5392
24.2522 44.1386
24.2979 43.9969
24.3434 43.9645
24.3892 43.8064
24.4349 43.8312
24.4805 43.498
24.5262 43.8016
24.5718 43.6057
24.6175 43.6129
24.6631 43.4817
24.7089 43.0275
24.7545 43.0048
24.8002 42.9134
24.8458 42.862
24.8916 42.851
24.9372 43.0123
24.983 43.3382
25.0286 43.5638
25.0744 44.001
25.12 44.4733
25.1658 45.0658
25.2114 45.3245
25.2572 45.3603
25.3029 45.3877
25.3487 45.4575
25.3943 45.2302
25.4402 43.9915
25.4858 42.9926
25.5316 42.0111
25.5773 41.6096
25.6231 41.4699
25.669 41.1167
25.7147 41.2078
25.7605 41.102
25.8062 40.9702
25.8521 41.1911
25.8977 41.3078
25.9436 41.6292
25.9893 41.631
26.0352 42.0825
26.0809 42.1824
26.1268 42.3854
26.1725 41.9328
26.2184 41.3802
26.2641 41.0556
26.31 40.8286
26.3557 40.8567
26.4017 40.9286
26.4474 41.2037
26.4933 41.3734
26.5391 41.7258
26.585 42.1909
26.6308 42.7238
26.6767 42.8443
26.7225 42.5831
26.7684 42.0487
26.8142 41.3504
26.8601 40.969
26.9059 40.5406
26.9519 40.1906
26.9979 39.7912
27.0437 39.6061
27.0896 39.5197
27.1354 39.4161
27.1814 39.1734
27.2272 39.1281
27.2732 39.3943
27.3191 38.8992
27.3651 39.0174
27.4109 38.9979
27.4569 39.1732
27.5027 39.1068
27.5488 39.2927
27.5946 38.989
27.6407 38.775
27.6865 38.6542
27.7326 38.4985
27.7784 38.4234
27.8245 38.4776
27.8703 38.6134
27.9164 38.9026
27.9623 38.9263
28.0084 39.265
28.0543 39.7387
28.1003 39.5212
28.1462 39.4228
28.1923 38.9977
28.2384 38.4444
28.2843 38.2747
28.3304 37.7581
28.3764 37.2224
28.4225 36.9478
28.4684 36.7754
28.5145 36.4726
28.5605 36.3705
28.6066 36.1383
28.6526 36.1663
28.6987 36.1241
28.7447 36.0797
28.7908 35.9926
28.8368 36.0204
28.8829 36.0861
28.9289 35.884
28.9751 35.7396
29.0211 35.6244
29.0673 35.2281
29.1133 35.1051
29.1595 34.9163
29.2055 34.9403
29.2517 34.7516
29.2977 34.6353
29.3439 34.7065
29.3899 34.8209
29.4361 34.6571
29.4824 34.4565
29.5284 34.2773
29.5746 33.9583
29.6207 33.7137
29.6669 33.4529
29.713 33.4745
29.7593 33.283
29.8053 33.2724
29.8516 33.3164
29.8977 33.3318
29.9439 33.1002
29.99 33.1345
30.0363 33.0437
30.0824 32.9224
30.1287 32.9381
30.1748 32.8169
30.2211 32.9707
30.2673 32.7867
30.3136 32.837
30.3597 32.7198
30.406 32.7022
30.4522 32.5606
30.4985 32.6151
30.5447 32.8222
30.591 32.7263
30.6372 32.6957
30.6835 32.6367
30.7297 32.7351
30.7761 32.6077
30.8224 32.485
30.8686 32.3428
30.915 32.214
30.9612 31.9273
31.0076 31.7445
31.0538 31.6066
31.1002 31.6735
31.1464 31.4807
31.1928 31.382
31.2391 31.4116
31.2855 31.338
31.3317 31.3266
31.3781 31.3813
31.4244 31.3642
31.4708 31.2515
31.5171 31.3075
31.5636 31.2458
31.6098 30.9022
31.6563 30.7674
31.7026 30.8082
31.7491 30.5871
31.7953 30.6303
31.8418 30.6471
31.8881 30.5059
31.9346 30.5301
31.9809 30.5042
32.0275 30.3401
32.074 30.2403
32.1203 30.0756
32.1668 29.9387
32.2132 29.8073
32.2597 29.6539
32.306 29.6157
32.3526 29.5532
32.399 29.4332
32.4455 29.2166
32.4919 29.2256
32.5385 29.0854
32.5848 28.8658
32.6314 28.9368
32.6778 28.8326
32.7244 28.7138
32.7708 28.5925
32.8174 28.562
32.8638 28.4849
32.9104 28.4826
32.9569 28.5065
33.0035 28.3032
33.0499 28.2832
33.0966 28.1072
33.143 28.2388
33.1897 28.1388
33.2361 28.0368
33.2828 28.0578
33.3293 27.7883
33.3759 27.8408
33.4226 27.6234
33.4691 27.4756
33.5158 27.3459
33.5623 27.2298
33.609 27.1902
33.6555 27.0674
33.7022 26.9716
33.7487 26.8886
33.7954 27.0082
33.842 26.7898
33.8887 26.7973
33.9353 26.6157
33.982 26.6238
34.0286 26.5178
34.0753 26.4175
34.1219 26.2898
34.1687 26.1954
34.2152 26.1653
34.262 25.9989
34.3086 25.9647
34.3554 25.891
34.402 25.7127
34.4488 25.6992
34.4954 25.6459
34.5422 25.592
34.5889 25.4298
34.6357 25.3177
34.6825 25.3381
34.7292 25.1508
34.776 25.1025
34.8227 25.0736
34.8695 25.0619
34.9162 24.9273
34.9631 24.8374
35.0098 24.8306
35.0566 24.764
35.1033 24.6473
35.1502 24.6464
35.1969 24.6047
35.2438 24.4843
35.2906 24.4035
35.3375 24.4864
35.3842 24.3364
35.4311 24.3704
35.4779 24.2364
35.5248 24.2513
35.5716 24.1164
35.6185 23.9955
35.6653 23.917
35.7123 23.8618
35.759 23.7426
35.806 23.7111
35.8528 23.5696
35.8998 23.5371
35.9468 23.4953
35.9936 23.385
36.0406 23.3691
36.0874 23.355
36.1345 23.2108
36.1813 23.1635
36.2283 22.9989
36.2752 22.9698
36.3222 22.989
36.3691 22.9232
36.4161 22.775
36.463 22.7937
36.5101 22.8444
36.557 22.748
36.6041 22.4754
36.651 22.4921
36.6981 22.4096
36.745 22.4084
36.7921 22.2234
36.839 22.1732
36.8861 22.09
36.9331 22.0445
36.9802 22.0393
37.0272 21.8463
37.0743 21.794
37.1213 21.7896
37.1684 21.7222
37.2154 21.6387
37.2626 21.5707
37.3098 21.5276
37.3568 21.4949
37.404 21.3921
37.451 21.2871
37.4982 21.2113
37.5452 21.1563
37.5924 21.117
37.6395 21.1447
37.6867 20.9851
37.7337 20.9043
37.781 20.8844
37.8281 20.8086
37.8753 20.6449
37.9224 20.7085
37.9697 20.6119
38.0168 20.517
38.064 20.4352
38.1111 20.381
38.1584 20.2751
38.2056 20.2099
38.2529 20.1933
38.3 20.0917
38.3473 20.1105
38.3945 19.9577
38.4418 19.9573
38.489 19.9208
38.5363 19.7918
38.5837 19.6299
38.6309 19.674
38.6782 19.6859
38.7254 19.5629
38.7728 19.463
38.82 19.4737
38.8674 19.4187
38.9146 19.2819
38.9621 19.2413
39.0093 19.1986
39.0567 19.1846
39.104 19.1359
39.1514 18.9712
39.1987 18.8905
39.2461 18.9164
39.2934 18.8508
39.3409 18.7164
39.3882 18.7156
39.4356 18.6409
39.483 18.5884
39.5304 18.5052
39.5778 18.4815
39.6253 18.3958
39.6726 18.3389
39.7201 18.3587
39.7675 18.3116
39.815 18.2211
39.8624 18.0821
39.9099 18.071
39.9575 18.0411
40.0049 17.9653
40.0525 17.8658
40.0999 17.9035
40.1474 17.8047
40.1949 17.7425
40.2425 17.6719
40.2899 17.6287
40.3375 17.5651
40.385 17.5142
40.4326 17.4041
40.48 17.3466
40.5277 17.3535
40.5752 17.2938
40.6228 17.1376
40.6703 17.1817
40.718 17.094
40.7655 17.0931
40.8132 16.9599
40.8607 16.9548
40.9084 16.9271
40.9559 16.8189
41.0036 16.7851
41.0512 16.7259
41.0989 16.7122
41.1465 16.6336
41.1942 16.5998
41.242 16.5108
41.2896 16.4145
41.3373 16.4069
41.3849 16.3109
41.4327 16.3224
41.4803 16.2209
41.5281 16.1628
41.5758 16.0822
41.6236 16.0527
41.6712 15.9834
41.7191 15.9711
41.7667 15.8609
41.8146 15.8376
41.8622 15.7816
41.9101 15.7693
41.9578 15.658
42.0057 15.6485
42.0534 15.6089
42.1013 15.568
42.149 15.4453
42.1969 15.4605
42.2446 15.3915
42.2925 15.3406
42.3403 15.2577
42.3882 15.2616
42.436 15.1933
42.4839 15.0907
42.5319 15.0862
42.5797 15.0181
42.6277 15.0061
42.6755 14.9368
42.7235 14.8699
42.7713 14.8484
42.8193 14.7744
42.8671 14.7416
42.9152 14.6883
42.963 14.6045
43.0111 14.5623
43.0589 14.5018
43.107 14.4522
43.1549 14.4174
43.2029 14.387
43.2508 14.3234
43.2989 14.2329
43.3468 14.2034
43.3949 14.1863
43.4429 14.1422
43.491 14.0816
43.5389 13.9939
43.5871 13.9759
43.635 13.9428
43.6832 13.881
43.7312 13.7677
43.7793 13.7623
43.8273 13.7811
43.8755 13.7249
43.9237 13.6714
43.9717 13.5594
44.0199 13.5622
44.068 13.505
44.1162 13.4556
44.1642 13.3972
44.2125 13.3431
44.2606 13.3505
44.3088 13.2277
44.3569 13.2092
44.4052 13.1896
44.4533 13.1351
44.5016 13.0273
44.5497 13.0626
44.598 12.9957
44.6461 12.9454
44.6945 12.8936
44.7426 12.8395
44.791 12.8124
44.8391 12.7882
44.8875 12.689
44.9357 12.6994
44.984 12.6217
45.0322 12.5815
45.0806 12.5137
45.1288 12.4806
45.1773 12.4459
45.2257 12.3998
45.2739 12.3624
45.3224 12.3402
45.3706 12.3009
45.4191 12.2112
45.4673 12.2293
45.5158 12.1806
45.5641 12.1141
45.6126 12.044
45.6609 12.003
45.7094 11.9777
45.7577 11.9284
45.8063 11.8688
45.8546 11.8638
45.9031 11.784
45.9515 11.7989
46.0001 11.7104
46.0484 11.6862
46.097 11.6429
46.1454 11.6191
46.194 11.625
46.2424 11.461
46.291 11.476
46.3395 11.4223
46.3881 11.3683
46.4365 11.3705
46.4852 11.3194
46.5337 11.2756
46.5823 11.2314
46.631 11.2004
46.6795 11.1861
46.7282 11.1093
46.7767 11.0397
46.8254 10.9962
46.8739 10.977
46.9226 10.9397
46.9712 10.8866
47.0199 10.8227
47.0685 10.7721
47.1173 10.7935
47.1658 10.7115
47.2146 10.6835
47.2632 10.6209
47.312 10.6287
47.3606 10.5593
47.4095 10.5146
47.4581 10.4723
47.5069 10.4272
47.5556 10.4119
47.6044 10.3654
47.6531 10.3568
47.702 10.2408
47.7507 10.2965
47.7996 10.2082
47.8483 10.1537
47.8972 10.1562
47.9461 10.1209
47.9948 10.078
48.0438 10.0209
48.0925 10.0229
48.1415 9.9624
48.1902 9.91792
48.2392 9.93685
48.288 9.86653
48.337 9.81436
48.3858 9.76954
48.4348 9.77208
48.4837 9.75468
48.5327 9.7049
48.5815 9.66207
48.6306 9.65514
48.6795 9.63952
48.7285 9.55232
48.7774 9.52876
48.8265 9.51262
48.8754 9.42884
48.9245 9.42702
48.9734 9.37775
49.0226 9.36264
49.0715 9.2898
49.1206 9.28875
49.1696 9.24913
49.2188 9.21638
49.2679 9.165
49.3169 9.14344
49.3661 9.05804
49.4151 9.07183
49.4643 9.02652
49.5134 9.02229
49.5626 8.95393
49.6117 8.94972
49.6609 8.87201
49.71 8.84553
49.7592 8.82688
49.8083 8.76161
49.8576 8.70242
49.9067 8.69211
49.956 8.67712
50.0052 8.6186
50.0545 8.61176
50.1036 8.56353
50.153 8.56475
50.2022 8.55173
50.2515 8.46554
50.3007 8.40635
50.3501 8.39627
50.3993 8.38475
50.4487 8.31869
50.498 8.30727
50.5474 8.27521
50.5966 8.28424
50.6461 8.21015
50.6955 8.18627
50.7448 8.15326
50.7943 8.13446
50.8436 8.10736
50.8931 8.08192
50.9424 8.04299
50.9919 8.00998
51.0413 7.97875
51.0908 7.94524
51.1402 7.9269
51.1897 7.85479
51.2391 7.86744
51.2887 7.80183
51.3381 7.75815
51.3877 7.76056
51.4371 7.70151
51.4867 7.66727
51.5362 7.65049
51.5858 7.57406
51.6353 7.57835
51.6849 7.54208
51.7344 7.50032
51.7841 7.45841
51.8336 7.46479
51.8833 7.4179
51.9328 7.39542
51.9826 7.37688
52.0323 7.33615
52.0818 7.31385
52.1316 7.27548
52.1812 7.26651
52.231 7.18823
52.2806 7.17869
52.3304 7.15694
52.38 7.10705
52.4298 7.07234
52.4794 7.06266
52.5293 7.03847
52.5789 7.01348
52.6288 6.98638
52.6785 6.93503
52.7284 6.94848
52.7781 6.89376
52.828 6.8439
52.8777 6.81146
52.9276 6.80902
52.9774 6.78607
53.0273 6.75508
53.0771 6.70046
53.1271 6.72765
53.1769 6.65883
53.2269 6.65347
53.2767 6.61053
53.3267 6.58085
53.3765 6.54634
53.4266 6.5383
53.4766 6.51763
53.5265 6.44587
53.5765 6.45499
53.6264 6.40871
53.6765 6.4101
53.7264 6.34045
53.7765 6.32698
53.8265 6.30995
53.8766 6.25926
53.9266 6.25691
53.9767 6.21199
54.0267 6.23923
54.0769 6.18748
54.1269 6.16029
54.1771 6.10137
54.2271 6.11468
54.2773 6.0563
54.3274 6.07497
54.3776 5.95644
54.4277 5.94212
54.478 5.93993
54.528 5.85238
54.5783 5.78232
54.6285 5.75424
54.6788 5.8179
54.7289 5.69534
54.7792 5.66064
54.8296 5.62953
54.8798 5.60233
54.9301 5.59
54.9803 5.52222
55.0307 5.54858
55.0809 5.44871
55.1314 5.43712
55.1816 5.35389
55.232 5.35127
55.2823 5.28528
55.3328 5.23136
55.383 5.18819
55.4335 5.12268
55.4838 5.04819
55.5344 5.01076
55.5847 5.00311
55.6352 4.96056
55.6856 4.92557
55.7361 4.86023