File: XRD/Ni3Fe_FD0988.xy
TT I
1.27165 6.84246
1.31627 6.54795
1.36089 6.79072
1.40551 5.06985
1.45013 6.76435
1.49476 5.04688
1.53938 5.63718
1.584 5.36502
1.62863 5.16696
1.67325 5.33279
1.71787 4.56964
1.7625 4.79313
1.80712 4.4427
1.85174 4.80371
1.89636 5.25522
1.94099 4.81024
1.98562 4.8241
2.03025 4.40442
2.07487 4.6047
2.11949 5.02349
2.16411 4.99047
2.20874 14.891
2.25338 25.2537
2.298 6.75762
2.34263 5.28502
2.38725 6.26693
2.43188 6.3436
2.4765 6.92425
2.52115 7.26999
2.56577 9.04993
2.6104 8.65005
2.65503 7.85767
2.69965 8.36448
2.7443 8.60374
2.78893 8.91487
2.83356 8.75892
2.87818 8.37093
2.92281 9.26995
2.96744 9.62507
3.01209 10.7414
3.05672 11.2155
3.10135 12.5936
3.14599 13.3619
3.19062 14.1893
3.23527 15.4044
3.2799 16.3158
3.32454 16.9091
3.36917 17.7748
3.4138 19.197
3.45844 19.6248
3.50309 20.7692
3.54773 21.5923
3.59237 24.5648
3.637 99.1514
3.68164 63.9123
3.7263 26.1953
3.77094 26.3331
3.81558 26.723
3.86022 27.3924
3.90486 28.7069
3.9495 29.5754
3.99416 30.6452
4.0388 32.272
4.08344 33.2833
4.12809 34.6464
4.17273 37.0354
4.21738 43.2434
4.26204 271.286
4.30669 241.714
4.35133 49.1384
4.39598 44.0372
4.44063 54.5858
4.4853 67.6905
4.52995 49.9254
4.5746 50.2312
4.61925 52.2865
4.6639 54.4889
4.70855 56.829
4.75322 59.4116
4.79788 62.5852
4.84253 65.4636
4.88719 69.6117
4.93184 73.5227
4.97652 78.5298
5.02118 83.9079
5.06583 90.5978
5.11049 100.299
5.15515 166.934
5.19981 269.813
5.24449 2222.93
5.28916 13579.8
5.33382 2784.26
5.37848 173.16
5.42315 123.596
5.46783 110.07
5.5125 103.553
5.55716 99.4856
5.60183 95.6863
5.6465 94.567
5.69117 91.6773
5.73586 89.6519
5.78053 89.0912
5.8252 88.3805
5.86988 88.8121
5.91455 90.1187
5.95924 95.295
6.00392 163.369
6.0486 764.972
6.09328 4549.23
6.13795 3276.3
6.18263 214.49
6.22733 89.552
6.27201 81.0046
6.3167 103.441
6.36138 80.0455
6.40606 67.3838
6.45075 65.7508
6.49545 64.4892
6.54014 62.76
6.58483 61.7022
6.62952 61.8425
6.67421 96.4745
6.71892 152.926
6.76361 69.2596
6.8083 58.0458
6.853 56.4402
6.89769 55.9513
6.94239 55.9363
6.98711 55.0159
7.03181 54.6541
7.07651 54.703
7.12121 54.5958
7.16591 54.2476
7.21063 55.192
7.25533 71.5144
7.30004 192.971
7.34475 96.4308
7.38945 56.0548
7.43416 53.954
7.47889 53.3357
7.5236 54.0702
7.56831 54.6158
7.61303 56.5641
7.65774 56.8098
7.70247 55.2205
7.74719 55.0536
7.79191 55.8322
7.83663 56.2233
7.88135 56.8691
7.92607 57.5276
7.97081 58.7664
8.01553 59.309
8.06026 61.1641
8.10498 62.6588
8.14971 73.0248
8.19446 71.4739
8.23919 68.1742
8.28392 70.2937
8.32865 72.5087
8.37339 76.4179
8.41812 82.9228
8.46288 112.052
8.50761 139.153
8.55235 315.782
8.59709 1116.68
8.64183 2341.07
8.68658 947.943
8.73134 161.076
8.77609 96.639
8.82083 90.4243
8.86558 87.5862
8.91033 88.2007
8.9551 90.299
8.99985 83.9939
9.04461 81.8067
9.08936 80.6707
9.13412 80.0367
9.17888 80.4966
9.22365 81.3991
9.26841 80.4597
9.31318 80.7155
9.35794 80.6209
9.4027 81.4882
9.44749 82.1451
9.49226 82.8344
9.53703 83.5133
9.5818 84.8955
9.62657 89.9796
9.67134 97.4342
9.71614 91.7793
9.76091 91.7006
9.80569 93.7078
9.85047 97.4266
9.89525 122.709
9.94005 134.595
9.98484 151.32
10.0296 287.259
10.0744 736.563
10.1192 1771.19
10.164 1578.57
10.2088 372.785
10.2536 122.68
10.2984 110.978
10.3432 112.8
10.388 102.144
10.4328 109.732
10.4776 143.069
10.5224 263.343
10.5672 533.26
10.612 515.279
10.6568 197.2
10.7017 94.748
10.7465 84.5306
10.7913 81.2606
10.8361 79.6098
10.8809 77.1264
10.9257 77.4722
10.9706 78.1888
11.0154 73.6143
11.0602 71.3772
11.105 70.3473
11.1499 75.2661
11.1947 83.9016
11.2395 74.0217
11.2844 69.6158
11.3292 66.0942
11.374 64.6195
11.4189 64.2249
11.4637 63.3463
11.5086 64.4024
11.5534 67.7187
11.5983 64.6684
11.6431 62.3476
11.688 61.7756
11.7328 61.7596
11.7777 61.4434
11.8225 61.2627
11.8674 60.9901
11.9122 61.5864
11.9571 61.2766
12.002 61.8509
12.0468 64.3688
12.0917 74.062
12.1366 96.9388
12.1814 149.806
12.2263 204.92
12.2712 161.981
12.3161 94.6504
12.3609 70.0363
12.4058 63.6172
12.4507 63.2065
12.4956 62.8674
12.5405 63.2345
12.5853 64.4148
12.6302 72.7239
12.6751 79.0185
12.72 69.1298
12.7649 66.3551
12.8098 66.6788
12.8547 68.2119
12.8996 69.5115
12.9445 70.3146
12.9894 72.075
13.0343 73.6996
13.0792 76.4207
13.1242 82.943
13.1691 102.688
13.214 135.497
13.2589 225.526
13.3038 376.579
13.3487 433.392
13.3937 254.21
13.4386 120.875
13.4835 99.1552
13.5285 111.337
13.5734 146.836
13.6183 240.84
13.6633 358.473
13.7082 339.533
13.7531 179.991
13.7981 94.5802
13.843 79.7475
13.888 77.6562
13.9329 75.1353
13.9779 74.3019
14.0228 72.5079
14.0678 71.2889
14.1127 71.0325
14.1577 70.8224
14.2027 70.0539
14.2476 68.8432
14.2926 69.1202
14.3376 70.3142
14.3825 68.8967
14.4275 67.5493
14.4725 67.061
14.5175 67.1155
14.5624 67.7258
14.6074 69.6392
14.6524 70.4553
14.6974 68.6042
14.7424 69.4706
14.7874 74.3613
14.8324 83.0696
14.8774 103.295
14.9224 148.348
14.9674 212.587
15.0124 219.471
15.0574 149.153
15.1024 88.5149
15.1474 70.9482
15.1924 69.0124
15.2374 69.6097
15.2824 69.1303
15.3274 66.6554
15.3725 65.4086
15.4175 65.1614
15.4625 64.6962
15.5076 64.7899
15.5526 64.8186
15.5976 63.9643
15.6426 64.5761
15.6877 68.5163
15.7327 74.9354
15.7778 88.7985
15.8228 120.22
15.8679 171.675
15.9129 197.603
15.958 153.516
16.003 94.3834
16.0481 66.8417
16.0931 63.7476
16.1382 61.6833
16.1833 59.5743
16.2283 57.9154
16.2734 57.1888
16.3185 57.5756
16.3636 58.4353
16.4086 56.679
16.4537 55.1184
16.4988 54.3874
16.5439 54.2988
16.589 53.9394
16.6341 53.6441
16.6792 53.3767
16.7243 53.6462
16.7694 54.0629
16.8145 53.7331
16.8596 54.1931
16.9047 55.9831
16.9498 55.962
16.9949 54.5983
17.04 54.4313
17.0851 55.38
17.1302 56.8431
17.1754 59.6859
17.2205 64.4206
17.2656 72.8595
17.3108 81.9535
17.3559 80.2809
17.401 68.6423
17.4462 60.313
17.4913 57.7278
17.5365 57.8034
17.5815 57.8119
17.6268 58.2671
17.6718 58.9999
17.7171 59.4371
17.7622 59.6978
17.8074 60.2687
17.8525 61.8943
17.8977 65.3469
17.9428 70.0249
17.9881 78.546
18.0331 96.2368
18.0784 120.519
18.1237 138.0
18.1688 126.736
18.214 99.1778
18.2591 83.3281
18.3044 88.3538
18.3495 99.8242
18.3948 106.399
18.4399 94.6305
18.4852 75.6644
18.5303 64.6611
18.5756 60.8713
18.6207 60.0029
18.666 59.1592
18.7112 58.4487
18.7565 57.6567
18.8016 57.4715
18.8469 56.649
18.892 56.2909
18.9374 55.8738
18.9825 55.7698
19.0278 55.5882
19.073 55.4734
19.1183 55.999
19.1635 56.6838
19.2088 57.7934
19.254 60.0946
19.2993 65.0648
19.3447 71.654
19.3898 75.2454
19.4352 70.7468
19.4804 61.7186
19.5257 55.44
19.5709 53.1048
19.6163 52.6714
19.6615 52.566
19.7068 52.2044
19.752 52.0223
19.7974 52.4448
19.8426 52.9533
19.888 53.5703
19.9332 54.6388
19.9786 57.186
20.0238 60.9269
20.0692 66.391
20.1144 68.7349
20.1598 66.42
20.205 61.9116
20.2504 60.5684
20.2957 62.934
20.3411 65.0715
20.3863 62.9383
20.4318 57.151
20.477 52.4749
20.5224 50.7281
20.5677 50.0507
20.6131 49.4152
20.6586 48.5615
20.7038 48.3942
20.7493 47.9892
20.7945 48.0864
20.84 47.7614
20.8853 47.751
20.9307 47.2448
20.976 47.6994
21.0215 47.4262
21.0668 47.8298
21.1122 48.1352
21.1575 49.002
21.203 49.9437
21.2483 50.447
21.2938 50.1973
21.3391 48.9503
21.3846 47.9946
21.4299 47.4407
21.4754 47.3907
21.5207 47.3861
21.5662 47.5302
21.6116 47.9295
21.6571 48.4415
21.7024 49.3917
21.7479 51.0749
21.7933 53.7853
21.8388 57.7501
21.8843 62.0534
21.9297 63.5189
21.9752 61.6609
22.0206 58.2047
22.0661 55.4862
22.1115 55.2389
22.157 54.994
22.2024 52.9485
22.248 50.2461
22.2933 48.692
22.3389 48.165
22.3843 47.8841
22.4299 47.8275
22.4753 47.9991
22.5208 47.6374
22.5662 47.4283
22.6118 47.6608
22.6572 47.6699
22.7028 47.964
22.7483 48.3914
22.7939 48.9117
22.8393 50.6394
22.8849 52.8259
22.9303 55.1862
22.9759 57.0557
23.0214 56.4339
23.067 53.5112
23.1126 49.9035
23.1581 48.1088
23.2037 47.8049
23.2492 47.7491
23.2948 47.6102
23.3403 47.725
23.3859 48.3759
23.4314 49.3888
23.477 51.2749
23.5225 53.9861
23.5682 56.368
23.6137 57.2393
23.6593 54.5785
23.7048 50.5101
23.7505 47.3229
23.796 45.6595
23.8417 45.1592
23.8872 44.5966
23.9329 44.248
23.9784 43.9644
24.0241 43.7415
24.0697 43.5268
24.1154 43.2188
24.1609 43.0624
24.2066 42.9483
24.2522 42.7845
24.2979 42.5502
24.3434 42.3196
24.3892 42.2804
24.4349 42.1817
24.4805 42.0352
24.5262 42.2388
24.5718 42.0564
24.6175 42.0273
24.6631 41.9648
24.7089 41.6962
24.7545 41.552
24.8002 41.2822
24.8458 41.3557
24.8916 41.3084
24.9372 41.2719
24.983 41.4985
25.0286 41.8488
25.0744 42.4965
25.12 42.9161
25.1658 43.5435
25.2114 43.5942
25.2572 43.8787
25.3029 44.0294
25.3487 44.1109
25.3943 43.706
25.4402 42.592
25.4858 41.5402
25.5316 40.5557
25.5773 40.0601
25.6231 40.0419
25.669 39.6644
25.7147 39.7427
25.7605 39.72
25.8062 39.6642
25.8521 39.8102
25.8977 39.7189
25.9436 39.9965
25.9893 40.1345
26.0352 40.6609
26.0809 40.8527
26.1268 40.8473
26.1725 40.5719
26.2184 39.9157
26.2641 39.5049
26.31 39.2643
26.3557 39.1707
26.4017 39.2426
26.4474 39.4214
26.4933 39.7506
26.5391 40.3778
26.585 40.9755
26.6308 41.3787
26.6767 41.3588
26.7225 40.9117
26.7684 40.589
26.8142 40.0828
26.8601 39.6181
26.9059 39.2843
26.9519 38.5873
26.9979 38.3013
27.0437 38.064
27.0896 37.904
27.1354 37.9172
27.1814 37.7376
27.2272 37.5677
27.2732 37.6965
27.3191 37.4957
27.3651 37.5533
27.4109 37.639
27.4569 37.7759
27.5027 37.7226
27.5488 37.8406
27.5946 37.6992
27.6407 37.3244
27.6865 37.1796
27.7326 36.8776
27.7784 37.0199
27.8245 37.0243
27.8703 37.2423
27.9164 37.3857
27.9623 37.6248
28.0084 38.0489
28.0543 38.4381
28.1003 38.412
28.1462 38.1088
28.1923 37.712
28.2384 37.1439
28.2843 36.9273
28.3304 36.5265
28.3764 35.8523
28.4225 35.7384
28.4684 35.5973
28.5145 35.3298
28.5605 35.1001
28.6066 34.9707
28.6526 34.8308
28.6987 34.8659
28.7447 34.7549
28.7908 34.6357
28.8368 34.7208
28.8829 34.7772
28.9289 34.7325
28.9751 34.4534
29.0211 34.2619
29.0673 34.0174
29.1133 33.8233
29.1595 33.726
29.2055 33.7092
29.2517 33.6428
29.2977 33.593
29.3439 33.6096
29.3899 33.6176
29.4361 33.4944
29.4824 33.1785
29.5284 33.002
29.5746 32.7302
29.6207 32.5423
29.6669 32.4097
29.713 32.4077
29.7593 32.2041
29.8053 32.2459
29.8516 32.1047
29.8977 32.1744
29.9439 31.9762
29.99 31.9617
30.0363 31.7314
30.0824 31.7777
30.1287 31.8164
30.1748 31.7779
30.2211 31.8801
30.2673 31.6683
30.3136 31.7794
30.3597 31.5502
30.406 31.4935
30.4522 31.4701
30.4985 31.3892
30.5447 31.5286
30.591 31.6021
30.6372 31.5635
30.6835 31.5578
30.7297 31.5858
30.7761 31.5289
30.8224 31.4194
30.8686 31.2485
30.915 31.0347
30.9612 30.766
31.0076 30.6838
31.0538 30.5629
31.1002 30.4467
31.1464 30.2699
31.1928 30.3061
31.2391 30.3614
31.2855 30.2232
31.3317 30.2006
31.3781 30.3792
31.4244 30.3402
31.4708 30.2856
31.5171 30.2436
31.5636 30.1311
31.6098 29.9373
31.6563 29.8409
31.7026 29.6296
31.7491 29.4478
31.7953 29.5356
31.8418 29.6563
31.8881 29.5359
31.9346 29.4503
31.9809 29.4144
32.0275 29.2892
32.074 29.2195
32.1203 29.0419
32.1668 28.9185
32.2132 28.7369
32.2597 28.7124
32.306 28.6597
32.3526 28.3223
32.399 28.4037
32.4455 28.1833
32.4919 28.1656
32.5385 28.019
32.5848 27.9463
32.6314 27.8717
32.6778 27.9194
32.7244 27.7123
32.7708 27.606
32.8174 27.5659
32.8638 27.4252
32.9104 27.4722
32.9569 27.49
33.0035 27.2904
33.0499 27.278
33.0966 27.2217
33.143 27.2444
33.1897 27.2008
33.2361 27.0277
33.2828 27.0709
33.3293 26.8739
33.3759 26.8842
33.4226 26.7918
33.4691 26.5081
33.5158 26.4407
33.5623 26.3882
33.609 26.2026
33.6555 26.2439
33.7022 26.0344
33.7487 26.0276
33.7954 25.9622
33.842 25.8857
33.8887 25.8568
33.9353 25.6988
33.982 25.5758
34.0286 25.537
34.0753 25.4843
34.1219 25.412
34.1687 25.3351
34.2152 25.2835
34.262 25.264
34.3086 24.9998
34.3554 24.9673
34.402 24.8536
34.4488 24.7446
34.4954 24.7602
34.5422 24.6885
34.5889 24.5948
34.6357 24.4821
34.6825 24.4706
34.7292 24.3656
34.776 24.2398
34.8227 24.1919
34.8695 24.192
34.9162 24.1094
34.9631 23.9924
35.0098 24.0347
35.0566 23.8972
35.1033 23.7998
35.1502 23.8109
35.1969 23.7352
35.2438 23.6836
35.2906 23.6449
35.3375 23.6304
35.3842 23.5821
35.4311 23.5162
35.4779 23.4453
35.5248 23.3537
35.5716 23.3621
35.6185 23.2382
35.6653 23.2105
35.7123 23.1386
35.759 23.0404
35.806 22.8949
35.8528 22.8213
35.8998 22.8067
35.9468 22.6344
35.9936 22.669
36.0406 22.565
36.0874 22.5996
36.1345 22.4883
36.1813 22.4148
36.2283 22.2748
36.2752 22.2003
36.3222 22.2521
36.3691 22.1461
36.4161 22.0101
36.463 22.0273
36.5101 22.065
36.557 21.9718
36.6041 21.845
36.651 21.7913
36.6981 21.705
36.745 21.6352
36.7921 21.5863
36.839 21.486
36.8861 21.4355
36.9331 21.2208
36.9802 21.272
37.0272 21.1731
37.0743 21.109
37.1213 21.0464
37.1684 20.9689
37.2154 20.9891
37.2626 20.8601
37.3098 20.8001
37.3568 20.754
37.404 20.706
37.451 20.5347
37.4982 20.5582
37.5452 20.4271
37.5924 20.4055
37.6395 20.4157
37.6867 20.3779
37.7337 20.1824
37.781 20.1706
37.8281 20.0568
37.8753 20.0018
37.9224 19.9136
37.9697 19.9328
38.0168 19.8545
38.064 19.769
38.1111 19.7415
38.1584 19.6569
38.2056 19.5831
38.2529 19.5363
38.3 19.4168
38.3473 19.4341
38.3945 19.3031
38.4418 19.2602
38.489 19.2968
38.5363 19.1201
38.5837 19.0814
38.6309 19.0898
38.6782 18.9848
38.7254 18.9151
38.7728 18.8861
38.82 18.7885
38.8674 18.7527
38.9146 18.7052
38.9621 18.6231
39.0093 18.609
39.0567 18.5304
39.104 18.4975
39.1514 18.3329
39.1987 18.329
39.2461 18.3165
39.2934 18.2358
39.3409 18.114
39.3882 18.0513
39.4356 18.0351
39.483 17.9513
39.5304 17.9632
39.5778 17.8989
39.6253 17.8213
39.6726 17.7629
39.7201 17.6702
39.7675 17.6261
39.815 17.6389
39.8624 17.4964
39.9099 17.5308
39.9575 17.3253
40.0049 17.4138
40.0525 17.2975
40.0999 17.2101
40.1474 17.2562
40.1949 17.1079
40.2425 17.0798
40.2899 17.0469
40.3375 17.005
40.385 16.9309
40.4326 16.8957
40.48 16.8108
40.5277 16.7711
40.5752 16.7272
40.6228 16.704
40.6703 16.6037
40.718 16.5763
40.7655 16.5621
40.8132 16.4261
40.8607 16.4557
40.9084 16.37
40.9559 16.2983
41.0036 16.3168
41.0512 16.2405
41.0989 16.1306
41.1465 16.0965
41.1942 16.0148
41.242 15.9492
41.2896 15.9091
41.3373 15.8978
41.3849 15.7949
41.4327 15.7855
41.4803 15.673
41.5281 15.6911
41.5758 15.6249
41.6236 15.5151
41.6712 15.5414
41.7191 15.4686
41.7667 15.4038
41.8146 15.3462
41.8622 15.3388
41.9101 15.243
41.9578 15.1867
42.0057 15.1482
42.0534 15.053
42.1013 15.0363
42.149 15.0135
42.1969 14.8976
42.2446 14.9379
42.2925 14.8282
42.3403 14.8217
42.3882 14.7885
42.436 14.7539
42.4839 14.6635
42.5319 14.6362
42.5797 14.5532
42.6277 14.5004
42.6755 14.4647
42.7235 14.4421
42.7713 14.4034
42.8193 14.3062
42.8671 14.27
42.9152 14.2318
42.963 14.1593
43.0111 14.1292
43.0589 14.0943
43.107 14.0399
43.1549 13.9511
43.2029 13.9313
43.2508 13.8862
43.2989 13.8722
43.3468 13.8076
43.3949 13.7153
43.4429 13.6702
43.491 13.6188
43.5389 13.5592
43.5871 13.5229
43.635 13.4875
43.6832 13.458
43.7312 13.3804
43.7793 13.3599
43.8273 13.3145
43.8755 13.2378
43.9237 13.2
43.9717 13.1843
44.0199 13.1522
44.068 13.1324
44.1162 13.0173
44.1642 12.9982
44.2125 12.9448
44.2606 12.9061
44.3088 12.8643
44.3569 12.8364
44.4052 12.7849
44.4533 12.7349
44.5016 12.6678
44.5497 12.6363
44.598 12.6287
44.6461 12.5341
44.6945 12.4934
44.7426 12.4383
44.791 12.3799
44.8391 12.4
44.8875 12.328
44.9357 12.2584
44.984 12.2719
45.0322 12.202
45.0806 12.167
45.1288 12.1021
45.1773 12.0974
45.2257 12.0592
45.2739 11.9925
45.3224 11.9609
45.3706 11.8825
45.4191 11.8263
45.4673 11.8034
45.5158 11.8275
45.5641 11.7197
45.6126 11.7144
45.6609 11.6517
45.7094 11.605
45.7577 11.5524
45.8063 11.5315
45.8546 11.4753
45.9031 11.4482
45.9515 11.4284
46.0001 11.3494
46.0484 11.2781
46.097 11.3021
46.1454 11.2543
46.194 11.1861
46.2424 11.1472
46.291 11.1006
46.3395 11.0612
46.3881 11.0202
46.4365 11.0289
46.4852 10.9759
46.5337 10.9365
46.5823 10.9137
46.631 10.8573
46.6795 10.8217
46.7282 10.7885
46.7767 10.7177
46.8254 10.6969
46.8739 10.6517
46.9226 10.597
46.9712 10.5251
47.0199 10.529
47.0685 10.527
47.1173 10.4669
47.1658 10.3774
47.2146 10.3905
47.2632 10.3533
47.312 10.3112
47.3606 10.2788
47.4095 10.2099
47.4581 10.1879
47.5069 10.1578
47.5556 10.0868
47.6044 10.0613
47.6531 9.98777
47.702 9.99899
47.7507 9.93208
47.7996 9.90995
47.8483 9.88551
47.8972 9.85028
47.9461 9.822
47.9948 9.73836
48.0438 9.74504
48.0925 9.70442
48.1415 9.67017
48.1902 9.63412
48.2392 9.65024
48.288 9.57137
48.337 9.53965
48.3858 9.49919
48.4348 9.47048
48.4837 9.42828
48.5327 9.40409
48.5815 9.3825
48.6306 9.36642
48.6795 9.31967
48.7285 9.24204
48.7774 9.22997
48.8265 9.20217
48.8754 9.13888
48.9245 9.11064
48.9734 9.03357
49.0226 9.04957
49.0715 9.01144
49.1206 8.96428
49.1696 8.96477
49.2188 8.93875
49.2679 8.86497
49.3169 8.87408
49.3661 8.78196
49.4151 8.77293
49.4643 8.72655
49.5134 8.73972
49.5626 8.62893
49.6117 8.66258
49.6609 8.59941
49.71 8.53841
49.7592 8.54498
49.8083 8.53255
49.8576 8.48785
49.9067 8.40636
49.956 8.40693
50.0052 8.33507
50.0545 8.35479
50.1036 8.31574
50.153 8.29735
50.2022 8.2365
50.2515 8.20211
50.3007 8.15212
50.3501 8.14133
50.3993 8.13333
50.4487 8.08448
50.498 8.05751
50.5474 8.00844
50.5966 7.99459
50.6461 7.95294
50.6955 7.92616
50.7448 7.9469
50.7943 7.83244
50.8436 7.88644
50.8931 7.82868
50.9424 7.77863
50.9919 7.76347
51.0413 7.70772
51.0908 7.70863
51.1402 7.6655
51.1897 7.64734
51.2391 7.62758
51.2887 7.55852
51.3381 7.56104
51.3877 7.48662
51.4371 7.4818
51.4867 7.43838
51.5362 7.42324
51.5858 7.39627
51.6353 7.32943
51.6849 7.32781
51.7344 7.30983
51.7841 7.25937
51.8336 7.23365
51.8833 7.22503
51.9328 7.15357
51.9826 7.16051
52.0323 7.11602
52.0818 7.06851
52.1316 7.05273
52.1812 7.0252
52.231 7.0031
52.2806 6.94601
52.3304 6.93493
52.38 6.98162
52.4298 6.87408
52.4794 6.85635
52.5293 6.8574
52.5789 6.7872
52.6288 6.80241
52.6785 6.76723
52.7284 6.70437
52.7781 6.73089
52.828 6.68281
52.8777 6.62296
52.9276 6.58551
52.9774 6.58105
53.0273 6.5858
53.0771 6.52327
53.1271 6.52335
53.1769 6.45522
53.2269 6.44805
53.2767 6.42312
53.3267 6.39921
53.3765 6.40197
53.4266 6.34502
53.4766 6.32416
53.5265 6.27431
53.5765 6.27196
53.6264 6.2422
53.6765 6.21952
53.7264 6.15205
53.7765 6.17005
53.8265 6.10005
53.8766 6.09646
53.9266 6.06977
53.9767 6.04324
54.0267 5.99746
54.0769 6.01464
54.1269 5.90605
54.1771 5.96546
54.2271 5.90133
54.2773 5.84972
54.3274 5.84655
54.3776 5.7966
54.4277 5.76629
54.478 5.72427
54.528 5.7041
54.5783 5.68967
54.6285 5.60335
54.6788 5.60696
54.7289 5.50042
54.7792 5.50247
54.8296 5.43845
54.8798 5.40322
54.9301 5.3867
54.9803 5.37633
55.0307 5.31128
55.0809 5.27029
55.1314 5.25718
55.1816 5.20505
55.232 5.20446
55.2823 5.10132
55.3328 5.01933
55.383 5.01158
55.4335 4.97561
55.4838 4.85674
55.5344 4.86107
55.5847 4.77186
55.6352 4.78543
55.6856 4.76568
55.7361 4.73439