File: XRD/Ni3Fe_FD0197.xy
TT I
1.27165 8.01927
1.31627 7.42835
1.36089 7.49847
1.40551 5.72472
1.45013 7.43407
1.49476 6.69898
1.53938 6.56904
1.584 5.64562
1.62863 5.80147
1.67325 5.48295
1.71787 5.3212
1.7625 5.4464
1.80712 5.89237
1.85174 5.35897
1.89636 5.10013
1.94099 5.59197
1.98562 5.43612
2.03025 4.41279
2.07487 4.87591
2.11949 5.40224
2.16411 4.77039
2.20874 4.50548
2.25338 4.60823
2.298 3.99857
2.34263 4.63759
2.38725 3.87328
2.43188 4.06887
2.4765 4.7253
2.52115 4.32283
2.56577 4.61455
2.6104 5.63521
2.65503 5.76844
2.69965 5.63161
2.7443 5.98479
2.78893 6.98758
2.83356 7.31679
2.87818 8.42243
2.92281 8.34456
2.96744 8.86865
3.01209 9.54123
3.05672 10.8677
3.10135 12.1561
3.14599 13.2876
3.19062 13.8379
3.23527 14.9846
3.2799 15.8074
3.32454 16.7987
3.36917 18.4518
3.4138 19.2113
3.45844 19.8758
3.50309 20.9649
3.54773 21.5259
3.59237 22.5123
3.637 23.1881
3.68164 23.9705
3.7263 25.1109
3.77094 26.0828
3.81558 27.0833
3.86022 27.7504
3.90486 28.8686
3.9495 30.0516
3.99416 31.3225
4.0388 32.8167
4.08344 34.0001
4.12809 34.9498
4.17273 36.2717
4.21738 38.0573
4.26204 39.2579
4.30669 40.3013
4.35133 42.9627
4.39598 44.2548
4.44063 46.6778
4.4853 48.0603
4.52995 51.0661
4.5746 53.8288
4.61925 55.6252
4.6639 58.1611
4.70855 61.2128
4.75322 64.4077
4.79788 68.1041
4.84253 71.4201
4.88719 76.2215
4.93184 81.5234
4.97652 89.0786
5.02118 97.5232
5.06583 108.684
5.11049 126.021
5.15515 169.423
5.19981 843.677
5.24449 3969.61
5.28916 9969.58
5.33382 4767.79
5.37848 306.174
5.42315 158.062
5.46783 130.845
5.5125 119.366
5.55716 113.188
5.60183 107.79
5.6465 104.87
5.69117 104.469
5.73586 101.917
5.78053 101.86
5.8252 101.824
5.86988 104.625
5.91455 112.066
5.95924 135.041
6.00392 420.293
6.0486 1447.8
6.09328 3422.09
6.13795 3866.22
6.18263 424.212
6.22733 114.131
6.27201 91.039
6.3167 82.0867
6.36138 76.7002
6.40606 72.8099
6.45075 71.0847
6.49545 68.7358
6.54014 66.8305
6.58483 65.3354
6.62952 64.2066
6.67421 62.3217
6.71892 61.9047
6.76361 60.7438
6.8083 59.724
6.853 59.1962
6.89769 58.535
6.94239 58.5612
6.98711 57.2247
7.03181 56.9228
7.07651 56.6533
7.12121 56.3299
7.16591 55.888
7.21063 55.7262
7.25533 56.0921
7.30004 56.0116
7.34475 55.7982
7.38945 56.1033
7.43416 55.2563
7.47889 55.5632
7.5236 58.7087
7.56831 61.6329
7.61303 58.008
7.65774 57.1092
7.70247 57.6505
7.74719 57.8254
7.79191 59.1011
7.83663 59.0601
7.88135 60.3658
7.92607 61.1508
7.97081 62.6867
8.01553 64.0785
8.06026 64.9055
8.10498 66.7098
8.14971 68.8519
8.19446 70.2764
8.23919 73.2396
8.28392 76.3548
8.32865 79.2618
8.37339 84.5097
8.41812 90.767
8.46288 107.611
8.50761 273.696
8.55235 611.658
8.59709 1014.43
8.64183 1887.18
8.68658 1324.12
8.73134 246.103
8.77609 113.321
8.82083 101.069
8.86558 96.0494
8.91033 92.8961
8.9551 90.8791
8.99985 89.4016
9.04461 88.7005
9.08936 88.0834
9.13412 86.962
9.17888 86.899
9.22365 90.9912
9.26841 93.7371
9.31318 89.1465
9.35794 87.7742
9.4027 88.1537
9.44749 88.9909
9.49226 89.5998
9.53703 90.8669
9.5818 92.9038
9.62657 93.8805
9.67134 95.513
9.71614 97.6072
9.76091 100.304
9.80569 103.023
9.85047 106.342
9.89525 112.706
9.94005 129.842
9.98484 289.069
10.0296 542.727
10.0744 771.743
10.1192 1352.02
10.164 1725.24
10.2088 641.787
10.2536 157.885
10.2984 118.965
10.3432 113.762
10.388 113.193
10.4328 155.515
10.4776 219.841
10.5224 272.777
10.5672 417.668
10.612 542.423
10.6568 282.852
10.7017 113.894
10.7465 93.6033
10.7913 88.6747
10.8361 85.7471
10.8809 83.3413
10.9257 80.8144
10.9706 79.3799
11.0154 77.7902
11.0602 76.0802
11.105 75.0955
11.1499 73.3964
11.1947 72.3657
11.2395 71.463
11.2844 70.8718
11.3292 69.9555
11.374 69.0087
11.4189 68.8128
11.4637 67.8944
11.5086 67.1874
11.5534 66.696
11.5983 66.5574
11.6431 66.653
11.688 66.0632
11.7328 66.0442
11.7777 65.7624
11.8225 65.4164
11.8674 65.3972
11.9122 66.8098
11.9571 68.0847
12.002 68.9916
12.0468 78.8245
12.0917 96.6488
12.1366 108.43
12.1814 134.854
12.2263 183.409
12.2712 190.568
12.3161 110.614
12.3609 71.6096
12.4058 67.6029
12.4507 67.3903
12.4956 67.281
12.5405 67.4893
12.5853 68.0874
12.6302 68.1611
12.6751 68.9754
12.72 69.9254
12.7649 70.7761
12.8098 71.9727
12.8547 72.9807
12.8996 74.8603
12.9445 76.4213
12.9894 78.786
13.0343 80.5007
13.0792 85.5933
13.1242 105.982
13.1691 151.554
13.214 178.3
13.2589 220.481
13.3038 300.504
13.3487 406.529
13.3937 329.54
13.4386 160.167
13.4835 133.619
13.5285 158.951
13.5734 174.662
13.6183 217.318
13.6633 294.975
13.7082 361.151
13.7531 244.47
13.7981 117.885
13.843 88.0855
13.888 84.593
13.9329 81.5759
13.9779 80.2565
14.0228 78.8145
14.0678 77.156
14.1127 76.962
14.1577 76.8715
14.2027 75.9442
14.2476 74.4624
14.2926 73.5981
14.3376 73.3295
14.3825 72.9442
14.4275 72.7013
14.4725 72.8015
14.5175 72.7696
14.5624 72.6138
14.6074 73.2033
14.6524 73.7351
14.6974 74.2573
14.7424 79.0329
14.7874 95.6804
14.8324 109.379
14.8774 119.155
14.9224 140.126
14.9674 175.777
15.0124 215.725
15.0574 180.555
15.1024 108.079
15.1474 78.4255
15.1924 74.2693
15.2374 72.7558
15.2824 71.7118
15.3274 70.6901
15.3725 70.2176
15.4175 69.9396
15.4625 69.511
15.5076 69.4409
15.5526 69.556
15.5976 69.8287
15.6426 73.307
15.6877 86.8959
15.7327 97.5199
15.7778 104.213
15.8228 118.978
15.8679 145.09
15.9129 181.942
15.958 178.585
16.003 120.552
16.0481 76.0688
16.0931 66.6551
16.1382 64.257
16.1833 63.2358
16.2283 61.9195
16.2734 61.1055
16.3185 60.5943
16.3636 59.8769
16.4086 59.2146
16.4537 58.7789
16.4988 58.2296
16.5439 57.9119
16.589 58.0285
16.6341 57.6619
16.6792 57.159
16.7243 57.3044
16.7694 57.2913
16.8145 57.4593
16.8596 57.6933
16.9047 57.7881
16.9498 58.1264
16.9949 58.1062
17.04 59.0777
17.0851 61.9842
17.1302 64.276
17.1754 66.0652
17.2205 68.7587
17.2656 72.7089
17.3108 80.5721
17.3559 85.6196
17.401 79.2014
17.4462 68.1312
17.4913 62.825
17.5365 62.3451
17.5815 62.1713
17.6268 62.8511
17.6718 63.6257
17.7171 63.8375
17.7622 64.6918
17.8074 65.9421
17.8525 71.2072
17.8977 79.1929
17.9428 84.2554
17.9881 88.0722
18.0331 97.4407
18.0784 110.881
18.1237 133.791
18.1688 145.438
18.214 124.098
18.2591 96.2319
18.3044 89.6105
18.3495 94.2961
18.3948 104.572
18.4399 103.654
18.4852 86.7558
18.5303 71.3365
18.5756 65.8967
18.6207 64.6714
18.666 63.4761
18.7112 62.854
18.7565 62.2634
18.8016 61.8101
18.8469 61.093
18.892 60.8259
18.9374 60.4171
18.9825 59.913
19.0278 59.7167
19.073 60.203
19.1183 61.5863
19.1635 62.6531
19.2088 63.145
19.254 64.7781
19.2993 66.8662
19.3447 70.2369
19.3898 74.9965
19.4352 76.2614
19.4804 69.735
19.5257 61.5781
19.5709 57.4427
19.6163 56.8457
19.6615 56.6252
19.7068 55.9922
19.752 56.2025
19.7974 56.8483
19.8426 58.4206
19.888 59.1866
19.9332 59.8489
19.9786 61.3326
20.0238 63.5138
20.0692 67.5035
20.1144 72.2759
20.1598 73.6693
20.205 69.0164
20.2504 64.8448
20.2957 63.9557
20.3411 66.3194
20.3863 67.6091
20.4318 63.73
20.477 57.7461
20.5224 54.2539
20.5677 53.137
20.6131 52.7356
20.6586 52.3608
20.7038 52.1124
20.7493 51.5142
20.7945 51.7071
20.84 51.4678
20.8853 51.3875
20.9307 51.2856
20.976 51.4781
21.0215 51.3388
21.0668 51.5146
21.1122 51.8254
21.1575 52.0985
21.203 52.4681
21.2483 53.1522
21.2938 54.1465
21.3391 53.1875
21.3846 51.8616
21.4299 51.1728
21.4754 51.0013
21.5207 51.3088
21.5662 51.6303
21.6116 52.7624
21.6571 53.841
21.7024 54.6676
21.7479 55.5989
21.7933 57.208
21.8388 59.6542
21.8843 62.6867
21.9297 65.9756
21.9752 67.1373
22.0206 63.953
22.0661 59.2023
22.1115 57.6639
22.157 58.1422
22.2024 57.6376
22.248 55.0556
22.2933 52.8631
22.3389 51.6222
22.3843 51.3413
22.4299 50.9455
22.4753 51.1062
22.5208 51.0075
22.5662 50.9438
22.6118 51.3421
22.6572 51.9161
22.7028 52.8664
22.7483 53.0718
22.7939 53.2951
22.8393 54.1615
22.8849 55.4045
22.9303 56.3791
22.9759 58.6383
23.0214 59.8079
23.067 58.6333
23.1126 55.1262
23.1581 52.3486
23.2037 51.4442
23.2492 51.7895
23.2948 52.3586
23.3403 52.5946
23.3859 52.9079
23.4314 53.3146
23.477 54.103
23.5225 55.3834
23.5682 56.8487
23.6137 59.2097
23.6593 59.2677
23.7048 55.9472
23.7505 51.8975
23.796 49.4888
23.8417 48.5206
23.8872 47.9154
23.9329 47.5989
23.9784 47.1806
24.0241 46.9316
24.0697 46.6142
24.1154 46.2305
24.1609 46.0528
24.2066 45.9179
24.2522 45.8745
24.2979 45.5859
24.3434 45.436
24.3892 45.3465
24.4349 45.1563
24.4805 45.0179
24.5262 45.1131
24.5718 45.0438
24.6175 45.1543
24.6631 44.9259
24.7089 44.6438
24.7545 44.5215
24.8002 44.4584
24.8458 44.3965
24.8916 44.3779
24.9372 44.4356
24.983 44.7894
25.0286 45.177
25.0744 45.4499
25.12 45.7126
25.1658 46.1241
25.2114 46.5655
25.2572 46.571
25.3029 46.3067
25.3487 46.591
25.3943 46.6793
25.4402 46.1319
25.4858 45.0927
25.5316 43.8787
25.5773 43.2038
25.6231 42.8035
25.669 42.5565
25.7147 42.7135
25.7605 42.5568
25.8062 42.6133
25.8521 42.7396
25.8977 42.5563
25.9436 42.684
25.9893 42.7018
26.0352 43.0185
26.0809 43.2078
26.1268 43.606
26.1725 43.5148
26.2184 43.1444
26.2641 42.7091
26.31 42.3786
26.3557 42.3589
26.4017 42.2544
26.4474 42.409
26.4933 42.5769
26.5391 42.8524
26.585 43.2453
26.6308 43.4582
26.6767 43.7841
26.7225 43.9262
26.7684 43.5317
26.8142 42.9412
26.8601 42.4641
26.9059 42.0256
26.9519 41.6155
26.9979 41.2058
27.0437 40.8943
27.0896 40.6566
27.1354 40.6411
27.1814 40.5845
27.2272 40.4091
27.2732 40.4862
27.3191 40.1544
27.3651 40.2724
27.4109 40.2449
27.4569 40.1932
27.5027 40.2506
27.5488 40.4945
27.5946 40.2622
27.6407 40.2118
27.6865 40.161
27.7326 39.9222
27.7784 39.8206
27.8245 39.7595
27.8703 39.9034
27.9164 40.0245
27.9623 39.9284
28.0084 40.2471
28.0543 40.6244
28.1003 40.7081
28.1462 40.6764
28.1923 40.2482
28.2384 39.66
28.2843 39.4398
28.3304 39.0287
28.3764 38.5706
28.4225 38.2352
28.4684 37.8787
28.5145 37.705
28.5605 37.5978
28.6066 37.3407
28.6526 37.3404
28.6987 37.2975
28.7447 37.1948
28.7908 37.0214
28.8368 37.0083
28.8829 36.9967
28.9289 37.0617
28.9751 36.9955
29.0211 36.6505
29.0673 36.518
29.1133 36.2124
29.1595 36.0681
29.2055 36.0093
29.2517 35.9281
29.2977 35.8777
29.3439 35.7807
29.3899 35.777
29.4361 35.6958
29.4824 35.628
29.5284 35.3808
29.5746 35.0199
29.6207 34.8173
29.6669 34.6948
29.713 34.5395
29.7593 34.4172
29.8053 34.3497
29.8516 34.4601
29.8977 34.275
29.9439 34.2201
29.99 34.1555
30.0363 33.9437
30.0824 34.0268
30.1287 33.9193
30.1748 33.9822
30.2211 33.9451
30.2673 33.7408
30.3136 33.928
30.3597 33.9349
30.406 33.7704
30.4522 33.5944
30.4985 33.4694
30.5447 33.6264
30.591 33.6142
30.6372 33.5337
30.6835 33.5401
30.7297 33.6908
30.7761 33.6269
30.8224 33.6132
30.8686 33.3593
30.915 33.1096
30.9612 33.017
31.0076 32.8707
31.0538 32.7765
31.1002 32.6282
31.1464 32.4946
31.1928 32.5394
31.2391 32.4584
31.2855 32.2743
31.3317 32.3951
31.3781 32.3867
31.4244 32.2839
31.4708 32.1261
31.5171 32.2489
31.5636 32.3189
31.6098 32.101
31.6563 31.8313
31.7026 31.7309
31.7491 31.5672
31.7953 31.5597
31.8418 31.5529
31.8881 31.4652
31.9346 31.561
31.9809 31.395
32.0275 31.3502
32.074 31.3306
32.1203 31.0263
32.1668 30.8477
32.2132 30.7422
32.2597 30.6151
32.306 30.5784
32.3526 30.4126
32.399 30.3662
32.4455 30.2291
32.4919 30.2059
32.5385 30.1039
32.5848 29.9167
32.6314 29.7827
32.6778 29.7852
32.7244 29.5791
32.7708 29.5476
32.8174 29.5295
32.8638 29.3493
32.9104 29.4277
32.9569 29.3019
33.0035 29.1939
33.0499 29.1343
33.0966 29.0376
33.143 29.0604
33.1897 29.0195
33.2361 28.8784
33.2828 28.9084
33.3293 28.7183
33.3759 28.7622
33.4226 28.5865
33.4691 28.3877
33.5158 28.2522
33.5623 28.161
33.609 27.9728
33.6555 27.9365
33.7022 27.9054
33.7487 27.7084
33.7954 27.704
33.842 27.6629
33.8887 27.5239
33.9353 27.5186
33.982 27.4313
34.0286 27.3576
34.0753 27.242
34.1219 27.0883
34.1687 27.0458
34.2152 26.9062
34.262 26.8495
34.3086 26.7635
34.3554 26.7408
34.402 26.5971
34.4488 26.5199
34.4954 26.4209
34.5422 26.371
34.5889 26.2259
34.6357 26.1812
34.6825 26.068
34.7292 25.9926
34.776 25.9523
34.8227 25.8342
34.8695 25.7562
34.9162 25.7706
34.9631 25.6765
35.0098 25.687
35.0566 25.4722
35.1033 25.4013
35.1502 25.4497
35.1969 25.3495
35.2438 25.2998
35.2906 25.1725
35.3375 25.2245
35.3842 25.0965
35.4311 25.1126
35.4779 24.9399
35.5248 24.9633
35.5716 24.9404
35.6185 24.8106
35.6653 24.7317
35.7123 24.6299
35.759 24.5658
35.806 24.4301
35.8528 24.2869
35.8998 24.286
35.9468 24.1819
35.9936 24.1491
36.0406 24.0438
36.0874 24.0886
36.1345 23.9727
36.1813 23.8996
36.2283 23.7685
36.2752 23.7003
36.3222 23.7092
36.3691 23.5902
36.4161 23.4891
36.463 23.4507
36.5101 23.5278
36.557 23.3087
36.6041 23.2206
36.651 23.2474
36.6981 23.1258
36.745 23.1251
36.7921 23.0167
36.839 22.9133
36.8861 22.9081
36.9331 22.7315
36.9802 22.6449
37.0272 22.597
37.0743 22.5416
37.1213 22.4778
37.1684 22.376
37.2154 22.3188
37.2626 22.2549
37.3098 22.1691
37.3568 22.1428
37.404 22.102
37.451 21.9667
37.4982 21.8767
37.5452 21.7978
37.5924 21.7358
37.6395 21.7944
37.6867 21.6525
37.7337 21.54
37.781 21.5342
37.8281 21.4589
37.8753 21.2984
37.9224 21.2258
37.9697 21.1714
38.0168 21.1985
38.064 21.0588
38.1111 20.9717
38.1584 20.9179
38.2056 20.8839
38.2529 20.8617
38.3 20.7208
38.3473 20.7153
38.3945 20.6074
38.4418 20.5549
38.489 20.5002
38.5363 20.4191
38.5837 20.3424
38.6309 20.281
38.6782 20.1369
38.7254 20.1043
38.7728 20.0811
38.82 19.9972
38.8674 19.9812
38.9146 19.891
38.9621 19.8817
39.0093 19.7529
39.0567 19.768
39.104 19.6117
39.1514 19.4994
39.1987 19.5167
39.2461 19.4794
39.2934 19.4409
39.3409 19.3178
39.3882 19.2615
39.4356 19.23
39.483 19.1648
39.5304 19.0747
39.5778 19.0672
39.6253 18.9259
39.6726 18.8738
39.7201 18.8547
39.7675 18.823
39.815 18.7652
39.8624 18.6551
39.9099 18.6423
39.9575 18.5814
40.0049 18.5217
40.0525 18.4129
40.0999 18.3402
40.1474 18.3217
40.1949 18.2388
40.2425 18.2146
40.2899 18.1559
40.3375 18.1307
40.385 18.1277
40.4326 17.9771
40.48 17.8669
40.5277 17.8876
40.5752 17.8098
40.6228 17.6772
40.6703 17.6873
40.718 17.628
40.7655 17.6376
40.8132 17.5389
40.8607 17.5206
40.9084 17.4845
40.9559 17.3196
41.0036 17.3457
41.0512 17.2362
41.0989 17.2122
41.1465 17.1532
41.1942 17.0737
41.242 16.981
41.2896 16.955
41.3373 16.8258
41.3849 16.8885
41.4327 16.8103
41.4803 16.681
41.5281 16.7235
41.5758 16.6029
41.6236 16.5522
41.6712 16.4751
41.7191 16.4276
41.7667 16.3652
41.8146 16.4096
41.8622 16.3063
41.9101 16.1823
41.9578 16.1007
42.0057 16.1364
42.0534 16.0749
42.1013 16.0375
42.149 15.9905
42.1969 15.8829
42.2446 15.841
42.2925 15.7912
42.3403 15.7561
42.3882 15.7008
42.436 15.621
42.4839 15.5688
42.5319 15.5429
42.5797 15.4925
42.6277 15.4287
42.6755 15.3454
42.7235 15.3104
42.7713 15.3022
42.8193 15.228
42.8671 15.1182
42.9152 15.1054
42.963 15.0502
43.0111 15.0759
43.0589 14.952
43.107 14.8923
43.1549 14.8798
43.2029 14.822
43.2508 14.7908
43.2989 14.7063
43.3468 14.6279
43.3949 14.5988
43.4429 14.5785
43.491 14.5164
43.5389 14.46
43.5871 14.3992
43.635 14.3396
43.6832 14.311
43.7312 14.2298
43.7793 14.1983
43.8273 14.1459
43.8755 14.1285
43.9237 14.0679
43.9717 14.018
44.0199 13.9535
44.068 13.9129
44.1162 13.858
44.1642 13.8087
44.2125 13.7788
44.2606 13.7302
44.3088 13.6854
44.3569 13.632
44.4052 13.5676
44.4533 13.4722
44.5016 13.4595
44.5497 13.4609
44.598 13.4008
44.6461 13.3154
44.6945 13.3242
44.7426 13.2215
44.791 13.2167
44.8391 13.1689
44.8875 13.108
44.9357 13.0684
44.984 13.0318
45.0322 13.0127
45.0806 12.93
45.1288 12.859
45.1773 12.804
45.2257 12.8054
45.2739 12.7282
45.3224 12.6998
45.3706 12.658
45.4191 12.6149
45.4673 12.5783
45.5158 12.5183
45.5641 12.4608
45.6126 12.4474
45.6609 12.3437
45.7094 12.3118
45.7577 12.246
45.8063 12.2108
45.8546 12.2235
45.9031 12.1746
45.9515 12.1445
46.0001 12.1092
46.0484 12.0679
46.097 11.9788
46.1454 11.9425
46.194 11.9368
46.2424 11.8797
46.291 11.7776
46.3395 11.7966
46.3881 11.7005
46.4365 11.7315
46.4852 11.6602
46.5337 11.6061
46.5823 11.5794
46.631 11.5072
46.6795 11.472
46.7282 11.4541
46.7767 11.392
46.8254 11.3561
46.8739 11.2753
46.9226 11.2761
46.9712 11.1988
47.0199 11.1958
47.0685 11.1377
47.1173 11.0744
47.1658 11.0323
47.2146 11.0408
47.2632 10.974
47.312 10.9573
47.3606 10.9144
47.4095 10.8536
47.4581 10.7778
47.5069 10.7765
47.5556 10.7424
47.6044 10.6385
47.6531 10.645
47.702 10.6213
47.7507 10.5719
47.7996 10.5592
47.8483 10.4832
47.8972 10.4646
47.9461 10.4327
47.9948 10.3864
48.0438 10.3661
48.0925 10.3181
48.1415 10.3094
48.1902 10.256
48.2392 10.2251
48.288 10.1951
48.337 10.1231
48.3858 10.0924
48.4348 10.0841
48.4837 10.0734
48.5327 10.0156
48.5815 9.96001
48.6306 9.89759
48.6795 9.89569
48.7285 9.82415
48.7774 9.79631
48.8265 9.76155
48.8754 9.70126
48.9245 9.71565
48.9734 9.67627
49.0226 9.66315
49.0715 9.58459
49.1206 9.58299
49.1696 9.48041
49.2188 9.50561
49.2679 9.43672
49.3169 9.44046
49.3661 9.36183
49.4151 9.31252
49.4643 9.28403
49.5134 9.28403
49.5626 9.19724
49.6117 9.19747
49.6609 9.13903
49.71 9.07541
49.7592 9.07159
49.8083 9.04856
49.8576 9.01886
49.9067 8.96574
49.956 8.9409
50.0052 8.91727
50.0545 8.88865
50.1036 8.83619
50.153 8.80335
50.2022 8.76255
50.2515 8.71378
50.3007 8.73107
50.3501 8.67774
50.3993 8.62459
50.4487 8.60389
50.498 8.61218
50.5474 8.50346
50.5966 8.53316
50.6461 8.48883
50.6955 8.43952
50.7448 8.39682
50.7943 8.38571
50.8436 8.34615
50.8931 8.30808
50.9424 8.28444
50.9919 8.27413
51.0413 8.22181
51.0908 8.16517
51.1402 8.17659
51.1897 8.1198
51.2391 8.07356
51.2887 8.03181
51.3381 8.02719
51.3877 7.98266
51.4371 7.96732
51.4867 7.90997
51.5362 7.92996
51.5858 7.8759
51.6353 7.78456
51.6849 7.78694
51.7344 7.7598
51.7841 7.73776
51.8336 7.68761
51.8833 7.64558
51.9328 7.61996
51.9826 7.57806
52.0323 7.56944
52.0818 7.53186
52.1316 7.49472
52.1812 7.48256
52.231 7.42692
52.2806 7.37141
52.3304 7.40768
52.38 7.34118
52.4298 7.33098
52.4794 7.28348
52.5293 7.25652
52.5789 7.20147
52.6288 7.16597
52.6785 7.14916
52.7284 7.14297
52.7781 7.14066
52.828 7.06329
52.8777 7.02458
52.9276 7.00264
52.9774 6.98052
53.0273 6.97275
53.0771 6.93417
53.1271 6.92652
53.1769 6.86257
53.2269 6.86094
53.2767 6.8182
53.3267 6.78786
53.3765 6.78585
53.4266 6.71532
53.4766 6.67673
53.5265 6.62852
53.5765 6.63249
53.6264 6.61696
53.6765 6.60456
53.7264 6.54933
53.7765 6.59313
53.8265 6.50545
53.8766 6.44526
53.9266 6.43264
53.9767 6.42254
54.0267 6.43186
54.0769 6.29876
54.1269 6.33605
54.1771 6.23934
54.2271 6.2231
54.2773 6.24431
54.3274 6.20874
54.3776 6.17103
54.4277 6.06963
54.478 6.04735
54.528 6.02489
54.5783 5.99573
54.6285 5.89062
54.6788 5.85145
54.7289 5.85142
54.7792 5.78536
54.8296 5.74598
54.8798 5.67753
54.9301 5.6801
54.9803 5.66062
55.0307 5.64408
55.0809 5.55825
55.1314 5.51103
55.1816 5.43951
55.232 5.40962
55.2823 5.37134
55.3328 5.25473
55.383 5.26555
55.4335 5.2242
55.4838 5.11465
55.5344 5.14912
55.5847 5.02376
55.6352 5.01589
55.6856 5.01983
55.7361 4.91943