File: XRD/Ni3Fe_FD0434.xy
TT I
1.27165 7.6059
1.31627 6.90536
1.36089 6.60822
1.40551 6.05295
1.45013 6.648
1.49476 6.40417
1.53938 5.44385
1.584 5.71927
1.62863 5.14014
1.67325 5.4176
1.71787 4.92847
1.7625 4.87742
1.80712 4.37594
1.85174 4.7912
1.89636 4.50457
1.94099 4.48223
1.98562 4.52903
2.03025 4.88552
2.07487 4.58654
2.11949 5.21052
2.16411 5.25128
2.20874 13.6742
2.25338 21.0781
2.298 5.56743
2.34263 5.31825
2.38725 5.63148
2.43188 5.74035
2.4765 6.28789
2.52115 6.42038
2.56577 6.51711
2.6104 7.6323
2.65503 6.93889
2.69965 7.33446
2.7443 7.96503
2.78893 8.1419
2.83356 7.93989
2.87818 8.66077
2.92281 8.83468
2.96744 9.72999
3.01209 9.96183
3.05672 10.9922
3.10135 12.3108
3.14599 12.7812
3.19062 14.0026
3.23527 15.0896
3.2799 15.573
3.32454 17.1057
3.36917 17.6382
3.4138 19.1295
3.45844 19.7371
3.50309 21.1721
3.54773 21.9198
3.59237 23.9749
3.637 87.5845
3.68164 55.6346
3.7263 26.1786
3.77094 26.2606
3.81558 27.5681
3.86022 27.8342
3.90486 29.7357
3.9495 30.281
3.99416 30.9995
4.0388 32.6605
4.08344 33.8124
4.12809 35.2654
4.17273 37.0137
4.21738 43.1239
4.26204 231.882
4.30669 198.095
4.35133 48.4447
4.39598 44.9664
4.44063 53.8231
4.4853 64.6458
4.52995 51.3029
4.5746 52.1922
4.61925 53.8222
4.6639 56.317
4.70855 58.8575
4.75322 61.9714
4.79788 65.2193
4.84253 68.3703
4.88719 72.8408
4.93184 76.2624
4.97652 82.3837
5.02118 89.4469
5.06583 97.9941
5.11049 111.496
5.15515 180.712
5.19981 441.326
5.24449 3220.66
5.28916 11660.1
5.33382 3145.08
5.37848 208.037
5.42315 134.554
5.46783 116.704
5.5125 108.643
5.55716 103.771
5.60183 100.421
5.6465 98.5587
5.69117 96.3182
5.73586 94.4354
5.78053 94.0991
5.8252 93.745
5.86988 95.0128
5.91455 97.9203
5.95924 108.619
6.00392 247.41
6.0486 1107.77
6.09328 4225.53
6.13795 3460.73
6.18263 272.931
6.22733 97.3824
6.27201 84.928
6.3167 101.292
6.36138 80.8077
6.40606 70.0327
6.45075 68.5052
6.49545 66.5587
6.54014 64.9317
6.58483 64.3666
6.62952 63.7235
6.67421 92.1919
6.71892 137.706
6.76361 68.5724
6.8083 59.666
6.853 58.3913
6.89769 57.7918
6.94239 57.0913
6.98711 56.6117
7.03181 56.3861
7.07651 56.4479
7.12121 56.0089
7.16591 56.5486
7.21063 56.0339
7.25533 69.4627
7.30004 166.934
7.34475 88.809
7.38945 57.1178
7.43416 55.1953
7.47889 55.3457
7.5236 55.2635
7.56831 56.1661
7.61303 57.7023
7.65774 57.8932
7.70247 56.9921
7.74719 57.0919
7.79191 57.433
7.83663 57.6394
7.88135 58.8966
7.92607 59.2187
7.97081 60.7221
8.01553 61.9904
8.06026 63.1469
8.10498 64.7984
8.14971 73.9603
8.19446 73.0347
8.23919 70.5388
8.28392 72.7999
8.32865 75.4299
8.37339 80.039
8.41812 87.308
8.46288 115.821
8.50761 183.532
8.55235 437.462
8.59709 1202.86
8.64183 2156.31
8.68658 1020.35
8.73134 177.345
8.77609 102.368
8.82083 94.6135
8.86558 91.2668
8.91033 91.2849
8.9551 92.4479
8.99985 86.4197
9.04461 84.2597
9.08936 83.9984
9.13412 83.4656
9.17888 83.601
9.22365 83.9264
9.26841 82.9249
9.31318 84.2974
9.35794 83.9592
9.4027 84.3552
9.44749 85.1274
9.49226 85.7918
9.53703 86.8053
9.5818 88.6173
9.62657 92.9131
9.67134 99.4568
9.71614 94.9499
9.76091 95.8652
9.80569 98.1569
9.85047 101.456
9.89525 124.839
9.94005 139.132
9.98484 195.945
10.0296 382.332
10.0744 838.575
10.1192 1702.3
10.164 1650.31
10.2088 430.869
10.2536 132.726
10.2984 115.475
10.3432 116.403
10.388 107.285
10.4328 124.042
10.4776 171.831
10.5224 287.902
10.5672 505.188
10.612 502.96
10.6568 209.9
10.7017 98.4425
10.7465 88.4419
10.7913 84.3293
10.8361 82.448
10.8809 80.1243
10.9257 79.6613
10.9706 80.0502
11.0154 75.9045
11.0602 73.7514
11.105 72.795
11.1499 76.4633
11.1947 83.4999
11.2395 75.0176
11.2844 71.1161
11.3292 68.5131
11.374 67.1918
11.4189 66.5027
11.4637 66.0031
11.5086 66.0718
11.5534 69.1606
11.5983 66.3005
11.6431 64.5428
11.688 63.8223
11.7328 63.906
11.7777 63.804
11.8225 63.453
11.8674 63.3295
11.9122 63.9767
11.9571 63.911
12.002 65.056
12.0468 69.9571
12.0917 82.5109
12.1366 106.86
12.1814 152.652
12.2263 203.951
12.2712 169.007
12.3161 97.6174
12.3609 71.3689
12.4058 65.6306
12.4507 65.3737
12.4956 65.3092
12.5405 65.4975
12.5853 66.5462
12.6302 73.8314
12.6751 78.785
12.72 71.1286
12.7649 68.886
12.8098 69.4985
12.8547 70.8002
12.8996 72.1298
12.9445 73.6547
12.9894 75.3974
13.0343 77.2744
13.0792 80.7125
13.1242 91.8427
13.1691 118.523
13.214 157.246
13.2589 241.835
13.3038 363.121
13.3487 423.65
13.3937 272.339
13.4386 128.537
13.4835 110.38
13.5285 127.528
13.5734 165.046
13.6183 246.781
13.6633 342.338
13.7082 347.741
13.7531 196.692
13.7981 99.43
13.843 83.463
13.888 80.8128
13.9329 78.4604
13.9779 77.1252
14.0228 75.7363
14.0678 74.3478
14.1127 73.8328
14.1577 73.8059
14.2027 72.6577
14.2476 71.713
14.2926 71.797
14.3376 72.7436
14.3825 71.3092
14.4275 69.6254
14.4725 69.7615
14.5175 69.9555
14.5624 70.2019
14.6074 72.2821
14.6524 73.0408
14.6974 71.7545
14.7424 73.7782
14.7874 81.9826
14.8324 93.1579
14.8774 114.791
14.9224 154.335
14.9674 202.492
15.0124 219.111
15.0574 154.482
15.1024 92.9543
15.1474 73.6453
15.1924 71.4646
15.2374 71.9598
15.2824 71.5141
15.3274 69.1137
15.3725 67.7614
15.4175 67.3393
15.4625 67.3019
15.5076 67.3489
15.5526 67.4071
15.5976 67.0487
15.6426 68.5849
15.6877 74.8373
15.7327 83.2158
15.7778 98.9363
15.8228 127.343
15.8679 166.475
15.9129 192.355
15.958 159.301
16.003 97.308
16.0481 69.3626
16.0931 65.5627
16.1382 63.7753
16.1833 61.7398
16.2283 60.1818
16.2734 59.3824
16.3185 59.5485
16.3636 60.1173
16.4086 58.7544
16.4537 57.165
16.4988 56.7101
16.5439 56.4257
16.589 56.2031
16.6341 55.7894
16.6792 55.5567
16.7243 55.8892
16.7694 55.9837
16.8145 55.8618
16.8596 56.1125
16.9047 57.4898
16.9498 57.9584
16.9949 56.6693
17.04 56.7601
17.0851 58.4527
17.1302 59.9827
17.1754 63.2216
17.2205 68.1232
17.2656 74.6523
17.3108 82.0915
17.3559 82.9407
17.401 72.6605
17.4462 63.1507
17.4913 60.1371
17.5365 60.1993
17.5815 60.2644
17.6268 60.7062
17.6718 61.4467
17.7171 61.9945
17.7622 62.4365
17.8074 63.2551
17.8525 65.7657
17.8977 70.3761
17.9428 76.4502
17.9881 85.1398
18.0331 101.22
18.0784 120.826
18.1237 139.982
18.1688 133.185
18.214 107.163
18.2591 88.3421
18.3044 91.3356
18.3495 100.092
18.3948 106.862
18.4399 98.3044
18.4852 79.1888
18.5303 67.01
18.5756 63.4022
18.6207 62.3249
18.666 61.4516
18.7112 60.7276
18.7565 60.1131
18.8016 59.735
18.8469 59.1438
18.892 58.7054
18.9374 58.2887
18.9825 58.0778
19.0278 57.8496
19.073 58.0445
19.1183 58.5286
19.1635 59.425
19.2088 60.8967
19.254 63.4542
19.2993 67.3456
19.3447 73.3601
19.3898 77.5147
19.4352 73.9631
19.4804 64.4549
19.5257 57.6567
19.5709 55.2768
19.6163 54.7694
19.6615 54.6109
19.7068 54.3544
19.752 54.4427
19.7974 54.6484
19.8426 55.5761
19.888 56.3646
19.9332 57.561
19.9786 59.943
20.0238 63.4673
20.0692 67.8696
20.1144 70.9776
20.1598 69.7528
20.205 64.6902
20.2504 62.8536
20.2957 64.4855
20.3411 66.6771
20.3863 65.3559
20.4318 59.4981
20.477 54.5874
20.5224 52.6164
20.5677 51.7896
20.6131 51.1788
20.6586 50.5543
20.7038 50.519
20.7493 50.2014
20.7945 49.8402
20.84 49.87
20.8853 49.5802
20.9307 49.5151
20.976 49.6462
21.0215 49.5906
21.0668 49.9302
21.1122 50.4148
21.1575 51.0334
21.203 51.6353
21.2483 52.1488
21.2938 52.3586
21.3391 51.0917
21.3846 49.8706
21.4299 49.2539
21.4754 49.3583
21.5207 49.4189
21.5662 49.8082
21.6116 50.1195
21.6571 50.8774
21.7024 52.0539
21.7479 53.7923
21.7933 56.5414
21.8388 59.6869
21.8843 63.3602
21.9297 65.4035
21.9752 64.5011
22.0206 60.7383
22.0661 57.4271
22.1115 56.8896
22.157 56.9095
22.2024 55.4326
22.248 52.4752
22.2933 50.8298
22.3389 50.0657
22.3843 49.9849
22.4299 49.7709
22.4753 49.7538
22.5208 49.7034
22.5662 49.2552
22.6118 49.5948
22.6572 49.7836
22.7028 50.2359
22.7483 50.8809
22.7939 51.4419
22.8393 52.8079
22.8849 54.6845
22.9303 56.8607
22.9759 58.6656
23.0214 58.3255
23.067 55.6858
23.1126 52.1704
23.1581 50.1987
23.2037 49.7053
23.2492 49.8165
23.2948 49.8064
23.3403 50.1384
23.3859 50.6982
23.4314 51.8455
23.477 53.6158
23.5225 55.4388
23.5682 57.5848
23.6137 58.8272
23.6593 56.8795
23.7048 52.7839
23.7505 49.3846
23.796 47.4284
23.8417 46.8696
23.8872 46.4019
23.9329 45.973
23.9784 45.7227
24.0241 45.3951
24.0697 45.2276
24.1154 45.0173
24.1609 44.7801
24.2066 44.6126
24.2522 44.4451
24.2979 44.3136
24.3434 44.1185
24.3892 43.9477
24.4349 43.8994
24.4805 43.7373
24.5262 43.8594
24.5718 43.8305
24.6175 43.7146
24.6631 43.6214
24.7089 43.2924
24.7545 43.0978
24.8002 42.9145
24.8458 42.9784
24.8916 42.7813
24.9372 42.878
24.983 43.3569
25.0286 43.5466
25.0744 44.1297
25.12 44.5483
25.1658 45.2669
25.2114 45.4889
25.2572 45.558
25.3029 45.5148
25.3487 45.5186
25.3943 45.5043
25.4402 44.3832
25.4858 43.4697
25.5316 42.2816
25.5773 41.8153
25.6231 41.6518
25.669 41.2543
25.7147 41.2874
25.7605 41.2694
25.8062 41.3147
25.8521 41.3672
25.8977 41.2852
25.9436 41.5608
25.9893 41.7941
26.0352 42.0918
26.0809 42.3243
26.1268 42.5362
26.1725 42.2242
26.2184 41.4917
26.2641 41.0535
26.31 41.0145
26.3557 40.8613
26.4017 40.8665
26.4474 41.2708
26.4933 41.5659
26.5391 41.9701
26.585 42.305
26.6308 42.6875
26.6767 42.8465
26.7225 42.6955
26.7684 42.2799
26.8142 41.5678
26.8601 41.2865
26.9059 40.8017
26.9519 40.2782
26.9979 39.9092
27.0437 39.5463
27.0896 39.4167
27.1354 39.5847
27.1814 39.2468
27.2272 39.2606
27.2732 39.3217
27.3191 39.0656
27.3651 39.1756
27.4109 39.2435
27.4569 39.2022
27.5027 39.3274
27.5488 39.2476
27.5946 39.1974
27.6407 38.8082
27.6865 38.733
27.7326 38.5692
27.7784 38.4378
27.8245 38.5031
27.8703 38.7241
27.9164 39.008
27.9623 39.0275
28.0084 39.4168
28.0543 39.7636
28.1003 39.716
28.1462 39.3898
28.1923 39.1459
28.2384 38.5757
28.2843 38.3289
28.3304 37.91
28.3764 37.3666
28.4225 37.0195
28.4684 36.9353
28.5145 36.7208
28.5605 36.484
28.6066 36.4588
28.6526 36.2931
28.6987 36.1722
28.7447 36.1098
28.7908 35.9318
28.8368 36.0407
28.8829 36.0838
28.9289 35.9841
28.9751 35.8158
29.0211 35.4509
29.0673 35.1831
29.1133 35.1289
29.1595 35.0371
29.2055 34.8645
29.2517 34.916
29.2977 34.9589
29.3439 34.9805
29.3899 34.8155
29.4361 34.8238
29.4824 34.6459
29.5284 34.3948
29.5746 33.9907
29.6207 33.7065
29.6669 33.6191
29.713 33.7031
29.7593 33.5255
29.8053 33.511
29.8516 33.4283
29.8977 33.4593
29.9439 33.1728
29.99 33.1985
30.0363 33.0285
30.0824 33.079
30.1287 33.0263
30.1748 32.9234
30.2211 32.939
30.2673 32.9027
30.3136 32.8944
30.3597 32.8129
30.406 32.7454
30.4522 32.5996
30.4985 32.6229
30.5447 32.7385
30.591 32.7557
30.6372 32.8023
30.6835 32.6552
30.7297 32.7381
30.7761 32.7321
30.8224 32.5809
30.8686 32.3829
30.915 32.1638
30.9612 32.1755
31.0076 31.946
31.0538 31.6917
31.1002 31.7111
31.1464 31.4833
31.1928 31.493
31.2391 31.5615
31.2855 31.4177
31.3317 31.3779
31.3781 31.4942
31.4244 31.354
31.4708 31.3595
31.5171 31.3398
31.5636 31.3589
31.6098 31.062
31.6563 30.9873
31.7026 30.8053
31.7491 30.663
31.7953 30.7489
31.8418 30.6643
31.8881 30.7031
31.9346 30.6261
31.9809 30.5655
32.0275 30.4865
32.074 30.3479
32.1203 30.1078
32.1668 30.1077
32.2132 29.9543
32.2597 29.8035
32.306 29.7858
32.3526 29.496
32.399 29.4583
32.4455 29.3144
32.4919 29.1506
32.5385 29.0337
32.5848 29.057
32.6314 28.9847
32.6778 29.0326
32.7244 28.8229
32.7708 28.6567
32.8174 28.6452
32.8638 28.5586
32.9104 28.5567
32.9569 28.5122
33.0035 28.3744
33.0499 28.3524
33.0966 28.3476
33.143 28.2277
33.1897 28.1907
33.2361 28.0519
33.2828 28.0439
33.3293 27.9348
33.3759 27.9412
33.4226 27.7097
33.4691 27.5698
33.5158 27.5942
33.5623 27.3555
33.609 27.2725
33.6555 27.1916
33.7022 27.0839
33.7487 26.9354
33.7954 27.0161
33.842 26.8128
33.8887 26.7854
33.9353 26.8326
33.982 26.5982
34.0286 26.5034
34.0753 26.4605
34.1219 26.3823
34.1687 26.3285
34.2152 26.1406
34.262 26.1821
34.3086 26.0344
34.3554 25.9803
34.402 25.7639
34.4488 25.6846
34.4954 25.6832
34.5422 25.6441
34.5889 25.4775
34.6357 25.3811
34.6825 25.4141
34.7292 25.2983
34.776 25.1338
34.8227 25.1357
34.8695 25.0766
34.9162 24.9706
34.9631 24.9025
35.0098 24.965
35.0566 24.7391
35.1033 24.6673
35.1502 24.7292
35.1969 24.6096
35.2438 24.5861
35.2906 24.5501
35.3375 24.4873
35.3842 24.4514
35.4311 24.3213
35.4779 24.3805
35.5248 24.2446
35.5716 24.2162
35.6185 24.1165
35.6653 24.0165
35.7123 23.961
35.759 23.951
35.806 23.7598
35.8528 23.6388
35.8998 23.6474
35.9468 23.5426
35.9936 23.5312
36.0406 23.357
36.0874 23.3729
36.1345 23.2951
36.1813 23.3078
36.2283 23.1796
36.2752 22.99
36.3222 23.1087
36.3691 22.9504
36.4161 22.8735
36.463 22.8604
36.5101 22.8302
36.557 22.6954
36.6041 22.615
36.651 22.5176
36.6981 22.548
36.745 22.4531
36.7921 22.316
36.839 22.2202
36.8861 22.24
36.9331 22.0789
36.9802 22.063
37.0272 22.019
37.0743 21.9074
37.1213 21.8684
37.1684 21.7951
37.2154 21.6778
37.2626 21.6131
37.3098 21.5439
37.3568 21.499
37.404 21.4323
37.451 21.3679
37.4982 21.3287
37.5452 21.1974
37.5924 21.1821
37.6395 21.2128
37.6867 21.034
37.7337 20.9403
37.781 20.8839
37.8281 20.8515
37.8753 20.7241
37.9224 20.6692
37.9697 20.6487
38.0168 20.5133
38.064 20.4866
38.1111 20.4485
38.1584 20.3194
38.2056 20.3276
38.2529 20.289
38.3 20.2107
38.3473 20.1661
38.3945 20.0443
38.4418 20.0501
38.489 19.9185
38.5363 19.877
38.5837 19.8338
38.6309 19.7305
38.6782 19.6338
38.7254 19.5602
38.7728 19.5945
38.82 19.5056
38.8674 19.4593
38.9146 19.3812
38.9621 19.3066
39.0093 19.252
39.0567 19.1902
39.104 19.1489
39.1514 19.0765
39.1987 19.0485
39.2461 18.9502
39.2934 18.9036
39.3409 18.773
39.3882 18.7077
39.4356 18.6714
39.483 18.6522
39.5304 18.5753
39.5778 18.5115
39.6253 18.4892
39.6726 18.4485
39.7201 18.3927
39.7675 18.2621
39.815 18.2375
39.8624 18.166
39.9099 18.1233
39.9575 18.0563
40.0049 18.035
40.0525 17.9345
40.0999 17.9215
40.1474 17.7949
40.1949 17.7743
40.2425 17.6992
40.2899 17.6263
40.3375 17.606
40.385 17.5667
40.4326 17.5203
40.48 17.4504
40.5277 17.3735
40.5752 17.3197
40.6228 17.2538
40.6703 17.2311
40.718 17.2055
40.7655 17.1715
40.8132 17.0303
40.8607 17.0857
40.9084 17.0155
40.9559 16.8903
41.0036 16.882
41.0512 16.8112
41.0989 16.7771
41.1465 16.708
41.1942 16.6479
41.242 16.5384
41.2896 16.5041
41.3373 16.4203
41.3849 16.4314
41.4327 16.3436
41.4803 16.2094
41.5281 16.2726
41.5758 16.1456
41.6236 16.0537
41.6712 16.0751
41.7191 16.0224
41.7667 15.9387
41.8146 15.8953
41.8622 15.8222
41.9101 15.8661
41.9578 15.739
42.0057 15.7098
42.0534 15.6834
42.1013 15.594
42.149 15.5619
42.1969 15.5019
42.2446 15.4199
42.2925 15.3864
42.3403 15.3208
42.3882 15.3196
42.436 15.2447
42.4839 15.2282
42.5319 15.1377
42.5797 15.0881
42.6277 15.0103
42.6755 14.9201
42.7235 14.963
42.7713 14.8701
42.8193 14.8506
42.8671 14.7495
42.9152 14.7365
42.963 14.6748
43.0111 14.6167
43.0589 14.63
43.107 14.4712
43.1549 14.4944
43.2029 14.4289
43.2508 14.3477
43.2989 14.2952
43.3468 14.2425
43.3949 14.2228
43.4429 14.1708
43.491 14.12
43.5389 14.0952
43.5871 13.9878
43.635 13.9625
43.6832 13.9632
43.7312 13.8897
43.7793 13.8483
43.8273 13.7903
43.8755 13.7311
43.9237 13.7401
43.9717 13.6601
44.0199 13.561
44.068 13.5702
44.1162 13.4666
44.1642 13.4626
44.2125 13.4096
44.2606 13.3569
44.3088 13.3028
44.3569 13.2905
44.4052 13.2529
44.4533 13.2105
44.5016 13.0963
44.5497 13.1213
44.598 13.0095
44.6461 12.9785
44.6945 12.9892
44.7426 12.9371
44.791 12.8644
44.8391 12.8356
44.8875 12.8115
44.9357 12.7325
44.984 12.7175
45.0322 12.6059
45.0806 12.596
45.1288 12.5753
45.1773 12.4888
45.2257 12.4858
45.2739 12.4055
45.3224 12.3709
45.3706 12.3378
45.4191 12.2485
45.4673 12.2503
45.5158 12.2227
45.5641 12.1635
45.6126 12.0867
45.6609 12.0394
45.7094 12.0287
45.7577 11.9969
45.8063 11.8951
45.8546 11.9083
45.9031 11.8148
45.9515 11.812
46.0001 11.8142
46.0484 11.7307
46.097 11.7055
46.1454 11.636
46.194 11.6005
46.2424 11.5668
46.291 11.5013
46.3395 11.4707
46.3881 11.3893
46.4365 11.3739
46.4852 11.339
46.5337 11.3038
46.5823 11.2959
46.631 11.2387
46.6795 11.1884
46.7282 11.1614
46.7767 11.0247
46.8254 11.0021
46.8739 11.0279
46.9226 11.0014
46.9712 10.9674
47.0199 10.9011
47.0685 10.8366
47.1173 10.8215
47.1658 10.7679
47.2146 10.7427
47.2632 10.6914
47.312 10.6661
47.3606 10.6249
47.4095 10.58
47.4581 10.5381
47.5069 10.4999
47.5556 10.4687
47.6044 10.448
47.6531 10.376
47.702 10.3476
47.7507 10.277
47.7996 10.2899
47.8483 10.2322
47.8972 10.1703
47.9461 10.1456
47.9948 10.1151
48.0438 10.0722
48.0925 10.0466
48.1415 10.0025
48.1902 9.95198
48.2392 9.96174
48.288 9.92179
48.337 9.84532
48.3858 9.81832
48.4348 9.79685
48.4837 9.76364
48.5327 9.76899
48.5815 9.7175
48.6306 9.68125
48.6795 9.63831
48.7285 9.58536
48.7774 9.56331
48.8265 9.53988
48.8754 9.47489
48.9245 9.50255
48.9734 9.40085
49.0226 9.39705
49.0715 9.34229
49.1206 9.26229
49.1696 9.29087
49.2188 9.23738
49.2679 9.18554
49.3169 9.15538
49.3661 9.11792
49.4151 9.13463
49.4643 9.07323
49.5134 9.03804
49.5626 8.96439
49.6117 8.95292
49.6609 8.96537
49.71 8.87076
49.7592 8.85242
49.8083 8.79212
49.8576 8.82634
49.9067 8.72063
49.956 8.70688
50.0052 8.65534
50.0545 8.65431
50.1036 8.6164
50.153 8.58968
50.2022 8.60429
50.2515 8.55002
50.3007 8.50881
50.3501 8.45539
50.3993 8.41991
50.4487 8.39495
50.498 8.36887
50.5474 8.32599
50.5966 8.27502
50.6461 8.2953
50.6955 8.23406
50.7448 8.2166
50.7943 8.17452
50.8436 8.12818
50.8931 8.11271
50.9424 8.08357
50.9919 8.03381
51.0413 7.9852
51.0908 7.98212
51.1402 7.92191
51.1897 7.90688
51.2391 7.88089
51.2887 7.8075
51.3381 7.84063
51.3877 7.78262
51.4371 7.74645
51.4867 7.70516
51.5362 7.70662
51.5858 7.66591
51.6353 7.61522
51.6849 7.5936
51.7344 7.60826
51.7841 7.53477
51.8336 7.51698
51.8833 7.50128
51.9328 7.41498
51.9826 7.37907
52.0323 7.3752
52.0818 7.34235
52.1316 7.29897
52.1812 7.28871
52.231 7.28078
52.2806 7.2279
52.3304 7.20343
52.38 7.14221
52.4298 7.1202
52.4794 7.07295
52.5293 7.05892
52.5789 7.04404
52.6288 7.00732
52.6785 6.96639
52.7284 6.95037
52.7781 6.96808
52.828 6.89458
52.8777 6.8874
52.9276 6.81978
52.9774 6.78026
53.0273 6.78424
53.0771 6.72994
53.1271 6.75809
53.1769 6.72275
53.2269 6.70647
53.2767 6.63051
53.3267 6.61133
53.3765 6.61188
53.4266 6.58025
53.4766 6.53774
53.5265 6.50789
53.5765 6.42848
53.6264 6.43561
53.6765 6.38912
53.7264 6.37377
53.7765 6.3771
53.8265 6.31338
53.8766 6.33323
53.9266 6.28745
53.9767 6.26749
54.0267 6.20645
54.0769 6.17089
54.1269 6.13688
54.1771 6.13747
54.2271 6.1128
54.2773 6.06429
54.3274 6.05041
54.3776 6.01537
54.4277 5.97632
54.478 5.96042
54.528 5.91606
54.5783 5.86088
54.6285 5.82284
54.6788 5.79947
54.7289 5.7005
54.7792 5.69905
54.8296 5.66175
54.8798 5.61084
54.9301 5.57837
54.9803 5.59716
55.0307 5.52724
55.0809 5.48236
55.1314 5.48288
55.1816 5.34715
55.232 5.29467
55.2823 5.34267
55.3328 5.2361
55.383 5.15555
55.4335 5.13188
55.4838 5.13965
55.5344 5.02564
55.5847 5.00552
55.6352 5.0127
55.6856 4.91513
55.7361 4.93568