File: XRD/Ni3Fe_FD1070.xy
TT I
1.27165 7.0837
1.31627 6.49217
1.36089 5.74373
1.40551 6.07173
1.45013 5.45225
1.49476 5.82837
1.53938 5.11559
1.584 4.85147
1.62863 4.80891
1.67325 4.80919
1.71787 4.5286
1.7625 4.26799
1.80712 4.37842
1.85174 4.56076
1.89636 4.0185
1.94099 4.41786
1.98562 4.61584
2.03025 4.53427
2.07487 3.84261
2.11949 4.47443
2.16411 4.19133
2.20874 4.7844
2.25338 5.79819
2.298 4.98823
2.34263 4.53317
2.38725 5.41581
2.43188 6.18993
2.4765 7.04029
2.52115 7.32952
2.56577 8.12944
2.6104 9.09378
2.65503 7.58319
2.69965 8.22893
2.7443 8.57445
2.78893 8.68283
2.83356 8.47168
2.87818 8.73134
2.92281 8.74132
2.96744 9.49052
3.01209 10.3835
3.05672 10.9606
3.10135 11.8568
3.14599 12.6975
3.19062 14.0185
3.23527 14.5179
3.2799 14.8544
3.32454 16.2468
3.36917 17.2285
3.4138 18.2598
3.45844 18.7201
3.50309 19.4369
3.54773 20.3972
3.59237 21.3347
3.637 27.135
3.68164 26.4658
3.7263 23.6769
3.77094 24.606
3.81558 25.3344
3.86022 25.8096
3.90486 27.5987
3.9495 28.4027
3.99416 29.0382
4.0388 30.5316
4.08344 31.0808
4.12809 32.3404
4.17273 33.7915
4.21738 35.6386
4.26204 52.0116
4.30669 56.398
4.35133 40.6436
4.39598 41.0164
4.44063 43.7058
4.4853 46.0568
4.52995 46.6799
4.5746 48.2505
4.61925 50.8216
4.6639 52.8229
4.70855 55.3571
4.75322 57.865
4.79788 61.0283
4.84253 64.7757
4.88719 67.9823
4.93184 71.4411
4.97652 77.0359
5.02118 83.2555
5.06583 88.9457
5.11049 98.0716
5.15515 118.211
5.19981 230.383
5.24449 2504.52
5.28916 13679.3
5.33382 3340.26
5.37848 207.176
5.42315 123.808
5.46783 108.129
5.5125 101.282
5.55716 97.7641
5.60183 93.2091
5.6465 91.5303
5.69117 90.2675
5.73586 87.844
5.78053 87.3252
5.8252 86.4086
5.86988 86.9621
5.91455 88.9861
5.95924 95.5317
6.00392 164.368
6.0486 889.187
6.09328 4514.52
6.13795 3653.76
6.18263 239.89
6.22733 87.1963
6.27201 76.055
6.3167 73.1008
6.36138 68.7627
6.40606 64.8163
6.45075 63.5155
6.49545 61.8131
6.54014 60.089
6.58483 59.1816
6.62952 57.8939
6.67421 58.7846
6.71892 64.1991
6.76361 56.725
6.8083 54.6078
6.853 54.0714
6.89769 53.5953
6.94239 53.3953
6.98711 52.398
7.03181 52.2944
7.07651 52.2527
7.12121 52.0156
7.16591 51.8736
7.21063 51.067
7.25533 51.5698
7.30004 61.7331
7.34475 55.8395
7.38945 51.8968
7.43416 51.3843
7.47889 51.7086
7.5236 58.2668
7.56831 71.6339
7.61303 56.339
7.65774 52.7465
7.70247 53.342
7.74719 53.6126
7.79191 53.6987
7.83663 54.177
7.88135 54.6515
7.92607 55.5791
7.97081 56.6291
8.01553 57.6588
8.06026 59.0481
8.10498 60.033
8.14971 62.5529
8.19446 63.9043
8.23919 65.9557
8.28392 68.1653
8.32865 70.6105
8.37339 74.3518
8.41812 77.5743
8.46288 86.6063
8.50761 128.71
8.55235 378.247
8.59709 1108.26
8.64183 2288.63
8.68658 1101.28
8.73134 171.583
8.77609 94.5675
8.82083 88.5685
8.86558 85.3712
8.91033 83.6411
8.9551 82.7674
8.99985 80.9507
9.04461 80.0777
9.08936 79.4958
9.13412 78.9328
9.17888 79.39
9.22365 90.5228
9.26841 111.126
9.31318 88.5199
9.35794 79.763
9.4027 80.175
9.44749 80.9406
9.49226 81.2407
9.53703 81.7968
9.5818 83.3493
9.62657 84.7016
9.67134 86.4876
9.71614 87.8263
9.76091 89.5318
9.80569 92.2322
9.85047 94.1122
9.89525 99.2878
9.94005 106.645
9.98484 147.132
10.0296 349.694
10.0744 777.869
10.1192 1778.08
10.164 1713.8
10.2088 447.747
10.2536 125.4
10.2984 103.228
10.3432 100.878
10.388 98.1473
10.4328 107.987
10.4776 162.538
10.5224 273.399
10.5672 512.935
10.612 568.646
10.6568 231.434
10.7017 103.143
10.7465 86.0452
10.7913 80.1644
10.8361 78.1391
10.8809 75.6953
10.9257 73.6337
10.9706 72.4817
11.0154 70.8596
11.0602 69.4252
11.105 68.2701
11.1499 67.1072
11.1947 67.601
11.2395 65.9463
11.2844 64.7803
11.3292 64.0164
11.374 63.1399
11.4189 62.4602
11.4637 62.1851
11.5086 61.1868
11.5534 61.3937
11.5983 60.9769
11.6431 60.493
11.688 60.1592
11.7328 59.9941
11.7777 59.9849
11.8225 59.825
11.8674 59.7931
11.9122 61.6705
11.9571 67.8301
12.002 66.0365
12.0468 64.3965
12.0917 77.1075
12.1366 99.6183
12.1814 147.501
12.2263 204.801
12.2712 176.127
12.3161 97.0573
12.3609 64.8303
12.4058 61.3799
12.4507 61.1813
12.4956 61.2913
12.5405 61.6841
12.5853 61.9062
12.6302 62.6759
12.6751 63.9997
12.72 64.3454
12.7649 64.5657
12.8098 65.5743
12.8547 66.5377
12.8996 67.9274
12.9445 69.2855
12.9894 71.4977
13.0343 73.0125
13.0792 76.8702
13.1242 82.8518
13.1691 108.214
13.214 149.351
13.2589 230.241
13.3038 370.163
13.3487 453.25
13.3937 280.275
13.4386 126.673
13.4835 99.1753
13.5285 120.393
13.5734 157.566
13.6183 237.265
13.6633 356.945
13.7082 363.479
13.7531 205.65
13.7981 100.432
13.843 79.9101
13.888 77.0321
13.9329 74.7756
13.9779 73.3783
14.0228 72.0519
14.0678 71.0178
14.1127 71.6779
14.1577 74.8326
14.2027 73.2491
14.2476 68.8271
14.2926 67.5835
14.3376 67.4319
14.3825 66.8896
14.4275 66.3059
14.4725 66.2756
14.5175 66.521
14.5624 66.3533
14.6074 66.802
14.6524 67.2355
14.6974 67.7284
14.7424 68.7389
14.7874 74.7418
14.8324 89.0251
14.8774 110.564
14.9224 149.156
14.9674 209.293
15.0124 228.697
15.0574 159.234
15.1024 94.188
15.1474 71.4107
15.1924 68.0975
15.2374 66.7604
15.2824 65.8212
15.3274 64.8974
15.3725 64.4778
15.4175 64.2147
15.4625 63.8144
15.5076 63.6036
15.5526 63.699
15.5976 63.5956
15.6426 63.9309
15.6877 68.5203
15.7327 79.7351
15.7778 95.412
15.8228 123.288
15.8679 169.793
15.9129 202.619
15.958 169.649
16.003 104.913
16.0481 69.6796
16.0931 62.934
16.1382 59.9423
16.1833 58.4113
16.2283 56.9427
16.2734 56.3679
16.3185 55.765
16.3636 55.0305
16.4086 54.5011
16.4537 54.2621
16.4988 53.6094
16.5439 53.6448
16.589 53.128
16.6341 52.9288
16.6792 52.5709
16.7243 52.9585
16.7694 52.9669
16.8145 52.7092
16.8596 52.8852
16.9047 53.6892
16.9498 54.3471
16.9949 53.8169
17.04 53.9396
17.0851 54.8648
17.1302 57.1068
17.1754 60.19
17.2205 65.0872
17.2656 72.4858
17.3108 82.2444
17.3559 82.9811
17.401 72.419
17.4462 61.3814
17.4913 57.6335
17.5365 57.3406
17.5815 57.431
17.6268 57.792
17.6718 58.2864
17.7171 59.0142
17.7622 59.9135
17.8074 60.9599
17.8525 61.8248
17.8977 66.7764
17.9428 73.672
17.9881 82.407
18.0331 97.7751
18.0784 121.256
18.1237 142.654
18.1688 138.042
18.214 109.036
18.2591 88.3662
18.3044 89.1578
18.3495 99.5523
18.3948 107.55
18.4399 98.9054
18.4852 79.0877
18.5303 66.0241
18.5756 61.4964
18.6207 60.3814
18.666 59.082
18.7112 58.3309
18.7565 57.4272
18.8016 57.2738
18.8469 56.5608
18.892 56.2454
18.9374 55.758
18.9825 55.4032
19.0278 55.1817
19.073 55.2735
19.1183 55.3354
19.1635 56.4175
19.2088 58.2342
19.254 60.93
19.2993 65.5578
19.3447 72.218
19.3898 76.3894
19.4352 72.3817
19.4804 63.4436
19.5257 56.3534
19.5709 53.1412
19.6163 52.778
19.6615 52.431
19.7068 52.0748
19.752 51.9548
19.7974 51.9851
19.8426 52.762
19.888 53.8571
19.9332 55.1217
19.9786 57.7036
20.0238 61.0732
20.0692 66.4829
20.1144 70.3815
20.1598 69.4851
20.205 64.1599
20.2504 62.0037
20.2957 63.6886
20.3411 65.7218
20.3863 64.0484
20.4318 58.4455
20.477 53.0338
20.5224 50.1893
20.5677 49.4949
20.6131 48.9745
20.6586 48.5743
20.7038 48.326
20.7493 48.1312
20.7945 48.2447
20.84 48.0541
20.8853 47.5581
20.9307 47.5047
20.976 47.5966
21.0215 47.5595
21.0668 47.9334
21.1122 48.2076
21.1575 49.039
21.203 49.692
21.2483 50.6512
21.2938 50.5698
21.3391 49.4474
21.3846 48.2073
21.4299 47.4112
21.4754 47.4904
21.5207 47.5791
21.5662 47.7227
21.6116 48.036
21.6571 49.0603
21.7024 50.2635
21.7479 52.0481
21.7933 54.429
21.8388 58.2573
21.8843 62.9479
21.9297 65.5233
21.9752 64.0097
22.0206 59.9185
22.0661 56.4632
22.1115 56.0151
22.157 56.0953
22.2024 54.5227
22.248 51.145
22.2933 49.2531
22.3389 48.1271
22.3843 47.8949
22.4299 47.5494
22.4753 47.6737
22.5208 47.6315
22.5662 47.5905
22.6118 47.7014
22.6572 47.6461
22.7028 48.5271
22.7483 49.0583
22.7939 50.0379
22.8393 51.2917
22.8849 53.4007
22.9303 55.956
22.9759 57.8335
23.0214 57.6243
23.067 54.9205
23.1126 51.1026
23.1581 48.5617
23.2037 48.0805
23.2492 47.8881
23.2948 47.9418
23.3403 48.7023
23.3859 49.529
23.4314 50.4965
23.477 52.2694
23.5225 54.6792
23.5682 57.2448
23.6137 58.7789
23.6593 56.4698
23.7048 52.2383
23.7505 48.4231
23.796 46.2468
23.8417 45.3394
23.8872 44.8058
23.9329 44.434
23.9784 44.1852
24.0241 43.8866
24.0697 43.5701
24.1154 43.3231
24.1609 43.061
24.2066 42.9955
24.2522 42.7238
24.2979 42.5737
24.3434 42.4215
24.3892 42.2473
24.4349 42.1257
24.4805 42.0576
24.5262 42.233
24.5718 42.1969
24.6175 42.1832
24.6631 42.1001
24.7089 41.7278
24.7545 41.5967
24.8002 41.3229
24.8458 41.2999
24.8916 41.2994
24.9372 41.4213
24.983 41.7296
25.0286 42.1287
25.0744 42.6944
25.12 43.3309
25.1658 43.9638
25.2114 44.2247
25.2572 44.5532
25.3029 44.6305
25.3487 44.7273
25.3943 44.4824
25.4402 43.3504
25.4858 42.2146
25.5316 40.988
25.5773 40.4132
25.6231 40.2124
25.669 39.7717
25.7147 39.808
25.7605 39.7466
25.8062 39.7846
25.8521 39.8669
25.8977 40.0439
25.9436 40.0931
25.9893 40.3253
26.0352 40.7583
26.0809 41.1595
26.1268 41.403
26.1725 41.1113
26.2184 40.4657
26.2641 39.799
26.31 39.5532
26.3557 39.5263
26.4017 39.5941
26.4474 39.8194
26.4933 40.1677
26.5391 40.6871
26.585 41.26
26.6308 41.9258
26.6767 42.1022
26.7225 41.905
26.7684 41.3802
26.8142 40.6476
26.8601 40.2712
26.9059 39.8214
26.9519 39.1777
26.9979 38.7303
27.0437 38.3509
27.0896 38.2727
27.1354 38.2517
27.1814 38.053
27.2272 38.0098
27.2732 38.011
27.3191 37.8562
27.3651 37.9052
27.4109 37.8853
27.4569 38.0244
27.5027 38.1733
27.5488 38.2647
27.5946 37.9908
27.6407 37.735
27.6865 37.6266
27.7326 37.3141
27.7784 37.3681
27.8245 37.3601
27.8703 37.6224
27.9164 37.9729
27.9623 38.1023
28.0084 38.5816
28.0543 38.9921
28.1003 38.9194
28.1462 38.8214
28.1923 38.5092
28.2384 37.9018
28.2843 37.3059
28.3304 36.8232
28.3764 36.3673
28.4225 35.9091
28.4684 35.9306
28.5145 35.3955
28.5605 35.3908
28.6066 35.0884
28.6526 35.158
28.6987 35.0648
28.7447 35.0249
28.7908 34.9779
28.8368 34.8489
28.8829 34.9314
28.9289 34.9095
28.9751 34.6893
29.0211 34.4701
29.0673 34.244
29.1133 34.017
29.1595 33.8609
29.2055 33.8807
29.2517 33.7863
29.2977 33.8259
29.3439 33.783
29.3899 33.8437
29.4361 33.7763
29.4824 33.5728
29.5284 33.2452
29.5746 32.8581
29.6207 32.7114
29.6669 32.5749
29.713 32.5262
29.7593 32.3601
29.8053 32.3693
29.8516 32.1874
29.8977 32.1681
29.9439 32.1496
29.99 32.1193
30.0363 32.0269
30.0824 32.1497
30.1287 31.8697
30.1748 31.9824
30.2211 31.9822
30.2673 31.9035
30.3136 32.0145
30.3597 31.8323
30.406 31.818
30.4522 31.6657
30.4985 31.5818
30.5447 31.7524
30.591 31.7445
30.6372 31.7812
30.6835 31.8491
30.7297 31.902
30.7761 31.9064
30.8224 31.7807
30.8686 31.6348
30.915 31.2711
30.9612 31.1988
31.0076 30.8933
31.0538 30.7758
31.1002 30.8323
31.1464 30.5306
31.1928 30.4501
31.2391 30.5569
31.2855 30.5193
31.3317 30.4647
31.3781 30.6254
31.4244 30.5392
31.4708 30.5396
31.5171 30.5057
31.5636 30.4345
31.6098 30.2466
31.6563 30.0572
31.7026 29.9834
31.7491 29.7536
31.7953 29.8871
31.8418 29.7717
31.8881 29.7483
31.9346 29.8111
31.9809 29.8432
32.0275 29.6723
32.074 29.6033
32.1203 29.3743
32.1668 29.1737
32.2132 29.078
32.2597 28.9157
32.306 28.8084
32.3526 28.6045
32.399 28.6101
32.4455 28.4589
32.4919 28.3861
32.5385 28.3104
32.5848 28.1203
32.6314 28.1612
32.6778 28.0473
32.7244 27.9376
32.7708 27.7565
32.8174 27.8394
32.8638 27.6776
32.9104 27.6999
32.9569 27.6885
33.0035 27.5367
33.0499 27.519
33.0966 27.4675
33.143 27.3895
33.1897 27.2833
33.2361 27.3307
33.2828 27.2305
33.3293 27.1061
33.3759 27.0728
33.4226 27.0287
33.4691 26.6927
33.5158 26.7483
33.5623 26.5054
33.609 26.4088
33.6555 26.3088
33.7022 26.2765
33.7487 26.19
33.7954 26.1056
33.842 26.0268
33.8887 25.9964
33.9353 26.0202
33.982 25.8348
34.0286 25.6899
34.0753 25.6222
34.1219 25.4965
34.1687 25.5405
34.2152 25.4563
34.262 25.3336
34.3086 25.2892
34.3554 25.2318
34.402 25.188
34.4488 24.9575
34.4954 24.9259
34.5422 24.8635
34.5889 24.7825
34.6357 24.6651
34.6825 24.5897
34.7292 24.5535
34.776 24.494
34.8227 24.313
34.8695 24.3194
34.9162 24.2225
34.9631 24.1456
35.0098 24.1972
35.0566 24.148
35.1033 23.9897
35.1502 23.8978
35.1969 23.8961
35.2438 23.8772
35.2906 23.7802
35.3375 23.7886
35.3842 23.7428
35.4311 23.7272
35.4779 23.769
35.5248 23.6244
35.5716 23.5532
35.6185 23.5306
35.6653 23.4046
35.7123 23.2576
35.759 23.232
35.806 23.1206
35.8528 23.0471
35.8998 22.9641
35.9468 22.7959
35.9936 22.8308
36.0406 22.7259
36.0874 22.7052
36.1345 22.7066
36.1813 22.5213
36.2283 22.4614
36.2752 22.4047
36.3222 22.3984
36.3691 22.2979
36.4161 22.1769
36.463 22.2201
36.5101 22.1967
36.557 22.1043
36.6041 21.8951
36.651 21.8808
36.6981 21.8334
36.745 21.7891
36.7921 21.732
36.839 21.625
36.8861 21.5113
36.9331 21.5183
36.9802 21.4206
37.0272 21.3762
37.0743 21.2076
37.1213 21.1797
37.1684 21.174
37.2154 21.0491
37.2626 21.0394
37.3098 20.981
37.3568 20.9163
37.404 20.8134
37.451 20.7417
37.4982 20.653
37.5452 20.5619
37.5924 20.5716
37.6395 20.5837
37.6867 20.5127
37.7337 20.367
37.781 20.2635
37.8281 20.2437
37.8753 20.1647
37.9224 20.1116
37.9697 20.0219
38.0168 19.9681
38.064 19.8542
38.1111 19.8331
38.1584 19.7477
38.2056 19.7554
38.2529 19.6653
38.3 19.6019
38.3473 19.5793
38.3945 19.4543
38.4418 19.3657
38.489 19.3325
38.5363 19.3429
38.5837 19.1989
38.6309 19.1696
38.6782 19.1438
38.7254 19.0458
38.7728 18.9938
38.82 18.9209
38.8674 18.8567
38.9146 18.7827
38.9621 18.6677
39.0093 18.6396
39.0567 18.6933
39.104 18.5655
39.1514 18.472
39.1987 18.4614
39.2461 18.3391
39.2934 18.3427
39.3409 18.2445
39.3882 18.2259
39.4356 18.1043
39.483 18.0618
39.5304 18.0243
39.5778 18.0102
39.6253 17.987
39.6726 17.8354
39.7201 17.8834
39.7675 17.8163
39.815 17.7051
39.8624 17.7032
39.9099 17.7237
39.9575 17.4961
40.0049 17.491
40.0525 17.4028
40.0999 17.3577
40.1474 17.2924
40.1949 17.2333
40.2425 17.1855
40.2899 17.1571
40.3375 17.1116
40.385 17.0124
40.4326 16.9256
40.48 16.9555
40.5277 16.9091
40.5752 16.8521
40.6228 16.7033
40.6703 16.7316
40.718 16.6299
40.7655 16.5779
40.8132 16.5616
40.8607 16.5439
40.9084 16.451
40.9559 16.362
41.0036 16.4069
41.0512 16.2802
41.0989 16.3052
41.1465 16.1417
41.1942 16.1623
41.242 16.0891
41.2896 15.9997
41.3373 15.9609
41.3849 15.9343
41.4327 15.9199
41.4803 15.7941
41.5281 15.7647
41.5758 15.6853
41.6236 15.6334
41.6712 15.5772
41.7191 15.5393
41.7667 15.4831
41.8146 15.4292
41.8622 15.3918
41.9101 15.34
41.9578 15.2677
42.0057 15.1883
42.0534 15.2059
42.1013 15.1787
42.149 15.0387
42.1969 15.0084
42.2446 14.902
42.2925 14.9299
42.3403 14.8543
42.3882 14.8179
42.436 14.8172
42.4839 14.7581
42.5319 14.7078
42.5797 14.6042
42.6277 14.5758
42.6755 14.5397
42.7235 14.4598
42.7713 14.4848
42.8193 14.3937
42.8671 14.362
42.9152 14.29
42.963 14.2294
43.0111 14.2279
43.0589 14.15
43.107 14.08
43.1549 14.0152
43.2029 13.9579
43.2508 13.92
43.2989 13.87
43.3468 13.8551
43.3949 13.8031
43.4429 13.7607
43.491 13.6852
43.5389 13.6803
43.5871 13.6266
43.635 13.5774
43.6832 13.5209
43.7312 13.484
43.7793 13.4546
43.8273 13.4158
43.8755 13.3128
43.9237 13.2729
43.9717 13.238
44.0199 13.1569
44.068 13.1375
44.1162 13.0502
44.1642 13.0599
44.2125 13.0128
44.2606 13.0425
44.3088 12.9386
44.3569 12.9124
44.4052 12.844
44.4533 12.7989
44.5016 12.7685
44.5497 12.7592
44.598 12.7009
44.6461 12.6162
44.6945 12.5624
44.7426 12.5511
44.791 12.46
44.8391 12.4377
44.8875 12.4388
44.9357 12.3892
44.984 12.371
45.0322 12.2046
45.0806 12.2231
45.1288 12.2198
45.1773 12.1116
45.2257 12.0781
45.2739 12.0551
45.3224 12.0264
45.3706 11.9976
45.4191 11.857
45.4673 11.9015
45.5158 11.8021
45.5641 11.776
45.6126 11.7549
45.6609 11.6849
45.7094 11.6449
45.7577 11.6382
45.8063 11.5352
45.8546 11.555
45.9031 11.5113
45.9515 11.4768
46.0001 11.4318
46.0484 11.4152
46.097 11.3695
46.1454 11.2557
46.194 11.2782
46.2424 11.2424
46.291 11.1661
46.3395 11.1331
46.3881 11.0612
46.4365 11.0454
46.4852 11.0386
46.5337 10.9697
46.5823 10.9593
46.631 10.8872
46.6795 10.8473
46.7282 10.8201
46.7767 10.7924
46.8254 10.7372
46.8739 10.7217
46.9226 10.6664
46.9712 10.5848
47.0199 10.5879
47.0685 10.5928
47.1173 10.4918
47.1658 10.4629
47.2146 10.4569
47.2632 10.3846
47.312 10.3041
47.3606 10.2785
47.4095 10.2837
47.4581 10.2594
47.5069 10.1824
47.5556 10.1315
47.6044 10.0873
47.6531 10.0909
47.702 10.0434
47.7507 10.0028
47.7996 9.96943
47.8483 9.94591
47.8972 9.93902
47.9461 9.85684
47.9948 9.82868
48.0438 9.77236
48.0925 9.73358
48.1415 9.71453
48.1902 9.66066
48.2392 9.65019
48.288 9.63685
48.337 9.58323
48.3858 9.53094
48.4348 9.52364
48.4837 9.49759
48.5327 9.42943
48.5815 9.43835
48.6306 9.41581
48.6795 9.30943
48.7285 9.27304
48.7774 9.26662
48.8265 9.23875
48.8754 9.25264
48.9245 9.17494
48.9734 9.11587
49.0226 9.09557
49.0715 9.04915
49.1206 8.98776
49.1696 8.9856
49.2188 8.96703
49.2679 8.92422
49.3169 8.85922
49.3661 8.86117
49.4151 8.81391
49.4643 8.80256
49.5134 8.74425
49.5626 8.7225
49.6117 8.67647
49.6609 8.65898
49.71 8.59718
49.7592 8.58968
49.8083 8.51549
49.8576 8.53416
49.9067 8.47567
49.956 8.47579
50.0052 8.42204
50.0545 8.39388
50.1036 8.37443
50.153 8.34004
50.2022 8.31783
50.2515 8.2806
50.3007 8.20373
50.3501 8.2195
50.3993 8.17916
50.4487 8.14444
50.498 8.12788
50.5474 8.0625
50.5966 8.01407
50.6461 8.01258
50.6955 7.98934
50.7448 7.97315
50.7943 7.9136
50.8436 7.90128
50.8931 7.84099
50.9424 7.83618
50.9919 7.77997
51.0413 7.73957
51.0908 7.72414
51.1402 7.73001
51.1897 7.66889
51.2391 7.65084
51.2887 7.59312
51.3381 7.53879
51.3877 7.56336
51.4371 7.5084
51.4867 7.47266
51.5362 7.45177
51.5858 7.40721
51.6353 7.38055
51.6849 7.38219
51.7344 7.32026
51.7841 7.31396
51.8336 7.27191
51.8833 7.24069
51.9328 7.19371
51.9826 7.15787
52.0323 7.1216
52.0818 7.10631
52.1316 7.10342
52.1812 7.07792
52.231 7.04964
52.2806 6.99284
52.3304 6.97754
52.38 6.92643
52.4298 6.95679
52.4794 6.89426
52.5293 6.85121
52.5789 6.81901
52.6288 6.80743
52.6785 6.77837
52.7284 6.76109
52.7781 6.74003
52.828 6.69204
52.8777 6.65105
52.9276 6.6532
52.9774 6.62335
53.0273 6.6245
53.0771 6.56469
53.1271 6.51547
53.1769 6.50448
53.2269 6.49569
53.2767 6.43704
53.3267 6.38744
53.3765 6.36455
53.4266 6.35206
53.4766 6.31869
53.5265 6.29939
53.5765 6.26916
53.6264 6.26616
53.6765 6.22092
53.7264 6.20096
53.7765 6.18484
53.8265 6.16564
53.8766 6.12988
53.9266 6.09402
53.9767 6.04801
54.0267 6.06668
54.0769 5.99337
54.1269 5.97873
54.1771 5.96168
54.2271 5.93972
54.2773 5.86857
54.3274 5.87073
54.3776 5.81374
54.4277 5.79669
54.478 5.78245
54.528 5.7702
54.5783 5.70093
54.6285 5.67568
54.6788 5.605
54.7289 5.55164
54.7792 5.56569
54.8296 5.46916
54.8798 5.44406
54.9301 5.45374
54.9803 5.37282
55.0307 5.37168
55.0809 5.30557
55.1314 5.30904
55.1816 5.20668
55.232 5.14451
55.2823 5.1287
55.3328 5.08673
55.383 4.99012
55.4335 4.97582
55.4838 4.96761
55.5344 4.92168
55.5847 4.89843
55.6352 4.81278
55.6856 4.82945
55.7361 4.79069