File: XRD/Ni3Fe_FD0611.xy
TT I
1.27165 6.75343
1.31627 6.55564
1.36089 6.82904
1.40551 6.12299
1.45013 6.66299
1.49476 5.81443
1.53938 5.68375
1.584 5.38893
1.62863 5.9353
1.67325 5.69582
1.71787 5.37617
1.7625 4.88516
1.80712 5.36123
1.85174 4.61814
1.89636 4.37775
1.94099 4.91165
1.98562 4.79887
2.03025 4.64472
2.07487 4.63643
2.11949 5.25522
2.16411 5.26362
2.20874 13.1883
2.25338 19.7172
2.298 5.89613
2.34263 5.51566
2.38725 5.25866
2.43188 6.35507
2.4765 6.79744
2.52115 7.1457
2.56577 6.92392
2.6104 7.44976
2.65503 7.9236
2.69965 7.96813
2.7443 8.19858
2.78893 8.04603
2.83356 8.21672
2.87818 8.42419
2.92281 8.58055
2.96744 10.112
3.01209 10.2868
3.05672 10.8628
3.10135 11.9595
3.14599 12.8102
3.19062 14.4773
3.23527 14.8297
3.2799 15.7316
3.32454 16.8298
3.36917 17.8864
3.4138 18.7463
3.45844 19.7151
3.50309 21.3661
3.54773 21.7791
3.59237 24.1559
3.637 83.4414
3.68164 52.9835
3.7263 26.2592
3.77094 26.4395
3.81558 27.3026
3.86022 27.8565
3.90486 28.5989
3.9495 30.0229
3.99416 30.6918
4.0388 32.3373
4.08344 34.0897
4.12809 35.4274
4.17273 37.2049
4.21738 42.6543
4.26204 219.98
4.30669 185.369
4.35133 47.979
4.39598 45.1022
4.44063 54.0693
4.4853 62.5951
4.52995 50.579
4.5746 51.4243
4.61925 53.9756
4.6639 55.8648
4.70855 58.8338
4.75322 61.5054
4.79788 64.5176
4.84253 67.8533
4.88719 72.0173
4.93184 76.0083
4.97652 81.969
5.02118 87.9651
5.06583 95.7187
5.11049 107.472
5.15515 168.399
5.19981 369.551
5.24449 3017.43
5.28916 12519.4
5.33382 2930.74
5.37848 194.21
5.42315 131.026
5.46783 115.088
5.5125 107.381
5.55716 102.995
5.60183 99.3609
5.6465 97.7299
5.69117 95.5435
5.73586 93.0664
5.78053 92.3687
5.8252 91.3943
5.86988 92.3104
5.91455 95.4361
5.95924 103.863
6.00392 216.0
6.0486 1018.87
6.09328 4369.63
6.13795 3486.48
6.18263 251.608
6.22733 94.6049
6.27201 83.4201
6.3167 98.9548
6.36138 79.8118
6.40606 69.5203
6.45075 67.9477
6.49545 66.2771
6.54014 64.4046
6.58483 63.9646
6.62952 63.1966
6.67421 91.5128
6.71892 130.349
6.76361 67.7745
6.8083 59.1702
6.853 57.7391
6.89769 57.0334
6.94239 56.8805
6.98711 56.0175
7.03181 55.7563
7.07651 55.5477
7.12121 55.7393
7.16591 55.5792
7.21063 56.0638
7.25533 69.9748
7.30004 159.864
7.34475 85.2655
7.38945 56.7002
7.43416 54.9461
7.47889 54.7861
7.5236 55.1729
7.56831 55.8959
7.61303 57.1663
7.65774 57.142
7.70247 56.3439
7.74719 56.5034
7.79191 57.2793
7.83663 57.4724
7.88135 58.4256
7.92607 59.2981
7.97081 59.7898
8.01553 61.3341
8.06026 62.6844
8.10498 64.2649
8.14971 72.9641
8.19446 72.123
8.23919 69.8998
8.28392 72.198
8.32865 74.8366
8.37339 78.8126
8.41812 85.6424
8.46288 111.155
8.50761 166.978
8.55235 401.48
8.59709 1224.11
8.64183 2171.82
8.68658 996.021
8.73134 180.985
8.77609 100.822
8.82083 93.86
8.86558 90.648
8.91033 90.4101
8.9551 91.0729
8.99985 85.6877
9.04461 84.032
9.08936 83.4183
9.13412 82.5983
9.17888 83.0047
9.22365 83.7001
9.26841 82.961
9.31318 83.1096
9.35794 83.6708
9.4027 83.9713
9.44749 84.7975
9.49226 85.4771
9.53703 86.5143
9.5818 88.2501
9.62657 92.691
9.67134 98.1875
9.71614 94.5637
9.76091 95.0127
9.80569 97.3039
9.85047 100.839
9.89525 122.943
9.94005 133.442
9.98484 181.4
10.0296 353.453
10.0744 851.554
10.1192 1705.64
10.164 1566.03
10.2088 409.522
10.2536 128.971
10.2984 114.306
10.3432 114.349
10.388 105.425
10.4328 120.058
10.4776 163.882
10.5224 294.037
10.5672 506.04
10.612 484.887
10.6568 203.908
10.7017 97.1436
10.7465 87.2861
10.7913 84.0608
10.8361 81.6946
10.8809 80.0953
10.9257 78.8916
10.9706 79.1304
11.0154 75.3806
11.0602 73.4779
11.105 72.5784
11.1499 76.2796
11.1947 81.83
11.2395 73.7045
11.2844 70.4914
11.3292 67.8974
11.374 66.3651
11.4189 66.1503
11.4637 65.3584
11.5086 65.9557
11.5534 68.1159
11.5983 65.6329
11.6431 64.257
11.688 63.5785
11.7328 63.4884
11.7777 63.3377
11.8225 62.8506
11.8674 62.7792
11.9122 63.3853
11.9571 63.4513
12.002 64.073
12.0468 68.3123
12.0917 80.2999
12.1366 105.343
12.1814 154.628
12.2263 201.535
12.2712 166.071
12.3161 97.0765
12.3609 70.5974
12.4058 65.0477
12.4507 64.7548
12.4956 64.8331
12.5405 65.0559
12.5853 66.117
12.6302 72.818
12.6751 77.042
12.72 69.9255
12.7649 68.3889
12.8098 68.9929
12.8547 70.1531
12.8996 71.6316
12.9445 72.8501
12.9894 74.7358
13.0343 76.1722
13.0792 79.7975
13.1242 89.4629
13.1691 113.349
13.214 152.161
13.2589 246.35
13.3038 369.86
13.3487 419.995
13.3937 268.364
13.4386 127.585
13.4835 107.135
13.5285 122.51
13.5734 162.583
13.6183 252.705
13.6633 345.653
13.7082 333.861
13.7531 191.31
13.7981 99.9474
13.843 82.4541
13.888 80.2369
13.9329 77.6354
13.9779 76.3961
14.0228 74.9354
14.0678 73.7063
14.1127 73.2852
14.1577 73.2725
14.2027 72.4056
14.2476 71.0703
14.2926 70.9836
14.3376 72.0272
14.3825 70.8261
14.4275 69.1948
14.4725 69.5861
14.5175 69.2055
14.5624 69.5261
14.6074 71.1906
14.6524 71.786
14.6974 70.8892
14.7424 72.4922
14.7874 79.5912
14.8324 90.2684
14.8774 113.214
14.9224 156.467
14.9674 205.578
15.0124 212.556
15.0574 150.729
15.1024 92.8328
15.1474 73.1733
15.1924 71.1789
15.2374 71.3615
15.2824 70.4546
15.3274 68.5663
15.3725 67.4297
15.4175 66.9703
15.4625 66.4717
15.5076 66.8744
15.5526 66.8054
15.5976 66.4347
15.6426 67.5572
15.6877 73.0702
15.7327 80.7674
15.7778 96.9666
15.8228 128.782
15.8679 169.502
15.9129 189.168
15.958 154.006
16.003 97.7726
16.0481 69.1847
16.0931 64.9498
16.1382 62.9997
16.1833 61.2776
16.2283 59.5381
16.2734 58.9081
16.3185 59.1275
16.3636 59.3609
16.4086 57.9446
16.4537 56.5797
16.4988 56.002
16.5439 55.9171
16.589 55.7071
16.6341 55.2864
16.6792 55.0111
16.7243 55.1778
16.7694 55.3131
16.8145 55.2645
16.8596 55.6392
16.9047 56.9603
16.9498 57.2332
16.9949 56.0081
17.04 56.282
17.0851 57.5103
17.1302 59.1927
17.1754 62.324
17.2205 67.3983
17.2656 74.8115
17.3108 81.8096
17.3559 81.962
17.401 72.3501
17.4462 63.0289
17.4913 59.6309
17.5365 59.5104
17.5815 59.7141
17.6268 59.8676
17.6718 60.7543
17.7171 61.4673
17.7622 61.7346
17.8074 62.4819
17.8525 64.8081
17.8977 69.1268
17.9428 74.5414
17.9881 83.696
18.0331 101.609
18.0784 122.095
18.1237 137.854
18.1688 131.359
18.214 104.928
18.2591 88.4824
18.3044 91.8896
18.3495 100.703
18.3948 105.196
18.4399 96.6272
18.4852 78.7674
18.5303 66.9495
18.5756 62.8537
18.6207 61.7778
18.666 60.9394
18.7112 60.1076
18.7565 59.3999
18.8016 58.9641
18.8469 58.4319
18.892 58.1419
18.9374 57.6171
18.9825 57.392
19.0278 57.4026
19.073 57.3856
19.1183 57.8734
19.1635 58.6667
19.2088 60.0048
19.254 62.7565
19.2993 67.4432
19.3447 73.2993
19.3898 76.0117
19.4352 72.4239
19.4804 64.1959
19.5257 57.2509
19.5709 54.6826
19.6163 54.4104
19.6615 54.0262
19.7068 53.8776
19.752 53.6104
19.7974 54.0221
19.8426 54.9683
19.888 55.4798
19.9332 56.6728
19.9786 59.4164
20.0238 62.7616
20.0692 67.4103
20.1144 69.4296
20.1598 68.1981
20.205 64.1296
20.2504 62.6539
20.2957 64.1434
20.3411 65.2859
20.3863 64.065
20.4318 59.0774
20.477 54.2466
20.5224 52.0952
20.5677 51.2627
20.6131 50.8692
20.6586 50.2294
20.7038 50.0709
20.7493 49.4504
20.7945 49.4834
20.84 49.2707
20.8853 49.0834
20.9307 48.9885
20.976 49.0805
21.0215 49.011
21.0668 49.315
21.1122 49.7679
21.1575 50.5198
21.203 51.3072
21.2483 51.5068
21.2938 51.6174
21.3391 50.3083
21.3846 49.2727
21.4299 48.685
21.4754 48.8312
21.5207 48.933
21.5662 49.056
21.6116 49.7301
21.6571 50.2772
21.7024 51.3077
21.7479 52.942
21.7933 56.0516
21.8388 59.3776
21.8843 62.5934
21.9297 64.3814
21.9752 63.3233
22.0206 59.9352
22.0661 57.1825
22.1115 56.2748
22.157 56.0897
22.2024 54.5331
22.248 51.879
22.2933 50.1387
22.3389 49.4618
22.3843 49.3811
22.4299 49.3436
22.4753 49.1422
22.5208 48.8965
22.5662 48.8346
22.6118 49.0082
22.6572 49.123
22.7028 49.6823
22.7483 50.0047
22.7939 50.7534
22.8393 52.342
22.8849 54.6175
22.9303 56.454
22.9759 57.6508
23.0214 57.5143
23.067 54.9567
23.1126 51.6833
23.1581 49.5097
23.2037 49.1811
23.2492 49.1299
23.2948 49.2255
23.3403 49.5395
23.3859 50.0855
23.4314 51.1848
23.477 53.045
23.5225 55.2685
23.5682 57.0845
23.6137 57.7544
23.6593 55.7809
23.7048 52.0723
23.7505 48.6893
23.796 46.9362
23.8417 46.2795
23.8872 45.9537
23.9329 45.5628
23.9784 45.2437
24.0241 44.955
24.0697 44.7992
24.1154 44.4031
24.1609 44.3359
24.2066 44.1979
24.2522 43.8506
24.2979 43.8067
24.3434 43.6435
24.3892 43.5759
24.4349 43.3739
24.4805 43.2559
24.5262 43.3745
24.5718 43.2286
24.6175 43.2986
24.6631 43.0885
24.7089 42.8522
24.7545 42.7068
24.8002 42.6155
24.8458 42.5917
24.8916 42.5086
24.9372 42.6161
24.983 42.6835
25.0286 43.1258
25.0744 43.4784
25.12 43.9749
25.1658 44.5138
25.2114 44.9868
25.2572 45.0944
25.3029 45.1106
25.3487 45.0139
25.3943 44.7141
25.4402 43.7798
25.4858 42.692
25.5316 41.7713
25.5773 41.2607
25.6231 41.1679
25.669 40.776
25.7147 40.8625
25.7605 40.624
25.8062 40.736
25.8521 40.8304
25.8977 40.8749
25.9436 41.2105
25.9893 41.2827
26.0352 41.7364
26.0809 41.7407
26.1268 41.8916
26.1725 41.3915
26.2184 41.0113
26.2641 40.5636
26.31 40.3966
26.3557 40.4703
26.4017 40.4399
26.4474 40.6849
26.4933 41.003
26.5391 41.5366
26.585 41.8389
26.6308 42.1874
26.6767 42.3466
26.7225 42.191
26.7684 41.726
26.8142 41.1845
26.8601 40.793
26.9059 40.2503
26.9519 39.6144
26.9979 39.442
27.0437 39.1877
27.0896 39.0129
27.1354 39.0449
27.1814 38.9974
27.2272 38.7593
27.2732 38.9343
27.3191 38.6356
27.3651 38.8108
27.4109 38.6581
27.4569 38.8663
27.5027 38.807
27.5488 38.8967
27.5946 38.5731
27.6407 38.4533
27.6865 38.3053
27.7326 38.064
27.7784 38.1565
27.8245 38.0465
27.8703 38.2661
27.9164 38.5275
27.9623 38.5862
28.0084 38.8672
28.0543 39.3586
28.1003 39.2477
28.1462 39.199
28.1923 38.7823
28.2384 38.1996
28.2843 37.7732
28.3304 37.3988
28.3764 36.9847
28.4225 36.6124
28.4684 36.5195
28.5145 36.05
28.5605 35.9831
28.6066 36.021
28.6526 35.8923
28.6987 35.8791
28.7447 35.722
28.7908 35.7302
28.8368 35.6778
28.8829 35.5759
28.9289 35.5951
28.9751 35.3234
29.0211 35.2269
29.0673 34.9815
29.1133 34.864
29.1595 34.61
29.2055 34.579
29.2517 34.5948
29.2977 34.4539
29.3439 34.5262
29.3899 34.4846
29.4361 34.3158
29.4824 34.0795
29.5284 34.0634
29.5746 33.6342
29.6207 33.3755
29.6669 33.4212
29.713 33.1643
29.7593 33.0781
29.8053 33.1402
29.8516 33.0091
29.8977 32.9988
29.9439 32.7844
29.99 32.7766
30.0363 32.6749
30.0824 32.7188
30.1287 32.6314
30.1748 32.6671
30.2211 32.6914
30.2673 32.5503
30.3136 32.5999
30.3597 32.4163
30.406 32.4255
30.4522 32.3159
30.4985 32.3216
30.5447 32.3885
30.591 32.4068
30.6372 32.407
30.6835 32.4165
30.7297 32.3832
30.7761 32.3722
30.8224 32.257
30.8686 32.0517
30.915 31.9086
30.9612 31.7753
31.0076 31.5217
31.0538 31.3463
31.1002 31.4349
31.1464 31.1741
31.1928 31.0586
31.2391 31.1812
31.2855 30.9824
31.3317 31.0575
31.3781 31.1099
31.4244 31.1565
31.4708 31.0315
31.5171 30.9834
31.5636 30.9334
31.6098 30.6897
31.6563 30.6027
31.7026 30.4554
31.7491 30.3153
31.7953 30.3603
31.8418 30.3318
31.8881 30.3984
31.9346 30.3267
31.9809 30.1304
32.0275 30.1563
32.074 29.991
32.1203 29.8101
32.1668 29.7225
32.2132 29.5651
32.2597 29.4596
32.306 29.297
32.3526 29.1008
32.399 29.1334
32.4455 29.0557
32.4919 28.89
32.5385 28.8782
32.5848 28.8118
32.6314 28.6903
32.6778 28.6802
32.7244 28.4384
32.7708 28.334
32.8174 28.3446
32.8638 28.2313
32.9104 28.3136
32.9569 28.1428
33.0035 27.9716
33.0499 28.026
33.0966 27.9325
33.143 28.0054
33.1897 27.9562
33.2361 27.8477
33.2828 27.8056
33.3293 27.5377
33.3759 27.5677
33.4226 27.4286
33.4691 27.2737
33.5158 27.163
33.5623 27.0515
33.609 26.8887
33.6555 26.874
33.7022 26.7967
33.7487 26.6594
33.7954 26.7341
33.842 26.4873
33.8887 26.4556
33.9353 26.4204
33.982 26.3046
34.0286 26.2563
34.0753 26.1581
34.1219 26.0676
34.1687 26.0002
34.2152 25.8667
34.262 25.7643
34.3086 25.7106
34.3554 25.6421
34.402 25.6187
34.4488 25.4577
34.4954 25.3915
34.5422 25.3846
34.5889 25.2001
34.6357 25.1615
34.6825 25.1786
34.7292 24.9865
34.776 24.9812
34.8227 24.8261
34.8695 24.7412
34.9162 24.7775
34.9631 24.6721
35.0098 24.6803
35.0566 24.4999
35.1033 24.4156
35.1502 24.4012
35.1969 24.3519
35.2438 24.2915
35.2906 24.1648
35.3375 24.208
35.3842 24.13
35.4311 24.1552
35.4779 24.1453
35.5248 24.0361
35.5716 23.9435
35.6185 23.9421
35.6653 23.7316
35.7123 23.7011
35.759 23.6382
35.806 23.528
35.8528 23.3375
35.8998 23.403
35.9468 23.278
35.9936 23.2333
36.0406 23.1447
36.0874 23.1006
36.1345 23.0197
36.1813 22.9826
36.2283 22.8491
36.2752 22.7893
36.3222 22.826
36.3691 22.7724
36.4161 22.6625
36.463 22.6196
36.5101 22.5648
36.557 22.4493
36.6041 22.3167
36.651 22.3522
36.6981 22.2816
36.745 22.2287
36.7921 22.139
36.839 22.0235
36.8861 22.0181
36.9331 21.8145
36.9802 21.811
37.0272 21.7148
37.0743 21.6224
37.1213 21.6516
37.1684 21.601
37.2154 21.4491
37.2626 21.4617
37.3098 21.3897
37.3568 21.3141
37.404 21.2937
37.451 21.1675
37.4982 21.0887
37.5452 20.9762
37.5924 20.9229
37.6395 20.9508
37.6867 20.8265
37.7337 20.8352
37.781 20.6954
37.8281 20.6294
37.8753 20.5116
37.9224 20.4441
37.9697 20.4685
38.0168 20.3495
38.064 20.2543
38.1111 20.2542
38.1584 20.1396
38.2056 20.0638
38.2529 20.0483
38.3 19.9363
38.3473 19.9116
38.3945 19.8299
38.4418 19.7855
38.489 19.7758
38.5363 19.6719
38.5837 19.5796
38.6309 19.6327
38.6782 19.4549
38.7254 19.3795
38.7728 19.3149
38.82 19.2599
38.8674 19.264
38.9146 19.2163
38.9621 19.0932
39.0093 19.0268
39.0567 19.0028
39.104 18.8612
39.1514 18.8666
39.1987 18.8567
39.2461 18.7813
39.2934 18.6852
39.3409 18.5665
39.3882 18.5047
39.4356 18.5304
39.483 18.4157
39.5304 18.3939
39.5778 18.3883
39.6253 18.2804
39.6726 18.2816
39.7201 18.157
39.7675 18.1418
39.815 18.0919
39.8624 18.0149
39.9099 17.9354
39.9575 17.843
40.0049 17.8438
40.0525 17.7736
40.0999 17.7259
40.1474 17.66
40.1949 17.5889
40.2425 17.5231
40.2899 17.4738
40.3375 17.4426
40.385 17.3838
40.4326 17.3303
40.48 17.2412
40.5277 17.251
40.5752 17.1219
40.6228 17.0764
40.6703 17.0018
40.718 16.9844
40.7655 17.0202
40.8132 16.9063
40.8607 16.8497
40.9084 16.783
40.9559 16.725
41.0036 16.6901
41.0512 16.6693
41.0989 16.6062
41.1465 16.4296
41.1942 16.4316
41.242 16.3488
41.2896 16.3197
41.3373 16.2954
41.3849 16.2444
41.4327 16.1403
41.4803 16.1201
41.5281 16.0659
41.5758 15.9755
41.6236 15.9462
41.6712 15.8883
41.7191 15.83
41.7667 15.8181
41.8146 15.7379
41.8622 15.6855
41.9101 15.6753
41.9578 15.5359
42.0057 15.4757
42.0534 15.4911
42.1013 15.4391
42.149 15.4142
42.1969 15.3261
42.2446 15.313
42.2925 15.2488
42.3403 15.1884
42.3882 15.1647
42.436 15.0808
42.4839 15.0456
42.5319 14.9659
42.5797 14.9463
42.6277 14.8562
42.6755 14.8542
42.7235 14.7512
42.7713 14.7241
42.8193 14.6569
42.8671 14.6415
42.9152 14.5145
42.963 14.5325
43.0111 14.4373
43.0589 14.408
43.107 14.365
43.1549 14.3631
43.2029 14.2943
43.2508 14.2355
43.2989 14.1678
43.3468 14.0896
43.3949 14.1227
43.4429 14.0613
43.491 13.9977
43.5389 13.954
43.5871 13.8844
43.635 13.7808
43.6832 13.777
43.7312 13.7432
43.7793 13.7332
43.8273 13.6376
43.8755 13.5685
43.9237 13.5383
43.9717 13.5077
44.0199 13.4561
44.068 13.4361
44.1162 13.3763
44.1642 13.347
44.2125 13.2378
44.2606 13.1916
44.3088 13.1671
44.3569 13.181
44.4052 13.1116
44.4533 13.0299
44.5016 12.955
44.5497 12.9766
44.598 12.8904
44.6461 12.9256
44.6945 12.8325
44.7426 12.7753
44.791 12.7257
44.8391 12.6861
44.8875 12.6226
44.9357 12.5993
44.984 12.6056
45.0322 12.5107
45.0806 12.4503
45.1288 12.4374
45.1773 12.3384
45.2257 12.2864
45.2739 12.266
45.3224 12.1815
45.3706 12.2394
45.4191 12.1776
45.4673 12.0967
45.5158 12.1101
45.5641 12.0192
45.6126 11.9821
45.6609 11.9625
45.7094 11.9142
45.7577 11.8417
45.8063 11.8047
45.8546 11.7774
45.9031 11.686
45.9515 11.6601
46.0001 11.6478
46.0484 11.5844
46.097 11.5837
46.1454 11.5546
46.194 11.4573
46.2424 11.3932
46.291 11.4152
46.3395 11.3981
46.3881 11.2837
46.4365 11.2844
46.4852 11.1924
46.5337 11.1776
46.5823 11.2126
46.631 11.1063
46.6795 11.0974
46.7282 11.074
46.7767 11.0378
46.8254 10.934
46.8739 10.8667
46.9226 10.8362
46.9712 10.8406
47.0199 10.7739
47.0685 10.737
47.1173 10.6972
47.1658 10.6839
47.2146 10.6148
47.2632 10.5663
47.312 10.5368
47.3606 10.5035
47.4095 10.4405
47.4581 10.4297
47.5069 10.3378
47.5556 10.3609
47.6044 10.3548
47.6531 10.2977
47.702 10.2246
47.7507 10.2105
47.7996 10.1256
47.8483 10.1576
47.8972 10.083
47.9461 10.0383
47.9948 9.98586
48.0438 9.99331
48.0925 9.95421
48.1415 9.94802
48.1902 9.86498
48.2392 9.87003
48.288 9.82222
48.337 9.7778
48.3858 9.72489
48.4348 9.70466
48.4837 9.6894
48.5327 9.67218
48.5815 9.58073
48.6306 9.60457
48.6795 9.5423
48.7285 9.47558
48.7774 9.47008
48.8265 9.46598
48.8754 9.34852
48.9245 9.383
48.9734 9.30157
49.0226 9.25613
49.0715 9.23113
49.1206 9.21479
49.1696 9.18249
49.2188 9.14416
49.2679 9.10396
49.3169 9.04955
49.3661 9.01733
49.4151 9.00233
49.4643 8.98408
49.5134 8.91085
49.5626 8.86509
49.6117 8.86801
49.6609 8.84088
49.71 8.77443
49.7592 8.7945
49.8083 8.72321
49.8576 8.67876
49.9067 8.64596
49.956 8.60565
50.0052 8.57027
50.0545 8.57307
50.1036 8.50386
50.153 8.50291
50.2022 8.47686
50.2515 8.40513
50.3007 8.39947
50.3501 8.37085
50.3993 8.32505
50.4487 8.27549
50.498 8.27792
50.5474 8.24076
50.5966 8.22183
50.6461 8.17907
50.6955 8.10278
50.7448 8.09908
50.7943 8.09967
50.8436 8.05875
50.8931 8.00944
50.9424 7.95539
50.9919 7.94326
51.0413 7.9439
51.0908 7.89148
51.1402 7.87271
51.1897 7.82507
51.2391 7.77676
51.2887 7.76458
51.3381 7.71748
51.3877 7.70716
51.4371 7.67539
51.4867 7.6445
51.5362 7.59361
51.5858 7.55774
51.6353 7.51802
51.6849 7.504
51.7344 7.47414
51.7841 7.46962
51.8336 7.39964
51.8833 7.3624
51.9328 7.31724
51.9826 7.30527
52.0323 7.28875
52.0818 7.28185
52.1316 7.20814
52.1812 7.21025
52.231 7.16628
52.2806 7.16978
52.3304 7.14216
52.38 7.06212
52.4298 7.05631
52.4794 7.00022
52.5293 6.95557
52.5789 6.96869
52.6288 6.93777
52.6785 6.86894
52.7284 6.87123
52.7781 6.85853
52.828 6.80305
52.8777 6.7833
52.9276 6.81262
52.9774 6.76703
53.0273 6.68701
53.0771 6.70211
53.1271 6.70169
53.1769 6.59903
53.2269 6.6019
53.2767 6.52032
53.3267 6.50589
53.3765 6.53166
53.4266 6.50156
53.4766 6.43743
53.5265 6.43398
53.5765 6.40399
53.6264 6.37975
53.6765 6.32777
53.7264 6.30103
53.7765 6.3281
53.8265 6.26436
53.8766 6.23941
53.9266 6.21811
53.9767 6.12302
54.0267 6.14703
54.0769 6.08649
54.1269 6.08745
54.1771 6.06036
54.2271 6.07988
54.2773 6.00976
54.3274 6.0196
54.3776 5.93792
54.4277 5.87079
54.478 5.87303
54.528 5.84004
54.5783 5.80592
54.6285 5.71874
54.6788 5.75212
54.7289 5.71516
54.7792 5.65708
54.8296 5.60613
54.8798 5.56375
54.9301 5.50736
54.9803 5.48594
55.0307 5.52273
55.0809 5.42539
55.1314 5.42267
55.1816 5.34825
55.232 5.2951
55.2823 5.2395
55.3328 5.16315
55.383 5.15532
55.4335 5.14096
55.4838 5.00231
55.5344 5.01116
55.5847 5.00165
55.6352 4.94575
55.6856 4.8764
55.7361 4.83122