File: XRD/Ni3Fe_FD0267.xy
TT I
1.27165 7.68115
1.31627 7.2493
1.36089 7.26037
1.40551 6.59108
1.45013 6.67115
1.49476 6.03397
1.53938 6.0721
1.584 5.94317
1.62863 5.7126
1.67325 5.21884
1.71787 5.09557
1.7625 4.80504
1.80712 4.77954
1.85174 4.86843
1.89636 4.84913
1.94099 5.02662
1.98562 5.07528
2.03025 5.11995
2.07487 5.06683
2.11949 5.03851
2.16411 4.56009
2.20874 12.0491
2.25338 18.4097
2.298 5.40298
2.34263 5.30288
2.38725 5.10195
2.43188 4.93734
2.4765 5.71161
2.52115 5.29384
2.56577 6.0333
2.6104 6.71599
2.65503 5.77469
2.69965 6.8999
2.7443 6.9082
2.78893 7.10259
2.83356 7.85526
2.87818 8.08002
2.92281 8.78589
2.96744 9.30648
3.01209 10.0017
3.05672 11.1533
3.10135 12.0504
3.14599 13.144
3.19062 13.7972
3.23527 15.3243
3.2799 15.6919
3.32454 17.2393
3.36917 17.9349
3.4138 18.7907
3.45844 20.2887
3.50309 21.366
3.54773 22.1822
3.59237 24.3417
3.637 75.8288
3.68164 51.2525
3.7263 26.3379
3.77094 26.738
3.81558 27.0622
3.86022 27.8748
3.90486 29.5754
3.9495 30.1249
3.99416 31.9095
4.0388 33.2832
4.08344 34.6491
4.12809 35.8111
4.17273 38.2312
4.21738 43.1488
4.26204 198.745
4.30669 174.902
4.35133 48.8494
4.39598 45.8109
4.44063 53.3453
4.4853 62.7849
4.52995 53.565
4.5746 53.7016
4.61925 55.8237
4.6639 57.4253
4.70855 60.4631
4.75322 63.6017
4.79788 67.6236
4.84253 70.6654
4.88719 75.442
4.93184 79.3599
4.97652 85.5696
5.02118 93.7539
5.06583 102.688
5.11049 118.295
5.15515 189.085
5.19981 546.261
5.24449 3528.0
5.28916 10636.0
5.33382 4269.21
5.37848 266.689
5.42315 150.242
5.46783 127.438
5.5125 116.058
5.55716 109.978
5.60183 104.97
5.6465 102.771
5.69117 100.175
5.73586 98.4301
5.78053 99.6217
5.8252 99.3725
5.86988 100.514
5.91455 104.027
5.95924 117.403
6.00392 282.089
6.0486 1224.39
6.09328 3718.29
6.13795 3602.89
6.18263 366.389
6.22733 108.039
6.27201 90.0615
6.3167 101.396
6.36138 82.4666
6.40606 73.4595
6.45075 71.0668
6.49545 68.343
6.54014 66.6216
6.58483 65.7159
6.62952 65.8683
6.67421 87.9694
6.71892 126.167
6.76361 68.7748
6.8083 61.2054
6.853 59.8709
6.89769 59.0626
6.94239 58.6387
6.98711 57.8308
7.03181 57.7847
7.07651 57.1454
7.12121 57.4
7.16591 57.5968
7.21063 57.6618
7.25533 68.6023
7.30004 150.863
7.34475 85.2886
7.38945 57.9521
7.43416 56.326
7.47889 56.135
7.5236 56.8875
7.56831 57.491
7.61303 58.7392
7.65774 59.0208
7.70247 58.4806
7.74719 58.5322
7.79191 58.9047
7.83663 59.3779
7.88135 59.9496
7.92607 61.4231
7.97081 61.9828
8.01553 63.8067
8.06026 65.0749
8.10498 66.7015
8.14971 74.7032
8.19446 74.4123
8.23919 72.6086
8.28392 75.4236
8.32865 77.8206
8.37339 82.5503
8.41812 90.1614
8.46288 116.833
8.50761 199.335
8.55235 495.664
8.59709 1097.45
8.64183 2001.19
8.68658 1239.68
8.73134 230.892
8.77609 110.281
8.82083 99.2456
8.86558 95.6552
8.91033 94.6348
8.9551 95.1105
8.99985 89.1361
9.04461 87.732
9.08936 87.1412
9.13412 86.1387
9.17888 85.856
9.22365 86.4279
9.26841 85.8864
9.31318 87.3909
9.35794 87.5819
9.4027 87.5205
9.44749 87.8239
9.49226 88.5603
9.53703 89.8535
9.5818 91.6689
9.62657 96.1598
9.67134 101.175
9.71614 97.6983
9.76091 98.9683
9.80569 101.82
9.85047 105.353
9.89525 125.187
9.94005 139.398
9.98484 208.705
10.0296 439.38
10.0744 800.777
10.1192 1482.55
10.164 1729.83
10.2088 598.564
10.2536 153.691
10.2984 120.897
10.3432 119.134
10.388 111.176
10.4328 130.936
10.4776 188.684
10.5224 279.762
10.5672 461.072
10.612 546.393
10.6568 265.094
10.7017 109.489
10.7465 91.7219
10.7913 87.723
10.8361 85.0311
10.8809 82.6877
10.9257 81.6477
10.9706 81.9718
11.0154 78.002
11.0602 76.1712
11.105 75.0779
11.1499 77.7341
11.1947 83.2681
11.2395 76.3761
11.2844 72.6397
11.3292 70.0003
11.374 69.1078
11.4189 68.5692
11.4637 67.7416
11.5086 68.0449
11.5534 70.248
11.5983 67.7865
11.6431 66.4276
11.688 65.4877
11.7328 65.4024
11.7777 65.3961
11.8225 65.1633
11.8674 65.2314
11.9122 65.5471
11.9571 66.0008
12.002 66.8577
12.0468 72.3047
12.0917 88.0652
12.1366 108.237
12.1814 144.146
12.2263 193.41
12.2712 187.719
12.3161 113.595
12.3609 74.6959
12.4058 67.5819
12.4507 67.2562
12.4956 67.3807
12.5405 67.5177
12.5853 68.2791
12.6302 74.1216
12.6751 78.9517
12.72 72.3373
12.7649 70.8397
12.8098 71.419
12.8547 72.8912
12.8996 74.2583
12.9445 75.7085
12.9894 77.2511
13.0343 79.3371
13.0792 82.9692
13.1242 94.8731
13.1691 128.135
13.214 167.099
13.2589 229.53
13.3038 331.034
13.3487 424.917
13.3937 321.252
13.4386 151.84
13.4835 117.402
13.5285 138.82
13.5734 169.768
13.6183 229.95
13.6633 316.984
13.7082 357.682
13.7531 233.237
13.7981 113.504
13.843 87.0889
13.888 83.7365
13.9329 80.9135
13.9779 79.4204
14.0228 78.0423
14.0678 76.4122
14.1127 75.6923
14.1577 75.5301
14.2027 74.5919
14.2476 73.5958
14.2926 73.6692
14.3376 74.41
14.3825 73.2593
14.4275 71.939
14.4725 71.8545
14.5175 71.9118
14.5624 72.2101
14.6074 73.7527
14.6524 74.4879
14.6974 73.6286
14.7424 75.7786
14.7874 85.2285
14.8324 99.4698
14.8774 116.416
14.9224 146.423
14.9674 189.967
15.0124 218.821
15.0574 176.529
15.1024 106.322
15.1474 77.5468
15.1924 74.0316
15.2374 73.8539
15.2824 72.9449
15.3274 71.1444
15.3725 69.8058
15.4175 69.3524
15.4625 68.9266
15.5076 68.943
15.5526 69.0458
15.5976 68.8188
15.6426 70.1953
15.6877 77.7811
15.7327 88.9376
15.7778 100.772
15.8228 122.307
15.8679 155.491
15.9129 187.939
15.958 174.356
16.003 115.547
16.0481 74.2872
16.0931 67.637
16.1382 65.2463
16.1833 63.2939
16.2283 61.7368
16.2734 60.9206
16.3185 60.914
16.3636 61.3933
16.4086 60.0754
16.4537 58.7446
16.4988 58.0317
16.5439 58.0443
16.589 57.6626
16.6341 57.2195
16.6792 56.7237
16.7243 57.1902
16.7694 57.2666
16.8145 57.0404
16.8596 57.6202
16.9047 58.7002
16.9498 58.9522
16.9949 58.0027
17.04 58.3999
17.0851 60.089
17.1302 62.1734
17.1754 64.8619
17.2205 68.7166
17.2656 74.2704
17.3108 82.2802
17.3559 85.4123
17.401 77.4667
17.4462 67.3675
17.4913 62.2951
17.5365 61.7412
17.5815 61.8817
17.6268 62.2661
17.6718 62.9876
17.7171 63.5855
17.7622 64.0042
17.8074 64.769
17.8525 67.6869
17.8977 73.2478
17.9428 80.0551
17.9881 86.577
18.0331 98.6301
18.0784 115.581
18.1237 136.12
18.1688 141.733
18.214 119.036
18.2591 94.4909
18.3044 91.0505
18.3495 97.8543
18.3948 106.657
18.4399 103.223
18.4852 85.8563
18.5303 70.9872
18.5756 65.6053
18.6207 64.3541
18.666 63.2515
18.7112 62.3811
18.7565 61.7327
18.8016 61.3678
18.8469 60.5812
18.892 60.3967
18.9374 59.9147
18.9825 59.3902
19.0278 59.4848
19.073 59.4843
19.1183 60.2587
19.1635 61.415
19.2088 62.5951
19.254 64.4436
19.2993 67.3548
19.3447 72.3666
19.3898 77.0797
19.4352 76.4079
19.4804 68.9705
19.5257 60.8365
19.5709 57.0531
19.6163 56.3089
19.6615 56.2824
19.7068 55.6222
19.752 55.5922
19.7974 55.9202
19.8426 56.9684
19.888 58.1195
19.9332 59.2369
19.9786 60.7581
20.0238 63.5038
20.0692 67.9379
20.1144 71.8057
20.1598 72.452
20.205 68.0826
20.2504 64.6247
20.2957 64.7491
20.3411 66.458
20.3863 66.9596
20.4318 62.3955
20.477 57.3236
20.5224 54.0121
20.5677 53.2403
20.6131 52.5083
20.6586 51.8132
20.7038 51.6773
20.7493 51.2324
20.7945 51.1089
20.84 50.9199
20.8853 50.933
20.9307 50.7244
20.976 51.1394
21.0215 50.9304
21.0668 51.1316
21.1122 51.5516
21.1575 52.0438
21.203 52.5229
21.2483 53.4036
21.2938 53.6536
21.3391 52.7241
21.3846 51.5558
21.4299 50.7592
21.4754 50.6161
21.5207 50.6309
21.5662 51.0104
21.6116 51.3743
21.6571 52.4811
21.7024 53.7018
21.7479 54.9941
21.7933 56.9445
21.8388 59.9105
21.8843 63.1842
21.9297 66.2982
21.9752 66.8754
22.0206 63.5786
22.0661 59.3753
22.1115 57.8182
22.157 58.1092
22.2024 57.2772
22.248 54.745
22.2933 52.7833
22.3389 51.3289
22.3843 51.2561
22.4299 51.1147
22.4753 50.9984
22.5208 50.7785
22.5662 50.6609
22.6118 50.7428
22.6572 51.1033
22.7028 51.5667
22.7483 52.149
22.7939 52.7091
22.8393 53.9838
22.8849 55.351
22.9303 57.1534
22.9759 59.0813
23.0214 59.5786
23.067 57.9549
23.1126 54.5055
23.1581 51.9234
23.2037 51.1697
23.2492 51.2423
23.2948 51.1532
23.3403 51.5816
23.3859 52.4638
23.4314 52.8599
23.477 54.1045
23.5225 55.7165
23.5682 57.6234
23.6137 59.4667
23.6593 58.5386
23.7048 55.2043
23.7505 51.5211
23.796 49.0876
23.8417 48.2172
23.8872 47.6276
23.9329 47.1287
23.9784 46.9154
24.0241 46.7482
24.0697 46.4608
24.1154 46.0464
24.1609 46.0608
24.2066 45.7348
24.2522 45.5782
24.2979 45.3345
24.3434 45.1458
24.3892 45.0667
24.4349 44.9531
24.4805 44.7976
24.5262 44.8358
24.5718 44.729
24.6175 44.8124
24.6631 44.7374
24.7089 44.4671
24.7545 44.3543
24.8002 44.1016
24.8458 44.026
24.8916 43.9907
24.9372 43.9361
24.983 44.3553
25.0286 44.6076
25.0744 45.2134
25.12 45.4604
25.1658 46.1298
25.2114 46.2699
25.2572 46.4913
25.3029 46.4609
25.3487 46.4258
25.3943 46.3839
25.4402 45.748
25.4858 44.7774
25.5316 43.6426
25.5773 42.7616
25.6231 42.7133
25.669 42.1567
25.7147 42.291
25.7605 42.2895
25.8062 42.3703
25.8521 42.3324
25.8977 42.328
25.9436 42.4619
25.9893 42.5946
26.0352 42.8737
26.0809 43.125
26.1268 43.4075
26.1725 43.2767
26.2184 42.7956
26.2641 42.1717
26.31 41.9503
26.3557 41.989
26.4017 41.9008
26.4474 42.0636
26.4933 42.3538
26.5391 42.7847
26.585 43.0762
26.6308 43.5374
26.6767 43.7888
26.7225 43.6532
26.7684 43.4287
26.8142 42.7756
26.8601 42.2608
26.9059 41.863
26.9519 41.3109
26.9979 41.0601
27.0437 40.5999
27.0896 40.5398
27.1354 40.3705
27.1814 40.2896
27.2272 40.1844
27.2732 40.0933
27.3191 40.0001
27.3651 40.1268
27.4109 40.0707
27.4569 39.9775
27.5027 40.0333
27.5488 40.1215
27.5946 40.0472
27.6407 39.9171
27.6865 39.8145
27.7326 39.5928
27.7784 39.5689
27.8245 39.3516
27.8703 39.5654
27.9164 39.897
27.9623 39.8086
28.0084 40.1657
28.0543 40.4847
28.1003 40.3798
28.1462 40.4293
28.1923 40.1766
28.2384 39.6819
28.2843 39.2307
28.3304 38.9275
28.3764 38.5063
28.4225 38.0764
28.4684 37.8498
28.5145 37.4454
28.5605 37.4612
28.6066 37.3432
28.6526 37.1667
28.6987 37.209
28.7447 37.0868
28.7908 36.8705
28.8368 36.7987
28.8829 36.8141
28.9289 36.7245
28.9751 36.6019
29.0211 36.5156
29.0673 36.2589
29.1133 36.0205
29.1595 35.9936
29.2055 35.8165
29.2517 35.6307
29.2977 35.6899
29.3439 35.7127
29.3899 35.6577
29.4361 35.5111
29.4824 35.4142
29.5284 35.2641
29.5746 34.7954
29.6207 34.5955
29.6669 34.4442
29.713 34.3704
29.7593 34.2957
29.8053 34.3505
29.8516 34.1897
29.8977 34.2472
29.9439 33.9539
29.99 34.0048
30.0363 33.9334
30.0824 33.9399
30.1287 33.8044
30.1748 33.7637
30.2211 33.7962
30.2673 33.7272
30.3136 33.7774
30.3597 33.7127
30.406 33.6045
30.4522 33.4198
30.4985 33.4588
30.5447 33.5442
30.591 33.5323
30.6372 33.4674
30.6835 33.5292
30.7297 33.4836
30.7761 33.4378
30.8224 33.4189
30.8686 33.2656
30.915 33.0083
30.9612 32.937
31.0076 32.6447
31.0538 32.5258
31.1002 32.4598
31.1464 32.3073
31.1928 32.2862
31.2391 32.2279
31.2855 32.1759
31.3317 32.0595
31.3781 32.1709
31.4244 32.1551
31.4708 31.9969
31.5171 32.0703
31.5636 32.0401
31.6098 31.8079
31.6563 31.6785
31.7026 31.6061
31.7491 31.4548
31.7953 31.4587
31.8418 31.3817
31.8881 31.496
31.9346 31.3303
31.9809 31.2654
32.0275 31.2627
32.074 31.2244
32.1203 30.8613
32.1668 30.8325
32.2132 30.5875
32.2597 30.4703
32.306 30.5547
32.3526 30.2457
32.399 30.152
32.4455 30.0025
32.4919 30.0174
32.5385 29.9098
32.5848 29.6941
32.6314 29.7112
32.6778 29.6532
32.7244 29.4845
32.7708 29.371
32.8174 29.3846
32.8638 29.2917
32.9104 29.2694
32.9569 29.2336
33.0035 29.0451
33.0499 29.0817
33.0966 28.965
33.143 28.9501
33.1897 28.8767
33.2361 28.8295
33.2828 28.8203
33.3293 28.5269
33.3759 28.6304
33.4226 28.4522
33.4691 28.3126
33.5158 28.2193
33.5623 28.1557
33.609 27.9045
33.6555 27.7998
33.7022 27.6604
33.7487 27.6497
33.7954 27.5797
33.842 27.5353
33.8887 27.4402
33.9353 27.2835
33.982 27.2456
34.0286 27.2187
34.0753 27.0842
34.1219 27.0179
34.1687 26.8962
34.2152 26.8333
34.262 26.7598
34.3086 26.6699
34.3554 26.639
34.402 26.4495
34.4488 26.3851
34.4954 26.3752
34.5422 26.2255
34.5889 26.0814
34.6357 26.0456
34.6825 26.035
34.7292 25.9163
34.776 25.8418
34.8227 25.7525
34.8695 25.6835
34.9162 25.6053
34.9631 25.5137
35.0098 25.5741
35.0566 25.359
35.1033 25.3817
35.1502 25.2925
35.1969 25.2734
35.2438 25.1354
35.2906 25.0437
35.3375 25.0663
35.3842 25.0516
35.4311 24.9432
35.4779 24.9455
35.5248 24.8939
35.5716 24.7082
35.6185 24.7199
35.6653 24.5911
35.7123 24.472
35.759 24.4859
35.806 24.3885
35.8528 24.227
35.8998 24.2164
35.9468 24.0733
35.9936 24.0301
36.0406 23.9418
36.0874 23.9972
36.1345 23.8376
36.1813 23.8665
36.2283 23.6548
36.2752 23.6343
36.3222 23.6968
36.3691 23.5448
36.4161 23.3558
36.463 23.3407
36.5101 23.349
36.557 23.229
36.6041 23.144
36.651 23.0985
36.6981 23.0872
36.745 23.0361
36.7921 22.9192
36.839 22.7976
36.8861 22.8036
36.9331 22.6424
36.9802 22.5981
37.0272 22.5136
37.0743 22.4389
37.1213 22.4139
37.1684 22.4037
37.2154 22.2587
37.2626 22.1774
37.3098 22.1481
37.3568 22.0724
37.404 21.9809
37.451 21.9137
37.4982 21.8226
37.5452 21.7759
37.5924 21.7389
37.6395 21.7326
37.6867 21.6025
37.7337 21.4487
37.781 21.4859
37.8281 21.4373
37.8753 21.2333
37.9224 21.1632
37.9697 21.1688
38.0168 21.0637
38.064 21.0364
38.1111 20.9487
38.1584 20.8765
38.2056 20.8257
38.2529 20.7919
38.3 20.644
38.3473 20.6845
38.3945 20.5143
38.4418 20.4506
38.489 20.4647
38.5363 20.3174
38.5837 20.2305
38.6309 20.3201
38.6782 20.189
38.7254 20.083
38.7728 20.0208
38.82 19.9387
38.8674 19.9578
38.9146 19.879
38.9621 19.7182
39.0093 19.7722
39.0567 19.6825
39.104 19.5916
39.1514 19.5181
39.1987 19.4805
39.2461 19.4333
39.2934 19.4097
39.3409 19.2874
39.3882 19.2321
39.4356 19.1789
39.483 19.0908
39.5304 19.0997
39.5778 18.9995
39.6253 18.9395
39.6726 18.8394
39.7201 18.8509
39.7675 18.7931
39.815 18.6615
39.8624 18.6007
39.9099 18.6197
39.9575 18.5116
40.0049 18.452
40.0525 18.3729
40.0999 18.3457
40.1474 18.3135
40.1949 18.2404
40.2425 18.1251
40.2899 18.0905
40.3375 18.0496
40.385 17.9833
40.4326 17.9408
40.48 17.7886
40.5277 17.8334
40.5752 17.7773
40.6228 17.7092
40.6703 17.6316
40.718 17.6216
40.7655 17.5788
40.8132 17.4796
40.8607 17.4493
40.9084 17.4719
40.9559 17.3683
41.0036 17.2368
41.0512 17.2256
41.0989 17.1712
41.1465 17.1121
41.1942 17.0495
41.242 16.9704
41.2896 16.9171
41.3373 16.8634
41.3849 16.803
41.4327 16.711
41.4803 16.6599
41.5281 16.6949
41.5758 16.611
41.6236 16.5291
41.6712 16.4377
41.7191 16.4507
41.7667 16.3317
41.8146 16.3539
41.8622 16.2348
41.9101 16.2777
41.9578 16.1393
42.0057 16.1199
42.0534 16.0043
42.1013 15.9958
42.149 15.9574
42.1969 15.8641
42.2446 15.8297
42.2925 15.784
42.3403 15.7186
42.3882 15.6722
42.436 15.6356
42.4839 15.51
42.5319 15.5268
42.5797 15.5019
42.6277 15.3897
42.6755 15.4088
42.7235 15.315
42.7713 15.2559
42.8193 15.1947
42.8671 15.1565
42.9152 15.0965
42.963 15.0797
43.0111 14.9887
43.0589 14.9535
43.107 14.8305
43.1549 14.8057
43.2029 14.7731
43.2508 14.7227
43.2989 14.6968
43.3468 14.6078
43.3949 14.6446
43.4429 14.5264
43.491 14.4582
43.5389 14.3813
43.5871 14.4276
43.635 14.4049
43.6832 14.317
43.7312 14.2083
43.7793 14.1429
43.8273 14.108
43.8755 14.042
43.9237 13.9909
43.9717 14.0138
44.0199 13.9324
44.068 13.8802
44.1162 13.8408
44.1642 13.8352
44.2125 13.7531
44.2606 13.7122
44.3088 13.6363
44.3569 13.609
44.4052 13.5695
44.4533 13.5167
44.5016 13.4216
44.5497 13.4015
44.598 13.3987
44.6461 13.3152
44.6945 13.2973
44.7426 13.2586
44.791 13.1414
44.8391 13.1584
44.8875 13.095
44.9357 13.1026
44.984 13.0074
45.0322 12.9667
45.0806 12.8654
45.1288 12.8557
45.1773 12.816
45.2257 12.7963
45.2739 12.7107
45.3224 12.6932
45.3706 12.6013
45.4191 12.5665
45.4673 12.5398
45.5158 12.4796
45.5641 12.4324
45.6126 12.431
45.6609 12.3588
45.7094 12.3021
45.7577 12.2469
45.8063 12.1744
45.8546 12.2262
45.9031 12.0982
45.9515 12.1632
46.0001 12.0499
46.0484 12.0376
46.097 11.9851
46.1454 11.9278
46.194 11.8327
46.2424 11.8546
46.291 11.7527
46.3395 11.7409
46.3881 11.6644
46.4365 11.6684
46.4852 11.593
46.5337 11.5519
46.5823 11.557
46.631 11.4648
46.6795 11.453
46.7282 11.4148
46.7767 11.3858
46.8254 11.3211
46.8739 11.2616
46.9226 11.219
46.9712 11.1735
47.0199 11.1487
47.0685 11.0913
47.1173 11.0744
47.1658 11.0141
47.2146 11.0243
47.2632 10.9517
47.312 10.9189
47.3606 10.8542
47.4095 10.8013
47.4581 10.8381
47.5069 10.7273
47.5556 10.7236
47.6044 10.6748
47.6531 10.5857
47.702 10.5756
47.7507 10.5687
47.7996 10.5032
47.8483 10.4629
47.8972 10.4656
47.9461 10.4385
47.9948 10.3179
48.0438 10.3216
48.0925 10.2737
48.1415 10.2785
48.1902 10.2111
48.2392 10.1624
48.288 10.1374
48.337 10.1098
48.3858 10.0481
48.4348 10.0352
48.4837 10.0096
48.5327 9.99033
48.5815 9.919
48.6306 9.90384
48.6795 9.84933
48.7285 9.79318
48.7774 9.83057
48.8265 9.77419
48.8754 9.69825
48.9245 9.70307
48.9734 9.63558
49.0226 9.63325
49.0715 9.5923
49.1206 9.49182
49.1696 9.50385
49.2188 9.45423
49.2679 9.4195
49.3169 9.35603
49.3661 9.33707
49.4151 9.31241
49.4643 9.31697
49.5134 9.23462
49.5626 9.17174
49.6117 9.13522
49.6609 9.17485
49.71 9.07721
49.7592 9.05423
49.8083 9.01829
49.8576 8.97898
49.9067 8.92882
49.956 8.89944
50.0052 8.87602
50.0545 8.85143
50.1036 8.8276
50.153 8.79689
50.2022 8.79202
50.2515 8.66974
50.3007 8.6724
50.3501 8.65868
50.3993 8.63897
50.4487 8.57723
50.498 8.53578
50.5474 8.50718
50.5966 8.47211
50.6461 8.44273
50.6955 8.4366
50.7448 8.43232
50.7943 8.34334
50.8436 8.34812
50.8931 8.3
50.9424 8.25223
50.9919 8.23151
51.0413 8.19047
51.0908 8.17218
51.1402 8.17221
51.1897 8.08264
51.2391 8.02496
51.2887 8.03919
51.3381 7.98492
51.3877 7.97187
51.4371 7.92299
51.4867 7.89102
51.5362 7.87127
51.5858 7.81133
51.6353 7.75919
51.6849 7.76248
51.7344 7.715
51.7841 7.72724
51.8336 7.65603
51.8833 7.60859
51.9328 7.5856
51.9826 7.58324
52.0323 7.504
52.0818 7.5088
52.1316 7.47246
52.1812 7.45222
52.231 7.40754
52.2806 7.37726
52.3304 7.35571
52.38 7.29991
52.4298 7.27913
52.4794 7.20245
52.5293 7.21686
52.5789 7.21041
52.6288 7.1778
52.6785 7.11813
52.7284 7.1396
52.7781 7.0637
52.828 7.07175
52.8777 7.05502
52.9276 6.97915
52.9774 7.01053
53.0273 6.92158
53.0771 6.93518
53.1271 6.89591
53.1769 6.85749
53.2269 6.80406
53.2767 6.76445
53.3267 6.77264
53.3765 6.75584
53.4266 6.72475
53.4766 6.71984
53.5265 6.63865
53.5765 6.6104
53.6264 6.60545
53.6765 6.54544
53.7264 6.55378
53.7765 6.50671
53.8265 6.46698
53.8766 6.43067
53.9266 6.42374
53.9767 6.35764
54.0267 6.36841
54.0769 6.3184
54.1269 6.24961
54.1771 6.25144
54.2271 6.25867
54.2773 6.18736
54.3274 6.18585
54.3776 6.09425
54.4277 6.10461
54.478 6.08195
54.528 6.00578
54.5783 5.98422
54.6285 5.93296
54.6788 5.92271
54.7289 5.82268
54.7792 5.8307
54.8296 5.76648
54.8798 5.73437
54.9301 5.65963
54.9803 5.67568
55.0307 5.60817
55.0809 5.55564
55.1314 5.58888
55.1816 5.51072
55.232 5.43882
55.2823 5.42713
55.3328 5.32241
55.383 5.28764
55.4335 5.2192
55.4838 5.25478
55.5344 5.11758
55.5847 5.08898
55.6352 5.09177
55.6856 5.02755
55.7361 4.96755