File: XRD/Ni3Fe_FD0580.xy
TT I
1.27165 7.71984
1.31627 6.3683
1.36089 6.87982
1.40551 6.6894
1.45013 6.56089
1.49476 5.79262
1.53938 6.30469
1.584 5.56133
1.62863 5.53627
1.67325 5.45285
1.71787 5.17756
1.7625 4.92866
1.80712 5.0153
1.85174 4.83307
1.89636 4.69501
1.94099 4.55444
1.98562 4.88224
2.03025 4.9892
2.07487 4.77589
2.11949 4.32586
2.16411 4.80225
2.20874 9.47922
2.25338 13.551
2.298 5.64164
2.34263 5.39393
2.38725 6.01849
2.43188 5.72041
2.4765 6.88828
2.52115 6.22528
2.56577 7.52157
2.6104 8.22416
2.65503 7.93399
2.69965 8.46527
2.7443 7.75556
2.78893 8.00038
2.83356 9.12669
2.87818 8.5264
2.92281 8.7332
2.96744 9.54906
3.01209 10.2304
3.05672 11.316
3.10135 11.9351
3.14599 12.9172
3.19062 14.5284
3.23527 15.0532
3.2799 15.6041
3.32454 16.8795
3.36917 17.5768
3.4138 18.7535
3.45844 19.7018
3.50309 21.138
3.54773 21.4608
3.59237 23.652
3.637 56.4571
3.68164 40.3361
3.7263 25.4806
3.77094 26.396
3.81558 26.8078
3.86022 27.4751
3.90486 28.7656
3.9495 29.6741
3.99416 30.8253
4.0388 31.9936
4.08344 33.5242
4.12809 34.467
4.17273 36.6566
4.21738 40.1919
4.26204 141.89
4.30669 123.613
4.35133 45.485
4.39598 43.5552
4.44063 49.8031
4.4853 56.7527
4.52995 53.3488
4.5746 54.4531
4.61925 53.9171
4.6639 56.0562
4.70855 58.5672
4.75322 61.7899
4.79788 66.9744
4.84253 68.5504
4.88719 73.8229
4.93184 76.5504
4.97652 82.4669
5.02118 88.7804
5.06583 96.7973
5.11049 109.115
5.15515 163.3
5.19981 471.969
5.24449 3232.06
5.28916 12273.6
5.33382 2783.01
5.37848 198.667
5.42315 132.22
5.46783 117.625
5.5125 110.428
5.55716 103.209
5.60183 99.1333
5.6465 96.9641
5.69117 95.817
5.73586 94.2749
5.78053 96.4555
5.8252 95.4578
5.86988 97.2444
5.91455 97.4036
5.95924 108.745
6.00392 270.235
6.0486 1107.17
6.09328 4426.73
6.13795 3304.14
6.18263 242.386
6.22733 93.5595
6.27201 82.2432
6.3167 88.5371
6.36138 75.926
6.40606 69.9085
6.45075 68.7639
6.49545 65.6994
6.54014 64.3621
6.58483 63.0403
6.62952 62.3945
6.67421 77.5075
6.71892 101.087
6.76361 63.8946
6.8083 59.0178
6.853 58.5647
6.89769 56.7927
6.94239 56.9138
6.98711 55.9853
7.03181 56.0111
7.07651 55.4101
7.12121 55.0314
7.16591 55.5367
7.21063 55.3906
7.25533 62.8225
7.30004 114.857
7.34475 72.3715
7.38945 55.5311
7.43416 54.4353
7.47889 54.2543
7.5236 54.6929
7.56831 55.4896
7.61303 56.4387
7.65774 56.3709
7.70247 56.7355
7.74719 56.4308
7.79191 56.6302
7.83663 57.1596
7.88135 58.3767
7.92607 59.1667
7.97081 60.2723
8.01553 61.3509
8.06026 62.5383
8.10498 64.3917
8.14971 71.2398
8.19446 70.7036
8.23919 70.0587
8.28392 72.5911
8.32865 75.1055
8.37339 79.4395
8.41812 85.4193
8.46288 107.752
8.50761 196.721
8.55235 438.77
8.59709 1234.59
8.64183 2203.07
8.68658 929.19
8.73134 159.876
8.77609 100.164
8.82083 93.5522
8.86558 91.9826
8.91033 91.1309
8.9551 89.5248
8.99985 85.8643
9.04461 84.1003
9.08936 84.0972
9.13412 83.2563
9.17888 82.7875
9.22365 83.5336
9.26841 82.7638
9.31318 84.2911
9.35794 85.4062
9.4027 85.2174
9.44749 85.4835
9.49226 85.4578
9.53703 86.7192
9.5818 89.1739
9.62657 93.0262
9.67134 96.1418
9.71614 93.5932
9.76091 95.6164
9.80569 99.0317
9.85047 101.651
9.89525 115.786
9.94005 132.597
9.98484 208.748
10.0296 381.698
10.0744 864.69
10.1192 1716.16
10.164 1521.94
10.2088 368.467
10.2536 124.887
10.2984 111.474
10.3432 110.344
10.388 106.633
10.4328 127.486
10.4776 171.75
10.5224 300.303
10.5672 522.042
10.612 493.117
10.6568 191.69
10.7017 95.8781
10.7465 86.7281
10.7913 83.6072
10.8361 81.5145
10.8809 79.305
10.9257 78.4206
10.9706 78.6047
11.0154 75.1529
11.0602 73.2282
11.105 71.8157
11.1499 73.7393
11.1947 76.563
11.2395 71.5657
11.2844 69.4602
11.3292 67.4208
11.374 66.4919
11.4189 65.7675
11.4637 65.1653
11.5086 65.3885
11.5534 66.3211
11.5983 64.875
11.6431 64.0035
11.688 63.1992
11.7328 63.3789
11.7777 63.2417
11.8225 63.015
11.8674 62.9698
11.9122 63.1275
11.9571 63.59
12.002 65.0814
12.0468 70.7914
12.0917 82.1074
12.1366 106.783
12.1814 156.65
12.2263 201.436
12.2712 160.335
12.3161 89.1527
12.3609 67.9384
12.4058 64.8239
12.4507 64.5053
12.4956 64.9501
12.5405 65.1197
12.5853 65.5106
12.6302 69.4752
12.6751 72.7604
12.72 68.6482
12.7649 68.2288
12.8098 68.9497
12.8547 70.0259
12.8996 71.5058
12.9445 73.5067
12.9894 75.1292
13.0343 77.0338
13.0792 81.1723
13.1242 95.1418
13.1691 117.608
13.214 158.418
13.2589 252.17
13.3038 373.823
13.3487 421.36
13.3937 248.547
13.4386 121.685
13.4835 110.837
13.5285 126.792
13.5734 168.411
13.6183 256.965
13.6633 351.867
13.7082 331.661
13.7531 179.988
13.7981 96.5981
13.843 82.0838
13.888 80.3516
13.9329 77.6513
13.9779 76.4554
14.0228 74.9607
14.0678 73.5387
14.1127 73.0117
14.1577 72.7966
14.2027 71.9529
14.2476 70.8363
14.2926 71.1085
14.3376 71.0023
14.3825 70.2994
14.4275 69.4708
14.4725 69.2579
14.5175 69.3494
14.5624 69.6665
14.6074 70.9
14.6524 71.4414
14.6974 71.3414
14.7424 74.8766
14.7874 82.3255
14.8324 92.7813
14.8774 116.576
14.9224 158.901
14.9674 211.113
15.0124 216.313
15.0574 144.833
15.1024 88.7767
15.1474 72.7389
15.1924 70.7691
15.2374 70.5397
15.2824 69.3898
15.3274 68.0646
15.3725 67.323
15.4175 66.9581
15.4625 66.3824
15.5076 66.4207
15.5526 66.5973
15.5976 66.5874
15.6426 69.2031
15.6877 75.0019
15.7327 82.7226
15.7778 99.3614
15.8228 131.369
15.8679 172.87
15.9129 193.396
15.958 149.371
16.003 93.1391
16.0481 67.2775
16.0931 63.8641
16.1382 62.168
16.1833 60.6884
16.2283 59.2712
16.2734 58.5687
16.3185 58.4771
16.3636 58.6397
16.4086 57.4988
16.4537 56.462
16.4988 55.7258
16.5439 55.8874
16.589 55.5469
16.6341 55.2411
16.6792 54.8693
16.7243 55.3003
16.7694 55.1513
16.8145 54.9738
16.8596 55.4033
16.9047 56.2896
16.9498 56.5001
16.9949 55.8873
17.04 56.6731
17.0851 58.0643
17.1302 59.705
17.1754 62.6802
17.2205 68.0308
17.2656 75.3149
17.3108 82.6669
17.3559 81.7403
17.401 70.6278
17.4462 62.0558
17.4913 59.7604
17.5365 59.6343
17.5815 59.876
17.6268 60.185
17.6718 60.6923
17.7171 61.0837
17.7622 61.8655
17.8074 62.9159
17.8525 66.2377
17.8977 69.9484
17.9428 75.7063
17.9881 85.4386
18.0331 103.017
18.0784 123.959
18.1237 141.535
18.1688 132.223
18.214 102.857
18.2591 87.3571
18.3044 92.1456
18.3495 101.31
18.3948 105.958
18.4399 94.9105
18.4852 76.3721
18.5303 65.7381
18.5756 62.6187
18.6207 61.8356
18.666 60.6501
18.7112 59.9914
18.7565 59.3459
18.8016 59.0108
18.8469 58.6253
18.892 58.2571
18.9374 57.6648
18.9825 57.4912
19.0278 57.2327
19.073 57.6013
19.1183 58.0332
19.1635 58.7098
19.2088 60.1028
19.254 63.1287
19.2993 67.4775
19.3447 72.9547
19.3898 76.0006
19.4352 71.9744
19.4804 62.8012
19.5257 56.8491
19.5709 54.5025
19.6163 54.301
19.6615 54.0568
19.7068 53.8122
19.752 53.74
19.7974 54.1813
19.8426 55.0079
19.888 55.6195
19.9332 56.9053
19.9786 59.6982
20.0238 63.6378
20.0692 68.2
20.1144 70.1971
20.1598 68.208
20.205 63.8977
20.2504 62.5702
20.2957 64.0551
20.3411 65.7489
20.3863 64.1847
20.4318 57.9997
20.477 53.6813
20.5224 51.6796
20.5677 51.2133
20.6131 50.377
20.6586 49.9969
20.7038 49.8255
20.7493 49.3315
20.7945 49.3367
20.84 49.2731
20.8853 49.1771
20.9307 48.8432
20.976 49.1318
21.0215 49.1136
21.0668 49.3744
21.1122 49.9946
21.1575 50.5254
21.203 51.2101
21.2483 51.8487
21.2938 51.7543
21.3391 50.3815
21.3846 49.1837
21.4299 48.9759
21.4754 48.7811
21.5207 49.1824
21.5662 49.4837
21.6116 49.9468
21.6571 50.569
21.7024 51.5076
21.7479 53.4149
21.7933 56.2737
21.8388 59.8253
21.8843 63.3786
21.9297 65.2403
21.9752 63.2763
22.0206 59.5922
22.0661 56.7348
22.1115 56.2898
22.157 56.1779
22.2024 54.5522
22.248 51.7088
22.2933 50.0779
22.3389 49.2703
22.3843 49.2689
22.4299 49.1141
22.4753 49.0802
22.5208 48.7362
22.5662 48.8569
22.6118 49.0217
22.6572 49.3997
22.7028 49.7146
22.7483 50.2167
22.7939 50.9933
22.8393 52.8056
22.8849 54.5982
22.9303 56.5562
22.9759 58.1942
23.0214 57.3493
23.067 54.2949
23.1126 51.2397
23.1581 49.4302
23.2037 49.3196
23.2492 49.2464
23.2948 49.3506
23.3403 49.5308
23.3859 50.3683
23.4314 51.5128
23.477 53.3639
23.5225 55.2813
23.5682 57.2636
23.6137 58.0388
23.6593 55.536
23.7048 51.4776
23.7505 48.4338
23.796 46.8182
23.8417 46.367
23.8872 45.805
23.9329 45.675
23.9784 45.1522
24.0241 44.917
24.0697 44.866
24.1154 44.4914
24.1609 44.2437
24.2066 43.8901
24.2522 44.0864
24.2979 43.5933
24.3434 43.589
24.3892 43.4554
24.4349 43.4408
24.4805 43.2366
24.5262 43.4171
24.5718 43.2169
24.6175 43.2709
24.6631 43.0529
24.7089 42.8081
24.7545 42.722
24.8002 42.5419
24.8458 42.5995
24.8916 42.4326
24.9372 42.543
24.983 42.9592
25.0286 43.2725
25.0744 43.7683
25.12 44.1353
25.1658 44.7458
25.2114 44.993
25.2572 45.1252
25.3029 45.0733
25.3487 45.1323
25.3943 44.8328
25.4402 43.5028
25.4858 42.537
25.5316 41.6673
25.5773 41.1761
25.6231 41.177
25.669 40.9167
25.7147 40.73
25.7605 40.8129
25.8062 40.782
25.8521 40.9058
25.8977 40.9172
25.9436 41.1864
25.9893 41.3478
26.0352 41.8863
26.0809 41.8978
26.1268 41.9909
26.1725 41.5886
26.2184 41.0643
26.2641 40.6043
26.31 40.4032
26.3557 40.4638
26.4017 40.4925
26.4474 40.7715
26.4933 41.2737
26.5391 41.6162
26.585 41.9777
26.6308 42.3641
26.6767 42.448
26.7225 42.225
26.7684 41.7647
26.8142 41.1252
26.8601 40.6444
26.9059 40.4145
26.9519 39.8241
26.9979 39.336
27.0437 39.2524
27.0896 39.0501
27.1354 39.0895
27.1814 38.8789
27.2272 38.8277
27.2732 38.8839
27.3191 38.5018
27.3651 38.8874
27.4109 38.7194
27.4569 38.8651
27.5027 38.8869
27.5488 38.8041
27.5946 38.4201
27.6407 38.4312
27.6865 38.4499
27.7326 38.2862
27.7784 38.2405
27.8245 38.1516
27.8703 38.4296
27.9164 38.6726
27.9623 38.788
28.0084 38.9562
28.0543 39.5431
28.1003 39.3075
28.1462 38.9947
28.1923 38.644
28.2384 38.2528
28.2843 37.7987
28.3304 37.4602
28.3764 36.9561
28.4225 36.6266
28.4684 36.5541
28.5145 36.1953
28.5605 36.2137
28.6066 35.95
28.6526 35.8435
28.6987 35.8476
28.7447 35.728
28.7908 35.7065
28.8368 35.7048
28.8829 35.6907
28.9289 35.5337
28.9751 35.3701
29.0211 35.1861
29.0673 34.9527
29.1133 34.8638
29.1595 34.6311
29.2055 34.5303
29.2517 34.5905
29.2977 34.5631
29.3439 34.5428
29.3899 34.5826
29.4361 34.3804
29.4824 34.193
29.5284 33.8984
29.5746 33.5767
29.6207 33.434
29.6669 33.2808
29.713 33.1446
29.7593 33.0835
29.8053 33.1809
29.8516 33.0173
29.8977 33.0177
29.9439 32.9018
29.99 32.8205
30.0363 32.7402
30.0824 32.6961
30.1287 32.7232
30.1748 32.7347
30.2211 32.6184
30.2673 32.4731
30.3136 32.5008
30.3597 32.4824
30.406 32.4223
30.4522 32.2759
30.4985 32.2248
30.5447 32.4393
30.591 32.3966
30.6372 32.3057
30.6835 32.4053
30.7297 32.4761
30.7761 32.2672
30.8224 32.0892
30.8686 32.07
30.915 31.9071
30.9612 31.7287
31.0076 31.5584
31.0538 31.3645
31.1002 31.3111
31.1464 31.1367
31.1928 31.1486
31.2391 31.1996
31.2855 31.1585
31.3317 31.1457
31.3781 31.1768
31.4244 31.0367
31.4708 31.0481
31.5171 31.0062
31.5636 30.9783
31.6098 30.7519
31.6563 30.563
31.7026 30.4784
31.7491 30.3121
31.7953 30.3236
31.8418 30.3444
31.8881 30.4197
31.9346 30.3475
31.9809 30.2099
32.0275 30.1608
32.074 29.9147
32.1203 29.7959
32.1668 29.7385
32.2132 29.5763
32.2597 29.4655
32.306 29.4095
32.3526 29.1292
32.399 29.1446
32.4455 28.9675
32.4919 28.8997
32.5385 28.8396
32.5848 28.6978
32.6314 28.7361
32.6778 28.6779
32.7244 28.514
32.7708 28.2942
32.8174 28.4238
32.8638 28.1872
32.9104 28.2003
32.9569 28.2353
33.0035 28.1616
33.0499 28.0445
33.0966 27.9757
33.143 28.0036
33.1897 27.8458
33.2361 27.7808
33.2828 27.7773
33.3293 27.6225
33.3759 27.5815
33.4226 27.497
33.4691 27.2948
33.5158 27.1831
33.5623 27.1192
33.609 26.8744
33.6555 26.9289
33.7022 26.7797
33.7487 26.7085
33.7954 26.6212
33.842 26.5374
33.8887 26.505
33.9353 26.4114
33.982 26.3687
34.0286 26.2457
34.0753 26.1891
34.1219 26.1121
34.1687 26.0463
34.2152 25.8864
34.262 25.908
34.3086 25.6953
34.3554 25.6649
34.402 25.6242
34.4488 25.538
34.4954 25.4452
34.5422 25.3298
34.5889 25.2476
34.6357 25.1856
34.6825 25.0518
34.7292 25.0365
34.776 24.9034
34.8227 24.9293
34.8695 24.8054
34.9162 24.7991
34.9631 24.6506
35.0098 24.6242
35.0566 24.5284
35.1033 24.4405
35.1502 24.4052
35.1969 24.3818
35.2438 24.3129
35.2906 24.2822
35.3375 24.2299
35.3842 24.0899
35.4311 24.131
35.4779 24.1656
35.5248 24.0224
35.5716 24.0429
35.6185 23.9302
35.6653 23.7574
35.7123 23.6565
35.759 23.5845
35.806 23.5035
35.8528 23.3739
35.8998 23.3625
35.9468 23.2325
35.9936 23.229
36.0406 23.1319
36.0874 23.1115
36.1345 23.0376
36.1813 22.932
36.2283 22.92
36.2752 22.7668
36.3222 22.7545
36.3691 22.6873
36.4161 22.6409
36.463 22.6506
36.5101 22.5173
36.557 22.5043
36.6041 22.3598
36.651 22.3319
36.6981 22.1868
36.745 22.2052
36.7921 22.0754
36.839 22.0256
36.8861 21.9254
36.9331 21.9124
36.9802 21.8563
37.0272 21.7208
37.0743 21.6681
37.1213 21.6551
37.1684 21.5813
37.2154 21.46
37.2626 21.376
37.3098 21.2972
37.3568 21.3346
37.404 21.2191
37.451 21.1233
37.4982 21.089
37.5452 21.0624
37.5924 20.8939
37.6395 20.9622
37.6867 20.8637
37.7337 20.7767
37.781 20.6719
37.8281 20.6358
37.8753 20.5025
37.9224 20.4532
37.9697 20.3601
38.0168 20.331
38.064 20.2653
38.1111 20.2478
38.1584 20.1203
38.2056 20.1081
38.2529 20.0373
38.3 19.9691
38.3473 19.9225
38.3945 19.8694
38.4418 19.7636
38.489 19.7466
38.5363 19.5964
38.5837 19.5612
38.6309 19.5252
38.6782 19.4158
38.7254 19.4151
38.7728 19.33
38.82 19.1985
38.8674 19.2308
38.9146 19.1573
38.9621 19.1564
39.0093 19.0619
39.0567 18.9256
39.104 18.9449
39.1514 18.8648
39.1987 18.7874
39.2461 18.7241
39.2934 18.6744
39.3409 18.5303
39.3882 18.4796
39.4356 18.4273
39.483 18.5034
39.5304 18.3327
39.5778 18.3238
39.6253 18.3079
39.6726 18.239
39.7201 18.1506
39.7675 18.1199
39.815 18.045
39.8624 17.9493
39.9099 17.9465
39.9575 17.8691
40.0049 17.802
40.0525 17.7699
40.0999 17.6923
40.1474 17.6039
40.1949 17.5465
40.2425 17.5008
40.2899 17.4357
40.3375 17.4245
40.385 17.3749
40.4326 17.3274
40.48 17.1971
40.5277 17.2127
40.5752 17.201
40.6228 17.0384
40.6703 16.9805
40.718 16.9656
40.7655 16.8956
40.8132 16.8451
40.8607 16.8634
40.9084 16.7322
40.9559 16.701
41.0036 16.7047
41.0512 16.6116
41.0989 16.581
41.1465 16.4732
41.1942 16.4135
41.242 16.363
41.2896 16.2889
41.3373 16.2463
41.3849 16.2556
41.4327 16.1345
41.4803 16.0508
41.5281 16.0768
41.5758 16.0259
41.6236 15.9615
41.6712 15.8454
41.7191 15.822
41.7667 15.8282
41.8146 15.7618
41.8622 15.6406
41.9101 15.5981
41.9578 15.5622
42.0057 15.4836
42.0534 15.4558
42.1013 15.4561
42.149 15.3424
42.1969 15.3319
42.2446 15.2574
42.2925 15.2014
42.3403 15.16
42.3882 15.1144
42.436 15.0783
42.4839 14.9463
42.5319 14.9928
42.5797 14.8974
42.6277 14.8342
42.6755 14.8024
42.7235 14.7359
42.7713 14.7099
42.8193 14.6221
42.8671 14.5793
42.9152 14.4917
42.963 14.4938
43.0111 14.4547
43.0589 14.4447
43.107 14.3253
43.1549 14.321
43.2029 14.2723
43.2508 14.2475
43.2989 14.1104
43.3468 14.0823
43.3949 14.1363
43.4429 14.0036
43.491 13.9294
43.5389 13.9379
43.5871 13.882
43.635 13.8082
43.6832 13.7584
43.7312 13.7198
43.7793 13.6545
43.8273 13.6345
43.8755 13.5454
43.9237 13.5443
43.9717 13.5377
44.0199 13.4613
44.068 13.4315
44.1162 13.3493
44.1642 13.3334
44.2125 13.2677
44.2606 13.1942
44.3088 13.1631
44.3569 13.1876
44.4052 13.0846
44.4533 13.0074
44.5016 12.9709
44.5497 13.0035
44.598 12.9117
44.6461 12.8406
44.6945 12.8001
44.7426 12.7084
44.791 12.6587
44.8391 12.6451
44.8875 12.6139
44.9357 12.5882
44.984 12.5226
45.0322 12.5383
45.0806 12.4416
45.1288 12.3785
45.1773 12.3307
45.2257 12.326
45.2739 12.3051
45.3224 12.1876
45.3706 12.2155
45.4191 12.1342
45.4673 12.0774
45.5158 12.0397
45.5641 11.9818
45.6126 11.9466
45.6609 11.9413
45.7094 11.8972
45.7577 11.8457
45.8063 11.8055
45.8546 11.7633
45.9031 11.7191
45.9515 11.6621
46.0001 11.6056
46.0484 11.6064
46.097 11.5299
46.1454 11.4647
46.194 11.4964
46.2424 11.4325
46.291 11.3648
46.3395 11.3311
46.3881 11.2974
46.4365 11.288
46.4852 11.2688
46.5337 11.1378
46.5823 11.1414
46.631 11.0837
46.6795 11.0609
46.7282 11.0241
46.7767 10.9858
46.8254 10.9255
46.8739 10.9032
46.9226 10.8586
46.9712 10.8218
47.0199 10.7656
47.0685 10.7594
47.1173 10.6855
47.1658 10.6713
47.2146 10.624
47.2632 10.5474
47.312 10.5323
47.3606 10.4846
47.4095 10.4599
47.4581 10.4405
47.5069 10.3779
47.5556 10.3294
47.6044 10.2587
47.6531 10.2703
47.702 10.1909
47.7507 10.1823
47.7996 10.0963
47.8483 10.125
47.8972 10.0862
47.9461 10.035
47.9948 9.95856
48.0438 9.9686
48.0925 9.97056
48.1415 9.86902
48.1902 9.85381
48.2392 9.85479
48.288 9.79726
48.337 9.78942
48.3858 9.72735
48.4348 9.67841
48.4837 9.6373
48.5327 9.61803
48.5815 9.57877
48.6306 9.50573
48.6795 9.54906
48.7285 9.4871
48.7774 9.47177
48.8265 9.42735
48.8754 9.38392
48.9245 9.34431
48.9734 9.28922
49.0226 9.2459
49.0715 9.19965
49.1206 9.19332
49.1696 9.14136
49.2188 9.12981
49.2679 9.08552
49.3169 9.0524
49.3661 9.03178
49.4151 9.01591
49.4643 8.93816
49.5134 8.90361
49.5626 8.85929
49.6117 8.89064
49.6609 8.81683
49.71 8.77233
49.7592 8.73322
49.8083 8.68892
49.8576 8.67126
49.9067 8.62688
49.956 8.64359
50.0052 8.6132
50.0545 8.58002
50.1036 8.51221
50.153 8.49175
50.2022 8.46289
50.2515 8.42716
50.3007 8.36182
50.3501 8.32332
50.3993 8.32437
50.4487 8.27716
50.498 8.26853
50.5474 8.23702
50.5966 8.19153
50.6461 8.13638
50.6955 8.13661
50.7448 8.09329
50.7943 8.07666
50.8436 8.00146
50.8931 8.00931
50.9424 7.98186
50.9919 7.95089
51.0413 7.92346
51.0908 7.88617
51.1402 7.83287
51.1897 7.79585
51.2391 7.80369
51.2887 7.76593
51.3381 7.68872
51.3877 7.68604
51.4371 7.66403
51.4867 7.61866
51.5362 7.58422
51.5858 7.57121
51.6353 7.48424
51.6849 7.45286
51.7344 7.49057
51.7841 7.43406
51.8336 7.40892
51.8833 7.3988
51.9328 7.30402
51.9826 7.2988
52.0323 7.27139
52.0818 7.24595
52.1316 7.19576
52.1812 7.21027
52.231 7.17223
52.2806 7.14299
52.3304 7.12802
52.38 7.07871
52.4298 7.00657
52.4794 6.99067
52.5293 6.97396
52.5789 6.91186
52.6288 6.91916
52.6785 6.89234
52.7284 6.85638
52.7781 6.86183
52.828 6.80813
52.8777 6.76741
52.9276 6.71905
52.9774 6.72543
53.0273 6.69971
53.0771 6.67301
53.1271 6.64581
53.1769 6.66283
53.2269 6.58746
53.2767 6.54097
53.3267 6.53366
53.3765 6.48674
53.4266 6.48845
53.4766 6.41866
53.5265 6.42317
53.5765 6.40366
53.6264 6.38714
53.6765 6.34896
53.7264 6.29779
53.7765 6.29033
53.8265 6.26452
53.8766 6.18932
53.9266 6.18313
53.9767 6.19066
54.0267 6.13655
54.0769 6.12164
54.1269 6.09082
54.1771 6.03717
54.2271 6.06147
54.2773 5.9586
54.3274 5.97097
54.3776 5.95048
54.4277 5.89667
54.478 5.87132
54.528 5.87379
54.5783 5.80523
54.6285 5.70622
54.6788 5.73427
54.7289 5.69767
54.7792 5.64029
54.8296 5.54962
54.8798 5.52604
54.9301 5.50193
54.9803 5.48201
55.0307 5.47576
55.0809 5.39002
55.1314 5.37233
55.1816 5.30702
55.232 5.27183
55.2823 5.2678
55.3328 5.20328
55.383 5.16988
55.4335 5.04288
55.4838 5.02769
55.5344 4.97621
55.5847 4.94709
55.6352 4.89803
55.6856 4.85252
55.7361 4.82325