File: XRD/Ni3Fe_FD0506.xy
TT I
1.27165 7.65447
1.31627 7.09034
1.36089 6.67476
1.40551 6.11819
1.45013 6.22699
1.49476 5.66704
1.53938 6.05524
1.584 5.24451
1.62863 5.45882
1.67325 5.18107
1.71787 4.88213
1.7625 4.79402
1.80712 4.74091
1.85174 4.70953
1.89636 4.80219
1.94099 5.3495
1.98562 4.41966
2.03025 4.21292
2.07487 4.7338
2.11949 5.09355
2.16411 5.5464
2.20874 14.2371
2.25338 22.5271
2.298 5.34422
2.34263 5.3066
2.38725 5.35882
2.43188 5.9768
2.4765 6.32541
2.52115 6.81986
2.56577 7.3094
2.6104 7.13969
2.65503 7.39158
2.69965 7.90157
2.7443 7.83658
2.78893 7.43964
2.83356 8.45602
2.87818 8.5496
2.92281 8.98356
2.96744 9.4314
3.01209 10.4348
3.05672 11.6184
3.10135 12.0133
3.14599 12.6043
3.19062 14.5994
3.23527 15.1439
3.2799 15.8361
3.32454 16.3525
3.36917 18.2056
3.4138 18.519
3.45844 19.5575
3.50309 21.0358
3.54773 22.016
3.59237 24.2013
3.637 93.7093
3.68164 58.9365
3.7263 26.5372
3.77094 26.3937
3.81558 27.0909
3.86022 27.9421
3.90486 29.376
3.9495 29.9156
3.99416 31.5861
4.0388 32.3819
4.08344 33.8263
4.12809 35.4859
4.17273 37.5859
4.21738 44.3922
4.26204 251.848
4.30669 216.184
4.35133 48.9654
4.39598 45.0279
4.44063 54.8196
4.4853 65.7512
4.52995 51.5221
4.5746 51.6099
4.61925 53.8905
4.6639 56.0115
4.70855 58.9256
4.75322 61.9972
4.79788 64.4431
4.84253 68.4027
4.88719 72.2213
4.93184 76.0581
4.97652 82.0371
5.02118 88.2724
5.06583 96.5453
5.11049 108.809
5.15515 181.012
5.19981 394.776
5.24449 3037.73
5.28916 12043.3
5.33382 3275.05
5.37848 204.641
5.42315 133.936
5.46783 116.484
5.5125 108.258
5.55716 104.1
5.60183 100.548
5.6465 98.9892
5.69117 96.0481
5.73586 93.3501
5.78053 93.1647
5.8252 93.1187
5.86988 93.2327
5.91455 97.0275
5.95924 105.093
6.00392 221.342
6.0486 1018.14
6.09328 4168.1
6.13795 3433.44
6.18263 295.704
6.22733 97.3658
6.27201 85.1308
6.3167 104.214
6.36138 82.1543
6.40606 70.0927
6.45075 68.4011
6.49545 66.6331
6.54014 64.6116
6.58483 63.8937
6.62952 63.6869
6.67421 95.9481
6.71892 145.45
6.76361 69.3791
6.8083 59.5054
6.853 58.1492
6.89769 57.8224
6.94239 57.1883
6.98711 56.7225
7.03181 56.3098
7.07651 56.2148
7.12121 56.0343
7.16591 55.9414
7.21063 56.5344
7.25533 71.4866
7.30004 179.879
7.34475 91.9215
7.38945 57.2683
7.43416 55.538
7.47889 55.4201
7.5236 55.4995
7.56831 56.5246
7.61303 57.8833
7.65774 58.0262
7.70247 56.9745
7.74719 56.8729
7.79191 57.5382
7.83663 57.7484
7.88135 58.5072
7.92607 59.4375
7.97081 60.733
8.01553 61.7229
8.06026 62.985
8.10498 64.8657
8.14971 74.4894
8.19446 73.0294
8.23919 70.0838
8.28392 73.1004
8.32865 75.1315
8.37339 79.2754
8.41812 86.6561
8.46288 115.86
8.50761 170.048
8.55235 405.695
8.59709 1166.57
8.64183 2149.46
8.68658 1063.7
8.73134 179.506
8.77609 102.74
8.82083 94.5421
8.86558 91.1049
8.91033 91.3963
8.9551 93.1215
8.99985 86.4935
9.04461 84.8099
9.08936 83.9352
9.13412 83.1484
9.17888 83.0749
9.22365 84.028
9.26841 83.2464
9.31318 83.5451
9.35794 84.057
9.4027 84.2845
9.44749 84.9825
9.49226 85.6189
9.53703 86.7769
9.5818 88.5868
9.62657 93.1416
9.67134 100.017
9.71614 94.8229
9.76091 95.5859
9.80569 97.5053
9.85047 101.044
9.89525 125.958
9.94005 138.241
9.98484 181.723
10.0296 358.514
10.0744 814.349
10.1192 1647.37
10.164 1617.94
10.2088 444.308
10.2536 134.959
10.2984 115.906
10.3432 116.649
10.388 106.479
10.4328 120.563
10.4776 164.205
10.5224 284.031
10.5672 494.767
10.612 508.088
10.6568 224.574
10.7017 99.9206
10.7465 88.2037
10.7913 84.3968
10.8361 81.8532
10.8809 79.9709
10.9257 79.4171
10.9706 80.0809
11.0154 75.5619
11.0602 73.8108
11.105 72.5364
11.1499 77.2293
11.1947 84.4491
11.2395 75.2955
11.2844 71.373
11.3292 68.6417
11.374 66.8031
11.4189 66.373
11.4637 65.9411
11.5086 66.4648
11.5534 69.3224
11.5983 66.2033
11.6431 64.6792
11.688 63.706
11.7328 63.8163
11.7777 63.745
11.8225 63.3009
11.8674 63.0935
11.9122 63.5065
11.9571 63.7869
12.002 64.5017
12.0468 68.7874
12.0917 81.0089
12.1366 105.726
12.1814 154.551
12.2263 200.826
12.2712 170.979
12.3161 101.962
12.3609 72.0831
12.4058 65.7346
12.4507 65.2339
12.4956 65.058
12.5405 65.45
12.5853 66.4162
12.6302 74.3828
12.6751 79.7322
12.72 70.9224
12.7649 68.9
12.8098 69.2441
12.8547 70.8691
12.8996 71.8199
12.9445 72.8996
12.9894 75.1133
13.0343 76.5906
13.0792 79.8438
13.1242 89.6044
13.1691 114.759
13.214 152.42
13.2589 237.916
13.3038 361.536
13.3487 424.396
13.3937 277.896
13.4386 131.362
13.4835 107.943
13.5285 123.597
13.5734 161.24
13.6183 244.8
13.6633 334.073
13.7082 338.744
13.7531 201.386
13.7981 103.061
13.843 83.3735
13.888 80.6062
13.9329 78.1343
13.9779 76.938
14.0228 75.3438
14.0678 73.9772
14.1127 73.5814
14.1577 73.4473
14.2027 72.576
14.2476 71.5076
14.2926 71.5953
14.3376 72.8307
14.3825 71.1177
14.4275 69.7641
14.4725 69.6469
14.5175 69.6509
14.5624 69.9845
14.6074 72.1194
14.6524 72.6821
14.6974 71.5846
14.7424 73.0342
14.7874 79.9136
14.8324 90.8816
14.8774 112.141
14.9224 152.609
14.9674 200.33
15.0124 214.815
15.0574 155.018
15.1024 95.1845
15.1474 73.7638
15.1924 71.4131
15.2374 72.2124
15.2824 71.3434
15.3274 69.3585
15.3725 67.6292
15.4175 67.6138
15.4625 66.8883
15.5076 67.2886
15.5526 67.0218
15.5976 66.4975
15.6426 67.5889
15.6877 73.3355
15.7327 81.5057
15.7778 96.3783
15.8228 126.369
15.8679 166.783
15.9129 189.629
15.958 159.889
16.003 102.565
16.0481 70.2512
16.0931 65.9135
16.1382 63.8124
16.1833 61.7436
16.2283 59.754
16.2734 59.3516
16.3185 59.6297
16.3636 60.2689
16.4086 58.619
16.4537 57.085
16.4988 56.2673
16.5439 56.2648
16.589 56.0083
16.6341 55.6427
16.6792 55.2552
16.7243 55.4644
16.7694 55.892
16.8145 55.6052
16.8596 56.0126
16.9047 57.6424
16.9498 57.7819
16.9949 56.4315
17.04 56.5656
17.0851 57.8447
17.1302 59.5828
17.1754 62.5082
17.2205 67.3944
17.2656 74.6444
17.3108 81.7214
17.3559 82.4384
17.401 72.588
17.4462 63.5629
17.4913 59.955
17.5365 59.9331
17.5815 60.1397
17.6268 60.4124
17.6718 61.1256
17.7171 61.9175
17.7622 62.067
17.8074 62.6007
17.8525 64.9925
17.8977 69.3001
17.9428 74.7866
17.9881 83.5566
18.0331 99.7678
18.0784 119.882
18.1237 137.4
18.1688 133.809
18.214 107.556
18.2591 88.847
18.3044 91.1822
18.3495 100.065
18.3948 105.524
18.4399 98.7701
18.4852 80.6638
18.5303 67.6916
18.5756 63.0254
18.6207 62.0096
18.666 61.1299
18.7112 60.4332
18.7565 59.7096
18.8016 59.4737
18.8469 58.9306
18.892 58.4585
18.9374 58.1934
18.9825 57.8665
19.0278 57.7796
19.073 57.775
19.1183 58.1641
19.1635 59.3288
19.2088 60.4784
19.254 62.9758
19.2993 66.8878
19.3447 72.9172
19.3898 76.5606
19.4352 73.395
19.4804 64.8351
19.5257 57.9617
19.5709 55.2859
19.6163 54.6806
19.6615 54.5245
19.7068 53.9652
19.752 54.0028
19.7974 54.3786
19.8426 55.2578
19.888 55.8757
19.9332 57.292
19.9786 59.4169
20.0238 63.2005
20.0692 67.1489
20.1144 70.0328
20.1598 69.1651
20.205 64.8418
20.2504 63.0407
20.2957 64.2165
20.3411 65.6676
20.3863 65.0235
20.4318 59.6864
20.477 54.9438
20.5224 52.5002
20.5677 51.8793
20.6131 51.1363
20.6586 50.2152
20.7038 50.2376
20.7493 49.7492
20.7945 49.618
20.84 49.6004
20.8853 49.4114
20.9307 49.1273
20.976 49.5823
21.0215 49.2842
21.0668 49.6017
21.1122 50.1166
21.1575 50.83
21.203 51.3935
21.2483 51.8617
21.2938 52.0982
21.3391 51.0266
21.3846 49.741
21.4299 49.1495
21.4754 48.9521
21.5207 49.2968
21.5662 49.4113
21.6116 49.8786
21.6571 50.7432
21.7024 51.5824
21.7479 53.3429
21.7933 55.9136
21.8388 59.1527
21.8843 62.5706
21.9297 64.7759
21.9752 64.2318
22.0206 60.8607
22.0661 57.6836
22.1115 56.5979
22.157 56.6731
22.2024 55.1942
22.248 52.4828
22.2933 50.8296
22.3389 49.8613
22.3843 49.8129
22.4299 49.6477
22.4753 49.5254
22.5208 49.3239
22.5662 49.1885
22.6118 49.3832
22.6572 49.5918
22.7028 50.08
22.7483 50.3817
22.7939 51.2117
22.8393 52.5598
22.8849 54.4997
22.9303 56.6173
22.9759 58.173
23.0214 57.9655
23.067 55.4836
23.1126 52.0563
23.1581 49.9524
23.2037 49.5876
23.2492 49.5487
23.2948 49.4029
23.3403 49.6814
23.3859 50.4741
23.4314 51.3168
23.477 53.096
23.5225 54.8926
23.5682 56.9045
23.6137 58.1822
23.6593 56.4909
23.7048 52.6877
23.7505 49.2679
23.796 47.3599
23.8417 46.8293
23.8872 46.2411
23.9329 45.9477
23.9784 45.5701
24.0241 45.3027
24.0697 45.0048
24.1154 44.7949
24.1609 44.5772
24.2066 44.4974
24.2522 44.2623
24.2979 44.1113
24.3434 43.8535
24.3892 43.7404
24.4349 43.5495
24.4805 43.4987
24.5262 43.6071
24.5718 43.4651
24.6175 43.4084
24.6631 43.4416
24.7089 43.0599
24.7545 42.9099
24.8002 42.7229
24.8458 42.8396
24.8916 42.5135
24.9372 42.6323
24.983 43.1584
25.0286 43.4509
25.0744 43.9167
25.12 44.3378
25.1658 44.7879
25.2114 45.2224
25.2572 45.2925
25.3029 45.31
25.3487 45.4003
25.3943 45.2899
25.4402 44.3236
25.4858 43.1119
25.5316 42.1337
25.5773 41.5518
25.6231 41.5303
25.669 41.1487
25.7147 41.1017
25.7605 41.0768
25.8062 41.1705
25.8521 41.1602
25.8977 41.1309
25.9436 41.4112
25.9893 41.4789
26.0352 42.1058
26.0809 41.9442
26.1268 42.173
26.1725 41.9417
26.2184 41.3999
26.2641 40.8609
26.31 40.6696
26.3557 40.5823
26.4017 40.6127
26.4474 40.9942
26.4933 41.2565
26.5391 41.7016
26.585 42.2048
26.6308 42.4551
26.6767 42.6615
26.7225 42.5382
26.7684 42.0162
26.8142 41.4829
26.8601 40.8527
26.9059 40.6814
26.9519 40.1116
26.9979 39.7661
27.0437 39.4464
27.0896 39.3358
27.1354 39.2954
27.1814 39.041
27.2272 39.1058
27.2732 39.1043
27.3191 38.9475
27.3651 39.0182
27.4109 38.8482
27.4569 39.0168
27.5027 38.9913
27.5488 39.0491
27.5946 38.9636
27.6407 38.7668
27.6865 38.5233
27.7326 38.5197
27.7784 38.4568
27.8245 38.3207
27.8703 38.5912
27.9164 38.8551
27.9623 38.8431
28.0084 39.1846
28.0543 39.5458
28.1003 39.501
28.1462 39.3544
28.1923 39.0254
28.2384 38.455
28.2843 38.0406
28.3304 37.6833
28.3764 37.229
28.4225 36.8961
28.4684 36.6887
28.5145 36.483
28.5605 36.3019
28.6066 36.1111
28.6526 36.065
28.6987 36.0831
28.7447 35.9622
28.7908 35.9212
28.8368 35.9842
28.8829 35.8288
28.9289 35.8035
28.9751 35.6922
29.0211 35.4132
29.0673 35.1368
29.1133 35.0238
29.1595 34.8263
29.2055 34.7677
29.2517 34.7687
29.2977 34.8047
29.3439 34.7082
29.3899 34.7948
29.4361 34.5837
29.4824 34.3849
29.5284 34.2785
29.5746 33.8598
29.6207 33.5162
29.6669 33.5283
29.713 33.4027
29.7593 33.3475
29.8053 33.4053
29.8516 33.2336
29.8977 33.2443
29.9439 33.0545
29.99 33.0885
30.0363 32.8697
30.0824 32.9071
30.1287 32.8573
30.1748 32.8896
30.2211 32.8069
30.2673 32.7588
30.3136 32.7716
30.3597 32.7154
30.406 32.6011
30.4522 32.5332
30.4985 32.3819
30.5447 32.639
30.591 32.5807
30.6372 32.6817
30.6835 32.599
30.7297 32.5961
30.7761 32.617
30.8224 32.4045
30.8686 32.2986
30.915 32.085
30.9612 32.0017
31.0076 31.8175
31.0538 31.5671
31.1002 31.5671
31.1464 31.3831
31.1928 31.3354
31.2391 31.4546
31.2855 31.2618
31.3317 31.2213
31.3781 31.3304
31.4244 31.3031
31.4708 31.2007
31.5171 31.1527
31.5636 31.0878
31.6098 31.012
31.6563 30.7357
31.7026 30.6997
31.7491 30.5348
31.7953 30.6076
31.8418 30.5202
31.8881 30.4762
31.9346 30.5526
31.9809 30.4336
32.0275 30.3138
32.074 30.163
32.1203 30.0186
32.1668 29.8699
32.2132 29.7674
32.2597 29.6793
32.306 29.5111
32.3526 29.3554
32.399 29.2673
32.4455 29.2244
32.4919 29.0597
32.5385 29.0911
32.5848 28.8454
32.6314 28.8467
32.6778 28.8551
32.7244 28.6803
32.7708 28.5463
32.8174 28.6273
32.8638 28.4026
32.9104 28.4577
32.9569 28.4028
33.0035 28.1796
33.0499 28.2136
33.0966 28.1689
33.143 28.2362
33.1897 28.0449
33.2361 27.9833
33.2828 27.9534
33.3293 27.6918
33.3759 27.7983
33.4226 27.6475
33.4691 27.4277
33.5158 27.5113
33.5623 27.2787
33.609 27.0647
33.6555 26.9596
33.7022 27.0486
33.7487 26.8607
33.7954 26.9321
33.842 26.7292
33.8887 26.6586
33.9353 26.6112
33.982 26.4282
34.0286 26.3745
34.0753 26.3298
34.1219 26.2903
34.1687 26.2029
34.2152 26.0474
34.262 25.9216
34.3086 25.8844
34.3554 25.9164
34.402 25.7332
34.4488 25.6989
34.4954 25.5888
34.5422 25.5263
34.5889 25.3533
34.6357 25.3366
34.6825 25.2953
34.7292 25.1477
34.776 25.1119
34.8227 25.036
34.8695 24.9575
34.9162 24.9363
34.9631 24.7594
35.0098 24.7213
35.0566 24.6906
35.1033 24.5942
35.1502 24.5679
35.1969 24.5346
35.2438 24.5292
35.2906 24.3512
35.3375 24.3173
35.3842 24.2293
35.4311 24.3808
35.4779 24.2155
35.5248 24.2661
35.5716 24.0332
35.6185 23.9706
35.6653 23.8615
35.7123 23.8265
35.759 23.801
35.806 23.65
35.8528 23.5347
35.8998 23.4757
35.9468 23.3601
35.9936 23.3818
36.0406 23.353
36.0874 23.328
36.1345 23.1667
36.1813 23.1327
36.2283 22.978
36.2752 22.9416
36.3222 22.8676
36.3691 22.8272
36.4161 22.6818
36.463 22.7636
36.5101 22.6543
36.557 22.7011
36.6041 22.4897
36.651 22.5109
36.6981 22.4392
36.745 22.3605
36.7921 22.2536
36.839 22.2102
36.8861 22.1199
36.9331 21.9348
36.9802 21.9364
37.0272 21.8645
37.0743 21.7614
37.1213 21.6895
37.1684 21.6507
37.2154 21.6377
37.2626 21.5045
37.3098 21.4704
37.3568 21.4211
37.404 21.3434
37.451 21.2789
37.4982 21.2817
37.5452 21.1309
37.5924 21.0466
37.6395 21.0517
37.6867 20.9781
37.7337 20.904
37.781 20.7407
37.8281 20.8422
37.8753 20.6502
37.9224 20.677
37.9697 20.5558
38.0168 20.4136
38.064 20.4074
38.1111 20.3343
38.1584 20.3519
38.2056 20.2822
38.2529 20.1862
38.3 20.0887
38.3473 20.0284
38.3945 19.973
38.4418 19.9234
38.489 19.8832
38.5363 19.7804
38.5837 19.7556
38.6309 19.695
38.6782 19.5234
38.7254 19.5099
38.7728 19.4903
38.82 19.4091
38.8674 19.3245
38.9146 19.2466
38.9621 19.1818
39.0093 19.1317
39.0567 19.1081
39.104 19.0566
39.1514 18.9632
39.1987 18.9683
39.2461 18.8446
39.2934 18.8567
39.3409 18.6705
39.3882 18.6143
39.4356 18.6057
39.483 18.5145
39.5304 18.4647
39.5778 18.4563
39.6253 18.454
39.6726 18.3346
39.7201 18.2855
39.7675 18.2331
39.815 18.184
39.8624 18.0976
39.9099 18.0462
39.9575 17.9899
40.0049 17.9211
40.0525 17.8628
40.0999 17.8463
40.1474 17.7567
40.1949 17.7073
40.2425 17.6019
40.2899 17.6049
40.3375 17.5288
40.385 17.4702
40.4326 17.4429
40.48 17.3716
40.5277 17.3804
40.5752 17.244
40.6228 17.1726
40.6703 17.1514
40.718 17.1002
40.7655 17.0851
40.8132 17.0045
40.8607 16.9768
40.9084 16.8793
40.9559 16.8349
41.0036 16.8022
41.0512 16.7491
41.0989 16.668
41.1465 16.5876
41.1942 16.6254
41.242 16.5065
41.2896 16.3856
41.3373 16.3847
41.3849 16.38
41.4327 16.2292
41.4803 16.204
41.5281 16.1789
41.5758 16.0683
41.6236 16.0246
41.6712 16.0061
41.7191 15.9705
41.7667 15.9215
41.8146 15.8418
41.8622 15.7656
41.9101 15.7051
41.9578 15.6033
42.0057 15.6222
42.0534 15.5713
42.1013 15.5044
42.149 15.48
42.1969 15.4016
42.2446 15.3855
42.2925 15.2923
42.3403 15.3001
42.3882 15.276
42.436 15.1673
42.4839 15.1278
42.5319 15.0751
42.5797 15.0242
42.6277 14.9694
42.6755 14.9332
42.7235 14.8486
42.7713 14.7967
42.8193 14.7575
42.8671 14.7001
42.9152 14.6832
42.963 14.5935
43.0111 14.5468
43.0589 14.4889
43.107 14.4112
43.1549 14.4253
43.2029 14.3311
43.2508 14.3472
43.2989 14.2475
43.3468 14.1743
43.3949 14.145
43.4429 14.1434
43.491 14.0446
43.5389 14.0237
43.5871 13.9744
43.635 13.8944
43.6832 13.9477
43.7312 13.8491
43.7793 13.7704
43.8273 13.7069
43.8755 13.6315
43.9237 13.6636
43.9717 13.6241
44.0199 13.5425
44.068 13.4971
44.1162 13.4407
44.1642 13.4771
44.2125 13.3084
44.2606 13.3081
44.3088 13.2586
44.3569 13.2393
44.4052 13.1986
44.4533 13.0939
44.5016 13.0588
44.5497 13.0421
44.598 12.9935
44.6461 12.9594
44.6945 12.9096
44.7426 12.8583
44.791 12.776
44.8391 12.7631
44.8875 12.7159
44.9357 12.634
44.984 12.689
45.0322 12.6141
45.0806 12.4936
45.1288 12.5187
45.1773 12.4448
45.2257 12.3952
45.2739 12.3613
45.3224 12.3769
45.3706 12.2893
45.4191 12.2442
45.4673 12.2424
45.5158 12.1653
45.5641 12.1001
45.6126 12.0623
45.6609 12.0177
45.7094 11.9592
45.7577 11.9137
45.8063 11.8434
45.8546 11.8825
45.9031 11.7904
45.9515 11.773
46.0001 11.7114
46.0484 11.6603
46.097 11.6388
46.1454 11.5939
46.194 11.5569
46.2424 11.4681
46.291 11.4206
46.3395 11.4729
46.3881 11.3558
46.4365 11.3751
46.4852 11.3455
46.5337 11.2578
46.5823 11.216
46.631 11.1703
46.6795 11.1434
46.7282 11.1236
46.7767 11.0332
46.8254 10.9939
46.8739 10.9963
46.9226 10.8968
46.9712 10.902
47.0199 10.8433
47.0685 10.7612
47.1173 10.7379
47.1658 10.6947
47.2146 10.6889
47.2632 10.6321
47.312 10.6281
47.3606 10.4936
47.4095 10.5547
47.4581 10.478
47.5069 10.413
47.5556 10.4031
47.6044 10.3416
47.6531 10.3442
47.702 10.3086
47.7507 10.2641
47.7996 10.2137
47.8483 10.2208
47.8972 10.1577
47.9461 10.1262
47.9948 10.0761
48.0438 10.0361
48.0925 10.0042
48.1415 9.97276
48.1902 9.923
48.2392 9.89676
48.288 9.88376
48.337 9.7873
48.3858 9.75206
48.4348 9.76383
48.4837 9.75808
48.5327 9.69116
48.5815 9.65894
48.6306 9.64348
48.6795 9.59002
48.7285 9.53905
48.7774 9.53943
48.8265 9.46702
48.8754 9.42958
48.9245 9.44793
48.9734 9.35808
49.0226 9.39699
49.0715 9.29089
49.1206 9.28038
49.1696 9.21389
49.2188 9.1771
49.2679 9.14777
49.3169 9.07775
49.3661 9.10135
49.4151 9.04832
49.4643 8.99288
49.5134 9.00772
49.5626 8.92881
49.6117 8.92298
49.6609 8.90053
49.71 8.85603
49.7592 8.81211
49.8083 8.76952
49.8576 8.7676
49.9067 8.69498
49.956 8.6827
50.0052 8.65684
50.0545 8.62824
50.1036 8.6091
50.153 8.51666
50.2022 8.54747
50.2515 8.45145
50.3007 8.42046
50.3501 8.41241
50.3993 8.37556
50.4487 8.33728
50.498 8.32736
50.5474 8.27717
50.5966 8.27308
50.6461 8.20333
50.6955 8.18806
50.7448 8.17107
50.7943 8.12099
50.8436 8.10864
50.8931 8.10274
50.9424 8.00513
50.9919 7.98297
51.0413 7.93931
51.0908 7.94244
51.1402 7.90029
51.1897 7.88109
51.2391 7.88665
51.2887 7.7942
51.3381 7.78489
51.3877 7.75642
51.4371 7.68485
51.4867 7.69824
51.5362 7.64289
51.5858 7.59533
51.6353 7.57022
51.6849 7.54445
51.7344 7.53552
51.7841 7.52152
51.8336 7.48808
51.8833 7.46516
51.9328 7.37587
51.9826 7.36226
52.0323 7.34159
52.0818 7.27509
52.1316 7.2896
52.1812 7.26041
52.231 7.21834
52.2806 7.19035
52.3304 7.16738
52.38 7.10718
52.4298 7.09554
52.4794 7.06614
52.5293 7.05628
52.5789 7.00104
52.6288 6.99998
52.6785 6.90292
52.7284 6.93967
52.7781 6.91296
52.828 6.84309
52.8777 6.81358
52.9276 6.80553
52.9774 6.81675
53.0273 6.78831
53.0771 6.77533
53.1271 6.72543
53.1769 6.7028
53.2269 6.67376
53.2767 6.6071
53.3267 6.61797
53.3765 6.5892
53.4266 6.53001
53.4766 6.49257
53.5265 6.47342
53.5765 6.47344
53.6264 6.42219
53.6765 6.38421
53.7264 6.32987
53.7765 6.3506
53.8265 6.27822
53.8766 6.28239
53.9266 6.18698
53.9767 6.23253
54.0267 6.23593
54.0769 6.16933
54.1269 6.12617
54.1771 6.09681
54.2271 6.11485
54.2773 6.02886
54.3274 6.02352
54.3776 5.9556
54.4277 5.95839
54.478 5.90271
54.528 5.91188
54.5783 5.83762
54.6285 5.8163
54.6788 5.76405
54.7289 5.67066
54.7792 5.6535
54.8296 5.64246
54.8798 5.58182
54.9301 5.54552
54.9803 5.53754
55.0307 5.53337
55.0809 5.44331
55.1314 5.44911
55.1816 5.36233
55.232 5.29424
55.2823 5.26269
55.3328 5.20589
55.383 5.14722
55.4335 5.11476
55.4838 5.07174
55.5344 5.05354
55.5847 5.01308
55.6352 4.95403
55.6856 4.98624
55.7361 4.85514