File: XRD/Ni3Fe_FD0159.xy
TT I
1.27165 7.86272
1.31627 6.85784
1.36089 7.35274
1.40551 7.7698
1.45013 6.17587
1.49476 5.94855
1.53938 6.24983
1.584 5.4938
1.62863 5.57223
1.67325 5.75611
1.71787 5.4772
1.7625 4.78356
1.80712 5.14662
1.85174 5.42557
1.89636 5.43477
1.94099 5.3039
1.98562 5.1943
2.03025 4.576
2.07487 4.59012
2.11949 5.16613
2.16411 4.95223
2.20874 4.50222
2.25338 4.2953
2.298 4.84768
2.34263 4.73596
2.38725 4.19382
2.43188 3.77849
2.4765 4.80307
2.52115 4.10712
2.56577 4.56664
2.6104 5.4662
2.65503 4.66076
2.69965 6.21748
2.7443 6.077
2.78893 6.65505
2.83356 7.13516
2.87818 8.44531
2.92281 8.79529
2.96744 8.91767
3.01209 10.8773
3.05672 11.6336
3.10135 11.7294
3.14599 13.1507
3.19062 14.1297
3.23527 15.1696
3.2799 15.8464
3.32454 16.1756
3.36917 17.5698
3.4138 18.7215
3.45844 19.2257
3.50309 20.3497
3.54773 20.989
3.59237 21.7106
3.637 22.4354
3.68164 23.1738
3.7263 25.0172
3.77094 24.8941
3.81558 25.5846
3.86022 26.2878
3.90486 28.1025
3.9495 28.6289
3.99416 29.4698
4.0388 30.5162
4.08344 32.2393
4.12809 32.8665
4.17273 33.8621
4.21738 35.8367
4.26204 36.6162
4.30669 38.0059
4.35133 39.772
4.39598 41.3341
4.44063 43.1532
4.4853 44.8073
4.52995 47.1503
4.5746 49.4049
4.61925 51.4705
4.6639 54.1413
4.70855 56.2921
4.75322 59.6475
4.79788 62.4339
4.84253 66.1665
4.88719 70.0651
4.93184 75.5409
4.97652 82.5796
5.02118 91.1116
5.06583 100.894
5.11049 116.852
5.15515 153.685
5.19981 538.407
5.24449 3753.67
5.28916 8521.04
5.33382 6394.76
5.37848 438.423
5.42315 161.906
5.46783 127.159
5.5125 113.913
5.55716 107.554
5.60183 101.304
5.6465 98.8059
5.69117 97.6361
5.73586 95.522
5.78053 95.0931
5.8252 95.3306
5.86988 98.127
5.91455 105.035
5.95924 123.46
6.00392 285.468
6.0486 1382.4
6.09328 2778.26
6.13795 4083.64
6.18263 701.512
6.22733 121.083
6.27201 88.6884
6.3167 78.1585
6.36138 72.6794
6.40606 68.2176
6.45075 66.793
6.49545 64.2407
6.54014 62.4109
6.58483 61.0156
6.62952 59.7153
6.67421 58.4627
6.71892 57.8835
6.76361 56.696
6.8083 55.5833
6.853 55.2427
6.89769 54.4549
6.94239 54.1989
6.98711 53.4094
7.03181 53.3614
7.07651 52.7338
7.12121 52.5776
7.16591 52.352
7.21063 51.779
7.25533 51.9726
7.30004 51.8502
7.34475 52.4448
7.38945 52.5255
7.43416 52.0773
7.47889 51.8306
7.5236 56.2821
7.56831 63.1393
7.61303 55.5195
7.65774 53.0105
7.70247 54.1976
7.74719 54.2801
7.79191 55.1095
7.83663 54.9811
7.88135 56.1023
7.92607 57.2177
7.97081 58.4429
8.01553 59.1073
8.06026 60.4868
8.10498 61.8028
8.14971 63.8856
8.19446 65.5208
8.23919 67.9502
8.28392 71.0736
8.32865 73.316
8.37339 78.0799
8.41812 83.8983
8.46288 95.393
8.50761 172.201
8.55235 599.721
8.59709 896.766
8.64183 1502.96
8.68658 1610.96
8.73134 410.816
8.77609 116.024
8.82083 97.5325
8.86558 91.2313
8.91033 87.5578
8.9551 85.5347
8.99985 83.8609
9.04461 82.8126
9.08936 82.1451
9.13412 81.6223
9.17888 81.6981
9.22365 86.6958
9.26841 96.5264
9.31318 86.3082
9.35794 82.1784
9.4027 82.2237
9.44749 82.9685
9.49226 83.3643
9.53703 84.3068
9.5818 86.3238
9.62657 87.0344
9.67134 88.51
9.71614 90.6279
9.76091 92.838
9.80569 95.6075
9.85047 98.5758
9.89525 103.958
9.94005 113.958
9.98484 184.357
10.0296 541.864
10.0744 738.992
10.1192 1049.86
10.164 1683.75
10.2088 970.919
10.2536 214.08
10.2984 116.264
10.3432 107.567
10.388 104.568
10.4328 121.029
10.4776 214.485
10.5224 262.883
10.5672 336.357
10.612 497.364
10.6568 370.431
10.7017 134.025
10.7465 90.6867
10.7913 83.5763
10.8361 80.8206
10.8809 77.9109
10.9257 75.7787
10.9706 74.6777
11.0154 72.5527
11.0602 71.5812
11.105 70.2664
11.1499 68.8564
11.1947 67.8896
11.2395 66.8243
11.2844 66.4055
11.3292 65.0784
11.374 64.2795
11.4189 64.2135
11.4637 63.6846
11.5086 62.8162
11.5534 62.4682
11.5983 62.1484
11.6431 62.0837
11.688 61.7048
11.7328 61.5281
11.7777 61.1276
11.8225 60.9343
11.8674 61.417
11.9122 62.5989
11.9571 65.6495
12.002 65.065
12.0468 67.6255
12.0917 90.2321
12.1366 107.763
12.1814 118.737
12.2263 151.622
12.2712 190.046
12.3161 136.479
12.3609 74.401
12.4058 64.096
12.4507 63.4812
12.4956 63.2731
12.5405 63.2067
12.5853 63.6933
12.6302 63.7674
12.6751 64.5389
12.72 65.3135
12.7649 66.044
12.8098 66.9997
12.8547 68.3933
12.8996 69.6581
12.9445 71.0785
12.9894 73.2935
13.0343 75.1892
13.0792 78.9581
13.1242 86.3511
13.1691 132.525
13.214 186.459
13.2589 206.648
13.3038 247.918
13.3487 353.231
13.3937 382.665
13.4386 207.861
13.4835 118.735
13.5285 153.5
13.5734 181.9
13.6183 193.608
13.6633 240.257
13.7082 334.476
13.7531 305.931
13.7981 152.236
13.843 88.0496
13.888 80.7355
13.9329 77.6562
13.9779 76.0034
14.0228 74.5268
14.0678 72.9624
14.1127 72.8065
14.1577 74.1986
14.2027 72.6376
14.2476 70.3812
14.2926 69.5183
14.3376 68.9963
14.3825 68.6332
14.4275 68.3455
14.4725 68.4275
14.5175 68.4678
14.5624 68.3624
14.6074 68.5843
14.6524 69.3008
14.6974 69.7162
14.7424 71.5208
14.7874 80.2736
14.8324 107.072
14.8774 121.002
14.9224 127.798
14.9674 150.02
15.0124 193.941
15.0574 205.304
15.1024 138.234
15.1474 81.9497
15.1924 71.1086
15.2374 68.9741
15.2824 67.9486
15.3274 67.2469
15.3725 66.3101
15.4175 66.358
15.4625 65.7253
15.5076 65.2233
15.5526 65.4011
15.5976 65.7313
15.6426 66.4003
15.6877 73.6936
15.7327 94.949
15.7778 107.614
15.8228 111.366
15.8679 126.131
15.9129 156.648
15.958 186.144
16.003 150.351
16.0481 88.4242
16.0931 66.2298
16.1382 61.7768
16.1833 60.159
16.2283 58.9044
16.2734 58.1754
16.3185 57.4371
16.3636 56.6556
16.4086 55.8719
16.4537 55.6272
16.4988 55.0
16.5439 55.0198
16.589 54.7912
16.6341 54.5822
16.6792 53.8762
16.7243 54.3368
16.7694 54.0509
16.8145 54.2773
16.8596 54.1843
16.9047 54.557
16.9498 54.8066
16.9949 54.9511
17.04 55.37
17.0851 56.9052
17.1302 61.0103
17.1754 64.1826
17.2205 65.3877
17.2656 67.3888
17.3108 72.803
17.3559 79.6568
17.401 80.8344
17.4462 71.1517
17.4913 61.4733
17.5365 59.2519
17.5815 59.0774
17.6268 59.1238
17.6718 59.8876
17.7171 60.1897
17.7622 61.3027
17.8074 62.3245
17.8525 63.9088
17.8977 71.9774
17.9428 83.8346
17.9881 88.363
18.0331 91.624
18.0784 99.0566
18.1237 115.897
18.1688 141.457
18.214 141.87
18.2591 110.769
18.3044 88.7714
18.3495 87.1599
18.3948 95.6725
18.4399 103.285
18.4852 94.705
18.5303 75.823
18.5756 64.957
18.6207 62.0677
18.666 60.8931
18.7112 60.2566
18.7565 59.2093
18.8016 58.8723
18.8469 58.3805
18.892 57.8622
18.9374 57.1938
18.9825 56.9933
19.0278 56.7573
19.073 56.7761
19.1183 57.2342
19.1635 59.7719
19.2088 61.8671
19.254 62.5819
19.2993 63.1865
19.3447 65.4898
19.3898 69.2838
19.4352 74.2806
19.4804 72.1662
19.5257 63.696
19.5709 56.3885
19.6163 54.4421
19.6615 53.9086
19.7068 53.5217
19.752 53.3546
19.7974 53.341
19.8426 54.8618
19.888 56.9489
19.9332 58.338
19.9786 58.846
20.0238 59.4086
20.0692 62.0894
20.1144 67.1014
20.1598 72.5562
20.205 71.06
20.2504 65.2871
20.2957 61.3362
20.3411 62.0141
20.3863 64.7792
20.4318 64.3776
20.477 59.1983
20.5224 53.3327
20.5677 50.9253
20.6131 50.3645
20.6586 49.7597
20.7038 49.7205
20.7493 49.2618
20.7945 49.2332
20.84 49.3144
20.8853 49.0649
20.9307 48.6528
20.976 48.876
21.0215 48.9273
21.0668 49.4149
21.1122 49.6686
21.1575 49.5407
21.203 49.9103
21.2483 50.4254
21.2938 51.473
21.3391 51.4481
21.3846 50.5171
21.4299 49.3703
21.4754 48.7603
21.5207 48.9451
21.5662 49.1449
21.6116 49.5802
21.6571 51.3174
21.7024 53.116
21.7479 54.2331
21.7933 54.6178
21.8388 56.0562
21.8843 58.7486
21.9297 62.2065
21.9752 66.0635
22.0206 65.8409
22.0661 60.7821
22.1115 56.3769
22.157 55.681
22.2024 56.451
22.248 55.0391
22.2933 52.456
22.3389 50.231
22.3843 49.1589
22.4299 48.7214
22.4753 48.8872
22.5208 48.8421
22.5662 48.8144
22.6118 48.9366
22.6572 49.1376
22.7028 50.3273
22.7483 51.5181
22.7939 52.0422
22.8393 52.4046
22.8849 52.5927
22.9303 53.4181
22.9759 55.1837
23.0214 57.4294
23.067 58.255
23.1126 56.0863
23.1581 52.2679
23.2037 49.8884
23.2492 49.3528
23.2948 49.7059
23.3403 51.1427
23.3859 51.8078
23.4314 51.8143
23.477 52.0779
23.5225 52.3875
23.5682 53.8248
23.6137 56.0017
23.6593 57.9094
23.7048 57.1837
23.7505 53.2892
23.796 49.1501
23.8417 46.9394
23.8872 46.1774
23.9329 45.7534
23.9784 45.3831
24.0241 45.0911
24.0697 44.7735
24.1154 44.4072
24.1609 44.217
24.2066 43.995
24.2522 44.0298
24.2979 43.567
24.3434 43.6917
24.3892 43.5549
24.4349 43.1895
24.4805 43.0027
24.5262 43.2926
24.5718 42.8956
24.6175 43.0921
24.6631 43.1776
24.7089 43.0695
24.7545 42.7309
24.8002 42.6819
24.8458 42.4732
24.8916 42.5495
24.9372 42.6617
24.983 43.0053
25.0286 42.9063
25.0744 43.6094
25.12 44.0835
25.1658 44.4264
25.2114 44.7852
25.2572 45.155
25.3029 45.0035
25.3487 44.86
25.3943 45.0657
25.4402 45.0182
25.4858 44.7212
25.5316 43.0794
25.5773 41.8181
25.6231 41.371
25.669 40.9087
25.7147 40.8744
25.7605 40.8481
25.8062 41.0649
25.8521 41.1429
25.8977 41.1174
25.9436 41.1458
25.9893 40.9423
26.0352 41.2327
26.0809 41.1744
26.1268 41.7344
26.1725 42.1944
26.2184 42.2366
26.2641 41.6047
26.31 41.0022
26.3557 40.9998
26.4017 40.8088
26.4474 40.9503
26.4933 41.1121
26.5391 41.2674
26.585 41.6165
26.6308 41.7507
26.6767 42.1879
26.7225 42.7444
26.7684 42.906
26.8142 41.9408
26.8601 41.3723
26.9059 40.968
26.9519 40.4394
26.9979 40.089
27.0437 39.4873
27.0896 39.3366
27.1354 39.2996
27.1814 39.0545
27.2272 39.0334
27.2732 39.0969
27.3191 38.8994
27.3651 38.6983
27.4109 38.7128
27.4569 38.7913
27.5027 38.7193
27.5488 38.8381
27.5946 38.9598
27.6407 38.7799
27.6865 38.8201
27.7326 38.7087
27.7784 38.649
27.8245 38.5826
27.8703 38.4233
27.9164 38.6422
27.9623 38.7067
28.0084 38.7547
28.0543 39.0083
28.1003 39.318
28.1462 39.5168
28.1923 39.419
28.2384 38.9344
28.2843 38.4579
28.3304 38.0065
28.3764 37.6504
28.4225 37.2108
28.4684 36.8716
28.5145 36.2878
28.5605 36.2616
28.6066 36.0277
28.6526 36.0826
28.6987 35.9686
28.7447 35.8639
28.7908 35.6209
28.8368 35.6146
28.8829 35.5639
28.9289 35.5345
28.9751 35.5279
29.0211 35.4445
29.0673 35.2592
29.1133 35.1001
29.1595 35.0263
29.2055 34.5781
29.2517 34.5929
29.2977 34.4956
29.3439 34.4065
29.3899 34.4621
29.4361 34.4136
29.4824 34.3799
29.5284 34.3206
29.5746 33.8997
29.6207 33.7832
29.6669 33.4003
29.713 33.1766
29.7593 33.1394
29.8053 33.1942
29.8516 33.1036
29.8977 33.2432
29.9439 32.8586
29.99 32.8042
30.0363 32.7604
30.0824 32.7606
30.1287 32.6329
30.1748 32.7481
30.2211 32.6111
30.2673 32.5057
30.3136 32.71
30.3597 32.7559
30.406 32.5611
30.4522 32.5186
30.4985 32.383
30.5447 32.5247
30.591 32.3554
30.6372 32.3482
30.6835 32.398
30.7297 32.4555
30.7761 32.6293
30.8224 32.3478
30.8686 32.3312
30.915 32.1852
30.9612 31.8858
31.0076 31.8572
31.0538 31.6575
31.1002 31.6156
31.1464 31.4035
31.1928 31.3064
31.2391 31.295
31.2855 31.2781
31.3317 31.1514
31.3781 31.1335
31.4244 31.1224
31.4708 31.0062
31.5171 31.1419
31.5636 31.154
31.6098 31.0747
31.6563 30.8764
31.7026 30.8219
31.7491 30.648
31.7953 30.6543
31.8418 30.4844
31.8881 30.3544
31.9346 30.3007
31.9809 30.3774
32.0275 30.3376
32.074 30.2569
32.1203 30.0981
32.1668 30.0695
32.2132 29.8177
32.2597 29.5714
32.306 29.6092
32.3526 29.3295
32.399 29.324
32.4455 29.0481
32.4919 28.9814
32.5385 28.8334
32.5848 28.6853
32.6314 28.8502
32.6778 28.7117
32.7244 28.5438
32.7708 28.4603
32.8174 28.3603
32.8638 28.3473
32.9104 28.4192
32.9569 28.3175
33.0035 28.1341
33.0499 28.178
33.0966 28.0044
33.143 28.0914
33.1897 27.9746
33.2361 27.8918
33.2828 27.9458
33.3293 27.7237
33.3759 27.7737
33.4226 27.6811
33.4691 27.4431
33.5158 27.3798
33.5623 27.2682
33.609 27.0678
33.6555 26.9278
33.7022 26.8843
33.7487 26.7282
33.7954 26.7484
33.842 26.6594
33.8887 26.5277
33.9353 26.5317
33.982 26.3536
34.0286 26.3483
34.0753 26.3431
34.1219 26.1484
34.1687 26.1655
34.2152 25.9827
34.262 25.9046
34.3086 25.7817
34.3554 25.708
34.402 25.7006
34.4488 25.5558
34.4954 25.5319
34.5422 25.4117
34.5889 25.2686
34.6357 25.1961
34.6825 25.1597
34.7292 25.092
34.776 24.9479
34.8227 24.9346
34.8695 24.8249
34.9162 24.7677
34.9631 24.6872
35.0098 24.6933
35.0566 24.5887
35.1033 24.5036
35.1502 24.4828
35.1969 24.4474
35.2438 24.3536
35.2906 24.3196
35.3375 24.1948
35.3842 24.1807
35.4311 24.146
35.4779 24.1053
35.5248 24.088
35.5716 24.0568
35.6185 23.9945
35.6653 23.8702
35.7123 23.7871
35.759 23.7016
35.806 23.5866
35.8528 23.4993
35.8998 23.4171
35.9468 23.3643
35.9936 23.3507
36.0406 23.1463
36.0874 23.2054
36.1345 23.0838
36.1813 23.0354
36.2283 23.0128
36.2752 22.9148
36.3222 22.8844
36.3691 22.8318
36.4161 22.6517
36.463 22.6668
36.5101 22.6607
36.557 22.5699
36.6041 22.4248
36.651 22.4455
36.6981 22.3414
36.745 22.184
36.7921 22.241
36.839 22.0848
36.8861 22.0967
36.9331 22.0342
36.9802 21.8167
37.0272 21.7858
37.0743 21.7401
37.1213 21.7042
37.1684 21.7089
37.2154 21.5657
37.2626 21.4949
37.3098 21.4337
37.3568 21.3495
37.404 21.2919
37.451 21.2106
37.4982 21.1355
37.5452 21.0986
37.5924 21.0456
37.6395 21.0018
37.6867 20.8976
37.7337 20.8104
37.781 20.8211
37.8281 20.7044
37.8753 20.6775
37.9224 20.5221
37.9697 20.4112
38.0168 20.4049
38.064 20.3014
38.1111 20.2699
38.1584 20.213
38.2056 20.1617
38.2529 20.1345
38.3 20.0251
38.3473 20.0443
38.3945 19.8418
38.4418 19.7854
38.489 19.7795
38.5363 19.6245
38.5837 19.7048
38.6309 19.5795
38.6782 19.5409
38.7254 19.4873
38.7728 19.3789
38.82 19.2599
38.8674 19.2859
38.9146 19.2587
38.9621 19.1259
39.0093 19.1027
39.0567 19.0656
39.104 19.0006
39.1514 18.8513
39.1987 18.7716
39.2461 18.8452
39.2934 18.7199
39.3409 18.6398
39.3882 18.5594
39.4356 18.5488
39.483 18.498
39.5304 18.3743
39.5778 18.4325
39.6253 18.3272
39.6726 18.2597
39.7201 18.2265
39.7675 18.1386
39.815 18.1239
39.8624 18.0122
39.9099 18.0499
39.9575 17.9425
40.0049 17.898
40.0525 17.7843
40.0999 17.7744
40.1474 17.668
40.1949 17.6567
40.2425 17.5945
40.2899 17.5526
40.3375 17.4134
40.385 17.4347
40.4326 17.3848
40.48 17.2948
40.5277 17.2226
40.5752 17.1798
40.6228 17.1461
40.6703 17.0443
40.718 16.9916
40.7655 16.9513
40.8132 16.8688
40.8607 16.9079
40.9084 16.8551
40.9559 16.8072
41.0036 16.7363
41.0512 16.7083
41.0989 16.5995
41.1465 16.5799
41.1942 16.5188
41.242 16.4277
41.2896 16.4033
41.3373 16.2892
41.3849 16.2454
41.4327 16.2362
41.4803 16.1292
41.5281 16.0865
41.5758 16.0199
41.6236 16.014
41.6712 15.9291
41.7191 15.8812
41.7667 15.8198
41.8146 15.8233
41.8622 15.7253
41.9101 15.7029
41.9578 15.5625
42.0057 15.5777
42.0534 15.5072
42.1013 15.4825
42.149 15.3598
42.1969 15.3668
42.2446 15.3631
42.2925 15.3397
42.3403 15.2004
42.3882 15.184
42.436 15.1186
42.4839 15.032
42.5319 15.03
42.5797 14.9712
42.6277 14.8825
42.6755 14.8241
42.7235 14.7916
42.7713 14.8095
42.8193 14.7084
42.8671 14.6516
42.9152 14.6033
42.963 14.5657
43.0111 14.4479
43.0589 14.4827
43.107 14.3907
43.1549 14.3295
43.2029 14.2841
43.2508 14.2465
43.2989 14.233
43.3468 14.1103
43.3949 14.0679
43.4429 14.0423
43.491 13.9474
43.5389 13.9263
43.5871 13.9241
43.635 13.8412
43.6832 13.8305
43.7312 13.778
43.7793 13.7159
43.8273 13.6714
43.8755 13.612
43.9237 13.596
43.9717 13.5944
44.0199 13.5017
44.068 13.4246
44.1162 13.346
44.1642 13.3766
44.2125 13.3635
44.2606 13.2545
44.3088 13.2157
44.3569 13.156
44.4052 13.1591
44.4533 13.0499
44.5016 13.058
44.5497 12.9975
44.598 12.9548
44.6461 12.9005
44.6945 12.8811
44.7426 12.7984
44.791 12.7113
44.8391 12.74
44.8875 12.6775
44.9357 12.6343
44.984 12.567
45.0322 12.4954
45.0806 12.5128
45.1288 12.4938
45.1773 12.3971
45.2257 12.374
45.2739 12.2833
45.3224 12.2729
45.3706 12.2256
45.4191 12.1332
45.4673 12.1628
45.5158 12.0788
45.5641 12.0889
45.6126 11.9523
45.6609 11.9579
45.7094 11.9341
45.7577 11.8996
45.8063 11.7799
45.8546 11.8093
45.9031 11.7525
45.9515 11.7208
46.0001 11.6783
46.0484 11.585
46.097 11.6218
46.1454 11.5397
46.194 11.5274
46.2424 11.4548
46.291 11.406
46.3395 11.4235
46.3881 11.3054
46.4365 11.3057
46.4852 11.3305
46.5337 11.2081
46.5823 11.1893
46.631 11.142
46.6795 11.0762
46.7282 11.0216
46.7767 11.0312
46.8254 10.94
46.8739 10.9227
46.9226 10.8908
46.9712 10.8604
47.0199 10.7878
47.0685 10.7733
47.1173 10.7075
47.1658 10.6721
47.2146 10.673
47.2632 10.6088
47.312 10.5568
47.3606 10.534
47.4095 10.4409
47.4581 10.4643
47.5069 10.4257
47.5556 10.3558
47.6044 10.288
47.6531 10.301
47.702 10.2432
47.7507 10.2443
47.7996 10.1939
47.8483 10.1376
47.8972 10.1106
47.9461 10.0917
47.9948 10.0534
48.0438 9.96526
48.0925 9.97105
48.1415 9.95367
48.1902 9.92195
48.2392 9.88558
48.288 9.8351
48.337 9.77272
48.3858 9.75448
48.4348 9.73108
48.4837 9.68439
48.5327 9.67712
48.5815 9.62124
48.6306 9.60019
48.6795 9.57484
48.7285 9.49246
48.7774 9.44423
48.8265 9.44106
48.8754 9.39649
48.9245 9.39539
48.9734 9.33932
49.0226 9.30703
49.0715 9.2785
49.1206 9.24395
49.1696 9.21028
49.2188 9.17
49.2679 9.118
49.3169 9.1397
49.3661 9.06052
49.4151 9.02596
49.4643 8.98144
49.5134 8.97877
49.5626 8.89921
49.6117 8.86307
49.6609 8.8524
49.71 8.78727
49.7592 8.75312
49.8083 8.73469
49.8576 8.69313
49.9067 8.66103
49.956 8.669
50.0052 8.59002
50.0545 8.57841
50.1036 8.53988
50.153 8.54765
50.2022 8.48222
50.2515 8.41963
50.3007 8.46752
50.3501 8.38513
50.3993 8.3651
50.4487 8.31974
50.498 8.27719
50.5474 8.23393
50.5966 8.22505
50.6461 8.18525
50.6955 8.17602
50.7448 8.1358
50.7943 8.09273
50.8436 8.07787
50.8931 8.02839
50.9424 8.01605
50.9919 7.95628
51.0413 7.94102
51.0908 7.93156
51.1402 7.87377
51.1897 7.85065
51.2391 7.83
51.2887 7.80902
51.3381 7.74396
51.3877 7.72212
51.4371 7.69344
51.4867 7.65159
51.5362 7.60908
51.5858 7.63261
51.6353 7.56923
51.6849 7.50554
51.7344 7.47741
51.7841 7.49364
51.8336 7.41388
51.8833 7.39283
51.9328 7.36013
51.9826 7.35537
52.0323 7.29314
52.0818 7.26815
52.1316 7.22732
52.1812 7.24357
52.231 7.14809
52.2806 7.18209
52.3304 7.11503
52.38 7.13804
52.4298 7.04973
52.4794 7.04771
52.5293 7.0034
52.5789 7.01629
52.6288 6.9496
52.6785 6.95056
52.7284 6.92921
52.7781 6.88939
52.828 6.85541
52.8777 6.81477
52.9276 6.79988
52.9774 6.75895
53.0273 6.77518
53.0771 6.7085
53.1271 6.69309
53.1769 6.64443
53.2269 6.62378
53.2767 6.5809
53.3267 6.59926
53.3765 6.525
53.4266 6.50066
53.4766 6.49436
53.5265 6.41434
53.5765 6.42
53.6264 6.40328
53.6765 6.38415
53.7264 6.31304
53.7765 6.33404
53.8265 6.29478
53.8766 6.25643
53.9266 6.21375
53.9767 6.22427
54.0267 6.18412
54.0769 6.14541
54.1269 6.05707
54.1771 6.06715
54.2271 6.01725
54.2773 5.99133
54.3274 5.99456
54.3776 5.89615
54.4277 5.90397
54.478 5.88096
54.528 5.83678
54.5783 5.77257
54.6285 5.68024
54.6788 5.65541
54.7289 5.61283
54.7792 5.62874
54.8296 5.53683
54.8798 5.50548
54.9301 5.43745
54.9803 5.43391
55.0307 5.43841
55.0809 5.35468
55.1314 5.33895
55.1816 5.244
55.232 5.20996
55.2823 5.21157
55.3328 5.1176
55.383 5.04526
55.4335 5.00592
55.4838 4.98029
55.5344 4.94626
55.5847 4.87897
55.6352 4.886
55.6856 4.81972
55.7361 4.78144