File: XRD/Ni3Fe_FD0780.xy
TT I
1.27165 7.1262
1.31627 6.86658
1.36089 6.70449
1.40551 5.97421
1.45013 6.54255
1.49476 6.15688
1.53938 5.11873
1.584 5.07533
1.62863 4.92807
1.67325 5.08098
1.71787 5.08311
1.7625 5.23252
1.80712 5.0971
1.85174 4.97074
1.89636 5.05814
1.94099 4.78589
1.98562 4.70518
2.03025 4.48422
2.07487 4.82656
2.11949 4.81163
2.16411 5.38014
2.20874 12.6628
2.25338 19.9097
2.298 6.08342
2.34263 5.89161
2.38725 6.00655
2.43188 5.92881
2.4765 6.43464
2.52115 7.64194
2.56577 8.09276
2.6104 8.36962
2.65503 8.05636
2.69965 8.32753
2.7443 8.23462
2.78893 8.75493
2.83356 8.67053
2.87818 9.02414
2.92281 9.05642
2.96744 8.94952
3.01209 10.4904
3.05672 10.98
3.10135 12.5236
3.14599 12.9469
3.19062 14.0108
3.23527 15.5265
3.2799 16.0005
3.32454 16.8524
3.36917 18.0584
3.4138 18.9524
3.45844 19.3876
3.50309 20.8526
3.54773 21.6144
3.59237 23.8123
3.637 81.5917
3.68164 52.5439
3.7263 25.5001
3.77094 25.9863
3.81558 26.9571
3.86022 27.7019
3.90486 29.1161
3.9495 29.3507
3.99416 30.4238
4.0388 32.1291
4.08344 33.4159
4.12809 34.8195
4.17273 36.4008
4.21738 42.2158
4.26204 215.835
4.30669 185.099
4.35133 47.0424
4.39598 43.7734
4.44063 52.7842
4.4853 62.526
4.52995 49.3502
4.5746 50.9483
4.61925 52.8747
4.6639 55.2455
4.70855 58.0407
4.75322 60.3319
4.79788 63.5098
4.84253 66.6063
4.88719 70.5909
4.93184 74.6006
4.97652 79.9692
5.02118 86.303
5.06583 93.2732
5.11049 104.815
5.15515 162.946
5.19981 327.827
5.24449 2741.63
5.28916 12938.7
5.33382 2669.08
5.37848 176.584
5.42315 124.973
5.46783 111.1
5.5125 104.382
5.55716 100.554
5.60183 97.3445
5.6465 95.7167
5.69117 93.107
5.73586 91.0453
5.78053 90.9327
5.8252 90.016
5.86988 90.6758
5.91455 92.915
5.95924 101.324
6.00392 200.369
6.0486 934.494
6.09328 4456.42
6.13795 3139.56
6.18263 208.332
6.22733 89.9593
6.27201 81.3227
6.3167 96.6945
6.36138 78.0738
6.40606 68.2863
6.45075 66.4859
6.49545 64.8989
6.54014 63.473
6.58483 62.078
6.62952 61.7451
6.67421 88.9446
6.71892 128.283
6.76361 66.3579
6.8083 57.8024
6.853 56.8641
6.89769 56.2917
6.94239 56.3295
6.98711 55.0239
7.03181 54.9139
7.07651 54.8725
7.12121 54.8103
7.16591 54.8037
7.21063 54.7824
7.25533 68.0083
7.30004 157.053
7.34475 84.1989
7.38945 55.5886
7.43416 54.0337
7.47889 53.8336
7.5236 54.3655
7.56831 54.6401
7.61303 56.272
7.65774 56.3704
7.70247 55.7023
7.74719 55.3529
7.79191 55.9402
7.83663 56.5331
7.88135 57.2994
7.92607 58.0272
7.97081 59.3753
8.01553 60.2685
8.06026 61.6928
8.10498 63.4874
8.14971 71.3903
8.19446 71.0888
8.23919 68.6174
8.28392 71.2339
8.32865 73.3586
8.37339 77.3871
8.41812 84.2531
8.46288 109.806
8.50761 160.527
8.55235 373.589
8.59709 1205.98
8.64183 2205.89
8.68658 853.598
8.73134 147.249
8.77609 96.9595
8.82083 91.3726
8.86558 88.3738
8.91033 88.382
8.9551 89.5964
8.99985 84.1238
9.04461 83.0377
9.08936 81.7063
9.13412 81.5137
9.17888 81.0984
9.22365 81.4473
9.26841 81.1673
9.31318 81.8925
9.35794 81.7589
9.4027 82.3328
9.44749 83.1281
9.49226 83.7795
9.53703 84.9598
9.5818 86.7681
9.62657 90.7162
9.67134 96.1156
9.71614 92.485
9.76091 93.3357
9.80569 95.52
9.85047 98.8854
9.89525 120.201
9.94005 131.805
9.98484 170.666
10.0296 331.63
10.0744 816.235
10.1192 1780.6
10.164 1509.76
10.2088 344.514
10.2536 120.556
10.2984 110.448
10.3432 111.599
10.388 103.072
10.4328 116.422
10.4776 156.94
10.5224 285.841
10.5672 538.475
10.612 484.603
10.6568 189.644
10.7017 94.2758
10.7465 85.141
10.7913 82.1899
10.8361 80.4337
10.8809 78.0612
10.9257 77.2633
10.9706 77.524
11.0154 74.0516
11.0602 71.7915
11.105 70.8448
11.1499 74.6906
11.1947 80.2576
11.2395 72.7194
11.2844 69.5498
11.3292 66.4208
11.374 65.3407
11.4189 65.1816
11.4637 63.992
11.5086 64.725
11.5534 66.8079
11.5983 64.4681
11.6431 63.1655
11.688 62.3553
11.7328 62.327
11.7777 62.2744
11.8225 61.7739
11.8674 61.7719
11.9122 62.171
11.9571 62.2457
12.002 63.1867
12.0468 66.8315
12.0917 77.2295
12.1366 101.531
12.1814 159.031
12.2263 215.176
12.2712 170.411
12.3161 90.0534
12.3609 68.3425
12.4058 63.6762
12.4507 63.4711
12.4956 63.7759
12.5405 63.5299
12.5853 64.7848
12.6302 71.2877
12.6751 75.6686
12.72 68.73
12.7649 67.0405
12.8098 67.5165
12.8547 69.1426
12.8996 70.1665
12.9445 71.4876
12.9894 73.2287
13.0343 74.9616
13.0792 78.4421
13.1242 86.93
13.1691 109.746
13.214 146.086
13.2589 241.44
13.3038 386.436
13.3487 427.748
13.3937 245.117
13.4386 117.419
13.4835 103.366
13.5285 117.926
13.5734 156.008
13.6183 252.387
13.6633 362.806
13.7082 335.151
13.7531 170.069
13.7981 92.6804
13.843 80.389
13.888 78.617
13.9329 76.2196
13.9779 74.9719
14.0228 73.4769
14.0678 72.0788
14.1127 71.7176
14.1577 71.5591
14.2027 70.5077
14.2476 69.5782
14.2926 70.0566
14.3376 70.5173
14.3825 69.3763
14.4275 68.1995
14.4725 67.8516
14.5175 68.0615
14.5624 68.3467
14.6074 70.2123
14.6524 70.7254
14.6974 69.6837
14.7424 71.3617
14.7874 77.8037
14.8324 87.6689
14.8774 109.382
14.9224 155.754
14.9674 215.176
15.0124 219.447
15.0574 144.969
15.1024 87.1035
15.1474 71.2902
15.1924 69.3135
15.2374 70.0081
15.2824 69.2852
15.3274 67.3044
15.3725 66.2437
15.4175 65.5744
15.4625 65.4617
15.5076 65.3253
15.5526 65.4686
15.5976 65.1758
15.6426 66.1886
15.6877 71.1035
15.7327 78.2292
15.7778 93.4931
15.8228 127.173
15.8679 176.777
15.9129 198.288
15.958 149.836
16.003 90.2104
16.0481 66.0667
16.0931 63.448
16.1382 61.5508
16.1833 59.6056
16.2283 58.3045
16.2734 57.7804
16.3185 57.8892
16.3636 58.2419
16.4086 56.9745
16.4537 55.4515
16.4988 54.7961
16.5439 54.7996
16.589 54.5778
16.6341 54.3502
16.6792 54.0896
16.7243 54.3227
16.7694 54.2651
16.8145 54.0927
16.8596 54.6496
16.9047 55.7706
16.9498 56.0929
16.9949 55.114
17.04 55.2822
17.0851 56.2603
17.1302 57.9264
17.1754 60.9797
17.2205 66.3407
17.2656 74.6687
17.3108 83.1803
17.3559 81.3979
17.401 68.8866
17.4462 60.6689
17.4913 58.4643
17.5365 58.3999
17.5815 58.542
17.6268 58.9837
17.6718 59.8611
17.7171 60.2038
17.7622 60.6002
17.8074 61.3587
17.8525 63.6803
17.8977 67.5067
17.9428 72.7133
17.9881 81.7858
18.0331 99.9808
18.0784 124.796
18.1237 141.825
18.1688 127.093
18.214 98.7998
18.2591 84.2641
18.3044 90.6029
18.3495 102.128
18.3948 106.428
18.4399 93.0853
18.4852 74.5143
18.5303 64.4358
18.5756 61.3384
18.6207 60.3647
18.666 59.5879
18.7112 58.9455
18.7565 58.2113
18.8016 57.9637
18.8469 57.3854
18.892 56.9464
18.9374 56.6697
18.9825 56.604
19.0278 56.111
19.073 56.3224
19.1183 56.8643
19.1635 57.5153
19.2088 58.9178
19.254 61.4019
19.2993 66.2918
19.3447 72.9806
19.3898 76.3551
19.4352 70.607
19.4804 61.5461
19.5257 55.8677
19.5709 53.7071
19.6163 53.245
19.6615 53.0633
19.7068 52.7501
19.752 52.8018
19.7974 52.9311
19.8426 53.9544
19.888 54.3624
19.9332 55.778
19.9786 58.2169
20.0238 62.1766
20.0692 67.786
20.1144 69.5359
20.1598 67.1592
20.205 62.3693
20.2504 61.5182
20.2957 63.9589
20.3411 65.3678
20.3863 62.9631
20.4318 56.9617
20.477 52.5603
20.5224 50.8408
20.5677 50.4169
20.6131 49.7961
20.6586 49.2384
20.7038 48.9637
20.7493 48.6061
20.7945 48.4821
20.84 48.2593
20.8853 48.1755
20.9307 47.9564
20.976 48.0712
21.0215 47.9951
21.0668 48.3971
21.1122 48.8899
21.1575 49.756
21.203 50.6448
21.2483 51.036
21.2938 50.921
21.3391 49.502
21.3846 48.4398
21.4299 47.842
21.4754 47.8809
21.5207 48.0834
21.5662 48.2953
21.6116 48.6423
21.6571 49.3816
21.7024 50.3622
21.7479 52.0598
21.7933 55.164
21.8388 58.9776
21.8843 62.5827
21.9297 64.0387
21.9752 62.1581
22.0206 58.1352
22.0661 55.8577
22.1115 55.6552
22.157 55.4854
22.2024 53.4007
22.248 50.5217
22.2933 49.3054
22.3389 48.3554
22.3843 48.4696
22.4299 48.2559
22.4753 48.336
22.5208 48.0105
22.5662 48.0158
22.6118 48.1493
22.6572 48.3329
22.7028 48.6453
22.7483 49.2725
22.7939 49.8533
22.8393 51.5436
22.8849 53.8543
22.9303 55.9142
22.9759 57.7416
23.0214 56.7666
23.067 53.579
23.1126 50.262
23.1581 48.5436
23.2037 48.1771
23.2492 48.3545
23.2948 48.3832
23.3403 48.4694
23.3859 49.3198
23.4314 50.3503
23.477 52.3716
23.5225 54.7228
23.5682 57.0108
23.6137 57.4541
23.6593 54.5824
23.7048 50.3316
23.7505 47.4366
23.796 46.1019
23.8417 45.5552
23.8872 45.027
23.9329 44.6664
23.9784 44.4292
24.0241 44.1651
24.0697 44.0605
24.1154 43.5893
24.1609 43.5006
24.2066 43.4538
24.2522 43.3982
24.2979 43.0795
24.3434 42.9364
24.3892 42.7468
24.4349 42.6855
24.4805 42.5452
24.5262 42.648
24.5718 42.5717
24.6175 42.4798
24.6631 42.278
24.7089 41.9938
24.7545 41.9431
24.8002 41.7667
24.8458 41.8361
24.8916 41.6286
24.9372 41.7707
24.983 42.1561
25.0286 42.33
25.0744 43.1061
25.12 43.4274
25.1658 43.925
25.2114 44.1904
25.2572 44.3036
25.3029 44.2574
25.3487 44.6653
25.3943 44.1851
25.4402 42.8821
25.4858 41.8499
25.5316 41.0703
25.5773 40.4344
25.6231 40.4314
25.669 40.0304
25.7147 40.2209
25.7605 40.052
25.8062 40.0504
25.8521 40.2099
25.8977 40.2779
25.9436 40.3957
25.9893 40.6158
26.0352 41.1546
26.0809 41.2597
26.1268 41.3641
26.1725 40.8124
26.2184 40.1672
26.2641 39.7207
26.31 39.6614
26.3557 39.7928
26.4017 39.7142
26.4474 40.0484
26.4933 40.325
26.5391 40.8448
26.585 41.4131
26.6308 41.7345
26.6767 41.7342
26.7225 41.5439
26.7684 40.9821
26.8142 40.3557
26.8601 40.0244
26.9059 39.701
26.9519 39.0164
26.9979 38.7411
27.0437 38.5318
27.0896 38.3115
27.1354 38.3779
27.1814 38.0545
27.2272 38.1259
27.2732 38.171
27.3191 38.0459
27.3651 38.0378
27.4109 38.0884
27.4569 38.2653
27.5027 38.2046
27.5488 38.2467
27.5946 37.9289
27.6407 37.7842
27.6865 37.7135
27.7326 37.2761
27.7784 37.4493
27.8245 37.3431
27.8703 37.6473
27.9164 37.9559
27.9623 38.1704
28.0084 38.4212
28.0543 38.8595
28.1003 38.7082
28.1462 38.3809
28.1923 38.0765
28.2384 37.4834
28.2843 37.1785
28.3304 36.7176
28.3764 36.2604
28.4225 35.9992
28.4684 35.8522
28.5145 35.5511
28.5605 35.4735
28.6066 35.2294
28.6526 35.2528
28.6987 35.2663
28.7447 35.2359
28.7908 35.1094
28.8368 35.1559
28.8829 35.1659
28.9289 35.0196
28.9751 34.8117
29.0211 34.6057
29.0673 34.296
29.1133 34.1649
29.1595 33.9656
29.2055 33.9807
29.2517 33.9105
29.2977 33.9553
29.3439 33.8017
29.3899 33.9824
29.4361 33.8719
29.4824 33.5697
29.5284 33.3177
29.5746 33.0738
29.6207 32.7779
29.6669 32.7436
29.713 32.7015
29.7593 32.6238
29.8053 32.6024
29.8516 32.4296
29.8977 32.5263
29.9439 32.1476
29.99 32.1465
30.0363 32.1377
30.0824 32.2405
30.1287 32.1131
30.1748 32.0906
30.2211 32.1083
30.2673 31.9351
30.3136 32.0179
30.3597 31.8314
30.406 31.9193
30.4522 31.858
30.4985 31.6996
30.5447 31.8814
30.591 31.8895
30.6372 31.8407
30.6835 31.8757
30.7297 31.9658
30.7761 31.8405
30.8224 31.6319
30.8686 31.5067
30.915 31.25
30.9612 31.1874
31.0076 31.0445
31.0538 30.9532
31.1002 30.8366
31.1464 30.627
31.1928 30.5149
31.2391 30.6403
31.2855 30.5454
31.3317 30.5326
31.3781 30.6336
31.4244 30.6104
31.4708 30.5667
31.5171 30.5298
31.5636 30.3497
31.6098 30.1753
31.6563 29.9669
31.7026 29.8535
31.7491 29.7976
31.7953 29.8217
31.8418 29.7109
31.8881 29.9492
31.9346 29.7646
31.9809 29.7755
32.0275 29.5583
32.074 29.5063
32.1203 29.2476
32.1668 29.1958
32.2132 29.0572
32.2597 28.8755
32.306 28.8545
32.3526 28.6352
32.399 28.6189
32.4455 28.4715
32.4919 28.3609
32.5385 28.3241
32.5848 28.17
32.6314 28.2361
32.6778 28.1437
32.7244 27.9745
32.7708 27.8951
32.8174 27.7389
32.8638 27.7736
32.9104 27.7523
32.9569 27.7844
33.0035 27.5869
33.0499 27.6411
33.0966 27.586
33.143 27.4144
33.1897 27.3995
33.2361 27.2894
33.2828 27.2896
33.3293 27.1132
33.3759 27.1071
33.4226 26.9807
33.4691 26.786
33.5158 26.744
33.5623 26.5764
33.609 26.4414
33.6555 26.3747
33.7022 26.3034
33.7487 26.2085
33.7954 26.2605
33.842 26.1887
33.8887 26.028
33.9353 25.9852
33.982 25.9023
34.0286 25.8086
34.0753 25.6773
34.1219 25.6206
34.1687 25.656
34.2152 25.5867
34.262 25.3402
34.3086 25.2706
34.3554 25.3326
34.402 25.1519
34.4488 25.0277
34.4954 24.9659
34.5422 24.9187
34.5889 24.8145
34.6357 24.7256
34.6825 24.6449
34.7292 24.5791
34.776 24.4839
34.8227 24.4785
34.8695 24.47
34.9162 24.3392
34.9631 24.2823
35.0098 24.2428
35.0566 24.1294
35.1033 24.0519
35.1502 24.0215
35.1969 23.9671
35.2438 23.9129
35.2906 23.8243
35.3375 23.8377
35.3842 23.691
35.4311 23.7328
35.4779 23.7187
35.5248 23.6537
35.5716 23.5486
35.6185 23.4423
35.6653 23.3884
35.7123 23.3339
35.759 23.2541
35.806 23.1086
35.8528 23.0199
35.8998 22.999
35.9468 22.9672
35.9936 22.9484
36.0406 22.801
36.0874 22.834
36.1345 22.6756
36.1813 22.6534
36.2283 22.4808
36.2752 22.4707
36.3222 22.5077
36.3691 22.272
36.4161 22.2258
36.463 22.272
36.5101 22.2188
36.557 22.1353
36.6041 22.019
36.651 21.9776
36.6981 21.8967
36.745 21.8474
36.7921 21.727
36.839 21.6692
36.8861 21.6284
36.9331 21.4859
36.9802 21.4069
37.0272 21.3498
37.0743 21.2682
37.1213 21.2535
37.1684 21.1702
37.2154 21.1596
37.2626 21.069
37.3098 21.009
37.3568 20.9243
37.404 20.9793
37.451 20.8353
37.4982 20.7396
37.5452 20.6417
37.5924 20.5544
37.6395 20.6417
37.6867 20.5326
37.7337 20.3979
37.781 20.3975
37.8281 20.281
37.8753 20.2157
37.9224 20.1453
37.9697 20.0901
38.0168 20.0206
38.064 19.9899
38.1111 19.9322
38.1584 19.8278
38.2056 19.7037
38.2529 19.6971
38.3 19.5772
38.3473 19.5754
38.3945 19.4402
38.4418 19.4805
38.489 19.3965
38.5363 19.3682
38.5837 19.2857
38.6309 19.1962
38.6782 19.1063
38.7254 19.0683
38.7728 19.0398
38.82 18.9325
38.8674 18.9025
38.9146 18.8433
38.9621 18.7847
39.0093 18.7668
39.0567 18.6576
39.104 18.6095
39.1514 18.5464
39.1987 18.5141
39.2461 18.4178
39.2934 18.3307
39.3409 18.2345
39.3882 18.1812
39.4356 18.1403
39.483 18.1039
39.5304 18.0635
39.5778 18.0412
39.6253 18.0287
39.6726 17.925
39.7201 17.9283
39.7675 17.7792
39.815 17.7458
39.8624 17.6918
39.9099 17.6857
39.9575 17.5815
40.0049 17.4444
40.0525 17.4857
40.0999 17.4517
40.1474 17.3948
40.1949 17.3084
40.2425 17.2471
40.2899 17.1922
40.3375 17.1317
40.385 17.0264
40.4326 16.994
40.48 16.914
40.5277 16.9206
40.5752 16.8798
40.6228 16.758
40.6703 16.7274
40.718 16.6746
40.7655 16.5964
40.8132 16.5908
40.8607 16.5991
40.9084 16.491
40.9559 16.4387
41.0036 16.3775
41.0512 16.3682
41.0989 16.2753
41.1465 16.2162
41.1942 16.1447
41.242 16.1477
41.2896 16.0556
41.3373 15.9614
41.3849 15.9862
41.4327 15.9579
41.4803 15.8317
41.5281 15.7747
41.5758 15.7314
41.6236 15.6785
41.6712 15.6103
41.7191 15.566
41.7667 15.5248
41.8146 15.5477
41.8622 15.4542
41.9101 15.4028
41.9578 15.2969
42.0057 15.2489
42.0534 15.2486
42.1013 15.1928
42.149 15.0806
42.1969 15.0551
42.2446 15.0306
42.2925 14.981
42.3403 14.8856
42.3882 14.8927
42.436 14.8406
42.4839 14.7621
42.5319 14.7586
42.5797 14.7142
42.6277 14.6571
42.6755 14.6473
42.7235 14.4977
42.7713 14.5054
42.8193 14.4591
42.8671 14.3793
42.9152 14.3303
42.963 14.3161
43.0111 14.2418
43.0589 14.1899
43.107 14.1567
43.1549 14.1401
43.2029 14.0283
43.2508 14.0132
43.2989 13.9959
43.3468 13.8808
43.3949 13.8122
43.4429 13.8188
43.491 13.7278
43.5389 13.7268
43.5871 13.639
43.635 13.6373
43.6832 13.556
43.7312 13.4834
43.7793 13.4558
43.8273 13.4157
43.8755 13.3568
43.9237 13.3249
43.9717 13.3252
44.0199 13.2641
44.068 13.2021
44.1162 13.1202
44.1642 13.1375
44.2125 13.0747
44.2606 13.0159
44.3088 12.9375
44.3569 12.9122
44.4052 12.8799
44.4533 12.8089
44.5016 12.7767
44.5497 12.7806
44.598 12.7198
44.6461 12.6428
44.6945 12.604
44.7426 12.5426
44.791 12.4763
44.8391 12.5126
44.8875 12.4292
44.9357 12.4389
44.984 12.3628
45.0322 12.2744
45.0806 12.2506
45.1288 12.2222
45.1773 12.161
45.2257 12.1463
45.2739 12.0562
45.3224 12.076
45.3706 12.0346
45.4191 11.9278
45.4673 11.9436
45.5158 11.9105
45.5641 11.814
45.6126 11.7911
45.6609 11.7379
45.7094 11.6917
45.7577 11.6496
45.8063 11.6018
45.8546 11.5985
45.9031 11.5315
45.9515 11.4889
46.0001 11.4114
46.0484 11.4105
46.097 11.3951
46.1454 11.3584
46.194 11.2871
46.2424 11.2509
46.291 11.2547
46.3395 11.2052
46.3881 11.1039
46.4365 11.1054
46.4852 11.0515
46.5337 11.0104
46.5823 11.1156
46.631 10.9589
46.6795 10.8807
46.7282 10.8691
46.7767 10.7666
46.8254 10.7601
46.8739 10.7484
46.9226 10.6984
46.9712 10.6853
47.0199 10.6136
47.0685 10.5602
47.1173 10.5114
47.1658 10.4738
47.2146 10.4895
47.2632 10.4084
47.312 10.3641
47.3606 10.3169
47.4095 10.3378
47.4581 10.2453
47.5069 10.2008
47.5556 10.2149
47.6044 10.1562
47.6531 10.1405
47.702 10.0444
47.7507 10.0829
47.7996 10.0012
47.8483 9.99043
47.8972 9.93919
47.9461 9.87504
47.9948 9.84812
48.0438 9.79561
48.0925 9.79428
48.1415 9.76321
48.1902 9.70904
48.2392 9.6943
48.288 9.6641
48.337 9.62556
48.3858 9.55671
48.4348 9.54281
48.4837 9.54622
48.5327 9.49522
48.5815 9.41977
48.6306 9.40131
48.6795 9.39891
48.7285 9.32018
48.7774 9.32172
48.8265 9.31731
48.8754 9.23045
48.9245 9.23542
48.9734 9.18028
49.0226 9.14628
49.0715 9.06229
49.1206 9.07575
49.1696 9.04696
49.2188 8.96886
49.2679 8.93323
49.3169 8.93432
49.3661 8.90277
49.4151 8.85292
49.4643 8.79739
49.5134 8.76988
49.5626 8.71025
49.6117 8.72323
49.6609 8.65463
49.71 8.63831
49.7592 8.63453
49.8083 8.56326
49.8576 8.55967
49.9067 8.49992
49.956 8.49599
50.0052 8.44726
50.0545 8.42585
50.1036 8.40803
50.153 8.3883
50.2022 8.30493
50.2515 8.25134
50.3007 8.24647
50.3501 8.21695
50.3993 8.19839
50.4487 8.1969
50.498 8.13127
50.5474 8.11548
50.5966 8.05051
50.6461 7.98759
50.6955 8.00364
50.7448 7.99935
50.7943 7.94627
50.8436 7.93434
50.8931 7.89836
50.9424 7.85366
50.9919 7.80686
51.0413 7.81176
51.0908 7.73652
51.1402 7.71868
51.1897 7.69717
51.2391 7.65019
51.2887 7.66473
51.3381 7.59486
51.3877 7.59472
51.4371 7.50936
51.4867 7.49545
51.5362 7.46893
51.5858 7.46896
51.6353 7.4339
51.6849 7.38575
51.7344 7.38847
51.7841 7.30934
51.8336 7.29772
51.8833 7.2857
51.9328 7.20687
51.9826 7.17005
52.0323 7.18087
52.0818 7.12847
52.1316 7.10323
52.1812 7.07637
52.231 7.02502
52.2806 7.04007
52.3304 7.02673
52.38 6.97706
52.4298 6.90386
52.4794 6.88974
52.5293 6.88875
52.5789 6.85966
52.6288 6.81516
52.6785 6.82397
52.7284 6.79556
52.7781 6.73738
52.828 6.71312
52.8777 6.69971
52.9276 6.64211
52.9774 6.64007
53.0273 6.60183
53.0771 6.58872
53.1271 6.58304
53.1769 6.48029
53.2269 6.49546
53.2767 6.47724
53.3267 6.48567
53.3765 6.41098
53.4266 6.3883
53.4766 6.34477
53.5265 6.3741
53.5765 6.32109
53.6264 6.26947
53.6765 6.26557
53.7264 6.21623
53.7765 6.18739
53.8265 6.14974
53.8766 6.10993
53.9266 6.08598
53.9767 6.10301
54.0267 6.0333
54.0769 6.029
54.1269 6.03388
54.1771 5.98341
54.2271 5.92781
54.2773 5.91848
54.3274 5.86498
54.3776 5.81783
54.4277 5.80849
54.478 5.83119
54.528 5.76881
54.5783 5.73981
54.6285 5.64925
54.6788 5.62769
54.7289 5.55551
54.7792 5.53447
54.8296 5.52685
54.8798 5.4685
54.9301 5.4632
54.9803 5.38902
55.0307 5.357
55.0809 5.33681
55.1314 5.29595
55.1816 5.2274
55.232 5.18112
55.2823 5.19072
55.3328 5.07916
55.383 5.02769
55.4335 5.04179
55.4838 4.94617
55.5344 4.90757
55.5847 4.855
55.6352 4.85112
55.6856 4.82902
55.7361 4.74055