File: XRD/Ni3Fe_FD0734.xy
TT I
1.27165 7.1929
1.31627 6.76577
1.36089 6.56203
1.40551 5.91638
1.45013 6.18644
1.49476 5.97239
1.53938 5.74895
1.584 5.69023
1.62863 4.91819
1.67325 5.1522
1.71787 4.68926
1.7625 5.11849
1.80712 5.07453
1.85174 4.64922
1.89636 5.05761
1.94099 5.22887
1.98562 4.53754
2.03025 4.42519
2.07487 4.4199
2.11949 4.6316
2.16411 4.65636
2.20874 13.9829
2.25338 21.3357
2.298 6.43526
2.34263 5.40934
2.38725 5.6735
2.43188 6.53669
2.4765 6.91749
2.52115 7.06827
2.56577 7.61381
2.6104 8.30838
2.65503 7.40274
2.69965 8.46711
2.7443 8.32531
2.78893 8.35788
2.83356 9.19053
2.87818 8.64158
2.92281 8.68836
2.96744 9.19327
3.01209 10.0153
3.05672 11.0909
3.10135 12.2841
3.14599 12.6995
3.19062 14.269
3.23527 15.0349
3.2799 15.6866
3.32454 16.6917
3.36917 17.3954
3.4138 19.1068
3.45844 19.5408
3.50309 20.6824
3.54773 21.5874
3.59237 23.8575
3.637 88.414
3.68164 56.1694
3.7263 25.9891
3.77094 26.2245
3.81558 26.6298
3.86022 27.4815
3.90486 28.7005
3.9495 29.5984
3.99416 30.5198
4.0388 31.8168
4.08344 33.343
4.12809 34.7656
4.17273 37.0401
4.21738 42.5248
4.26204 232.263
4.30669 207.169
4.35133 48.054
4.39598 44.1163
4.44063 53.2864
4.4853 64.4604
4.52995 50.2196
4.5746 50.9904
4.61925 53.1511
4.6639 55.4831
4.70855 58.3434
4.75322 60.9017
4.79788 63.2644
4.84253 66.8547
4.88719 70.5312
4.93184 74.5149
4.97652 79.9483
5.02118 86.2312
5.06583 93.3091
5.11049 104.926
5.15515 165.803
5.19981 320.624
5.24449 2775.09
5.28916 12667.3
5.33382 2874.28
5.37848 184.088
5.42315 127.852
5.46783 112.794
5.5125 105.639
5.55716 101.508
5.60183 98.2616
5.6465 96.4004
5.69117 94.0869
5.73586 91.8907
5.78053 90.9081
5.8252 90.4043
5.86988 91.031
5.91455 93.021
5.95924 100.115
6.00392 191.249
6.0486 908.766
6.09328 4604.02
6.13795 3212.21
6.18263 236.009
6.22733 92.3357
6.27201 82.3378
6.3167 99.6342
6.36138 79.4305
6.40606 68.8654
6.45075 67.0059
6.49545 65.2268
6.54014 63.6513
6.58483 62.3739
6.62952 62.4721
6.67421 92.0421
6.71892 137.939
6.76361 68.325
6.8083 58.4018
6.853 57.3571
6.89769 56.8287
6.94239 56.3638
6.98711 55.5366
7.03181 55.3361
7.07651 55.2316
7.12121 55.4749
7.16591 55.0061
7.21063 55.2379
7.25533 69.5983
7.30004 170.407
7.34475 88.5702
7.38945 56.2119
7.43416 54.5987
7.47889 54.0986
7.5236 54.5882
7.56831 55.4478
7.61303 56.7287
7.65774 57.0012
7.70247 55.938
7.74719 55.997
7.79191 56.5542
7.83663 56.6715
7.88135 57.756
7.92607 58.2413
7.97081 59.1645
8.01553 60.672
8.06026 62.127
8.10498 63.7004
8.14971 72.3252
8.19446 71.9884
8.23919 69.2512
8.28392 71.2795
8.32865 73.9201
8.37339 77.7583
8.41812 84.356
8.46288 110.77
8.50761 154.857
8.55235 366.779
8.59709 1163.45
8.64183 2180.24
8.68658 989.83
8.73134 164.69
8.77609 99.0695
8.82083 92.0772
8.86558 89.0648
8.91033 89.3135
8.9551 90.9082
8.99985 84.9386
9.04461 83.0145
9.08936 82.5314
9.13412 81.4005
9.17888 81.7654
9.22365 82.5424
9.26841 81.7102
9.31318 81.8962
9.35794 82.2093
9.4027 82.9481
9.44749 83.5486
9.49226 84.031
9.53703 85.2038
9.5818 86.6355
9.62657 91.1221
9.67134 97.5319
9.71614 93.1307
9.76091 93.3755
9.80569 96.1673
9.85047 99.3006
9.89525 121.734
9.94005 133.1
9.98484 166.241
10.0296 327.286
10.0744 802.429
10.1192 1780.92
10.164 1634.23
10.2088 413.062
10.2536 126.454
10.2984 112.011
10.3432 113.662
10.388 103.711
10.4328 114.719
10.4776 155.564
10.5224 278.898
10.5672 514.254
10.612 509.985
10.6568 206.084
10.7017 96.6279
10.7465 86.5238
10.7913 82.6887
10.8361 80.7119
10.8809 78.3869
10.9257 77.994
10.9706 78.5097
11.0154 74.4075
11.0602 72.2879
11.105 71.4878
11.1499 75.4826
11.1947 82.2899
11.2395 73.8554
11.2844 70.0636
11.3292 66.822
11.374 65.6373
11.4189 65.5296
11.4637 64.6571
11.5086 64.9322
11.5534 67.7953
11.5983 65.1455
11.6431 63.4711
11.688 62.4799
11.7328 62.3856
11.7777 62.3629
11.8225 62.2446
11.8674 62.1721
11.9122 62.5049
11.9571 62.5771
12.002 63.0611
12.0468 66.6213
12.0917 77.0522
12.1366 101.543
12.1814 153.646
12.2263 200.109
12.2712 163.723
12.3161 98.0976
12.3609 70.4732
12.4058 64.2869
12.4507 64.0471
12.4956 64.2742
12.5405 63.8485
12.5853 65.0584
12.6302 72.57
12.6751 77.2933
12.72 69.5918
12.7649 67.4708
12.8098 68.1892
12.8547 69.4109
12.8996 70.6331
12.9445 71.6581
12.9894 73.9012
13.0343 75.2677
13.0792 78.3681
13.1242 86.175
13.1691 108.625
13.214 145.645
13.2589 237.925
13.3038 373.001
13.3487 417.499
13.3937 266.056
13.4386 126.263
13.4835 103.45
13.5285 116.889
13.5734 155.595
13.6183 248.428
13.6633 348.125
13.7082 334.63
13.7531 185.92
13.7981 97.4353
13.843 81.4141
13.888 79.0974
13.9329 76.7574
13.9779 75.6483
14.0228 74.0436
14.0678 72.5861
14.1127 72.0126
14.1577 72.0388
14.2027 71.1613
14.2476 69.9213
14.2926 69.926
14.3376 70.9884
14.3825 69.9013
14.4275 68.507
14.4725 68.2267
14.5175 68.5611
14.5624 68.7458
14.6074 70.718
14.6524 71.3201
14.6974 69.8972
14.7424 70.985
14.7874 77.3016
14.8324 87.307
14.8774 109.51
14.9224 153.704
14.9674 207.115
15.0124 215.054
15.0574 149.668
15.1024 91.3454
15.1474 72.3257
15.1924 70.1313
15.2374 70.369
15.2824 69.9311
15.3274 67.8882
15.3725 66.3821
15.4175 65.8556
15.4625 65.9059
15.5076 65.9716
15.5526 65.7202
15.5976 65.3747
15.6426 66.1285
15.6877 71.1164
15.7327 78.3483
15.7778 93.5928
15.8228 126.647
15.8679 172.296
15.9129 194.612
15.958 155.942
16.003 98.5854
16.0481 68.1745
16.0931 64.2879
16.1382 62.4319
16.1833 60.2406
16.2283 58.6413
16.2734 58.1838
16.3185 58.3391
16.3636 58.9279
16.4086 57.5425
16.4537 55.8889
16.4988 55.1343
16.5439 55.1984
16.589 54.9437
16.6341 54.8951
16.6792 54.4165
16.7243 54.7291
16.7694 54.6595
16.8145 54.4864
16.8596 54.8726
16.9047 56.3735
16.9498 56.7327
16.9949 55.534
17.04 55.4834
17.0851 56.6077
17.1302 58.1312
17.1754 61.2552
17.2205 66.3273
17.2656 74.3164
17.3108 82.4164
17.3559 82.0544
17.401 70.5297
17.4462 61.9311
17.4913 58.812
17.5365 58.8381
17.5815 58.8659
17.6268 59.4371
17.6718 60.0158
17.7171 60.5599
17.7622 61.1234
17.8074 61.4573
17.8525 63.3639
17.8977 67.4271
17.9428 72.7512
17.9881 81.9915
18.0331 99.6714
18.0784 122.086
18.1237 138.387
18.1688 130.178
18.214 103.051
18.2591 86.5974
18.3044 90.647
18.3495 100.202
18.3948 105.532
18.4399 95.7822
18.4852 77.29
18.5303 65.5974
18.5756 62.1154
18.6207 61.1354
18.666 60.2518
18.7112 59.5103
18.7565 58.4185
18.8016 58.2794
18.8469 57.9377
18.892 57.4493
18.9374 56.9522
18.9825 56.7695
19.0278 56.5854
19.073 56.7626
19.1183 57.1633
19.1635 57.8538
19.2088 59.3213
19.254 61.9797
19.2993 66.5267
19.3447 72.5629
19.3898 75.976
19.4352 71.8527
19.4804 63.0111
19.5257 56.6558
19.5709 54.1053
19.6163 53.8616
19.6615 53.3287
19.7068 53.0734
19.752 53.1754
19.7974 53.3353
19.8426 53.9751
19.888 54.6374
19.9332 55.7788
19.9786 58.4286
20.0238 62.1171
20.0692 67.0534
20.1144 69.4274
20.1598 67.7322
20.205 63.3702
20.2504 62.0783
20.2957 63.7762
20.3411 65.2729
20.3863 63.6134
20.4318 58.3491
20.477 53.669
20.5224 51.6498
20.5677 50.7167
20.6131 49.8611
20.6586 49.471
20.7038 49.4414
20.7493 48.8273
20.7945 48.782
20.84 48.6003
20.8853 48.3976
20.9307 48.2865
20.976 48.4887
21.0215 48.3247
21.0668 48.8195
21.1122 49.1553
21.1575 50.0371
21.203 50.7175
21.2483 51.3496
21.2938 51.2349
21.3391 49.8322
21.3846 48.8406
21.4299 48.0953
21.4754 48.2017
21.5207 48.2871
21.5662 48.5142
21.6116 49.1824
21.6571 49.6108
21.7024 50.5145
21.7479 52.3145
21.7933 55.0892
21.8388 58.7862
21.8843 62.4464
21.9297 64.1058
21.9752 62.8745
22.0206 59.3127
22.0661 56.7191
22.1115 55.7657
22.157 55.6606
22.2024 54.1382
22.248 51.2687
22.2933 49.7455
22.3389 48.9207
22.3843 48.9174
22.4299 48.5991
22.4753 48.5236
22.5208 48.4962
22.5662 48.2885
22.6118 48.3767
22.6572 48.5287
22.7028 48.7286
22.7483 49.4247
22.7939 50.0952
22.8393 51.8475
22.8849 53.9048
22.9303 56.0625
22.9759 57.6358
23.0214 56.8896
23.067 54.3151
23.1126 51.0625
23.1581 49.0829
23.2037 48.748
23.2492 48.7583
23.2948 48.4904
23.3403 48.9635
23.3859 49.5716
23.4314 50.6082
23.477 52.5161
23.5225 54.7802
23.5682 56.7665
23.6137 57.6447
23.6593 55.2639
23.7048 51.293
23.7505 48.34
23.796 46.6241
23.8417 45.6467
23.8872 45.3372
23.9329 45.1034
23.9784 44.7995
24.0241 44.4311
24.0697 44.2889
24.1154 43.947
24.1609 43.7391
24.2066 43.5948
24.2522 43.5225
24.2979 43.2459
24.3434 42.9789
24.3892 42.9518
24.4349 42.789
24.4805 42.7758
24.5262 42.9768
24.5718 42.6824
24.6175 42.7604
24.6631 42.4985
24.7089 42.2458
24.7545 42.179
24.8002 42.041
24.8458 42.1074
24.8916 41.9453
24.9372 41.9403
24.983 42.3224
25.0286 42.6478
25.0744 42.995
25.12 43.679
25.1658 44.1405
25.2114 44.387
25.2572 44.5894
25.3029 44.7283
25.3487 44.6863
25.3943 44.3004
25.4402 43.1748
25.4858 42.3661
25.5316 41.336
25.5773 40.6889
25.6231 40.7152
25.669 40.4344
25.7147 40.3463
25.7605 40.2533
25.8062 40.3791
25.8521 40.4463
25.8977 40.2742
25.9436 40.7316
25.9893 40.9083
26.0352 41.2558
26.0809 41.3477
26.1268 41.5444
26.1725 41.1986
26.2184 40.5339
26.2641 40.135
26.31 39.9632
26.3557 40.017
26.4017 39.9248
26.4474 40.2108
26.4933 40.5937
26.5391 41.0216
26.585 41.5384
26.6308 42.0431
26.6767 42.0513
26.7225 41.7712
26.7684 41.3317
26.8142 40.7551
26.8601 40.2769
26.9059 39.9016
26.9519 39.2703
26.9979 39.0803
27.0437 38.6981
27.0896 38.5594
27.1354 38.5499
27.1814 38.4166
27.2272 38.505
27.2732 38.4418
27.3191 38.2762
27.3651 38.3181
27.4109 38.2243
27.4569 38.3971
27.5027 38.3509
27.5488 38.4289
27.5946 38.0639
27.6407 38.0379
27.6865 37.9075
27.7326 37.5283
27.7784 37.7163
27.8245 37.6247
27.8703 37.7726
27.9164 38.0669
27.9623 38.3613
28.0084 38.6568
28.0543 39.0307
28.1003 38.8008
28.1462 38.6958
28.1923 38.3524
28.2384 37.7839
28.2843 37.6336
28.3304 37.0107
28.3764 36.4947
28.4225 36.2158
28.4684 36.1379
28.5145 35.7598
28.5605 35.7578
28.6066 35.4274
28.6526 35.5705
28.6987 35.535
28.7447 35.3896
28.7908 35.2995
28.8368 35.3219
28.8829 35.1779
28.9289 35.1087
28.9751 35.147
29.0211 34.8714
29.0673 34.5935
29.1133 34.4745
29.1595 34.2549
29.2055 34.2405
29.2517 34.3184
29.2977 34.0732
29.3439 34.3031
29.3899 34.218
29.4361 33.9553
29.4824 33.8247
29.5284 33.6049
29.5746 33.1905
29.6207 32.9819
29.6669 32.8903
29.713 32.9462
29.7593 32.8436
29.8053 32.7491
29.8516 32.6526
29.8977 32.7092
29.9439 32.3998
29.99 32.4768
30.0363 32.3056
30.0824 32.3346
30.1287 32.2388
30.1748 32.4035
30.2211 32.4
30.2673 32.0624
30.3136 32.2251
30.3597 32.1657
30.406 32.1382
30.4522 31.9257
30.4985 31.9769
30.5447 32.0615
30.591 32.0237
30.6372 32.0687
30.6835 32.1239
30.7297 32.1479
30.7761 32.1124
30.8224 31.8566
30.8686 31.707
30.915 31.5674
30.9612 31.3662
31.0076 31.271
31.0538 31.0049
31.1002 31.0495
31.1464 30.8125
31.1928 30.7852
31.2391 30.9081
31.2855 30.7123
31.3317 30.6923
31.3781 30.8289
31.4244 30.8057
31.4708 30.6905
31.5171 30.7018
31.5636 30.5696
31.6098 30.444
31.6563 30.2551
31.7026 30.1367
31.7491 30.0062
31.7953 30.0697
31.8418 30.0381
31.8881 30.0446
31.9346 29.9385
31.9809 29.9923
32.0275 29.7906
32.074 29.6203
32.1203 29.4535
32.1668 29.4654
32.2132 29.2753
32.2597 29.1151
32.306 29.0807
32.3526 28.915
32.399 28.8345
32.4455 28.6659
32.4919 28.5843
32.5385 28.5335
32.5848 28.2686
32.6314 28.4146
32.6778 28.3809
32.7244 28.1417
32.7708 28.0864
32.8174 28.0066
32.8638 27.9835
32.9104 27.98
32.9569 27.8844
33.0035 27.7502
33.0499 27.6583
33.0966 27.7364
33.143 27.669
33.1897 27.5816
33.2361 27.5733
33.2828 27.456
33.3293 27.3021
33.3759 27.2948
33.4226 27.0939
33.4691 26.9524
33.5158 26.91
33.5623 26.7913
33.609 26.6561
33.6555 26.6274
33.7022 26.5772
33.7487 26.3386
33.7954 26.3902
33.842 26.2371
33.8887 26.2774
33.9353 26.2466
33.982 26.0109
34.0286 25.8983
34.0753 25.9003
34.1219 25.7748
34.1687 25.7245
34.2152 25.6686
34.262 25.5572
34.3086 25.3946
34.3554 25.4065
34.402 25.3301
34.4488 25.1658
34.4954 25.2413
34.5422 25.0591
34.5889 24.9548
34.6357 24.9214
34.6825 24.8843
34.7292 24.7781
34.776 24.6447
34.8227 24.5599
34.8695 24.5189
34.9162 24.5463
34.9631 24.4775
35.0098 24.3409
35.0566 24.2111
35.1033 24.1282
35.1502 24.1794
35.1969 24.1428
35.2438 24.096
35.2906 24.028
35.3375 24.0271
35.3842 23.8497
35.4311 23.8855
35.4779 23.8484
35.5248 23.8237
35.5716 23.6732
35.6185 23.649
35.6653 23.4904
35.7123 23.5274
35.759 23.4419
35.806 23.2518
35.8528 23.1146
35.8998 23.0928
35.9468 23.069
35.9936 22.9996
36.0406 22.9036
36.0874 22.9139
36.1345 22.899
36.1813 22.7016
36.2283 22.6593
36.2752 22.6019
36.3222 22.6144
36.3691 22.5057
36.4161 22.3622
36.463 22.4159
36.5101 22.4212
36.557 22.2827
36.6041 22.1125
36.651 22.0713
36.6981 22.1016
36.745 22.0008
36.7921 21.8593
36.839 21.7759
36.8861 21.7365
36.9331 21.6263
36.9802 21.5798
37.0272 21.5166
37.0743 21.4112
37.1213 21.3897
37.1684 21.3741
37.2154 21.2854
37.2626 21.1668
37.3098 21.1021
37.3568 21.0776
37.404 21.0418
37.451 20.9158
37.4982 20.8587
37.5452 20.78
37.5924 20.7241
37.6395 20.7459
37.6867 20.6559
37.7337 20.4967
37.781 20.453
37.8281 20.4391
37.8753 20.3253
37.9224 20.2291
37.9697 20.1627
38.0168 20.1825
38.064 20.0897
38.1111 20.0636
38.1584 19.9423
38.2056 19.844
38.2529 19.8377
38.3 19.7755
38.3473 19.7505
38.3945 19.6537
38.4418 19.5621
38.489 19.5227
38.5363 19.4889
38.5837 19.3677
38.6309 19.3621
38.6782 19.2439
38.7254 19.2372
38.7728 19.1217
38.82 19.0885
38.8674 18.9854
38.9146 18.938
38.9621 18.9122
39.0093 18.8976
39.0567 18.7898
39.104 18.7813
39.1514 18.681
39.1987 18.6397
39.2461 18.6256
39.2934 18.549
39.3409 18.3832
39.3882 18.3009
39.4356 18.2544
39.483 18.2459
39.5304 18.1882
39.5778 18.1722
39.6253 18.0959
39.6726 17.9751
39.7201 17.994
39.7675 17.9376
39.815 17.8524
39.8624 17.7883
39.9099 17.776
39.9575 17.6693
40.0049 17.6852
40.0525 17.5247
40.0999 17.5618
40.1474 17.4882
40.1949 17.3956
40.2425 17.3126
40.2899 17.2843
40.3375 17.3221
40.385 17.1465
40.4326 17.1216
40.48 17.0598
40.5277 17.0842
40.5752 16.9829
40.6228 16.8786
40.6703 16.82
40.718 16.8347
40.7655 16.7649
40.8132 16.6841
40.8607 16.6642
40.9084 16.6076
40.9559 16.5668
41.0036 16.5236
41.0512 16.4916
41.0989 16.4415
41.1465 16.3614
41.1942 16.3104
41.242 16.1975
41.2896 16.1597
41.3373 16.1111
41.3849 16.0253
41.4327 16.0544
41.4803 15.8798
41.5281 15.9295
41.5758 15.8222
41.6236 15.7999
41.6712 15.7296
41.7191 15.7236
41.7667 15.6146
41.8146 15.5966
41.8622 15.4952
41.9101 15.5078
41.9578 15.3756
42.0057 15.355
42.0534 15.3226
42.1013 15.3422
42.149 15.155
42.1969 15.1843
42.2446 15.1031
42.2925 15.0561
42.3403 15.0574
42.3882 15.0076
42.436 14.9575
42.4839 14.8815
42.5319 14.8129
42.5797 14.793
42.6277 14.7408
42.6755 14.7461
42.7235 14.6084
42.7713 14.5683
42.8193 14.5286
42.8671 14.4832
42.9152 14.4677
42.963 14.3992
43.0111 14.3345
43.0589 14.3309
43.107 14.2386
43.1549 14.1439
43.2029 14.1344
43.2508 14.126
43.2989 13.9887
43.3468 13.9611
43.3949 13.9454
43.4429 13.9203
43.491 13.8257
43.5389 13.7809
43.5871 13.7603
43.635 13.6733
43.6832 13.6763
43.7312 13.5861
43.7793 13.5611
43.8273 13.478
43.8755 13.4523
43.9237 13.4123
43.9717 13.3992
44.0199 13.325
44.068 13.3375
44.1162 13.2484
44.1642 13.2183
44.2125 13.1602
44.2606 13.1282
44.3088 13.0857
44.3569 12.9576
44.4052 12.9699
44.4533 12.9033
44.5016 12.8533
44.5497 12.8737
44.598 12.7896
44.6461 12.7121
44.6945 12.6961
44.7426 12.6434
44.791 12.5633
44.8391 12.5918
44.8875 12.5147
44.9357 12.4602
44.984 12.4118
45.0322 12.3688
45.0806 12.3049
45.1288 12.306
45.1773 12.2741
45.2257 12.2105
45.2739 12.1744
45.3224 12.1339
45.3706 12.1454
45.4191 12.0381
45.4673 11.9711
45.5158 11.9368
45.5641 11.8861
45.6126 11.887
45.6609 11.7863
45.7094 11.7723
45.7577 11.7624
45.8063 11.6866
45.8546 11.6461
45.9031 11.6265
45.9515 11.5785
46.0001 11.5266
46.0484 11.4855
46.097 11.4852
46.1454 11.4186
46.194 11.3837
46.2424 11.2995
46.291 11.2905
46.3395 11.2394
46.3881 11.1635
46.4365 11.1788
46.4852 11.1523
46.5337 11.0877
46.5823 11.0545
46.631 10.9594
46.6795 10.967
46.7282 10.9429
46.7767 10.8783
46.8254 10.8559
46.8739 10.8121
46.9226 10.7419
46.9712 10.7534
47.0199 10.6362
47.0685 10.6621
47.1173 10.5956
47.1658 10.5686
47.2146 10.5586
47.2632 10.4704
47.312 10.4931
47.3606 10.3961
47.4095 10.3587
47.4581 10.3211
47.5069 10.288
47.5556 10.2017
47.6044 10.1719
47.6531 10.196
47.702 10.0912
47.7507 10.1166
47.7996 10.068
47.8483 10.0372
47.8972 10.0186
47.9461 9.968
47.9948 9.94166
48.0438 9.87016
48.0925 9.83984
48.1415 9.80415
48.1902 9.78052
48.2392 9.76838
48.288 9.7216
48.337 9.65379
48.3858 9.66459
48.4348 9.60449
48.4837 9.59432
48.5327 9.55002
48.5815 9.51202
48.6306 9.4827
48.6795 9.43106
48.7285 9.37735
48.7774 9.33995
48.8265 9.37717
48.8754 9.24321
48.9245 9.23557
48.9734 9.24689
49.0226 9.18189
49.0715 9.12668
49.1206 9.11527
49.1696 9.09066
49.2188 9.03791
49.2679 9.01284
49.3169 8.96096
49.3661 8.98177
49.4151 8.91816
49.4643 8.87724
49.5134 8.85617
49.5626 8.77009
49.6117 8.75514
49.6609 8.75941
49.71 8.65922
49.7592 8.66981
49.8083 8.63616
49.8576 8.61359
49.9067 8.56126
49.956 8.53884
50.0052 8.54221
50.0545 8.46598
50.1036 8.44312
50.153 8.39803
50.2022 8.39454
50.2515 8.30779
50.3007 8.31333
50.3501 8.28376
50.3993 8.24598
50.4487 8.21893
50.498 8.16289
50.5474 8.16326
50.5966 8.11111
50.6461 8.11217
50.6955 8.0251
50.7448 8.05975
50.7943 7.96451
50.8436 7.97979
50.8931 7.92998
50.9424 7.88787
50.9919 7.87954
51.0413 7.84868
51.0908 7.81527
51.1402 7.80681
51.1897 7.76254
51.2391 7.70602
51.2887 7.69818
51.3381 7.64791
51.3877 7.64061
51.4371 7.57892
51.4867 7.55267
51.5362 7.52353
51.5858 7.49852
51.6353 7.42881
51.6849 7.42421
51.7344 7.4299
51.7841 7.34865
51.8336 7.34196
51.8833 7.31571
51.9328 7.25504
51.9826 7.22711
52.0323 7.23745
52.0818 7.22083
52.1316 7.14409
52.1812 7.15929
52.231 7.0578
52.2806 7.06889
52.3304 7.07001
52.38 7.01392
52.4298 6.98896
52.4794 6.98475
52.5293 6.92959
52.5789 6.88116
52.6288 6.85755
52.6785 6.85934
52.7284 6.81259
52.7781 6.82148
52.828 6.77631
52.8777 6.7134
52.9276 6.69489
52.9774 6.66854
53.0273 6.65377
53.0771 6.58974
53.1271 6.60929
53.1769 6.56655
53.2269 6.57279
53.2767 6.48312
53.3267 6.45495
53.3765 6.47273
53.4266 6.43791
53.4766 6.37323
53.5265 6.37271
53.5765 6.36207
53.6264 6.34888
53.6765 6.31129
53.7264 6.25143
53.7765 6.23907
53.8265 6.22066
53.8766 6.1556
53.9266 6.15452
53.9767 6.09511
54.0267 6.12307
54.0769 6.06417
54.1269 6.02653
54.1771 6.01016
54.2271 5.96107
54.2773 5.91325
54.3274 5.94816
54.3776 5.82141
54.4277 5.84397
54.478 5.82159
54.528 5.81409
54.5783 5.74266
54.6285 5.70091
54.6788 5.69726
54.7289 5.64056
54.7792 5.58623
54.8296 5.52518
54.8798 5.52062
54.9301 5.44111
54.9803 5.43577
55.0307 5.43661
55.0809 5.37981
55.1314 5.32858
55.1816 5.24204
55.232 5.20147
55.2823 5.21587
55.3328 5.14944
55.383 5.07501
55.4335 5.06274
55.4838 5.0486
55.5344 4.89061
55.5847 4.87149
55.6352 4.88004
55.6856 4.84508
55.7361 4.79418