File: XRD/Ni3Fe_FD0217.xy
TT I
1.27165 7.77492
1.31627 7.07357
1.36089 7.06458
1.40551 7.353
1.45013 6.48014
1.49476 6.73163
1.53938 6.58501
1.584 5.74556
1.62863 5.81716
1.67325 5.8266
1.71787 5.61031
1.7625 5.74439
1.80712 5.63639
1.85174 4.95796
1.89636 5.42389
1.94099 5.81981
1.98562 5.33706
2.03025 4.70463
2.07487 4.59103
2.11949 5.11025
2.16411 4.46606
2.20874 4.83537
2.25338 4.46948
2.298 4.08812
2.34263 4.39189
2.38725 5.2194
2.43188 4.50707
2.4765 4.73515
2.52115 4.96311
2.56577 5.20626
2.6104 5.77378
2.65503 5.11369
2.69965 6.28127
2.7443 5.85773
2.78893 6.53385
2.83356 7.16972
2.87818 7.84639
2.92281 8.82074
2.96744 9.02239
3.01209 10.4163
3.05672 10.8117
3.10135 12.279
3.14599 12.6808
3.19062 13.8562
3.23527 15.2812
3.2799 15.5981
3.32454 17.0064
3.36917 17.8861
3.4138 19.0995
3.45844 19.4107
3.50309 21.3221
3.54773 21.2466
3.59237 22.2215
3.637 23.3278
3.68164 24.1413
3.7263 25.6365
3.77094 25.9299
3.81558 27.176
3.86022 27.9308
3.90486 29.2383
3.9495 30.3206
3.99416 30.9658
4.0388 32.3717
4.08344 33.852
4.12809 35.0711
4.17273 36.5587
4.21738 37.9761
4.26204 39.3111
4.30669 40.9362
4.35133 43.0279
4.39598 44.4499
4.44063 46.6118
4.4853 48.8148
4.52995 52.735
4.5746 54.1931
4.61925 56.052
4.6639 58.6852
4.70855 61.153
4.75322 65.1428
4.79788 68.2264
4.84253 72.0054
4.88719 77.6294
4.93184 81.724
4.97652 89.1509
5.02118 97.3484
5.06583 107.665
5.11049 125.104
5.15515 170.044
5.19981 900.117
5.24449 3974.14
5.28916 10603.4
5.33382 4270.76
5.37848 278.144
5.42315 154.94
5.46783 129.932
5.5125 118.666
5.55716 112.993
5.60183 107.619
5.6465 105.056
5.69117 103.998
5.73586 101.779
5.78053 102.993
5.8252 102.285
5.86988 105.233
5.91455 111.293
5.95924 134.448
6.00392 450.119
6.0486 1431.2
6.09328 3591.37
6.13795 3715.1
6.18263 384.634
6.22733 110.78
6.27201 89.9204
6.3167 81.703
6.36138 76.1485
6.40606 73.4876
6.45075 71.2046
6.49545 68.8021
6.54014 66.9796
6.58483 65.4319
6.62952 64.5482
6.67421 62.4689
6.71892 61.9526
6.76361 60.9641
6.8083 60.0865
6.853 59.4217
6.89769 58.9915
6.94239 58.2948
6.98711 57.706
7.03181 57.2094
7.07651 57.041
7.12121 56.7624
7.16591 56.6633
7.21063 56.3143
7.25533 55.9052
7.30004 55.8034
7.34475 56.1006
7.38945 55.9975
7.43416 55.6707
7.47889 55.6077
7.5236 56.768
7.56831 57.7109
7.61303 57.5184
7.65774 57.4763
7.70247 58.3788
7.74719 58.543
7.79191 59.3545
7.83663 59.403
7.88135 60.7385
7.92607 61.8306
7.97081 62.73
8.01553 64.116
8.06026 65.6638
8.10498 67.1154
8.14971 69.1502
8.19446 70.9291
8.23919 73.1416
8.28392 76.8008
8.32865 79.2476
8.37339 84.1809
8.41812 91.0132
8.46288 111.094
8.50761 293.774
8.55235 592.335
8.59709 1059.55
8.64183 1967.01
8.68658 1245.53
8.73134 227.437
8.77609 111.694
8.82083 100.671
8.86558 96.584
8.91033 94.313
8.9551 91.0328
8.99985 89.9151
9.04461 88.6299
9.08936 88.5171
9.13412 87.3149
9.17888 87.1032
9.22365 87.0689
9.26841 87.4565
9.31318 88.3162
9.35794 88.5049
9.4027 88.9439
9.44749 89.2932
9.49226 89.953
9.53703 91.5202
9.5818 93.3584
9.62657 94.3697
9.67134 95.9918
9.71614 97.6977
9.76091 100.538
9.80569 103.319
9.85047 107.26
9.89525 112.924
9.94005 136.555
9.98484 305.295
10.0296 524.961
10.0744 801.11
10.1192 1443.82
10.164 1725.5
10.2088 564.47
10.2536 150.258
10.2984 118.664
10.3432 113.603
10.388 115.148
10.4328 159.944
10.4776 213.254
10.5224 281.914
10.5672 436.894
10.612 528.727
10.6568 256.74
10.7017 109.546
10.7465 92.7965
10.7913 88.1015
10.8361 85.7413
10.8809 83.41
10.9257 81.0612
10.9706 79.6426
11.0154 78.0113
11.0602 76.4323
11.105 75.2598
11.1499 73.5071
11.1947 72.6492
11.2395 71.3148
11.2844 71.1987
11.3292 70.2832
11.374 69.4582
11.4189 68.7775
11.4637 67.9668
11.5086 66.9334
11.5534 67.027
11.5983 66.5537
11.6431 66.7975
11.688 66.2509
11.7328 65.6789
11.7777 65.9401
11.8225 65.7302
11.8674 65.5564
11.9122 66.2269
11.9571 66.8473
12.002 68.8303
12.0468 80.1263
12.0917 95.0717
12.1366 109.018
12.1814 139.567
12.2263 190.882
12.2712 186.214
12.3161 104.94
12.3609 70.648
12.4058 67.4278
12.4507 67.2262
12.4956 67.619
12.5405 67.5216
12.5853 68.002
12.6302 68.2672
12.6751 69.1126
12.72 70.0409
12.7649 71.0025
12.8098 72.1597
12.8547 73.3493
12.8996 75.3392
12.9445 76.5052
12.9894 78.9174
13.0343 80.9653
13.0792 86.5879
13.1242 110.872
13.1691 148.827
13.214 175.318
13.2589 227.462
13.3038 317.291
13.3487 416.284
13.3937 312.259
13.4386 151.653
13.4835 134.83
13.5285 154.535
13.5734 174.422
13.6183 223.889
13.6633 307.909
13.7082 355.486
13.7531 228.787
13.7981 113.438
13.843 87.5225
13.888 84.4802
13.9329 81.6623
13.9779 80.2833
14.0228 78.9235
14.0678 77.4271
14.1127 76.5788
14.1577 75.5894
14.2027 75.153
14.2476 74.384
14.2926 73.7385
14.3376 73.2731
14.3825 73.1586
14.4275 72.7407
14.4725 72.9469
14.5175 72.8268
14.5624 72.8739
14.6074 73.2465
14.6524 73.8823
14.6974 74.9034
14.7424 81.114
14.7874 95.8788
14.8324 107.266
14.8774 119.584
14.9224 144.267
14.9674 185.537
15.0124 222.082
15.0574 173.262
15.1024 104.457
15.1474 77.5183
15.1924 74.0384
15.2374 72.8273
15.2824 71.8146
15.3274 70.6589
15.3725 70.5597
15.4175 70.2132
15.4625 69.7653
15.5076 69.2365
15.5526 69.5565
15.5976 69.8389
15.6426 75.0592
15.6877 87.0222
15.7327 95.7807
15.7778 103.695
15.8228 121.997
15.8679 151.842
15.9129 188.769
15.958 178.141
16.003 113.884
16.0481 73.8668
16.0931 66.3393
16.1382 64.1559
16.1833 63.1966
16.2283 61.9604
16.2734 61.093
16.3185 60.4463
16.3636 59.9
16.4086 58.828
16.4537 58.7271
16.4988 58.4055
16.5439 58.1924
16.589 57.7437
16.6341 57.6274
16.6792 57.0535
16.7243 57.6044
16.7694 57.3976
16.8145 57.3145
16.8596 57.4305
16.9047 57.85
16.9498 57.9509
16.9949 58.0305
17.04 59.3672
17.0851 62.0971
17.1302 63.9149
17.1754 65.7982
17.2205 68.8801
17.2656 73.8497
17.3108 81.9199
17.3559 85.9127
17.401 77.6858
17.4462 67.0878
17.4913 62.6783
17.5365 62.0549
17.5815 62.3968
17.6268 62.9407
17.6718 63.411
17.7171 63.9046
17.7622 64.8046
17.8074 66.5114
17.8525 72.5621
17.8977 78.6216
17.9428 83.0559
17.9881 88.2063
18.0331 98.8832
18.0784 114.582
18.1237 138.092
18.1688 145.814
18.214 120.059
18.2591 94.225
18.3044 90.1461
18.3495 96.4559
18.3948 106.281
18.4399 102.602
18.4852 84.5409
18.5303 70.4226
18.5756 65.7997
18.6207 64.4809
18.666 63.5872
18.7112 62.7924
18.7565 62.146
18.8016 61.7969
18.8469 61.0683
18.892 60.8941
18.9374 60.38
18.9825 59.9007
19.0278 59.9475
19.073 60.5519
19.1183 61.6884
19.1635 62.2027
19.2088 63.1443
19.254 64.8122
19.2993 67.215
19.3447 71.3026
19.3898 76.3779
19.4352 76.2281
19.4804 69.0113
19.5257 60.9471
19.5709 57.3784
19.6163 56.7667
19.6615 56.6501
19.7068 56.0898
19.752 56.0875
19.7974 57.283
19.8426 58.5135
19.888 58.7483
19.9332 59.8881
19.9786 61.5835
20.0238 64.1921
20.0692 68.1327
20.1144 72.5074
20.1598 73.1861
20.205 68.192
20.2504 64.4629
20.2957 64.5312
20.3411 66.7326
20.3863 67.4812
20.4318 62.8308
20.477 56.7841
20.5224 53.7371
20.5677 53.083
20.6131 52.7746
20.6586 52.1657
20.7038 52.0836
20.7493 51.6323
20.7945 51.6416
20.84 51.4321
20.8853 51.2034
20.9307 51.3008
20.976 51.3939
21.0215 51.235
21.0668 51.678
21.1122 51.821
21.1575 52.2978
21.203 52.6737
21.2483 53.3713
21.2938 54.108
21.3391 53.0071
21.3846 51.7805
21.4299 51.1755
21.4754 50.9602
21.5207 51.3962
21.5662 51.805
21.6116 52.8805
21.6571 53.8108
21.7024 54.3729
21.7479 55.6262
21.7933 57.5057
21.8388 60.2006
21.8843 63.4626
21.9297 66.5861
21.9752 66.8311
22.0206 63.5136
22.0661 59.0816
22.1115 57.7774
22.157 58.2892
22.2024 57.5895
22.248 54.716
22.2933 52.7701
22.3389 51.5084
22.3843 51.2523
22.4299 51.0315
22.4753 51.1467
22.5208 51.1385
22.5662 51.1682
22.6118 51.396
22.6572 51.9679
22.7028 52.6461
22.7483 52.9668
22.7939 53.2378
22.8393 54.4472
22.8849 55.6108
22.9303 57.1179
22.9759 59.1858
23.0214 60.1193
23.067 58.2215
23.1126 54.6587
23.1581 52.262
23.2037 51.4356
23.2492 52.0328
23.2948 52.176
23.3403 52.5678
23.3859 52.8081
23.4314 53.2433
23.477 54.2142
23.5225 55.5337
23.5682 57.5495
23.6137 59.6549
23.6593 58.8575
23.7048 55.4026
23.7505 51.4095
23.796 49.2334
23.8417 48.3265
23.8872 47.8714
23.9329 47.4971
23.9784 47.2306
24.0241 46.7783
24.0697 46.7385
24.1154 46.1145
24.1609 46.1518
24.2066 45.9907
24.2522 46.0278
24.2979 45.6704
24.3434 45.456
24.3892 45.2548
24.4349 45.19
24.4805 45.197
24.5262 45.146
24.5718 44.9441
24.6175 44.9432
24.6631 44.8658
24.7089 44.6054
24.7545 44.5589
24.8002 44.4902
24.8458 44.6042
24.8916 44.346
24.9372 44.4769
24.983 44.8617
25.0286 45.2185
25.0744 45.2993
25.12 45.7775
25.1658 46.2529
25.2114 46.6743
25.2572 46.6661
25.3029 46.5933
25.3487 46.7744
25.3943 46.8053
25.4402 46.0492
25.4858 44.9298
25.5316 43.733
25.5773 43.1646
25.6231 42.9358
25.669 42.5431
25.7147 42.7597
25.7605 42.5775
25.8062 42.5727
25.8521 42.732
25.8977 42.5848
25.9436 42.7166
25.9893 42.8038
26.0352 43.0683
26.0809 43.1732
26.1268 43.553
26.1725 43.5602
26.2184 43.0724
26.2641 42.6312
26.31 42.2218
26.3557 42.1935
26.4017 42.1538
26.4474 42.5103
26.4933 42.6322
26.5391 42.9218
26.585 43.2054
26.6308 43.7446
26.6767 43.978
26.7225 43.9756
26.7684 43.6335
26.8142 42.8454
26.8601 42.4489
26.9059 42.118
26.9519 41.6152
26.9979 41.2767
27.0437 41.0158
27.0896 40.7457
27.1354 40.6843
27.1814 40.5053
27.2272 40.4293
27.2732 40.4984
27.3191 40.1444
27.3651 40.3387
27.4109 40.3069
27.4569 40.2375
27.5027 40.2275
27.5488 40.4077
27.5946 40.3361
27.6407 40.0544
27.6865 40.1103
27.7326 39.7233
27.7784 39.902
27.8245 39.753
27.8703 39.8051
27.9164 40.0868
27.9623 40.0393
28.0084 40.4632
28.0543 40.7986
28.1003 40.8011
28.1462 40.5487
28.1923 40.3298
28.2384 39.8528
28.2843 39.4526
28.3304 39.1687
28.3764 38.5078
28.4225 38.2678
28.4684 38.0211
28.5145 37.6972
28.5605 37.5553
28.6066 37.4287
28.6526 37.3355
28.6987 37.2409
28.7447 37.1451
28.7908 37.2187
28.8368 37.0206
28.8829 36.9212
28.9289 36.9076
28.9751 36.9696
29.0211 36.7123
29.0673 36.3403
29.1133 36.203
29.1595 36.1221
29.2055 35.9777
29.2517 36.0102
29.2977 35.8572
29.3439 35.7667
29.3899 35.8414
29.4361 35.7229
29.4824 35.5695
29.5284 35.4231
29.5746 35.0421
29.6207 34.8307
29.6669 34.7054
29.713 34.6541
29.7593 34.4696
29.8053 34.5719
29.8516 34.3292
29.8977 34.2465
29.9439 34.2193
29.99 34.1177
30.0363 33.9758
30.0824 34.1085
30.1287 33.989
30.1748 33.955
30.2211 33.9543
30.2673 33.9061
30.3136 33.882
30.3597 33.8094
30.406 33.7483
30.4522 33.615
30.4985 33.648
30.5447 33.6819
30.591 33.5341
30.6372 33.706
30.6835 33.6951
30.7297 33.7701
30.7761 33.653
30.8224 33.5676
30.8686 33.3111
30.915 33.181
30.9612 33.0772
31.0076 32.9766
31.0538 32.6974
31.1002 32.682
31.1464 32.3834
31.1928 32.4764
31.2391 32.469
31.2855 32.4612
31.3317 32.3426
31.3781 32.4562
31.4244 32.3125
31.4708 32.2787
31.5171 32.2334
31.5636 32.349
31.6098 32.1195
31.6563 31.9032
31.7026 31.6578
31.7491 31.6078
31.7953 31.6687
31.8418 31.4699
31.8881 31.5426
31.9346 31.49
31.9809 31.493
32.0275 31.3401
32.074 31.2714
32.1203 31.0352
32.1668 30.9603
32.2132 30.8534
32.2597 30.6971
32.306 30.6123
32.3526 30.3602
32.399 30.3727
32.4455 30.1679
32.4919 30.023
32.5385 30.095
32.5848 29.932
32.6314 29.8902
32.6778 29.8203
32.7244 29.7374
32.7708 29.4964
32.8174 29.5703
32.8638 29.4296
32.9104 29.4716
32.9569 29.4385
33.0035 29.2464
33.0499 29.235
33.0966 29.1162
33.143 29.0895
33.1897 28.972
33.2361 28.9319
33.2828 28.8225
33.3293 28.624
33.3759 28.6436
33.4226 28.5873
33.4691 28.3858
33.5158 28.3322
33.5623 28.2186
33.609 28.0314
33.6555 28.0122
33.7022 27.8876
33.7487 27.7938
33.7954 27.7741
33.842 27.6181
33.8887 27.5285
33.9353 27.4983
33.982 27.4942
34.0286 27.2869
34.0753 27.2888
34.1219 27.1246
34.1687 27.1118
34.2152 27.012
34.262 26.8505
34.3086 26.8677
34.3554 26.821
34.402 26.6116
34.4488 26.503
34.4954 26.5998
34.5422 26.4409
34.5889 26.2373
34.6357 26.1715
34.6825 26.1165
34.7292 26.0464
34.776 25.9408
34.8227 25.836
34.8695 25.7011
34.9162 25.8329
34.9631 25.5989
35.0098 25.7276
35.0566 25.4545
35.1033 25.5088
35.1502 25.4026
35.1969 25.3673
35.2438 25.2875
35.2906 25.2559
35.3375 25.2231
35.3842 25.0827
35.4311 25.0062
35.4779 25.0719
35.5248 25.0405
35.5716 24.9221
35.6185 24.8647
35.6653 24.7833
35.7123 24.6237
35.759 24.5697
35.806 24.449
35.8528 24.4067
35.8998 24.3554
35.9468 24.2284
35.9936 24.1732
36.0406 24.0938
36.0874 24.1767
36.1345 23.999
36.1813 23.8678
36.2283 23.8402
36.2752 23.7205
36.3222 23.8139
36.3691 23.6721
36.4161 23.4766
36.463 23.4957
36.5101 23.5152
36.557 23.4178
36.6041 23.1847
36.651 23.2059
36.6981 23.132
36.745 23.058
36.7921 23.1109
36.839 22.9083
36.8861 22.8448
36.9331 22.8111
36.9802 22.7111
37.0272 22.676
37.0743 22.5446
37.1213 22.5598
37.1684 22.4278
37.2154 22.3915
37.2626 22.3069
37.3098 22.217
37.3568 22.1064
37.404 22.0997
37.451 22.0369
37.4982 21.9589
37.5452 21.8043
37.5924 21.7575
37.6395 21.8118
37.6867 21.7369
37.7337 21.5584
37.781 21.5145
37.8281 21.4804
37.8753 21.3673
37.9224 21.2574
37.9697 21.189
38.0168 21.1611
38.064 21.0748
38.1111 21.0983
38.1584 20.9421
38.2056 20.9085
38.2529 20.8807
38.3 20.7528
38.3473 20.7759
38.3945 20.6147
38.4418 20.6474
38.489 20.5686
38.5363 20.4366
38.5837 20.4146
38.6309 20.3868
38.6782 20.2574
38.7254 20.1876
38.7728 20.144
38.82 19.9803
38.8674 19.9859
38.9146 19.9119
38.9621 19.8932
39.0093 19.7961
39.0567 19.7026
39.104 19.691
39.1514 19.5997
39.1987 19.5712
39.2461 19.471
39.2934 19.5181
39.3409 19.3474
39.3882 19.294
39.4356 19.2022
39.483 19.15
39.5304 19.0504
39.5778 19.113
39.6253 18.9742
39.6726 18.9202
39.7201 18.9387
39.7675 18.8238
39.815 18.8446
39.8624 18.7305
39.9099 18.6292
39.9575 18.5309
40.0049 18.5158
40.0525 18.4508
40.0999 18.4677
40.1474 18.3738
40.1949 18.3096
40.2425 18.2048
40.2899 18.1538
40.3375 18.1483
40.385 18.0377
40.4326 18.0173
40.48 17.8983
40.5277 17.9289
40.5752 17.8433
40.6228 17.7408
40.6703 17.7111
40.718 17.6608
40.7655 17.6241
40.8132 17.4876
40.8607 17.5368
40.9084 17.4455
40.9559 17.3903
41.0036 17.2996
41.0512 17.2638
41.0989 17.2665
41.1465 17.2221
41.1942 17.0895
41.242 17.0524
41.2896 17.0147
41.3373 16.9234
41.3849 16.9146
41.4327 16.7978
41.4803 16.7185
41.5281 16.6627
41.5758 16.6161
41.6236 16.5772
41.6712 16.5181
41.7191 16.4357
41.7667 16.3831
41.8146 16.3818
41.8622 16.2886
41.9101 16.2434
41.9578 16.1674
42.0057 16.2082
42.0534 16.0283
42.1013 16.0557
42.149 16.0048
42.1969 15.9206
42.2446 15.9046
42.2925 15.8687
42.3403 15.7242
42.3882 15.7819
42.436 15.6508
42.4839 15.6328
42.5319 15.5673
42.5797 15.4769
42.6277 15.4685
42.6755 15.393
42.7235 15.3527
42.7713 15.3429
42.8193 15.237
42.8671 15.2111
42.9152 15.1955
42.963 15.0832
43.0111 15.0327
43.0589 14.968
43.107 14.9193
43.1549 14.9671
43.2029 14.8228
43.2508 14.8135
43.2989 14.7153
43.3468 14.6752
43.3949 14.6322
43.4429 14.5552
43.491 14.5357
43.5389 14.4703
43.5871 14.405
43.635 14.3311
43.6832 14.3418
43.7312 14.2455
43.7793 14.2145
43.8273 14.166
43.8755 14.0663
43.9237 14.1178
43.9717 14.0288
44.0199 13.992
44.068 13.9602
44.1162 13.9087
44.1642 13.8468
44.2125 13.8028
44.2606 13.7596
44.3088 13.735
44.3569 13.658
44.4052 13.6154
44.4533 13.5921
44.5016 13.5049
44.5497 13.4532
44.598 13.3943
44.6461 13.3773
44.6945 13.3336
44.7426 13.2798
44.791 13.1903
44.8391 13.1865
44.8875 13.1101
44.9357 13.1235
44.984 13.0783
45.0322 12.9728
45.0806 12.9409
45.1288 12.899
45.1773 12.8847
45.2257 12.8211
45.2739 12.7893
45.3224 12.6692
45.3706 12.7181
45.4191 12.6215
45.4673 12.5768
45.5158 12.5323
45.5641 12.4945
45.6126 12.4434
45.6609 12.3931
45.7094 12.3373
45.7577 12.3165
45.8063 12.2204
45.8546 12.2418
45.9031 12.1924
45.9515 12.167
46.0001 12.1105
46.0484 12.0591
46.097 12.0254
46.1454 11.9658
46.194 11.9385
46.2424 11.9097
46.291 11.832
46.3395 11.8116
46.3881 11.7425
46.4365 11.7439
46.4852 11.7053
46.5337 11.6234
46.5823 11.5821
46.631 11.5397
46.6795 11.5176
46.7282 11.4565
46.7767 11.4199
46.8254 11.3339
46.8739 11.3097
46.9226 11.2582
46.9712 11.2189
47.0199 11.2128
47.0685 11.1624
47.1173 11.1451
47.1658 11.1057
47.2146 11.0714
47.2632 10.9666
47.312 10.9821
47.3606 10.9174
47.4095 10.8575
47.4581 10.801
47.5069 10.8076
47.5556 10.7157
47.6044 10.6655
47.6531 10.6889
47.702 10.6174
47.7507 10.5304
47.7996 10.5291
47.8483 10.5077
47.8972 10.4878
47.9461 10.4168
47.9948 10.4121
48.0438 10.3293
48.0925 10.3369
48.1415 10.3045
48.1902 10.254
48.2392 10.2321
48.288 10.1887
48.337 10.1579
48.3858 10.0867
48.4348 10.0723
48.4837 10.0528
48.5327 10.0075
48.5815 9.9184
48.6306 9.94289
48.6795 9.87287
48.7285 9.85358
48.7774 9.80088
48.8265 9.7811
48.8754 9.74935
48.9245 9.73156
48.9734 9.6509
49.0226 9.66985
49.0715 9.60682
49.1206 9.59015
49.1696 9.52937
49.2188 9.50105
49.2679 9.45807
49.3169 9.41306
49.3661 9.3716
49.4151 9.33407
49.4643 9.34315
49.5134 9.29885
49.5626 9.22172
49.6117 9.18711
49.6609 9.14463
49.71 9.10855
49.7592 9.09116
49.8083 9.03766
49.8576 9.04685
49.9067 8.94023
49.956 8.94816
50.0052 8.91108
50.0545 8.89684
50.1036 8.83147
50.153 8.80737
50.2022 8.77061
50.2515 8.74057
50.3007 8.70767
50.3501 8.68177
50.3993 8.6252
50.4487 8.64976
50.498 8.56435
50.5474 8.5371
50.5966 8.53151
50.6461 8.50344
50.6955 8.45439
50.7448 8.43361
50.7943 8.41206
50.8436 8.36839
50.8931 8.36218
50.9424 8.2847
50.9919 8.25423
51.0413 8.22171
51.0908 8.14752
51.1402 8.20911
51.1897 8.10786
51.2391 8.09691
51.2887 8.08628
51.3381 8.04071
51.3877 7.99165
51.4371 7.95686
51.4867 7.90997
51.5362 7.89206
51.5858 7.85446
51.6353 7.85208
51.6849 7.79877
51.7344 7.73892
51.7841 7.73169
51.8336 7.68483
51.8833 7.68319
51.9328 7.62858
51.9826 7.5758
52.0323 7.60493
52.0818 7.54299
52.1316 7.488
52.1812 7.4815
52.231 7.46546
52.2806 7.4146
52.3304 7.35506
52.38 7.35079
52.4298 7.31922
52.4794 7.30672
52.5293 7.2666
52.5789 7.19922
52.6288 7.21221
52.6785 7.15657
52.7284 7.16899
52.7781 7.15726
52.828 7.09185
52.8777 7.06063
52.9276 7.0253
52.9774 7.00545
53.0273 6.95382
53.0771 6.92254
53.1271 6.94558
53.1769 6.88848
53.2269 6.88683
53.2767 6.86427
53.3267 6.77759
53.3765 6.74522
53.4266 6.7045
53.4766 6.68542
53.5265 6.68785
53.5765 6.6856
53.6264 6.62733
53.6765 6.58453
53.7264 6.60601
53.7765 6.53198
53.8265 6.46369
53.8766 6.51005
53.9266 6.44198
53.9767 6.44055
54.0267 6.39422
54.0769 6.34317
54.1269 6.30885
54.1771 6.28378
54.2271 6.26155
54.2773 6.18228
54.3274 6.22337
54.3776 6.1084
54.4277 6.11919
54.478 6.07186
54.528 5.99689
54.5783 5.95465
54.6285 5.95093
54.6788 5.88353
54.7289 5.86588
54.7792 5.8186
54.8296 5.79847
54.8798 5.6944
54.9301 5.66923
54.9803 5.67943
55.0307 5.69626
55.0809 5.54696
55.1314 5.55042
55.1816 5.42972
55.232 5.38478
55.2823 5.35949
55.3328 5.3131
55.383 5.27894
55.4335 5.26621
55.4838 5.15671
55.5344 5.14355
55.5847 5.08775
55.6352 5.03419
55.6856 5.02988
55.7361 4.97981