File: XRD/Ni3Fe_FD1041.xy
TT I
1.27165 7.1433
1.31627 6.15491
1.36089 6.15034
1.40551 5.61473
1.45013 5.94311
1.49476 5.51568
1.53938 5.27063
1.584 4.57401
1.62863 4.98721
1.67325 5.08586
1.71787 4.03842
1.7625 4.40417
1.80712 4.70174
1.85174 4.22811
1.89636 4.87173
1.94099 4.17171
1.98562 3.98425
2.03025 4.37555
2.07487 3.86157
2.11949 4.58434
2.16411 4.8168
2.20874 5.37415
2.25338 6.46321
2.298 4.92039
2.34263 4.75268
2.38725 5.50161
2.43188 6.20576
2.4765 7.30511
2.52115 7.40189
2.56577 7.30666
2.6104 8.61927
2.65503 7.88641
2.69965 8.64706
2.7443 8.21583
2.78893 8.32138
2.83356 8.05187
2.87818 8.9038
2.92281 8.88095
2.96744 9.89714
3.01209 10.2026
3.05672 10.9253
3.10135 12.1235
3.14599 12.6034
3.19062 14.1027
3.23527 14.8197
3.2799 14.9264
3.32454 15.9758
3.36917 17.2009
3.4138 18.2909
3.45844 18.8119
3.50309 19.8786
3.54773 20.9056
3.59237 21.3138
3.637 27.9554
3.68164 26.7852
3.7263 24.1009
3.77094 24.4261
3.81558 25.3385
3.86022 26.2983
3.90486 27.3549
3.9495 28.1167
3.99416 29.045
4.0388 30.575
4.08344 31.4831
4.12809 32.3618
4.17273 33.5047
4.21738 35.4354
4.26204 52.224
4.30669 56.1051
4.35133 40.8389
4.39598 40.9765
4.44063 43.3082
4.4853 45.913
4.52995 46.7399
4.5746 48.401
4.61925 50.1364
4.6639 52.5451
4.70855 54.8302
4.75322 57.5879
4.79788 60.7412
4.84253 63.9635
4.88719 67.9779
4.93184 71.3368
4.97652 76.7356
5.02118 82.513
5.06583 89.1262
5.11049 97.8863
5.15515 118.56
5.19981 230.472
5.24449 2470.35
5.28916 13470.4
5.33382 3284.39
5.37848 215.475
5.42315 124.119
5.46783 108.029
5.5125 100.546
5.55716 97.2846
5.60183 92.7305
5.6465 91.2261
5.69117 89.5587
5.73586 87.5966
5.78053 86.4419
5.8252 86.1055
5.86988 86.8884
5.91455 88.3208
5.95924 94.7349
6.00392 162.168
6.0486 887.121
6.09328 4582.9
6.13795 3567.89
6.18263 238.911
6.22733 87.3079
6.27201 75.6293
6.3167 72.9665
6.36138 68.578
6.40606 64.9298
6.45075 63.7399
6.49545 61.6535
6.54014 60.0292
6.58483 59.2156
6.62952 57.9555
6.67421 58.4341
6.71892 64.269
6.76361 56.4856
6.8083 54.4752
6.853 53.9984
6.89769 53.4592
6.94239 53.3738
6.98711 52.6644
7.03181 52.217
7.07651 52.281
7.12121 51.5584
7.16591 51.2515
7.21063 50.7998
7.25533 51.7084
7.30004 61.7205
7.34475 55.974
7.38945 51.6942
7.43416 51.0297
7.47889 51.8375
7.5236 59.6106
7.56831 74.9674
7.61303 56.8609
7.65774 52.8475
7.70247 53.0326
7.74719 52.9507
7.79191 53.6763
7.83663 53.8024
7.88135 54.9494
7.92607 55.5387
7.97081 56.4741
8.01553 57.6747
8.06026 59.0553
8.10498 59.8398
8.14971 61.9579
8.19446 63.537
8.23919 65.5207
8.28392 67.9205
8.32865 70.497
8.37339 73.8849
8.41812 77.4741
8.46288 86.3447
8.50761 128.115
8.55235 366.194
8.59709 1078.16
8.64183 2245.87
8.68658 1090.0
8.73134 175.673
8.77609 94.469
8.82083 88.1059
8.86558 85.3934
8.91033 83.3428
8.9551 82.1879
8.99985 80.6139
9.04461 79.8958
9.08936 79.1266
9.13412 78.8373
9.17888 79.436
9.22365 92.622
9.26841 117.04
9.31318 89.9762
9.35794 79.9053
9.4027 79.733
9.44749 80.1898
9.49226 81.1685
9.53703 81.6282
9.5818 82.7034
9.62657 84.091
9.67134 86.2025
9.71614 87.5857
9.76091 88.7934
9.80569 91.2421
9.85047 93.7911
9.89525 98.8857
9.94005 106.048
9.98484 146.582
10.0296 344.01
10.0744 768.158
10.1192 1748.39
10.164 1673.57
10.2088 439.26
10.2536 125.204
10.2984 102.615
10.3432 100.626
10.388 97.6232
10.4328 107.439
10.4776 159.391
10.5224 267.477
10.5672 504.126
10.612 555.593
10.6568 226.603
10.7017 104.847
10.7465 86.4995
10.7913 79.6978
10.8361 77.7997
10.8809 75.4415
10.9257 73.2405
10.9706 72.2903
11.0154 70.748
11.0602 68.9022
11.105 68.4185
11.1499 66.9446
11.1947 67.0628
11.2395 65.627
11.2844 64.7315
11.3292 63.3348
11.374 63.2533
11.4189 62.1635
11.4637 61.9467
11.5086 61.1724
11.5534 61.2706
11.5983 60.6426
11.6431 60.4709
11.688 59.8057
11.7328 59.7355
11.7777 59.6488
11.8225 59.6122
11.8674 59.6925
11.9122 61.8846
11.9571 68.8208
12.002 67.0773
12.0468 64.212
12.0917 76.66
12.1366 98.4848
12.1814 146.318
12.2263 205.88
12.2712 177.92
12.3161 98.7901
12.3609 64.458
12.4058 60.9209
12.4507 61.1069
12.4956 61.1236
12.5405 61.4005
12.5853 61.845
12.6302 62.4957
12.6751 63.8813
12.72 63.757
12.7649 64.3769
12.8098 65.1949
12.8547 66.3525
12.8996 67.8331
12.9445 69.1867
12.9894 70.6235
13.0343 72.3874
13.0792 76.5494
13.1242 82.3143
13.1691 107.217
13.214 146.558
13.2589 225.973
13.3038 362.93
13.3487 441.31
13.3937 279.956
13.4386 127.374
13.4835 99.0521
13.5285 119.549
13.5734 155.44
13.6183 235.959
13.6633 354.211
13.7082 360.296
13.7531 205.31
13.7981 100.115
13.843 79.3261
13.888 76.7122
13.9329 74.7111
13.9779 73.4414
14.0228 71.9597
14.0678 70.5958
14.1127 71.8084
14.1577 75.9447
14.2027 73.9593
14.2476 68.6966
14.2926 67.3176
14.3376 67.2489
14.3825 66.611
14.4275 66.0947
14.4725 66.0926
14.5175 66.3646
14.5624 66.1522
14.6074 66.3156
14.6524 66.7207
14.6974 67.3144
14.7424 68.5096
14.7874 74.3229
14.8324 88.4422
14.8774 109.283
14.9224 147.289
14.9674 207.144
15.0124 227.788
15.0574 161.061
15.1024 93.5201
15.1474 71.0118
15.1924 67.6772
15.2374 66.5917
15.2824 65.5776
15.3274 64.7643
15.3725 64.1366
15.4175 64.0521
15.4625 63.4993
15.5076 63.4045
15.5526 63.352
15.5976 63.42
15.6426 63.7713
15.6877 68.5578
15.7327 79.1737
15.7778 93.4751
15.8228 121.672
15.8679 168.653
15.9129 201.481
15.958 168.021
16.003 102.903
16.0481 69.4644
16.0931 62.8531
16.1382 59.8044
16.1833 58.2239
16.2283 56.7786
16.2734 56.0183
16.3185 55.3579
16.3636 54.9166
16.4086 54.2298
16.4537 53.9381
16.4988 53.3808
16.5439 53.41
16.589 53.0793
16.6341 52.7738
16.6792 52.3481
16.7243 52.7363
16.7694 52.6254
16.8145 52.5056
16.8596 52.7232
16.9047 53.4218
16.9498 54.1303
16.9949 53.7016
17.04 53.7108
17.0851 54.6645
17.1302 56.9449
17.1754 59.9588
17.2205 64.4783
17.2656 72.1767
17.3108 81.672
17.3559 82.4328
17.401 71.5479
17.4462 61.403
17.4913 57.4284
17.5365 57.0589
17.5815 57.194
17.6268 57.6345
17.6718 58.0463
17.7171 58.5711
17.7622 59.9147
17.8074 60.5908
17.8525 61.6366
17.8977 66.2154
17.9428 73.0225
17.9881 81.4018
18.0331 97.3142
18.0784 120.875
18.1237 142.111
18.1688 137.348
18.214 108.716
18.2591 87.8013
18.3044 88.6315
18.3495 99.2335
18.3948 106.98
18.4399 98.1503
18.4852 79.4386
18.5303 65.6974
18.5756 61.3689
18.6207 59.8901
18.666 58.9845
18.7112 57.9572
18.7565 57.1331
18.8016 56.7324
18.8469 56.2969
18.892 56.1389
18.9374 55.5405
18.9825 55.2505
19.0278 54.8096
19.073 55.1119
19.1183 55.0697
19.1635 56.1003
19.2088 57.8498
19.254 60.4648
19.2993 65.2726
19.3447 72.0439
19.3898 76.1028
19.4352 72.3333
19.4804 63.22
19.5257 56.1307
19.5709 52.8849
19.6163 52.4401
19.6615 52.2708
19.7068 51.8342
19.752 51.7049
19.7974 51.8282
19.8426 52.5935
19.888 53.6196
19.9332 55.0263
19.9786 57.4659
20.0238 60.8204
20.0692 66.1837
20.1144 70.329
20.1598 68.9331
20.205 64.0454
20.2504 61.7291
20.2957 63.278
20.3411 65.4826
20.3863 64.0881
20.4318 57.9625
20.477 52.6983
20.5224 49.868
20.5677 49.2052
20.6131 48.7995
20.6586 48.1501
20.7038 48.1802
20.7493 48.1692
20.7945 48.0018
20.84 47.8708
20.8853 47.3378
20.9307 47.1553
20.976 47.2923
21.0215 47.2392
21.0668 47.7021
21.1122 48.0148
21.1575 48.5892
21.203 49.3426
21.2483 50.4063
21.2938 50.3887
21.3391 49.0074
21.3846 47.753
21.4299 47.27
21.4754 47.1308
21.5207 47.4541
21.5662 47.5188
21.6116 47.6582
21.6571 48.9982
21.7024 49.6945
21.7479 51.5575
21.7933 54.0676
21.8388 57.8416
21.8843 62.653
21.9297 65.0012
21.9752 63.7637
22.0206 59.7264
22.0661 56.1708
22.1115 55.8467
22.157 55.862
22.2024 54.0606
22.248 51.0322
22.2933 48.9886
22.3389 47.9498
22.3843 47.6018
22.4299 47.3047
22.4753 47.4119
22.5208 47.2315
22.5662 47.2481
22.6118 47.4484
22.6572 47.5537
22.7028 48.1101
22.7483 48.898
22.7939 49.5786
22.8393 51.1855
22.8849 53.1665
22.9303 55.4728
22.9759 57.6875
23.0214 57.339
23.067 54.6582
23.1126 50.8488
23.1581 48.5136
23.2037 47.8296
23.2492 47.6792
23.2948 47.8016
23.3403 48.2372
23.3859 49.2068
23.4314 50.2227
23.477 51.8025
23.5225 54.3154
23.5682 57.1568
23.6137 58.5134
23.6593 56.4001
23.7048 51.9537
23.7505 48.2053
23.796 46.0065
23.8417 45.0983
23.8872 44.5504
23.9329 44.1364
23.9784 44.0188
24.0241 43.5316
24.0697 43.403
24.1154 43.0848
24.1609 42.8124
24.2066 42.6948
24.2522 42.6062
24.2979 42.3269
24.3434 42.239
24.3892 42.0922
24.4349 42.0718
24.4805 41.8761
24.5262 42.0997
24.5718 41.9815
24.6175 42.0734
24.6631 42.0571
24.7089 41.6613
24.7545 41.454
24.8002 41.1921
24.8458 41.2491
24.8916 41.2314
24.9372 41.2391
24.983 41.5212
25.0286 41.9361
25.0744 42.4087
25.12 43.0516
25.1658 43.9107
25.2114 44.1483
25.2572 44.4312
25.3029 44.4751
25.3487 44.5691
25.3943 44.3075
25.4402 43.1799
25.4858 41.938
25.5316 40.7631
25.5773 40.2137
25.6231 39.9969
25.669 39.7049
25.7147 39.6326
25.7605 39.5798
25.8062 39.5741
25.8521 39.8393
25.8977 39.799
25.9436 40.0693
25.9893 40.1803
26.0352 40.8476
26.0809 40.9282
26.1268 41.1567
26.1725 40.9099
26.2184 40.2423
26.2641 39.5283
26.31 39.3576
26.3557 39.4135
26.4017 39.3809
26.4474 39.7172
26.4933 40.0369
26.5391 40.5039
26.585 41.1284
26.6308 41.6361
26.6767 41.8459
26.7225 41.689
26.7684 41.1308
26.8142 40.4773
26.8601 39.9988
26.9059 39.6615
26.9519 39.0074
26.9979 38.7589
27.0437 38.3338
27.0896 37.996
27.1354 38.0163
27.1814 37.9079
27.2272 37.8104
27.2732 37.8284
27.3191 37.562
27.3651 37.6887
27.4109 37.6367
27.4569 37.9037
27.5027 37.9165
27.5488 38.0077
27.5946 37.8351
27.6407 37.4102
27.6865 37.4746
27.7326 37.237
27.7784 37.2199
27.8245 37.1174
27.8703 37.2884
27.9164 37.6931
27.9623 37.8643
28.0084 38.2563
28.0543 38.8519
28.1003 38.7513
28.1462 38.5518
28.1923 38.2419
28.2384 37.8243
28.2843 37.2714
28.3304 36.7958
28.3764 36.2096
28.4225 35.835
28.4684 35.5971
28.5145 35.3241
28.5605 35.1202
28.6066 35.0435
28.6526 34.9569
28.6987 34.9534
28.7447 34.7209
28.7908 34.6914
28.8368 34.8013
28.8829 34.7746
28.9289 34.6571
28.9751 34.6573
29.0211 34.3547
29.0673 34.0352
29.1133 33.9514
29.1595 33.6629
29.2055 33.5249
29.2517 33.6796
29.2977 33.6627
29.3439 33.6009
29.3899 33.7742
29.4361 33.582
29.4824 33.501
29.5284 33.1153
29.5746 32.8173
29.6207 32.6391
29.6669 32.4463
29.713 32.3685
29.7593 32.1641
29.8053 32.1659
29.8516 32.0465
29.8977 32.0405
29.9439 31.9036
29.99 31.8818
30.0363 31.8213
30.0824 31.9252
30.1287 31.814
30.1748 31.7647
30.2211 31.8029
30.2673 31.6955
30.3136 31.7736
30.3597 31.6381
30.406 31.5597
30.4522 31.5146
30.4985 31.5161
30.5447 31.6534
30.591 31.61
30.6372 31.7811
30.6835 31.6141
30.7297 31.816
30.7761 31.6462
30.8224 31.5596
30.8686 31.4013
30.915 31.1706
30.9612 31.002
31.0076 30.7424
31.0538 30.7035
31.1002 30.5899
31.1464 30.3995
31.1928 30.406
31.2391 30.4578
31.2855 30.3796
31.3317 30.377
31.3781 30.4549
31.4244 30.4117
31.4708 30.3352
31.5171 30.3945
31.5636 30.3974
31.6098 30.1062
31.6563 29.9168
31.7026 29.7768
31.7491 29.6622
31.7953 29.6351
31.8418 29.6872
31.8881 29.7383
31.9346 29.711
31.9809 29.5709
32.0275 29.5098
32.074 29.2995
32.1203 29.1943
32.1668 29.0634
32.2132 28.865
32.2597 28.7508
32.306 28.6944
32.3526 28.445
32.399 28.3979
32.4455 28.2483
32.4919 28.1986
32.5385 28.1165
32.5848 28.001
32.6314 28.0404
32.6778 27.8296
32.7244 27.8292
32.7708 27.5792
32.8174 27.7028
32.8638 27.5425
32.9104 27.5902
32.9569 27.5289
33.0035 27.3471
33.0499 27.3424
33.0966 27.411
33.143 27.3457
33.1897 27.2658
33.2361 27.1933
33.2828 27.2251
33.3293 26.9979
33.3759 27.0019
33.4226 26.8069
33.4691 26.7392
33.5158 26.6193
33.5623 26.4242
33.609 26.2336
33.6555 26.2597
33.7022 26.0613
33.7487 26.0571
33.7954 26.0713
33.842 25.9484
33.8887 25.8407
33.9353 25.8205
33.982 25.6507
34.0286 25.5959
34.0753 25.5577
34.1219 25.4424
34.1687 25.386
34.2152 25.2714
34.262 25.1678
34.3086 25.1002
34.3554 25.0859
34.402 25.0236
34.4488 24.8688
34.4954 24.698
34.5422 24.6387
34.5889 24.6109
34.6357 24.4389
34.6825 24.4421
34.7292 24.3428
34.776 24.3216
34.8227 24.2514
34.8695 24.1993
34.9162 24.183
34.9631 24.0459
35.0098 24.0138
35.0566 23.884
35.1033 23.836
35.1502 23.8606
35.1969 23.7918
35.2438 23.7612
35.2906 23.7105
35.3375 23.6502
35.3842 23.5638
35.4311 23.5795
35.4779 23.5624
35.5248 23.5334
35.5716 23.3911
35.6185 23.3393
35.6653 23.2231
35.7123 23.1587
35.759 23.0865
35.806 23.0026
35.8528 22.8379
35.8998 22.8449
35.9468 22.6367
35.9936 22.6842
36.0406 22.6326
36.0874 22.5701
36.1345 22.5015
36.1813 22.386
36.2283 22.302
36.2752 22.2232
36.3222 22.2785
36.3691 22.1622
36.4161 22.0785
36.463 22.08
36.5101 22.0792
36.557 21.9964
36.6041 21.798
36.651 21.7855
36.6981 21.7628
36.745 21.6998
36.7921 21.5291
36.839 21.4735
36.8861 21.3932
36.9331 21.3627
36.9802 21.3394
37.0272 21.2292
37.0743 21.1825
37.1213 21.0838
37.1684 21.1235
37.2154 20.975
37.2626 20.901
37.3098 20.845
37.3568 20.7667
37.404 20.6881
37.451 20.6578
37.4982 20.548
37.5452 20.5205
37.5924 20.4492
37.6395 20.4767
37.6867 20.3688
37.7337 20.2607
37.781 20.1478
37.8281 20.1231
37.8753 20.018
37.9224 19.938
37.9697 19.8822
38.0168 19.8922
38.064 19.8274
38.1111 19.7133
38.1584 19.632
38.2056 19.5458
38.2529 19.6301
38.3 19.4721
38.3473 19.5304
38.3945 19.3781
38.4418 19.3793
38.489 19.2811
38.5363 19.1982
38.5837 19.0659
38.6309 19.1021
38.6782 19.014
38.7254 18.9058
38.7728 18.8804
38.82 18.7501
38.8674 18.7788
38.9146 18.7441
38.9621 18.5986
39.0093 18.5944
39.0567 18.4761
39.104 18.447
39.1514 18.3467
39.1987 18.3631
39.2461 18.3336
39.2934 18.2163
39.3409 18.1175
39.3882 18.0971
39.4356 18.0281
39.483 17.9734
39.5304 17.8976
39.5778 17.8979
39.6253 17.8075
39.6726 17.7488
39.7201 17.7504
39.7675 17.6587
39.815 17.6385
39.8624 17.5235
39.9099 17.5099
39.9575 17.4154
40.0049 17.3975
40.0525 17.3743
40.0999 17.2807
40.1474 17.2486
40.1949 17.1463
40.2425 17.0426
40.2899 17.018
40.3375 17.0118
40.385 16.9478
40.4326 16.9231
40.48 16.8401
40.5277 16.8029
40.5752 16.7122
40.6228 16.6986
40.6703 16.6828
40.718 16.5753
40.7655 16.5246
40.8132 16.5115
40.8607 16.4959
40.9084 16.4648
40.9559 16.3563
41.0036 16.2888
41.0512 16.2418
41.0989 16.1686
41.1465 16.0492
41.1942 16.11
41.242 15.9784
41.2896 15.9239
41.3373 15.9004
41.3849 15.8661
41.4327 15.8146
41.4803 15.7353
41.5281 15.6759
41.5758 15.5776
41.6236 15.5002
41.6712 15.5497
41.7191 15.498
41.7667 15.3474
41.8146 15.4206
41.8622 15.3405
41.9101 15.275
41.9578 15.1837
42.0057 15.1643
42.0534 15.1043
42.1013 15.0449
42.149 15.034
42.1969 14.9521
42.2446 14.9385
42.2925 14.8621
42.3403 14.7852
42.3882 14.8175
42.436 14.7214
42.4839 14.6717
42.5319 14.6082
42.5797 14.4892
42.6277 14.4965
42.6755 14.4398
42.7235 14.4062
42.7713 14.3568
42.8193 14.3082
42.8671 14.3089
42.9152 14.2411
42.963 14.155
43.0111 14.1552
43.0589 14.0874
43.107 14.0118
43.1549 14.0139
43.2029 13.8968
43.2508 13.9123
43.2989 13.8239
43.3468 13.7469
43.3949 13.714
43.4429 13.7457
43.491 13.6297
43.5389 13.6014
43.5871 13.5786
43.635 13.4868
43.6832 13.4663
43.7312 13.3746
43.7793 13.3066
43.8273 13.2912
43.8755 13.2632
43.9237 13.2557
43.9717 13.1824
44.0199 13.1578
44.068 13.0744
44.1162 13.0904
44.1642 13.0407
44.2125 12.9423
44.2606 12.9115
44.3088 12.8335
44.3569 12.8186
44.4052 12.78
44.4533 12.7013
44.5016 12.6592
44.5497 12.6543
44.598 12.6198
44.6461 12.5341
44.6945 12.5585
44.7426 12.4482
44.791 12.3843
44.8391 12.3619
44.8875 12.3589
44.9357 12.2801
44.984 12.2536
45.0322 12.2184
45.0806 12.1169
45.1288 12.1039
45.1773 12.0806
45.2257 12.0263
45.2739 12.0305
45.3224 11.9636
45.3706 11.9489
45.4191 11.8315
45.4673 11.8415
45.5158 11.7804
45.5641 11.7494
45.6126 11.7172
45.6609 11.6812
45.7094 11.6049
45.7577 11.563
45.8063 11.5134
45.8546 11.5095
45.9031 11.4305
45.9515 11.3974
46.0001 11.3263
46.0484 11.3148
46.097 11.2502
46.1454 11.3059
46.194 11.2109
46.2424 11.1694
46.291 11.1061
46.3395 11.0904
46.3881 11.0101
46.4365 11.0402
46.4852 10.9694
46.5337 10.9302
46.5823 10.8814
46.631 10.8494
46.6795 10.814
46.7282 10.804
46.7767 10.7156
46.8254 10.668
46.8739 10.6152
46.9226 10.595
46.9712 10.5356
47.0199 10.5487
47.0685 10.5113
47.1173 10.4659
47.1658 10.4027
47.2146 10.3696
47.2632 10.3518
47.312 10.299
47.3606 10.2571
47.4095 10.2029
47.4581 10.1799
47.5069 10.1386
47.5556 10.1253
47.6044 10.1022
47.6531 10.0464
47.702 9.96648
47.7507 9.95826
47.7996 9.88895
47.8483 9.86798
47.8972 9.87127
47.9461 9.81321
47.9948 9.75784
48.0438 9.73735
48.0925 9.68142
48.1415 9.66705
48.1902 9.60394
48.2392 9.6159
48.288 9.56805
48.337 9.5407
48.3858 9.48293
48.4348 9.46099
48.4837 9.42092
48.5327 9.40428
48.5815 9.34158
48.6306 9.344
48.6795 9.28063
48.7285 9.25191
48.7774 9.21655
48.8265 9.1959
48.8754 9.11507
48.9245 9.15104
48.9734 9.06898
49.0226 9.04674
49.0715 9.02536
49.1206 8.95744
49.1696 8.94929
49.2188 8.93272
49.2679 8.85464
49.3169 8.83078
49.3661 8.82898
49.4151 8.78773
49.4643 8.75233
49.5134 8.70707
49.5626 8.67082
49.6117 8.65472
49.6609 8.62229
49.71 8.56308
49.7592 8.54975
49.8083 8.49274
49.8576 8.52035
49.9067 8.40462
49.956 8.43639
50.0052 8.38072
50.0545 8.36691
50.1036 8.33136
50.153 8.28919
50.2022 8.24096
50.2515 8.19886
50.3007 8.17724
50.3501 8.10892
50.3993 8.14149
50.4487 8.09901
50.498 8.09044
50.5474 8.03633
50.5966 8.03361
50.6461 7.95787
50.6955 7.95403
50.7448 7.91106
50.7943 7.88147
50.8436 7.83827
50.8931 7.81707
50.9424 7.79631
50.9919 7.79708
51.0413 7.74656
51.0908 7.68658
51.1402 7.68725
51.1897 7.63372
51.2391 7.57955
51.2887 7.5619
51.3381 7.53357
51.3877 7.52486
51.4371 7.47148
51.4867 7.42703
51.5362 7.44796
51.5858 7.37106
51.6353 7.35153
51.6849 7.32714
51.7344 7.32533
51.7841 7.29868
51.8336 7.2296
51.8833 7.18158
51.9328 7.15913
51.9826 7.16642
52.0323 7.1122
52.0818 7.13438
52.1316 7.04748
52.1812 7.04266
52.231 6.99877
52.2806 6.95532
52.3304 6.94897
52.38 6.92196
52.4298 6.90943
52.4794 6.80136
52.5293 6.83099
52.5789 6.81657
52.6288 6.79814
52.6785 6.71624
52.7284 6.72259
52.7781 6.67654
52.828 6.68047
52.8777 6.63577
52.9276 6.59254
52.9774 6.56618
53.0273 6.5708
53.0771 6.51748
53.1271 6.55076
53.1769 6.44923
53.2269 6.46031
53.2767 6.42954
53.3267 6.359
53.3765 6.34889
53.4266 6.31518
53.4766 6.28136
53.5265 6.25675
53.5765 6.25991
53.6264 6.21344
53.6765 6.18572
53.7264 6.1237
53.7765 6.13648
53.8265 6.11052
53.8766 6.06449
53.9266 6.04655
53.9767 6.04826
54.0267 6.01783
54.0769 5.92404
54.1269 5.95768
54.1771 5.93469
54.2271 5.9084
54.2773 5.87933
54.3274 5.7916
54.3776 5.77905
54.4277 5.77332
54.478 5.76931
54.528 5.72921
54.5783 5.67956
54.6285 5.6836
54.6788 5.5909
54.7289 5.57879
54.7792 5.50372
54.8296 5.46859
54.8798 5.40215
54.9301 5.39785
54.9803 5.35426
55.0307 5.3572
55.0809 5.29977
55.1314 5.24555
55.1816 5.21184
55.232 5.10547
55.2823 5.13162
55.3328 5.10002
55.383 4.98522
55.4335 5.02024
55.4838 4.91355
55.5344 4.88168
55.5847 4.855
55.6352 4.81287
55.6856 4.80179
55.7361 4.7895