File: XRD/Ni3Fe_FD1046.xy
TT I
1.27165 6.92992
1.31627 6.05718
1.36089 6.67973
1.40551 6.06297
1.45013 5.32968
1.49476 5.17148
1.53938 5.46465
1.584 5.26661
1.62863 5.21384
1.67325 4.92295
1.71787 5.0467
1.7625 4.63068
1.80712 4.46143
1.85174 4.85799
1.89636 4.69318
1.94099 4.51369
1.98562 4.20432
2.03025 4.02169
2.07487 4.15192
2.11949 4.18357
2.16411 3.92816
2.20874 5.04315
2.25338 6.44687
2.298 5.27811
2.34263 5.40116
2.38725 6.025
2.43188 6.64741
2.4765 6.90699
2.52115 7.16457
2.56577 7.44902
2.6104 8.27374
2.65503 8.13074
2.69965 8.51937
2.7443 8.27164
2.78893 8.83198
2.83356 8.60554
2.87818 8.85259
2.92281 9.12877
2.96744 9.33284
3.01209 10.4927
3.05672 10.476
3.10135 12.1846
3.14599 12.6621
3.19062 13.4049
3.23527 15.1633
3.2799 15.1178
3.32454 16.7602
3.36917 16.9309
3.4138 18.5085
3.45844 18.624
3.50309 20.034
3.54773 20.2312
3.59237 21.5745
3.637 27.5846
3.68164 26.7481
3.7263 24.0128
3.77094 24.503
3.81558 25.3855
3.86022 26.4938
3.90486 27.7494
3.9495 27.8525
3.99416 29.1559
4.0388 30.4166
4.08344 31.7068
4.12809 32.7075
4.17273 33.8187
4.21738 35.4853
4.26204 52.8576
4.30669 57.4078
4.35133 40.5831
4.39598 40.7691
4.44063 43.2079
4.4853 46.388
4.52995 46.7403
4.5746 48.1537
4.61925 51.1414
4.6639 53.0355
4.70855 55.9384
4.75322 57.9292
4.79788 61.2089
4.84253 64.3574
4.88719 67.8006
4.93184 71.9876
4.97652 77.4553
5.02118 83.4126
5.06583 89.6405
5.11049 97.8983
5.15515 118.252
5.19981 233.755
5.24449 2499.69
5.28916 13556.2
5.33382 3274.18
5.37848 214.369
5.42315 124.169
5.46783 108.658
5.5125 100.917
5.55716 97.533
5.60183 93.2919
5.6465 91.2858
5.69117 89.8974
5.73586 87.8262
5.78053 86.7889
5.8252 86.1103
5.86988 86.7672
5.91455 89.0091
5.95924 95.4797
6.00392 164.026
6.0486 894.51
6.09328 4554.92
6.13795 3550.48
6.18263 236.468
6.22733 87.3891
6.27201 75.9005
6.3167 73.1736
6.36138 69.172
6.40606 64.7172
6.45075 63.5167
6.49545 61.9858
6.54014 60.1344
6.58483 59.2073
6.62952 58.3759
6.67421 58.7897
6.71892 64.1561
6.76361 56.6722
6.8083 54.4127
6.853 54.2514
6.89769 53.4142
6.94239 53.3378
6.98711 52.6792
7.03181 51.9474
7.07651 52.5603
7.12121 51.8508
7.16591 51.6456
7.21063 50.9824
7.25533 51.7021
7.30004 61.4924
7.34475 55.8146
7.38945 52.0347
7.43416 51.3304
7.47889 52.0796
7.5236 59.2394
7.56831 74.7138
7.61303 57.0186
7.65774 52.9334
7.70247 53.2468
7.74719 53.1371
7.79191 53.6756
7.83663 54.1355
7.88135 55.0269
7.92607 55.7235
7.97081 56.8518
8.01553 57.7264
8.06026 59.3153
8.10498 60.1544
8.14971 62.4187
8.19446 63.7718
8.23919 65.6252
8.28392 68.2216
8.32865 70.3865
8.37339 74.2247
8.41812 78.1348
8.46288 86.5364
8.50761 129.12
8.55235 369.878
8.59709 1087.96
8.64183 2265.73
8.68658 1085.27
8.73134 175.023
8.77609 95.0335
8.82083 88.3003
8.86558 85.8586
8.91033 83.7004
8.9551 82.5182
8.99985 80.8907
9.04461 80.3796
9.08936 79.4809
9.13412 79.2954
9.17888 79.7882
9.22365 92.2554
9.26841 116.082
9.31318 89.5847
9.35794 80.5571
9.4027 79.9726
9.44749 80.5023
9.49226 81.2694
9.53703 82.1101
9.5818 83.3646
9.62657 84.1569
9.67134 86.5916
9.71614 87.9767
9.76091 89.3096
9.80569 91.4404
9.85047 94.0387
9.89525 98.8879
9.94005 106.755
9.98484 147.838
10.0296 348.042
10.0744 775.315
10.1192 1755.93
10.164 1669.59
10.2088 437.174
10.2536 124.57
10.2984 103.175
10.3432 101.064
10.388 97.929
10.4328 108.297
10.4776 160.865
10.5224 269.558
10.5672 506.353
10.612 559.156
10.6568 226.956
10.7017 104.461
10.7465 86.8404
10.7913 80.0471
10.8361 77.856
10.8809 75.5227
10.9257 73.5354
10.9706 72.598
11.0154 70.8893
11.0602 69.0798
11.105 68.2424
11.1499 67.0342
11.1947 67.142
11.2395 65.7415
11.2844 64.7873
11.3292 63.7988
11.374 62.8315
11.4189 62.6899
11.4637 61.5311
11.5086 61.2324
11.5534 61.2706
11.5983 60.8569
11.6431 60.4909
11.688 60.0562
11.7328 60.1307
11.7777 59.7674
11.8225 59.7866
11.8674 59.8621
11.9122 61.9682
11.9571 68.4163
12.002 66.8885
12.0468 64.3779
12.0917 76.9878
12.1366 98.752
12.1814 146.82
12.2263 204.38
12.2712 176.193
12.3161 99.8753
12.3609 64.3771
12.4058 61.35
12.4507 61.3433
12.4956 61.2385
12.5405 61.5797
12.5853 62.0232
12.6302 62.8426
12.6751 63.932
12.72 63.8496
12.7649 64.5645
12.8098 65.0394
12.8547 66.2551
12.8996 67.8701
12.9445 69.184
12.9894 70.7544
13.0343 72.6795
13.0792 76.8394
13.1242 82.6365
13.1691 107.831
13.214 147.743
13.2589 228.127
13.3038 364.972
13.3487 443.442
13.3937 279.09
13.4386 126.896
13.4835 99.1418
13.5285 119.929
13.5734 156.348
13.6183 236.716
13.6633 356.396
13.7082 358.253
13.7531 204.383
13.7981 100.319
13.843 79.3942
13.888 76.8616
13.9329 74.5375
13.9779 73.2566
14.0228 72.0908
14.0678 70.83
14.1127 71.4973
14.1577 75.727
14.2027 73.8132
14.2476 68.9362
14.2926 67.3529
14.3376 67.2754
14.3825 67.1205
14.4275 66.2285
14.4725 66.3021
14.5175 66.3653
14.5624 66.1002
14.6074 66.7239
14.6524 67.2939
14.6974 67.4719
14.7424 68.4266
14.7874 74.5293
14.8324 88.5388
14.8774 109.792
14.9224 148.25
14.9674 208.898
15.0124 227.435
15.0574 160.496
15.1024 93.741
15.1474 70.802
15.1924 67.979
15.2374 66.6802
15.2824 65.6733
15.3274 65.0022
15.3725 64.4762
15.4175 64.0362
15.4625 63.5512
15.5076 63.3271
15.5526 63.5057
15.5976 63.3691
15.6426 64.0126
15.6877 68.4787
15.7327 79.3815
15.7778 94.0625
15.8228 121.982
15.8679 169.08
15.9129 201.91
15.958 167.374
16.003 102.963
16.0481 69.3838
16.0931 62.9483
16.1382 59.9376
16.1833 58.4253
16.2283 56.8269
16.2734 56.1191
16.3185 55.3904
16.3636 55.2222
16.4086 54.357
16.4537 53.9625
16.4988 53.4377
16.5439 53.4292
16.589 53.1591
16.6341 53.0636
16.6792 52.5078
16.7243 52.777
16.7694 52.6633
16.8145 52.7516
16.8596 52.8635
16.9047 53.5812
16.9498 54.3045
16.9949 54.0289
17.04 53.8241
17.0851 54.8564
17.1302 56.9349
17.1754 60.17
17.2205 64.9049
17.2656 72.4811
17.3108 81.3267
17.3559 82.662
17.401 71.7544
17.4462 61.3286
17.4913 57.5796
17.5365 57.1214
17.5815 57.2127
17.6268 57.6833
17.6718 58.0967
17.7171 58.9036
17.7622 60.1556
17.8074 60.8128
17.8525 61.8404
17.8977 66.6151
17.9428 73.0172
17.9881 81.6995
18.0331 97.7721
18.0784 121.579
18.1237 141.879
18.1688 136.789
18.214 108.614
18.2591 87.9697
18.3044 88.943
18.3495 99.5078
18.3948 107.315
18.4399 98.074
18.4852 78.939
18.5303 65.721
18.5756 61.4598
18.6207 60.0569
18.666 58.8678
18.7112 58.14
18.7565 57.3907
18.8016 56.9659
18.8469 56.4379
18.892 56.1091
18.9374 55.7197
18.9825 55.3104
19.0278 55.0367
19.073 55.0221
19.1183 55.2434
19.1635 56.3999
19.2088 57.9838
19.254 60.5512
19.2993 65.5649
19.3447 72.0945
19.3898 76.2428
19.4352 72.3284
19.4804 63.3018
19.5257 56.1685
19.5709 53.0389
19.6163 52.417
19.6615 52.4012
19.7068 51.9104
19.752 51.8055
19.7974 51.922
19.8426 52.6253
19.888 53.7634
19.9332 55.0266
19.9786 57.4295
20.0238 61.1737
20.0692 66.4977
20.1144 70.1076
20.1598 68.7961
20.205 63.9665
20.2504 61.7416
20.2957 63.5399
20.3411 65.4175
20.3863 63.8322
20.4318 57.9947
20.477 52.8839
20.5224 50.0301
20.5677 49.2077
20.6131 48.6541
20.6586 48.3003
20.7038 48.347
20.7493 48.0707
20.7945 48.1341
20.84 48.0015
20.8853 47.512
20.9307 47.1366
20.976 47.4903
21.0215 47.2092
21.0668 47.6257
21.1122 48.0968
21.1575 48.6495
21.203 49.5305
21.2483 50.2723
21.2938 50.4406
21.3391 49.1695
21.3846 47.7622
21.4299 47.3171
21.4754 47.1689
21.5207 47.4715
21.5662 47.7031
21.6116 47.7309
21.6571 48.8227
21.7024 50.1379
21.7479 51.7616
21.7933 54.0408
21.8388 58.0697
21.8843 62.7065
21.9297 65.2278
21.9752 63.7749
22.0206 59.8121
22.0661 56.2739
22.1115 55.8589
22.157 55.7002
22.2024 54.0239
22.248 51.0074
22.2933 48.9955
22.3389 48.0608
22.3843 47.7712
22.4299 47.5393
22.4753 47.4284
22.5208 47.4225
22.5662 47.3477
22.6118 47.6631
22.6572 47.6661
22.7028 48.4345
22.7483 48.9902
22.7939 49.8054
22.8393 51.0189
22.8849 53.2383
22.9303 55.7566
22.9759 57.7628
23.0214 57.5588
23.067 54.6977
23.1126 50.9731
23.1581 48.5404
23.2037 47.8443
23.2492 47.6378
23.2948 47.8535
23.3403 48.2824
23.3859 49.3743
23.4314 50.3711
23.477 52.1713
23.5225 54.4407
23.5682 57.0117
23.6137 58.4975
23.6593 56.3485
23.7048 51.9272
23.7505 48.1111
23.796 46.1047
23.8417 45.1674
23.8872 44.6262
23.9329 44.3643
23.9784 43.8287
24.0241 43.732
24.0697 43.5877
24.1154 43.0793
24.1609 42.9208
24.2066 42.7057
24.2522 42.6615
24.2979 42.4322
24.3434 42.211
24.3892 42.2092
24.4349 42.0262
24.4805 41.9271
24.5262 41.9916
24.5718 41.9708
24.6175 42.057
24.6631 42.0035
24.7089 41.5555
24.7545 41.4569
24.8002 41.2169
24.8458 41.3074
24.8916 41.1061
24.9372 41.3291
24.983 41.6468
25.0286 42.0129
25.0744 42.569
25.12 43.1811
25.1658 43.7462
25.2114 44.2344
25.2572 44.2687
25.3029 44.6338
25.3487 44.5287
25.3943 44.1593
25.4402 43.1147
25.4858 41.9874
25.5316 40.8709
25.5773 40.1319
25.6231 40.0896
25.669 39.7243
25.7147 39.5317
25.7605 39.6999
25.8062 39.6677
25.8521 39.8237
25.8977 39.8561
25.9436 39.9317
25.9893 40.1481
26.0352 40.777
26.0809 41.0545
26.1268 41.214
26.1725 40.8574
26.2184 40.3391
26.2641 39.6761
26.31 39.4993
26.3557 39.4604
26.4017 39.4511
26.4474 39.6612
26.4933 40.0154
26.5391 40.5044
26.585 41.1528
26.6308 41.7289
26.6767 41.7486
26.7225 41.7481
26.7684 41.1471
26.8142 40.5154
26.8601 39.9674
26.9059 39.5082
26.9519 39.074
26.9979 38.771
27.0437 38.2199
27.0896 38.067
27.1354 38.085
27.1814 37.906
27.2272 37.9
27.2732 37.9517
27.3191 37.6975
27.3651 37.6925
27.4109 37.7498
27.4569 37.846
27.5027 37.9411
27.5488 38.084
27.5946 37.8
27.6407 37.7358
27.6865 37.589
27.7326 37.2241
27.7784 37.4349
27.8245 37.094
27.8703 37.4067
27.9164 37.6568
27.9623 37.9118
28.0084 38.4222
28.0543 38.8235
28.1003 38.7289
28.1462 38.6591
28.1923 38.2119
28.2384 37.7253
28.2843 37.3989
28.3304 36.8018
28.3764 36.1494
28.4225 35.8441
28.4684 35.608
28.5145 35.3061
28.5605 35.1961
28.6066 35.0489
28.6526 35.0594
28.6987 35.0044
28.7447 34.8742
28.7908 34.7582
28.8368 34.7983
28.8829 34.9397
28.9289 34.766
28.9751 34.5877
29.0211 34.4132
29.0673 34.0393
29.1133 33.9251
29.1595 33.8195
29.2055 33.7718
29.2517 33.6832
29.2977 33.7463
29.3439 33.6712
29.3899 33.7884
29.4361 33.6103
29.4824 33.4596
29.5284 33.1676
29.5746 32.8279
29.6207 32.5998
29.6669 32.4405
29.713 32.3973
29.7593 32.2303
29.8053 32.2116
29.8516 32.1712
29.8977 32.1437
29.9439 31.9354
29.99 31.9552
30.0363 31.8634
30.0824 32.007
30.1287 31.9197
30.1748 31.8497
30.2211 31.9102
30.2673 31.7205
30.3136 31.8512
30.3597 31.7803
30.406 31.6987
30.4522 31.5803
30.4985 31.5523
30.5447 31.6134
30.591 31.5995
30.6372 31.7093
30.6835 31.8064
30.7297 31.7967
30.7761 31.8404
30.8224 31.5428
30.8686 31.3982
30.915 31.1195
30.9612 31.0761
31.0076 30.8482
31.0538 30.6999
31.1002 30.6331
31.1464 30.4978
31.1928 30.5221
31.2391 30.4781
31.2855 30.3608
31.3317 30.4305
31.3781 30.4582
31.4244 30.39
31.4708 30.4861
31.5171 30.4241
31.5636 30.3178
31.6098 30.0108
31.6563 29.9504
31.7026 29.7332
31.7491 29.7004
31.7953 29.6931
31.8418 29.7452
31.8881 29.7345
31.9346 29.7544
31.9809 29.7223
32.0275 29.4852
32.074 29.4454
32.1203 29.2578
32.1668 29.0627
32.2132 28.8537
32.2597 28.9378
32.306 28.67
32.3526 28.4812
32.399 28.5327
32.4455 28.3247
32.4919 28.3255
32.5385 28.1499
32.5848 28.0316
32.6314 27.9632
32.6778 27.9295
32.7244 27.7982
32.7708 27.7307
32.8174 27.6975
32.8638 27.537
32.9104 27.5433
32.9569 27.5127
33.0035 27.4269
33.0499 27.4371
33.0966 27.3899
33.143 27.3533
33.1897 27.2723
33.2361 27.2194
33.2828 27.2385
33.3293 27.0296
33.3759 26.9805
33.4226 26.8408
33.4691 26.7095
33.5158 26.6551
33.5623 26.5408
33.609 26.3198
33.6555 26.2835
33.7022 26.105
33.7487 26.0646
33.7954 26.0534
33.842 25.9654
33.8887 25.9703
33.9353 25.8842
33.982 25.7154
34.0286 25.6637
34.0753 25.5752
34.1219 25.3993
34.1687 25.4387
34.2152 25.4259
34.262 25.2718
34.3086 25.1775
34.3554 25.1005
34.402 25.0644
34.4488 24.8581
34.4954 24.8554
34.5422 24.7759
34.5889 24.5921
34.6357 24.583
34.6825 24.4746
34.7292 24.3819
34.776 24.3459
34.8227 24.3126
34.8695 24.2587
34.9162 24.1459
34.9631 24.0873
35.0098 24.0816
35.0566 23.9252
35.1033 23.9503
35.1502 23.8895
35.1969 23.7716
35.2438 23.8172
35.2906 23.6528
35.3375 23.7666
35.3842 23.6224
35.4311 23.679
35.4779 23.586
35.5248 23.553
35.5716 23.4293
35.6185 23.3614
35.6653 23.3478
35.7123 23.1768
35.759 23.1427
35.806 23.0313
35.8528 22.8984
35.8998 22.9028
35.9468 22.7223
35.9936 22.7084
36.0406 22.7067
36.0874 22.7224
36.1345 22.5603
36.1813 22.3976
36.2283 22.3192
36.2752 22.2939
36.3222 22.334
36.3691 22.205
36.4161 22.1204
36.463 22.1057
36.5101 21.9722
36.557 21.9751
36.6041 21.8514
36.651 21.8876
36.6981 21.839
36.745 21.7241
36.7921 21.6264
36.839 21.5277
36.8861 21.4778
36.9331 21.361
36.9802 21.3591
37.0272 21.2284
37.0743 21.1519
37.1213 21.1518
37.1684 21.0942
37.2154 20.933
37.2626 20.924
37.3098 20.943
37.3568 20.8514
37.404 20.7052
37.451 20.6415
37.4982 20.6026
37.5452 20.5535
37.5924 20.4978
37.6395 20.5764
37.6867 20.3326
37.7337 20.288
37.781 20.2567
37.8281 20.1647
37.8753 20.121
37.9224 20.0264
37.9697 19.9655
38.0168 19.8727
38.064 19.828
38.1111 19.8442
38.1584 19.7084
38.2056 19.6476
38.2529 19.6156
38.3 19.515
38.3473 19.49
38.3945 19.3356
38.4418 19.3726
38.489 19.3298
38.5363 19.1961
38.5837 19.0984
38.6309 19.0806
38.6782 18.9922
38.7254 18.9824
38.7728 18.8769
38.82 18.8278
38.8674 18.7904
38.9146 18.7318
38.9621 18.6349
39.0093 18.6135
39.0567 18.5401
39.104 18.5532
39.1514 18.4459
39.1987 18.3549
39.2461 18.3475
39.2934 18.3289
39.3409 18.1414
39.3882 18.0839
39.4356 18.0954
39.483 17.9984
39.5304 17.9278
39.5778 17.9321
39.6253 17.9086
39.6726 17.7535
39.7201 17.806
39.7675 17.7112
39.815 17.6797
39.8624 17.6006
39.9099 17.5869
39.9575 17.4309
40.0049 17.3794
40.0525 17.3256
40.0999 17.3532
40.1474 17.2722
40.1949 17.1658
40.2425 17.1276
40.2899 17.0837
40.3375 16.9886
40.385 16.9396
40.4326 16.9182
40.48 16.8569
40.5277 16.918
40.5752 16.7374
40.6228 16.673
40.6703 16.6501
40.718 16.5763
40.7655 16.5227
40.8132 16.4704
40.8607 16.545
40.9084 16.3936
40.9559 16.324
41.0036 16.2664
41.0512 16.2369
41.0989 16.1748
41.1465 16.16
41.1942 16.0372
41.242 15.9614
41.2896 15.9482
41.3373 15.9464
41.3849 15.8758
41.4327 15.7572
41.4803 15.7495
41.5281 15.7283
41.5758 15.6387
41.6236 15.6205
41.6712 15.5376
41.7191 15.473
41.7667 15.4208
41.8146 15.4313
41.8622 15.3525
41.9101 15.2984
41.9578 15.2163
42.0057 15.1839
42.0534 15.0749
42.1013 15.0769
42.149 15.0346
42.1969 14.9921
42.2446 14.9315
42.2925 14.9006
42.3403 14.8173
42.3882 14.803
42.436 14.757
42.4839 14.6889
42.5319 14.6851
42.5797 14.5585
42.6277 14.5375
42.6755 14.495
42.7235 14.4124
42.7713 14.4008
42.8193 14.3656
42.8671 14.337
42.9152 14.2008
42.963 14.2177
43.0111 14.1528
43.0589 14.1007
43.107 14.0248
43.1549 13.9988
43.2029 13.9769
43.2508 13.9219
43.2989 13.8663
43.3468 13.7428
43.3949 13.7336
43.4429 13.745
43.491 13.7045
43.5389 13.6251
43.5871 13.5771
43.635 13.5179
43.6832 13.438
43.7312 13.3935
43.7793 13.3583
43.8273 13.3308
43.8755 13.2678
43.9237 13.2479
43.9717 13.199
44.0199 13.1665
44.068 13.1461
44.1162 13.0705
44.1642 13.0506
44.2125 12.9918
44.2606 12.9629
44.3088 12.8873
44.3569 12.7919
44.4052 12.8298
44.4533 12.7531
44.5016 12.6926
44.5497 12.6362
44.598 12.6297
44.6461 12.5631
44.6945 12.4836
44.7426 12.5005
44.791 12.4298
44.8391 12.3975
44.8875 12.3238
44.9357 12.2977
44.984 12.2956
45.0322 12.1913
45.0806 12.2031
45.1288 12.1116
45.1773 12.0792
45.2257 12.0925
45.2739 11.9783
45.3224 11.9711
45.3706 11.9636
45.4191 11.9189
45.4673 11.8358
45.5158 11.7991
45.5641 11.7534
45.6126 11.7016
45.6609 11.6991
45.7094 11.6659
45.7577 11.5922
45.8063 11.5548
45.8546 11.4909
45.9031 11.4748
45.9515 11.4393
46.0001 11.3761
46.0484 11.336
46.097 11.2774
46.1454 11.2768
46.194 11.2153
46.2424 11.1357
46.291 11.1541
46.3395 11.0786
46.3881 11.0303
46.4365 11.0336
46.4852 10.9961
46.5337 10.9666
46.5823 10.9184
46.631 10.8458
46.6795 10.7906
46.7282 10.7832
46.7767 10.7638
46.8254 10.639
46.8739 10.6578
46.9226 10.57
46.9712 10.6122
47.0199 10.5574
47.0685 10.5233
47.1173 10.4738
47.1658 10.4171
47.2146 10.377
47.2632 10.3476
47.312 10.3415
47.3606 10.2668
47.4095 10.2301
47.4581 10.2
47.5069 10.1627
47.5556 10.1274
47.6044 10.0358
47.6531 10.0435
47.702 10.01
47.7507 9.97988
47.7996 9.91954
47.8483 9.89875
47.8972 9.84559
47.9461 9.82286
47.9948 9.80373
48.0438 9.7594
48.0925 9.70374
48.1415 9.67284
48.1902 9.64436
48.2392 9.64156
48.288 9.60963
48.337 9.57579
48.3858 9.49093
48.4348 9.4633
48.4837 9.46596
48.5327 9.42691
48.5815 9.36318
48.6306 9.32983
48.6795 9.30255
48.7285 9.28504
48.7774 9.261
48.8265 9.21154
48.8754 9.16826
48.9245 9.16869
48.9734 9.09558
49.0226 9.08608
49.0715 9.02606
49.1206 9.02642
49.1696 8.95097
49.2188 8.92717
49.2679 8.86206
49.3169 8.85435
49.3661 8.80737
49.4151 8.77338
49.4643 8.75897
49.5134 8.69988
49.5626 8.66549
49.6117 8.65071
49.6609 8.61604
49.71 8.56653
49.7592 8.52233
49.8083 8.4637
49.8576 8.48307
49.9067 8.4369
49.956 8.40738
50.0052 8.41306
50.0545 8.34508
50.1036 8.35707
50.153 8.29577
50.2022 8.27238
50.2515 8.24998
50.3007 8.19311
50.3501 8.1481
50.3993 8.13335
50.4487 8.11241
50.498 8.07719
50.5474 8.02228
50.5966 7.97596
50.6461 7.97864
50.6955 7.9449
50.7448 7.92413
50.7943 7.87208
50.8436 7.84965
50.8931 7.82433
50.9424 7.8137
50.9919 7.76152
51.0413 7.71777
51.0908 7.70566
51.1402 7.66895
51.1897 7.65018
51.2391 7.60241
51.2887 7.58808
51.3381 7.52284
51.3877 7.51456
51.4371 7.48476
51.4867 7.46332
51.5362 7.44439
51.5858 7.39003
51.6353 7.34452
51.6849 7.29899
51.7344 7.32412
51.7841 7.2834
51.8336 7.25185
51.8833 7.23549
51.9328 7.20393
51.9826 7.14
52.0323 7.10893
52.0818 7.13432
52.1316 7.07677
52.1812 7.04052
52.231 7.01233
52.2806 6.9783
52.3304 6.9231
52.38 6.93513
52.4298 6.8776
52.4794 6.85747
52.5293 6.80372
52.5789 6.81389
52.6288 6.75654
52.6785 6.70149
52.7284 6.72723
52.7781 6.68858
52.828 6.67846
52.8777 6.63132
52.9276 6.62489
52.9774 6.63001
53.0273 6.58811
53.0771 6.53416
53.1271 6.54454
53.1769 6.4714
53.2269 6.47217
53.2767 6.426
53.3267 6.38582
53.3765 6.38399
53.4266 6.35213
53.4766 6.29062
53.5265 6.2529
53.5765 6.2399
53.6264 6.23037
53.6765 6.1888
53.7264 6.21124
53.7765 6.13318
53.8265 6.10998
53.8766 6.08421
53.9266 6.08646
53.9767 6.03772
54.0267 6.00336
54.0769 5.98437
54.1269 5.985
54.1771 5.94788
54.2271 5.88204
54.2773 5.87371
54.3274 5.81651
54.3776 5.84875
54.4277 5.76984
54.478 5.75817
54.528 5.69102
54.5783 5.65946
54.6285 5.65268
54.6788 5.6026
54.7289 5.54425
54.7792 5.54349
54.8296 5.47279
54.8798 5.40521
54.9301 5.4255
54.9803 5.41605
55.0307 5.38942
55.0809 5.26309
55.1314 5.26248
55.1816 5.1616
55.232 5.14954
55.2823 5.16685
55.3328 5.05429
55.383 5.00823
55.4335 4.98305
55.4838 4.93962
55.5344 4.87934
55.5847 4.86318
55.6352 4.82465
55.6856 4.76404
55.7361 4.77278