File: XRD/Ni3Fe_FD1012.xy
TT I
1.27165 6.99761
1.31627 6.03623
1.36089 5.69965
1.40551 6.01242
1.45013 5.65004
1.49476 5.43322
1.53938 5.4005
1.584 4.96783
1.62863 4.87896
1.67325 4.6838
1.71787 4.32355
1.7625 4.59961
1.80712 4.52105
1.85174 4.31027
1.89636 4.65615
1.94099 4.77148
1.98562 3.9838
2.03025 4.68053
2.07487 4.65945
2.11949 4.6513
2.16411 4.18762
2.20874 5.55853
2.25338 7.45218
2.298 5.27268
2.34263 5.51156
2.38725 6.14478
2.43188 5.9217
2.4765 7.15228
2.52115 7.75609
2.56577 8.17329
2.6104 8.97071
2.65503 8.54228
2.69965 8.45211
2.7443 8.56101
2.78893 8.37881
2.83356 8.94927
2.87818 9.5565
2.92281 8.98705
2.96744 9.47267
3.01209 10.2616
3.05672 11.4731
3.10135 12.3834
3.14599 12.7914
3.19062 14.2026
3.23527 14.7744
3.2799 15.7554
3.32454 16.4605
3.36917 16.949
3.4138 18.4081
3.45844 19.1501
3.50309 20.1183
3.54773 20.689
3.59237 21.6588
3.637 30.4427
3.68164 29.1774
3.7263 24.2831
3.77094 24.6089
3.81558 25.4143
3.86022 25.6705
3.90486 27.5828
3.9495 28.1277
3.99416 28.6213
4.0388 30.0338
4.08344 31.6578
4.12809 32.0751
4.17273 33.1688
4.21738 35.5043
4.26204 60.8668
4.30669 65.9673
4.35133 40.6183
4.39598 40.7262
4.44063 42.6599
4.4853 46.5868
4.52995 46.1199
4.5746 47.8449
4.61925 49.958
4.6639 52.3606
4.70855 54.7924
4.75322 56.8944
4.79788 59.8935
4.84253 63.0862
4.88719 67.0875
4.93184 70.7148
4.97652 75.4565
5.02118 81.0469
5.06583 87.8212
5.11049 96.371
5.15515 117.089
5.19981 220.655
5.24449 2131.35
5.28916 13440.7
5.33382 3575.9
5.37848 256.503
5.42315 128.242
5.46783 108.032
5.5125 100.34
5.55716 96.3451
5.60183 91.9201
5.6465 90.0053
5.69117 88.6602
5.73586 86.5893
5.78053 85.6365
5.8252 84.6858
5.86988 85.3729
5.91455 86.9758
5.95924 92.8286
6.00392 152.754
6.0486 732.144
6.09328 4341.38
6.13795 3463.87
6.18263 243.056
6.22733 86.6177
6.27201 75.2626
6.3167 73.4
6.36138 68.2708
6.40606 64.4383
6.45075 62.7341
6.49545 61.0502
6.54014 59.1827
6.58483 58.3795
6.62952 57.2737
6.67421 59.2822
6.71892 67.1451
6.76361 56.8315
6.8083 54.268
6.853 53.2184
6.89769 52.6085
6.94239 52.6274
6.98711 51.8729
7.03181 51.7498
7.07651 51.5818
7.12121 51.1051
7.16591 51.0981
7.21063 50.7574
7.25533 51.7725
7.30004 67.1904
7.34475 58.0177
7.38945 51.2485
7.43416 51.0087
7.47889 51.8433
7.5236 65.4184
7.56831 92.0446
7.61303 61.5266
7.65774 52.9777
7.70247 52.95
7.74719 52.4685
7.79191 52.9989
7.83663 53.4238
7.88135 54.0226
7.92607 55.1658
7.97081 55.9699
8.01553 56.6795
8.06026 57.8313
8.10498 59.1439
8.14971 61.5663
8.19446 63.3618
8.23919 64.4773
8.28392 66.8872
8.32865 69.2819
8.37339 72.3714
8.41812 76.18
8.46288 85.1151
8.50761 121.733
8.55235 306.111
8.59709 1028.1
8.64183 2302.26
8.68658 1099.24
8.73134 176.301
8.77609 93.9249
8.82083 87.6546
8.86558 84.2515
8.91033 82.6894
8.9551 81.5343
8.99985 80.041
9.04461 79.2434
9.08936 78.8328
9.13412 78.5493
9.17888 79.665
9.22365 102.35
9.26841 145.053
9.31318 99.5865
9.35794 80.1761
9.4027 79.3149
9.44749 79.4715
9.49226 79.7748
9.53703 80.4603
9.5818 81.7989
9.62657 83.275
9.67134 85.3471
9.71614 86.6249
9.76091 88.0473
9.80569 89.7083
9.85047 92.2413
9.89525 97.6637
9.94005 104.755
9.98484 138.676
10.0296 286.671
10.0744 680.38
10.1192 1719.14
10.164 1737.87
10.2088 467.252
10.2536 126.355
10.2984 102.152
10.3432 99.4948
10.388 96.2287
10.4328 104.21
10.4776 141.642
10.5224 246.021
10.5672 500.057
10.612 547.916
10.6568 228.408
10.7017 110.719
10.7465 88.85
10.7913 79.2508
10.8361 76.7841
10.8809 74.7546
10.9257 72.4172
10.9706 71.6317
11.0154 69.586
11.0602 68.2386
11.105 67.3274
11.1499 66.1422
11.1947 66.8429
11.2395 65.1411
11.2844 63.7334
11.3292 62.7858
11.374 62.2864
11.4189 61.4699
11.4637 60.7763
11.5086 60.5792
11.5534 60.4526
11.5983 60.0924
11.6431 59.8133
11.688 59.2384
11.7328 59.1507
11.7777 58.9985
11.8225 58.846
11.8674 59.2549
11.9122 63.1335
11.9571 74.8208
12.002 71.2388
12.0468 64.3241
12.0917 71.965
12.1366 91.3383
12.1814 139.07
12.2263 201.008
12.2712 173.682
12.3161 95.0333
12.3609 64.1052
12.4058 60.2347
12.4507 60.2043
12.4956 60.3373
12.5405 60.5114
12.5853 60.8404
12.6302 61.8529
12.6751 63.2942
12.72 62.9871
12.7649 62.9645
12.8098 64.1458
12.8547 65.2245
12.8996 66.3875
12.9445 67.683
12.9894 69.6882
13.0343 71.2779
13.0792 75.6999
13.1242 82.1636
13.1691 100.236
13.214 131.736
13.2589 211.042
13.3038 358.181
13.3487 444.324
13.3937 282.452
13.4386 126.56
13.4835 96.0994
13.5285 110.527
13.5734 142.029
13.6183 223.297
13.6633 346.949
13.7082 360.65
13.7531 205.447
13.7981 99.9433
13.843 78.4527
13.888 75.6508
13.9329 73.3342
13.9779 72.1384
14.0228 71.1918
14.0678 70.2124
14.1127 72.4007
14.1577 80.3543
14.2027 77.2706
14.2476 69.1912
14.2926 66.7831
14.3376 66.2058
14.3825 66.0278
14.4275 65.3237
14.4725 65.185
14.5175 65.1995
14.5624 65.0977
14.6074 65.4631
14.6524 66.109
14.6974 66.1162
14.7424 67.271
14.7874 71.9634
14.8324 82.6643
14.8774 101.23
14.9224 141.143
14.9674 203.168
15.0124 225.097
15.0574 160.093
15.1024 93.6764
15.1474 70.5837
15.1924 67.1206
15.2374 65.6425
15.2824 64.7012
15.3274 63.6907
15.3725 63.1146
15.4175 63.1594
15.4625 62.3834
15.5076 62.5025
15.5526 62.1747
15.5976 61.9776
15.6426 62.5636
15.6877 66.2749
15.7327 74.1615
15.7778 86.9136
15.8228 115.186
15.8679 166.36
15.9129 204.292
15.958 173.072
16.003 104.904
16.0481 70.3028
16.0931 64.0394
16.1382 60.2156
16.1833 57.6891
16.2283 56.231
16.2734 55.3576
16.3185 54.6527
16.3636 54.4076
16.4086 53.618
16.4537 53.1111
16.4988 52.7598
16.5439 52.5762
16.589 52.1806
16.6341 52.1246
16.6792 51.4981
16.7243 51.9396
16.7694 51.9565
16.8145 51.7054
16.8596 51.9013
16.9047 53.2305
16.9498 54.2981
16.9949 53.7803
17.04 53.0384
17.0851 53.6784
17.1302 55.3883
17.1754 58.0678
17.2205 62.1519
17.2656 70.839
17.3108 81.189
17.3559 81.4681
17.401 70.7916
17.4462 60.6111
17.4913 56.6246
17.5365 56.2076
17.5815 56.2561
17.6268 56.6372
17.6718 57.0714
17.7171 57.6887
17.7622 59.2271
17.8074 60.3056
17.8525 60.8273
17.8977 64.0244
17.9428 69.2905
17.9881 76.9574
18.0331 93.2607
18.0784 117.264
18.1237 140.538
18.1688 136.163
18.214 107.419
18.2591 86.1005
18.3044 86.6336
18.3495 97.7733
18.3948 106.351
18.4399 97.5723
18.4852 77.8633
18.5303 64.9466
18.5756 60.9341
18.6207 59.617
18.666 58.0597
18.7112 57.0383
18.7565 56.3603
18.8016 56.3268
18.8469 55.4526
18.892 55.3882
18.9374 54.5971
18.9825 54.3051
19.0278 54.1246
19.073 54.0909
19.1183 54.4269
19.1635 54.9551
19.2088 56.3082
19.254 59.1394
19.2993 64.4587
19.3447 71.4872
19.3898 75.9973
19.4352 71.9224
19.4804 62.7568
19.5257 55.3287
19.5709 51.9774
19.6163 51.6543
19.6615 51.2424
19.7068 50.8238
19.752 51.0667
19.7974 50.975
19.8426 51.5068
19.888 52.0072
19.9332 53.3564
19.9786 55.7127
20.0238 59.4577
20.0692 65.2414
20.1144 69.2488
20.1598 67.8293
20.205 62.5434
20.2504 60.1854
20.2957 62.1009
20.3411 64.8241
20.3863 63.6151
20.4318 57.4708
20.477 52.162
20.5224 49.2912
20.5677 48.5163
20.6131 48.1009
20.6586 47.5932
20.7038 47.5109
20.7493 47.3851
20.7945 47.7043
20.84 47.4091
20.8853 46.8093
20.9307 46.5452
20.976 46.6848
21.0215 46.401
21.0668 46.7004
21.1122 47.298
21.1575 47.7785
21.203 48.6952
21.2483 49.4002
21.2938 49.6925
21.3391 48.5095
21.3846 47.178
21.4299 46.3981
21.4754 46.5192
21.5207 46.628
21.5662 46.7559
21.6116 46.9481
21.6571 47.6902
21.7024 48.5532
21.7479 50.2524
21.7933 52.7788
21.8388 56.5804
21.8843 61.371
21.9297 64.2566
21.9752 63.0891
22.0206 59.0391
22.0661 55.5877
22.1115 55.4501
22.157 55.7195
22.2024 53.8617
22.248 50.5302
22.2933 48.3595
22.3389 47.2436
22.3843 46.8199
22.4299 46.6726
22.4753 46.6965
22.5208 46.6572
22.5662 46.2998
22.6118 46.6889
22.6572 46.8661
22.7028 47.3638
22.7483 47.8819
22.7939 48.7681
22.8393 50.0168
22.8849 52.0107
22.9303 54.5742
22.9759 56.74
23.0214 56.6949
23.067 53.7631
23.1126 50.1123
23.1581 47.7403
23.2037 47.0129
23.2492 46.8902
23.2948 47.0328
23.3403 47.175
23.3859 48.015
23.4314 49.3129
23.477 51.0249
23.5225 53.5724
23.5682 56.3469
23.6137 57.8514
23.6593 55.8344
23.7048 51.4295
23.7505 47.6445
23.796 45.2959
23.8417 44.3934
23.8872 43.8749
23.9329 43.5588
23.9784 43.3032
24.0241 43.0525
24.0697 42.9447
24.1154 42.4987
24.1609 42.3396
24.2066 42.1102
24.2522 42.0119
24.2979 41.7085
24.3434 41.561
24.3892 41.3698
24.4349 41.3526
24.4805 41.2469
24.5262 41.4702
24.5718 41.4216
24.6175 41.633
24.6631 41.3727
24.7089 41.1273
24.7545 40.7545
24.8002 40.566
24.8458 40.5909
24.8916 40.3833
24.9372 40.6733
24.983 40.8887
25.0286 41.1857
25.0744 41.7027
25.12 42.375
25.1658 43.0427
25.2114 43.3783
25.2572 43.5872
25.3029 43.8775
25.3487 43.9337
25.3943 43.7207
25.4402 42.6944
25.4858 41.4333
25.5316 40.2894
25.5773 39.4356
25.6231 39.35
25.669 38.9807
25.7147 39.057
25.7605 38.914
25.8062 38.9613
25.8521 39.1942
25.8977 39.2178
25.9436 39.3211
25.9893 39.4056
26.0352 40.0016
26.0809 40.2706
26.1268 40.7231
26.1725 40.2871
26.2184 39.7911
26.2641 39.0502
26.31 38.6606
26.3557 38.792
26.4017 38.6811
26.4474 38.9861
26.4933 39.1539
26.5391 39.6597
26.585 40.3759
26.6308 41.1191
26.6767 41.2108
26.7225 41.1924
26.7684 40.549
26.8142 39.9328
26.8601 39.4827
26.9059 39.0073
26.9519 38.5005
26.9979 38.0749
27.0437 37.7078
27.0896 37.4863
27.1354 37.4847
27.1814 37.4449
27.2272 37.1808
27.2732 37.1954
27.3191 37.0254
27.3651 37.1331
27.4109 37.1505
27.4569 37.3651
27.5027 37.4521
27.5488 37.4565
27.5946 37.3809
27.6407 37.0903
27.6865 36.9007
27.7326 36.6822
27.7784 36.6356
27.8245 36.5005
27.8703 36.7511
27.9164 37.0085
27.9623 37.341
28.0084 37.8196
28.0543 38.3227
28.1003 38.1739
28.1462 37.9843
28.1923 37.7963
28.2384 37.1549
28.2843 36.7229
28.3304 36.2806
28.3764 35.6837
28.4225 35.3158
28.4684 35.0954
28.5145 34.7862
28.5605 34.8791
28.6066 34.5437
28.6526 34.589
28.6987 34.4506
28.7447 34.3208
28.7908 34.2764
28.8368 34.1547
28.8829 34.3837
28.9289 34.2925
28.9751 34.0332
29.0211 33.7631
29.0673 33.5877
29.1133 33.5385
29.1595 33.256
29.2055 33.1824
29.2517 33.2258
29.2977 33.117
29.3439 33.1388
29.3899 33.1685
29.4361 33.0693
29.4824 33.0437
29.5284 32.7139
29.5746 32.3154
29.6207 32.0444
29.6669 31.9271
29.713 31.7888
29.7593 31.76
29.8053 31.7093
29.8516 31.7088
29.8977 31.6898
29.9439 31.5552
29.99 31.4394
30.0363 31.3435
30.0824 31.4752
30.1287 31.3992
30.1748 31.4532
30.2211 31.3387
30.2673 31.2622
30.3136 31.3914
30.3597 31.2159
30.406 31.0707
30.4522 31.023
30.4985 30.9675
30.5447 31.1529
30.591 31.077
30.6372 31.2524
30.6835 31.1262
30.7297 31.3913
30.7761 31.3319
30.8224 31.0466
30.8686 30.9659
30.915 30.6725
30.9612 30.579
31.0076 30.4143
31.0538 30.2829
31.1002 30.011
31.1464 29.9147
31.1928 29.9418
31.2391 30.002
31.2855 29.8825
31.3317 29.8845
31.3781 29.9165
31.4244 29.9577
31.4708 29.9218
31.5171 29.9731
31.5636 30.022
31.6098 29.7282
31.6563 29.3783
31.7026 29.3578
31.7491 29.2033
31.7953 29.1774
31.8418 29.1808
31.8881 29.3166
31.9346 29.3339
31.9809 29.2697
32.0275 29.112
32.074 29.0639
32.1203 28.7643
32.1668 28.6182
32.2132 28.5327
32.2597 28.3272
32.306 28.2358
32.3526 28.1125
32.399 28.0225
32.4455 27.8751
32.4919 27.81
32.5385 27.7498
32.5848 27.598
32.6314 27.6174
32.6778 27.58
32.7244 27.3424
32.7708 27.1858
32.8174 27.3079
32.8638 27.1924
32.9104 27.2369
32.9569 27.1064
33.0035 27.0231
33.0499 26.9326
33.0966 26.9167
33.143 26.9734
33.1897 26.8361
33.2361 26.8049
33.2828 26.7559
33.3293 26.5994
33.3759 26.5214
33.4226 26.4913
33.4691 26.3459
33.5158 26.221
33.5623 26.0619
33.609 25.9208
33.6555 25.9173
33.7022 25.7546
33.7487 25.6887
33.7954 25.6429
33.842 25.5814
33.8887 25.5181
33.9353 25.4266
33.982 25.3031
34.0286 25.3214
34.0753 25.1932
34.1219 25.0473
34.1687 24.9836
34.2152 24.9738
34.262 24.8396
34.3086 24.7622
34.3554 24.7007
34.402 24.635
34.4488 24.5123
34.4954 24.3988
34.5422 24.3947
34.5889 24.3102
34.6357 24.0845
34.6825 24.0642
34.7292 23.9966
34.776 24.0342
34.8227 23.8286
34.8695 23.8458
34.9162 23.8243
34.9631 23.6993
35.0098 23.772
35.0566 23.5431
35.1033 23.5171
35.1502 23.4897
35.1969 23.4596
35.2438 23.395
35.2906 23.3509
35.3375 23.2781
35.3842 23.18
35.4311 23.2506
35.4779 23.2894
35.5248 23.2117
35.5716 23.1517
35.6185 22.9991
35.6653 22.9699
35.7123 22.8221
35.759 22.714
35.806 22.6573
35.8528 22.5658
35.8998 22.5329
35.9468 22.4977
35.9936 22.3522
36.0406 22.2794
36.0874 22.2859
36.1345 22.2183
36.1813 22.1273
36.2283 22.0584
36.2752 21.8853
36.3222 22.0345
36.3691 21.921
36.4161 21.8044
36.463 21.7659
36.5101 21.7369
36.557 21.7479
36.6041 21.4971
36.651 21.4792
36.6981 21.4653
36.745 21.3405
36.7921 21.3373
36.839 21.1746
36.8861 21.2111
36.9331 21.0769
36.9802 21.0154
37.0272 20.9481
37.0743 20.8078
37.1213 20.7512
37.1684 20.7701
37.2154 20.7069
37.2626 20.7221
37.3098 20.5608
37.3568 20.4787
37.404 20.4432
37.451 20.2614
37.4982 20.3727
37.5452 20.1722
37.5924 20.165
37.6395 20.1778
37.6867 20.0744
37.7337 19.9792
37.781 19.8725
37.8281 19.8304
37.8753 19.7485
37.9224 19.6881
37.9697 19.6628
38.0168 19.5389
38.064 19.5057
38.1111 19.4906
38.1584 19.3084
38.2056 19.3562
38.2529 19.2718
38.3 19.2468
38.3473 19.2442
38.3945 19.0949
38.4418 19.0425
38.489 19.017
38.5363 18.84
38.5837 18.845
38.6309 18.8118
38.6782 18.7151
38.7254 18.677
38.7728 18.6397
38.82 18.5868
38.8674 18.4893
38.9146 18.507
38.9621 18.3425
39.0093 18.3607
39.0567 18.2782
39.104 18.2387
39.1514 18.1169
39.1987 18.1237
39.2461 18.0573
39.2934 17.9886
39.3409 17.8591
39.3882 17.8588
39.4356 17.7719
39.483 17.7788
39.5304 17.6898
39.5778 17.7117
39.6253 17.5775
39.6726 17.5302
39.7201 17.4725
39.7675 17.4158
39.815 17.3824
39.8624 17.2692
39.9099 17.2837
39.9575 17.204
40.0049 17.1458
40.0525 17.0862
40.0999 17.0546
40.1474 16.9727
40.1949 16.9337
40.2425 16.8943
40.2899 16.8179
40.3375 16.781
40.385 16.7355
40.4326 16.6387
40.48 16.5574
40.5277 16.5622
40.5752 16.5595
40.6228 16.4137
40.6703 16.3495
40.718 16.3792
40.7655 16.3233
40.8132 16.24
40.8607 16.2028
40.9084 16.1935
40.9559 16.0981
41.0036 16.0727
41.0512 15.927
41.0989 16.0183
41.1465 15.9055
41.1942 15.9005
41.242 15.745
41.2896 15.735
41.3373 15.6479
41.3849 15.5901
41.4327 15.5862
41.4803 15.4681
41.5281 15.479
41.5758 15.422
41.6236 15.2971
41.6712 15.3189
41.7191 15.2664
41.7667 15.1813
41.8146 15.1534
41.8622 15.1047
41.9101 15.0775
41.9578 14.9707
42.0057 14.9544
42.0534 14.916
42.1013 14.8923
42.149 14.805
42.1969 14.8177
42.2446 14.7186
42.2925 14.6503
42.3403 14.6417
42.3882 14.6166
42.436 14.5411
42.4839 14.4587
42.5319 14.4612
42.5797 14.3963
42.6277 14.3354
42.6755 14.3056
42.7235 14.1775
42.7713 14.1677
42.8193 14.1387
42.8671 14.0856
42.9152 14.0378
42.963 14.011
43.0111 13.9029
43.0589 13.8966
43.107 13.8181
43.1549 13.7963
43.2029 13.7717
43.2508 13.655
43.2989 13.6494
43.3468 13.5802
43.3949 13.5555
43.4429 13.4979
43.491 13.4841
43.5389 13.4164
43.5871 13.3801
43.635 13.3239
43.6832 13.2898
43.7312 13.2278
43.7793 13.1573
43.8273 13.1462
43.8755 13.0991
43.9237 13.0666
43.9717 13.049
44.0199 12.9639
44.068 12.905
44.1162 12.8461
44.1642 12.8468
44.2125 12.7849
44.2606 12.6851
44.3088 12.6688
44.3569 12.6574
44.4052 12.6037
44.4533 12.5413
44.5016 12.4861
44.5497 12.4523
44.598 12.4773
44.6461 12.3826
44.6945 12.3442
44.7426 12.2837
44.791 12.2076
44.8391 12.2034
44.8875 12.178
44.9357 12.1014
44.984 12.0624
45.0322 12.0663
45.0806 11.9939
45.1288 11.9721
45.1773 11.888
45.2257 11.8946
45.2739 11.8015
45.3224 11.8086
45.3706 11.7897
45.4191 11.7059
45.4673 11.6558
45.5158 11.6504
45.5641 11.562
45.6126 11.537
45.6609 11.5092
45.7094 11.4316
45.7577 11.4435
45.8063 11.3518
45.8546 11.3557
45.9031 11.2587
45.9515 11.2242
46.0001 11.2272
46.0484 11.1738
46.097 11.1379
46.1454 11.1098
46.194 11.0591
46.2424 10.9695
46.291 10.9722
46.3395 10.958
46.3881 10.868
46.4365 10.8961
46.4852 10.8049
46.5337 10.7622
46.5823 10.7444
46.631 10.6739
46.6795 10.6482
46.7282 10.637
46.7767 10.5753
46.8254 10.5324
46.8739 10.4466
46.9226 10.4533
46.9712 10.4436
47.0199 10.3816
47.0685 10.3804
47.1173 10.321
47.1658 10.2812
47.2146 10.2368
47.2632 10.1907
47.312 10.1605
47.3606 10.1452
47.4095 10.0693
47.4581 10.0612
47.5069 10.017
47.5556 9.94763
47.6044 9.94672
47.6531 9.87715
47.702 9.80728
47.7507 9.78282
47.7996 9.77065
47.8483 9.75361
47.8972 9.73756
47.9461 9.6521
47.9948 9.66902
48.0438 9.59209
48.0925 9.58993
48.1415 9.56586
48.1902 9.51148
48.2392 9.49649
48.288 9.46982
48.337 9.42534
48.3858 9.34959
48.4348 9.3449
48.4837 9.33953
48.5327 9.2834
48.5815 9.21991
48.6306 9.22968
48.6795 9.1994
48.7285 9.09582
48.7774 9.09576
48.8265 9.04587
48.8754 9.03578
48.9245 8.99424
48.9734 8.94547
49.0226 8.95706
49.0715 8.89458
49.1206 8.8697
49.1696 8.84846
49.2188 8.79206
49.2679 8.7379
49.3169 8.70143
49.3661 8.69169
49.4151 8.66275
49.4643 8.63276
49.5134 8.59683
49.5626 8.51644
49.6117 8.53052
49.6609 8.49132
49.71 8.46609
49.7592 8.39999
49.8083 8.4247
49.8576 8.35059
49.9067 8.31461
49.956 8.29284
50.0052 8.24087
50.0545 8.25274
50.1036 8.23891
50.153 8.16824
50.2022 8.13092
50.2515 8.09002
50.3007 8.05995
50.3501 8.05491
50.3993 8.00561
50.4487 7.99112
50.498 8.00008
50.5474 7.93631
50.5966 7.87365
50.6461 7.88669
50.6955 7.81689
50.7448 7.82177
50.7943 7.78346
50.8436 7.76429
50.8931 7.70149
50.9424 7.71807
50.9919 7.63775
51.0413 7.63358
51.0908 7.60601
51.1402 7.57857
51.1897 7.52159
51.2391 7.52771
51.2887 7.51473
51.3381 7.42826
51.3877 7.43527
51.4371 7.38318
51.4867 7.37408
51.5362 7.31154
51.5858 7.27985
51.6353 7.25783
51.6849 7.20663
51.7344 7.20976
51.7841 7.17916
51.8336 7.16374
51.8833 7.14202
51.9328 7.04891
51.9826 7.02348
52.0323 7.02922
52.0818 7.01864
52.1316 6.95107
52.1812 6.93833
52.231 6.9059
52.2806 6.84204
52.3304 6.85251
52.38 6.83633
52.4298 6.79535
52.4794 6.74959
52.5293 6.73527
52.5789 6.70345
52.6288 6.70666
52.6785 6.64634
52.7284 6.57754
52.7781 6.62691
52.828 6.58487
52.8777 6.53479
52.9276 6.50551
52.9774 6.49452
53.0273 6.45538
53.0771 6.44755
53.1271 6.42386
53.1769 6.38972
53.2269 6.39674
53.2767 6.31802
53.3267 6.28835
53.3765 6.26367
53.4266 6.23571
53.4766 6.18076
53.5265 6.17683
53.5765 6.2089
53.6264 6.16455
53.6765 6.12334
53.7264 6.09903
53.7765 6.11096
53.8265 6.04522
53.8766 6.01314
53.9266 6.00748
53.9767 5.94342
54.0267 5.92264
54.0769 5.89828
54.1269 5.8569
54.1771 5.8345
54.2271 5.80924
54.2773 5.76347
54.3274 5.76163
54.3776 5.71683
54.4277 5.67028
54.478 5.62827
54.528 5.63345
54.5783 5.5762
54.6285 5.56359
54.6788 5.50756
54.7289 5.4361
54.7792 5.44434
54.8296 5.35248
54.8798 5.27591
54.9301 5.34989
54.9803 5.31247
55.0307 5.29467
55.0809 5.2081
55.1314 5.16984
55.1816 5.13765
55.232 5.04503
55.2823 5.06592
55.3328 4.93962
55.383 4.92305
55.4335 4.91816
55.4838 4.87814
55.5344 4.80617
55.5847 4.82112
55.6352 4.77005
55.6856 4.75814
55.7361 4.70247