File: XRD/Ni3Fe_FD0121.xy
TT I
1.27165 7.97916
1.31627 7.01158
1.36089 6.96116
1.40551 6.33098
1.45013 7.0776
1.49476 6.31086
1.53938 5.98565
1.584 5.93387
1.62863 5.50419
1.67325 5.61242
1.71787 5.75941
1.7625 4.85487
1.80712 4.93503
1.85174 4.67728
1.89636 5.97209
1.94099 5.61535
1.98562 5.12181
2.03025 5.03309
2.07487 4.22661
2.11949 4.63523
2.16411 4.33773
2.20874 4.88465
2.25338 4.40371
2.298 4.49926
2.34263 3.99898
2.38725 4.48461
2.43188 3.46809
2.4765 4.15788
2.52115 3.57299
2.56577 3.92341
2.6104 5.35373
2.65503 4.73552
2.69965 5.04062
2.7443 5.86797
2.78893 6.22354
2.83356 6.75099
2.87818 8.0139
2.92281 8.3405
2.96744 8.75745
3.01209 10.464
3.05672 11.2816
3.10135 12.0731
3.14599 12.1732
3.19062 13.8521
3.23527 14.8331
3.2799 15.4443
3.32454 16.3492
3.36917 17.2576
3.4138 18.2758
3.45844 19.4719
3.50309 20.1006
3.54773 20.5253
3.59237 21.4284
3.637 21.9499
3.68164 22.9041
3.7263 23.8298
3.77094 24.8227
3.81558 25.5672
3.86022 26.0737
3.90486 27.0909
3.9495 28.3839
3.99416 29.3511
4.0388 30.3626
4.08344 31.3465
4.12809 32.5903
4.17273 33.7366
4.21738 34.9131
4.26204 36.1874
4.30669 37.2466
4.35133 39.4649
4.39598 40.8377
4.44063 42.5022
4.4853 44.7185
4.52995 46.5559
4.5746 48.6484
4.61925 51.5043
4.6639 53.0813
4.70855 56.1625
4.75322 59.0864
4.79788 61.932
4.84253 65.1603
4.88719 69.4118
4.93184 75.1418
4.97652 81.8842
5.02118 90.8473
5.06583 101.964
5.11049 119.301
5.15515 159.134
5.19981 587.971
5.24449 3760.39
5.28916 7614.66
5.33382 6768.16
5.37848 539.163
5.42315 171.656
5.46783 130.675
5.5125 115.579
5.55716 108.723
5.60183 101.989
5.6465 98.7964
5.69117 97.5172
5.73586 95.5267
5.78053 95.7094
5.8252 95.6855
5.86988 99.1013
5.91455 106.341
5.95924 127.662
6.00392 303.044
6.0486 1403.21
6.09328 2477.63
6.13795 3907.51
6.18263 773.186
6.22733 130.864
6.27201 91.0925
6.3167 78.6838
6.36138 72.307
6.40606 68.4474
6.45075 66.2317
6.49545 64.0246
6.54014 61.7633
6.58483 60.1782
6.62952 59.2859
6.67421 57.6148
6.71892 57.0951
6.76361 56.3292
6.8083 55.3007
6.853 54.5976
6.89769 53.8477
6.94239 53.5518
6.98711 53.0048
7.03181 52.599
7.07651 52.2936
7.12121 51.8559
7.16591 51.6
7.21063 51.0495
7.25533 51.6341
7.30004 51.3537
7.34475 51.5189
7.38945 51.8288
7.43416 51.1905
7.47889 51.4687
7.5236 56.5621
7.56831 67.3502
7.61303 55.7754
7.65774 52.7713
7.70247 53.4007
7.74719 53.6073
7.79191 54.1408
7.83663 54.6565
7.88135 55.4851
7.92607 56.5544
7.97081 57.6158
8.01553 58.6169
8.06026 59.9953
8.10498 61.5504
8.14971 62.6653
8.19446 64.3803
8.23919 67.2856
8.28392 69.8012
8.32865 72.6939
8.37339 77.8125
8.41812 83.2754
8.46288 96.0939
8.50761 176.386
8.55235 617.39
8.59709 829.361
8.64183 1351.7
8.68658 1730.84
8.73134 463.521
8.77609 120.277
8.82083 97.9626
8.86558 90.8802
8.91033 87.145
8.9551 84.6879
8.99985 83.0485
9.04461 82.5531
9.08936 81.2152
9.13412 80.8208
9.17888 80.9584
9.22365 87.9351
9.26841 103.216
9.31318 88.2699
9.35794 82.1607
9.4027 81.346
9.44749 82.052
9.49226 82.8854
9.53703 83.5271
9.5818 85.0589
9.62657 85.789
9.67134 87.6724
9.71614 89.3068
9.76091 92.1587
9.80569 94.6726
9.85047 97.6958
9.89525 103.213
9.94005 113.556
9.98484 188.41
10.0296 560.294
10.0744 707.554
10.1192 922.341
10.164 1579.45
10.2088 1083.5
10.2536 239.603
10.2984 117.825
10.3432 107.586
10.388 104.393
10.4328 121.166
10.4776 219.261
10.5224 254.246
10.5672 300.75
10.612 466.882
10.6568 395.856
10.7017 143.319
10.7465 91.2763
10.7913 83.0199
10.8361 79.9063
10.8809 76.9858
10.9257 74.9421
10.9706 73.851
11.0154 71.9945
11.0602 70.5511
11.105 69.1775
11.1499 67.9373
11.1947 66.9551
11.2395 65.8307
11.2844 65.266
11.3292 64.4766
11.374 64.0284
11.4189 63.0536
11.4637 62.6757
11.5086 62.1055
11.5534 61.6284
11.5983 61.2644
11.6431 61.6042
11.688 60.7953
11.7328 60.6809
11.7777 60.5975
11.8225 60.3351
11.8674 60.5089
11.9122 61.897
11.9571 66.4735
12.002 66.428
12.0468 67.5043
12.0917 90.8376
12.1366 106.992
12.1814 111.609
12.2263 140.034
12.2712 187.372
12.3161 146.704
12.3609 76.8609
12.4058 63.8234
12.4507 62.7585
12.4956 62.6679
12.5405 62.4315
12.5853 63.096
12.6302 63.009
12.6751 63.4535
12.72 64.1369
12.7649 65.3209
12.8098 66.1544
12.8547 67.4458
12.8996 69.1294
12.9445 70.2211
12.9894 72.1176
13.0343 74.1469
13.0792 78.4113
13.1242 86.1503
13.1691 133.676
13.214 188.938
13.2589 195.447
13.3038 224.863
13.3487 325.391
13.3937 387.469
13.4386 227.831
13.4835 122.822
13.5285 156.379
13.5734 181.829
13.6183 181.706
13.6633 217.901
13.7082 312.698
13.7531 316.287
13.7981 166.051
13.843 89.2117
13.888 80.0864
13.9329 77.1644
13.9779 75.1705
14.0228 73.9072
14.0678 72.1963
14.1127 72.0226
14.1577 74.3402
14.2027 73.1273
14.2476 70.1396
14.2926 68.9373
14.3376 68.1383
14.3825 67.6256
14.4275 67.443
14.4725 67.2979
14.5175 67.6433
14.5624 67.574
14.6074 67.926
14.6524 68.3644
14.6974 68.9651
14.7424 70.7811
14.7874 80.1693
14.8324 107.935
14.8774 120.447
14.9224 120.919
14.9674 137.606
15.0124 179.622
15.0574 205.532
15.1024 147.517
15.1474 84.4662
15.1924 70.9499
15.2374 68.473
15.2824 67.1056
15.3274 66.3107
15.3725 65.9227
15.4175 65.5219
15.4625 64.7888
15.5076 64.6366
15.5526 64.8996
15.5976 64.9142
15.6426 65.8431
15.6877 73.2237
15.7327 95.3258
15.7778 107.49
15.8228 106.615
15.8679 116.103
15.9129 144.476
15.958 183.362
16.003 159.828
16.0481 93.14
16.0931 66.7311
16.1382 61.461
16.1833 59.814
16.2283 58.3658
16.2734 57.486
16.3185 56.7373
16.3636 55.9342
16.4086 55.2053
16.4537 54.9979
16.4988 54.2882
16.5439 54.3338
16.589 54.2236
16.6341 53.8114
16.6792 53.3573
16.7243 53.6155
16.7694 53.53
16.8145 53.6978
16.8596 53.4754
16.9047 53.9968
16.9498 54.5741
16.9949 54.5782
17.04 54.8212
17.0851 56.1204
17.1302 60.6464
17.1754 63.8583
17.2205 64.2776
17.2656 65.1
17.3108 69.8512
17.3559 76.9746
17.401 80.9842
17.4462 71.8752
17.4913 61.7726
17.5365 58.6641
17.5815 58.3496
17.6268 58.6232
17.6718 59.0716
17.7171 59.5086
17.7622 60.7565
17.8074 61.6239
17.8525 63.1914
17.8977 71.4273
17.9428 83.7565
17.9881 88.2804
18.0331 88.2358
18.0784 93.2538
18.1237 108.281
18.1688 135.71
18.214 144.487
18.2591 114.757
18.3044 87.9255
18.3495 83.704
18.3948 91.2909
18.4399 101.588
18.4852 97.0602
18.5303 77.9002
18.5756 64.9471
18.6207 61.7738
18.666 60.3001
18.7112 59.4953
18.7565 58.691
18.8016 57.9777
18.8469 57.632
18.892 57.3504
18.9374 56.8336
18.9825 56.5739
19.0278 56.0973
19.073 56.2111
19.1183 56.8283
19.1635 59.1115
19.2088 61.3239
19.254 61.4733
19.2993 62.0949
19.3447 63.7538
19.3898 67.1118
19.4352 72.3374
19.4804 72.6347
19.5257 64.5911
19.5709 56.3022
19.6163 53.9762
19.6615 53.3284
19.7068 52.9287
19.752 52.7832
19.7974 52.9876
19.8426 54.1871
19.888 56.1177
19.9332 57.7608
19.9786 57.8253
20.0238 58.0902
20.0692 60.5765
20.1144 65.3836
20.1598 71.3482
20.205 71.0297
20.2504 65.3676
20.2957 60.2737
20.3411 60.2044
20.3863 63.3112
20.4318 64.1666
20.477 59.7383
20.5224 53.4326
20.5677 50.7534
20.6131 50.0196
20.6586 49.2984
20.7038 49.1475
20.7493 48.7039
20.7945 48.8652
20.84 48.4519
20.8853 48.4044
20.9307 48.11
20.976 48.4608
21.0215 48.7418
21.0668 49.0012
21.1122 48.9253
21.1575 48.8855
21.203 49.0287
21.2483 49.5149
21.2938 50.6676
21.3391 50.8042
21.3846 50.2473
21.4299 48.8382
21.4754 48.1424
21.5207 48.3919
21.5662 48.585
21.6116 48.7842
21.6571 50.8628
21.7024 52.8616
21.7479 53.5656
21.7933 53.579
21.8388 54.7891
21.8843 57.2887
21.9297 60.3861
21.9752 64.3852
22.0206 65.449
22.0661 60.823
22.1115 55.9912
22.157 54.8954
22.2024 55.7719
22.248 54.9394
22.2933 52.6445
22.3389 49.7835
22.3843 48.8759
22.4299 48.4505
22.4753 48.464
22.5208 48.3284
22.5662 48.3088
22.6118 48.5055
22.6572 48.6627
22.7028 49.7974
22.7483 50.982
22.7939 51.5134
22.8393 51.5458
22.8849 51.5765
22.9303 52.1612
22.9759 53.8579
23.0214 56.0588
23.067 57.8479
23.1126 56.2146
23.1581 52.3125
23.2037 49.5418
23.2492 48.7756
23.2948 49.2399
23.3403 50.8178
23.3859 51.4296
23.4314 51.1957
23.477 51.0251
23.5225 51.3875
23.5682 52.3787
23.6137 54.4221
23.6593 56.7957
23.7048 57.0131
23.7505 53.7238
23.796 49.2824
23.8417 46.7593
23.8872 45.6076
23.9329 45.2292
23.9784 44.788
24.0241 44.4909
24.0697 44.209
24.1154 43.9602
24.1609 43.7137
24.2066 43.5697
24.2522 43.4589
24.2979 43.403
24.3434 42.9812
24.3892 43.0149
24.4349 42.8695
24.4805 42.5297
24.5262 42.7459
24.5718 42.501
24.6175 42.6958
24.6631 42.8143
24.7089 42.5627
24.7545 42.3696
24.8002 42.0412
24.8458 42.1395
24.8916 42.0556
24.9372 42.3697
24.983 42.3553
25.0286 42.4743
25.0744 43.0492
25.12 43.3568
25.1658 43.8205
25.2114 43.9788
25.2572 44.3956
25.3029 44.3571
25.3487 44.3669
25.3943 44.3146
25.4402 44.4911
25.4858 44.4683
25.5316 43.0208
25.5773 41.3878
25.6231 41.012
25.669 40.5293
25.7147 40.4458
25.7605 40.3763
25.8062 40.5449
25.8521 40.7813
25.8977 40.5565
25.9436 40.6524
25.9893 40.4606
26.0352 40.8739
26.0809 40.6175
26.1268 41.173
26.1725 41.4099
26.2184 41.7089
26.2641 41.2329
26.31 40.6997
26.3557 40.5421
26.4017 40.4696
26.4474 40.5354
26.4933 40.4868
26.5391 40.7224
26.585 40.9018
26.6308 41.0882
26.6767 41.4289
26.7225 42.1675
26.7684 42.4743
26.8142 41.8481
26.8601 41.0095
26.9059 40.5428
26.9519 40.1168
26.9979 39.7986
27.0437 39.1825
27.0896 38.7654
27.1354 38.8407
27.1814 38.706
27.2272 38.6631
27.2732 38.552
27.3191 38.3411
27.3651 38.3285
27.4109 38.3015
27.4569 38.3068
27.5027 38.2254
27.5488 38.2319
27.5946 38.2344
27.6407 38.2717
27.6865 38.5646
27.7326 38.2052
27.7784 38.2346
27.8245 38.0453
27.8703 38.0824
27.9164 38.1428
27.9623 38.0434
28.0084 38.2719
28.0543 38.4097
28.1003 38.6386
28.1462 38.9679
28.1923 39.0709
28.2384 38.6467
28.2843 38.2589
28.3304 37.572
28.3764 37.5018
28.4225 36.9081
28.4684 36.4946
28.5145 35.9658
28.5605 35.8574
28.6066 35.7474
28.6526 35.7151
28.6987 35.6373
28.7447 35.5517
28.7908 35.2722
28.8368 35.2592
28.8829 35.0673
28.9289 35.1775
28.9751 35.1901
29.0211 34.9326
29.0673 34.9057
29.1133 34.8133
29.1595 34.5038
29.2055 34.2745
29.2517 34.1124
29.2977 33.9731
29.3439 33.9442
29.3899 33.9932
29.4361 33.9315
29.4824 33.9617
29.5284 33.9572
29.5746 33.716
29.6207 33.2806
29.6669 33.1744
29.713 32.8553
29.7593 32.7549
29.8053 32.8008
29.8516 32.6579
29.8977 32.7113
29.9439 32.5327
29.99 32.43
30.0363 32.3227
30.0824 32.3703
30.1287 32.2768
30.1748 32.2931
30.2211 32.2456
30.2673 32.1307
30.3136 32.3411
30.3597 32.3081
30.406 32.3073
30.4522 32.1953
30.4985 32.0559
30.5447 32.0511
30.591 32.054
30.6372 31.9596
30.6835 31.9042
30.7297 32.0525
30.7761 32.1272
30.8224 32.0813
30.8686 32.0465
30.915 31.815
30.9612 31.6783
31.0076 31.4611
31.0538 31.3481
31.1002 31.1754
31.1464 30.9592
31.1928 31.055
31.2391 30.9445
31.2855 30.8628
31.3317 30.8017
31.3781 30.8546
31.4244 30.7656
31.4708 30.6666
31.5171 30.5854
31.5636 30.7059
31.6098 30.6535
31.6563 30.6238
31.7026 30.4445
31.7491 30.1889
31.7953 30.1861
31.8418 30.1272
31.8881 29.9912
31.9346 29.9751
31.9809 30.0047
32.0275 29.8761
32.074 29.9185
32.1203 29.7079
32.1668 29.6718
32.2132 29.4688
32.2597 29.3503
32.306 29.2909
32.3526 28.9233
32.399 28.8417
32.4455 28.8543
32.4919 28.7211
32.5385 28.6906
32.5848 28.531
32.6314 28.3892
32.6778 28.3946
32.7244 28.2259
32.7708 28.1095
32.8174 28.0649
32.8638 28.0272
32.9104 28.1512
32.9569 28.0223
33.0035 27.8608
33.0499 27.7724
33.0966 27.6777
33.143 27.6138
33.1897 27.5616
33.2361 27.5765
33.2828 27.4516
33.3293 27.4231
33.3759 27.401
33.4226 27.3151
33.4691 27.156
33.5158 27.1012
33.5623 26.9078
33.609 26.7252
33.6555 26.585
33.7022 26.5715
33.7487 26.4591
33.7954 26.3155
33.842 26.2923
33.8887 26.2795
33.9353 26.1587
33.982 26.1467
34.0286 26.1134
34.0753 25.9886
34.1219 25.9504
34.1687 25.7685
34.2152 25.7298
34.262 25.5921
34.3086 25.4522
34.3554 25.4316
34.402 25.3096
34.4488 25.2312
34.4954 25.2568
34.5422 25.1086
34.5889 25.0609
34.6357 24.9133
34.6825 24.825
34.7292 24.7326
34.776 24.6947
34.8227 24.5584
34.8695 24.5291
34.9162 24.5068
34.9631 24.4027
35.0098 24.4445
35.0566 24.2292
35.1033 24.2697
35.1502 24.2065
35.1969 24.1493
35.2438 24.1028
35.2906 24.0029
35.3375 23.9525
35.3842 23.9516
35.4311 23.887
35.4779 23.8536
35.5248 23.8535
35.5716 23.7081
35.6185 23.6552
35.6653 23.6434
35.7123 23.5736
35.759 23.4803
35.806 23.3089
35.8528 23.1732
35.8998 23.1342
35.9468 23.0446
35.9936 23.0983
36.0406 22.9199
36.0874 22.9306
36.1345 22.8332
36.1813 22.7477
36.2283 22.6876
36.2752 22.6005
36.3222 22.6227
36.3691 22.6
36.4161 22.351
36.463 22.4083
36.5101 22.3667
36.557 22.2716
36.6041 22.1615
36.651 22.0672
36.6981 22.0144
36.745 21.99
36.7921 22.0026
36.839 21.807
36.8861 21.8621
36.9331 21.7778
36.9802 21.6004
37.0272 21.5265
37.0743 21.3816
37.1213 21.4086
37.1684 21.3868
37.2154 21.3188
37.2626 21.2578
37.3098 21.0969
37.3568 21.0636
37.404 21.108
37.451 20.9204
37.4982 20.8609
37.5452 20.719
37.5924 20.6912
37.6395 20.7741
37.6867 20.6732
37.7337 20.5361
37.781 20.5184
37.8281 20.4557
37.8753 20.3509
37.9224 20.2996
37.9697 20.2687
38.0168 20.2012
38.064 20.1364
38.1111 20.0392
38.1584 19.903
38.2056 19.8755
38.2529 19.8635
38.3 19.7774
38.3473 19.7687
38.3945 19.6229
38.4418 19.6508
38.489 19.6474
38.5363 19.431
38.5837 19.3617
38.6309 19.3015
38.6782 19.2989
38.7254 19.2261
38.7728 19.1506
38.82 19.1201
38.8674 19.0592
38.9146 19.0472
38.9621 18.9074
39.0093 18.8596
39.0567 18.8419
39.104 18.713
39.1514 18.6253
39.1987 18.6099
39.2461 18.5797
39.2934 18.4816
39.3409 18.3998
39.3882 18.337
39.4356 18.3592
39.483 18.2109
39.5304 18.2038
39.5778 18.1959
39.6253 18.1003
39.6726 18.0523
39.7201 17.9708
39.7675 17.923
39.815 17.8879
39.8624 17.8099
39.9099 17.7714
39.9575 17.6734
40.0049 17.6909
40.0525 17.557
40.0999 17.5819
40.1474 17.4515
40.1949 17.4214
40.2425 17.3138
40.2899 17.332
40.3375 17.2578
40.385 17.1456
40.4326 17.1215
40.48 17.0566
40.5277 17.0488
40.5752 17.0053
40.6228 16.8674
40.6703 16.8788
40.718 16.8106
40.7655 16.8234
40.8132 16.7221
40.8607 16.6935
40.9084 16.6459
40.9559 16.542
41.0036 16.5688
41.0512 16.4807
41.0989 16.4276
41.1465 16.3675
41.1942 16.3347
41.242 16.2395
41.2896 16.1915
41.3373 16.1413
41.3849 16.0432
41.4327 16.0044
41.4803 15.9396
41.5281 15.9615
41.5758 15.8785
41.6236 15.8492
41.6712 15.7313
41.7191 15.6866
41.7667 15.6849
41.8146 15.6082
41.8622 15.5677
41.9101 15.4183
41.9578 15.3954
42.0057 15.4168
42.0534 15.3185
42.1013 15.2948
42.149 15.2408
42.1969 15.1703
42.2446 15.1328
42.2925 15.0737
42.3403 15.0304
42.3882 15.0263
42.436 14.9463
42.4839 14.863
42.5319 14.8795
42.5797 14.7478
42.6277 14.7506
42.6755 14.6606
42.7235 14.5556
42.7713 14.5566
42.8193 14.5092
42.8671 14.4788
42.9152 14.4372
42.963 14.3763
43.0111 14.3023
43.0589 14.2666
43.107 14.2388
43.1549 14.2352
43.2029 14.1447
43.2508 14.0734
43.2989 13.988
43.3468 14.0101
43.3949 13.9178
43.4429 13.8681
43.491 13.7943
43.5389 13.8455
43.5871 13.7442
43.635 13.6916
43.6832 13.6812
43.7312 13.5667
43.7793 13.4887
43.8273 13.5193
43.8755 13.4814
43.9237 13.4769
43.9717 13.3474
44.0199 13.3005
44.068 13.2898
44.1162 13.215
44.1642 13.2083
44.2125 13.1136
44.2606 13.0982
44.3088 13.0037
44.3569 12.9666
44.4052 12.954
44.4533 12.8848
44.5016 12.8582
44.5497 12.8357
44.598 12.7874
44.6461 12.7386
44.6945 12.7475
44.7426 12.6186
44.791 12.594
44.8391 12.5795
44.8875 12.511
44.9357 12.5096
44.984 12.4343
45.0322 12.3992
45.0806 12.3353
45.1288 12.2987
45.1773 12.1978
45.2257 12.1827
45.2739 12.1753
45.3224 12.0883
45.3706 12.0772
45.4191 12.0209
45.4673 12.0019
45.5158 11.9493
45.5641 11.9254
45.6126 11.8722
45.6609 11.8269
45.7094 11.7641
45.7577 11.7522
45.8063 11.6805
45.8546 11.6792
45.9031 11.5702
45.9515 11.5577
46.0001 11.5289
46.0484 11.4807
46.097 11.4582
46.1454 11.3667
46.194 11.3503
46.2424 11.3264
46.291 11.2344
46.3395 11.2473
46.3881 11.1861
46.4365 11.1464
46.4852 11.1663
46.5337 11.0804
46.5823 11.0555
46.631 10.9731
46.6795 10.9502
46.7282 10.9248
46.7767 10.9254
46.8254 10.7759
46.8739 10.8185
46.9226 10.7642
46.9712 10.699
47.0199 10.6972
47.0685 10.6434
47.1173 10.5758
47.1658 10.557
47.2146 10.5214
47.2632 10.4608
47.312 10.4448
47.3606 10.3847
47.4095 10.3517
47.4581 10.3084
47.5069 10.2659
47.5556 10.2672
47.6044 10.2087
47.6531 10.1802
47.702 10.1013
47.7507 10.1071
47.7996 10.069
47.8483 10.0359
47.8972 10.0394
47.9461 9.94187
47.9948 9.85296
48.0438 9.89958
48.0925 9.87789
48.1415 9.83738
48.1902 9.7158
48.2392 9.77968
48.288 9.72264
48.337 9.65853
48.3858 9.6451
48.4348 9.60081
48.4837 9.57144
48.5327 9.55039
48.5815 9.49343
48.6306 9.49201
48.6795 9.45744
48.7285 9.39219
48.7774 9.33059
48.8265 9.32553
48.8754 9.26462
48.9245 9.29493
48.9734 9.20216
49.0226 9.23979
49.0715 9.15709
49.1206 9.15127
49.1696 9.09365
49.2188 9.06461
49.2679 9.04299
49.3169 8.9677
49.3661 8.96123
49.4151 8.90992
49.4643 8.91621
49.5134 8.84026
49.5626 8.78936
49.6117 8.76238
49.6609 8.75366
49.71 8.70023
49.7592 8.68584
49.8083 8.63671
49.8576 8.57596
49.9067 8.60954
49.956 8.54995
50.0052 8.52539
50.0545 8.52293
50.1036 8.45289
50.153 8.4568
50.2022 8.38337
50.2515 8.35247
50.3007 8.30937
50.3501 8.28534
50.3993 8.25177
50.4487 8.2415
50.498 8.18646
50.5474 8.16249
50.5966 8.10879
50.6461 8.10614
50.6955 8.08644
50.7448 8.04858
50.7943 7.98193
50.8436 7.97842
50.8931 7.97607
50.9424 7.93055
50.9919 7.88255
51.0413 7.88785
51.0908 7.82167
51.1402 7.79407
51.1897 7.7446
51.2391 7.74421
51.2887 7.70991
51.3381 7.67617
51.3877 7.63683
51.4371 7.58962
51.4867 7.53295
51.5362 7.55451
51.5858 7.4711
51.6353 7.47215
51.6849 7.44611
51.7344 7.41627
51.7841 7.37445
51.8336 7.36516
51.8833 7.35832
51.9328 7.26983
51.9826 7.2259
52.0323 7.23492
52.0818 7.22775
52.1316 7.15777
52.1812 7.1517
52.231 7.05099
52.2806 7.09487
52.3304 7.05051
52.38 7.01554
52.4298 6.97359
52.4794 6.97239
52.5293 6.93482
52.5789 6.91393
52.6288 6.86934
52.6785 6.82901
52.7284 6.83147
52.7781 6.78902
52.828 6.76936
52.8777 6.72804
52.9276 6.73542
52.9774 6.6931
53.0273 6.67611
53.0771 6.63992
53.1271 6.61436
53.1769 6.57874
53.2269 6.5666
53.2767 6.52269
53.3267 6.49073
53.3765 6.47737
53.4266 6.47394
53.4766 6.41869
53.5265 6.36242
53.5765 6.3429
53.6264 6.3358
53.6765 6.28016
53.7264 6.25803
53.7765 6.25641
53.8265 6.21676
53.8766 6.12975
53.9266 6.19728
53.9767 6.147
54.0267 6.13303
54.0769 6.02132
54.1269 5.98839
54.1771 6.03927
54.2271 5.98217
54.2773 5.93344
54.3274 5.92309
54.3776 5.84999
54.4277 5.80779
54.478 5.77249
54.528 5.70216
54.5783 5.6612
54.6285 5.67842
54.6788 5.56667
54.7289 5.57767
54.7792 5.53047
54.8296 5.47676
54.8798 5.4273
54.9301 5.40739
54.9803 5.31889
55.0307 5.34679
55.0809 5.28073
55.1314 5.24616
55.1816 5.22967
55.232 5.12872
55.2823 5.08341
55.3328 5.0336
55.383 4.93532
55.4335 4.94807
55.4838 4.86389
55.5344 4.82292
55.5847 4.78615
55.6352 4.79289
55.6856 4.77869
55.7361 4.76873