File: XRD/Ni3Fe_FD1042.xy
TT I
1.27165 7.38011
1.31627 6.42545
1.36089 6.45073
1.40551 5.80306
1.45013 6.09195
1.49476 5.68922
1.53938 5.48002
1.584 5.30674
1.62863 4.66059
1.67325 4.69764
1.71787 4.6068
1.7625 4.52468
1.80712 4.22621
1.85174 4.65457
1.89636 3.62299
1.94099 4.73231
1.98562 4.72645
2.03025 4.20553
2.07487 4.45708
2.11949 4.45511
2.16411 3.79209
2.20874 5.13664
2.25338 6.639
2.298 5.02721
2.34263 4.98218
2.38725 5.97821
2.43188 6.29307
2.4765 6.92099
2.52115 7.86913
2.56577 7.79499
2.6104 8.38079
2.65503 8.50687
2.69965 8.58237
2.7443 8.52591
2.78893 8.43804
2.83356 8.50237
2.87818 9.25711
2.92281 8.93726
2.96744 9.81468
3.01209 10.1248
3.05672 10.9938
3.10135 11.8813
3.14599 12.6901
3.19062 13.8231
3.23527 14.4215
3.2799 15.7222
3.32454 16.1568
3.36917 16.9989
3.4138 18.3574
3.45844 18.9557
3.50309 20.1129
3.54773 20.3103
3.59237 21.2923
3.637 27.8151
3.68164 26.4563
3.7263 23.9043
3.77094 24.4989
3.81558 25.6818
3.86022 25.8324
3.90486 27.7855
3.9495 28.0479
3.99416 29.3408
4.0388 30.4582
4.08344 31.8155
4.12809 32.3962
4.17273 33.6276
4.21738 35.0618
4.26204 52.1225
4.30669 57.256
4.35133 41.089
4.39598 40.8175
4.44063 43.1509
4.4853 46.1976
4.52995 46.658
4.5746 48.3472
4.61925 50.1158
4.6639 52.009
4.70855 55.5353
4.75322 57.9804
4.79788 60.874
4.84253 64.1727
4.88719 68.0739
4.93184 71.6889
4.97652 76.8081
5.02118 82.9136
5.06583 89.2725
5.11049 98.0306
5.15515 118.295
5.19981 232.918
5.24449 2493.28
5.28916 13508.7
5.33382 3262.3
5.37848 213.966
5.42315 124.495
5.46783 108.235
5.5125 100.871
5.55716 96.9839
5.60183 92.918
5.6465 91.3014
5.69117 89.3494
5.73586 87.7864
5.78053 87.2691
5.8252 86.3297
5.86988 87.057
5.91455 88.8024
5.95924 95.3799
6.00392 163.629
6.0486 891.247
6.09328 4532.99
6.13795 3559.82
6.18263 238.078
6.22733 87.2598
6.27201 75.9223
6.3167 72.9529
6.36138 68.7648
6.40606 64.8643
6.45075 63.3672
6.49545 61.5764
6.54014 60.1433
6.58483 58.99
6.62952 57.965
6.67421 58.4805
6.71892 64.1186
6.76361 56.6952
6.8083 54.7011
6.853 53.8637
6.89769 53.1931
6.94239 53.3627
6.98711 52.169
7.03181 52.3793
7.07651 52.1172
7.12121 51.6015
7.16591 51.2065
7.21063 50.7606
7.25533 51.6859
7.30004 61.7459
7.34475 55.8107
7.38945 51.7263
7.43416 51.2015
7.47889 51.4935
7.5236 59.5952
7.56831 75.1319
7.61303 56.8379
7.65774 52.8546
7.70247 53.1264
7.74719 53.303
7.79191 53.8637
7.83663 54.0044
7.88135 54.8166
7.92607 55.5893
7.97081 56.7503
8.01553 57.5402
8.06026 58.9609
8.10498 60.0957
8.14971 62.0281
8.19446 63.9907
8.23919 65.4955
8.28392 67.9917
8.32865 70.2718
8.37339 74.1939
8.41812 77.5845
8.46288 86.2667
8.50761 128.705
8.55235 368.49
8.59709 1081.12
8.64183 2263.41
8.68658 1086.15
8.73134 175.778
8.77609 94.7993
8.82083 88.3421
8.86558 85.7823
8.91033 83.6043
8.9551 82.5466
8.99985 80.9116
9.04461 79.9439
9.08936 79.6344
9.13412 79.0762
9.17888 79.3544
9.22365 92.7857
9.26841 116.384
9.31318 90.0678
9.35794 79.8794
9.4027 79.8215
9.44749 80.9288
9.49226 80.8733
9.53703 81.5708
9.5818 83.516
9.62657 84.1927
9.67134 86.6024
9.71614 87.864
9.76091 89.2762
9.80569 91.6531
9.85047 93.7994
9.89525 98.9282
9.94005 106.101
9.98484 147.76
10.0296 346.912
10.0744 772.346
10.1192 1747.1
10.164 1665.21
10.2088 435.794
10.2536 124.811
10.2984 102.937
10.3432 100.804
10.388 97.3116
10.4328 107.64
10.4776 160.406
10.5224 268.589
10.5672 505.267
10.612 558.095
10.6568 227.24
10.7017 104.883
10.7465 86.3525
10.7913 80.1432
10.8361 77.5751
10.8809 75.2855
10.9257 73.2852
10.9706 72.3872
11.0154 70.7092
11.0602 69.3985
11.105 68.0729
11.1499 66.9905
11.1947 67.3523
11.2395 65.731
11.2844 64.7121
11.3292 63.7721
11.374 63.0245
11.4189 62.8155
11.4637 61.7451
11.5086 61.0546
11.5534 60.927
11.5983 60.9914
11.6431 60.4959
11.688 59.8355
11.7328 59.8601
11.7777 59.845
11.8225 59.6714
11.8674 59.9622
11.9122 62.2627
11.9571 69.2154
12.002 67.1856
12.0468 64.3673
12.0917 76.3994
12.1366 98.3855
12.1814 146.609
12.2263 205.534
12.2712 176.125
12.3161 99.2952
12.3609 64.5902
12.4058 61.3089
12.4507 61.0653
12.4956 61.0491
12.5405 61.4703
12.5853 61.8403
12.6302 62.4425
12.6751 63.9966
12.72 63.5743
12.7649 64.6998
12.8098 65.0693
12.8547 66.3403
12.8996 67.5531
12.9445 69.3572
12.9894 70.8363
13.0343 72.6504
13.0792 76.616
13.1242 82.5395
13.1691 107.421
13.214 146.731
13.2589 227.666
13.3038 364.723
13.3487 442.955
13.3937 279.05
13.4386 127.005
13.4835 99.4402
13.5285 119.612
13.5734 155.98
13.6183 236.327
13.6633 355.017
13.7082 359.535
13.7531 204.554
13.7981 100.303
13.843 79.4539
13.888 76.6878
13.9329 74.5597
13.9779 73.0634
14.0228 71.9165
14.0678 70.8176
14.1127 72.0497
14.1577 75.9194
14.2027 73.7888
14.2476 68.7905
14.2926 67.2209
14.3376 67.2478
14.3825 66.8177
14.4275 66.0314
14.4725 66.426
14.5175 66.3106
14.5624 66.1456
14.6074 66.8
14.6524 66.8583
14.6974 67.4661
14.7424 68.3462
14.7874 74.3591
14.8324 88.6733
14.8774 109.161
14.9224 147.873
14.9674 208.229
15.0124 227.234
15.0574 160.402
15.1024 93.1563
15.1474 70.882
15.1924 67.9264
15.2374 66.4182
15.2824 65.5231
15.3274 64.6816
15.3725 64.3347
15.4175 63.898
15.4625 63.6668
15.5076 63.2389
15.5526 63.2166
15.5976 63.4194
15.6426 63.8205
15.6877 68.4558
15.7327 79.4591
15.7778 93.8376
15.8228 121.713
15.8679 168.57
15.9129 200.697
15.958 166.833
16.003 102.401
16.0481 69.3625
16.0931 62.9242
16.1382 59.6755
16.1833 58.4029
16.2283 56.9313
16.2734 56.3233
16.3185 55.4859
16.3636 55.2111
16.4086 54.2437
16.4537 53.9606
16.4988 53.2524
16.5439 53.2532
16.589 53.0085
16.6341 52.8173
16.6792 52.5496
16.7243 52.6022
16.7694 52.6826
16.8145 52.6846
16.8596 52.92
16.9047 53.5173
16.9498 54.1742
16.9949 53.7913
17.04 53.6879
17.0851 54.7569
17.1302 57.0006
17.1754 59.9722
17.2205 64.6542
17.2656 72.3586
17.3108 81.5906
17.3559 82.3728
17.401 71.5967
17.4462 61.5979
17.4913 57.3346
17.5365 57.1385
17.5815 57.2609
17.6268 57.7907
17.6718 58.1571
17.7171 58.6942
17.7622 59.8388
17.8074 60.8938
17.8525 61.598
17.8977 66.3901
17.9428 72.7798
17.9881 81.5429
18.0331 97.3914
18.0784 121.09
18.1237 141.817
18.1688 136.723
18.214 108.103
18.2591 87.7688
18.3044 88.7049
18.3495 99.3161
18.3948 107.081
18.4399 97.4434
18.4852 78.9609
18.5303 65.7686
18.5756 61.1045
18.6207 60.2004
18.666 58.8173
18.7112 58.0271
18.7565 57.3846
18.8016 56.977
18.8469 56.4246
18.892 56.2212
18.9374 55.7021
18.9825 55.3251
19.0278 55.0296
19.073 54.9489
19.1183 55.2499
19.1635 56.2169
19.2088 57.9873
19.254 60.8104
19.2993 65.4702
19.3447 71.8322
19.3898 76.0862
19.4352 72.3358
19.4804 63.3149
19.5257 56.0909
19.5709 52.9136
19.6163 52.2164
19.6615 52.3398
19.7068 51.6747
19.752 51.5932
19.7974 51.5541
19.8426 52.5268
19.888 53.407
19.9332 54.878
19.9786 57.2546
20.0238 60.7518
20.0692 66.4921
20.1144 70.2849
20.1598 68.8962
20.205 63.7633
20.2504 61.4896
20.2957 63.4253
20.3411 65.422
20.3863 63.8546
20.4318 58.0312
20.477 52.6994
20.5224 49.943
20.5677 49.2234
20.6131 48.7281
20.6586 48.2774
20.7038 48.1346
20.7493 48.1072
20.7945 48.1509
20.84 47.9063
20.8853 47.5607
20.9307 47.1075
20.976 47.3186
21.0215 47.2289
21.0668 47.6492
21.1122 48.0863
21.1575 48.5861
21.203 49.4606
21.2483 50.3914
21.2938 50.5386
21.3391 48.9848
21.3846 47.8025
21.4299 47.1712
21.4754 47.2725
21.5207 47.3039
21.5662 47.4402
21.6116 47.8177
21.6571 48.6337
21.7024 50.1236
21.7479 51.5648
21.7933 54.128
21.8388 57.8449
21.8843 62.5931
21.9297 65.3989
21.9752 63.6838
22.0206 59.6134
22.0661 56.1894
22.1115 55.558
22.157 55.9048
22.2024 54.2
22.248 50.9173
22.2933 48.9371
22.3389 47.8648
22.3843 47.7034
22.4299 47.4606
22.4753 47.4903
22.5208 47.3719
22.5662 47.3684
22.6118 47.4794
22.6572 47.6522
22.7028 48.1956
22.7483 48.7997
22.7939 49.5462
22.8393 51.0535
22.8849 53.2808
22.9303 55.7667
22.9759 57.5811
23.0214 57.2861
23.067 54.4855
23.1126 51.0027
23.1581 48.4758
23.2037 47.672
23.2492 47.5449
23.2948 47.88
23.3403 48.4427
23.3859 49.2518
23.4314 50.3062
23.477 51.9394
23.5225 54.4507
23.5682 57.12
23.6137 58.329
23.6593 56.3184
23.7048 51.8076
23.7505 48.0684
23.796 45.9595
23.8417 45.1429
23.8872 44.5368
23.9329 44.2668
23.9784 43.8387
24.0241 43.6342
24.0697 43.4851
24.1154 43.1746
24.1609 42.9105
24.2066 42.719
24.2522 42.7425
24.2979 42.4676
24.3434 42.3223
24.3892 42.156
24.4349 42.0578
24.4805 42.0496
24.5262 42.0876
24.5718 41.9615
24.6175 42.0888
24.6631 42.0309
24.7089 41.6222
24.7545 41.3158
24.8002 41.1662
24.8458 41.2449
24.8916 41.1362
24.9372 41.1457
24.983 41.5383
25.0286 41.8766
25.0744 42.5297
25.12 43.0776
25.1658 43.6506
25.2114 44.115
25.2572 44.2978
25.3029 44.4404
25.3487 44.4947
25.3943 44.2138
25.4402 43.1676
25.4858 41.8091
25.5316 40.7478
25.5773 40.0594
25.6231 39.9709
25.669 39.5876
25.7147 39.7864
25.7605 39.5486
25.8062 39.599
25.8521 39.747
25.8977 39.784
25.9436 40.0509
25.9893 40.0577
26.0352 40.8295
26.0809 40.9127
26.1268 41.1896
26.1725 40.9516
26.2184 40.2876
26.2641 39.471
26.31 39.3653
26.3557 39.3983
26.4017 39.4367
26.4474 39.6796
26.4933 40.0489
26.5391 40.5323
26.585 41.1184
26.6308 41.5621
26.6767 41.7541
26.7225 41.6975
26.7684 41.1343
26.8142 40.5857
26.8601 40.0175
26.9059 39.6593
26.9519 39.0671
26.9979 38.7137
27.0437 38.245
27.0896 37.9595
27.1354 38.0111
27.1814 37.8319
27.2272 37.7198
27.2732 37.8781
27.3191 37.5856
27.3651 37.8061
27.4109 37.6897
27.4569 37.9396
27.5027 37.9096
27.5488 38.0209
27.5946 37.8151
27.6407 37.6275
27.6865 37.459
27.7326 37.2291
27.7784 37.2094
27.8245 37.1544
27.8703 37.4056
27.9164 37.6705
27.9623 37.7712
28.0084 38.3246
28.0543 38.8714
28.1003 38.7636
28.1462 38.5541
28.1923 38.225
28.2384 37.6007
28.2843 37.1288
28.3304 36.7071
28.3764 36.0917
28.4225 35.8162
28.4684 35.5874
28.5145 35.1596
28.5605 35.2139
28.6066 35.0487
28.6526 34.8898
28.6987 34.95
28.7447 34.8337
28.7908 34.6999
28.8368 34.7435
28.8829 34.6661
28.9289 34.8007
28.9751 34.6205
29.0211 34.2947
29.0673 34.054
29.1133 33.8879
29.1595 33.6705
29.2055 33.658
29.2517 33.791
29.2977 33.6037
29.3439 33.6863
29.3899 33.756
29.4361 33.5359
29.4824 33.3589
29.5284 33.0734
29.5746 32.845
29.6207 32.4455
29.6669 32.3524
29.713 32.3235
29.7593 32.1135
29.8053 32.2568
29.8516 32.0603
29.8977 32.1984
29.9439 31.9836
29.99 31.9436
30.0363 31.8537
30.0824 31.896
30.1287 31.8436
30.1748 31.8386
30.2211 31.8454
30.2673 31.7143
30.3136 31.7869
30.3597 31.579
30.406 31.5728
30.4522 31.4327
30.4985 31.3428
30.5447 31.6388
30.591 31.5695
30.6372 31.7209
30.6835 31.7014
30.7297 31.8127
30.7761 31.7951
30.8224 31.5195
30.8686 31.4278
30.915 31.1767
30.9612 30.9598
31.0076 30.797
31.0538 30.6677
31.1002 30.6067
31.1464 30.3676
31.1928 30.458
31.2391 30.4878
31.2855 30.375
31.3317 30.3038
31.3781 30.3899
31.4244 30.4727
31.4708 30.3776
31.5171 30.3632
31.5636 30.3344
31.6098 30.173
31.6563 29.9226
31.7026 29.7657
31.7491 29.5971
31.7953 29.7211
31.8418 29.6497
31.8881 29.6694
31.9346 29.7275
31.9809 29.5513
32.0275 29.5894
32.074 29.3905
32.1203 29.1589
32.1668 29.028
32.2132 28.8126
32.2597 28.7995
32.306 28.7597
32.3526 28.4733
32.399 28.3803
32.4455 28.2724
32.4919 28.1946
32.5385 28.1403
32.5848 28.0238
32.6314 28.0647
32.6778 27.9589
32.7244 27.7264
32.7708 27.6763
32.8174 27.7007
32.8638 27.5667
32.9104 27.6116
32.9569 27.5332
33.0035 27.4835
33.0499 27.4059
33.0966 27.3403
33.143 27.4228
33.1897 27.249
33.2361 27.2049
33.2828 27.1914
33.3293 26.8623
33.3759 26.914
33.4226 26.8533
33.4691 26.6769
33.5158 26.5866
33.5623 26.4572
33.609 26.1915
33.6555 26.1176
33.7022 26.112
33.7487 26.0033
33.7954 26.0276
33.842 25.9456
33.8887 25.8854
33.9353 25.7909
33.982 25.6455
34.0286 25.5367
34.0753 25.5385
34.1219 25.3959
34.1687 25.3519
34.2152 25.3303
34.262 25.1787
34.3086 25.1225
34.3554 25.1474
34.402 25.0033
34.4488 24.8939
34.4954 24.7669
34.5422 24.7289
34.5889 24.6063
34.6357 24.4971
34.6825 24.5058
34.7292 24.3734
34.776 24.3177
34.8227 24.2495
34.8695 24.168
34.9162 24.1701
34.9631 24.0638
35.0098 24.0786
35.0566 23.9728
35.1033 23.8726
35.1502 23.7897
35.1969 23.7811
35.2438 23.7517
35.2906 23.6464
35.3375 23.6879
35.3842 23.5873
35.4311 23.682
35.4779 23.605
35.5248 23.5545
35.5716 23.3911
35.6185 23.3624
35.6653 23.2294
35.7123 23.079
35.759 23.063
35.806 22.9804
35.8528 22.8839
35.8998 22.8531
35.9468 22.7213
35.9936 22.725
36.0406 22.6269
36.0874 22.646
36.1345 22.5743
36.1813 22.4202
36.2283 22.339
36.2752 22.3372
36.3222 22.3116
36.3691 22.2794
36.4161 22.1146
36.463 22.0585
36.5101 22.0966
36.557 22.0379
36.6041 21.8732
36.651 21.8482
36.6981 21.7502
36.745 21.6695
36.7921 21.6311
36.839 21.4878
36.8861 21.4292
36.9331 21.4346
36.9802 21.3469
37.0272 21.1388
37.0743 21.1265
37.1213 21.1069
37.1684 21.0334
37.2154 20.9821
37.2626 20.8977
37.3098 20.8418
37.3568 20.777
37.404 20.7473
37.451 20.687
37.4982 20.5825
37.5452 20.4758
37.5924 20.4047
37.6395 20.505
37.6867 20.3936
37.7337 20.3083
37.781 20.1939
37.8281 20.1589
37.8753 20.095
37.9224 19.9949
37.9697 19.9617
38.0168 19.8677
38.064 19.7113
38.1111 19.6829
38.1584 19.6762
38.2056 19.5726
38.2529 19.6156
38.3 19.4901
38.3473 19.4963
38.3945 19.3888
38.4418 19.3323
38.489 19.2665
38.5363 19.1712
38.5837 19.1437
38.6309 19.108
38.6782 18.9944
38.7254 18.8876
38.7728 18.8999
38.82 18.8223
38.8674 18.7503
38.9146 18.7986
38.9621 18.6211
39.0093 18.64
39.0567 18.5475
39.104 18.4365
39.1514 18.3788
39.1987 18.3579
39.2461 18.3169
39.2934 18.2751
39.3409 18.2039
39.3882 18.0978
39.4356 18.0631
39.483 18.0395
39.5304 17.9292
39.5778 17.925
39.6253 17.8474
39.6726 17.7843
39.7201 17.7213
39.7675 17.6939
39.815 17.6106
39.8624 17.5277
39.9099 17.5267
39.9575 17.3878
40.0049 17.402
40.0525 17.2998
40.0999 17.2837
40.1474 17.2683
40.1949 17.1615
40.2425 17.0603
40.2899 17.0859
40.3375 16.9477
40.385 16.9878
40.4326 16.8737
40.48 16.8399
40.5277 16.8166
40.5752 16.7551
40.6228 16.6757
40.6703 16.6344
40.718 16.5525
40.7655 16.5476
40.8132 16.4922
40.8607 16.4595
40.9084 16.4234
40.9559 16.3497
41.0036 16.2545
41.0512 16.2394
41.0989 16.1605
41.1465 16.1282
41.1942 16.0861
41.242 15.9747
41.2896 15.9524
41.3373 15.9174
41.3849 15.8135
41.4327 15.7799
41.4803 15.7305
41.5281 15.7184
41.5758 15.6132
41.6236 15.537
41.6712 15.5495
41.7191 15.4819
41.7667 15.3771
41.8146 15.4221
41.8622 15.331
41.9101 15.3299
41.9578 15.2541
42.0057 15.1839
42.0534 15.094
42.1013 15.1063
42.149 15.0177
42.1969 14.9541
42.2446 14.8954
42.2925 14.8518
42.3403 14.8338
42.3882 14.8071
42.436 14.764
42.4839 14.6188
42.5319 14.6165
42.5797 14.527
42.6277 14.538
42.6755 14.4605
42.7235 14.382
42.7713 14.3691
42.8193 14.3693
42.8671 14.3583
42.9152 14.2093
42.963 14.1737
43.0111 14.1128
43.0589 14.0436
43.107 14.018
43.1549 13.9669
43.2029 13.9351
43.2508 13.9301
43.2989 13.8449
43.3468 13.7571
43.3949 13.6955
43.4429 13.706
43.491 13.6648
43.5389 13.7011
43.5871 13.6164
43.635 13.4894
43.6832 13.4695
43.7312 13.3714
43.7793 13.3462
43.8273 13.3456
43.8755 13.2569
43.9237 13.2168
43.9717 13.2056
44.0199 13.1368
44.068 13.1008
44.1162 13.0745
44.1642 13.044
44.2125 12.9791
44.2606 12.8841
44.3088 12.865
44.3569 12.8204
44.4052 12.8203
44.4533 12.7326
44.5016 12.6501
44.5497 12.6667
44.598 12.6299
44.6461 12.5845
44.6945 12.5222
44.7426 12.4728
44.791 12.3672
44.8391 12.3435
44.8875 12.3462
44.9357 12.2979
44.984 12.2318
45.0322 12.1695
45.0806 12.1682
45.1288 12.1216
45.1773 12.079
45.2257 12.0413
45.2739 11.9988
45.3224 11.9455
45.3706 11.898
45.4191 11.8538
45.4673 11.8434
45.5158 11.7678
45.5641 11.6976
45.6126 11.7177
45.6609 11.6115
45.7094 11.6199
45.7577 11.573
45.8063 11.5182
45.8546 11.4949
45.9031 11.4822
45.9515 11.3812
46.0001 11.3659
46.0484 11.3338
46.097 11.2894
46.1454 11.2717
46.194 11.1877
46.2424 11.1833
46.291 11.1405
46.3395 11.0873
46.3881 11.064
46.4365 11.0238
46.4852 10.9249
46.5337 10.8675
46.5823 10.8812
46.631 10.8583
46.6795 10.837
46.7282 10.7812
46.7767 10.7221
46.8254 10.7032
46.8739 10.6663
46.9226 10.5698
46.9712 10.5791
47.0199 10.5368
47.0685 10.5031
47.1173 10.4544
47.1658 10.4154
47.2146 10.3744
47.2632 10.2999
47.312 10.2928
47.3606 10.2358
47.4095 10.2453
47.4581 10.1904
47.5069 10.1255
47.5556 10.1513
47.6044 10.0964
47.6531 10.0478
47.702 9.94238
47.7507 9.96222
47.7996 9.89077
47.8483 9.9001
47.8972 9.86461
47.9461 9.82481
47.9948 9.73682
48.0438 9.73597
48.0925 9.72305
48.1415 9.68496
48.1902 9.63783
48.2392 9.61763
48.288 9.5843
48.337 9.54919
48.3858 9.49569
48.4348 9.46632
48.4837 9.46416
48.5327 9.39955
48.5815 9.37848
48.6306 9.33085
48.6795 9.30276
48.7285 9.29168
48.7774 9.20179
48.8265 9.19305
48.8754 9.13256
48.9245 9.12181
48.9734 9.09071
49.0226 9.06652
49.0715 9.0631
49.1206 9.00988
49.1696 8.95675
49.2188 8.95508
49.2679 8.89072
49.3169 8.84739
49.3661 8.82842
49.4151 8.77034
49.4643 8.76325
49.5134 8.72535
49.5626 8.68385
49.6117 8.64147
49.6609 8.61274
49.71 8.53373
49.7592 8.53916
49.8083 8.49243
49.8576 8.48914
49.9067 8.44809
49.956 8.41
50.0052 8.4315
50.0545 8.35324
50.1036 8.30655
50.153 8.25515
50.2022 8.23103
50.2515 8.21411
50.3007 8.1561
50.3501 8.11962
50.3993 8.10623
50.4487 8.09929
50.498 8.02132
50.5474 8.00725
50.5966 8.00524
50.6461 7.9895
50.6955 7.96334
50.7448 7.92115
50.7943 7.90848
50.8436 7.87531
50.8931 7.82698
50.9424 7.77326
50.9919 7.76866
51.0413 7.7704
51.0908 7.67503
51.1402 7.68808
51.1897 7.63096
51.2391 7.61813
51.2887 7.56023
51.3381 7.54043
51.3877 7.52693
51.4371 7.44571
51.4867 7.44173
51.5362 7.40675
51.5858 7.39082
51.6353 7.34969
51.6849 7.32704
51.7344 7.29308
51.7841 7.30291
51.8336 7.25076
51.8833 7.23651
51.9328 7.1903
51.9826 7.11652
52.0323 7.11145
52.0818 7.11535
52.1316 7.0193
52.1812 7.0164
52.231 7.02004
52.2806 7.01912
52.3304 6.93642
52.38 6.90743
52.4298 6.88081
52.4794 6.85425
52.5293 6.85233
52.5789 6.83465
52.6288 6.7561
52.6785 6.73727
52.7284 6.72619
52.7781 6.68389
52.828 6.655
52.8777 6.62309
52.9276 6.59706
52.9774 6.57671
53.0273 6.55014
53.0771 6.52666
53.1271 6.53198
53.1769 6.47299
53.2269 6.44074
53.2767 6.423
53.3267 6.36135
53.3765 6.35749
53.4266 6.32932
53.4766 6.30347
53.5265 6.24185
53.5765 6.27394
53.6264 6.20834
53.6765 6.18599
53.7264 6.15246
53.7765 6.1176
53.8265 6.07592
53.8766 6.07653
53.9266 6.09271
53.9767 6.00244
54.0267 5.98282
54.0769 5.99312
54.1269 5.9665
54.1771 5.91897
54.2271 5.87168
54.2773 5.8338
54.3274 5.86092
54.3776 5.79788
54.4277 5.80236
54.478 5.73978
54.528 5.69958
54.5783 5.67616
54.6285 5.63701
54.6788 5.59368
54.7289 5.60095
54.7792 5.48325
54.8296 5.4684
54.8798 5.4357
54.9301 5.43128
54.9803 5.31797
55.0307 5.34738
55.0809 5.25456
55.1314 5.24159
55.1816 5.19642
55.232 5.14987
55.2823 5.12372
55.3328 5.07068
55.383 5.02138
55.4335 5.00431
55.4838 4.92607
55.5344 4.91846
55.5847 4.83829
55.6352 4.81957
55.6856 4.82062
55.7361 4.77581