File: XRD/Ni3Fe_FD0483.xy
TT I
1.27165 7.32763
1.31627 6.6382
1.36089 7.03143
1.40551 5.7789
1.45013 6.65084
1.49476 5.74374
1.53938 5.98307
1.584 5.76474
1.62863 5.46796
1.67325 5.73441
1.71787 5.19094
1.7625 5.43896
1.80712 4.74506
1.85174 4.90839
1.89636 4.46056
1.94099 4.86409
1.98562 4.66149
2.03025 4.55714
2.07487 4.41498
2.11949 5.3235
2.16411 4.68529
2.20874 7.82554
2.25338 11.4181
2.298 5.15727
2.34263 4.49339
2.38725 5.49162
2.43188 5.86431
2.4765 6.84043
2.52115 6.98771
2.56577 7.04844
2.6104 7.81523
2.65503 6.62409
2.69965 7.33126
2.7443 7.84375
2.78893 7.82121
2.83356 7.45501
2.87818 8.4457
2.92281 9.0448
2.96744 9.55849
3.01209 10.1808
3.05672 10.4437
3.10135 12.4129
3.14599 12.8183
3.19062 14.0413
3.23527 15.1462
3.2799 15.4833
3.32454 16.8156
3.36917 17.6032
3.4138 18.7749
3.45844 19.7471
3.50309 20.9706
3.54773 21.3444
3.59237 23.3736
3.637 50.526
3.68164 37.6529
3.7263 25.2333
3.77094 25.6871
3.81558 26.6765
3.86022 27.2921
3.90486 28.9531
3.9495 29.7943
3.99416 30.6721
4.0388 32.1268
4.08344 33.3569
4.12809 34.874
4.17273 36.4238
4.21738 40.1904
4.26204 121.079
4.30669 106.958
4.35133 45.1327
4.39598 44.1034
4.44063 49.0001
4.4853 54.3555
4.52995 55.2179
4.5746 55.2735
4.61925 54.2843
4.6639 56.4379
4.70855 59.3157
4.75322 62.4487
4.79788 67.7027
4.84253 69.1475
4.88719 75.8333
4.93184 78.1418
4.97652 83.4914
5.02118 90.4131
5.06583 98.6299
5.11049 112.229
5.15515 165.275
5.19981 542.003
5.24449 3515.11
5.28916 11694.5
5.33382 2830.15
5.37848 207.432
5.42315 135.597
5.46783 121.25
5.5125 112.318
5.55716 105.401
5.60183 100.327
5.6465 98.456
5.69117 96.3131
5.73586 95.2821
5.78053 98.751
5.8252 97.8724
5.86988 99.7781
5.91455 99.1965
5.95924 112.666
6.00392 301.791
6.0486 1199.95
6.09328 4249.91
6.13795 3255.54
6.18263 252.202
6.22733 95.6442
6.27201 83.264
6.3167 87.011
6.36138 76.3888
6.40606 71.1247
6.45075 69.5077
6.49545 66.1384
6.54014 64.5021
6.58483 63.7018
6.62952 63.4287
6.67421 74.4067
6.71892 92.5821
6.76361 63.2218
6.8083 59.4737
6.853 59.0693
6.89769 57.3205
6.94239 56.8789
6.98711 56.4508
7.03181 56.5748
7.07651 55.5924
7.12121 55.6077
7.16591 56.888
7.21063 55.7173
7.25533 61.4246
7.30004 101.599
7.34475 69.0746
7.38945 55.6573
7.43416 54.4545
7.47889 54.4356
7.5236 54.7042
7.56831 55.8379
7.61303 56.3758
7.65774 56.9892
7.70247 57.3286
7.74719 57.1643
7.79191 57.6418
7.83663 57.5775
7.88135 58.5978
7.92607 59.4775
7.97081 60.6257
8.01553 61.8732
8.06026 63.4264
8.10498 65.278
8.14971 71.3508
8.19446 71.2501
8.23919 70.5159
8.28392 73.3815
8.32865 75.6538
8.37339 80.3242
8.41812 86.1307
8.46288 108.701
8.50761 212.967
8.55235 468.785
8.59709 1246.4
8.64183 2158.45
8.68658 947.532
8.73134 163.624
8.77609 101.531
8.82083 94.4348
8.86558 93.1691
8.91033 91.9663
8.9551 90.2572
8.99985 86.7393
9.04461 85.2293
9.08936 84.9468
9.13412 83.9731
9.17888 83.4657
9.22365 83.8357
9.26841 83.8614
9.31318 85.5808
9.35794 86.6992
9.4027 86.1134
9.44749 86.2256
9.49226 86.1646
9.53703 87.4676
9.5818 90.3332
9.62657 94.1011
9.67134 96.0544
9.71614 94.5444
9.76091 96.5769
9.80569 100.307
9.85047 103.289
9.89525 114.821
9.94005 134.411
9.98484 224.146
10.0296 414.638
10.0744 890.968
10.1192 1701.08
10.164 1595.25
10.2088 397.1
10.2536 129.247
10.2984 112.511
10.3432 111.538
10.388 108.608
10.4328 132.366
10.4776 179.807
10.5224 304.878
10.5672 499.613
10.612 495.345
10.6568 199.162
10.7017 97.3336
10.7465 88.1437
10.7913 84.696
10.8361 82.2287
10.8809 80.239
10.9257 78.9297
10.9706 78.7
11.0154 75.7381
11.0602 73.9178
11.105 72.5468
11.1499 73.2672
11.1947 75.4383
11.2395 71.6315
11.2844 69.7466
11.3292 67.8066
11.374 67.0124
11.4189 66.6169
11.4637 65.8913
11.5086 65.7893
11.5534 66.5417
11.5983 65.0923
11.6431 64.3602
11.688 63.671
11.7328 63.8949
11.7777 63.7273
11.8225 63.6928
11.8674 63.4968
11.9122 63.6724
11.9571 64.2125
12.002 65.9096
12.0468 72.4355
12.0917 84.2616
12.1366 109.538
12.1814 156.1
12.2263 202.044
12.2712 166.903
12.3161 90.532
12.3609 68.2917
12.4058 64.9622
12.4507 65.0998
12.4956 65.7776
12.5405 65.6441
12.5853 66.0212
12.6302 69.0127
12.6751 72.0094
12.72 69.0346
12.7649 68.789
12.8098 69.6846
12.8547 71.0117
12.8996 72.5356
12.9445 74.173
12.9894 75.9691
13.0343 77.8398
13.0792 82.3246
13.1242 98.4517
13.1691 122.397
13.214 163.76
13.2589 252.982
13.3038 369.678
13.3487 420.757
13.3937 257.358
13.4386 125.064
13.4835 114.006
13.5285 131.732
13.5734 172.699
13.6183 255.183
13.6633 343.144
13.7082 337.414
13.7531 186.937
13.7981 97.4301
13.843 82.9603
13.888 80.9145
13.9329 78.2995
13.9779 77.149
14.0228 75.6123
14.0678 74.2855
14.1127 73.6432
14.1577 73.3213
14.2027 72.4245
14.2476 71.643
14.2926 71.2481
14.3376 71.5911
14.3825 70.9334
14.4275 70.0886
14.4725 69.8355
14.5175 70.1702
14.5624 70.3377
14.6074 71.11
14.6524 71.7099
14.6974 72.0727
14.7424 76.3986
14.7874 84.2881
14.8324 95.2979
14.8774 118.863
14.9224 158.566
14.9674 204.138
15.0124 214.952
15.0574 148.113
15.1024 90.2592
15.1474 73.4382
15.1924 71.4483
15.2374 70.6549
15.2824 69.9096
15.3274 68.5494
15.3725 67.7583
15.4175 67.5884
15.4625 67.0206
15.5076 67.1107
15.5526 67.1821
15.5976 67.4045
15.6426 70.4048
15.6877 76.7269
15.7327 85.1488
15.7778 101.796
15.8228 131.307
15.8679 169.304
15.9129 191.166
15.958 153.584
16.003 95.2848
16.0481 68.2016
16.0931 64.0735
16.1382 62.4707
16.1833 61.1141
16.2283 59.927
16.2734 59.0079
16.3185 58.7197
16.3636 58.8039
16.4086 57.85
16.4537 56.9832
16.4988 56.182
16.5439 56.1827
16.589 55.8913
16.6341 55.9144
16.6792 55.1571
16.7243 55.7032
16.7694 55.6888
16.8145 55.436
16.8596 55.7907
16.9047 56.5285
16.9498 56.7628
16.9949 56.3133
17.04 57.183
17.0851 58.6664
17.1302 60.2976
17.1754 63.6068
17.2205 68.6665
17.2656 75.3161
17.3108 82.2166
17.3559 81.5383
17.401 71.353
17.4462 62.9205
17.4913 60.4554
17.5365 60.0604
17.5815 60.1756
17.6268 60.8612
17.6718 61.3105
17.7171 61.6114
17.7622 62.4204
17.8074 63.7411
17.8525 67.6349
17.8977 71.3039
17.9428 77.345
17.9881 86.837
18.0331 103.331
18.0784 122.815
18.1237 140.6
18.1688 133.063
18.214 104.833
18.2591 88.4211
18.3044 92.3184
18.3495 100.659
18.3948 106.531
18.4399 96.1812
18.4852 77.7478
18.5303 66.5654
18.5756 63.1422
18.6207 62.2013
18.666 61.4338
18.7112 60.6195
18.7565 59.7853
18.8016 59.7109
18.8469 58.9277
18.892 58.7519
18.9374 58.0766
18.9825 57.8646
19.0278 57.7978
19.073 58.1458
19.1183 58.6769
19.1635 59.0687
19.2088 60.884
19.254 63.6229
19.2993 67.8904
19.3447 72.6649
19.3898 76.6157
19.4352 72.7392
19.4804 63.6019
19.5257 57.2127
19.5709 54.8829
19.6163 54.7692
19.6615 54.6183
19.7068 54.2552
19.752 54.3094
19.7974 54.8757
19.8426 55.8071
19.888 56.0412
19.9332 57.6446
19.9786 60.5371
20.0238 63.5804
20.0692 67.8713
20.1144 70.6905
20.1598 69.094
20.205 64.7577
20.2504 62.7656
20.2957 64.2083
20.3411 65.9586
20.3863 64.5229
20.4318 58.5567
20.477 53.9417
20.5224 51.9793
20.5677 51.2332
20.6131 50.7293
20.6586 50.5624
20.7038 50.2653
20.7493 49.6411
20.7945 49.873
20.84 49.705
20.8853 49.6211
20.9307 49.6207
20.976 49.4911
21.0215 49.4193
21.0668 49.8213
21.1122 50.4505
21.1575 50.7939
21.203 51.4219
21.2483 52.011
21.2938 51.9805
21.3391 50.7935
21.3846 49.588
21.4299 49.0895
21.4754 49.0452
21.5207 49.4169
21.5662 49.8225
21.6116 50.5327
21.6571 51.0578
21.7024 52.0823
21.7479 54.0385
21.7933 56.7854
21.8388 59.943
21.8843 63.1738
21.9297 65.3866
21.9752 63.9011
22.0206 60.0063
22.0661 56.8558
22.1115 56.5413
22.157 56.5469
22.2024 55.0503
22.248 52.1636
22.2933 50.5393
22.3389 49.7219
22.3843 49.5917
22.4299 49.4401
22.4753 49.4138
22.5208 49.2653
22.5662 49.3136
22.6118 49.6327
22.6572 49.8997
22.7028 50.2497
22.7483 50.604
22.7939 51.7373
22.8393 52.9272
22.8849 54.8811
22.9303 56.636
22.9759 58.2434
23.0214 57.5778
23.067 54.8606
23.1126 51.6845
23.1581 50.0204
23.2037 49.6159
23.2492 49.8227
23.2948 49.7899
23.3403 49.867
23.3859 50.8521
23.4314 51.843
23.477 53.644
23.5225 55.571
23.5682 57.3858
23.6137 58.407
23.6593 55.9827
23.7048 52.0552
23.7505 48.9309
23.796 47.1361
23.8417 46.6032
23.8872 46.1247
23.9329 45.9752
23.9784 45.4604
24.0241 45.2158
24.0697 44.9531
24.1154 44.926
24.1609 44.6038
24.2066 44.3921
24.2522 44.3133
24.2979 43.9801
24.3434 44.0262
24.3892 43.8697
24.4349 43.7605
24.4805 43.5172
24.5262 43.7613
24.5718 43.5764
24.6175 43.6023
24.6631 43.4396
24.7089 43.208
24.7545 42.9355
24.8002 42.8508
24.8458 42.8836
24.8916 42.6148
24.9372 42.9354
24.983 43.4053
25.0286 43.583
25.0744 44.0967
25.12 44.5382
25.1658 45.0478
25.2114 45.3583
25.2572 45.3976
25.3029 45.2239
25.3487 45.3878
25.3943 45.2258
25.4402 44.0054
25.4858 42.8932
25.5316 42.1115
25.5773 41.5506
25.6231 41.5059
25.669 41.1137
25.7147 41.0681
25.7605 41.0119
25.8062 41.1109
25.8521 41.3738
25.8977 41.2306
25.9436 41.5661
25.9893 41.7693
26.0352 42.106
26.0809 42.1864
26.1268 42.3733
26.1725 41.9859
26.2184 41.2895
26.2641 40.8995
26.31 40.803
26.3557 40.8739
26.4017 40.7685
26.4474 41.2008
26.4933 41.5308
26.5391 41.8629
26.585 42.2145
26.6308 42.678
26.6767 42.8564
26.7225 42.4575
26.7684 41.9791
26.8142 41.4033
26.8601 41.022
26.9059 40.6914
26.9519 40.0716
26.9979 39.8414
27.0437 39.4835
27.0896 39.3323
27.1354 39.3291
27.1814 39.1972
27.2272 39.0345
27.2732 39.1273
27.3191 39.0559
27.3651 38.964
27.4109 38.9764
27.4569 39.0624
27.5027 39.1513
27.5488 39.0755
27.5946 38.8393
27.6407 38.7774
27.6865 38.694
27.7326 38.3036
27.7784 38.4335
27.8245 38.4625
27.8703 38.6255
27.9164 38.9091
27.9623 38.9431
28.0084 39.2366
28.0543 39.7221
28.1003 39.6158
28.1462 39.4177
28.1923 39.0054
28.2384 38.4272
28.2843 38.0966
28.3304 37.7299
28.3764 37.088
28.4225 36.9009
28.4684 36.71
28.5145 36.4889
28.5605 36.4427
28.6066 36.119
28.6526 36.1313
28.6987 36.1227
28.7447 36.0719
28.7908 35.8692
28.8368 35.9605
28.8829 35.8664
28.9289 35.8049
28.9751 35.7133
29.0211 35.5242
29.0673 35.1834
29.1133 35.1325
29.1595 34.9227
29.2055 34.7892
29.2517 34.9064
29.2977 34.8152
29.3439 34.7322
29.3899 34.7499
29.4361 34.5855
29.4824 34.5335
29.5284 34.2555
29.5746 33.9279
29.6207 33.6436
29.6669 33.5424
29.713 33.4829
29.7593 33.3658
29.8053 33.407
29.8516 33.1888
29.8977 33.2517
29.9439 33.1145
29.99 33.0681
30.0363 32.817
30.0824 33.0918
30.1287 32.9587
30.1748 32.9213
30.2211 32.9039
30.2673 32.7525
30.3136 32.6861
30.3597 32.7582
30.406 32.6009
30.4522 32.4743
30.4985 32.5786
30.5447 32.6923
30.591 32.5912
30.6372 32.69
30.6835 32.537
30.7297 32.7238
30.7761 32.6896
30.8224 32.4615
30.8686 32.3348
30.915 31.997
30.9612 31.8918
31.0076 31.8317
31.0538 31.6243
31.1002 31.5719
31.1464 31.3762
31.1928 31.3057
31.2391 31.4004
31.2855 31.3281
31.3317 31.2354
31.3781 31.4596
31.4244 31.3288
31.4708 31.2945
31.5171 31.2328
31.5636 31.1472
31.6098 31.013
31.6563 30.8045
31.7026 30.7352
31.7491 30.5674
31.7953 30.6408
31.8418 30.6555
31.8881 30.6845
31.9346 30.5656
31.9809 30.3499
32.0275 30.3832
32.074 30.2054
32.1203 30.0168
32.1668 29.9578
32.2132 29.7979
32.2597 29.625
32.306 29.559
32.3526 29.4076
32.399 29.3104
32.4455 29.1589
32.4919 29.1127
32.5385 29.0613
32.5848 28.8782
32.6314 28.9568
32.6778 28.8943
32.7244 28.7467
32.7708 28.6256
32.8174 28.6101
32.8638 28.3284
32.9104 28.4567
32.9569 28.4423
33.0035 28.2694
33.0499 28.2661
33.0966 28.2182
33.143 28.2508
33.1897 28.1186
33.2361 27.9814
33.2828 27.9752
33.3293 27.7885
33.3759 27.7468
33.4226 27.5857
33.4691 27.4584
33.5158 27.4493
33.5623 27.2642
33.609 27.1368
33.6555 27.1237
33.7022 26.9072
33.7487 26.9415
33.7954 26.8046
33.842 26.7924
33.8887 26.6865
33.9353 26.6402
33.982 26.4774
34.0286 26.3938
34.0753 26.389
34.1219 26.3006
34.1687 26.1764
34.2152 26.1377
34.262 25.9923
34.3086 25.8855
34.3554 25.8896
34.402 25.773
34.4488 25.7346
34.4954 25.5614
34.5422 25.4668
34.5889 25.4008
34.6357 25.3045
34.6825 25.2823
34.7292 25.1719
34.776 25.1435
34.8227 25.0328
34.8695 24.9467
34.9162 24.9215
34.9631 24.8036
35.0098 24.8784
35.0566 24.623
35.1033 24.7224
35.1502 24.6085
35.1969 24.4913
35.2438 24.5059
35.2906 24.4436
35.3375 24.4528
35.3842 24.3454
35.4311 24.256
35.4779 24.3506
35.5248 24.1927
35.5716 24.1329
35.6185 24.0226
35.6653 23.9966
35.7123 23.8283
35.759 23.7906
35.806 23.7643
35.8528 23.5602
35.8998 23.4692
35.9468 23.3885
35.9936 23.3976
36.0406 23.2909
36.0874 23.3063
36.1345 23.2686
36.1813 23.1064
36.2283 23.0315
36.2752 22.9587
36.3222 22.9879
36.3691 22.8648
36.4161 22.7558
36.463 22.7823
36.5101 22.7503
36.557 22.6302
36.6041 22.4792
36.651 22.4214
36.6981 22.4177
36.745 22.3923
36.7921 22.2751
36.839 22.1423
36.8861 22.1204
36.9331 22.0037
36.9802 21.9469
37.0272 21.8222
37.0743 21.7937
37.1213 21.7261
37.1684 21.6563
37.2154 21.6694
37.2626 21.5593
37.3098 21.5056
37.3568 21.4409
37.404 21.3973
37.451 21.3577
37.4982 21.278
37.5452 21.1817
37.5924 21.0945
37.6395 21.1445
37.6867 21.0154
37.7337 20.9576
37.781 20.7273
37.8281 20.7857
37.8753 20.7044
37.9224 20.6456
37.9697 20.6038
38.0168 20.5003
38.064 20.4613
38.1111 20.3632
38.1584 20.3245
38.2056 20.1755
38.2529 20.195
38.3 20.1147
38.3473 20.0784
38.3945 19.9237
38.4418 19.9926
38.489 19.8651
38.5363 19.7479
38.5837 19.7415
38.6309 19.7112
38.6782 19.5965
38.7254 19.5106
38.7728 19.5308
38.82 19.3836
38.8674 19.3434
38.9146 19.3065
38.9621 19.2202
39.0093 19.196
39.0567 19.0895
39.104 19.0449
39.1514 18.8927
39.1987 18.961
39.2461 18.947
39.2934 18.7506
39.3409 18.7387
39.3882 18.7078
39.4356 18.6572
39.483 18.5881
39.5304 18.4937
39.5778 18.5093
39.6253 18.431
39.6726 18.3555
39.7201 18.3115
39.7675 18.2415
39.815 18.1559
39.8624 18.0421
39.9099 18.0697
39.9575 18.0111
40.0049 17.9621
40.0525 17.8459
40.0999 17.8419
40.1474 17.7956
40.1949 17.6978
40.2425 17.6347
40.2899 17.6036
40.3375 17.5674
40.385 17.4782
40.4326 17.3802
40.48 17.3497
40.5277 17.3421
40.5752 17.1723
40.6228 17.1607
40.6703 17.1498
40.718 17.1201
40.7655 17.0847
40.8132 16.995
40.8607 17.0345
40.9084 16.8926
40.9559 16.7797
41.0036 16.8145
41.0512 16.7875
41.0989 16.6865
41.1465 16.577
41.1942 16.6011
41.242 16.4974
41.2896 16.3981
41.3373 16.4375
41.3849 16.3389
41.4327 16.2825
41.4803 16.1605
41.5281 16.1899
41.5758 16.0733
41.6236 16.0413
41.6712 15.9795
41.7191 15.969
41.7667 15.9207
41.8146 15.9165
41.8622 15.8154
41.9101 15.7613
41.9578 15.6486
42.0057 15.6268
42.0534 15.5696
42.1013 15.5447
42.149 15.4796
42.1969 15.3874
42.2446 15.3818
42.2925 15.3451
42.3403 15.2744
42.3882 15.2276
42.436 15.1543
42.4839 15.1019
42.5319 15.0583
42.5797 14.9982
42.6277 14.93
42.6755 14.9056
42.7235 14.8499
42.7713 14.8066
42.8193 14.7978
42.8671 14.7287
42.9152 14.6932
42.963 14.6226
43.0111 14.5792
43.0589 14.533
43.107 14.4582
43.1549 14.4007
43.2029 14.3335
43.2508 14.3362
43.2989 14.2747
43.3468 14.1801
43.3949 14.1651
43.4429 14.1078
43.491 14.0394
43.5389 14.0159
43.5871 13.9789
43.635 13.8915
43.6832 13.8934
43.7312 13.8431
43.7793 13.7552
43.8273 13.7274
43.8755 13.7329
43.9237 13.6213
43.9717 13.5764
44.0199 13.5618
44.068 13.496
44.1162 13.4792
44.1642 13.4127
44.2125 13.3779
44.2606 13.3488
44.3088 13.3025
44.3569 13.2083
44.4052 13.195
44.4533 13.0899
44.5016 13.0546
44.5497 13.0694
44.598 12.9848
44.6461 13.0139
44.6945 12.9277
44.7426 12.8745
44.791 12.7445
44.8391 12.7953
44.8875 12.7162
44.9357 12.6924
44.984 12.6081
45.0322 12.5915
45.0806 12.5279
45.1288 12.4531
45.1773 12.4515
45.2257 12.3993
45.2739 12.3471
45.3224 12.2737
45.3706 12.2764
45.4191 12.1891
45.4673 12.1993
45.5158 12.1041
45.5641 12.0592
45.6126 12.0385
45.6609 11.9732
45.7094 11.9311
45.7577 11.9248
45.8063 11.8355
45.8546 11.8471
45.9031 11.7959
45.9515 11.7892
46.0001 11.7234
46.0484 11.6691
46.097 11.6365
46.1454 11.5815
46.194 11.5168
46.2424 11.5019
46.291 11.4397
46.3395 11.3918
46.3881 11.3486
46.4365 11.3345
46.4852 11.3146
46.5337 11.269
46.5823 11.2124
46.631 11.2024
46.6795 11.1129
46.7282 11.1043
46.7767 11.0528
46.8254 10.9734
46.8739 10.9526
46.9226 10.9138
46.9712 10.8865
47.0199 10.8519
47.0685 10.7927
47.1173 10.7769
47.1658 10.7084
47.2146 10.6683
47.2632 10.6438
47.312 10.6223
47.3606 10.5873
47.4095 10.5159
47.4581 10.5354
47.5069 10.4684
47.5556 10.3894
47.6044 10.3549
47.6531 10.3612
47.702 10.2835
47.7507 10.2607
47.7996 10.2001
47.8483 10.1482
47.8972 10.1339
47.9461 10.13
47.9948 10.0799
48.0438 10.022
48.0925 9.96967
48.1415 9.99811
48.1902 9.95062
48.2392 9.88674
48.288 9.8542
48.337 9.84078
48.3858 9.77866
48.4348 9.75718
48.4837 9.75254
48.5327 9.70754
48.5815 9.67304
48.6306 9.64592
48.6795 9.60559
48.7285 9.54766
48.7774 9.50067
48.8265 9.48223
48.8754 9.46816
48.9245 9.4052
48.9734 9.38899
49.0226 9.30773
49.0715 9.27621
49.1206 9.26491
49.1696 9.21288
49.2188 9.18336
49.2679 9.15421
49.3169 9.10911
49.3661 9.08171
49.4151 9.07255
49.4643 9.01525
49.5134 8.99823
49.5626 8.8996
49.6117 8.94835
49.6609 8.87487
49.71 8.79373
49.7592 8.7858
49.8083 8.77507
49.8576 8.78088
49.9067 8.69404
49.956 8.6964
50.0052 8.62438
50.0545 8.60706
50.1036 8.56244
50.153 8.55673
50.2022 8.48424
50.2515 8.47129
50.3007 8.42096
50.3501 8.39807
50.3993 8.3838
50.4487 8.33259
50.498 8.33612
50.5474 8.2907
50.5966 8.23336
50.6461 8.20382
50.6955 8.20508
50.7448 8.16459
50.7943 8.12507
50.8436 8.10186
50.8931 8.06875
50.9424 7.99939
50.9919 7.97196
51.0413 8.00266
51.0908 7.931
51.1402 7.91635
51.1897 7.88207
51.2391 7.86813
51.2887 7.81601
51.3381 7.7815
51.3877 7.77012
51.4371 7.70857
51.4867 7.67503
51.5362 7.64604
51.5858 7.65326
51.6353 7.54543
51.6849 7.54373
51.7344 7.53919
51.7841 7.49372
51.8336 7.4489
51.8833 7.46435
51.9328 7.40404
51.9826 7.34748
52.0323 7.3288
52.0818 7.3009
52.1316 7.28448
52.1812 7.25697
52.231 7.19875
52.2806 7.20201
52.3304 7.1364
52.38 7.13871
52.4298 7.1109
52.4794 7.04339
52.5293 7.04983
52.5789 7.00245
52.6288 6.99137
52.6785 6.90652
52.7284 6.9366
52.7781 6.89789
52.828 6.87521
52.8777 6.80648
52.9276 6.80737
52.9774 6.7677
53.0273 6.7515
53.0771 6.68154
53.1271 6.69039
53.1769 6.62594
53.2269 6.64817
53.2767 6.59497
53.3267 6.58902
53.3765 6.55079
53.4266 6.54236
53.4766 6.49841
53.5265 6.49227
53.5765 6.46145
53.6264 6.38302
53.6765 6.38538
53.7264 6.32982
53.7765 6.33143
53.8265 6.26843
53.8766 6.26411
53.9266 6.23557
53.9767 6.20768
54.0267 6.22152
54.0769 6.1186
54.1269 6.13793
54.1771 6.10758
54.2271 6.0509
54.2773 6.02502
54.3274 6.03197
54.3776 5.94278
54.4277 5.93761
54.478 5.90768
54.528 5.88493
54.5783 5.80695
54.6285 5.79516
54.6788 5.78419
54.7289 5.75553
54.7792 5.6525
54.8296 5.57108
54.8798 5.58356
54.9301 5.54851
54.9803 5.54359
55.0307 5.49394
55.0809 5.42095
55.1314 5.39808
55.1816 5.32759
55.232 5.30104
55.2823 5.27902
55.3328 5.19193
55.383 5.18595
55.4335 5.11112
55.4838 5.08554
55.5344 5.08356
55.5847 4.97871
55.6352 4.97173
55.6856 4.93525
55.7361 4.8853