File: XRD/Ni3Fe_FD0474.xy
TT I
1.27165 7.83885
1.31627 6.77016
1.36089 6.54513
1.40551 6.61766
1.45013 6.65972
1.49476 6.01724
1.53938 5.77217
1.584 5.34815
1.62863 5.59759
1.67325 5.17339
1.71787 5.07235
1.7625 4.74405
1.80712 5.17307
1.85174 4.12543
1.89636 4.99825
1.94099 5.08125
1.98562 4.63569
2.03025 4.23616
2.07487 4.46695
2.11949 4.80293
2.16411 4.41496
2.20874 8.99981
2.25338 12.2125
2.298 5.07432
2.34263 5.79076
2.38725 5.40453
2.43188 5.74205
2.4765 6.17818
2.52115 6.4264
2.56577 7.04994
2.6104 6.94167
2.65503 7.76702
2.69965 6.94249
2.7443 7.56187
2.78893 7.70572
2.83356 8.0268
2.87818 8.44894
2.92281 8.95034
2.96744 9.57098
3.01209 10.0231
3.05672 10.9119
3.10135 12.4559
3.14599 12.755
3.19062 14.0391
3.23527 15.0564
3.2799 15.8198
3.32454 16.788
3.36917 17.6894
3.4138 18.6978
3.45844 19.6137
3.50309 21.1919
3.54773 21.5669
3.59237 23.3156
3.637 54.2015
3.68164 39.2417
3.7263 25.7034
3.77094 26.0774
3.81558 26.802
3.86022 27.5118
3.90486 29.3065
3.9495 29.7805
3.99416 30.6825
4.0388 32.4816
4.08344 33.3878
4.12809 34.5801
4.17273 36.2579
4.21738 39.959
4.26204 132.481
4.30669 117.412
4.35133 45.3846
4.39598 44.8186
4.44063 49.3066
4.4853 55.5863
4.52995 53.8912
4.5746 54.6378
4.61925 54.7502
4.6639 56.2245
4.70855 59.3283
4.75322 62.4278
4.79788 66.7839
4.84253 69.7656
4.88719 74.5453
4.93184 77.9546
4.97652 82.8091
5.02118 89.5913
5.06583 98.6563
5.11049 111.851
5.15515 165.054
5.19981 536.927
5.24449 3507.69
5.28916 11692.7
5.33382 2881.98
5.37848 206.843
5.42315 135.258
5.46783 120.044
5.5125 111.322
5.55716 105.038
5.60183 100.759
5.6465 98.8237
5.69117 97.4381
5.73586 95.328
5.78053 97.3181
5.8252 96.5533
5.86988 98.6206
5.91455 98.9847
5.95924 112.196
6.00392 297.539
6.0486 1183.88
6.09328 4281.07
6.13795 3271.7
6.18263 247.73
6.22733 95.6225
6.27201 83.3791
6.3167 87.9191
6.36138 76.6748
6.40606 70.7452
6.45075 69.1048
6.49545 65.9916
6.54014 64.5501
6.58483 63.5527
6.62952 62.9719
6.67421 76.2465
6.71892 97.0728
6.76361 63.5814
6.8083 59.0804
6.853 59.0116
6.89769 57.5755
6.94239 56.8177
6.98711 56.5838
7.03181 56.4352
7.07651 55.8995
7.12121 55.3619
7.16591 55.9308
7.21063 55.5279
7.25533 61.868
7.30004 108.842
7.34475 71.1432
7.38945 55.8441
7.43416 54.5569
7.47889 54.5564
7.5236 54.9275
7.56831 56.0333
7.61303 56.8268
7.65774 56.8812
7.70247 57.0362
7.74719 57.1011
7.79191 57.0526
7.83663 57.4004
7.88135 58.3161
7.92607 59.5326
7.97081 60.645
8.01553 61.7645
8.06026 63.6698
8.10498 64.7421
8.14971 71.3106
8.19446 71.3703
8.23919 70.9
8.28392 73.1497
8.32865 75.7696
8.37339 80.2988
8.41812 86.3732
8.46288 109.483
8.50761 211.059
8.55235 468.273
8.59709 1243.19
8.64183 2164.53
8.68658 965.45
8.73134 166.904
8.77609 101.509
8.82083 94.6534
8.86558 92.8301
8.91033 91.3757
8.9551 90.181
8.99985 86.8656
9.04461 85.2789
9.08936 84.8716
9.13412 84.0156
9.17888 83.6397
9.22365 83.8889
9.26841 83.2028
9.31318 85.489
9.35794 85.7575
9.4027 86.2907
9.44749 86.3093
9.49226 86.1055
9.53703 87.1237
9.5818 89.8834
9.62657 93.198
9.67134 96.2159
9.71614 94.8247
9.76091 96.1911
9.80569 100.195
9.85047 102.703
9.89525 116.116
9.94005 135.144
9.98484 223.363
10.0296 412.139
10.0744 888.951
10.1192 1711.9
10.164 1630.16
10.2088 402.205
10.2536 129.692
10.2984 112.704
10.3432 111.297
10.388 108.236
10.4328 131.907
10.4776 180.148
10.5224 302.351
10.5672 500.004
10.612 490.866
10.6568 199.863
10.7017 96.9926
10.7465 87.8508
10.7913 84.501
10.8361 82.1779
10.8809 80.1138
10.9257 78.4202
10.9706 78.9135
11.0154 75.7585
11.0602 73.705
11.105 72.7654
11.1499 73.8299
11.1947 76.2735
11.2395 71.7033
11.2844 69.8982
11.3292 67.9339
11.374 67.1952
11.4189 66.9279
11.4637 65.8267
11.5086 65.5489
11.5534 66.8288
11.5983 65.5464
11.6431 64.485
11.688 64.0153
11.7328 63.8048
11.7777 63.4712
11.8225 63.5867
11.8674 63.3885
11.9122 63.8375
11.9571 64.2778
12.002 65.8188
12.0468 72.4513
12.0917 84.0774
12.1366 109.537
12.1814 155.798
12.2263 202.211
12.2712 168.011
12.3161 91.2823
12.3609 68.7777
12.4058 65.1557
12.4507 64.7935
12.4956 65.7857
12.5405 65.5328
12.5853 66.0273
12.6302 69.558
12.6751 72.6793
12.72 69.3989
12.7649 68.8307
12.8098 69.7549
12.8547 70.9634
12.8996 72.1673
12.9445 73.8843
12.9894 75.8227
13.0343 77.6622
13.0792 82.1738
13.1242 97.7631
13.1691 122.322
13.214 163.768
13.2589 252.774
13.3038 369.997
13.3487 423.506
13.3937 261.761
13.4386 125.013
13.4835 114.147
13.5285 131.297
13.5734 172.014
13.6183 254.994
13.6633 340.875
13.7082 340.42
13.7531 187.716
13.7981 97.7076
13.843 83.1844
13.888 80.9167
13.9329 78.4922
13.9779 77.0944
14.0228 75.737
14.0678 74.33
14.1127 73.663
14.1577 73.2866
14.2027 72.4907
14.2476 71.5683
14.2926 71.295
14.3376 71.6875
14.3825 70.7597
14.4275 70.1211
14.4725 70.1164
14.5175 70.1598
14.5624 70.2442
14.6074 71.2987
14.6524 71.9691
14.6974 71.9301
14.7424 76.123
14.7874 83.907
14.8324 95.1025
14.8774 118.486
14.9224 157.894
14.9674 203.151
15.0124 215.665
15.0574 147.638
15.1024 90.6854
15.1474 73.367
15.1924 71.4351
15.2374 70.889
15.2824 69.9513
15.3274 68.759
15.3725 68.0527
15.4175 67.52
15.4625 67.0423
15.5076 67.0731
15.5526 67.0044
15.5976 67.3975
15.6426 70.3807
15.6877 76.6423
15.7327 84.7576
15.7778 101.278
15.8228 131.38
15.8679 169.301
15.9129 192.282
15.958 154.823
16.003 95.132
16.0481 68.2307
16.0931 64.1406
16.1382 62.6567
16.1833 61.2124
16.2283 59.8723
16.2734 59.0383
16.3185 58.8959
16.3636 58.8529
16.4086 57.8353
16.4537 56.7517
16.4988 56.5219
16.5439 56.3078
16.589 55.8954
16.6341 55.783
16.6792 55.3059
16.7243 55.8121
16.7694 55.4909
16.8145 55.7448
16.8596 55.9036
16.9047 56.7399
16.9498 56.722
16.9949 56.4093
17.04 57.2913
17.0851 58.7056
17.1302 60.4701
17.1754 63.4424
17.2205 68.6119
17.2656 75.3975
17.3108 82.3078
17.3559 81.8957
17.401 71.7234
17.4462 62.8523
17.4913 60.3184
17.5365 60.181
17.5815 60.4473
17.6268 60.7284
17.6718 61.2862
17.7171 61.9099
17.7622 62.6107
17.8074 63.8375
17.8525 67.4019
17.8977 71.2243
17.9428 77.4421
17.9881 86.9854
18.0331 102.974
18.0784 122.199
18.1237 140.589
18.1688 133.057
18.214 105.891
18.2591 88.8137
18.3044 92.1695
18.3495 100.762
18.3948 106.828
18.4399 96.8539
18.4852 78.0097
18.5303 66.8551
18.5756 63.1652
18.6207 62.3608
18.666 61.374
18.7112 60.5496
18.7565 59.9005
18.8016 59.5463
18.8469 58.9733
18.892 58.7691
18.9374 58.16
18.9825 58.0992
19.0278 57.8795
19.073 58.2511
19.1183 58.4929
19.1635 59.2916
19.2088 60.6404
19.254 63.6679
19.2993 67.9273
19.3447 72.8593
19.3898 76.7713
19.4352 72.9747
19.4804 63.9726
19.5257 57.3091
19.5709 55.1169
19.6163 54.7288
19.6615 54.461
19.7068 54.2809
19.752 54.2971
19.7974 54.9793
19.8426 55.6224
19.888 56.0477
19.9332 57.5188
19.9786 60.4568
20.0238 63.856
20.0692 67.9722
20.1144 70.4528
20.1598 69.3025
20.205 64.7141
20.2504 62.996
20.2957 64.23
20.3411 66.1148
20.3863 64.7289
20.4318 58.7908
20.477 53.9718
20.5224 51.9863
20.5677 51.6306
20.6131 50.8706
20.6586 50.4587
20.7038 50.298
20.7493 49.9733
20.7945 49.7005
20.84 49.6197
20.8853 49.6204
20.9307 49.4327
20.976 49.559
21.0215 49.4804
21.0668 49.9834
21.1122 50.3862
21.1575 51.0236
21.203 51.6551
21.2483 52.2163
21.2938 52.117
21.3391 50.5628
21.3846 49.6737
21.4299 49.189
21.4754 49.3709
21.5207 49.603
21.5662 49.8806
21.6116 50.2956
21.6571 51.1845
21.7024 52.3668
21.7479 54.1171
21.7933 56.7272
21.8388 60.0644
21.8843 63.1909
21.9297 65.4992
21.9752 64.0724
22.0206 60.43
22.0661 57.0331
22.1115 56.6135
22.157 56.6861
22.2024 55.0573
22.248 52.3609
22.2933 50.6095
22.3389 49.6898
22.3843 49.5184
22.4299 49.3888
22.4753 49.5129
22.5208 49.4218
22.5662 49.4316
22.6118 49.5533
22.6572 49.9414
22.7028 50.3507
22.7483 50.9642
22.7939 51.5444
22.8393 53.1535
22.8849 55.0134
22.9303 56.7448
22.9759 58.2916
23.0214 57.8952
23.067 55.0322
23.1126 51.7272
23.1581 50.1266
23.2037 49.738
23.2492 49.9444
23.2948 49.8455
23.3403 50.2051
23.3859 50.9051
23.4314 51.835
23.477 53.7171
23.5225 55.3706
23.5682 57.3638
23.6137 58.3918
23.6593 56.3195
23.7048 52.2177
23.7505 48.9948
23.796 47.247
23.8417 46.8614
23.8872 46.1421
23.9329 45.9634
23.9784 45.553
24.0241 45.3008
24.0697 45.0791
24.1154 44.8842
24.1609 44.688
24.2066 44.6592
24.2522 44.4152
24.2979 44.2108
24.3434 43.948
24.3892 43.9333
24.4349 43.7356
24.4805 43.5314
24.5262 43.6926
24.5718 43.5296
24.6175 43.645
24.6631 43.4233
24.7089 43.1764
24.7545 42.979
24.8002 42.8355
24.8458 42.9018
24.8916 42.7009
24.9372 43.0187
24.983 43.4349
25.0286 43.6634
25.0744 44.0424
25.12 44.3758
25.1658 45.1324
25.2114 45.4836
25.2572 45.3823
25.3029 45.3438
25.3487 45.4716
25.3943 45.3516
25.4402 44.1424
25.4858 43.1222
25.5316 41.9722
25.5773 41.4879
25.6231 41.5126
25.669 41.2642
25.7147 41.1968
25.7605 41.1299
25.8062 41.1894
25.8521 41.3075
25.8977 41.2602
25.9436 41.5474
25.9893 41.7287
26.0352 42.0829
26.0809 42.2495
26.1268 42.2403
26.1725 42.012
26.2184 41.6263
26.2641 40.8439
26.31 40.8295
26.3557 40.8889
26.4017 40.8234
26.4474 41.156
26.4933 41.4539
26.5391 41.9316
26.585 42.2817
26.6308 42.6798
26.6767 42.839
26.7225 42.6367
26.7684 42.1257
26.8142 41.5173
26.8601 41.034
26.9059 40.6633
26.9519 40.1207
26.9979 39.8705
27.0437 39.3695
27.0896 39.3779
27.1354 39.3883
27.1814 39.2734
27.2272 39.1756
27.2732 39.2613
27.3191 38.9406
27.3651 39.1007
27.4109 39.1417
27.4569 39.0705
27.5027 39.1504
27.5488 39.262
27.5946 39.1108
27.6407 38.8925
27.6865 38.7202
27.7326 38.491
27.7784 38.4656
27.8245 38.4763
27.8703 38.6882
27.9164 38.9309
27.9623 38.9956
28.0084 39.355
28.0543 39.7225
28.1003 39.6274
28.1462 39.2371
28.1923 38.9635
28.2384 38.4786
28.2843 38.209
28.3304 37.6617
28.3764 37.1814
28.4225 36.8873
28.4684 36.8799
28.5145 36.5627
28.5605 36.397
28.6066 36.1974
28.6526 36.1388
28.6987 36.1708
28.7447 36.0686
28.7908 36.0286
28.8368 35.9993
28.8829 35.8701
28.9289 35.9406
28.9751 35.6927
29.0211 35.3814
29.0673 35.1093
29.1133 35.0811
29.1595 34.9762
29.2055 34.8867
29.2517 34.8033
29.2977 34.7468
29.3439 34.7216
29.3899 34.6519
29.4361 34.6417
29.4824 34.5101
29.5284 34.241
29.5746 33.8555
29.6207 33.5829
29.6669 33.5021
29.713 33.467
29.7593 33.3428
29.8053 33.4468
29.8516 33.4558
29.8977 33.2608
29.9439 33.0886
29.99 33.1333
30.0363 32.9053
30.0824 33.0633
30.1287 32.8956
30.1748 32.9657
30.2211 32.8895
30.2673 32.7574
30.3136 32.8746
30.3597 32.7864
30.406 32.6863
30.4522 32.5744
30.4985 32.5182
30.5447 32.7016
30.591 32.6415
30.6372 32.7194
30.6835 32.6951
30.7297 32.7694
30.7761 32.5678
30.8224 32.435
30.8686 32.3565
30.915 32.0959
30.9612 31.9359
31.0076 31.7884
31.0538 31.6414
31.1002 31.644
31.1464 31.4414
31.1928 31.4637
31.2391 31.416
31.2855 31.3394
31.3317 31.3661
31.3781 31.4899
31.4244 31.3642
31.4708 31.304
31.5171 31.256
31.5636 31.2664
31.6098 31.024
31.6563 30.8326
31.7026 30.7787
31.7491 30.5338
31.7953 30.672
31.8418 30.6236
31.8881 30.6043
31.9346 30.5642
31.9809 30.4633
32.0275 30.3653
32.074 30.3074
32.1203 30.0425
32.1668 29.898
32.2132 29.7859
32.2597 29.7579
32.306 29.5939
32.3526 29.4264
32.399 29.3004
32.4455 29.2849
32.4919 29.1414
32.5385 29.0093
32.5848 28.9727
32.6314 29.0132
32.6778 28.8664
32.7244 28.7079
32.7708 28.6362
32.8174 28.581
32.8638 28.3873
32.9104 28.5611
32.9569 28.4424
33.0035 28.3438
33.0499 28.3115
33.0966 28.217
33.143 28.2293
33.1897 28.1215
33.2361 27.9766
33.2828 27.9549
33.3293 27.7927
33.3759 27.7706
33.4226 27.6077
33.4691 27.4821
33.5158 27.4298
33.5623 27.2903
33.609 27.1689
33.6555 27.1314
33.7022 26.9842
33.7487 26.8696
33.7954 26.9258
33.842 26.7668
33.8887 26.7916
33.9353 26.758
33.982 26.5303
34.0286 26.3693
34.0753 26.3563
34.1219 26.3453
34.1687 26.2184
34.2152 26.1717
34.262 26.0238
34.3086 25.9579
34.3554 26.0026
34.402 25.8518
34.4488 25.7041
34.4954 25.6346
34.5422 25.6262
34.5889 25.4227
34.6357 25.3679
34.6825 25.2706
34.7292 25.1608
34.776 25.1698
34.8227 25.1015
34.8695 25.0068
34.9162 24.9515
34.9631 24.8586
35.0098 24.8446
35.0566 24.7549
35.1033 24.6706
35.1502 24.6696
35.1969 24.606
35.2438 24.5422
35.2906 24.5199
35.3375 24.4063
35.3842 24.3112
35.4311 24.4048
35.4779 24.2598
35.5248 24.2666
35.5716 24.1019
35.6185 24.0197
35.6653 24.0204
35.7123 23.883
35.759 23.8833
35.806 23.653
35.8528 23.6226
35.8998 23.5738
35.9468 23.4921
35.9936 23.4763
36.0406 23.4114
36.0874 23.3583
36.1345 23.3426
36.1813 23.1292
36.2283 23.0333
36.2752 22.9724
36.3222 23.0054
36.3691 22.8959
36.4161 22.7377
36.463 22.724
36.5101 22.7797
36.557 22.6789
36.6041 22.5635
36.651 22.4929
36.6981 22.4132
36.745 22.3952
36.7921 22.3279
36.839 22.2323
36.8861 22.1781
36.9331 22.1011
36.9802 22.0311
37.0272 21.8997
37.0743 21.8523
37.1213 21.8015
37.1684 21.7536
37.2154 21.615
37.2626 21.608
37.3098 21.5817
37.3568 21.4469
37.404 21.4767
37.451 21.3702
37.4982 21.3047
37.5452 21.1079
37.5924 21.1291
37.6395 21.1592
37.6867 21.0517
37.7337 20.9023
37.781 20.9197
37.8281 20.8215
37.8753 20.7446
37.9224 20.6035
37.9697 20.5563
38.0168 20.4985
38.064 20.459
38.1111 20.4446
38.1584 20.361
38.2056 20.2854
38.2529 20.2063
38.3 20.1406
38.3473 20.1474
38.3945 20.002
38.4418 20.0301
38.489 19.9373
38.5363 19.7988
38.5837 19.7531
38.6309 19.7109
38.6782 19.6557
38.7254 19.5548
38.7728 19.5383
38.82 19.4468
38.8674 19.3789
38.9146 19.2447
38.9621 19.255
39.0093 19.2123
39.0567 19.1337
39.104 19.0659
39.1514 18.95
39.1987 18.9332
39.2461 18.8987
39.2934 18.8222
39.3409 18.7481
39.3882 18.6946
39.4356 18.657
39.483 18.5604
39.5304 18.5348
39.5778 18.4612
39.6253 18.3808
39.6726 18.4067
39.7201 18.3193
39.7675 18.293
39.815 18.2169
39.8624 18.132
39.9099 18.1448
39.9575 17.963
40.0049 17.9369
40.0525 17.8833
40.0999 17.8448
40.1474 17.8033
40.1949 17.7075
40.2425 17.6384
40.2899 17.6312
40.3375 17.5412
40.385 17.4886
40.4326 17.4506
40.48 17.4222
40.5277 17.3632
40.5752 17.28
40.6228 17.1943
40.6703 17.2518
40.718 17.1971
40.7655 17.0885
40.8132 16.9337
40.8607 17.0401
40.9084 16.9217
40.9559 16.8735
41.0036 16.8201
41.0512 16.7708
41.0989 16.7174
41.1465 16.622
41.1942 16.6389
41.242 16.4984
41.2896 16.4111
41.3373 16.4129
41.3849 16.337
41.4327 16.2685
41.4803 16.1692
41.5281 16.1555
41.5758 16.0964
41.6236 16.0443
41.6712 16.0427
41.7191 15.9155
41.7667 15.9081
41.8146 15.8867
41.8622 15.8135
41.9101 15.7784
41.9578 15.6769
42.0057 15.6783
42.0534 15.6211
42.1013 15.5997
42.149 15.4778
42.1969 15.4562
42.2446 15.3809
42.2925 15.3194
42.3403 15.2723
42.3882 15.2682
42.436 15.2151
42.4839 15.1953
42.5319 15.0989
42.5797 15.0707
42.6277 14.9852
42.6755 14.9434
42.7235 14.8297
42.7713 14.8051
42.8193 14.773
42.8671 14.7446
42.9152 14.7096
42.963 14.6646
43.0111 14.5609
43.0589 14.4967
43.107 14.4776
43.1549 14.4203
43.2029 14.3664
43.2508 14.3627
43.2989 14.2765
43.3468 14.2232
43.3949 14.137
43.4429 14.1771
43.491 14.0876
43.5389 14.0591
43.5871 13.9608
43.635 13.9222
43.6832 13.9093
43.7312 13.8168
43.7793 13.8012
43.8273 13.7018
43.8755 13.6946
43.9237 13.6563
43.9717 13.5821
44.0199 13.5334
44.068 13.5133
44.1162 13.4769
44.1642 13.4443
44.2125 13.3741
44.2606 13.2936
44.3088 13.2994
44.3569 13.1847
44.4052 13.2178
44.4533 13.1364
44.5016 13.0572
44.5497 13.0649
44.598 13.0254
44.6461 12.9482
44.6945 12.933
44.7426 12.8593
44.791 12.8518
44.8391 12.7571
44.8875 12.7309
44.9357 12.6896
44.984 12.6268
45.0322 12.5748
45.0806 12.5486
45.1288 12.4591
45.1773 12.4537
45.2257 12.4205
45.2739 12.3481
45.3224 12.3411
45.3706 12.3387
45.4191 12.2111
45.4673 12.1828
45.5158 12.1547
45.5641 12.1509
45.6126 12.1145
45.6609 12.0217
45.7094 11.9567
45.7577 11.9447
45.8063 11.8561
45.8546 11.8329
45.9031 11.8014
45.9515 11.8022
46.0001 11.7348
46.0484 11.7242
46.097 11.6285
46.1454 11.6349
46.194 11.5749
46.2424 11.513
46.291 11.4793
46.3395 11.4161
46.3881 11.3721
46.4365 11.4035
46.4852 11.3291
46.5337 11.2789
46.5823 11.2143
46.631 11.1931
46.6795 11.1667
46.7282 11.0887
46.7767 11.0606
46.8254 11.0234
46.8739 11.0022
46.9226 10.9419
46.9712 10.8642
47.0199 10.8511
47.0685 10.7817
47.1173 10.7695
47.1658 10.7626
47.2146 10.6869
47.2632 10.6515
47.312 10.6437
47.3606 10.5639
47.4095 10.5444
47.4581 10.4815
47.5069 10.4705
47.5556 10.4379
47.6044 10.3823
47.6531 10.3397
47.702 10.2729
47.7507 10.2788
47.7996 10.2133
47.8483 10.1812
47.8972 10.171
47.9461 10.1438
47.9948 10.0425
48.0438 9.99385
48.0925 10.0413
48.1415 9.97617
48.1902 9.92185
48.2392 9.95702
48.288 9.88772
48.337 9.82445
48.3858 9.82121
48.4348 9.77024
48.4837 9.73113
48.5327 9.73508
48.5815 9.66318
48.6306 9.64953
48.6795 9.60682
48.7285 9.56316
48.7774 9.52322
48.8265 9.4791
48.8754 9.44118
48.9245 9.3976
48.9734 9.37539
49.0226 9.33732
49.0715 9.27871
49.1206 9.27179
49.1696 9.24551
49.2188 9.22769
49.2679 9.16489
49.3169 9.11397
49.3661 9.07927
49.4151 9.09427
49.4643 9.05286
49.5134 8.97063
49.5626 8.93721
49.6117 8.91911
49.6609 8.89946
49.71 8.84422
49.7592 8.80519
49.8083 8.78623
49.8576 8.7404
49.9067 8.70585
49.956 8.71187
50.0052 8.65823
50.0545 8.60033
50.1036 8.5937
50.153 8.55311
50.2022 8.52708
50.2515 8.51204
50.3007 8.43144
50.3501 8.42145
50.3993 8.41726
50.4487 8.35744
50.498 8.33643
50.5474 8.28631
50.5966 8.26804
50.6461 8.20756
50.6955 8.19589
50.7448 8.16191
50.7943 8.13738
50.8436 8.0593
50.8931 8.06513
50.9424 8.04877
50.9919 8.01761
51.0413 7.97923
51.0908 7.91433
51.1402 7.89154
51.1897 7.90186
51.2391 7.8016
51.2887 7.82458
51.3381 7.78114
51.3877 7.74358
51.4371 7.69902
51.4867 7.67159
51.5362 7.67267
51.5858 7.62055
51.6353 7.56295
51.6849 7.58105
51.7344 7.56164
51.7841 7.50377
51.8336 7.48009
51.8833 7.44194
51.9328 7.42229
51.9826 7.33601
52.0323 7.34032
52.0818 7.34638
52.1316 7.284
52.1812 7.25557
52.231 7.20772
52.2806 7.20503
52.3304 7.17053
52.38 7.1569
52.4298 7.05876
52.4794 7.08532
52.5293 7.05598
52.5789 7.02519
52.6288 6.95744
52.6785 6.93921
52.7284 6.92202
52.7781 6.88935
52.828 6.89539
52.8777 6.85597
52.9276 6.78289
52.9774 6.79066
53.0273 6.75717
53.0771 6.73233
53.1271 6.6941
53.1769 6.66499
53.2269 6.64067
53.2767 6.59152
53.3267 6.56781
53.3765 6.53822
53.4266 6.59072
53.4766 6.47411
53.5265 6.45477
53.5765 6.42721
53.6264 6.38939
53.6765 6.38957
53.7264 6.33639
53.7765 6.32797
53.8265 6.31132
53.8766 6.31328
53.9266 6.29024
53.9767 6.26775
54.0267 6.22612
54.0769 6.20738
54.1269 6.123
54.1771 6.10374
54.2271 6.10845
54.2773 6.03497
54.3274 6.03897
54.3776 5.92584
54.4277 5.97043
54.478 5.95106
54.528 5.87295
54.5783 5.84628
54.6285 5.83184
54.6788 5.76945
54.7289 5.70346
54.7792 5.69389
54.8296 5.66142
54.8798 5.58871
54.9301 5.54703
54.9803 5.50132
55.0307 5.50163
55.0809 5.45064
55.1314 5.44508
55.1816 5.35261
55.232 5.32597
55.2823 5.24611
55.3328 5.27255
55.383 5.20441
55.4335 5.11822
55.4838 5.03094
55.5344 5.01814
55.5847 4.97133
55.6352 4.98801
55.6856 4.89643
55.7361 4.83698