File: XRD/Ni3Fe_FD0066.xy
TT I
1.27165 30.5913
1.31627 28.1112
1.36089 27.6803
1.40551 26.4668
1.45013 25.0371
1.49476 24.6202
1.53938 22.8802
1.584 22.6938
1.62863 21.5726
1.67325 20.5992
1.71787 19.7269
1.7625 20.2006
1.80712 19.362
1.85174 19.5207
1.89636 18.9862
1.94099 19.212
1.98562 19.1727
2.03025 18.9551
2.07487 18.6111
2.11949 19.6002
2.16411 19.3203
2.20874 18.7395
2.25338 18.9998
2.298 19.2258
2.34263 19.4481
2.38725 19.5022
2.43188 19.8294
2.4765 20.1143
2.52115 19.6958
2.56577 20.6591
2.6104 21.6697
2.65503 22.8283
2.69965 24.4732
2.7443 25.6643
2.78893 27.8199
2.83356 30.5872
2.87818 34.5392
2.92281 38.6545
2.96744 44.5769
3.01209 52.5268
3.05672 60.3207
3.10135 68.574
3.14599 70.2091
3.19062 67.4098
3.23527 58.9637
3.2799 48.9847
3.32454 40.7777
3.36917 35.6048
3.4138 31.3662
3.45844 29.106
3.50309 28.1826
3.54773 26.6374
3.59237 25.6862
3.637 25.3616
3.68164 24.9761
3.7263 25.1498
3.77094 25.4695
3.81558 25.318
3.86022 25.9218
3.90486 26.5013
3.9495 26.5619
3.99416 27.2981
4.0388 27.9069
4.08344 28.7649
4.12809 29.3243
4.17273 31.0067
4.21738 31.9407
4.26204 34.5367
4.30669 37.3621
4.35133 40.299
4.39598 38.7478
4.44063 37.8215
4.4853 38.3285
4.52995 39.8314
4.5746 41.2042
4.61925 42.3846
4.6639 44.6215
4.70855 46.5554
4.75322 50.2148
4.79788 53.0933
4.84253 57.3752
4.88719 63.8714
4.93184 71.7663
4.97652 85.526
5.02118 105.687
5.06583 123.49
5.11049 146.992
5.15515 200.607
5.19981 366.682
5.24449 911.735
5.28916 2011.75
5.33382 4354.24
5.37848 2549.87
5.42315 611.119
5.46783 264.287
5.5125 180.378
5.55716 145.117
5.60183 124.377
5.6465 115.387
5.69117 110.921
5.73586 104.005
5.78053 102.126
5.8252 104.168
5.86988 110.85
5.91455 124.018
5.95924 151.385
6.00392 224.249
6.0486 401.412
6.09328 667.666
6.13795 1178.77
6.18263 978.753
6.22733 394.728
6.27201 186.288
6.3167 117.71
6.36138 86.8733
6.40606 71.6666
6.45075 63.9584
6.49545 57.4523
6.54014 53.4187
6.58483 50.8029
6.62952 48.5537
6.67421 46.6135
6.71892 45.4338
6.76361 44.0145
6.8083 43.0897
6.853 42.6452
6.89769 42.4303
6.94239 42.7056
6.98711 42.3232
7.03181 43.1148
7.07651 45.0425
7.12121 45.3267
7.16591 43.1783
7.21063 41.162
7.25533 40.6126
7.30004 41.0937
7.34475 40.4616
7.38945 41.0126
7.43416 41.6098
7.47889 44.7396
7.5236 70.1659
7.56831 190.197
7.61303 137.245
7.65774 55.8106
7.70247 43.9119
7.74719 41.1368
7.79191 40.5646
7.83663 40.1593
7.88135 40.5047
7.92607 40.9661
7.97081 41.329
8.01553 41.8514
8.06026 43.1004
8.10498 43.7613
8.14971 44.8432
8.19446 46.2273
8.23919 48.6481
8.28392 51.8137
8.32865 54.9837
8.37339 58.4574
8.41812 63.2261
8.46288 73.4521
8.50761 96.2781
8.55235 156.14
8.59709 216.496
8.64183 332.524
8.68658 678.717
8.73134 644.183
8.77609 268.122
8.82083 135.246
8.86558 95.4344
8.91033 80.8621
8.9551 74.0176
8.99985 70.3644
9.04461 68.4785
9.08936 67.057
9.13412 67.6323
9.17888 73.071
9.22365 110.226
9.26841 300.432
9.31318 264.892
9.35794 95.9321
9.4027 68.7087
9.44749 63.439
9.49226 61.5743
9.53703 60.4839
9.5818 60.5464
9.62657 60.413
9.67134 61.3287
9.71614 62.023
9.76091 63.4518
9.80569 65.2188
9.85047 68.0829
9.89525 72.6977
9.94005 80.6745
9.98484 99.0585
10.0296 149.008
10.0744 192.509
10.1192 241.657
10.164 451.913
10.2088 717.463
10.2536 467.129
10.2984 198.394
10.3432 121.702
10.388 93.0815
10.4328 85.4704
10.4776 92.1956
10.5224 99.7352
10.5672 106.362
10.612 157.046
10.6568 251.63
10.7017 238.503
10.7465 155.99
10.7913 81.8619
10.8361 62.3344
10.8809 56.6837
10.9257 53.3084
10.9706 51.6063
11.0154 49.5199
11.0602 47.975
11.105 47.0677
11.1499 46.0928
11.1947 45.8638
11.2395 45.3004
11.2844 44.4383
11.3292 43.8818
11.374 43.1297
11.4189 42.6913
11.4637 42.123
11.5086 41.6234
11.5534 41.5229
11.5983 41.1445
11.6431 41.3633
11.688 41.2934
11.7328 41.4756
11.7777 41.8625
11.8225 42.1974
11.8674 43.4542
11.9122 48.9704
11.9571 80.5361
12.002 112.584
12.0468 73.8931
12.0917 52.6419
12.1366 51.8815
12.1814 53.0544
12.2263 58.6233
12.2712 73.5034
12.3161 88.0263
12.3609 75.3302
12.4058 56.8693
12.4507 48.8449
12.4956 44.9971
12.5405 43.0081
12.5853 42.4553
12.6302 41.8329
12.6751 41.8176
12.72 41.6716
12.7649 42.1712
12.8098 42.6677
12.8547 43.0104
12.8996 43.8674
12.9445 44.769
12.9894 45.8892
13.0343 47.5225
13.0792 52.2769
13.1242 63.849
13.1691 69.9865
13.214 71.2633
13.2589 73.6455
13.3038 78.3354
13.3487 100.442
13.3937 154.133
13.4386 185.969
13.4835 137.405
13.5285 95.9725
13.5734 85.3958
13.6183 79.7943
13.6633 82.7423
13.7082 107.954
13.7531 158.455
13.7981 165.751
13.843 105.5
13.888 70.812
13.9329 58.8635
13.9779 53.9946
14.0228 51.6741
14.0678 50.8958
14.1127 54.2501
14.1577 75.5995
14.2027 101.386
14.2476 76.1413
14.2926 52.1268
14.3376 47.2564
14.3825 45.4903
14.4275 44.6769
14.4725 44.0772
14.5175 43.6992
14.5624 43.6374
14.6074 43.4238
14.6524 43.7458
14.6974 43.8178
14.7424 44.4687
14.7874 45.9006
14.8324 49.5347
14.8774 52.948
14.9224 53.9125
14.9674 56.5722
15.0124 66.1423
15.0574 88.5948
15.1024 106.523
15.1474 89.0908
15.1924 66.852
15.2374 53.5077
15.2824 47.9011
15.3274 44.8929
15.3725 43.6099
15.4175 43.1623
15.4625 42.6835
15.5076 42.4094
15.5526 42.5311
15.5976 42.3023
15.6426 42.5045
15.6877 43.5385
15.7327 46.3362
15.7778 49.0283
15.8228 50.0612
15.8679 51.3829
15.9129 56.8467
15.958 72.6975
16.003 93.3293
16.0481 95.1156
16.0931 80.5543
16.1382 65.3775
16.1833 49.9505
16.2283 42.658
16.2734 40.2187
16.3185 38.9329
16.3636 37.8026
16.4086 36.9869
16.4537 36.6591
16.4988 36.1822
16.5439 35.8981
16.589 35.5211
16.6341 35.5301
16.6792 35.1393
16.7243 35.3619
16.7694 35.0733
16.8145 35.0811
16.8596 35.4063
16.9047 36.3955
16.9498 40.0835
16.9949 42.9481
17.04 39.6854
17.0851 36.8507
17.1302 36.3889
17.1754 36.6805
17.2205 37.1792
17.2656 37.2166
17.3108 38.3474
17.3559 39.7735
17.401 43.8374
17.4462 47.5007
17.4913 45.6138
17.5365 41.0795
17.5815 38.4945
17.6268 37.9651
17.6718 37.9128
17.7171 38.3085
17.7622 40.3576
17.8074 44.1358
17.8525 44.1752
17.8977 42.1841
17.9428 42.6997
17.9881 43.8756
18.0331 44.4372
18.0784 45.0786
18.1237 48.2266
18.1688 55.4276
18.214 69.1583
18.2591 77.6744
18.3044 68.4094
18.3495 55.4862
18.3948 50.5573
18.4399 52.1636
18.4852 58.3361
18.5303 60.6646
18.5756 55.0148
18.6207 49.441
18.666 44.4247
18.7112 40.7925
18.7565 39.2191
18.8016 38.3675
18.8469 37.8057
18.892 37.4268
18.9374 36.9104
18.9825 36.6418
19.0278 36.4318
19.073 36.4648
19.1183 36.3619
19.1635 36.4927
19.2088 36.9147
19.254 37.6404
19.2993 38.6929
19.3447 43.0198
19.3898 47.0928
19.4352 45.4114
19.4804 44.0139
19.5257 43.8837
19.5709 41.6471
19.6163 38.3196
19.6615 36.4345
19.7068 35.0001
19.752 34.6994
19.7974 34.2668
19.8426 34.272
19.888 34.3142
19.9332 34.3144
19.9786 34.6061
20.0238 34.3632
20.0692 34.6775
20.1144 35.2727
20.1598 37.0821
20.205 39.5623
20.2504 41.8218
20.2957 40.0987
20.3411 37.8372
20.3863 37.0783
20.4318 38.1968
20.477 39.5202
20.5224 38.5381
20.5677 35.8607
20.6131 34.0209
20.6586 33.0029
20.7038 32.6643
20.7493 32.5811
20.7945 33.8795
20.84 34.9359
20.8853 33.9634
20.9307 32.2779
20.976 31.5953
21.0215 31.1047
21.0668 31.0471
21.1122 31.2199
21.1575 30.9879
21.203 30.7657
21.2483 30.8458
21.2938 31.4021
21.3391 31.6044
21.3846 32.1595
21.4299 32.269
21.4754 32.0821
21.5207 31.819
21.5662 31.5416
21.6116 31.1911
21.6571 31.0744
21.7024 31.4686
21.7479 31.7269
21.7933 31.7938
21.8388 32.0248
21.8843 32.4845
21.9297 33.0445
21.9752 34.6092
22.0206 36.9389
22.0661 38.84
22.1115 38.5539
22.157 37.468
22.2024 37.0288
22.248 36.4115
22.2933 35.6601
22.3389 34.4024
22.3843 33.0286
22.4299 31.9169
22.4753 31.5963
22.5208 31.1729
22.5662 31.0471
22.6118 31.1232
22.6572 31.0004
22.7028 31.1843
22.7483 31.3041
22.7939 31.8277
22.8393 32.4736
22.8849 32.502
22.9303 31.984
22.9759 32.0218
23.0214 32.3567
23.067 33.6248
23.1126 35.2589
23.1581 36.0423
23.2037 34.7172
23.2492 33.0946
23.2948 31.9397
23.3403 31.7323
23.3859 31.9584
23.4314 32.6424
23.477 33.2625
23.5225 33.1087
23.5682 32.2407
23.6137 32.184
23.6593 32.819
23.7048 34.3012
23.7505 35.6108
23.796 35.3752
23.8417 33.5009
23.8872 31.5354
23.9329 30.5278
23.9784 29.8458
24.0241 29.7697
24.0697 29.6893
24.1154 29.411
24.1609 29.0375
24.2066 28.8224
24.2522 28.6222
24.2979 28.2031
24.3434 28.0479
24.3892 27.9035
24.4349 27.9304
24.4805 27.8394
24.5262 27.8348
24.5718 27.7034
24.6175 27.8289
24.6631 28.2114
24.7089 28.4171
24.7545 28.0589
24.8002 27.7724
24.8458 27.4752
24.8916 27.1109
24.9372 27.2324
24.983 27.2125
25.0286 27.1724
25.0744 27.1891
25.12 27.131
25.1658 27.2121
25.2114 27.4426
25.2572 27.7958
25.3029 28.0345
25.3487 28.3136
25.3943 28.1379
25.4402 28.1567
25.4858 28.4228
25.5316 28.6668
25.5773 28.2025
25.6231 27.6901
25.669 26.8054
25.7147 26.5858
25.7605 26.4565
25.8062 26.5095
25.8521 26.818
25.8977 26.6513
25.9436 26.3939
25.9893 26.1362
26.0352 26.1471
26.0809 25.8786
26.1268 26.052
26.1725 26.1881
26.2184 26.3867
26.2641 26.6693
26.31 26.7707
26.3557 26.5284
26.4017 26.1945
26.4474 26.2151
26.4933 25.9072
26.5391 25.8675
26.585 25.8704
26.6308 25.9037
26.6767 25.9588
26.7225 26.1354
26.7684 26.5947
26.8142 26.9321
26.8601 27.0387
26.9059 26.9957
26.9519 26.8615
26.9979 26.9039
27.0437 26.5246
27.0896 25.9899
27.1354 25.6729
27.1814 25.5006
27.2272 25.273
27.2732 25.2373
27.3191 24.9992
27.3651 24.9637
27.4109 24.8366
27.4569 24.9393
27.5027 24.8334
27.5488 24.9168
27.5946 24.765
27.6407 24.7664
27.6865 24.9157
27.7326 24.9084
27.7784 24.9378
27.8245 24.6334
27.8703 24.6319
27.9164 24.543
27.9623 24.4282
28.0084 24.7232
28.0543 24.9545
28.1003 24.9151
28.1462 24.927
28.1923 24.9123
28.2384 25.0176
28.2843 25.158
28.3304 24.9077
28.3764 24.6458
28.4225 24.5389
28.4684 24.3703
28.5145 24.0822
28.5605 23.9846
28.6066 23.6802
28.6526 23.556
28.6987 23.4582
28.7447 23.1929
28.7908 23.0501
28.8368 23.1309
28.8829 22.9678
28.9289 22.9182
28.9751 22.8415
29.0211 22.8792
29.0673 22.892
29.1133 22.9212
29.1595 22.8458
29.2055 22.54
29.2517 22.4712
29.2977 22.2492
29.3439 22.2509
29.3899 22.1665
29.4361 22.0701
29.4824 22.1587
29.5284 22.1708
29.5746 22.1339
29.6207 21.9886
29.6669 22.0031
29.713 21.8124
29.7593 21.5497
29.8053 21.5322
29.8516 21.5057
29.8977 21.4412
29.9439 21.3551
29.99 21.3112
30.0363 21.2787
30.0824 21.4252
30.1287 21.3476
30.1748 21.2908
30.2211 21.2218
30.2673 21.019
30.3136 21.0236
30.3597 21.1714
30.406 21.1303
30.4522 21.1142
30.4985 20.9684
30.5447 20.924
30.591 20.872
30.6372 20.8026
30.6835 20.7609
30.7297 20.8336
30.7761 20.8042
30.8224 20.889
30.8686 20.8539
30.915 20.9241
30.9612 20.9947
31.0076 20.8653
31.0538 20.7754
31.1002 20.7061
31.1464 20.5463
31.1928 20.4705
31.2391 20.4532
31.2855 20.3373
31.3317 20.2422
31.3781 20.2162
31.4244 20.1479
31.4708 20.0949
31.5171 20.1144
31.5636 20.1663
31.6098 20.1106
31.6563 20.1183
31.7026 20.19
31.7491 19.9788
31.7953 19.9985
31.8418 19.8829
31.8881 19.7214
31.9346 19.751
31.9809 19.8009
32.0275 19.6865
32.074 19.7557
32.1203 19.6499
32.1668 19.6255
32.2132 19.6066
32.2597 19.4674
32.306 19.429
32.3526 19.2597
32.399 19.2892
32.4455 19.1168
32.4919 19.061
32.5385 19.0673
32.5848 18.8903
32.6314 18.8486
32.6778 18.844
32.7244 18.8282
32.7708 18.7147
32.8174 18.5772
32.8638 18.5121
32.9104 18.6663
32.9569 18.6414
33.0035 18.453
33.0499 18.3929
33.0966 18.4318
33.143 18.3321
33.1897 18.2331
33.2361 18.2036
33.2828 18.2254
33.3293 18.1392
33.3759 18.1757
33.4226 18.0543
33.4691 18.125
33.5158 18.0871
33.5623 18.0423
33.609 17.8654
33.6555 17.7424
33.7022 17.6024
33.7487 17.633
33.7954 17.6281
33.842 17.5628
33.8887 17.4894
33.9353 17.4611
33.982 17.3382
34.0286 17.3513
34.0753 17.3184
34.1219 17.2497
34.1687 17.1803
34.2152 17.188
34.262 17.0603
34.3086 16.9853
34.3554 16.9657
34.402 16.8344
34.4488 16.8491
34.4954 16.8267
34.5422 16.7404
34.5889 16.6583
34.6357 16.6617
34.6825 16.492
34.7292 16.5616
34.776 16.5106
34.8227 16.4627
34.8695 16.3318
34.9162 16.3784
34.9631 16.2924
35.0098 16.2853
35.0566 16.1628
35.1033 16.1358
35.1502 16.102
35.1969 16.1031
35.2438 16.0528
35.2906 16.024
35.3375 15.9208
35.3842 15.8848
35.4311 15.8768
35.4779 15.8978
35.5248 15.8886
35.5716 15.7156
35.6185 15.7701
35.6653 15.7583
35.7123 15.6446
35.759 15.7249
35.806 15.6349
35.8528 15.5215
35.8998 15.5879
35.9468 15.4268
35.9936 15.4499
36.0406 15.3962
36.0874 15.3872
36.1345 15.2921
36.1813 15.2513
36.2283 15.115
36.2752 15.1185
36.3222 15.1413
36.3691 15.1161
36.4161 14.9622
36.463 15.0243
36.5101 14.9692
36.557 14.8962
36.6041 14.8555
36.651 14.8015
36.6981 14.8081
36.745 14.7468
36.7921 14.766
36.839 14.6306
36.8861 14.6818
36.9331 14.58
36.9802 14.4927
37.0272 14.4763
37.0743 14.3941
37.1213 14.3602
37.1684 14.3378
37.2154 14.3213
37.2626 14.2991
37.3098 14.2298
37.3568 14.105
37.404 14.1052
37.451 14.1076
37.4982 13.9959
37.5452 13.9623
37.5924 13.9584
37.6395 13.9852
37.6867 13.8741
37.7337 13.8932
37.781 13.7592
37.8281 13.7365
37.8753 13.6968
37.9224 13.6239
37.9697 13.6501
38.0168 13.5602
38.064 13.4839
38.1111 13.536
38.1584 13.4356
38.2056 13.3816
38.2529 13.3105
38.3 13.3814
38.3473 13.3691
38.3945 13.2424
38.4418 13.2116
38.489 13.2198
38.5363 13.1172
38.5837 13.0853
38.6309 13.0485
38.6782 12.9202
38.7254 12.9413
38.7728 12.9197
38.82 12.8955
38.8674 12.899
38.9146 12.7753
38.9621 12.777
39.0093 12.8089
39.0567 12.7063
39.104 12.7045
39.1514 12.6508
39.1987 12.6081
39.2461 12.5534
39.2934 12.5074
39.3409 12.5217
39.3882 12.3478
39.4356 12.3971
39.483 12.3961
39.5304 12.3303
39.5778 12.2723
39.6253 12.2184
39.6726 12.1554
39.7201 12.1736
39.7675 12.1441
39.815 12.1505
39.8624 12.0711
39.9099 12.0239
39.9575 12.0208
40.0049 11.9229
40.0525 11.8856
40.0999 11.9228
40.1474 11.8582
40.1949 11.7267
40.2425 11.7274
40.2899 11.7673
40.3375 11.6538
40.385 11.6239
40.4326 11.6099
40.48 11.5551
40.5277 11.5573
40.5752 11.533
40.6228 11.479
40.6703 11.4626
40.718 11.3876
40.7655 11.3856
40.8132 11.3255
40.8607 11.3509
40.9084 11.3192
40.9559 11.2389
41.0036 11.2278
41.0512 11.167
41.0989 11.1523
41.1465 11.1264
41.1942 11.0442
41.242 11.0224
41.2896 10.9967
41.3373 10.9989
41.3849 10.9538
41.4327 10.8691
41.4803 10.8522
41.5281 10.7925
41.5758 10.7771
41.6236 10.7559
41.6712 10.7257
41.7191 10.7093
41.7667 10.6599
41.8146 10.6497
41.8622 10.6443
41.9101 10.5261
41.9578 10.4853
42.0057 10.4826
42.0534 10.4859
42.1013 10.435
42.149 10.3838
42.1969 10.3468
42.2446 10.3344
42.2925 10.2948
42.3403 10.2317
42.3882 10.2176
42.436 10.153
42.4839 10.2041
42.5319 10.1292
42.5797 10.0422
42.6277 10.0794
42.6755 10.0515
42.7235 9.96706
42.7713 9.95811
42.8193 9.91276
42.8671 9.9152
42.9152 9.86921
42.963 9.77169
43.0111 9.82614
43.0589 9.77549
43.107 9.71908
43.1549 9.73886
43.2029 9.66579
43.2508 9.62316
43.2989 9.59343
43.3468 9.56261
43.3949 9.52401
43.4429 9.52799
43.491 9.50031
43.5389 9.48728
43.5871 9.42287
43.635 9.33448
43.6832 9.33933
43.7312 9.28192
43.7793 9.26211
43.8273 9.2344
43.8755 9.20338
43.9237 9.20839
43.9717 9.13185
44.0199 9.11344
44.068 9.07698
44.1162 9.05432
44.1642 9.08001
44.2125 9.05079
44.2606 9.01391
44.3088 8.97576
44.3569 8.94087
44.4052 8.92658
44.4533 8.81722
44.5016 8.82398
44.5497 8.80243
44.598 8.79949
44.6461 8.76915
44.6945 8.70324
44.7426 8.74623
44.791 8.67898
44.8391 8.62747
44.8875 8.61819
44.9357 8.58116
44.984 8.50481
45.0322 8.48587
45.0806 8.43697
45.1288 8.44343
45.1773 8.40133
45.2257 8.39794
45.2739 8.36214
45.3224 8.34413
45.3706 8.31125
45.4191 8.25052
45.4673 8.22377
45.5158 8.24384
45.5641 8.12749
45.6126 8.19341
45.6609 8.15139
45.7094 8.08925
45.7577 8.07839
45.8063 8.02254
45.8546 8.04598
45.9031 8.02339
45.9515 7.99415
46.0001 7.97055
46.0484 7.9205
46.097 7.9077
46.1454 7.90186
46.194 7.81853
46.2424 7.79571
46.291 7.79728
46.3395 7.78414
46.3881 7.72392
46.4365 7.73267
46.4852 7.71086
46.5337 7.65948
46.5823 7.67241
46.631 7.61365
46.6795 7.57028
46.7282 7.59417
46.7767 7.51259
46.8254 7.49091
46.8739 7.45966
46.9226 7.42281
46.9712 7.43011
47.0199 7.39606
47.0685 7.35911
47.1173 7.31698
47.1658 7.33517
47.2146 7.28664
47.2632 7.25615
47.312 7.22082
47.3606 7.18859
47.4095 7.20167
47.4581 7.14659
47.5069 7.12492
47.5556 7.07636
47.6044 7.07187
47.6531 7.05729
47.702 7.03378
47.7507 7.00809
47.7996 6.99431
47.8483 6.96307
47.8972 6.92292
47.9461 6.88944
47.9948 6.87367
48.0438 6.85825
48.0925 6.80973
48.1415 6.79259
48.1902 6.79258
48.2392 6.78943
48.288 6.73211
48.337 6.70731
48.3858 6.6799
48.4348 6.66392
48.4837 6.65035
48.5327 6.6567
48.5815 6.62669
48.6306 6.60237
48.6795 6.56214
48.7285 6.52397
48.7774 6.51855
48.8265 6.46912
48.8754 6.4328
48.9245 6.44213
48.9734 6.42634
49.0226 6.44492
49.0715 6.33296
49.1206 6.34929
49.1696 6.30858
49.2188 6.30632
49.2679 6.29077
49.3169 6.25624
49.3661 6.23148
49.4151 6.21412
49.4643 6.20701
49.5134 6.14453
49.5626 6.13555
49.6117 6.09765
49.6609 6.08809
49.71 6.09637
49.7592 6.02439
49.8083 6.03261
49.8576 5.99162
49.9067 5.94554
49.956 5.9629
50.0052 5.95253
50.0545 5.95608
50.1036 5.90037
50.153 5.89984
50.2022 5.85132
50.2515 5.82417
50.3007 5.77639
50.3501 5.79216
50.3993 5.74153
50.4487 5.74013
50.498 5.72905
50.5474 5.71203
50.5966 5.67407
50.6461 5.67755
50.6955 5.65886
50.7448 5.61875
50.7943 5.59782
50.8436 5.59885
50.8931 5.58654
50.9424 5.54377
50.9919 5.5143
51.0413 5.48481
51.0908 5.49764
51.1402 5.44056
51.1897 5.43779
51.2391 5.42463
51.2887 5.40104
51.3381 5.37518
51.3877 5.35671
51.4371 5.3584
51.4867 5.32928
51.5362 5.28249
51.5858 5.28743
51.6353 5.23952
51.6849 5.22032
51.7344 5.20689
51.7841 5.2226
51.8336 5.14821
51.8833 5.14402
51.9328 5.10339
51.9826 5.09582
52.0323 5.06399
52.0818 5.06522
52.1316 5.03608
52.1812 5.0616
52.231 5.02542
52.2806 4.99647
52.3304 4.94733
52.38 4.92795
52.4298 4.92781
52.4794 4.88459
52.5293 4.90296
52.5789 4.84109
52.6288 4.87053
52.6785 4.82179
52.7284 4.81568
52.7781 4.82726
52.828 4.77747
52.8777 4.75597
52.9276 4.73811
52.9774 4.69822
53.0273 4.72795
53.0771 4.70433
53.1271 4.68554
53.1769 4.65389
53.2269 4.62718
53.2767 4.61604
53.3267 4.56984
53.3765 4.571
53.4266 4.56605
53.4766 4.51865
53.5265 4.50492
53.5765 4.49989
53.6264 4.48234
53.6765 4.49413
53.7264 4.44452
53.7765 4.45204
53.8265 4.40404
53.8766 4.39077
53.9266 4.34427
53.9767 4.29766
54.0267 4.3012
54.0769 4.30232
54.1269 4.25768
54.1771 4.21282
54.2271 4.24146
54.2773 4.19311
54.3274 4.14144
54.3776 4.13305
54.4277 4.08523
54.478 4.07105
54.528 4.03727
54.5783 3.98726
54.6285 3.95165
54.6788 3.96299
54.7289 3.87946
54.7792 3.8881
54.8296 3.84923
54.8798 3.8142
54.9301 3.77691
54.9803 3.76956
55.0307 3.72849
55.0809 3.70405
55.1314 3.72555
55.1816 3.5855
55.232 3.58378
55.2823 3.59499
55.3328 3.54531
55.383 3.46423
55.4335 3.48332
55.4838 3.38574
55.5344 3.41148
55.5847 3.39785
55.6352 3.36642
55.6856 3.31252
55.7361 3.33932