File: XRD/Ni3Fe_FD1010.xy
TT I
1.27165 6.90752
1.31627 6.22256
1.36089 6.54537
1.40551 6.32597
1.45013 5.75571
1.49476 5.71918
1.53938 5.81324
1.584 4.75092
1.62863 4.83913
1.67325 4.76416
1.71787 4.26811
1.7625 4.18641
1.80712 4.41354
1.85174 4.52881
1.89636 4.00886
1.94099 4.77968
1.98562 4.45361
2.03025 3.78552
2.07487 3.94677
2.11949 4.54028
2.16411 4.34844
2.20874 10.9353
2.25338 16.8492
2.298 6.07134
2.34263 5.19218
2.38725 5.75768
2.43188 6.69136
2.4765 7.49629
2.52115 6.94437
2.56577 8.25216
2.6104 8.46863
2.65503 8.34629
2.69965 9.36907
2.7443 8.68267
2.78893 8.65231
2.83356 9.05883
2.87818 9.06499
2.92281 8.90818
2.96744 10.094
3.01209 10.42
3.05672 10.887
3.10135 12.4122
3.14599 13.339
3.19062 14.8025
3.23527 15.1338
3.2799 15.7324
3.32454 16.5042
3.36917 17.7169
3.4138 18.8212
3.45844 19.381
3.50309 20.2086
3.54773 21.2679
3.59237 22.5073
3.637 64.8691
3.68164 48.113
3.7263 25.3863
3.77094 24.7385
3.81558 25.252
3.86022 26.4679
3.90486 27.4285
3.9495 28.4649
3.99416 29.6933
4.0388 30.2472
4.08344 31.911
4.12809 32.8204
4.17273 34.6023
4.21738 38.0889
4.26204 161.95
4.30669 163.326
4.35133 44.8965
4.39598 41.7056
4.44063 47.5073
4.4853 56.7278
4.52995 47.4504
4.5746 48.0392
4.61925 50.0813
4.6639 52.1872
4.70855 54.2705
4.75322 57.2237
4.79788 59.6347
4.84253 62.7329
4.88719 66.542
4.93184 69.912
4.97652 75.2958
5.02118 81.0358
5.06583 87.3807
5.11049 95.7856
5.15515 137.172
5.19981 230.046
5.24449 1978.83
5.28916 13248.1
5.33382 3318.45
5.37848 220.757
5.42315 124.023
5.46783 106.743
5.5125 98.997
5.55716 95.3772
5.60183 91.959
5.6465 89.8648
5.69117 87.5371
5.73586 86.2689
5.78053 85.1868
5.8252 83.8923
5.86988 84.9299
5.91455 86.2333
5.95924 91.8446
6.00392 148.012
6.0486 687.684
6.09328 4250.08
6.13795 3500.67
6.18263 257.547
6.22733 87.1424
6.27201 76.2193
6.3167 86.5525
6.36138 73.9533
6.40606 64.6924
6.45075 63.1426
6.49545 61.0778
6.54014 59.9852
6.58483 58.7835
6.62952 58.1501
6.67421 74.3682
6.71892 112.386
6.76361 64.0691
6.8083 54.7772
6.853 53.8499
6.89769 53.1924
6.94239 53.2471
6.98711 52.4566
7.03181 52.3906
7.07651 51.843
7.12121 51.8828
7.16591 51.6965
7.21063 51.9292
7.25533 59.0894
7.30004 129.731
7.34475 82.0404
7.38945 53.0742
7.43416 51.2809
7.47889 51.8247
7.5236 57.7605
7.56831 71.2685
7.61303 58.8167
7.65774 54.0663
7.70247 52.7074
7.74719 52.8578
7.79191 53.1877
7.83663 53.2159
7.88135 54.0943
7.92607 55.1672
7.97081 56.326
8.01553 56.9901
8.06026 58.0572
8.10498 59.4168
8.14971 65.2379
8.19446 66.8549
8.23919 65.1438
8.28392 66.9344
8.32865 68.7621
8.37339 72.523
8.41812 77.036
8.46288 95.8332
8.50761 124.558
8.55235 293.558
8.59709 979.997
8.64183 2314.02
8.68658 1103.27
8.73134 180.281
8.77609 93.8581
8.82083 87.0295
8.86558 84.4473
8.91033 83.3895
8.9551 84.4653
8.99985 80.3363
9.04461 78.6423
9.08936 77.9984
9.13412 77.7483
9.17888 78.2205
9.22365 87.5587
9.26841 109.892
9.31318 89.4522
9.35794 78.7053
9.4027 78.1975
9.44749 78.9533
9.49226 79.5062
9.53703 80.0529
9.5818 81.6312
9.62657 84.496
9.67134 89.9281
9.71614 87.4387
9.76091 87.6326
9.80569 89.5085
9.85047 92.4521
9.89525 106.646
9.94005 118.677
9.98484 138.992
10.0296 267.847
10.0744 645.713
10.1192 1684.78
10.164 1730.78
10.2088 456.549
10.2536 126.825
10.2984 104.292
10.3432 104.937
10.388 97.5636
10.4328 103.206
10.4776 136.935
10.5224 237.032
10.5672 497.771
10.612 551.573
10.6568 228.112
10.7017 103.798
10.7465 85.717
10.7913 78.7589
10.8361 76.6288
10.8809 74.1951
10.9257 73.2277
10.9706 73.3039
11.0154 70.2773
11.0602 68.2242
11.105 67.2704
11.1499 68.7573
11.1947 74.5302
11.2395 69.1096
11.2844 65.6638
11.3292 63.0688
11.374 62.103
11.4189 61.8321
11.4637 61.1964
11.5086 60.9086
11.5534 62.7659
11.5983 61.501
11.6431 60.0366
11.688 59.32
11.7328 59.2709
11.7777 59.2288
11.8225 58.7235
11.8674 59.1345
11.9122 60.9891
11.9571 65.9055
12.002 65.5765
12.0468 63.0137
12.0917 71.1709
12.1366 90.6972
12.1814 139.003
12.2263 207.83
12.2712 182.936
12.3161 98.9258
12.3609 67.233
12.4058 61.2332
12.4507 60.5218
12.4956 60.6096
12.5405 60.6234
12.5853 61.4076
12.6302 65.3823
12.6751 70.5319
12.72 66.1128
12.7649 63.6902
12.8098 64.3558
12.8547 65.2756
12.8996 66.677
12.9445 67.7477
12.9894 69.4204
13.0343 71.089
13.0792 74.6586
13.1242 80.0827
13.1691 98.9132
13.214 128.007
13.2589 206.641
13.3038 358.57
13.3487 456.089
13.3937 290.305
13.4386 131.149
13.4835 96.5082
13.5285 108.151
13.5734 138.335
13.6183 221.026
13.6633 352.609
13.7082 372.514
13.7531 210.813
13.7981 100.702
13.843 78.5306
13.888 75.737
13.9329 73.2664
13.9779 72.1079
14.0228 70.6882
14.0678 69.615
14.1127 70.4061
14.1577 74.026
14.2027 72.862
14.2476 68.1194
14.2926 66.5658
14.3376 67.3986
14.3825 66.4456
14.4275 65.433
14.4725 65.0882
14.5175 65.409
14.5624 65.0372
14.6074 66.5451
14.6524 67.0691
14.6974 66.3063
14.7424 66.8478
14.7874 71.4317
14.8324 80.8054
14.8774 99.199
14.9224 139.287
14.9674 204.014
15.0124 229.312
15.0574 164.062
15.1024 95.1048
15.1474 70.5437
15.1924 67.101
15.2374 66.8032
15.2824 66.2983
15.3274 64.3224
15.3725 63.1873
15.4175 63.028
15.4625 62.4855
15.5076 62.416
15.5526 62.6293
15.5976 62.0695
15.6426 62.3297
15.6877 66.0487
15.7327 72.838
15.7778 85.0877
15.8228 113.225
15.8679 163.844
15.9129 203.458
15.958 171.98
16.003 105.331
16.0481 69.1313
16.0931 63.2215
16.1382 60.4898
16.1833 58.1786
16.2283 56.1461
16.2734 55.3801
16.3185 55.4193
16.3636 55.7172
16.4086 54.838
16.4537 53.366
16.4988 52.8491
16.5439 52.6329
16.589 52.4878
16.6341 52.0358
16.6792 51.6784
16.7243 52.2049
16.7694 52.058
16.8145 52.1942
16.8596 52.2345
16.9047 53.5768
16.9498 54.6036
16.9949 53.5812
17.04 52.9591
17.0851 53.7092
17.1302 55.2113
17.1754 57.671
17.2205 62.3364
17.2656 70.3063
17.3108 81.342
17.3559 81.4312
17.401 70.5384
17.4462 60.4289
17.4913 56.509
17.5365 56.2439
17.5815 56.3204
17.6268 56.6075
17.6718 57.1939
17.7171 57.9536
17.7622 58.8284
17.8074 59.448
17.8525 60.2706
17.8977 63.7712
17.9428 68.3951
17.9881 76.1332
18.0331 91.9085
18.0784 117.556
18.1237 141.667
18.1688 137.695
18.214 108.543
18.2591 85.852
18.3044 85.9449
18.3495 97.7409
18.3948 107.046
18.4399 99.5905
18.4852 79.1138
18.5303 65.32
18.5756 60.4078
18.6207 59.221
18.666 58.0454
18.7112 57.0533
18.7565 56.4101
18.8016 55.9196
18.8469 55.5172
18.892 55.1532
18.9374 54.4653
18.9825 54.521
19.0278 54.4928
19.073 54.2622
19.1183 54.209
19.1635 55.0931
19.2088 56.5472
19.254 58.6124
19.2993 63.5484
19.3447 70.8008
19.3898 76.0535
19.4352 72.8539
19.4804 63.4487
19.5257 55.5514
19.5709 52.1762
19.6163 51.7742
19.6615 51.4273
19.7068 51.0924
19.752 51.03
19.7974 50.8783
19.8426 51.6182
19.888 52.3505
19.9332 53.6247
19.9786 55.5667
20.0238 59.1565
20.0692 64.7511
20.1144 68.8869
20.1598 68.1352
20.205 62.5172
20.2504 60.3334
20.2957 62.2295
20.3411 65.2911
20.3863 64.0389
20.4318 58.1548
20.477 52.6372
20.5224 49.6815
20.5677 48.9633
20.6131 48.2174
20.6586 47.6662
20.7038 47.4348
20.7493 47.2412
20.7945 47.2078
20.84 46.9571
20.8853 46.826
20.9307 46.524
20.976 46.5719
21.0215 46.5567
21.0668 46.6768
21.1122 47.311
21.1575 47.8542
21.203 48.5396
21.2483 49.6005
21.2938 49.7762
21.3391 48.4764
21.3846 47.2577
21.4299 46.3834
21.4754 46.3635
21.5207 46.621
21.5662 46.7304
21.6116 47.0002
21.6571 47.3973
21.7024 48.4563
21.7479 50.1768
21.7933 52.5193
21.8388 56.4467
21.8843 61.4369
21.9297 64.4707
21.9752 63.807
22.0206 59.2974
22.0661 55.8232
22.1115 55.2904
22.157 55.638
22.2024 53.7981
22.248 50.5317
22.2933 48.5176
22.3389 47.3308
22.3843 47.1653
22.4299 46.8026
22.4753 47.0651
22.5208 46.6851
22.5662 46.7532
22.6118 46.7364
22.6572 46.8184
22.7028 47.2252
22.7483 47.6425
22.7939 48.366
22.8393 49.8368
22.8849 52.0729
22.9303 54.742
22.9759 56.9723
23.0214 57.1355
23.067 54.1008
23.1126 50.4359
23.1581 47.8611
23.2037 47.0054
23.2492 46.8828
23.2948 46.9427
23.3403 47.1463
23.3859 47.7656
23.4314 48.8338
23.477 50.6338
23.5225 53.412
23.5682 56.4359
23.6137 58.0803
23.6593 56.2357
23.7048 51.745
23.7505 47.7086
23.796 45.3097
23.8417 44.5343
23.8872 44.015
23.9329 43.7219
23.9784 43.2185
24.0241 43.1091
24.0697 42.873
24.1154 42.4954
24.1609 42.3511
24.2066 42.2285
24.2522 41.9914
24.2979 41.7838
24.3434 41.7563
24.3892 41.4468
24.4349 41.4132
24.4805 41.2816
24.5262 41.3907
24.5718 41.3849
24.6175 41.4297
24.6631 41.5252
24.7089 41.106
24.7545 40.9069
24.8002 40.7889
24.8458 40.529
24.8916 40.3973
24.9372 40.546
24.983 40.9009
25.0286 41.2359
25.0744 41.6648
25.12 42.2124
25.1658 43.0215
25.2114 43.3624
25.2572 43.6074
25.3029 43.9044
25.3487 44.1393
25.3943 43.9357
25.4402 42.8057
25.4858 41.5784
25.5316 40.1717
25.5773 39.5504
25.6231 39.3937
25.669 39.1254
25.7147 39.0466
25.7605 38.9281
25.8062 39.0323
25.8521 39.2221
25.8977 39.2326
25.9436 39.5057
25.9893 39.5035
26.0352 39.9984
26.0809 40.4366
26.1268 40.6637
26.1725 40.3134
26.2184 39.6746
26.2641 39.2056
26.31 38.7125
26.3557 38.736
26.4017 38.7262
26.4474 39.0725
26.4933 39.2989
26.5391 39.8183
26.585 40.5006
26.6308 41.1059
26.6767 41.2353
26.7225 41.2798
26.7684 40.6426
26.8142 39.9079
26.8601 39.5368
26.9059 39.117
26.9519 38.4752
26.9979 38.0453
27.0437 37.7356
27.0896 37.3946
27.1354 37.3978
27.1814 37.3803
27.2272 37.2158
27.2732 37.2181
27.3191 36.9535
27.3651 37.2124
27.4109 37.0589
27.4569 37.3325
27.5027 37.3197
27.5488 37.4823
27.5946 37.3088
27.6407 37.0641
27.6865 36.9844
27.7326 36.7693
27.7784 36.5688
27.8245 36.4606
27.8703 36.7617
27.9164 37.0599
27.9623 37.2769
28.0084 37.8123
28.0543 38.2841
28.1003 38.1554
28.1462 38.2039
28.1923 37.7844
28.2384 37.1289
28.2843 36.9734
28.3304 36.2238
28.3764 35.8018
28.4225 35.4857
28.4684 35.1789
28.5145 34.8352
28.5605 34.7745
28.6066 34.6142
28.6526 34.4647
28.6987 34.5022
28.7447 34.4009
28.7908 34.2694
28.8368 34.3384
28.8829 34.3988
28.9289 34.1929
28.9751 34.0769
29.0211 33.9894
29.0673 33.6285
29.1133 33.4083
29.1595 33.2916
29.2055 33.2692
29.2517 33.1286
29.2977 33.2937
29.3439 33.2163
29.3899 33.341
29.4361 33.2673
29.4824 33.0275
29.5284 32.7428
29.5746 32.3413
29.6207 32.0943
29.6669 32.037
29.713 31.9311
29.7593 31.7097
29.8053 31.8285
29.8516 31.712
29.8977 31.6134
29.9439 31.5268
29.99 31.4427
30.0363 31.3148
30.0824 31.5109
30.1287 31.3375
30.1748 31.4757
30.2211 31.3306
30.2673 31.236
30.3136 31.3232
30.3597 31.1655
30.406 31.0528
30.4522 31.0947
30.4985 31.0489
30.5447 31.1607
30.591 31.1187
30.6372 31.2525
30.6835 31.3264
30.7297 31.3984
30.7761 31.3093
30.8224 31.1889
30.8686 31.1711
30.915 30.7501
30.9612 30.5914
31.0076 30.3654
31.0538 30.3835
31.1002 30.2858
31.1464 30.0491
31.1928 29.9792
31.2391 30.116
31.2855 29.8894
31.3317 29.9239
31.3781 30.0617
31.4244 30.0281
31.4708 29.9921
31.5171 30.0352
31.5636 29.9582
31.6098 29.6927
31.6563 29.5506
31.7026 29.4192
31.7491 29.2836
31.7953 29.2709
31.8418 29.2231
31.8881 29.2106
31.9346 29.3445
31.9809 29.2341
32.0275 29.1413
32.074 29.0049
32.1203 28.928
32.1668 28.7588
32.2132 28.6133
32.2597 28.3156
32.306 28.3188
32.3526 28.0904
32.399 27.9833
32.4455 27.964
32.4919 27.8496
32.5385 27.8506
32.5848 27.6015
32.6314 27.5712
32.6778 27.6799
32.7244 27.4496
32.7708 27.257
32.8174 27.2753
32.8638 27.0848
32.9104 27.2284
32.9569 27.2225
33.0035 26.9826
33.0499 26.9954
33.0966 26.9505
33.143 26.947
33.1897 26.9029
33.2361 26.8998
33.2828 26.8254
33.3293 26.5589
33.3759 26.736
33.4226 26.476
33.4691 26.362
33.5158 26.2848
33.5623 26.0915
33.609 25.9883
33.6555 25.8522
33.7022 25.8376
33.7487 25.6769
33.7954 25.7096
33.842 25.6395
33.8887 25.5427
33.9353 25.5266
33.982 25.3309
34.0286 25.2908
34.0753 25.2146
34.1219 25.1416
34.1687 25.0263
34.2152 25.0243
34.262 24.8624
34.3086 24.7928
34.3554 24.7673
34.402 24.6269
34.4488 24.5111
34.4954 24.446
34.5422 24.4367
34.5889 24.3285
34.6357 24.234
34.6825 24.1453
34.7292 24.104
34.776 23.8957
34.8227 23.9706
34.8695 23.9755
34.9162 23.8639
34.9631 23.7631
35.0098 23.8157
35.0566 23.574
35.1033 23.6291
35.1502 23.517
35.1969 23.4413
35.2438 23.3628
35.2906 23.3372
35.3375 23.3119
35.3842 23.2849
35.4311 23.2585
35.4779 23.2616
35.5248 23.2723
35.5716 23.0589
35.6185 22.9855
35.6653 22.9392
35.7123 22.8581
35.759 22.7487
35.806 22.735
35.8528 22.5904
35.8998 22.5776
35.9468 22.4547
35.9936 22.4264
36.0406 22.4147
36.0874 22.2731
36.1345 22.26
36.1813 22.193
36.2283 22.108
36.2752 22.03
36.3222 21.992
36.3691 21.9447
36.4161 21.8221
36.463 21.795
36.5101 21.7655
36.557 21.753
36.6041 21.5445
36.651 21.5909
36.6981 21.5519
36.745 21.4648
36.7921 21.3169
36.839 21.2173
36.8861 21.2307
36.9331 21.1358
36.9802 20.9913
37.0272 21.0046
37.0743 20.854
37.1213 20.8026
37.1684 20.7751
37.2154 20.6816
37.2626 20.7028
37.3098 20.5272
37.3568 20.5356
37.404 20.4628
37.451 20.3153
37.4982 20.2858
37.5452 20.2102
37.5924 20.2179
37.6395 20.2372
37.6867 20.1265
37.7337 20.0529
37.781 19.9667
37.8281 19.892
37.8753 19.7736
37.9224 19.8158
37.9697 19.6925
38.0168 19.6111
38.064 19.5684
38.1111 19.5316
38.1584 19.439
38.2056 19.3458
38.2529 19.3412
38.3 19.3215
38.3473 19.2349
38.3945 19.0954
38.4418 19.106
38.489 19.0403
38.5363 18.9487
38.5837 18.8884
38.6309 18.8707
38.6782 18.7902
38.7254 18.7003
38.7728 18.6933
38.82 18.6037
38.8674 18.592
38.9146 18.4784
38.9621 18.4179
39.0093 18.3586
39.0567 18.2815
39.104 18.2182
39.1514 18.1506
39.1987 18.1355
39.2461 18.0644
39.2934 18.0301
39.3409 17.9026
39.3882 17.8779
39.4356 17.8513
39.483 17.8256
39.5304 17.7246
39.5778 17.666
39.6253 17.5923
39.6726 17.6124
39.7201 17.4964
39.7675 17.479
39.815 17.464
39.8624 17.3145
39.9099 17.3534
39.9575 17.2287
40.0049 17.2219
40.0525 17.1409
40.0999 17.0927
40.1474 17.0307
40.1949 16.9548
40.2425 16.8511
40.2899 16.8395
40.3375 16.8366
40.385 16.76
40.4326 16.7316
40.48 16.635
40.5277 16.5963
40.5752 16.5323
40.6228 16.4403
40.6703 16.4644
40.718 16.4259
40.7655 16.3454
40.8132 16.2734
40.8607 16.2262
40.9084 16.2068
40.9559 16.103
41.0036 16.0493
41.0512 16.0134
41.0989 15.9971
41.1465 15.9019
41.1942 15.8422
41.242 15.7892
41.2896 15.7631
41.3373 15.7173
41.3849 15.6951
41.4327 15.5994
41.4803 15.5107
41.5281 15.5398
41.5758 15.4644
41.6236 15.4326
41.6712 15.2789
41.7191 15.2827
41.7667 15.1927
41.8146 15.2152
41.8622 15.171
41.9101 15.1057
41.9578 14.9801
42.0057 15.0157
42.0534 14.9755
42.1013 14.9179
42.149 14.8032
42.1969 14.8145
42.2446 14.727
42.2925 14.7036
42.3403 14.6409
42.3882 14.5796
42.436 14.5748
42.4839 14.4575
42.5319 14.4884
42.5797 14.3771
42.6277 14.3128
42.6755 14.3273
42.7235 14.209
42.7713 14.241
42.8193 14.1388
42.8671 14.1097
42.9152 14.0485
42.963 14.0147
43.0111 13.9714
43.0589 13.8835
43.107 13.8386
43.1549 13.7801
43.2029 13.7531
43.2508 13.7622
43.2989 13.6242
43.3468 13.6369
43.3949 13.5694
43.4429 13.5505
43.491 13.4729
43.5389 13.4333
43.5871 13.4057
43.635 13.3618
43.6832 13.3084
43.7312 13.251
43.7793 13.1712
43.8273 13.1554
43.8755 13.1195
43.9237 13.045
43.9717 13.0753
44.0199 12.9517
44.068 12.9664
44.1162 12.8363
44.1642 12.8543
44.2125 12.8138
44.2606 12.7653
44.3088 12.7502
44.3569 12.6355
44.4052 12.6357
44.4533 12.6072
44.5016 12.5413
44.5497 12.4909
44.598 12.4628
44.6461 12.4385
44.6945 12.3755
44.7426 12.3174
44.791 12.2529
44.8391 12.2617
44.8875 12.1675
44.9357 12.1324
44.984 12.1504
45.0322 12.1063
45.0806 12.026
45.1288 11.9811
45.1773 11.9337
45.2257 11.8974
45.2739 11.8301
45.3224 11.8091
45.3706 11.7897
45.4191 11.695
45.4673 11.666
45.5158 11.6735
45.5641 11.6022
45.6126 11.5696
45.6609 11.5425
45.7094 11.4702
45.7577 11.4888
45.8063 11.3768
45.8546 11.3754
45.9031 11.2583
45.9515 11.3017
46.0001 11.2667
46.0484 11.1875
46.097 11.1681
46.1454 11.1262
46.194 11.0823
46.2424 11.0522
46.291 11.0283
46.3395 10.9729
46.3881 10.8988
46.4365 10.9054
46.4852 10.8538
46.5337 10.7894
46.5823 10.7963
46.631 10.7125
46.6795 10.6859
46.7282 10.6454
46.7767 10.6098
46.8254 10.5327
46.8739 10.506
46.9226 10.4827
46.9712 10.4783
47.0199 10.3937
47.0685 10.3584
47.1173 10.3008
47.1658 10.3017
47.2146 10.2585
47.2632 10.2198
47.312 10.1879
47.3606 10.1147
47.4095 10.116
47.4581 10.0783
47.5069 10.0826
47.5556 9.97001
47.6044 9.98276
47.6531 9.89877
47.702 9.88362
47.7507 9.87465
47.7996 9.80831
47.8483 9.79091
47.8972 9.74938
47.9461 9.74522
47.9948 9.6868
48.0438 9.66035
48.0925 9.58013
48.1415 9.55532
48.1902 9.53542
48.2392 9.50738
48.288 9.46903
48.337 9.45519
48.3858 9.3982
48.4348 9.35671
48.4837 9.32699
48.5327 9.32953
48.5815 9.27923
48.6306 9.24718
48.6795 9.21127
48.7285 9.17001
48.7774 9.15081
48.8265 9.10001
48.8754 9.06733
48.9245 9.02356
48.9734 9.00388
49.0226 8.92314
49.0715 8.95996
49.1206 8.87703
49.1696 8.87489
49.2188 8.83233
49.2679 8.81352
49.3169 8.75745
49.3661 8.70343
49.4151 8.68161
49.4643 8.6792
49.5134 8.60601
49.5626 8.56159
49.6117 8.56494
49.6609 8.52175
49.71 8.47645
49.7592 8.43272
49.8083 8.41991
49.8576 8.39975
49.9067 8.34946
49.956 8.32703
50.0052 8.28404
50.0545 8.27595
50.1036 8.22044
50.153 8.2066
50.2022 8.15103
50.2515 8.14272
50.3007 8.12316
50.3501 8.07817
50.3993 8.05306
50.4487 7.99482
50.498 7.97637
50.5474 7.9803
50.5966 7.90168
50.6461 7.90905
50.6955 7.84528
50.7448 7.8004
50.7943 7.82423
50.8436 7.73066
50.8931 7.75175
50.9424 7.69714
50.9919 7.68975
51.0413 7.63595
51.0908 7.60785
51.1402 7.57811
51.1897 7.56757
51.2391 7.55252
51.2887 7.49474
51.3381 7.43717
51.3877 7.46966
51.4371 7.39493
51.4867 7.3646
51.5362 7.32192
51.5858 7.343
51.6353 7.30526
51.6849 7.26199
51.7344 7.20935
51.7841 7.22971
51.8336 7.1607
51.8833 7.0908
51.9328 7.11734
51.9826 7.06808
52.0323 7.04793
52.0818 7.05384
52.1316 6.98108
52.1812 6.97355
52.231 6.91297
52.2806 6.88278
52.3304 6.88614
52.38 6.83387
52.4298 6.81354
52.4794 6.79811
52.5293 6.77403
52.5789 6.73754
52.6288 6.71699
52.6785 6.67424
52.7284 6.65152
52.7781 6.62822
52.828 6.61247
52.8777 6.5699
52.9276 6.52081
52.9774 6.49218
53.0273 6.49393
53.0771 6.42397
53.1271 6.43327
53.1769 6.38972
53.2269 6.40331
53.2767 6.34373
53.3267 6.31588
53.3765 6.32261
53.4266 6.28423
53.4766 6.20653
53.5265 6.23189
53.5765 6.16957
53.6264 6.17837
53.6765 6.14315
53.7264 6.08752
53.7765 6.13451
53.8265 6.07535
53.8766 5.99465
53.9266 6.01605
53.9767 5.99266
54.0267 5.97113
54.0769 5.89768
54.1269 5.87218
54.1771 5.83713
54.2271 5.81761
54.2773 5.81916
54.3274 5.80062
54.3776 5.74223
54.4277 5.68819
54.478 5.69542
54.528 5.63686
54.5783 5.55737
54.6285 5.59805
54.6788 5.50622
54.7289 5.48683
54.7792 5.46226
54.8296 5.37371
54.8798 5.37221
54.9301 5.3135
54.9803 5.29736
55.0307 5.27193
55.0809 5.26115
55.1314 5.17508
55.1816 5.13402
55.232 5.09303
55.2823 5.05826
55.3328 5.04812
55.383 4.95195
55.4335 4.93432
55.4838 4.89031
55.5344 4.81331
55.5847 4.75954
55.6352 4.76017
55.6856 4.7467
55.7361 4.7334