File: XRD/Ni3Fe_FD0109.xy
TT I
1.27165 8.36992
1.31627 7.36452
1.36089 7.69039
1.40551 6.93986
1.45013 6.65393
1.49476 6.78719
1.53938 6.90919
1.584 5.4856
1.62863 6.23404
1.67325 5.74482
1.71787 5.64555
1.7625 5.68211
1.80712 5.36043
1.85174 5.63907
1.89636 5.48438
1.94099 5.23736
1.98562 5.01982
2.03025 4.86808
2.07487 4.8868
2.11949 5.0394
2.16411 4.72168
2.20874 5.49789
2.25338 4.72945
2.298 3.88554
2.34263 4.0233
2.38725 3.72113
2.43188 4.70757
2.4765 3.77187
2.52115 4.0413
2.56577 4.7323
2.6104 4.51153
2.65503 4.39011
2.69965 5.35583
2.7443 6.07375
2.78893 6.69213
2.83356 6.65819
2.87818 7.59308
2.92281 8.24874
2.96744 8.76828
3.01209 9.29605
3.05672 11.1405
3.10135 11.7894
3.14599 12.8592
3.19062 13.8778
3.23527 14.9232
3.2799 15.5923
3.32454 16.234
3.36917 17.2363
3.4138 18.2216
3.45844 19.28
3.50309 20.2913
3.54773 20.906
3.59237 21.4874
3.637 21.8972
3.68164 22.8708
3.7263 24.0576
3.77094 24.6742
3.81558 25.5572
3.86022 26.1563
3.90486 27.308
3.9495 28.2625
3.99416 29.153
4.0388 30.1971
4.08344 31.1467
4.12809 32.3032
4.17273 33.3859
4.21738 35.3215
4.26204 35.8157
4.30669 37.4455
4.35133 39.1067
4.39598 40.7288
4.44063 42.7797
4.4853 44.1403
4.52995 46.5552
4.5746 48.2335
4.61925 51.0201
4.6639 53.1343
4.70855 55.6595
4.75322 58.842
4.79788 62.039
4.84253 65.1544
4.88719 70.0797
4.93184 75.3429
4.97652 82.62
5.02118 91.6483
5.06583 103.204
5.11049 121.306
5.15515 164.377
5.19981 621.741
5.24449 3767.86
5.28916 7083.16
5.33382 6908.87
5.37848 607.103
5.42315 180.207
5.46783 133.476
5.5125 117.706
5.55716 109.805
5.60183 103.41
5.6465 99.4849
5.69117 98.7339
5.73586 96.4673
5.78053 96.0741
5.8252 96.5963
5.86988 100.29
5.91455 108.782
5.95924 131.031
6.00392 317.613
6.0486 1420.76
6.09328 2329.2
6.13795 3916.82
6.18263 868.675
6.22733 138.415
6.27201 93.1581
6.3167 79.7385
6.36138 73.2937
6.40606 68.426
6.45075 66.2976
6.49545 63.648
6.54014 62.1353
6.58483 60.6166
6.62952 59.326
6.67421 57.8482
6.71892 56.9782
6.76361 55.5994
6.8083 55.094
6.853 54.2577
6.89769 53.6815
6.94239 53.4081
6.98711 52.6782
7.03181 52.4123
7.07651 52.0733
7.12121 51.7433
7.16591 51.5732
7.21063 51.2729
7.25533 51.0582
7.30004 51.1045
7.34475 51.2628
7.38945 51.3884
7.43416 51.3143
7.47889 51.4613
7.5236 57.0769
7.56831 70.3652
7.61303 56.8486
7.65774 52.91
7.70247 53.3821
7.74719 53.442
7.79191 54.1856
7.83663 54.2056
7.88135 55.5028
7.92607 56.184
7.97081 57.5089
8.01553 58.7323
8.06026 59.6401
8.10498 60.8208
8.14971 62.7183
8.19446 64.4416
8.23919 67.4085
8.28392 70.1138
8.32865 72.7695
8.37339 77.7646
8.41812 83.3374
8.46288 96.7837
8.50761 181.053
8.55235 632.89
8.59709 796.367
8.64183 1258.21
8.68658 1736.62
8.73134 510.737
8.77609 123.801
8.82083 99.1805
8.86558 91.4832
8.91033 87.4782
8.9551 84.8304
8.99985 83.0732
9.04461 82.5803
9.08936 81.1309
9.13412 80.493
9.17888 80.8192
9.22365 89.5615
9.26841 109.088
9.31318 90.9338
9.35794 82.3178
9.4027 81.2722
9.44749 82.0132
9.49226 82.3939
9.53703 83.3804
9.5818 84.7389
9.62657 85.4307
9.67134 87.6428
9.71614 89.3528
9.76091 91.778
9.80569 94.4033
9.85047 98.1622
9.89525 103.2
9.94005 114.952
9.98484 192.912
10.0296 574.424
10.0744 690.563
10.1192 850.828
10.164 1534.24
10.2088 1134.7
10.2536 256.779
10.2984 119.69
10.3432 108.445
10.388 104.695
10.4328 122.345
10.4776 222.858
10.5224 249.607
10.5672 282.844
10.612 451.429
10.6568 415.641
10.7017 153.731
10.7465 93.0976
10.7913 83.0835
10.8361 79.7079
10.8809 77.1132
10.9257 74.6831
10.9706 73.427
11.0154 71.8344
11.0602 70.5313
11.105 69.1822
11.1499 67.578
11.1947 66.7534
11.2395 65.5298
11.2844 65.189
11.3292 64.2677
11.374 63.9
11.4189 63.1689
11.4637 62.1844
11.5086 61.8359
11.5534 61.2509
11.5983 61.0716
11.6431 61.1224
11.688 60.521
11.7328 60.4167
11.7777 60.5259
11.8225 60.2071
11.8674 60.5544
11.9122 61.9751
11.9571 67.4705
12.002 67.2483
12.0468 68.0196
12.0917 91.4108
12.1366 106.913
12.1814 107.743
12.2263 133.015
12.2712 182.959
12.3161 155.04
12.3609 79.336
12.4058 63.9186
12.4507 62.4828
12.4956 62.1468
12.5405 62.1456
12.5853 62.7845
12.6302 62.949
12.6751 63.4231
12.72 64.1785
12.7649 65.0912
12.8098 65.9314
12.8547 67.2717
12.8996 68.7412
12.9445 70.1307
12.9894 72.347
13.0343 74.1741
13.0792 78.531
13.1242 86.4325
13.1691 135.355
13.214 191.161
13.2589 190.516
13.3038 211.999
13.3487 309.285
13.3937 390.726
13.4386 242.217
13.4835 127.046
13.5285 158.992
13.5734 182.707
13.6183 175.235
13.6633 205.563
13.7082 298.744
13.7531 322.192
13.7981 175.419
13.843 90.7402
13.888 80.2552
13.9329 76.7401
13.9779 74.9492
14.0228 73.3247
14.0678 72.0707
14.1127 72.2916
14.1577 75.288
14.2027 73.6366
14.2476 70.1262
14.2926 68.5009
14.3376 68.0328
14.3825 67.7436
14.4275 67.3032
14.4725 67.0254
14.5175 67.1284
14.5624 67.0781
14.6074 67.6093
14.6524 67.9652
14.6974 68.7139
14.7424 70.5207
14.7874 80.3063
14.8324 108.562
14.8774 120.314
14.9224 117.609
14.9674 130.968
15.0124 172.856
15.0574 207.333
15.1024 153.966
15.1474 86.5945
15.1924 71.1532
15.2374 68.2719
15.2824 66.9933
15.3274 66.0621
15.3725 65.8677
15.4175 65.295
15.4625 64.6264
15.5076 64.4617
15.5526 64.6152
15.5976 64.8989
15.6426 65.6694
15.6877 73.3106
15.7327 96.3311
15.7778 107.846
15.8228 104.282
15.8679 111.493
15.9129 137.345
15.958 179.131
16.003 164.091
16.0481 98.0594
16.0931 67.8801
16.1382 61.8898
16.1833 59.6753
16.2283 58.1852
16.2734 57.368
16.3185 56.6767
16.3636 55.8001
16.4086 55.2178
16.4537 54.91
16.4988 54.3618
16.5439 54.1301
16.589 54.0253
16.6341 53.7815
16.6792 53.1693
16.7243 53.3771
16.7694 53.1881
16.8145 53.3351
16.8596 53.4165
16.9047 53.9955
16.9498 54.5929
16.9949 54.4221
17.04 54.6992
17.0851 55.9255
17.1302 60.6461
17.1754 63.8057
17.2205 63.6967
17.2656 64.0101
17.3108 68.4285
17.3559 75.6271
17.401 80.8448
17.4462 73.3048
17.4913 62.0887
17.5365 58.5648
17.5815 58.0672
17.6268 58.3339
17.6718 58.9231
17.7171 59.2857
17.7622 60.5393
17.8074 61.443
17.8525 62.8841
17.8977 71.5935
17.9428 84.3348
17.9881 88.228
18.0331 86.3796
18.0784 90.2517
18.1237 104.471
18.1688 133.37
18.214 147.259
18.2591 118.629
18.3044 88.0965
18.3495 82.0588
18.3948 89.2395
18.4399 100.235
18.4852 98.3165
18.5303 79.6538
18.5756 65.5678
18.6207 61.7708
18.666 60.2637
18.7112 59.2752
18.7565 58.3184
18.8016 58.1937
18.8469 57.2625
18.892 56.9428
18.9374 56.5699
18.9825 56.2407
19.0278 55.8739
19.073 56.0472
19.1183 56.5177
19.1635 59.1141
19.2088 61.3979
19.254 61.3927
19.2993 61.1529
19.3447 62.7836
19.3898 65.9732
19.4352 71.4197
19.4804 73.1697
19.5257 65.6941
19.5709 56.83
19.6163 53.8373
19.6615 53.2026
19.7068 52.5021
19.752 52.771
19.7974 52.8417
19.8426 53.9522
19.888 56.3943
19.9332 57.7224
19.9786 57.7184
20.0238 57.22
20.0692 59.8237
20.1144 64.3103
20.1598 70.6557
20.205 71.1568
20.2504 65.7232
20.2957 59.8792
20.3411 59.4145
20.3863 62.4107
20.4318 64.2632
20.477 60.0152
20.5224 53.8147
20.5677 50.5863
20.6131 49.4851
20.6586 49.081
20.7038 49.0076
20.7493 48.6804
20.7945 48.686
20.84 48.4589
20.8853 48.3939
20.9307 48.0717
20.976 48.0755
21.0215 48.4719
21.0668 48.9827
21.1122 48.7893
21.1575 48.646
21.203 48.775
21.2483 49.1869
21.2938 50.3735
21.3391 50.6487
21.3846 50.2129
21.4299 48.9321
21.4754 48.2015
21.5207 48.173
21.5662 48.392
21.6116 48.8426
21.6571 50.6606
21.7024 52.7589
21.7479 53.4841
21.7933 53.2799
21.8388 53.9297
21.8843 56.4745
21.9297 59.5442
21.9752 63.829
22.0206 65.5316
22.0661 61.4363
22.1115 56.0056
22.157 54.4146
22.2024 55.6331
22.248 55.1076
22.2933 52.6425
22.3389 49.9374
22.3843 48.7332
22.4299 48.3587
22.4753 48.2555
22.5208 48.148
22.5662 48.2331
22.6118 48.3799
22.6572 48.5509
22.7028 49.6988
22.7483 50.9399
22.7939 51.2672
22.8393 51.2124
22.8849 51.3839
22.9303 51.7492
22.9759 53.168
23.0214 55.3397
23.067 57.6
23.1126 56.5847
23.1581 52.6993
23.2037 49.7366
23.2492 48.7604
23.2948 49.1767
23.3403 50.4794
23.3859 51.5223
23.4314 51.1654
23.477 50.7938
23.5225 50.8265
23.5682 51.9026
23.6137 53.8361
23.6593 56.2179
23.7048 57.2242
23.7505 54.318
23.796 49.6245
23.8417 46.6731
23.8872 45.7715
23.9329 45.1431
23.9784 44.7766
24.0241 44.3719
24.0697 44.0694
24.1154 43.7321
24.1609 43.7134
24.2066 43.3737
24.2522 43.4551
24.2979 43.1432
24.3434 43.0419
24.3892 42.9812
24.4349 42.7099
24.4805 42.4716
24.5262 42.5617
24.5718 42.1635
24.6175 42.4758
24.6631 42.6179
24.7089 42.4384
24.7545 42.2683
24.8002 42.0151
24.8458 41.9194
24.8916 42.0901
24.9372 42.2517
24.983 42.2623
25.0286 42.4839
25.0744 42.9589
25.12 43.2823
25.1658 43.575
25.2114 43.7095
25.2572 44.158
25.3029 44.2502
25.3487 44.0614
25.3943 44.0414
25.4402 44.3268
25.4858 44.3287
25.5316 43.1839
25.5773 41.4791
25.6231 41.0067
25.669 40.2225
25.7147 40.3706
25.7605 40.204
25.8062 40.4825
25.8521 40.7512
25.8977 40.4718
25.9436 40.4468
25.9893 40.1967
26.0352 40.4814
26.0809 40.4774
26.1268 40.834
26.1725 41.3501
26.2184 41.5289
26.2641 41.2224
26.31 40.7315
26.3557 40.4946
26.4017 40.2103
26.4474 40.4421
26.4933 40.3268
26.5391 40.5726
26.585 40.7703
26.6308 40.9372
26.6767 41.3025
26.7225 41.9044
26.7684 42.152
26.8142 41.7656
26.8601 41.0125
26.9059 40.5108
26.9519 40.1168
26.9979 39.6874
27.0437 39.2712
27.0896 38.7176
27.1354 38.7995
27.1814 38.5698
27.2272 38.5297
27.2732 38.5551
27.3191 38.3083
27.3651 38.2987
27.4109 38.0674
27.4569 38.1189
27.5027 38.1026
27.5488 38.2353
27.5946 38.1195
27.6407 38.3141
27.6865 38.3831
27.7326 38.1374
27.7784 38.2012
27.8245 38.0107
27.8703 37.8181
27.9164 38.0545
27.9623 37.9462
28.0084 38.0823
28.0543 38.2475
28.1003 38.3581
28.1462 38.8063
28.1923 38.9162
28.2384 38.5106
28.2843 38.0696
28.3304 37.6678
28.3764 37.3023
28.4225 36.8763
28.4684 36.5298
28.5145 35.909
28.5605 35.7736
28.6066 35.5697
28.6526 35.5441
28.6987 35.4121
28.7447 35.1588
28.7908 35.1842
28.8368 35.1581
28.8829 35.1
28.9289 34.9747
28.9751 34.9415
29.0211 34.8292
29.0673 34.8649
29.1133 34.6558
29.1595 34.4195
29.2055 34.1637
29.2517 34.0755
29.2977 33.9108
29.3439 33.8735
29.3899 33.7968
29.4361 33.7972
29.4824 33.8801
29.5284 33.8418
29.5746 33.578
29.6207 33.2731
29.6669 33.0062
29.713 32.8598
29.7593 32.727
29.8053 32.7151
29.8516 32.5303
29.8977 32.6813
29.9439 32.4373
29.99 32.2732
30.0363 32.2232
30.0824 32.2148
30.1287 32.1638
30.1748 32.0357
30.2211 32.2538
30.2673 31.8892
30.3136 32.326
30.3597 32.3301
30.406 32.1704
30.4522 32.0235
30.4985 31.9129
30.5447 31.9626
30.591 31.7929
30.6372 31.7574
30.6835 31.7572
30.7297 31.7792
30.7761 31.9242
30.8224 31.9738
30.8686 32.0188
30.915 31.7288
30.9612 31.4922
31.0076 31.3795
31.0538 31.1623
31.1002 31.101
31.1464 30.9552
31.1928 30.8142
31.2391 30.8762
31.2855 30.7828
31.3317 30.5533
31.3781 30.6445
31.4244 30.7135
31.4708 30.5346
31.5171 30.6196
31.5636 30.6321
31.6098 30.6696
31.6563 30.6019
31.7026 30.3298
31.7491 30.1102
31.7953 30.0643
31.8418 29.9425
31.8881 29.9546
31.9346 29.8462
31.9809 29.8099
32.0275 29.7795
32.074 29.7876
32.1203 29.6653
32.1668 29.6296
32.2132 29.4178
32.2597 29.1756
32.306 29.1697
32.3526 28.8857
32.399 28.8248
32.4455 28.623
32.4919 28.5989
32.5385 28.6366
32.5848 28.3421
32.6314 28.3815
32.6778 28.2509
32.7244 28.1682
32.7708 28.04
32.8174 28.0424
32.8638 27.8321
32.9104 27.9449
32.9569 27.9061
33.0035 27.6214
33.0499 27.6563
33.0966 27.604
33.143 27.5901
33.1897 27.5197
33.2361 27.4486
33.2828 27.4664
33.3293 27.2126
33.3759 27.298
33.4226 27.2301
33.4691 27.0879
33.5158 27.0108
33.5623 26.8538
33.609 26.6042
33.6555 26.5153
33.7022 26.5255
33.7487 26.3858
33.7954 26.318
33.842 26.1508
33.8887 26.2352
33.9353 26.1353
33.982 25.9892
34.0286 25.9399
34.0753 25.8369
34.1219 25.7454
34.1687 25.7038
34.2152 25.5488
34.262 25.4652
34.3086 25.4144
34.3554 25.4084
34.402 25.2767
34.4488 25.2188
34.4954 25.1593
34.5422 25.1274
34.5889 24.9348
34.6357 24.8514
34.6825 24.7898
34.7292 24.6458
34.776 24.5913
34.8227 24.5429
34.8695 24.4577
34.9162 24.4346
34.9631 24.334
35.0098 24.326
35.0566 24.1834
35.1033 24.2397
35.1502 24.1069
35.1969 24.0135
35.2438 24.0307
35.2906 24.0011
35.3375 23.9062
35.3842 23.8933
35.4311 23.7824
35.4779 23.7601
35.5248 23.7247
35.5716 23.5954
35.6185 23.6038
35.6653 23.5088
35.7123 23.4528
35.759 23.3653
35.806 23.1796
35.8528 23.1599
35.8998 23.0717
35.9468 23.0198
35.9936 23.0119
36.0406 22.8443
36.0874 22.8426
36.1345 22.6844
36.1813 22.6827
36.2283 22.6292
36.2752 22.4961
36.3222 22.5507
36.3691 22.4431
36.4161 22.3036
36.463 22.3084
36.5101 22.2558
36.557 22.2253
36.6041 21.9893
36.651 22.1052
36.6981 22.0446
36.745 21.9382
36.7921 21.8658
36.839 21.7883
36.8861 21.684
36.9331 21.6166
36.9802 21.6149
37.0272 21.4745
37.0743 21.3424
37.1213 21.4095
37.1684 21.2252
37.2154 21.1997
37.2626 21.0798
37.3098 21.1272
37.3568 21.0354
37.404 20.9484
37.451 20.876
37.4982 20.8316
37.5452 20.6491
37.5924 20.6631
37.6395 20.7309
37.6867 20.5989
37.7337 20.4808
37.781 20.4119
37.8281 20.3615
37.8753 20.199
37.9224 20.3149
37.9697 20.1031
38.0168 20.0913
38.064 20.012
38.1111 20.0188
38.1584 19.8771
38.2056 19.9081
38.2529 19.8288
38.3 19.7436
38.3473 19.6684
38.3945 19.5763
38.4418 19.5316
38.489 19.5663
38.5363 19.3612
38.5837 19.3027
38.6309 19.2663
38.6782 19.1783
38.7254 19.0906
38.7728 19.0871
38.82 19.0059
38.8674 18.954
38.9146 18.8971
38.9621 18.8307
39.0093 18.8344
39.0567 18.7367
39.104 18.6764
39.1514 18.6107
39.1987 18.5555
39.2461 18.4941
39.2934 18.4475
39.3409 18.2773
39.3882 18.2258
39.4356 18.2803
39.483 18.1476
39.5304 18.0816
39.5778 18.1645
39.6253 18.0059
39.6726 18.0088
39.7201 17.8933
39.7675 17.8616
39.815 17.7899
39.8624 17.7134
39.9099 17.743
39.9575 17.6241
40.0049 17.6453
40.0525 17.5583
40.0999 17.4388
40.1474 17.3824
40.1949 17.3874
40.2425 17.3013
40.2899 17.2714
40.3375 17.1721
40.385 17.1188
40.4326 17.13
40.48 17.0095
40.5277 17.018
40.5752 16.8992
40.6228 16.8704
40.6703 16.8192
40.718 16.8213
40.7655 16.6801
40.8132 16.6751
40.8607 16.6976
40.9084 16.5721
40.9559 16.5278
41.0036 16.5031
41.0512 16.4288
41.0989 16.3858
41.1465 16.2867
41.1942 16.2616
41.242 16.166
41.2896 16.1649
41.3373 16.0687
41.3849 16.0018
41.4327 15.9818
41.4803 15.9031
41.5281 15.8512
41.5758 15.8508
41.6236 15.6876
41.6712 15.6215
41.7191 15.6489
41.7667 15.5698
41.8146 15.5324
41.8622 15.4276
41.9101 15.4406
41.9578 15.3923
42.0057 15.3323
42.0534 15.2428
42.1013 15.2446
42.149 15.1995
42.1969 15.0877
42.2446 15.078
42.2925 15.001
42.3403 14.9978
42.3882 14.9129
42.436 14.9185
42.4839 14.7935
42.5319 14.78
42.5797 14.767
42.6277 14.6753
42.6755 14.5929
42.7235 14.562
42.7713 14.5232
42.8193 14.4416
42.8671 14.4159
42.9152 14.4074
42.963 14.2833
43.0111 14.2991
43.0589 14.2184
43.107 14.1871
43.1549 14.1172
43.2029 14.0995
43.2508 14.0262
43.2989 13.9792
43.3468 13.9259
43.3949 13.8662
43.4429 13.8469
43.491 13.8046
43.5389 13.7645
43.5871 13.6969
43.635 13.6744
43.6832 13.5665
43.7312 13.4938
43.7793 13.4926
43.8273 13.4611
43.8755 13.4038
43.9237 13.3975
43.9717 13.3234
44.0199 13.282
44.068 13.2154
44.1162 13.2119
44.1642 13.1519
44.2125 13.0639
44.2606 13.0269
44.3088 13.0391
44.3569 12.9654
44.4052 12.9521
44.4533 12.8166
44.5016 12.7477
44.5497 12.7981
44.598 12.7269
44.6461 12.6892
44.6945 12.6802
44.7426 12.5947
44.791 12.5569
44.8391 12.5176
44.8875 12.4297
44.9357 12.438
44.984 12.399
45.0322 12.3024
45.0806 12.2642
45.1288 12.3032
45.1773 12.1793
45.2257 12.1248
45.2739 12.1569
45.3224 12.061
45.3706 12.0059
45.4191 11.953
45.4673 11.9676
45.5158 11.8985
45.5641 11.8303
45.6126 11.8163
45.6609 11.8213
45.7094 11.7483
45.7577 11.7065
45.8063 11.6001
45.8546 11.6009
45.9031 11.5412
45.9515 11.5168
46.0001 11.4659
46.0484 11.4445
46.097 11.4333
46.1454 11.3958
46.194 11.3299
46.2424 11.3371
46.291 11.2234
46.3395 11.1852
46.3881 11.1356
46.4365 11.1596
46.4852 11.0905
46.5337 11.024
46.5823 11.0136
46.631 10.962
46.6795 10.8946
46.7282 10.9027
46.7767 10.8814
46.8254 10.7527
46.8739 10.7581
46.9226 10.7095
46.9712 10.7126
47.0199 10.6294
47.0685 10.6056
47.1173 10.5402
47.1658 10.5149
47.2146 10.4564
47.2632 10.4649
47.312 10.3772
47.3606 10.3941
47.4095 10.337
47.4581 10.3009
47.5069 10.2551
47.5556 10.2389
47.6044 10.1863
47.6531 10.151
47.702 10.0848
47.7507 10.0675
47.7996 10.031
47.8483 9.99582
47.8972 9.95979
47.9461 9.94845
47.9948 9.87605
48.0438 9.86811
48.0925 9.82241
48.1415 9.76241
48.1902 9.74182
48.2392 9.71771
48.288 9.67648
48.337 9.66173
48.3858 9.60653
48.4348 9.54945
48.4837 9.54932
48.5327 9.49868
48.5815 9.45138
48.6306 9.44715
48.6795 9.41929
48.7285 9.35998
48.7774 9.32173
48.8265 9.33264
48.8754 9.2699
48.9245 9.23325
48.9734 9.16234
49.0226 9.17206
49.0715 9.14725
49.1206 9.06444
49.1696 9.06489
49.2188 9.05239
49.2679 8.99033
49.3169 8.95836
49.3661 8.92411
49.4151 8.87118
49.4643 8.85739
49.5134 8.81411
49.5626 8.77893
49.6117 8.76419
49.6609 8.72588
49.71 8.67774
49.7592 8.65376
49.8083 8.56135
49.8576 8.5923
49.9067 8.57169
49.956 8.53367
50.0052 8.4902
50.0545 8.43649
50.1036 8.41516
50.153 8.3755
50.2022 8.37319
50.2515 8.33001
50.3007 8.29916
50.3501 8.26764
50.3993 8.20721
50.4487 8.20911
50.498 8.15705
50.5474 8.12918
50.5966 8.11184
50.6461 8.063
50.6955 8.03174
50.7448 8.04227
50.7943 7.97834
50.8436 7.97341
50.8931 7.95232
50.9424 7.89444
50.9919 7.85391
51.0413 7.83488
51.0908 7.83398
51.1402 7.79713
51.1897 7.70785
51.2391 7.73238
51.2887 7.6623
51.3381 7.66253
51.3877 7.60464
51.4371 7.57805
51.4867 7.54465
51.5362 7.52736
51.5858 7.49381
51.6353 7.43703
51.6849 7.41153
51.7344 7.4173
51.7841 7.38578
51.8336 7.3284
51.8833 7.31487
51.9328 7.27896
51.9826 7.20535
52.0323 7.18319
52.0818 7.17607
52.1316 7.11435
52.1812 7.11831
52.231 7.08678
52.2806 7.05096
52.3304 7.04612
52.38 6.96065
52.4298 6.97354
52.4794 6.92153
52.5293 6.89138
52.5789 6.86324
52.6288 6.88195
52.6785 6.81457
52.7284 6.79626
52.7781 6.76917
52.828 6.77182
52.8777 6.71186
52.9276 6.69132
52.9774 6.64371
53.0273 6.62587
53.0771 6.63082
53.1271 6.56352
53.1769 6.59408
53.2269 6.50916
53.2767 6.49598
53.3267 6.45925
53.3765 6.43427
53.4266 6.42431
53.4766 6.37432
53.5265 6.37261
53.5765 6.32428
53.6264 6.29334
53.6765 6.2728
53.7264 6.24504
53.7765 6.19981
53.8265 6.18085
53.8766 6.191
53.9266 6.11623
53.9767 6.12428
54.0267 6.04171
54.0769 6.04907
54.1269 5.9778
54.1771 5.96847
54.2271 5.94094
54.2773 5.92723
54.3274 5.87357
54.3776 5.82286
54.4277 5.78991
54.478 5.74849
54.528 5.72176
54.5783 5.63658
54.6285 5.63262
54.6788 5.56322
54.7289 5.52174
54.7792 5.52692
54.8296 5.42639
54.8798 5.36868
54.9301 5.42645
54.9803 5.30558
55.0307 5.33308
55.0809 5.26933
55.1314 5.22773
55.1816 5.13392
55.232 5.17196
55.2823 5.03539
55.3328 5.01432
55.383 4.9816
55.4335 4.91225
55.4838 4.81537
55.5344 4.84479
55.5847 4.78956
55.6352 4.77038
55.6856 4.74848
55.7361 4.66771