File: XRD/Ni3Fe_FD0593.xy
TT I
1.27165 7.26047
1.31627 6.57223
1.36089 6.77516
1.40551 5.52133
1.45013 6.45869
1.49476 6.0379
1.53938 6.2616
1.584 5.24804
1.62863 5.30028
1.67325 5.16886
1.71787 5.75006
1.7625 4.5347
1.80712 5.21885
1.85174 4.60632
1.89636 5.0322
1.94099 4.60706
1.98562 4.68278
2.03025 5.20026
2.07487 4.60732
2.11949 5.2561
2.16411 4.57195
2.20874 8.47127
2.25338 11.9508
2.298 5.13953
2.34263 5.19879
2.38725 5.40356
2.43188 5.8019
2.4765 7.07139
2.52115 6.68138
2.56577 7.49802
2.6104 8.31322
2.65503 7.63324
2.69965 7.42649
2.7443 7.99466
2.78893 7.69642
2.83356 8.06236
2.87818 8.84726
2.92281 8.67909
2.96744 9.47307
3.01209 10.3389
3.05672 11.1879
3.10135 12.16
3.14599 13.181
3.19062 14.5027
3.23527 15.5216
3.2799 15.2502
3.32454 16.6713
3.36917 17.664
3.4138 18.8426
3.45844 19.6079
3.50309 20.7118
3.54773 21.3053
3.59237 22.8231
3.637 50.5355
3.68164 37.647
3.7263 25.366
3.77094 25.6921
3.81558 26.4605
3.86022 27.3291
3.90486 28.5493
3.9495 29.5729
3.99416 30.5605
4.0388 31.8375
4.08344 33.5519
4.12809 34.3332
4.17273 36.3586
4.21738 39.8378
4.26204 126.599
4.30669 107.954
4.35133 44.9234
4.39598 43.7532
4.44063 49.3368
4.4853 55.1173
4.52995 54.9856
4.5746 56.0868
4.61925 54.1737
4.6639 55.7791
4.70855 58.2941
4.75322 62.0456
4.79788 67.6542
4.84253 68.65
4.88719 74.9572
4.93184 77.0183
4.97652 82.0847
5.02118 89.0491
5.06583 97.1281
5.11049 109.685
5.15515 161.552
5.19981 481.249
5.24449 3254.81
5.28916 12283.8
5.33382 2728.39
5.37848 201.917
5.42315 133.02
5.46783 119.561
5.5125 111.957
5.55716 103.466
5.60183 99.4413
5.6465 97.905
5.69117 95.4275
5.73586 93.6861
5.78053 97.1208
5.8252 97.297
5.86988 99.7644
5.91455 97.3496
5.95924 108.974
6.00392 276.774
6.0486 1107.15
6.09328 4369.91
6.13795 3283.9
6.18263 235.175
6.22733 93.0493
6.27201 81.9133
6.3167 86.5078
6.36138 75.3799
6.40606 70.2164
6.45075 69.0319
6.49545 65.8543
6.54014 63.8295
6.58483 62.973
6.62952 63.0
6.67421 74.6067
6.71892 93.5292
6.76361 62.6851
6.8083 59.5261
6.853 59.3449
6.89769 56.9621
6.94239 56.3776
6.98711 56.0706
7.03181 55.6057
7.07651 55.6124
7.12121 55.3353
7.16591 56.0282
7.21063 55.4387
7.25533 61.3371
7.30004 103.243
7.34475 68.6117
7.38945 55.2257
7.43416 54.0526
7.47889 54.36
7.5236 54.6878
7.56831 55.3935
7.61303 56.2465
7.65774 56.4314
7.70247 57.1592
7.74719 56.3427
7.79191 56.8474
7.83663 57.36
7.88135 57.9544
7.92607 59.1331
7.97081 60.0736
8.01553 61.3343
8.06026 63.0348
8.10498 64.6732
8.14971 71.0395
8.19446 71.1455
8.23919 70.2543
8.28392 72.697
8.32865 75.3621
8.37339 79.5798
8.41812 85.3076
8.46288 106.726
8.50761 198.182
8.55235 438.37
8.59709 1271.9
8.64183 2206.04
8.68658 915.757
8.73134 156.134
8.77609 99.7085
8.82083 93.7989
8.86558 92.7421
8.91033 91.7515
8.9551 89.9761
8.99985 86.0164
9.04461 84.5842
9.08936 84.384
9.13412 83.4597
9.17888 83.0928
9.22365 83.1104
9.26841 82.8103
9.31318 84.9517
9.35794 85.956
9.4027 85.6303
9.44749 85.5325
9.49226 85.6666
9.53703 86.5315
9.5818 89.6645
9.62657 93.882
9.67134 95.9248
9.71614 93.9888
9.76091 95.51
9.80569 99.7871
9.85047 102.52
9.89525 114.292
9.94005 132.412
9.98484 211.391
10.0296 382.906
10.0744 878.107
10.1192 1735.13
10.164 1512.52
10.2088 362.57
10.2536 124.491
10.2984 111.156
10.3432 110.058
10.388 107.432
10.4328 127.863
10.4776 172.428
10.5224 300.578
10.5672 515.103
10.612 478.089
10.6568 187.148
10.7017 95.3228
10.7465 87.1289
10.7913 83.7334
10.8361 81.6106
10.8809 79.6542
10.9257 78.6379
10.9706 78.3947
11.0154 75.4661
11.0602 73.4258
11.105 72.1534
11.1499 72.952
11.1947 75.1359
11.2395 70.9589
11.2844 69.1624
11.3292 67.6228
11.374 66.4748
11.4189 65.7778
11.4637 65.2749
11.5086 64.9547
11.5534 65.8934
11.5983 64.6033
11.6431 63.9983
11.688 63.2538
11.7328 63.2589
11.7777 63.2175
11.8225 62.9921
11.8674 62.8637
11.9122 63.4146
11.9571 63.8433
12.002 65.257
12.0468 71.1206
12.0917 81.9872
12.1366 107.002
12.1814 157.368
12.2263 203.446
12.2712 160.38
12.3161 90.0518
12.3609 67.6967
12.4058 64.8392
12.4507 64.7787
12.4956 65.2244
12.5405 65.11
12.5853 65.9702
12.6302 69.1365
12.6751 71.7086
12.72 68.8677
12.7649 68.1716
12.8098 69.2295
12.8547 70.3575
12.8996 72.2682
12.9445 73.3577
12.9894 75.5617
13.0343 77.1437
13.0792 81.619
13.1242 95.9933
13.1691 117.723
13.214 158.632
13.2589 254.076
13.3038 377.059
13.3487 419.338
13.3937 248.485
13.4386 121.756
13.4835 111.258
13.5285 126.963
13.5734 169.456
13.6183 255.786
13.6633 350.653
13.7082 329.82
13.7531 179.138
13.7981 96.5091
13.843 82.3941
13.888 80.339
13.9329 78.1335
13.9779 76.7058
14.0228 75.1943
14.0678 73.6596
14.1127 73.1919
14.1577 72.5713
14.2027 71.7965
14.2476 71.0068
14.2926 70.9451
14.3376 71.1048
14.3825 70.3083
14.4275 69.6861
14.4725 69.316
14.5175 69.5685
14.5624 69.8262
14.6074 70.5281
14.6524 71.2072
14.6974 71.3792
14.7424 75.3647
14.7874 82.4016
14.8324 92.8747
14.8774 116.548
14.9224 159.881
14.9674 210.569
15.0124 211.445
15.0574 143.156
15.1024 88.3436
15.1474 72.4507
15.1924 70.5052
15.2374 70.2779
15.2824 69.3379
15.3274 68.3184
15.3725 67.1255
15.4175 66.9987
15.4625 66.685
15.5076 66.4737
15.5526 66.4111
15.5976 66.6428
15.6426 69.6467
15.6877 75.1493
15.7327 82.7852
15.7778 100.027
15.8228 131.948
15.8679 173.574
15.9129 192.762
15.958 149.771
16.003 92.35
16.0481 66.9649
16.0931 63.5582
16.1382 62.2197
16.1833 60.7176
16.2283 59.2333
16.2734 58.463
16.3185 58.3459
16.3636 58.2614
16.4086 57.3296
16.4537 56.5066
16.4988 55.8513
16.5439 55.8549
16.589 55.4319
16.6341 55.6159
16.6792 54.9656
16.7243 55.0717
16.7694 55.252
16.8145 55.0433
16.8596 55.282
16.9047 56.1261
16.9498 56.2415
16.9949 55.8786
17.04 56.5068
17.0851 58.0485
17.1302 59.4383
17.1754 62.7433
17.2205 68.2069
17.2656 75.296
17.3108 82.9868
17.3559 81.9723
17.401 70.9997
17.4462 62.4433
17.4913 59.6714
17.5365 59.6198
17.5815 59.7199
17.6268 60.3769
17.6718 60.8533
17.7171 61.2379
17.7622 61.9376
17.8074 63.1457
17.8525 66.5157
17.8977 70.0444
17.9428 75.7331
17.9881 85.877
18.0331 103.457
18.0784 124.162
18.1237 141.143
18.1688 131.015
18.214 102.188
18.2591 87.5103
18.3044 92.531
18.3495 101.329
18.3948 105.901
18.4399 94.8099
18.4852 76.5225
18.5303 65.8008
18.5756 62.6294
18.6207 61.7562
18.666 60.6992
18.7112 60.133
18.7565 59.4416
18.8016 59.1295
18.8469 58.5859
18.892 58.2982
18.9374 57.81
18.9825 57.368
19.0278 57.1836
19.073 57.5727
19.1183 57.9854
19.1635 58.6556
19.2088 60.162
19.254 63.1008
19.2993 67.4897
19.3447 72.887
19.3898 75.9878
19.4352 71.391
19.4804 62.8195
19.5257 56.8767
19.5709 54.4686
19.6163 54.2324
19.6615 54.1079
19.7068 53.7462
19.752 53.6746
19.7974 54.2215
19.8426 55.0436
19.888 55.6234
19.9332 57.0006
19.9786 59.9412
20.0238 63.6734
20.0692 68.0885
20.1144 70.3219
20.1598 68.0573
20.205 63.7794
20.2504 62.7269
20.2957 64.3955
20.3411 65.9084
20.3863 63.8277
20.4318 58.1153
20.477 53.5668
20.5224 51.4996
20.5677 50.9886
20.6131 50.587
20.6586 50.0434
20.7038 49.7973
20.7493 49.3766
20.7945 49.3778
20.84 49.208
20.8853 49.0429
20.9307 49.0609
20.976 49.2086
21.0215 48.9302
21.0668 49.389
21.1122 49.738
21.1575 50.6323
21.203 51.1142
21.2483 51.8089
21.2938 51.7799
21.3391 50.2618
21.3846 49.1735
21.4299 48.7317
21.4754 48.7917
21.5207 49.1206
21.5662 49.4718
21.6116 50.0001
21.6571 50.4199
21.7024 51.6042
21.7479 53.454
21.7933 56.335
21.8388 59.7888
21.8843 63.2996
21.9297 64.9931
21.9752 63.3001
22.0206 59.5679
22.0661 56.6545
22.1115 56.2454
22.157 56.2031
22.2024 54.3211
22.248 51.4733
22.2933 50.1422
22.3389 49.3675
22.3843 49.1907
22.4299 48.9852
22.4753 49.0834
22.5208 48.7836
22.5662 48.8398
22.6118 49.2471
22.6572 49.4149
22.7028 49.8604
22.7483 50.316
22.7939 51.0097
22.8393 52.7369
22.8849 54.7798
22.9303 56.8022
22.9759 58.1323
23.0214 57.2913
23.067 54.4399
23.1126 51.0181
23.1581 49.5532
23.2037 49.2571
23.2492 49.3143
23.2948 49.3231
23.3403 49.6374
23.3859 50.3448
23.4314 51.6981
23.477 53.4125
23.5225 55.4104
23.5682 57.3269
23.6137 58.3634
23.6593 55.4808
23.7048 51.3692
23.7505 48.2961
23.796 46.902
23.8417 46.1827
23.8872 45.7912
23.9329 45.4679
23.9784 45.1297
24.0241 44.8201
24.0697 44.6938
24.1154 44.3282
24.1609 44.3332
24.2066 44.1034
24.2522 44.0964
24.2979 43.6977
24.3434 43.5209
24.3892 43.3552
24.4349 43.4148
24.4805 43.1924
24.5262 43.3899
24.5718 43.1792
24.6175 43.3677
24.6631 43.0318
24.7089 42.7468
24.7545 42.716
24.8002 42.5408
24.8458 42.5638
24.8916 42.4695
24.9372 42.5552
24.983 42.9049
25.0286 43.2458
25.0744 43.6163
25.12 44.1035
25.1658 44.6548
25.2114 45.0871
25.2572 45.0003
25.3029 45.1099
25.3487 45.0516
25.3943 44.83
25.4402 43.5972
25.4858 42.6038
25.5316 41.6546
25.5773 41.0806
25.6231 41.157
25.669 40.8611
25.7147 40.905
25.7605 40.5886
25.8062 40.7343
25.8521 40.8945
25.8977 40.8782
25.9436 41.0903
25.9893 41.1858
26.0352 41.6971
26.0809 41.9246
26.1268 41.9799
26.1725 41.6319
26.2184 41.0314
26.2641 40.5871
26.31 40.33
26.3557 40.4915
26.4017 40.4994
26.4474 40.7396
26.4933 41.0957
26.5391 41.5165
26.585 41.9891
26.6308 42.3647
26.6767 42.3873
26.7225 42.3307
26.7684 41.7511
26.8142 41.0824
26.8601 40.6124
26.9059 40.2985
26.9519 39.7422
26.9979 39.5109
27.0437 39.2093
27.0896 38.9877
27.1354 39.0797
27.1814 38.9358
27.2272 38.7239
27.2732 38.8169
27.3191 38.7404
27.3651 38.8396
27.4109 38.7443
27.4569 38.7138
27.5027 38.8465
27.5488 38.8326
27.5946 38.5623
27.6407 38.4415
27.6865 38.4042
27.7326 38.0921
27.7784 38.1102
27.8245 38.2061
27.8703 38.3897
27.9164 38.6253
27.9623 38.7764
28.0084 39.14
28.0543 39.4762
28.1003 39.2669
28.1462 39.0047
28.1923 38.7417
28.2384 38.1015
28.2843 37.7791
28.3304 37.3377
28.3764 36.8803
28.4225 36.5538
28.4684 36.3959
28.5145 36.2196
28.5605 36.0689
28.6066 36.0506
28.6526 36.0025
28.6987 35.817
28.7447 35.6896
28.7908 35.6352
28.8368 35.6619
28.8829 35.5399
28.9289 35.5604
28.9751 35.4138
29.0211 35.204
29.0673 34.9211
29.1133 34.7056
29.1595 34.6092
29.2055 34.6061
29.2517 34.5244
29.2977 34.4855
29.3439 34.5188
29.3899 34.371
29.4361 34.3785
29.4824 34.0705
29.5284 34.0049
29.5746 33.6414
29.6207 33.2533
29.6669 33.3069
29.713 33.1862
29.7593 33.084
29.8053 33.0095
29.8516 32.9526
29.8977 33.0273
29.9439 32.8739
29.99 32.9199
30.0363 32.7526
30.0824 32.7664
30.1287 32.6675
30.1748 32.6331
30.2211 32.7341
30.2673 32.5677
30.3136 32.5621
30.3597 32.4826
30.406 32.421
30.4522 32.3208
30.4985 32.1885
30.5447 32.3494
30.591 32.3115
30.6372 32.4244
30.6835 32.3475
30.7297 32.516
30.7761 32.2924
30.8224 32.1594
30.8686 32.0434
30.915 31.8418
30.9612 31.6496
31.0076 31.4742
31.0538 31.4083
31.1002 31.3662
31.1464 31.2204
31.1928 31.1908
31.2391 31.2192
31.2855 31.0673
31.3317 31.0655
31.3781 31.0958
31.4244 31.1022
31.4708 31.0365
31.5171 30.9512
31.5636 30.9677
31.6098 30.7427
31.6563 30.4728
31.7026 30.4143
31.7491 30.3321
31.7953 30.3803
31.8418 30.4016
31.8881 30.3614
31.9346 30.2848
31.9809 30.263
32.0275 30.1853
32.074 30.014
32.1203 29.8367
32.1668 29.6971
32.2132 29.5724
32.2597 29.4162
32.306 29.4357
32.3526 29.1659
32.399 29.0854
32.4455 28.9665
32.4919 28.9104
32.5385 28.8039
32.5848 28.6783
32.6314 28.6603
32.6778 28.6168
32.7244 28.5251
32.7708 28.2848
32.8174 28.4084
32.8638 28.1928
32.9104 28.2268
32.9569 28.2157
33.0035 28.0274
33.0499 27.9718
33.0966 27.9363
33.143 28.0299
33.1897 27.8905
33.2361 27.8222
33.2828 27.7047
33.3293 27.6105
33.3759 27.53
33.4226 27.2756
33.4691 27.1961
33.5158 27.1936
33.5623 27.0678
33.609 26.9587
33.6555 26.8482
33.7022 26.8463
33.7487 26.7213
33.7954 26.6093
33.842 26.5111
33.8887 26.5016
33.9353 26.3555
33.982 26.2854
34.0286 26.2234
34.0753 26.0716
34.1219 26.1049
34.1687 25.9723
34.2152 25.9359
34.262 25.8293
34.3086 25.7419
34.3554 25.7157
34.402 25.6088
34.4488 25.5141
34.4954 25.424
34.5422 25.3505
34.5889 25.1909
34.6357 25.1948
34.6825 25.0497
34.7292 24.9796
34.776 24.9229
34.8227 24.8558
34.8695 24.8692
34.9162 24.7239
34.9631 24.635
35.0098 24.6707
35.0566 24.5211
35.1033 24.391
35.1502 24.4563
35.1969 24.3211
35.2438 24.2892
35.2906 24.2516
35.3375 24.1553
35.3842 24.1482
35.4311 24.1929
35.4779 24.12
35.5248 24.0168
35.5716 23.8679
35.6185 23.8012
35.6653 23.811
35.7123 23.6732
35.759 23.6172
35.806 23.528
35.8528 23.374
35.8998 23.4042
35.9468 23.2852
35.9936 23.2371
36.0406 23.157
36.0874 23.1085
36.1345 23.0488
36.1813 22.9735
36.2283 22.8517
36.2752 22.7953
36.3222 22.8493
36.3691 22.7473
36.4161 22.6464
36.463 22.6631
36.5101 22.5741
36.557 22.4862
36.6041 22.3285
36.651 22.3184
36.6981 22.2356
36.745 22.175
36.7921 22.1257
36.839 22.012
36.8861 21.9987
36.9331 21.8989
36.9802 21.8594
37.0272 21.6996
37.0743 21.689
37.1213 21.6029
37.1684 21.5437
37.2154 21.4066
37.2626 21.4076
37.3098 21.2886
37.3568 21.2829
37.404 21.2638
37.451 21.1185
37.4982 21.1014
37.5452 20.9866
37.5924 20.8581
37.6395 20.8942
37.6867 20.7924
37.7337 20.7511
37.781 20.6734
37.8281 20.5846
37.8753 20.5124
37.9224 20.4539
37.9697 20.3668
38.0168 20.3574
38.064 20.2222
38.1111 20.2303
38.1584 20.1963
38.2056 20.0569
38.2529 20.076
38.3 19.957
38.3473 19.9864
38.3945 19.7583
38.4418 19.7535
38.489 19.7419
38.5363 19.6463
38.5837 19.6044
38.6309 19.5332
38.6782 19.424
38.7254 19.367
38.7728 19.3728
38.82 19.2367
38.8674 19.2107
38.9146 19.1791
38.9621 19.1189
39.0093 19.0307
39.0567 18.9983
39.104 18.9165
39.1514 18.7725
39.1987 18.8363
39.2461 18.758
39.2934 18.6585
39.3409 18.5702
39.3882 18.4964
39.4356 18.4681
39.483 18.3473
39.5304 18.4248
39.5778 18.3535
39.6253 18.2179
39.6726 18.1661
39.7201 18.1643
39.7675 18.0766
39.815 18.0612
39.8624 17.9502
39.9099 17.9367
39.9575 17.7963
40.0049 17.8078
40.0525 17.7344
40.0999 17.6763
40.1474 17.6192
40.1949 17.5716
40.2425 17.4787
40.2899 17.4703
40.3375 17.382
40.385 17.3409
40.4326 17.31
40.48 17.2039
40.5277 17.1395
40.5752 17.0946
40.6228 17.0608
40.6703 17.0311
40.718 16.8947
40.7655 16.9136
40.8132 16.8568
40.8607 16.8322
40.9084 16.748
40.9559 16.7253
41.0036 16.6853
41.0512 16.5853
41.0989 16.5971
41.1465 16.4678
41.1942 16.4437
41.242 16.3149
41.2896 16.3058
41.3373 16.2849
41.3849 16.2239
41.4327 16.1201
41.4803 16.0446
41.5281 16.0121
41.5758 16.0264
41.6236 15.9446
41.6712 15.8934
41.7191 15.8328
41.7667 15.7632
41.8146 15.7074
41.8622 15.6884
41.9101 15.5966
41.9578 15.5205
42.0057 15.5071
42.0534 15.4393
42.1013 15.4663
42.149 15.3547
42.1969 15.3464
42.2446 15.215
42.2925 15.2186
42.3403 15.1847
42.3882 15.0945
42.436 15.0489
42.4839 15.0185
42.5319 14.9904
42.5797 14.902
42.6277 14.8606
42.6755 14.7463
42.7235 14.7127
42.7713 14.6895
42.8193 14.675
42.8671 14.5411
42.9152 14.5374
42.963 14.5073
43.0111 14.4598
43.0589 14.3622
43.107 14.3637
43.1549 14.3151
43.2029 14.2177
43.2508 14.2211
43.2989 14.143
43.3468 14.0711
43.3949 14.1048
43.4429 14.0269
43.491 13.9754
43.5389 13.861
43.5871 13.8488
43.635 13.7984
43.6832 13.8009
43.7312 13.7223
43.7793 13.6455
43.8273 13.6046
43.8755 13.5875
43.9237 13.5224
43.9717 13.5193
44.0199 13.4318
44.068 13.3859
44.1162 13.3384
44.1642 13.368
44.2125 13.2242
44.2606 13.2009
44.3088 13.2029
44.3569 13.0921
44.4052 13.1033
44.4533 13.0003
44.5016 13.013
44.5497 12.9759
44.598 12.8713
44.6461 12.8181
44.6945 12.8154
44.7426 12.7567
44.791 12.6587
44.8391 12.6413
44.8875 12.6209
44.9357 12.5824
44.984 12.5022
45.0322 12.4921
45.0806 12.4388
45.1288 12.3687
45.1773 12.3195
45.2257 12.272
45.2739 12.2452
45.3224 12.1648
45.3706 12.1927
45.4191 12.1176
45.4673 12.1317
45.5158 12.0189
45.5641 11.9292
45.6126 11.9356
45.6609 11.9332
45.7094 11.8926
45.7577 11.8225
45.8063 11.7802
45.8546 11.7628
45.9031 11.7349
45.9515 11.6952
46.0001 11.5925
46.0484 11.5618
46.097 11.5254
46.1454 11.4866
46.194 11.4744
46.2424 11.3928
46.291 11.3937
46.3395 11.3461
46.3881 11.2572
46.4365 11.2672
46.4852 11.2008
46.5337 11.1653
46.5823 11.1738
46.631 11.0663
46.6795 11.0446
46.7282 11.0082
46.7767 10.9712
46.8254 10.9124
46.8739 10.8924
46.9226 10.8261
46.9712 10.8132
47.0199 10.7665
47.0685 10.7485
47.1173 10.6546
47.1658 10.6735
47.2146 10.5996
47.2632 10.5958
47.312 10.5401
47.3606 10.4725
47.4095 10.4229
47.4581 10.393
47.5069 10.3492
47.5556 10.3582
47.6044 10.3173
47.6531 10.2494
47.702 10.1915
47.7507 10.2079
47.7996 10.1112
47.8483 10.1012
47.8972 10.0929
47.9461 10.0659
47.9948 9.95758
48.0438 9.95343
48.0925 9.94422
48.1415 9.87369
48.1902 9.86341
48.2392 9.87252
48.288 9.81733
48.337 9.74267
48.3858 9.72585
48.4348 9.70753
48.4837 9.67523
48.5327 9.61951
48.5815 9.59209
48.6306 9.55684
48.6795 9.5218
48.7285 9.44489
48.7774 9.4707
48.8265 9.41817
48.8754 9.39522
48.9245 9.3416
48.9734 9.288
49.0226 9.26103
49.0715 9.21207
49.1206 9.20572
49.1696 9.17667
49.2188 9.12669
49.2679 9.079
49.3169 9.07419
49.3661 9.00531
49.4151 8.95606
49.4643 8.92816
49.5134 8.91102
49.5626 8.81422
49.6117 8.84467
49.6609 8.78896
49.71 8.7696
49.7592 8.71681
49.8083 8.69036
49.8576 8.68485
49.9067 8.63265
49.956 8.65402
50.0052 8.56914
50.0545 8.5148
50.1036 8.5337
50.153 8.48131
50.2022 8.45356
50.2515 8.40019
50.3007 8.36214
50.3501 8.36015
50.3993 8.31515
50.4487 8.24448
50.498 8.26908
50.5474 8.19859
50.5966 8.16117
50.6461 8.17048
50.6955 8.12512
50.7448 8.08074
50.7943 8.08048
50.8436 8.03792
50.8931 8.01865
50.9424 7.99282
50.9919 7.96868
51.0413 7.92794
51.0908 7.89506
51.1402 7.86074
51.1897 7.83788
51.2391 7.75876
51.2887 7.74121
51.3381 7.72612
51.3877 7.69518
51.4371 7.66207
51.4867 7.62768
51.5362 7.60415
51.5858 7.57881
51.6353 7.51591
51.6849 7.49784
51.7344 7.49106
51.7841 7.46144
51.8336 7.40001
51.8833 7.37566
51.9328 7.34418
51.9826 7.35361
52.0323 7.29296
52.0818 7.25189
52.1316 7.2031
52.1812 7.20951
52.231 7.16132
52.2806 7.14122
52.3304 7.09994
52.38 7.07841
52.4298 7.01962
52.4794 6.99962
52.5293 6.97285
52.5789 6.93707
52.6288 6.94959
52.6785 6.92231
52.7284 6.84697
52.7781 6.84008
52.828 6.81209
52.8777 6.77507
52.9276 6.77695
52.9774 6.68144
53.0273 6.74679
53.0771 6.68744
53.1271 6.64361
53.1769 6.6337
53.2269 6.58841
53.2767 6.53747
53.3267 6.56417
53.3765 6.51508
53.4266 6.45412
53.4766 6.46102
53.5265 6.39362
53.5765 6.41465
53.6264 6.36242
53.6765 6.35982
53.7264 6.29109
53.7765 6.28501
53.8265 6.24097
53.8766 6.2444
53.9266 6.19561
53.9767 6.16463
54.0267 6.12151
54.0769 6.11005
54.1269 6.06075
54.1771 6.04745
54.2271 6.06387
54.2773 5.98746
54.3274 6.0044
54.3776 5.92213
54.4277 5.90822
54.478 5.85343
54.528 5.86133
54.5783 5.76342
54.6285 5.77104
54.6788 5.73919
54.7289 5.65219
54.7792 5.63228
54.8296 5.55078
54.8798 5.51362
54.9301 5.49938
54.9803 5.49765
55.0307 5.44126
55.0809 5.39247
55.1314 5.39421
55.1816 5.2689
55.232 5.26068
55.2823 5.22749
55.3328 5.17861
55.383 5.06727
55.4335 5.08961
55.4838 5.02627
55.5344 4.98987
55.5847 4.92538
55.6352 4.95143
55.6856 4.86347
55.7361 4.85221