File: XRD/Ni3Fe_FD0208.xy
TT I
1.27165 8.10837
1.31627 7.02503
1.36089 7.47388
1.40551 7.59365
1.45013 7.09554
1.49476 7.42734
1.53938 6.30214
1.584 6.4586
1.62863 6.28465
1.67325 5.8637
1.71787 5.82943
1.7625 5.39088
1.80712 5.63091
1.85174 5.50891
1.89636 5.54716
1.94099 5.51844
1.98562 5.53949
2.03025 4.8696
2.07487 4.69293
2.11949 5.27775
2.16411 4.55648
2.20874 4.70519
2.25338 4.18442
2.298 4.86011
2.34263 4.51241
2.38725 4.63668
2.43188 4.2473
2.4765 5.29672
2.52115 4.96846
2.56577 5.42916
2.6104 5.85511
2.65503 5.29303
2.69965 6.09929
2.7443 6.69168
2.78893 6.75176
2.83356 6.69245
2.87818 8.12089
2.92281 8.31353
2.96744 9.68531
3.01209 10.347
3.05672 10.8082
3.10135 12.134
3.14599 12.9409
3.19062 14.1057
3.23527 14.829
3.2799 16.009
3.32454 17.087
3.36917 18.135
3.4138 19.2269
3.45844 19.6598
3.50309 20.5301
3.54773 21.6073
3.59237 22.0126
3.637 23.2493
3.68164 24.0357
3.7263 25.3608
3.77094 25.9863
3.81558 27.1896
3.86022 27.5024
3.90486 28.8322
3.9495 30.4184
3.99416 31.3802
4.0388 32.4625
4.08344 33.6965
4.12809 35.21
4.17273 36.3093
4.21738 38.0563
4.26204 39.271
4.30669 41.0305
4.35133 43.0251
4.39598 44.4939
4.44063 46.8675
4.4853 48.4842
4.52995 52.4161
4.5746 54.1207
4.61925 55.5568
4.6639 58.2489
4.70855 61.4193
4.75322 64.7005
4.79788 68.0494
4.84253 71.8729
4.88719 76.9006
4.93184 82.1454
4.97652 88.9017
5.02118 97.5497
5.06583 108.077
5.11049 125.7
5.15515 170.243
5.19981 888.662
5.24449 3976.02
5.28916 10373.1
5.33382 4342.24
5.37848 287.879
5.42315 155.845
5.46783 130.886
5.5125 118.913
5.55716 112.644
5.60183 107.636
5.6465 105.677
5.69117 103.72
5.73586 102.439
5.78053 102.492
5.8252 102.152
5.86988 105.411
5.91455 111.797
5.95924 135.246
6.00392 444.406
6.0486 1437.82
6.09328 3592.59
6.13795 3814.3
6.18263 392.827
6.22733 111.958
6.27201 90.1082
6.3167 81.8312
6.36138 77.1528
6.40606 72.9347
6.45075 71.0498
6.49545 69.0279
6.54014 66.9831
6.58483 65.8712
6.62952 64.4845
6.67421 62.9985
6.71892 61.9284
6.76361 60.8308
6.8083 60.2723
6.853 59.5933
6.89769 58.8282
6.94239 58.5019
6.98711 57.5466
7.03181 57.066
7.07651 56.6312
7.12121 56.4974
7.16591 56.4827
7.21063 55.9381
7.25533 55.9613
7.30004 55.7971
7.34475 56.0548
7.38945 56.6365
7.43416 55.7099
7.47889 55.7601
7.5236 57.0078
7.56831 58.5266
7.61303 57.6848
7.65774 57.4471
7.70247 58.1886
7.74719 58.8547
7.79191 59.0794
7.83663 59.5851
7.88135 60.7325
7.92607 61.6323
7.97081 63.1111
8.01553 64.0671
8.06026 65.6692
8.10498 66.8682
8.14971 68.9907
8.19446 71.2862
8.23919 73.7878
8.28392 77.1406
8.32865 79.9643
8.37339 84.981
8.41812 90.978
8.46288 110.306
8.50761 290.553
8.55235 598.151
8.59709 1051.71
8.64183 1941.99
8.68658 1246.65
8.73134 233.243
8.77609 112.327
8.82083 100.707
8.86558 96.6321
8.91033 93.3122
8.9551 91.1887
8.99985 90.0957
9.04461 88.9738
9.08936 88.3793
9.13412 87.0862
9.17888 87.0673
9.22365 88.3006
9.26841 89.0467
9.31318 88.6217
9.35794 88.2542
9.4027 88.6815
9.44749 89.7468
9.49226 90.2218
9.53703 91.0639
9.5818 93.3934
9.62657 94.0591
9.67134 96.1172
9.71614 98.7854
9.76091 100.484
9.80569 103.715
9.85047 107.053
9.89525 113.805
9.94005 134.766
9.98484 302.765
10.0296 528.741
10.0744 789.209
10.1192 1422.58
10.164 1716.63
10.2088 591.047
10.2536 152.987
10.2984 118.764
10.3432 113.953
10.388 114.919
10.4328 159.506
10.4776 215.322
10.5224 280.388
10.5672 432.085
10.612 531.276
10.6568 264.931
10.7017 109.991
10.7465 92.8788
10.7913 88.758
10.8361 85.9448
10.8809 83.3843
10.9257 81.0592
10.9706 79.8554
11.0154 78.0775
11.0602 76.2534
11.105 75.5584
11.1499 73.8797
11.1947 72.5501
11.2395 71.5391
11.2844 71.0314
11.3292 70.4619
11.374 69.2701
11.4189 68.7497
11.4637 68.1544
11.5086 67.257
11.5534 66.851
11.5983 66.6135
11.6431 66.8096
11.688 65.9692
11.7328 66.1396
11.7777 65.8942
11.8225 65.5376
11.8674 65.6685
11.9122 66.4439
11.9571 67.1007
12.002 69.062
12.0468 80.2633
12.0917 96.0597
12.1366 108.418
12.1814 137.364
12.2263 187.998
12.2712 185.743
12.3161 104.98
12.3609 71.021
12.4058 67.6485
12.4507 67.515
12.4956 67.7901
12.5405 67.5336
12.5853 68.1033
12.6302 68.6144
12.6751 69.2134
12.72 69.735
12.7649 71.1524
12.8098 72.0632
12.8547 73.4071
12.8996 74.9902
12.9445 76.7156
12.9894 78.7837
13.0343 81.2112
13.0792 86.1549
13.1242 110.03
13.1691 149.774
13.214 176.357
13.2589 225.753
13.3038 312.077
13.3487 413.091
13.3937 316.327
13.4386 153.258
13.4835 134.965
13.5285 155.878
13.5734 174.026
13.6183 221.699
13.6633 304.512
13.7082 365.536
13.7531 238.973
13.7981 115.308
13.843 87.6158
13.888 84.6564
13.9329 82.0611
13.9779 80.2024
14.0228 78.7208
14.0678 77.3335
14.1127 76.6923
14.1577 75.8529
14.2027 75.1335
14.2476 74.6099
14.2926 73.8892
14.3376 73.4742
14.3825 73.0834
14.4275 72.6067
14.4725 72.7615
14.5175 72.6407
14.5624 72.8043
14.6074 73.2328
14.6524 73.8922
14.6974 74.8816
14.7424 80.5039
14.7874 96.0061
14.8324 108.089
14.8774 119.387
14.9224 142.984
14.9674 182.393
15.0124 221.816
15.0574 177.456
15.1024 105.594
15.1474 77.9358
15.1924 74.1857
15.2374 72.7198
15.2824 71.7134
15.3274 71.0573
15.3725 70.3502
15.4175 70.3152
15.4625 69.722
15.5076 69.5614
15.5526 69.6434
15.5976 70.1488
15.6426 74.5089
15.6877 86.9981
15.7327 96.0714
15.7778 103.874
15.8228 120.767
15.8679 150.563
15.9129 186.811
15.958 176.908
16.003 115.609
16.0481 74.5135
16.0931 66.2003
16.1382 64.1453
16.1833 63.4514
16.2283 62.0525
16.2734 61.3962
16.3185 60.6675
16.3636 59.8769
16.4086 59.1081
16.4537 58.573
16.4988 58.1977
16.5439 58.1823
16.589 58.0193
16.6341 57.525
16.6792 57.0136
16.7243 57.6903
16.7694 57.424
16.8145 57.3564
16.8596 57.4391
16.9047 57.8343
16.9498 58.0761
16.9949 58.1167
17.04 59.367
17.0851 62.2456
17.1302 64.2974
17.1754 65.7809
17.2205 69.108
17.2656 73.6635
17.3108 81.3177
17.3559 85.2178
17.401 78.2119
17.4462 67.4832
17.4913 62.831
17.5365 62.263
17.5815 62.4134
17.6268 62.8625
17.6718 63.373
17.7171 63.7954
17.7622 64.8643
17.8074 66.4526
17.8525 72.2153
17.8977 78.9202
17.9428 83.4301
17.9881 87.9504
18.0331 98.7372
18.0784 113.527
18.1237 136.84
18.1688 145.046
18.214 121.264
18.2591 94.8732
18.3044 89.969
18.3495 96.0953
18.3948 105.993
18.4399 102.992
18.4852 85.0117
18.5303 70.9463
18.5756 65.9046
18.6207 64.7739
18.666 63.5948
18.7112 62.8644
18.7565 62.0989
18.8016 61.9572
18.8469 61.1958
18.892 60.6744
18.9374 60.1935
18.9825 60.1375
19.0278 59.8644
19.073 60.5945
19.1183 61.6091
19.1635 62.3897
19.2088 62.9455
19.254 64.6637
19.2993 67.2076
19.3447 71.0936
19.3898 76.1129
19.4352 76.6863
19.4804 69.2553
19.5257 60.8212
19.5709 57.3961
19.6163 56.8141
19.6615 56.7376
19.7068 56.1373
19.752 56.3192
19.7974 56.9903
19.8426 58.3899
19.888 59.0915
19.9332 59.6613
19.9786 61.4835
20.0238 63.6946
20.0692 68.2788
20.1144 72.3327
20.1598 73.4444
20.205 68.4645
20.2504 64.615
20.2957 64.1557
20.3411 66.5824
20.3863 67.6163
20.4318 62.9383
20.477 57.3359
20.5224 53.9367
20.5677 53.1271
20.6131 52.9064
20.6586 52.3702
20.7038 52.2258
20.7493 51.4978
20.7945 51.5906
20.84 51.5687
20.8853 51.3291
20.9307 51.4297
20.976 51.5808
21.0215 51.5301
21.0668 51.9683
21.1122 51.9796
21.1575 52.078
21.203 52.6052
21.2483 53.3118
21.2938 54.1545
21.3391 53.1951
21.3846 51.8679
21.4299 51.2287
21.4754 51.0675
21.5207 51.239
21.5662 51.9194
21.6116 52.955
21.6571 53.7524
21.7024 54.4563
21.7479 55.6097
21.7933 57.5717
21.8388 59.993
21.8843 63.0544
21.9297 66.5447
21.9752 67.1148
22.0206 63.6257
22.0661 59.2397
22.1115 57.6848
22.157 58.3179
22.2024 57.7297
22.248 54.8968
22.2933 52.78
22.3389 51.6025
22.3843 51.4027
22.4299 51.2027
22.4753 51.1301
22.5208 51.1966
22.5662 51.1188
22.6118 51.4017
22.6572 52.1356
22.7028 52.7521
22.7483 53.1018
22.7939 53.3004
22.8393 54.3368
22.8849 55.6341
22.9303 56.9555
22.9759 59.1404
23.0214 59.9225
23.067 58.3747
23.1126 54.8159
23.1581 52.1998
23.2037 51.5285
23.2492 51.9797
23.2948 52.1804
23.3403 52.4603
23.3859 52.6736
23.4314 53.2413
23.477 54.3467
23.5225 55.4948
23.5682 57.394
23.6137 59.4529
23.6593 58.8011
23.7048 55.5255
23.7505 51.5916
23.796 49.4875
23.8417 48.4601
23.8872 47.9841
23.9329 47.7099
23.9784 47.1552
24.0241 46.8163
24.0697 46.8446
24.1154 46.2449
24.1609 46.1865
24.2066 46.0194
24.2522 45.9012
24.2979 45.6315
24.3434 45.5082
24.3892 45.2098
24.4349 45.4402
24.4805 45.0487
24.5262 45.125
24.5718 45.0089
24.6175 45.0876
24.6631 45.028
24.7089 44.8346
24.7545 44.709
24.8002 44.4983
24.8458 44.5682
24.8916 44.3325
24.9372 44.487
24.983 44.9054
25.0286 45.201
25.0744 45.5824
25.12 45.6159
25.1658 46.3213
25.2114 46.5596
25.2572 46.6653
25.3029 46.5096
25.3487 46.5599
25.3943 46.7931
25.4402 46.059
25.4858 44.9882
25.5316 43.7376
25.5773 43.0723
25.6231 43.171
25.669 42.7307
25.7147 42.6824
25.7605 42.6981
25.8062 42.7143
25.8521 42.7136
25.8977 42.6533
25.9436 42.796
25.9893 42.7364
26.0352 43.2015
26.0809 43.3851
26.1268 43.6494
26.1725 43.5075
26.2184 43.1917
26.2641 42.6083
26.31 42.4514
26.3557 42.358
26.4017 42.2858
26.4474 42.3421
26.4933 42.6467
26.5391 42.9152
26.585 43.3599
26.6308 43.6861
26.6767 43.9214
26.7225 44.1196
26.7684 43.5748
26.8142 42.7776
26.8601 42.5049
26.9059 42.0491
26.9519 41.676
26.9979 41.2155
27.0437 40.882
27.0896 40.7839
27.1354 40.8336
27.1814 40.6024
27.2272 40.5207
27.2732 40.5594
27.3191 40.1378
27.3651 40.2505
27.4109 40.3775
27.4569 40.361
27.5027 40.3305
27.5488 40.4478
27.5946 40.3269
27.6407 40.1764
27.6865 40.139
27.7326 39.9431
27.7784 39.9053
27.8245 39.6546
27.8703 39.9265
27.9164 40.0527
27.9623 40.1259
28.0084 40.2827
28.0543 40.6603
28.1003 40.8013
28.1462 40.6392
28.1923 40.3456
28.2384 39.9036
28.2843 39.527
28.3304 39.1851
28.3764 38.6055
28.4225 38.2677
28.4684 38.1389
28.5145 37.6838
28.5605 37.6574
28.6066 37.4999
28.6526 37.4145
28.6987 37.2781
28.7447 37.1609
28.7908 37.1193
28.8368 37.0466
28.8829 36.9046
28.9289 36.982
28.9751 36.8938
29.0211 36.7307
29.0673 36.432
29.1133 36.3532
29.1595 36.1563
29.2055 36.0413
29.2517 36.0136
29.2977 35.8312
29.3439 35.7959
29.3899 35.7605
29.4361 35.7454
29.4824 35.6537
29.5284 35.4828
29.5746 35.0724
29.6207 34.8137
29.6669 34.6223
29.713 34.6727
29.7593 34.4544
29.8053 34.4876
29.8516 34.4389
29.8977 34.4232
29.9439 34.2743
29.99 34.0919
30.0363 34.0851
30.0824 34.1609
30.1287 33.9357
30.1748 33.9186
30.2211 34.0667
30.2673 33.9049
30.3136 33.98
30.3597 33.8277
30.406 33.8696
30.4522 33.6895
30.4985 33.7137
30.5447 33.7066
30.591 33.6445
30.6372 33.6466
30.6835 33.6397
30.7297 33.726
30.7761 33.7752
30.8224 33.5203
30.8686 33.5107
30.915 33.1688
30.9612 33.1145
31.0076 32.9103
31.0538 32.6962
31.1002 32.7724
31.1464 32.4097
31.1928 32.4104
31.2391 32.5645
31.2855 32.3542
31.3317 32.3132
31.3781 32.3452
31.4244 32.3957
31.4708 32.2326
31.5171 32.2715
31.5636 32.3748
31.6098 32.1044
31.6563 31.8454
31.7026 31.7373
31.7491 31.6086
31.7953 31.6981
31.8418 31.6221
31.8881 31.5891
31.9346 31.4871
31.9809 31.4484
32.0275 31.4389
32.074 31.345
32.1203 31.1166
32.1668 31.0136
32.2132 30.8177
32.2597 30.7573
32.306 30.5766
32.3526 30.367
32.399 30.3907
32.4455 30.1987
32.4919 30.1482
32.5385 30.0672
32.5848 29.9834
32.6314 29.8624
32.6778 29.8016
32.7244 29.6891
32.7708 29.4652
32.8174 29.5576
32.8638 29.3758
32.9104 29.5358
32.9569 29.3254
33.0035 29.2099
33.0499 29.2097
33.0966 29.1076
33.143 29.0232
33.1897 28.9557
33.2361 28.9294
33.2828 28.8814
33.3293 28.804
33.3759 28.7229
33.4226 28.5689
33.4691 28.4501
33.5158 28.3649
33.5623 28.2529
33.609 28.0849
33.6555 27.9695
33.7022 27.9082
33.7487 27.8093
33.7954 27.7881
33.842 27.6494
33.8887 27.6059
33.9353 27.5849
33.982 27.4362
34.0286 27.3791
34.0753 27.3209
34.1219 27.1592
34.1687 27.0703
34.2152 27.0383
34.262 26.9767
34.3086 26.8155
34.3554 26.7479
34.402 26.6408
34.4488 26.5901
34.4954 26.4399
34.5422 26.3992
34.5889 26.2517
34.6357 26.2497
34.6825 26.12
34.7292 26.0245
34.776 25.9178
34.8227 25.8507
34.8695 25.7755
34.9162 25.7185
34.9631 25.6805
35.0098 25.6096
35.0566 25.4333
35.1033 25.4893
35.1502 25.4576
35.1969 25.3172
35.2438 25.2865
35.2906 25.2724
35.3375 25.2443
35.3842 25.1213
35.4311 25.1117
35.4779 25.02
35.5248 25.0604
35.5716 24.8241
35.6185 24.8292
35.6653 24.7263
35.7123 24.5759
35.759 24.6356
35.806 24.454
35.8528 24.3188
35.8998 24.3602
35.9468 24.2396
35.9936 24.2112
36.0406 24.0556
36.0874 24.1182
36.1345 24.0327
36.1813 23.9392
36.2283 23.8177
36.2752 23.6897
36.3222 23.7287
36.3691 23.7128
36.4161 23.5122
36.463 23.4989
36.5101 23.5927
36.557 23.4413
36.6041 23.2017
36.651 23.2405
36.6981 23.2026
36.745 23.1458
36.7921 23.0154
36.839 22.9091
36.8861 22.8999
36.9331 22.7724
36.9802 22.7048
37.0272 22.7358
37.0743 22.5413
37.1213 22.5145
37.1684 22.4073
37.2154 22.3968
37.2626 22.271
37.3098 22.2881
37.3568 22.1607
37.404 22.118
37.451 21.9983
37.4982 21.9097
37.5452 21.8584
37.5924 21.7188
37.6395 21.8585
37.6867 21.7249
37.7337 21.661
37.781 21.5694
37.8281 21.5019
37.8753 21.3995
37.9224 21.2668
37.9697 21.2451
38.0168 21.213
38.064 21.0861
38.1111 21.0904
38.1584 21.0001
38.2056 20.9322
38.2529 20.9287
38.3 20.745
38.3473 20.7958
38.3945 20.6223
38.4418 20.6071
38.489 20.512
38.5363 20.447
38.5837 20.415
38.6309 20.365
38.6782 20.2977
38.7254 20.1963
38.7728 20.1602
38.82 20.0778
38.8674 20.0262
38.9146 20.0102
38.9621 19.8671
39.0093 19.8143
39.0567 19.7732
39.104 19.7248
39.1514 19.6058
39.1987 19.6123
39.2461 19.5386
39.2934 19.4399
39.3409 19.3526
39.3882 19.3207
39.4356 19.2367
39.483 19.2007
39.5304 19.1788
39.5778 19.1936
39.6253 19.008
39.6726 19.0342
39.7201 18.9658
39.7675 18.9296
39.815 18.8004
39.8624 18.6079
39.9099 18.6375
39.9575 18.5216
40.0049 18.4989
40.0525 18.4673
40.0999 18.4615
40.1474 18.3919
40.1949 18.2699
40.2425 18.253
40.2899 18.175
40.3375 18.1819
40.385 18.0595
40.4326 17.9786
40.48 17.9452
40.5277 17.9614
40.5752 17.8526
40.6228 17.7535
40.6703 17.7109
40.718 17.7123
40.7655 17.6096
40.8132 17.5706
40.8607 17.5287
40.9084 17.5357
40.9559 17.4572
41.0036 17.3852
41.0512 17.3538
41.0989 17.2496
41.1465 17.1491
41.1942 17.1802
41.242 17.0754
41.2896 17.0168
41.3373 16.9492
41.3849 16.9547
41.4327 16.8357
41.4803 16.7508
41.5281 16.754
41.5758 16.6491
41.6236 16.6049
41.6712 16.5021
41.7191 16.4868
41.7667 16.4617
41.8146 16.4016
41.8622 16.3658
41.9101 16.2796
41.9578 16.2246
42.0057 16.2013
42.0534 16.0779
42.1013 16.1185
42.149 16.0365
42.1969 15.9426
42.2446 15.8854
42.2925 15.8183
42.3403 15.8075
42.3882 15.7735
42.436 15.6581
42.4839 15.5852
42.5319 15.5869
42.5797 15.4977
42.6277 15.4398
42.6755 15.4426
42.7235 15.3541
42.7713 15.2849
42.8193 15.2732
42.8671 15.2105
42.9152 15.1688
42.963 15.1142
43.0111 15.0683
43.0589 15.033
43.107 14.8896
43.1549 14.9387
43.2029 14.8772
43.2508 14.8035
43.2989 14.675
43.3468 14.6386
43.3949 14.6407
43.4429 14.6074
43.491 14.5121
43.5389 14.5261
43.5871 14.4149
43.635 14.4173
43.6832 14.372
43.7312 14.2779
43.7793 14.2693
43.8273 14.1625
43.8755 14.1625
43.9237 14.0901
43.9717 14.0164
44.0199 13.9824
44.068 13.9336
44.1162 13.8822
44.1642 13.8149
44.2125 13.8247
44.2606 13.7596
44.3088 13.7133
44.3569 13.6631
44.4052 13.6236
44.4533 13.5853
44.5016 13.4976
44.5497 13.4939
44.598 13.4061
44.6461 13.3581
44.6945 13.2737
44.7426 13.3225
44.791 13.2322
44.8391 13.1814
44.8875 13.15
44.9357 13.0736
44.984 13.0824
45.0322 12.9827
45.0806 12.9684
45.1288 12.9072
45.1773 12.8493
45.2257 12.8469
45.2739 12.8063
45.3224 12.7142
45.3706 12.6336
45.4191 12.5753
45.4673 12.6163
45.5158 12.5857
45.5641 12.5179
45.6126 12.4932
45.6609 12.4174
45.7094 12.3501
45.7577 12.3347
45.8063 12.264
45.8546 12.2435
45.9031 12.1779
45.9515 12.1593
46.0001 12.1251
46.0484 12.0612
46.097 12.0308
46.1454 11.9936
46.194 11.937
46.2424 11.9087
46.291 11.8041
46.3395 11.7762
46.3881 11.7034
46.4365 11.7197
46.4852 11.6977
46.5337 11.647
46.5823 11.6022
46.631 11.5224
46.6795 11.4835
46.7282 11.4594
46.7767 11.401
46.8254 11.3452
46.8739 11.3505
46.9226 11.2701
46.9712 11.2527
47.0199 11.1822
47.0685 11.1318
47.1173 11.1499
47.1658 11.0814
47.2146 11.0626
47.2632 10.9779
47.312 10.9937
47.3606 10.9176
47.4095 10.8706
47.4581 10.8438
47.5069 10.7884
47.5556 10.7261
47.6044 10.6605
47.6531 10.6793
47.702 10.6562
47.7507 10.5517
47.7996 10.5476
47.8483 10.5227
47.8972 10.4506
47.9461 10.4698
47.9948 10.4067
48.0438 10.3321
48.0925 10.3293
48.1415 10.2708
48.1902 10.2248
48.2392 10.2714
48.288 10.1962
48.337 10.1551
48.3858 10.1007
48.4348 10.0809
48.4837 10.0295
48.5327 9.99216
48.5815 9.95498
48.6306 9.91252
48.6795 9.88323
48.7285 9.83661
48.7774 9.82072
48.8265 9.80592
48.8754 9.72491
48.9245 9.73443
48.9734 9.70245
49.0226 9.64335
49.0715 9.58737
49.1206 9.58822
49.1696 9.48899
49.2188 9.49806
49.2679 9.48677
49.3169 9.40492
49.3661 9.37274
49.4151 9.35144
49.4643 9.34169
49.5134 9.27821
49.5626 9.22078
49.6117 9.20678
49.6609 9.21061
49.71 9.14329
49.7592 9.11705
49.8083 9.0469
49.8576 9.04525
49.9067 8.96407
49.956 8.96468
50.0052 8.91616
50.0545 8.91176
50.1036 8.8623
50.153 8.844
50.2022 8.79555
50.2515 8.77368
50.3007 8.71374
50.3501 8.70388
50.3993 8.66011
50.4487 8.59245
50.498 8.60084
50.5474 8.53572
50.5966 8.528
50.6461 8.51667
50.6955 8.46391
50.7448 8.44211
50.7943 8.40152
50.8436 8.37831
50.8931 8.28772
50.9424 8.32644
50.9919 8.26662
51.0413 8.24639
51.0908 8.20109
51.1402 8.18203
51.1897 8.12916
51.2391 8.0797
51.2887 8.07554
51.3381 8.02521
51.3877 8.01562
51.4371 7.94744
51.4867 7.9391
51.5362 7.88502
51.5858 7.88883
51.6353 7.80944
51.6849 7.78577
51.7344 7.78125
51.7841 7.74197
51.8336 7.71494
51.8833 7.70079
51.9328 7.63532
51.9826 7.61998
52.0323 7.61423
52.0818 7.55321
52.1316 7.4956
52.1812 7.4924
52.231 7.45916
52.2806 7.41767
52.3304 7.37317
52.38 7.38524
52.4298 7.26784
52.4794 7.29709
52.5293 7.24794
52.5789 7.25966
52.6288 7.21591
52.6785 7.17693
52.7284 7.16339
52.7781 7.13085
52.828 7.11676
52.8777 7.06369
52.9276 7.03592
52.9774 7.01731
53.0273 6.99231
53.0771 6.93113
53.1271 6.94571
53.1769 6.89362
53.2269 6.84966
53.2767 6.82672
53.3267 6.79569
53.3765 6.79139
53.4266 6.72127
53.4766 6.68242
53.5265 6.66058
53.5765 6.6618
53.6264 6.61206
53.6765 6.60035
53.7264 6.56868
53.7765 6.54179
53.8265 6.50646
53.8766 6.45543
53.9266 6.44927
53.9767 6.41581
54.0267 6.41489
54.0769 6.34054
54.1269 6.30619
54.1771 6.26469
54.2271 6.26428
54.2773 6.18792
54.3274 6.18742
54.3776 6.11208
54.4277 6.14035
54.478 6.10062
54.528 6.05246
54.5783 6.01333
54.6285 5.93314
54.6788 5.89124
54.7289 5.85965
54.7792 5.77917
54.8296 5.74631
54.8798 5.66933
54.9301 5.65468
54.9803 5.62765
55.0307 5.63625
55.0809 5.55879
55.1314 5.50479
55.1816 5.45947
55.232 5.40542
55.2823 5.37917
55.3328 5.31177
55.383 5.26879
55.4335 5.19848
55.4838 5.1192
55.5344 5.14445
55.5847 5.08501
55.6352 5.06663
55.6856 5.06203
55.7361 5.00885