File: XRD/Ni3Fe_FD0689.xy
TT I
1.27165 7.25708
1.31627 6.66633
1.36089 6.11543
1.40551 5.8567
1.45013 6.00763
1.49476 5.69017
1.53938 5.38597
1.584 5.57575
1.62863 5.69596
1.67325 5.16058
1.71787 5.11703
1.7625 4.65408
1.80712 4.8697
1.85174 4.38503
1.89636 4.48737
1.94099 4.31067
1.98562 4.62002
2.03025 4.39951
2.07487 4.43993
2.11949 4.81087
2.16411 4.84034
2.20874 10.0403
2.25338 13.5922
2.298 5.90019
2.34263 5.30536
2.38725 5.80755
2.43188 5.96893
2.4765 7.13442
2.52115 6.67128
2.56577 7.75106
2.6104 8.25961
2.65503 7.78408
2.69965 8.8545
2.7443 7.7339
2.78893 8.07944
2.83356 7.90994
2.87818 8.28721
2.92281 9.36301
2.96744 9.26329
3.01209 10.6496
3.05672 10.6838
3.10135 11.5112
3.14599 12.6167
3.19062 13.6902
3.23527 15.1656
3.2799 15.6358
3.32454 16.5867
3.36917 17.7061
3.4138 18.8479
3.45844 19.6625
3.50309 20.9649
3.54773 21.2989
3.59237 23.1308
3.637 60.1311
3.68164 41.2265
3.7263 25.2042
3.77094 25.9412
3.81558 26.2865
3.86022 27.4508
3.90486 28.448
3.9495 29.7032
3.99416 30.5448
4.0388 31.5998
4.08344 33.374
4.12809 34.3468
4.17273 35.6915
4.21738 39.7716
4.26204 147.133
4.30669 126.86
4.35133 45.138
4.39598 43.9115
4.44063 49.8982
4.4853 56.4955
4.52995 53.6371
4.5746 54.7082
4.61925 53.7478
4.6639 55.6856
4.70855 58.3557
4.75322 61.6024
4.79788 67.0638
4.84253 68.4526
4.88719 73.8573
4.93184 76.5894
4.97652 81.1478
5.02118 87.8783
5.06583 95.676
5.11049 107.1
5.15515 159.257
5.19981 424.035
5.24449 3051.68
5.28916 12574.5
5.33382 2727.08
5.37848 191.31
5.42315 129.632
5.46783 116.985
5.5125 109.609
5.55716 102.278
5.60183 98.0102
5.6465 97.0512
5.69117 94.6907
5.73586 93.096
5.78053 95.3416
5.8252 95.2379
5.86988 96.8237
5.91455 95.0585
5.95924 105.586
6.00392 247.023
6.0486 1020.75
6.09328 4561.51
6.13795 3100.4
6.18263 218.249
6.22733 91.1836
6.27201 81.39
6.3167 88.958
6.36138 75.6994
6.40606 69.2759
6.45075 68.4324
6.49545 65.1858
6.54014 63.6144
6.58483 62.8918
6.62952 62.4901
6.67421 77.9749
6.71892 101.884
6.76361 62.9999
6.8083 59.0202
6.853 58.5861
6.89769 57.0112
6.94239 56.0169
6.98711 55.3949
7.03181 55.4421
7.07651 54.887
7.12121 54.8435
7.16591 55.3895
7.21063 55.027
7.25533 62.6395
7.30004 117.228
7.34475 72.3399
7.38945 55.4197
7.43416 53.7593
7.47889 54.0591
7.5236 54.5007
7.56831 55.1418
7.61303 55.8168
7.65774 56.2896
7.70247 56.4993
7.74719 56.4896
7.79191 56.46
7.83663 56.7912
7.88135 57.4884
7.92607 58.6778
7.97081 59.764
8.01553 60.8666
8.06026 62.8031
8.10498 63.7871
8.14971 70.8043
8.19446 70.6967
8.23919 69.7185
8.28392 71.9604
8.32865 74.1114
8.37339 78.4536
8.41812 84.6214
8.46288 106.652
8.50761 186.022
8.55235 412.168
8.59709 1230.78
8.64183 2207.4
8.68658 867.368
8.73134 154.015
8.77609 98.0808
8.82083 92.1989
8.86558 91.2824
8.91033 90.6207
8.9551 89.459
8.99985 84.6647
9.04461 83.5906
9.08936 83.3612
9.13412 82.641
9.17888 82.2459
9.22365 82.078
9.26841 82.2365
9.31318 83.7077
9.35794 84.7607
9.4027 84.6561
9.44749 84.7168
9.49226 84.9211
9.53703 85.8449
9.5818 88.7725
9.62657 92.9417
9.67134 95.5617
9.71614 93.3426
9.76091 94.5858
9.80569 97.9649
9.85047 100.339
9.89525 114.642
9.94005 130.455
9.98484 198.434
10.0296 367.282
10.0744 855.009
10.1192 1789.06
10.164 1553.7
10.2088 359.027
10.2536 122.326
10.2984 110.181
10.3432 109.516
10.388 105.601
10.4328 124.451
10.4776 167.294
10.5224 294.423
10.5672 514.1
10.612 495.386
10.6568 193.985
10.7017 94.421
10.7465 86.2701
10.7913 83.1144
10.8361 80.8379
10.8809 78.6375
10.9257 77.6457
10.9706 77.8579
11.0154 74.7564
11.0602 72.8232
11.105 71.5919
11.1499 72.8611
11.1947 76.2104
11.2395 71.3272
11.2844 69.0264
11.3292 67.017
11.374 65.9398
11.4189 65.5627
11.4637 64.8609
11.5086 64.9376
11.5534 65.9422
11.5983 64.6006
11.6431 63.591
11.688 62.8401
11.7328 62.7064
11.7777 62.7787
11.8225 62.5859
11.8674 62.3951
11.9122 62.6722
11.9571 63.0484
12.002 64.1648
12.0468 69.2675
12.0917 79.6821
12.1366 105.102
12.1814 155.649
12.2263 205.6
12.2712 157.634
12.3161 89.0041
12.3609 67.4867
12.4058 64.2148
12.4507 64.0746
12.4956 64.342
12.5405 64.734
12.5853 65.2639
12.6302 68.9839
12.6751 72.3941
12.72 68.2699
12.7649 67.6239
12.8098 68.2335
12.8547 69.6173
12.8996 71.1193
12.9445 72.7917
12.9894 74.5762
13.0343 76.0432
13.0792 80.4529
13.1242 93.1055
13.1691 114.574
13.214 153.949
13.2589 250.486
13.3038 382.437
13.3487 419.325
13.3937 245.941
13.4386 120.503
13.4835 108.345
13.5285 123.098
13.5734 164.223
13.6183 256.442
13.6633 356.203
13.7082 327.339
13.7531 171.462
13.7981 93.5028
13.843 81.3973
13.888 79.3108
13.9329 76.7861
13.9779 75.7829
14.0228 74.5814
14.0678 72.9423
14.1127 72.4664
14.1577 72.0631
14.2027 71.2941
14.2476 70.3619
14.2926 70.0107
14.3376 70.792
14.3825 70.0468
14.4275 68.8774
14.4725 68.6012
14.5175 68.6096
14.5624 68.8564
14.6074 70.3876
14.6524 70.8025
14.6974 70.5287
14.7424 73.9171
14.7874 80.5173
14.8324 90.8391
14.8774 113.945
14.9224 159.291
14.9674 212.293
15.0124 216.021
15.0574 140.358
15.1024 86.8761
15.1474 71.7226
15.1924 70.0308
15.2374 70.0324
15.2824 68.8689
15.3274 67.5499
15.3725 67.0358
15.4175 66.2125
15.4625 65.6791
15.5076 65.8178
15.5526 66.0925
15.5976 65.8702
15.6426 68.0875
15.6877 73.6886
15.7327 80.8434
15.7778 97.1391
15.8228 130.19
15.8679 175.81
15.9129 195.127
15.958 150.309
16.003 91.4378
16.0481 66.4991
16.0931 63.4763
16.1382 61.7892
16.1833 60.1495
16.2283 58.7973
16.2734 58.1348
16.3185 58.0847
16.3636 58.0386
16.4086 56.8115
16.4537 56.0338
16.4988 55.0914
16.5439 55.3484
16.589 55.0007
16.6341 54.8103
16.6792 54.3605
16.7243 54.8282
16.7694 54.5941
16.8145 54.4646
16.8596 54.9241
16.9047 55.8165
16.9498 56.0044
16.9949 55.3612
17.04 55.9024
17.0851 57.3186
17.1302 58.9017
17.1754 61.9798
17.2205 67.2681
17.2656 75.4446
17.3108 83.3337
17.3559 81.2466
17.401 69.8606
17.4462 61.4677
17.4913 59.1002
17.5365 59.1009
17.5815 59.1878
17.6268 59.6755
17.6718 60.1421
17.7171 60.7018
17.7622 61.3251
17.8074 62.4568
17.8525 65.5047
17.8977 68.7365
17.9428 74.5589
17.9881 84.1303
18.0331 102.338
18.0784 124.825
18.1237 142.713
18.1688 130.253
18.214 100.754
18.2591 86.1824
18.3044 91.5989
18.3495 101.666
18.3948 106.149
18.4399 94.3581
18.4852 75.08
18.5303 65.3359
18.5756 61.9879
18.6207 61.1143
18.666 60.2831
18.7112 59.7331
18.7565 58.922
18.8016 58.4647
18.8469 57.7781
18.892 57.6945
18.9374 57.1478
18.9825 56.9934
19.0278 56.9264
19.073 56.8456
19.1183 57.5985
19.1635 57.825
19.2088 59.4117
19.254 62.4643
19.2993 67.3896
19.3447 73.1679
19.3898 76.2642
19.4352 71.1132
19.4804 62.0178
19.5257 56.2396
19.5709 54.1007
19.6163 53.7986
19.6615 53.4743
19.7068 53.201
19.752 53.2348
19.7974 53.7291
19.8426 54.4729
19.888 54.9174
19.9332 56.4551
19.9786 59.3579
20.0238 63.0467
20.0692 67.8053
20.1144 69.8744
20.1598 67.8189
20.205 63.1883
20.2504 62.3937
20.2957 64.0323
20.3411 65.5246
20.3863 63.2592
20.4318 57.4045
20.477 52.9793
20.5224 50.8872
20.5677 50.8078
20.6131 50.1274
20.6586 49.6397
20.7038 49.4002
20.7493 48.8998
20.7945 49.0484
20.84 48.853
20.8853 48.6178
20.9307 48.5467
20.976 48.6301
21.0215 48.5516
21.0668 48.7978
21.1122 49.3758
21.1575 50.2539
21.203 50.7383
21.2483 51.3679
21.2938 51.3053
21.3391 49.927
21.3846 48.8595
21.4299 48.3376
21.4754 48.3025
21.5207 48.4338
21.5662 48.9674
21.6116 49.5511
21.6571 50.0147
21.7024 50.9003
21.7479 52.8801
21.7933 55.8591
21.8388 59.5646
21.8843 63.164
21.9297 64.7239
21.9752 62.8611
22.0206 58.9311
22.0661 56.3072
22.1115 55.9397
22.157 55.8083
22.2024 53.8808
22.248 50.9563
22.2933 49.7138
22.3389 48.8978
22.3843 48.7481
22.4299 48.8053
22.4753 48.7568
22.5208 48.3664
22.5662 48.5166
22.6118 48.6648
22.6572 49.0023
22.7028 49.4961
22.7483 49.7385
22.7939 50.4717
22.8393 52.1011
22.8849 54.4854
22.9303 56.3812
22.9759 58.1164
23.0214 56.9569
23.067 53.9458
23.1126 50.6631
23.1581 48.9861
23.2037 48.715
23.2492 48.8322
23.2948 48.8488
23.3403 49.2052
23.3859 49.9023
23.4314 51.0124
23.477 52.9664
23.5225 55.157
23.5682 57.3796
23.6137 57.8582
23.6593 54.9095
23.7048 50.8847
23.7505 47.8976
23.796 46.3592
23.8417 45.9591
23.8872 45.2987
23.9329 45.0903
23.9784 44.9111
24.0241 44.5461
24.0697 44.3969
24.1154 43.9839
24.1609 43.8997
24.2066 43.648
24.2522 43.4981
24.2979 43.4618
24.3434 43.1774
24.3892 43.0245
24.4349 43.1346
24.4805 42.8393
24.5262 43.0597
24.5718 42.7896
24.6175 42.7928
24.6631 42.6879
24.7089 42.386
24.7545 42.3977
24.8002 42.1746
24.8458 42.273
24.8916 42.068
24.9372 42.2003
24.983 42.6352
25.0286 42.8692
25.0744 43.3081
25.12 43.7314
25.1658 44.3589
25.2114 44.5363
25.2572 44.7702
25.3029 44.8615
25.3487 44.9001
25.3943 44.3866
25.4402 43.3283
25.4858 42.2906
25.5316 41.3761
25.5773 40.754
25.6231 40.8809
25.669 40.5569
25.7147 40.4364
25.7605 40.3998
25.8062 40.3945
25.8521 40.6105
25.8977 40.4299
25.9436 40.8533
25.9893 41.0878
26.0352 41.5229
26.0809 41.5779
26.1268 41.5781
26.1725 41.2129
26.2184 40.5853
26.2641 40.1185
26.31 39.9703
26.3557 40.011
26.4017 40.0987
26.4474 40.396
26.4933 40.6891
26.5391 41.2521
26.585 41.7937
26.6308 42.1308
26.6767 42.0565
26.7225 41.8357
26.7684 41.3851
26.8142 40.7088
26.8601 40.2744
26.9059 39.8235
26.9519 39.3843
26.9979 39.1681
27.0437 38.8899
27.0896 38.6114
27.1354 38.6353
27.1814 38.644
27.2272 38.4537
27.2732 38.4273
27.3191 38.3914
27.3651 38.4354
27.4109 38.3993
27.4569 38.405
27.5027 38.5732
27.5488 38.5111
27.5946 38.3594
27.6407 38.0839
27.6865 38.0525
27.7326 37.7559
27.7784 37.7672
27.8245 37.6444
27.8703 38.0195
27.9164 38.3531
27.9623 38.5489
28.0084 38.6867
28.0543 39.1608
28.1003 38.9173
28.1462 38.8388
28.1923 38.3111
28.2384 37.8168
28.2843 37.4274
28.3304 37.0459
28.3764 36.6387
28.4225 36.2972
28.4684 36.1473
28.5145 35.9818
28.5605 35.7615
28.6066 35.5773
28.6526 35.4238
28.6987 35.6275
28.7447 35.4523
28.7908 35.391
28.8368 35.4546
28.8829 35.3837
28.9289 35.2836
28.9751 34.9176
29.0211 34.9099
29.0673 34.6286
29.1133 34.5033
29.1595 34.4144
29.2055 34.2345
29.2517 34.2313
29.2977 34.2007
29.3439 34.0657
29.3899 34.2075
29.4361 34.1044
29.4824 33.8906
29.5284 33.7
29.5746 33.2705
29.6207 33.1356
29.6669 32.9441
29.713 32.917
29.7593 32.7973
29.8053 32.7849
29.8516 32.6267
29.8977 32.6864
29.9439 32.5653
29.99 32.4559
30.0363 32.4811
30.0824 32.5301
30.1287 32.2671
30.1748 32.4658
30.2211 32.4098
30.2673 32.2078
30.3136 32.2783
30.3597 32.1878
30.406 32.0791
30.4522 31.9825
30.4985 32.0334
30.5447 32.1133
30.591 32.1131
30.6372 32.1886
30.6835 32.1549
30.7297 32.1119
30.7761 32.0213
30.8224 31.871
30.8686 31.7943
30.915 31.6121
30.9612 31.4794
31.0076 31.1892
31.0538 31.0905
31.1002 31.2059
31.1464 31.0428
31.1928 30.9501
31.2391 30.9873
31.2855 30.7782
31.3317 30.9107
31.3781 30.8976
31.4244 30.8957
31.4708 30.8535
31.5171 30.8372
31.5636 30.8233
31.6098 30.4475
31.6563 30.2023
31.7026 30.2112
31.7491 30.1068
31.7953 30.1873
31.8418 30.0759
31.8881 30.1249
31.9346 29.9716
31.9809 29.9457
32.0275 29.868
32.074 29.7224
32.1203 29.5989
32.1668 29.419
32.2132 29.3399
32.2597 29.1716
32.306 29.1742
32.3526 28.9355
32.399 28.8223
32.4455 28.751
32.4919 28.6613
32.5385 28.6275
32.5848 28.4622
32.6314 28.4156
32.6778 28.4146
32.7244 28.1739
32.7708 28.1405
32.8174 28.1757
32.8638 28.0302
32.9104 28.0706
32.9569 27.9152
33.0035 27.725
33.0499 27.7812
33.0966 27.7565
33.143 27.7687
33.1897 27.6245
33.2361 27.4671
33.2828 27.5894
33.3293 27.383
33.3759 27.2986
33.4226 27.146
33.4691 26.975
33.5158 27.0121
33.5623 26.9268
33.609 26.7131
33.6555 26.6367
33.7022 26.5548
33.7487 26.4544
33.7954 26.4118
33.842 26.301
33.8887 26.2656
33.9353 26.2478
33.982 26.0545
34.0286 26.0493
34.0753 25.9827
34.1219 25.8364
34.1687 25.828
34.2152 25.6496
34.262 25.6504
34.3086 25.5831
34.3554 25.4786
34.402 25.3589
34.4488 25.2218
34.4954 25.1377
34.5422 25.157
34.5889 25.0234
34.6357 24.9184
34.6825 24.9084
34.7292 24.7881
34.776 24.6619
34.8227 24.6225
34.8695 24.6571
34.9162 24.6239
34.9631 24.4867
35.0098 24.4976
35.0566 24.2891
35.1033 24.2793
35.1502 24.2282
35.1969 24.2221
35.2438 24.1267
35.2906 24.0832
35.3375 23.9915
35.3842 23.9169
35.4311 24.0139
35.4779 23.8899
35.5248 23.8041
35.5716 23.7662
35.6185 23.6693
35.6653 23.5592
35.7123 23.5513
35.759 23.4415
35.806 23.3397
35.8528 23.2658
35.8998 23.1766
35.9468 23.1376
35.9936 23.0861
36.0406 23.0126
36.0874 23.0151
36.1345 22.8342
36.1813 22.8071
36.2283 22.7075
36.2752 22.6039
36.3222 22.6125
36.3691 22.5253
36.4161 22.5033
36.463 22.4401
36.5101 22.3646
36.557 22.3572
36.6041 22.1309
36.651 22.196
36.6981 22.1204
36.745 22.0159
36.7921 21.9087
36.839 21.8932
36.8861 21.8012
36.9331 21.7264
36.9802 21.6625
37.0272 21.5121
37.0743 21.3869
37.1213 21.4458
37.1684 21.4131
37.2154 21.3072
37.2626 21.1995
37.3098 21.1328
37.3568 21.1178
37.404 20.9978
37.451 20.9125
37.4982 20.9048
37.5452 20.8619
37.5924 20.7786
37.6395 20.7595
37.6867 20.6577
37.7337 20.5906
37.781 20.4665
37.8281 20.4856
37.8753 20.321
37.9224 20.3518
37.9697 20.231
38.0168 20.1765
38.064 20.1087
38.1111 20.1091
38.1584 19.9918
38.2056 19.9401
38.2529 19.9204
38.3 19.7593
38.3473 19.7889
38.3945 19.6054
38.4418 19.6404
38.489 19.611
38.5363 19.5048
38.5837 19.4304
38.6309 19.3896
38.6782 19.2803
38.7254 19.2321
38.7728 19.108
38.82 19.1449
38.8674 19.1286
38.9146 18.9529
38.9621 18.9527
39.0093 18.8395
39.0567 18.8647
39.104 18.7732
39.1514 18.6633
39.1987 18.6432
39.2461 18.6499
39.2934 18.5109
39.3409 18.4193
39.3882 18.3171
39.4356 18.3023
39.483 18.3701
39.5304 18.3141
39.5778 18.2451
39.6253 18.1213
39.6726 18.016
39.7201 18.0358
39.7675 17.9703
39.815 17.8817
39.8624 17.8406
39.9099 17.8306
39.9575 17.7318
40.0049 17.7338
40.0525 17.6057
40.0999 17.6073
40.1474 17.4982
40.1949 17.4971
40.2425 17.3452
40.2899 17.3189
40.3375 17.2962
40.385 17.2207
40.4326 17.1719
40.48 17.0914
40.5277 17.1077
40.5752 16.9849
40.6228 16.9372
40.6703 16.9031
40.718 16.837
40.7655 16.7916
40.8132 16.7224
40.8607 16.6997
40.9084 16.6375
40.9559 16.6028
41.0036 16.6023
41.0512 16.5234
41.0989 16.4287
41.1465 16.3603
41.1942 16.2821
41.242 16.2033
41.2896 16.2099
41.3373 16.1475
41.3849 16.1123
41.4327 15.9896
41.4803 15.9503
41.5281 15.8945
41.5758 15.8979
41.6236 15.7785
41.6712 15.7823
41.7191 15.7524
41.7667 15.6682
41.8146 15.6624
41.8622 15.5372
41.9101 15.4834
41.9578 15.4611
42.0057 15.4146
42.0534 15.3821
42.1013 15.2736
42.149 15.2326
42.1969 15.185
42.2446 15.1903
42.2925 15.0567
42.3403 15.0323
42.3882 15.0427
42.436 14.9129
42.4839 14.8655
42.5319 14.8925
42.5797 14.813
42.6277 14.7582
42.6755 14.7176
42.7235 14.6511
42.7713 14.6059
42.8193 14.5828
42.8671 14.4587
42.9152 14.4034
42.963 14.3958
43.0111 14.3006
43.0589 14.2923
43.107 14.2305
43.1549 14.1849
43.2029 14.1423
43.2508 14.1588
43.2989 14.0782
43.3468 13.9338
43.3949 13.9792
43.4429 13.9606
43.491 13.8403
43.5389 13.774
43.5871 13.7588
43.635 13.7268
43.6832 13.7231
43.7312 13.5555
43.7793 13.5832
43.8273 13.569
43.8755 13.4823
43.9237 13.4551
43.9717 13.4131
44.0199 13.3192
44.068 13.3276
44.1162 13.2444
44.1642 13.2116
44.2125 13.1962
44.2606 13.139
44.3088 13.0675
44.3569 13.0022
44.4052 12.9891
44.4533 12.9283
44.5016 12.885
44.5497 12.8471
44.598 12.8072
44.6461 12.7229
44.6945 12.6945
44.7426 12.669
44.791 12.5872
44.8391 12.5867
44.8875 12.5325
44.9357 12.5136
44.984 12.4488
45.0322 12.3968
45.0806 12.3435
45.1288 12.3243
45.1773 12.2536
45.2257 12.2022
45.2739 12.1891
45.3224 12.2055
45.3706 12.0859
45.4191 12.0185
45.4673 12.0054
45.5158 11.9996
45.5641 11.9409
45.6126 11.8909
45.6609 11.8378
45.7094 11.8222
45.7577 11.7324
45.8063 11.703
45.8546 11.6588
45.9031 11.6188
45.9515 11.6097
46.0001 11.5706
46.0484 11.5294
46.097 11.4901
46.1454 11.4465
46.194 11.3628
46.2424 11.3668
46.291 11.3163
46.3395 11.2653
46.3881 11.225
46.4365 11.1931
46.4852 11.1199
46.5337 11.0816
46.5823 11.1072
46.631 11.0039
46.6795 10.9575
46.7282 10.9155
46.7767 10.9277
46.8254 10.847
46.8739 10.8158
46.9226 10.7736
46.9712 10.7073
47.0199 10.6817
47.0685 10.6806
47.1173 10.5916
47.1658 10.6117
47.2146 10.5574
47.2632 10.4728
47.312 10.4528
47.3606 10.4588
47.4095 10.3884
47.4581 10.3401
47.5069 10.2933
47.5556 10.2704
47.6044 10.2709
47.6531 10.2074
47.702 10.117
47.7507 10.103
47.7996 10.0828
47.8483 10.0613
47.8972 10.0558
47.9461 10.0255
47.9948 9.92872
48.0438 9.91704
48.0925 9.88574
48.1415 9.86806
48.1902 9.78544
48.2392 9.77562
48.288 9.72336
48.337 9.70145
48.3858 9.66517
48.4348 9.61941
48.4837 9.60964
48.5327 9.57591
48.5815 9.50633
48.6306 9.48809
48.6795 9.44234
48.7285 9.3866
48.7774 9.39408
48.8265 9.35965
48.8754 9.30454
48.9245 9.26297
48.9734 9.25975
49.0226 9.22969
49.0715 9.17913
49.1206 9.10662
49.1696 9.08255
49.2188 9.09311
49.2679 9.04319
49.3169 8.90546
49.3661 8.95182
49.4151 8.9323
49.4643 8.87746
49.5134 8.8626
49.5626 8.84116
49.6117 8.7746
49.6609 8.78269
49.71 8.70365
49.7592 8.69574
49.8083 8.66662
49.8576 8.63686
49.9067 8.59366
49.956 8.55414
50.0052 8.49645
50.0545 8.50408
50.1036 8.45862
50.153 8.40459
50.2022 8.37954
50.2515 8.35659
50.3007 8.32373
50.3501 8.28152
50.3993 8.25219
50.4487 8.21436
50.498 8.17382
50.5474 8.17565
50.5966 8.12717
50.6461 8.0691
50.6955 8.06265
50.7448 8.07572
50.7943 8.02703
50.8436 8.00315
50.8931 7.94678
50.9424 7.91953
50.9919 7.89187
51.0413 7.84763
51.0908 7.80254
51.1402 7.81755
51.1897 7.8106
51.2391 7.72316
51.2887 7.70203
51.3381 7.6419
51.3877 7.64195
51.4371 7.59869
51.4867 7.5452
51.5362 7.51353
51.5858 7.48344
51.6353 7.50895
51.6849 7.43292
51.7344 7.40262
51.7841 7.39064
51.8336 7.35861
51.8833 7.352
51.9328 7.26613
51.9826 7.28717
52.0323 7.26224
52.0818 7.17452
52.1316 7.12684
52.1812 7.13
52.231 7.11947
52.2806 7.06765
52.3304 7.06913
52.38 7.02305
52.4298 7.00537
52.4794 6.96033
52.5293 6.93047
52.5789 6.91507
52.6288 6.89207
52.6785 6.89874
52.7284 6.84008
52.7781 6.84781
52.828 6.74728
52.8777 6.70381
52.9276 6.69753
52.9774 6.69353
53.0273 6.68139
53.0771 6.68167
53.1271 6.59233
53.1769 6.5749
53.2269 6.5815
53.2767 6.53673
53.3267 6.46863
53.3765 6.45037
53.4266 6.43481
53.4766 6.38425
53.5265 6.39531
53.5765 6.34412
53.6264 6.31845
53.6765 6.25917
53.7264 6.26477
53.7765 6.24634
53.8265 6.20456
53.8766 6.15854
53.9266 6.15537
53.9767 6.0954
54.0267 6.059
54.0769 6.07337
54.1269 6.03752
54.1771 6.03844
54.2271 5.99667
54.2773 5.946
54.3274 5.93402
54.3776 5.86421
54.4277 5.86504
54.478 5.85255
54.528 5.78517
54.5783 5.80577
54.6285 5.70821
54.6788 5.67297
54.7289 5.63222
54.7792 5.62693
54.8296 5.55878
54.8798 5.50502
54.9301 5.42577
54.9803 5.43556
55.0307 5.44791
55.0809 5.41294
55.1314 5.3768
55.1816 5.26968
55.232 5.22297
55.2823 5.17906
55.3328 5.18177
55.383 5.07412
55.4335 5.06385
55.4838 5.03093
55.5344 4.90845
55.5847 4.94358
55.6352 4.86747
55.6856 4.88262
55.7361 4.8238