File: XRD/Ni3Fe_FD0103.xy
TT I
1.27165 8.10477
1.31627 7.59775
1.36089 7.65874
1.40551 6.76566
1.45013 7.11584
1.49476 6.92024
1.53938 6.19045
1.584 5.95243
1.62863 6.42111
1.67325 5.79288
1.71787 5.92822
1.7625 6.00079
1.80712 5.28648
1.85174 5.47237
1.89636 5.78439
1.94099 5.91524
1.98562 5.01698
2.03025 5.24915
2.07487 5.09486
2.11949 5.38008
2.16411 4.69531
2.20874 5.12664
2.25338 4.63194
2.298 4.74889
2.34263 3.74293
2.38725 4.15139
2.43188 4.6524
2.4765 4.16442
2.52115 3.7426
2.56577 5.03161
2.6104 5.16641
2.65503 4.48498
2.69965 5.45516
2.7443 5.43101
2.78893 6.15943
2.83356 6.80699
2.87818 7.3752
2.92281 8.25904
2.96744 9.11426
3.01209 9.69463
3.05672 10.912
3.10135 12.2766
3.14599 12.9364
3.19062 13.5245
3.23527 14.8449
3.2799 15.3034
3.32454 16.5016
3.36917 17.0944
3.4138 18.1624
3.45844 19.1892
3.50309 20.2868
3.54773 20.5186
3.59237 21.5132
3.637 22.1322
3.68164 23.1281
3.7263 24.0371
3.77094 24.4234
3.81558 25.646
3.86022 25.8077
3.90486 27.3293
3.9495 28.0113
3.99416 29.3876
4.0388 29.856
4.08344 31.338
4.12809 31.866
4.17273 33.559
4.21738 34.7511
4.26204 35.7567
4.30669 37.2486
4.35133 39.0427
4.39598 40.8181
4.44063 42.6658
4.4853 44.0349
4.52995 46.3473
4.5746 48.4806
4.61925 50.7696
4.6639 53.392
4.70855 56.132
4.75322 58.8686
4.79788 61.9363
4.84253 65.349
4.88719 70.39
4.93184 75.3892
4.97652 82.9863
5.02118 92.9596
5.06583 104.198
5.11049 123.5
5.15515 168.899
5.19981 651.758
5.24449 3780.73
5.28916 6754.78
5.33382 7006.94
5.37848 646.06
5.42315 185.718
5.46783 136.161
5.5125 118.663
5.55716 110.874
5.60183 103.423
5.6465 100.874
5.69117 99.3438
5.73586 97.1756
5.78053 97.3629
5.8252 97.6324
5.86988 101.825
5.91455 109.792
5.95924 134.269
6.00392 330.178
6.0486 1431.13
6.09328 2217.83
6.13795 3882.97
6.18263 907.403
6.22733 144.11
6.27201 94.9771
6.3167 80.5522
6.36138 73.1729
6.40606 68.6278
6.45075 66.3694
6.49545 63.6033
6.54014 61.9555
6.58483 60.3052
6.62952 59.0794
6.67421 57.8277
6.71892 56.7928
6.76361 56.0408
6.8083 54.3826
6.853 54.3095
6.89769 53.4736
6.94239 53.6019
6.98711 52.1065
7.03181 52.3564
7.07651 51.8665
7.12121 51.6081
7.16591 51.3082
7.21063 50.8451
7.25533 51.0799
7.30004 50.9305
7.34475 51.2425
7.38945 51.5662
7.43416 51.1221
7.47889 51.5002
7.5236 58.0563
7.56831 73.8476
7.61303 58.0245
7.65774 52.9708
7.70247 53.0352
7.74719 53.4978
7.79191 53.9303
7.83663 53.956
7.88135 55.2586
7.92607 56.1111
7.97081 57.1911
8.01553 58.1386
8.06026 59.6893
8.10498 60.8833
8.14971 62.5147
8.19446 64.4132
8.23919 66.7916
8.28392 69.8706
8.32865 73.0013
8.37339 77.8368
8.41812 83.9282
8.46288 97.4827
8.50761 185.302
8.55235 642.131
8.59709 769.293
8.64183 1193.9
8.68658 1725.12
8.73134 540.194
8.77609 127.615
8.82083 99.8058
8.86558 91.6232
8.91033 87.758
8.9551 85.1277
8.99985 83.3449
9.04461 82.2404
9.08936 81.2219
9.13412 80.726
9.17888 80.8245
9.22365 91.6189
9.26841 114.65
9.31318 93.3723
9.35794 81.9504
9.4027 81.2707
9.44749 82.0596
9.49226 82.597
9.53703 83.2326
9.5818 84.7807
9.62657 86.0315
9.67134 87.3792
9.71614 89.3776
9.76091 91.6882
9.80569 94.4167
9.85047 97.8324
9.89525 103.666
9.94005 115.696
9.98484 197.077
10.0296 583.238
10.0744 678.562
10.1192 803.488
10.164 1479.32
10.2088 1172.64
10.2536 268.874
10.2984 120.989
10.3432 109.337
10.388 104.923
10.4328 123.322
10.4776 224.995
10.5224 246.32
10.5672 269.067
10.612 439.655
10.6568 420.28
10.7017 161.143
10.7465 93.6298
10.7913 83.5648
10.8361 79.8909
10.8809 77.2259
10.9257 74.2529
10.9706 73.3566
11.0154 71.6879
11.0602 69.9725
11.105 69.1372
11.1499 67.667
11.1947 66.5505
11.2395 65.7496
11.2844 64.8804
11.3292 64.328
11.374 63.7739
11.4189 62.9976
11.4637 62.5008
11.5086 61.5541
11.5534 61.1616
11.5983 61.1119
11.6431 61.0381
11.688 60.6864
11.7328 60.1266
11.7777 60.4749
11.8225 60.0112
11.8674 60.0936
11.9122 62.4367
11.9571 68.8245
12.002 68.1131
12.0468 68.6378
12.0917 92.2664
12.1366 106.716
12.1814 105.073
12.2263 127.949
12.2712 180.592
12.3161 154.298
12.3609 80.5451
12.4058 64.1339
12.4507 62.5046
12.4956 62.3328
12.5405 62.2666
12.5853 62.5996
12.6302 62.9762
12.6751 63.1534
12.72 64.2426
12.7649 64.8441
12.8098 65.7633
12.8547 66.8843
12.8996 68.7795
12.9445 70.0152
12.9894 71.9518
13.0343 73.7825
13.0792 78.257
13.1242 87.2878
13.1691 137.668
13.214 193.029
13.2589 186.682
13.3038 203.12
13.3487 295.663
13.3937 388.246
13.4386 247.885
13.4835 129.313
13.5285 161.195
13.5734 183.67
13.6183 170.682
13.6633 195.936
13.7082 291.993
13.7531 329.306
13.7981 181.931
13.843 91.8364
13.888 80.3019
13.9329 76.9365
13.9779 75.1321
14.0228 73.3206
14.0678 72.0472
14.1127 72.5634
14.1577 75.9339
14.2027 74.3002
14.2476 70.3152
14.2926 68.6805
14.3376 67.8207
14.3825 67.4634
14.4275 66.8349
14.4725 66.9296
14.5175 67.1742
14.5624 67.0711
14.6074 67.43
14.6524 67.8109
14.6974 68.7031
14.7424 70.4967
14.7874 80.4653
14.8324 109.744
14.8774 120.224
14.9224 114.726
14.9674 126.276
15.0124 167.149
15.0574 206.609
15.1024 157.899
15.1474 87.4352
15.1924 71.3938
15.2374 68.4275
15.2824 66.7725
15.3274 66.075
15.3725 65.3609
15.4175 64.8936
15.4625 64.496
15.5076 64.2202
15.5526 64.6231
15.5976 64.5845
15.6426 65.7915
15.6877 73.5632
15.7327 96.9319
15.7778 107.774
15.8228 102.232
15.8679 107.671
15.9129 132.065
15.958 176.816
16.003 166.036
16.0481 99.9193
16.0931 68.5885
16.1382 61.8723
16.1833 59.6263
16.2283 58.1109
16.2734 57.3244
16.3185 56.3657
16.3636 55.8047
16.4086 55.2002
16.4537 54.7181
16.4988 54.1112
16.5439 53.9626
16.589 53.823
16.6341 53.4763
16.6792 52.9994
16.7243 53.3391
16.7694 53.3422
16.8145 53.2077
16.8596 53.3381
16.9047 53.7493
16.9498 54.418
16.9949 54.3195
17.04 54.383
17.0851 55.9089
17.1302 60.4519
17.1754 63.8385
17.2205 63.3142
17.2656 63.5511
17.3108 67.4592
17.3559 74.4883
17.401 81.0166
17.4462 73.7424
17.4913 61.9288
17.5365 58.2133
17.5815 58.0054
17.6268 58.2387
17.6718 58.8401
17.7171 59.0745
17.7622 60.2997
17.8074 61.3469
17.8525 63.0865
17.8977 71.7294
17.9428 84.6844
17.9881 87.6792
18.0331 85.0833
18.0784 88.0453
18.1237 101.647
18.1688 130.767
18.214 147.494
18.2591 119.618
18.3044 87.482
18.3495 80.7665
18.3948 87.0224
18.4399 99.1845
18.4852 99.1171
18.5303 80.6269
18.5756 65.6269
18.6207 61.8
18.666 59.8448
18.7112 59.0852
18.7565 58.3503
18.8016 57.9861
18.8469 57.2768
18.892 57.1912
18.9374 56.3791
18.9825 56.2594
19.0278 55.7325
19.073 55.9167
19.1183 56.3976
19.1635 59.0393
19.2088 61.2587
19.254 61.0707
19.2993 60.6994
19.3447 62.0892
19.3898 65.1892
19.4352 70.4401
19.4804 73.0529
19.5257 66.0994
19.5709 56.8048
19.6163 53.8998
19.6615 53.101
19.7068 52.6835
19.752 52.3581
19.7974 52.7249
19.8426 54.0034
19.888 56.0833
19.9332 57.6808
19.9786 57.1337
20.0238 57.0059
20.0692 59.0484
20.1144 63.611
20.1598 69.7874
20.205 71.0717
20.2504 65.7654
20.2957 59.5843
20.3411 58.649
20.3863 61.718
20.4318 64.2057
20.477 60.6254
20.5224 53.7469
20.5677 50.4325
20.6131 49.5564
20.6586 49.0627
20.7038 48.9382
20.7493 48.3923
20.7945 48.5314
20.84 48.3729
20.8853 48.1243
20.9307 47.8277
20.976 48.049
21.0215 48.4006
21.0668 48.6689
21.1122 48.5645
21.1575 48.5133
21.203 48.4227
21.2483 48.9194
21.2938 49.9443
21.3391 50.6326
21.3846 50.2478
21.4299 48.8153
21.4754 47.9735
21.5207 47.9284
21.5662 48.1822
21.6116 48.5955
21.6571 50.6989
21.7024 52.7367
21.7479 53.3712
21.7933 52.8245
21.8388 53.3737
21.8843 55.7077
21.9297 58.7415
21.9752 63.0904
22.0206 65.2033
22.0661 61.5949
22.1115 55.9636
22.157 54.1443
22.2024 55.2724
22.248 55.0714
22.2933 52.6922
22.3389 49.9744
22.3843 48.5444
22.4299 48.0361
22.4753 47.9402
22.5208 48.0055
22.5662 47.9603
22.6118 48.1352
22.6572 48.3813
22.7028 49.5948
22.7483 50.8746
22.7939 51.3202
22.8393 50.9412
22.8849 50.9782
22.9303 51.2782
22.9759 52.6673
23.0214 54.6766
23.067 57.457
23.1126 56.7072
23.1581 52.8082
23.2037 49.6168
23.2492 48.722
23.2948 49.0562
23.3403 50.5003
23.3859 51.27
23.4314 50.8505
23.477 50.6252
23.5225 50.4033
23.5682 51.2318
23.6137 53.2473
23.6593 55.7093
23.7048 57.247
23.7505 54.4827
23.796 49.6826
23.8417 46.4913
23.8872 45.4394
23.9329 44.9474
23.9784 44.6591
24.0241 44.3418
24.0697 44.0631
24.1154 43.7187
24.1609 43.4124
24.2066 43.3495
24.2522 43.1691
24.2979 42.922
24.3434 42.812
24.3892 42.4977
24.4349 42.5878
24.4805 42.309
24.5262 42.3361
24.5718 42.1398
24.6175 42.2398
24.6631 42.4219
24.7089 42.3122
24.7545 42.1483
24.8002 41.9396
24.8458 41.8359
24.8916 41.8041
24.9372 41.8269
24.983 42.1342
25.0286 42.2563
25.0744 42.7315
25.12 43.0793
25.1658 43.3056
25.2114 43.5112
25.2572 43.8043
25.3029 44.0676
25.3487 43.8299
25.3943 43.7879
25.4402 44.0843
25.4858 44.3015
25.5316 43.0344
25.5773 41.505
25.6231 40.7434
25.669 40.2403
25.7147 40.1928
25.7605 40.1458
25.8062 40.3114
25.8521 40.4884
25.8977 40.3504
25.9436 40.3155
25.9893 40.0812
26.0352 40.3183
26.0809 40.1624
26.1268 40.6287
26.1725 40.9684
26.2184 41.4372
26.2641 41.0443
26.31 40.5246
26.3557 40.3504
26.4017 40.2156
26.4474 40.1659
26.4933 40.1675
26.5391 40.327
26.585 40.5686
26.6308 40.5623
26.6767 40.9908
26.7225 41.6928
26.7684 42.1527
26.8142 41.5971
26.8601 40.8967
26.9059 40.1941
26.9519 40.0188
26.9979 39.7475
27.0437 39.0061
27.0896 38.6334
27.1354 38.4708
27.1814 38.4426
27.2272 38.2436
27.2732 38.3407
27.3191 38.1038
27.3651 38.1914
27.4109 37.9911
27.4569 37.9003
27.5027 37.8481
27.5488 38.0714
27.5946 38.0081
27.6407 38.1046
27.6865 38.1678
27.7326 38.0792
27.7784 38.0846
27.8245 37.7712
27.8703 37.7214
27.9164 37.8712
27.9623 37.7913
28.0084 37.9023
28.0543 38.0623
28.1003 38.2131
28.1462 38.4451
28.1923 38.6434
28.2384 38.3442
28.2843 37.9929
28.3304 37.3835
28.3764 37.1018
28.4225 36.8054
28.4684 36.2676
28.5145 35.8593
28.5605 35.6412
28.6066 35.5113
28.6526 35.5074
28.6987 35.4414
28.7447 35.0817
28.7908 34.9658
28.8368 34.9317
28.8829 34.8783
28.9289 34.9347
28.9751 34.7796
29.0211 34.799
29.0673 34.7916
29.1133 34.4689
29.1595 34.1736
29.2055 34.0215
29.2517 33.9041
29.2977 33.8937
29.3439 33.7488
29.3899 33.6903
29.4361 33.4687
29.4824 33.686
29.5284 33.6012
29.5746 33.4994
29.6207 33.1073
29.6669 32.8557
29.713 32.7407
29.7593 32.4738
29.8053 32.4663
29.8516 32.4791
29.8977 32.3841
29.9439 32.2763
29.99 32.2128
30.0363 32.0513
30.0824 32.1084
30.1287 32.0108
30.1748 32.0678
30.2211 32.0122
30.2673 31.9523
30.3136 32.0281
30.3597 32.0331
30.406 32.092
30.4522 31.8864
30.4985 31.8637
30.5447 31.7856
30.591 31.5961
30.6372 31.6801
30.6835 31.6137
30.7297 31.5939
30.7761 31.6847
30.8224 31.7966
30.8686 31.8389
30.915 31.5364
30.9612 31.5123
31.0076 31.3135
31.0538 31.0547
31.1002 30.962
31.1464 30.8024
31.1928 30.7633
31.2391 30.644
31.2855 30.485
31.3317 30.3692
31.3781 30.5616
31.4244 30.4182
31.4708 30.3949
31.5171 30.4435
31.5636 30.4051
31.6098 30.4407
31.6563 30.4122
31.7026 30.1735
31.7491 30.0481
31.7953 29.9114
31.8418 29.8919
31.8881 29.7439
31.9346 29.6565
31.9809 29.6513
32.0275 29.6747
32.074 29.6599
32.1203 29.5368
32.1668 29.3902
32.2132 29.282
32.2597 29.0768
32.306 28.976
32.3526 28.7793
32.399 28.6896
32.4455 28.4497
32.4919 28.4381
32.5385 28.349
32.5848 28.1781
32.6314 28.2801
32.6778 28.1664
32.7244 28.0024
32.7708 27.8741
32.8174 27.9539
32.8638 27.8328
32.9104 27.9065
32.9569 27.7787
33.0035 27.5915
33.0499 27.5404
33.0966 27.4699
33.143 27.4182
33.1897 27.3913
33.2361 27.294
33.2828 27.3068
33.3293 27.0904
33.3759 27.2155
33.4226 27.0932
33.4691 27.042
33.5158 26.8657
33.5623 26.7145
33.609 26.5419
33.6555 26.5363
33.7022 26.2757
33.7487 26.1951
33.7954 26.2083
33.842 26.0894
33.8887 26.0616
33.9353 26.0341
33.982 25.9239
34.0286 25.8559
34.0753 25.8231
34.1219 25.6259
34.1687 25.5973
34.2152 25.5227
34.262 25.38
34.3086 25.2204
34.3554 25.2339
34.402 25.2176
34.4488 25.0496
34.4954 25.0638
34.5422 24.9677
34.5889 24.6968
34.6357 24.6681
34.6825 24.7065
34.7292 24.5449
34.776 24.4326
34.8227 24.3763
34.8695 24.348
34.9162 24.355
34.9631 24.1291
35.0098 24.2226
35.0566 24.0681
35.1033 24.0768
35.1502 24.0475
35.1969 23.9645
35.2438 23.8649
35.2906 23.8037
35.3375 23.7592
35.3842 23.6585
35.4311 23.6352
35.4779 23.6003
35.5248 23.6107
35.5716 23.5121
35.6185 23.4997
35.6653 23.535
35.7123 23.4203
35.759 23.2615
35.806 23.1264
35.8528 23.0545
35.8998 22.9935
35.9468 22.9392
35.9936 22.8595
36.0406 22.6879
36.0874 22.718
36.1345 22.7326
36.1813 22.6289
36.2283 22.4556
36.2752 22.4214
36.3222 22.5116
36.3691 22.3857
36.4161 22.2801
36.463 22.158
36.5101 22.1741
36.557 22.106
36.6041 21.9307
36.651 21.9884
36.6981 21.9022
36.745 21.8383
36.7921 21.8072
36.839 21.6369
36.8861 21.5945
36.9331 21.5612
36.9802 21.5334
37.0272 21.3466
37.0743 21.3107
37.1213 21.2324
37.1684 21.2421
37.2154 21.1343
37.2626 21.0816
37.3098 21.0023
37.3568 20.9269
37.404 20.8456
37.451 20.8311
37.4982 20.7086
37.5452 20.609
37.5924 20.5651
37.6395 20.5929
37.6867 20.5088
37.7337 20.4074
37.781 20.3692
37.8281 20.2542
37.8753 20.1997
37.9224 20.1728
37.9697 20.033
38.0168 19.9801
38.064 19.9582
38.1111 19.9326
38.1584 19.7471
38.2056 19.7153
38.2529 19.6642
38.3 19.5949
38.3473 19.5969
38.3945 19.4419
38.4418 19.4465
38.489 19.3586
38.5363 19.3103
38.5837 19.2328
38.6309 19.1861
38.6782 19.15
38.7254 18.9785
38.7728 19.0558
38.82 18.9267
38.8674 18.9185
38.9146 18.7705
38.9621 18.768
39.0093 18.7205
39.0567 18.6478
39.104 18.6229
39.1514 18.5334
39.1987 18.4873
39.2461 18.4704
39.2934 18.379
39.3409 18.2578
39.3882 18.236
39.4356 18.1188
39.483 18.1583
39.5304 18.0622
39.5778 18.1062
39.6253 17.9248
39.6726 17.8614
39.7201 17.832
39.7675 17.7571
39.815 17.7589
39.8624 17.7036
39.9099 17.6859
39.9575 17.5486
40.0049 17.4955
40.0525 17.4464
40.0999 17.4279
40.1474 17.3576
40.1949 17.2749
40.2425 17.2289
40.2899 17.1619
40.3375 17.1594
40.385 17.0627
40.4326 16.9963
40.48 16.9405
40.5277 16.9781
40.5752 16.9085
40.6228 16.7892
40.6703 16.7679
40.718 16.7109
40.7655 16.6853
40.8132 16.5683
40.8607 16.5832
40.9084 16.4998
40.9559 16.4568
41.0036 16.4335
41.0512 16.3687
41.0989 16.3084
41.1465 16.2583
41.1942 16.1814
41.242 16.1183
41.2896 16.0703
41.3373 16.0061
41.3849 16.0161
41.4327 15.9344
41.4803 15.7967
41.5281 15.8007
41.5758 15.6992
41.6236 15.6456
41.6712 15.6147
41.7191 15.5705
41.7667 15.538
41.8146 15.5294
41.8622 15.3473
41.9101 15.3027
41.9578 15.3046
42.0057 15.2444
42.0534 15.1924
42.1013 15.2076
42.149 15.1489
42.1969 15.1082
42.2446 15.0431
42.2925 14.9678
42.3403 14.9264
42.3882 14.919
42.436 14.8642
42.4839 14.745
42.5319 14.6996
42.5797 14.6883
42.6277 14.5853
42.6755 14.5889
42.7235 14.5282
42.7713 14.5054
42.8193 14.4676
42.8671 14.3691
42.9152 14.2817
42.963 14.2824
43.0111 14.1901
43.0589 14.1824
43.107 14.1305
43.1549 14.1161
43.2029 14.0394
43.2508 14.0272
43.2989 13.954
43.3468 13.8622
43.3949 13.8009
43.4429 13.7994
43.491 13.745
43.5389 13.7696
43.5871 13.6685
43.635 13.5783
43.6832 13.6016
43.7312 13.5005
43.7793 13.439
43.8273 13.4713
43.8755 13.3305
43.9237 13.3144
43.9717 13.3001
44.0199 13.2726
44.068 13.2295
44.1162 13.1858
44.1642 13.0887
44.2125 13.057
44.2606 12.9951
44.3088 12.9309
44.3569 12.8962
44.4052 12.9279
44.4533 12.7895
44.5016 12.7947
44.5497 12.6891
44.598 12.6903
44.6461 12.6584
44.6945 12.6011
44.7426 12.5795
44.791 12.4823
44.8391 12.5002
44.8875 12.4221
44.9357 12.3497
44.984 12.362
45.0322 12.2737
45.0806 12.1921
45.1288 12.1692
45.1773 12.1412
45.2257 12.0858
45.2739 12.0617
45.3224 12.0133
45.3706 11.9948
45.4191 11.9547
45.4673 11.8847
45.5158 11.8648
45.5641 11.8319
45.6126 11.811
45.6609 11.7403
45.7094 11.7118
45.7577 11.6443
45.8063 11.599
45.8546 11.5927
45.9031 11.5376
45.9515 11.4739
46.0001 11.4434
46.0484 11.4401
46.097 11.3811
46.1454 11.296
46.194 11.2816
46.2424 11.2398
46.291 11.1942
46.3395 11.1796
46.3881 11.1138
46.4365 11.093
46.4852 11.0358
46.5337 10.9988
46.5823 10.9258
46.631 10.9411
46.6795 10.883
46.7282 10.8647
46.7767 10.8151
46.8254 10.6964
46.8739 10.7417
46.9226 10.6662
46.9712 10.5935
47.0199 10.5699
47.0685 10.5861
47.1173 10.4859
47.1658 10.4542
47.2146 10.4584
47.2632 10.3881
47.312 10.3982
47.3606 10.3417
47.4095 10.2716
47.4581 10.2692
47.5069 10.2467
47.5556 10.154
47.6044 10.1461
47.6531 10.0766
47.702 10.0328
47.7507 10.0674
47.7996 9.97995
47.8483 9.95089
47.8972 9.92158
47.9461 9.87038
47.9948 9.83854
48.0438 9.8109
48.0925 9.78034
48.1415 9.76907
48.1902 9.71358
48.2392 9.69712
48.288 9.62993
48.337 9.60731
48.3858 9.54721
48.4348 9.55977
48.4837 9.51713
48.5327 9.44421
48.5815 9.40953
48.6306 9.45117
48.6795 9.38269
48.7285 9.341
48.7774 9.30626
48.8265 9.23966
48.8754 9.2096
48.9245 9.20719
48.9734 9.14997
49.0226 9.15768
49.0715 9.1081
49.1206 9.07691
49.1696 9.03067
49.2188 8.99155
49.2679 8.95305
49.3169 8.8971
49.3661 8.89689
49.4151 8.88835
49.4643 8.81468
49.5134 8.78384
49.5626 8.71605
49.6117 8.73594
49.6609 8.67412
49.71 8.61439
49.7592 8.60749
49.8083 8.55999
49.8576 8.56113
49.9067 8.51706
49.956 8.49993
50.0052 8.4633
50.0545 8.42862
50.1036 8.39181
50.153 8.39407
50.2022 8.32925
50.2515 8.31902
50.3007 8.28562
50.3501 8.198
50.3993 8.22851
50.4487 8.20219
50.498 8.13869
50.5474 8.10277
50.5966 8.05157
50.6461 8.0473
50.6955 8.04648
50.7448 7.97058
50.7943 7.98503
50.8436 7.89112
50.8931 7.88867
50.9424 7.88123
50.9919 7.84739
51.0413 7.77558
51.0908 7.76617
51.1402 7.76475
51.1897 7.71174
51.2391 7.65071
51.2887 7.65408
51.3381 7.60464
51.3877 7.60348
51.4371 7.55179
51.4867 7.52079
51.5362 7.45513
51.5858 7.49139
51.6353 7.43074
51.6849 7.386
51.7344 7.37554
51.7841 7.3663
51.8336 7.29768
51.8833 7.29173
51.9328 7.22233
51.9826 7.19772
52.0323 7.17454
52.0818 7.19212
52.1316 7.10608
52.1812 7.0857
52.231 7.07511
52.2806 7.03153
52.3304 7.01318
52.38 6.98269
52.4298 6.97552
52.4794 6.91962
52.5293 6.8844
52.5789 6.85472
52.6288 6.84052
52.6785 6.77775
52.7284 6.8016
52.7781 6.74847
52.828 6.76805
52.8777 6.6673
52.9276 6.66138
52.9774 6.65191
53.0273 6.61854
53.0771 6.60821
53.1271 6.56855
53.1769 6.5162
53.2269 6.51808
53.2767 6.48154
53.3267 6.4397
53.3765 6.40401
53.4266 6.39945
53.4766 6.37021
53.5265 6.31334
53.5765 6.32958
53.6264 6.28472
53.6765 6.27963
53.7264 6.21042
53.7765 6.21705
53.8265 6.18761
53.8766 6.12934
53.9266 6.0955
53.9767 6.1114
54.0267 6.04344
54.0769 5.97451
54.1269 5.99716
54.1771 5.93272
54.2271 5.93249
54.2773 5.85874
54.3274 5.86775
54.3776 5.82324
54.4277 5.78932
54.478 5.73216
54.528 5.70123
54.5783 5.613
54.6285 5.57844
54.6788 5.50767
54.7289 5.53201
54.7792 5.49207
54.8296 5.46041
54.8798 5.34616
54.9301 5.38204
54.9803 5.35672
55.0307 5.30123
55.0809 5.24539
55.1314 5.18877
55.1816 5.13185
55.232 5.05755
55.2823 5.04302
55.3328 4.96188
55.383 4.92705
55.4335 4.89405
55.4838 4.85186
55.5344 4.80247
55.5847 4.75653
55.6352 4.75791
55.6856 4.77355
55.7361 4.68342