File: XRD/Ni3Fe_FD0776.xy
TT I
1.27165 7.37389
1.31627 6.81219
1.36089 6.20688
1.40551 5.94877
1.45013 6.26186
1.49476 5.76743
1.53938 5.6461
1.584 5.27932
1.62863 5.05413
1.67325 5.10111
1.71787 5.23692
1.7625 5.24674
1.80712 4.57419
1.85174 4.47756
1.89636 4.65637
1.94099 5.21056
1.98562 4.95847
2.03025 4.11862
2.07487 4.82108
2.11949 4.71339
2.16411 4.62092
2.20874 14.0159
2.25338 22.4111
2.298 5.82043
2.34263 5.71177
2.38725 6.59083
2.43188 6.85016
2.4765 6.86301
2.52115 7.12753
2.56577 7.77499
2.6104 8.2794
2.65503 7.46322
2.69965 8.32789
2.7443 8.63432
2.78893 8.90199
2.83356 8.31871
2.87818 9.00931
2.92281 9.27428
2.96744 9.72052
3.01209 10.9822
3.05672 11.2092
3.10135 12.7937
3.14599 13.3478
3.19062 14.6184
3.23527 15.3145
3.2799 15.606
3.32454 16.5653
3.36917 17.7816
3.4138 18.9452
3.45844 19.2522
3.50309 21.0066
3.54773 22.0484
3.59237 23.7958
3.637 92.5261
3.68164 58.8158
3.7263 26.2742
3.77094 25.9798
3.81558 26.3274
3.86022 27.2311
3.90486 29.1174
3.9495 29.7723
3.99416 30.805
4.0388 31.6795
4.08344 33.7392
4.12809 35.0609
4.17273 36.925
4.21738 42.5029
4.26204 245.726
4.30669 214.505
4.35133 48.0191
4.39598 43.8485
4.44063 53.4216
4.4853 65.042
4.52995 49.7521
4.5746 51.1503
4.61925 52.6167
4.6639 54.9521
4.70855 57.547
4.75322 60.2813
4.79788 63.4967
4.84253 66.4866
4.88719 70.4642
4.93184 73.9701
4.97652 79.5965
5.02118 85.6238
5.06583 93.282
5.11049 103.573
5.15515 169.533
5.19981 307.855
5.24449 2602.29
5.28916 13094.3
5.33382 2815.01
5.37848 178.866
5.42315 125.308
5.46783 111.531
5.5125 103.644
5.55716 100.597
5.60183 97.0276
5.6465 95.4639
5.69117 93.0523
5.73586 91.3641
5.78053 90.0728
5.8252 89.7636
5.86988 90.2816
5.91455 92.3835
5.95924 99.445
6.00392 188.42
6.0486 887.681
6.09328 4444.31
6.13795 3142.31
6.18263 214.356
6.22733 90.4902
6.27201 81.3459
6.3167 100.77
6.36138 79.707
6.40606 68.0529
6.45075 66.4802
6.49545 64.7561
6.54014 63.4897
6.58483 62.385
6.62952 62.095
6.67421 93.3115
6.71892 142.342
6.76361 68.3478
6.8083 58.1481
6.853 57.1654
6.89769 56.5698
6.94239 55.9693
6.98711 55.4168
7.03181 55.2771
7.07651 54.7481
7.12121 54.6957
7.16591 55.1653
7.21063 55.254
7.25533 70.0717
7.30004 176.226
7.34475 90.6534
7.38945 56.1007
7.43416 54.1895
7.47889 54.0032
7.5236 54.2756
7.56831 54.639
7.61303 56.5205
7.65774 56.8565
7.70247 55.2908
7.74719 55.5612
7.79191 56.0248
7.83663 56.4555
7.88135 57.5039
7.92607 58.0225
7.97081 59.0734
8.01553 60.1564
8.06026 61.4375
8.10498 63.434
8.14971 72.3537
8.19446 71.4283
8.23919 68.781
8.28392 70.978
8.32865 73.4716
8.37339 77.3192
8.41812 83.9456
8.46288 112.063
8.50761 154.215
8.55235 355.517
8.59709 1167.47
8.64183 2261.85
8.68658 897.317
8.73134 151.501
8.77609 97.2561
8.82083 91.0123
8.86558 88.2802
8.91033 88.7833
8.9551 90.4171
8.99985 84.114
9.04461 82.586
9.08936 81.9359
9.13412 81.0028
9.17888 81.1517
9.22365 81.5457
9.26841 81.2922
9.31318 81.6361
9.35794 81.8586
9.4027 81.8108
9.44749 82.8817
9.49226 83.4475
9.53703 84.7245
9.5818 86.0604
9.62657 90.7406
9.67134 97.6629
9.71614 92.4852
9.76091 92.9823
9.80569 94.7883
9.85047 98.5346
9.89525 122.354
9.94005 133.721
9.98484 162.256
10.0296 315.058
10.0744 783.791
10.1192 1797.89
10.164 1552.32
10.2088 353.331
10.2536 121.779
10.2984 111.226
10.3432 113.371
10.388 103.265
10.4328 113.62
10.4776 152.385
10.5224 275.289
10.5672 536.629
10.612 498.77
10.6568 193.866
10.7017 93.7615
10.7465 84.9889
10.7913 81.8879
10.8361 79.8421
10.8809 77.8686
10.9257 77.344
10.9706 78.0558
11.0154 73.9292
11.0602 72.2417
11.105 71.0237
11.1499 75.4916
11.1947 82.3017
11.2395 73.746
11.2844 69.6783
11.3292 66.2013
11.374 65.5027
11.4189 64.6762
11.4637 64.3903
11.5086 64.6657
11.5534 67.6018
11.5983 64.954
11.6431 62.9343
11.688 62.2367
11.7328 62.1279
11.7777 62.0574
11.8225 61.8905
11.8674 61.6463
11.9122 62.0732
11.9571 62.147
12.002 62.6109
12.0468 66.0671
12.0917 76.3473
12.1366 99.6783
12.1814 156.367
12.2263 216.805
12.2712 171.141
12.3161 93.571
12.3609 69.5011
12.4058 63.8629
12.4507 63.7877
12.4956 63.6649
12.5405 63.7197
12.5853 64.9471
12.6302 72.3628
12.6751 77.705
12.72 69.2551
12.7649 67.0045
12.8098 67.4342
12.8547 68.773
12.8996 70.2084
12.9445 71.2669
12.9894 72.8625
13.0343 74.8673
13.0792 77.8216
13.1242 85.1736
13.1691 107.649
13.214 142.588
13.2589 235.155
13.3038 384.674
13.3487 432.641
13.3937 254.056
13.4386 119.398
13.4835 101.996
13.5285 116.428
13.5734 152.68
13.6183 246.648
13.6633 357.036
13.7082 338.401
13.7531 175.962
13.7981 93.6902
13.843 80.5479
13.888 78.5937
13.9329 75.8635
13.9779 74.7222
14.0228 73.3205
14.0678 72.1976
14.1127 71.9556
14.1577 71.4599
14.2027 70.4174
14.2476 69.7855
14.2926 69.8013
14.3376 70.7187
14.3825 69.3624
14.4275 67.9877
14.4725 67.8176
14.5175 68.0765
14.5624 68.1884
14.6074 70.3838
14.6524 70.7873
14.6974 69.6193
14.7424 70.6196
14.7874 76.8708
14.8324 86.2167
14.8774 107.605
14.9224 153.57
14.9674 214.198
15.0124 218.938
15.0574 143.916
15.1024 87.4789
15.1474 71.0595
15.1924 69.1971
15.2374 70.1105
15.2824 69.4304
15.3274 67.2993
15.3725 66.0373
15.4175 65.6338
15.4625 65.2704
15.5076 65.3713
15.5526 65.3915
15.5976 65.0574
15.6426 65.7142
15.6877 70.3401
15.7327 77.5073
15.7778 92.0753
15.8228 124.582
15.8679 173.365
15.9129 198.332
15.958 152.476
16.003 92.4681
16.0481 66.6724
16.0931 63.7197
16.1382 61.8986
16.1833 59.9907
16.2283 58.4469
16.2734 57.7053
16.3185 58.1739
16.3636 58.803
16.4086 57.0991
16.4537 55.7056
16.4988 54.8652
16.5439 54.959
16.589 54.5493
16.6341 54.2826
16.6792 53.8003
16.7243 54.2505
16.7694 54.3019
16.8145 54.5096
16.8596 54.4864
16.9047 56.1948
16.9498 56.2505
16.9949 54.8023
17.04 55.2331
17.0851 56.1364
17.1302 57.5687
17.1754 60.7554
17.2205 66.2457
17.2656 74.6401
17.3108 83.3429
17.3559 81.265
17.401 68.595
17.4462 60.4595
17.4913 58.4627
17.5365 58.5759
17.5815 58.4075
17.6268 58.7621
17.6718 59.7963
17.7171 60.1547
17.7622 60.5753
17.8074 61.1404
17.8525 62.8841
17.8977 66.8667
17.9428 72.4533
17.9881 80.8631
18.0331 98.7607
18.0784 123.735
18.1237 142.14
18.1688 128.642
18.214 99.9534
18.2591 83.8929
18.3044 89.8762
18.3495 101.483
18.3948 106.769
18.4399 94.2135
18.4852 75.2722
18.5303 64.687
18.5756 61.3343
18.6207 60.6152
18.666 59.7632
18.7112 58.8753
18.7565 58.168
18.8016 58.0117
18.8469 57.2626
18.892 57.0559
18.9374 56.5087
18.9825 56.3882
19.0278 56.166
19.073 56.2553
19.1183 56.6329
19.1635 57.3935
19.2088 58.6776
19.254 61.2997
19.2993 66.0264
19.3447 73.1634
19.3898 76.5497
19.4352 71.1852
19.4804 61.9563
19.5257 56.0058
19.5709 53.4846
19.6163 53.3251
19.6615 53.0719
19.7068 52.792
19.752 52.6789
19.7974 52.8658
19.8426 53.7539
19.888 54.294
19.9332 55.5453
19.9786 58.0486
20.0238 62.0335
20.0692 67.2972
20.1144 69.7433
20.1598 67.1427
20.205 62.2798
20.2504 61.2181
20.2957 64.094
20.3411 65.8707
20.3863 63.522
20.4318 57.1586
20.477 52.6951
20.5224 50.8802
20.5677 50.4656
20.6131 49.8231
20.6586 49.1846
20.7038 49.0135
20.7493 48.5448
20.7945 48.4893
20.84 48.2604
20.8853 48.256
20.9307 47.9998
20.976 48.2332
21.0215 48.044
21.0668 48.4751
21.1122 48.928
21.1575 49.4555
21.203 50.4024
21.2483 51.2042
21.2938 51.0223
21.3391 49.39
21.3846 48.2855
21.4299 47.8095
21.4754 47.8567
21.5207 48.0201
21.5662 48.0975
21.6116 48.6009
21.6571 49.1483
21.7024 50.0717
21.7479 51.8088
21.7933 54.8502
21.8388 58.7509
21.8843 62.9373
21.9297 64.3903
21.9752 62.0849
22.0206 58.2913
22.0661 55.8328
22.1115 55.7466
22.157 55.5174
22.2024 53.4603
22.248 50.6354
22.2933 49.1288
22.3389 48.5775
22.3843 48.4305
22.4299 48.4125
22.4753 48.4001
22.5208 48.0916
22.5662 47.9021
22.6118 48.0907
22.6572 48.1665
22.7028 48.7768
22.7483 48.9973
22.7939 49.7283
22.8393 51.3484
22.8849 53.5383
22.9303 56.1151
22.9759 57.822
23.0214 56.639
23.067 53.9469
23.1126 50.3395
23.1581 48.4971
23.2037 48.2832
23.2492 48.3719
23.2948 48.0701
23.3403 48.5958
23.3859 49.0345
23.4314 50.0848
23.477 52.0142
23.5225 54.4622
23.5682 56.8284
23.6137 57.6573
23.6593 54.8517
23.7048 50.6702
23.7505 47.5435
23.796 46.0202
23.8417 45.507
23.8872 45.0984
23.9329 44.7616
23.9784 44.3287
24.0241 44.0373
24.0697 44.0166
24.1154 43.6927
24.1609 43.5263
24.2066 43.3732
24.2522 43.3178
24.2979 43.0068
24.3434 42.969
24.3892 42.6813
24.4349 42.6989
24.4805 42.5534
24.5262 42.6692
24.5718 42.5305
24.6175 42.6446
24.6631 42.4284
24.7089 42.004
24.7545 41.8844
24.8002 41.908
24.8458 41.771
24.8916 41.4868
24.9372 41.7549
24.983 41.9702
25.0286 42.4522
25.0744 42.9448
25.12 43.4496
25.1658 43.9658
25.2114 44.2744
25.2572 44.2642
25.3029 44.472
25.3487 44.8204
25.3943 44.1671
25.4402 43.0604
25.4858 41.8898
25.5316 40.9314
25.5773 40.4237
25.6231 40.4302
25.669 40.0898
25.7147 40.0515
25.7605 39.9977
25.8062 40.0745
25.8521 40.3265
25.8977 40.1925
25.9436 40.4519
25.9893 40.6733
26.0352 41.0972
26.0809 41.3698
26.1268 41.3521
26.1725 40.8445
26.2184 40.2435
26.2641 39.8526
26.31 39.6162
26.3557 39.6935
26.4017 39.8225
26.4474 39.8975
26.4933 40.2924
26.5391 40.8798
26.585 41.3889
26.6308 41.8752
26.6767 41.7824
26.7225 41.4842
26.7684 41.0133
26.8142 40.5081
26.8601 40.0381
26.9059 39.7688
26.9519 38.9925
26.9979 38.7511
27.0437 38.6269
27.0896 38.4215
27.1354 38.3721
27.1814 38.3557
27.2272 38.1349
27.2732 38.2654
27.3191 37.9146
27.3651 38.1581
27.4109 38.0748
27.4569 38.1586
27.5027 38.2567
27.5488 38.2537
27.5946 38.0539
27.6407 37.7692
27.6865 37.5843
27.7326 37.4458
27.7784 37.4669
27.8245 37.4263
27.8703 37.6666
27.9164 37.8647
27.9623 38.1012
28.0084 38.3496
28.0543 38.8163
28.1003 38.699
28.1462 38.3538
28.1923 38.0916
28.2384 37.5708
28.2843 37.3058
28.3304 36.6962
28.3764 36.3284
28.4225 36.1562
28.4684 35.8883
28.5145 35.4348
28.5605 35.527
28.6066 35.1644
28.6526 35.3336
28.6987 35.4171
28.7447 35.2925
28.7908 35.0413
28.8368 35.1184
28.8829 35.1085
28.9289 34.9959
28.9751 34.7283
29.0211 34.5847
29.0673 34.3583
29.1133 34.2158
29.1595 34.0328
29.2055 34.0322
29.2517 33.9568
29.2977 33.9848
29.3439 33.8555
29.3899 33.9417
29.4361 33.7662
29.4824 33.6586
29.5284 33.3759
29.5746 33.0152
29.6207 32.8628
29.6669 32.6988
29.713 32.6053
29.7593 32.5467
29.8053 32.5863
29.8516 32.4274
29.8977 32.5078
29.9439 32.256
29.99 32.2134
30.0363 32.0398
30.0824 32.2245
30.1287 32.0073
30.1748 32.1186
30.2211 32.0435
30.2673 32.0152
30.3136 32.1218
30.3597 31.9395
30.406 31.8482
30.4522 31.7463
30.4985 31.6878
30.5447 31.8129
30.591 31.7785
30.6372 31.9237
30.6835 31.8699
30.7297 31.884
30.7761 31.8407
30.8224 31.6821
30.8686 31.5528
30.915 31.3855
30.9612 31.0997
31.0076 30.9772
31.0538 30.8352
31.1002 30.8204
31.1464 30.5865
31.1928 30.643
31.2391 30.5911
31.2855 30.5053
31.3317 30.6203
31.3781 30.5691
31.4244 30.5885
31.4708 30.5838
31.5171 30.498
31.5636 30.4591
31.6098 30.2253
31.6563 29.9436
31.7026 29.9919
31.7491 29.8137
31.7953 29.8465
31.8418 29.755
31.8881 29.861
31.9346 29.889
31.9809 29.736
32.0275 29.7015
32.074 29.5719
32.1203 29.3098
32.1668 29.2729
32.2132 29.1215
32.2597 28.9643
32.306 28.901
32.3526 28.7854
32.399 28.5894
32.4455 28.5937
32.4919 28.4031
32.5385 28.3819
32.5848 28.1189
32.6314 28.259
32.6778 28.1061
32.7244 27.9742
32.7708 27.8669
32.8174 27.8795
32.8638 27.7148
32.9104 27.7803
32.9569 27.7615
33.0035 27.6773
33.0499 27.6103
33.0966 27.5537
33.143 27.5548
33.1897 27.5349
33.2361 27.3517
33.2828 27.3365
33.3293 27.0881
33.3759 27.1029
33.4226 27.0672
33.4691 26.8884
33.5158 26.6497
33.5623 26.5999
33.609 26.4211
33.6555 26.3461
33.7022 26.4217
33.7487 26.2519
33.7954 26.2461
33.842 26.1313
33.8887 26.055
33.9353 26.0184
33.982 25.927
34.0286 25.7815
34.0753 25.7471
34.1219 25.634
34.1687 25.6209
34.2152 25.5562
34.262 25.4138
34.3086 25.3595
34.3554 25.2747
34.402 25.1816
34.4488 24.9901
34.4954 25.0237
34.5422 24.8906
34.5889 24.851
34.6357 24.6637
34.6825 24.6587
34.7292 24.6451
34.776 24.4794
34.8227 24.4985
34.8695 24.3893
34.9162 24.3239
34.9631 24.1192
35.0098 24.2385
35.0566 24.1123
35.1033 24.0287
35.1502 24.0158
35.1969 23.9652
35.2438 23.9844
35.2906 23.9299
35.3375 23.8041
35.3842 23.7015
35.4311 23.7491
35.4779 23.8117
35.5248 23.6539
35.5716 23.5615
35.6185 23.4311
35.6653 23.4017
35.7123 23.2811
35.759 23.2237
35.806 23.1995
35.8528 23.0093
35.8998 22.976
35.9468 22.8199
35.9936 22.8931
36.0406 22.7805
36.0874 22.7525
36.1345 22.677
36.1813 22.6358
36.2283 22.5897
36.2752 22.4626
36.3222 22.4747
36.3691 22.3427
36.4161 22.2234
36.463 22.2408
36.5101 22.178
36.557 22.0586
36.6041 22.0175
36.651 21.9202
36.6981 21.903
36.745 21.85
36.7921 21.6732
36.839 21.6539
36.8861 21.581
36.9331 21.4708
36.9802 21.5322
37.0272 21.3836
37.0743 21.2769
37.1213 21.224
37.1684 21.1963
37.2154 21.066
37.2626 21.0975
37.3098 20.9792
37.3568 20.9272
37.404 20.8997
37.451 20.7882
37.4982 20.7102
37.5452 20.6344
37.5924 20.5652
37.6395 20.6078
37.6867 20.3971
37.7337 20.4413
37.781 20.3409
37.8281 20.338
37.8753 20.1756
37.9224 20.1264
37.9697 20.1113
38.0168 20.0528
38.064 20.0127
38.1111 19.9015
38.1584 19.813
38.2056 19.8133
38.2529 19.7597
38.3 19.6395
38.3473 19.6628
38.3945 19.4872
38.4418 19.5219
38.489 19.42
38.5363 19.3229
38.5837 19.2416
38.6309 19.2405
38.6782 19.1648
38.7254 19.0953
38.7728 19.0106
38.82 18.9533
38.8674 18.9225
38.9146 18.8891
38.9621 18.7748
39.0093 18.7155
39.0567 18.643
39.104 18.6667
39.1514 18.5374
39.1987 18.4859
39.2461 18.479
39.2934 18.4203
39.3409 18.3114
39.3882 18.2216
39.4356 18.2627
39.483 18.1713
39.5304 18.0732
39.5778 18.1398
39.6253 17.9874
39.6726 17.9235
39.7201 17.8861
39.7675 17.7939
39.815 17.7576
39.8624 17.6524
39.9099 17.6785
39.9575 17.5578
40.0049 17.52
40.0525 17.5026
40.0999 17.4402
40.1474 17.4069
40.1949 17.2805
40.2425 17.2518
40.2899 17.2078
40.3375 17.1621
40.385 17.0661
40.4326 17.0359
40.48 16.9735
40.5277 17.0309
40.5752 16.8716
40.6228 16.7971
40.6703 16.76
40.718 16.7451
40.7655 16.7087
40.8132 16.5835
40.8607 16.6961
40.9084 16.4862
40.9559 16.4916
41.0036 16.3884
41.0512 16.3492
41.0989 16.3567
41.1465 16.2673
41.1942 16.241
41.242 16.1362
41.2896 16.057
41.3373 16.0152
41.3849 16.0134
41.4327 15.9446
41.4803 15.8418
41.5281 15.7946
41.5758 15.7762
41.6236 15.702
41.6712 15.6717
41.7191 15.5736
41.7667 15.5572
41.8146 15.5042
41.8622 15.3945
41.9101 15.3969
41.9578 15.2993
42.0057 15.3195
42.0534 15.2623
42.1013 15.2364
42.149 15.126
42.1969 15.105
42.2446 15.0269
42.2925 14.9987
42.3403 15.0151
42.3882 14.8421
42.436 14.8893
42.4839 14.7438
42.5319 14.7762
42.5797 14.6821
42.6277 14.6152
42.6755 14.64
42.7235 14.5059
42.7713 14.4878
42.8193 14.4029
42.8671 14.3632
42.9152 14.3544
42.963 14.3042
43.0111 14.2167
43.0589 14.2266
43.107 14.1432
43.1549 14.113
43.2029 14.062
43.2508 14.0126
43.2989 13.9282
43.3468 13.8463
43.3949 13.8675
43.4429 13.8185
43.491 13.7148
43.5389 13.6961
43.5871 13.6773
43.635 13.6378
43.6832 13.5799
43.7312 13.536
43.7793 13.4466
43.8273 13.425
43.8755 13.4052
43.9237 13.306
43.9717 13.3054
44.0199 13.2781
44.068 13.213
44.1162 13.1633
44.1642 13.1593
44.2125 13.0677
44.2606 13.0275
44.3088 12.9748
44.3569 12.9222
44.4052 12.8997
44.4533 12.8531
44.5016 12.7731
44.5497 12.6957
44.598 12.7277
44.6461 12.7005
44.6945 12.6111
44.7426 12.5785
44.791 12.522
44.8391 12.4989
44.8875 12.4477
44.9357 12.4005
44.984 12.3663
45.0322 12.3027
45.0806 12.2199
45.1288 12.2476
45.1773 12.1738
45.2257 12.1523
45.2739 12.0832
45.3224 12.051
45.3706 12.0058
45.4191 11.9927
45.4673 11.9604
45.5158 11.8909
45.5641 11.846
45.6126 11.7924
45.6609 11.7622
45.7094 11.6861
45.7577 11.6892
45.8063 11.5973
45.8546 11.6065
45.9031 11.5825
45.9515 11.4907
46.0001 11.4548
46.0484 11.4421
46.097 11.3916
46.1454 11.342
46.194 11.3043
46.2424 11.23
46.291 11.2002
46.3395 11.1969
46.3881 11.115
46.4365 11.0956
46.4852 11.0333
46.5337 11.028
46.5823 11.0089
46.631 10.9662
46.6795 10.9104
46.7282 10.8543
46.7767 10.7943
46.8254 10.7586
46.8739 10.7846
46.9226 10.6905
46.9712 10.6127
47.0199 10.6294
47.0685 10.5504
47.1173 10.554
47.1658 10.5022
47.2146 10.5096
47.2632 10.419
47.312 10.3829
47.3606 10.3711
47.4095 10.2802
47.4581 10.3002
47.5069 10.2439
47.5556 10.1791
47.6044 10.137
47.6531 10.1068
47.702 10.0521
47.7507 10.0427
47.7996 10.0152
47.8483 9.98654
47.8972 9.95334
47.9461 9.87908
47.9948 9.85265
48.0438 9.86624
48.0925 9.77793
48.1415 9.75132
48.1902 9.69037
48.2392 9.68781
48.288 9.68339
48.337 9.62472
48.3858 9.58249
48.4348 9.58979
48.4837 9.55519
48.5327 9.50973
48.5815 9.44227
48.6306 9.41728
48.6795 9.37059
48.7285 9.35597
48.7774 9.34881
48.8265 9.30206
48.8754 9.25187
48.9245 9.18899
48.9734 9.16867
49.0226 9.15153
49.0715 9.10967
49.1206 9.02528
49.1696 9.01248
49.2188 8.98008
49.2679 8.97722
49.3169 8.94445
49.3661 8.85813
49.4151 8.83663
49.4643 8.88171
49.5134 8.78987
49.5626 8.72023
49.6117 8.72485
49.6609 8.71551
49.71 8.64519
49.7592 8.62878
49.8083 8.55929
49.8576 8.55137
49.9067 8.5168
49.956 8.51017
50.0052 8.4795
50.0545 8.43716
50.1036 8.35804
50.153 8.36301
50.2022 8.32594
50.2515 8.2918
50.3007 8.26179
50.3501 8.25919
50.3993 8.21976
50.4487 8.19628
50.498 8.13098
50.5474 8.13693
50.5966 8.07593
50.6461 8.06713
50.6955 8.00924
50.7448 7.97255
50.7943 7.94023
50.8436 7.9423
50.8931 7.87918
50.9424 7.87143
50.9919 7.8496
51.0413 7.8189
51.0908 7.7756
51.1402 7.7416
51.1897 7.70296
51.2391 7.66496
51.2887 7.60972
51.3381 7.62229
51.3877 7.58519
51.4371 7.53614
51.4867 7.51108
51.5362 7.48235
51.5858 7.46069
51.6353 7.39646
51.6849 7.37935
51.7344 7.37677
51.7841 7.35274
51.8336 7.3034
51.8833 7.28726
51.9328 7.24978
51.9826 7.20469
52.0323 7.17784
52.0818 7.13532
52.1316 7.10199
52.1812 7.09398
52.231 7.09288
52.2806 7.03541
52.3304 7.04642
52.38 6.98134
52.4298 6.93806
52.4794 6.91669
52.5293 6.91789
52.5789 6.87741
52.6288 6.85999
52.6785 6.7913
52.7284 6.79471
52.7781 6.80532
52.828 6.70566
52.8777 6.69287
52.9276 6.6242
52.9774 6.64336
53.0273 6.60229
53.0771 6.58213
53.1271 6.58788
53.1769 6.54969
53.2269 6.54682
53.2767 6.49803
53.3267 6.44437
53.3765 6.44071
53.4266 6.45216
53.4766 6.3648
53.5265 6.32369
53.5765 6.35055
53.6264 6.28398
53.6765 6.30536
53.7264 6.22371
53.7765 6.25841
53.8265 6.16515
53.8766 6.12449
53.9266 6.12466
53.9767 6.09791
54.0267 6.08288
54.0769 6.04556
54.1269 6.02132
54.1771 5.97707
54.2271 5.95974
54.2773 5.88031
54.3274 5.91648
54.3776 5.83547
54.4277 5.83241
54.478 5.80009
54.528 5.78473
54.5783 5.73193
54.6285 5.68477
54.6788 5.6734
54.7289 5.56631
54.7792 5.57837
54.8296 5.53206
54.8798 5.47256
54.9301 5.432
54.9803 5.4134
55.0307 5.42657
55.0809 5.32677
55.1314 5.31381
55.1816 5.28167
55.232 5.216
55.2823 5.14156
55.3328 5.12245
55.383 5.08734
55.4335 5.03568
55.4838 4.97539
55.5344 4.91391
55.5847 4.92
55.6352 4.86652
55.6856 4.79791
55.7361 4.78448