File: XRD/Ni3Fe_FD0179.xy
TT I
1.27165 8.05462
1.31627 6.6268
1.36089 7.24228
1.40551 6.53434
1.45013 6.90321
1.49476 7.29183
1.53938 6.33107
1.584 5.60706
1.62863 5.58378
1.67325 5.30739
1.71787 6.0785
1.7625 5.38212
1.80712 4.74931
1.85174 4.95284
1.89636 5.01704
1.94099 4.77588
1.98562 5.03242
2.03025 4.54293
2.07487 4.23272
2.11949 4.73282
2.16411 4.92089
2.20874 4.61292
2.25338 5.11764
2.298 4.48755
2.34263 3.8318
2.38725 4.78155
2.43188 4.0691
2.4765 4.60858
2.52115 4.19529
2.56577 5.10983
2.6104 5.79046
2.65503 5.4356
2.69965 6.05984
2.7443 6.16465
2.78893 6.9995
2.83356 7.34378
2.87818 7.77441
2.92281 8.73327
2.96744 9.06346
3.01209 10.1291
3.05672 11.2776
3.10135 12.1681
3.14599 13.0105
3.19062 13.6827
3.23527 15.2117
3.2799 15.5205
3.32454 16.9125
3.36917 17.807
3.4138 18.9079
3.45844 19.1859
3.50309 20.5688
3.54773 21.0453
3.59237 22.075
3.637 22.3359
3.68164 23.2929
3.7263 24.3649
3.77094 24.9211
3.81558 25.588
3.86022 26.5638
3.90486 28.1882
3.9495 28.5416
3.99416 29.4229
4.0388 30.8772
4.08344 31.9581
4.12809 33.0459
4.17273 34.2694
4.21738 35.9337
4.26204 36.9358
4.30669 37.9711
4.35133 40.308
4.39598 41.5384
4.44063 43.6426
4.4853 45.4422
4.52995 47.2622
4.5746 49.5572
4.61925 51.5755
4.6639 54.4713
4.70855 56.5388
4.75322 59.6871
4.79788 63.1344
4.84253 66.6621
4.88719 70.8467
4.93184 75.7317
4.97652 82.8512
5.02118 91.1314
5.06583 100.811
5.11049 116.828
5.15515 152.55
5.19981 523.502
5.24449 3752.86
5.28916 8612.95
5.33382 6145.7
5.37848 406.203
5.42315 159.908
5.46783 126.188
5.5125 113.906
5.55716 107.607
5.60183 102.08
5.6465 98.9301
5.69117 97.6866
5.73586 95.5667
5.78053 95.5135
5.8252 95.6598
5.86988 98.4017
5.91455 104.842
5.95924 122.858
6.00392 279.796
6.0486 1373.22
6.09328 2877.34
6.13795 4036.69
6.18263 631.039
6.22733 119.089
6.27201 88.2367
6.3167 78.4224
6.36138 72.9298
6.40606 68.8169
6.45075 66.8104
6.49545 64.6635
6.54014 62.5881
6.58483 61.563
6.62952 60.1329
6.67421 58.7602
6.71892 57.756
6.76361 57.0872
6.8083 56.2442
6.853 55.1186
6.89769 54.8547
6.94239 54.5017
6.98711 53.886
7.03181 53.7054
7.07651 53.1274
7.12121 52.8695
7.16591 52.8741
7.21063 52.5893
7.25533 52.4734
7.30004 52.5376
7.34475 52.3365
7.38945 52.8228
7.43416 52.3951
7.47889 52.2584
7.5236 55.5989
7.56831 61.9449
7.61303 55.0572
7.65774 53.7916
7.70247 54.4661
7.74719 54.4434
7.79191 55.3046
7.83663 55.8003
7.88135 56.668
7.92607 57.5056
7.97081 58.6871
8.01553 59.8972
8.06026 61.036
8.10498 62.4295
8.14971 64.2425
8.19446 66.1016
8.23919 68.1709
8.28392 71.3316
8.32865 73.7777
8.37339 78.7934
8.41812 84.2956
8.46288 95.3915
8.50761 171.389
8.55235 589.444
8.59709 922.322
8.64183 1585.18
8.68658 1641.95
8.73134 396.192
8.77609 115.658
8.82083 97.1139
8.86558 91.6406
8.91033 88.188
8.9551 85.9759
8.99985 84.5977
9.04461 83.6281
9.08936 82.712
9.13412 81.7611
9.17888 81.9016
9.22365 86.3702
9.26841 94.4524
9.31318 85.9894
9.35794 82.4762
9.4027 82.8714
9.44749 83.3667
9.49226 84.0951
9.53703 85.1017
9.5818 86.4374
9.62657 87.5679
9.67134 89.1665
9.71614 91.2785
9.76091 93.2623
9.80569 96.2293
9.85047 99.4986
9.89525 104.48
9.94005 114.392
9.98484 184.407
10.0296 535.717
10.0744 754.554
10.1192 1093.8
10.164 1708.36
10.2088 936.781
10.2536 205.974
10.2984 116.26
10.3432 108.453
10.388 104.816
10.4328 121.678
10.4776 212.681
10.5224 266.683
10.5672 347.02
10.612 506.547
10.6568 361.181
10.7017 131.486
10.7465 90.7738
10.7913 84.0688
10.8361 81.2681
10.8809 78.4429
10.9257 76.3601
10.9706 74.8909
11.0154 73.2782
11.0602 71.9793
11.105 70.7554
11.1499 69.2756
11.1947 68.0074
11.2395 67.2312
11.2844 66.438
11.3292 66.2028
11.374 65.2033
11.4189 64.6924
11.4637 64.0985
11.5086 63.1432
11.5534 62.6272
11.5983 62.6259
11.6431 62.6167
11.688 62.0512
11.7328 61.8363
11.7777 61.4646
11.8225 61.4641
11.8674 61.567
11.9122 62.6442
11.9571 65.8168
12.002 65.3326
12.0468 67.9178
12.0917 90.4372
12.1366 107.98
12.1814 121.475
12.2263 157.112
12.2712 195.218
12.3161 133.873
12.3609 73.3614
12.4058 64.2901
12.4507 63.7678
12.4956 63.3006
12.5405 63.5555
12.5853 63.9141
12.6302 64.3269
12.6751 64.9001
12.72 65.8491
12.7649 66.7846
12.8098 67.8019
12.8547 68.7901
12.8996 70.3568
12.9445 71.7302
12.9894 74.0556
13.0343 75.69
13.0792 79.7001
13.1242 86.7423
13.1691 132.394
13.214 185.308
13.2589 210.205
13.3038 257.661
13.3487 365.518
13.3937 376.417
13.4386 200.619
13.4835 117.881
13.5285 153.451
13.5734 182.055
13.6183 199.618
13.6633 250.217
13.7082 340.523
13.7531 301.053
13.7981 148.39
13.843 87.8027
13.888 81.0373
13.9329 77.8896
13.9779 76.5869
14.0228 74.8976
14.0678 73.5152
14.1127 73.289
14.1577 74.3865
14.2027 72.8811
14.2476 70.8185
14.2926 70.0477
14.3376 69.5342
14.3825 69.1682
14.4275 68.5915
14.4725 68.5172
14.5175 68.8105
14.5624 68.7347
14.6074 69.1022
14.6524 69.4964
14.6974 70.3272
14.7424 71.8293
14.7874 80.9491
14.8324 106.571
14.8774 121.742
14.9224 130.895
14.9674 155.129
15.0124 199.152
15.0574 205.029
15.1024 133.341
15.1474 81.2671
15.1924 71.4371
15.2374 69.5503
15.2824 68.4754
15.3274 67.4229
15.3725 66.8771
15.4175 66.7885
15.4625 66.0448
15.5076 66.0245
15.5526 66.0025
15.5976 66.3114
15.6426 66.8429
15.6877 74.2387
15.7327 94.737
15.7778 107.491
15.8228 113.619
15.8679 129.343
15.9129 161.164
15.958 187.191
16.003 148.289
16.0481 86.8336
16.0931 66.2385
16.1382 62.2046
16.1833 60.7716
16.2283 59.128
16.2734 58.3922
16.3185 57.8079
16.3636 57.1949
16.4086 56.4579
16.4537 56.1791
16.4988 55.2805
16.5439 55.5428
16.589 55.0724
16.6341 54.8892
16.6792 54.264
16.7243 54.8056
16.7694 54.493
16.8145 54.4613
16.8596 54.6726
16.9047 55.0168
16.9498 55.4331
16.9949 55.2552
17.04 55.7501
17.0851 57.2907
17.1302 61.4031
17.1754 64.6728
17.2205 66.0091
17.2656 68.2786
17.3108 74.0355
17.3559 81.1529
17.401 81.4668
17.4462 71.0815
17.4913 61.765
17.5365 59.6782
17.5815 59.4157
17.6268 59.9101
17.6718 60.2326
17.7171 60.7906
17.7622 61.822
17.8074 62.5896
17.8525 64.1754
17.8977 72.3411
17.9428 83.8624
17.9881 88.9619
18.0331 92.6944
18.0784 101.222
18.1237 118.615
18.1688 143.101
18.214 140.578
18.2591 109.493
18.3044 89.4061
18.3495 88.6603
18.3948 97.4031
18.4399 104.832
18.4852 94.5155
18.5303 75.5246
18.5756 65.1036
18.6207 62.7309
18.666 61.5032
18.7112 60.2794
18.7565 59.8153
18.8016 59.272
18.8469 58.6876
18.892 58.2455
18.9374 57.7624
18.9825 57.51
19.0278 57.0607
19.073 57.2951
19.1183 57.8593
19.1635 59.878
19.2088 62.1386
19.254 62.8641
19.2993 64.0708
19.3447 66.3186
19.3898 70.4628
19.4352 74.5531
19.4804 72.6236
19.5257 63.4755
19.5709 56.5115
19.6163 54.7012
19.6615 54.0754
19.7068 53.8353
19.752 53.7688
19.7974 53.8227
19.8426 55.1527
19.888 57.0743
19.9332 58.6216
19.9786 59.1052
20.0238 60.1237
20.0692 62.8994
20.1144 68.0881
20.1598 73.2261
20.205 71.4383
20.2504 65.7335
20.2957 62.0129
20.3411 62.7357
20.3863 65.7094
20.4318 64.6061
20.477 58.9826
20.5224 53.6433
20.5677 51.3586
20.6131 50.9589
20.6586 50.1211
20.7038 49.9432
20.7493 49.7658
20.7945 49.7362
20.84 49.2845
20.8853 49.3204
20.9307 49.0899
20.976 49.3602
21.0215 49.6965
21.0668 49.9758
21.1122 49.9415
21.1575 50.1698
21.203 50.2213
21.2483 50.9232
21.2938 51.9879
21.3391 51.7883
21.3846 50.7892
21.4299 49.6091
21.4754 49.0663
21.5207 49.0595
21.5662 49.3698
21.6116 49.7205
21.6571 51.6936
21.7024 53.7231
21.7479 54.5469
21.7933 55.1801
21.8388 56.7138
21.8843 59.5072
21.9297 63.185
21.9752 66.7819
22.0206 65.9871
22.0661 60.8275
22.1115 56.7881
22.157 56.2457
22.2024 56.7988
22.248 55.3537
22.2933 52.6223
22.3389 50.3931
22.3843 49.5291
22.4299 49.5996
22.4753 49.2823
22.5208 49.3901
22.5662 49.1596
22.6118 49.3614
22.6572 49.6463
22.7028 50.7531
22.7483 51.923
22.7939 52.4066
22.8393 52.551
22.8849 53.3698
22.9303 54.2909
22.9759 55.8533
23.0214 57.9375
23.067 59.0009
23.1126 56.2119
23.1581 52.5011
23.2037 50.2348
23.2492 49.631
23.2948 50.0197
23.3403 51.3893
23.3859 52.1077
23.4314 52.2049
23.477 52.5446
23.5225 53.1605
23.5682 54.5074
23.6137 56.7668
23.6593 58.5405
23.7048 57.3413
23.7505 53.2244
23.796 49.321
23.8417 47.2993
23.8872 46.4556
23.9329 46.1388
23.9784 45.7963
24.0241 45.4475
24.0697 45.1141
24.1154 44.7893
24.1609 44.4827
24.2066 44.3225
24.2522 44.3146
24.2979 44.1672
24.3434 43.9311
24.3892 43.737
24.4349 43.8072
24.4805 43.5277
24.5262 43.4863
24.5718 43.2824
24.6175 43.3776
24.6631 43.5807
24.7089 43.3558
24.7545 43.2157
24.8002 42.8785
24.8458 42.9247
24.8916 42.7839
24.9372 43.066
24.983 43.2813
25.0286 43.4705
25.0744 43.8754
25.12 44.3308
25.1658 44.8519
25.2114 45.1707
25.2572 45.6497
25.3029 45.3488
25.3487 45.2416
25.3943 45.3448
25.4402 45.3624
25.4858 44.8185
25.5316 43.5288
25.5773 42.0139
25.6231 41.5968
25.669 41.1616
25.7147 41.1426
25.7605 41.0493
25.8062 41.32
25.8521 41.5794
25.8977 41.3111
25.9436 41.4803
25.9893 41.2524
26.0352 41.7274
26.0809 41.6784
26.1268 42.0423
26.1725 42.4458
26.2184 42.3066
26.2641 41.7507
26.31 41.2931
26.3557 41.2962
26.4017 41.1699
26.4474 41.2195
26.4933 41.4328
26.5391 41.5974
26.585 41.8165
26.6308 42.1267
26.6767 42.5331
26.7225 43.2286
26.7684 43.0014
26.8142 42.2524
26.8601 41.6442
26.9059 41.1701
26.9519 40.8579
26.9979 40.4355
27.0437 39.8857
27.0896 39.5524
27.1354 39.4845
27.1814 39.3078
27.2272 39.2684
27.2732 39.2956
27.3191 39.1363
27.3651 39.1231
27.4109 38.9707
27.4569 39.0937
27.5027 38.975
27.5488 39.2495
27.5946 39.1241
27.6407 39.1046
27.6865 39.0336
27.7326 38.8857
27.7784 38.9319
27.8245 38.6819
27.8703 38.6954
27.9164 38.8973
27.9623 38.9417
28.0084 39.0294
28.0543 39.4618
28.1003 39.5738
28.1462 39.8967
28.1923 39.6134
28.2384 39.2257
28.2843 38.6263
28.3304 38.4163
28.3764 38.0259
28.4225 37.497
28.4684 37.1024
28.5145 36.6974
28.5605 36.6739
28.6066 36.2866
28.6526 36.3049
28.6987 36.2857
28.7447 36.0423
28.7908 35.9124
28.8368 35.8931
28.8829 35.7511
28.9289 35.7648
28.9751 35.7889
29.0211 35.7543
29.0673 35.5457
29.1133 35.3333
29.1595 35.1044
29.2055 34.8675
29.2517 34.8421
29.2977 34.8325
29.3439 34.6257
29.3899 34.6402
29.4361 34.6298
29.4824 34.6807
29.5284 34.4982
29.5746 34.2643
29.6207 33.8848
29.6669 33.6135
29.713 33.5218
29.7593 33.4698
29.8053 33.4096
29.8516 33.2992
29.8977 33.2019
29.9439 33.0752
29.99 33.1051
30.0363 32.9587
30.0824 32.9822
30.1287 32.8247
30.1748 32.8214
30.2211 32.9231
30.2673 32.7882
30.3136 32.9631
30.3597 33.0185
30.406 32.8658
30.4522 32.8024
30.4985 32.544
30.5447 32.7433
30.591 32.5378
30.6372 32.6801
30.6835 32.5756
30.7297 32.721
30.7761 32.9032
30.8224 32.6823
30.8686 32.6179
30.915 32.4162
30.9612 32.2564
31.0076 32.0002
31.0538 31.8013
31.1002 31.8166
31.1464 31.6159
31.1928 31.6439
31.2391 31.5715
31.2855 31.4572
31.3317 31.4432
31.3781 31.4482
31.4244 31.4996
31.4708 31.3442
31.5171 31.3899
31.5636 31.3343
31.6098 31.2802
31.6563 31.1487
31.7026 30.9515
31.7491 30.8153
31.7953 30.7464
31.8418 30.6778
31.8881 30.7233
31.9346 30.5227
31.9809 30.5294
32.0275 30.4824
32.074 30.4478
32.1203 30.2965
32.1668 30.1415
32.2132 30.0781
32.2597 29.8809
32.306 29.8729
32.3526 29.5703
32.399 29.419
32.4455 29.3628
32.4919 29.2118
32.5385 29.2061
32.5848 28.8454
32.6314 29.0366
32.6778 28.9306
32.7244 28.8127
32.7708 28.6727
32.8174 28.7044
32.8638 28.5195
32.9104 28.6033
32.9569 28.5536
33.0035 28.4197
33.0499 28.353
33.0966 28.2168
33.143 28.2089
33.1897 28.1281
33.2361 28.0939
33.2828 28.09
33.3293 27.9432
33.3759 27.9676
33.4226 27.7982
33.4691 27.7699
33.5158 27.6498
33.5623 27.3137
33.609 27.3168
33.6555 27.18
33.7022 27.0863
33.7487 27.0618
33.7954 26.9583
33.842 26.889
33.8887 26.7198
33.9353 26.7071
33.982 26.6067
34.0286 26.5435
34.0753 26.455
34.1219 26.3394
34.1687 26.2624
34.2152 26.2247
34.262 26.0582
34.3086 26.0312
34.3554 26.0349
34.402 25.8435
34.4488 25.6886
34.4954 25.7155
34.5422 25.6646
34.5889 25.5526
34.6357 25.4482
34.6825 25.3763
34.7292 25.1786
34.776 25.2106
34.8227 25.1018
34.8695 25.0183
34.9162 25.0139
34.9631 24.8848
35.0098 24.8274
35.0566 24.788
35.1033 24.7929
35.1502 24.734
35.1969 24.646
35.2438 24.6107
35.2906 24.4942
35.3375 24.4069
35.3842 24.3474
35.4311 24.3834
35.4779 24.3387
35.5248 24.2763
35.5716 24.2275
35.6185 24.0945
35.6653 24.1091
35.7123 23.9312
35.759 23.9594
35.806 23.757
35.8528 23.6879
35.8998 23.6444
35.9468 23.5326
35.9936 23.5178
36.0406 23.3959
36.0874 23.4483
36.1345 23.2393
36.1813 23.2151
36.2283 23.1942
36.2752 23.048
36.3222 23.0832
36.3691 23.0013
36.4161 22.841
36.463 22.8596
36.5101 22.8402
36.557 22.7099
36.6041 22.6433
36.651 22.5968
36.6981 22.5624
36.745 22.4545
36.7921 22.4085
36.839 22.2436
36.8861 22.1676
36.9331 22.1407
36.9802 22.1241
37.0272 21.9291
37.0743 21.8985
37.1213 21.8402
37.1684 21.7667
37.2154 21.6748
37.2626 21.5288
37.3098 21.5889
37.3568 21.5206
37.404 21.5006
37.451 21.3209
37.4982 21.3509
37.5452 21.2168
37.5924 21.1062
37.6395 21.2657
37.6867 21.1311
37.7337 20.9659
37.781 20.8522
37.8281 20.7984
37.8753 20.7635
37.9224 20.6782
37.9697 20.6186
38.0168 20.5457
38.064 20.5215
38.1111 20.4099
38.1584 20.3222
38.2056 20.3408
38.2529 20.2531
38.3 20.164
38.3473 20.1802
38.3945 19.9506
38.4418 19.9954
38.489 19.9186
38.5363 19.8299
38.5837 19.7529
38.6309 19.7202
38.6782 19.6884
38.7254 19.528
38.7728 19.5009
38.82 19.4369
38.8674 19.416
38.9146 19.3633
38.9621 19.2653
39.0093 19.2859
39.0567 19.1674
39.104 19.1346
39.1514 19.0227
39.1987 19.019
39.2461 18.8487
39.2934 18.8837
39.3409 18.7829
39.3882 18.6574
39.4356 18.6917
39.483 18.5651
39.5304 18.6181
39.5778 18.5323
39.6253 18.4606
39.6726 18.4132
39.7201 18.3054
39.7675 18.2202
39.815 18.3015
39.8624 18.1739
39.9099 18.1725
39.9575 18.1104
40.0049 18.0724
40.0525 17.9122
40.0999 17.9213
40.1474 17.7755
40.1949 17.7702
40.2425 17.7108
40.2899 17.6332
40.3375 17.6243
40.385 17.4603
40.4326 17.5313
40.48 17.4156
40.5277 17.3782
40.5752 17.2944
40.6228 17.3012
40.6703 17.2474
40.718 17.1384
40.7655 17.1412
40.8132 17.0671
40.8607 17.0414
40.9084 16.9663
40.9559 16.8922
41.0036 16.8932
41.0512 16.7574
41.0989 16.81
41.1465 16.6861
41.1942 16.6177
41.242 16.5267
41.2896 16.5195
41.3373 16.4551
41.3849 16.3963
41.4327 16.3087
41.4803 16.239
41.5281 16.2275
41.5758 16.1687
41.6236 16.0907
41.6712 16.0741
41.7191 15.9697
41.7667 15.9508
41.8146 15.9131
41.8622 15.8278
41.9101 15.8485
41.9578 15.7266
42.0057 15.6823
42.0534 15.6511
42.1013 15.603
42.149 15.4859
42.1969 15.5141
42.2446 15.4474
42.2925 15.3546
42.3403 15.3006
42.3882 15.2832
42.436 15.1915
42.4839 15.1555
42.5319 15.1451
42.5797 15.0815
42.6277 15.0188
42.6755 15.0225
42.7235 14.9071
42.7713 14.8235
42.8193 14.8375
42.8671 14.7303
42.9152 14.7165
42.963 14.6569
43.0111 14.6339
43.0589 14.6112
43.107 14.5013
43.1549 14.5052
43.2029 14.4424
43.2508 14.349
43.2989 14.2991
43.3468 14.21
43.3949 14.2486
43.4429 14.1737
43.491 14.0579
43.5389 14.0396
43.5871 13.9682
43.635 13.9882
43.6832 13.919
43.7312 13.8501
43.7793 13.8378
43.8273 13.7903
43.8755 13.6912
43.9237 13.6921
43.9717 13.6715
44.0199 13.601
44.068 13.5523
44.1162 13.5597
44.1642 13.4738
44.2125 13.3448
44.2606 13.3871
44.3088 13.3049
44.3569 13.2768
44.4052 13.2233
44.4533 13.1551
44.5016 13.1041
44.5497 13.0481
44.598 13.053
44.6461 13.0684
44.6945 12.9836
44.7426 12.8988
44.791 12.8418
44.8391 12.7678
44.8875 12.8126
44.9357 12.686
44.984 12.6713
45.0322 12.6107
45.0806 12.5474
45.1288 12.5013
45.1773 12.4932
45.2257 12.4519
45.2739 12.3913
45.3224 12.3167
45.3706 12.3407
45.4191 12.2486
45.4673 12.2621
45.5158 12.1717
45.5641 12.138
45.6126 12.1184
45.6609 12.0559
45.7094 11.9847
45.7577 11.9458
45.8063 11.9018
45.8546 11.8889
45.9031 11.803
45.9515 11.7968
46.0001 11.7371
46.0484 11.7079
46.097 11.6982
46.1454 11.6668
46.194 11.6211
46.2424 11.5295
46.291 11.4868
46.3395 11.4231
46.3881 11.4297
46.4365 11.384
46.4852 11.3179
46.5337 11.2617
46.5823 11.2319
46.631 11.178
46.6795 11.1564
46.7282 11.115
46.7767 11.0876
46.8254 11.0425
46.8739 11.0009
46.9226 10.9636
46.9712 10.9297
47.0199 10.8651
47.0685 10.8508
47.1173 10.7686
47.1658 10.7462
47.2146 10.7507
47.2632 10.6878
47.312 10.6386
47.3606 10.5733
47.4095 10.5855
47.4581 10.5514
47.5069 10.4668
47.5556 10.4311
47.6044 10.3734
47.6531 10.3574
47.702 10.3049
47.7507 10.2786
47.7996 10.2323
47.8483 10.2258
47.8972 10.212
47.9461 10.1426
47.9948 10.0855
48.0438 10.0804
48.0925 10.0264
48.1415 9.96405
48.1902 9.96645
48.2392 9.98573
48.288 9.9266
48.337 9.86643
48.3858 9.82299
48.4348 9.77969
48.4837 9.75371
48.5327 9.73606
48.5815 9.72761
48.6306 9.65785
48.6795 9.6243
48.7285 9.54825
48.7774 9.51841
48.8265 9.51662
48.8754 9.47163
48.9245 9.48444
48.9734 9.40311
49.0226 9.3882
49.0715 9.32829
49.1206 9.30128
49.1696 9.26495
49.2188 9.21964
49.2679 9.18618
49.3169 9.16358
49.3661 9.13929
49.4151 9.08425
49.4643 9.07771
49.5134 9.03209
49.5626 8.96452
49.6117 8.94773
49.6609 8.87631
49.71 8.84992
49.7592 8.86707
49.8083 8.79152
49.8576 8.81666
49.9067 8.72832
49.956 8.70983
50.0052 8.69421
50.0545 8.64437
50.1036 8.59747
50.153 8.58279
50.2022 8.5522
50.2515 8.48733
50.3007 8.50444
50.3501 8.44145
50.3993 8.43379
50.4487 8.38361
50.498 8.35265
50.5474 8.31351
50.5966 8.26018
50.6461 8.24108
50.6955 8.2406
50.7448 8.17593
50.7943 8.17883
50.8436 8.13595
50.8931 8.11547
50.9424 8.07006
50.9919 8.04016
51.0413 8.0345
51.0908 7.96331
51.1402 7.95705
51.1897 7.91183
51.2391 7.85155
51.2887 7.81177
51.3381 7.80437
51.3877 7.83242
51.4371 7.75181
51.4867 7.69791
51.5362 7.68089
51.5858 7.65473
51.6353 7.58567
51.6849 7.5759
51.7344 7.54722
51.7841 7.56061
51.8336 7.50885
51.8833 7.46825
51.9328 7.40384
51.9826 7.36067
52.0323 7.40061
52.0818 7.32755
52.1316 7.25549
52.1812 7.29493
52.231 7.2645
52.2806 7.22717
52.3304 7.18684
52.38 7.18078
52.4298 7.13979
52.4794 7.1099
52.5293 7.05888
52.5789 7.05842
52.6288 7.01524
52.6785 6.99173
52.7284 6.92785
52.7781 6.93566
52.828 6.91294
52.8777 6.87106
52.9276 6.8451
52.9774 6.78147
53.0273 6.82749
53.0771 6.77315
53.1271 6.75291
53.1769 6.70773
53.2269 6.7163
53.2767 6.62698
53.3267 6.59892
53.3765 6.62751
53.4266 6.57415
53.4766 6.52173
53.5265 6.47314
53.5765 6.48209
53.6264 6.47172
53.6765 6.3947
53.7264 6.39456
53.7765 6.38792
53.8265 6.28369
53.8766 6.2924
53.9266 6.25724
53.9767 6.25909
54.0267 6.23057
54.0769 6.18821
54.1269 6.11924
54.1771 6.11966
54.2271 6.10493
54.2773 6.02005
54.3274 5.99296
54.3776 5.99922
54.4277 5.93338
54.478 5.88855
54.528 5.87768
54.5783 5.77654
54.6285 5.75591
54.6788 5.73543
54.7289 5.68663
54.7792 5.64335
54.8296 5.60339
54.8798 5.5146
54.9301 5.50592
54.9803 5.5018
55.0307 5.43865
55.0809 5.41289
55.1314 5.36309
55.1816 5.30108
55.232 5.22218
55.2823 5.20442
55.3328 5.12224
55.383 5.07712
55.4335 5.03304
55.4838 4.99418
55.5344 4.93389
55.5847 4.93899
55.6352 4.93137
55.6856 4.86967
55.7361 4.86014