File: XRD/Ni3Fe_FD0429.xy
TT I
1.27165 7.32272
1.31627 6.8181
1.36089 7.01196
1.40551 6.2185
1.45013 6.31957
1.49476 6.10929
1.53938 5.81664
1.584 5.71947
1.62863 5.38064
1.67325 4.84291
1.71787 4.97557
1.7625 4.76177
1.80712 4.74746
1.85174 4.5575
1.89636 5.39201
1.94099 4.73577
1.98562 5.00825
2.03025 4.65496
2.07487 4.43591
2.11949 4.925
2.16411 5.04933
2.20874 15.6683
2.25338 25.1409
2.298 6.36062
2.34263 5.48623
2.38725 5.38422
2.43188 5.92501
2.4765 6.4515
2.52115 5.98371
2.56577 6.46498
2.6104 7.77323
2.65503 7.17318
2.69965 7.48478
2.7443 7.96118
2.78893 7.64285
2.83356 8.34016
2.87818 8.72682
2.92281 8.48594
2.96744 9.17647
3.01209 10.2469
3.05672 10.9964
3.10135 12.2222
3.14599 12.9891
3.19062 14.2423
3.23527 14.6024
3.2799 15.9157
3.32454 16.7661
3.36917 17.9657
3.4138 18.9656
3.45844 20.014
3.50309 21.4319
3.54773 21.9923
3.59237 24.8032
3.637 103.736
3.68164 63.4156
3.7263 26.6943
3.77094 26.627
3.81558 27.4823
3.86022 27.8614
3.90486 29.741
3.9495 30.1461
3.99416 31.5156
4.0388 32.7307
4.08344 33.7379
4.12809 35.2156
4.17273 37.6443
4.21738 44.2039
4.26204 281.298
4.30669 238.888
4.35133 50.4461
4.39598 45.2662
4.44063 55.8623
4.4853 68.9356
4.52995 51.5721
4.5746 52.0746
4.61925 54.121
4.6639 56.4629
4.70855 58.7373
4.75322 61.6115
4.79788 64.765
4.84253 68.231
4.88719 72.7831
4.93184 76.5128
4.97652 82.3925
5.02118 89.1548
5.06583 97.5946
5.11049 110.543
5.15515 191.18
5.19981 424.997
5.24449 3050.41
5.28916 11726.4
5.33382 3224.68
5.37848 208.506
5.42315 134.098
5.46783 116.76
5.5125 108.149
5.55716 103.988
5.60183 100.116
5.6465 98.8454
5.69117 96.7126
5.73586 94.3207
5.78053 93.774
5.8252 93.7721
5.86988 94.4365
5.91455 97.4263
5.95924 107.917
6.00392 235.204
6.0486 1046.48
6.09328 4161.24
6.13795 3490.73
6.18263 279.818
6.22733 98.0733
6.27201 85.8703
6.3167 108.253
6.36138 83.4328
6.40606 70.5286
6.45075 68.7081
6.49545 66.8879
6.54014 65.3049
6.58483 64.0416
6.62952 64.4232
6.67421 100.027
6.71892 157.033
6.76361 70.8895
6.8083 59.9628
6.853 58.4767
6.89769 57.9941
6.94239 57.8087
6.98711 57.2218
7.03181 56.8776
7.07651 56.3476
7.12121 56.2065
7.16591 56.8091
7.21063 56.7189
7.25533 74.0079
7.30004 196.933
7.34475 96.9666
7.38945 58.1163
7.43416 55.841
7.47889 55.5235
7.5236 55.639
7.56831 56.563
7.61303 58.5386
7.65774 58.5749
7.70247 57.085
7.74719 57.3077
7.79191 57.8312
7.83663 58.1449
7.88135 59.0706
7.92607 59.7344
7.97081 60.743
8.01553 62.3317
8.06026 63.269
8.10498 65.0478
8.14971 75.8524
8.19446 73.7702
8.23919 70.9906
8.28392 73.2577
8.32865 75.3726
8.37339 80.1954
8.41812 87.8266
8.46288 120.544
8.50761 176.607
8.55235 413.985
8.59709 1159.33
8.64183 2147.83
8.68658 1033.58
8.73134 174.484
8.77609 102.339
8.82083 94.7256
8.86558 91.5899
8.91033 91.8604
8.9551 93.6694
8.99985 86.8666
9.04461 85.0173
9.08936 84.3586
9.13412 83.3519
9.17888 83.1268
9.22365 84.2193
9.26841 83.2646
9.31318 83.9296
9.35794 83.9526
9.4027 84.7029
9.44749 85.2795
9.49226 86.3392
9.53703 87.2103
9.5818 89.1082
9.62657 94.0569
9.67134 101.446
9.71614 95.6151
9.76091 95.8558
9.80569 98.2863
9.85047 101.518
9.89525 129.698
9.94005 143.674
9.98484 187.946
10.0296 362.826
10.0744 800.083
10.1192 1679.61
10.164 1686.86
10.2088 437.8
10.2536 132.96
10.2984 116.676
10.3432 118.84
10.388 106.994
10.4328 122.296
10.4776 166.157
10.5224 277.032
10.5672 500.409
10.612 506.897
10.6568 218.083
10.7017 98.9397
10.7465 88.4101
10.7913 84.9562
10.8361 82.1762
10.8809 80.3743
10.9257 80.274
10.9706 81.1438
11.0154 76.3777
11.0602 73.9929
11.105 73.2618
11.1499 78.3264
11.1947 86.8592
11.2395 76.6647
11.2844 72.1311
11.3292 68.7397
11.374 67.3409
11.4189 66.7391
11.4637 66.1738
11.5086 66.8643
11.5534 70.5375
11.5983 66.7986
11.6431 64.9126
11.688 64.3185
11.7328 64.1184
11.7777 64.0166
11.8225 63.986
11.8674 63.4783
11.9122 64.1629
11.9571 64.3096
12.002 64.9001
12.0468 69.7442
12.0917 81.3547
12.1366 104.741
12.1814 151.298
12.2263 206.997
12.2712 174.402
12.3161 101.205
12.3609 72.5827
12.4058 66.1708
12.4507 65.6653
12.4956 65.508
12.5405 65.8742
12.5853 66.8279
12.6302 76.0613
12.6751 81.9102
12.72 71.9487
12.7649 69.0333
12.8098 69.6755
12.8547 70.9454
12.8996 72.2839
12.9445 73.7469
12.9894 75.3335
13.0343 77.2862
13.0792 80.5152
13.1242 90.5071
13.1691 116.333
13.214 153.025
13.2589 233.798
13.3038 358.825
13.3487 428.407
13.3937 277.261
13.4386 129.533
13.4835 109.041
13.5285 124.86
13.5734 160.811
13.6183 239.999
13.6633 341.985
13.7082 352.119
13.7531 198.83
13.7981 99.8766
13.843 83.6193
13.888 80.9263
13.9329 78.2646
13.9779 77.2941
14.0228 75.7836
14.0678 74.4198
14.1127 73.9641
14.1577 73.9601
14.2027 72.672
14.2476 71.8134
14.2926 72.0268
14.3376 73.1988
14.3825 71.7374
14.4275 70.1773
14.4725 70.0219
14.5175 70.198
14.5624 70.5842
14.6074 72.9938
14.6524 73.6525
14.6974 71.8739
14.7424 73.4079
14.7874 80.7363
14.8324 91.5828
14.8774 111.807
14.9224 151.182
14.9674 204.252
15.0124 223.233
15.0574 155.973
15.1024 94.5004
15.1474 73.8793
15.1924 72.1619
15.2374 72.9454
15.2824 72.0129
15.3274 69.5345
15.3725 68.1698
15.4175 67.6961
15.4625 67.2947
15.5076 67.7406
15.5526 67.4952
15.5976 67.2758
15.6426 68.2243
15.6877 74.0878
15.7327 82.2315
15.7778 96.4752
15.8228 124.297
15.8679 166.214
15.9129 195.641
15.958 160.833
16.003 98.9444
16.0481 69.6828
16.0931 66.2638
16.1382 64.3322
16.1833 62.0812
16.2283 60.0608
16.2734 59.5333
16.3185 59.9835
16.3636 61.0211
16.4086 59.1189
16.4537 57.4537
16.4988 56.5445
16.5439 56.5777
16.589 56.142
16.6341 56.0483
16.6792 55.7291
16.7243 55.9568
16.7694 56.1138
16.8145 55.8884
16.8596 56.3711
16.9047 58.2664
16.9498 58.4111
16.9949 56.967
17.04 56.9543
17.0851 58.3217
17.1302 60.0879
17.1754 62.8976
17.2205 67.6734
17.2656 74.2185
17.3108 82.4744
17.3559 83.425
17.401 72.4485
17.4462 62.8855
17.4913 60.1
17.5365 60.3797
17.5815 60.5251
17.6268 60.7659
17.6718 61.4565
17.7171 62.1089
17.7622 62.4175
17.8074 62.803
17.8525 65.51
17.8977 69.733
17.9428 75.5038
17.9881 83.6086
18.0331 99.2033
18.0784 120.038
18.1237 140.823
18.1688 134.683
18.214 107.145
18.2591 88.0154
18.3044 90.5909
18.3495 100.071
18.3948 108.074
18.4399 99.4339
18.4852 79.6723
18.5303 67.2815
18.5756 63.6072
18.6207 62.4468
18.666 61.5738
18.7112 60.8691
18.7565 59.9742
18.8016 59.6426
18.8469 59.2578
18.892 58.751
18.9374 58.2605
18.9825 58.1966
19.0278 57.9138
19.073 58.0281
19.1183 58.5445
19.1635 59.6253
19.2088 60.9692
19.254 63.0364
19.2993 67.0605
19.3447 73.2628
19.3898 77.894
19.4352 74.3142
19.4804 64.8454
19.5257 57.7491
19.5709 55.4361
19.6163 54.926
19.6615 54.7944
19.7068 54.3673
19.752 54.3737
19.7974 54.6638
19.8426 55.6154
19.888 56.1906
19.9332 57.5
19.9786 59.5556
20.0238 62.8427
20.0692 67.8061
20.1144 70.8928
20.1598 69.8983
20.205 64.6439
20.2504 62.7324
20.2957 64.507
20.3411 66.5123
20.3863 65.5121
20.4318 59.9759
20.477 54.8662
20.5224 52.6423
20.5677 52.0664
20.6131 51.2487
20.6586 50.7729
20.7038 50.4922
20.7493 50.1638
20.7945 50.0228
20.84 49.8231
20.8853 49.7909
20.9307 49.5264
20.976 49.6991
21.0215 49.5702
21.0668 49.9583
21.1122 50.3456
21.1575 51.0494
21.203 51.8217
21.2483 52.3444
21.2938 52.5158
21.3391 51.1619
21.3846 49.9887
21.4299 49.4818
21.4754 49.3283
21.5207 49.4943
21.5662 49.7674
21.6116 50.1891
21.6571 50.7967
21.7024 51.9366
21.7479 53.5551
21.7933 56.0588
21.8388 59.4918
21.8843 63.421
21.9297 65.7949
21.9752 64.7252
22.0206 60.8265
22.0661 57.3495
22.1115 56.8396
22.157 57.0831
22.2024 55.5248
22.248 52.7602
22.2933 50.9613
22.3389 49.9268
22.3843 50.0102
22.4299 50.0832
22.4753 49.9632
22.5208 49.6338
22.5662 49.482
22.6118 49.5623
22.6572 49.7299
22.7028 50.4006
22.7483 50.6703
22.7939 51.3644
22.8393 52.6093
22.8849 54.8223
22.9303 56.7536
22.9759 58.6261
23.0214 58.4497
23.067 55.9145
23.1126 52.2776
23.1581 50.1336
23.2037 49.8196
23.2492 49.8428
23.2948 49.7847
23.3403 50.2094
23.3859 50.5836
23.4314 51.6663
23.477 53.2679
23.5225 55.3139
23.5682 57.5877
23.6137 59.1986
23.6593 57.2482
23.7048 53.0524
23.7505 49.5033
23.796 47.4694
23.8417 46.9744
23.8872 46.4492
23.9329 46.2212
23.9784 45.6976
24.0241 45.5021
24.0697 45.4095
24.1154 45.0418
24.1609 44.9524
24.2066 44.7071
24.2522 44.5371
24.2979 44.2348
24.3434 44.08
24.3892 44.0802
24.4349 43.8712
24.4805 43.9048
24.5262 44.0306
24.5718 43.7617
24.6175 43.9086
24.6631 43.8179
24.7089 43.3694
24.7545 43.2762
24.8002 43.0657
24.8458 43.106
24.8916 42.791
24.9372 43.1351
24.983 43.2995
25.0286 43.5261
25.0744 44.1377
25.12 44.4898
25.1658 45.2061
25.2114 45.4892
25.2572 45.6557
25.3029 45.6109
25.3487 45.7507
25.3943 45.5448
25.4402 44.287
25.4858 43.4105
25.5316 42.3702
25.5773 41.6668
25.6231 41.7114
25.669 41.3049
25.7147 41.295
25.7605 41.1636
25.8062 41.3497
25.8521 41.5852
25.8977 41.437
25.9436 41.6074
25.9893 41.7238
26.0352 42.2742
26.0809 42.3215
26.1268 42.4218
26.1725 42.1898
26.2184 41.6983
26.2641 41.0643
26.31 40.8367
26.3557 40.9024
26.4017 40.9075
26.4474 41.1961
26.4933 41.4029
26.5391 42.1642
26.585 42.3829
26.6308 42.854
26.6767 42.9071
26.7225 42.7869
26.7684 42.2061
26.8142 41.5214
26.8601 41.2246
26.9059 40.9044
26.9519 40.2861
26.9979 39.9645
27.0437 39.5466
27.0896 39.4856
27.1354 39.5353
27.1814 39.3636
27.2272 39.3533
27.2732 39.4129
27.3191 39.0555
27.3651 39.135
27.4109 39.2071
27.4569 39.2227
27.5027 39.2628
27.5488 39.377
27.5946 39.1344
27.6407 38.9993
27.6865 38.7866
27.7326 38.5138
27.7784 38.6777
27.8245 38.4972
27.8703 38.5915
27.9164 38.9557
27.9623 39.0972
28.0084 39.3754
28.0543 39.7431
28.1003 39.7878
28.1462 39.5647
28.1923 39.2196
28.2384 38.6202
28.2843 38.4789
28.3304 37.8055
28.3764 37.5034
28.4225 37.1312
28.4684 36.9287
28.5145 36.6591
28.5605 36.5919
28.6066 36.3615
28.6526 36.3927
28.6987 36.2871
28.7447 36.2105
28.7908 36.0027
28.8368 36.0837
28.8829 36.0349
28.9289 36.0371
28.9751 35.9334
29.0211 35.5434
29.0673 35.3096
29.1133 35.2889
29.1595 35.1561
29.2055 34.9196
29.2517 34.9467
29.2977 34.9996
29.3439 34.855
29.3899 34.8145
29.4361 34.9127
29.4824 34.5736
29.5284 34.3526
29.5746 34.004
29.6207 33.8853
29.6669 33.747
29.713 33.6348
29.7593 33.459
29.8053 33.6039
29.8516 33.4727
29.8977 33.3817
29.9439 33.1861
29.99 33.2591
30.0363 33.126
30.0824 33.1337
30.1287 32.9917
30.1748 33.0282
30.2211 32.9724
30.2673 32.8998
30.3136 32.9581
30.3597 32.9002
30.406 32.8569
30.4522 32.7981
30.4985 32.5656
30.5447 32.7304
30.591 32.6574
30.6372 32.871
30.6835 32.8401
30.7297 32.7159
30.7761 32.7109
30.8224 32.5611
30.8686 32.4839
30.915 32.385
30.9612 32.1897
31.0076 31.9011
31.0538 31.7971
31.1002 31.7759
31.1464 31.6169
31.1928 31.5887
31.2391 31.5734
31.2855 31.4316
31.3317 31.4789
31.3781 31.4693
31.4244 31.3702
31.4708 31.3613
31.5171 31.3812
31.5636 31.4063
31.6098 31.0504
31.6563 30.9983
31.7026 30.7825
31.7491 30.7051
31.7953 30.7611
31.8418 30.7207
31.8881 30.6816
31.9346 30.7355
31.9809 30.6791
32.0275 30.4784
32.074 30.4293
32.1203 30.1658
32.1668 30.0631
32.2132 30.0245
32.2597 29.7868
32.306 29.8186
32.3526 29.5606
32.399 29.4136
32.4455 29.3123
32.4919 29.2639
32.5385 29.1878
32.5848 28.9901
32.6314 29.0631
32.6778 28.9605
32.7244 28.815
32.7708 28.7044
32.8174 28.7215
32.8638 28.5938
32.9104 28.6227
32.9569 28.5925
33.0035 28.4906
33.0499 28.4078
33.0966 28.45
33.143 28.3673
33.1897 28.2512
33.2361 28.1694
33.2828 28.1293
33.3293 27.9282
33.3759 27.8534
33.4226 27.7048
33.4691 27.6161
33.5158 27.5751
33.5623 27.4789
33.609 27.2791
33.6555 27.2254
33.7022 27.0918
33.7487 27.0736
33.7954 27.0182
33.842 26.8921
33.8887 26.7207
33.9353 26.7655
33.982 26.7305
34.0286 26.5677
34.0753 26.5349
34.1219 26.4056
34.1687 26.3338
34.2152 26.2335
34.262 26.0878
34.3086 26.092
34.3554 26.0062
34.402 25.8852
34.4488 25.76
34.4954 25.7421
34.5422 25.6336
34.5889 25.5806
34.6357 25.4009
34.6825 25.3832
34.7292 25.2438
34.776 25.202
34.8227 25.158
34.8695 25.1228
34.9162 25.082
34.9631 24.9206
35.0098 24.9634
35.0566 24.8755
35.1033 24.7744
35.1502 24.7218
35.1969 24.6951
35.2438 24.5899
35.2906 24.5056
35.3375 24.4847
35.3842 24.4627
35.4311 24.4202
35.4779 24.374
35.5248 24.3212
35.5716 24.236
35.6185 24.1588
35.6653 24.0683
35.7123 23.9545
35.759 23.8943
35.806 23.8174
35.8528 23.7034
35.8998 23.5699
35.9468 23.5632
35.9936 23.4839
36.0406 23.4391
36.0874 23.4032
36.1345 23.2817
36.1813 23.2239
36.2283 23.1401
36.2752 23.0714
36.3222 23.1258
36.3691 22.921
36.4161 22.8811
36.463 22.8978
36.5101 22.798
36.557 22.7176
36.6041 22.6411
36.651 22.6392
36.6981 22.5675
36.745 22.4693
36.7921 22.3935
36.839 22.2741
36.8861 22.1821
36.9331 22.1435
36.9802 22.1094
37.0272 22.0299
37.0743 21.9389
37.1213 21.8811
37.1684 21.8247
37.2154 21.7994
37.2626 21.7178
37.3098 21.6422
37.3568 21.4917
37.404 21.5407
37.451 21.4024
37.4982 21.3292
37.5452 21.2631
37.5924 21.1917
37.6395 21.2668
37.6867 21.1203
37.7337 20.9938
37.781 20.9632
37.8281 20.8714
37.8753 20.7397
37.9224 20.7764
37.9697 20.7134
38.0168 20.6312
38.064 20.5233
38.1111 20.4227
38.1584 20.3946
38.2056 20.3258
38.2529 20.2374
38.3 20.2362
38.3473 20.197
38.3945 20.0253
38.4418 20.0303
38.489 19.9462
38.5363 19.8383
38.5837 19.8348
38.6309 19.8026
38.6782 19.6727
38.7254 19.5828
38.7728 19.5322
38.82 19.468
38.8674 19.5312
38.9146 19.4219
38.9621 19.3669
39.0093 19.2825
39.0567 19.1655
39.104 19.1753
39.1514 19.0265
39.1987 19.0643
39.2461 18.9794
39.2934 18.9663
39.3409 18.8271
39.3882 18.7528
39.4356 18.7104
39.483 18.6224
39.5304 18.6065
39.5778 18.6104
39.6253 18.4956
39.6726 18.3897
39.7201 18.4785
39.7675 18.349
39.815 18.2574
39.8624 18.2027
39.9099 18.1859
39.9575 18.103
40.0049 18.014
40.0525 18.0143
40.0999 17.8966
40.1474 17.8555
40.1949 17.817
40.2425 17.7575
40.2899 17.6996
40.3375 17.6233
40.385 17.5731
40.4326 17.5741
40.48 17.4679
40.5277 17.4574
40.5752 17.3789
40.6228 17.2652
40.6703 17.2096
40.718 17.1569
40.7655 17.1601
40.8132 17.0679
40.8607 17.0227
40.9084 16.9725
40.9559 16.9531
41.0036 16.8953
41.0512 16.8392
41.0989 16.7923
41.1465 16.6785
41.1942 16.7036
41.242 16.617
41.2896 16.5567
41.3373 16.4487
41.3849 16.4872
41.4327 16.3443
41.4803 16.3047
41.5281 16.3049
41.5758 16.1528
41.6236 16.1811
41.6712 16.0906
41.7191 16.0707
41.7667 15.9848
41.8146 15.9667
41.8622 15.8964
41.9101 15.8406
41.9578 15.6911
42.0057 15.7441
42.0534 15.6654
42.1013 15.6171
42.149 15.5552
42.1969 15.4963
42.2446 15.4539
42.2925 15.477
42.3403 15.3567
42.3882 15.3249
42.436 15.2735
42.4839 15.2267
42.5319 15.2247
42.5797 15.1125
42.6277 15.078
42.6755 15.0361
42.7235 14.9812
42.7713 14.9407
42.8193 14.819
42.8671 14.8246
42.9152 14.7339
42.963 14.7741
43.0111 14.7177
43.0589 14.6513
43.107 14.5395
43.1549 14.4769
43.2029 14.4401
43.2508 14.424
43.2989 14.3763
43.3468 14.2102
43.3949 14.2673
43.4429 14.2254
43.491 14.1654
43.5389 14.0611
43.5871 14.0379
43.635 13.9749
43.6832 13.9393
43.7312 13.9002
43.7793 13.8559
43.8273 13.8257
43.8755 13.7156
43.9237 13.7366
43.9717 13.6861
44.0199 13.5991
44.068 13.6001
44.1162 13.5108
44.1642 13.4601
44.2125 13.4188
44.2606 13.3931
44.3088 13.3286
44.3569 13.2707
44.4052 13.2837
44.4533 13.2059
44.5016 13.1575
44.5497 13.1352
44.598 13.0722
44.6461 12.9758
44.6945 12.9764
44.7426 12.9428
44.791 12.8314
44.8391 12.8448
44.8875 12.7718
44.9357 12.76
44.984 12.689
45.0322 12.6606
45.0806 12.5769
45.1288 12.5354
45.1773 12.4987
45.2257 12.5005
45.2739 12.4719
45.3224 12.3734
45.3706 12.2996
45.4191 12.276
45.4673 12.2742
45.5158 12.2244
45.5641 12.1499
45.6126 12.104
45.6609 12.0634
45.7094 12.0416
45.7577 12.0009
45.8063 11.9343
45.8546 11.9097
45.9031 11.8582
45.9515 11.8118
46.0001 11.7543
46.0484 11.7424
46.097 11.7071
46.1454 11.6761
46.194 11.6
46.2424 11.6009
46.291 11.5614
46.3395 11.4947
46.3881 11.4211
46.4365 11.4109
46.4852 11.3709
46.5337 11.3118
46.5823 11.2688
46.631 11.2312
46.6795 11.2492
46.7282 11.1746
46.7767 11.1321
46.8254 11.0523
46.8739 10.9919
46.9226 10.9846
46.9712 10.9579
47.0199 10.9207
47.0685 10.8739
47.1173 10.7992
47.1658 10.7881
47.2146 10.7693
47.2632 10.7041
47.312 10.7123
47.3606 10.6406
47.4095 10.6221
47.4581 10.5309
47.5069 10.5547
47.5556 10.4694
47.6044 10.4294
47.6531 10.4151
47.702 10.3131
47.7507 10.3229
47.7996 10.2764
47.8483 10.2368
47.8972 10.2131
47.9461 10.1576
47.9948 10.1202
48.0438 10.0816
48.0925 10.0841
48.1415 10.0074
48.1902 9.94222
48.2392 9.99271
48.288 9.9389
48.337 9.91282
48.3858 9.84974
48.4348 9.77646
48.4837 9.80569
48.5327 9.76656
48.5815 9.7244
48.6306 9.69736
48.6795 9.65333
48.7285 9.57318
48.7774 9.53308
48.8265 9.54012
48.8754 9.52645
48.9245 9.50309
48.9734 9.44704
49.0226 9.46195
49.0715 9.35165
49.1206 9.32814
49.1696 9.29542
49.2188 9.28779
49.2679 9.19372
49.3169 9.13451
49.3661 9.14961
49.4151 9.09551
49.4643 9.08543
49.5134 9.04967
49.5626 8.98198
49.6117 8.98135
49.6609 8.87691
49.71 8.89321
49.7592 8.86964
49.8083 8.79879
49.8576 8.8183
49.9067 8.76799
49.956 8.74766
50.0052 8.67135
50.0545 8.68903
50.1036 8.6423
50.153 8.57478
50.2022 8.54841
50.2515 8.4801
50.3007 8.49929
50.3501 8.47882
50.3993 8.45314
50.4487 8.3978
50.498 8.38806
50.5474 8.31475
50.5966 8.28076
50.6461 8.27897
50.6955 8.24732
50.7448 8.23352
50.7943 8.17573
50.8436 8.14107
50.8931 8.14149
50.9424 8.08539
50.9919 8.03487
51.0413 8.04274
51.0908 8.01149
51.1402 7.9693
51.1897 7.91957
51.2391 7.92843
51.2887 7.86889
51.3381 7.79622
51.3877 7.79149
51.4371 7.7456
51.4867 7.70886
51.5362 7.73431
51.5858 7.65289
51.6353 7.64311
51.6849 7.60292
51.7344 7.5571
51.7841 7.58419
51.8336 7.49521
51.8833 7.47501
51.9328 7.44871
51.9826 7.43329
52.0323 7.39234
52.0818 7.36319
52.1316 7.26787
52.1812 7.31354
52.231 7.24257
52.2806 7.22079
52.3304 7.19665
52.38 7.19142
52.4298 7.15025
52.4794 7.09782
52.5293 7.05398
52.5789 7.04347
52.6288 7.00572
52.6785 6.96199
52.7284 6.97469
52.7781 6.92836
52.828 6.90234
52.8777 6.86568
52.9276 6.84226
52.9774 6.81451
53.0273 6.76671
53.0771 6.75318
53.1271 6.733
53.1769 6.65669
53.2269 6.67337
53.2767 6.64206
53.3267 6.65366
53.3765 6.64658
53.4266 6.55404
53.4766 6.53924
53.5265 6.48812
53.5765 6.44443
53.6264 6.48973
53.6765 6.41376
53.7264 6.42304
53.7765 6.36606
53.8265 6.31802
53.8766 6.30582
53.9266 6.3047
53.9767 6.27473
54.0267 6.24102
54.0769 6.20779
54.1269 6.17578
54.1771 6.14408
54.2271 6.1326
54.2773 6.08037
54.3274 6.06661
54.3776 5.99838
54.4277 6.01299
54.478 5.96682
54.528 5.87067
54.5783 5.85449
54.6285 5.78255
54.6788 5.80622
54.7289 5.7175
54.7792 5.681
54.8296 5.66452
54.8798 5.61954
54.9301 5.60619
54.9803 5.5559
55.0307 5.48714
55.0809 5.49511
55.1314 5.48279
55.1816 5.39417
55.232 5.30901
55.2823 5.31075
55.3328 5.21332
55.383 5.17227
55.4335 5.16915
55.4838 5.10944
55.5344 5.06156
55.5847 4.98658
55.6352 4.97828
55.6856 4.98264
55.7361 4.92443