File: XRD/Ni3Fe_FD0086.xy
TT I
1.27165 8.99907
1.31627 8.75796
1.36089 8.89614
1.40551 8.19509
1.45013 7.53545
1.49476 7.5937
1.53938 7.31259
1.584 6.58283
1.62863 6.49045
1.67325 6.34511
1.71787 6.95471
1.7625 6.41044
1.80712 5.81309
1.85174 6.29784
1.89636 5.76671
1.94099 6.05801
1.98562 5.91525
2.03025 6.2156
2.07487 5.61437
2.11949 5.25332
2.16411 5.01878
2.20874 5.48968
2.25338 4.75911
2.298 4.73821
2.34263 4.94389
2.38725 4.49338
2.43188 4.53091
2.4765 4.61749
2.52115 4.24441
2.56577 3.99573
2.6104 4.57864
2.65503 5.11742
2.69965 4.90788
2.7443 5.83501
2.78893 6.11167
2.83356 6.78956
2.87818 7.52262
2.92281 7.84279
2.96744 8.85757
3.01209 10.4739
3.05672 11.2935
3.10135 12.2369
3.14599 13.3574
3.19062 14.1309
3.23527 14.7954
3.2799 15.514
3.32454 16.8003
3.36917 17.4728
3.4138 18.6181
3.45844 19.3709
3.50309 20.6534
3.54773 20.9396
3.59237 21.507
3.637 22.0251
3.68164 22.835
3.7263 23.9308
3.77094 24.8444
3.81558 25.0631
3.86022 26.5219
3.90486 27.0595
3.9495 28.1102
3.99416 29.2019
4.0388 30.7445
4.08344 31.2414
4.12809 32.3693
4.17273 33.6367
4.21738 35.6833
4.26204 36.1367
4.30669 37.4688
4.35133 39.4402
4.39598 40.6765
4.44063 42.6396
4.4853 44.3015
4.52995 46.7738
4.5746 48.8851
4.61925 51.1447
4.6639 53.9006
4.70855 56.9085
4.75322 59.6624
4.79788 62.5394
4.84253 66.632
4.88719 71.2275
4.93184 77.5255
4.97652 86.0279
5.02118 97.7375
5.06583 111.25
5.11049 134.064
5.15515 191.035
5.19981 762.52
5.24449 3649.01
5.28916 5382.04
5.33382 7844.86
5.37848 1005.72
5.42315 229.019
5.46783 153.006
5.5125 129.041
5.55716 118.426
5.60183 109.572
5.6465 105.811
5.69117 103.446
5.73586 101.612
5.78053 101.758
5.8252 103.036
5.86988 107.696
5.91455 119.292
5.95924 151.388
6.00392 381.905
6.0486 1416.22
6.09328 1718.69
6.13795 3624.37
6.18263 1178.98
6.22733 179.012
6.27201 105.182
6.3167 85.8234
6.36138 76.381
6.40606 70.6118
6.45075 67.7707
6.49545 65.0624
6.54014 62.565
6.58483 60.6114
6.62952 59.3929
6.67421 57.8742
6.71892 57.0268
6.76361 55.8828
6.8083 54.8485
6.853 53.9281
6.89769 53.7807
6.94239 53.0415
6.98711 52.7329
7.03181 52.1025
7.07651 52.1578
7.12121 51.9334
7.16591 51.2993
7.21063 50.9384
7.25533 50.8227
7.30004 51.0448
7.34475 51.1388
7.38945 51.6349
7.43416 51.4664
7.47889 52.4222
7.5236 65.6524
7.56831 103.608
7.61303 67.9033
7.65774 53.876
7.70247 53.5266
7.74719 53.6509
7.79191 53.9745
7.83663 54.1693
7.88135 55.0856
7.92607 55.8482
7.97081 57.0718
8.01553 57.7427
8.06026 59.9634
8.10498 61.0504
8.14971 62.7357
8.19446 64.3286
8.23919 66.9673
8.28392 69.8769
8.32865 73.4004
8.37339 78.778
8.41812 85.5785
8.46288 102.206
8.50761 205.082
8.55235 664.424
8.59709 646.59
8.64183 884.754
8.68658 1814.29
8.73134 714.455
8.77609 147.332
8.82083 105.539
8.86558 94.2759
8.91033 89.1202
8.9551 85.7895
8.99985 83.9999
9.04461 83.2275
9.08936 82.2089
9.13412 81.5484
9.17888 83.2553
9.22365 104.857
9.26841 163.513
9.31318 115.703
9.35794 84.8516
9.4027 82.1158
9.44749 82.7005
9.49226 82.6627
9.53703 83.4936
9.5818 84.9622
9.62657 85.9057
9.67134 87.4345
9.71614 89.0463
9.76091 91.9285
9.80569 94.7774
9.85047 98.6482
9.89525 105.389
9.94005 119.836
9.98484 214.82
10.0296 605.432
10.0744 604.385
10.1192 571.823
10.164 1292.45
10.2088 1382.17
10.2536 350.467
10.2984 130.336
10.3432 112.593
10.388 107.236
10.4328 129.002
10.4776 232.885
10.5224 227.528
10.5672 209.199
10.612 375.681
10.6568 474.442
10.7017 199.847
10.7465 104.126
10.7913 85.089
10.8361 80.1723
10.8809 77.4009
10.9257 74.7639
10.9706 73.2783
11.0154 71.554
11.0602 70.1301
11.105 69.0881
11.1499 67.4564
11.1947 66.2162
11.2395 65.1359
11.2844 64.627
11.3292 63.8253
11.374 63.132
11.4189 62.8967
11.4637 61.9674
11.5086 61.3986
11.5534 60.9375
11.5983 60.7305
11.6431 60.7645
11.688 60.3912
11.7328 60.5096
11.7777 60.1944
11.8225 60.0756
11.8674 60.567
11.9122 64.3767
11.9571 78.5098
12.002 78.2476
12.0468 72.3456
12.0917 94.4752
12.1366 104.383
12.1814 93.7437
12.2263 105.758
12.2712 167.112
12.3161 169.895
12.3609 88.9203
12.4058 65.3306
12.4507 62.7751
12.4956 62.0515
12.5405 61.6333
12.5853 62.1234
12.6302 62.3573
12.6751 62.8287
12.72 63.6245
12.7649 64.537
12.8098 65.093
12.8547 66.591
12.8996 67.8501
12.9445 69.3941
12.9894 71.4513
13.0343 73.5039
13.0792 79.2946
13.1242 90.7431
13.1691 143.387
13.214 193.633
13.2589 167.111
13.3038 161.003
13.3487 236.933
13.3937 389.608
13.4386 294.383
13.4835 144.886
13.5285 168.121
13.5734 181.174
13.6183 149.012
13.6633 155.617
13.7082 246.43
13.7531 348.191
13.7981 217.942
13.843 98.6296
13.888 81.2605
13.9329 77.0984
13.9779 75.1843
14.0228 73.5654
14.0678 72.1472
14.1127 73.9826
14.1577 83.3826
14.2027 81.8839
14.2476 73.0373
14.2926 68.832
14.3376 67.7768
14.3825 67.2207
14.4275 66.6056
14.4725 66.6387
14.5175 66.7019
14.5624 66.9504
14.6074 67.0985
14.6524 67.4745
14.6974 68.1783
14.7424 70.438
14.7874 81.7695
14.8324 111.595
14.8774 117.219
14.9224 103.041
14.9674 105.431
15.0124 139.318
15.0574 205.497
15.1024 178.947
15.1474 96.8063
15.1924 73.1424
15.2374 68.5867
15.2824 66.8479
15.3274 65.6194
15.3725 64.9842
15.4175 64.8218
15.4625 64.1734
15.5076 64.0861
15.5526 64.137
15.5976 64.3151
15.6426 65.6707
15.6877 74.648
15.7327 98.8102
15.7778 106.449
15.8228 93.8668
15.8679 91.5557
15.9129 108.211
15.958 163.83
16.003 182.833
16.0481 116.197
16.0931 74.3805
16.1382 64.0662
16.1833 60.1335
16.2283 57.9519
16.2734 56.9462
16.3185 56.1287
16.3636 55.3428
16.4086 54.5513
16.4537 54.4877
16.4988 53.7941
16.5439 53.5613
16.589 53.3555
16.6341 53.0303
16.6792 52.5759
16.7243 52.9107
16.7694 52.9808
16.8145 52.6311
16.8596 53.1142
16.9047 54.0003
16.9498 55.1917
16.9949 54.8438
17.04 54.5657
17.0851 55.9292
17.1302 60.4433
17.1754 63.2382
17.2205 61.3676
17.2656 60.1409
17.3108 62.7108
17.3559 69.1007
17.401 80.2459
17.4462 77.5477
17.4913 63.6858
17.5365 58.3611
17.5815 57.5329
17.6268 57.8089
17.6718 58.2893
17.7171 58.7317
17.7622 60.6924
17.8074 61.9213
17.8525 63.554
17.8977 72.2395
17.9428 85.3707
17.9881 85.7452
18.0331 79.3485
18.0784 78.761
18.1237 88.3279
18.1688 118.561
18.214 151.404
18.2591 129.387
18.3044 88.3028
18.3495 75.7139
18.3948 78.8486
18.4399 93.4165
18.4852 102.578
18.5303 86.3338
18.5756 68.1568
18.6207 62.2679
18.666 60.2557
18.7112 58.698
18.7565 58.0682
18.8016 57.435
18.8469 56.8166
18.892 56.395
18.9374 55.8996
18.9825 55.5786
19.0278 55.4252
19.073 55.5062
19.1183 56.2868
19.1635 58.7074
19.2088 61.2296
19.254 60.2952
19.2993 59.431
19.3447 60.5289
19.3898 62.4942
19.4352 67.3458
19.4804 73.4712
19.5257 69.0723
19.5709 58.4165
19.6163 53.5996
19.6615 52.7865
19.7068 52.3396
19.752 52.0333
19.7974 52.2137
19.8426 53.5782
19.888 56.0201
19.9332 57.1368
19.9786 56.1558
20.0238 55.16
20.0692 56.4669
20.1144 60.3018
20.1598 66.9079
20.205 70.7838
20.2504 66.6857
20.2957 58.6277
20.3411 56.0578
20.3863 58.9008
20.4318 63.9343
20.477 62.1681
20.5224 55.0315
20.5677 50.6184
20.6131 49.2273
20.6586 48.6478
20.7038 48.476
20.7493 48.505
20.7945 48.7596
20.84 48.3579
20.8853 47.935
20.9307 47.5679
20.976 47.7883
21.0215 47.8899
21.0668 48.4063
21.1122 47.9153
21.1575 47.6613
21.203 47.5915
21.2483 47.7178
21.2938 49.0414
21.3391 49.8198
21.3846 50.2708
21.4299 48.8771
21.4754 47.8208
21.5207 47.5803
21.5662 47.595
21.6116 48.2714
21.6571 50.2556
21.7024 52.4086
21.7479 52.4294
21.7933 51.3865
21.8388 51.6675
21.8843 53.4159
21.9297 55.5285
21.9752 59.7477
22.0206 64.8423
22.0661 62.6989
22.1115 56.2686
22.157 53.2415
22.2024 54.2417
22.248 55.2593
22.2933 53.351
22.3389 50.0484
22.3843 48.346
22.4299 47.6835
22.4753 47.5414
22.5208 47.705
22.5662 47.4671
22.6118 47.7499
22.6572 47.9197
22.7028 49.4854
22.7483 50.7396
22.7939 50.8574
22.8393 50.0898
22.8849 49.6499
22.9303 49.7064
22.9759 50.3503
23.0214 52.1878
23.067 56.2616
23.1126 57.3082
23.1581 54.0564
23.2037 49.8207
23.2492 48.5536
23.2948 48.8417
23.3403 50.354
23.3859 51.037
23.4314 50.352
23.477 49.5891
23.5225 48.8737
23.5682 49.1454
23.6137 50.6046
23.6593 53.4563
23.7048 56.9761
23.7505 55.8033
23.796 50.8817
23.8417 46.7738
23.8872 45.1626
23.9329 44.6895
23.9784 44.3813
24.0241 44.0114
24.0697 43.6396
24.1154 43.3367
24.1609 43.1277
24.2066 42.9748
24.2522 42.7193
24.2979 42.5301
24.3434 42.4886
24.3892 42.3287
24.4349 42.0348
24.4805 41.91
24.5262 41.9803
24.5718 41.5046
24.6175 41.8812
24.6631 42.1008
24.7089 42.1591
24.7545 41.9871
24.8002 41.6311
24.8458 41.6045
24.8916 41.4612
24.9372 41.6926
24.983 41.6867
25.0286 41.8056
25.0744 42.2213
25.12 42.4208
25.1658 42.4527
25.2114 42.5081
25.2572 42.9991
25.3029 43.4681
25.3487 43.229
25.3943 42.9365
25.4402 43.467
25.4858 44.0654
25.5316 43.1693
25.5773 41.585
25.6231 40.52
25.669 39.9513
25.7147 39.7873
25.7605 39.8516
25.8062 40.093
25.8521 40.295
25.8977 40.013
25.9436 39.898
25.9893 39.5592
26.0352 39.6056
26.0809 39.5414
26.1268 40.0095
26.1725 40.3455
26.2184 41.059
26.2641 41.1373
26.31 40.5613
26.3557 40.2074
26.4017 39.9788
26.4474 39.8306
26.4933 39.6388
26.5391 39.7824
26.585 39.7864
26.6308 39.7672
26.6767 40.0781
26.7225 40.66
26.7684 41.6385
26.8142 41.5174
26.8601 40.6851
26.9059 40.0763
26.9519 39.7655
26.9979 39.6499
27.0437 38.9478
27.0896 38.311
27.1354 38.2775
27.1814 38.0505
27.2272 38.0201
27.2732 37.9533
27.3191 37.7755
27.3651 37.7473
27.4109 37.5692
27.4569 37.5761
27.5027 37.4708
27.5488 37.6872
27.5946 37.4264
27.6407 37.7335
27.6865 37.987
27.7326 37.9135
27.7784 37.7727
27.8245 37.4874
27.8703 37.3751
27.9164 37.2788
27.9623 37.3419
28.0084 37.2997
28.0543 37.3329
28.1003 37.4885
28.1462 37.9281
28.1923 38.3417
28.2384 38.0284
28.2843 37.4692
28.3304 37.0772
28.3764 36.9091
28.4225 36.6664
28.4684 36.1131
28.5145 35.6028
28.5605 35.3931
28.6066 35.1677
28.6526 35.1829
28.6987 34.968
28.7447 34.7271
28.7908 34.6817
28.8368 34.5967
28.8829 34.5854
28.9289 34.366
28.9751 34.4488
29.0211 34.5098
29.0673 34.3968
29.1133 34.3487
29.1595 33.9656
29.2055 33.6397
29.2517 33.6076
29.2977 33.4119
29.3439 33.332
29.3899 33.1822
29.4361 33.1281
29.4824 33.2652
29.5284 33.3789
29.5746 33.2456
29.6207 32.905
29.6669 32.5108
29.713 32.3774
29.7593 32.2592
29.8053 32.1972
29.8516 32.1608
29.8977 32.1398
29.9439 31.9853
29.99 31.95
30.0363 31.8123
30.0824 31.8339
30.1287 31.6539
30.1748 31.659
30.2211 31.5916
30.2673 31.3326
30.3136 31.7928
30.3597 31.7088
30.406 31.7203
30.4522 31.6406
30.4985 31.3787
30.5447 31.4433
30.591 31.2208
30.6372 31.2532
30.6835 31.1546
30.7297 31.1402
30.7761 31.2808
30.8224 31.3736
30.8686 31.6146
30.915 31.4584
30.9612 31.1244
31.0076 30.9225
31.0538 30.8835
31.1002 30.7122
31.1464 30.4993
31.1928 30.4244
31.2391 30.3309
31.2855 30.2715
31.3317 30.2569
31.3781 30.1748
31.4244 29.9744
31.4708 29.9198
31.5171 30.1078
31.5636 30.1257
31.6098 30.038
31.6563 30.1333
31.7026 29.9547
31.7491 29.7389
31.7953 29.4899
31.8418 29.4779
31.8881 29.4902
31.9346 29.3974
31.9809 29.2833
32.0275 29.2185
32.074 29.3216
32.1203 29.1541
32.1668 29.1996
32.2132 29.0841
32.2597 28.779
32.306 28.8075
32.3526 28.4706
32.399 28.5005
32.4455 28.1267
32.4919 28.055
32.5385 28.0788
32.5848 27.9377
32.6314 28.0003
32.6778 27.9011
32.7244 27.6283
32.7708 27.5304
32.8174 27.6284
32.8638 27.4495
32.9104 27.5934
32.9569 27.5143
33.0035 27.1938
33.0499 27.2811
33.0966 27.1608
33.143 27.1196
33.1897 26.9156
33.2361 26.8888
33.2828 26.9743
33.3293 26.8675
33.3759 26.8476
33.4226 26.791
33.4691 26.713
33.5158 26.6867
33.5623 26.4331
33.609 26.2954
33.6555 26.0971
33.7022 26.0137
33.7487 25.8975
33.7954 25.9655
33.842 25.8607
33.8887 25.7091
33.9353 25.7299
33.982 25.5725
34.0286 25.4918
34.0753 25.4598
34.1219 25.413
34.1687 25.3643
34.2152 25.2159
34.262 25.0348
34.3086 25.0071
34.3554 24.9129
34.402 24.8474
34.4488 24.7914
34.4954 24.8127
34.5422 24.7143
34.5889 24.5031
34.6357 24.4138
34.6825 24.4147
34.7292 24.3078
34.776 24.2051
34.8227 24.14
34.8695 24.0413
34.9162 24.1157
34.9631 23.9287
35.0098 23.9862
35.0566 23.8308
35.1033 23.7065
35.1502 23.7489
35.1969 23.6465
35.2438 23.6174
35.2906 23.5632
35.3375 23.4349
35.3842 23.3833
35.4311 23.3971
35.4779 23.3651
35.5248 23.2984
35.5716 23.2328
35.6185 23.2234
35.6653 23.1612
35.7123 23.0949
35.759 23.0121
35.806 22.8614
35.8528 22.7935
35.8998 22.7004
35.9468 22.6091
35.9936 22.6715
36.0406 22.5166
36.0874 22.3912
36.1345 22.4616
36.1813 22.3394
36.2283 22.188
36.2752 22.104
36.3222 22.1435
36.3691 22.1564
36.4161 22.0519
36.463 21.9377
36.5101 21.918
36.557 21.817
36.6041 21.6574
36.651 21.6122
36.6981 21.6283
36.745 21.5867
36.7921 21.4944
36.839 21.4406
36.8861 21.426
36.9331 21.2519
36.9802 21.2653
37.0272 21.103
37.0743 21.06
37.1213 21.0367
37.1684 20.9648
37.2154 20.8396
37.2626 20.8037
37.3098 20.7718
37.3568 20.7201
37.404 20.7571
37.451 20.5741
37.4982 20.5103
37.5452 20.3325
37.5924 20.3356
37.6395 20.3801
37.6867 20.2259
37.7337 20.1741
37.781 20.1182
37.8281 20.0867
37.8753 19.9571
37.9224 19.9562
37.9697 19.8537
38.0168 19.8386
38.064 19.7127
38.1111 19.6973
38.1584 19.609
38.2056 19.5832
38.2529 19.4846
38.3 19.3218
38.3473 19.3575
38.3945 19.2973
38.4418 19.2702
38.489 19.2089
38.5363 19.1013
38.5837 19.0218
38.6309 19.016
38.6782 18.8988
38.7254 18.8728
38.7728 18.7957
38.82 18.7491
38.8674 18.655
38.9146 18.6115
38.9621 18.6149
39.0093 18.5324
39.0567 18.4946
39.104 18.361
39.1514 18.3027
39.1987 18.2438
39.2461 18.244
39.2934 18.1293
39.3409 18.0612
39.3882 18.0358
39.4356 18.0158
39.483 17.9676
39.5304 17.9107
39.5778 17.8984
39.6253 17.7724
39.6726 17.727
39.7201 17.679
39.7675 17.5962
39.815 17.5872
39.8624 17.4861
39.9099 17.5233
39.9575 17.4109
40.0049 17.3522
40.0525 17.2392
40.0999 17.2382
40.1474 17.1714
40.1949 17.13
40.2425 16.9968
40.2899 17.0174
40.3375 16.952
40.385 16.8804
40.4326 16.8806
40.48 16.7738
40.5277 16.76
40.5752 16.6758
40.6228 16.6203
40.6703 16.6094
40.718 16.5491
40.7655 16.5039
40.8132 16.4105
40.8607 16.3821
40.9084 16.3367
40.9559 16.3038
41.0036 16.2689
41.0512 16.1399
41.0989 16.1549
41.1465 16.0378
41.1942 15.9928
41.242 15.9613
41.2896 15.9047
41.3373 15.7968
41.3849 15.8079
41.4327 15.7595
41.4803 15.7038
41.5281 15.647
41.5758 15.5389
41.6236 15.538
41.6712 15.5081
41.7191 15.3787
41.7667 15.3322
41.8146 15.3224
41.8622 15.2747
41.9101 15.305
41.9578 15.1617
42.0057 15.1006
42.0534 15.1322
42.1013 15.0173
42.149 14.9213
42.1969 14.921
42.2446 14.8675
42.2925 14.8397
42.3403 14.7709
42.3882 14.7551
42.436 14.7179
42.4839 14.6194
42.5319 14.5563
42.5797 14.5395
42.6277 14.5148
42.6755 14.473
42.7235 14.3505
42.7713 14.324
42.8193 14.2521
42.8671 14.2445
42.9152 14.2169
42.963 14.1312
43.0111 14.0869
43.0589 14.0174
43.107 13.9862
43.1549 13.9479
43.2029 13.9419
43.2508 13.8635
43.2989 13.8307
43.3468 13.7988
43.3949 13.6627
43.4429 13.6452
43.491 13.6068
43.5389 13.572
43.5871 13.5466
43.635 13.4295
43.6832 13.4092
43.7312 13.3474
43.7793 13.3269
43.8273 13.2843
43.8755 13.2455
43.9237 13.2084
43.9717 13.197
44.0199 13.1204
44.068 13.1229
44.1162 13.0228
44.1642 12.9885
44.2125 12.9533
44.2606 12.8786
44.3088 12.8142
44.3569 12.821
44.4052 12.7728
44.4533 12.7169
44.5016 12.6442
44.5497 12.5976
44.598 12.5733
44.6461 12.5129
44.6945 12.4735
44.7426 12.47
44.791 12.3346
44.8391 12.3681
44.8875 12.2758
44.9357 12.2844
44.984 12.2398
45.0322 12.1839
45.0806 12.1035
45.1288 12.0719
45.1773 12.0749
45.2257 12.0555
45.2739 11.9583
45.3224 11.9631
45.3706 11.8715
45.4191 11.8157
45.4673 11.8397
45.5158 11.739
45.5641 11.6595
45.6126 11.6901
45.6609 11.6154
45.7094 11.5722
45.7577 11.5334
45.8063 11.478
45.8546 11.474
45.9031 11.4364
45.9515 11.4129
46.0001 11.316
46.0484 11.3664
46.097 11.2564
46.1454 11.2561
46.194 11.1953
46.2424 11.1607
46.291 11.1185
46.3395 11.0473
46.3881 11.0045
46.4365 10.9779
46.4852 10.902
46.5337 10.9339
46.5823 10.8615
46.631 10.7981
46.6795 10.7684
46.7282 10.7581
46.7767 10.7269
46.8254 10.665
46.8739 10.5748
46.9226 10.5718
46.9712 10.5111
47.0199 10.5252
47.0685 10.4294
47.1173 10.3995
47.1658 10.4209
47.2146 10.3196
47.2632 10.3031
47.312 10.2752
47.3606 10.2272
47.4095 10.1793
47.4581 10.1426
47.5069 10.0931
47.5556 10.072
47.6044 10.0493
47.6531 10.0105
47.702 9.97723
47.7507 9.90366
47.7996 9.85842
47.8483 9.85852
47.8972 9.82247
47.9461 9.76548
47.9948 9.73923
48.0438 9.69574
48.0925 9.65072
48.1415 9.68225
48.1902 9.60167
48.2392 9.57858
48.288 9.53472
48.337 9.53889
48.3858 9.49396
48.4348 9.46603
48.4837 9.4327
48.5327 9.39023
48.5815 9.38286
48.6306 9.33387
48.6795 9.30103
48.7285 9.23725
48.7774 9.22489
48.8265 9.20518
48.8754 9.15027
48.9245 9.11904
48.9734 9.07986
49.0226 9.07687
49.0715 8.98346
49.1206 8.96756
49.1696 8.97623
49.2188 8.90857
49.2679 8.88706
49.3169 8.8624
49.3661 8.79901
49.4151 8.79522
49.4643 8.74418
49.5134 8.73003
49.5626 8.66084
49.6117 8.63215
49.6609 8.63156
49.71 8.56984
49.7592 8.55524
49.8083 8.46881
49.8576 8.4775
49.9067 8.47317
49.956 8.43361
50.0052 8.38073
50.0545 8.38284
50.1036 8.2819
50.153 8.32492
50.2022 8.28789
50.2515 8.26722
50.3007 8.18639
50.3501 8.13991
50.3993 8.15833
50.4487 8.12232
50.498 8.05458
50.5474 8.03894
50.5966 8.02566
50.6461 8.00019
50.6955 7.95286
50.7448 7.95413
50.7943 7.923
50.8436 7.85466
50.8931 7.78788
50.9424 7.84712
50.9919 7.76573
51.0413 7.73483
51.0908 7.71205
51.1402 7.69208
51.1897 7.68176
51.2391 7.65636
51.2887 7.54486
51.3381 7.54056
51.3877 7.51183
51.4371 7.4631
51.4867 7.44746
51.5362 7.46111
51.5858 7.3611
51.6353 7.32968
51.6849 7.36983
51.7344 7.33293
51.7841 7.30128
51.8336 7.25715
51.8833 7.21747
51.9328 7.18189
51.9826 7.13534
52.0323 7.14031
52.0818 7.12688
52.1316 7.06314
52.1812 7.06704
52.231 7.03375
52.2806 6.95568
52.3304 6.96627
52.38 6.92251
52.4298 6.91197
52.4794 6.86221
52.5293 6.84662
52.5789 6.78291
52.6288 6.83303
52.6785 6.71697
52.7284 6.75018
52.7781 6.74439
52.828 6.65701
52.8777 6.60458
52.9276 6.61278
52.9774 6.55249
53.0273 6.55253
53.0771 6.54589
53.1271 6.53506
53.1769 6.48866
53.2269 6.44435
53.2767 6.41976
53.3267 6.38469
53.3765 6.3588
53.4266 6.32372
53.4766 6.30802
53.5265 6.28553
53.5765 6.25708
53.6264 6.18859
53.6765 6.17173
53.7264 6.12043
53.7765 6.19323
53.8265 6.10608
53.8766 6.07962
53.9266 6.06347
53.9767 6.01021
54.0267 6.00864
54.0769 5.94983
54.1269 5.92163
54.1771 5.91016
54.2271 5.8694
54.2773 5.80265
54.3274 5.81999
54.3776 5.69801
54.4277 5.7174
54.478 5.69388
54.528 5.61544
54.5783 5.53284
54.6285 5.56355
54.6788 5.47598
54.7289 5.45518
54.7792 5.35305
54.8296 5.32008
54.8798 5.25159
54.9301 5.28126
54.9803 5.25414
55.0307 5.2351
55.0809 5.2115
55.1314 5.10366
55.1816 5.07109
55.232 5.01119
55.2823 4.91752
55.3328 4.92129
55.383 4.87874
55.4335 4.84374
55.4838 4.73657
55.5344 4.71929
55.5847 4.70444
55.6352 4.65057
55.6856 4.64951
55.7361 4.58741