File: XRD/Ni3Fe_FD0131.xy
TT I
1.27165 7.59718
1.31627 6.90384
1.36089 7.29137
1.40551 6.58126
1.45013 7.02144
1.49476 6.38126
1.53938 6.14983
1.584 5.74729
1.62863 5.88628
1.67325 5.6683
1.71787 5.15624
1.7625 4.92409
1.80712 4.93176
1.85174 5.68824
1.89636 5.63043
1.94099 5.40031
1.98562 5.07898
2.03025 4.90698
2.07487 4.66143
2.11949 4.89938
2.16411 4.72803
2.20874 5.40868
2.25338 3.93458
2.298 4.3253
2.34263 4.73371
2.38725 3.8776
2.43188 4.8274
2.4765 4.41874
2.52115 3.57084
2.56577 4.7251
2.6104 5.19111
2.65503 4.83709
2.69965 4.93578
2.7443 5.68845
2.78893 6.38989
2.83356 7.19648
2.87818 7.53387
2.92281 8.25347
2.96744 9.37564
3.01209 10.234
3.05672 11.3138
3.10135 12.0766
3.14599 12.7327
3.19062 13.8414
3.23527 14.6229
3.2799 15.6952
3.32454 16.9739
3.36917 17.3621
3.4138 18.4559
3.45844 18.9464
3.50309 20.4057
3.54773 20.3743
3.59237 21.3298
3.637 22.2885
3.68164 23.1732
3.7263 24.2392
3.77094 24.49
3.81558 25.6597
3.86022 26.1771
3.90486 27.3296
3.9495 28.4447
3.99416 29.3012
4.0388 30.4726
4.08344 31.9477
4.12809 32.9675
4.17273 33.6001
4.21738 35.5194
4.26204 35.9214
4.30669 37.4001
4.35133 39.2873
4.39598 41.2376
4.44063 42.637
4.4853 44.7152
4.52995 46.3893
4.5746 49.2905
4.61925 51.4685
4.6639 53.376
4.70855 56.0283
4.75322 59.4531
4.79788 62.5163
4.84253 65.7296
4.88719 70.1306
4.93184 75.0127
4.97652 82.2137
5.02118 90.4865
5.06583 101.077
5.11049 118.131
5.15515 157.763
5.19981 575.118
5.24449 3765.87
5.28916 7810.32
5.33382 6504.03
5.37848 499.046
5.42315 167.994
5.46783 129.372
5.5125 114.502
5.55716 107.779
5.60183 101.622
5.6465 98.8953
5.69117 97.611
5.73586 95.0674
5.78053 95.4034
5.8252 95.6996
5.86988 98.9734
5.91455 106.107
5.95924 126.055
6.00392 297.114
6.0486 1394.41
6.09328 2558.41
6.13795 3922.13
6.18263 734.115
6.22733 126.329
6.27201 90.0643
6.3167 78.3431
6.36138 72.8512
6.40606 68.4274
6.45075 66.2382
6.49545 64.0562
6.54014 62.4243
6.58483 60.4394
6.62952 59.4337
6.67421 58.1871
6.71892 56.9396
6.76361 56.4511
6.8083 55.2915
6.853 54.476
6.89769 54.297
6.94239 54.0007
6.98711 52.92
7.03181 52.8094
7.07651 52.245
7.12121 52.4252
7.16591 52.1377
7.21063 51.5624
7.25533 51.2453
7.30004 51.6917
7.34475 51.8926
7.38945 52.1464
7.43416 51.4417
7.47889 51.5823
7.5236 56.134
7.56831 65.21
7.61303 55.6237
7.65774 53.0554
7.70247 53.6678
7.74719 53.9245
7.79191 54.2212
7.83663 54.447
7.88135 55.6616
7.92607 56.9036
7.97081 57.7088
8.01553 59.1288
8.06026 60.242
8.10498 61.2817
8.14971 63.1511
8.19446 64.6229
8.23919 67.7215
8.28392 70.4172
8.32865 72.7868
8.37339 77.8663
8.41812 83.5459
8.46288 95.6501
8.50761 174.554
8.55235 612.1
8.59709 851.128
8.64183 1409.3
8.68658 1702.16
8.73134 445.744
8.77609 118.493
8.82083 97.4794
8.86558 90.8575
8.91033 87.4777
8.9551 84.5114
8.99985 83.5063
9.04461 82.5696
9.08936 81.672
9.13412 80.7867
9.17888 81.1686
9.22365 87.4108
9.26841 100.409
9.31318 87.5218
9.35794 81.8737
9.4027 81.6051
9.44749 82.2459
9.49226 83.1245
9.53703 83.8137
9.5818 85.3931
9.62657 86.1944
9.67134 87.6541
9.71614 89.8712
9.76091 92.1962
9.80569 95.0002
9.85047 97.9904
9.89525 103.319
9.94005 113.805
9.98484 186.734
10.0296 553.957
10.0744 721.159
10.1192 962.92
10.164 1617.5
10.2088 1045.56
10.2536 227.372
10.2984 117.271
10.3432 108.069
10.388 104.243
10.4328 121.069
10.4776 217.176
10.5224 256.693
10.5672 313.968
10.612 475.391
10.6568 383.223
10.7017 140.467
10.7465 91.1706
10.7913 83.3391
10.8361 80.094
10.8809 77.6538
10.9257 75.1198
10.9706 73.9734
11.0154 72.0047
11.0602 70.5073
11.105 69.7146
11.1499 68.1424
11.1947 67.1154
11.2395 66.3156
11.2844 65.7177
11.3292 65.0123
11.374 64.2198
11.4189 63.6414
11.4637 62.8073
11.5086 62.099
11.5534 61.9783
11.5983 61.5063
11.6431 61.6057
11.688 61.2645
11.7328 60.7959
11.7777 60.5544
11.8225 60.6457
11.8674 60.9765
11.9122 62.1769
11.9571 66.2648
12.002 65.4248
12.0468 67.4064
12.0917 90.7317
12.1366 107.281
12.1814 114.204
12.2263 144.291
12.2712 187.856
12.3161 143.258
12.3609 75.6215
12.4058 63.7017
12.4507 62.8886
12.4956 62.672
12.5405 62.5598
12.5853 63.3723
12.6302 63.1468
12.6751 63.8638
12.72 64.7512
12.7649 65.619
12.8098 66.5449
12.8547 67.7155
12.8996 69.0289
12.9445 70.6929
12.9894 72.6653
13.0343 74.8083
13.0792 78.6571
13.1242 86.2421
13.1691 132.956
13.214 188.091
13.2589 198.758
13.3038 232.811
13.3487 334.981
13.3937 383.772
13.4386 219.344
13.4835 121.92
13.5285 155.652
13.5734 182.072
13.6183 186.139
13.6633 225.26
13.7082 319.016
13.7531 309.249
13.7981 160.792
13.843 88.683
13.888 80.2014
13.9329 76.8437
13.9779 75.3938
14.0228 73.9062
14.0678 72.407
14.1127 72.4583
14.1577 74.2823
14.2027 72.8224
14.2476 70.0981
14.2926 68.9798
14.3376 68.7073
14.3825 68.0701
14.4275 67.7974
14.4725 67.6906
14.5175 67.9049
14.5624 67.7175
14.6074 68.1389
14.6524 68.4858
14.6974 69.2513
14.7424 70.7816
14.7874 80.3869
14.8324 107.44
14.8774 120.556
14.9224 123.6
14.9674 141.646
15.0124 184.839
15.0574 206.257
15.1024 143.687
15.1474 83.1828
15.1924 70.9027
15.2374 68.621
15.2824 67.3267
15.3274 66.4336
15.3725 65.988
15.4175 65.4658
15.4625 65.3378
15.5076 64.7894
15.5526 65.0873
15.5976 65.2159
15.6426 66.1054
15.6877 73.4305
15.7327 95.0729
15.7778 107.244
15.8228 108.106
15.8679 119.542
15.9129 148.161
15.958 183.928
16.003 155.878
16.0481 90.8359
16.0931 66.3951
16.1382 61.6182
16.1833 60.0323
16.2283 58.4158
16.2734 57.8221
16.3185 56.8551
16.3636 56.1863
16.4086 55.3601
16.4537 54.9462
16.4988 54.7069
16.5439 54.7364
16.589 54.3754
16.6341 54.1742
16.6792 53.6976
16.7243 53.8092
16.7694 53.6613
16.8145 53.5435
16.8596 53.8281
16.9047 54.368
16.9498 54.523
16.9949 54.4765
17.04 54.9527
17.0851 56.318
17.1302 60.5909
17.1754 63.9011
17.2205 64.4126
17.2656 65.9443
17.3108 70.7026
17.3559 78.077
17.401 80.6782
17.4462 71.9248
17.4913 61.6153
17.5365 58.6676
17.5815 58.5692
17.6268 58.9579
17.6718 59.3924
17.7171 59.7943
17.7622 60.9432
17.8074 61.7011
17.8525 63.4624
17.8977 71.5891
17.9428 83.7308
17.9881 88.1054
18.0331 89.0463
18.0784 95.2096
18.1237 111.256
18.1688 138.436
18.214 144.352
18.2591 113.679
18.3044 87.8867
18.3495 84.9802
18.3948 92.8046
18.4399 101.937
18.4852 96.0893
18.5303 77.0002
18.5756 65.1391
18.6207 61.7427
18.666 60.5481
18.7112 59.5636
18.7565 58.9108
18.8016 58.4738
18.8469 57.9468
18.892 57.2877
18.9374 56.7991
18.9825 56.5611
19.0278 56.2882
19.073 56.3332
19.1183 56.8188
19.1635 59.361
19.2088 61.5596
19.254 61.9534
19.2993 62.2602
19.3447 64.141
19.3898 67.6877
19.4352 72.882
19.4804 72.4972
19.5257 64.007
19.5709 56.3969
19.6163 53.8194
19.6615 53.5536
19.7068 53.1835
19.752 52.9488
19.7974 53.0679
19.8426 54.3052
19.888 56.4345
19.9332 57.8294
19.9786 58.3783
20.0238 58.5316
20.0692 61.0781
20.1144 65.9
20.1598 71.5103
20.205 70.6822
20.2504 65.2797
20.2957 60.4095
20.3411 60.861
20.3863 63.9877
20.4318 64.3996
20.477 59.1886
20.5224 53.2453
20.5677 50.7183
20.6131 50.0577
20.6586 49.4249
20.7038 49.1907
20.7493 49.0559
20.7945 48.8789
20.84 48.7486
20.8853 48.6051
20.9307 48.2043
20.976 48.4325
21.0215 48.7625
21.0668 49.0912
21.1122 49.1145
21.1575 49.1683
21.203 49.2096
21.2483 49.7668
21.2938 50.8782
21.3391 50.9986
21.3846 50.2902
21.4299 48.983
21.4754 48.4821
21.5207 48.4798
21.5662 48.5622
21.6116 49.1031
21.6571 51.1646
21.7024 52.9347
21.7479 53.8401
21.7933 53.8701
21.8388 55.1386
21.8843 57.6095
21.9297 60.9677
21.9752 64.9035
22.0206 65.6055
22.0661 60.8125
22.1115 55.9547
22.157 54.9846
22.2024 55.9663
22.248 54.842
22.2933 52.4134
22.3389 49.8185
22.3843 49.0127
22.4299 48.4727
22.4753 48.4977
22.5208 48.4606
22.5662 48.434
22.6118 48.588
22.6572 48.7537
22.7028 49.9174
22.7483 51.0835
22.7939 51.6558
22.8393 51.7199
22.8849 52.0033
22.9303 52.5863
22.9759 54.253
23.0214 56.5213
23.067 57.8479
23.1126 56.0794
23.1581 52.3626
23.2037 49.5568
23.2492 48.9063
23.2948 49.4195
23.3403 50.7346
23.3859 51.5997
23.4314 51.4568
23.477 51.3303
23.5225 51.6992
23.5682 52.8155
23.6137 55.1016
23.6593 57.4651
23.7048 57.2925
23.7505 53.6658
23.796 48.9099
23.8417 46.6983
23.8872 45.7917
23.9329 45.3351
23.9784 44.9679
24.0241 44.6678
24.0697 44.4106
24.1154 44.1577
24.1609 44.0275
24.2066 43.7759
24.2522 43.7379
24.2979 43.4474
24.3434 43.2515
24.3892 43.0266
24.4349 42.88
24.4805 42.6408
24.5262 42.7788
24.5718 42.5853
24.6175 42.7349
24.6631 42.8809
24.7089 42.5985
24.7545 42.3662
24.8002 42.2099
24.8458 42.2888
24.8916 42.214
24.9372 42.4094
24.983 42.51
25.0286 42.7205
25.0744 43.0328
25.12 43.7428
25.1658 43.9001
25.2114 44.4309
25.2572 44.5725
25.3029 44.6061
25.3487 44.3801
25.3943 44.533
25.4402 44.7103
25.4858 44.3683
25.5316 42.844
25.5773 41.5744
25.6231 41.0076
25.669 40.6105
25.7147 40.6076
25.7605 40.5363
25.8062 40.6963
25.8521 40.9297
25.8977 40.7713
25.9436 40.7591
25.9893 40.5427
26.0352 40.8494
26.0809 40.7977
26.1268 41.305
26.1725 41.7544
26.2184 41.8032
26.2641 41.1969
26.31 40.8414
26.3557 40.5075
26.4017 40.4927
26.4474 40.6603
26.4933 40.6685
26.5391 40.9163
26.585 41.0324
26.6308 41.2441
26.6767 41.825
26.7225 42.3734
26.7684 42.2904
26.8142 41.8975
26.8601 41.0855
26.9059 40.5977
26.9519 40.1656
26.9979 39.676
27.0437 39.3558
27.0896 38.9842
27.1354 38.8945
27.1814 38.7999
27.2272 38.7504
27.2732 38.6542
27.3191 38.5064
27.3651 38.6078
27.4109 38.3405
27.4569 38.45
27.5027 38.3796
27.5488 38.4583
27.5946 38.4466
27.6407 38.5482
27.6865 38.5125
27.7326 38.3647
27.7784 38.3902
27.8245 38.0912
27.8703 38.2305
27.9164 38.1792
27.9623 38.3488
28.0084 38.5141
28.0543 38.6362
28.1003 38.808
28.1462 39.1317
28.1923 39.121
28.2384 38.6074
28.2843 38.1988
28.3304 37.7837
28.3764 37.4685
28.4225 36.9972
28.4684 36.5733
28.5145 36.0338
28.5605 36.0042
28.6066 35.8901
28.6526 35.7944
28.6987 35.6208
28.7447 35.4538
28.7908 35.351
28.8368 35.3338
28.8829 35.4166
28.9289 35.2605
28.9751 35.1471
29.0211 35.1796
29.0673 34.9381
29.1133 34.7907
29.1595 34.5702
29.2055 34.3291
29.2517 34.2605
29.2977 34.1039
29.3439 34.0504
29.3899 34.1269
29.4361 34.0286
29.4824 34.0397
29.5284 34.0636
29.5746 33.7477
29.6207 33.4051
29.6669 33.2327
29.713 33.0028
29.7593 32.8435
29.8053 32.9788
29.8516 32.7971
29.8977 32.8363
29.9439 32.6799
29.99 32.6468
30.0363 32.4508
30.0824 32.4733
30.1287 32.3111
30.1748 32.3339
30.2211 32.34
30.2673 32.1681
30.3136 32.4161
30.3597 32.3997
30.406 32.3889
30.4522 32.1622
30.4985 32.0254
30.5447 32.2041
30.591 32.0087
30.6372 32.0583
30.6835 32.0361
30.7297 32.0869
30.7761 32.1851
30.8224 32.1713
30.8686 32.1149
30.915 31.8574
30.9612 31.6557
31.0076 31.4309
31.0538 31.3433
31.1002 31.1786
31.1464 31.0111
31.1928 31.2054
31.2391 31.0859
31.2855 30.9979
31.3317 30.9244
31.3781 30.853
31.4244 30.8497
31.4708 30.6629
31.5171 30.7598
31.5636 30.8905
31.6098 30.7417
31.6563 30.7562
31.7026 30.566
31.7491 30.2587
31.7953 30.3348
31.8418 30.0861
31.8881 30.1151
31.9346 30.0534
31.9809 29.9746
32.0275 29.9896
32.074 29.9254
32.1203 29.7879
32.1668 29.6826
32.2132 29.602
32.2597 29.3842
32.306 29.4082
32.3526 29.0227
32.399 28.9569
32.4455 28.7926
32.4919 28.7433
32.5385 28.7012
32.5848 28.47
32.6314 28.5433
32.6778 28.5357
32.7244 28.3674
32.7708 28.2012
32.8174 28.2263
32.8638 28.0656
32.9104 28.1102
32.9569 28.0679
33.0035 27.9143
33.0499 27.8589
33.0966 27.7395
33.143 27.7801
33.1897 27.6683
33.2361 27.5265
33.2828 27.5925
33.3293 27.5343
33.3759 27.5115
33.4226 27.3748
33.4691 27.1964
33.5158 27.1766
33.5623 26.9982
33.609 26.8535
33.6555 26.702
33.7022 26.6526
33.7487 26.534
33.7954 26.557
33.842 26.4145
33.8887 26.3142
33.9353 26.3097
33.982 26.1946
34.0286 26.1586
34.0753 26.0535
34.1219 25.8868
34.1687 25.8415
34.2152 25.7811
34.262 25.6106
34.3086 25.5836
34.3554 25.5543
34.402 25.4806
34.4488 25.3158
34.4954 25.3117
34.5422 25.1526
34.5889 25.0972
34.6357 24.9094
34.6825 24.9412
34.7292 24.8307
34.776 24.8541
34.8227 24.7177
34.8695 24.6913
34.9162 24.5178
34.9631 24.4508
35.0098 24.4765
35.0566 24.3443
35.1033 24.3208
35.1502 24.3488
35.1969 24.1981
35.2438 24.0975
35.2906 24.0716
35.3375 24.0829
35.3842 23.9857
35.4311 23.9041
35.4779 23.8904
35.5248 23.9673
35.5716 23.8935
35.6185 23.7504
35.6653 23.669
35.7123 23.5583
35.759 23.5159
35.806 23.5117
35.8528 23.1847
35.8998 23.2838
35.9468 23.1356
35.9936 23.1291
36.0406 22.977
36.0874 23.0119
36.1345 22.8694
36.1813 22.8771
36.2283 22.7547
36.2752 22.649
36.3222 22.7677
36.3691 22.6006
36.4161 22.4536
36.463 22.4767
36.5101 22.479
36.557 22.3683
36.6041 22.251
36.651 22.2454
36.6981 22.1577
36.745 22.1305
36.7921 22.0627
36.839 21.8389
36.8861 21.8561
36.9331 21.7858
36.9802 21.6794
37.0272 21.644
37.0743 21.5284
37.1213 21.4387
37.1684 21.463
37.2154 21.3665
37.2626 21.2223
37.3098 21.2118
37.3568 21.1798
37.404 21.1553
37.451 21.0509
37.4982 21.0125
37.5452 20.823
37.5924 20.8043
37.6395 20.8184
37.6867 20.7129
37.7337 20.6663
37.781 20.5196
37.8281 20.5408
37.8753 20.402
37.9224 20.4104
37.9697 20.2494
38.0168 20.188
38.064 20.133
38.1111 20.162
38.1584 20.0383
38.2056 20.0087
38.2529 19.8925
38.3 19.8042
38.3473 19.805
38.3945 19.5865
38.4418 19.6562
38.489 19.5804
38.5363 19.5344
38.5837 19.4886
38.6309 19.3677
38.6782 19.341
38.7254 19.2517
38.7728 19.2007
38.82 19.1464
38.8674 19.1175
38.9146 18.9841
38.9621 18.9873
39.0093 18.9679
39.0567 18.8783
39.104 18.7674
39.1514 18.7347
39.1987 18.6757
39.2461 18.6752
39.2934 18.6225
39.3409 18.4769
39.3882 18.386
39.4356 18.4255
39.483 18.3315
39.5304 18.2704
39.5778 18.2768
39.6253 18.1832
39.6726 18.0924
39.7201 18.0636
39.7675 17.9806
39.815 17.9217
39.8624 17.8508
39.9099 17.8743
39.9575 17.7829
40.0049 17.7153
40.0525 17.6564
40.0999 17.6622
40.1474 17.6108
40.1949 17.4108
40.2425 17.4297
40.2899 17.3874
40.3375 17.3206
40.385 17.2505
40.4326 17.2059
40.48 17.13
40.5277 17.1169
40.5752 17.0851
40.6228 16.953
40.6703 16.8946
40.718 16.8982
40.7655 16.8587
40.8132 16.7521
40.8607 16.753
40.9084 16.6721
40.9559 16.6209
41.0036 16.5662
41.0512 16.5428
41.0989 16.5618
41.1465 16.3925
41.1942 16.3541
41.242 16.263
41.2896 16.2562
41.3373 16.1596
41.3849 16.1476
41.4327 16.066
41.4803 16.0211
41.5281 15.9403
41.5758 15.8942
41.6236 15.8405
41.6712 15.7711
41.7191 15.7186
41.7667 15.6924
41.8146 15.6436
41.8622 15.5907
41.9101 15.6171
41.9578 15.4119
42.0057 15.4824
42.0534 15.4164
42.1013 15.3473
42.149 15.3007
42.1969 15.2632
42.2446 15.2239
42.2925 15.1181
42.3403 15.0567
42.3882 15.0544
42.436 15.0328
42.4839 14.9333
42.5319 14.9354
42.5797 14.8618
42.6277 14.7903
42.6755 14.7756
42.7235 14.6345
42.7713 14.653
42.8193 14.5862
42.8671 14.5643
42.9152 14.4956
42.963 14.4385
43.0111 14.323
43.0589 14.2991
43.107 14.231
43.1549 14.2006
43.2029 14.1818
43.2508 14.1781
43.2989 14.1142
43.3468 13.9762
43.3949 13.9844
43.4429 13.9081
43.491 13.9076
43.5389 13.8497
43.5871 13.8008
43.635 13.7258
43.6832 13.7639
43.7312 13.6279
43.7793 13.6302
43.8273 13.5389
43.8755 13.5272
43.9237 13.461
43.9717 13.419
44.0199 13.3542
44.068 13.2983
44.1162 13.268
44.1642 13.2514
44.2125 13.2109
44.2606 13.1148
44.3088 13.0996
44.3569 13.0259
44.4052 13.0916
44.4533 12.9536
44.5016 12.8717
44.5497 12.8963
44.598 12.8231
44.6461 12.7938
44.6945 12.7338
44.7426 12.654
44.791 12.6352
44.8391 12.5766
44.8875 12.5812
44.9357 12.504
44.984 12.4693
45.0322 12.4037
45.0806 12.3753
45.1288 12.3226
45.1773 12.2844
45.2257 12.2945
45.2739 12.1649
45.3224 12.1387
45.3706 12.1091
45.4191 12.0257
45.4673 12.0106
45.5158 12.0208
45.5641 11.9246
45.6126 11.8876
45.6609 11.7985
45.7094 11.8256
45.7577 11.7628
45.8063 11.6737
45.8546 11.6849
45.9031 11.6562
45.9515 11.6074
46.0001 11.57
46.0484 11.5447
46.097 11.4916
46.1454 11.4284
46.194 11.3953
46.2424 11.3455
46.291 11.3421
46.3395 11.2824
46.3881 11.1835
46.4365 11.226
46.4852 11.1238
46.5337 11.1043
46.5823 11.0815
46.631 11.0477
46.6795 10.9969
46.7282 11.0065
46.7767 10.8807
46.8254 10.8188
46.8739 10.803
46.9226 10.7702
46.9712 10.7476
47.0199 10.6889
47.0685 10.6851
47.1173 10.6155
47.1658 10.5994
47.2146 10.533
47.2632 10.5418
47.312 10.4961
47.3606 10.4072
47.4095 10.3735
47.4581 10.3477
47.5069 10.304
47.5556 10.2934
47.6044 10.2192
47.6531 10.2011
47.702 10.1389
47.7507 10.1023
47.7996 10.0797
47.8483 10.0748
47.8972 10.039
47.9461 10.0098
47.9948 9.94411
48.0438 9.89816
48.0925 9.89397
48.1415 9.89759
48.1902 9.76843
48.2392 9.77092
48.288 9.74344
48.337 9.72533
48.3858 9.66228
48.4348 9.62208
48.4837 9.58992
48.5327 9.55737
48.5815 9.51178
48.6306 9.49837
48.6795 9.45439
48.7285 9.41633
48.7774 9.42762
48.8265 9.37288
48.8754 9.30369
48.9245 9.29386
48.9734 9.26485
49.0226 9.2246
49.0715 9.18212
49.1206 9.1377
49.1696 9.10504
49.2188 9.08465
49.2679 9.03905
49.3169 8.97684
49.3661 8.98811
49.4151 8.93254
49.4643 8.91273
49.5134 8.84292
49.5626 8.8309
49.6117 8.81939
49.6609 8.79339
49.71 8.69913
49.7592 8.70828
49.8083 8.6907
49.8576 8.61956
49.9067 8.61533
49.956 8.60286
50.0052 8.51838
50.0545 8.52205
50.1036 8.50504
50.153 8.4082
50.2022 8.42612
50.2515 8.38678
50.3007 8.32256
50.3501 8.27918
50.3993 8.2813
50.4487 8.27622
50.498 8.21103
50.5474 8.18182
50.5966 8.14607
50.6461 8.14196
50.6955 8.06379
50.7448 8.07021
50.7943 8.03041
50.8436 8.01117
50.8931 7.98521
50.9424 7.94808
50.9919 7.90266
51.0413 7.88792
51.0908 7.84713
51.1402 7.81654
51.1897 7.76484
51.2391 7.76401
51.2887 7.73203
51.3381 7.69648
51.3877 7.66464
51.4371 7.62761
51.4867 7.58615
51.5362 7.61223
51.5858 7.50397
51.6353 7.47917
51.6849 7.44992
51.7344 7.43275
51.7841 7.3814
51.8336 7.34668
51.8833 7.34889
51.9328 7.32764
51.9826 7.26499
52.0323 7.22658
52.0818 7.21427
52.1316 7.19054
52.1812 7.17626
52.231 7.14899
52.2806 7.12411
52.3304 7.0713
52.38 7.06203
52.4298 6.97739
52.4794 6.93619
52.5293 6.94598
52.5789 6.93952
52.6288 6.90952
52.6785 6.86629
52.7284 6.85472
52.7781 6.83167
52.828 6.81093
52.8777 6.73952
52.9276 6.74514
52.9774 6.69939
53.0273 6.67097
53.0771 6.61656
53.1271 6.64941
53.1769 6.57466
53.2269 6.5748
53.2767 6.53782
53.3267 6.48445
53.3765 6.49897
53.4266 6.44645
53.4766 6.39565
53.5265 6.35294
53.5765 6.3985
53.6264 6.37285
53.6765 6.35271
53.7264 6.3058
53.7765 6.28019
53.8265 6.21857
53.8766 6.22262
53.9266 6.17608
53.9767 6.10989
54.0267 6.09041
54.0769 6.08485
54.1269 6.03142
54.1771 6.01284
54.2271 5.99064
54.2773 5.90315
54.3274 5.8793
54.3776 5.83283
54.4277 5.85331
54.478 5.80727
54.528 5.77708
54.5783 5.67838
54.6285 5.68876
54.6788 5.64967
54.7289 5.61631
54.7792 5.5567
54.8296 5.433
54.8798 5.41715
54.9301 5.39954
54.9803 5.35289
55.0307 5.35368
55.0809 5.3238
55.1314 5.2772
55.1816 5.19575
55.232 5.13041
55.2823 5.09397
55.3328 5.05789
55.383 4.98015
55.4335 4.93319
55.4838 4.98042
55.5344 4.86752
55.5847 4.81109
55.6352 4.7742
55.6856 4.75881
55.7361 4.72893