File: XRD/Ni3Fe_FD0194.xy
TT I
1.27165 8.27815
1.31627 6.88501
1.36089 7.32705
1.40551 6.70969
1.45013 6.71059
1.49476 6.57628
1.53938 5.92248
1.584 6.34796
1.62863 5.49581
1.67325 6.06861
1.71787 5.81641
1.7625 5.64394
1.80712 5.49352
1.85174 4.95661
1.89636 5.7016
1.94099 5.78096
1.98562 5.12956
2.03025 5.28154
2.07487 4.88495
2.11949 5.35198
2.16411 4.98083
2.20874 4.62801
2.25338 4.57811
2.298 4.98456
2.34263 4.5819
2.38725 4.44664
2.43188 4.43042
2.4765 4.60272
2.52115 4.93939
2.56577 5.33677
2.6104 5.69127
2.65503 5.24714
2.69965 6.27002
2.7443 5.76117
2.78893 7.34988
2.83356 7.12861
2.87818 7.81652
2.92281 8.71731
2.96744 9.1399
3.01209 10.1091
3.05672 11.3286
3.10135 12.3093
3.14599 13.0309
3.19062 13.6487
3.23527 15.4558
3.2799 15.7601
3.32454 16.9138
3.36917 17.7727
3.4138 19.2651
3.45844 19.8172
3.50309 20.9447
3.54773 21.8264
3.59237 22.8582
3.637 23.3418
3.68164 24.2863
3.7263 25.1513
3.77094 26.4804
3.81558 27.1422
3.86022 27.9087
3.90486 29.3599
3.9495 29.7347
3.99416 30.7618
4.0388 32.2883
4.08344 33.8527
4.12809 34.5349
4.17273 36.0913
4.21738 37.7744
4.26204 38.7239
4.30669 40.0827
4.35133 42.1542
4.39598 43.7973
4.44063 46.0215
4.4853 48.0432
4.52995 50.0907
4.5746 52.6805
4.61925 55.0146
4.6639 57.6198
4.70855 60.676
4.75322 63.5688
4.79788 67.1012
4.84253 71.1439
4.88719 75.4376
4.93184 80.6876
4.97652 88.3998
5.02118 96.6039
5.06583 107.251
5.11049 123.802
5.15515 162.401
5.19981 636.466
5.24449 4038.01
5.28916 9551.57
5.33382 5018.67
5.37848 336.587
5.42315 159.853
5.46783 130.81
5.5125 119.336
5.55716 113.367
5.60183 107.344
5.6465 104.545
5.69117 103.306
5.73586 101.386
5.78053 100.191
5.8252 100.823
5.86988 104.121
5.91455 110.602
5.95924 129.674
6.00392 330.126
6.0486 1474.87
6.09328 3292.99
6.13795 3846.78
6.18263 478.89
6.22733 116.774
6.27201 90.8889
6.3167 81.5423
6.36138 75.9333
6.40606 72.4537
6.45075 70.0808
6.49545 67.9364
6.54014 66.4392
6.58483 64.6436
6.62952 63.3086
6.67421 61.9482
6.71892 61.1371
6.76361 60.0962
6.8083 59.3781
6.853 58.5261
6.89769 58.0704
6.94239 57.2718
6.98711 56.7978
7.03181 56.2373
7.07651 55.8763
7.12121 55.9005
7.16591 55.885
7.21063 55.4776
7.25533 55.3372
7.30004 55.0933
7.34475 55.3706
7.38945 55.6733
7.43416 55.0833
7.47889 55.6733
7.5236 58.9642
7.56831 62.4679
7.61303 57.4617
7.65774 56.832
7.70247 57.3573
7.74719 57.9659
7.79191 58.4861
7.83663 58.5622
7.88135 59.594
7.92607 60.4799
7.97081 61.8126
8.01553 63.2462
8.06026 64.5667
8.10498 65.7678
8.14971 67.9981
8.19446 69.6515
8.23919 72.5531
8.28392 75.8811
8.32865 78.4009
8.37339 83.4699
8.41812 89.4484
8.46288 102.336
8.50761 208.435
8.55235 627.248
8.59709 1014.06
8.64183 1769.2
8.68658 1395.36
8.73134 281.987
8.77609 114.452
8.82083 101.182
8.86558 95.6204
8.91033 92.4518
8.9551 90.3727
8.99985 89.0998
9.04461 88.5072
9.08936 87.6183
9.13412 86.4161
9.17888 86.273
9.22365 91.3287
9.26841 94.9952
9.31318 89.401
9.35794 87.6294
9.4027 87.521
9.44749 88.2441
9.49226 88.7023
9.53703 89.9539
9.5818 92.2432
9.62657 92.7975
9.67134 94.8027
9.71614 97.1004
9.76091 99.5427
9.80569 102.025
9.85047 105.463
9.89525 110.885
9.94005 122.185
9.98484 223.535
10.0296 562.784
10.0744 795.737
10.1192 1258.84
10.164 1691.83
10.2088 724.398
10.2536 174.337
10.2984 119.434
10.3432 112.772
10.388 110.683
10.4328 136.619
10.4776 224.021
10.5224 281.571
10.5672 395.585
10.612 530.837
10.6568 311.827
10.7017 119.455
10.7465 93.3017
10.7913 88.2875
10.8361 85.2225
10.8809 82.8323
10.9257 80.4186
10.9706 78.8
11.0154 77.476
11.0602 75.6329
11.105 74.3845
11.1499 72.7975
11.1947 72.0112
11.2395 70.8859
11.2844 70.2416
11.3292 69.3721
11.374 68.6765
11.4189 68.3231
11.4637 67.4711
11.5086 66.7177
11.5534 66.2548
11.5983 66.1773
11.6431 65.8469
11.688 65.3404
11.7328 65.1108
11.7777 64.9235
11.8225 64.9133
11.8674 65.0744
11.9122 65.8711
11.9571 68.0265
12.002 67.6838
12.0468 73.3401
12.0917 95.7663
12.1366 111.954
12.1814 132.24
12.2263 172.864
12.2712 188.108
12.3161 118.084
12.3609 72.6695
12.4058 67.1155
12.4507 66.7921
12.4956 67.021
12.5405 66.7739
12.5853 67.628
12.6302 67.5393
12.6751 68.3664
12.72 69.3372
12.7649 70.3671
12.8098 71.1178
12.8547 72.3906
12.8996 74.1955
12.9445 75.4917
12.9894 77.8423
13.0343 79.8748
13.0792 84.0415
13.1242 94.2593
13.1691 144.185
13.214 188.88
13.2589 222.244
13.3038 287.33
13.3487 387.583
13.3937 341.115
13.4386 169.236
13.4835 122.498
13.5285 159.392
13.5734 184.134
13.6183 214.378
13.6633 275.69
13.7082 351.624
13.7531 261.016
13.7981 126.853
13.843 88.7728
13.888 84.4344
13.9329 81.3486
13.9779 80.1292
14.0228 78.4071
14.0678 76.9296
14.1127 76.7054
14.1577 76.721
14.2027 75.4284
14.2476 73.9747
14.2926 73.1501
14.3376 72.8987
14.3825 72.5216
14.4275 71.8693
14.4725 72.1479
14.5175 72.2668
14.5624 72.0029
14.6074 72.465
14.6524 72.9225
14.6974 73.6819
14.7424 75.8747
14.7874 88.6613
14.8324 110.807
14.8774 123.652
14.9224 138.741
14.9674 168.769
15.0124 208.515
15.0574 187.97
15.1024 116.736
15.1474 79.4247
15.1924 74.0085
15.2374 72.4037
15.2824 71.0446
15.3274 70.3123
15.3725 70.0688
15.4175 69.6818
15.4625 69.1273
15.5076 68.902
15.5526 69.247
15.5976 68.9799
15.6426 70.1745
15.6877 80.3538
15.7327 98.0122
15.7778 108.576
15.8228 118.991
15.8679 140.134
15.9129 173.065
15.958 178.432
16.003 127.892
16.0481 79.2531
16.0931 66.9878
16.1382 64.1359
16.1833 63.049
16.2283 61.5783
16.2734 60.8311
16.3185 60.0501
16.3636 59.3691
16.4086 58.8438
16.4537 58.103
16.4988 57.8436
16.5439 57.8845
16.589 57.4189
16.6341 57.1207
16.6792 56.8066
16.7243 57.0163
16.7694 56.8578
16.8145 56.8622
16.8596 57.177
16.9047 57.4127
16.9498 57.667
16.9949 57.737
17.04 58.237
17.0851 60.2475
17.1302 63.945
17.1754 66.5503
17.2205 68.4353
17.2656 71.8244
17.3108 78.1415
17.3559 83.7262
17.401 79.9791
17.4462 68.9998
17.4913 62.6828
17.5365 61.8475
17.5815 61.9978
17.6268 62.249
17.6718 62.8598
17.7171 63.1777
17.7622 64.3677
17.8074 65.2502
17.8525 67.6622
17.8977 76.9705
17.9428 85.7389
17.9881 89.833
18.0331 96.5716
18.0784 107.461
18.1237 126.982
18.1688 143.937
18.214 129.186
18.2591 100.777
18.3044 89.6926
18.3495 92.7316
18.3948 101.307
18.4399 103.032
18.4852 89.2512
18.5303 72.933
18.5756 66.1827
18.6207 64.4694
18.666 63.2019
18.7112 62.7095
18.7565 61.7181
18.8016 61.3935
18.8469 60.7121
18.892 60.449
18.9374 59.7195
18.9825 59.6006
19.0278 59.3163
19.073 59.3013
19.1183 60.4504
19.1635 62.1041
19.2088 63.8539
19.254 64.6569
19.2993 66.3441
19.3447 69.1895
19.3898 73.1476
19.4352 75.2825
19.4804 70.3324
19.5257 62.3126
19.5709 57.4313
19.6163 56.4289
19.6615 56.2788
19.7068 55.8318
19.752 55.6374
19.7974 56.0438
19.8426 57.4616
19.888 59.1268
19.9332 59.9137
19.9786 60.8888
20.0238 62.369
20.0692 66.0208
20.1144 70.6824
20.1598 73.4757
20.205 69.6416
20.2504 65.1181
20.2957 63.3715
20.3411 65.0051
20.3863 67.0173
20.4318 63.9826
20.477 58.2424
20.5224 54.1797
20.5677 52.8423
20.6131 52.5484
20.6586 51.8556
20.7038 51.7941
20.7493 51.4655
20.7945 51.2139
20.84 51.1347
20.8853 50.9777
20.9307 50.7182
20.976 51.1292
21.0215 50.9242
21.0668 51.511
21.1122 51.6023
21.1575 51.8251
21.203 52.0526
21.2483 52.7013
21.2938 53.8138
21.3391 52.9205
21.3846 51.9534
21.4299 50.962
21.4754 50.6704
21.5207 50.7894
21.5662 50.9969
21.6116 51.7465
21.6571 53.473
21.7024 54.8022
21.7479 55.6845
21.7933 56.5737
21.8388 58.7977
21.8843 61.6226
21.9297 65.1183
21.9752 66.8414
22.0206 64.3358
22.0661 59.6329
22.1115 57.2883
22.157 57.3122
22.2024 57.5294
22.248 55.2415
22.2933 52.8317
22.3389 51.5257
22.3843 50.8504
22.4299 50.6
22.4753 50.8182
22.5208 50.6937
22.5662 50.7028
22.6118 50.9338
22.6572 51.113
22.7028 52.1981
22.7483 52.9659
22.7939 53.4076
22.8393 54.0022
22.8849 54.8837
22.9303 55.8732
22.9759 57.8188
23.0214 59.0056
23.067 58.4654
23.1126 55.3912
23.1581 52.5271
23.2037 51.2161
23.2492 51.0138
23.2948 51.7538
23.3403 52.4679
23.3859 52.9948
23.4314 53.2387
23.477 53.8591
23.5225 54.6131
23.5682 56.0555
23.6137 58.1735
23.6593 58.6587
23.7048 56.3816
23.7505 52.4426
23.796 49.4146
23.8417 48.222
23.8872 47.5436
23.9329 47.4117
23.9784 46.9049
24.0241 46.6867
24.0697 46.3956
24.1154 46.1589
24.1609 45.8602
24.2066 45.6794
24.2522 45.4924
24.2979 45.3919
24.3434 45.2998
24.3892 44.937
24.4349 44.9749
24.4805 44.7561
24.5262 44.8314
24.5718 44.7393
24.6175 44.7132
24.6631 44.6768
24.7089 44.5334
24.7545 44.2636
24.8002 44.01
24.8458 44.2931
24.8916 44.0578
24.9372 44.2322
24.983 44.5618
25.0286 44.8923
25.0744 45.1019
25.12 45.4575
25.1658 46.0314
25.2114 46.1628
25.2572 46.27
25.3029 46.1719
25.3487 46.184
25.3943 46.173
25.4402 45.9931
25.4858 45.0517
25.5316 43.7446
25.5773 42.9125
25.6231 42.6961
25.669 42.3094
25.7147 42.2849
25.7605 42.2202
25.8062 42.506
25.8521 42.6259
25.8977 42.4892
25.9436 42.3727
25.9893 42.4155
26.0352 42.8191
26.0809 42.766
26.1268 43.1751
26.1725 43.3805
26.2184 42.9084
26.2641 42.4088
26.31 42.2186
26.3557 42.0904
26.4017 41.9953
26.4474 42.2113
26.4933 42.3393
26.5391 42.6376
26.585 42.944
26.6308 43.1859
26.6767 43.4807
26.7225 43.8041
26.7684 43.4774
26.8142 42.8811
26.8601 42.2404
26.9059 41.9251
26.9519 41.3945
26.9979 41.0764
27.0437 40.6239
27.0896 40.4081
27.1354 40.4029
27.1814 40.3523
27.2272 40.2154
27.2732 40.3321
27.3191 40.0999
27.3651 40.0654
27.4109 39.8107
27.4569 40.0019
27.5027 39.9198
27.5488 40.1895
27.5946 40.0003
27.6407 39.9582
27.6865 39.8961
27.7326 39.6578
27.7784 39.7073
27.8245 39.5869
27.8703 39.5053
27.9164 39.8519
27.9623 39.6796
28.0084 40.0366
28.0543 40.4229
28.1003 40.3436
28.1462 40.4673
28.1923 40.2787
28.2384 39.5206
28.2843 39.2377
28.3304 38.8726
28.3764 38.5027
28.4225 37.9992
28.4684 37.7471
28.5145 37.554
28.5605 37.4212
28.6066 37.1961
28.6526 37.1341
28.6987 37.0492
28.7447 36.9001
28.7908 36.8058
28.8368 36.7316
28.8829 36.8209
28.9289 36.794
28.9751 36.6443
29.0211 36.4796
29.0673 36.2984
29.1133 36.199
29.1595 35.965
29.2055 35.6967
29.2517 35.753
29.2977 35.5853
29.3439 35.648
29.3899 35.5736
29.4361 35.5201
29.4824 35.4005
29.5284 35.3234
29.5746 34.9846
29.6207 34.7099
29.6669 34.4965
29.713 34.4104
29.7593 34.257
29.8053 34.3093
29.8516 34.2435
29.8977 34.2693
29.9439 34.0142
29.99 33.9588
30.0363 33.7507
30.0824 33.8734
30.1287 33.6404
30.1748 33.6821
30.2211 33.7901
30.2673 33.6624
30.3136 33.7583
30.3597 33.7248
30.406 33.6644
30.4522 33.3943
30.4985 33.3755
30.5447 33.4579
30.591 33.3284
30.6372 33.3544
30.6835 33.3106
30.7297 33.3076
30.7761 33.388
30.8224 33.4052
30.8686 33.2006
30.915 32.9515
30.9612 32.9397
31.0076 32.601
31.0538 32.478
31.1002 32.3974
31.1464 32.2789
31.1928 32.1877
31.2391 32.2645
31.2855 32.1835
31.3317 32.0776
31.3781 32.1039
31.4244 32.0504
31.4708 31.9926
31.5171 31.959
31.5636 32.0834
31.6098 31.8161
31.6563 31.674
31.7026 31.5256
31.7491 31.4565
31.7953 31.4278
31.8418 31.3681
31.8881 31.3004
31.9346 31.3248
31.9809 31.238
32.0275 31.0781
32.074 31.0898
32.1203 31.0016
32.1668 30.7299
32.2132 30.5432
32.2597 30.4588
32.306 30.327
32.3526 30.1703
32.399 30.1767
32.4455 30.0796
32.4919 29.9373
32.5385 29.8175
32.5848 29.7321
32.6314 29.6912
32.6778 29.5988
32.7244 29.5188
32.7708 29.2454
32.8174 29.3782
32.8638 29.1421
32.9104 29.2669
32.9569 29.1245
33.0035 29.0584
33.0499 29.0264
33.0966 28.9442
33.143 28.9321
33.1897 28.7942
33.2361 28.6725
33.2828 28.7082
33.3293 28.5127
33.3759 28.5075
33.4226 28.3595
33.4691 28.2726
33.5158 28.1446
33.5623 28.0271
33.609 27.8736
33.6555 27.783
33.7022 27.6942
33.7487 27.5901
33.7954 27.5029
33.842 27.3945
33.8887 27.3875
33.9353 27.3595
33.982 27.2067
34.0286 27.075
34.0753 27.0821
34.1219 26.9205
34.1687 26.8321
34.2152 26.7752
34.262 26.6259
34.3086 26.6017
34.3554 26.5728
34.402 26.3838
34.4488 26.3333
34.4954 26.2506
34.5422 26.1988
34.5889 26.0842
34.6357 25.9411
34.6825 25.8819
34.7292 25.7818
34.776 25.7948
34.8227 25.6827
34.8695 25.577
34.9162 25.532
34.9631 25.4783
35.0098 25.5206
35.0566 25.3498
35.1033 25.3107
35.1502 25.254
35.1969 25.1586
35.2438 25.1204
35.2906 25.0261
35.3375 25.008
35.3842 24.8806
35.4311 24.875
35.4779 24.8705
35.5248 24.8271
35.5716 24.7264
35.6185 24.6148
35.6653 24.5432
35.7123 24.5098
35.759 24.4104
35.806 24.3475
35.8528 24.1294
35.8998 24.1637
35.9468 23.9834
35.9936 24.06
36.0406 23.8127
36.0874 23.9558
36.1345 23.7778
36.1813 23.6763
36.2283 23.5594
36.2752 23.6118
36.3222 23.5909
36.3691 23.5037
36.4161 23.2393
36.463 23.3612
36.5101 23.3755
36.557 23.2112
36.6041 23.0939
36.651 23.149
36.6981 23.0294
36.745 22.905
36.7921 22.8414
36.839 22.7391
36.8861 22.6613
36.9331 22.6843
36.9802 22.5831
37.0272 22.5067
37.0743 22.3284
37.1213 22.356
37.1684 22.2813
37.2154 22.207
37.2626 22.0691
37.3098 22.0215
37.3568 21.9896
37.404 21.9907
37.451 21.798
37.4982 21.7653
37.5452 21.6688
37.5924 21.6339
37.6395 21.6639
37.6867 21.5407
37.7337 21.4993
37.781 21.3804
37.8281 21.2632
37.8753 21.2252
37.9224 21.2323
37.9697 21.0876
38.0168 21.0318
38.064 20.9796
38.1111 20.9398
38.1584 20.7628
38.2056 20.7562
38.2529 20.7618
38.3 20.5514
38.3473 20.5763
38.3945 20.4981
38.4418 20.4747
38.489 20.3895
38.5363 20.2604
38.5837 20.1719
38.6309 20.1914
38.6782 20.0946
38.7254 20.0409
38.7728 20.0256
38.82 19.887
38.8674 19.8453
38.9146 19.7974
38.9621 19.7741
39.0093 19.6963
39.0567 19.5857
39.104 19.5867
39.1514 19.4402
39.1987 19.4826
39.2461 19.3671
39.2934 19.3288
39.3409 19.2025
39.3882 19.0642
39.4356 19.0408
39.483 18.973
39.5304 18.9936
39.5778 19.0059
39.6253 18.888
39.6726 18.8191
39.7201 18.8138
39.7675 18.6988
39.815 18.7291
39.8624 18.5818
39.9099 18.5779
39.9575 18.4417
40.0049 18.4024
40.0525 18.4062
40.0999 18.3305
40.1474 18.2512
40.1949 18.1346
40.2425 18.03
40.2899 18.0686
40.3375 17.9693
40.385 17.9399
40.4326 17.8407
40.48 17.8029
40.5277 17.8043
40.5752 17.6911
40.6228 17.6213
40.6703 17.6066
40.718 17.5354
40.7655 17.5186
40.8132 17.4209
40.8607 17.4138
40.9084 17.2749
40.9559 17.2922
41.0036 17.1775
41.0512 17.1745
41.0989 17.1458
41.1465 17.0487
41.1942 17.0105
41.242 16.8958
41.2896 16.9267
41.3373 16.8047
41.3849 16.7192
41.4327 16.6737
41.4803 16.6175
41.5281 16.5743
41.5758 16.5005
41.6236 16.4102
41.6712 16.3906
41.7191 16.3195
41.7667 16.3337
41.8146 16.2732
41.8622 16.1936
41.9101 16.1666
41.9578 15.9877
42.0057 16.0099
42.0534 16.0059
42.1013 15.8951
42.149 15.8549
42.1969 15.7775
42.2446 15.7479
42.2925 15.7336
42.3403 15.6309
42.3882 15.6481
42.436 15.5735
42.4839 15.4455
42.5319 15.4315
42.5797 15.3619
42.6277 15.3728
42.6755 15.2881
42.7235 15.2653
42.7713 15.2384
42.8193 15.1751
42.8671 15.1066
42.9152 15.0192
42.963 15.0172
43.0111 14.8788
43.0589 14.8634
43.107 14.8614
43.1549 14.7874
43.2029 14.6983
43.2508 14.7316
43.2989 14.6168
43.3468 14.5222
43.3949 14.4882
43.4429 14.4802
43.491 14.4489
43.5389 14.3821
43.5871 14.3269
43.635 14.2413
43.6832 14.256
43.7312 14.1771
43.7793 14.1374
43.8273 14.1053
43.8755 14.0344
43.9237 13.9829
43.9717 13.9841
44.0199 13.8749
44.068 13.8712
44.1162 13.7695
44.1642 13.7718
44.2125 13.7015
44.2606 13.6349
44.3088 13.6071
44.3569 13.5792
44.4052 13.4745
44.4533 13.4994
44.5016 13.3374
44.5497 13.3959
44.598 13.273
44.6461 13.2763
44.6945 13.1957
44.7426 13.2268
44.791 13.1188
44.8391 13.1079
44.8875 13.0745
44.9357 13.0169
44.984 12.9512
45.0322 12.9098
45.0806 12.8418
45.1288 12.837
45.1773 12.7458
45.2257 12.7254
45.2739 12.6927
45.3224 12.6158
45.3706 12.6337
45.4191 12.5176
45.4673 12.4961
45.5158 12.4435
45.5641 12.4022
45.6126 12.3645
45.6609 12.3323
45.7094 12.2815
45.7577 12.2145
45.8063 12.1433
45.8546 12.1307
45.9031 12.118
45.9515 12.1009
46.0001 11.9945
46.0484 11.9747
46.097 11.9336
46.1454 11.9013
46.194 11.8509
46.2424 11.8103
46.291 11.7503
46.3395 11.7169
46.3881 11.6725
46.4365 11.6158
46.4852 11.6073
46.5337 11.5277
46.5823 11.4898
46.631 11.4543
46.6795 11.4153
46.7282 11.3886
46.7767 11.3097
46.8254 11.2783
46.8739 11.2186
46.9226 11.1459
46.9712 11.1211
47.0199 11.1214
47.0685 11.083
47.1173 11.0228
47.1658 10.9869
47.2146 10.9512
47.2632 10.9094
47.312 10.8843
47.3606 10.8319
47.4095 10.7919
47.4581 10.7727
47.5069 10.7327
47.5556 10.6841
47.6044 10.6084
47.6531 10.6025
47.702 10.5355
47.7507 10.5148
47.7996 10.439
47.8483 10.4262
47.8972 10.4121
47.9461 10.3651
47.9948 10.3261
48.0438 10.2829
48.0925 10.2857
48.1415 10.1987
48.1902 10.1582
48.2392 10.1813
48.288 10.1517
48.337 10.0676
48.3858 10.0129
48.4348 10.0154
48.4837 9.96247
48.5327 9.91207
48.5815 9.88057
48.6306 9.90095
48.6795 9.83041
48.7285 9.78697
48.7774 9.74534
48.8265 9.72223
48.8754 9.69013
48.9245 9.70122
48.9734 9.59236
49.0226 9.59127
49.0715 9.5425
49.1206 9.47699
49.1696 9.45314
49.2188 9.41266
49.2679 9.40968
49.3169 9.35874
49.3661 9.32533
49.4151 9.28324
49.4643 9.27525
49.5134 9.21566
49.5626 9.16272
49.6117 9.15487
49.6609 9.15505
49.71 9.06637
49.7592 9.0521
49.8083 9.01295
49.8576 8.98341
49.9067 8.92531
49.956 8.91749
50.0052 8.8962
50.0545 8.83246
50.1036 8.76739
50.153 8.74568
50.2022 8.72898
50.2515 8.66762
50.3007 8.65668
50.3501 8.62323
50.3993 8.57986
50.4487 8.54782
50.498 8.53162
50.5474 8.53885
50.5966 8.47337
50.6461 8.4434
50.6955 8.39721
50.7448 8.35706
50.7943 8.32342
50.8436 8.29241
50.8931 8.30268
50.9424 8.24813
50.9919 8.19279
51.0413 8.2043
51.0908 8.12746
51.1402 8.12356
51.1897 8.08596
51.2391 8.05022
51.2887 7.97597
51.3381 7.96647
51.3877 7.95417
51.4371 7.91646
51.4867 7.87137
51.5362 7.86782
51.5858 7.81872
51.6353 7.75938
51.6849 7.72887
51.7344 7.73531
51.7841 7.66932
51.8336 7.70528
51.8833 7.61223
51.9328 7.59037
51.9826 7.55854
52.0323 7.54252
52.0818 7.50372
52.1316 7.46162
52.1812 7.47731
52.231 7.40514
52.2806 7.36457
52.3304 7.3124
52.38 7.28982
52.4298 7.26971
52.4794 7.24062
52.5293 7.22786
52.5789 7.19209
52.6288 7.12896
52.6785 7.08064
52.7284 7.11263
52.7781 7.06611
52.828 7.0011
52.8777 6.98971
52.9276 7.02348
52.9774 6.96341
53.0273 6.91381
53.0771 6.91045
53.1271 6.8942
53.1769 6.86595
53.2269 6.81803
53.2767 6.79375
53.3267 6.77084
53.3765 6.75195
53.4266 6.71356
53.4766 6.62767
53.5265 6.58121
53.5765 6.63987
53.6264 6.60633
53.6765 6.51156
53.7264 6.51768
53.7765 6.53083
53.8265 6.44705
53.8766 6.42341
53.9266 6.40197
53.9767 6.36775
54.0267 6.35644
54.0769 6.28929
54.1269 6.29092
54.1771 6.26223
54.2271 6.22781
54.2773 6.2062
54.3274 6.16266
54.3776 6.14586
54.4277 6.04697
54.478 6.03552
54.528 5.99572
54.5783 5.95903
54.6285 5.86676
54.6788 5.82026
54.7289 5.81923
54.7792 5.70751
54.8296 5.68996
54.8798 5.63072
54.9301 5.656
54.9803 5.56467
55.0307 5.60938
55.0809 5.50216
55.1314 5.45837
55.1816 5.39417
55.232 5.37723
55.2823 5.3234
55.3328 5.25286
55.383 5.18839
55.4335 5.21688
55.4838 5.14118
55.5344 5.07684
55.5847 5.07098
55.6352 4.99745
55.6856 4.93784
55.7361 4.935