File: XRD/Ni3Fe_FD0368.xy
TT I
1.27165 7.71774
1.31627 7.30347
1.36089 7.47127
1.40551 6.167
1.45013 5.90327
1.49476 5.86768
1.53938 6.14351
1.584 5.72865
1.62863 5.58068
1.67325 5.18235
1.71787 5.88762
1.7625 5.17276
1.80712 4.55836
1.85174 4.87278
1.89636 4.91863
1.94099 5.32339
1.98562 4.63978
2.03025 4.54268
2.07487 4.42263
2.11949 4.84689
2.16411 4.56889
2.20874 8.74052
2.25338 11.1838
2.298 5.39783
2.34263 4.8476
2.38725 5.59852
2.43188 6.27081
2.4765 5.82095
2.52115 6.49564
2.56577 6.76845
2.6104 7.41803
2.65503 6.76482
2.69965 7.45332
2.7443 7.4824
2.78893 7.43955
2.83356 8.77862
2.87818 8.79663
2.92281 8.49658
2.96744 8.81104
3.01209 10.4814
3.05672 11.1227
3.10135 12.0075
3.14599 12.7319
3.19062 13.8217
3.23527 14.6572
3.2799 15.6416
3.32454 16.7276
3.36917 18.2517
3.4138 18.8085
3.45844 19.9488
3.50309 21.0044
3.54773 21.7929
3.59237 23.4655
3.637 50.1195
3.68164 37.2323
3.7263 25.7446
3.77094 25.6923
3.81558 26.5092
3.86022 27.2629
3.90486 28.8974
3.9495 30.1348
3.99416 30.9358
4.0388 31.9553
4.08344 33.8349
4.12809 35.0898
4.17273 36.4843
4.21738 40.2674
4.26204 115.985
4.30669 105.371
4.35133 45.0701
4.39598 44.4275
4.44063 48.8493
4.4853 55.3285
4.52995 53.9962
4.5746 54.3025
4.61925 54.8346
4.6639 57.0768
4.70855 59.5892
4.75322 62.6189
4.79788 66.6352
4.84253 69.7763
4.88719 75.2915
4.93184 78.7436
4.97652 84.3225
5.02118 91.628
5.06583 100.969
5.11049 114.976
5.15515 168.875
5.19981 626.2
5.24449 3708.45
5.28916 11269.5
5.33382 3241.97
5.37848 222.567
5.42315 139.434
5.46783 122.524
5.5125 112.311
5.55716 106.811
5.60183 102.525
5.6465 100.02
5.69117 98.1968
5.73586 96.5902
5.78053 98.385
5.8252 98.5551
5.86988 99.7121
5.91455 102.246
5.95924 117.252
6.00392 335.349
6.0486 1299.68
6.09328 4057.74
6.13795 3312.69
6.18263 277.964
6.22733 99.1744
6.27201 84.9637
6.3167 87.4722
6.36138 77.0056
6.40606 71.3505
6.45075 69.5745
6.49545 66.7815
6.54014 64.9416
6.58483 64.2839
6.62952 63.5558
6.67421 73.6665
6.71892 91.9995
6.76361 63.8089
6.8083 59.7196
6.853 59.0582
6.89769 57.6576
6.94239 57.6794
6.98711 56.4791
7.03181 56.8914
7.07651 55.6556
7.12121 55.8183
7.16591 56.5697
7.21063 55.7564
7.25533 61.136
7.30004 101.11
7.34475 69.1145
7.38945 56.3251
7.43416 54.7813
7.47889 54.6788
7.5236 55.2785
7.56831 56.5724
7.61303 56.7142
7.65774 57.3042
7.70247 57.3139
7.74719 57.1677
7.79191 57.5664
7.83663 58.3078
7.88135 59.2975
7.92607 60.3581
7.97081 61.3254
8.01553 62.4952
8.06026 64.0233
8.10498 65.544
8.14971 70.7796
8.19446 71.6104
8.23919 71.4664
8.28392 74.2889
8.32865 76.9306
8.37339 81.7592
8.41812 87.8789
8.46288 110.587
8.50761 231.612
8.55235 510.986
8.59709 1201.26
8.64183 2086.23
8.68658 1021.85
8.73134 180.214
8.77609 104.261
8.82083 96.1562
8.86558 93.397
8.91033 92.3061
8.9551 90.8362
8.99985 87.5133
9.04461 86.4993
9.08936 85.9059
9.13412 84.7403
9.17888 84.3659
9.22365 84.6396
9.26841 84.3218
9.31318 85.9254
9.35794 86.419
9.4027 86.7066
9.44749 86.8416
9.49226 87.1818
9.53703 88.2524
9.5818 91.1843
9.62657 94.1082
9.67134 96.6326
9.71614 95.6484
9.76091 97.7446
9.80569 101.322
9.85047 103.915
9.89525 115.76
9.94005 136.516
9.98484 242.49
10.0296 448.846
10.0744 875.764
10.1192 1595.41
10.164 1602.35
10.2088 451.1
10.2536 134.304
10.2984 114.097
10.3432 112.624
10.388 110.601
10.4328 138.73
10.4776 189.986
10.5224 302.634
10.5672 481.857
10.612 510.511
10.6568 209.486
10.7017 99.5866
10.7465 89.2388
10.7913 85.5314
10.8361 83.3199
10.8809 81.1662
10.9257 79.4388
10.9706 79.2623
11.0154 76.414
11.0602 74.6048
11.105 73.2129
11.1499 74.039
11.1947 76.0365
11.2395 72.207
11.2844 70.4628
11.3292 68.6584
11.374 67.2653
11.4189 67.3809
11.4637 66.3572
11.5086 66.1635
11.5534 66.917
11.5983 65.9084
11.6431 65.2329
11.688 64.2888
11.7328 64.4326
11.7777 64.2493
11.8225 64.2651
11.8674 63.9926
11.9122 64.4036
11.9571 64.7471
12.002 66.647
12.0468 74.3325
12.0917 86.9668
12.1366 110.377
12.1814 151.74
12.2263 203.551
12.2712 172.068
12.3161 94.0706
12.3609 69.3118
12.4058 66.0414
12.4507 65.8283
12.4956 66.1374
12.5405 66.164
12.5853 66.8086
12.6302 69.9002
12.6751 72.6035
12.72 69.7624
12.7649 69.4627
12.8098 70.0559
12.8547 71.8183
12.8996 73.1453
12.9445 74.776
12.9894 76.6231
13.0343 78.6993
13.0792 83.2769
13.1242 100.934
13.1691 129.014
13.214 170.007
13.2589 249.067
13.3038 352.141
13.3487 420.278
13.3937 274.91
13.4386 131.686
13.4835 119.079
13.5285 137.9
13.5734 176.12
13.6183 245.836
13.6633 333.637
13.7082 344.056
13.7531 200.494
13.7981 102.188
13.843 84.356
13.888 82.0255
13.9329 79.4774
13.9779 78.0876
14.0228 76.608
14.0678 75.0994
14.1127 74.2818
14.1577 73.7905
14.2027 73.2704
14.2476 72.4283
14.2926 71.9683
14.3376 72.353
14.3825 71.8141
14.4275 70.8585
14.4725 70.603
14.5175 70.9949
14.5624 71.0419
14.6074 71.8332
14.6524 72.7314
14.6974 72.8927
14.7424 77.5391
14.7874 86.8235
14.8324 99.029
14.8774 121.027
14.9224 155.79
14.9674 200.439
15.0124 216.341
15.0574 152.854
15.1024 93.7212
15.1474 74.3874
15.1924 72.2322
15.2374 71.521
15.2824 70.4581
15.3274 69.4122
15.3725 69.0454
15.4175 68.1199
15.4625 67.8406
15.5076 67.8859
15.5526 68.0383
15.5976 68.1558
15.6426 71.4115
15.6877 78.9224
15.7327 88.2406
15.7778 103.949
15.8228 130.111
15.8679 164.797
15.9129 190.954
15.958 160.96
16.003 101.915
16.0481 69.633
16.0931 64.9232
16.1382 63.1181
16.1833 62.0214
16.2283 60.2737
16.2734 59.836
16.3185 59.3905
16.3636 59.3043
16.4086 58.4237
16.4537 57.4704
16.4988 57.0885
16.5439 56.9658
16.589 56.5206
16.6341 56.4622
16.6792 56.0114
16.7243 56.2443
16.7694 56.2812
16.8145 56.0463
16.8596 56.4113
16.9047 57.1178
16.9498 57.2642
16.9949 56.8914
17.04 57.9416
17.0851 59.6989
17.1302 61.3676
17.1754 64.5927
17.2205 69.2568
17.2656 75.24
17.3108 82.7644
17.3559 83.4771
17.401 73.2433
17.4462 64.1555
17.4913 60.8105
17.5365 60.9363
17.5815 60.8536
17.6268 61.3392
17.6718 61.9428
17.7171 62.2457
17.7622 63.3228
17.8074 64.648
17.8525 68.7896
17.8977 73.1839
17.9428 78.9885
17.9881 88.3901
18.0331 102.768
18.0784 119.863
18.1237 138.953
18.1688 136.444
18.214 110.363
18.2591 91.2024
18.3044 92.0555
18.3495 99.2948
18.3948 105.666
18.4399 97.6993
18.4852 78.7847
18.5303 67.5131
18.5756 63.7937
18.6207 62.9651
18.666 62.0908
18.7112 61.119
18.7565 60.427
18.8016 60.4316
18.8469 59.6581
18.892 59.4037
18.9374 59.0989
18.9825 58.5917
19.0278 58.6096
19.073 58.8935
19.1183 59.552
19.1635 60.4586
19.2088 61.9676
19.254 64.3799
19.2993 67.8707
19.3447 72.3827
19.3898 76.7157
19.4352 73.785
19.4804 65.2669
19.5257 58.442
19.5709 55.6282
19.6163 55.3073
19.6615 55.3253
19.7068 54.7932
19.752 54.8856
19.7974 55.3405
19.8426 56.4807
19.888 57.2416
19.9332 58.4404
19.9786 61.0665
20.0238 64.211
20.0692 68.2616
20.1144 71.5596
20.1598 70.6932
20.205 65.9615
20.2504 63.454
20.2957 64.5951
20.3411 66.5603
20.3863 65.6543
20.4318 60.1545
20.477 54.9711
20.5224 52.7799
20.5677 52.1022
20.6131 51.589
20.6586 51.1268
20.7038 50.9203
20.7493 50.4552
20.7945 50.4268
20.84 50.2007
20.8853 50.0675
20.9307 50.0528
20.976 50.2248
21.0215 50.114
21.0668 50.5585
21.1122 50.9945
21.1575 51.4789
21.203 51.8117
21.2483 52.8057
21.2938 52.9492
21.3391 51.7317
21.3846 50.3447
21.4299 49.8753
21.4754 49.6925
21.5207 50.0551
21.5662 50.6445
21.6116 51.3411
21.6571 51.965
21.7024 52.8804
21.7479 54.7495
21.7933 57.1543
21.8388 60.0032
21.8843 63.648
21.9297 65.9665
21.9752 65.2267
22.0206 61.2107
22.0661 57.6576
22.1115 57.0205
22.157 57.1871
22.2024 55.9359
22.248 52.9072
22.2933 51.1926
22.3389 50.4069
22.3843 50.2864
22.4299 50.0763
22.4753 50.112
22.5208 49.9704
22.5662 49.87
22.6118 50.2443
22.6572 50.7466
22.7028 50.9821
22.7483 51.6563
22.7939 52.2814
22.8393 53.785
22.8849 55.4007
22.9303 57.0377
22.9759 58.7645
23.0214 58.7291
23.067 56.2457
23.1126 52.5586
23.1581 50.6823
23.2037 50.3428
23.2492 50.5777
23.2948 50.7731
23.3403 50.9683
23.3859 51.6444
23.4314 52.653
23.477 54.0576
23.5225 55.5448
23.5682 57.5823
23.6137 58.9864
23.6593 57.1596
23.7048 53.1799
23.7505 49.775
23.796 47.8786
23.8417 47.3884
23.8872 46.9104
23.9329 46.4756
23.9784 46.2009
24.0241 45.9442
24.0697 45.7507
24.1154 45.2438
24.1609 45.1741
24.2066 44.9508
24.2522 44.9765
24.2979 44.6236
24.3434 44.5882
24.3892 44.2783
24.4349 44.2184
24.4805 44.2274
24.5262 44.2973
24.5718 44.0452
24.6175 44.122
24.6631 43.9707
24.7089 43.7226
24.7545 43.5904
24.8002 43.4123
24.8458 43.4164
24.8916 43.3118
24.9372 43.5811
24.983 43.8127
25.0286 44.2458
25.0744 44.4663
25.12 44.8577
25.1658 45.5588
25.2114 45.8077
25.2572 45.8647
25.3029 45.8189
25.3487 46.0959
25.3943 45.9197
25.4402 44.7622
25.4858 43.5694
25.5316 42.592
25.5773 42.0844
25.6231 42.0375
25.669 41.6144
25.7147 41.769
25.7605 41.5511
25.8062 41.7683
25.8521 41.9373
25.8977 41.7644
25.9436 42.0382
25.9893 42.0981
26.0352 42.5184
26.0809 42.5698
26.1268 42.8136
26.1725 42.5164
26.2184 42.0222
26.2641 41.5076
26.31 41.2398
26.3557 41.358
26.4017 41.4185
26.4474 41.6946
26.4933 41.9051
26.5391 42.4401
26.585 42.7382
26.6308 43.1242
26.6767 43.4211
26.7225 43.1219
26.7684 42.5623
26.8142 41.9104
26.8601 41.4726
26.9059 41.1839
26.9519 40.6831
26.9979 40.3501
27.0437 39.9981
27.0896 39.8505
27.1354 39.9597
27.1814 39.6607
27.2272 39.6984
27.2732 39.6349
27.3191 39.4285
27.3651 39.5417
27.4109 39.557
27.4569 39.6503
27.5027 39.5567
27.5488 39.701
27.5946 39.5032
27.6407 39.2307
27.6865 39.0743
27.7326 39.053
27.7784 39.0352
27.8245 38.9672
27.8703 39.1823
27.9164 39.4343
27.9623 39.4307
28.0084 39.8317
28.0543 40.1061
28.1003 40.0424
28.1462 39.9413
28.1923 39.4736
28.2384 38.9984
28.2843 38.5709
28.3304 38.2251
28.3764 37.7162
28.4225 37.4385
28.4684 37.197
28.5145 36.9032
28.5605 36.8004
28.6066 36.6342
28.6526 36.5756
28.6987 36.6354
28.7447 36.6332
28.7908 36.3608
28.8368 36.348
28.8829 36.3617
28.9289 36.3619
28.9751 36.1374
29.0211 35.8763
29.0673 35.588
29.1133 35.515
29.1595 35.4063
29.2055 35.309
29.2517 35.3302
29.2977 35.1856
29.3439 35.1786
29.3899 35.1862
29.4361 35.0383
29.4824 34.8537
29.5284 34.7688
29.5746 34.3771
29.6207 34.0375
29.6669 34.0316
29.713 33.8848
29.7593 33.7696
29.8053 33.7033
29.8516 33.754
29.8977 33.7037
29.9439 33.6124
29.99 33.4518
30.0363 33.3222
30.0824 33.4899
30.1287 33.3156
30.1748 33.255
30.2211 33.3029
30.2673 33.219
30.3136 33.314
30.3597 33.2057
30.406 33.0972
30.4522 32.9707
30.4985 32.916
30.5447 33.2033
30.591 32.9109
30.6372 33.0402
30.6835 32.9967
30.7297 33.0093
30.7761 32.9875
30.8224 32.8389
30.8686 32.6916
30.915 32.4647
30.9612 32.47
31.0076 32.1661
31.0538 32.0528
31.1002 32.0099
31.1464 31.8531
31.1928 31.7979
31.2391 31.8666
31.2855 31.7404
31.3317 31.725
31.3781 31.7645
31.4244 31.7889
31.4708 31.7134
31.5171 31.6394
31.5636 31.6834
31.6098 31.4212
31.6563 31.1028
31.7026 31.0689
31.7491 31.0174
31.7953 30.9048
31.8418 31.0778
31.8881 30.905
31.9346 30.8802
31.9809 30.8806
32.0275 30.6952
32.074 30.6901
32.1203 30.4568
32.1668 30.2884
32.2132 30.1494
32.2597 30.0463
32.306 30.0234
32.3526 29.8363
32.399 29.7202
32.4455 29.5256
32.4919 29.5148
32.5385 29.3596
32.5848 29.2351
32.6314 29.2857
32.6778 29.2038
32.7244 29.0764
32.7708 28.9122
32.8174 28.9286
32.8638 28.8256
32.9104 28.8376
32.9569 28.8199
33.0035 28.5988
33.0499 28.6433
33.0966 28.571
33.143 28.497
33.1897 28.5569
33.2361 28.3992
33.2828 28.3614
33.3293 28.1604
33.3759 28.0731
33.4226 28.0315
33.4691 27.8116
33.5158 27.8463
33.5623 27.5705
33.609 27.5273
33.6555 27.3384
33.7022 27.2726
33.7487 27.1654
33.7954 27.2335
33.842 27.0722
33.8887 27.0365
33.9353 26.9678
33.982 26.8759
34.0286 26.7922
34.0753 26.7027
34.1219 26.6035
34.1687 26.5847
34.2152 26.4949
34.262 26.35
34.3086 26.2455
34.3554 26.269
34.402 26.0825
34.4488 25.9631
34.4954 25.9245
34.5422 25.9538
34.5889 25.6987
34.6357 25.7407
34.6825 25.6426
34.7292 25.4819
34.776 25.415
34.8227 25.3284
34.8695 25.3383
34.9162 25.2471
34.9631 25.0676
35.0098 25.1637
35.0566 25.0281
35.1033 24.9106
35.1502 24.909
35.1969 24.8776
35.2438 24.8137
35.2906 24.7067
35.3375 24.7089
35.3842 24.6268
35.4311 24.599
35.4779 24.5552
35.5248 24.532
35.5716 24.4315
35.6185 24.3151
35.6653 24.2694
35.7123 24.1381
35.759 24.0849
35.806 23.9462
35.8528 23.8727
35.8998 23.8414
35.9468 23.747
35.9936 23.6523
36.0406 23.5823
36.0874 23.5978
36.1345 23.4131
36.1813 23.3964
36.2283 23.3709
36.2752 23.2868
36.3222 23.2661
36.3691 23.1079
36.4161 22.9824
36.463 22.9915
36.5101 22.9814
36.557 22.9158
36.6041 22.7236
36.651 22.7301
36.6981 22.7175
36.745 22.5924
36.7921 22.5623
36.839 22.4204
36.8861 22.3943
36.9331 22.224
36.9802 22.1998
37.0272 22.1287
37.0743 22.0355
37.1213 22.0594
37.1684 21.9243
37.2154 21.9877
37.2626 21.8186
37.3098 21.7472
37.3568 21.6598
37.404 21.6512
37.451 21.4899
37.4982 21.4841
37.5452 21.3666
37.5924 21.2983
37.6395 21.3566
37.6867 21.259
37.7337 21.1348
37.781 21.0775
37.8281 20.9706
37.8753 20.9031
37.9224 20.8948
37.9697 20.8279
38.0168 20.7366
38.064 20.6338
38.1111 20.6253
38.1584 20.5335
38.2056 20.4869
38.2529 20.4363
38.3 20.3931
38.3473 20.2928
38.3945 20.2609
38.4418 20.2642
38.489 20.1089
38.5363 20.0592
38.5837 20.0121
38.6309 19.9544
38.6782 19.8201
38.7254 19.7731
38.7728 19.7342
38.82 19.6038
38.8674 19.5554
38.9146 19.5806
38.9621 19.4331
39.0093 19.3599
39.0567 19.3447
39.104 19.3016
39.1514 19.1424
39.1987 19.1736
39.2461 19.1433
39.2934 19.0504
39.3409 18.9607
39.3882 18.8337
39.4356 18.8681
39.483 18.8091
39.5304 18.7087
39.5778 18.7666
39.6253 18.6431
39.6726 18.5058
39.7201 18.4947
39.7675 18.5046
39.815 18.4349
39.8624 18.3059
39.9099 18.3179
39.9575 18.1723
40.0049 18.2013
40.0525 18.0684
40.0999 18.0328
40.1474 17.9808
40.1949 17.8922
40.2425 17.8581
40.2899 17.7713
40.3375 17.757
40.385 17.626
40.4326 17.6461
40.48 17.5728
40.5277 17.5683
40.5752 17.3807
40.6228 17.3597
40.6703 17.2585
40.718 17.3004
40.7655 17.2176
40.8132 17.1497
40.8607 17.1912
40.9084 17.0792
40.9559 17.0715
41.0036 16.9485
41.0512 16.9755
41.0989 16.8736
41.1465 16.7491
41.1942 16.715
41.242 16.6683
41.2896 16.6746
41.3373 16.6198
41.3849 16.6083
41.4327 16.5084
41.4803 16.3845
41.5281 16.3649
41.5758 16.247
41.6236 16.2102
41.6712 16.1866
41.7191 16.114
41.7667 16.092
41.8146 16.0508
41.8622 16.0262
41.9101 15.9552
41.9578 15.8435
42.0057 15.869
42.0534 15.7926
42.1013 15.7829
42.149 15.6665
42.1969 15.5894
42.2446 15.5587
42.2925 15.471
42.3403 15.4547
42.3882 15.385
42.436 15.3809
42.4839 15.324
42.5319 15.3079
42.5797 15.208
42.6277 15.1448
42.6755 15.1163
42.7235 15.0145
42.7713 14.953
42.8193 14.9361
42.8671 14.8796
42.9152 14.8605
42.963 14.8096
43.0111 14.7254
43.0589 14.673
43.107 14.614
43.1549 14.5549
43.2029 14.5504
43.2508 14.4976
43.2989 14.4264
43.3468 14.3861
43.3949 14.3198
43.4429 14.2355
43.491 14.1807
43.5389 14.1742
43.5871 14.0789
43.635 14.0716
43.6832 14.0588
43.7312 13.9996
43.7793 13.8849
43.8273 13.9091
43.8755 13.8057
43.9237 13.7866
43.9717 13.7765
44.0199 13.6913
44.068 13.6498
44.1162 13.6059
44.1642 13.5771
44.2125 13.5493
44.2606 13.5017
44.3088 13.3934
44.3569 13.3651
44.4052 13.3486
44.4533 13.2473
44.5016 13.1842
44.5497 13.2094
44.598 13.1396
44.6461 13.0605
44.6945 13.0126
44.7426 13.0079
44.791 12.9595
44.8391 12.9066
44.8875 12.8622
44.9357 12.8516
44.984 12.7413
45.0322 12.6931
45.0806 12.6934
45.1288 12.6502
45.1773 12.5673
45.2257 12.5305
45.2739 12.5185
45.3224 12.4531
45.3706 12.4091
45.4191 12.3854
45.4673 12.3211
45.5158 12.2907
45.5641 12.2223
45.6126 12.2303
45.6609 12.1469
45.7094 12.086
45.7577 12.0663
45.8063 12.0067
45.8546 12.0105
45.9031 11.9173
45.9515 11.8763
46.0001 11.8045
46.0484 11.8289
46.097 11.7409
46.1454 11.7626
46.194 11.7542
46.2424 11.6843
46.291 11.5752
46.3395 11.5538
46.3881 11.51
46.4365 11.4939
46.4852 11.474
46.5337 11.4245
46.5823 11.3099
46.631 11.3249
46.6795 11.2528
46.7282 11.213
46.7767 11.2066
46.8254 11.108
46.8739 11.1097
46.9226 11.0654
46.9712 11.0172
47.0199 10.9775
47.0685 10.9186
47.1173 10.9011
47.1658 10.7731
47.2146 10.822
47.2632 10.743
47.312 10.7401
47.3606 10.6875
47.4095 10.6366
47.4581 10.5946
47.5069 10.5376
47.5556 10.5491
47.6044 10.5037
47.6531 10.4701
47.702 10.3883
47.7507 10.3738
47.7996 10.3123
47.8483 10.3177
47.8972 10.2306
47.9461 10.2023
47.9948 10.1699
48.0438 10.1292
48.0925 10.0898
48.1415 10.0786
48.1902 10.039
48.2392 10.0191
48.288 9.98164
48.337 9.96325
48.3858 9.89987
48.4348 9.87952
48.4837 9.81241
48.5327 9.809
48.5815 9.76032
48.6306 9.75305
48.6795 9.68103
48.7285 9.61222
48.7774 9.63406
48.8265 9.63578
48.8754 9.54473
48.9245 9.50385
48.9734 9.46602
49.0226 9.46365
49.0715 9.40748
49.1206 9.35588
49.1696 9.35289
49.2188 9.32924
49.2679 9.28226
49.3169 9.22975
49.3661 9.14837
49.4151 9.16758
49.4643 9.14374
49.5134 9.06266
49.5626 9.05001
49.6117 8.98206
49.6609 8.98593
49.71 8.9094
49.7592 8.92662
49.8083 8.83561
49.8576 8.84185
49.9067 8.81462
49.956 8.78059
50.0052 8.75048
50.0545 8.70095
50.1036 8.67457
50.153 8.62926
50.2022 8.56572
50.2515 8.55882
50.3007 8.53823
50.3501 8.53241
50.3993 8.47242
50.4487 8.44273
50.498 8.40389
50.5474 8.37811
50.5966 8.34403
50.6461 8.34593
50.6955 8.29733
50.7448 8.28243
50.7943 8.20609
50.8436 8.21251
50.8931 8.17272
50.9424 8.13417
50.9919 8.11398
51.0413 8.06703
51.0908 8.01953
51.1402 8.00698
51.1897 7.99574
51.2391 7.93278
51.2887 7.89463
51.3381 7.87043
51.3877 7.84729
51.4371 7.76545
51.4867 7.75676
51.5362 7.73859
51.5858 7.68659
51.6353 7.67998
51.6849 7.62676
51.7344 7.6083
51.7841 7.60241
51.8336 7.5287
51.8833 7.47881
51.9328 7.48317
51.9826 7.43196
52.0323 7.41012
52.0818 7.38867
52.1316 7.33238
52.1812 7.33831
52.231 7.28826
52.2806 7.26245
52.3304 7.20206
52.38 7.22875
52.4298 7.18214
52.4794 7.12508
52.5293 7.11068
52.5789 7.09587
52.6288 7.03268
52.6785 7.0014
52.7284 6.96792
52.7781 7.00925
52.828 6.93939
52.8777 6.91332
52.9276 6.88569
52.9774 6.87937
53.0273 6.85165
53.0771 6.75376
53.1271 6.7949
53.1769 6.70938
53.2269 6.70842
53.2767 6.68441
53.3267 6.66334
53.3765 6.63632
53.4266 6.59073
53.4766 6.54757
53.5265 6.49903
53.5765 6.51469
53.6264 6.4464
53.6765 6.49597
53.7264 6.40789
53.7765 6.38455
53.8265 6.35232
53.8766 6.31086
53.9266 6.30083
53.9767 6.3229
54.0267 6.26808
54.0769 6.25694
54.1269 6.21766
54.1771 6.18894
54.2271 6.11299
54.2773 6.11771
54.3274 6.08295
54.3776 6.03882
54.4277 6.00877
54.478 5.99146
54.528 5.94462
54.5783 5.87268
54.6285 5.87843
54.6788 5.88089
54.7289 5.77725
54.7792 5.72839
54.8296 5.70164
54.8798 5.64933
54.9301 5.63674
54.9803 5.58847
55.0307 5.53934
55.0809 5.5089
55.1314 5.46031
55.1816 5.40201
55.232 5.34266
55.2823 5.32104
55.3328 5.26571
55.383 5.18525
55.4335 5.20599
55.4838 5.10462
55.5344 5.07618
55.5847 5.04449
55.6352 5.03461
55.6856 5.02464
55.7361 4.92437