File: XRD/Ni3Fe_FD1069.xy
TT I
1.27165 7.11312
1.31627 6.29196
1.36089 6.05614
1.40551 5.08837
1.45013 5.99492
1.49476 5.74313
1.53938 5.70861
1.584 4.59046
1.62863 4.87913
1.67325 4.38041
1.71787 4.82533
1.7625 4.26531
1.80712 3.87509
1.85174 3.98815
1.89636 4.52424
1.94099 4.92838
1.98562 4.24953
2.03025 3.63106
2.07487 4.21717
2.11949 3.96735
2.16411 3.6914
2.20874 4.6941
2.25338 6.24383
2.298 5.41296
2.34263 5.01647
2.38725 5.37193
2.43188 6.3201
2.4765 6.95761
2.52115 7.77094
2.56577 7.75565
2.6104 7.46169
2.65503 8.47005
2.69965 8.27204
2.7443 8.32333
2.78893 8.34466
2.83356 8.67155
2.87818 9.25452
2.92281 8.91138
2.96744 9.0694
3.01209 10.9271
3.05672 11.0023
3.10135 11.7175
3.14599 12.6494
3.19062 14.0785
3.23527 14.9081
3.2799 15.2067
3.32454 16.2591
3.36917 16.7563
3.4138 18.0955
3.45844 18.7765
3.50309 19.2185
3.54773 20.0925
3.59237 21.0389
3.637 27.4136
3.68164 26.5948
3.7263 23.8375
3.77094 24.374
3.81558 25.2622
3.86022 25.9961
3.90486 27.2346
3.9495 28.3058
3.99416 29.1252
4.0388 29.8188
4.08344 31.2639
4.12809 32.2244
4.17273 33.7137
4.21738 34.8348
4.26204 52.959
4.30669 56.6831
4.35133 40.8906
4.39598 41.2233
4.44063 43.2549
4.4853 46.2896
4.52995 46.5312
4.5746 48.3369
4.61925 50.6882
4.6639 52.976
4.70855 55.5755
4.75322 57.8635
4.79788 60.71
4.84253 64.4854
4.88719 67.7229
4.93184 71.9222
4.97652 76.96
5.02118 83.2902
5.06583 89.6966
5.11049 98.1382
5.15515 117.819
5.19981 230.241
5.24449 2499.25
5.28916 13687.4
5.33382 3347.91
5.37848 207.675
5.42315 123.257
5.46783 108.138
5.5125 101.065
5.55716 97.6791
5.60183 93.5135
5.6465 91.7041
5.69117 90.0899
5.73586 88.2508
5.78053 86.9473
5.8252 86.4125
5.86988 87.4517
5.91455 89.0657
5.95924 95.1913
6.00392 163.726
6.0486 888.045
6.09328 4542.01
6.13795 3637.6
6.18263 240.178
6.22733 87.7455
6.27201 75.6527
6.3167 72.992
6.36138 68.5523
6.40606 64.9041
6.45075 63.5427
6.49545 62.1217
6.54014 60.3031
6.58483 59.1918
6.62952 58.089
6.67421 58.6398
6.71892 64.0588
6.76361 57.172
6.8083 54.4792
6.853 53.9437
6.89769 53.4235
6.94239 53.2594
6.98711 52.4297
7.03181 52.3208
7.07651 52.1689
7.12121 51.413
7.16591 51.7521
7.21063 51.1717
7.25533 51.7114
7.30004 61.792
7.34475 56.0432
7.38945 51.9026
7.43416 51.3601
7.47889 51.532
7.5236 58.3396
7.56831 71.5347
7.61303 56.4033
7.65774 52.945
7.70247 53.2217
7.74719 53.3378
7.79191 54.1858
7.83663 54.2333
7.88135 54.9975
7.92607 55.5867
7.97081 56.8727
8.01553 57.892
8.06026 58.7484
8.10498 60.413
8.14971 62.5472
8.19446 64.0787
8.23919 65.6945
8.28392 68.5374
8.32865 70.4089
8.37339 74.5833
8.41812 78.0277
8.46288 86.6698
8.50761 128.612
8.55235 377.671
8.59709 1107.94
8.64183 2288.69
8.68658 1101.39
8.73134 171.235
8.77609 94.9887
8.82083 88.4932
8.86558 85.9574
8.91033 83.5487
8.9551 82.2801
8.99985 81.1621
9.04461 80.1884
9.08936 80.0708
9.13412 78.9507
9.17888 79.7433
9.22365 90.9628
9.26841 111.507
9.31318 88.4786
9.35794 80.3739
9.4027 80.2426
9.44749 80.7996
9.49226 80.8667
9.53703 82.1086
9.5818 83.1938
9.62657 84.6496
9.67134 86.4915
9.71614 87.8165
9.76091 89.6562
9.80569 91.7511
9.85047 94.5673
9.89525 98.8982
9.94005 105.972
9.98484 147.357
10.0296 349.268
10.0744 777.028
10.1192 1780.61
10.164 1719.7
10.2088 449.041
10.2536 125.045
10.2984 103.151
10.3432 101.329
10.388 97.8308
10.4328 107.787
10.4776 162.223
10.5224 273.223
10.5672 512.808
10.612 564.802
10.6568 231.12
10.7017 103.533
10.7465 86.0628
10.7913 80.12
10.8361 77.8131
10.8809 75.8317
10.9257 73.7658
10.9706 72.72
11.0154 71.0064
11.0602 69.5871
11.105 68.4126
11.1499 67.4192
11.1947 67.3823
11.2395 65.5674
11.2844 64.9938
11.3292 63.9831
11.374 62.8972
11.4189 62.5962
11.4637 61.9245
11.5086 61.2395
11.5534 61.1718
11.5983 60.8632
11.6431 60.6372
11.688 60.2168
11.7328 60.2317
11.7777 59.9567
11.8225 59.8695
11.8674 59.9987
11.9122 62.057
11.9571 68.1113
12.002 66.0955
12.0468 64.2586
12.0917 76.7542
12.1366 99.3413
12.1814 147.234
12.2263 204.97
12.2712 177.01
12.3161 96.88
12.3609 64.8263
12.4058 61.551
12.4507 61.2439
12.4956 61.4823
12.5405 61.6457
12.5853 62.3255
12.6302 62.5205
12.6751 64.3025
12.72 64.0452
12.7649 64.7092
12.8098 65.4448
12.8547 66.9283
12.8996 68.0844
12.9445 69.0388
12.9894 70.9528
13.0343 72.7907
13.0792 76.8062
13.1242 82.5338
13.1691 108.318
13.214 148.995
13.2589 230.664
13.3038 370.448
13.3487 453.156
13.3937 280.722
13.4386 126.553
13.4835 99.3357
13.5285 120.151
13.5734 157.039
13.6183 237.052
13.6633 356.503
13.7082 364.204
13.7531 205.621
13.7981 100.238
13.843 79.6376
13.888 77.1541
13.9329 74.6582
13.9779 73.4511
14.0228 72.1516
14.0678 71.1767
14.1127 71.6697
14.1577 74.7542
14.2027 73.236
14.2476 69.0943
14.2926 67.559
14.3376 67.3691
14.3825 67.0821
14.4275 66.1621
14.4725 66.6989
14.5175 66.5512
14.5624 66.4338
14.6074 66.7462
14.6524 67.2868
14.6974 67.8376
14.7424 68.5783
14.7874 74.2708
14.8324 88.677
14.8774 110.271
14.9224 149.256
14.9674 209.502
15.0124 229.075
15.0574 159.551
15.1024 93.7135
15.1474 71.2706
15.1924 67.9239
15.2374 66.8819
15.2824 66.0571
15.3274 65.0696
15.3725 64.4323
15.4175 64.1353
15.4625 63.7276
15.5076 63.5558
15.5526 63.5414
15.5976 63.3988
15.6426 63.9231
15.6877 68.7152
15.7327 79.7091
15.7778 95.0555
15.8228 123.283
15.8679 169.776
15.9129 202.82
15.958 169.842
16.003 104.797
16.0481 69.775
16.0931 62.6525
16.1382 59.9597
16.1833 58.404
16.2283 56.9213
16.2734 56.2829
16.3185 55.9583
16.3636 55.1662
16.4086 54.4223
16.4537 53.9035
16.4988 53.6622
16.5439 53.4501
16.589 53.4706
16.6341 52.8072
16.6792 52.6394
16.7243 52.9705
16.7694 52.8526
16.8145 52.6539
16.8596 52.9683
16.9047 53.5662
16.9498 54.3588
16.9949 54.1016
17.04 53.9267
17.0851 55.031
17.1302 57.2259
17.1754 60.3653
17.2205 65.1052
17.2656 72.4493
17.3108 82.2783
17.3559 82.6375
17.401 72.4271
17.4462 61.6302
17.4913 57.6446
17.5365 57.3411
17.5815 57.2487
17.6268 57.6503
17.6718 58.3092
17.7171 58.8272
17.7622 59.948
17.8074 60.7891
17.8525 62.038
17.8977 66.5782
17.9428 73.6808
17.9881 82.4678
18.0331 98.2078
18.0784 121.25
18.1237 142.706
18.1688 138.175
18.214 109.046
18.2591 88.2333
18.3044 89.4731
18.3495 99.4385
18.3948 107.614
18.4399 98.9152
18.4852 78.7912
18.5303 65.83
18.5756 61.455
18.6207 60.1576
18.666 58.961
18.7112 58.1285
18.7565 57.4434
18.8016 57.2696
18.8469 56.622
18.892 56.2067
18.9374 55.7998
18.9825 55.4531
19.0278 55.2492
19.073 55.3202
19.1183 55.3024
19.1635 56.3465
19.2088 58.298
19.254 60.7561
19.2993 65.7056
19.3447 71.9363
19.3898 76.2763
19.4352 72.1983
19.4804 63.5799
19.5257 56.2342
19.5709 53.1586
19.6163 52.5671
19.6615 52.5213
19.7068 51.8824
19.752 51.7883
19.7974 51.9551
19.8426 52.6638
19.888 53.8411
19.9332 55.2345
19.9786 57.5968
20.0238 61.1144
20.0692 66.7899
20.1144 70.567
20.1598 69.2566
20.205 64.2038
20.2504 61.8601
20.2957 63.6958
20.3411 65.6219
20.3863 64.2161
20.4318 58.4701
20.477 53.016
20.5224 50.1269
20.5677 49.3475
20.6131 49.0657
20.6586 48.4814
20.7038 48.3017
20.7493 48.0289
20.7945 48.1829
20.84 48.0791
20.8853 47.6958
20.9307 47.4301
20.976 47.4052
21.0215 47.3066
21.0668 47.7547
21.1122 48.2759
21.1575 48.8582
21.203 49.7125
21.2483 50.5519
21.2938 50.7209
21.3391 49.2894
21.3846 48.0686
21.4299 47.3898
21.4754 47.4176
21.5207 47.5508
21.5662 47.7293
21.6116 47.8745
21.6571 48.8702
21.7024 50.1746
21.7479 51.858
21.7933 54.4652
21.8388 58.3313
21.8843 62.9868
21.9297 65.4073
21.9752 64.0527
22.0206 59.8275
22.0661 56.6365
22.1115 55.86
22.157 56.0383
22.2024 54.4042
22.248 51.2236
22.2933 49.0336
22.3389 48.2273
22.3843 48.0486
22.4299 47.7696
22.4753 47.5105
22.5208 47.5403
22.5662 47.4584
22.6118 47.7303
22.6572 47.7073
22.7028 48.3717
22.7483 49.0592
22.7939 49.983
22.8393 51.3818
22.8849 53.2934
22.9303 55.9119
22.9759 57.6844
23.0214 57.4648
23.067 54.7968
23.1126 50.9675
23.1581 48.5846
23.2037 47.8621
23.2492 47.7831
23.2948 47.8791
23.3403 48.7154
23.3859 49.4423
23.4314 50.4522
23.477 52.2838
23.5225 54.5943
23.5682 57.3031
23.6137 58.4587
23.6593 56.5371
23.7048 52.1774
23.7505 48.3243
23.796 46.1517
23.8417 45.239
23.8872 44.9152
23.9329 44.2963
23.9784 44.2693
24.0241 43.8591
24.0697 43.6143
24.1154 43.266
24.1609 43.0747
24.2066 42.8881
24.2522 42.6881
24.2979 42.492
24.3434 42.3861
24.3892 42.2306
24.4349 42.1386
24.4805 42.1479
24.5262 42.3011
24.5718 42.1636
24.6175 42.202
24.6631 42.0084
24.7089 41.7751
24.7545 41.5709
24.8002 41.387
24.8458 41.4088
24.8916 41.39
24.9372 41.428
24.983 41.6322
25.0286 42.0552
25.0744 42.6457
25.12 43.3351
25.1658 43.9967
25.2114 44.2564
25.2572 44.5159
25.3029 44.5406
25.3487 44.811
25.3943 44.583
25.4402 43.3787
25.4858 42.1868
25.5316 41.0336
25.5773 40.2418
25.6231 40.2525
25.669 39.9325
25.7147 39.7491
25.7605 39.7064
25.8062 39.7794
25.8521 40.0223
25.8977 40.0527
25.9436 40.0219
25.9893 40.3113
26.0352 40.9831
26.0809 41.0793
26.1268 41.4639
26.1725 41.1023
26.2184 40.435
26.2641 39.7488
26.31 39.4744
26.3557 39.484
26.4017 39.6099
26.4474 39.7977
26.4933 40.1894
26.5391 40.7467
26.585 41.3752
26.6308 41.9402
26.6767 42.0623
26.7225 41.8646
26.7684 41.3454
26.8142 40.5827
26.8601 40.2151
26.9059 39.7121
26.9519 39.0985
26.9979 38.7509
27.0437 38.4203
27.0896 38.3018
27.1354 38.1232
27.1814 38.0553
27.2272 37.9699
27.2732 38.0204
27.3191 37.8073
27.3651 37.9553
27.4109 37.8917
27.4569 38.0023
27.5027 38.0782
27.5488 38.164
27.5946 37.9488
27.6407 37.762
27.6865 37.7026
27.7326 37.3749
27.7784 37.3162
27.8245 37.2745
27.8703 37.3719
27.9164 37.8206
27.9623 38.084
28.0084 38.5387
28.0543 39.0059
28.1003 38.8448
28.1462 38.793
28.1923 38.3558
28.2384 37.7375
28.2843 37.3656
28.3304 36.824
28.3764 36.2542
28.4225 35.9803
28.4684 35.7582
28.5145 35.463
28.5605 35.4072
28.6066 35.1518
28.6526 35.1151
28.6987 35.1696
28.7447 34.9493
28.7908 34.9507
28.8368 34.8516
28.8829 34.9385
28.9289 34.8455
28.9751 34.7014
29.0211 34.352
29.0673 34.2092
29.1133 34.0838
29.1595 33.9779
29.2055 33.8359
29.2517 33.7477
29.2977 33.8002
29.3439 33.7921
29.3899 33.7726
29.4361 33.8204
29.4824 33.6733
29.5284 33.2739
29.5746 32.9094
29.6207 32.6339
29.6669 32.4795
29.713 32.4731
29.7593 32.3219
29.8053 32.2769
29.8516 32.1767
29.8977 32.2464
29.9439 32.128
29.99 32.0578
30.0363 31.9581
30.0824 31.9779
30.1287 32.0035
30.1748 32.0059
30.2211 31.9279
30.2673 31.874
30.3136 31.875
30.3597 31.7894
30.406 31.6933
30.4522 31.6297
30.4985 31.5938
30.5447 31.7368
30.591 31.77
30.6372 31.9746
30.6835 31.7715
30.7297 31.8841
30.7761 31.8437
30.8224 31.7383
30.8686 31.4879
30.915 31.3246
30.9612 31.1142
31.0076 30.9054
31.0538 30.8019
31.1002 30.7756
31.1464 30.616
31.1928 30.55
31.2391 30.5534
31.2855 30.5163
31.3317 30.5224
31.3781 30.5729
31.4244 30.5493
31.4708 30.3831
31.5171 30.5526
31.5636 30.4406
31.6098 30.2342
31.6563 29.9876
31.7026 29.8908
31.7491 29.662
31.7953 29.8151
31.8418 29.7514
31.8881 29.7768
31.9346 29.8594
31.9809 29.6785
32.0275 29.5668
32.074 29.5063
32.1203 29.3659
32.1668 29.1708
32.2132 29.0528
32.2597 28.909
32.306 28.7459
32.3526 28.5925
32.399 28.4951
32.4455 28.3997
32.4919 28.2613
32.5385 28.1971
32.5848 28.1165
32.6314 28.1461
32.6778 28.017
32.7244 27.9439
32.7708 27.7436
32.8174 27.7588
32.8638 27.5888
32.9104 27.6787
32.9569 27.6242
33.0035 27.466
33.0499 27.593
33.0966 27.5115
33.143 27.4859
33.1897 27.3735
33.2361 27.3363
33.2828 27.3427
33.3293 27.1279
33.3759 27.1489
33.4226 26.884
33.4691 26.8067
33.5158 26.7033
33.5623 26.5441
33.609 26.4707
33.6555 26.3382
33.7022 26.2799
33.7487 26.1614
33.7954 26.1461
33.842 26.0941
33.8887 25.9807
33.9353 25.9388
33.982 25.8372
34.0286 25.7776
34.0753 25.6581
34.1219 25.5174
34.1687 25.5088
34.2152 25.4362
34.262 25.2788
34.3086 25.1924
34.3554 25.26
34.402 25.1051
34.4488 24.9829
34.4954 24.9105
34.5422 24.8545
34.5889 24.7702
34.6357 24.6175
34.6825 24.5466
34.7292 24.4635
34.776 24.4777
34.8227 24.3526
34.8695 24.26
34.9162 24.2802
34.9631 24.1045
35.0098 24.1393
35.0566 23.9981
35.1033 23.9583
35.1502 23.9769
35.1969 23.9307
35.2438 23.8246
35.2906 23.7543
35.3375 23.702
35.3842 23.7268
35.4311 23.7014
35.4779 23.6631
35.5248 23.6764
35.5716 23.4941
35.6185 23.4781
35.6653 23.2995
35.7123 23.2473
35.759 23.2198
35.806 23.0873
35.8528 22.9997
35.8998 22.8546
35.9468 22.7937
35.9936 22.8637
36.0406 22.7095
36.0874 22.743
36.1345 22.6399
36.1813 22.5234
36.2283 22.4152
36.2752 22.3385
36.3222 22.4528
36.3691 22.3076
36.4161 22.1741
36.463 22.2048
36.5101 22.1909
36.557 22.074
36.6041 21.8885
36.651 21.9514
36.6981 21.982
36.745 21.7257
36.7921 21.7352
36.839 21.6015
36.8861 21.5826
36.9331 21.5303
36.9802 21.4143
37.0272 21.3785
37.0743 21.1759
37.1213 21.2884
37.1684 21.1273
37.2154 21.0814
37.2626 21.0204
37.3098 20.9811
37.3568 20.9292
37.404 20.8388
37.451 20.6592
37.4982 20.7486
37.5452 20.5414
37.5924 20.5535
37.6395 20.5917
37.6867 20.4775
37.7337 20.3997
37.781 20.2963
37.8281 20.2099
37.8753 20.103
37.9224 20.0457
37.9697 19.9676
38.0168 19.9618
38.064 19.9019
38.1111 19.8351
38.1584 19.7977
38.2056 19.7007
38.2529 19.6064
38.3 19.535
38.3473 19.6335
38.3945 19.451
38.4418 19.407
38.489 19.3867
38.5363 19.2506
38.5837 19.2059
38.6309 19.1579
38.6782 19.0575
38.7254 19.0382
38.7728 18.9254
38.82 18.8351
38.8674 18.8554
38.9146 18.7641
38.9621 18.6793
39.0093 18.6937
39.0567 18.6064
39.104 18.5335
39.1514 18.4712
39.1987 18.4295
39.2461 18.3692
39.2934 18.3484
39.3409 18.248
39.3882 18.1512
39.4356 18.1112
39.483 18.1161
39.5304 18.0378
39.5778 17.9909
39.6253 17.8875
39.6726 17.8227
39.7201 17.8535
39.7675 17.7837
39.815 17.7052
39.8624 17.6681
39.9099 17.6698
39.9575 17.5578
40.0049 17.516
40.0525 17.3791
40.0999 17.3642
40.1474 17.3499
40.1949 17.2776
40.2425 17.1513
40.2899 17.1598
40.3375 17.0785
40.385 17.0421
40.4326 16.9731
40.48 16.8981
40.5277 16.9135
40.5752 16.8166
40.6228 16.7626
40.6703 16.6669
40.718 16.6522
40.7655 16.6469
40.8132 16.5558
40.8607 16.5467
40.9084 16.4823
40.9559 16.3969
41.0036 16.3385
41.0512 16.317
41.0989 16.215
41.1465 16.2009
41.1942 16.1622
41.242 16.0477
41.2896 16.0301
41.3373 15.9396
41.3849 15.8854
41.4327 15.9067
41.4803 15.7679
41.5281 15.7562
41.5758 15.6899
41.6236 15.5748
41.6712 15.5613
41.7191 15.5877
41.7667 15.4663
41.8146 15.5263
41.8622 15.3935
41.9101 15.3565
41.9578 15.2561
42.0057 15.2265
42.0534 15.2239
42.1013 15.1225
42.149 15.0744
42.1969 15.0147
42.2446 14.9878
42.2925 14.9652
42.3403 14.902
42.3882 14.8203
42.436 14.7922
42.4839 14.7134
42.5319 14.6964
42.5797 14.6464
42.6277 14.6233
42.6755 14.5626
42.7235 14.4686
42.7713 14.456
42.8193 14.3666
42.8671 14.2722
42.9152 14.3403
42.963 14.2098
43.0111 14.2369
43.0589 14.137
43.107 14.0584
43.1549 14.0274
43.2029 13.9985
43.2508 13.961
43.2989 13.8764
43.3468 13.8041
43.3949 13.8237
43.4429 13.7506
43.491 13.6828
43.5389 13.6687
43.5871 13.6475
43.635 13.5324
43.6832 13.537
43.7312 13.4392
43.7793 13.411
43.8273 13.3967
43.8755 13.2971
43.9237 13.2604
43.9717 13.2621
44.0199 13.1465
44.068 13.1496
44.1162 13.1068
44.1642 13.0108
44.2125 13.0179
44.2606 12.9745
44.3088 12.9399
44.3569 12.9064
44.4052 12.8727
44.4533 12.7987
44.5016 12.7162
44.5497 12.6812
44.598 12.6665
44.6461 12.6473
44.6945 12.5896
44.7426 12.5212
44.791 12.4622
44.8391 12.4826
44.8875 12.4387
44.9357 12.346
44.984 12.3189
45.0322 12.2629
45.0806 12.187
45.1288 12.1343
45.1773 12.1324
45.2257 12.1108
45.2739 12.0314
45.3224 11.964
45.3706 11.9574
45.4191 11.9339
45.4673 11.9088
45.5158 11.8219
45.5641 11.7675
45.6126 11.7353
45.6609 11.6896
45.7094 11.6862
45.7577 11.6155
45.8063 11.5361
45.8546 11.5629
45.9031 11.4871
45.9515 11.4862
46.0001 11.43
46.0484 11.344
46.097 11.3551
46.1454 11.2891
46.194 11.2871
46.2424 11.1823
46.291 11.2009
46.3395 11.1337
46.3881 11.0891
46.4365 11.0442
46.4852 11.0475
46.5337 10.9163
46.5823 10.9474
46.631 10.9146
46.6795 10.8539
46.7282 10.8342
46.7767 10.7577
46.8254 10.6927
46.8739 10.6904
46.9226 10.6583
46.9712 10.5734
47.0199 10.5193
47.0685 10.5113
47.1173 10.5247
47.1658 10.4591
47.2146 10.3896
47.2632 10.3623
47.312 10.3414
47.3606 10.3091
47.4095 10.2425
47.4581 10.2288
47.5069 10.1816
47.5556 10.1351
47.6044 10.1045
47.6531 10.075
47.702 10.0168
47.7507 9.98952
47.7996 9.97842
47.8483 9.92876
47.8972 9.91856
47.9461 9.87404
47.9948 9.80754
48.0438 9.78388
48.0925 9.7963
48.1415 9.73573
48.1902 9.64092
48.2392 9.66068
48.288 9.6154
48.337 9.55467
48.3858 9.52086
48.4348 9.50439
48.4837 9.52489
48.5327 9.4786
48.5815 9.4063
48.6306 9.39125
48.6795 9.33922
48.7285 9.2965
48.7774 9.24615
48.8265 9.23493
48.8754 9.20252
48.9245 9.12788
48.9734 9.1191
49.0226 9.08382
49.0715 9.04018
49.1206 9.0617
49.1696 8.96517
49.2188 8.945
49.2679 8.898
49.3169 8.87301
49.3661 8.83615
49.4151 8.81878
49.4643 8.78246
49.5134 8.76905
49.5626 8.65661
49.6117 8.71468
49.6609 8.65539
49.71 8.64089
49.7592 8.57351
49.8083 8.55654
49.8576 8.51559
49.9067 8.46848
49.956 8.47168
50.0052 8.42599
50.0545 8.37655
50.1036 8.36303
50.153 8.32664
50.2022 8.31835
50.2515 8.24874
50.3007 8.17193
50.3501 8.20215
50.3993 8.16641
50.4487 8.13646
50.498 8.10407
50.5474 8.08767
50.5966 8.00546
50.6461 8.00046
50.6955 8.01351
50.7448 7.99797
50.7943 7.9161
50.8436 7.90175
50.8931 7.88805
50.9424 7.8294
50.9919 7.77989
51.0413 7.78189
51.0908 7.73514
51.1402 7.70346
51.1897 7.68031
51.2391 7.64037
51.2887 7.59009
51.3381 7.54073
51.3877 7.55565
51.4371 7.4652
51.4867 7.48634
51.5362 7.4479
51.5858 7.4129
51.6353 7.36371
51.6849 7.35107
51.7344 7.31323
51.7841 7.31666
51.8336 7.24859
51.8833 7.22621
51.9328 7.24286
51.9826 7.17379
52.0323 7.19885
52.0818 7.11525
52.1316 7.08538
52.1812 7.06706
52.231 7.02645
52.2806 7.0374
52.3304 6.99051
52.38 6.97616
52.4298 6.90607
52.4794 6.87593
52.5293 6.85344
52.5789 6.83941
52.6288 6.79506
52.6785 6.76625
52.7284 6.73082
52.7781 6.71777
52.828 6.68846
52.8777 6.66577
52.9276 6.61003
52.9774 6.59217
53.0273 6.56421
53.0771 6.56375
53.1271 6.5393
53.1769 6.49382
53.2269 6.49795
53.2767 6.42111
53.3267 6.43956
53.3765 6.38247
53.4266 6.3492
53.4766 6.36315
53.5265 6.309
53.5765 6.26779
53.6264 6.23954
53.6765 6.20181
53.7264 6.18534
53.7765 6.21777
53.8265 6.12294
53.8766 6.09963
53.9266 6.09401
53.9767 6.03637
54.0267 6.05259
54.0769 5.98619
54.1269 5.97172
54.1771 5.95012
54.2271 5.91675
54.2773 5.86567
54.3274 5.86812
54.3776 5.82417
54.4277 5.77482
54.478 5.75124
54.528 5.78389
54.5783 5.68089
54.6285 5.70726
54.6788 5.64101
54.7289 5.55508
54.7792 5.52794
54.8296 5.48352
54.8798 5.44708
54.9301 5.38078
54.9803 5.37984
55.0307 5.36831
55.0809 5.27582
55.1314 5.3318
55.1816 5.23699
55.232 5.17856
55.2823 5.14484
55.3328 5.09497
55.383 5.04122
55.4335 5.01906
55.4838 4.94709
55.5344 4.91791
55.5847 4.88044
55.6352 4.83895
55.6856 4.80489
55.7361 4.76635