File: XRD/Ni3Fe_FD0366.xy
TT I
1.27165 8.02915
1.31627 6.83457
1.36089 6.84932
1.40551 6.28235
1.45013 6.7539
1.49476 6.58145
1.53938 6.84884
1.584 5.46353
1.62863 5.68906
1.67325 4.72393
1.71787 5.07513
1.7625 5.053
1.80712 4.93583
1.85174 4.7599
1.89636 4.96961
1.94099 4.71831
1.98562 4.31322
2.03025 4.58126
2.07487 4.56094
2.11949 4.66676
2.16411 4.96499
2.20874 7.53146
2.25338 11.2188
2.298 5.33552
2.34263 4.55427
2.38725 5.19032
2.43188 5.46078
2.4765 5.7668
2.52115 6.29194
2.56577 6.21565
2.6104 7.67212
2.65503 6.36786
2.69965 7.07809
2.7443 7.5182
2.78893 7.44159
2.83356 7.97188
2.87818 8.40254
2.92281 8.71229
2.96744 9.10657
3.01209 9.96687
3.05672 10.9112
3.10135 12.0485
3.14599 13.0044
3.19062 14.1547
3.23527 15.0211
3.2799 15.6026
3.32454 16.7003
3.36917 17.5251
3.4138 18.9906
3.45844 19.6176
3.50309 20.7968
3.54773 21.6332
3.59237 23.2863
3.637 50.7801
3.68164 37.2613
3.7263 25.6548
3.77094 26.383
3.81558 27.0774
3.86022 28.0543
3.90486 28.9775
3.9495 29.896
3.99416 31.5525
4.0388 32.2541
4.08344 33.4024
4.12809 34.8605
4.17273 36.7164
4.21738 40.0954
4.26204 119.466
4.30669 108.419
4.35133 45.2297
4.39598 44.7148
4.44063 49.4966
4.4853 54.9223
4.52995 53.8342
4.5746 54.0321
4.61925 54.57
4.6639 57.2276
4.70855 59.9957
4.75322 63.2049
4.79788 66.8969
4.84253 69.939
4.88719 75.0521
4.93184 78.5968
4.97652 83.7967
5.02118 92.0041
5.06583 100.476
5.11049 115.22
5.15515 169.217
5.19981 621.528
5.24449 3710.16
5.28916 11289.4
5.33382 3248.54
5.37848 221.459
5.42315 139.717
5.46783 122.526
5.5125 112.563
5.55716 106.7
5.60183 102.017
5.6465 100.156
5.69117 98.302
5.73586 96.8028
5.78053 98.4414
5.8252 98.1436
5.86988 99.4118
5.91455 101.926
5.95924 117.453
6.00392 333.727
6.0486 1294.82
6.09328 4067.38
6.13795 3334.22
6.18263 280.942
6.22733 99.2845
6.27201 85.2563
6.3167 88.1825
6.36138 77.6097
6.40606 71.3021
6.45075 69.7454
6.49545 67.0205
6.54014 65.1948
6.58483 64.1993
6.62952 63.5342
6.67421 74.1731
6.71892 92.6659
6.76361 63.8269
6.8083 60.1418
6.853 58.947
6.89769 57.6447
6.94239 57.1209
6.98711 57.0475
7.03181 56.526
7.07651 55.9569
7.12121 56.0918
7.16591 56.3845
7.21063 55.922
7.25533 61.6711
7.30004 102.694
7.34475 69.4608
7.38945 56.273
7.43416 55.0925
7.47889 55.2176
7.5236 55.5269
7.56831 56.1078
7.61303 57.0117
7.65774 57.4807
7.70247 57.375
7.74719 57.6747
7.79191 57.9096
7.83663 58.2223
7.88135 59.2422
7.92607 60.225
7.97081 61.2387
8.01553 62.2644
8.06026 64.0957
8.10498 65.3682
8.14971 71.2445
8.19446 71.4397
8.23919 71.3282
8.28392 74.271
8.32865 76.7686
8.37339 81.4551
8.41812 87.9485
8.46288 110.624
8.50761 230.686
8.55235 508.646
8.59709 1195.64
8.64183 2089.36
8.68658 1028.67
8.73134 179.704
8.77609 103.847
8.82083 96.1407
8.86558 93.3896
8.91033 92.017
8.9551 90.8621
8.99985 87.6361
9.04461 86.6266
9.08936 85.6172
9.13412 84.8129
9.17888 84.3285
9.22365 84.6066
9.26841 84.2584
9.31318 86.0299
9.35794 86.6538
9.4027 86.5505
9.44749 87.3201
9.49226 87.1988
9.53703 88.2433
9.5818 90.7769
9.62657 94.0976
9.67134 96.4657
9.71614 95.561
9.76091 97.479
9.80569 100.937
9.85047 103.824
9.89525 116.087
9.94005 136.268
9.98484 241.39
10.0296 448.734
10.0744 874.942
10.1192 1597.94
10.164 1606.65
10.2088 451.58
10.2536 134.268
10.2984 114.416
10.3432 112.663
10.388 110.057
10.4328 138.492
10.4776 189.799
10.5224 301.268
10.5672 482.139
10.612 510.785
10.6568 209.692
10.7017 99.4607
10.7465 89.3314
10.7913 85.6969
10.8361 83.1808
10.8809 80.9271
10.9257 79.2145
10.9706 79.4146
11.0154 76.2509
11.0602 74.4339
11.105 73.5546
11.1499 73.9836
11.1947 76.4842
11.2395 72.3444
11.2844 70.5242
11.3292 68.8394
11.374 67.4278
11.4189 67.1461
11.4637 66.4109
11.5086 66.1439
11.5534 67.2065
11.5983 65.8307
11.6431 65.389
11.688 64.5645
11.7328 64.2006
11.7777 64.1879
11.8225 64.1721
11.8674 63.9677
11.9122 64.4241
11.9571 64.9289
12.002 66.5652
12.0468 74.2496
12.0917 87.2043
12.1366 110.28
12.1814 152.052
12.2263 202.918
12.2712 171.582
12.3161 94.2744
12.3609 69.3811
12.4058 66.0253
12.4507 65.9774
12.4956 66.098
12.5405 66.1271
12.5853 66.8902
12.6302 69.8147
12.6751 72.7815
12.72 70.0305
12.7649 69.5854
12.8098 70.2573
12.8547 71.6859
12.8996 73.6041
12.9445 74.9215
12.9894 76.7203
13.0343 78.742
13.0792 83.3558
13.1242 100.721
13.1691 128.889
13.214 169.971
13.2589 248.04
13.3038 352.055
13.3487 420.66
13.3937 275.114
13.4386 131.732
13.4835 119.148
13.5285 137.713
13.5734 175.88
13.6183 245.693
13.6633 334.148
13.7082 343.753
13.7531 197.758
13.7981 101.841
13.843 84.4882
13.888 81.9427
13.9329 79.1458
13.9779 77.8866
14.0228 76.4657
14.0678 75.0777
14.1127 74.834
14.1577 73.8933
14.2027 73.224
14.2476 72.4174
14.2926 71.9756
14.3376 72.2608
14.3825 71.5864
14.4275 70.8651
14.4725 70.3871
14.5175 70.8585
14.5624 70.8944
14.6074 72.1327
14.6524 72.5485
14.6974 72.6468
14.7424 77.5377
14.7874 86.8702
14.8324 99.1141
14.8774 120.636
14.9224 155.528
14.9674 200.331
15.0124 216.807
15.0574 152.463
15.1024 93.5994
15.1474 74.3345
15.1924 72.4311
15.2374 71.8261
15.2824 70.8918
15.3274 69.5311
15.3725 68.7159
15.4175 68.3302
15.4625 67.9457
15.5076 67.6854
15.5526 67.9806
15.5976 68.1474
15.6426 71.595
15.6877 78.9819
15.7327 88.0656
15.7778 103.711
15.8228 130.114
15.8679 164.38
15.9129 190.945
15.958 160.998
16.003 101.176
16.0481 69.6399
16.0931 65.1759
16.1382 63.3124
16.1833 61.9629
16.2283 60.4013
16.2734 59.7113
16.3185 59.5273
16.3636 59.2811
16.4086 58.4933
16.4537 57.4013
16.4988 57.1109
16.5439 56.9869
16.589 56.5315
16.6341 56.2278
16.6792 55.9256
16.7243 56.2206
16.7694 56.1263
16.8145 56.007
16.8596 56.3053
16.9047 56.9667
16.9498 57.2121
16.9949 56.9896
17.04 57.7969
17.0851 59.4887
17.1302 61.5927
17.1754 64.8219
17.2205 69.2515
17.2656 75.0385
17.3108 82.8497
17.3559 83.5036
17.401 72.9477
17.4462 64.2194
17.4913 60.8728
17.5365 60.7281
17.5815 60.9069
17.6268 61.3211
17.6718 61.954
17.7171 62.4548
17.7622 63.2557
17.8074 64.6527
17.8525 68.8159
17.8977 73.2994
17.9428 79.3693
17.9881 88.3183
18.0331 102.679
18.0784 119.875
18.1237 139.316
18.1688 136.533
18.214 110.251
18.2591 90.9064
18.3044 91.6899
18.3495 99.0667
18.3948 105.911
18.4399 97.6323
18.4852 78.7707
18.5303 67.507
18.5756 63.873
18.6207 62.8849
18.666 62.0332
18.7112 61.3911
18.7565 60.6246
18.8016 60.2898
18.8469 59.8017
18.892 59.2664
18.9374 58.8383
18.9825 58.6213
19.0278 58.4203
19.073 58.9927
19.1183 59.4889
19.1635 60.2528
19.2088 61.6931
19.254 64.1678
19.2993 67.8223
19.3447 72.2028
19.3898 76.8496
19.4352 74.0331
19.4804 65.1811
19.5257 58.4202
19.5709 55.8771
19.6163 55.2825
19.6615 55.3416
19.7068 54.7909
19.752 54.8719
19.7974 55.5821
19.8426 56.3443
19.888 57.1147
19.9332 58.317
19.9786 60.8762
20.0238 64.104
20.0692 68.2523
20.1144 71.389
20.1598 70.5721
20.205 65.9422
20.2504 63.4002
20.2957 64.4799
20.3411 66.6986
20.3863 65.8567
20.4318 60.0243
20.477 55.0372
20.5224 52.7299
20.5677 51.9216
20.6131 51.4519
20.6586 50.9048
20.7038 50.7694
20.7493 50.2728
20.7945 50.2933
20.84 50.0606
20.8853 50.2466
20.9307 49.8481
20.976 50.147
21.0215 49.9072
21.0668 50.4717
21.1122 50.9536
21.1575 51.3991
21.203 52.0378
21.2483 52.805
21.2938 53.1153
21.3391 51.561
21.3846 50.2112
21.4299 49.8338
21.4754 49.8926
21.5207 50.1344
21.5662 50.5599
21.6116 51.1774
21.6571 51.9821
21.7024 52.8126
21.7479 54.6819
21.7933 57.2102
21.8388 60.2264
21.8843 63.6243
21.9297 66.0098
21.9752 65.3224
22.0206 61.3446
22.0661 57.664
22.1115 57.0415
22.157 57.4406
22.2024 55.9126
22.248 52.9392
22.2933 51.294
22.3389 50.4792
22.3843 50.3742
22.4299 49.9494
22.4753 50.1553
22.5208 49.9401
22.5662 50.0207
22.6118 50.1936
22.6572 50.5285
22.7028 50.9957
22.7483 51.5885
22.7939 52.4407
22.8393 53.7983
22.8849 55.3693
22.9303 57.014
22.9759 58.8605
23.0214 58.7151
23.067 56.1708
23.1126 52.5484
23.1581 50.6571
23.2037 50.3656
23.2492 50.6533
23.2948 50.6228
23.3403 50.8991
23.3859 51.7055
23.4314 52.698
23.477 54.1044
23.5225 55.701
23.5682 57.783
23.6137 59.2233
23.6593 57.1728
23.7048 53.0266
23.7505 49.632
23.796 47.9089
23.8417 47.2466
23.8872 46.7133
23.9329 46.5008
23.9784 46.1436
24.0241 45.8197
24.0697 45.7046
24.1154 45.2409
24.1609 45.1816
24.2066 44.9564
24.2522 44.9441
24.2979 44.5755
24.3434 44.5182
24.3892 44.2786
24.4349 44.361
24.4805 44.1818
24.5262 44.1763
24.5718 44.0094
24.6175 44.1424
24.6631 44.0005
24.7089 43.6876
24.7545 43.5862
24.8002 43.4087
24.8458 43.5212
24.8916 43.4699
24.9372 43.7071
24.983 43.8233
25.0286 44.2893
25.0744 44.5793
25.12 45.0203
25.1658 45.5773
25.2114 45.8971
25.2572 45.9355
25.3029 45.7948
25.3487 46.0956
25.3943 45.866
25.4402 44.6634
25.4858 43.7182
25.5316 42.6165
25.5773 42.0305
25.6231 42.0641
25.669 41.6361
25.7147 41.6601
25.7605 41.6679
25.8062 41.4769
25.8521 41.8265
25.8977 41.7786
25.9436 41.9093
25.9893 42.0689
26.0352 42.4346
26.0809 42.6382
26.1268 42.7155
26.1725 42.5965
26.2184 41.9353
26.2641 41.5497
26.31 41.3999
26.3557 41.3917
26.4017 41.3792
26.4474 41.7538
26.4933 41.8858
26.5391 42.3555
26.585 42.7161
26.6308 43.0457
26.6767 43.3441
26.7225 43.0679
26.7684 42.6663
26.8142 42.0595
26.8601 41.5592
26.9059 41.1801
26.9519 40.6292
26.9979 40.4045
27.0437 39.9226
27.0896 39.9315
27.1354 39.8538
27.1814 39.7055
27.2272 39.6769
27.2732 39.5401
27.3191 39.3932
27.3651 39.6848
27.4109 39.4499
27.4569 39.5014
27.5027 39.5479
27.5488 39.7145
27.5946 39.4732
27.6407 39.4171
27.6865 39.1912
27.7326 38.9519
27.7784 38.9581
27.8245 38.821
27.8703 39.2055
27.9164 39.2818
27.9623 39.4886
28.0084 39.6391
28.0543 40.148
28.1003 40.0223
28.1462 39.7357
28.1923 39.4946
28.2384 38.9527
28.2843 38.6266
28.3304 38.2721
28.3764 37.6407
28.4225 37.4249
28.4684 37.3068
28.5145 36.9786
28.5605 36.8977
28.6066 36.5948
28.6526 36.5538
28.6987 36.4984
28.7447 36.4856
28.7908 36.254
28.8368 36.2954
28.8829 36.3814
28.9289 36.1623
28.9751 36.0491
29.0211 35.9297
29.0673 35.6119
29.1133 35.55
29.1595 35.3088
29.2055 35.2644
29.2517 35.2698
29.2977 35.1437
29.3439 35.0508
29.3899 35.1475
29.4361 35.0602
29.4824 34.8559
29.5284 34.6242
29.5746 34.3072
29.6207 34.0345
29.6669 33.8729
29.713 33.8831
29.7593 33.7613
29.8053 33.757
29.8516 33.7046
29.8977 33.7154
29.9439 33.5216
29.99 33.5
30.0363 33.3389
30.0824 33.3415
30.1287 33.2609
30.1748 33.2942
30.2211 33.311
30.2673 33.0993
30.3136 33.2424
30.3597 33.1599
30.406 33.1258
30.4522 32.9665
30.4985 32.9132
30.5447 32.991
30.591 33.0303
30.6372 33.0929
30.6835 33.0139
30.7297 32.9913
30.7761 33.045
30.8224 32.8834
30.8686 32.6831
30.915 32.5188
30.9612 32.385
31.0076 32.1509
31.0538 32.0307
31.1002 31.9059
31.1464 31.832
31.1928 31.888
31.2391 31.8378
31.2855 31.7699
31.3317 31.666
31.3781 31.7193
31.4244 31.7345
31.4708 31.6218
31.5171 31.6981
31.5636 31.5332
31.6098 31.4358
31.6563 31.2436
31.7026 31.0666
31.7491 30.9992
31.7953 30.9452
31.8418 30.8902
31.8881 30.8796
31.9346 30.9563
31.9809 30.8827
32.0275 30.7495
32.074 30.608
32.1203 30.4276
32.1668 30.3198
32.2132 30.1786
32.2597 29.9606
32.306 29.9482
32.3526 29.7037
32.399 29.6492
32.4455 29.5503
32.4919 29.5074
32.5385 29.3676
32.5848 29.2678
32.6314 29.2919
32.6778 29.2058
32.7244 29.0589
32.7708 28.8416
32.8174 28.9311
32.8638 28.6959
32.9104 28.8058
32.9569 28.8304
33.0035 28.6296
33.0499 28.6327
33.0966 28.5017
33.143 28.481
33.1897 28.3863
33.2361 28.2802
33.2828 28.3182
33.3293 28.1258
33.3759 28.1847
33.4226 28.0115
33.4691 27.8915
33.5158 27.7871
33.5623 27.5819
33.609 27.4455
33.6555 27.4258
33.7022 27.3126
33.7487 27.2195
33.7954 27.1804
33.842 27.1038
33.8887 26.9839
33.9353 26.9468
33.982 26.8676
34.0286 26.7664
34.0753 26.6877
34.1219 26.6294
34.1687 26.5007
34.2152 26.4686
34.262 26.3138
34.3086 26.1868
34.3554 26.188
34.402 26.0436
34.4488 26.0059
34.4954 25.8829
34.5422 25.7525
34.5889 25.7658
34.6357 25.7184
34.6825 25.4898
34.7292 25.4507
34.776 25.3327
34.8227 25.4193
34.8695 25.2106
34.9162 25.1222
34.9631 25.0823
35.0098 25.1187
35.0566 24.904
35.1033 24.9593
35.1502 24.8912
35.1969 24.8326
35.2438 24.8372
35.2906 24.6667
35.3375 24.7336
35.3842 24.5571
35.4311 24.663
35.4779 24.5336
35.5248 24.4823
35.5716 24.3932
35.6185 24.2625
35.6653 24.2106
35.7123 24.1596
35.759 24.0762
35.806 23.9054
35.8528 23.7596
35.8998 23.8131
35.9468 23.7426
35.9936 23.7014
36.0406 23.5854
36.0874 23.5826
36.1345 23.5378
36.1813 23.4559
36.2283 23.3107
36.2752 23.2501
36.3222 23.2329
36.3691 23.1618
36.4161 23.0263
36.463 23.0702
36.5101 23.0402
36.557 22.8915
36.6041 22.7433
36.651 22.8051
36.6981 22.6195
36.745 22.603
36.7921 22.6072
36.839 22.407
36.8861 22.3783
36.9331 22.2999
36.9802 22.3437
37.0272 22.117
37.0743 22.0317
37.1213 22.0519
37.1684 22.0231
37.2154 21.9927
37.2626 21.8223
37.3098 21.7866
37.3568 21.6854
37.404 21.7036
37.451 21.5136
37.4982 21.4754
37.5452 21.3773
37.5924 21.3424
37.6395 21.3338
37.6867 21.2146
37.7337 21.1821
37.781 21.0746
37.8281 20.9826
37.8753 20.8844
37.9224 20.8443
37.9697 20.8054
38.0168 20.7645
38.064 20.6567
38.1111 20.6273
38.1584 20.5537
38.2056 20.4353
38.2529 20.3815
38.3 20.296
38.3473 20.303
38.3945 20.1796
38.4418 20.2331
38.489 20.0757
38.5363 19.9845
38.5837 19.9872
38.6309 19.8816
38.6782 19.8006
38.7254 19.7843
38.7728 19.6823
38.82 19.5733
38.8674 19.5587
38.9146 19.5423
38.9621 19.4793
39.0093 19.3745
39.0567 19.3851
39.104 19.2516
39.1514 19.1797
39.1987 19.165
39.2461 19.1532
39.2934 19.0624
39.3409 18.9312
39.3882 18.8982
39.4356 18.8098
39.483 18.8076
39.5304 18.6569
39.5778 18.6792
39.6253 18.6026
39.6726 18.5552
39.7201 18.504
39.7675 18.4324
39.815 18.355
39.8624 18.3145
39.9099 18.2745
39.9575 18.1564
40.0049 18.1916
40.0525 18.0905
40.0999 18.0551
40.1474 17.9844
40.1949 17.894
40.2425 17.8199
40.2899 17.8201
40.3375 17.7499
40.385 17.6584
40.4326 17.6487
40.48 17.5763
40.5277 17.5578
40.5752 17.4796
40.6228 17.4018
40.6703 17.3542
40.718 17.2324
40.7655 17.3277
40.8132 17.2063
40.8607 17.16
40.9084 17.1383
40.9559 17.0012
41.0036 16.9444
41.0512 16.865
41.0989 16.89
41.1465 16.749
41.1942 16.8095
41.242 16.7206
41.2896 16.6095
41.3373 16.5731
41.3849 16.5386
41.4327 16.4726
41.4803 16.3883
41.5281 16.3528
41.5758 16.286
41.6236 16.1984
41.6712 16.2137
41.7191 16.1533
41.7667 16.1041
41.8146 16.018
41.8622 15.9348
41.9101 15.9996
41.9578 15.8124
42.0057 15.8206
42.0534 15.7397
42.1013 15.7124
42.149 15.6189
42.1969 15.5878
42.2446 15.5345
42.2925 15.5171
42.3403 15.4741
42.3882 15.4292
42.436 15.3714
42.4839 15.3063
42.5319 15.2129
42.5797 15.2458
42.6277 15.1423
42.6755 15.0894
42.7235 15.0335
42.7713 14.9886
42.8193 14.9335
42.8671 14.8661
42.9152 14.8347
42.963 14.7895
43.0111 14.7205
43.0589 14.6836
43.107 14.6275
43.1549 14.5888
43.2029 14.5278
43.2508 14.4658
43.2989 14.4051
43.3468 14.38
43.3949 14.3318
43.4429 14.265
43.491 14.1909
43.5389 14.1395
43.5871 14.162
43.635 14.0845
43.6832 14.0041
43.7312 13.9504
43.7793 13.9364
43.8273 13.9024
43.8755 13.8535
43.9237 13.8104
43.9717 13.7785
44.0199 13.7091
44.068 13.6773
44.1162 13.6178
44.1642 13.6208
44.2125 13.583
44.2606 13.4905
44.3088 13.4569
44.3569 13.3701
44.4052 13.354
44.4533 13.2746
44.5016 13.2234
44.5497 13.2051
44.598 13.1211
44.6461 13.1017
44.6945 13.0524
44.7426 12.9825
44.791 12.9246
44.8391 12.8902
44.8875 12.891
44.9357 12.8194
44.984 12.8178
45.0322 12.6999
45.0806 12.6678
45.1288 12.6567
45.1773 12.5922
45.2257 12.5284
45.2739 12.5226
45.3224 12.4557
45.3706 12.4435
45.4191 12.3677
45.4673 12.3716
45.5158 12.2611
45.5641 12.278
45.6126 12.177
45.6609 12.1522
45.7094 12.1393
45.7577 12.0669
45.8063 12.0115
45.8546 12.0257
45.9031 11.9542
45.9515 11.8734
46.0001 11.8474
46.0484 11.8198
46.097 11.7783
46.1454 11.7846
46.194 11.6808
46.2424 11.6883
46.291 11.5531
46.3395 11.5927
46.3881 11.5283
46.4365 11.4482
46.4852 11.4868
46.5337 11.3749
46.5823 11.3623
46.631 11.3035
46.6795 11.2577
46.7282 11.2389
46.7767 11.2033
46.8254 11.1113
46.8739 11.1247
46.9226 11.0346
46.9712 11.0438
47.0199 10.9742
47.0685 10.9599
47.1173 10.8715
47.1658 10.8703
47.2146 10.8185
47.2632 10.7726
47.312 10.7559
47.3606 10.6789
47.4095 10.645
47.4581 10.6094
47.5069 10.6005
47.5556 10.5401
47.6044 10.5109
47.6531 10.4479
47.702 10.4001
47.7507 10.3815
47.7996 10.343
47.8483 10.282
47.8972 10.2513
47.9461 10.2165
47.9948 10.1875
48.0438 10.1653
48.0925 10.1738
48.1415 10.0963
48.1902 10.0483
48.2392 10.0375
48.288 9.99069
48.337 9.94567
48.3858 9.94586
48.4348 9.87777
48.4837 9.84451
48.5327 9.86104
48.5815 9.7827
48.6306 9.75795
48.6795 9.72011
48.7285 9.65665
48.7774 9.61777
48.8265 9.59914
48.8754 9.54956
48.9245 9.56763
48.9734 9.4663
49.0226 9.47712
49.0715 9.39934
49.1206 9.3714
49.1696 9.31981
49.2188 9.33389
49.2679 9.25536
49.3169 9.21664
49.3661 9.18454
49.4151 9.16645
49.4643 9.14167
49.5134 9.10193
49.5626 9.04898
49.6117 9.09243
49.6609 8.97956
49.71 8.93193
49.7592 8.93989
49.8083 8.8509
49.8576 8.85837
49.9067 8.80079
49.956 8.79014
50.0052 8.71441
50.0545 8.71391
50.1036 8.69981
50.153 8.6301
50.2022 8.59639
50.2515 8.5647
50.3007 8.51642
50.3501 8.51177
50.3993 8.44801
50.4487 8.42627
50.498 8.41255
50.5474 8.37711
50.5966 8.31542
50.6461 8.30833
50.6955 8.30068
50.7448 8.25876
50.7943 8.21978
50.8436 8.20054
50.8931 8.14314
50.9424 8.1062
50.9919 8.07094
51.0413 8.05168
51.0908 8.03954
51.1402 7.99959
51.1897 7.96215
51.2391 7.9228
51.2887 7.91516
51.3381 7.87197
51.3877 7.84728
51.4371 7.82194
51.4867 7.78131
51.5362 7.73337
51.5858 7.67051
51.6353 7.6662
51.6849 7.64278
51.7344 7.63345
51.7841 7.56673
51.8336 7.49295
51.8833 7.50748
51.9328 7.4824
51.9826 7.45519
52.0323 7.38327
52.0818 7.37747
52.1316 7.33796
52.1812 7.35503
52.231 7.28663
52.2806 7.23991
52.3304 7.22716
52.38 7.19476
52.4298 7.2136
52.4794 7.13616
52.5293 7.12784
52.5789 7.09118
52.6288 7.08377
52.6785 7.04771
52.7284 7.01405
52.7781 6.98787
52.828 6.95016
52.8777 6.89551
52.9276 6.84873
52.9774 6.83045
53.0273 6.85202
53.0771 6.78575
53.1271 6.77605
53.1769 6.73322
53.2269 6.74054
53.2767 6.67625
53.3267 6.65056
53.3765 6.64487
53.4266 6.58772
53.4766 6.54066
53.5265 6.54972
53.5765 6.53746
53.6264 6.47837
53.6765 6.43847
53.7264 6.45838
53.7765 6.38172
53.8265 6.36317
53.8766 6.33407
53.9266 6.3111
53.9767 6.29006
54.0267 6.2535
54.0769 6.2808
54.1269 6.19937
54.1771 6.17816
54.2271 6.13176
54.2773 6.09934
54.3274 6.11763
54.3776 5.98077
54.4277 6.03156
54.478 5.966
54.528 5.95315
54.5783 5.86109
54.6285 5.79435
54.6788 5.80655
54.7289 5.77944
54.7792 5.71991
54.8296 5.69725
54.8798 5.65481
54.9301 5.61811
54.9803 5.56835
55.0307 5.59333
55.0809 5.53417
55.1314 5.50109
55.1816 5.40672
55.232 5.37783
55.2823 5.31038
55.3328 5.30746
55.383 5.21188
55.4335 5.2141
55.4838 5.15729
55.5344 5.05107
55.5847 5.02106
55.6352 5.0093
55.6856 5.02346
55.7361 4.95299