File: XRD/Ni3Fe_FD0782.xy
TT I
1.27165 7.67591
1.31627 6.42487
1.36089 6.60927
1.40551 6.15551
1.45013 5.97046
1.49476 5.75137
1.53938 5.56475
1.584 5.16859
1.62863 4.84932
1.67325 4.5263
1.71787 5.02021
1.7625 4.45193
1.80712 4.829
1.85174 4.26706
1.89636 4.78176
1.94099 4.64669
1.98562 4.60999
2.03025 4.15874
2.07487 4.5973
2.11949 5.463
2.16411 4.7984
2.20874 12.4497
2.25338 18.3165
2.298 5.96628
2.34263 5.5971
2.38725 6.17632
2.43188 6.45947
2.4765 7.28809
2.52115 7.42759
2.56577 7.47827
2.6104 8.46
2.65503 7.805
2.69965 8.65282
2.7443 8.2631
2.78893 8.37786
2.83356 8.92894
2.87818 8.76784
2.92281 8.98055
2.96744 9.40664
3.01209 10.6135
3.05672 11.188
3.10135 12.6532
3.14599 12.6861
3.19062 14.6698
3.23527 14.9549
3.2799 15.6861
3.32454 16.8228
3.36917 17.5931
3.4138 19.6279
3.45844 19.4679
3.50309 20.4856
3.54773 21.3119
3.59237 23.533
3.637 77.5792
3.68164 51.065
3.7263 25.9457
3.77094 25.8696
3.81558 26.7627
3.86022 27.6408
3.90486 28.5026
3.9495 29.5066
3.99416 31.1787
4.0388 32.295
4.08344 33.5098
4.12809 34.2983
4.17273 36.1205
4.21738 41.1363
4.26204 203.181
4.30669 176.695
4.35133 46.638
4.39598 43.8555
4.44063 51.754
4.4853 61.1196
4.52995 49.804
4.5746 50.7343
4.61925 52.8979
4.6639 54.8162
4.70855 57.9037
4.75322 60.1437
4.79788 63.4268
4.84253 66.735
4.88719 70.6195
4.93184 74.4433
4.97652 79.6749
5.02118 86.06
5.06583 93.4435
5.11049 104.112
5.15515 162.209
5.19981 335.171
5.24449 2772.27
5.28916 12830.7
5.33382 2630.07
5.37848 176.436
5.42315 124.979
5.46783 110.623
5.5125 103.943
5.55716 100.498
5.60183 96.6172
5.6465 95.5696
5.69117 93.1903
5.73586 90.6723
5.78053 90.534
5.8252 89.9561
5.86988 91.1309
5.91455 92.7918
5.95924 100.936
6.00392 205.321
6.0486 943.053
6.09328 4512.19
6.13795 3209.99
6.18263 209.515
6.22733 90.046
6.27201 80.9371
6.3167 94.7678
6.36138 77.5289
6.40606 67.7496
6.45075 66.6755
6.49545 64.7162
6.54014 62.7718
6.58483 62.4417
6.62952 61.7924
6.67421 87.053
6.71892 124.048
6.76361 66.0648
6.8083 57.7789
6.853 56.7777
6.89769 56.1588
6.94239 55.8321
6.98711 55.0399
7.03181 54.8984
7.07651 54.9652
7.12121 54.4387
7.16591 54.799
7.21063 54.6215
7.25533 66.8927
7.30004 150.431
7.34475 82.8759
7.38945 55.6078
7.43416 53.5559
7.47889 53.5531
7.5236 54.0636
7.56831 54.6717
7.61303 56.0726
7.65774 56.1095
7.70247 55.4464
7.74719 55.2769
7.79191 56.0028
7.83663 56.4378
7.88135 57.2131
7.92607 58.0114
7.97081 58.9944
8.01553 60.0958
8.06026 61.4858
8.10498 62.8844
8.14971 70.9123
8.19446 70.4165
8.23919 68.869
8.28392 71.2175
8.32865 73.2828
8.37339 77.5422
8.41812 83.5535
8.46288 108.773
8.50761 162.429
8.55235 374.277
8.59709 1207.3
8.64183 2213.69
8.68658 866.596
8.73134 148.084
8.77609 97.0419
8.82083 90.7074
8.86558 88.096
8.91033 88.0969
8.9551 89.3375
8.99985 84.4832
9.04461 82.3381
9.08936 81.8412
9.13412 80.938
9.17888 81.3213
9.22365 81.636
9.26841 80.7938
9.31318 81.6156
9.35794 81.5275
9.4027 82.3365
9.44749 83.0619
9.49226 83.5946
9.53703 84.5505
9.5818 85.9869
9.62657 90.2047
9.67134 95.7486
9.71614 92.315
9.76091 92.7668
9.80569 95.3825
9.85047 98.6851
9.89525 118.752
9.94005 131.28
9.98484 173.081
10.0296 335.006
10.0744 814.781
10.1192 1778.85
10.164 1517.73
10.2088 347.075
10.2536 119.994
10.2984 110.186
10.3432 110.544
10.388 103.075
10.4328 116.976
10.4776 158.366
10.5224 286.652
10.5672 533.927
10.612 481.15
10.6568 186.506
10.7017 93.761
10.7465 85.1349
10.7913 82.1395
10.8361 79.9559
10.8809 77.9091
10.9257 77.0429
10.9706 77.245
11.0154 73.5183
11.0602 72.0482
11.105 70.8988
11.1499 74.2148
11.1947 79.793
11.2395 72.4963
11.2844 68.9436
11.3292 66.4146
11.374 65.3695
11.4189 64.7332
11.4637 64.3301
11.5086 64.3549
11.5534 66.2588
11.5983 64.4356
11.6431 62.715
11.688 62.1038
11.7328 61.9908
11.7777 61.8839
11.8225 61.6848
11.8674 61.6589
11.9122 61.787
11.9571 62.2756
12.002 63.0453
12.0468 67.1521
12.0917 77.3583
12.1366 101.597
12.1814 158.055
12.2263 213.744
12.2712 168.044
12.3161 89.4225
12.3609 68.134
12.4058 63.7189
12.4507 63.4948
12.4956 63.691
12.5405 63.6697
12.5853 64.4289
12.6302 70.636
12.6751 75.0877
12.72 68.5621
12.7649 66.7009
12.8098 67.4229
12.8547 68.8951
12.8996 70.2488
12.9445 71.3876
12.9894 73.0748
13.0343 75.082
13.0792 78.3165
13.1242 87.0951
13.1691 109.803
13.214 146.262
13.2589 241.274
13.3038 385.683
13.3487 425.532
13.3937 243.141
13.4386 117.235
13.4835 103.469
13.5285 118.133
13.5734 156.505
13.6183 252.937
13.6633 363.293
13.7082 338.572
13.7531 170.039
13.7981 92.4543
13.843 80.2081
13.888 78.4556
13.9329 76.0654
13.9779 74.873
14.0228 73.7273
14.0678 71.9461
14.1127 71.7747
14.1577 71.3669
14.2027 70.608
14.2476 69.6013
14.2926 69.5418
14.3376 70.4315
14.3825 69.1675
14.4275 67.9434
14.4725 67.8202
14.5175 68.1393
14.5624 68.2078
14.6074 69.8587
14.6524 70.3336
14.6974 69.7333
14.7424 71.3668
14.7874 77.9801
14.8324 87.7707
14.8774 109.583
14.9224 156.046
14.9674 215.857
15.0124 220.3
15.0574 145.081
15.1024 86.5772
15.1474 70.744
15.1924 69.4199
15.2374 69.6347
15.2824 68.8127
15.3274 66.942
15.3725 65.8999
15.4175 65.5925
15.4625 65.2616
15.5076 65.2887
15.5526 65.2992
15.5976 65.111
15.6426 66.1228
15.6877 71.3808
15.7327 78.503
15.7778 93.2573
15.8228 127.508
15.8679 176.601
15.9129 198.713
15.958 149.683
16.003 90.576
16.0481 65.7785
16.0931 63.3735
16.1382 61.4754
16.1833 59.7849
16.2283 58.2041
16.2734 57.613
16.3185 57.61
16.3636 58.1844
16.4086 56.6977
16.4537 55.732
16.4988 54.8868
16.5439 54.7098
16.589 54.3303
16.6341 54.3055
16.6792 53.8362
16.7243 54.2512
16.7694 54.1249
16.8145 54.1447
16.8596 54.5283
16.9047 55.8584
16.9498 55.8077
16.9949 54.999
17.04 55.1837
17.0851 56.3099
17.1302 57.8368
17.1754 60.9914
17.2205 66.4606
17.2656 74.8177
17.3108 83.3128
17.3559 81.2678
17.401 68.8085
17.4462 60.6856
17.4913 58.3519
17.5365 58.4159
17.5815 58.5294
17.6268 58.8005
17.6718 59.83
17.7171 60.0783
17.7622 60.6642
17.8074 61.247
17.8525 63.3121
17.8977 67.5094
17.9428 72.8134
17.9881 81.4959
18.0331 100.382
18.0784 124.806
18.1237 141.811
18.1688 127.42
18.214 98.7527
18.2591 84.3946
18.3044 90.383
18.3495 101.597
18.3948 105.933
18.4399 92.9253
18.4852 74.1087
18.5303 64.4204
18.5756 61.422
18.6207 60.5067
18.666 59.8094
18.7112 58.8094
18.7565 58.1235
18.8016 57.9852
18.8469 57.3217
18.892 56.9697
18.9374 56.6897
18.9825 56.2082
19.0278 56.1704
19.073 56.4125
19.1183 56.7637
19.1635 57.4466
19.2088 58.8406
19.254 61.3499
19.2993 66.3758
19.3447 72.8113
19.3898 75.9788
19.4352 70.9522
19.4804 61.4053
19.5257 55.7004
19.5709 53.4678
19.6163 53.2621
19.6615 53.1033
19.7068 52.718
19.752 52.6051
19.7974 53.1042
19.8426 53.7829
19.888 54.3721
19.9332 55.5652
19.9786 58.3238
20.0238 62.3654
20.0692 67.4556
20.1144 69.4783
20.1598 66.9969
20.205 62.4574
20.2504 61.5092
20.2957 64.008
20.3411 65.5137
20.3863 62.7989
20.4318 56.9616
20.477 52.3342
20.5224 50.8916
20.5677 50.2697
20.6131 49.6364
20.6586 49.0897
20.7038 48.9303
20.7493 48.4
20.7945 48.4659
20.84 48.2947
20.8853 48.0966
20.9307 47.9388
20.976 48.1342
21.0215 48.0676
21.0668 48.4782
21.1122 48.8933
21.1575 49.4883
21.203 50.3514
21.2483 50.9899
21.2938 50.804
21.3391 49.357
21.3846 48.325
21.4299 47.8194
21.4754 47.8442
21.5207 47.9235
21.5662 48.1517
21.6116 48.6394
21.6571 49.3479
21.7024 50.2332
21.7479 52.0386
21.7933 54.9037
21.8388 58.7672
21.8843 62.7292
21.9297 64.1375
21.9752 61.8604
22.0206 58.0841
22.0661 55.8443
22.1115 55.6945
22.157 55.4041
22.2024 53.4206
22.248 50.5123
22.2933 49.3364
22.3389 48.3409
22.3843 48.4239
22.4299 48.2839
22.4753 48.4348
22.5208 48.0232
22.5662 47.9687
22.6118 48.0468
22.6572 48.1881
22.7028 48.8417
22.7483 49.1712
22.7939 49.9066
22.8393 51.3698
22.8849 53.9376
22.9303 56.0051
22.9759 57.6636
23.0214 56.9196
23.067 53.6455
23.1126 50.2584
23.1581 48.5741
23.2037 48.2706
23.2492 48.2249
23.2948 48.3173
23.3403 48.4995
23.3859 49.2672
23.4314 50.255
23.477 52.3393
23.5225 54.7513
23.5682 56.9824
23.6137 57.4197
23.6593 54.4133
23.7048 50.5415
23.7505 47.5225
23.796 46.076
23.8417 45.4742
23.8872 45.1654
23.9329 44.6634
23.9784 44.3871
24.0241 44.1539
24.0697 43.9363
24.1154 43.5904
24.1609 43.4312
24.2066 43.257
24.2522 43.2542
24.2979 42.9688
24.3434 42.7324
24.3892 42.5608
24.4349 42.5491
24.4805 42.4271
24.5262 42.6039
24.5718 42.4931
24.6175 42.4262
24.6631 42.2567
24.7089 42.0663
24.7545 41.8322
24.8002 41.6527
24.8458 41.7735
24.8916 41.4812
24.9372 41.6588
24.983 42.1055
25.0286 42.286
25.0744 42.8137
25.12 43.4828
25.1658 43.8766
25.2114 44.3531
25.2572 44.4407
25.3029 44.3199
25.3487 44.5303
25.3943 44.0508
25.4402 42.7933
25.4858 41.7853
25.5316 40.8621
25.5773 40.3747
25.6231 40.4768
25.669 40.1659
25.7147 40.0812
25.7605 39.9661
25.8062 40.0586
25.8521 40.0693
25.8977 40.1205
25.9436 40.2679
25.9893 40.6243
26.0352 41.0043
26.0809 41.1733
26.1268 41.2565
26.1725 40.9053
26.2184 40.3315
26.2641 39.75
26.31 39.6129
26.3557 39.6369
26.4017 39.7035
26.4474 39.9295
26.4933 40.3354
26.5391 40.8972
26.585 41.5483
26.6308 41.7171
26.6767 41.8677
26.7225 41.475
26.7684 40.8857
26.8142 40.3849
26.8601 39.9598
26.9059 39.5739
26.9519 39.1379
26.9979 38.6844
27.0437 38.4524
27.0896 38.3193
27.1354 38.365
27.1814 38.211
27.2272 38.0795
27.2732 37.999
27.3191 37.9545
27.3651 38.0574
27.4109 38.0133
27.4569 38.0868
27.5027 38.2279
27.5488 38.273
27.5946 37.8776
27.6407 37.7968
27.6865 37.7022
27.7326 37.3763
27.7784 37.3391
27.8245 37.3472
27.8703 37.5443
27.9164 37.8869
27.9623 38.0167
28.0084 38.4777
28.0543 38.7574
28.1003 38.5702
28.1462 38.4439
28.1923 38.1644
28.2384 37.5699
28.2843 37.1064
28.3304 36.6371
28.3764 36.2603
28.4225 36.0406
28.4684 35.8516
28.5145 35.493
28.5605 35.5103
28.6066 35.2631
28.6526 35.2598
28.6987 35.1895
28.7447 35.1267
28.7908 35.077
28.8368 35.0657
28.8829 35.0427
28.9289 34.9538
28.9751 34.6942
29.0211 34.4421
29.0673 34.2443
29.1133 34.1392
29.1595 33.9929
29.2055 33.9671
29.2517 33.9525
29.2977 33.8609
29.3439 33.8846
29.3899 33.9012
29.4361 33.7915
29.4824 33.4744
29.5284 33.3695
29.5746 33.0698
29.6207 32.7216
29.6669 32.7172
29.713 32.6512
29.7593 32.4612
29.8053 32.5399
29.8516 32.5019
29.8977 32.4441
29.9439 32.2647
29.99 32.3335
30.0363 32.1003
30.0824 32.1766
30.1287 32.1318
30.1748 32.1215
30.2211 32.1566
30.2673 31.9238
30.3136 31.9554
30.3597 31.9437
30.406 31.8532
30.4522 31.7395
30.4985 31.7576
30.5447 31.8726
30.591 31.7845
30.6372 31.8817
30.6835 31.8071
30.7297 31.8964
30.7761 31.8737
30.8224 31.6659
30.8686 31.4297
30.915 31.2813
30.9612 31.2092
31.0076 31.0454
31.0538 30.8547
31.1002 30.8544
31.1464 30.6311
31.1928 30.5153
31.2391 30.6723
31.2855 30.5621
31.3317 30.5945
31.3781 30.5561
31.4244 30.5188
31.4708 30.4489
31.5171 30.442
31.5636 30.3861
31.6098 30.1173
31.6563 30.0085
31.7026 30.0517
31.7491 29.7873
31.7953 29.823
31.8418 29.81
31.8881 29.8416
31.9346 29.8702
31.9809 29.6193
32.0275 29.6202
32.074 29.4942
32.1203 29.2126
32.1668 29.2518
32.2132 29.0509
32.2597 28.8862
32.306 28.7889
32.3526 28.6409
32.399 28.6691
32.4455 28.4748
32.4919 28.3439
32.5385 28.3239
32.5848 28.1517
32.6314 28.2876
32.6778 28.1451
32.7244 27.9968
32.7708 27.864
32.8174 27.8197
32.8638 27.7635
32.9104 27.8535
32.9569 27.7719
33.0035 27.5989
33.0499 27.5742
33.0966 27.4962
33.143 27.4743
33.1897 27.3466
33.2361 27.3097
33.2828 27.2773
33.3293 27.1077
33.3759 27.0791
33.4226 26.9652
33.4691 26.781
33.5158 26.748
33.5623 26.6186
33.609 26.4805
33.6555 26.3813
33.7022 26.3571
33.7487 26.2369
33.7954 26.1773
33.842 26.107
33.8887 26.064
33.9353 25.9791
33.982 25.9079
34.0286 25.6914
34.0753 25.7672
34.1219 25.5919
34.1687 25.5133
34.2152 25.4829
34.262 25.3801
34.3086 25.256
34.3554 25.1934
34.402 25.1381
34.4488 25.0342
34.4954 24.995
34.5422 24.8855
34.5889 24.8383
34.6357 24.7293
34.6825 24.6813
34.7292 24.5895
34.776 24.5268
34.8227 24.4483
34.8695 24.359
34.9162 24.3262
34.9631 24.3073
35.0098 24.1959
35.0566 24.0967
35.1033 24.027
35.1502 23.9744
35.1969 23.9044
35.2438 23.8967
35.2906 23.8577
35.3375 23.7676
35.3842 23.7921
35.4311 23.7667
35.4779 23.704
35.5248 23.6151
35.5716 23.5227
35.6185 23.458
35.6653 23.3904
35.7123 23.3205
35.759 23.1839
35.806 23.1498
35.8528 22.993
35.8998 22.9937
35.9468 22.9264
35.9936 22.9086
36.0406 22.7765
36.0874 22.7498
36.1345 22.6429
36.1813 22.603
36.2283 22.4432
36.2752 22.4234
36.3222 22.4662
36.3691 22.3218
36.4161 22.1694
36.463 22.1992
36.5101 22.1865
36.557 22.1144
36.6041 21.9781
36.651 21.8867
36.6981 21.8952
36.745 21.8296
36.7921 21.8015
36.839 21.6576
36.8861 21.5684
36.9331 21.4815
36.9802 21.434
37.0272 21.3066
37.0743 21.3498
37.1213 21.2207
37.1684 21.2063
37.2154 21.1201
37.2626 21.0215
37.3098 20.9878
37.3568 20.8573
37.404 20.8971
37.451 20.8061
37.4982 20.6868
37.5452 20.6439
37.5924 20.521
37.6395 20.5937
37.6867 20.4674
37.7337 20.4292
37.781 20.3283
37.8281 20.312
37.8753 20.2016
37.9224 20.0784
37.9697 20.0415
38.0168 20.0192
38.064 19.8965
38.1111 19.8429
38.1584 19.7724
38.2056 19.7457
38.2529 19.6663
38.3 19.6713
38.3473 19.5928
38.3945 19.472
38.4418 19.5207
38.489 19.4231
38.5363 19.303
38.5837 19.2508
38.6309 19.2306
38.6782 19.1329
38.7254 19.0478
38.7728 19.0496
38.82 18.9421
38.8674 18.8589
38.9146 18.8734
38.9621 18.7978
39.0093 18.7595
39.0567 18.6607
39.104 18.5665
39.1514 18.4731
39.1987 18.4941
39.2461 18.4332
39.2934 18.3622
39.3409 18.2769
39.3882 18.2008
39.4356 18.1999
39.483 18.1599
39.5304 17.9877
39.5778 18.0676
39.6253 18.0047
39.6726 17.8489
39.7201 17.8463
39.7675 17.8152
39.815 17.7242
39.8624 17.7065
39.9099 17.697
39.9575 17.5526
40.0049 17.5051
40.0525 17.4275
40.0999 17.3462
40.1474 17.2886
40.1949 17.3053
40.2425 17.1745
40.2899 17.2125
40.3375 17.0992
40.385 17.083
40.4326 16.9916
40.48 16.9284
40.5277 16.9673
40.5752 16.8911
40.6228 16.7751
40.6703 16.7455
40.718 16.6747
40.7655 16.6216
40.8132 16.5824
40.8607 16.5649
40.9084 16.5124
40.9559 16.422
41.0036 16.4185
41.0512 16.3313
41.0989 16.2377
41.1465 16.2536
41.1942 16.2004
41.242 16.1038
41.2896 16.0287
41.3373 15.9951
41.3849 15.9944
41.4327 15.9132
41.4803 15.7739
41.5281 15.7927
41.5758 15.6963
41.6236 15.7541
41.6712 15.6336
41.7191 15.5994
41.7667 15.4983
41.8146 15.5073
41.8622 15.4213
41.9101 15.3751
41.9578 15.2813
42.0057 15.2919
42.0534 15.2475
42.1013 15.1462
42.149 15.1211
42.1969 15.077
42.2446 15.0089
42.2925 15.033
42.3403 14.8995
42.3882 14.9255
42.436 14.8466
42.4839 14.7684
42.5319 14.7006
42.5797 14.6622
42.6277 14.5953
42.6755 14.5863
42.7235 14.5305
42.7713 14.4653
42.8193 14.4697
42.8671 14.4012
42.9152 14.3364
42.963 14.303
43.0111 14.1928
43.0589 14.1504
43.107 14.1129
43.1549 14.0995
43.2029 13.9874
43.2508 13.9839
43.2989 13.9653
43.3468 13.8728
43.3949 13.7863
43.4429 13.8109
43.491 13.7389
43.5389 13.6403
43.5871 13.6432
43.635 13.6699
43.6832 13.529
43.7312 13.487
43.7793 13.4573
43.8273 13.4372
43.8755 13.347
43.9237 13.3055
43.9717 13.2578
44.0199 13.2622
44.068 13.1913
44.1162 13.1181
44.1642 13.1564
44.2125 13.0153
44.2606 13.0303
44.3088 12.9299
44.3569 12.927
44.4052 12.8758
44.4533 12.8126
44.5016 12.7609
44.5497 12.7258
44.598 12.6969
44.6461 12.6242
44.6945 12.6097
44.7426 12.5717
44.791 12.5227
44.8391 12.4396
44.8875 12.3805
44.9357 12.3653
44.984 12.3766
45.0322 12.2589
45.0806 12.2669
45.1288 12.1895
45.1773 12.1538
45.2257 12.137
45.2739 12.0873
45.3224 12.0582
45.3706 12.0231
45.4191 11.9266
45.4673 11.9241
45.5158 11.8573
45.5641 11.7999
45.6126 11.7701
45.6609 11.7223
45.7094 11.6926
45.7577 11.6361
45.8063 11.6045
45.8546 11.5478
45.9031 11.5259
45.9515 11.5031
46.0001 11.4705
46.0484 11.4317
46.097 11.375
46.1454 11.3518
46.194 11.2807
46.2424 11.229
46.291 11.1712
46.3395 11.1591
46.3881 11.0998
46.4365 11.1038
46.4852 11.0664
46.5337 11.0265
46.5823 10.9314
46.631 10.9388
46.6795 10.88
46.7282 10.8339
46.7767 10.8527
46.8254 10.7454
46.8739 10.7117
46.9226 10.6959
46.9712 10.635
47.0199 10.6298
47.0685 10.5775
47.1173 10.5264
47.1658 10.478
47.2146 10.4456
47.2632 10.4032
47.312 10.3985
47.3606 10.3501
47.4095 10.267
47.4581 10.1987
47.5069 10.1712
47.5556 10.1715
47.6044 10.1524
47.6531 10.0969
47.702 10.0473
47.7507 10.0132
47.7996 9.99995
47.8483 9.95001
47.8972 9.94107
47.9461 9.9088
47.9948 9.79881
48.0438 9.81945
48.0925 9.76829
48.1415 9.71686
48.1902 9.68021
48.2392 9.66959
48.288 9.67163
48.337 9.64131
48.3858 9.5513
48.4348 9.53654
48.4837 9.50405
48.5327 9.49437
48.5815 9.39183
48.6306 9.39128
48.6795 9.38627
48.7285 9.31136
48.7774 9.33205
48.8265 9.25998
48.8754 9.16312
48.9245 9.24001
48.9734 9.14705
49.0226 9.17376
49.0715 9.09263
49.1206 9.04373
49.1696 9.00374
49.2188 8.99335
49.2679 8.94268
49.3169 8.91303
49.3661 8.86525
49.4151 8.83147
49.4643 8.79029
49.5134 8.77711
49.5626 8.6971
49.6117 8.74005
49.6609 8.66477
49.71 8.60543
49.7592 8.60951
49.8083 8.57234
49.8576 8.52781
49.9067 8.5273
49.956 8.49741
50.0052 8.44587
50.0545 8.4234
50.1036 8.35784
50.153 8.36341
50.2022 8.33053
50.2515 8.28881
50.3007 8.2529
50.3501 8.2326
50.3993 8.18955
50.4487 8.15563
50.498 8.12295
50.5474 8.07167
50.5966 8.0613
50.6461 7.99488
50.6955 8.02166
50.7448 7.96968
50.7943 7.93969
50.8436 7.89754
50.8931 7.88206
50.9424 7.85488
50.9919 7.8317
51.0413 7.82458
51.0908 7.71657
51.1402 7.75415
51.1897 7.67891
51.2391 7.6835
51.2887 7.65266
51.3381 7.60645
51.3877 7.58694
51.4371 7.54376
51.4867 7.46706
51.5362 7.5246
51.5858 7.44528
51.6353 7.38931
51.6849 7.37467
51.7344 7.34412
51.7841 7.30381
51.8336 7.2998
51.8833 7.28945
51.9328 7.19669
51.9826 7.21141
52.0323 7.17312
52.0818 7.13919
52.1316 7.07834
52.1812 7.08655
52.231 7.05135
52.2806 7.00602
52.3304 7.02527
52.38 6.96333
52.4298 6.92754
52.4794 6.90572
52.5293 6.90893
52.5789 6.82667
52.6288 6.83201
52.6785 6.77799
52.7284 6.73389
52.7781 6.74541
52.828 6.71856
52.8777 6.6855
52.9276 6.65596
52.9774 6.62356
53.0273 6.60724
53.0771 6.58962
53.1271 6.56845
53.1769 6.50402
53.2269 6.49037
53.2767 6.4369
53.3267 6.42004
53.3765 6.43656
53.4266 6.39171
53.4766 6.3561
53.5265 6.28761
53.5765 6.33513
53.6264 6.27393
53.6765 6.25165
53.7264 6.2333
53.7765 6.22848
53.8265 6.16895
53.8766 6.13058
53.9266 6.1213
53.9767 6.02473
54.0267 6.06233
54.0769 6.00041
54.1269 5.92938
54.1771 5.97091
54.2271 5.91642
54.2773 5.89917
54.3274 5.89476
54.3776 5.84277
54.4277 5.82265
54.478 5.80826
54.528 5.76164
54.5783 5.71929
54.6285 5.65792
54.6788 5.63145
54.7289 5.63294
54.7792 5.59343
54.8296 5.5181
54.8798 5.43913
54.9301 5.40988
54.9803 5.41705
55.0307 5.34517
55.0809 5.32544
55.1314 5.28473
55.1816 5.2217
55.232 5.20966
55.2823 5.20741
55.3328 5.08185
55.383 5.05714
55.4335 4.97283
55.4838 4.94181
55.5344 4.95143
55.5847 4.86896
55.6352 4.8371
55.6856 4.80529
55.7361 4.8142