File: XRD/Ni3Fe_FD0838.xy
TT I
1.27165 7.3446
1.31627 6.42428
1.36089 7.04911
1.40551 6.60689
1.45013 6.59738
1.49476 6.44357
1.53938 5.70408
1.584 5.19417
1.62863 5.29132
1.67325 5.10733
1.71787 5.01476
1.7625 4.84257
1.80712 4.79379
1.85174 4.64804
1.89636 5.18731
1.94099 5.20256
1.98562 4.7192
2.03025 4.73981
2.07487 4.58159
2.11949 5.13866
2.16411 5.23652
2.20874 11.9053
2.25338 17.1097
2.298 6.78871
2.34263 5.37526
2.38725 6.2323
2.43188 6.58371
2.4765 7.64657
2.52115 7.46855
2.56577 7.84715
2.6104 8.90336
2.65503 8.00763
2.69965 8.64753
2.7443 8.45401
2.78893 8.29121
2.83356 8.43931
2.87818 8.58183
2.92281 9.1386
2.96744 9.50405
3.01209 10.8438
3.05672 11.4794
3.10135 12.709
3.14599 13.5131
3.19062 14.7268
3.23527 15.2393
3.2799 15.6249
3.32454 17.0593
3.36917 17.5395
3.4138 18.792
3.45844 19.4315
3.50309 20.9211
3.54773 21.6656
3.59237 23.9335
3.637 71.2899
3.68164 47.2978
3.7263 25.6551
3.77094 26.3386
3.81558 26.6964
3.86022 27.4901
3.90486 29.1556
3.9495 29.4694
3.99416 30.453
4.0388 32.2219
4.08344 33.5222
4.12809 35.0475
4.17273 36.5013
4.21738 41.2055
4.26204 188.924
4.30669 159.461
4.35133 46.6072
4.39598 43.8092
4.44063 51.3732
4.4853 59.3498
4.52995 51.5068
4.5746 52.1947
4.61925 53.1302
4.6639 55.1493
4.70855 57.9388
4.75322 61.0976
4.79788 64.4172
4.84253 66.8515
4.88719 72.0939
4.93184 75.2721
4.97652 79.6602
5.02118 86.4209
5.06583 93.4581
5.11049 104.01
5.15515 158.879
5.19981 327.847
5.24449 2718.0
5.28916 12340.7
5.33382 2742.02
5.37848 181.335
5.42315 126.55
5.46783 113.191
5.5125 106.262
5.55716 101.314
5.60183 97.4788
5.6465 95.5592
5.69117 93.4484
5.73586 91.5751
5.78053 92.3636
5.8252 92.1361
5.86988 93.3933
5.91455 93.1679
5.95924 99.6067
6.00392 199.583
6.0486 918.997
6.09328 4360.13
6.13795 3051.85
6.18263 225.524
6.22733 89.9787
6.27201 80.8622
6.3167 92.7551
6.36138 76.732
6.40606 68.806
6.45075 67.6158
6.49545 64.7655
6.54014 62.9114
6.58483 61.8716
6.62952 62.2913
6.67421 84.8228
6.71892 114.94
6.76361 64.9403
6.8083 58.1716
6.853 57.735
6.89769 56.5059
6.94239 56.0261
6.98711 54.846
7.03181 54.7889
7.07651 54.7314
7.12121 54.5739
7.16591 55.1298
7.21063 55.2502
7.25533 67.2874
7.30004 137.896
7.34475 78.165
7.38945 55.3422
7.43416 53.9775
7.47889 53.5934
7.5236 54.0784
7.56831 54.5997
7.61303 55.9653
7.65774 56.4245
7.70247 55.7035
7.74719 55.8199
7.79191 56.275
7.83663 56.4237
7.88135 57.1116
7.92607 58.2598
7.97081 59.2097
8.01553 60.4605
8.06026 61.7916
8.10498 63.6191
8.14971 71.1396
8.19446 70.7688
8.23919 68.8569
8.28392 71.0909
8.32865 73.553
8.37339 77.8128
8.41812 84.0316
8.46288 105.348
8.50761 157.733
8.55235 372.73
8.59709 1190.78
8.64183 2165.95
8.68658 910.307
8.73134 157.677
8.77609 97.602
8.82083 91.7604
8.86558 89.731
8.91033 89.7566
8.9551 89.3969
8.99985 84.5706
9.04461 83.1277
9.08936 82.9288
9.13412 81.2895
9.17888 81.5001
9.22365 81.9715
9.26841 81.4204
9.31318 82.5888
9.35794 83.5325
9.4027 83.3632
9.44749 83.5719
9.49226 84.1241
9.53703 84.9437
9.5818 87.2823
9.62657 91.8526
9.67134 95.5091
9.71614 92.3993
9.76091 93.4858
9.80569 96.5625
9.85047 99.5248
9.89525 117.308
9.94005 126.544
9.98484 170.836
10.0296 331.457
10.0744 823.863
10.1192 1740.59
10.164 1546.07
10.2088 395.901
10.2536 123.667
10.2984 110.509
10.3432 110.097
10.388 103.036
10.4328 116.097
10.4776 157.779
10.5224 290.379
10.5672 524.53
10.612 485.901
10.6568 195.773
10.7017 95.6622
10.7465 85.2944
10.7913 82.6961
10.8361 80.5989
10.8809 77.857
10.9257 77.4755
10.9706 77.6989
11.0154 74.4859
11.0602 72.0631
11.105 71.0424
11.1499 74.0969
11.1947 77.8748
11.2395 71.9136
11.2844 68.7501
11.3292 66.4735
11.374 65.4558
11.4189 65.0221
11.4637 63.992
11.5086 64.603
11.5534 66.2466
11.5983 64.249
11.6431 63.0771
11.688 62.3301
11.7328 62.5459
11.7777 62.3273
11.8225 61.9595
11.8674 61.9501
11.9122 61.9544
11.9571 62.3254
12.002 63.0469
12.0468 67.0333
12.0917 77.2145
12.1366 102.221
12.1814 155.727
12.2263 207.167
12.2712 168.346
12.3161 92.8909
12.3609 68.1682
12.4058 63.7229
12.4507 63.5748
12.4956 63.9812
12.5405 63.8889
12.5853 64.7154
12.6302 70.8026
12.6751 73.7925
12.72 68.1685
12.7649 67.1516
12.8098 67.7602
12.8547 69.0732
12.8996 70.6368
12.9445 71.9134
12.9894 73.3377
13.0343 75.1867
13.0792 78.3186
13.1242 86.9012
13.1691 109.039
13.214 146.844
13.2589 245.453
13.3038 381.592
13.3487 413.127
13.3937 252.022
13.4386 121.441
13.4835 103.842
13.5285 117.732
13.5734 157.909
13.6183 252.557
13.6633 355.057
13.7082 326.486
13.7531 179.144
13.7981 96.0077
13.843 80.9989
13.888 78.771
13.9329 76.1851
13.9779 75.1949
14.0228 73.6149
14.0678 72.3135
14.1127 72.1055
14.1577 71.494
14.2027 70.7253
14.2476 69.4889
14.2926 69.7087
14.3376 70.2422
14.3825 69.0698
14.4275 68.1437
14.4725 67.8742
14.5175 68.2515
14.5624 68.2925
14.6074 69.9241
14.6524 70.4017
14.6974 69.5
14.7424 71.3408
14.7874 77.3736
14.8324 87.3887
14.8774 110.279
14.9224 157.604
14.9674 211.16
15.0124 212.246
15.0574 144.193
15.1024 89.4729
15.1474 71.6058
15.1924 69.7175
15.2374 69.6368
15.2824 68.6483
15.3274 66.9577
15.3725 66.3348
15.4175 65.7526
15.4625 65.1635
15.5076 65.4076
15.5526 65.2869
15.5976 65.2178
15.6426 66.0703
15.6877 70.9715
15.7327 78.3005
15.7778 94.374
15.8228 128.413
15.8679 173.379
15.9129 189.276
15.958 148.944
16.003 93.3172
16.0481 67.2876
16.0931 63.3964
16.1382 61.2179
16.1833 59.8354
16.2283 58.2854
16.2734 57.6307
16.3185 57.8438
16.3636 57.9754
16.4086 56.8163
16.4537 55.5642
16.4988 54.9872
16.5439 54.9574
16.589 54.5942
16.6341 54.2759
16.6792 54.0374
16.7243 54.4111
16.7694 54.1066
16.8145 54.2476
16.8596 54.4919
16.9047 55.839
16.9498 55.6598
16.9949 54.9648
17.04 55.1882
17.0851 56.3673
17.1302 58.082
17.1754 61.1505
17.2205 66.4771
17.2656 74.6632
17.3108 82.1751
17.3559 80.4165
17.401 69.5797
17.4462 61.4198
17.4913 58.5791
17.5365 58.5298
17.5815 58.5649
17.6268 58.8007
17.6718 59.5695
17.7171 60.0411
17.7622 60.6385
17.8074 61.3038
17.8525 63.2541
17.8977 67.2706
17.9428 72.7507
17.9881 82.0379
18.0331 100.817
18.0784 122.82
18.1237 137.386
18.1688 127.157
18.214 101.733
18.2591 86.2859
18.3044 91.2465
18.3495 100.087
18.3948 103.622
18.4399 92.9776
18.4852 75.7693
18.5303 65.0165
18.5756 61.6345
18.6207 60.4716
18.666 59.7197
18.7112 58.947
18.7565 58.3452
18.8016 58.0389
18.8469 57.4078
18.892 57.2762
18.9374 56.6861
18.9825 56.4809
19.0278 56.2097
19.073 56.3762
19.1183 56.787
19.1635 57.2743
19.2088 58.5013
19.254 61.6607
19.2993 66.3737
19.3447 72.091
19.3898 74.5762
19.4352 70.4045
19.4804 61.9261
19.5257 55.8761
19.5709 53.6572
19.6163 53.3247
19.6615 53.1253
19.7068 52.9076
19.752 52.6051
19.7974 53.021
19.8426 53.8252
19.888 54.3043
19.9332 55.6624
19.9786 58.4405
20.0238 62.1304
20.0692 67.0417
20.1144 69.0074
20.1598 67.2736
20.205 62.8604
20.2504 62.05
20.2957 63.6275
20.3411 65.0996
20.3863 62.9704
20.4318 57.3085
20.477 52.9597
20.5224 50.7982
20.5677 50.3923
20.6131 49.6761
20.6586 49.2572
20.7038 48.8829
20.7493 48.6724
20.7945 48.5527
20.84 48.1989
20.8853 47.8981
20.9307 48.0387
20.976 48.243
21.0215 48.085
21.0668 48.5889
21.1122 48.8968
21.1575 49.7186
21.203 50.4104
21.2483 50.9885
21.2938 50.7208
21.3391 49.4587
21.3846 48.4945
21.4299 47.7615
21.4754 47.7431
21.5207 47.9351
21.5662 48.3186
21.6116 48.5662
21.6571 49.4513
21.7024 50.348
21.7479 52.0285
21.7933 55.1387
21.8388 58.7893
21.8843 62.4148
21.9297 63.5391
21.9752 61.9861
22.0206 58.5985
22.0661 56.0517
22.1115 55.5268
22.157 55.0838
22.2024 53.5628
22.248 50.861
22.2933 49.1979
22.3389 48.5041
22.3843 48.5338
22.4299 48.1452
22.4753 48.2797
22.5208 47.981
22.5662 48.0378
22.6118 48.1378
22.6572 48.4314
22.7028 48.7679
22.7483 49.167
22.7939 49.8988
22.8393 51.5936
22.8849 53.8024
22.9303 55.7658
22.9759 56.9795
23.0214 56.3355
23.067 53.6335
23.1126 50.508
23.1581 48.7155
23.2037 48.2993
23.2492 48.3691
23.2948 48.21
23.3403 48.5802
23.3859 49.2497
23.4314 50.4885
23.477 52.3069
23.5225 54.5249
23.5682 56.5237
23.6137 57.1471
23.6593 54.7223
23.7048 50.8088
23.7505 47.7736
23.796 46.0666
23.8417 45.4983
23.8872 45.1925
23.9329 44.7464
23.9784 44.3855
24.0241 44.0727
24.0697 43.9354
24.1154 43.605
24.1609 43.6039
24.2066 43.3014
24.2522 43.1949
24.2979 42.9241
24.3434 42.8093
24.3892 42.6711
24.4349 42.6533
24.4805 42.3344
24.5262 42.5573
24.5718 42.4579
24.6175 42.3602
24.6631 42.4189
24.7089 41.9788
24.7545 42.0394
24.8002 41.6515
24.8458 41.8202
24.8916 41.5966
24.9372 41.6498
24.983 42.1294
25.0286 42.4634
25.0744 42.783
25.12 43.178
25.1658 43.9774
25.2114 44.1496
25.2572 44.4412
25.3029 44.2916
25.3487 44.4029
25.3943 44.1651
25.4402 42.9775
25.4858 41.9744
25.5316 41.0283
25.5773 40.5003
25.6231 40.5677
25.669 40.0277
25.7147 39.9767
25.7605 40.06
25.8062 39.9573
25.8521 40.271
25.8977 40.0733
25.9436 40.4046
25.9893 40.6198
26.0352 41.0889
26.0809 41.1001
26.1268 41.1604
26.1725 40.8736
26.2184 40.2803
26.2641 39.7927
26.31 39.6619
26.3557 39.7361
26.4017 39.7625
26.4474 40.0736
26.4933 40.3759
26.5391 40.8116
26.585 41.3055
26.6308 41.6825
26.6767 41.6656
26.7225 41.5204
26.7684 40.8815
26.8142 40.365
26.8601 40.0485
26.9059 39.6257
26.9519 38.9863
26.9979 38.6758
27.0437 38.5231
27.0896 38.1747
27.1354 38.4255
27.1814 38.1017
27.2272 38.1583
27.2732 38.2062
27.3191 37.8999
27.3651 38.076
27.4109 38.0197
27.4569 38.1452
27.5027 38.0927
27.5488 38.2029
27.5946 37.9483
27.6407 37.8001
27.6865 37.7294
27.7326 37.3478
27.7784 37.4645
27.8245 37.3754
27.8703 37.5279
27.9164 37.8431
27.9623 38.055
28.0084 38.3812
28.0543 38.7422
28.1003 38.6371
28.1462 38.5183
28.1923 38.1512
28.2384 37.5754
28.2843 37.273
28.3304 36.8457
28.3764 36.2926
28.4225 35.9924
28.4684 35.6866
28.5145 35.5736
28.5605 35.4541
28.6066 35.3365
28.6526 35.2242
28.6987 35.2573
28.7447 35.2045
28.7908 35.0303
28.8368 35.1408
28.8829 35.011
28.9289 34.9843
28.9751 34.7547
29.0211 34.5139
29.0673 34.2938
29.1133 34.2246
29.1595 34.0825
29.2055 33.9147
29.2517 33.9523
29.2977 34.0204
29.3439 33.8526
29.3899 33.8344
29.4361 33.7694
29.4824 33.5512
29.5284 33.3015
29.5746 33.0808
29.6207 32.7033
29.6669 32.6758
29.713 32.5711
29.7593 32.5363
29.8053 32.5942
29.8516 32.4841
29.8977 32.4414
29.9439 32.3181
29.99 32.1986
30.0363 32.1102
30.0824 32.1172
30.1287 32.0684
30.1748 32.1171
30.2211 32.0989
30.2673 31.9007
30.3136 32.0765
30.3597 31.9241
30.406 31.9038
30.4522 31.722
30.4985 31.7071
30.5447 31.704
30.591 31.7507
30.6372 31.8615
30.6835 31.8045
30.7297 31.9713
30.7761 31.8229
30.8224 31.6416
30.8686 31.4587
30.915 31.2769
30.9612 31.1432
31.0076 30.9634
31.0538 30.8377
31.1002 30.805
31.1464 30.6547
31.1928 30.6904
31.2391 30.6092
31.2855 30.5786
31.3317 30.5039
31.3781 30.4824
31.4244 30.6161
31.4708 30.4205
31.5171 30.4232
31.5636 30.4479
31.6098 30.1872
31.6563 30.0223
31.7026 29.9979
31.7491 29.8122
31.7953 29.8464
31.8418 29.7256
31.8881 29.7567
31.9346 29.7833
31.9809 29.7121
32.0275 29.6232
32.074 29.5061
32.1203 29.327
32.1668 29.1632
32.2132 29.0663
32.2597 28.8235
32.306 28.8556
32.3526 28.6532
32.399 28.675
32.4455 28.4989
32.4919 28.4534
32.5385 28.3299
32.5848 28.2688
32.6314 28.209
32.6778 28.1852
32.7244 28.0011
32.7708 27.8562
32.8174 27.8222
32.8638 27.7675
32.9104 27.8412
32.9569 27.7067
33.0035 27.5848
33.0499 27.581
33.0966 27.5823
33.143 27.4829
33.1897 27.438
33.2361 27.2991
33.2828 27.2213
33.3293 27.1781
33.3759 27.1001
33.4226 26.8885
33.4691 26.857
33.5158 26.7903
33.5623 26.6094
33.609 26.5328
33.6555 26.3917
33.7022 26.3256
33.7487 26.2504
33.7954 26.2366
33.842 26.141
33.8887 26.0154
33.9353 25.9792
33.982 25.851
34.0286 25.8254
34.0753 25.734
34.1219 25.6139
34.1687 25.5252
34.2152 25.461
34.262 25.3734
34.3086 25.1672
34.3554 25.2901
34.402 25.1282
34.4488 25.0019
34.4954 25.0487
34.5422 24.9615
34.5889 24.7598
34.6357 24.6968
34.6825 24.6041
34.7292 24.6012
34.776 24.4432
34.8227 24.4749
34.8695 24.3751
34.9162 24.3651
34.9631 24.1663
35.0098 24.1883
35.0566 24.1124
35.1033 24.0611
35.1502 24.1266
35.1969 23.9513
35.2438 23.9597
35.2906 23.9094
35.3375 23.7581
35.3842 23.8214
35.4311 23.6665
35.4779 23.7445
35.5248 23.6729
35.5716 23.4978
35.6185 23.512
35.6653 23.3603
35.7123 23.3174
35.759 23.2188
35.806 23.1102
35.8528 22.9573
35.8998 22.9909
35.9468 22.9556
35.9936 22.9063
36.0406 22.7453
36.0874 22.7824
36.1345 22.6334
36.1813 22.5576
36.2283 22.5314
36.2752 22.379
36.3222 22.4448
36.3691 22.3044
36.4161 22.1977
36.463 22.2822
36.5101 22.1926
36.557 22.1577
36.6041 21.9619
36.651 21.991
36.6981 21.9324
36.745 21.8148
36.7921 21.7078
36.839 21.5991
36.8861 21.5402
36.9331 21.5477
36.9802 21.4047
37.0272 21.3428
37.0743 21.2799
37.1213 21.2436
37.1684 21.248
37.2154 21.1334
37.2626 21.0031
37.3098 20.9541
37.3568 20.9348
37.404 20.8554
37.451 20.8076
37.4982 20.6828
37.5452 20.6718
37.5924 20.6331
37.6395 20.6533
37.6867 20.4703
37.7337 20.4258
37.781 20.3829
37.8281 20.2993
37.8753 20.2429
37.9224 20.1045
37.9697 20.1186
38.0168 19.9964
38.064 19.9709
38.1111 19.8391
38.1584 19.8692
38.2056 19.7153
38.2529 19.7256
38.3 19.6528
38.3473 19.5959
38.3945 19.5565
38.4418 19.4365
38.489 19.4854
38.5363 19.2632
38.5837 19.2833
38.6309 19.2157
38.6782 19.1146
38.7254 19.0455
38.7728 19.0247
38.82 18.9688
38.8674 18.8773
38.9146 18.823
38.9621 18.802
39.0093 18.7386
39.0567 18.6764
39.104 18.6071
39.1514 18.559
39.1987 18.5137
39.2461 18.4622
39.2934 18.4106
39.3409 18.2619
39.3882 18.221
39.4356 18.1447
39.483 18.1577
39.5304 18.0771
39.5778 17.9802
39.6253 17.9769
39.6726 17.884
39.7201 17.8657
39.7675 17.8529
39.815 17.8163
39.8624 17.66
39.9099 17.6519
39.9575 17.5616
40.0049 17.4822
40.0525 17.4417
40.0999 17.4047
40.1474 17.3856
40.1949 17.2689
40.2425 17.2391
40.2899 17.2088
40.3375 17.1443
40.385 17.0899
40.4326 17.0092
40.48 16.9317
40.5277 16.9241
40.5752 16.8099
40.6228 16.8036
40.6703 16.7181
40.718 16.7156
40.7655 16.6672
40.8132 16.5326
40.8607 16.5533
40.9084 16.5377
40.9559 16.4293
41.0036 16.4286
41.0512 16.3246
41.0989 16.2933
41.1465 16.216
41.1942 16.1909
41.242 16.1242
41.2896 16.0238
41.3373 16.0201
41.3849 15.952
41.4327 15.9231
41.4803 15.8062
41.5281 15.7254
41.5758 15.7385
41.6236 15.7007
41.6712 15.594
41.7191 15.5785
41.7667 15.4815
41.8146 15.4997
41.8622 15.4012
41.9101 15.3625
41.9578 15.3087
42.0057 15.2907
42.0534 15.2382
42.1013 15.2303
42.149 15.0787
42.1969 15.0712
42.2446 15.0148
42.2925 14.9635
42.3403 14.9298
42.3882 14.8746
42.436 14.8445
42.4839 14.6946
42.5319 14.6851
42.5797 14.6644
42.6277 14.5976
42.6755 14.5414
42.7235 14.4869
42.7713 14.5168
42.8193 14.391
42.8671 14.3889
42.9152 14.2851
42.963 14.2139
43.0111 14.2051
43.0589 14.2025
43.107 14.1476
43.1549 14.0523
43.2029 14.046
43.2508 13.9571
43.2989 13.9477
43.3468 13.8705
43.3949 13.8527
43.4429 13.7869
43.491 13.686
43.5389 13.6205
43.5871 13.6608
43.635 13.5668
43.6832 13.5652
43.7312 13.5027
43.7793 13.4751
43.8273 13.4147
43.8755 13.3593
43.9237 13.2878
43.9717 13.2558
44.0199 13.2202
44.068 13.1593
44.1162 13.1352
44.1642 13.1025
44.2125 13.0728
44.2606 13.0037
44.3088 12.9841
44.3569 12.9631
44.4052 12.8772
44.4533 12.827
44.5016 12.758
44.5497 12.6934
44.598 12.6683
44.6461 12.6718
44.6945 12.5731
44.7426 12.5007
44.791 12.4817
44.8391 12.4593
44.8875 12.4431
44.9357 12.3545
44.984 12.344
45.0322 12.2731
45.0806 12.2034
45.1288 12.2028
45.1773 12.1652
45.2257 12.1433
45.2739 12.0626
45.3224 12.0116
45.3706 11.9847
45.4191 11.9345
45.4673 11.8834
45.5158 11.8362
45.5641 11.8307
45.6126 11.8185
45.6609 11.7475
45.7094 11.6752
45.7577 11.6538
45.8063 11.552
45.8546 11.5942
45.9031 11.5176
45.9515 11.5009
46.0001 11.4461
46.0484 11.4625
46.097 11.3619
46.1454 11.3778
46.194 11.2895
46.2424 11.2509
46.291 11.1661
46.3395 11.1792
46.3881 11.1066
46.4365 11.105
46.4852 11.0509
46.5337 10.9854
46.5823 11.0007
46.631 10.9026
46.6795 10.8856
46.7282 10.8406
46.7767 10.7886
46.8254 10.7143
46.8739 10.6861
46.9226 10.6865
46.9712 10.6537
47.0199 10.5875
47.0685 10.5607
47.1173 10.5138
47.1658 10.4753
47.2146 10.4188
47.2632 10.4307
47.312 10.3262
47.3606 10.3145
47.4095 10.2885
47.4581 10.2456
47.5069 10.1672
47.5556 10.1737
47.6044 10.1362
47.6531 10.1256
47.702 10.0878
47.7507 10.0601
47.7996 10.0193
47.8483 9.9746
47.8972 9.87467
47.9461 9.87602
47.9948 9.83448
48.0438 9.8323
48.0925 9.79029
48.1415 9.76958
48.1902 9.70369
48.2392 9.67885
48.288 9.69119
48.337 9.65227
48.3858 9.59047
48.4348 9.54074
48.4837 9.55971
48.5327 9.47716
48.5815 9.43959
48.6306 9.36582
48.6795 9.38854
48.7285 9.30625
48.7774 9.27079
48.8265 9.25707
48.8754 9.2016
48.9245 9.19638
48.9734 9.13637
49.0226 9.12001
49.0715 9.08679
49.1206 9.06388
49.1696 9.00739
49.2188 9.02543
49.2679 8.93008
49.3169 8.88564
49.3661 8.86638
49.4151 8.8281
49.4643 8.83532
49.5134 8.7725
49.5626 8.73311
49.6117 8.73901
49.6609 8.68254
49.71 8.62215
49.7592 8.56208
49.8083 8.57106
49.8576 8.5735
49.9067 8.50855
49.956 8.49106
50.0052 8.43296
50.0545 8.41987
50.1036 8.36878
50.153 8.37134
50.2022 8.31465
50.2515 8.27744
50.3007 8.22889
50.3501 8.20834
50.3993 8.15569
50.4487 8.15124
50.498 8.12285
50.5474 8.1051
50.5966 8.06774
50.6461 8.06391
50.6955 7.97809
50.7448 7.9595
50.7943 7.93832
50.8436 7.85781
50.8931 7.87122
50.9424 7.83784
50.9919 7.78104
51.0413 7.77693
51.0908 7.75549
51.1402 7.71639
51.1897 7.72208
51.2391 7.6757
51.2887 7.62649
51.3381 7.60589
51.3877 7.62129
51.4371 7.52247
51.4867 7.50353
51.5362 7.46107
51.5858 7.46709
51.6353 7.40925
51.6849 7.38145
51.7344 7.34937
51.7841 7.33353
51.8336 7.29904
51.8833 7.23477
51.9328 7.23085
51.9826 7.19505
52.0323 7.17651
52.0818 7.10429
52.1316 7.10677
52.1812 7.06864
52.231 7.02352
52.2806 7.00985
52.3304 7.01251
52.38 6.95442
52.4298 6.94401
52.4794 6.89208
52.5293 6.93615
52.5789 6.83849
52.6288 6.89286
52.6785 6.78421
52.7284 6.7192
52.7781 6.73083
52.828 6.69418
52.8777 6.66282
52.9276 6.65799
52.9774 6.63543
53.0273 6.6297
53.0771 6.58531
53.1271 6.5896
53.1769 6.52887
53.2269 6.49197
53.2767 6.44977
53.3267 6.40349
53.3765 6.38883
53.4266 6.39993
53.4766 6.33795
53.5265 6.34521
53.5765 6.3002
53.6264 6.24271
53.6765 6.2131
53.7264 6.17362
53.7765 6.22491
53.8265 6.20038
53.8766 6.15038
53.9266 6.10744
53.9767 6.08687
54.0267 6.07193
54.0769 6.03249
54.1269 6.01023
54.1771 5.93583
54.2271 5.92654
54.2773 5.89477
54.3274 5.91178
54.3776 5.83772
54.4277 5.79643
54.478 5.78032
54.528 5.73415
54.5783 5.70357
54.6285 5.63951
54.6788 5.61828
54.7289 5.56957
54.7792 5.55898
54.8296 5.48193
54.8798 5.48271
54.9301 5.44073
54.9803 5.3782
55.0307 5.37812
55.0809 5.32328
55.1314 5.35653
55.1816 5.23483
55.232 5.1671
55.2823 5.1226
55.3328 5.0871
55.383 5.03941
55.4335 4.98186
55.4838 4.95248
55.5344 4.92793
55.5847 4.83472
55.6352 4.84133
55.6856 4.81858
55.7361 4.79759