File: XRD/Ni3Fe_FD0916.xy
TT I
1.27165 6.91112
1.31627 6.58853
1.36089 7.15316
1.40551 6.26046
1.45013 5.54916
1.49476 5.56908
1.53938 5.42107
1.584 5.26022
1.62863 4.59374
1.67325 5.37889
1.71787 4.98989
1.7625 5.14849
1.80712 4.29185
1.85174 4.45597
1.89636 4.92388
1.94099 4.72848
1.98562 5.12411
2.03025 4.68662
2.07487 4.49722
2.11949 4.67627
2.16411 4.87564
2.20874 9.59423
2.25338 12.7463
2.298 6.09009
2.34263 6.3703
2.38725 6.19206
2.43188 6.48986
2.4765 7.23547
2.52115 7.2446
2.56577 7.91398
2.6104 8.72204
2.65503 8.00821
2.69965 8.31054
2.7443 8.09651
2.78893 8.22472
2.83356 8.32257
2.87818 8.92943
2.92281 9.29164
2.96744 9.63628
3.01209 10.6434
3.05672 11.5943
3.10135 12.51
3.14599 13.4204
3.19062 14.5371
3.23527 14.9298
3.2799 16.005
3.32454 16.6789
3.36917 17.6554
3.4138 18.7021
3.45844 19.4999
3.50309 21.0016
3.54773 21.376
3.59237 23.6268
3.637 54.8738
3.68164 39.3881
3.7263 25.2471
3.77094 25.8737
3.81558 26.3185
3.86022 27.1093
3.90486 28.8499
3.9495 29.6178
3.99416 30.2109
4.0388 31.5134
4.08344 33.0397
4.12809 33.5982
4.17273 35.5316
4.21738 39.7471
4.26204 137.506
4.30669 117.701
4.35133 44.514
4.39598 43.219
4.44063 48.7101
4.4853 55.0826
4.52995 55.2159
4.5746 55.7664
4.61925 52.9558
4.6639 54.8088
4.70855 57.5496
4.75322 60.7535
4.79788 67.1538
4.84253 67.7553
4.88719 73.2037
4.93184 75.1607
4.97652 79.836
5.02118 85.7839
5.06583 93.0213
5.11049 104.376
5.15515 153.985
5.19981 355.976
5.24449 2726.48
5.28916 13611.6
5.33382 2661.52
5.37848 185.151
5.42315 127.26
5.46783 115.978
5.5125 109.469
5.55716 100.264
5.60183 95.9
5.6465 94.6486
5.69117 93.1904
5.73586 91.0738
5.78053 95.542
5.8252 95.3781
5.86988 97.7394
5.91455 93.265
5.95924 101.18
6.00392 218.197
6.0486 914.588
6.09328 4619.11
6.13795 2995.9
6.18263 195.029
6.22733 87.907
6.27201 78.9096
6.3167 85.2813
6.36138 74.0123
6.40606 68.74
6.45075 68.4933
6.49545 64.3804
6.54014 62.509
6.58483 61.8193
6.62952 62.1983
6.67421 75.5471
6.71892 96.132
6.76361 62.245
6.8083 58.3951
6.853 58.8197
6.89769 56.1665
6.94239 55.5847
6.98711 54.8378
7.03181 54.9224
7.07651 54.3846
7.12121 53.8428
7.16591 55.1041
7.21063 54.5671
7.25533 61.05
7.30004 107.351
7.34475 70.3415
7.38945 54.1839
7.43416 53.0716
7.47889 53.2896
7.5236 53.6249
7.56831 53.9384
7.61303 54.882
7.65774 55.2193
7.70247 55.8238
7.74719 55.7776
7.79191 55.8764
7.83663 55.8613
7.88135 56.6938
7.92607 57.7533
7.97081 58.9309
8.01553 60.1558
8.06026 61.8075
8.10498 63.217
8.14971 70.2894
8.19446 70.049
8.23919 68.3665
8.28392 70.6092
8.32865 72.763
8.37339 77.2473
8.41812 82.6478
8.46288 102.456
8.50761 167.926
8.55235 364.056
8.59709 1201.59
8.64183 2263.06
8.68658 834.495
8.73134 141.222
8.77609 95.4541
8.82083 90.8503
8.86558 90.5305
8.91033 90.5665
8.9551 88.7713
8.99985 83.9745
9.04461 82.562
9.08936 82.754
9.13412 81.7123
9.17888 80.981
9.22365 80.8216
9.26841 80.5323
9.31318 83.1414
9.35794 84.831
9.4027 84.3319
9.44749 83.7281
9.49226 83.7026
9.53703 84.6059
9.5818 87.2392
9.62657 92.6331
9.67134 94.1978
9.71614 91.4295
9.76091 93.3896
9.80569 97.2975
9.85047 99.8039
9.89525 111.77
9.94005 125.44
9.98484 181.145
10.0296 328.189
10.0744 818.726
10.1192 1834.77
10.164 1468.91
10.2088 323.82
10.2536 117.706
10.2984 108.005
10.3432 107.12
10.388 102.916
10.4328 118.315
10.4776 156.866
10.5224 288.011
10.5672 544.464
10.612 485.936
10.6568 179.674
10.7017 91.5722
10.7465 84.7635
10.7913 81.4198
10.8361 79.5767
10.8809 77.3636
10.9257 76.6093
10.9706 76.9105
11.0154 74.2256
11.0602 71.7864
11.105 70.1391
11.1499 71.7991
11.1947 74.1758
11.2395 69.608
11.2844 67.606
11.3292 65.9074
11.374 64.9821
11.4189 64.2562
11.4637 63.755
11.5086 63.768
11.5534 64.7399
11.5983 63.1888
11.6431 62.3082
11.688 61.439
11.7328 61.6556
11.7777 61.4782
11.8225 61.3965
11.8674 61.2496
11.9122 61.7519
11.9571 62.0047
12.002 62.9327
12.0468 67.3198
12.0917 76.8613
12.1366 101.273
12.1814 158.375
12.2263 213.123
12.2712 154.793
12.3161 86.6702
12.3609 66.2037
12.4058 63.0002
12.4507 63.1802
12.4956 63.3308
12.5405 63.9258
12.5853 64.1916
12.6302 67.7913
12.6751 70.5235
12.72 67.0053
12.7649 66.5497
12.8098 67.1636
12.8547 69.0357
12.8996 70.1868
12.9445 71.5493
12.9894 73.155
13.0343 74.947
13.0792 78.4897
13.1242 89.7779
13.1691 109.11
13.214 144.784
13.2589 244.406
13.3038 391.72
13.3487 423.009
13.3937 230.531
13.4386 114.093
13.4835 104.162
13.5285 117.445
13.5734 156.406
13.6183 257.901
13.6633 378.884
13.7082 330.106
13.7531 167.762
13.7981 91.7547
13.843 79.9876
13.888 78.0889
13.9329 75.7509
13.9779 74.4371
14.0228 72.7291
14.0678 71.7186
14.1127 71.1338
14.1577 70.8249
14.2027 70.1275
14.2476 69.1281
14.2926 68.8698
14.3376 69.4975
14.3825 68.9861
14.4275 67.654
14.4725 67.7177
14.5175 67.8155
14.5624 67.7234
14.6074 68.8227
14.6524 69.3914
14.6974 69.4569
14.7424 71.9042
14.7874 78.1459
14.8324 86.8226
14.8774 110.036
14.9224 158.911
14.9674 218.608
15.0124 213.44
15.0574 137.499
15.1024 83.7081
15.1474 70.3827
15.1924 69.091
15.2374 68.3064
15.2824 67.7755
15.3274 66.351
15.3725 65.7563
15.4175 65.3232
15.4625 64.7459
15.5076 64.5923
15.5526 64.9069
15.5976 64.8415
15.6426 66.3537
15.6877 71.3194
15.7327 78.1265
15.7778 93.6096
15.8228 128.27
15.8679 177.413
15.9129 195.117
15.958 146.464
16.003 87.0853
16.0481 64.7175
16.0931 62.0017
16.1382 60.4352
16.1833 59.2473
16.2283 57.6856
16.2734 57.0943
16.3185 56.8654
16.3636 57.0349
16.4086 56.0489
16.4537 55.1051
16.4988 54.4642
16.5439 54.4208
16.589 54.2978
16.6341 53.7424
16.6792 53.3858
16.7243 53.6989
16.7694 53.7104
16.8145 53.6722
16.8596 53.9683
16.9047 54.8156
16.9498 54.8463
16.9949 54.3972
17.04 54.6629
17.0851 56.0829
17.1302 57.4202
17.1754 60.3396
17.2205 65.8671
17.2656 74.4674
17.3108 83.0
17.3559 79.7713
17.401 67.4189
17.4462 59.8975
17.4913 58.1474
17.5365 57.8841
17.5815 58.1428
17.6268 58.3125
17.6718 59.1031
17.7171 59.727
17.7622 60.1465
17.8074 61.2927
17.8525 63.5846
17.8977 66.906
17.9428 72.2327
17.9881 81.5933
18.0331 100.628
18.0784 125.712
18.1237 139.771
18.1688 125.034
18.214 96.3647
18.2591 83.6319
18.3044 90.6964
18.3495 101.972
18.3948 105.632
18.4399 91.2306
18.4852 72.9937
18.5303 63.8542
18.5756 60.8434
18.6207 59.8957
18.666 59.1735
18.7112 58.576
18.7565 57.8916
18.8016 57.6528
18.8469 56.985
18.892 56.859
18.9374 56.2503
18.9825 56.0402
19.0278 55.7366
19.073 56.0932
19.1183 56.283
19.1635 56.7107
19.2088 58.2031
19.254 60.9847
19.2993 66.211
19.3447 72.1895
19.3898 74.9044
19.4352 69.1373
19.4804 60.3369
19.5257 55.0099
19.5709 52.7805
19.6163 52.7552
19.6615 52.641
19.7068 52.1934
19.752 52.486
19.7974 52.7351
19.8426 53.5127
19.888 53.9625
19.9332 55.1216
19.9786 57.9807
20.0238 62.3095
20.0692 67.4754
20.1144 69.4046
20.1598 66.2222
20.205 61.7825
20.2504 61.271
20.2957 64.1342
20.3411 65.3766
20.3863 62.1154
20.4318 56.2523
20.477 51.8208
20.5224 50.247
20.5677 49.6722
20.6131 49.1703
20.6586 48.7353
20.7038 48.7502
20.7493 48.1583
20.7945 48.1109
20.84 47.9718
20.8853 48.0373
20.9307 47.808
20.976 47.7527
21.0215 47.8291
21.0668 48.1967
21.1122 48.7438
21.1575 49.3376
21.203 50.1202
21.2483 50.7669
21.2938 50.5596
21.3391 48.9276
21.3846 47.8605
21.4299 47.4166
21.4754 47.6955
21.5207 47.682
21.5662 48.1721
21.6116 48.5437
21.6571 48.9881
21.7024 50.0293
21.7479 51.7989
21.7933 54.8878
21.8388 58.9031
21.8843 63.0903
21.9297 64.3259
21.9752 61.373
22.0206 57.6468
22.0661 55.3311
22.1115 55.4421
22.157 55.0154
22.2024 52.6294
22.248 49.987
22.2933 48.7663
22.3389 48.0482
22.3843 47.9837
22.4299 47.8855
22.4753 47.7945
22.5208 47.7785
22.5662 47.6161
22.6118 47.9902
22.6572 48.2063
22.7028 48.4017
22.7483 48.8414
22.7939 49.5451
22.8393 51.2405
22.8849 53.6467
22.9303 55.9656
22.9759 57.4077
23.0214 56.0728
23.067 52.9099
23.1126 49.5558
23.1581 48.0422
23.2037 47.7093
23.2492 48.0666
23.2948 47.9802
23.3403 48.1636
23.3859 48.8627
23.4314 50.0359
23.477 52.1331
23.5225 54.6614
23.5682 56.793
23.6137 57.2826
23.6593 54.0745
23.7048 49.8941
23.7505 47.021
23.796 45.6887
23.8417 45.2536
23.8872 44.6775
23.9329 44.4307
23.9784 43.8929
24.0241 43.8694
24.0697 43.7075
24.1154 43.4198
24.1609 43.1229
24.2066 43.0395
24.2522 42.9127
24.2979 42.5854
24.3434 42.4911
24.3892 42.3004
24.4349 42.3811
24.4805 42.282
24.5262 42.2904
24.5718 42.2532
24.6175 42.1344
24.6631 42.0109
24.7089 41.5916
24.7545 41.7049
24.8002 41.5106
24.8458 41.4467
24.8916 41.4496
24.9372 41.4246
24.983 41.7103
25.0286 42.2163
25.0744 42.5976
25.12 43.1779
25.1658 43.6485
25.2114 43.9352
25.2572 44.0646
25.3029 44.2173
25.3487 44.3341
25.3943 43.8558
25.4402 42.6422
25.4858 41.4696
25.5316 40.7494
25.5773 40.082
25.6231 40.242
25.669 39.6916
25.7147 39.7382
25.7605 39.6907
25.8062 39.7597
25.8521 39.8721
25.8977 39.9423
25.9436 40.1899
25.9893 40.2921
26.0352 40.8639
26.0809 41.022
26.1268 40.9252
26.1725 40.5296
26.2184 39.9738
26.2641 39.3455
26.31 39.3394
26.3557 39.3205
26.4017 39.3794
26.4474 39.6789
26.4933 40.0462
26.5391 40.7202
26.585 41.2974
26.6308 41.5253
26.6767 41.3905
26.7225 41.0926
26.7684 40.5519
26.8142 39.8926
26.8601 39.6419
26.9059 39.2948
26.9519 38.7131
26.9979 38.4698
27.0437 38.1546
27.0896 38.0345
27.1354 37.9555
27.1814 37.9216
27.2272 37.9495
27.2732 37.7745
27.3191 37.7979
27.3651 37.8094
27.4109 37.8328
27.4569 37.9735
27.5027 37.9339
27.5488 37.8779
27.5946 37.6872
27.6407 37.5173
27.6865 37.2862
27.7326 37.148
27.7784 37.2308
27.8245 37.0667
27.8703 37.396
27.9164 37.6169
27.9623 37.7806
28.0084 38.4504
28.0543 38.4373
28.1003 38.2401
28.1462 38.1064
28.1923 37.7365
28.2384 37.2621
28.2843 36.9638
28.3304 36.5318
28.3764 36.0658
28.4225 35.6986
28.4684 35.6947
28.5145 35.2482
28.5605 35.2341
28.6066 35.056
28.6526 34.9912
28.6987 34.998
28.7447 34.9221
28.7908 34.8241
28.8368 34.8123
28.8829 34.8283
28.9289 34.7278
28.9751 34.425
29.0211 34.3268
29.0673 34.0208
29.1133 33.9762
29.1595 33.83
29.2055 33.658
29.2517 33.7975
29.2977 33.7756
29.3439 33.6665
29.3899 33.7292
29.4361 33.5931
29.4824 33.3165
29.5284 33.0886
29.5746 32.7401
29.6207 32.5899
29.6669 32.5649
29.713 32.3925
29.7593 32.2807
29.8053 32.3173
29.8516 32.1925
29.8977 32.1089
29.9439 32.0755
29.99 32.0594
30.0363 31.8873
30.0824 32.0622
30.1287 31.8343
30.1748 32.0006
30.2211 31.8861
30.2673 31.6944
30.3136 31.7848
30.3597 31.6125
30.406 31.621
30.4522 31.5743
30.4985 31.4709
30.5447 31.643
30.591 31.6391
30.6372 31.8021
30.6835 31.6788
30.7297 31.7337
30.7761 31.5577
30.8224 31.4739
30.8686 31.2507
30.915 31.0035
30.9612 30.9541
31.0076 30.769
31.0538 30.6474
31.1002 30.5754
31.1464 30.4332
31.1928 30.4199
31.2391 30.4043
31.2855 30.3847
31.3317 30.3924
31.3781 30.496
31.4244 30.3849
31.4708 30.3297
31.5171 30.2866
31.5636 30.1883
31.6098 29.9525
31.6563 29.8429
31.7026 29.6816
31.7491 29.5163
31.7953 29.6837
31.8418 29.5952
31.8881 29.6774
31.9346 29.6069
31.9809 29.5091
32.0275 29.451
32.074 29.2789
32.1203 29.1013
32.1668 29.005
32.2132 28.774
32.2597 28.7489
32.306 28.7075
32.3526 28.5496
32.399 28.3698
32.4455 28.267
32.4919 28.2084
32.5385 28.1351
32.5848 27.9459
32.6314 27.9195
32.6778 27.9016
32.7244 27.7166
32.7708 27.688
32.8174 27.7228
32.8638 27.5958
32.9104 27.6785
32.9569 27.4457
33.0035 27.4039
33.0499 27.3829
33.0966 27.3835
33.143 27.3833
33.1897 27.1614
33.2361 27.1145
33.2828 27.0926
33.3293 26.9569
33.3759 26.8282
33.4226 26.7787
33.4691 26.6455
33.5158 26.5181
33.5623 26.4519
33.609 26.2387
33.6555 26.2095
33.7022 26.1368
33.7487 26.0749
33.7954 26.0813
33.842 25.9144
33.8887 25.8555
33.9353 25.8482
33.982 25.6367
34.0286 25.5939
34.0753 25.5036
34.1219 25.4631
34.1687 25.4149
34.2152 25.3531
34.262 25.1714
34.3086 25.1182
34.3554 25.0467
34.402 24.9268
34.4488 24.9052
34.4954 24.8058
34.5422 24.7854
34.5889 24.5662
34.6357 24.5435
34.6825 24.499
34.7292 24.4036
34.776 24.3629
34.8227 24.2955
34.8695 24.2167
34.9162 24.1416
34.9631 24.0487
35.0098 24.1122
35.0566 23.901
35.1033 23.8527
35.1502 23.8415
35.1969 23.7458
35.2438 23.7288
35.2906 23.6425
35.3375 23.7037
35.3842 23.5806
35.4311 23.5847
35.4779 23.5039
35.5248 23.5172
35.5716 23.3519
35.6185 23.2963
35.6653 23.1557
35.7123 23.1836
35.759 23.0326
35.806 22.9712
35.8528 22.8704
35.8998 22.7117
35.9468 22.7896
35.9936 22.6157
36.0406 22.5779
36.0874 22.7053
36.1345 22.5364
36.1813 22.4012
36.2283 22.3086
36.2752 22.285
36.3222 22.2568
36.3691 22.235
36.4161 22.0641
36.463 22.0207
36.5101 22.0702
36.557 21.977
36.6041 21.8154
36.651 21.8016
36.6981 21.7085
36.745 21.7259
36.7921 21.6269
36.839 21.4577
36.8861 21.4812
36.9331 21.4027
36.9802 21.3214
37.0272 21.2803
37.0743 21.1264
37.1213 21.1135
37.1684 21.0276
37.2154 20.9852
37.2626 20.9149
37.3098 20.7674
37.3568 20.8223
37.404 20.7324
37.451 20.6815
37.4982 20.5849
37.5452 20.4512
37.5924 20.4285
37.6395 20.4611
37.6867 20.3506
37.7337 20.259
37.781 20.1386
37.8281 20.1246
37.8753 20.0089
37.9224 19.9327
37.9697 19.875
38.0168 19.9023
38.064 19.8317
38.1111 19.7396
38.1584 19.6126
38.2056 19.6227
38.2529 19.6005
38.3 19.4597
38.3473 19.465
38.3945 19.4119
38.4418 19.3333
38.489 19.2149
38.5363 19.1673
38.5837 19.1543
38.6309 19.1
38.6782 18.9934
38.7254 18.9206
38.7728 18.8419
38.82 18.827
38.8674 18.7684
38.9146 18.704
38.9621 18.6128
39.0093 18.5892
39.0567 18.4891
39.104 18.4731
39.1514 18.3856
39.1987 18.3981
39.2461 18.315
39.2934 18.2473
39.3409 18.1586
39.3882 18.1394
39.4356 18.045
39.483 17.9952
39.5304 17.9026
39.5778 17.9136
39.6253 17.801
39.6726 17.7973
39.7201 17.7514
39.7675 17.7207
39.815 17.6387
39.8624 17.5762
39.9099 17.506
39.9575 17.4568
40.0049 17.3142
40.0525 17.3155
40.0999 17.2199
40.1474 17.224
40.1949 17.1574
40.2425 17.0825
40.2899 17.1387
40.3375 17.0163
40.385 16.9145
40.4326 16.8855
40.48 16.7527
40.5277 16.8161
40.5752 16.7302
40.6228 16.6786
40.6703 16.6319
40.718 16.5533
40.7655 16.5517
40.8132 16.5073
40.8607 16.4847
40.9084 16.362
40.9559 16.2779
41.0036 16.2535
41.0512 16.2187
41.0989 16.1669
41.1465 16.1383
41.1942 16.0756
41.242 15.9755
41.2896 15.9127
41.3373 15.9426
41.3849 15.8108
41.4327 15.7934
41.4803 15.7497
41.5281 15.6893
41.5758 15.5936
41.6236 15.561
41.6712 15.5051
41.7191 15.503
41.7667 15.408
41.8146 15.3846
41.8622 15.3913
41.9101 15.3334
41.9578 15.1491
42.0057 15.201
42.0534 15.1201
42.1013 15.0458
42.149 15.0135
42.1969 14.9807
42.2446 14.8571
42.2925 14.8764
42.3403 14.7416
42.3882 14.7769
42.436 14.7097
42.4839 14.6589
42.5319 14.5941
42.5797 14.5849
42.6277 14.4621
42.6755 14.5169
42.7235 14.4243
42.7713 14.3747
42.8193 14.344
42.8671 14.2771
42.9152 14.2434
42.963 14.1528
43.0111 14.1247
43.0589 14.0695
43.107 14.0133
43.1549 13.9642
43.2029 13.9165
43.2508 13.8693
43.2989 13.7841
43.3468 13.8262
43.3949 13.7014
43.4429 13.7211
43.491 13.6256
43.5389 13.5589
43.5871 13.5674
43.635 13.4924
43.6832 13.4331
43.7312 13.4636
43.7793 13.3535
43.8273 13.3
43.8755 13.2824
43.9237 13.2093
43.9717 13.1999
44.0199 13.1786
44.068 13.0804
44.1162 12.9884
44.1642 13.0046
44.2125 12.9475
44.2606 12.9223
44.3088 12.8587
44.3569 12.8192
44.4052 12.7737
44.4533 12.7311
44.5016 12.6446
44.5497 12.6289
44.598 12.5807
44.6461 12.5627
44.6945 12.5108
44.7426 12.4663
44.791 12.414
44.8391 12.3868
44.8875 12.3823
44.9357 12.3456
44.984 12.2484
45.0322 12.204
45.0806 12.1411
45.1288 12.1638
45.1773 12.0418
45.2257 12.0387
45.2739 11.9639
45.3224 11.9546
45.3706 11.9472
45.4191 11.8525
45.4673 11.8543
45.5158 11.7707
45.5641 11.6898
45.6126 11.6979
45.6609 11.6631
45.7094 11.5872
45.7577 11.5627
45.8063 11.5243
45.8546 11.4888
45.9031 11.442
45.9515 11.3926
46.0001 11.3438
46.0484 11.3071
46.097 11.2686
46.1454 11.2435
46.194 11.1888
46.2424 11.1488
46.291 11.091
46.3395 11.0687
46.3881 11.0177
46.4365 11.0193
46.4852 10.9175
46.5337 10.9216
46.5823 10.9116
46.631 10.8289
46.6795 10.8161
46.7282 10.7945
46.7767 10.7687
46.8254 10.6688
46.8739 10.6286
46.9226 10.5832
46.9712 10.5488
47.0199 10.5318
47.0685 10.4705
47.1173 10.4024
47.1658 10.4175
47.2146 10.3831
47.2632 10.3282
47.312 10.3046
47.3606 10.2512
47.4095 10.2109
47.4581 10.1751
47.5069 10.1346
47.5556 10.0824
47.6044 10.0494
47.6531 10.0165
47.702 9.9794
47.7507 9.95923
47.7996 9.89942
47.8483 9.87843
47.8972 9.84416
47.9461 9.84923
47.9948 9.74028
48.0438 9.70304
48.0925 9.71083
48.1415 9.68817
48.1902 9.6254
48.2392 9.6155
48.288 9.56366
48.337 9.53758
48.3858 9.53562
48.4348 9.46114
48.4837 9.47516
48.5327 9.40958
48.5815 9.36019
48.6306 9.32404
48.6795 9.30843
48.7285 9.26093
48.7774 9.25057
48.8265 9.21199
48.8754 9.16212
48.9245 9.13418
48.9734 9.10037
49.0226 9.07093
49.0715 9.01593
49.1206 8.96491
49.1696 8.94862
49.2188 8.88331
49.2679 8.85782
49.3169 8.83703
49.3661 8.76433
49.4151 8.7546
49.4643 8.74949
49.5134 8.73889
49.5626 8.63722
49.6117 8.60902
49.6609 8.62427
49.71 8.5116
49.7592 8.4974
49.8083 8.49376
49.8576 8.48036
49.9067 8.42528
49.956 8.41646
50.0052 8.38248
50.0545 8.35848
50.1036 8.31478
50.153 8.30613
50.2022 8.24458
50.2515 8.22659
50.3007 8.16621
50.3501 8.13951
50.3993 8.14679
50.4487 8.1076
50.498 8.06125
50.5474 8.03078
50.5966 8.01684
50.6461 7.98872
50.6955 7.92896
50.7448 7.92733
50.7943 7.91777
50.8436 7.86285
50.8931 7.83153
50.9424 7.7808
50.9919 7.74645
51.0413 7.73406
51.0908 7.67789
51.1402 7.65884
51.1897 7.65948
51.2391 7.60114
51.2887 7.57711
51.3381 7.5496
51.3877 7.52953
51.4371 7.45659
51.4867 7.42533
51.5362 7.38465
51.5858 7.38289
51.6353 7.32423
51.6849 7.30456
51.7344 7.28056
51.7841 7.27395
51.8336 7.25382
51.8833 7.20675
51.9328 7.1606
51.9826 7.10096
52.0323 7.12136
52.0818 7.09514
52.1316 7.08107
52.1812 7.04224
52.231 6.99084
52.2806 6.98521
52.3304 6.92051
52.38 6.89135
52.4298 6.88924
52.4794 6.88901
52.5293 6.78398
52.5789 6.77699
52.6288 6.7716
52.6785 6.72892
52.7284 6.70978
52.7781 6.7264
52.828 6.67265
52.8777 6.63012
52.9276 6.60747
52.9774 6.57786
53.0273 6.59803
53.0771 6.52532
53.1271 6.54403
53.1769 6.44812
53.2269 6.41742
53.2767 6.39402
53.3267 6.33777
53.3765 6.34166
53.4266 6.33506
53.4766 6.2934
53.5265 6.26556
53.5765 6.25983
53.6264 6.20656
53.6765 6.19393
53.7264 6.13193
53.7765 6.1665
53.8265 6.08531
53.8766 6.06666
53.9266 6.08343
53.9767 6.01576
54.0267 6.01647
54.0769 5.97538
54.1269 5.9475
54.1771 5.92251
54.2271 5.95555
54.2773 5.82483
54.3274 5.83884
54.3776 5.75559
54.4277 5.76109
54.478 5.70358
54.528 5.68564
54.5783 5.68359
54.6285 5.596
54.6788 5.56579
54.7289 5.54819
54.7792 5.50481
54.8296 5.43695
54.8798 5.45476
54.9301 5.39256
54.9803 5.36954
55.0307 5.30177
55.0809 5.29875
55.1314 5.28328
55.1816 5.22882
55.232 5.16901
55.2823 5.12892
55.3328 5.10855
55.383 4.98891
55.4335 4.95154
55.4838 4.90268
55.5344 4.85729
55.5847 4.86693
55.6352 4.8095
55.6856 4.7778
55.7361 4.76243