File: XRD/Ni3Fe_FD0679.xy
TT I
1.27165 7.27699
1.31627 6.5664
1.36089 6.69226
1.40551 5.92806
1.45013 6.17462
1.49476 6.03683
1.53938 6.14666
1.584 5.24377
1.62863 5.22471
1.67325 5.49855
1.71787 5.03093
1.7625 5.03144
1.80712 5.09179
1.85174 4.87252
1.89636 4.79411
1.94099 5.09939
1.98562 4.97232
2.03025 4.92967
2.07487 4.24452
2.11949 4.40743
2.16411 4.67782
2.20874 10.5922
2.25338 15.8803
2.298 5.49024
2.34263 5.85099
2.38725 5.85105
2.43188 5.22049
2.4765 6.59496
2.52115 6.48343
2.56577 7.39532
2.6104 7.81098
2.65503 7.24743
2.69965 8.36115
2.7443 8.35038
2.78893 8.0333
2.83356 8.3632
2.87818 8.92484
2.92281 8.95736
2.96744 9.39687
3.01209 10.8049
3.05672 11.0206
3.10135 12.0617
3.14599 12.5256
3.19062 14.0782
3.23527 14.9208
3.2799 15.4863
3.32454 16.6223
3.36917 17.3509
3.4138 18.595
3.45844 19.4274
3.50309 20.7799
3.54773 21.725
3.59237 23.2395
3.637 66.9358
3.68164 44.7476
3.7263 25.6508
3.77094 25.8805
3.81558 26.4859
3.86022 26.9158
3.90486 28.9304
3.9495 29.6393
3.99416 30.5992
4.0388 31.9646
4.08344 33.3118
4.12809 34.1486
4.17273 36.4141
4.21738 40.6375
4.26204 169.769
4.30669 145.32
4.35133 45.8309
4.39598 44.0034
4.44063 50.6927
4.4853 57.5906
4.52995 51.4921
4.5746 52.355
4.61925 53.158
4.6639 55.5072
4.70855 57.8725
4.75322 61.2517
4.79788 64.8416
4.84253 67.8886
4.88719 72.9656
4.93184 75.7414
4.97652 81.071
5.02118 88.0199
5.06583 95.2885
5.11049 106.553
5.15515 161.306
5.19981 402.514
5.24449 3023.18
5.28916 12490.1
5.33382 2706.79
5.37848 185.031
5.42315 128.737
5.46783 114.901
5.5125 107.215
5.55716 102.405
5.60183 98.2583
5.6465 96.5727
5.69117 94.3616
5.73586 92.7771
5.78053 93.5537
5.8252 92.7894
5.86988 94.1853
5.91455 95.1764
5.95924 104.864
6.00392 236.695
6.0486 1012.72
6.09328 4523.86
6.13795 3119.11
6.18263 218.486
6.22733 91.2491
6.27201 81.6345
6.3167 91.2385
6.36138 76.608
6.40606 69.225
6.45075 67.4988
6.49545 65.1341
6.54014 63.4554
6.58483 62.4259
6.62952 62.3356
6.67421 81.7731
6.71892 111.012
6.76361 64.3395
6.8083 58.4704
6.853 58.0068
6.89769 56.5908
6.94239 56.1906
6.98711 55.7039
7.03181 55.4208
7.07651 54.5998
7.12121 54.8094
7.16591 55.3062
7.21063 55.1947
7.25533 64.5091
7.30004 130.758
7.34475 76.5427
7.38945 55.6045
7.43416 54.1174
7.47889 53.8025
7.5236 54.5833
7.56831 55.0632
7.61303 55.9964
7.65774 56.2767
7.70247 55.7746
7.74719 56.0701
7.79191 56.3347
7.83663 56.6916
7.88135 57.7432
7.92607 58.5391
7.97081 59.5178
8.01553 60.3654
8.06026 62.3851
8.10498 64.0204
8.14971 70.9474
8.19446 70.5178
8.23919 69.4693
8.28392 72.0555
8.32865 74.1908
8.37339 78.4805
8.41812 84.5768
8.46288 107.669
8.50761 181.176
8.55235 410.419
8.59709 1227.54
8.64183 2221.91
8.68658 880.897
8.73134 152.916
8.77609 98.346
8.82083 91.9688
8.86558 89.8806
8.91033 89.5364
8.9551 89.7866
8.99985 85.1615
9.04461 83.4348
9.08936 82.9202
9.13412 81.9013
9.17888 81.8757
9.22365 81.9892
9.26841 82.004
9.31318 83.4637
9.35794 83.4079
9.4027 83.7127
9.44749 84.4124
9.49226 84.4775
9.53703 85.4695
9.5818 87.8937
9.62657 91.6177
9.67134 95.8088
9.71614 92.7919
9.76091 94.4569
9.80569 97.4774
9.85047 100.352
9.89525 116.504
9.94005 130.961
9.98484 193.272
10.0296 365.257
10.0744 847.573
10.1192 1795.79
10.164 1559.35
10.2088 365.43
10.2536 122.221
10.2984 110.569
10.3432 110.548
10.388 104.511
10.4328 123.023
10.4776 166.453
10.5224 293.218
10.5672 512.023
10.612 498.173
10.6568 192.859
10.7017 94.4543
10.7465 86.1402
10.7913 82.7842
10.8361 80.9181
10.8809 78.7191
10.9257 77.6828
10.9706 77.8632
11.0154 74.3115
11.0602 72.5223
11.105 71.4895
11.1499 73.4774
11.1947 77.4387
11.2395 71.6332
11.2844 69.1196
11.3292 67.0682
11.374 65.944
11.4189 65.2736
11.4637 64.6454
11.5086 64.8625
11.5534 66.3263
11.5983 64.8963
11.6431 63.361
11.688 62.9268
11.7328 62.7868
11.7777 62.5242
11.8225 62.4504
11.8674 62.3323
11.9122 62.6651
11.9571 63.047
12.002 63.779
12.0468 68.9702
12.0917 80.0612
12.1366 104.801
12.1814 155.59
12.2263 205.966
12.2712 159.763
12.3161 90.2127
12.3609 68.1934
12.4058 64.2734
12.4507 64.2179
12.4956 64.2997
12.5405 64.4983
12.5853 65.4803
12.6302 69.9663
12.6751 73.8576
12.72 68.61
12.7649 67.6345
12.8098 68.388
12.8547 69.642
12.8996 70.842
12.9445 72.623
12.9894 74.2419
13.0343 75.8062
13.0792 79.8134
13.1242 91.7294
13.1691 114.727
13.214 153.182
13.2589 249.201
13.3038 379.851
13.3487 419.825
13.3937 250.44
13.4386 120.313
13.4835 107.83
13.5285 123.165
13.5734 163.397
13.6183 255.049
13.6633 355.301
13.7082 324.588
13.7531 169.731
13.7981 93.4479
13.843 81.1256
13.888 79.5129
13.9329 77.1415
13.9779 75.7476
14.0228 74.2866
14.0678 72.714
14.1127 72.6791
14.1577 71.9624
14.2027 71.2086
14.2476 70.2023
14.2926 70.2193
14.3376 70.9133
14.3825 69.6011
14.4275 68.7243
14.4725 68.4617
14.5175 68.6201
14.5624 69.0467
14.6074 70.2481
14.6524 70.9678
14.6974 70.4101
14.7424 73.0835
14.7874 80.407
14.8324 90.501
14.8774 113.109
14.9224 157.986
14.9674 211.326
15.0124 215.798
15.0574 140.277
15.1024 87.1809
15.1474 71.6274
15.1924 70.1659
15.2374 70.101
15.2824 69.1817
15.3274 67.5685
15.3725 66.7106
15.4175 66.2403
15.4625 65.9349
15.5076 65.8744
15.5526 65.9476
15.5976 65.9716
15.6426 67.6874
15.6877 73.4499
15.7327 80.9381
15.7778 96.6117
15.8228 129.526
15.8679 175.479
15.9129 194.936
15.958 150.36
16.003 91.9053
16.0481 66.5251
16.0931 63.3688
16.1382 61.8559
16.1833 60.1642
16.2283 58.773
16.2734 58.2796
16.3185 58.2098
16.3636 58.243
16.4086 57.0892
16.4537 55.8719
16.4988 55.3821
16.5439 55.2934
16.589 54.9044
16.6341 54.7303
16.6792 54.3025
16.7243 54.7392
16.7694 54.6404
16.8145 54.71
16.8596 54.9558
16.9047 56.0474
16.9498 56.1894
16.9949 55.6122
17.04 55.7479
17.0851 57.2499
17.1302 58.6987
17.1754 61.9304
17.2205 67.2965
17.2656 75.0763
17.3108 83.8246
17.3559 81.5664
17.401 69.7735
17.4462 61.4767
17.4913 58.786
17.5365 58.9676
17.5815 59.1094
17.6268 59.4305
17.6718 60.2648
17.7171 60.5887
17.7622 61.4278
17.8074 62.3557
17.8525 65.0484
17.8977 69.0213
17.9428 74.2424
17.9881 83.7369
18.0331 102.102
18.0784 124.524
18.1237 142.739
18.1688 130.579
18.214 100.993
18.2591 86.1424
18.3044 91.5222
18.3495 101.098
18.3948 105.999
18.4399 94.7031
18.4852 75.3903
18.5303 65.2159
18.5756 62.0232
18.6207 61.194
18.666 60.3761
18.7112 59.5187
18.7565 58.7948
18.8016 58.5873
18.8469 57.8772
18.892 57.7223
18.9374 57.0473
18.9825 56.9602
19.0278 56.8565
19.073 56.9643
19.1183 57.3485
19.1635 57.938
19.2088 59.4138
19.254 62.3786
19.2993 67.1436
19.3447 73.4654
19.3898 76.3504
19.4352 71.3986
19.4804 62.1863
19.5257 56.447
19.5709 53.9071
19.6163 53.7093
19.6615 53.6601
19.7068 53.1558
19.752 53.4349
19.7974 53.7327
19.8426 54.4
19.888 54.9829
19.9332 56.2055
19.9786 59.0829
20.0238 62.7764
20.0692 67.7754
20.1144 69.896
20.1598 67.7422
20.205 63.2363
20.2504 62.2245
20.2957 64.0351
20.3411 65.4258
20.3863 63.4015
20.4318 57.6664
20.477 53.0535
20.5224 51.3035
20.5677 50.7547
20.6131 50.3673
20.6586 49.5895
20.7038 49.3259
20.7493 49.0505
20.7945 48.8419
20.84 48.7847
20.8853 48.559
20.9307 48.4898
20.976 48.5949
21.0215 48.643
21.0668 48.9203
21.1122 49.5047
21.1575 50.0454
21.203 50.8562
21.2483 51.2115
21.2938 51.3443
21.3391 49.9425
21.3846 48.7666
21.4299 48.2854
21.4754 48.2682
21.5207 48.5819
21.5662 49.0869
21.6116 49.2955
21.6571 49.9898
21.7024 50.9556
21.7479 52.8228
21.7933 55.7005
21.8388 59.5405
21.8843 63.1662
21.9297 64.5173
21.9752 62.8328
22.0206 58.887
22.0661 56.303
22.1115 56.0962
22.157 55.8845
22.2024 53.8242
22.248 50.9485
22.2933 49.5437
22.3389 48.8785
22.3843 48.9466
22.4299 48.8179
22.4753 48.8103
22.5208 48.4928
22.5662 48.4549
22.6118 48.738
22.6572 48.8203
22.7028 49.2501
22.7483 49.8969
22.7939 50.5484
22.8393 52.001
22.8849 54.2525
22.9303 56.4141
22.9759 58.125
23.0214 57.1132
23.067 54.0429
23.1126 50.8743
23.1581 49.0725
23.2037 48.711
23.2492 48.9317
23.2948 48.8634
23.3403 49.0903
23.3859 49.8965
23.4314 50.9058
23.477 52.7618
23.5225 55.1551
23.5682 57.3047
23.6137 57.8909
23.6593 55.0786
23.7048 51.0017
23.7505 47.9237
23.796 46.4416
23.8417 46.0036
23.8872 45.5028
23.9329 45.0966
23.9784 44.9529
24.0241 44.7254
24.0697 44.385
24.1154 44.1167
24.1609 43.8687
24.2066 43.6819
24.2522 43.6876
24.2979 43.2648
24.3434 43.2034
24.3892 43.0966
24.4349 43.0606
24.4805 42.7841
24.5262 43.0358
24.5718 42.8885
24.6175 42.7714
24.6631 42.7028
24.7089 42.3595
24.7545 42.4113
24.8002 42.0428
24.8458 42.1575
24.8916 42.1783
24.9372 42.2681
24.983 42.6646
25.0286 42.8925
25.0744 43.266
25.12 43.8179
25.1658 44.4478
25.2114 44.6036
25.2572 44.6865
25.3029 44.7208
25.3487 44.7809
25.3943 44.4034
25.4402 43.2077
25.4858 42.2056
25.5316 41.3981
25.5773 40.7743
25.6231 40.747
25.669 40.423
25.7147 40.4436
25.7605 40.298
25.8062 40.3759
25.8521 40.5067
25.8977 40.4744
25.9436 40.7145
25.9893 41.1047
26.0352 41.5211
26.0809 41.5968
26.1268 41.6491
26.1725 41.192
26.2184 40.708
26.2641 40.1741
26.31 39.9681
26.3557 40.1129
26.4017 40.056
26.4474 40.3809
26.4933 40.8272
26.5391 41.2887
26.585 41.7618
26.6308 42.1565
26.6767 42.1112
26.7225 41.9049
26.7684 41.217
26.8142 40.7474
26.8601 40.4472
26.9059 39.917
26.9519 39.3463
26.9979 39.1441
27.0437 38.8233
27.0896 38.6484
27.1354 38.7069
27.1814 38.5771
27.2272 38.498
27.2732 38.4752
27.3191 38.3522
27.3651 38.416
27.4109 38.4188
27.4569 38.593
27.5027 38.5327
27.5488 38.5218
27.5946 38.2917
27.6407 37.9698
27.6865 38.1352
27.7326 37.726
27.7784 37.8645
27.8245 37.8147
27.8703 38.0026
27.9164 38.2902
27.9623 38.4516
28.0084 38.8176
28.0543 39.1913
28.1003 38.9473
28.1462 38.7313
28.1923 38.4536
28.2384 37.9161
28.2843 37.6396
28.3304 37.0714
28.3764 36.5859
28.4225 36.257
28.4684 36.1405
28.5145 35.8631
28.5605 35.8499
28.6066 35.621
28.6526 35.6306
28.6987 35.4823
28.7447 35.4716
28.7908 35.3853
28.8368 35.3384
28.8829 35.4258
28.9289 35.3104
28.9751 35.0884
29.0211 34.8141
29.0673 34.6801
29.1133 34.5357
29.1595 34.3973
29.2055 34.3315
29.2517 34.3762
29.2977 34.2162
29.3439 34.167
29.3899 34.138
29.4361 34.067
29.4824 33.9261
29.5284 33.7395
29.5746 33.4309
29.6207 33.2262
29.6669 33.1965
29.713 32.8912
29.7593 32.7757
29.8053 32.922
29.8516 32.7009
29.8977 32.738
29.9439 32.5725
29.99 32.6051
30.0363 32.3666
30.0824 32.4789
30.1287 32.3123
30.1748 32.3707
30.2211 32.4928
30.2673 32.2013
30.3136 32.3471
30.3597 32.1428
30.406 32.0593
30.4522 32.053
30.4985 32.0188
30.5447 32.1217
30.591 32.1093
30.6372 32.1531
30.6835 32.2716
30.7297 32.1342
30.7761 32.0861
30.8224 31.927
30.8686 31.7366
30.915 31.5833
30.9612 31.4655
31.0076 31.2832
31.0538 31.1152
31.1002 31.0084
31.1464 30.9095
31.1928 30.973
31.2391 31.0239
31.2855 30.8328
31.3317 30.783
31.3781 30.9619
31.4244 30.8468
31.4708 30.8667
31.5171 30.7622
31.5636 30.7326
31.6098 30.4184
31.6563 30.3527
31.7026 30.184
31.7491 30.1146
31.7953 30.2447
31.8418 30.1519
31.8881 30.1311
31.9346 30.1179
31.9809 30.1977
32.0275 29.956
32.074 29.7283
32.1203 29.5236
32.1668 29.509
32.2132 29.4448
32.2597 29.1864
32.306 29.1166
32.3526 28.9277
32.399 28.9034
32.4455 28.7194
32.4919 28.6977
32.5385 28.6605
32.5848 28.4228
32.6314 28.4207
32.6778 28.3512
32.7244 28.3319
32.7708 28.0827
32.8174 28.1345
32.8638 28.0252
32.9104 28.0359
32.9569 27.9608
33.0035 27.7987
33.0499 27.8547
33.0966 27.8675
33.143 27.8046
33.1897 27.7325
33.2361 27.6196
33.2828 27.6117
33.3293 27.3491
33.3759 27.3648
33.4226 27.1199
33.4691 27.0841
33.5158 27.0029
33.5623 26.8391
33.609 26.7265
33.6555 26.6816
33.7022 26.521
33.7487 26.474
33.7954 26.4455
33.842 26.3023
33.8887 26.3149
33.9353 26.3022
33.982 26.1066
34.0286 26.0395
34.0753 25.9518
34.1219 25.9026
34.1687 25.8479
34.2152 25.7335
34.262 25.5628
34.3086 25.5519
34.3554 25.4753
34.402 25.3215
34.4488 25.2344
34.4954 25.2466
34.5422 25.1421
34.5889 24.9954
34.6357 24.8885
34.6825 24.9077
34.7292 24.9003
34.776 24.6419
34.8227 24.6162
34.8695 24.5899
34.9162 24.6128
34.9631 24.4399
35.0098 24.5364
35.0566 24.3759
35.1033 24.2575
35.1502 24.3139
35.1969 24.1414
35.2438 24.2077
35.2906 24.0746
35.3375 23.9914
35.3842 24.0168
35.4311 23.9384
35.4779 23.875
35.5248 23.7993
35.5716 23.7661
35.6185 23.64
35.6653 23.6096
35.7123 23.4364
35.759 23.5591
35.806 23.3358
35.8528 23.2377
35.8998 23.1382
35.9468 23.0701
35.9936 23.1682
36.0406 22.971
36.0874 22.9603
36.1345 22.8768
36.1813 22.7205
36.2283 22.7491
36.2752 22.5894
36.3222 22.6038
36.3691 22.5029
36.4161 22.4473
36.463 22.3411
36.5101 22.3534
36.557 22.4095
36.6041 22.175
36.651 22.0724
36.6981 22.065
36.745 21.9613
36.7921 21.9838
36.839 21.7705
36.8861 21.8324
36.9331 21.7331
36.9802 21.5859
37.0272 21.5864
37.0743 21.4668
37.1213 21.378
37.1684 21.3832
37.2154 21.2832
37.2626 21.2308
37.3098 21.1434
37.3568 21.1456
37.404 21.0156
37.451 20.9769
37.4982 20.9352
37.5452 20.8225
37.5924 20.8297
37.6395 20.8004
37.6867 20.6723
37.7337 20.5538
37.781 20.5387
37.8281 20.4446
37.8753 20.2879
37.9224 20.2964
37.9697 20.2121
38.0168 20.1387
38.064 20.1356
38.1111 20.0681
38.1584 19.9731
38.2056 19.9291
38.2529 19.8533
38.3 19.7786
38.3473 19.8052
38.3945 19.6214
38.4418 19.6016
38.489 19.5269
38.5363 19.4665
38.5837 19.3827
38.6309 19.4063
38.6782 19.2629
38.7254 19.2253
38.7728 19.1435
38.82 19.1082
38.8674 19.067
38.9146 19.0049
38.9621 18.8818
39.0093 18.8662
39.0567 18.8838
39.104 18.7781
39.1514 18.6651
39.1987 18.6771
39.2461 18.546
39.2934 18.5407
39.3409 18.3803
39.3882 18.3721
39.4356 18.333
39.483 18.2858
39.5304 18.2126
39.5778 18.1959
39.6253 18.1646
39.6726 18.1088
39.7201 18.0502
39.7675 17.9573
39.815 17.9091
39.8624 17.8636
39.9099 17.7711
39.9575 17.6949
40.0049 17.6669
40.0525 17.5396
40.0999 17.5381
40.1474 17.5509
40.1949 17.4256
40.2425 17.3954
40.2899 17.3559
40.3375 17.2165
40.385 17.1966
40.4326 17.1742
40.48 17.0876
40.5277 17.0736
40.5752 17.0
40.6228 16.926
40.6703 16.8248
40.718 16.8405
40.7655 16.8015
40.8132 16.7378
40.8607 16.7141
40.9084 16.6924
40.9559 16.5862
41.0036 16.5195
41.0512 16.4327
41.0989 16.433
41.1465 16.334
41.1942 16.2661
41.242 16.2227
41.2896 16.2077
41.3373 16.1493
41.3849 16.101
41.4327 16.053
41.4803 15.964
41.5281 15.8824
41.5758 15.8505
41.6236 15.8003
41.6712 15.7806
41.7191 15.7145
41.7667 15.6468
41.8146 15.5988
41.8622 15.5662
41.9101 15.5193
41.9578 15.3967
42.0057 15.4303
42.0534 15.321
42.1013 15.3355
42.149 15.1829
42.1969 15.1751
42.2446 15.1766
42.2925 15.0793
42.3403 15.0663
42.3882 15.0289
42.436 14.9912
42.4839 14.863
42.5319 14.793
42.5797 14.7498
42.6277 14.7007
42.6755 14.6923
42.7235 14.5854
42.7713 14.5953
42.8193 14.5395
42.8671 14.4889
42.9152 14.478
42.963 14.4134
43.0111 14.3316
43.0589 14.2691
43.107 14.2358
43.1549 14.1647
43.2029 14.1547
43.2508 14.1287
43.2989 14.0167
43.3468 13.9612
43.3949 13.9378
43.4429 13.9689
43.491 13.8348
43.5389 13.7867
43.5871 13.7363
43.635 13.7096
43.6832 13.6783
43.7312 13.5851
43.7793 13.5606
43.8273 13.5303
43.8755 13.4764
43.9237 13.4378
43.9717 13.3542
44.0199 13.303
44.068 13.2982
44.1162 13.2645
44.1642 13.1943
44.2125 13.1399
44.2606 13.1437
44.3088 13.0263
44.3569 13.0538
44.4052 12.974
44.4533 12.9569
44.5016 12.8431
44.5497 12.8507
44.598 12.7861
44.6461 12.6957
44.6945 12.7249
44.7426 12.6491
44.791 12.5708
44.8391 12.6116
44.8875 12.5091
44.9357 12.4783
44.984 12.4423
45.0322 12.3671
45.0806 12.3478
45.1288 12.277
45.1773 12.2323
45.2257 12.2169
45.2739 12.2
45.3224 12.0922
45.3706 12.0691
45.4191 12.006
45.4673 12.0457
45.5158 11.9977
45.5641 11.9112
45.6126 11.8367
45.6609 11.8196
45.7094 11.763
45.7577 11.7282
45.8063 11.7073
45.8546 11.6984
45.9031 11.6371
45.9515 11.5678
46.0001 11.5563
46.0484 11.4932
46.097 11.4651
46.1454 11.4581
46.194 11.3343
46.2424 11.3362
46.291 11.2993
46.3395 11.2347
46.3881 11.1839
46.4365 11.1926
46.4852 11.1266
46.5337 11.089
46.5823 11.0846
46.631 11.0019
46.6795 10.9571
46.7282 10.8971
46.7767 10.9028
46.8254 10.8504
46.8739 10.7945
46.9226 10.7429
46.9712 10.752
47.0199 10.687
47.0685 10.678
47.1173 10.5681
47.1658 10.5713
47.2146 10.5349
47.2632 10.4843
47.312 10.4397
47.3606 10.4076
47.4095 10.3574
47.4581 10.3038
47.5069 10.2819
47.5556 10.2865
47.6044 10.2068
47.6531 10.1904
47.702 10.1505
47.7507 10.0974
47.7996 10.0546
47.8483 10.0286
47.8972 10.0458
47.9461 9.9852
47.9948 9.8952
48.0438 9.88887
48.0925 9.88207
48.1415 9.81362
48.1902 9.78318
48.2392 9.75514
48.288 9.70856
48.337 9.68359
48.3858 9.62425
48.4348 9.61369
48.4837 9.61756
48.5327 9.56344
48.5815 9.50319
48.6306 9.49688
48.6795 9.44856
48.7285 9.38652
48.7774 9.37513
48.8265 9.31373
48.8754 9.28539
48.9245 9.2738
48.9734 9.22058
49.0226 9.20843
49.0715 9.14749
49.1206 9.15173
49.1696 9.11742
49.2188 9.05958
49.2679 9.03651
49.3169 8.99764
49.3661 8.95094
49.4151 8.94263
49.4643 8.87442
49.5134 8.87742
49.5626 8.79008
49.6117 8.8038
49.6609 8.75065
49.71 8.68055
49.7592 8.68868
49.8083 8.6458
49.8576 8.64297
49.9067 8.53766
49.956 8.55504
50.0052 8.52237
50.0545 8.51574
50.1036 8.4624
50.153 8.4136
50.2022 8.3743
50.2515 8.32319
50.3007 8.26896
50.3501 8.27229
50.3993 8.2666
50.4487 8.2125
50.498 8.23047
50.5474 8.17143
50.5966 8.11402
50.6461 8.10514
50.6955 8.06884
50.7448 8.03367
50.7943 7.97403
50.8436 7.97404
50.8931 7.96523
50.9424 7.9092
50.9919 7.88134
51.0413 7.85997
51.0908 7.84328
51.1402 7.78734
51.1897 7.78371
51.2391 7.70765
51.2887 7.6816
51.3381 7.69814
51.3877 7.62828
51.4371 7.59874
51.4867 7.54332
51.5362 7.55887
51.5858 7.50778
51.6353 7.44314
51.6849 7.46439
51.7344 7.43102
51.7841 7.40186
51.8336 7.33877
51.8833 7.30778
51.9328 7.29939
51.9826 7.22288
52.0323 7.22398
52.0818 7.19706
52.1316 7.19054
52.1812 7.15033
52.231 7.09433
52.2806 7.09193
52.3304 7.04948
52.38 7.03184
52.4298 6.96747
52.4794 6.95382
52.5293 6.92587
52.5789 6.9531
52.6288 6.87102
52.6785 6.83056
52.7284 6.82939
52.7781 6.78455
52.828 6.75603
52.8777 6.73777
52.9276 6.66846
52.9774 6.6683
53.0273 6.69495
53.0771 6.61503
53.1271 6.56502
53.1769 6.57118
53.2269 6.50842
53.2767 6.52739
53.3267 6.47497
53.3765 6.48118
53.4266 6.44176
53.4766 6.38013
53.5265 6.34904
53.5765 6.35593
53.6264 6.31546
53.6765 6.29257
53.7264 6.25402
53.7765 6.21924
53.8265 6.19809
53.8766 6.15232
53.9266 6.14355
53.9767 6.09288
54.0267 6.15832
54.0769 6.02689
54.1269 6.04088
54.1771 6.0429
54.2271 5.98007
54.2773 5.96588
54.3274 5.92164
54.3776 5.87928
54.4277 5.87212
54.478 5.83485
54.528 5.8466
54.5783 5.77565
54.6285 5.71305
54.6788 5.64756
54.7289 5.63201
54.7792 5.59606
54.8296 5.5331
54.8798 5.47033
54.9301 5.44471
54.9803 5.41667
55.0307 5.4192
55.0809 5.35022
55.1314 5.34834
55.1816 5.29867
55.232 5.25133
55.2823 5.20106
55.3328 5.09336
55.383 5.12161
55.4335 5.09912
55.4838 5.00125
55.5344 4.99188
55.5847 4.94166
55.6352 4.91571
55.6856 4.82481
55.7361 4.86268