File: XRD/Ni3Fe_FD0114.xy
TT I
1.27165 8.22297
1.31627 7.49394
1.36089 6.74983
1.40551 7.6047
1.45013 7.19088
1.49476 5.86054
1.53938 6.18566
1.584 6.18157
1.62863 5.82259
1.67325 5.63865
1.71787 4.90221
1.7625 5.61594
1.80712 5.05174
1.85174 5.2557
1.89636 5.21675
1.94099 5.12687
1.98562 5.60704
2.03025 5.547
2.07487 5.11434
2.11949 5.24557
2.16411 4.82918
2.20874 4.40301
2.25338 4.31179
2.298 4.12173
2.34263 3.97309
2.38725 4.66403
2.43188 4.03886
2.4765 4.40991
2.52115 3.88374
2.56577 3.97674
2.6104 4.67656
2.65503 4.14348
2.69965 5.12679
2.7443 5.13706
2.78893 6.16921
2.83356 6.54974
2.87818 7.42079
2.92281 7.98953
2.96744 8.63436
3.01209 10.0741
3.05672 11.1722
3.10135 12.1402
3.14599 12.7824
3.19062 13.6823
3.23527 14.8974
3.2799 15.5363
3.32454 16.7892
3.36917 17.395
3.4138 17.9216
3.45844 19.2307
3.50309 19.9909
3.54773 20.9328
3.59237 21.3551
3.637 22.5094
3.68164 22.725
3.7263 23.8092
3.77094 24.7489
3.81558 25.7779
3.86022 26.3423
3.90486 27.3611
3.9495 28.5825
3.99416 28.9696
4.0388 30.7004
4.08344 31.7035
4.12809 32.0353
4.17273 33.6382
4.21738 34.9955
4.26204 35.8014
4.30669 37.7207
4.35133 39.3332
4.39598 40.9696
4.44063 42.933
4.4853 44.4355
4.52995 46.7979
4.5746 48.8119
4.61925 51.1485
4.6639 53.3507
4.70855 56.4711
4.75322 58.8143
4.79788 61.9301
4.84253 65.4139
4.88719 70.1527
4.93184 75.3709
4.97652 82.4194
5.02118 91.789
5.06583 102.933
5.11049 120.347
5.15515 163.521
5.19981 608.202
5.24449 3772.47
5.28916 7374.01
5.33382 6729.82
5.37848 566.497
5.42315 176.068
5.46783 132.293
5.5125 116.711
5.55716 109.246
5.60183 102.567
5.6465 99.9637
5.69117 98.3193
5.73586 95.9687
5.78053 95.6638
5.8252 96.6656
5.86988 100.087
5.91455 107.937
5.95924 129.776
6.00392 311.463
6.0486 1413.88
6.09328 2408.58
6.13795 3921.25
6.18263 820.831
6.22733 134.111
6.27201 92.0258
6.3167 79.5213
6.36138 72.8287
6.40606 68.5671
6.45075 66.6267
6.49545 63.5189
6.54014 61.9534
6.58483 60.7219
6.62952 59.5666
6.67421 57.708
6.71892 56.6526
6.76361 55.9882
6.8083 55.2284
6.853 54.1686
6.89769 54.1368
6.94239 53.7688
6.98711 52.8694
7.03181 52.4047
7.07651 52.0353
7.12121 52.1941
7.16591 51.7232
7.21063 51.0727
7.25533 51.2639
7.30004 51.3921
7.34475 52.0139
7.38945 51.5725
7.43416 51.1561
7.47889 51.8007
7.5236 56.8088
7.56831 68.7877
7.61303 56.3201
7.65774 53.056
7.70247 53.3087
7.74719 53.3516
7.79191 54.0632
7.83663 54.7453
7.88135 55.5031
7.92607 56.3806
7.97081 57.4403
8.01553 58.7575
8.06026 59.5337
8.10498 61.2484
8.14971 63.2835
8.19446 64.8448
8.23919 67.4914
8.28392 70.5282
8.32865 73.1294
8.37339 77.9514
8.41812 83.5611
8.46288 96.8108
8.50761 180.57
8.55235 627.953
8.59709 814.471
8.64183 1303.45
8.68658 1702.93
8.73134 489.175
8.77609 122.592
8.82083 98.7019
8.86558 91.4712
8.91033 87.4585
8.9551 84.8507
8.99985 83.336
9.04461 82.7008
9.08936 82.0217
9.13412 81.0449
9.17888 81.201
9.22365 89.0326
9.26841 106.153
9.31318 89.8536
9.35794 82.156
9.4027 81.3964
9.44749 82.5727
9.49226 82.7256
9.53703 83.6886
9.5818 85.352
9.62657 86.1407
9.67134 87.691
9.71614 90.3548
9.76091 92.0726
9.80569 94.8429
9.85047 98.3397
9.89525 104.051
9.94005 114.466
9.98484 192.219
10.0296 569.133
10.0744 699.788
10.1192 883.749
10.164 1556.7
10.2088 1104.19
10.2536 243.939
10.2984 119.383
10.3432 108.917
10.388 104.701
10.4328 122.238
10.4776 221.353
10.5224 252.302
10.5672 291.624
10.612 461.935
10.6568 404.449
10.7017 146.392
10.7465 92.202
10.7913 83.3912
10.8361 80.2867
10.8809 77.2295
10.9257 74.9996
10.9706 73.7095
11.0154 72.1384
11.0602 70.9195
11.105 69.8403
11.1499 67.9924
11.1947 66.9756
11.2395 66.2557
11.2844 65.4258
11.3292 64.5431
11.374 64.0934
11.4189 63.6432
11.4637 62.8585
11.5086 62.0625
11.5534 61.559
11.5983 61.6106
11.6431 61.6678
11.688 60.9558
11.7328 60.81
11.7777 60.4842
11.8225 60.3424
11.8674 60.506
11.9122 62.3646
11.9571 67.2874
12.002 66.8813
12.0468 67.8142
12.0917 91.3036
12.1366 107.007
12.1814 110.114
12.2263 136.939
12.2712 185.751
12.3161 151.394
12.3609 78.7082
12.4058 63.6259
12.4507 62.7417
12.4956 62.5329
12.5405 62.4737
12.5853 62.6103
12.6302 63.1958
12.6751 63.7948
12.72 64.4282
12.7649 65.6565
12.8098 66.4576
12.8547 67.4424
12.8996 68.9801
12.9445 70.4472
12.9894 72.202
13.0343 74.6322
13.0792 78.8357
13.1242 86.6244
13.1691 135.513
13.214 190.614
13.2589 193.234
13.3038 218.304
13.3487 318.207
13.3937 389.778
13.4386 234.685
13.4835 124.724
13.5285 158.13
13.5734 183.202
13.6183 178.328
13.6633 211.875
13.7082 307.412
13.7531 319.429
13.7981 169.754
13.843 90.2458
13.888 80.4181
13.9329 77.0619
13.9779 75.5953
14.0228 73.9242
14.0678 72.4904
14.1127 72.6263
14.1577 75.1594
14.2027 73.4623
14.2476 70.2333
14.2926 68.8171
14.3376 68.2544
14.3825 68.0603
14.4275 67.2184
14.4725 67.4424
14.5175 67.5991
14.5624 67.6058
14.6074 67.9184
14.6524 68.4588
14.6974 68.9513
14.7424 70.6863
14.7874 80.3136
14.8324 108.591
14.8774 120.442
14.9224 119.194
14.9674 134.398
15.0124 177.58
15.0574 207.674
15.1024 151.508
15.1474 85.2244
15.1924 71.3831
15.2374 68.4612
15.2824 67.127
15.3274 66.3356
15.3725 65.6122
15.4175 65.3902
15.4625 64.8451
15.5076 64.6939
15.5526 64.8078
15.5976 64.8411
15.6426 66.0539
15.6877 73.426
15.7327 96.0491
15.7778 107.696
15.8228 105.363
15.8679 113.871
15.9129 141.404
15.958 182.018
16.003 161.047
16.0481 95.0632
16.0931 67.4378
16.1382 61.7611
16.1833 59.98
16.2283 58.2387
16.2734 57.3703
16.3185 56.6577
16.3636 55.9696
16.4086 55.2373
16.4537 55.0009
16.4988 54.4312
16.5439 54.3356
16.589 53.9554
16.6341 53.7806
16.6792 53.3832
16.7243 53.5849
16.7694 53.6929
16.8145 53.4593
16.8596 53.7149
16.9047 54.1882
16.9498 54.543
16.9949 54.3972
17.04 54.7717
17.0851 56.1412
17.1302 60.7162
17.1754 64.0469
17.2205 64.0437
17.2656 64.8963
17.3108 69.4366
17.3559 76.2651
17.401 80.6499
17.4462 73.0331
17.4913 61.8133
17.5365 58.8052
17.5815 58.495
17.6268 58.806
17.6718 59.2196
17.7171 59.5842
17.7622 60.829
17.8074 61.7245
17.8525 63.3816
17.8977 71.9073
17.9428 84.3129
17.9881 88.1396
18.0331 87.1898
18.0784 92.1146
18.1237 106.638
18.1688 134.764
18.214 145.712
18.2591 115.321
18.3044 87.4692
18.3495 83.0684
18.3948 90.7528
18.4399 101.468
18.4852 97.743
18.5303 78.9141
18.5756 65.5227
18.6207 61.9078
18.666 60.54
18.7112 59.1957
18.7565 58.6069
18.8016 58.0997
18.8469 57.6807
18.892 57.2812
18.9374 56.8894
18.9825 56.413
19.0278 56.1582
19.073 56.0526
19.1183 56.786
19.1635 59.2446
19.2088 61.4021
19.254 61.5498
19.2993 61.6933
19.3447 63.5023
19.3898 66.7196
19.4352 72.0286
19.4804 72.6664
19.5257 65.205
19.5709 56.544
19.6163 53.9084
19.6615 53.6123
19.7068 52.8925
19.752 52.7479
19.7974 52.8166
19.8426 54.1966
19.888 56.5429
19.9332 58.0716
19.9786 57.7085
20.0238 57.8679
20.0692 60.1834
20.1144 64.7355
20.1598 70.72
20.205 70.9817
20.2504 65.5878
20.2957 60.2446
20.3411 59.8788
20.3863 62.8177
20.4318 64.3702
20.477 59.6955
20.5224 53.5591
20.5677 50.6096
20.6131 49.8652
20.6586 49.2853
20.7038 49.0429
20.7493 48.7691
20.7945 48.9133
20.84 48.7241
20.8853 48.3339
20.9307 48.1736
20.976 48.3596
21.0215 48.5906
21.0668 48.9275
21.1122 49.1057
21.1575 49.0617
21.203 49.0059
21.2483 49.4439
21.2938 50.4306
21.3391 50.8843
21.3846 50.3359
21.4299 49.0549
21.4754 48.4695
21.5207 48.327
21.5662 48.551
21.6116 48.9122
21.6571 50.8206
21.7024 52.8776
21.7479 53.6499
21.7933 53.3871
21.8388 54.6029
21.8843 56.9947
21.9297 60.0696
21.9752 64.4282
22.0206 65.9659
22.0661 61.1818
22.1115 56.0782
22.157 54.6222
22.2024 55.6934
22.248 55.2139
22.2933 52.6129
22.3389 49.986
22.3843 48.8177
22.4299 48.374
22.4753 48.4818
22.5208 48.2577
22.5662 48.2742
22.6118 48.545
22.6572 48.6661
22.7028 49.864
22.7483 51.1352
22.7939 51.5335
22.8393 51.3538
22.8849 51.4666
22.9303 52.2251
22.9759 53.4218
23.0214 55.7388
23.067 57.6974
23.1126 56.4641
23.1581 52.6395
23.2037 49.7277
23.2492 48.9736
23.2948 49.3128
23.3403 50.5892
23.3859 51.3755
23.4314 51.1193
23.477 50.9705
23.5225 51.1664
23.5682 52.2337
23.6137 54.1819
23.6593 56.6033
23.7048 57.0489
23.7505 54.0416
23.796 49.4053
23.8417 46.6787
23.8872 45.6569
23.9329 45.2639
23.9784 44.7314
24.0241 44.6154
24.0697 44.2844
24.1154 44.0324
24.1609 43.7975
24.2066 43.6509
24.2522 43.4575
24.2979 43.0969
24.3434 43.0685
24.3892 42.9295
24.4349 42.6754
24.4805 42.5733
24.5262 42.6758
24.5718 42.4699
24.6175 42.5241
24.6631 42.6986
24.7089 42.615
24.7545 42.4577
24.8002 42.1433
24.8458 42.2277
24.8916 42.174
24.9372 42.3302
24.983 42.3142
25.0286 42.6079
25.0744 42.972
25.12 43.3923
25.1658 43.7689
25.2114 43.888
25.2572 44.3751
25.3029 44.3544
25.3487 44.198
25.3943 44.1121
25.4402 44.3348
25.4858 44.2885
25.5316 43.0114
25.5773 41.6436
25.6231 41.1023
25.669 40.5029
25.7147 40.5407
25.7605 40.2962
25.8062 40.5262
25.8521 40.772
25.8977 40.5787
25.9436 40.6215
25.9893 40.4324
26.0352 40.6893
26.0809 40.6048
26.1268 40.969
26.1725 41.423
26.2184 41.6492
26.2641 41.2957
26.31 40.7861
26.3557 40.5197
26.4017 40.3915
26.4474 40.5782
26.4933 40.5333
26.5391 40.5473
26.585 40.8354
26.6308 41.2401
26.6767 41.3931
26.7225 42.0855
26.7684 42.2367
26.8142 41.8991
26.8601 41.007
26.9059 40.4904
26.9519 40.1114
26.9979 39.7832
27.0437 39.2946
27.0896 38.7372
27.1354 38.7452
27.1814 38.5839
27.2272 38.5401
27.2732 38.7007
27.3191 38.402
27.3651 38.3616
27.4109 38.1638
27.4569 38.2645
27.5027 38.2057
27.5488 38.301
27.5946 38.3618
27.6407 38.405
27.6865 38.5782
27.7326 38.2282
27.7784 38.1398
27.8245 38.0329
27.8703 38.064
27.9164 38.0859
27.9623 38.0196
28.0084 38.1847
28.0543 38.4661
28.1003 38.4711
28.1462 38.7993
28.1923 38.9476
28.2384 38.4972
28.2843 38.0999
28.3304 37.8418
28.3764 37.3959
28.4225 36.8686
28.4684 36.5455
28.5145 36.0423
28.5605 35.8826
28.6066 35.7863
28.6526 35.6242
28.6987 35.6276
28.7447 35.3721
28.7908 35.3281
28.8368 35.2628
28.8829 35.1692
28.9289 35.1078
28.9751 35.1151
29.0211 35.1158
29.0673 34.9585
29.1133 34.7254
29.1595 34.5851
29.2055 34.2276
29.2517 34.3098
29.2977 34.1446
29.3439 33.9821
29.3899 33.8158
29.4361 33.965
29.4824 33.8217
29.5284 34.0063
29.5746 33.6751
29.6207 33.2745
29.6669 33.0823
29.713 32.9196
29.7593 32.8411
29.8053 32.7554
29.8516 32.5722
29.8977 32.6225
29.9439 32.5273
29.99 32.5665
30.0363 32.3461
30.0824 32.3409
30.1287 32.2181
30.1748 32.3331
30.2211 32.1269
30.2673 32.0415
30.3136 32.2244
30.3597 32.338
30.406 32.2909
30.4522 32.1437
30.4985 32.02
30.5447 32.0308
30.591 31.9478
30.6372 31.9661
30.6835 31.787
30.7297 31.9643
30.7761 32.0082
30.8224 32.1696
30.8686 32.1855
30.915 31.7544
30.9612 31.6956
31.0076 31.4394
31.0538 31.3122
31.1002 31.2092
31.1464 30.9723
31.1928 30.9438
31.2391 30.9358
31.2855 30.8542
31.3317 30.7924
31.3781 30.7669
31.4244 30.6863
31.4708 30.6817
31.5171 30.6398
31.5636 30.7723
31.6098 30.6254
31.6563 30.5746
31.7026 30.4159
31.7491 30.2083
31.7953 30.1724
31.8418 30.0842
31.8881 30.0326
31.9346 30.0173
31.9809 29.8932
32.0275 29.8355
32.074 29.8712
32.1203 29.7602
32.1668 29.6169
32.2132 29.4019
32.2597 29.3518
32.306 29.2189
32.3526 28.935
32.399 28.9427
32.4455 28.6756
32.4919 28.7346
32.5385 28.6844
32.5848 28.431
32.6314 28.4892
32.6778 28.3857
32.7244 28.1909
32.7708 28.1281
32.8174 28.0861
32.8638 27.9418
32.9104 28.0291
32.9569 27.9685
33.0035 27.7575
33.0499 27.7392
33.0966 27.6902
33.143 27.6684
33.1897 27.5334
33.2361 27.5814
33.2828 27.5491
33.3293 27.3025
33.3759 27.4134
33.4226 27.2241
33.4691 27.1248
33.5158 27.0885
33.5623 26.9341
33.609 26.6573
33.6555 26.6852
33.7022 26.5081
33.7487 26.3777
33.7954 26.3494
33.842 26.2418
33.8887 26.2059
33.9353 26.2341
33.982 26.0239
34.0286 26.0828
34.0753 26.0032
34.1219 25.8507
34.1687 25.7715
34.2152 25.702
34.262 25.6102
34.3086 25.4656
34.3554 25.5094
34.402 25.303
34.4488 25.1507
34.4954 25.2435
34.5422 25.1432
34.5889 24.996
34.6357 24.9685
34.6825 24.8401
34.7292 24.6976
34.776 24.7168
34.8227 24.6145
34.8695 24.5438
34.9162 24.4628
34.9631 24.3469
35.0098 24.4656
35.0566 24.3268
35.1033 24.1839
35.1502 24.1576
35.1969 24.0967
35.2438 24.0721
35.2906 23.987
35.3375 23.9194
35.3842 23.8122
35.4311 23.9456
35.4779 23.7943
35.5248 23.8221
35.5716 23.7038
35.6185 23.7296
35.6653 23.6538
35.7123 23.5497
35.759 23.4648
35.806 23.2747
35.8528 23.1799
35.8998 23.1444
35.9468 23.0157
35.9936 23.0415
36.0406 22.8807
36.0874 22.971
36.1345 22.7973
36.1813 22.753
36.2283 22.7117
36.2752 22.6112
36.3222 22.6772
36.3691 22.59
36.4161 22.3683
36.463 22.3828
36.5101 22.3542
36.557 22.2646
36.6041 22.0786
36.651 22.0493
36.6981 22.1183
36.745 22.0271
36.7921 21.9853
36.839 21.8506
36.8861 21.8044
36.9331 21.7344
36.9802 21.6196
37.0272 21.5705
37.0743 21.3669
37.1213 21.4359
37.1684 21.3473
37.2154 21.2316
37.2626 21.1783
37.3098 21.1459
37.3568 21.0745
37.404 21.111
37.451 20.9322
37.4982 20.927
37.5452 20.775
37.5924 20.7672
37.6395 20.7079
37.6867 20.6681
37.7337 20.5635
37.781 20.4897
37.8281 20.4196
37.8753 20.3765
37.9224 20.2718
37.9697 20.1895
38.0168 20.1909
38.064 20.0751
38.1111 20.0204
38.1584 19.9091
38.2056 19.8909
38.2529 19.8569
38.3 19.7716
38.3473 19.761
38.3945 19.5843
38.4418 19.5695
38.489 19.5742
38.5363 19.4842
38.5837 19.3736
38.6309 19.3574
38.6782 19.2597
38.7254 19.1466
38.7728 19.1932
38.82 19.0422
38.8674 19.033
38.9146 19.0134
38.9621 18.9536
39.0093 18.8846
39.0567 18.7996
39.104 18.7583
39.1514 18.6535
39.1987 18.6663
39.2461 18.6067
39.2934 18.4821
39.3409 18.3987
39.3882 18.3395
39.4356 18.3227
39.483 18.227
39.5304 18.2403
39.5778 18.1553
39.6253 18.0449
39.6726 18.0935
39.7201 17.988
39.7675 17.9339
39.815 17.8576
39.8624 17.8122
39.9099 17.8032
39.9575 17.6587
40.0049 17.7079
40.0525 17.5746
40.0999 17.5422
40.1474 17.4771
40.1949 17.4262
40.2425 17.3384
40.2899 17.3283
40.3375 17.2477
40.385 17.2126
40.4326 17.1397
40.48 17.0723
40.5277 17.0562
40.5752 17.0028
40.6228 16.9825
40.6703 16.8685
40.718 16.8476
40.7655 16.8214
40.8132 16.7223
40.8607 16.674
40.9084 16.6687
40.9559 16.5852
41.0036 16.5215
41.0512 16.4976
41.0989 16.3964
41.1465 16.3981
41.1942 16.3058
41.242 16.2272
41.2896 16.2176
41.3373 16.1249
41.3849 16.1005
41.4327 15.9991
41.4803 15.957
41.5281 15.8718
41.5758 15.88
41.6236 15.7933
41.6712 15.788
41.7191 15.6906
41.7667 15.6382
41.8146 15.6076
41.8622 15.5295
41.9101 15.4831
41.9578 15.3686
42.0057 15.3354
42.0534 15.3605
42.1013 15.2546
42.149 15.2104
42.1969 15.1714
42.2446 15.1174
42.2925 15.0876
42.3403 15.0335
42.3882 14.9983
42.436 14.8945
42.4839 14.8946
42.5319 14.8383
42.5797 14.7899
42.6277 14.7697
42.6755 14.6615
42.7235 14.6589
42.7713 14.6127
42.8193 14.5217
42.8671 14.4688
42.9152 14.4783
42.963 14.4123
43.0111 14.3135
43.0589 14.2909
43.107 14.219
43.1549 14.1756
43.2029 14.1397
43.2508 14.0991
43.2989 14.0789
43.3468 13.9732
43.3949 13.9671
43.4429 13.9
43.491 13.8535
43.5389 13.757
43.5871 13.7207
43.635 13.6751
43.6832 13.6567
43.7312 13.6082
43.7793 13.5506
43.8273 13.526
43.8755 13.4284
43.9237 13.4677
43.9717 13.4023
44.0199 13.3089
44.068 13.3155
44.1162 13.2042
44.1642 13.206
44.2125 13.1333
44.2606 13.077
44.3088 13.0464
44.3569 12.9994
44.4052 12.9762
44.4533 12.9486
44.5016 12.8196
44.5497 12.8092
44.598 12.7976
44.6461 12.7888
44.6945 12.6733
44.7426 12.6473
44.791 12.5428
44.8391 12.5827
44.8875 12.5357
44.9357 12.4881
44.984 12.4183
45.0322 12.3925
45.0806 12.3307
45.1288 12.2776
45.1773 12.2658
45.2257 12.1954
45.2739 12.1601
45.3224 12.114
45.3706 12.0188
45.4191 11.9827
45.4673 11.9861
45.5158 11.9598
45.5641 11.9137
45.6126 11.8787
45.6609 11.818
45.7094 11.762
45.7577 11.7415
45.8063 11.7078
45.8546 11.673
45.9031 11.5723
45.9515 11.5669
46.0001 11.528
46.0484 11.4777
46.097 11.4078
46.1454 11.4103
46.194 11.4205
46.2424 11.316
46.291 11.2711
46.3395 11.2341
46.3881 11.1664
46.4365 11.1772
46.4852 11.126
46.5337 11.0751
46.5823 11.0447
46.631 10.9733
46.6795 10.9405
46.7282 10.8847
46.7767 10.8711
46.8254 10.8229
46.8739 10.8059
46.9226 10.7809
46.9712 10.7101
47.0199 10.6742
47.0685 10.6164
47.1173 10.6228
47.1658 10.5502
47.2146 10.5425
47.2632 10.4762
47.312 10.4503
47.3606 10.3755
47.4095 10.3502
47.4581 10.3082
47.5069 10.2462
47.5556 10.2333
47.6044 10.1856
47.6531 10.1258
47.702 10.1098
47.7507 10.1058
47.7996 10.07
47.8483 10.0408
47.8972 9.97783
47.9461 9.94534
47.9948 9.91761
48.0438 9.91967
48.0925 9.87144
48.1415 9.79362
48.1902 9.76787
48.2392 9.74357
48.288 9.72112
48.337 9.67107
48.3858 9.61994
48.4348 9.59571
48.4837 9.60045
48.5327 9.55932
48.5815 9.4915
48.6306 9.47051
48.6795 9.41309
48.7285 9.40213
48.7774 9.38035
48.8265 9.33587
48.8754 9.2975
48.9245 9.27556
48.9734 9.22862
49.0226 9.25333
49.0715 9.12173
49.1206 9.13316
49.1696 9.09252
49.2188 9.05965
49.2679 9.04767
49.3169 8.9545
49.3661 8.95433
49.4151 8.89954
49.4643 8.86516
49.5134 8.80056
49.5626 8.78169
49.6117 8.77791
49.6609 8.77241
49.71 8.69095
49.7592 8.69883
49.8083 8.64713
49.8576 8.60587
49.9067 8.60331
49.956 8.5439
50.0052 8.51405
50.0545 8.51976
50.1036 8.46674
50.153 8.46638
50.2022 8.39449
50.2515 8.37288
50.3007 8.28826
50.3501 8.27724
50.3993 8.22967
50.4487 8.25156
50.498 8.17511
50.5474 8.17552
50.5966 8.12376
50.6461 8.10729
50.6955 8.0589
50.7448 8.07092
50.7943 8.02615
50.8436 7.95961
50.8931 7.95205
50.9424 7.9025
50.9919 7.88673
51.0413 7.87673
51.0908 7.81504
51.1402 7.77877
51.1897 7.77445
51.2391 7.73703
51.2887 7.70998
51.3381 7.6427
51.3877 7.66213
51.4371 7.59456
51.4867 7.56794
51.5362 7.56215
51.5858 7.52844
51.6353 7.45242
51.6849 7.4713
51.7344 7.42864
51.7841 7.41977
51.8336 7.33167
51.8833 7.34579
51.9328 7.28975
51.9826 7.2012
52.0323 7.25722
52.0818 7.2012
52.1316 7.16883
52.1812 7.14576
52.231 7.09426
52.2806 7.08847
52.3304 7.03669
52.38 7.04738
52.4298 7.00111
52.4794 6.95635
52.5293 6.93774
52.5789 6.91606
52.6288 6.9137
52.6785 6.84557
52.7284 6.82482
52.7781 6.84615
52.828 6.79801
52.8777 6.74923
52.9276 6.73705
52.9774 6.72154
53.0273 6.6494
53.0771 6.64194
53.1271 6.64479
53.1769 6.55189
53.2269 6.55843
53.2767 6.5243
53.3267 6.52129
53.3765 6.49285
53.4266 6.41977
53.4766 6.37564
53.5265 6.33575
53.5765 6.36297
53.6264 6.3263
53.6765 6.27753
53.7264 6.24933
53.7765 6.23052
53.8265 6.18923
53.8766 6.18984
53.9266 6.14351
53.9767 6.12483
54.0267 6.11559
54.0769 6.08686
54.1269 6.02757
54.1771 5.99164
54.2271 5.93505
54.2773 5.9019
54.3274 5.87856
54.3776 5.85982
54.4277 5.78869
54.478 5.78364
54.528 5.73285
54.5783 5.65709
54.6285 5.59578
54.6788 5.54961
54.7289 5.52539
54.7792 5.49429
54.8296 5.48029
54.8798 5.41504
54.9301 5.40398
54.9803 5.38841
55.0307 5.3857
55.0809 5.23442
55.1314 5.27157
55.1816 5.13686
55.232 5.10125
55.2823 5.08797
55.3328 5.04622
55.383 4.9637
55.4335 4.94799
55.4838 4.882
55.5344 4.79474
55.5847 4.8721
55.6352 4.77861
55.6856 4.74706
55.7361 4.75404