File: XRD/Ni3Fe_FD0558.xy
TT I
1.27165 7.27335
1.31627 6.87802
1.36089 6.31936
1.40551 5.76179
1.45013 5.91769
1.49476 5.77639
1.53938 6.54463
1.584 5.44873
1.62863 5.23198
1.67325 5.38605
1.71787 5.48984
1.7625 4.7684
1.80712 4.80138
1.85174 4.83702
1.89636 4.86256
1.94099 5.46045
1.98562 4.83304
2.03025 4.97287
2.07487 4.72544
2.11949 5.03693
2.16411 5.10633
2.20874 12.0738
2.25338 17.5844
2.298 5.35282
2.34263 4.8503
2.38725 5.49652
2.43188 5.77364
2.4765 6.85282
2.52115 6.90836
2.56577 6.81705
2.6104 7.77717
2.65503 7.94232
2.69965 7.36434
2.7443 7.66408
2.78893 8.08098
2.83356 8.19301
2.87818 8.84956
2.92281 9.22468
2.96744 9.54409
3.01209 10.3122
3.05672 11.2995
3.10135 12.6896
3.14599 12.9146
3.19062 14.0975
3.23527 15.0096
3.2799 15.8918
3.32454 16.4713
3.36917 17.404
3.4138 19.1337
3.45844 19.6931
3.50309 20.6932
3.54773 21.7072
3.59237 23.5273
3.637 72.9233
3.68164 47.9271
3.7263 25.8885
3.77094 26.3078
3.81558 26.8752
3.86022 27.6459
3.90486 28.8427
3.9495 29.8932
3.99416 30.8158
4.0388 32.4457
4.08344 33.4031
4.12809 35.3111
4.17273 36.4381
4.21738 41.3431
4.26204 187.886
4.30669 160.179
4.35133 46.5984
4.39598 44.3056
4.44063 51.9279
4.4853 59.9513
4.52995 50.6177
4.5746 51.7519
4.61925 53.5079
4.6639 56.1104
4.70855 58.7656
4.75322 61.5435
4.79788 64.7579
4.84253 68.2522
4.88719 72.1195
4.93184 75.9116
4.97652 82.1419
5.02118 88.0145
5.06583 96.4373
5.11049 108.667
5.15515 167.791
5.19981 422.337
5.24449 3149.12
5.28916 12226.0
5.33382 2978.37
5.37848 196.529
5.42315 130.704
5.46783 114.685
5.5125 107.431
5.55716 103.165
5.60183 99.2876
5.6465 97.3721
5.69117 95.4992
5.73586 93.885
5.78053 93.0315
5.8252 92.7496
5.86988 93.639
5.91455 96.2129
5.95924 107.215
6.00392 246.51
6.0486 1090.56
6.09328 4443.2
6.13795 3421.61
6.18263 252.405
6.22733 94.4077
6.27201 83.5522
6.3167 94.5521
6.36138 78.2668
6.40606 69.3302
6.45075 67.6464
6.49545 65.7749
6.54014 64.2173
6.58483 63.2465
6.62952 62.5839
6.67421 85.2932
6.71892 118.353
6.76361 65.8688
6.8083 58.8629
6.853 57.7703
6.89769 57.1436
6.94239 56.711
6.98711 56.1792
7.03181 55.9204
7.07651 55.9693
7.12121 55.2425
7.16591 55.3642
7.21063 55.3436
7.25533 66.5852
7.30004 142.834
7.34475 80.7435
7.38945 56.1718
7.43416 54.4505
7.47889 54.6758
7.5236 54.9536
7.56831 56.0462
7.61303 56.6799
7.65774 57.1334
7.70247 56.3029
7.74719 56.5481
7.79191 57.2448
7.83663 57.193
7.88135 58.3369
7.92607 59.2482
7.97081 60.1768
8.01553 61.2942
8.06026 62.9392
8.10498 64.053
8.14971 71.9653
8.19446 71.5192
8.23919 70.0835
8.28392 72.6842
8.32865 74.7288
8.37339 78.9664
8.41812 85.6177
8.46288 110.445
8.50761 184.247
8.55235 430.471
8.59709 1221.3
8.64183 2212.37
8.68658 938.532
8.73134 163.852
8.77609 99.9719
8.82083 93.3166
8.86558 90.48
8.91033 89.9372
8.9551 90.5619
8.99985 85.9046
9.04461 84.0593
9.08936 83.8892
9.13412 82.4103
9.17888 82.8661
9.22365 83.1424
9.26841 82.697
9.31318 83.2432
9.35794 83.5128
9.4027 84.0956
9.44749 85.1266
9.49226 85.1083
9.53703 86.013
9.5818 88.3536
9.62657 91.9369
9.67134 96.7425
9.71614 93.8824
9.76091 94.7502
9.80569 97.539
9.85047 101.112
9.89525 119.587
9.94005 133.535
9.98484 197.86
10.0296 375.913
10.0744 851.133
10.1192 1716.9
10.164 1543.5
10.2088 382.563
10.2536 125.872
10.2984 112.627
10.3432 112.931
10.388 105.698
10.4328 124.327
10.4776 169.497
10.5224 293.732
10.5672 518.11
10.612 500.068
10.6568 192.407
10.7017 95.487
10.7465 86.5465
10.7913 83.8945
10.8361 81.6959
10.8809 79.4525
10.9257 78.2531
10.9706 78.4793
11.0154 75.1519
11.0602 72.8503
11.105 72.3551
11.1499 74.9701
11.1947 79.5396
11.2395 72.9355
11.2844 69.8904
11.3292 67.4308
11.374 66.4579
11.4189 65.9076
11.4637 65.3394
11.5086 65.5646
11.5534 67.1736
11.5983 65.1185
11.6431 63.9887
11.688 63.2583
11.7328 63.0783
11.7777 63.1687
11.8225 62.732
11.8674 62.8662
11.9122 63.1989
11.9571 63.6627
12.002 64.3273
12.0468 69.6044
12.0917 81.4438
12.1366 105.801
12.1814 155.265
12.2263 202.023
12.2712 161.034
12.3161 92.0256
12.3609 69.3544
12.4058 64.8782
12.4507 64.8387
12.4956 64.599
12.5405 64.6514
12.5853 65.682
12.6302 71.3499
12.6751 75.4229
12.72 69.3941
12.7649 68.1885
12.8098 68.8535
12.8547 69.9563
12.8996 71.4183
12.9445 72.7875
12.9894 74.8395
13.0343 76.7524
13.0792 80.1659
13.1242 92.0069
13.1691 116.896
13.214 156.423
13.2589 247.86
13.3038 373.556
13.3487 425.89
13.3937 256.23
13.4386 122.322
13.4835 108.979
13.5285 125.051
13.5734 166.028
13.6183 254.178
13.6633 349.413
13.7082 338.493
13.7531 180.595
13.7981 96.4132
13.843 82.2897
13.888 79.8758
13.9329 77.5285
13.9779 76.269
14.0228 74.8859
14.0678 73.5018
14.1127 72.9067
14.1577 72.814
14.2027 71.6111
14.2476 70.8284
14.2926 71.1433
14.3376 71.4062
14.3825 70.6494
14.4275 69.4078
14.4725 69.0801
14.5175 69.3315
14.5624 69.5603
14.6074 71.1502
14.6524 71.6684
14.6974 71.0408
14.7424 73.5663
14.7874 81.2199
14.8324 92.2706
14.8774 114.859
14.9224 157.356
14.9674 209.632
15.0124 217.851
15.0574 144.519
15.1024 88.4361
15.1474 72.4568
15.1924 70.8395
15.2374 71.0261
15.2824 70.0036
15.3274 68.2084
15.3725 67.372
15.4175 66.9291
15.4625 66.4878
15.5076 66.6706
15.5526 66.6507
15.5976 66.553
15.6426 67.9979
15.6877 74.2637
15.7327 82.3435
15.7778 97.9519
15.8228 130.361
15.8679 172.911
15.9129 194.901
15.958 153.551
16.003 94.4344
16.0481 67.2699
16.0931 64.339
16.1382 62.5821
16.1833 60.7216
16.2283 59.4458
16.2734 58.704
16.3185 58.5563
16.3636 58.8352
16.4086 57.6047
16.4537 56.6017
16.4988 55.9911
16.5439 55.8165
16.589 55.391
16.6341 55.081
16.6792 54.8997
16.7243 55.0293
16.7694 55.1669
16.8145 55.1077
16.8596 55.4338
16.9047 56.6334
16.9498 56.7922
16.9949 55.9374
17.04 56.313
17.0851 57.7155
17.1302 59.4418
17.1754 62.4378
17.2205 67.6308
17.2656 75.2394
17.3108 82.5329
17.3559 81.5815
17.401 71.1716
17.4462 61.9629
17.4913 59.5606
17.5365 59.6269
17.5815 59.7657
17.6268 60.2641
17.6718 60.7775
17.7171 61.2076
17.7622 61.6132
17.8074 62.8337
17.8525 65.4224
17.8977 69.8868
17.9428 75.371
17.9881 84.7381
18.0331 102.274
18.0784 123.497
18.1237 141.693
18.1688 132.863
18.214 103.208
18.2591 87.0024
18.3044 91.5481
18.3495 100.695
18.3948 106.315
18.4399 95.3804
18.4852 76.8603
18.5303 65.8502
18.5756 62.5618
18.6207 61.7186
18.666 60.7043
18.7112 60.0715
18.7565 59.333
18.8016 59.1322
18.8469 58.4871
18.892 58.2666
18.9374 57.422
18.9825 57.3596
19.0278 57.1226
19.073 57.5769
19.1183 57.7438
19.1635 58.3568
19.2088 60.0577
19.254 62.9704
19.2993 67.507
19.3447 73.2116
19.3898 76.1741
19.4352 72.0839
19.4804 62.9469
19.5257 56.9695
19.5709 54.62
19.6163 54.0597
19.6615 54.0718
19.7068 53.6662
19.752 53.6964
19.7974 53.988
19.8426 54.8911
19.888 55.5742
19.9332 56.8286
19.9786 59.5716
20.0238 63.1946
20.0692 67.8881
20.1144 70.3048
20.1598 68.4483
20.205 63.7647
20.2504 62.5265
20.2957 64.16
20.3411 65.8212
20.3863 64.0415
20.4318 58.3233
20.477 53.7422
20.5224 51.749
20.5677 51.1002
20.6131 50.5613
20.6586 49.9186
20.7038 49.859
20.7493 49.3404
20.7945 49.3615
20.84 49.1616
20.8853 49.0472
20.9307 48.9761
20.976 48.9973
21.0215 48.9863
21.0668 49.3931
21.1122 49.8503
21.1575 50.5597
21.203 51.2296
21.2483 51.6571
21.2938 51.8339
21.3391 50.1943
21.3846 49.1968
21.4299 48.8226
21.4754 48.7663
21.5207 48.8815
21.5662 49.2568
21.6116 49.7815
21.6571 50.3864
21.7024 51.3647
21.7479 53.2976
21.7933 56.1235
21.8388 59.5704
21.8843 63.3548
21.9297 65.1786
21.9752 63.4622
22.0206 59.7788
22.0661 56.6489
22.1115 56.2988
22.157 56.1236
22.2024 54.3268
22.248 51.5956
22.2933 50.0076
22.3389 49.361
22.3843 49.2946
22.4299 49.0511
22.4753 49.1772
22.5208 48.8834
22.5662 48.8285
22.6118 49.0409
22.6572 49.2976
22.7028 49.7637
22.7483 50.2257
22.7939 50.9924
22.8393 52.5892
22.8849 54.6863
22.9303 56.4497
22.9759 58.4396
23.0214 57.5652
23.067 54.5427
23.1126 51.3093
23.1581 49.5245
23.2037 49.2299
23.2492 49.266
23.2948 49.2562
23.3403 49.5917
23.3859 50.2495
23.4314 51.3738
23.477 53.19
23.5225 55.3464
23.5682 57.4413
23.6137 58.1402
23.6593 55.7905
23.7048 51.6586
23.7505 48.3899
23.796 46.905
23.8417 46.2511
23.8872 45.8851
23.9329 45.5575
23.9784 45.1036
24.0241 44.8518
24.0697 44.8528
24.1154 44.4533
24.1609 44.339
24.2066 44.0563
24.2522 43.8863
24.2979 43.7541
24.3434 43.7141
24.3892 43.5029
24.4349 43.3926
24.4805 43.2858
24.5262 43.3187
24.5718 43.3048
24.6175 43.3226
24.6631 43.1687
24.7089 42.9161
24.7545 42.6065
24.8002 42.5578
24.8458 42.6275
24.8916 42.2595
24.9372 42.5397
24.983 42.9077
25.0286 43.1064
25.0744 43.621
25.12 44.1946
25.1658 44.6422
25.2114 44.9993
25.2572 45.0353
25.3029 45.1339
25.3487 45.2145
25.3943 44.8784
25.4402 43.6466
25.4858 42.5488
25.5316 41.652
25.5773 41.1655
25.6231 41.1146
25.669 40.7194
25.7147 40.854
25.7605 40.6584
25.8062 40.8337
25.8521 40.8333
25.8977 40.8568
25.9436 41.1448
25.9893 41.2933
26.0352 41.7077
26.0809 41.8252
26.1268 42.0538
26.1725 41.5656
26.2184 41.013
26.2641 40.5339
26.31 40.304
26.3557 40.4176
26.4017 40.4375
26.4474 40.743
26.4933 41.1323
26.5391 41.6345
26.585 42.0085
26.6308 42.3286
26.6767 42.5161
26.7225 42.1532
26.7684 41.6841
26.8142 41.098
26.8601 40.5048
26.9059 40.3948
26.9519 39.775
26.9979 39.4843
27.0437 39.1178
27.0896 39.0018
27.1354 39.0971
27.1814 38.9803
27.2272 38.7154
27.2732 38.8697
27.3191 38.5487
27.3651 38.6629
27.4109 38.7855
27.4569 38.8712
27.5027 38.7669
27.5488 38.9233
27.5946 38.6208
27.6407 38.3954
27.6865 38.3514
27.7326 38.0682
27.7784 38.1398
27.8245 38.0449
27.8703 38.2608
27.9164 38.5435
27.9623 38.7585
28.0084 39.0243
28.0543 39.2969
28.1003 39.2787
28.1462 39.0374
28.1923 38.7151
28.2384 38.1697
28.2843 37.875
28.3304 37.3969
28.3764 36.9453
28.4225 36.5883
28.4684 36.4174
28.5145 36.2425
28.5605 35.9956
28.6066 35.908
28.6526 35.9273
28.6987 35.8414
28.7447 35.6843
28.7908 35.6526
28.8368 35.6038
28.8829 35.5665
28.9289 35.5648
28.9751 35.3617
29.0211 35.0764
29.0673 34.8923
29.1133 34.7683
29.1595 34.596
29.2055 34.5048
29.2517 34.5939
29.2977 34.521
29.3439 34.5189
29.3899 34.5618
29.4361 34.3801
29.4824 34.1115
29.5284 33.9296
29.5746 33.6404
29.6207 33.3844
29.6669 33.2639
29.713 33.2499
29.7593 33.0922
29.8053 33.1044
29.8516 33.0473
29.8977 32.9099
29.9439 32.7774
29.99 32.787
30.0363 32.5996
30.0824 32.7924
30.1287 32.6161
30.1748 32.6362
30.2211 32.6493
30.2673 32.4483
30.3136 32.5165
30.3597 32.4494
30.406 32.4447
30.4522 32.3289
30.4985 32.3233
30.5447 32.3854
30.591 32.3242
30.6372 32.4814
30.6835 32.406
30.7297 32.4809
30.7761 32.3707
30.8224 32.2185
30.8686 32.0624
30.915 31.7957
30.9612 31.7216
31.0076 31.492
31.0538 31.3677
31.1002 31.3648
31.1464 31.1514
31.1928 31.1312
31.2391 31.1991
31.2855 31.0635
31.3317 31.0559
31.3781 31.1361
31.4244 31.0536
31.4708 31.1517
31.5171 31.0095
31.5636 30.9785
31.6098 30.718
31.6563 30.4981
31.7026 30.3133
31.7491 30.2629
31.7953 30.3564
31.8418 30.3448
31.8881 30.2568
31.9346 30.2508
31.9809 30.2692
32.0275 30.1483
32.074 30.0088
32.1203 29.7763
32.1668 29.6412
32.2132 29.5275
32.2597 29.4116
32.306 29.3795
32.3526 29.0709
32.399 29.0502
32.4455 28.9268
32.4919 28.9013
32.5385 28.8046
32.5848 28.6379
32.6314 28.6496
32.6778 28.6996
32.7244 28.5292
32.7708 28.3028
32.8174 28.3668
32.8638 28.1111
32.9104 28.2706
32.9569 28.2753
33.0035 28.0624
33.0499 28.0722
33.0966 27.9178
33.143 28.1291
33.1897 27.8423
33.2361 27.7327
33.2828 27.7953
33.3293 27.63
33.3759 27.4955
33.4226 27.365
33.4691 27.2155
33.5158 27.2051
33.5623 27.0892
33.609 26.9435
33.6555 26.8047
33.7022 26.7275
33.7487 26.6253
33.7954 26.5837
33.842 26.6087
33.8887 26.5175
33.9353 26.4442
33.982 26.3139
34.0286 26.2346
34.0753 26.2364
34.1219 26.0964
34.1687 26.0546
34.2152 25.9535
34.262 25.7921
34.3086 25.6488
34.3554 25.6689
34.402 25.5028
34.4488 25.3989
34.4954 25.3982
34.5422 25.2529
34.5889 25.1277
34.6357 25.1406
34.6825 25.0485
34.7292 24.9628
34.776 24.9169
34.8227 24.844
34.8695 24.7535
34.9162 24.7174
34.9631 24.6201
35.0098 24.6356
35.0566 24.464
35.1033 24.4469
35.1502 24.4032
35.1969 24.3827
35.2438 24.3428
35.2906 24.3004
35.3375 24.2329
35.3842 24.0625
35.4311 24.1622
35.4779 24.0699
35.5248 24.0232
35.5716 23.8859
35.6185 23.8805
35.6653 23.7097
35.7123 23.6723
35.759 23.603
35.806 23.5049
35.8528 23.4457
35.8998 23.3509
35.9468 23.1856
35.9936 23.1622
36.0406 23.1425
36.0874 23.1344
36.1345 23.0427
36.1813 23.007
36.2283 22.8429
36.2752 22.7389
36.3222 22.8414
36.3691 22.75
36.4161 22.5611
36.463 22.5588
36.5101 22.592
36.557 22.4008
36.6041 22.3535
36.651 22.2717
36.6981 22.2536
36.745 22.233
36.7921 22.0757
36.839 22.011
36.8861 22.0209
36.9331 21.8144
36.9802 21.7255
37.0272 21.6543
37.0743 21.596
37.1213 21.6406
37.1684 21.5051
37.2154 21.5323
37.2626 21.3597
37.3098 21.347
37.3568 21.2456
37.404 21.1946
37.451 21.1383
37.4982 21.0522
37.5452 20.9133
37.5924 20.8959
37.6395 20.9258
37.6867 20.8208
37.7337 20.7236
37.781 20.7091
37.8281 20.6391
37.8753 20.4816
37.9224 20.5268
37.9697 20.4097
38.0168 20.3489
38.064 20.2084
38.1111 20.1694
38.1584 20.1106
38.2056 20.0754
38.2529 20.0376
38.3 19.9158
38.3473 19.9085
38.3945 19.8306
38.4418 19.7447
38.489 19.7465
38.5363 19.6822
38.5837 19.5679
38.6309 19.5545
38.6782 19.4336
38.7254 19.3616
38.7728 19.3104
38.82 19.224
38.8674 19.2116
38.9146 19.1693
38.9621 19.1193
39.0093 19.0252
39.0567 18.9907
39.104 18.9294
39.1514 18.8359
39.1987 18.7876
39.2461 18.7819
39.2934 18.6854
39.3409 18.5578
39.3882 18.4564
39.4356 18.4515
39.483 18.4167
39.5304 18.3945
39.5778 18.3292
39.6253 18.2552
39.6726 18.1823
39.7201 18.1906
39.7675 18.126
39.815 17.9978
39.8624 18.022
39.9099 17.9139
39.9575 17.8599
40.0049 17.8277
40.0525 17.7407
40.0999 17.6843
40.1474 17.6599
40.1949 17.5372
40.2425 17.4793
40.2899 17.4601
40.3375 17.3731
40.385 17.3729
40.4326 17.2907
40.48 17.2031
40.5277 17.209
40.5752 17.1262
40.6228 17.065
40.6703 16.9843
40.718 16.9864
40.7655 16.9733
40.8132 16.907
40.8607 16.8434
40.9084 16.8077
40.9559 16.7182
41.0036 16.7386
41.0512 16.5747
41.0989 16.64
41.1465 16.5129
41.1942 16.464
41.242 16.3251
41.2896 16.349
41.3373 16.3112
41.3849 16.1641
41.4327 16.1665
41.4803 16.0171
41.5281 16.0273
41.5758 15.9656
41.6236 15.9223
41.6712 15.8169
41.7191 15.829
41.7667 15.7475
41.8146 15.7363
41.8622 15.6586
41.9101 15.6816
41.9578 15.5412
42.0057 15.5409
42.0534 15.4566
42.1013 15.4356
42.149 15.391
42.1969 15.3206
42.2446 15.2493
42.2925 15.2043
42.3403 15.1805
42.3882 15.2034
42.436 15.0519
42.4839 15.0102
42.5319 14.9593
42.5797 14.9001
42.6277 14.8809
42.6755 14.7823
42.7235 14.7659
42.7713 14.7266
42.8193 14.6719
42.8671 14.6049
42.9152 14.5739
42.963 14.5264
43.0111 14.4251
43.0589 14.4509
43.107 14.3596
43.1549 14.3484
43.2029 14.2693
43.2508 14.2486
43.2989 14.1199
43.3468 14.1772
43.3949 14.041
43.4429 14.0021
43.491 13.979
43.5389 13.9299
43.5871 13.8731
43.635 13.8073
43.6832 13.8112
43.7312 13.7042
43.7793 13.6928
43.8273 13.6764
43.8755 13.5866
43.9237 13.53
43.9717 13.5131
44.0199 13.4501
44.068 13.4091
44.1162 13.3695
44.1642 13.2982
44.2125 13.2801
44.2606 13.2651
44.3088 13.1882
44.3569 13.1133
44.4052 13.036
44.4533 13.0245
44.5016 12.95
44.5497 12.9394
44.598 12.9043
44.6461 12.8228
44.6945 12.7863
44.7426 12.7584
44.791 12.692
44.8391 12.66
44.8875 12.6581
44.9357 12.5776
44.984 12.578
45.0322 12.4478
45.0806 12.4623
45.1288 12.3787
45.1773 12.3653
45.2257 12.3021
45.2739 12.2635
45.3224 12.1936
45.3706 12.2033
45.4191 12.0976
45.4673 12.0908
45.5158 12.071
45.5641 12.0145
45.6126 11.9616
45.6609 11.8889
45.7094 11.8748
45.7577 11.8368
45.8063 11.7603
45.8546 11.7343
45.9031 11.6913
45.9515 11.6792
46.0001 11.6057
46.0484 11.5963
46.097 11.5638
46.1454 11.5353
46.194 11.516
46.2424 11.3966
46.291 11.3808
46.3395 11.3843
46.3881 11.2842
46.4365 11.2498
46.4852 11.187
46.5337 11.1826
46.5823 11.1493
46.631 11.0619
46.6795 11.0539
46.7282 10.996
46.7767 10.9892
46.8254 10.9399
46.8739 10.9029
46.9226 10.8479
46.9712 10.7927
47.0199 10.7848
47.0685 10.7281
47.1173 10.652
47.1658 10.653
47.2146 10.6297
47.2632 10.5765
47.312 10.5592
47.3606 10.4962
47.4095 10.4308
47.4581 10.4163
47.5069 10.3258
47.5556 10.3562
47.6044 10.2991
47.6531 10.2333
47.702 10.2128
47.7507 10.1878
47.7996 10.1615
47.8483 10.0897
47.8972 10.0498
47.9461 10.0464
47.9948 10.0265
48.0438 9.97518
48.0925 9.94748
48.1415 9.91214
48.1902 9.8384
48.2392 9.85109
48.288 9.81145
48.337 9.79199
48.3858 9.70298
48.4348 9.6564
48.4837 9.68876
48.5327 9.62681
48.5815 9.61939
48.6306 9.57638
48.6795 9.49306
48.7285 9.44227
48.7774 9.44704
48.8265 9.42068
48.8754 9.38223
48.9245 9.29559
48.9734 9.32109
49.0226 9.29715
49.0715 9.23987
49.1206 9.18452
49.1696 9.15865
49.2188 9.13306
49.2679 9.08757
49.3169 9.08422
49.3661 8.99615
49.4151 8.99791
49.4643 8.95581
49.5134 8.91855
49.5626 8.84195
49.6117 8.85835
49.6609 8.84795
49.71 8.76105
49.7592 8.756
49.8083 8.722
49.8576 8.67685
49.9067 8.63533
49.956 8.61548
50.0052 8.57561
50.0545 8.5565
50.1036 8.50718
50.153 8.46235
50.2022 8.48904
50.2515 8.4001
50.3007 8.37597
50.3501 8.34044
50.3993 8.32928
50.4487 8.29855
50.498 8.21738
50.5474 8.22509
50.5966 8.17334
50.6461 8.171
50.6955 8.12802
50.7448 8.11863
50.7943 8.08149
50.8436 8.05693
50.8931 8.02983
50.9424 7.96197
50.9919 7.9223
51.0413 7.89241
51.0908 7.85425
51.1402 7.86813
51.1897 7.82746
51.2391 7.78013
51.2887 7.73412
51.3381 7.69765
51.3877 7.72213
51.4371 7.6343
51.4867 7.60685
51.5362 7.59608
51.5858 7.57184
51.6353 7.52572
51.6849 7.47809
51.7344 7.4455
51.7841 7.44899
51.8336 7.40465
51.8833 7.38797
51.9328 7.33166
51.9826 7.32028
52.0323 7.25784
52.0818 7.26415
52.1316 7.22267
52.1812 7.18111
52.231 7.17362
52.2806 7.10988
52.3304 7.10478
52.38 7.08292
52.4298 7.05609
52.4794 6.99223
52.5293 6.98739
52.5789 6.97373
52.6288 6.94449
52.6785 6.90885
52.7284 6.88004
52.7781 6.84114
52.828 6.83219
52.8777 6.79398
52.9276 6.78397
52.9774 6.74735
53.0273 6.71643
53.0771 6.66428
53.1271 6.68083
53.1769 6.61062
53.2269 6.55762
53.2767 6.53387
53.3267 6.55831
53.3765 6.50894
53.4266 6.47616
53.4766 6.43394
53.5265 6.38804
53.5765 6.41613
53.6264 6.35534
53.6765 6.35342
53.7264 6.30367
53.7765 6.26694
53.8265 6.28712
53.8766 6.23765
53.9266 6.21288
53.9767 6.16574
54.0267 6.1163
54.0769 6.11252
54.1269 6.11765
54.1771 6.04885
54.2271 5.98072
54.2773 6.02815
54.3274 6.01114
54.3776 5.94397
54.4277 5.88989
54.478 5.87186
54.528 5.86682
54.5783 5.81266
54.6285 5.74314
54.6788 5.70863
54.7289 5.69229
54.7792 5.59718
54.8296 5.56488
54.8798 5.52828
54.9301 5.49282
54.9803 5.46767
55.0307 5.47208
55.0809 5.38682
55.1314 5.36025
55.1816 5.29493
55.232 5.24004
55.2823 5.26006
55.3328 5.15795
55.383 5.08679
55.4335 5.05474
55.4838 4.98128
55.5344 4.99044
55.5847 4.93869
55.6352 4.92471
55.6856 4.92727
55.7361 4.86793