File: XRD/Ni3Fe_FD0021.xy
TT I
1.27165 34.4775
1.31627 34.599
1.36089 33.2556
1.40551 32.0799
1.45013 29.9862
1.49476 28.5867
1.53938 28.404
1.584 27.506
1.62863 26.6103
1.67325 25.1275
1.71787 25.4814
1.7625 25.2876
1.80712 25.1564
1.85174 23.9259
1.89636 24.196
1.94099 24.597
1.98562 24.1082
2.03025 24.4353
2.07487 24.0738
2.11949 24.8487
2.16411 25.1426
2.20874 25.7359
2.25338 26.2716
2.298 26.3164
2.34263 26.0333
2.38725 25.6981
2.43188 25.5513
2.4765 25.7846
2.52115 25.215
2.56577 25.7142
2.6104 26.5789
2.65503 27.2684
2.69965 28.532
2.7443 30.4561
2.78893 32.1284
2.83356 35.123
2.87818 38.9074
2.92281 43.5171
2.96744 49.1853
3.01209 56.8931
3.05672 65.4956
3.10135 76.8631
3.14599 81.6968
3.19062 83.5897
3.23527 77.3253
3.2799 66.4573
3.32454 55.5292
3.36917 47.9845
3.4138 42.0296
3.45844 39.0866
3.50309 37.922
3.54773 37.3743
3.59237 38.7499
3.637 40.4168
3.68164 40.8727
3.7263 41.1397
3.77094 39.9901
3.81558 38.8319
3.86022 38.1355
3.90486 38.6002
3.9495 39.7742
3.99416 40.9627
4.0388 43.4413
4.08344 46.9295
4.12809 51.5128
4.17273 58.8385
4.21738 68.1218
4.26204 78.45
4.30669 84.7135
4.35133 81.9589
4.39598 74.0699
4.44063 66.504
4.4853 61.8651
4.52995 56.5796
4.5746 52.0871
4.61925 49.6129
4.6639 47.4572
4.70855 47.6334
4.75322 48.879
4.79788 50.7256
4.84253 53.3946
4.88719 57.6666
4.93184 63.1482
4.97652 71.752
5.02118 87.0715
5.06583 110.375
5.11049 133.347
5.15515 174.717
5.19981 266.368
5.24449 537.952
5.28916 1126.63
5.33382 3060.93
5.37848 3862.57
5.42315 1236.89
5.46783 380.075
5.5125 217.107
5.55716 157.446
5.60183 126.366
5.6465 112.136
5.69117 106.121
5.73586 100.148
5.78053 95.994
5.8252 95.6411
5.86988 100.314
5.91455 110.084
5.95924 128.313
6.00392 168.736
6.0486 263.518
6.09328 445.684
6.13795 788.47
6.18263 1305.3
6.22733 799.578
6.27201 323.466
6.3167 169.111
6.36138 110.56
6.40606 84.7217
6.45075 72.4132
6.49545 64.1659
6.54014 59.5087
6.58483 56.2369
6.62952 55.3552
6.67421 55.0871
6.71892 55.3436
6.76361 54.9274
6.8083 53.4208
6.853 50.9932
6.89769 48.8023
6.94239 47.3397
6.98711 45.5527
7.03181 45.1494
7.07651 45.0827
7.12121 46.2376
7.16591 48.2691
7.21063 51.0805
7.25533 55.384
7.30004 63.9863
7.34475 70.6923
7.38945 69.7442
7.43416 62.9992
7.47889 57.2505
7.5236 58.5258
7.56831 95.1093
7.61303 156.574
7.65774 81.2854
7.70247 46.69
7.74719 40.7793
7.79191 39.2584
7.83663 38.0788
7.88135 37.8355
7.92607 38.0685
7.97081 38.0307
8.01553 38.7319
8.06026 39.1768
8.10498 40.1698
8.14971 41.3678
8.19446 42.3051
8.23919 44.1009
8.28392 45.8433
8.32865 47.6415
8.37339 51.6887
8.41812 55.898
8.46288 63.2434
8.50761 75.6654
8.55235 100.164
8.59709 154.157
8.64183 211.37
8.68658 365.95
8.73134 730.204
8.77609 681.934
8.82083 296.791
8.86558 140.7
8.91033 96.2064
8.9551 77.6858
8.99985 69.4313
9.04461 64.2069
9.08936 60.6598
9.13412 58.8018
9.17888 59.5255
9.22365 66.4378
9.26841 118.73
9.31318 249.451
9.35794 162.93
9.4027 71.3124
9.44749 56.2216
9.49226 52.4988
9.53703 51.1364
9.5818 51.4195
9.62657 51.5173
9.67134 52.4834
9.71614 53.897
9.76091 54.8053
9.80569 56.6051
9.85047 59.0748
9.89525 62.6957
9.94005 68.7458
9.98484 77.669
10.0296 96.5746
10.0744 134.818
10.1192 178.831
10.164 237.048
10.2088 466.906
10.2536 815.926
10.2984 602.354
10.3432 264.573
10.388 135.427
10.4328 96.5468
10.4776 83.3026
10.5224 84.7448
10.5672 90.4815
10.612 99.1109
10.6568 147.465
10.7017 265.302
10.7465 277.093
10.7913 154.5
10.8361 77.0812
10.8809 55.3722
10.9257 48.6543
10.9706 45.8554
11.0154 44.0713
11.0602 43.1455
11.105 42.4634
11.1499 41.695
11.1947 41.6708
11.2395 41.0912
11.2844 40.8636
11.3292 40.464
11.374 39.5182
11.4189 38.8795
11.4637 38.3816
11.5086 37.5918
11.5534 37.3705
11.5983 37.313
11.6431 37.4935
11.688 36.9754
11.7328 36.8399
11.7777 36.6063
11.8225 36.7179
11.8674 37.2383
11.9122 39.2124
11.9571 44.9861
12.002 71.1011
12.0468 92.2526
12.0917 64.4365
12.1366 47.4548
12.1814 46.564
12.2263 48.9445
12.2712 54.2006
12.3161 69.4815
12.3609 93.3797
12.4058 93.5842
12.4507 67.8399
12.4956 52.1468
12.5405 44.8695
12.5853 41.9915
12.6302 40.3665
12.6751 40.2486
12.72 40.5537
12.7649 40.6443
12.8098 40.0337
12.8547 39.875
12.8996 39.7905
12.9445 39.5309
12.9894 40.0333
13.0343 40.6605
13.0792 42.2516
13.1242 45.7867
13.1691 55.7412
13.214 62.1906
13.2589 62.9309
13.3038 67.8893
13.3487 73.7104
13.3937 92.4338
13.4386 142.389
13.4835 219.151
13.5285 206.357
13.5734 131.651
13.6183 93.7105
13.6633 81.8265
13.7082 80.7828
13.7531 97.4265
13.7981 152.825
13.843 215.243
13.888 170.765
13.9329 94.9035
13.9779 62.9258
14.0228 51.6379
14.0678 46.5565
14.1127 45.2318
14.1577 47.2663
14.2027 63.9298
14.2476 86.6401
14.2926 72.0292
14.3376 48.0039
14.3825 40.9801
14.4275 38.792
14.4725 38.21
14.5175 37.8516
14.5624 37.3261
14.6074 37.3505
14.6524 37.2882
14.6974 37.6785
14.7424 38.1144
14.7874 38.7421
14.8324 39.9659
14.8774 42.4275
14.9224 46.4661
14.9674 48.999
15.0124 51.2774
15.0574 59.1079
15.1024 79.1087
15.1474 116.375
15.1924 129.955
15.2374 95.9031
15.2824 64.6913
15.3274 49.6703
15.3725 43.7989
15.4175 41.0393
15.4625 39.7727
15.5076 38.6364
15.5526 38.2897
15.5976 37.9415
15.6426 37.9814
15.6877 38.0535
15.7327 38.7754
15.7778 40.7418
15.8228 44.0444
15.8679 46.882
15.9129 48.0851
15.958 53.1073
16.003 65.3746
16.0481 94.1336
16.0931 126.381
16.1382 121.554
16.1833 89.1952
16.2283 60.2007
16.2734 45.6821
16.3185 39.6886
16.3636 37.004
16.4086 35.2965
16.4537 34.2854
16.4988 33.5837
16.5439 33.0147
16.589 32.5379
16.6341 32.0738
16.6792 31.5924
16.7243 31.5398
16.7694 31.4259
16.8145 31.3108
16.8596 31.5922
16.9047 31.9689
16.9498 32.64
16.9949 35.5819
17.04 39.3454
17.0851 38.4985
17.1302 34.5131
17.1754 33.034
17.2205 33.2232
17.2656 33.7393
17.3108 34.3158
17.3559 34.3361
17.401 36.1411
17.4462 39.3326
17.4913 46.4076
17.5365 52.099
17.5815 48.747
17.6268 40.9771
17.6718 36.6658
17.7171 34.958
17.7622 34.7154
17.8074 36.0199
17.8525 39.5666
17.8977 42.103
17.9428 40.1546
17.9881 38.8268
18.0331 40.4073
18.0784 41.7162
18.1237 42.6415
18.1688 44.8335
18.214 50.3407
18.2591 63.4316
18.3044 88.0132
18.3495 104.593
18.3948 90.3505
18.4399 66.8838
18.4852 56.4563
18.5303 59.0844
18.5756 69.8228
18.6207 76.3081
18.666 66.7006
18.7112 53.0771
18.7565 42.9612
18.8016 38.2239
18.8469 36.1095
18.892 34.9466
18.9374 34.2901
18.9825 33.5566
19.0278 33.3884
19.073 33.0596
19.1183 32.8506
19.1635 32.9625
19.2088 33.3047
19.254 33.7013
19.2993 34.7338
19.3447 35.8705
19.3898 39.0963
19.4352 45.125
19.4804 47.5741
19.5257 45.7126
19.5709 46.4688
19.6163 49.7854
19.6615 47.4741
19.7068 40.476
19.752 35.8483
19.7974 33.7395
19.8426 32.5579
19.888 31.8048
19.9332 31.7209
19.9786 31.7253
20.0238 32.0372
20.0692 32.1262
20.1144 32.3139
20.1598 33.0815
20.205 34.142
20.2504 36.981
20.2957 42.1399
20.3411 46.7654
20.3863 46.8094
20.4318 41.6944
20.477 38.9269
20.5224 40.4649
20.5677 44.3116
20.6131 44.7237
20.6586 39.6749
20.7038 34.465
20.7493 31.9604
20.7945 31.1617
20.84 31.6138
20.8853 32.9688
20.9307 33.602
20.976 31.889
21.0215 29.7222
21.0668 28.8645
21.1122 28.7425
21.1575 28.5846
21.203 28.4785
21.2483 28.4903
21.2938 28.5549
21.3391 28.4399
21.3846 29.0202
21.4299 29.7421
21.4754 31.1913
21.5207 32.4763
21.5662 32.2523
21.6116 31.138
21.6571 29.8359
21.7024 29.2191
21.7479 29.3445
21.7933 29.7779
21.8388 30.4046
21.8843 30.7967
21.9297 30.8271
21.9752 31.7876
22.0206 33.3916
22.0661 35.8221
22.1115 40.2743
22.157 46.3854
22.2024 49.4644
22.248 47.0219
22.2933 43.1576
22.3389 40.6614
22.3843 40.0159
22.4299 38.8504
22.4753 35.9443
22.5208 33.0798
22.5662 31.1397
22.6118 30.4729
22.6572 29.8178
22.7028 29.6814
22.7483 29.6049
22.7939 29.6173
22.8393 30.178
22.8849 31.2022
22.9303 31.9668
22.9759 31.8265
23.0214 31.2033
23.067 31.3145
23.1126 32.2327
23.1581 34.3976
23.2037 38.5148
23.2492 42.651
23.2948 42.2165
23.3403 37.9126
23.3859 34.2149
23.4314 32.5034
23.477 32.3978
23.5225 33.4263
23.5682 34.1276
23.6137 34.0807
23.6593 32.7582
23.7048 32.6176
23.7505 33.8301
23.796 36.8915
23.8417 41.6127
23.8872 44.7573
23.9329 42.5751
23.9784 36.8313
24.0241 32.446
24.0697 30.3418
24.1154 29.2251
24.1609 28.7837
24.2066 28.4988
24.2522 28.0239
24.2979 27.3856
24.3434 26.9635
24.3892 26.6718
24.4349 26.5088
24.4805 26.34
24.5262 26.462
24.5718 26.0761
24.6175 26.225
24.6631 26.167
24.7089 26.4976
24.7545 27.2258
24.8002 27.8438
24.8458 27.7577
24.8916 27.0967
24.9372 26.5104
24.983 26.4095
25.0286 26.0963
25.0744 25.9639
25.12 26.0486
25.1658 25.9904
25.2114 26.0698
25.2572 26.2992
25.3029 26.9492
25.3487 27.5566
25.3943 28.5834
25.4402 29.5273
25.4858 30.2841
25.5316 30.2861
25.5773 30.2326
25.6231 31.4588
25.669 32.3826
25.7147 31.1527
25.7605 29.0559
25.8062 27.4173
25.8521 26.6167
25.8977 26.4279
25.9436 26.7526
25.9893 26.534
26.0352 26.2786
26.0809 25.7842
26.1268 25.392
26.1725 25.3339
26.2184 25.4761
26.2641 25.789
26.31 26.3503
26.3557 27.3474
26.4017 28.4
26.4474 28.8719
26.4933 28.0199
26.5391 27.0017
26.585 26.2978
26.6308 25.9574
26.6767 25.6594
26.7225 25.8625
26.7684 26.0066
26.8142 26.4512
26.8601 27.1372
26.9059 28.505
26.9519 30.0766
26.9979 31.0088
27.0437 30.7189
27.0896 29.9483
27.1354 29.3665
27.1814 28.1844
27.2272 27.0022
27.2732 26.0393
27.3191 25.2686
27.3651 25.015
27.4109 24.5941
27.4569 24.4423
27.5027 24.4332
27.5488 24.4481
27.5946 24.5143
27.6407 24.574
27.6865 24.646
27.7326 24.6193
27.7784 24.8853
27.8245 25.24
27.8703 25.7205
27.9164 25.7095
27.9623 25.2151
28.0084 24.9914
28.0543 24.8615
28.1003 25.0332
28.1462 25.5443
28.1923 25.8125
28.2384 25.9329
28.2843 26.1207
28.3304 26.7683
28.3764 28.1168
28.4225 28.7753
28.4684 28.2919
28.5145 27.3175
28.5605 27.0012
28.6066 26.5087
28.6526 25.8695
28.6987 25.0875
28.7447 24.3503
28.7908 23.7554
28.8368 23.2198
28.8829 22.922
28.9289 22.8163
28.9751 22.7852
29.0211 22.6204
29.0673 22.5051
29.1133 22.6468
29.1595 22.8244
29.2055 23.0836
29.2517 23.3639
29.2977 23.2693
29.3439 22.844
29.3899 22.4885
29.4361 22.0804
29.4824 21.9722
29.5284 21.9813
29.5746 21.8735
29.6207 21.922
29.6669 22.0852
29.713 22.5333
29.7593 22.763
29.8053 22.712
29.8516 22.3541
29.8977 21.8925
29.9439 21.4695
29.99 21.327
30.0363 21.1733
30.0824 21.0884
30.1287 21.0952
30.1748 21.3391
30.2211 21.3989
30.2673 21.399
30.3136 21.2679
30.3597 21.0592
30.406 21.0173
30.4522 20.9681
30.4985 21.0334
30.5447 21.3607
30.591 21.4861
30.6372 21.4655
30.6835 21.29
30.7297 21.0218
30.7761 20.9624
30.8224 21.0296
30.8686 21.0285
30.915 21.1361
30.9612 21.5597
31.0076 22.0024
31.0538 22.5361
31.1002 22.8488
31.1464 22.797
31.1928 22.6025
31.2391 22.2383
31.2855 21.775
31.3317 21.2967
31.3781 21.0293
31.4244 20.7609
31.4708 20.4877
31.5171 20.4902
31.5636 20.5378
31.6098 20.4079
31.6563 20.4942
31.7026 20.7292
31.7491 20.7925
31.7953 21.1877
31.8418 21.396
31.8881 21.5438
31.9346 21.3645
31.9809 20.8536
32.0275 20.4636
32.074 20.2806
32.1203 20.2954
32.1668 20.3297
32.2132 20.5039
32.2597 20.5061
32.306 20.8908
32.3526 20.9329
32.399 20.9091
32.4455 20.5346
32.4919 20.3154
32.5385 20.1242
32.5848 19.7427
32.6314 19.5155
32.6778 19.3771
32.7244 19.1025
32.7708 19.0179
32.8174 18.8244
32.8638 18.8103
32.9104 18.805
32.9569 18.7895
33.0035 18.6502
33.0499 18.8246
33.0966 18.8513
33.143 18.7733
33.1897 18.6336
33.2361 18.506
33.2828 18.4488
33.3293 18.404
33.3759 18.4117
33.4226 18.4691
33.4691 18.5533
33.5158 18.7712
33.5623 18.9291
33.609 19.0794
33.6555 19.0315
33.7022 19.0149
33.7487 18.8595
33.7954 18.6113
33.842 18.3047
33.8887 17.9727
33.9353 17.8614
33.982 17.758
34.0286 17.7817
34.0753 17.677
34.1219 17.5974
34.1687 17.5768
34.2152 17.6346
34.262 17.6267
34.3086 17.577
34.3554 17.6549
34.402 17.4215
34.4488 17.2974
34.4954 17.21
34.5422 17.1071
34.5889 16.9941
34.6357 17.0554
34.6825 17.0756
34.7292 17.0445
34.776 17.0375
34.8227 16.9107
34.8695 16.8633
34.9162 16.7551
34.9631 16.5947
35.0098 16.5328
35.0566 16.4293
35.1033 16.3738
35.1502 16.3106
35.1969 16.3019
35.2438 16.2382
35.2906 16.3876
35.3375 16.2642
35.3842 16.2437
35.4311 16.2939
35.4779 16.2924
35.5248 16.2907
35.5716 16.2259
35.6185 16.1955
35.6653 16.2345
35.7123 16.3673
35.759 16.4756
35.806 16.6207
35.8528 16.6601
35.8998 16.77
35.9468 16.7037
35.9936 16.619
36.0406 16.3358
36.0874 16.2287
36.1345 16.0661
36.1813 15.9012
36.2283 15.7349
36.2752 15.6696
36.3222 15.6932
36.3691 15.6005
36.4161 15.5366
36.463 15.5294
36.5101 15.5993
36.557 15.6909
36.6041 15.5523
36.651 15.5952
36.6981 15.5045
36.745 15.3517
36.7921 15.2777
36.839 15.1571
36.8861 15.1917
36.9331 15.2404
36.9802 15.2985
37.0272 15.2981
37.0743 15.1718
37.1213 15.2038
37.1684 15.0685
37.2154 14.9018
37.2626 14.8115
37.3098 14.7314
37.3568 14.6902
37.404 14.6297
37.451 14.5737
37.4982 14.5708
37.5452 14.4702
37.5924 14.3968
37.6395 14.4376
37.6867 14.3006
37.7337 14.2797
37.781 14.2178
37.8281 14.13
37.8753 14.1115
37.9224 14.0792
37.9697 14.0426
38.0168 13.9929
38.064 14.0328
38.1111 14.0479
38.1584 14.0501
38.2056 13.9529
38.2529 13.9043
38.3 13.812
38.3473 13.6988
38.3945 13.6536
38.4418 13.5852
38.489 13.5043
38.5363 13.4946
38.5837 13.502
38.6309 13.4586
38.6782 13.4602
38.7254 13.4196
38.7728 13.4289
38.82 13.3659
38.8674 13.3705
38.9146 13.269
38.9621 13.2097
39.0093 13.192
39.0567 13.2238
39.104 13.1729
39.1514 13.1746
39.1987 13.1741
39.2461 13.108
39.2934 13.0077
39.3409 12.9081
39.3882 12.7893
39.4356 12.8187
39.483 12.7293
39.5304 12.7377
39.5778 12.6562
39.6253 12.5737
39.6726 12.5655
39.7201 12.5515
39.7675 12.574
39.815 12.4751
39.8624 12.4462
39.9099 12.4223
39.9575 12.3902
40.0049 12.3499
40.0525 12.2761
40.0999 12.2796
40.1474 12.2746
40.1949 12.2389
40.2425 12.2222
40.2899 12.2484
40.3375 12.2513
40.385 12.1796
40.4326 12.1466
40.48 12.0326
40.5277 12.0306
40.5752 12.0065
40.6228 11.9107
40.6703 11.9848
40.718 11.8853
40.7655 11.8911
40.8132 11.8044
40.8607 11.8318
40.9084 11.7603
40.9559 11.7454
41.0036 11.6898
41.0512 11.6269
41.0989 11.6578
41.1465 11.6624
41.1942 11.6205
41.242 11.5591
41.2896 11.5444
41.3373 11.5096
41.3849 11.4758
41.4327 11.382
41.4803 11.2859
41.5281 11.2613
41.5758 11.2141
41.6236 11.1656
41.6712 11.1156
41.7191 11.1432
41.7667 11.0739
41.8146 11.0969
41.8622 11.0237
41.9101 11.0725
41.9578 10.9855
42.0057 10.924
42.0534 10.8446
42.1013 10.8829
42.149 10.908
42.1969 10.9019
42.2446 10.8567
42.2925 10.8449
42.3403 10.7288
42.3882 10.7438
42.436 10.6756
42.4839 10.5649
42.5319 10.5589
42.5797 10.5276
42.6277 10.4746
42.6755 10.4745
42.7235 10.3956
42.7713 10.3293
42.8193 10.3885
42.8671 10.3066
42.9152 10.2756
42.963 10.2443
43.0111 10.1762
43.0589 10.1321
43.107 10.1172
43.1549 10.0734
43.2029 10.0222
43.2508 9.97581
43.2989 9.97731
43.3468 9.89612
43.3949 9.88803
43.4429 9.85424
43.491 9.81508
43.5389 9.78242
43.5871 9.80171
43.635 9.71458
43.6832 9.69562
43.7312 9.63449
43.7793 9.61698
43.8273 9.61946
43.8755 9.56291
43.9237 9.54974
43.9717 9.56048
44.0199 9.49841
44.068 9.50498
44.1162 9.44393
44.1642 9.47635
44.2125 9.4323
44.2606 9.33634
44.3088 9.31357
44.3569 9.29837
44.4052 9.29207
44.4533 9.26044
44.5016 9.23561
44.5497 9.16543
44.598 9.14642
44.6461 9.12227
44.6945 9.09575
44.7426 9.05296
44.791 9.08127
44.8391 8.99798
44.8875 8.97803
44.9357 8.92085
44.984 8.96513
45.0322 8.85063
45.0806 8.87907
45.1288 8.88322
45.1773 8.79524
45.2257 8.78318
45.2739 8.71374
45.3224 8.68616
45.3706 8.67857
45.4191 8.60128
45.4673 8.61744
45.5158 8.56537
45.5641 8.55026
45.6126 8.50647
45.6609 8.52288
45.7094 8.45595
45.7577 8.42452
45.8063 8.43266
45.8546 8.39148
45.9031 8.3471
45.9515 8.31268
46.0001 8.27331
46.0484 8.26385
46.097 8.30267
46.1454 8.24157
46.194 8.21801
46.2424 8.13156
46.291 8.18034
46.3395 8.10677
46.3881 8.05436
46.4365 8.07638
46.4852 8.01444
46.5337 8.00359
46.5823 7.9843
46.631 7.95492
46.6795 7.94479
46.7282 7.92179
46.7767 7.86564
46.8254 7.80197
46.8739 7.77809
46.9226 7.76399
46.9712 7.78791
47.0199 7.75016
47.0685 7.68318
47.1173 7.63439
47.1658 7.59942
47.2146 7.60666
47.2632 7.59454
47.312 7.52015
47.3606 7.49916
47.4095 7.46825
47.4581 7.4639
47.5069 7.42831
47.5556 7.41242
47.6044 7.36995
47.6531 7.35283
47.702 7.33861
47.7507 7.28077
47.7996 7.30181
47.8483 7.30998
47.8972 7.27448
47.9461 7.19288
47.9948 7.17467
48.0438 7.18658
48.0925 7.1756
48.1415 7.11163
48.1902 7.07853
48.2392 7.09305
48.288 7.04171
48.337 7.0022
48.3858 6.93703
48.4348 6.94798
48.4837 6.9397
48.5327 6.9164
48.5815 6.88039
48.6306 6.85851
48.6795 6.83082
48.7285 6.81326
48.7774 6.79039
48.8265 6.75943
48.8754 6.73443
48.9245 6.71163
48.9734 6.70507
49.0226 6.68997
49.0715 6.65015
49.1206 6.61072
49.1696 6.57423
49.2188 6.54782
49.2679 6.56203
49.3169 6.50392
49.3661 6.48947
49.4151 6.48178
49.4643 6.45499
49.5134 6.43337
49.5626 6.41048
49.6117 6.40735
49.6609 6.37647
49.71 6.33695
49.7592 6.31714
49.8083 6.32212
49.8576 6.29278
49.9067 6.24579
49.956 6.22963
50.0052 6.17138
50.0545 6.20963
50.1036 6.17119
50.153 6.17223
50.2022 6.12706
50.2515 6.08128
50.3007 6.07961
50.3501 6.04669
50.3993 6.02383
50.4487 6.02363
50.498 6.01844
50.5474 5.96338
50.5966 5.94614
50.6461 5.91946
50.6955 5.89135
50.7448 5.91049
50.7943 5.83903
50.8436 5.85628
50.8931 5.84822
50.9424 5.83068
50.9919 5.80002
51.0413 5.74087
51.0908 5.72855
51.1402 5.71093
51.1897 5.68251
51.2391 5.682
51.2887 5.64533
51.3381 5.59254
51.3877 5.60451
51.4371 5.55033
51.4867 5.55499
51.5362 5.52339
51.5858 5.53092
51.6353 5.45041
51.6849 5.46434
51.7344 5.47767
51.7841 5.4464
51.8336 5.41938
51.8833 5.41727
51.9328 5.3451
51.9826 5.33186
52.0323 5.31314
52.0818 5.3037
52.1316 5.25367
52.1812 5.26111
52.231 5.26786
52.2806 5.20851
52.3304 5.22187
52.38 5.17143
52.4298 5.16044
52.4794 5.12607
52.5293 5.12281
52.5789 5.08132
52.6288 5.05665
52.6785 5.06959
52.7284 5.04422
52.7781 5.04116
52.828 4.99355
52.8777 4.96811
52.9276 4.98617
52.9774 4.92724
53.0273 4.94104
53.0771 4.8876
53.1271 4.9027
53.1769 4.88775
53.2269 4.8378
53.2767 4.83184
53.3267 4.84702
53.3765 4.77586
53.4266 4.76754
53.4766 4.74746
53.5265 4.71322
53.5765 4.6997
53.6264 4.67478
53.6765 4.6284
53.7264 4.6311
53.7765 4.61677
53.8265 4.56952
53.8766 4.59687
53.9266 4.57621
53.9767 4.53366
54.0267 4.51804
54.0769 4.48522
54.1269 4.44095
54.1771 4.4295
54.2271 4.44696
54.2773 4.34819
54.3274 4.33932
54.3776 4.32992
54.4277 4.28831
54.478 4.23066
54.528 4.21671
54.5783 4.18931
54.6285 4.14943
54.6788 4.1443
54.7289 4.15118
54.7792 4.09017
54.8296 4.02893
54.8798 4.03237
54.9301 3.98539
54.9803 3.97724
55.0307 3.91645
55.0809 3.86251
55.1314 3.83845
55.1816 3.78756
55.232 3.77682
55.2823 3.77644
55.3328 3.68105
55.383 3.67994
55.4335 3.64453
55.4838 3.60823
55.5344 3.59782
55.5847 3.56343
55.6352 3.56516
55.6856 3.49681
55.7361 3.52588