File: XRD/Ni3Fe_FD0065.xy
TT I
1.27165 31.407
1.31627 29.0289
1.36089 28.2254
1.40551 25.421
1.45013 25.1286
1.49476 24.3362
1.53938 23.4064
1.584 22.6647
1.62863 21.1545
1.67325 20.7613
1.71787 20.6359
1.7625 20.3684
1.80712 19.8174
1.85174 19.1698
1.89636 19.5218
1.94099 19.3054
1.98562 19.5117
2.03025 19.3114
2.07487 19.2673
2.11949 19.2977
2.16411 19.2102
2.20874 19.6172
2.25338 19.1723
2.298 19.3244
2.34263 19.4147
2.38725 19.9083
2.43188 20.1416
2.4765 20.4891
2.52115 20.0771
2.56577 21.8732
2.6104 23.4079
2.65503 24.0993
2.69965 24.7758
2.7443 25.845
2.78893 27.5647
2.83356 31.6458
2.87818 35.319
2.92281 38.8939
2.96744 45.28
3.01209 53.0359
3.05672 62.0043
3.10135 69.5923
3.14599 72.3156
3.19062 68.5149
3.23527 59.9481
3.2799 49.986
3.32454 41.6465
3.36917 35.4776
3.4138 32.2861
3.45844 29.1734
3.50309 27.8195
3.54773 26.4697
3.59237 26.2511
3.637 24.9596
3.68164 24.9262
3.7263 25.5264
3.77094 25.4261
3.81558 25.3867
3.86022 25.7397
3.90486 26.5424
3.9495 26.6434
3.99416 27.2866
4.0388 28.5822
4.08344 28.6349
4.12809 29.5809
4.17273 30.8596
4.21738 32.5624
4.26204 34.0769
4.30669 37.3725
4.35133 40.4112
4.39598 39.4507
4.44063 38.5571
4.4853 38.1965
4.52995 39.301
4.5746 41.0708
4.61925 42.2338
4.6639 44.5067
4.70855 46.7878
4.75322 49.3874
4.79788 52.6628
4.84253 57.0506
4.88719 62.8132
4.93184 71.1126
4.97652 85.4906
5.02118 105.912
5.06583 123.435
5.11049 146.497
5.15515 199.321
5.19981 359.817
5.24449 881.055
5.28916 1971.97
5.33382 4329.65
5.37848 2601.63
5.42315 628.176
5.46783 268.76
5.5125 182.164
5.55716 146.741
5.60183 124.795
5.6465 115.829
5.69117 110.616
5.73586 104.315
5.78053 102.557
5.8252 103.854
5.86988 111.114
5.91455 124.165
5.95924 151.059
6.00392 221.178
6.0486 391.373
6.09328 655.363
6.13795 1162.52
6.18263 985.725
6.22733 402.305
6.27201 188.99
6.3167 118.72
6.36138 87.6753
6.40606 71.7958
6.45075 63.9503
6.49545 57.8412
6.54014 53.6459
6.58483 50.9069
6.62952 48.8502
6.67421 46.5168
6.71892 45.2501
6.76361 44.3191
6.8083 43.1948
6.853 42.5401
6.89769 42.4813
6.94239 42.2034
6.98711 42.2718
7.03181 43.3141
7.07651 45.0685
7.12121 45.3451
7.16591 42.9926
7.21063 41.3465
7.25533 40.5002
7.30004 40.532
7.34475 40.4261
7.38945 40.7419
7.43416 41.3471
7.47889 45.1925
7.5236 69.7006
7.56831 188.838
7.61303 141.204
7.65774 56.3401
7.70247 44.0487
7.74719 41.2114
7.79191 40.3022
7.83663 39.9152
7.88135 40.1146
7.92607 40.798
7.97081 41.2785
8.01553 41.9222
8.06026 42.7458
8.10498 43.5216
8.14971 45.0003
8.19446 46.2701
8.23919 48.6926
8.28392 51.8586
8.32865 54.3615
8.37339 58.3074
8.41812 63.0957
8.46288 72.402
8.50761 94.4372
8.55235 151.006
8.59709 212.38
8.64183 326.835
8.68658 668.467
8.73134 650.173
8.77609 274.911
8.82083 137.932
8.86558 96.2242
8.91033 81.7569
8.9551 74.4052
8.99985 70.4824
9.04461 68.0759
9.08936 67.3456
9.13412 67.9013
9.17888 72.7522
9.22365 108.629
9.26841 297.931
9.31318 272.842
9.35794 98.3291
9.4027 69.1836
9.44749 63.3826
9.49226 61.4381
9.53703 60.1806
9.5818 60.146
9.62657 59.8805
9.67134 60.9427
9.71614 61.5293
9.76091 63.1429
9.80569 64.7905
9.85047 67.8909
9.89525 72.283
9.94005 80.0334
9.98484 97.8064
10.0296 144.463
10.0744 188.193
10.1192 237.655
10.164 442.928
10.2088 713.248
10.2536 477.482
10.2984 203.313
10.3432 122.957
10.388 93.3878
10.4328 85.1446
10.4776 90.9973
10.5224 98.2762
10.5672 106.164
10.612 154.481
10.6568 249.073
10.7017 241.197
10.7465 159.934
10.7913 83.8027
10.8361 62.5428
10.8809 56.2481
10.9257 53.136
10.9706 51.4789
11.0154 49.6106
11.0602 48.1937
11.105 47.0599
11.1499 45.9069
11.1947 45.7624
11.2395 45.4215
11.2844 44.5581
11.3292 43.5399
11.374 42.6092
11.4189 42.5945
11.4637 42.2292
11.5086 41.3902
11.5534 41.2751
11.5983 41.1737
11.6431 41.3424
11.688 41.196
11.7328 41.1931
11.7777 41.4981
11.8225 41.8163
11.8674 43.479
11.9122 48.9296
11.9571 79.561
12.002 113.76
12.0468 75.5866
12.0917 52.6697
12.1366 51.2345
12.1814 53.0106
12.2263 58.3836
12.2712 72.5591
12.3161 87.6949
12.3609 75.9594
12.4058 57.8213
12.4507 48.9191
12.4956 45.2613
12.5405 43.1433
12.5853 42.3463
12.6302 41.5581
12.6751 41.5442
12.72 41.9046
12.7649 42.1356
12.8098 42.5589
12.8547 42.9837
12.8996 43.9199
12.9445 44.5031
12.9894 45.7551
13.0343 47.2273
13.0792 51.7997
13.1242 63.3399
13.1691 69.9528
13.214 70.1562
13.2589 72.7877
13.3038 77.5844
13.3487 99.1051
13.3937 151.382
13.4386 186.179
13.4835 139.925
13.5285 96.5773
13.5734 84.8388
13.6183 79.6211
13.6633 82.6961
13.7082 106.72
13.7531 156.763
13.7981 167.029
13.843 107.729
13.888 71.7368
13.9329 59.0615
13.9779 53.8501
14.0228 51.6776
14.0678 50.9105
14.1127 53.7159
14.1577 75.1067
14.2027 102.264
14.2476 77.8992
14.2926 52.656
14.3376 47.1556
14.3825 45.3616
14.4275 44.3042
14.4725 43.881
14.5175 43.6296
14.5624 43.3243
14.6074 43.4754
14.6524 43.4184
14.6974 43.6128
14.7424 44.31
14.7874 45.433
14.8324 48.8377
14.8774 52.4383
14.9224 53.5485
14.9674 56.2577
15.0124 65.3803
15.0574 87.537
15.1024 106.253
15.1474 90.5137
15.1924 67.7378
15.2374 54.0274
15.2824 47.7694
15.3274 44.9927
15.3725 43.5321
15.4175 43.0832
15.4625 42.724
15.5076 42.2815
15.5526 42.4239
15.5976 42.3562
15.6426 42.5053
15.6877 43.519
15.7327 45.9666
15.7778 48.7287
15.8228 49.8442
15.8679 51.4466
15.9129 56.6829
15.958 71.9315
16.003 92.7855
16.0481 95.2656
16.0931 81.9844
16.1382 66.4429
16.1833 50.7424
16.2283 42.9627
16.2734 40.2806
16.3185 38.7999
16.3636 37.7814
16.4086 37.0185
16.4537 36.4304
16.4988 36.068
16.5439 35.8902
16.589 35.7037
16.6341 35.3571
16.6792 35.072
16.7243 35.2331
16.7694 35.2058
16.8145 34.9565
16.8596 35.1534
16.9047 36.062
16.9498 40.0285
16.9949 42.9665
17.04 39.9981
17.0851 36.8286
17.1302 36.2248
17.1754 36.6002
17.2205 36.9879
17.2656 37.1221
17.3108 38.063
17.3559 39.6686
17.401 43.5489
17.4462 47.3332
17.4913 45.8007
17.5365 41.2321
17.5815 38.6236
17.6268 37.7927
17.6718 37.5894
17.7171 37.9847
17.7622 40.2825
17.8074 44.1241
17.8525 44.3909
17.8977 42.0867
17.9428 42.5808
17.9881 43.7585
18.0331 44.459
18.0784 44.8449
18.1237 47.8718
18.1688 55.0254
18.214 68.6666
18.2591 77.8745
18.3044 69.3548
18.3495 56.1766
18.3948 50.8468
18.4399 52.0847
18.4852 58.1851
18.5303 60.8455
18.5756 55.6326
18.6207 50.0432
18.666 44.9067
18.7112 40.8658
18.7565 38.9945
18.8016 38.3775
18.8469 37.6544
18.892 37.4888
18.9374 37.0064
18.9825 36.7218
19.0278 36.4439
19.073 36.3811
19.1183 36.292
19.1635 36.4094
19.2088 36.9062
19.254 37.5501
19.2993 38.7811
19.3447 42.9756
19.3898 47.2718
19.4352 46.0216
19.4804 43.8334
19.5257 44.099
19.5709 41.9916
19.6163 38.5931
19.6615 36.4394
19.7068 35.2193
19.752 34.7125
19.7974 34.0847
19.8426 34.3255
19.888 34.2453
19.9332 34.4337
19.9786 34.5766
20.0238 34.4863
20.0692 34.7939
20.1144 35.3358
20.1598 37.1078
20.205 39.3206
20.2504 41.5726
20.2957 40.5803
20.3411 37.7242
20.3863 37.0763
20.4318 38.2001
20.477 39.6209
20.5224 38.6049
20.5677 36.1247
20.6131 34.012
20.6586 32.9358
20.7038 32.7095
20.7493 32.4767
20.7945 33.9142
20.84 35.151
20.8853 34.1821
20.9307 32.2721
20.976 31.4769
21.0215 31.0183
21.0668 31.0671
21.1122 30.9547
21.1575 30.9632
21.203 30.8644
21.2483 30.8556
21.2938 31.2158
21.3391 31.3964
21.3846 32.1143
21.4299 32.2807
21.4754 32.0441
21.5207 31.8206
21.5662 31.6641
21.6116 31.1812
21.6571 31.0617
21.7024 31.313
21.7479 31.6676
21.7933 31.7751
21.8388 31.9973
21.8843 32.4305
21.9297 33.0936
21.9752 34.5886
22.0206 36.9264
22.0661 38.899
22.1115 38.9136
22.157 37.6524
22.2024 37.33
22.248 36.5341
22.2933 35.8436
22.3389 34.6687
22.3843 33.1935
22.4299 32.0944
22.4753 31.5927
22.5208 31.1152
22.5662 31.0544
22.6118 31.1097
22.6572 31.0544
22.7028 31.1932
22.7483 31.3198
22.7939 31.7794
22.8393 32.4531
22.8849 32.5251
22.9303 31.9266
22.9759 32.0542
23.0214 32.34
23.067 33.5431
23.1126 35.1536
23.1581 35.9668
23.2037 35.0394
23.2492 33.2986
23.2948 31.9531
23.3403 31.6883
23.3859 32.01
23.4314 32.5443
23.477 33.2745
23.5225 33.2933
23.5682 32.2512
23.6137 32.2693
23.6593 32.7887
23.7048 34.1173
23.7505 35.7914
23.796 35.6197
23.8417 33.776
23.8872 31.8196
23.9329 30.7409
23.9784 29.9752
24.0241 29.7265
24.0697 29.6649
24.1154 29.3391
24.1609 29.0187
24.2066 28.7175
24.2522 28.6558
24.2979 28.2539
24.3434 28.1291
24.3892 28.1483
24.4349 28.018
24.4805 27.7557
24.5262 27.757
24.5718 27.5636
24.6175 27.8684
24.6631 28.2507
24.7089 28.4644
24.7545 28.3823
24.8002 27.7754
24.8458 27.5093
24.8916 27.292
24.9372 27.14
24.983 27.1909
25.0286 27.0855
25.0744 27.1721
25.12 27.1202
25.1658 27.2805
25.2114 27.4177
25.2572 27.674
25.3029 28.1297
25.3487 28.2449
25.3943 28.1915
25.4402 28.0386
25.4858 28.318
25.5316 28.5782
25.5773 28.3096
25.6231 27.7791
25.669 26.8335
25.7147 26.6925
25.7605 26.4473
25.8062 26.6087
25.8521 26.7756
25.8977 26.6427
25.9436 26.5179
25.9893 26.1398
26.0352 26.035
26.0809 26.0064
26.1268 26.0389
26.1725 26.1666
26.2184 26.3551
26.2641 26.6643
26.31 26.6933
26.3557 26.5621
26.4017 26.1854
26.4474 26.2317
26.4933 25.8436
26.5391 25.9153
26.585 25.9435
26.6308 25.8545
26.6767 25.9761
26.7225 26.1076
26.7684 26.4919
26.8142 26.9224
26.8601 27.1543
26.9059 26.9137
26.9519 26.9227
26.9979 27.0344
27.0437 26.7031
27.0896 26.1379
27.1354 25.7278
27.1814 25.5416
27.2272 25.2138
27.2732 25.188
27.3191 24.9432
27.3651 24.9913
27.4109 24.9221
27.4569 24.9905
27.5027 24.9051
27.5488 24.8985
27.5946 25.0135
27.6407 24.7982
27.6865 24.9806
27.7326 24.8306
27.7784 25.0181
27.8245 24.7237
27.8703 24.5727
27.9164 24.5884
27.9623 24.5217
28.0084 24.71
28.0543 24.9765
28.1003 24.9441
28.1462 24.8078
28.1923 24.9731
28.2384 25.1635
28.2843 25.1522
28.3304 24.8932
28.3764 24.6834
28.4225 24.5567
28.4684 24.4184
28.5145 24.0113
28.5605 23.8441
28.6066 23.7313
28.6526 23.6215
28.6987 23.4322
28.7447 23.3388
28.7908 23.1494
28.8368 23.0359
28.8829 23.0465
28.9289 22.9545
28.9751 22.8667
29.0211 22.8226
29.0673 22.7998
29.1133 22.9092
29.1595 22.7844
29.2055 22.6789
29.2517 22.3942
29.2977 22.323
29.3439 22.2422
29.3899 22.1458
29.4361 22.1052
29.4824 22.0766
29.5284 22.1125
29.5746 22.0933
29.6207 21.9419
29.6669 21.8734
29.713 21.81
29.7593 21.6221
29.8053 21.567
29.8516 21.4542
29.8977 21.5225
29.9439 21.3671
29.99 21.3533
30.0363 21.3028
30.0824 21.4246
30.1287 21.3242
30.1748 21.3655
30.2211 21.1458
30.2673 21.0296
30.3136 21.0948
30.3597 21.0767
30.406 21.1153
30.4522 20.9672
30.4985 20.9526
30.5447 21.004
30.591 20.9571
30.6372 20.9065
30.6835 20.8594
30.7297 20.7902
30.7761 20.8433
30.8224 20.8478
30.8686 20.9187
30.915 20.9677
30.9612 20.9585
31.0076 20.8822
31.0538 20.7464
31.1002 20.8089
31.1464 20.6249
31.1928 20.5009
31.2391 20.4292
31.2855 20.3083
31.3317 20.1643
31.3781 20.2933
31.4244 20.1358
31.4708 20.1347
31.5171 20.1595
31.5636 20.1862
31.6098 20.1235
31.6563 20.1163
31.7026 20.1804
31.7491 20.0872
31.7953 20.0018
31.8418 19.9328
31.8881 19.813
31.9346 19.7157
31.9809 19.7404
32.0275 19.7048
32.074 19.6907
32.1203 19.6188
32.1668 19.6596
32.2132 19.6216
32.2597 19.4812
32.306 19.5092
32.3526 19.3327
32.399 19.3172
32.4455 19.2289
32.4919 19.0914
32.5385 19.0718
32.5848 19.0063
32.6314 18.9632
32.6778 18.855
32.7244 18.7762
32.7708 18.658
32.8174 18.6204
32.8638 18.6087
32.9104 18.6462
32.9569 18.6737
33.0035 18.5243
33.0499 18.5267
33.0966 18.4107
33.143 18.2788
33.1897 18.3005
33.2361 18.2089
33.2828 18.292
33.3293 18.0694
33.3759 18.1536
33.4226 18.0974
33.4691 18.1031
33.5158 18.0748
33.5623 17.9713
33.609 17.9434
33.6555 17.7488
33.7022 17.6769
33.7487 17.6267
33.7954 17.6386
33.842 17.5682
33.8887 17.5169
33.9353 17.4231
33.982 17.3362
34.0286 17.3578
34.0753 17.3331
34.1219 17.2493
34.1687 17.1697
34.2152 17.1719
34.262 17.0807
34.3086 16.9926
34.3554 17.0345
34.402 16.8289
34.4488 16.8648
34.4954 16.9281
34.5422 16.7711
34.5889 16.7906
34.6357 16.6073
34.6825 16.5753
34.7292 16.5196
34.776 16.4631
34.8227 16.4817
34.8695 16.4367
34.9162 16.4067
34.9631 16.3209
35.0098 16.3186
35.0566 16.227
35.1033 16.1658
35.1502 16.1385
35.1969 16.0864
35.2438 16.1092
35.2906 15.9873
35.3375 15.9217
35.3842 15.9606
35.4311 15.8725
35.4779 15.8345
35.5248 15.8424
35.5716 15.7967
35.6185 15.8791
35.6653 15.8018
35.7123 15.7845
35.759 15.7728
35.806 15.5848
35.8528 15.5011
35.8998 15.4695
35.9468 15.4171
35.9936 15.4434
36.0406 15.3105
36.0874 15.3354
36.1345 15.3529
36.1813 15.2056
36.2283 15.2091
36.2752 15.0783
36.3222 15.1745
36.3691 15.0812
36.4161 15.0098
36.463 15.0462
36.5101 15.0239
36.557 14.9146
36.6041 14.7909
36.651 14.831
36.6981 14.7283
36.745 14.777
36.7921 14.7396
36.839 14.6403
36.8861 14.6259
36.9331 14.6162
36.9802 14.528
37.0272 14.4957
37.0743 14.4642
37.1213 14.4512
37.1684 14.3579
37.2154 14.29
37.2626 14.2137
37.3098 14.2085
37.3568 14.167
37.404 14.1497
37.451 14.0307
37.4982 14.1206
37.5452 14.0121
37.5924 13.9872
37.6395 13.9687
37.6867 13.9199
37.7337 13.8494
37.781 13.7869
37.8281 13.7541
37.8753 13.7714
37.9224 13.653
37.9697 13.6457
38.0168 13.6052
38.064 13.5521
38.1111 13.4868
38.1584 13.4828
38.2056 13.4298
38.2529 13.3339
38.3 13.28
38.3473 13.2897
38.3945 13.2447
38.4418 13.2258
38.489 13.1684
38.5363 13.1835
38.5837 13.0757
38.6309 13.0675
38.6782 12.9628
38.7254 12.9248
38.7728 12.9178
38.82 12.8959
38.8674 12.8707
38.9146 12.7859
38.9621 12.8723
39.0093 12.7979
39.0567 12.7112
39.104 12.6978
39.1514 12.6719
39.1987 12.5717
39.2461 12.5541
39.2934 12.5182
39.3409 12.4899
39.3882 12.4199
39.4356 12.447
39.483 12.3657
39.5304 12.3583
39.5778 12.2938
39.6253 12.2251
39.6726 12.2021
39.7201 12.2246
39.7675 12.2171
39.815 12.1069
39.8624 12.0377
39.9099 12.0643
39.9575 12.0128
40.0049 11.9685
40.0525 11.918
40.0999 11.945
40.1474 11.8969
40.1949 11.8091
40.2425 11.7622
40.2899 11.8009
40.3375 11.7125
40.385 11.6276
40.4326 11.6138
40.48 11.6088
40.5277 11.5637
40.5752 11.5259
40.6228 11.4966
40.6703 11.4662
40.718 11.429
40.7655 11.4084
40.8132 11.3292
40.8607 11.3157
40.9084 11.3703
40.9559 11.2855
41.0036 11.2904
41.0512 11.2024
41.0989 11.2527
41.1465 11.1913
41.1942 11.1432
41.242 11.0347
41.2896 10.998
41.3373 11.0093
41.3849 10.9913
41.4327 10.9533
41.4803 10.8349
41.5281 10.8268
41.5758 10.8213
41.6236 10.7773
41.6712 10.7583
41.7191 10.7357
41.7667 10.6725
41.8146 10.6646
41.8622 10.6261
41.9101 10.5787
41.9578 10.5558
42.0057 10.5156
42.0534 10.4855
42.1013 10.4773
42.149 10.3986
42.1969 10.4043
42.2446 10.3208
42.2925 10.3072
42.3403 10.2732
42.3882 10.2671
42.436 10.2355
42.4839 10.2173
42.5319 10.1139
42.5797 10.117
42.6277 10.0972
42.6755 10.1008
42.7235 10.002
42.7713 9.96767
42.8193 9.97232
42.8671 9.88648
42.9152 9.87842
42.963 9.78233
43.0111 9.83477
43.0589 9.76494
43.107 9.74918
43.1549 9.70492
43.2029 9.67621
43.2508 9.64683
43.2989 9.64281
43.3468 9.58044
43.3949 9.59607
43.4429 9.52903
43.491 9.48102
43.5389 9.47996
43.5871 9.40717
43.635 9.39882
43.6832 9.3984
43.7312 9.33754
43.7793 9.29773
43.8273 9.27943
43.8755 9.23678
43.9237 9.25775
43.9717 9.20547
44.0199 9.19624
44.068 9.14892
44.1162 9.10697
44.1642 9.08596
44.2125 9.04631
44.2606 9.00114
44.3088 8.93349
44.3569 8.95894
44.4052 8.90841
44.4533 8.89431
44.5016 8.84022
44.5497 8.86253
44.598 8.80023
44.6461 8.75346
44.6945 8.73449
44.7426 8.72896
44.791 8.70408
44.8391 8.63589
44.8875 8.59182
44.9357 8.59829
44.984 8.55399
45.0322 8.50133
45.0806 8.46785
45.1288 8.48147
45.1773 8.43709
45.2257 8.42298
45.2739 8.38481
45.3224 8.3436
45.3706 8.34068
45.4191 8.26586
45.4673 8.28257
45.5158 8.25565
45.5641 8.20758
45.6126 8.19554
45.6609 8.16314
45.7094 8.12533
45.7577 8.0893
45.8063 8.0611
45.8546 8.04613
45.9031 8.00311
45.9515 7.98524
46.0001 7.98459
46.0484 7.94797
46.097 7.93931
46.1454 7.9007
46.194 7.9039
46.2424 7.8617
46.291 7.77317
46.3395 7.77983
46.3881 7.76831
46.4365 7.73831
46.4852 7.70781
46.5337 7.68511
46.5823 7.64133
46.631 7.59396
46.6795 7.59009
46.7282 7.56735
46.7767 7.60383
46.8254 7.49639
46.8739 7.50093
46.9226 7.47647
46.9712 7.45323
47.0199 7.38427
47.0685 7.36343
47.1173 7.30197
47.1658 7.32724
47.2146 7.34002
47.2632 7.30934
47.312 7.23509
47.3606 7.21068
47.4095 7.2138
47.4581 7.1648
47.5069 7.14776
47.5556 7.10337
47.6044 7.0888
47.6531 7.05361
47.702 7.02127
47.7507 7.01689
47.7996 6.96795
47.8483 7.00038
47.8972 6.92606
47.9461 6.89373
47.9948 6.86221
48.0438 6.88116
48.0925 6.87216
48.1415 6.83281
48.1902 6.78569
48.2392 6.77775
48.288 6.75553
48.337 6.70213
48.3858 6.71337
48.4348 6.66048
48.4837 6.65097
48.5327 6.6217
48.5815 6.5978
48.6306 6.59196
48.6795 6.57637
48.7285 6.5326
48.7774 6.50217
48.8265 6.50406
48.8754 6.49403
48.9245 6.44619
48.9734 6.4434
49.0226 6.39081
49.0715 6.39096
49.1206 6.35466
49.1696 6.35575
49.2188 6.30727
49.2679 6.29726
49.3169 6.26665
49.3661 6.21923
49.4151 6.23833
49.4643 6.19849
49.5134 6.19477
49.5626 6.12985
49.6117 6.17128
49.6609 6.10882
49.71 6.08421
49.7592 6.05254
49.8083 6.01711
49.8576 6.00985
49.9067 5.9722
49.956 5.95026
50.0052 5.98363
50.0545 5.92895
50.1036 5.92125
50.153 5.88363
50.2022 5.85997
50.2515 5.83278
50.3007 5.80194
50.3501 5.80059
50.3993 5.7786
50.4487 5.7651
50.498 5.75092
50.5474 5.73216
50.5966 5.67865
50.6461 5.6689
50.6955 5.65266
50.7448 5.64959
50.7943 5.62968
50.8436 5.60599
50.8931 5.57569
50.9424 5.56338
50.9919 5.55216
51.0413 5.51547
51.0908 5.47587
51.1402 5.46362
51.1897 5.45695
51.2391 5.42963
51.2887 5.40705
51.3381 5.37256
51.3877 5.38912
51.4371 5.32592
51.4867 5.28232
51.5362 5.3192
51.5858 5.25534
51.6353 5.27294
51.6849 5.24172
51.7344 5.24073
51.7841 5.19049
51.8336 5.16875
51.8833 5.13175
51.9328 5.12867
51.9826 5.12733
52.0323 5.11579
52.0818 5.10308
52.1316 5.05083
52.1812 5.05667
52.231 5.0228
52.2806 4.97139
52.3304 4.98183
52.38 4.9545
52.4298 4.96975
52.4794 4.90624
52.5293 4.91661
52.5789 4.88498
52.6288 4.87995
52.6785 4.8374
52.7284 4.8621
52.7781 4.83167
52.828 4.74408
52.8777 4.76496
52.9276 4.72089
52.9774 4.71371
53.0273 4.76646
53.0771 4.71324
53.1271 4.67387
53.1769 4.6669
53.2269 4.66136
53.2767 4.59935
53.3267 4.59578
53.3765 4.59484
53.4266 4.5859
53.4766 4.51838
53.5265 4.51422
53.5765 4.49884
53.6264 4.47282
53.6765 4.48538
53.7264 4.47185
53.7765 4.44835
53.8265 4.41718
53.8766 4.3542
53.9266 4.3385
53.9767 4.34672
54.0267 4.31511
54.0769 4.3004
54.1269 4.29513
54.1771 4.25593
54.2271 4.22808
54.2773 4.17437
54.3274 4.16733
54.3776 4.11695
54.4277 4.10421
54.478 4.07022
54.528 4.05614
54.5783 4.03881
54.6285 4.00858
54.6788 3.94584
54.7289 3.92064
54.7792 3.87718
54.8296 3.86917
54.8798 3.85939
54.9301 3.81894
54.9803 3.82266
55.0307 3.80257
55.0809 3.74817
55.1314 3.71007
55.1816 3.62756
55.232 3.6437
55.2823 3.52898
55.3328 3.52667
55.383 3.49801
55.4335 3.47499
55.4838 3.43829
55.5344 3.41903
55.5847 3.34875
55.6352 3.36384
55.6856 3.31725
55.7361 3.33054