File: XRD/Ni3Fe_FD0282.xy
TT I
1.27165 7.68128
1.31627 7.3045
1.36089 6.78879
1.40551 6.41138
1.45013 6.56099
1.49476 6.43607
1.53938 6.05988
1.584 5.26419
1.62863 6.12139
1.67325 5.44287
1.71787 5.09505
1.7625 4.5695
1.80712 5.05438
1.85174 4.94884
1.89636 4.64551
1.94099 4.89446
1.98562 4.32636
2.03025 4.143
2.07487 4.71717
2.11949 4.88299
2.16411 5.21317
2.20874 14.6602
2.25338 25.7856
2.298 5.59339
2.34263 4.484
2.38725 4.98839
2.43188 5.19282
2.4765 5.67714
2.52115 5.3353
2.56577 5.63188
2.6104 6.74194
2.65503 6.32962
2.69965 7.1052
2.7443 6.95856
2.78893 7.00436
2.83356 7.36259
2.87818 8.29503
2.92281 8.88268
2.96744 9.66859
3.01209 10.6668
3.05672 11.3542
3.10135 11.813
3.14599 13.1788
3.19062 13.7844
3.23527 14.6467
3.2799 15.9228
3.32454 17.2163
3.36917 18.2204
3.4138 18.6427
3.45844 19.8857
3.50309 21.1842
3.54773 22.4762
3.59237 24.8395
3.637 101.273
3.68164 64.4284
3.7263 27.3109
3.77094 26.8324
3.81558 26.9637
3.86022 27.9395
3.90486 29.694
3.9495 30.7901
3.99416 31.6213
4.0388 33.0663
4.08344 34.868
4.12809 36.2164
4.17273 38.2952
4.21738 44.991
4.26204 273.474
4.30669 247.166
4.35133 51.6029
4.39598 46.1487
4.44063 56.1411
4.4853 69.6449
4.52995 53.6631
4.5746 53.2503
4.61925 54.5406
4.6639 57.1995
4.70855 60.2166
4.75322 63.5261
4.79788 66.2037
4.84253 69.507
4.88719 74.6234
4.93184 78.0417
4.97652 84.6286
5.02118 91.8442
5.06583 100.783
5.11049 115.73
5.15515 201.287
5.19981 509.537
5.24449 3231.69
5.28916 10941.4
5.33382 4200.05
5.37848 263.879
5.42315 147.617
5.46783 125.069
5.5125 114.303
5.55716 108.531
5.60183 103.981
5.6465 102.044
5.69117 99.3685
5.73586 97.4252
5.78053 97.7792
5.8252 97.4265
5.86988 98.5463
5.91455 101.573
5.95924 113.775
6.00392 264.723
6.0486 1114.45
6.09328 3666.81
6.13795 3695.29
6.18263 378.363
6.22733 107.435
6.27201 89.7259
6.3167 110.538
6.36138 85.805
6.40606 72.7923
6.45075 70.3862
6.49545 68.2409
6.54014 66.5158
6.58483 65.2022
6.62952 65.4163
6.67421 98.6302
6.71892 159.016
6.76361 72.5867
6.8083 61.3657
6.853 59.7182
6.89769 59.0328
6.94239 58.7666
6.98711 57.7152
7.03181 57.7066
7.07651 57.6033
7.12121 57.5158
7.16591 58.0131
7.21063 58.1056
7.25533 73.3494
7.30004 198.132
7.34475 100.401
7.38945 58.7835
7.43416 56.7672
7.47889 56.1886
7.5236 56.5757
7.56831 57.3347
7.61303 59.0744
7.65774 59.9522
7.70247 58.6585
7.74719 58.2251
7.79191 58.7452
7.83663 58.9012
7.88135 60.0099
7.92607 60.7628
7.97081 61.7772
8.01553 62.92
8.06026 64.7075
8.10498 66.1817
8.14971 77.1389
8.19446 76.1198
8.23919 72.4695
8.28392 74.6712
8.32865 77.3023
8.37339 81.7309
8.41812 89.3539
8.46288 123.913
8.50761 193.248
8.55235 458.837
8.59709 1041.87
8.64183 2065.88
8.68658 1318.63
8.73134 242.206
8.77609 109.183
8.82083 98.5754
8.86558 94.6894
8.91033 94.3935
8.9551 96.4782
8.99985 88.9855
9.04461 86.897
9.08936 86.2992
9.13412 85.0734
9.17888 84.7993
9.22365 85.945
9.26841 85.239
9.31318 86.2524
9.35794 86.2037
9.4027 86.3851
9.44749 87.1172
9.49226 87.6488
9.53703 88.5942
9.5818 91.1209
9.62657 95.8712
9.67134 103.707
9.71614 97.7366
9.76091 98.1178
9.80569 100.598
9.85047 104.379
9.89525 131.032
9.94005 148.202
9.98484 201.149
10.0296 403.606
10.0744 742.41
10.1192 1485.04
10.164 1769.26
10.2088 597.346
10.2536 152.381
10.2984 121.961
10.3432 122.189
10.388 110.76
10.4328 127.948
10.4776 177.426
10.5224 262.366
10.5672 452.877
10.612 546.262
10.6568 264.795
10.7017 108.376
10.7465 91.0478
10.7913 87.153
10.8361 84.5338
10.8809 82.5493
10.9257 81.7008
10.9706 82.8285
11.0154 78.1597
11.0602 75.6599
11.105 74.5683
11.1499 79.3351
11.1947 88.1781
11.2395 78.1202
11.2844 73.5597
11.3292 70.119
11.374 68.7293
11.4189 68.0527
11.4637 67.4053
11.5086 68.0088
11.5534 71.7325
11.5983 68.4273
11.6431 65.8534
11.688 65.3678
11.7328 65.4627
11.7777 65.5611
11.8225 65.2134
11.8674 64.8434
11.9122 64.9549
11.9571 65.521
12.002 66.301
12.0468 71.4324
12.0917 85.8782
12.1366 104.135
12.1814 139.975
12.2263 198.275
12.2712 191.505
12.3161 113.513
12.3609 76.0892
12.4058 67.8793
12.4507 67.113
12.4956 66.9008
12.5405 67.2977
12.5853 68.1667
12.6302 76.3028
12.6751 83.4752
12.72 73.5359
12.7649 70.4525
12.8098 70.7964
12.8547 72.3131
12.8996 73.7603
12.9445 74.8974
12.9894 76.7381
13.0343 78.4441
13.0792 82.0933
13.1242 93.0244
13.1691 123.525
13.214 158.263
13.2589 218.716
13.3038 327.186
13.3487 433.611
13.3937 321.697
13.4386 151.403
13.4835 115.129
13.5285 133.291
13.5734 161.086
13.6183 221.82
13.6633 317.118
13.7082 365.614
13.7531 238.315
13.7981 112.906
13.843 86.6493
13.888 83.3331
13.9329 80.447
13.9779 78.8585
14.0228 77.1992
14.0678 76.1314
14.1127 75.681
14.1577 75.3447
14.2027 74.4376
14.2476 73.0094
14.2926 73.3631
14.3376 74.5749
14.3825 73.3493
14.4275 71.4037
14.4725 71.4607
14.5175 71.248
14.5624 71.7369
14.6074 73.9976
14.6524 74.9195
14.6974 73.5942
14.7424 75.1964
14.7874 83.3888
14.8324 96.2753
14.8774 111.855
14.9224 141.337
14.9674 189.546
15.0124 222.283
15.0574 175.116
15.1024 106.49
15.1474 77.2108
15.1924 73.6888
15.2374 74.2236
15.2824 73.6006
15.3274 70.886
15.3725 69.4151
15.4175 69.1845
15.4625 68.9304
15.5076 69.0544
15.5526 68.8678
15.5976 68.4362
15.6426 69.9232
15.6877 76.3235
15.7327 85.9957
15.7778 97.7343
15.8228 118.408
15.8679 154.434
15.9129 190.74
15.958 176.16
16.003 117.165
16.0481 74.5256
16.0931 68.3129
16.1382 65.6761
16.1833 63.1874
16.2283 61.5284
16.2734 60.9426
16.3185 61.1843
16.3636 62.1043
16.4086 60.499
16.4537 58.5925
16.4988 57.734
16.5439 57.7432
16.589 57.4875
16.6341 57.3616
16.6792 56.6252
16.7243 57.0254
16.7694 57.1636
16.8145 57.1669
16.8596 57.3613
16.9047 59.266
16.9498 59.3551
16.9949 58.1422
17.04 58.2229
17.0851 59.5091
17.1302 61.6244
17.1754 64.4203
17.2205 67.6627
17.2656 73.3938
17.3108 82.249
17.3559 85.8002
17.401 77.9404
17.4462 66.6792
17.4913 61.9711
17.5365 61.622
17.5815 61.5252
17.6268 61.7447
17.6718 62.756
17.7171 63.4107
17.7622 63.6247
17.8074 64.2396
17.8525 66.9835
17.8977 72.0685
17.9428 78.1566
17.9881 84.5868
18.0331 96.1267
18.0784 114.645
18.1237 136.947
18.1688 142.619
18.214 118.173
18.2591 93.0618
18.3044 89.6708
18.3495 97.7655
18.3948 108.054
18.4399 104.827
18.4852 86.2495
18.5303 70.8731
18.5756 65.2083
18.6207 63.8535
18.666 62.991
18.7112 62.4087
18.7565 61.4051
18.8016 61.049
18.8469 60.5058
18.892 59.9018
18.9374 59.4991
18.9825 59.1991
19.0278 59.2545
19.073 59.4568
19.1183 59.9048
19.1635 61.133
19.2088 62.1721
19.254 63.757
19.2993 66.6555
19.3447 72.4096
19.3898 77.6603
19.4352 76.9016
19.4804 68.8735
19.5257 60.7821
19.5709 56.7757
19.6163 56.1125
19.6615 56.0851
19.7068 55.4071
19.752 55.3824
19.7974 55.7373
19.8426 56.8405
19.888 57.7417
19.9332 58.6963
19.9786 60.3309
20.0238 62.8064
20.0692 67.1548
20.1144 71.5334
20.1598 72.2849
20.205 67.4922
20.2504 64.1069
20.2957 64.3298
20.3411 67.0232
20.3863 67.7294
20.4318 62.6152
20.477 57.0485
20.5224 54.208
20.5677 53.2335
20.6131 52.3043
20.6586 51.8065
20.7038 51.7465
20.7493 51.1255
20.7945 50.9705
20.84 50.8068
20.8853 50.6652
20.9307 50.5383
20.976 50.6582
21.0215 50.7205
21.0668 51.0453
21.1122 51.2028
21.1575 51.7659
21.203 52.4753
21.2483 53.1964
21.2938 53.5833
21.3391 52.5192
21.3846 51.2375
21.4299 50.5791
21.4754 50.4946
21.5207 50.5634
21.5662 50.6562
21.6116 51.1942
21.6571 52.1507
21.7024 53.3156
21.7479 54.4354
21.7933 56.4333
21.8388 59.3077
21.8843 63.239
21.9297 66.5087
21.9752 67.018
22.0206 63.4545
22.0661 59.0835
22.1115 57.8145
22.157 57.9655
22.2024 57.4647
22.248 54.4614
22.2933 52.6362
22.3389 51.2824
22.3843 51.1657
22.4299 50.9508
22.4753 50.9692
22.5208 50.8506
22.5662 50.5044
22.6118 50.7439
22.6572 50.8773
22.7028 51.3446
22.7483 52.021
22.7939 52.5547
22.8393 53.6792
22.8849 54.9977
22.9303 56.8472
22.9759 59.0678
23.0214 59.8636
23.067 58.27
23.1126 54.3033
23.1581 51.7369
23.2037 51.0992
23.2492 50.9273
23.2948 50.9945
23.3403 51.3696
23.3859 51.9064
23.4314 52.4868
23.477 53.6333
23.5225 55.4988
23.5682 57.6496
23.6137 59.6194
23.6593 59.1744
23.7048 55.172
23.7505 51.3577
23.796 48.8012
23.8417 48.0534
23.8872 47.3648
23.9329 47.2814
23.9784 46.8047
24.0241 46.601
24.0697 46.272
24.1154 46.0625
24.1609 45.7762
24.2066 45.6904
24.2522 45.5045
24.2979 45.1575
24.3434 45.1906
24.3892 44.9167
24.4349 44.7549
24.4805 44.7254
24.5262 44.7841
24.5718 44.6216
24.6175 44.8003
24.6631 44.6566
24.7089 44.3008
24.7545 44.354
24.8002 43.9769
24.8458 43.9078
24.8916 43.8212
24.9372 43.8341
24.983 44.153
25.0286 44.4247
25.0744 44.7792
25.12 45.1558
25.1658 45.965
25.2114 46.2968
25.2572 46.3441
25.3029 46.5664
25.3487 46.5488
25.3943 46.5983
25.4402 45.7625
25.4858 44.7718
25.5316 43.4012
25.5773 42.619
25.6231 42.7427
25.669 42.2545
25.7147 42.1641
25.7605 42.0358
25.8062 42.1901
25.8521 42.3813
25.8977 42.2954
25.9436 42.4385
25.9893 42.3224
26.0352 42.9536
26.0809 42.9245
26.1268 43.3071
26.1725 43.2307
26.2184 42.6326
26.2641 42.1195
26.31 41.8206
26.3557 41.8539
26.4017 41.8115
26.4474 41.9991
26.4933 42.3597
26.5391 42.6807
26.585 43.0341
26.6308 43.4219
26.6767 43.6827
26.7225 43.8341
26.7684 43.2109
26.8142 42.6759
26.8601 42.1881
26.9059 41.7504
26.9519 41.2642
26.9979 40.8425
27.0437 40.5592
27.0896 40.3074
27.1354 40.1943
27.1814 40.1834
27.2272 40.0121
27.2732 40.1349
27.3191 39.8181
27.3651 40.059
27.4109 39.8488
27.4569 40.0004
27.5027 40.1029
27.5488 40.1267
27.5946 39.9679
27.6407 39.7109
27.6865 39.7358
27.7326 39.4257
27.7784 39.4298
27.8245 39.3003
27.8703 39.4528
27.9164 39.6988
27.9623 39.7412
28.0084 40.0323
28.0543 40.4275
28.1003 40.5009
28.1462 40.3652
28.1923 40.0605
28.2384 39.4935
28.2843 39.1114
28.3304 38.8646
28.3764 38.3159
28.4225 37.9908
28.4684 37.7737
28.5145 37.41
28.5605 37.3179
28.6066 37.116
28.6526 36.9843
28.6987 37.0866
28.7447 36.9073
28.7908 36.8019
28.8368 36.8686
28.8829 36.7099
28.9289 36.7229
28.9751 36.6196
29.0211 36.3798
29.0673 36.0532
29.1133 35.9511
29.1595 35.8022
29.2055 35.6756
29.2517 35.692
29.2977 35.6781
29.3439 35.6428
29.3899 35.6384
29.4361 35.4833
29.4824 35.3814
29.5284 35.0978
29.5746 34.8727
29.6207 34.5791
29.6669 34.38
29.713 34.331
29.7593 34.184
29.8053 34.2784
29.8516 34.1382
29.8977 34.1099
29.9439 33.9027
29.99 33.9306
30.0363 33.7688
30.0824 33.7523
30.1287 33.7273
30.1748 33.6827
30.2211 33.6951
30.2673 33.5128
30.3136 33.6736
30.3597 33.6574
30.406 33.5511
30.4522 33.3382
30.4985 33.3068
30.5447 33.4594
30.591 33.3547
30.6372 33.4341
30.6835 33.4049
30.7297 33.3752
30.7761 33.3938
30.8224 33.3527
30.8686 33.2034
30.915 32.8936
30.9612 32.7398
31.0076 32.6773
31.0538 32.574
31.1002 32.332
31.1464 32.2012
31.1928 32.164
31.2391 32.1688
31.2855 32.1093
31.3317 32.0394
31.3781 32.1567
31.4244 32.2164
31.4708 31.9984
31.5171 32.0181
31.5636 31.9263
31.6098 31.7666
31.6563 31.6017
31.7026 31.5035
31.7491 31.3249
31.7953 31.3849
31.8418 31.308
31.8881 31.2835
31.9346 31.2016
31.9809 31.2616
32.0275 31.2018
32.074 31.0337
32.1203 30.7815
32.1668 30.8266
32.2132 30.5925
32.2597 30.5088
32.306 30.4402
32.3526 30.181
32.399 30.1314
32.4455 29.9738
32.4919 29.8699
32.5385 29.7649
32.5848 29.5152
32.6314 29.6516
32.6778 29.6119
32.7244 29.4712
32.7708 29.3348
32.8174 29.2996
32.8638 29.2555
32.9104 29.2266
32.9569 29.1379
33.0035 29.0198
33.0499 28.9804
33.0966 28.8401
33.143 28.8478
33.1897 28.6914
33.2361 28.7391
33.2828 28.6425
33.3293 28.4845
33.3759 28.55
33.4226 28.2966
33.4691 28.159
33.5158 28.1454
33.5623 28.003
33.609 27.8033
33.6555 27.7484
33.7022 27.683
33.7487 27.5585
33.7954 27.6229
33.842 27.4154
33.8887 27.363
33.9353 27.2564
33.982 27.2433
34.0286 27.154
34.0753 26.9712
34.1219 26.913
34.1687 26.9331
34.2152 26.829
34.262 26.663
34.3086 26.6665
34.3554 26.5633
34.402 26.4057
34.4488 26.3724
34.4954 26.1999
34.5422 26.1678
34.5889 26.1643
34.6357 26.0001
34.6825 25.9325
34.7292 25.8977
34.776 25.7248
34.8227 25.7477
34.8695 25.6702
34.9162 25.5566
34.9631 25.4984
35.0098 25.4476
35.0566 25.3734
35.1033 25.2815
35.1502 25.2882
35.1969 25.1483
35.2438 25.1403
35.2906 25.1052
35.3375 25.0233
35.3842 24.9054
35.4311 24.926
35.4779 24.915
35.5248 24.8377
35.5716 24.703
35.6185 24.6231
35.6653 24.632
35.7123 24.4657
35.759 24.3154
35.806 24.2827
35.8528 24.2235
35.8998 24.0859
35.9468 24.0337
35.9936 24.0251
36.0406 23.9566
36.0874 23.8824
36.1345 23.7643
36.1813 23.7466
36.2283 23.6428
36.2752 23.5509
36.3222 23.7073
36.3691 23.5042
36.4161 23.4281
36.463 23.3508
36.5101 23.3014
36.557 23.2339
36.6041 23.1062
36.651 23.0757
36.6981 23.047
36.745 22.9199
36.7921 22.8523
36.839 22.7405
36.8861 22.7107
36.9331 22.6736
36.9802 22.5682
37.0272 22.4498
37.0743 22.3898
37.1213 22.3511
37.1684 22.2795
37.2154 22.1572
37.2626 22.0456
37.3098 22.078
37.3568 21.9898
37.404 21.9627
37.451 21.8288
37.4982 21.7587
37.5452 21.7358
37.5924 21.6835
37.6395 21.6588
37.6867 21.5564
37.7337 21.4961
37.781 21.4099
37.8281 21.3035
37.8753 21.2106
37.9224 21.2113
37.9697 21.0889
38.0168 20.9871
38.064 20.9579
38.1111 20.8933
38.1584 20.8112
38.2056 20.8068
38.2529 20.7562
38.3 20.608
38.3473 20.687
38.3945 20.532
38.4418 20.4815
38.489 20.3887
38.5363 20.2758
38.5837 20.2269
38.6309 20.2247
38.6782 20.078
38.7254 20.0539
38.7728 20.0058
38.82 19.969
38.8674 19.8497
38.9146 19.7623
38.9621 19.6793
39.0093 19.7014
39.0567 19.6216
39.104 19.5791
39.1514 19.4098
39.1987 19.454
39.2461 19.3403
39.2934 19.3063
39.3409 19.1755
39.3882 19.1475
39.4356 19.0967
39.483 19.0686
39.5304 18.9543
39.5778 18.9818
39.6253 18.8148
39.6726 18.8253
39.7201 18.8033
39.7675 18.7151
39.815 18.6997
39.8624 18.572
39.9099 18.5374
39.9575 18.4172
40.0049 18.3908
40.0525 18.3076
40.0999 18.3279
40.1474 18.2449
40.1949 18.1305
40.2425 18.0514
40.2899 18.004
40.3375 18.085
40.385 17.9252
40.4326 17.9252
40.48 17.8259
40.5277 17.8148
40.5752 17.7505
40.6228 17.6613
40.6703 17.5768
40.718 17.5834
40.7655 17.506
40.8132 17.4655
40.8607 17.4335
40.9084 17.3983
40.9559 17.2688
41.0036 17.2189
41.0512 17.1719
41.0989 17.1771
41.1465 17.0418
41.1942 17.0063
41.242 16.8994
41.2896 16.8597
41.3373 16.7822
41.3849 16.7552
41.4327 16.7335
41.4803 16.5825
41.5281 16.6406
41.5758 16.5309
41.6236 16.4403
41.6712 16.4261
41.7191 16.3955
41.7667 16.3595
41.8146 16.3001
41.8622 16.2062
41.9101 16.1584
41.9578 16.0587
42.0057 16.0352
42.0534 16.0209
42.1013 15.9481
42.149 15.8708
42.1969 15.8536
42.2446 15.7388
42.2925 15.7214
42.3403 15.6764
42.3882 15.6609
42.436 15.6543
42.4839 15.5348
42.5319 15.4749
42.5797 15.3651
42.6277 15.3146
42.6755 15.2787
42.7235 15.263
42.7713 15.2039
42.8193 15.1487
42.8671 15.1207
42.9152 15.0563
42.963 15.069
43.0111 14.9702
43.0589 14.9571
43.107 14.8448
43.1549 14.8241
43.2029 14.6868
43.2508 14.7604
43.2989 14.6278
43.3468 14.5609
43.3949 14.5716
43.4429 14.4895
43.491 14.3952
43.5389 14.3644
43.5871 14.3946
43.635 14.2957
43.6832 14.1999
43.7312 14.1271
43.7793 14.1439
43.8273 14.1349
43.8755 14.018
43.9237 13.9536
43.9717 13.9666
44.0199 13.9113
44.068 13.8861
44.1162 13.8383
44.1642 13.7612
44.2125 13.7735
44.2606 13.6821
44.3088 13.5685
44.3569 13.5365
44.4052 13.5435
44.4533 13.4424
44.5016 13.4126
44.5497 13.4201
44.598 13.335
44.6461 13.284
44.6945 13.2156
44.7426 13.1832
44.791 13.146
44.8391 13.0836
44.8875 13.024
44.9357 13.0233
44.984 12.9437
45.0322 12.8934
45.0806 12.8718
45.1288 12.8252
45.1773 12.7708
45.2257 12.7287
45.2739 12.6966
45.3224 12.6862
45.3706 12.5817
45.4191 12.5521
45.4673 12.5315
45.5158 12.5003
45.5641 12.3898
45.6126 12.3824
45.6609 12.2913
45.7094 12.2449
45.7577 12.2141
45.8063 12.1918
45.8546 12.1837
45.9031 12.0759
45.9515 12.0254
46.0001 12.0208
46.0484 12.0393
46.097 11.9533
46.1454 11.9304
46.194 11.9108
46.2424 11.8171
46.291 11.7611
46.3395 11.721
46.3881 11.6814
46.4365 11.6676
46.4852 11.5901
46.5337 11.5723
46.5823 11.5383
46.631 11.4356
46.6795 11.4224
46.7282 11.3961
46.7767 11.3624
46.8254 11.2934
46.8739 11.2371
46.9226 11.2024
46.9712 11.1644
47.0199 11.0953
47.0685 11.0986
47.1173 11.0294
47.1658 10.9865
47.2146 10.9664
47.2632 10.9086
47.312 10.9163
47.3606 10.823
47.4095 10.8253
47.4581 10.7648
47.5069 10.723
47.5556 10.686
47.6044 10.6099
47.6531 10.6279
47.702 10.5884
47.7507 10.5328
47.7996 10.4734
47.8483 10.4597
47.8972 10.4296
47.9461 10.3807
47.9948 10.3474
48.0438 10.2951
48.0925 10.27
48.1415 10.2423
48.1902 10.1768
48.2392 10.1848
48.288 10.1179
48.337 10.1149
48.3858 10.0271
48.4348 10.0599
48.4837 10.0454
48.5327 9.94889
48.5815 9.87143
48.6306 9.89096
48.6795 9.82332
48.7285 9.79373
48.7774 9.75105
48.8265 9.72166
48.8754 9.66529
48.9245 9.64602
48.9734 9.65329
49.0226 9.58116
49.0715 9.57354
49.1206 9.48229
49.1696 9.47574
49.2188 9.46798
49.2679 9.3903
49.3169 9.36065
49.3661 9.32806
49.4151 9.30489
49.4643 9.28112
49.5134 9.18655
49.5626 9.15674
49.6117 9.10338
49.6609 9.12834
49.71 9.03769
49.7592 9.05695
49.8083 8.96135
49.8576 8.99204
49.9067 8.92935
49.956 8.90929
50.0052 8.84857
50.0545 8.88013
50.1036 8.77228
50.153 8.76989
50.2022 8.71813
50.2515 8.65975
50.3007 8.64033
50.3501 8.61135
50.3993 8.60322
50.4487 8.58219
50.498 8.52077
50.5474 8.51928
50.5966 8.45573
50.6461 8.40498
50.6955 8.39722
50.7448 8.38682
50.7943 8.34602
50.8436 8.27227
50.8931 8.26834
50.9424 8.25707
50.9919 8.21268
51.0413 8.21102
51.0908 8.1321
51.1402 8.11413
51.1897 8.05955
51.2391 8.06396
51.2887 8.02871
51.3381 7.97701
51.3877 7.96883
51.4371 7.88904
51.4867 7.87425
51.5362 7.83591
51.5858 7.86332
51.6353 7.74493
51.6849 7.75649
51.7344 7.72633
51.7841 7.71771
51.8336 7.6413
51.8833 7.63683
51.9328 7.58641
51.9826 7.56381
52.0323 7.5146
52.0818 7.52156
52.1316 7.44933
52.1812 7.48415
52.231 7.37611
52.2806 7.38435
52.3304 7.35392
52.38 7.29044
52.4298 7.27938
52.4794 7.23258
52.5293 7.21174
52.5789 7.17478
52.6288 7.15666
52.6785 7.14255
52.7284 7.10061
52.7781 7.07486
52.828 7.04078
52.8777 7.00416
52.9276 6.97845
52.9774 6.9633
53.0273 6.95465
53.0771 6.8943
53.1271 6.86344
53.1769 6.86448
53.2269 6.82004
53.2767 6.80954
53.3267 6.74978
53.3765 6.74833
53.4266 6.73638
53.4766 6.67708
53.5265 6.62496
53.5765 6.58918
53.6264 6.6141
53.6765 6.53158
53.7264 6.53427
53.7765 6.51524
53.8265 6.44364
53.8766 6.40473
53.9266 6.40056
53.9767 6.33137
54.0267 6.38143
54.0769 6.32477
54.1269 6.26211
54.1771 6.23719
54.2271 6.21327
54.2773 6.20074
54.3274 6.13242
54.3776 6.13625
54.4277 6.10032
54.478 6.05148
54.528 5.98259
54.5783 5.97532
54.6285 5.96153
54.6788 5.9084
54.7289 5.80724
54.7792 5.79105
54.8296 5.75492
54.8798 5.72614
54.9301 5.66423
54.9803 5.67008
55.0307 5.67186
55.0809 5.61591
55.1314 5.57604
55.1816 5.47136
55.232 5.43541
55.2823 5.34192
55.3328 5.3462
55.383 5.31158
55.4335 5.23364
55.4838 5.18798
55.5344 5.1098
55.5847 5.10611
55.6352 5.05337
55.6856 5.06439
55.7361 5.03572