File: XRD/Ni3Fe_FD0628.xy
TT I
1.27165 7.04401
1.31627 6.58891
1.36089 7.29643
1.40551 6.01094
1.45013 6.2148
1.49476 5.98971
1.53938 5.89059
1.584 5.17615
1.62863 5.2354
1.67325 5.03997
1.71787 4.78425
1.7625 5.01728
1.80712 5.01069
1.85174 4.50233
1.89636 5.0644
1.94099 4.79987
1.98562 4.56769
2.03025 4.05745
2.07487 4.17602
2.11949 4.39699
2.16411 4.6452
2.20874 15.4096
2.25338 24.9416
2.298 5.79931
2.34263 5.17312
2.38725 5.9688
2.43188 5.75566
2.4765 6.60326
2.52115 6.34644
2.56577 7.28689
2.6104 7.62808
2.65503 7.39273
2.69965 8.66702
2.7443 7.35313
2.78893 7.84708
2.83356 8.27171
2.87818 8.28595
2.92281 8.90846
2.96744 9.44789
3.01209 10.6232
3.05672 11.3281
3.10135 12.0641
3.14599 12.7422
3.19062 13.9648
3.23527 15.2701
3.2799 15.3947
3.32454 16.4941
3.36917 17.5807
3.4138 18.6229
3.45844 19.753
3.50309 20.5158
3.54773 21.7484
3.59237 24.6233
3.637 98.5064
3.68164 62.6783
3.7263 26.5365
3.77094 26.3863
3.81558 26.7234
3.86022 27.8111
3.90486 29.0569
3.9495 29.6914
3.99416 30.9444
4.0388 32.6212
4.08344 33.4086
4.12809 34.8797
4.17273 37.2743
4.21738 43.3593
4.26204 263.901
4.30669 231.526
4.35133 49.4093
4.39598 44.5387
4.44063 55.3473
4.4853 67.4419
4.52995 50.4633
4.5746 51.2844
4.61925 53.452
4.6639 55.3953
4.70855 57.5505
4.75322 60.9794
4.79788 63.6729
4.84253 67.5269
4.88719 71.2175
4.93184 74.7476
4.97652 80.5774
5.02118 86.4155
5.06583 94.084
5.11049 105.437
5.15515 176.401
5.19981 343.651
5.24449 2770.21
5.28916 12584.4
5.33382 3017.06
5.37848 194.887
5.42315 130.861
5.46783 114.768
5.5125 106.532
5.55716 102.384
5.60183 99.2824
5.6465 96.9419
5.69117 94.6169
5.73586 92.5323
5.78053 91.6346
5.8252 91.113
5.86988 92.1143
5.91455 94.236
5.95924 101.65
6.00392 198.773
6.0486 950.12
6.09328 4335.09
6.13795 3553.33
6.18263 256.807
6.22733 94.6852
6.27201 84.1929
6.3167 104.757
6.36138 82.1803
6.40606 69.084
6.45075 67.7405
6.49545 65.993
6.54014 64.3682
6.58483 63.3609
6.62952 62.9983
6.67421 96.9338
6.71892 152.625
6.76361 69.9546
6.8083 58.8953
6.853 57.7784
6.89769 57.8312
6.94239 56.7081
6.98711 55.8563
7.03181 56.0
7.07651 55.6758
7.12121 55.6378
7.16591 55.5886
7.21063 56.1357
7.25533 71.9108
7.30004 192.954
7.34475 96.2931
7.38945 57.8193
7.43416 55.0467
7.47889 54.5577
7.5236 55.0526
7.56831 55.6299
7.61303 57.5524
7.65774 57.9287
7.70247 56.3143
7.74719 56.2751
7.79191 57.0477
7.83663 57.3182
7.88135 57.9467
7.92607 58.9181
7.97081 60.1762
8.01553 60.8097
8.06026 62.4102
8.10498 64.1568
8.14971 74.2595
8.19446 73.0705
8.23919 69.8085
8.28392 71.5618
8.32865 74.2627
8.37339 78.4903
8.41812 85.2854
8.46288 115.702
8.50761 158.982
8.55235 376.778
8.59709 1137.9
8.64183 2188.93
8.68658 1020.01
8.73134 171.425
8.77609 100.163
8.82083 92.9236
8.86558 89.9305
8.91033 90.2042
8.9551 92.6297
8.99985 85.9297
9.04461 84.0584
9.08936 82.8407
9.13412 82.217
9.17888 82.1624
9.22365 82.8624
9.26841 82.5381
9.31318 82.4968
9.35794 82.7485
9.4027 83.5458
9.44749 84.1362
9.49226 84.9198
9.53703 85.944
9.5818 87.2696
9.62657 92.2072
9.67134 99.7548
9.71614 93.8332
9.76091 94.1077
9.80569 96.2635
9.85047 100.017
9.89525 125.427
9.94005 138.34
9.98484 170.835
10.0296 329.646
10.0744 795.06
10.1192 1706.99
10.164 1630.1
10.2088 428.414
10.2536 129.993
10.2984 114.593
10.3432 116.252
10.388 105.179
10.4328 116.326
10.4776 156.931
10.5224 273.911
10.5672 502.89
10.612 508.035
10.6568 212.59
10.7017 98.1915
10.7465 87.027
10.7913 83.7658
10.8361 81.3785
10.8809 78.9489
10.9257 79.1093
10.9706 79.6442
11.0154 75.1436
11.0602 73.1463
11.105 71.8743
11.1499 76.8761
11.1947 84.8594
11.2395 75.3614
11.2844 70.9111
11.3292 67.3826
11.374 66.4704
11.4189 65.8215
11.4637 65.3708
11.5086 65.8468
11.5534 68.8104
11.5983 66.191
11.6431 63.876
11.688 63.1147
11.7328 63.0196
11.7777 62.814
11.8225 62.9239
11.8674 62.6056
11.9122 62.8413
11.9571 63.1099
12.002 63.6527
12.0468 67.5188
12.0917 78.4611
12.1366 101.594
12.1814 151.006
12.2263 205.641
12.2712 172.066
12.3161 99.914
12.3609 71.4745
12.4058 65.2515
12.4507 64.7279
12.4956 64.6993
12.5405 64.7305
12.5853 65.9907
12.6302 74.2552
12.6751 80.1634
12.72 70.3204
12.7649 68.0662
12.8098 68.5749
12.8547 69.8146
12.8996 71.1284
12.9445 72.1244
12.9894 74.0126
13.0343 75.7818
13.0792 78.8117
13.1242 87.0408
13.1691 110.53
13.214 146.092
13.2589 232.442
13.3038 363.315
13.3487 426.952
13.3937 274.139
13.4386 128.435
13.4835 105.064
13.5285 118.99
13.5734 156.44
13.6183 243.726
13.6633 346.77
13.7082 344.975
13.7531 196.576
13.7981 100.879
13.843 82.328
13.888 79.8527
13.9329 77.3673
13.9779 76.2145
14.0228 74.5868
14.0678 73.2153
14.1127 72.8156
14.1577 73.055
14.2027 71.5848
14.2476 70.6039
14.2926 71.1313
14.3376 72.095
14.3825 70.8615
14.4275 69.2602
14.4725 68.7429
14.5175 69.0929
14.5624 69.286
14.6074 71.5992
14.6524 72.1362
14.6974 70.7689
14.7424 71.7331
14.7874 77.9618
14.8324 88.1708
14.8774 109.035
14.9224 151.189
14.9674 203.628
15.0124 216.846
15.0574 151.28
15.1024 93.1696
15.1474 73.0469
15.1924 70.8304
15.2374 71.7138
15.2824 70.7954
15.3274 68.3775
15.3725 67.0436
15.4175 66.4824
15.4625 66.3748
15.5076 66.6622
15.5526 66.5166
15.5976 65.9539
15.6426 66.79
15.6877 71.6334
15.7327 78.8386
15.7778 94.1535
15.8228 124.723
15.8679 166.73
15.9129 193.136
15.958 157.911
16.003 99.5965
16.0481 69.3119
16.0931 65.1732
16.1382 63.394
16.1833 61.0107
16.2283 59.4369
16.2734 58.5907
16.3185 59.1556
16.3636 59.9734
16.4086 58.3171
16.4537 56.772
16.4988 56.0123
16.5439 55.5981
16.589 55.4425
16.6341 55.1184
16.6792 54.8278
16.7243 55.1331
16.7694 55.1375
16.8145 55.0339
16.8596 55.5473
16.9047 57.153
16.9498 57.4979
16.9949 55.8692
17.04 56.0226
17.0851 57.0676
17.1302 58.794
17.1754 61.7341
17.2205 66.4739
17.2656 73.9732
17.3108 82.1634
17.3559 83.0275
17.401 72.5096
17.4462 62.7374
17.4913 59.5316
17.5365 59.2763
17.5815 59.6686
17.6268 59.7523
17.6718 60.6004
17.7171 61.1335
17.7622 61.3997
17.8074 61.7571
17.8525 63.9973
17.8977 67.9953
17.9428 73.5182
17.9881 81.9076
18.0331 98.7913
18.0784 120.474
18.1237 138.994
18.1688 132.106
18.214 105.31
18.2591 87.506
18.3044 90.7362
18.3495 99.8806
18.3948 106.055
18.4399 97.847
18.4852 78.9865
18.5303 66.7981
18.5756 62.6068
18.6207 61.6419
18.666 60.603
18.7112 59.8783
18.7565 59.0034
18.8016 58.878
18.8469 58.2707
18.892 57.7192
18.9374 57.4906
18.9825 57.3195
19.0278 57.1064
19.073 57.1353
19.1183 57.4812
19.1635 58.4895
19.2088 59.794
19.254 62.0406
19.2993 66.5418
19.3447 72.8037
19.3898 77.0524
19.4352 73.0394
19.4804 64.1047
19.5257 57.5562
19.5709 54.4431
19.6163 54.1842
19.6615 53.9979
19.7068 53.5875
19.752 53.5499
19.7974 53.648
19.8426 54.4715
19.888 55.0598
19.9332 56.3516
19.9786 58.7051
20.0238 61.9964
20.0692 66.9341
20.1144 69.641
20.1598 68.3887
20.205 63.7633
20.2504 62.3902
20.2957 64.0476
20.3411 65.7265
20.3863 64.4895
20.4318 59.0671
20.477 54.1141
20.5224 51.9942
20.5677 51.2894
20.6131 50.6615
20.6586 49.9219
20.7038 49.7835
20.7493 49.3504
20.7945 49.1558
20.84 49.1995
20.8853 48.9051
20.9307 48.7285
20.976 48.7525
21.0215 48.6696
21.0668 49.1533
21.1122 49.8737
21.1575 50.2699
21.203 50.954
21.2483 51.3082
21.2938 51.5584
21.3391 50.304
21.3846 49.3557
21.4299 48.6503
21.4754 48.6417
21.5207 48.7898
21.5662 48.8022
21.6116 49.3426
21.6571 49.9695
21.7024 50.9018
21.7479 52.6863
21.7933 55.4847
21.8388 58.934
21.8843 62.4222
21.9297 64.651
21.9752 63.3878
22.0206 60.1047
22.0661 56.9989
22.1115 56.396
22.157 56.2234
22.2024 54.4673
22.248 51.9872
22.2933 50.1315
22.3389 49.5044
22.3843 49.3179
22.4299 49.2621
22.4753 49.0262
22.5208 48.8668
22.5662 48.796
22.6118 48.8499
22.6572 48.8589
22.7028 49.3792
22.7483 49.7784
22.7939 50.547
22.8393 51.991
22.8849 54.1952
22.9303 56.1681
22.9759 57.8129
23.0214 57.9147
23.067 54.9206
23.1126 51.7666
23.1581 49.5795
23.2037 48.9627
23.2492 49.0942
23.2948 48.9642
23.3403 49.2991
23.3859 49.9913
23.4314 50.8593
23.477 52.8189
23.5225 54.9377
23.5682 57.0646
23.6137 57.9542
23.6593 55.987
23.7048 52.2356
23.7505 48.5618
23.796 46.8237
23.8417 46.4314
23.8872 45.7481
23.9329 45.426
23.9784 45.103
24.0241 44.8835
24.0697 44.6124
24.1154 44.3453
24.1609 44.2378
24.2066 43.9701
24.2522 43.9117
24.2979 43.7182
24.3434 43.6072
24.3892 43.2724
24.4349 43.3631
24.4805 43.2034
24.5262 43.2454
24.5718 43.2349
24.6175 43.0519
24.6631 43.0474
24.7089 42.7841
24.7545 42.7295
24.8002 42.4705
24.8458 42.332
24.8916 42.1407
24.9372 42.324
24.983 42.6079
25.0286 42.9524
25.0744 43.3743
25.12 43.8456
25.1658 44.4563
25.2114 44.7875
25.2572 45.1123
25.3029 45.0243
25.3487 45.2724
25.3943 44.8031
25.4402 43.7763
25.4858 42.6398
25.5316 41.7721
25.5773 41.1282
25.6231 41.1053
25.669 40.8817
25.7147 40.813
25.7605 40.6282
25.8062 40.5774
25.8521 40.8888
25.8977 40.7666
25.9436 41.04
25.9893 41.1328
26.0352 41.6616
26.0809 41.723
26.1268 41.8969
26.1725 41.6549
26.2184 41.1047
26.2641 40.5468
26.31 40.2648
26.3557 40.3431
26.4017 40.311
26.4474 40.525
26.4933 40.851
26.5391 41.3624
26.585 41.9284
26.6308 42.2625
26.6767 42.3101
26.7225 42.2037
26.7684 41.806
26.8142 41.1433
26.8601 40.6675
26.9059 40.178
26.9519 39.7339
26.9979 39.467
27.0437 39.0479
27.0896 38.9097
27.1354 38.932
27.1814 38.7568
27.2272 38.7543
27.2732 38.7222
27.3191 38.4943
27.3651 38.6488
27.4109 38.7097
27.4569 38.6794
27.5027 38.6718
27.5488 38.6956
27.5946 38.5649
27.6407 38.3247
27.6865 38.2692
27.7326 38.028
27.7784 37.9815
27.8245 37.941
27.8703 38.1929
27.9164 38.5121
27.9623 38.6941
28.0084 38.7741
28.0543 39.2176
28.1003 39.0331
28.1462 39.0111
28.1923 38.6564
28.2384 38.1854
28.2843 37.9035
28.3304 37.4641
28.3764 36.9456
28.4225 36.585
28.4684 36.4044
28.5145 36.17
28.5605 36.0816
28.6066 35.8569
28.6526 35.8782
28.6987 35.7442
28.7447 35.6566
28.7908 35.6748
28.8368 35.7537
28.8829 35.4959
28.9289 35.4957
28.9751 35.4169
29.0211 35.0582
29.0673 34.8781
29.1133 34.8755
29.1595 34.5986
29.2055 34.4846
29.2517 34.4673
29.2977 34.333
29.3439 34.4866
29.3899 34.4762
29.4361 34.3813
29.4824 34.1109
29.5284 33.9022
29.5746 33.574
29.6207 33.287
29.6669 33.1714
29.713 33.1192
29.7593 32.9969
29.8053 33.066
29.8516 33.0048
29.8977 33.0352
29.9439 32.8164
29.99 32.6771
30.0363 32.641
30.0824 32.6737
30.1287 32.5629
30.1748 32.5482
30.2211 32.5565
30.2673 32.4801
30.3136 32.5725
30.3597 32.4573
30.406 32.2952
30.4522 32.225
30.4985 32.3056
30.5447 32.297
30.591 32.2039
30.6372 32.3433
30.6835 32.2734
30.7297 32.3156
30.7761 32.3068
30.8224 32.1884
30.8686 31.9642
30.915 31.8256
30.9612 31.6888
31.0076 31.5189
31.0538 31.3005
31.1002 31.1961
31.1464 31.1219
31.1928 31.1218
31.2391 31.1055
31.2855 31.0172
31.3317 31.0707
31.3781 31.0497
31.4244 31.0749
31.4708 31.0038
31.5171 30.9996
31.5636 30.9845
31.6098 30.5615
31.6563 30.5373
31.7026 30.4827
31.7491 30.1845
31.7953 30.3371
31.8418 30.2469
31.8881 30.3478
31.9346 30.2507
31.9809 30.1042
32.0275 30.0303
32.074 30.0347
32.1203 29.8362
32.1668 29.7601
32.2132 29.5116
32.2597 29.4017
32.306 29.4207
32.3526 29.0991
32.399 29.0945
32.4455 28.9835
32.4919 28.9135
32.5385 28.7744
32.5848 28.5168
32.6314 28.688
32.6778 28.5412
32.7244 28.4168
32.7708 28.2694
32.8174 28.2555
32.8638 28.2104
32.9104 28.187
32.9569 28.1532
33.0035 27.9818
33.0499 28.0222
33.0966 27.8221
33.143 27.9751
33.1897 27.8377
33.2361 27.7961
33.2828 27.7327
33.3293 27.4845
33.3759 27.5129
33.4226 27.3971
33.4691 27.2484
33.5158 27.1623
33.5623 27.0483
33.609 26.8636
33.6555 26.7613
33.7022 26.7223
33.7487 26.6184
33.7954 26.5926
33.842 26.4362
33.8887 26.4949
33.9353 26.4656
33.982 26.3311
34.0286 26.2008
34.0753 26.1509
34.1219 26.0369
34.1687 25.9745
34.2152 25.8846
34.262 25.835
34.3086 25.7214
34.3554 25.6972
34.402 25.5676
34.4488 25.4037
34.4954 25.4067
34.5422 25.2882
34.5889 25.1452
34.6357 25.0978
34.6825 24.9725
34.7292 24.9154
34.776 24.8487
34.8227 24.8188
34.8695 24.7578
34.9162 24.6824
34.9631 24.6307
35.0098 24.5769
35.0566 24.5144
35.1033 24.3369
35.1502 24.4314
35.1969 24.2851
35.2438 24.293
35.2906 24.2675
35.3375 24.2104
35.3842 24.0068
35.4311 24.1048
35.4779 24.0818
35.5248 24.0117
35.5716 23.9211
35.6185 23.8347
35.6653 23.7621
35.7123 23.6822
35.759 23.5554
35.806 23.4908
35.8528 23.3908
35.8998 23.359
35.9468 23.2424
35.9936 23.2046
36.0406 23.0861
36.0874 23.0908
36.1345 22.9697
36.1813 22.9558
36.2283 22.8475
36.2752 22.7176
36.3222 22.7926
36.3691 22.7059
36.4161 22.5327
36.463 22.5477
36.5101 22.5411
36.557 22.4291
36.6041 22.3281
36.651 22.3398
36.6981 22.2179
36.745 22.1969
36.7921 22.109
36.839 22.0052
36.8861 21.924
36.9331 21.8144
36.9802 21.7975
37.0272 21.6896
37.0743 21.6343
37.1213 21.6025
37.1684 21.5842
37.2154 21.5202
37.2626 21.4091
37.3098 21.2927
37.3568 21.2498
37.404 21.1975
37.451 21.1337
37.4982 21.0466
37.5452 20.9395
37.5924 20.9133
37.6395 20.9832
37.6867 20.7911
37.7337 20.6922
37.781 20.5969
37.8281 20.5808
37.8753 20.4907
37.9224 20.421
37.9697 20.4138
38.0168 20.2866
38.064 20.1821
38.1111 20.2282
38.1584 20.121
38.2056 20.0772
38.2529 20.0125
38.3 19.9743
38.3473 19.8877
38.3945 19.8155
38.4418 19.7364
38.489 19.7174
38.5363 19.5823
38.5837 19.5426
38.6309 19.4831
38.6782 19.4325
38.7254 19.3591
38.7728 19.3196
38.82 19.2249
38.8674 19.1509
38.9146 19.1879
38.9621 19.0403
39.0093 18.9918
39.0567 19.0163
39.104 18.9223
39.1514 18.7848
39.1987 18.7522
39.2461 18.7142
39.2934 18.6591
39.3409 18.5513
39.3882 18.5247
39.4356 18.4658
39.483 18.4511
39.5304 18.3611
39.5778 18.2834
39.6253 18.2397
39.6726 18.1688
39.7201 18.1166
39.7675 18.1266
39.815 18.0388
39.8624 17.9929
39.9099 17.972
39.9575 17.7872
40.0049 17.7889
40.0525 17.7103
40.0999 17.653
40.1474 17.688
40.1949 17.5414
40.2425 17.451
40.2899 17.4339
40.3375 17.4066
40.385 17.2892
40.4326 17.2168
40.48 17.2318
40.5277 17.2042
40.5752 17.1552
40.6228 17.031
40.6703 17.0129
40.718 16.925
40.7655 16.848
40.8132 16.8505
40.8607 16.8274
40.9084 16.7828
40.9559 16.7046
41.0036 16.6599
41.0512 16.5453
41.0989 16.5094
41.1465 16.4519
41.1942 16.4202
41.242 16.37
41.2896 16.2946
41.3373 16.3095
41.3849 16.2003
41.4327 16.1982
41.4803 16.0654
41.5281 16.0445
41.5758 15.9937
41.6236 15.9293
41.6712 15.8625
41.7191 15.8511
41.7667 15.8194
41.8146 15.7491
41.8622 15.6268
41.9101 15.614
41.9578 15.5138
42.0057 15.4979
42.0534 15.4921
42.1013 15.4517
42.149 15.3527
42.1969 15.294
42.2446 15.2816
42.2925 15.1919
42.3403 15.1244
42.3882 15.1704
42.436 15.0321
42.4839 14.986
42.5319 14.9151
42.5797 14.9496
42.6277 14.8464
42.6755 14.8162
42.7235 14.7466
42.7713 14.7037
42.8193 14.6368
42.8671 14.589
42.9152 14.5915
42.963 14.5023
43.0111 14.4273
43.0589 14.4025
43.107 14.3625
43.1549 14.3342
43.2029 14.2479
43.2508 14.2088
43.2989 14.1268
43.3468 14.1042
43.3949 14.0292
43.4429 14.0373
43.491 13.9573
43.5389 13.8832
43.5871 13.8784
43.635 13.8208
43.6832 13.7925
43.7312 13.723
43.7793 13.6542
43.8273 13.6754
43.8755 13.5833
43.9237 13.4981
43.9717 13.4614
44.0199 13.4113
44.068 13.4126
44.1162 13.3458
44.1642 13.3115
44.2125 13.2282
44.2606 13.2017
44.3088 13.1511
44.3569 13.098
44.4052 13.0758
44.4533 12.9973
44.5016 12.9391
44.5497 12.9174
44.598 12.9067
44.6461 12.832
44.6945 12.8058
44.7426 12.7754
44.791 12.6905
44.8391 12.6622
44.8875 12.6263
44.9357 12.5999
44.984 12.5818
45.0322 12.4728
45.0806 12.4024
45.1288 12.4162
45.1773 12.3645
45.2257 12.3032
45.2739 12.2531
45.3224 12.222
45.3706 12.1996
45.4191 12.1288
45.4673 12.0935
45.5158 12.026
45.5641 11.9877
45.6126 11.9722
45.6609 11.9364
45.7094 11.8374
45.7577 11.8288
45.8063 11.7145
45.8546 11.7699
45.9031 11.6902
45.9515 11.7176
46.0001 11.6633
46.0484 11.5843
46.097 11.5349
46.1454 11.4976
46.194 11.5
46.2424 11.4485
46.291 11.3839
46.3395 11.3579
46.3881 11.274
46.4365 11.2916
46.4852 11.2387
46.5337 11.1823
46.5823 11.1364
46.631 11.1074
46.6795 11.0345
46.7282 11.0504
46.7767 10.9877
46.8254 10.9178
46.8739 10.9084
46.9226 10.8558
46.9712 10.8201
47.0199 10.7802
47.0685 10.7115
47.1173 10.6948
47.1658 10.6416
47.2146 10.628
47.2632 10.5538
47.312 10.5621
47.3606 10.4648
47.4095 10.4436
47.4581 10.4004
47.5069 10.4077
47.5556 10.3342
47.6044 10.3286
47.6531 10.2624
47.702 10.1531
47.7507 10.2041
47.7996 10.1249
47.8483 10.1327
47.8972 10.0898
47.9461 10.0225
47.9948 9.99441
48.0438 9.95873
48.0925 9.95548
48.1415 9.89847
48.1902 9.85691
48.2392 9.83523
48.288 9.78019
48.337 9.76167
48.3858 9.73695
48.4348 9.71784
48.4837 9.68706
48.5327 9.64068
48.5815 9.5711
48.6306 9.57664
48.6795 9.50589
48.7285 9.46682
48.7774 9.44355
48.8265 9.42961
48.8754 9.32038
48.9245 9.32764
48.9734 9.26896
49.0226 9.28334
49.0715 9.22505
49.1206 9.20995
49.1696 9.18284
49.2188 9.11394
49.2679 9.09808
49.3169 9.02617
49.3661 8.98734
49.4151 9.00135
49.4643 8.96309
49.5134 8.92398
49.5626 8.89312
49.6117 8.86353
49.6609 8.82307
49.71 8.76994
49.7592 8.72804
49.8083 8.72751
49.8576 8.67666
49.9067 8.60724
49.956 8.56314
50.0052 8.57819
50.0545 8.55917
50.1036 8.48079
50.153 8.4764
50.2022 8.46334
50.2515 8.40672
50.3007 8.36746
50.3501 8.33249
50.3993 8.32233
50.4487 8.30645
50.498 8.2514
50.5474 8.23574
50.5966 8.17822
50.6461 8.15798
50.6955 8.08294
50.7448 8.0938
50.7943 8.04219
50.8436 8.03026
50.8931 8.01379
50.9424 7.99372
50.9919 7.909
51.0413 7.93624
51.0908 7.8691
51.1402 7.86076
51.1897 7.80211
51.2391 7.7555
51.2887 7.77178
51.3381 7.72648
51.3877 7.69896
51.4371 7.63589
51.4867 7.62639
51.5362 7.58403
51.5858 7.5405
51.6353 7.55506
51.6849 7.51201
51.7344 7.47564
51.7841 7.4367
51.8336 7.39626
51.8833 7.36165
51.9328 7.31382
51.9826 7.30889
52.0323 7.31655
52.0818 7.25339
52.1316 7.16373
52.1812 7.2035
52.231 7.1471
52.2806 7.10341
52.3304 7.13664
52.38 7.08134
52.4298 7.04549
52.4794 7.04128
52.5293 6.99499
52.5789 6.97333
52.6288 6.98574
52.6785 6.88066
52.7284 6.88983
52.7781 6.85027
52.828 6.79645
52.8777 6.78372
52.9276 6.75544
52.9774 6.78638
53.0273 6.70758
53.0771 6.66817
53.1271 6.64955
53.1769 6.63931
53.2269 6.6106
53.2767 6.57094
53.3267 6.5627
53.3765 6.49473
53.4266 6.48639
53.4766 6.44319
53.5265 6.40543
53.5765 6.39871
53.6264 6.34664
53.6765 6.32853
53.7264 6.31442
53.7765 6.30827
53.8265 6.23102
53.8766 6.26016
53.9266 6.20362
53.9767 6.17157
54.0267 6.15778
54.0769 6.09039
54.1269 6.12132
54.1771 6.04543
54.2271 6.09541
54.2773 5.99759
54.3274 5.98535
54.3776 5.94855
54.4277 5.90544
54.478 5.88552
54.528 5.86993
54.5783 5.81723
54.6285 5.7444
54.6788 5.71989
54.7289 5.69746
54.7792 5.61468
54.8296 5.5683
54.8798 5.55888
54.9301 5.53941
54.9803 5.50043
55.0307 5.45841
55.0809 5.38917
55.1314 5.38122
55.1816 5.33629
55.232 5.27665
55.2823 5.21665
55.3328 5.1338
55.383 5.10544
55.4335 5.08162
55.4838 5.04521
55.5344 4.98184
55.5847 4.99533
55.6352 4.90594
55.6856 4.86902
55.7361 4.86544