File: XRD/Ni3Fe_FD0423.xy
TT I
1.27165 7.47344
1.31627 7.55004
1.36089 7.14248
1.40551 6.68593
1.45013 6.22317
1.49476 6.82847
1.53938 5.86769
1.584 5.17865
1.62863 4.72769
1.67325 4.5316
1.71787 4.6842
1.7625 4.7216
1.80712 4.9207
1.85174 5.45834
1.89636 4.62434
1.94099 5.31083
1.98562 4.79552
2.03025 4.84875
2.07487 4.51031
2.11949 5.23663
2.16411 4.57783
2.20874 17.9871
2.25338 31.4027
2.298 6.12436
2.34263 5.41616
2.38725 5.89489
2.43188 5.60304
2.4765 6.118
2.52115 5.8554
2.56577 6.79982
2.6104 7.02211
2.65503 7.53932
2.69965 7.63625
2.7443 7.28004
2.78893 7.07762
2.83356 7.55849
2.87818 8.40589
2.92281 8.61973
2.96744 9.45044
3.01209 10.4728
3.05672 10.8424
3.10135 11.5555
3.14599 12.8024
3.19062 13.6889
3.23527 14.626
3.2799 16.0483
3.32454 17.0664
3.36917 17.8869
3.4138 19.3208
3.45844 20.2908
3.50309 21.7295
3.54773 22.0504
3.59237 24.7696
3.637 124.166
3.68164 76.072
3.7263 27.3958
3.77094 26.7366
3.81558 27.6517
3.86022 27.7836
3.90486 29.5032
3.9495 30.1902
3.99416 31.3367
4.0388 33.1558
4.08344 34.7516
4.12809 35.8198
4.17273 38.3538
4.21738 45.8679
4.26204 340.695
4.30669 301.455
4.35133 52.6618
4.39598 46.1442
4.44063 58.1944
4.4853 75.2042
4.52995 52.099
4.5746 52.2342
4.61925 54.2316
4.6639 56.0285
4.70855 58.8839
4.75322 61.561
4.79788 63.8568
4.84253 67.8474
4.88719 72.0504
4.93184 75.8864
4.97652 81.6101
5.02118 88.0587
5.06583 96.0629
5.11049 109.338
5.15515 204.908
5.19981 417.903
5.24449 2817.41
5.28916 11458.0
5.33382 3607.97
5.37848 223.327
5.42315 137.609
5.46783 118.238
5.5125 108.897
5.55716 103.901
5.60183 100.626
5.6465 98.985
5.69117 96.2434
5.73586 94.0624
5.78053 93.3646
5.8252 92.7781
5.86988 94.2413
5.91455 96.5665
5.95924 105.578
6.00392 225.529
6.0486 986.4
6.09328 3931.16
6.13795 3698.07
6.18263 317.043
6.22733 101.039
6.27201 87.4293
6.3167 116.9
6.36138 86.9978
6.40606 71.1088
6.45075 69.1333
6.49545 67.0222
6.54014 65.6664
6.58483 64.6161
6.62952 65.0209
6.67421 108.811
6.71892 186.145
6.76361 74.7486
6.8083 60.6096
6.853 58.9617
6.89769 58.3847
6.94239 58.2174
6.98711 57.3928
7.03181 57.1139
7.07651 56.8799
7.12121 56.5441
7.16591 57.2434
7.21063 57.4427
7.25533 77.2947
7.30004 239.316
7.34475 110.832
7.38945 58.9033
7.43416 56.1796
7.47889 55.8121
7.5236 56.2698
7.56831 57.0109
7.61303 59.1118
7.65774 59.7091
7.70247 57.4384
7.74719 57.4236
7.79191 58.1329
7.83663 58.2197
7.88135 59.2251
7.92607 59.8745
7.97081 60.8649
8.01553 62.0382
8.06026 63.3729
8.10498 65.2263
8.14971 78.5042
8.19446 76.4485
8.23919 71.1843
8.28392 73.3249
8.32865 75.4223
8.37339 79.7245
8.41812 87.6004
8.46288 127.202
8.50761 175.367
8.55235 394.648
8.59709 1054.65
8.64183 2092.85
8.68658 1149.78
8.73134 194.373
8.77609 104.038
8.82083 95.0836
8.86558 91.9646
8.91033 92.8253
8.9551 96.1281
8.99985 87.253
9.04461 84.7473
9.08936 84.0294
9.13412 82.983
9.17888 83.6057
9.22365 84.8257
9.26841 83.502
9.31318 84.0191
9.35794 84.2768
9.4027 84.3319
9.44749 85.0471
9.49226 85.826
9.53703 86.5968
9.5818 88.9152
9.62657 95.0457
9.67134 104.582
9.71614 96.3056
9.76091 95.3473
9.80569 97.8082
9.85047 101.73
9.89525 135.164
9.94005 151.138
9.98484 184.006
10.0296 349.146
10.0744 734.805
10.1192 1576.21
10.164 1776.48
10.2088 501.897
10.2536 140.092
10.2984 119.362
10.3432 122.979
10.388 108.327
10.4328 121.836
10.4776 161.502
10.5224 260.378
10.5672 471.932
10.612 525.323
10.6568 232.294
10.7017 102.247
10.7465 89.136
10.7913 85.1385
10.8361 82.8847
10.8809 80.5192
10.9257 80.9118
10.9706 82.1919
11.0154 76.9902
11.0602 74.5449
11.105 73.5778
11.1499 80.3972
11.1947 92.2623
11.2395 78.9717
11.2844 73.2618
11.3292 69.0609
11.374 67.6784
11.4189 66.9859
11.4637 66.4735
11.5086 67.3276
11.5534 72.0833
11.5983 67.7096
11.6431 65.0608
11.688 64.3419
11.7328 64.2156
11.7777 64.3044
11.8225 63.6234
11.8674 63.7202
11.9122 63.9612
11.9571 64.1063
12.002 65.1622
12.0468 69.1118
12.0917 80.8531
12.1366 101.64
12.1814 141.895
12.2263 202.806
12.2712 186.652
12.3161 112.266
12.3609 75.3654
12.4058 66.6846
12.4507 65.8433
12.4956 65.881
12.5405 66.0136
12.5853 67.0498
12.6302 78.199
12.6751 86.6372
12.72 73.2793
12.7649 69.3048
12.8098 69.9599
12.8547 71.2247
12.8996 72.3034
12.9445 73.3873
12.9894 75.412
13.0343 77.027
13.0792 80.1582
13.1242 90.0999
13.1691 115.136
13.214 148.966
13.2589 219.25
13.3038 334.575
13.3487 436.006
13.3937 303.593
13.4386 139.584
13.4835 109.401
13.5285 123.086
13.5734 155.273
13.6183 225.119
13.6633 324.266
13.7082 366.087
13.7531 220.338
13.7981 106.435
13.843 84.2299
13.888 81.3059
13.9329 78.7259
13.9779 77.3264
14.0228 75.7767
14.0678 74.52
14.1127 74.2162
14.1577 74.517
14.2027 72.9356
14.2476 71.9426
14.2926 72.5577
14.3376 74.2342
14.3825 72.2023
14.4275 70.1977
14.4725 70.2486
14.5175 70.4175
14.5624 70.4101
14.6074 73.6107
14.6524 74.1593
14.6974 72.1355
14.7424 73.2779
14.7874 80.0573
14.8324 90.3376
14.8774 108.871
14.9224 143.117
14.9674 193.981
15.0124 225.927
15.0574 167.671
15.1024 101.335
15.1474 75.0633
15.1924 72.4882
15.2374 73.805
15.2824 72.7756
15.3274 69.9909
15.3725 68.2702
15.4175 67.8689
15.4625 67.552
15.5076 67.9417
15.5526 67.8185
15.5976 67.0906
15.6426 68.184
15.6877 73.9691
15.7327 81.4419
15.7778 94.1623
15.8228 118.658
15.8679 156.746
15.9129 192.097
15.958 171.66
16.003 107.781
16.0481 71.6678
16.0931 67.7383
16.1382 65.369
16.1833 62.268
16.2283 60.4801
16.2734 59.906
16.3185 60.7358
16.3636 62.0014
16.4086 60.0139
16.4537 57.7499
16.4988 56.9915
16.5439 56.8693
16.589 56.4793
16.6341 56.1734
16.6792 55.7344
16.7243 56.173
16.7694 56.5283
16.8145 56.1926
16.8596 56.6566
16.9047 59.0804
16.9498 59.2189
16.9949 57.3539
17.04 57.0952
17.0851 58.3994
17.1302 59.8161
17.1754 62.7572
17.2205 66.7604
17.2656 72.7824
17.3108 81.1167
17.3559 84.0635
17.401 74.7972
17.4462 64.4867
17.4913 60.6449
17.5365 60.4535
17.5815 60.4929
17.6268 60.6787
17.6718 61.6445
17.7171 62.57
17.7622 62.4967
17.8074 62.8452
17.8525 65.26
17.8977 69.799
17.9428 75.1338
17.9881 82.2397
18.0331 95.8818
18.0784 114.699
18.1237 137.393
18.1688 138.418
18.214 112.218
18.2591 89.2714
18.3044 88.8368
18.3495 97.4162
18.3948 107.44
18.4399 102.551
18.4852 83.0568
18.5303 68.7068
18.5756 63.8168
18.6207 62.5198
18.666 61.9995
18.7112 61.2682
18.7565 60.1923
18.8016 59.9696
18.8469 59.3871
18.892 58.9858
18.9374 58.3812
18.9825 58.424
19.0278 58.5118
19.073 58.368
19.1183 58.8685
19.1635 59.9115
19.2088 60.7232
19.254 62.7143
19.2993 66.2758
19.3447 72.2401
19.3898 77.7805
19.4352 75.789
19.4804 66.5972
19.5257 58.9225
19.5709 55.6068
19.6163 54.9791
19.6615 55.0334
19.7068 54.6389
19.752 54.4527
19.7974 54.6912
19.8426 55.7633
19.888 56.3461
19.9332 57.2536
19.9786 59.2101
20.0238 62.1466
20.0692 66.8329
20.1144 70.8578
20.1598 70.9237
20.205 65.7892
20.2504 63.0108
20.2957 63.5475
20.3411 66.181
20.3863 66.5259
20.4318 61.1874
20.477 55.8729
20.5224 53.3251
20.5677 52.5158
20.6131 51.7086
20.6586 50.8259
20.7038 50.667
20.7493 50.0878
20.7945 50.1665
20.84 49.7947
20.8853 49.9315
20.9307 49.5881
20.976 49.9125
21.0215 49.673
21.0668 50.0117
21.1122 50.596
21.1575 51.0563
21.203 51.6593
21.2483 52.2567
21.2938 52.8202
21.3391 51.5901
21.3846 50.4391
21.4299 49.4563
21.4754 49.4258
21.5207 49.583
21.5662 49.8059
21.6116 50.3513
21.6571 50.9331
21.7024 51.8349
21.7479 53.4778
21.7933 55.65
21.8388 58.6235
21.8843 62.3153
21.9297 65.5552
21.9752 65.4779
22.0206 61.9215
22.0661 57.827
22.1115 56.957
22.157 57.405
22.2024 56.1926
22.248 53.4957
22.2933 51.3972
22.3389 50.2972
22.3843 50.3771
22.4299 50.2763
22.4753 50.1338
22.5208 49.7467
22.5662 49.5883
22.6118 49.8122
22.6572 49.7394
22.7028 50.2835
22.7483 50.8175
22.7939 51.1638
22.8393 52.7294
22.8849 54.2756
22.9303 56.1339
22.9759 58.36
23.0214 58.9544
23.067 56.9397
23.1126 53.0118
23.1581 50.632
23.2037 49.9397
23.2492 49.9253
23.2948 50.0051
23.3403 50.1838
23.3859 50.545
23.4314 51.434
23.477 52.9309
23.5225 54.7709
23.5682 57.0344
23.6137 58.9386
23.6593 57.8264
23.7048 54.2713
23.7505 50.0165
23.796 47.7861
23.8417 47.1666
23.8872 46.5593
23.9329 46.3982
23.9784 45.9538
24.0241 45.7436
24.0697 45.4733
24.1154 45.2137
24.1609 45.0659
24.2066 44.9994
24.2522 44.7543
24.2979 44.3595
24.3434 44.3066
24.3892 44.1861
24.4349 44.0225
24.4805 43.8617
24.5262 44.0613
24.5718 43.878
24.6175 43.9845
24.6631 43.9387
24.7089 43.5177
24.7545 43.5043
24.8002 43.2779
24.8458 43.1615
24.8916 42.9291
24.9372 43.2214
24.983 43.3674
25.0286 43.5705
25.0744 44.0124
25.12 44.4246
25.1658 45.1451
25.2114 45.6163
25.2572 45.6006
25.3029 45.4719
25.3487 45.8457
25.3943 45.9393
25.4402 44.7805
25.4858 43.7301
25.5316 42.5831
25.5773 42.039
25.6231 41.7188
25.669 41.4036
25.7147 41.4373
25.7605 41.465
25.8062 41.3878
25.8521 41.5797
25.8977 41.5409
25.9436 41.7118
25.9893 41.7269
26.0352 42.0429
26.0809 42.3113
26.1268 42.6669
26.1725 42.5122
26.2184 41.9012
26.2641 41.3169
26.31 41.074
26.3557 41.0648
26.4017 40.9482
26.4474 41.3008
26.4933 41.5578
26.5391 41.9421
26.585 42.2946
26.6308 42.8661
26.6767 43.0066
26.7225 43.1003
26.7684 42.504
26.8142 41.8749
26.8601 41.4905
26.9059 41.0137
26.9519 40.5271
26.9979 40.2154
27.0437 39.8222
27.0896 39.5387
27.1354 39.6744
27.1814 39.4904
27.2272 39.4217
27.2732 39.3015
27.3191 39.1957
27.3651 39.3236
27.4109 39.3702
27.4569 39.3202
27.5027 39.447
27.5488 39.4351
27.5946 39.2117
27.6407 39.0929
27.6865 38.9273
27.7326 38.6847
27.7784 38.6586
27.8245 38.6672
27.8703 38.8992
27.9164 39.0265
27.9623 39.0012
28.0084 39.2813
28.0543 39.6639
28.1003 39.7355
28.1462 39.7702
28.1923 39.4464
28.2384 38.917
28.2843 38.5958
28.3304 38.1208
28.3764 37.7755
28.4225 37.3362
28.4684 37.132
28.5145 36.8577
28.5605 36.6561
28.6066 36.344
28.6526 36.4488
28.6987 36.4099
28.7447 36.3297
28.7908 36.2061
28.8368 36.2027
28.8829 36.1589
28.9289 36.1116
28.9751 35.9426
29.0211 35.7718
29.0673 35.4492
29.1133 35.3943
29.1595 35.1042
29.2055 35.1556
29.2517 34.9786
29.2977 35.0084
29.3439 34.9905
29.3899 35.0071
29.4361 34.8648
29.4824 34.7708
29.5284 34.4645
29.5746 34.2268
29.6207 33.8777
29.6669 33.7941
29.713 33.6544
29.7593 33.6965
29.8053 33.6802
29.8516 33.4911
29.8977 33.5393
29.9439 33.4062
29.99 33.2408
30.0363 33.1409
30.0824 33.1045
30.1287 33.1095
30.1748 33.1435
30.2211 33.1831
30.2673 33.0047
30.3136 33.1954
30.3597 33.0316
30.406 32.8924
30.4522 32.6589
30.4985 32.6739
30.5447 32.7596
30.591 32.78
30.6372 32.8645
30.6835 32.8395
30.7297 32.9314
30.7761 32.912
30.8224 32.6998
30.8686 32.5733
30.915 32.3637
30.9612 32.1537
31.0076 31.9916
31.0538 31.7863
31.1002 31.7864
31.1464 31.6409
31.1928 31.7335
31.2391 31.6005
31.2855 31.57
31.3317 31.4968
31.3781 31.5601
31.4244 31.4713
31.4708 31.5682
31.5171 31.4881
31.5636 31.5404
31.6098 31.1791
31.6563 30.982
31.7026 30.9661
31.7491 30.7045
31.7953 30.8815
31.8418 30.6798
31.8881 30.7399
31.9346 30.64
31.9809 30.7686
32.0275 30.6423
32.074 30.527
32.1203 30.3042
32.1668 30.1727
32.2132 30.0307
32.2597 29.9789
32.306 29.8824
32.3526 29.645
32.399 29.5928
32.4455 29.3675
32.4919 29.3705
32.5385 29.2794
32.5848 29.065
32.6314 29.0382
32.6778 29.0409
32.7244 29.0134
32.7708 28.8114
32.8174 28.8593
32.8638 28.7163
32.9104 28.7173
32.9569 28.6669
33.0035 28.4817
33.0499 28.4897
33.0966 28.4319
33.143 28.4178
33.1897 28.3814
33.2361 28.264
33.2828 28.2783
33.3293 28.0239
33.3759 28.0387
33.4226 27.7507
33.4691 27.868
33.5158 27.6459
33.5623 27.4998
33.609 27.4292
33.6555 27.3318
33.7022 27.2469
33.7487 27.1586
33.7954 27.1255
33.842 26.9859
33.8887 26.9479
33.9353 26.7761
33.982 26.7595
34.0286 26.6491
34.0753 26.6603
34.1219 26.5181
34.1687 26.3423
34.2152 26.3687
34.262 26.2718
34.3086 26.1763
34.3554 26.1829
34.402 25.9342
34.4488 25.8354
34.4954 25.7977
34.5422 25.7472
34.5889 25.6528
34.6357 25.5369
34.6825 25.4674
34.7292 25.3813
34.776 25.2887
34.8227 25.3475
34.8695 25.1596
34.9162 25.2165
34.9631 25.0382
35.0098 25.0753
35.0566 24.8773
35.1033 24.9132
35.1502 24.8415
35.1969 24.6972
35.2438 24.7618
35.2906 24.6162
35.3375 24.5714
35.3842 24.5419
35.4311 24.5899
35.4779 24.5082
35.5248 24.3943
35.5716 24.3257
35.6185 24.2268
35.6653 24.1942
35.7123 24.0634
35.759 24.0489
35.806 23.783
35.8528 23.7311
35.8998 23.7315
35.9468 23.6532
35.9936 23.6044
36.0406 23.5399
36.0874 23.4473
36.1345 23.4014
36.1813 23.3154
36.2283 23.2245
36.2752 23.101
36.3222 23.1582
36.3691 23.0398
36.4161 22.9329
36.463 23.0082
36.5101 22.9456
36.557 22.9289
36.6041 22.738
36.651 22.7258
36.6981 22.5999
36.745 22.5156
36.7921 22.5119
36.839 22.3226
36.8861 22.3749
36.9331 22.1969
36.9802 22.1082
37.0272 22.0166
37.0743 22.0623
37.1213 21.9893
37.1684 21.8575
37.2154 21.7846
37.2626 21.7583
37.3098 21.7404
37.3568 21.6618
37.404 21.5263
37.451 21.4631
37.4982 21.3988
37.5452 21.2639
37.5924 21.1854
37.6395 21.2897
37.6867 21.1839
37.7337 21.0694
37.781 20.959
37.8281 20.9775
37.8753 20.8536
37.9224 20.8424
37.9697 20.7072
38.0168 20.6826
38.064 20.5823
38.1111 20.6099
38.1584 20.4647
38.2056 20.4056
38.2529 20.3774
38.3 20.2975
38.3473 20.3447
38.3945 20.1131
38.4418 20.1406
38.489 20.0978
38.5363 19.8804
38.5837 19.9047
38.6309 19.8333
38.6782 19.7643
38.7254 19.769
38.7728 19.6509
38.82 19.5591
38.8674 19.5436
38.9146 19.4782
38.9621 19.3144
39.0093 19.441
39.0567 19.2764
39.104 19.2064
39.1514 19.2028
39.1987 19.1285
39.2461 19.0838
39.2934 19.0792
39.3409 18.8859
39.3882 18.8737
39.4356 18.7449
39.483 18.7189
39.5304 18.6968
39.5778 18.6077
39.6253 18.6082
39.6726 18.5086
39.7201 18.5092
39.7675 18.4211
39.815 18.3207
39.8624 18.2513
39.9099 18.2077
39.9575 18.147
40.0049 18.0381
40.0525 18.0059
40.0999 18.0018
40.1474 17.9271
40.1949 17.8145
40.2425 17.8313
40.2899 17.7541
40.3375 17.6846
40.385 17.5878
40.4326 17.5894
40.48 17.5083
40.5277 17.5072
40.5752 17.4244
40.6228 17.3753
40.6703 17.3751
40.718 17.197
40.7655 17.1758
40.8132 17.1347
40.8607 17.1274
40.9084 17.0551
40.9559 17.0009
41.0036 16.9457
41.0512 16.9277
41.0989 16.8642
41.1465 16.7572
41.1942 16.7398
41.242 16.6313
41.2896 16.538
41.3373 16.5723
41.3849 16.5097
41.4327 16.4944
41.4803 16.3231
41.5281 16.3073
41.5758 16.2663
41.6236 16.2386
41.6712 16.1166
41.7191 16.0838
41.7667 16.0436
41.8146 16.0033
41.8622 15.9423
41.9101 15.907
41.9578 15.7568
42.0057 15.7447
42.0534 15.7313
42.1013 15.6876
42.149 15.6177
42.1969 15.554
42.2446 15.5704
42.2925 15.5116
42.3403 15.3739
42.3882 15.3569
42.436 15.3797
42.4839 15.2076
42.5319 15.2007
42.5797 15.1722
42.6277 15.1212
42.6755 15.0816
42.7235 14.9838
42.7713 14.9833
42.8193 14.8774
42.8671 14.8747
42.9152 14.8122
42.963 14.7153
43.0111 14.7023
43.0589 14.6488
43.107 14.6105
43.1549 14.5473
43.2029 14.5
43.2508 14.4543
43.2989 14.4158
43.3468 14.3631
43.3949 14.3366
43.4429 14.2577
43.491 14.183
43.5389 14.1339
43.5871 14.1111
43.635 14.0271
43.6832 14.0203
43.7312 13.9461
43.7793 13.8917
43.8273 13.912
43.8755 13.7897
43.9237 13.787
43.9717 13.6741
44.0199 13.6425
44.068 13.6488
44.1162 13.5952
44.1642 13.5896
44.2125 13.4821
44.2606 13.4472
44.3088 13.4073
44.3569 13.352
44.4052 13.3216
44.4533 13.2702
44.5016 13.1978
44.5497 13.1605
44.598 13.1659
44.6461 13.0766
44.6945 13.0161
44.7426 12.9816
44.791 12.9188
44.8391 12.8995
44.8875 12.8688
44.9357 12.7767
44.984 12.7549
45.0322 12.6791
45.0806 12.7007
45.1288 12.64
45.1773 12.5362
45.2257 12.5362
45.2739 12.4953
45.3224 12.4613
45.3706 12.3934
45.4191 12.3686
45.4673 12.3217
45.5158 12.2383
45.5641 12.2002
45.6126 12.1834
45.6609 12.1255
45.7094 12.0509
45.7577 12.0369
45.8063 12.0026
45.8546 11.9939
45.9031 11.883
45.9515 11.8862
46.0001 11.79
46.0484 11.8087
46.097 11.7799
46.1454 11.7259
46.194 11.6968
46.2424 11.6469
46.291 11.5953
46.3395 11.5618
46.3881 11.5038
46.4365 11.4613
46.4852 11.4289
46.5337 11.3563
46.5823 11.3713
46.631 11.2759
46.6795 11.2747
46.7282 11.2022
46.7767 11.2043
46.8254 11.0847
46.8739 11.1248
46.9226 11.052
46.9712 10.9953
47.0199 10.9459
47.0685 10.9136
47.1173 10.865
47.1658 10.82
47.2146 10.8076
47.2632 10.7656
47.312 10.726
47.3606 10.6672
47.4095 10.6221
47.4581 10.573
47.5069 10.5642
47.5556 10.5225
47.6044 10.4992
47.6531 10.4421
47.702 10.3905
47.7507 10.3941
47.7996 10.2972
47.8483 10.2897
47.8972 10.2573
47.9461 10.1941
47.9948 10.1845
48.0438 10.1055
48.0925 10.0779
48.1415 10.0748
48.1902 10.0341
48.2392 9.98744
48.288 9.98678
48.337 9.93839
48.3858 9.90661
48.4348 9.83873
48.4837 9.82516
48.5327 9.78111
48.5815 9.74974
48.6306 9.73678
48.6795 9.69362
48.7285 9.64594
48.7774 9.64588
48.8265 9.60255
48.8754 9.54038
48.9245 9.5117
48.9734 9.47191
49.0226 9.46027
49.0715 9.401
49.1206 9.34241
49.1696 9.31275
49.2188 9.30554
49.2679 9.24154
49.3169 9.18849
49.3661 9.12394
49.4151 9.15414
49.4643 9.14987
49.5134 9.06845
49.5626 9.04912
49.6117 8.99703
49.6609 8.99191
49.71 8.93175
49.7592 8.90864
49.8083 8.88336
49.8576 8.85238
49.9067 8.7924
49.956 8.76538
50.0052 8.70493
50.0545 8.72099
50.1036 8.6926
50.153 8.66863
50.2022 8.61458
50.2515 8.53144
50.3007 8.52574
50.3501 8.50592
50.3993 8.46772
50.4487 8.41142
50.498 8.36861
50.5474 8.37701
50.5966 8.33935
50.6461 8.29726
50.6955 8.26488
50.7448 8.22952
50.7943 8.19294
50.8436 8.16817
50.8931 8.14335
50.9424 8.10098
50.9919 8.09816
51.0413 8.05568
51.0908 8.00508
51.1402 8.00326
51.1897 7.94724
51.2391 7.9145
51.2887 7.89032
51.3381 7.83622
51.3877 7.79334
51.4371 7.79138
51.4867 7.75955
51.5362 7.76182
51.5858 7.7017
51.6353 7.66997
51.6849 7.62639
51.7344 7.57354
51.7841 7.61816
51.8336 7.53653
51.8833 7.49267
51.9328 7.45618
51.9826 7.44618
52.0323 7.39922
52.0818 7.3797
52.1316 7.31002
52.1812 7.33079
52.231 7.31197
52.2806 7.27443
52.3304 7.21672
52.38 7.19711
52.4298 7.1417
52.4794 7.14339
52.5293 7.09425
52.5789 7.08271
52.6288 7.05828
52.6785 6.97366
52.7284 7.02595
52.7781 6.9907
52.828 6.92356
52.8777 6.91744
52.9276 6.86053
52.9774 6.8384
53.0273 6.83603
53.0771 6.7887
53.1271 6.79826
53.1769 6.71451
53.2269 6.70793
53.2767 6.68676
53.3267 6.70452
53.3765 6.60567
53.4266 6.60163
53.4766 6.56113
53.5265 6.535
53.5765 6.49941
53.6264 6.45158
53.6765 6.48938
53.7264 6.46818
53.7765 6.39399
53.8265 6.37186
53.8766 6.33082
53.9266 6.32359
53.9767 6.25219
54.0267 6.26614
54.0769 6.22796
54.1269 6.21341
54.1771 6.14529
54.2271 6.11231
54.2773 6.05961
54.3274 6.05052
54.3776 6.08078
54.4277 6.02241
54.478 5.96783
54.528 5.90974
54.5783 5.8595
54.6285 5.83526
54.6788 5.81772
54.7289 5.78115
54.7792 5.76344
54.8296 5.66733
54.8798 5.59392
54.9301 5.62322
54.9803 5.62786
55.0307 5.57554
55.0809 5.49249
55.1314 5.45196
55.1816 5.42065
55.232 5.45149
55.2823 5.30456
55.3328 5.32807
55.383 5.21861
55.4335 5.21574
55.4838 5.08641
55.5344 5.0792
55.5847 5.01199
55.6352 5.02314
55.6856 5.04012
55.7361 4.90942