File: XRD/Ni3Fe_FD0965.xy
TT I
1.27165 7.24447
1.31627 6.90761
1.36089 6.1315
1.40551 5.72399
1.45013 6.02713
1.49476 6.5328
1.53938 5.93405
1.584 5.18699
1.62863 5.35704
1.67325 4.93377
1.71787 5.1173
1.7625 4.89018
1.80712 4.78838
1.85174 4.89899
1.89636 4.46727
1.94099 5.13441
1.98562 5.03677
2.03025 4.94098
2.07487 5.0153
2.11949 4.83318
2.16411 4.98728
2.20874 13.6198
2.25338 21.0204
2.298 6.28943
2.34263 6.02526
2.38725 6.45844
2.43188 6.38114
2.4765 7.21031
2.52115 7.47512
2.56577 8.18654
2.6104 8.37832
2.65503 8.91258
2.69965 8.5874
2.7443 8.50228
2.78893 8.62854
2.83356 9.12967
2.87818 8.77433
2.92281 9.56186
2.96744 10.009
3.01209 10.6484
3.05672 11.433
3.10135 12.2956
3.14599 13.2928
3.19062 14.4289
3.23527 15.0025
3.2799 15.8837
3.32454 16.5409
3.36917 18.0061
3.4138 18.6107
3.45844 19.6241
3.50309 20.1891
3.54773 21.8883
3.59237 23.8398
3.637 83.9287
3.68164 54.4548
3.7263 25.9541
3.77094 26.0324
3.81558 26.5584
3.86022 27.2054
3.90486 28.7474
3.9495 29.3607
3.99416 30.8003
4.0388 32.2443
4.08344 33.4822
4.12809 34.7022
4.17273 36.5958
4.21738 42.6268
4.26204 221.275
4.30669 193.424
4.35133 47.3201
4.39598 44.0074
4.44063 52.5714
4.4853 62.4708
4.52995 50.3461
4.5746 50.8697
4.61925 52.74
4.6639 54.5617
4.70855 57.0202
4.75322 60.3693
4.79788 62.8349
4.84253 66.2578
4.88719 70.304
4.93184 73.5187
4.97652 79.1829
5.02118 84.5932
5.06583 91.5195
5.11049 101.376
5.15515 159.869
5.19981 282.886
5.24449 2455.92
5.28916 13485.9
5.33382 2834.42
5.37848 172.957
5.42315 123.581
5.46783 110.082
5.5125 103.855
5.55716 99.8373
5.60183 96.4982
5.6465 94.6223
5.69117 92.6189
5.73586 90.1181
5.78053 89.5116
5.8252 89.2263
5.86988 90.2527
5.91455 91.0231
5.95924 97.0909
6.00392 175.23
6.0486 817.947
6.09328 4633.22
6.13795 3150.49
6.18263 212.324
6.22733 88.9503
6.27201 80.6662
6.3167 96.8796
6.36138 77.9144
6.40606 67.9301
6.45075 65.9983
6.49545 64.1421
6.54014 63.0974
6.58483 61.7138
6.62952 62.0457
6.67421 89.0632
6.71892 131.515
6.76361 66.7012
6.8083 57.7079
6.853 57.1869
6.89769 56.0092
6.94239 55.546
6.98711 54.8339
7.03181 54.8984
7.07651 54.7718
7.12121 54.2051
7.16591 54.4329
7.21063 54.5204
7.25533 68.1844
7.30004 160.746
7.34475 85.6829
7.38945 55.5833
7.43416 53.913
7.47889 53.4708
7.5236 54.0072
7.56831 54.7135
7.61303 55.707
7.65774 56.1186
7.70247 55.5609
7.74719 55.1889
7.79191 56.0131
7.83663 55.8336
7.88135 56.8406
7.92607 57.9142
7.97081 58.7101
8.01553 59.9558
8.06026 60.9597
8.10498 62.5747
8.14971 71.2347
8.19446 70.5425
8.23919 68.1993
8.28392 70.5817
8.32865 72.8767
8.37339 76.4677
8.41812 83.054
8.46288 107.676
8.50761 144.473
8.55235 337.617
8.59709 1153.25
8.64183 2284.0
8.68658 913.055
8.73134 157.879
8.77609 96.2313
8.82083 90.3145
8.86558 87.793
8.91033 88.0075
8.9551 89.489
8.99985 83.882
9.04461 82.6072
9.08936 81.3386
9.13412 80.5086
9.17888 80.5543
9.22365 80.7999
9.26841 80.6144
9.31318 80.8071
9.35794 81.3309
9.4027 81.9327
9.44749 82.3491
9.49226 83.1085
9.53703 83.6336
9.5818 85.689
9.62657 89.9385
9.67134 95.7611
9.71614 91.7219
9.76091 92.2054
9.80569 94.9234
9.85047 97.7383
9.89525 118.69
9.94005 129.094
9.98484 157.921
10.0296 302.828
10.0744 780.529
10.1192 1800.64
10.164 1532.69
10.2088 358.204
10.2536 121.754
10.2984 109.714
10.3432 110.827
10.388 101.582
10.4328 111.037
10.4776 149.753
10.5224 273.769
10.5672 524.757
10.612 499.416
10.6568 196.554
10.7017 94.3231
10.7465 84.529
10.7913 81.4046
10.8361 79.7519
10.8809 77.4963
10.9257 76.8281
10.9706 76.9361
11.0154 73.2006
11.0602 71.4884
11.105 70.3226
11.1499 74.235
11.1947 80.031
11.2395 72.0858
11.2844 68.813
11.3292 65.9905
11.374 64.6774
11.4189 64.5242
11.4637 63.5089
11.5086 64.264
11.5534 66.4921
11.5983 64.0061
11.6431 62.4755
11.688 61.547
11.7328 61.5825
11.7777 61.5105
11.8225 61.1222
11.8674 61.2682
11.9122 61.5375
11.9571 61.5763
12.002 61.9832
12.0468 65.6629
12.0917 75.3643
12.1366 98.5104
12.1814 155.179
12.2263 208.027
12.2712 161.104
12.3161 94.7249
12.3609 68.663
12.4058 63.4177
12.4507 62.8799
12.4956 63.1195
12.5405 63.2033
12.5853 64.2913
12.6302 70.9458
12.6751 75.6338
12.72 68.2298
12.7649 66.5529
12.8098 66.9772
12.8547 68.0386
12.8996 69.3889
12.9445 70.7689
12.9894 72.719
13.0343 73.8999
13.0792 76.8382
13.1242 84.1019
13.1691 104.489
13.214 139.596
13.2589 235.293
13.3038 381.223
13.3487 420.591
13.3937 246.951
13.4386 118.858
13.4835 100.244
13.5285 113.03
13.5734 150.685
13.6183 248.482
13.6633 358.688
13.7082 325.945
13.7531 177.415
13.7981 94.2203
13.843 80.1756
13.888 77.7444
13.9329 75.5298
13.9779 74.2986
14.0228 72.9989
14.0678 71.6327
14.1127 71.2305
14.1577 70.9059
14.2027 70.0881
14.2476 68.7604
14.2926 69.0996
14.3376 69.9252
14.3825 68.8211
14.4275 67.7072
14.4725 67.4208
14.5175 67.5373
14.5624 67.4645
14.6074 69.6338
14.6524 69.9499
14.6974 69.0107
14.7424 69.8232
14.7874 75.2472
14.8324 84.5437
14.8774 106.257
14.9224 153.061
14.9674 214.105
15.0124 218.056
15.0574 146.231
15.1024 87.1609
15.1474 70.6325
15.1924 68.8596
15.2374 69.3415
15.2824 68.4076
15.3274 66.6764
15.3725 65.3197
15.4175 64.9522
15.4625 64.9062
15.5076 64.7787
15.5526 64.9114
15.5976 64.4699
15.6426 64.8659
15.6877 69.3787
15.7327 76.4037
15.7778 91.0439
15.8228 124.569
15.8679 173.902
15.9129 194.846
15.958 149.46
16.003 92.9971
16.0481 66.6334
16.0931 63.1967
16.1382 61.0875
16.1833 59.4128
16.2283 57.9147
16.2734 57.0651
16.3185 57.4377
16.3636 58.0615
16.4086 56.4728
16.4537 54.9916
16.4988 54.3768
16.5439 54.4843
16.589 54.0727
16.6341 53.8607
16.6792 53.3377
16.7243 53.7515
16.7694 53.8821
16.8145 53.5271
16.8596 54.267
16.9047 55.2111
16.9498 55.59
16.9949 54.5537
17.04 54.5766
17.0851 55.476
17.1302 57.0385
17.1754 59.8763
17.2205 65.2664
17.2656 73.9375
17.3108 82.7403
17.3559 80.203
17.401 69.2264
17.4462 60.6838
17.4913 57.9684
17.5365 57.9615
17.5815 57.8889
17.6268 58.3344
17.6718 58.9845
17.7171 59.5726
17.7622 59.8924
17.8074 60.5697
17.8525 62.3819
17.8977 65.8038
17.9428 70.8668
17.9881 80.1377
18.0331 98.9052
18.0784 122.863
18.1237 136.887
18.1688 125.172
18.214 99.4968
18.2591 84.0484
18.3044 89.858
18.3495 101.015
18.3948 105.145
18.4399 93.1722
18.4852 74.9245
18.5303 64.3353
18.5756 60.8748
18.6207 60.1291
18.666 59.2217
18.7112 58.6224
18.7565 57.7528
18.8016 57.4659
18.8469 56.9189
18.892 56.5654
18.9374 56.1289
18.9825 55.726
19.0278 55.8925
19.073 55.8694
19.1183 56.0978
19.1635 56.8122
19.2088 58.0351
19.254 60.6431
19.2993 65.6978
19.3447 71.9013
19.3898 74.7146
19.4352 70.1124
19.4804 61.3288
19.5257 55.4056
19.5709 53.1346
19.6163 52.6887
19.6615 52.6224
19.7068 52.1378
19.752 52.186
19.7974 52.3381
19.8426 53.1286
19.888 53.694
19.9332 54.7613
19.9786 57.628
20.0238 61.7098
20.0692 66.6927
20.1144 68.7561
20.1598 66.0609
20.205 62.1871
20.2504 61.2543
20.2957 63.5159
20.3411 64.8426
20.3863 62.1681
20.4318 56.8592
20.477 52.5055
20.5224 50.4955
20.5677 50.0774
20.6131 49.4118
20.6586 48.6208
20.7038 48.5763
20.7493 48.2386
20.7945 48.0009
20.84 47.9388
20.8853 47.8128
20.9307 47.6215
20.976 47.9543
21.0215 47.6584
21.0668 47.9344
21.1122 48.5792
21.1575 49.1987
21.203 49.9952
21.2483 50.5884
21.2938 50.2895
21.3391 48.9775
21.3846 48.0227
21.4299 47.433
21.4754 47.3748
21.5207 47.5426
21.5662 47.6856
21.6116 48.0706
21.6571 48.6774
21.7024 49.6612
21.7479 51.5183
21.7933 54.2839
21.8388 58.4587
21.8843 62.3883
21.9297 63.4928
21.9752 61.4942
22.0206 57.998
22.0661 55.7094
22.1115 55.2894
22.157 54.6911
22.2024 52.7931
22.248 50.4683
22.2933 48.7794
22.3389 48.1676
22.3843 48.0844
22.4299 47.9068
22.4753 47.7948
22.5208 47.7308
22.5662 47.389
22.6118 47.7493
22.6572 47.7633
22.7028 47.9904
22.7483 48.6526
22.7939 49.2377
22.8393 50.8082
22.8849 53.3286
22.9303 55.6628
22.9759 56.9199
23.0214 55.9695
23.067 53.2354
23.1126 49.9411
23.1581 48.2119
23.2037 47.7066
23.2492 47.7963
23.2948 47.9534
23.3403 48.1283
23.3859 48.6492
23.4314 49.7602
23.477 51.667
23.5225 54.4359
23.5682 56.4133
23.6137 57.1825
23.6593 54.3381
23.7048 50.3409
23.7505 47.3554
23.796 45.8385
23.8417 45.0821
23.8872 44.6919
23.9329 44.3499
23.9784 44.1095
24.0241 43.8561
24.0697 43.6304
24.1154 43.3412
24.1609 43.04
24.2066 42.978
24.2522 42.958
24.2979 42.6131
24.3434 42.3352
24.3892 42.4766
24.4349 42.152
24.4805 42.1095
24.5262 42.414
24.5718 42.1682
24.6175 42.2104
24.6631 41.9735
24.7089 41.6885
24.7545 41.5396
24.8002 41.4311
24.8458 41.3932
24.8916 41.2756
24.9372 41.2547
24.983 41.5008
25.0286 42.054
25.0744 42.5176
25.12 43.0681
25.1658 43.3857
25.2114 43.7954
25.2572 44.072
25.3029 44.2834
25.3487 44.2736
25.3943 43.7398
25.4402 42.5382
25.4858 41.6203
25.5316 40.6576
25.5773 40.1341
25.6231 40.0984
25.669 39.7748
25.7147 39.764
25.7605 39.6468
25.8062 39.6744
25.8521 39.8974
25.8977 39.7638
25.9436 40.0236
25.9893 40.3394
26.0352 40.8321
26.0809 40.9095
26.1268 40.9075
26.1725 40.5443
26.2184 39.8448
26.2641 39.416
26.31 39.3143
26.3557 39.2731
26.4017 39.2105
26.4474 39.6579
26.4933 39.963
26.5391 40.5714
26.585 41.1021
26.6308 41.4592
26.6767 41.5038
26.7225 41.249
26.7684 40.7101
26.8142 40.0625
26.8601 39.7677
26.9059 39.1994
26.9519 38.7279
26.9979 38.4757
27.0437 38.2457
27.0896 37.951
27.1354 37.9789
27.1814 37.9011
27.2272 37.8649
27.2732 37.8461
27.3191 37.6788
27.3651 37.6846
27.4109 37.7901
27.4569 37.7903
27.5027 37.7184
27.5488 37.9535
27.5946 37.731
27.6407 37.5227
27.6865 37.4054
27.7326 37.1687
27.7784 37.1471
27.8245 37.0525
27.8703 37.3044
27.9164 37.7124
27.9623 37.7667
28.0084 38.0787
28.0543 38.4582
28.1003 38.3045
28.1462 38.1551
28.1923 37.7336
28.2384 37.2843
28.2843 36.9231
28.3304 36.4557
28.3764 36.1299
28.4225 35.663
28.4684 35.6839
28.5145 35.1858
28.5605 35.2364
28.6066 35.0286
28.6526 34.9566
28.6987 35.0208
28.7447 34.8261
28.7908 34.8484
28.8368 34.86
28.8829 34.8097
28.9289 34.6597
28.9751 34.4074
29.0211 34.2607
29.0673 34.0329
29.1133 33.942
29.1595 33.7267
29.2055 33.7949
29.2517 33.8001
29.2977 33.7269
29.3439 33.7065
29.3899 33.6876
29.4361 33.4832
29.4824 33.3648
29.5284 33.0546
29.5746 32.8162
29.6207 32.5887
29.6669 32.4992
29.713 32.393
29.7593 32.2361
29.8053 32.2843
29.8516 32.2102
29.8977 32.1486
29.9439 32.0213
29.99 32.0493
30.0363 31.8394
30.0824 31.824
30.1287 31.9512
30.1748 31.8367
30.2211 31.9377
30.2673 31.617
30.3136 31.7699
30.3597 31.6663
30.406 31.5377
30.4522 31.4006
30.4985 31.5402
30.5447 31.5274
30.591 31.4177
30.6372 31.6868
30.6835 31.604
30.7297 31.6063
30.7761 31.5509
30.8224 31.4774
30.8686 31.2352
30.915 31.0781
30.9612 30.9644
31.0076 30.6962
31.0538 30.6415
31.1002 30.6086
31.1464 30.3216
31.1928 30.4791
31.2391 30.4181
31.2855 30.4107
31.3317 30.3166
31.3781 30.4384
31.4244 30.395
31.4708 30.213
31.5171 30.2366
31.5636 30.2341
31.6098 30.0142
31.6563 29.7621
31.7026 29.6421
31.7491 29.5685
31.7953 29.5765
31.8418 29.6794
31.8881 29.6129
31.9346 29.5266
31.9809 29.554
32.0275 29.3602
32.074 29.2838
32.1203 29.043
32.1668 28.8996
32.2132 28.8424
32.2597 28.6756
32.306 28.6658
32.3526 28.5461
32.399 28.4809
32.4455 28.144
32.4919 28.1919
32.5385 28.181
32.5848 28.0501
32.6314 27.9969
32.6778 27.8536
32.7244 27.8668
32.7708 27.6199
32.8174 27.6728
32.8638 27.5443
32.9104 27.5527
32.9569 27.4793
33.0035 27.3951
33.0499 27.35
33.0966 27.3336
33.143 27.3824
33.1897 27.2349
33.2361 27.1636
33.2828 27.0844
33.3293 26.9197
33.3759 26.9424
33.4226 26.7711
33.4691 26.5491
33.5158 26.6368
33.5623 26.4067
33.609 26.335
33.6555 26.2686
33.7022 26.1574
33.7487 26.0783
33.7954 26.0172
33.842 25.8531
33.8887 25.9078
33.9353 25.868
33.982 25.6505
34.0286 25.5457
34.0753 25.5245
34.1219 25.4406
34.1687 25.3701
34.2152 25.3281
34.262 25.1768
34.3086 25.0771
34.3554 25.0719
34.402 24.8799
34.4488 24.8593
34.4954 24.8291
34.5422 24.776
34.5889 24.5675
34.6357 24.6079
34.6825 24.5283
34.7292 24.4355
34.776 24.3021
34.8227 24.296
34.8695 24.2313
34.9162 24.1492
34.9631 24.0327
35.0098 24.0559
35.0566 23.9383
35.1033 23.8786
35.1502 23.8591
35.1969 23.7814
35.2438 23.7792
35.2906 23.6818
35.3375 23.551
35.3842 23.5828
35.4311 23.6119
35.4779 23.4196
35.5248 23.4404
35.5716 23.3333
35.6185 23.2661
35.6653 23.2079
35.7123 23.0575
35.759 23.0206
35.806 22.9561
35.8528 22.8783
35.8998 22.7933
35.9468 22.6884
35.9936 22.6081
36.0406 22.5941
36.0874 22.6295
36.1345 22.5065
36.1813 22.4351
36.2283 22.23
36.2752 22.2473
36.3222 22.2465
36.3691 22.2114
36.4161 22.0418
36.463 22.0958
36.5101 22.0243
36.557 21.8865
36.6041 21.7721
36.651 21.7896
36.6981 21.8134
36.745 21.6499
36.7921 21.6075
36.839 21.4815
36.8861 21.4431
36.9331 21.3699
36.9802 21.2711
37.0272 21.1858
37.0743 21.1683
37.1213 21.0606
37.1684 20.9489
37.2154 20.9244
37.2626 20.9153
37.3098 20.9151
37.3568 20.7106
37.404 20.7204
37.451 20.5918
37.4982 20.5984
37.5452 20.5179
37.5924 20.4308
37.6395 20.4907
37.6867 20.3967
37.7337 20.2831
37.781 20.221
37.8281 20.1237
37.8753 20.0769
37.9224 19.9357
37.9697 19.8732
38.0168 19.8777
38.064 19.7995
38.1111 19.7246
38.1584 19.6399
38.2056 19.582
38.2529 19.5401
38.3 19.4929
38.3473 19.4434
38.3945 19.3351
38.4418 19.3039
38.489 19.2525
38.5363 19.1459
38.5837 19.0748
38.6309 19.0799
38.6782 18.9387
38.7254 18.9155
38.7728 18.8969
38.82 18.8251
38.8674 18.7483
38.9146 18.7134
38.9621 18.5913
39.0093 18.6002
39.0567 18.518
39.104 18.4397
39.1514 18.3294
39.1987 18.33
39.2461 18.275
39.2934 18.2598
39.3409 18.1689
39.3882 18.0261
39.4356 18.1245
39.483 18.0261
39.5304 17.9025
39.5778 17.945
39.6253 17.8136
39.6726 17.8066
39.7201 17.7344
39.7675 17.7001
39.815 17.6366
39.8624 17.5255
39.9099 17.566
39.9575 17.452
40.0049 17.4134
40.0525 17.2778
40.0999 17.27
40.1474 17.2283
40.1949 17.1552
40.2425 17.1022
40.2899 17.0465
40.3375 17.0179
40.385 16.9891
40.4326 16.8954
40.48 16.7918
40.5277 16.8031
40.5752 16.7255
40.6228 16.6607
40.6703 16.6074
40.718 16.54
40.7655 16.4989
40.8132 16.4645
40.8607 16.4643
40.9084 16.3862
40.9559 16.3329
41.0036 16.2854
41.0512 16.1942
41.0989 16.1992
41.1465 16.1303
41.1942 16.0808
41.242 15.9238
41.2896 15.9007
41.3373 15.8578
41.3849 15.8326
41.4327 15.764
41.4803 15.7163
41.5281 15.6627
41.5758 15.6126
41.6236 15.6049
41.6712 15.5056
41.7191 15.4882
41.7667 15.4184
41.8146 15.3666
41.8622 15.2989
41.9101 15.2445
41.9578 15.2049
42.0057 15.204
42.0534 15.0684
42.1013 15.0785
42.149 14.9874
42.1969 14.9321
42.2446 14.8727
42.2925 14.8534
42.3403 14.7963
42.3882 14.7523
42.436 14.6921
42.4839 14.6625
42.5319 14.5907
42.5797 14.5595
42.6277 14.5185
42.6755 14.4836
42.7235 14.4114
42.7713 14.4052
42.8193 14.3368
42.8671 14.249
42.9152 14.1747
42.963 14.2126
43.0111 14.0885
43.0589 14.0957
43.107 14.0128
43.1549 14.0178
43.2029 13.9441
43.2508 13.9055
43.2989 13.8068
43.3468 13.7712
43.3949 13.7452
43.4429 13.6581
43.491 13.6052
43.5389 13.576
43.5871 13.6039
43.635 13.4979
43.6832 13.4382
43.7312 13.3872
43.7793 13.3617
43.8273 13.3192
43.8755 13.2933
43.9237 13.1872
43.9717 13.1978
44.0199 13.1503
44.068 13.12
44.1162 13.0992
44.1642 12.9806
44.2125 12.9549
44.2606 12.9463
44.3088 12.8473
44.3569 12.8473
44.4052 12.7438
44.4533 12.7275
44.5016 12.6602
44.5497 12.6563
44.598 12.5472
44.6461 12.5543
44.6945 12.5568
44.7426 12.4619
44.791 12.399
44.8391 12.4165
44.8875 12.3857
44.9357 12.3005
44.984 12.2235
45.0322 12.2206
45.0806 12.1492
45.1288 12.108
45.1773 12.0874
45.2257 12.0355
45.2739 12.0039
45.3224 11.9744
45.3706 11.9502
45.4191 11.8181
45.4673 11.851
45.5158 11.7973
45.5641 11.7366
45.6126 11.7131
45.6609 11.6341
45.7094 11.6187
45.7577 11.5505
45.8063 11.5314
45.8546 11.5037
45.9031 11.4372
45.9515 11.4415
46.0001 11.3831
46.0484 11.3005
46.097 11.3025
46.1454 11.2454
46.194 11.2237
46.2424 11.1501
46.291 11.1299
46.3395 11.0909
46.3881 11.008
46.4365 11.0435
46.4852 10.9861
46.5337 10.892
46.5823 10.8842
46.631 10.8223
46.6795 10.8238
46.7282 10.7622
46.7767 10.712
46.8254 10.6707
46.8739 10.6489
46.9226 10.5917
46.9712 10.5723
47.0199 10.4865
47.0685 10.4987
47.1173 10.4924
47.1658 10.3968
47.2146 10.4003
47.2632 10.3214
47.312 10.2962
47.3606 10.2867
47.4095 10.2182
47.4581 10.1841
47.5069 10.128
47.5556 10.1059
47.6044 10.0896
47.6531 10.032
47.702 9.95218
47.7507 9.96354
47.7996 9.92146
47.8483 9.90361
47.8972 9.88381
47.9461 9.8056
47.9948 9.76531
48.0438 9.73864
48.0925 9.71132
48.1415 9.7192
48.1902 9.65401
48.2392 9.61762
48.288 9.59803
48.337 9.49391
48.3858 9.52251
48.4348 9.48057
48.4837 9.42565
48.5327 9.41466
48.5815 9.38317
48.6306 9.33462
48.6795 9.3006
48.7285 9.26483
48.7774 9.24027
48.8265 9.20665
48.8754 9.16565
48.9245 9.18283
48.9734 9.05632
49.0226 9.07786
49.0715 9.02044
49.1206 8.98204
49.1696 8.99142
49.2188 8.92257
49.2679 8.9053
49.3169 8.84803
49.3661 8.84661
49.4151 8.77889
49.4643 8.7799
49.5134 8.70886
49.5626 8.68362
49.6117 8.66028
49.6609 8.63316
49.71 8.5777
49.7592 8.56057
49.8083 8.50191
49.8576 8.48903
49.9067 8.44367
49.956 8.42438
50.0052 8.39856
50.0545 8.37247
50.1036 8.28584
50.153 8.30318
50.2022 8.28668
50.2515 8.20945
50.3007 8.18077
50.3501 8.16574
50.3993 8.1533
50.4487 8.10752
50.498 8.06707
50.5474 8.02608
50.5966 8.00229
50.6461 7.96267
50.6955 7.96121
50.7448 7.94491
50.7943 7.87515
50.8436 7.83133
50.8931 7.84076
50.9424 7.77888
50.9919 7.76543
51.0413 7.73705
51.0908 7.67311
51.1402 7.66664
51.1897 7.66953
51.2391 7.61463
51.2887 7.55618
51.3381 7.52902
51.3877 7.51396
51.4371 7.46322
51.4867 7.45804
51.5362 7.43119
51.5858 7.36557
51.6353 7.36306
51.6849 7.35929
51.7344 7.30398
51.7841 7.29235
51.8336 7.23459
51.8833 7.17931
51.9328 7.16988
51.9826 7.14929
52.0323 7.09889
52.0818 7.09981
52.1316 7.06177
52.1812 7.09637
52.231 7.015
52.2806 7.02614
52.3304 6.96041
52.38 6.9203
52.4298 6.88451
52.4794 6.8344
52.5293 6.81408
52.5789 6.8298
52.6288 6.81992
52.6785 6.73289
52.7284 6.75608
52.7781 6.70127
52.828 6.657
52.8777 6.63373
52.9276 6.61229
52.9774 6.58293
53.0273 6.61348
53.0771 6.52011
53.1271 6.56445
53.1769 6.51044
53.2269 6.45243
53.2767 6.41926
53.3267 6.39435
53.3765 6.37633
53.4266 6.33845
53.4766 6.33746
53.5265 6.25526
53.5765 6.23819
53.6264 6.235
53.6765 6.21832
53.7264 6.17071
53.7765 6.15984
53.8265 6.13216
53.8766 6.13419
53.9266 6.07473
53.9767 6.05433
54.0267 6.04179
54.0769 6.0196
54.1269 6.00326
54.1771 5.93904
54.2271 5.92105
54.2773 5.87342
54.3274 5.86126
54.3776 5.79164
54.4277 5.77826
54.478 5.76834
54.528 5.70397
54.5783 5.68506
54.6285 5.68642
54.6788 5.6127
54.7289 5.50432
54.7792 5.50039
54.8296 5.50516
54.8798 5.41572
54.9301 5.37933
54.9803 5.33854
55.0307 5.33122
55.0809 5.24297
55.1314 5.25005
55.1816 5.20966
55.232 5.14505
55.2823 5.16625
55.3328 5.02179
55.383 4.99084
55.4335 4.95667
55.4838 4.87975
55.5344 4.92782
55.5847 4.86108
55.6352 4.79642
55.6856 4.79332
55.7361 4.70167