File: XRD/Ni3Fe_FD0420.xy
TT I
1.27165 7.78272
1.31627 6.92855
1.36089 6.55742
1.40551 6.72492
1.45013 6.63445
1.49476 5.9139
1.53938 6.05937
1.584 5.76079
1.62863 4.98169
1.67325 5.28271
1.71787 5.95324
1.7625 4.95192
1.80712 4.77284
1.85174 4.43399
1.89636 4.7914
1.94099 5.34043
1.98562 4.86193
2.03025 4.94402
2.07487 4.87909
2.11949 4.84141
2.16411 4.76462
2.20874 17.6181
2.25338 30.9193
2.298 5.90683
2.34263 5.6197
2.38725 5.25865
2.43188 5.8843
2.4765 6.31651
2.52115 6.39357
2.56577 6.52044
2.6104 7.31922
2.65503 7.44267
2.69965 8.09595
2.7443 7.74503
2.78893 8.22261
2.83356 7.72565
2.87818 8.26709
2.92281 8.63321
2.96744 9.6109
3.01209 10.4783
3.05672 11.2683
3.10135 12.3598
3.14599 12.6599
3.19062 14.063
3.23527 15.3974
3.2799 15.9318
3.32454 17.4431
3.36917 17.7614
3.4138 19.3767
3.45844 19.827
3.50309 21.4601
3.54773 22.302
3.59237 25.6705
3.637 122.534
3.68164 75.0238
3.7263 27.6271
3.77094 27.0399
3.81558 27.5948
3.86022 28.0215
3.90486 29.2582
3.9495 30.4062
3.99416 31.3515
4.0388 32.8405
4.08344 34.0811
4.12809 36.1621
4.17273 38.5724
4.21738 45.7681
4.26204 334.214
4.30669 296.77
4.35133 52.258
4.39598 45.7818
4.44063 57.9151
4.4853 74.1426
4.52995 52.1883
4.5746 52.0401
4.61925 54.0245
4.6639 56.1224
4.70855 58.4073
4.75322 61.4336
4.79788 64.9446
4.84253 67.8744
4.88719 72.6814
4.93184 76.3656
4.97652 81.6009
5.02118 88.441
5.06583 96.5244
5.11049 109.815
5.15515 203.392
5.19981 420.114
5.24449 2839.18
5.28916 11449.5
5.33382 3643.46
5.37848 223.671
5.42315 137.493
5.46783 118.505
5.5125 108.731
5.55716 104.583
5.60183 101.288
5.6465 98.95
5.69117 96.371
5.73586 94.1364
5.78053 93.6033
5.8252 92.8265
5.86988 93.9898
5.91455 96.6819
5.95924 105.899
6.00392 227.113
6.0486 991.859
6.09328 3840.4
6.13795 3625.16
6.18263 312.582
6.22733 100.589
6.27201 87.0284
6.3167 116.05
6.36138 86.8244
6.40606 71.0924
6.45075 69.1375
6.49545 67.0559
6.54014 65.36
6.58483 64.4945
6.62952 64.4269
6.67421 107.054
6.71892 183.35
6.76361 74.8332
6.8083 60.9172
6.853 59.3015
6.89769 58.4134
6.94239 58.0318
6.98711 57.2471
7.03181 56.8103
7.07651 56.9956
7.12121 56.8056
7.16591 57.3298
7.21063 57.4125
7.25533 76.6676
7.30004 235.207
7.34475 110.0
7.38945 58.7282
7.43416 55.9651
7.47889 55.8752
7.5236 56.2557
7.56831 56.5231
7.61303 58.9336
7.65774 59.737
7.70247 57.4054
7.74719 57.3489
7.79191 57.9747
7.83663 58.1742
7.88135 59.0591
7.92607 59.995
7.97081 61.1145
8.01553 62.0903
8.06026 63.5899
8.10498 65.331
8.14971 77.7855
8.19446 76.2794
8.23919 70.9486
8.28392 72.766
8.32865 75.3856
8.37339 79.6799
8.41812 87.7462
8.46288 126.493
8.50761 175.577
8.55235 396.989
8.59709 1060.14
8.64183 2088.79
8.68658 1145.28
8.73134 193.922
8.77609 104.333
8.82083 95.5326
8.86558 91.9187
8.91033 92.643
8.9551 96.0562
8.99985 87.3387
9.04461 84.738
9.08936 84.2855
9.13412 83.1658
9.17888 83.3632
9.22365 84.5953
9.26841 83.2686
9.31318 83.7086
9.35794 83.9618
9.4027 84.5678
9.44749 84.9436
9.49226 85.9994
9.53703 86.9351
9.5818 88.742
9.62657 94.8798
9.67134 104.115
9.71614 96.0588
9.76091 95.3378
9.80569 98.1752
9.85047 102.199
9.89525 133.998
9.94005 150.602
9.98484 183.856
10.0296 350.961
10.0744 738.339
10.1192 1571.49
10.164 1769.15
10.2088 506.834
10.2536 140.366
10.2984 119.499
10.3432 122.276
10.388 108.282
10.4328 121.637
10.4776 162.526
10.5224 260.943
10.5672 468.685
10.612 523.354
10.6568 231.436
10.7017 101.877
10.7465 88.9024
10.7913 85.0272
10.8361 82.8656
10.8809 80.8801
10.9257 80.4225
10.9706 82.2772
11.0154 76.8057
11.0602 74.6757
11.105 73.6739
11.1499 79.656
11.1947 91.1754
11.2395 78.8805
11.2844 73.2001
11.3292 68.9782
11.374 67.6576
11.4189 67.0597
11.4637 66.2458
11.5086 67.369
11.5534 71.9299
11.5983 67.9129
11.6431 65.0362
11.688 64.5475
11.7328 64.2656
11.7777 64.0638
11.8225 64.0272
11.8674 63.5771
11.9122 64.2108
11.9571 64.0249
12.002 65.0307
12.0468 69.2759
12.0917 81.2177
12.1366 102.237
12.1814 141.191
12.2263 201.712
12.2712 185.253
12.3161 111.811
12.3609 75.2172
12.4058 66.774
12.4507 65.8958
12.4956 66.0124
12.5405 65.8608
12.5853 66.9209
12.6302 77.8133
12.6751 85.791
12.72 73.0972
12.7649 69.4744
12.8098 69.6021
12.8547 71.145
12.8996 72.2843
12.9445 73.6276
12.9894 75.2945
13.0343 77.2581
13.0792 80.2994
13.1242 89.7633
13.1691 115.048
13.214 148.974
13.2589 220.199
13.3038 336.382
13.3487 434.46
13.3937 302.699
13.4386 139.246
13.4835 109.379
13.5285 123.234
13.5734 154.989
13.6183 226.007
13.6633 326.905
13.7082 363.78
13.7531 219.393
13.7981 106.419
13.843 84.3566
13.888 81.3318
13.9329 78.904
13.9779 77.5079
14.0228 76.1984
14.0678 74.583
14.1127 73.9635
14.1577 74.3813
14.2027 73.2623
14.2476 71.7232
14.2926 72.3738
14.3376 74.2146
14.3825 72.2843
14.4275 70.2885
14.4725 70.0152
14.5175 70.2962
14.5624 70.5027
14.6074 73.3408
14.6524 74.1318
14.6974 71.9089
14.7424 73.3729
14.7874 80.4461
14.8324 90.5306
14.8774 109.102
14.9224 143.311
14.9674 194.893
15.0124 224.637
15.0574 166.091
15.1024 100.698
15.1474 75.2045
15.1924 72.6033
15.2374 73.7927
15.2824 73.138
15.3274 70.1536
15.3725 68.58
15.4175 67.9192
15.4625 67.5665
15.5076 67.8667
15.5526 67.8155
15.5976 67.162
15.6426 68.08
15.6877 73.7053
15.7327 81.5156
15.7778 94.1761
15.8228 118.993
15.8679 156.699
15.9129 193.111
15.958 171.503
16.003 108.064
16.0481 71.8246
16.0931 67.4206
16.1382 65.0777
16.1833 62.4213
16.2283 60.3131
16.2734 59.6911
16.3185 60.4882
16.3636 61.7629
16.4086 59.673
16.4537 57.4685
16.4988 56.8102
16.5439 56.6601
16.589 56.5827
16.6341 56.1339
16.6792 55.8192
16.7243 56.1316
16.7694 56.3052
16.8145 56.1431
16.8596 56.6408
16.9047 58.9504
16.9498 59.2682
16.9949 57.3294
17.04 57.1045
17.0851 58.2594
17.1302 59.9913
17.1754 62.7744
17.2205 66.468
17.2656 72.9166
17.3108 81.3298
17.3559 84.0351
17.401 74.7791
17.4462 64.5455
17.4913 60.5545
17.5365 60.461
17.5815 60.5612
17.6268 60.9195
17.6718 61.6583
17.7171 62.437
17.7622 62.4395
17.8074 62.8167
17.8525 65.2282
17.8977 69.4368
17.9428 75.1368
17.9881 82.6786
18.0331 95.969
18.0784 114.816
18.1237 137.273
18.1688 137.858
18.214 112.475
18.2591 89.7133
18.3044 88.8017
18.3495 97.2756
18.3948 107.177
18.4399 102.407
18.4852 83.2564
18.5303 68.7437
18.5756 63.8848
18.6207 62.7483
18.666 61.7106
18.7112 61.1017
18.7565 60.4263
18.8016 59.6786
18.8469 59.2414
18.892 59.1271
18.9374 58.2747
18.9825 58.2194
19.0278 58.3436
19.073 58.4125
19.1183 58.8758
19.1635 59.7357
19.2088 60.8117
19.254 62.8316
19.2993 66.2932
19.3447 72.1423
19.3898 77.6843
19.4352 75.9728
19.4804 66.6971
19.5257 58.8656
19.5709 55.4828
19.6163 55.3212
19.6615 54.911
19.7068 54.4503
19.752 54.41
19.7974 54.6813
19.8426 55.5933
19.888 56.2621
19.9332 57.4196
19.9786 59.3585
20.0238 61.9894
20.0692 66.8249
20.1144 70.5697
20.1598 70.5274
20.205 65.6284
20.2504 62.8124
20.2957 63.7662
20.3411 66.2918
20.3863 66.45
20.4318 61.3213
20.477 55.8726
20.5224 53.3483
20.5677 52.3804
20.6131 51.5305
20.6586 50.7924
20.7038 50.6334
20.7493 50.2637
20.7945 50.2311
20.84 50.0154
20.8853 49.7782
20.9307 49.619
20.976 49.6001
21.0215 49.6786
21.0668 50.1889
21.1122 50.4973
21.1575 50.9187
21.203 51.6695
21.2483 52.249
21.2938 52.7552
21.3391 51.3335
21.3846 50.2717
21.4299 49.6621
21.4754 49.3428
21.5207 49.5739
21.5662 49.782
21.6116 50.1704
21.6571 50.9666
21.7024 51.7979
21.7479 53.4153
21.7933 55.685
21.8388 58.6574
21.8843 62.5582
21.9297 65.5342
21.9752 65.3523
22.0206 61.9286
22.0661 58.1702
22.1115 57.0011
22.157 57.4044
22.2024 56.2389
22.248 53.4349
22.2933 51.3815
22.3389 50.2256
22.3843 50.3668
22.4299 50.1245
22.4753 50.0253
22.5208 49.6011
22.5662 49.4881
22.6118 49.7731
22.6572 49.949
22.7028 50.3245
22.7483 50.8175
22.7939 51.4489
22.8393 52.6157
22.8849 54.4514
22.9303 56.2617
22.9759 58.5184
23.0214 59.2105
23.067 56.8293
23.1126 52.9538
23.1581 50.5633
23.2037 49.9703
23.2492 50.1178
23.2948 49.9426
23.3403 50.1018
23.3859 50.8812
23.4314 51.5345
23.477 53.0202
23.5225 54.6742
23.5682 57.097
23.6137 58.9985
23.6593 57.973
23.7048 53.975
23.7505 50.1406
23.796 47.9908
23.8417 47.2225
23.8872 46.5811
23.9329 46.2394
23.9784 45.8953
24.0241 45.7341
24.0697 45.5569
24.1154 45.1301
24.1609 45.0982
24.2066 44.7504
24.2522 44.7172
24.2979 44.3584
24.3434 44.2323
24.3892 44.1366
24.4349 44.1774
24.4805 43.9318
24.5262 44.0889
24.5718 43.8459
24.6175 43.9316
24.6631 43.7625
24.7089 43.6004
24.7545 43.6113
24.8002 43.2551
24.8458 43.1882
24.8916 43.0339
24.9372 43.1016
24.983 43.4363
25.0286 43.7214
25.0744 43.9248
25.12 44.4774
25.1658 45.2045
25.2114 45.4873
25.2572 45.6193
25.3029 45.6282
25.3487 45.8211
25.3943 45.7267
25.4402 44.7369
25.4858 43.7035
25.5316 42.564
25.5773 41.7256
25.6231 41.8911
25.669 41.5114
25.7147 41.3645
25.7605 41.407
25.8062 41.5595
25.8521 41.5313
25.8977 41.4768
25.9436 41.5825
25.9893 41.6448
26.0352 42.1811
26.0809 42.2931
26.1268 42.6906
26.1725 42.5869
26.2184 41.9018
26.2641 41.2632
26.31 41.1176
26.3557 41.199
26.4017 40.9318
26.4474 41.1743
26.4933 41.5772
26.5391 41.9784
26.585 42.348
26.6308 42.8711
26.6767 42.9708
26.7225 42.9401
26.7684 42.474
26.8142 41.8971
26.8601 41.4448
26.9059 41.0128
26.9519 40.619
26.9979 40.1719
27.0437 39.7083
27.0896 39.6589
27.1354 39.6564
27.1814 39.3687
27.2272 39.348
27.2732 39.4424
27.3191 39.2617
27.3651 39.2895
27.4109 39.3393
27.4569 39.2059
27.5027 39.3424
27.5488 39.4506
27.5946 39.2432
27.6407 39.0977
27.6865 38.9081
27.7326 38.7448
27.7784 38.6882
27.8245 38.6872
27.8703 38.7506
27.9164 39.0642
27.9623 39.0084
28.0084 39.3958
28.0543 39.8865
28.1003 39.7818
28.1462 39.73
28.1923 39.2854
28.2384 38.8162
28.2843 38.6799
28.3304 38.2601
28.3764 37.6363
28.4225 37.2927
28.4684 37.1385
28.5145 36.7979
28.5605 36.6701
28.6066 36.5248
28.6526 36.4407
28.6987 36.3007
28.7447 36.3269
28.7908 36.2426
28.8368 36.1797
28.8829 36.208
28.9289 36.1226
28.9751 35.9702
29.0211 35.9086
29.0673 35.39
29.1133 35.2419
29.1595 35.1911
29.2055 35.2154
29.2517 35.1259
29.2977 34.9997
29.3439 35.0146
29.3899 34.9179
29.4361 34.8951
29.4824 34.7365
29.5284 34.5278
29.5746 34.2875
29.6207 33.9371
29.6669 33.8955
29.713 33.819
29.7593 33.612
29.8053 33.5674
29.8516 33.5664
29.8977 33.5709
29.9439 33.3584
29.99 33.2215
30.0363 33.2553
30.0824 33.2783
30.1287 33.0526
30.1748 33.1414
30.2211 33.162
30.2673 33.0876
30.3136 33.0883
30.3597 33.0025
30.406 32.9326
30.4522 32.7976
30.4985 32.8022
30.5447 32.7315
30.591 32.6549
30.6372 32.9241
30.6835 32.8012
30.7297 32.809
30.7761 32.9131
30.8224 32.7207
30.8686 32.5226
30.915 32.4233
30.9612 32.2387
31.0076 32.0804
31.0538 32.0217
31.1002 31.7615
31.1464 31.6565
31.1928 31.6569
31.2391 31.6631
31.2855 31.451
31.3317 31.5977
31.3781 31.533
31.4244 31.4943
31.4708 31.5427
31.5171 31.5098
31.5636 31.5345
31.6098 31.2408
31.6563 31.104
31.7026 30.8947
31.7491 30.8383
31.7953 30.8343
31.8418 30.7608
31.8881 30.7712
31.9346 30.7068
31.9809 30.6535
32.0275 30.5903
32.074 30.5606
32.1203 30.2752
32.1668 30.2181
32.2132 30.0691
32.2597 29.9281
32.306 29.8626
32.3526 29.6739
32.399 29.6338
32.4455 29.4846
32.4919 29.3468
32.5385 29.2995
32.5848 29.1893
32.6314 29.1608
32.6778 29.0329
32.7244 28.8662
32.7708 28.8097
32.8174 28.772
32.8638 28.6796
32.9104 28.692
32.9569 28.676
33.0035 28.4993
33.0499 28.41
33.0966 28.3465
33.143 28.3587
33.1897 28.2245
33.2361 28.1987
33.2828 28.204
33.3293 28.0776
33.3759 28.0672
33.4226 27.9505
33.4691 27.6978
33.5158 27.5587
33.5623 27.4772
33.609 27.4199
33.6555 27.2655
33.7022 27.2238
33.7487 27.1823
33.7954 27.077
33.842 26.8922
33.8887 26.9211
33.9353 26.8339
33.982 26.7552
34.0286 26.6322
34.0753 26.5375
34.1219 26.3579
34.1687 26.4581
34.2152 26.4279
34.262 26.2683
34.3086 26.1843
34.3554 26.1476
34.402 26.0096
34.4488 25.8301
34.4954 25.8585
34.5422 25.7355
34.5889 25.6458
34.6357 25.5148
34.6825 25.4491
34.7292 25.4685
34.776 25.2774
34.8227 25.1822
34.8695 25.1902
34.9162 25.1446
34.9631 25.0353
35.0098 25.0197
35.0566 24.8856
35.1033 24.8669
35.1502 24.8023
35.1969 24.7896
35.2438 24.7171
35.2906 24.5945
35.3375 24.5896
35.3842 24.4992
35.4311 24.4908
35.4779 24.4895
35.5248 24.4167
35.5716 24.3116
35.6185 24.2322
35.6653 24.1398
35.7123 24.0874
35.759 23.9779
35.806 23.8927
35.8528 23.8124
35.8998 23.7154
35.9468 23.6572
35.9936 23.5997
36.0406 23.5569
36.0874 23.5414
36.1345 23.4673
36.1813 23.3106
36.2283 23.2532
36.2752 23.122
36.3222 23.1826
36.3691 23.0936
36.4161 22.9342
36.463 22.9701
36.5101 22.9429
36.557 22.803
36.6041 22.6897
36.651 22.6658
36.6981 22.5962
36.745 22.5854
36.7921 22.4301
36.839 22.3334
36.8861 22.2763
36.9331 22.2298
36.9802 22.1067
37.0272 22.0232
37.0743 21.936
37.1213 21.9304
37.1684 21.8759
37.2154 21.7316
37.2626 21.7169
37.3098 21.7001
37.3568 21.5823
37.404 21.5873
37.451 21.396
37.4982 21.398
37.5452 21.306
37.5924 21.3303
37.6395 21.3259
37.6867 21.18
37.7337 21.0902
37.781 21.0451
37.8281 20.9267
37.8753 20.8655
37.9224 20.7487
37.9697 20.7186
38.0168 20.5733
38.064 20.5838
38.1111 20.6552
38.1584 20.4765
38.2056 20.3398
38.2529 20.3675
38.3 20.2044
38.3473 20.2649
38.3945 20.0736
38.4418 20.1325
38.489 19.9891
38.5363 19.9009
38.5837 19.8735
38.6309 19.7944
38.6782 19.7979
38.7254 19.6756
38.7728 19.6243
38.82 19.5479
38.8674 19.5611
38.9146 19.4563
38.9621 19.3879
39.0093 19.3524
39.0567 19.343
39.104 19.2224
39.1514 19.1383
39.1987 19.0445
39.2461 19.0448
39.2934 19.0105
39.3409 18.9119
39.3882 18.8242
39.4356 18.7529
39.483 18.7453
39.5304 18.6183
39.5778 18.6218
39.6253 18.5571
39.6726 18.4764
39.7201 18.5407
39.7675 18.3609
39.815 18.3841
39.8624 18.302
39.9099 18.2446
39.9575 18.1997
40.0049 18.1016
40.0525 18.023
40.0999 17.999
40.1474 17.9334
40.1949 17.8564
40.2425 17.8146
40.2899 17.7593
40.3375 17.6993
40.385 17.6121
40.4326 17.5904
40.48 17.5348
40.5277 17.497
40.5752 17.4028
40.6228 17.356
40.6703 17.3182
40.718 17.2585
40.7655 17.1513
40.8132 17.1057
40.8607 17.1373
40.9084 17.0845
40.9559 17.0069
41.0036 16.9768
41.0512 16.9249
41.0989 16.8665
41.1465 16.7373
41.1942 16.6854
41.242 16.6216
41.2896 16.5591
41.3373 16.4891
41.3849 16.4014
41.4327 16.4594
41.4803 16.3262
41.5281 16.2911
41.5758 16.3174
41.6236 16.1612
41.6712 16.1237
41.7191 16.0657
41.7667 16.0485
41.8146 16.0401
41.8622 15.9371
41.9101 15.9088
41.9578 15.7902
42.0057 15.7871
42.0534 15.749
42.1013 15.7477
42.149 15.5424
42.1969 15.6232
42.2446 15.5344
42.2925 15.4429
42.3403 15.4078
42.3882 15.35
42.436 15.3222
42.4839 15.281
42.5319 15.1741
42.5797 15.1683
42.6277 15.0858
42.6755 15.0607
42.7235 14.9998
42.7713 14.9983
42.8193 14.913
42.8671 14.8471
42.9152 14.8274
42.963 14.7667
43.0111 14.6493
43.0589 14.626
43.107 14.5859
43.1549 14.5484
43.2029 14.4726
43.2508 14.4861
43.2989 14.3825
43.3468 14.3487
43.3949 14.2731
43.4429 14.2529
43.491 14.1818
43.5389 14.1756
43.5871 14.1398
43.635 14.0459
43.6832 14.0545
43.7312 13.9414
43.7793 13.9025
43.8273 13.8903
43.8755 13.7796
43.9237 13.7834
43.9717 13.769
44.0199 13.6682
44.068 13.6486
44.1162 13.5291
44.1642 13.5429
44.2125 13.4988
44.2606 13.4088
44.3088 13.3675
44.3569 13.3324
44.4052 13.2719
44.4533 13.2387
44.5016 13.1607
44.5497 13.143
44.598 13.1006
44.6461 13.0865
44.6945 13.0193
44.7426 13.0037
44.791 12.9284
44.8391 12.9029
44.8875 12.8543
44.9357 12.7816
44.984 12.7609
45.0322 12.6457
45.0806 12.6178
45.1288 12.6356
45.1773 12.5647
45.2257 12.511
45.2739 12.4797
45.3224 12.4439
45.3706 12.4252
45.4191 12.3237
45.4673 12.3284
45.5158 12.2372
45.5641 12.2232
45.6126 12.1526
45.6609 12.1588
45.7094 12.0878
45.7577 11.9962
45.8063 11.9833
45.8546 11.9582
45.9031 11.9299
45.9515 11.8659
46.0001 11.8378
46.0484 11.8098
46.097 11.7632
46.1454 11.6543
46.194 11.6576
46.2424 11.6437
46.291 11.6156
46.3395 11.4795
46.3881 11.4916
46.4365 11.4857
46.4852 11.4099
46.5337 11.3202
46.5823 11.3341
46.631 11.2415
46.6795 11.2546
46.7282 11.2329
46.7767 11.1282
46.8254 11.0869
46.8739 11.0784
46.9226 11.0599
46.9712 10.9802
47.0199 10.9304
47.0685 10.8965
47.1173 10.8806
47.1658 10.8231
47.2146 10.7983
47.2632 10.7413
47.312 10.7378
47.3606 10.677
47.4095 10.6178
47.4581 10.5917
47.5069 10.5304
47.5556 10.5499
47.6044 10.4747
47.6531 10.4116
47.702 10.3443
47.7507 10.3679
47.7996 10.3188
47.8483 10.2826
47.8972 10.2777
47.9461 10.2652
47.9948 10.1324
48.0438 10.1204
48.0925 10.1055
48.1415 10.0771
48.1902 10.0374
48.2392 10.0186
48.288 9.94862
48.337 9.96529
48.3858 9.86095
48.4348 9.84801
48.4837 9.84193
48.5327 9.81113
48.5815 9.72411
48.6306 9.69002
48.6795 9.68492
48.7285 9.64091
48.7774 9.60406
48.8265 9.57906
48.8754 9.54714
48.9245 9.50746
48.9734 9.46492
49.0226 9.44457
49.0715 9.40111
49.1206 9.30855
49.1696 9.29143
49.2188 9.27883
49.2679 9.27045
49.3169 9.19655
49.3661 9.14515
49.4151 9.16221
49.4643 9.11657
49.5134 9.08329
49.5626 9.05587
49.6117 9.02534
49.6609 9.00135
49.71 8.90836
49.7592 8.90787
49.8083 8.82397
49.8576 8.85036
49.9067 8.79731
49.956 8.7876
50.0052 8.74813
50.0545 8.71867
50.1036 8.66484
50.153 8.62066
50.2022 8.6082
50.2515 8.50889
50.3007 8.52327
50.3501 8.48069
50.3993 8.46367
50.4487 8.41993
50.498 8.38093
50.5474 8.36371
50.5966 8.31007
50.6461 8.28399
50.6955 8.27614
50.7448 8.25526
50.7943 8.26617
50.8436 8.18085
50.8931 8.15216
50.9424 8.1465
50.9919 8.06535
51.0413 8.07217
51.0908 8.00025
51.1402 7.98675
51.1897 7.9554
51.2391 7.90197
51.2887 7.92331
51.3381 7.83679
51.3877 7.83431
51.4371 7.80228
51.4867 7.743
51.5362 7.72821
51.5858 7.68553
51.6353 7.64844
51.6849 7.62413
51.7344 7.59554
51.7841 7.57336
51.8336 7.53522
51.8833 7.51656
51.9328 7.50113
51.9826 7.39079
52.0323 7.41053
52.0818 7.38239
52.1316 7.33485
52.1812 7.29457
52.231 7.29323
52.2806 7.2575
52.3304 7.23308
52.38 7.19995
52.4298 7.13698
52.4794 7.14016
52.5293 7.11164
52.5789 7.08285
52.6288 7.0982
52.6785 7.02893
52.7284 6.98505
52.7781 6.92045
52.828 6.9251
52.8777 6.88809
52.9276 6.89239
52.9774 6.83644
53.0273 6.83035
53.0771 6.77348
53.1271 6.79438
53.1769 6.72306
53.2269 6.72872
53.2767 6.66227
53.3267 6.65042
53.3765 6.61177
53.4266 6.60489
53.4766 6.55638
53.5265 6.52174
53.5765 6.49571
53.6264 6.46366
53.6765 6.47371
53.7264 6.45366
53.7765 6.431
53.8265 6.35512
53.8766 6.3317
53.9266 6.33289
53.9767 6.27207
54.0267 6.26008
54.0769 6.22262
54.1269 6.1742
54.1771 6.16495
54.2271 6.13683
54.2773 6.06
54.3274 6.05931
54.3776 5.99138
54.4277 5.99469
54.478 5.93821
54.528 5.91375
54.5783 5.87758
54.6285 5.85349
54.6788 5.80137
54.7289 5.79416
54.7792 5.72445
54.8296 5.69412
54.8798 5.591
54.9301 5.56713
54.9803 5.55023
55.0307 5.55052
55.0809 5.49992
55.1314 5.47962
55.1816 5.41443
55.232 5.35218
55.2823 5.29122
55.3328 5.28284
55.383 5.21881
55.4335 5.16909
55.4838 5.11407
55.5344 5.05421
55.5847 5.04923
55.6352 5.04014
55.6856 4.97144
55.7361 4.95089