File: XRD/Ni3Fe_FD0603.xy
TT I
1.27165 7.33434
1.31627 6.50435
1.36089 6.62803
1.40551 6.36345
1.45013 6.19972
1.49476 5.34583
1.53938 5.75143
1.584 5.7638
1.62863 5.5899
1.67325 5.66458
1.71787 5.32348
1.7625 4.99147
1.80712 5.491
1.85174 4.93011
1.89636 4.68403
1.94099 5.16781
1.98562 5.18644
2.03025 4.5582
2.07487 4.43429
2.11949 4.70445
2.16411 4.40684
2.20874 10.4
2.25338 14.9037
2.298 5.1382
2.34263 5.18733
2.38725 5.96145
2.43188 5.50744
2.4765 6.49063
2.52115 5.69813
2.56577 7.04329
2.6104 7.76735
2.65503 7.71607
2.69965 8.0658
2.7443 8.33554
2.78893 8.42221
2.83356 7.97314
2.87818 7.99794
2.92281 8.59786
2.96744 9.58533
3.01209 9.90094
3.05672 11.1158
3.10135 12.2524
3.14599 12.879
3.19062 13.9562
3.23527 14.7144
3.2799 14.9478
3.32454 16.8132
3.36917 17.3985
3.4138 19.0108
3.45844 19.853
3.50309 20.8607
3.54773 21.3793
3.59237 23.6745
3.637 65.656
3.68164 44.4782
3.7263 25.8018
3.77094 26.121
3.81558 27.1714
3.86022 27.8241
3.90486 28.9009
3.9495 30.0602
3.99416 30.5982
4.0388 32.4547
4.08344 33.6527
4.12809 34.8863
4.17273 36.3273
4.21738 41.367
4.26204 166.474
4.30669 141.188
4.35133 46.5331
4.39598 44.3509
4.44063 51.3886
4.4853 58.4504
4.52995 52.0259
4.5746 53.6897
4.61925 53.9741
4.6639 56.0679
4.70855 58.7635
4.75322 61.8438
4.79788 65.6287
4.84253 68.3904
4.88719 72.8737
4.93184 76.4439
4.97652 81.6428
5.02118 88.5802
5.06583 96.0041
5.11049 108.162
5.15515 162.24
5.19981 410.114
5.24449 3135.68
5.28916 12216.1
5.33382 2952.45
5.37848 201.139
5.42315 131.839
5.46783 116.483
5.5125 109.738
5.55716 103.587
5.60183 99.4548
5.6465 97.2368
5.69117 95.4727
5.73586 93.6487
5.78053 94.4457
5.8252 94.0142
5.86988 95.5036
5.91455 96.8361
5.95924 105.54
6.00392 240.863
6.0486 1061.64
6.09328 4232.43
6.13795 3432.3
6.18263 258.089
6.22733 94.193
6.27201 82.9412
6.3167 91.8582
6.36138 77.2278
6.40606 69.7606
6.45075 68.5856
6.49545 65.9107
6.54014 63.9467
6.58483 63.2652
6.62952 63.0077
6.67421 81.8961
6.71892 109.936
6.76361 65.2605
6.8083 59.0435
6.853 58.5918
6.89769 56.9772
6.94239 56.6549
6.98711 55.7601
7.03181 55.8883
7.07651 55.5204
7.12121 55.1397
7.16591 55.6403
7.21063 55.7907
7.25533 64.804
7.30004 127.011
7.34475 75.881
7.38945 55.885
7.43416 54.8793
7.47889 54.5895
7.5236 55.0998
7.56831 55.5263
7.61303 56.3927
7.65774 56.8769
7.70247 56.571
7.74719 56.4694
7.79191 57.3002
7.83663 56.9775
7.88135 58.2301
7.92607 59.3574
7.97081 60.248
8.01553 61.271
8.06026 62.6971
8.10498 64.121
8.14971 71.1932
8.19446 70.966
8.23919 69.7112
8.28392 72.3677
8.32865 74.6539
8.37339 79.2801
8.41812 85.6412
8.46288 107.31
8.50761 180.072
8.55235 421.99
8.59709 1236.73
8.64183 2147.53
8.68658 1001.54
8.73134 171.785
8.77609 100.973
8.82083 93.7837
8.86558 91.5491
8.91033 90.6588
8.9551 90.2739
8.99985 85.9124
9.04461 84.1089
9.08936 83.8912
9.13412 82.8694
9.17888 82.7354
9.22365 83.1903
9.26841 82.6613
9.31318 83.8304
9.35794 84.7619
9.4027 84.1842
9.44749 84.9922
9.49226 85.6894
9.53703 86.4848
9.5818 88.8175
9.62657 92.2259
9.67134 96.5165
9.71614 93.7579
9.76091 95.0203
9.80569 98.1138
9.85047 101.383
9.89525 117.378
9.94005 130.574
9.98484 194.435
10.0296 370.854
10.0744 860.38
10.1192 1665.6
10.164 1573.02
10.2088 423.174
10.2536 129.422
10.2984 112.431
10.3432 111.897
10.388 106.019
10.4328 123.391
10.4776 167.906
10.5224 295.13
10.5672 501.276
10.612 480.742
10.6568 205.532
10.7017 97.671
10.7465 87.3564
10.7913 84.2451
10.8361 81.6986
10.8809 79.6477
10.9257 78.4737
10.9706 78.4908
11.0154 75.3721
11.0602 73.3315
11.105 72.2877
11.1499 74.2813
11.1947 77.8607
11.2395 72.6756
11.2844 69.7539
11.3292 67.69
11.374 66.5348
11.4189 66.1288
11.4637 65.1791
11.5086 65.4628
11.5534 66.8332
11.5983 65.2139
11.6431 64.0697
11.688 63.3434
11.7328 63.5504
11.7777 63.0599
11.8225 63.0229
11.8674 63.034
11.9122 63.6109
11.9571 63.1851
12.002 64.4716
12.0468 69.5183
12.0917 80.8371
12.1366 106.633
12.1814 155.585
12.2263 198.068
12.2712 166.27
12.3161 97.2743
12.3609 69.4439
12.4058 64.684
12.4507 64.6734
12.4956 64.9633
12.5405 65.1251
12.5853 66.0415
12.6302 70.7629
12.6751 73.8848
12.72 69.036
12.7649 68.3554
12.8098 68.7103
12.8547 70.2748
12.8996 71.6479
12.9445 73.0747
12.9894 74.813
13.0343 76.6082
13.0792 80.1042
13.1242 91.6162
13.1691 115.318
13.214 156.192
13.2589 250.874
13.3038 366.904
13.3487 414.154
13.3937 269.047
13.4386 129.247
13.4835 109.146
13.5285 124.662
13.5734 167.285
13.6183 251.742
13.6633 337.617
13.7082 330.207
13.7531 193.676
13.7981 101.412
13.843 82.6149
13.888 80.5385
13.9329 77.6837
13.9779 76.8655
14.0228 75.2084
14.0678 73.8387
14.1127 73.1303
14.1577 72.6707
14.2027 72.1338
14.2476 71.0139
14.2926 71.0611
14.3376 71.179
14.3825 70.4072
14.4275 69.3188
14.4725 69.4069
14.5175 69.3499
14.5624 69.5856
14.6074 70.983
14.6524 71.4449
14.6974 71.1998
14.7424 73.3826
14.7874 80.8293
14.8324 91.3376
14.8774 115.461
14.9224 158.487
14.9674 204.464
15.0124 213.371
15.0574 151.73
15.1024 93.4196
15.1474 73.1734
15.1924 70.9567
15.2374 70.694
15.2824 69.8009
15.3274 68.1045
15.3725 67.3103
15.4175 67.0517
15.4625 66.5157
15.5076 66.4953
15.5526 66.5692
15.5976 66.3346
15.6426 68.1729
15.6877 74.0273
15.7327 82.0692
15.7778 98.637
15.8228 130.639
15.8679 169.068
15.9129 187.068
15.958 154.374
16.003 98.0118
16.0481 68.8187
16.0931 64.3674
16.1382 62.3263
16.1833 60.9444
16.2283 59.3591
16.2734 58.6153
16.3185 58.6255
16.3636 58.8529
16.4086 57.6744
16.4537 56.6068
16.4988 55.7874
16.5439 55.8147
16.589 55.6992
16.6341 55.3537
16.6792 54.9672
16.7243 55.28
16.7694 55.2497
16.8145 55.2038
16.8596 55.6217
16.9047 56.5595
16.9498 56.5325
16.9949 55.9357
17.04 56.2183
17.0851 57.7929
17.1302 59.2537
17.1754 62.5366
17.2205 67.7788
17.2656 75.1092
17.3108 81.3914
17.3559 81.8781
17.401 72.538
17.4462 63.3743
17.4913 59.6218
17.5365 59.7311
17.5815 59.8784
17.6268 60.2198
17.6718 60.7632
17.7171 61.1673
17.7622 61.5952
17.8074 62.7243
17.8525 65.3814
17.8977 69.4513
17.9428 75.2138
17.9881 84.8048
18.0331 102.529
18.0784 121.339
18.1237 137.749
18.1688 132.221
18.214 106.723
18.2591 89.1949
18.3044 92.3289
18.3495 99.8708
18.3948 104.628
18.4399 96.3956
18.4852 79.4743
18.5303 66.8023
18.5756 62.6378
18.6207 61.5218
18.666 61.0654
18.7112 60.2382
18.7565 59.312
18.8016 59.0842
18.8469 58.5659
18.892 58.2415
18.9374 57.6996
18.9825 57.6638
19.0278 57.397
19.073 57.5683
19.1183 57.9554
19.1635 58.6209
19.2088 60.0423
19.254 63.204
19.2993 67.4148
19.3447 72.2355
19.3898 75.5589
19.4352 72.3793
19.4804 64.4033
19.5257 57.905
19.5709 54.8298
19.6163 54.4198
19.6615 54.1628
19.7068 53.864
19.752 53.6249
19.7974 54.1629
19.8426 55.0775
19.888 55.5135
19.9332 56.8559
19.9786 59.5034
20.0238 63.204
20.0692 67.4506
20.1144 69.5342
20.1598 68.5337
20.205 64.6329
20.2504 63.1923
20.2957 64.1258
20.3411 65.2743
20.3863 64.1891
20.4318 59.0315
20.477 54.1958
20.5224 51.8655
20.5677 51.1006
20.6131 50.5193
20.6586 50.0468
20.7038 49.9727
20.7493 49.3975
20.7945 49.3669
20.84 49.285
20.8853 49.0192
20.9307 48.9878
20.976 49.014
21.0215 48.9403
21.0668 49.4077
21.1122 49.8548
21.1575 50.4979
21.203 51.211
21.2483 51.705
21.2938 51.7654
21.3391 50.401
21.3846 49.2744
21.4299 48.8587
21.4754 48.7956
21.5207 49.0209
21.5662 49.2664
21.6116 49.7281
21.6571 50.185
21.7024 51.4516
21.7479 53.4219
21.7933 56.0977
21.8388 59.557
21.8843 62.7448
21.9297 64.5324
21.9752 63.4563
22.0206 60.3929
22.0661 57.0684
22.1115 56.0235
22.157 55.9951
22.2024 54.6844
22.248 52.1277
22.2933 50.3145
22.3389 49.4969
22.3843 49.4546
22.4299 49.0157
22.4753 48.9802
22.5208 48.9834
22.5662 48.8836
22.6118 48.9357
22.6572 49.1766
22.7028 49.7795
22.7483 50.3703
22.7939 50.9034
22.8393 52.6906
22.8849 54.5771
22.9303 56.3233
22.9759 57.6521
23.0214 57.4024
23.067 54.9224
23.1126 51.7327
23.1581 49.5863
23.2037 49.27
23.2492 49.2582
23.2948 49.0159
23.3403 49.6718
23.3859 50.4441
23.4314 51.582
23.477 53.3961
23.5225 55.1272
23.5682 56.8072
23.6137 57.8482
23.6593 55.8786
23.7048 52.2675
23.7505 48.8786
23.796 47.1794
23.8417 46.2149
23.8872 45.992
23.9329 45.6034
23.9784 45.2252
24.0241 45.0053
24.0697 44.7237
24.1154 44.3936
24.1609 44.2744
24.2066 44.0488
24.2522 43.9433
24.2979 43.7605
24.3434 43.5441
24.3892 43.4391
24.4349 43.3527
24.4805 43.2134
24.5262 43.4776
24.5718 43.2884
24.6175 43.2983
24.6631 43.0793
24.7089 42.7064
24.7545 42.6959
24.8002 42.5786
24.8458 42.5689
24.8916 42.3859
24.9372 42.5164
24.983 43.0177
25.0286 43.2899
25.0744 43.6788
25.12 44.1869
25.1658 44.5352
25.2114 44.9771
25.2572 45.2318
25.3029 45.1944
25.3487 44.9908
25.3943 44.7924
25.4402 43.8481
25.4858 42.8757
25.5316 41.8535
25.5773 41.3218
25.6231 41.2394
25.669 40.8654
25.7147 40.8818
25.7605 40.7416
25.8062 40.8599
25.8521 41.0518
25.8977 40.9101
25.9436 41.237
25.9893 41.2934
26.0352 41.7291
26.0809 41.7268
26.1268 42.0005
26.1725 41.6664
26.2184 41.2175
26.2641 40.7642
26.31 40.5261
26.3557 40.4896
26.4017 40.4881
26.4474 40.7822
26.4933 41.1972
26.5391 41.5685
26.585 42.1069
26.6308 42.4293
26.6767 42.3608
26.7225 42.2042
26.7684 41.7406
26.8142 41.0415
26.8601 40.7554
26.9059 40.3918
26.9519 39.8391
26.9979 39.5126
27.0437 39.1853
27.0896 39.0337
27.1354 38.966
27.1814 38.8619
27.2272 38.7956
27.2732 38.8092
27.3191 38.6311
27.3651 38.737
27.4109 38.7559
27.4569 38.8952
27.5027 38.7704
27.5488 38.8434
27.5946 38.6612
27.6407 38.4533
27.6865 38.4463
27.7326 38.186
27.7784 38.1097
27.8245 38.0785
27.8703 38.2436
27.9164 38.6093
27.9623 38.7077
28.0084 39.039
28.0543 39.293
28.1003 39.2699
28.1462 39.021
28.1923 38.6831
28.2384 38.1745
28.2843 37.954
28.3304 37.4728
28.3764 36.8734
28.4225 36.6797
28.4684 36.5678
28.5145 36.1538
28.5605 36.2354
28.6066 35.9517
28.6526 35.794
28.6987 35.8239
28.7447 35.8181
28.7908 35.7199
28.8368 35.761
28.8829 35.6827
28.9289 35.608
28.9751 35.4937
29.0211 35.2509
29.0673 35.0586
29.1133 34.8551
29.1595 34.6622
29.2055 34.5806
29.2517 34.546
29.2977 34.504
29.3439 34.4126
29.3899 34.3543
29.4361 34.4105
29.4824 34.1847
29.5284 34.0056
29.5746 33.7383
29.6207 33.3464
29.6669 33.367
29.713 33.2666
29.7593 33.2527
29.8053 33.05
29.8516 33.0304
29.8977 33.0781
29.9439 32.7467
29.99 32.8368
30.0363 32.669
30.0824 32.8324
30.1287 32.7076
30.1748 32.7006
30.2211 32.6145
30.2673 32.4232
30.3136 32.6606
30.3597 32.4655
30.406 32.3747
30.4522 32.3264
30.4985 32.2803
30.5447 32.4255
30.591 32.3814
30.6372 32.4979
30.6835 32.3739
30.7297 32.3233
30.7761 32.4083
30.8224 32.2113
30.8686 32.1499
30.915 31.8815
30.9612 31.7335
31.0076 31.5719
31.0538 31.4277
31.1002 31.4093
31.1464 31.2412
31.1928 31.1607
31.2391 31.2116
31.2855 31.1147
31.3317 31.096
31.3781 31.2058
31.4244 31.0874
31.4708 30.9904
31.5171 30.9466
31.5636 31.026
31.6098 30.7672
31.6563 30.6268
31.7026 30.4471
31.7491 30.3969
31.7953 30.3807
31.8418 30.4121
31.8881 30.3954
31.9346 30.3104
31.9809 30.1672
32.0275 30.0789
32.074 30.0934
32.1203 29.7448
32.1668 29.779
32.2132 29.636
32.2597 29.4688
32.306 29.4713
32.3526 29.3332
32.399 29.1414
32.4455 28.997
32.4919 28.8892
32.5385 28.9108
32.5848 28.6984
32.6314 28.7589
32.6778 28.648
32.7244 28.4449
32.7708 28.4489
32.8174 28.4131
32.8638 28.2117
32.9104 28.2123
32.9569 28.1954
33.0035 28.0676
33.0499 28.0831
33.0966 28.0155
33.143 27.9639
33.1897 27.8553
33.2361 27.7775
33.2828 27.7933
33.3293 27.542
33.3759 27.6134
33.4226 27.496
33.4691 27.2799
33.5158 27.2169
33.5623 27.0814
33.609 26.9175
33.6555 26.8809
33.7022 26.8296
33.7487 26.6955
33.7954 26.6519
33.842 26.4684
33.8887 26.5558
33.9353 26.4516
33.982 26.3329
34.0286 26.2927
34.0753 26.2188
34.1219 26.1261
34.1687 26.0909
34.2152 26.0074
34.262 25.8564
34.3086 25.8304
34.3554 25.6988
34.402 25.5879
34.4488 25.4632
34.4954 25.3571
34.5422 25.3929
34.5889 25.2316
34.6357 25.2103
34.6825 25.1006
34.7292 25.01
34.776 24.9564
34.8227 24.8887
34.8695 24.8513
34.9162 24.808
34.9631 24.6328
35.0098 24.7164
35.0566 24.487
35.1033 24.4562
35.1502 24.4609
35.1969 24.2883
35.2438 24.3306
35.2906 24.2485
35.3375 24.2129
35.3842 24.148
35.4311 24.1852
35.4779 24.177
35.5248 24.116
35.5716 24.007
35.6185 23.8279
35.6653 23.7896
35.7123 23.7206
35.759 23.7
35.806 23.5473
35.8528 23.4632
35.8998 23.3285
35.9468 23.256
35.9936 23.1986
36.0406 23.2479
36.0874 23.1702
36.1345 23.0349
36.1813 22.9859
36.2283 22.8775
36.2752 22.7599
36.3222 22.9009
36.3691 22.815
36.4161 22.5498
36.463 22.6021
36.5101 22.6301
36.557 22.4919
36.6041 22.3769
36.651 22.2718
36.6981 22.2683
36.745 22.2781
36.7921 22.1527
36.839 22.0084
36.8861 21.9244
36.9331 21.812
36.9802 21.8637
37.0272 21.6907
37.0743 21.5866
37.1213 21.6571
37.1684 21.5648
37.2154 21.5185
37.2626 21.4483
37.3098 21.3252
37.3568 21.3376
37.404 21.2806
37.451 21.0919
37.4982 21.0769
37.5452 21.0107
37.5924 20.9601
37.6395 21.0047
37.6867 20.8863
37.7337 20.7602
37.781 20.7285
37.8281 20.5967
37.8753 20.5206
37.9224 20.453
37.9697 20.4157
38.0168 20.3019
38.064 20.271
38.1111 20.2321
38.1584 20.1439
38.2056 20.1515
38.2529 20.0419
38.3 19.9643
38.3473 19.997
38.3945 19.8455
38.4418 19.828
38.489 19.6566
38.5363 19.6943
38.5837 19.5201
38.6309 19.5131
38.6782 19.4499
38.7254 19.3416
38.7728 19.3964
38.82 19.2464
38.8674 19.2493
38.9146 19.1892
38.9621 19.0987
39.0093 19.0811
39.0567 19.0187
39.104 18.9059
39.1514 18.8587
39.1987 18.8235
39.2461 18.716
39.2934 18.7106
39.3409 18.6029
39.3882 18.538
39.4356 18.4884
39.483 18.4331
39.5304 18.4318
39.5778 18.3594
39.6253 18.2651
39.6726 18.1722
39.7201 18.247
39.7675 18.1271
39.815 18.0738
39.8624 17.9343
39.9099 17.9793
39.9575 17.885
40.0049 17.856
40.0525 17.7459
40.0999 17.7239
40.1474 17.6586
40.1949 17.554
40.2425 17.5062
40.2899 17.5227
40.3375 17.3432
40.385 17.3596
40.4326 17.3276
40.48 17.2458
40.5277 17.1956
40.5752 17.1594
40.6228 17.0561
40.6703 17.0463
40.718 17.0119
40.7655 16.9131
40.8132 16.8267
40.8607 16.8384
40.9084 16.7591
40.9559 16.7121
41.0036 16.6973
41.0512 16.6442
41.0989 16.6135
41.1465 16.5076
41.1942 16.458
41.242 16.3448
41.2896 16.3227
41.3373 16.2396
41.3849 16.1971
41.4327 16.1964
41.4803 16.0982
41.5281 16.0703
41.5758 15.9881
41.6236 15.9878
41.6712 15.8746
41.7191 15.8649
41.7667 15.757
41.8146 15.769
41.8622 15.6595
41.9101 15.6226
41.9578 15.5534
42.0057 15.5588
42.0534 15.4618
42.1013 15.4554
42.149 15.3822
42.1969 15.2844
42.2446 15.2348
42.2925 15.2494
42.3403 15.1805
42.3882 15.1417
42.436 15.0734
42.4839 14.9942
42.5319 14.9869
42.5797 14.9154
42.6277 14.8781
42.6755 14.8408
42.7235 14.7825
42.7713 14.7159
42.8193 14.6683
42.8671 14.639
42.9152 14.5876
42.963 14.5118
43.0111 14.4676
43.0589 14.3772
43.107 14.3557
43.1549 14.3286
43.2029 14.2237
43.2508 14.2342
43.2989 14.1395
43.3468 14.0993
43.3949 14.0349
43.4429 14.0297
43.491 13.9881
43.5389 13.9569
43.5871 13.8563
43.635 13.8444
43.6832 13.7974
43.7312 13.6911
43.7793 13.7192
43.8273 13.6674
43.8755 13.5406
43.9237 13.5363
43.9717 13.5141
44.0199 13.45
44.068 13.4144
44.1162 13.3338
44.1642 13.3395
44.2125 13.2855
44.2606 13.2677
44.3088 13.1859
44.3569 13.1064
44.4052 13.1025
44.4533 13.0531
44.5016 12.9552
44.5497 12.9304
44.598 12.8903
44.6461 12.857
44.6945 12.7962
44.7426 12.7811
44.791 12.676
44.8391 12.7066
44.8875 12.6208
44.9357 12.6065
44.984 12.5578
45.0322 12.4917
45.0806 12.4565
45.1288 12.4531
45.1773 12.3434
45.2257 12.3221
45.2739 12.2797
45.3224 12.2221
45.3706 12.2157
45.4191 12.1653
45.4673 12.1008
45.5158 12.0995
45.5641 12.0087
45.6126 11.941
45.6609 11.9311
45.7094 11.9041
45.7577 11.8278
45.8063 11.8103
45.8546 11.7656
45.9031 11.7012
45.9515 11.7134
46.0001 11.6549
46.0484 11.6126
46.097 11.5938
46.1454 11.5471
46.194 11.511
46.2424 11.4424
46.291 11.3636
46.3395 11.3241
46.3881 11.2767
46.4365 11.2873
46.4852 11.2572
46.5337 11.1587
46.5823 11.1842
46.631 11.0959
46.6795 11.1044
46.7282 11.038
46.7767 10.9685
46.8254 10.9448
46.8739 10.9109
46.9226 10.8495
46.9712 10.8141
47.0199 10.7984
47.0685 10.7214
47.1173 10.7132
47.1658 10.6366
47.2146 10.6481
47.2632 10.5753
47.312 10.5144
47.3606 10.5268
47.4095 10.4547
47.4581 10.4389
47.5069 10.3631
47.5556 10.3336
47.6044 10.2971
47.6531 10.2372
47.702 10.2029
47.7507 10.1843
47.7996 10.1187
47.8483 10.1129
47.8972 10.0789
47.9461 10.0678
47.9948 10.0053
48.0438 9.97392
48.0925 9.93167
48.1415 9.9127
48.1902 9.8899
48.2392 9.83363
48.288 9.81492
48.337 9.78459
48.3858 9.71635
48.4348 9.68081
48.4837 9.67273
48.5327 9.63408
48.5815 9.5661
48.6306 9.55505
48.6795 9.48623
48.7285 9.47062
48.7774 9.46622
48.8265 9.42966
48.8754 9.37035
48.9245 9.38587
48.9734 9.2943
49.0226 9.30705
49.0715 9.2428
49.1206 9.1965
49.1696 9.17181
49.2188 9.17541
49.2679 9.09771
49.3169 9.04895
49.3661 8.99831
49.4151 8.99708
49.4643 8.9536
49.5134 8.91094
49.5626 8.88592
49.6117 8.84027
49.6609 8.82156
49.71 8.79735
49.7592 8.72283
49.8083 8.72181
49.8576 8.67615
49.9067 8.62995
49.956 8.61067
50.0052 8.55465
50.0545 8.56205
50.1036 8.53279
50.153 8.49112
50.2022 8.49365
50.2515 8.43716
50.3007 8.35305
50.3501 8.3636
50.3993 8.31152
50.4487 8.28455
50.498 8.26527
50.5474 8.21732
50.5966 8.21979
50.6461 8.152
50.6955 8.11832
50.7448 8.13595
50.7943 8.06347
50.8436 8.04621
50.8931 7.99921
50.9424 7.97861
50.9919 7.92012
51.0413 7.91273
51.0908 7.89766
51.1402 7.86011
51.1897 7.81465
51.2391 7.76914
51.2887 7.73688
51.3381 7.70413
51.3877 7.74186
51.4371 7.64855
51.4867 7.62673
51.5362 7.62264
51.5858 7.55023
51.6353 7.53765
51.6849 7.50554
51.7344 7.42239
51.7841 7.4832
51.8336 7.39681
51.8833 7.38322
51.9328 7.33916
51.9826 7.31778
52.0323 7.2826
52.0818 7.23167
52.1316 7.22198
52.1812 7.23911
52.231 7.1731
52.2806 7.13625
52.3304 7.0962
52.38 7.11328
52.4298 7.02538
52.4794 7.00707
52.5293 6.98565
52.5789 6.94632
52.6288 6.95297
52.6785 6.91445
52.7284 6.84472
52.7781 6.84541
52.828 6.84018
52.8777 6.74077
52.9276 6.78253
52.9774 6.73389
53.0273 6.71543
53.0771 6.687
53.1271 6.67679
53.1769 6.64397
53.2269 6.59778
53.2767 6.54962
53.3267 6.53263
53.3765 6.50245
53.4266 6.47124
53.4766 6.46271
53.5265 6.39199
53.5765 6.39765
53.6264 6.34769
53.6765 6.31241
53.7264 6.32385
53.7765 6.34159
53.8265 6.25156
53.8766 6.25051
53.9266 6.21763
53.9767 6.16455
54.0267 6.17108
54.0769 6.14369
54.1269 6.09489
54.1771 6.05361
54.2271 6.03018
54.2773 6.00359
54.3274 5.97358
54.3776 5.9304
54.4277 5.91122
54.478 5.88234
54.528 5.8486
54.5783 5.79697
54.6285 5.68903
54.6788 5.73738
54.7289 5.68611
54.7792 5.64257
54.8296 5.57204
54.8798 5.53653
54.9301 5.49217
54.9803 5.49146
55.0307 5.42974
55.0809 5.40429
55.1314 5.38638
55.1816 5.33754
55.232 5.25055
55.2823 5.25206
55.3328 5.16689
55.383 5.13586
55.4335 5.06244
55.4838 5.00097
55.5344 5.01579
55.5847 4.95165
55.6352 4.88111
55.6856 4.88343
55.7361 4.79098