File: XRD/Ni3Fe_FD0234.xy
TT I
1.27165 7.97277
1.31627 7.30606
1.36089 7.11033
1.40551 5.51069
1.45013 6.47613
1.49476 6.61188
1.53938 5.90872
1.584 5.97876
1.62863 6.17597
1.67325 5.51223
1.71787 5.79053
1.7625 5.51782
1.80712 4.90146
1.85174 4.74502
1.89636 4.72174
1.94099 4.83079
1.98562 5.26063
2.03025 3.93865
2.07487 4.46732
2.11949 4.8569
2.16411 4.75705
2.20874 4.54958
2.25338 4.08782
2.298 5.14791
2.34263 3.80696
2.38725 4.93301
2.43188 5.04023
2.4765 5.02673
2.52115 5.88392
2.56577 5.32156
2.6104 6.57496
2.65503 5.55733
2.69965 6.03193
2.7443 7.23008
2.78893 6.84876
2.83356 7.72139
2.87818 7.34462
2.92281 8.44923
2.96744 9.12842
3.01209 10.5446
3.05672 11.1929
3.10135 12.101
3.14599 12.9655
3.19062 14.1561
3.23527 15.3446
3.2799 16.1256
3.32454 17.1283
3.36917 17.9527
3.4138 19.2753
3.45844 19.6276
3.50309 20.8603
3.54773 21.7514
3.59237 22.0887
3.637 23.0859
3.68164 24.3183
3.7263 25.1481
3.77094 26.2752
3.81558 26.8451
3.86022 27.7799
3.90486 29.1018
3.9495 30.3037
3.99416 31.0624
4.0388 32.5044
4.08344 33.9988
4.12809 34.9222
4.17273 36.3988
4.21738 37.9378
4.26204 39.5247
4.30669 40.5589
4.35133 42.826
4.39598 44.4618
4.44063 46.1927
4.4853 48.7294
4.52995 52.6935
4.5746 54.2017
4.61925 56.1143
4.6639 58.2522
4.70855 61.2253
4.75322 64.8416
4.79788 68.6041
4.84253 71.8189
4.88719 77.3314
4.93184 81.4935
4.97652 88.747
5.02118 96.3711
5.06583 107.291
5.11049 124.27
5.15515 169.676
5.19981 888.115
5.24449 3977.68
5.28916 10784.0
5.33382 4192.83
5.37848 274.024
5.42315 152.772
5.46783 128.969
5.5125 118.88
5.55716 111.763
5.60183 106.646
5.6465 104.341
5.69117 102.523
5.73586 101.625
5.78053 101.968
5.8252 102.684
5.86988 104.573
5.91455 109.976
5.95924 133.273
6.00392 448.527
6.0486 1423.13
6.09328 3671.47
6.13795 3658.03
6.18263 355.896
6.22733 108.877
6.27201 88.7506
6.3167 80.7636
6.36138 75.8789
6.40606 73.171
6.45075 71.3194
6.49545 68.4438
6.54014 66.4621
6.58483 65.236
6.62952 64.2344
6.67421 62.493
6.71892 61.4676
6.76361 60.4107
6.8083 59.7417
6.853 59.7135
6.89769 58.5609
6.94239 58.3002
6.98711 57.6478
7.03181 57.2228
7.07651 56.8897
7.12121 56.1719
7.16591 56.7877
7.21063 55.8284
7.25533 55.8244
7.30004 55.6842
7.34475 56.0044
7.38945 56.1902
7.43416 55.6864
7.47889 55.3413
7.5236 56.4345
7.56831 56.8119
7.61303 57.0872
7.65774 57.421
7.70247 57.9652
7.74719 58.4303
7.79191 58.9509
7.83663 59.1887
7.88135 60.5537
7.92607 61.1049
7.97081 62.3448
8.01553 63.6085
8.06026 65.3173
8.10498 66.3458
8.14971 69.1625
8.19446 70.8781
8.23919 73.2727
8.28392 75.996
8.32865 79.0795
8.37339 84.1182
8.41812 90.3963
8.46288 111.207
8.50761 292.438
8.55235 584.707
8.59709 1073.9
8.64183 1976.39
8.68658 1196.12
8.73134 215.12
8.77609 110.672
8.82083 100.26
8.86558 96.3065
8.91033 93.606
8.9551 90.8091
8.99985 89.4341
9.04461 88.9283
9.08936 88.0139
9.13412 86.6928
9.17888 86.7593
9.22365 86.9033
9.26841 86.7677
9.31318 88.1963
9.35794 88.5707
9.4027 88.6461
9.44749 89.0646
9.49226 89.6903
9.53703 91.0483
9.5818 93.1317
9.62657 94.5979
9.67134 95.4877
9.71614 97.7176
9.76091 99.9596
9.80569 103.613
9.85047 106.569
9.89525 112.844
9.94005 137.54
9.98484 304.736
10.0296 517.155
10.0744 808.632
10.1192 1456.33
10.164 1682.18
10.2088 553.839
10.2536 148.068
10.2984 117.357
10.3432 113.019
10.388 115.391
10.4328 159.24
10.4776 211.707
10.5224 283.456
10.5672 450.402
10.612 530.992
10.6568 253.109
10.7017 108.153
10.7465 92.3163
10.7913 88.041
10.8361 85.448
10.8809 82.7623
10.9257 80.8427
10.9706 79.7717
11.0154 77.8486
11.0602 76.4496
11.105 74.8855
11.1499 73.3824
11.1947 72.5925
11.2395 71.0299
11.2844 70.4374
11.3292 69.8709
11.374 69.0491
11.4189 68.5314
11.4637 67.7836
11.5086 67.0138
11.5534 66.7127
11.5983 66.3257
11.6431 66.3729
11.688 65.7088
11.7328 65.5571
11.7777 65.3332
11.8225 65.057
11.8674 65.459
11.9122 65.9163
11.9571 66.2935
12.002 68.9574
12.0468 79.9818
12.0917 93.9222
12.1366 109.021
12.1814 141.683
12.2263 195.008
12.2712 182.132
12.3161 103.431
12.3609 69.8745
12.4058 67.3832
12.4507 67.482
12.4956 67.3545
12.5405 67.4927
12.5853 67.7251
12.6302 68.176
12.6751 68.902
12.72 69.8262
12.7649 70.9302
12.8098 71.6318
12.8547 73.3688
12.8996 74.903
12.9445 76.1785
12.9894 78.5947
13.0343 80.7368
13.0792 86.4532
13.1242 111.281
13.1691 146.867
13.214 174.758
13.2589 231.014
13.3038 324.945
13.3487 421.09
13.3937 308.78
13.4386 149.449
13.4835 133.699
13.5285 153.036
13.5734 175.402
13.6183 227.055
13.6633 310.169
13.7082 354.331
13.7531 224.279
13.7981 110.398
13.843 87.2152
13.888 83.8809
13.9329 81.3201
13.9779 79.9742
14.0228 78.5181
14.0678 76.8325
14.1127 76.2836
14.1577 75.2333
14.2027 74.6504
14.2476 74.0025
14.2926 73.4559
14.3376 73.3048
14.3825 72.8991
14.4275 72.3592
14.4725 72.4013
14.5175 72.5299
14.5624 72.4024
14.6074 72.9858
14.6524 73.4698
14.6974 74.5905
14.7424 81.3346
14.7874 95.1799
14.8324 106.414
14.8774 120.237
14.9224 146.296
14.9674 188.085
15.0124 222.289
15.0574 169.672
15.1024 101.041
15.1474 76.7437
15.1924 73.8754
15.2374 72.5737
15.2824 71.4732
15.3274 70.6995
15.3725 70.075
15.4175 69.8823
15.4625 69.3021
15.5076 69.3935
15.5526 69.2098
15.5976 69.8914
15.6426 74.9897
15.6877 86.3298
15.7327 94.5454
15.7778 103.376
15.8228 122.537
15.8679 153.85
15.9129 190.137
15.958 174.272
16.003 111.011
16.0481 72.717
16.0931 65.8028
16.1382 63.9361
16.1833 63.1494
16.2283 61.4332
16.2734 60.9365
16.3185 60.2312
16.3636 59.6298
16.4086 58.8598
16.4537 58.4314
16.4988 57.8834
16.5439 58.1091
16.589 57.6458
16.6341 57.3631
16.6792 57.002
16.7243 57.4261
16.7694 57.2876
16.8145 57.1805
16.8596 57.2808
16.9047 57.5869
16.9498 57.879
16.9949 57.9306
17.04 59.3604
17.0851 61.7902
17.1302 63.6424
17.1754 65.7235
17.2205 69.1711
17.2656 74.1219
17.3108 82.265
17.3559 86.2459
17.401 76.8832
17.4462 66.6321
17.4913 62.244
17.5365 62.2257
17.5815 62.1186
17.6268 62.612
17.6718 63.2093
17.7171 63.6594
17.7622 64.6885
17.8074 66.3382
17.8525 72.465
17.8977 78.3538
17.9428 82.8287
17.9881 88.4082
18.0331 99.5143
18.0784 115.94
18.1237 139.236
18.1688 144.619
18.214 118.339
18.2591 93.2521
18.3044 90.4513
18.3495 97.0566
18.3948 106.548
18.4399 101.698
18.4852 83.0791
18.5303 70.1446
18.5756 65.6405
18.6207 64.3091
18.666 63.3153
18.7112 62.5766
18.7565 61.9201
18.8016 61.4944
18.8469 60.9207
18.892 60.648
18.9374 59.9769
18.9825 59.6182
19.0278 59.8065
19.073 60.2955
19.1183 61.4561
19.1635 62.0428
19.2088 62.9446
19.254 64.7953
19.2993 67.4057
19.3447 71.276
19.3898 76.4822
19.4352 75.9076
19.4804 68.1953
19.5257 60.068
19.5709 56.9473
19.6163 56.7625
19.6615 56.3516
19.7068 56.0392
19.752 56.0008
19.7974 57.0561
19.8426 58.2086
19.888 58.7646
19.9332 59.5668
19.9786 61.4092
20.0238 64.2849
20.0692 68.4236
20.1144 72.5551
20.1598 73.0006
20.205 67.7842
20.2504 64.2967
20.2957 64.5041
20.3411 66.8296
20.3863 67.4155
20.4318 62.377
20.477 56.6473
20.5224 53.6544
20.5677 52.869
20.6131 52.5909
20.6586 52.1097
20.7038 52.0256
20.7493 51.3397
20.7945 51.34
20.84 51.2281
20.8853 51.0332
20.9307 51.198
20.976 51.4291
21.0215 51.1197
21.0668 51.476
21.1122 51.7025
21.1575 52.1874
21.203 52.5799
21.2483 53.3904
21.2938 53.9002
21.3391 52.8446
21.3846 51.5039
21.4299 50.9763
21.4754 51.0218
21.5207 51.3053
21.5662 51.8971
21.6116 52.807
21.6571 53.5905
21.7024 54.1876
21.7479 55.4991
21.7933 57.6102
21.8388 60.1929
21.8843 63.4171
21.9297 66.7218
21.9752 66.8318
22.0206 63.1657
22.0661 58.8244
22.1115 57.9585
22.157 58.4803
22.2024 57.419
22.248 54.5869
22.2933 52.482
22.3389 51.48
22.3843 51.204
22.4299 50.9059
22.4753 50.9235
22.5208 50.9707
22.5662 50.9677
22.6118 51.4437
22.6572 51.9356
22.7028 52.4771
22.7483 52.7071
22.7939 53.1841
22.8393 54.1189
22.8849 55.617
22.9303 57.1849
22.9759 59.3547
23.0214 59.9552
23.067 57.8994
23.1126 54.3233
23.1581 51.8629
23.2037 51.27
23.2492 51.867
23.2948 51.995
23.3403 52.403
23.3859 52.4727
23.4314 53.2397
23.477 54.2581
23.5225 55.6775
23.5682 57.7126
23.6137 59.5392
23.6593 58.5466
23.7048 55.0212
23.7505 51.0342
23.796 49.0073
23.8417 48.3105
23.8872 47.575
23.9329 47.3976
23.9784 47.0658
24.0241 46.731
24.0697 46.5261
24.1154 46.0835
24.1609 45.8874
24.2066 45.8493
24.2522 45.73
24.2979 45.5876
24.3434 45.3538
24.3892 45.2624
24.4349 45.1083
24.4805 44.9942
24.5262 45.0332
24.5718 44.8843
24.6175 44.8055
24.6631 44.8566
24.7089 44.3774
24.7545 44.3446
24.8002 44.335
24.8458 44.3111
24.8916 44.1237
24.9372 44.4997
24.983 44.7751
25.0286 45.1188
25.0744 45.3502
25.12 45.4883
25.1658 46.2471
25.2114 46.6083
25.2572 46.6153
25.3029 46.5187
25.3487 46.6155
25.3943 46.5417
25.4402 45.7414
25.4858 44.5684
25.5316 43.5317
25.5773 42.7769
25.6231 42.7576
25.669 42.4345
25.7147 42.6377
25.7605 42.3833
25.8062 42.4823
25.8521 42.4687
25.8977 42.4725
25.9436 42.795
25.9893 42.6217
26.0352 43.1
26.0809 43.1175
26.1268 43.5745
26.1725 43.4731
26.2184 42.9149
26.2641 42.5013
26.31 42.2164
26.3557 42.1316
26.4017 42.1402
26.4474 42.3829
26.4933 42.5854
26.5391 42.8571
26.585 43.1178
26.6308 43.6126
26.6767 43.987
26.7225 43.9345
26.7684 43.4797
26.8142 42.7951
26.8601 42.203
26.9059 42.0249
26.9519 41.4828
26.9979 41.2069
27.0437 40.6599
27.0896 40.5829
27.1354 40.5486
27.1814 40.5026
27.2272 40.5226
27.2732 40.398
27.3191 40.0652
27.3651 40.2007
27.4109 40.1255
27.4569 40.2061
27.5027 40.1779
27.5488 40.4513
27.5946 40.4019
27.6407 40.164
27.6865 40.0539
27.7326 39.6366
27.7784 39.6966
27.8245 39.6955
27.8703 39.7435
27.9164 39.9371
27.9623 39.937
28.0084 40.2463
28.0543 40.7639
28.1003 40.814
28.1462 40.6111
28.1923 40.0944
28.2384 39.7113
28.2843 39.3412
28.3304 39.0043
28.3764 38.5369
28.4225 38.2409
28.4684 37.9371
28.5145 37.4883
28.5605 37.6073
28.6066 37.486
28.6526 37.2828
28.6987 37.2866
28.7447 37.115
28.7908 37.0665
28.8368 37.0741
28.8829 37.0076
28.9289 36.9873
28.9751 36.8579
29.0211 36.5582
29.0673 36.3465
29.1133 36.1278
29.1595 35.9475
29.2055 35.8221
29.2517 35.7793
29.2977 35.7751
29.3439 35.5438
29.3899 35.7498
29.4361 35.6108
29.4824 35.5027
29.5284 35.3457
29.5746 34.9492
29.6207 34.6806
29.6669 34.6225
29.713 34.4219
29.7593 34.3542
29.8053 34.3405
29.8516 34.238
29.8977 34.2027
29.9439 34.192
29.99 34.1574
30.0363 33.8368
30.0824 33.869
30.1287 33.9012
30.1748 33.933
30.2211 33.9185
30.2673 33.776
30.3136 33.9607
30.3597 33.7436
30.406 33.7131
30.4522 33.5149
30.4985 33.5293
30.5447 33.6403
30.591 33.5573
30.6372 33.5862
30.6835 33.5155
30.7297 33.6971
30.7761 33.6123
30.8224 33.5044
30.8686 33.2917
30.915 33.1942
30.9612 32.9768
31.0076 32.7249
31.0538 32.645
31.1002 32.575
31.1464 32.5058
31.1928 32.2364
31.2391 32.4074
31.2855 32.2511
31.3317 32.2453
31.3781 32.294
31.4244 32.2638
31.4708 32.1603
31.5171 32.177
31.5636 32.2433
31.6098 31.9973
31.6563 31.8415
31.7026 31.6984
31.7491 31.4922
31.7953 31.5396
31.8418 31.5084
31.8881 31.5118
31.9346 31.3992
31.9809 31.374
32.0275 31.3145
32.074 31.2459
32.1203 30.9625
32.1668 30.8604
32.2132 30.7348
32.2597 30.6437
32.306 30.583
32.3526 30.3898
32.399 30.2836
32.4455 30.1209
32.4919 30.03
32.5385 30.0378
32.5848 29.8176
32.6314 29.763
32.6778 29.7102
32.7244 29.5999
32.7708 29.5171
32.8174 29.4412
32.8638 29.3162
32.9104 29.3603
32.9569 29.2991
33.0035 29.1382
33.0499 29.1205
33.0966 29.067
33.143 29.0342
33.1897 28.8834
33.2361 28.873
33.2828 28.7998
33.3293 28.616
33.3759 28.6417
33.4226 28.5654
33.4691 28.489
33.5158 28.3441
33.5623 28.1241
33.609 27.9913
33.6555 27.9841
33.7022 27.8274
33.7487 27.7422
33.7954 27.7117
33.842 27.6442
33.8887 27.5031
33.9353 27.4212
33.982 27.374
34.0286 27.2509
34.0753 27.1622
34.1219 27.1198
34.1687 26.9792
34.2152 26.875
34.262 26.7907
34.3086 26.6783
34.3554 26.692
34.402 26.5562
34.4488 26.5119
34.4954 26.333
34.5422 26.2899
34.5889 26.1943
34.6357 26.0743
34.6825 26.0898
34.7292 25.9965
34.776 25.9125
34.8227 25.7548
34.8695 25.7436
34.9162 25.7567
34.9631 25.5962
35.0098 25.6447
35.0566 25.4794
35.1033 25.3955
35.1502 25.3111
35.1969 25.2713
35.2438 25.2448
35.2906 25.2313
35.3375 25.1568
35.3842 25.071
35.4311 25.042
35.4779 25.0519
35.5248 24.9014
35.5716 24.9423
35.6185 24.8601
35.6653 24.675
35.7123 24.5861
35.759 24.5368
35.806 24.4353
35.8528 24.3647
35.8998 24.2613
35.9468 24.1103
35.9936 24.1347
36.0406 24.0094
36.0874 24.0043
36.1345 23.9444
36.1813 23.933
36.2283 23.6982
36.2752 23.6721
36.3222 23.746
36.3691 23.5067
36.4161 23.47
36.463 23.4194
36.5101 23.4662
36.557 23.4157
36.6041 23.2132
36.651 23.1577
36.6981 23.1874
36.745 23.0917
36.7921 22.966
36.839 22.9069
36.8861 22.7817
36.9331 22.7339
36.9802 22.7054
37.0272 22.545
37.0743 22.486
37.1213 22.4014
37.1684 22.3256
37.2154 22.2878
37.2626 22.2498
37.3098 22.2108
37.3568 22.0042
37.404 22.013
37.451 21.9341
37.4982 21.9216
37.5452 21.7233
37.5924 21.6924
37.6395 21.8263
37.6867 21.6802
37.7337 21.591
37.781 21.4807
37.8281 21.4599
37.8753 21.2763
37.9224 21.2226
37.9697 21.1924
38.0168 21.1247
38.064 21.0207
38.1111 21.0024
38.1584 20.9486
38.2056 20.82
38.2529 20.8245
38.3 20.7673
38.3473 20.7422
38.3945 20.5823
38.4418 20.5525
38.489 20.5171
38.5363 20.3538
38.5837 20.347
38.6309 20.2339
38.6782 20.1577
38.7254 20.1774
38.7728 20.0474
38.82 19.9211
38.8674 19.95
38.9146 19.9363
38.9621 19.8227
39.0093 19.7849
39.0567 19.7417
39.104 19.6526
39.1514 19.5537
39.1987 19.5878
39.2461 19.5002
39.2934 19.4072
39.3409 19.3349
39.3882 19.2287
39.4356 19.1925
39.483 19.1627
39.5304 19.0164
39.5778 19.0084
39.6253 18.9809
39.6726 18.9037
39.7201 18.8244
39.7675 18.8639
39.815 18.7216
39.8624 18.6751
39.9099 18.6216
39.9575 18.5678
40.0049 18.5294
40.0525 18.397
40.0999 18.3909
40.1474 18.3672
40.1949 18.2213
40.2425 18.1489
40.2899 18.1212
40.3375 18.0892
40.385 18.0365
40.4326 17.9445
40.48 17.9296
40.5277 17.8427
40.5752 17.8244
40.6228 17.738
40.6703 17.6946
40.718 17.6247
40.7655 17.5616
40.8132 17.4982
40.8607 17.4928
40.9084 17.3984
40.9559 17.3049
41.0036 17.2816
41.0512 17.2781
41.0989 17.1603
41.1465 17.1173
41.1942 17.1282
41.242 16.9918
41.2896 16.9635
41.3373 16.8972
41.3849 16.8384
41.4327 16.8162
41.4803 16.6803
41.5281 16.6728
41.5758 16.6206
41.6236 16.4743
41.6712 16.4808
41.7191 16.396
41.7667 16.355
41.8146 16.3258
41.8622 16.2645
41.9101 16.1934
41.9578 16.1234
42.0057 16.1684
42.0534 16.123
42.1013 15.9577
42.149 15.9632
42.1969 15.9374
42.2446 15.8371
42.2925 15.8086
42.3403 15.7339
42.3882 15.748
42.436 15.6891
42.4839 15.5207
42.5319 15.5329
42.5797 15.5036
42.6277 15.4076
42.6755 15.3811
42.7235 15.3277
42.7713 15.2611
42.8193 15.1997
42.8671 15.1708
42.9152 15.1288
42.963 15.0526
43.0111 15.0095
43.0589 14.9616
43.107 14.9158
43.1549 14.8557
43.2029 14.8206
43.2508 14.7436
43.2989 14.6387
43.3468 14.6108
43.3949 14.6225
43.4429 14.5753
43.491 14.4931
43.5389 14.4524
43.5871 14.4288
43.635 14.3735
43.6832 14.2667
43.7312 14.2392
43.7793 14.1851
43.8273 14.1432
43.8755 14.0866
43.9237 14.0613
43.9717 13.9876
44.0199 13.9335
44.068 13.884
44.1162 13.8167
44.1642 13.8085
44.2125 13.7301
44.2606 13.7238
44.3088 13.6051
44.3569 13.6708
44.4052 13.5791
44.4533 13.4817
44.5016 13.4284
44.5497 13.3987
44.598 13.3709
44.6461 13.3179
44.6945 13.2641
44.7426 13.274
44.791 13.1272
44.8391 13.1152
44.8875 13.0592
44.9357 13.0696
44.984 13.0239
45.0322 12.9836
45.0806 12.8732
45.1288 12.8583
45.1773 12.7959
45.2257 12.7918
45.2739 12.751
45.3224 12.6891
45.3706 12.6359
45.4191 12.5866
45.4673 12.5534
45.5158 12.5017
45.5641 12.4678
45.6126 12.4286
45.6609 12.3729
45.7094 12.3292
45.7577 12.2727
45.8063 12.1937
45.8546 12.227
45.9031 12.1156
45.9515 12.1403
46.0001 12.0675
46.0484 11.9855
46.097 11.9819
46.1454 11.9008
46.194 11.9001
46.2424 11.851
46.291 11.7987
46.3395 11.7581
46.3881 11.6815
46.4365 11.6828
46.4852 11.6029
46.5337 11.6115
46.5823 11.6106
46.631 11.4512
46.6795 11.4407
46.7282 11.4512
46.7767 11.3855
46.8254 11.282
46.8739 11.2865
46.9226 11.2441
46.9712 11.2167
47.0199 11.1713
47.0685 11.1247
47.1173 11.0679
47.1658 11.0367
47.2146 10.9813
47.2632 10.9842
47.312 10.9103
47.3606 10.8698
47.4095 10.7965
47.4581 10.8088
47.5069 10.7533
47.5556 10.6813
47.6044 10.6811
47.6531 10.6225
47.702 10.5867
47.7507 10.5618
47.7996 10.4889
47.8483 10.4683
47.8972 10.4509
47.9461 10.3862
47.9948 10.3527
48.0438 10.3193
48.0925 10.2953
48.1415 10.2594
48.1902 10.2094
48.2392 10.2182
48.288 10.136
48.337 10.0915
48.3858 10.0603
48.4348 10.0657
48.4837 10.033
48.5327 9.96528
48.5815 10.0002
48.6306 9.89609
48.6795 9.89719
48.7285 9.76722
48.7774 9.76752
48.8265 9.76945
48.8754 9.72995
48.9245 9.6877
48.9734 9.63074
49.0226 9.66828
49.0715 9.56417
49.1206 9.50755
49.1696 9.50075
49.2188 9.46886
49.2679 9.43924
49.3169 9.39131
49.3661 9.34974
49.4151 9.35745
49.4643 9.28678
49.5134 9.25944
49.5626 9.17372
49.6117 9.17929
49.6609 9.15258
49.71 9.09814
49.7592 9.06187
49.8083 9.02587
49.8576 8.9663
49.9067 8.95729
49.956 8.95323
50.0052 8.88894
50.0545 8.88796
50.1036 8.82963
50.153 8.79324
50.2022 8.74151
50.2515 8.75746
50.3007 8.67602
50.3501 8.64686
50.3993 8.62101
50.4487 8.5791
50.498 8.52352
50.5474 8.5119
50.5966 8.46038
50.6461 8.47401
50.6955 8.41804
50.7448 8.43223
50.7943 8.37319
50.8436 8.33751
50.8931 8.28698
50.9424 8.25353
50.9919 8.23626
51.0413 8.21954
51.0908 8.16176
51.1402 8.11722
51.1897 8.08383
51.2391 8.06056
51.2887 8.0247
51.3381 7.99453
51.3877 7.99047
51.4371 7.95405
51.4867 7.9008
51.5362 7.87675
51.5858 7.82647
51.6353 7.7984
51.6849 7.81416
51.7344 7.74466
51.7841 7.72049
51.8336 7.69892
51.8833 7.6486
51.9328 7.58808
51.9826 7.57122
52.0323 7.57007
52.0818 7.53055
52.1316 7.47412
52.1812 7.47563
52.231 7.43312
52.2806 7.36986
52.3304 7.35174
52.38 7.3271
52.4298 7.29555
52.4794 7.305
52.5293 7.24605
52.5789 7.21148
52.6288 7.20797
52.6785 7.16427
52.7284 7.12207
52.7781 7.10138
52.828 7.06183
52.8777 7.01166
52.9276 6.99067
52.9774 6.99573
53.0273 6.97113
53.0771 6.88131
53.1271 6.92457
53.1769 6.84984
53.2269 6.82252
53.2767 6.80593
53.3267 6.77628
53.3765 6.71784
53.4266 6.72173
53.4766 6.67898
53.5265 6.64777
53.5765 6.62221
53.6264 6.61086
53.6765 6.56707
53.7264 6.53396
53.7765 6.53011
53.8265 6.44954
53.8766 6.42849
53.9266 6.43918
53.9767 6.40796
54.0267 6.34417
54.0769 6.32456
54.1269 6.28309
54.1771 6.26062
54.2271 6.23973
54.2773 6.18943
54.3274 6.18965
54.3776 6.10551
54.4277 6.09585
54.478 6.05731
54.528 6.03056
54.5783 5.97283
54.6285 5.94021
54.6788 5.92086
54.7289 5.87875
54.7792 5.89718
54.8296 5.76851
54.8798 5.68078
54.9301 5.72205
54.9803 5.65154
55.0307 5.65261
55.0809 5.58584
55.1314 5.58974
55.1816 5.44281
55.232 5.39938
55.2823 5.39563
55.3328 5.34793
55.383 5.22708
55.4335 5.24859
55.4838 5.15742
55.5344 5.14609
55.5847 5.0938
55.6352 5.02585
55.6856 5.05982
55.7361 5.01798