File: XRD/Ni3Fe_FD0365.xy
TT I
1.27165 7.45525
1.31627 7.03308
1.36089 7.1405
1.40551 6.23731
1.45013 6.17629
1.49476 6.48194
1.53938 5.87219
1.584 5.02317
1.62863 5.47053
1.67325 5.218
1.71787 5.21503
1.7625 5.30166
1.80712 5.34348
1.85174 4.82386
1.89636 4.89
1.94099 5.18652
1.98562 4.64061
2.03025 4.75237
2.07487 4.56926
2.11949 4.39889
2.16411 3.82944
2.20874 8.14432
2.25338 10.6493
2.298 5.22902
2.34263 4.37037
2.38725 5.35438
2.43188 5.26654
2.4765 5.8136
2.52115 5.86923
2.56577 6.10355
2.6104 7.28219
2.65503 6.82741
2.69965 7.45805
2.7443 7.64552
2.78893 7.64788
2.83356 8.005
2.87818 8.29402
2.92281 8.90881
2.96744 8.91951
3.01209 10.4005
3.05672 10.6535
3.10135 12.1767
3.14599 12.8984
3.19062 14.5673
3.23527 14.8913
3.2799 16.035
3.32454 16.7149
3.36917 17.2581
3.4138 18.8409
3.45844 19.3647
3.50309 20.7536
3.54773 21.4265
3.59237 23.4018
3.637 51.4122
3.68164 37.5639
3.7263 25.971
3.77094 26.33
3.81558 26.4713
3.86022 27.6618
3.90486 29.3858
3.9495 29.9225
3.99416 30.9276
4.0388 32.1813
4.08344 33.8387
4.12809 34.5587
4.17273 36.3386
4.21738 40.2318
4.26204 120.448
4.30669 109.875
4.35133 45.4275
4.39598 44.3456
4.44063 49.3666
4.4853 55.0495
4.52995 53.7342
4.5746 54.116
4.61925 54.6715
4.6639 56.5783
4.70855 59.5438
4.75322 62.9815
4.79788 66.8409
4.84253 70.1747
4.88719 74.6182
4.93184 77.9958
4.97652 84.0794
5.02118 92.0152
5.06583 101.084
5.11049 115.406
5.15515 168.745
5.19981 619.039
5.24449 3697.07
5.28916 11311.4
5.33382 3275.12
5.37848 221.26
5.42315 139.52
5.46783 122.227
5.5125 112.265
5.55716 106.845
5.60183 101.991
5.6465 99.8565
5.69117 98.6988
5.73586 96.5594
5.78053 98.0915
5.8252 98.1441
5.86988 99.8226
5.91455 101.823
5.95924 117.707
6.00392 332.345
6.0486 1289.81
6.09328 4061.26
6.13795 3350.45
6.18263 283.057
6.22733 99.2713
6.27201 84.9949
6.3167 88.1858
6.36138 77.226
6.40606 71.4905
6.45075 69.4924
6.49545 66.8397
6.54014 64.9001
6.58483 64.4475
6.62952 63.5916
6.67421 73.9825
6.71892 93.5396
6.76361 63.4155
6.8083 59.9539
6.853 58.726
6.89769 57.9776
6.94239 57.5898
6.98711 56.7613
7.03181 56.8321
7.07651 56.0478
7.12121 55.9898
7.16591 56.5593
7.21063 56.0597
7.25533 61.5858
7.30004 103.366
7.34475 70.0153
7.38945 56.3923
7.43416 54.822
7.47889 54.7925
7.5236 55.4966
7.56831 56.32
7.61303 56.9167
7.65774 57.1397
7.70247 57.3954
7.74719 57.2361
7.79191 57.7495
7.83663 58.1472
7.88135 59.0414
7.92607 59.7742
7.97081 61.4644
8.01553 62.2216
8.06026 64.0366
8.10498 65.6095
8.14971 71.3378
8.19446 71.7551
8.23919 71.3933
8.28392 74.3616
8.32865 76.764
8.37339 81.4903
8.41812 87.4541
8.46288 110.461
8.50761 229.712
8.55235 507.058
8.59709 1194.2
8.64183 2091.09
8.68658 1035.28
8.73134 179.446
8.77609 103.847
8.82083 96.0747
8.86558 93.4287
8.91033 92.3834
8.9551 90.8122
8.99985 87.069
9.04461 85.7033
9.08936 85.9846
9.13412 84.624
9.17888 84.4902
9.22365 84.8663
9.26841 84.1141
9.31318 86.0422
9.35794 86.0631
9.4027 86.373
9.44749 86.6679
9.49226 87.3188
9.53703 87.9737
9.5818 90.9197
9.62657 93.7944
9.67134 96.6038
9.71614 95.5533
9.76091 97.2573
9.80569 100.588
9.85047 103.808
9.89525 116.188
9.94005 136.252
9.98484 241.488
10.0296 446.892
10.0744 873.915
10.1192 1598.64
10.164 1613.8
10.2088 454.306
10.2536 134.125
10.2984 114.091
10.3432 112.53
10.388 109.958
10.4328 138.3
10.4776 188.932
10.5224 300.849
10.5672 482.453
10.612 512.27
10.6568 210.825
10.7017 99.6411
10.7465 89.0887
10.7913 85.4354
10.8361 83.0552
10.8809 81.0632
10.9257 79.6222
10.9706 79.1694
11.0154 76.5285
11.0602 74.4702
11.105 73.4065
11.1499 74.1106
11.1947 76.2033
11.2395 72.3551
11.2844 70.5003
11.3292 68.6931
11.374 67.8502
11.4189 67.4778
11.4637 66.3642
11.5086 66.1922
11.5534 66.908
11.5983 65.8409
11.6431 65.1886
11.688 64.5909
11.7328 64.2618
11.7777 64.204
11.8225 63.9745
11.8674 64.0104
11.9122 64.4295
11.9571 64.6429
12.002 66.5267
12.0468 74.1572
12.0917 87.0372
12.1366 109.939
12.1814 151.941
12.2263 202.925
12.2712 172.334
12.3161 95.0717
12.3609 69.4351
12.4058 65.8834
12.4507 66.1278
12.4956 65.9941
12.5405 66.3444
12.5853 66.8976
12.6302 69.6898
12.6751 72.8101
12.72 69.8773
12.7649 69.5133
12.8098 70.3398
12.8547 71.6778
12.8996 73.1925
12.9445 74.7579
12.9894 76.6728
13.0343 78.4571
13.0792 83.2844
13.1242 100.452
13.1691 129.086
13.214 169.964
13.2589 248.274
13.3038 352.131
13.3487 421.148
13.3937 276.16
13.4386 132.306
13.4835 118.684
13.5285 137.516
13.5734 175.687
13.6183 245.283
13.6633 334.134
13.7082 344.226
13.7531 198.516
13.7981 101.916
13.843 84.1244
13.888 82.2714
13.9329 79.3302
13.9779 77.9738
14.0228 76.3351
14.0678 74.9692
14.1127 74.5556
14.1577 74.0705
14.2027 73.1577
14.2476 72.2076
14.2926 71.9498
14.3376 72.4073
14.3825 71.6648
14.4275 70.9257
14.4725 70.5638
14.5175 71.0236
14.5624 71.1199
14.6074 72.0317
14.6524 72.8785
14.6974 72.7086
14.7424 77.0513
14.7874 86.9551
14.8324 98.8973
14.8774 120.561
14.9224 155.61
14.9674 200.707
15.0124 217.373
15.0574 152.879
15.1024 93.7108
15.1474 74.2343
15.1924 71.9816
15.2374 71.589
15.2824 70.8761
15.3274 69.5808
15.3725 68.6342
15.4175 68.2652
15.4625 67.8032
15.5076 67.7702
15.5526 67.7789
15.5976 68.1122
15.6426 71.3621
15.6877 78.9305
15.7327 88.0039
15.7778 103.597
15.8228 129.906
15.8679 164.199
15.9129 191.262
15.958 160.817
16.003 100.927
16.0481 69.6965
16.0931 65.1094
16.1382 63.1778
16.1833 61.9217
16.2283 60.26
16.2734 59.89
16.3185 59.5048
16.3636 59.3603
16.4086 58.1464
16.4537 57.5395
16.4988 56.9922
16.5439 56.8692
16.589 56.6016
16.6341 56.2626
16.6792 55.8661
16.7243 56.196
16.7694 56.2025
16.8145 56.0384
16.8596 56.3586
16.9047 57.1647
16.9498 57.3821
16.9949 57.0737
17.04 58.0883
17.0851 59.533
17.1302 61.5071
17.1754 64.6302
17.2205 69.2656
17.2656 75.1654
17.3108 82.628
17.3559 83.194
17.401 73.2619
17.4462 64.2799
17.4913 60.9345
17.5365 60.8192
17.5815 61.007
17.6268 61.1783
17.6718 61.9293
17.7171 62.4511
17.7622 63.1878
17.8074 64.5883
17.8525 68.7017
17.8977 73.171
17.9428 79.1401
17.9881 88.3703
18.0331 102.542
18.0784 120.124
18.1237 139.807
18.1688 136.536
18.214 110.697
18.2591 91.2276
18.3044 91.8635
18.3495 99.1008
18.3948 105.893
18.4399 97.8827
18.4852 79.1256
18.5303 67.5991
18.5756 63.9901
18.6207 62.9608
18.666 62.0454
18.7112 61.3021
18.7565 60.6598
18.8016 60.2939
18.8469 59.6729
18.892 59.2129
18.9374 58.8604
18.9825 58.5634
19.0278 58.4557
19.073 58.8707
19.1183 59.6658
19.1635 60.3344
19.2088 61.745
19.254 64.4654
19.2993 67.8733
19.3447 72.3962
19.3898 76.9147
19.4352 73.9666
19.4804 65.2492
19.5257 58.4653
19.5709 55.6865
19.6163 55.4947
19.6615 55.1872
19.7068 54.8665
19.752 54.752
19.7974 55.5015
19.8426 56.4282
19.888 57.0981
19.9332 58.4712
19.9786 60.964
20.0238 64.034
20.0692 68.3
20.1144 71.4917
20.1598 70.6411
20.205 66.0849
20.2504 63.5745
20.2957 64.4873
20.3411 66.6891
20.3863 65.8765
20.4318 60.2779
20.477 55.0928
20.5224 52.6497
20.5677 52.158
20.6131 51.5228
20.6586 51.0076
20.7038 50.8128
20.7493 50.4199
20.7945 50.3564
20.84 50.1099
20.8853 50.0817
20.9307 49.9651
20.976 50.0981
21.0215 50.052
21.0668 50.4106
21.1122 51.0569
21.1575 51.4558
21.203 51.8237
21.2483 52.7803
21.2938 52.9349
21.3391 51.6389
21.3846 50.4535
21.4299 49.8768
21.4754 49.8948
21.5207 50.1301
21.5662 50.5777
21.6116 51.197
21.6571 52.0138
21.7024 52.97
21.7479 54.8824
21.7933 57.395
21.8388 60.0358
21.8843 63.3344
21.9297 66.094
21.9752 65.3024
22.0206 61.277
22.0661 57.7641
22.1115 57.2736
22.157 57.3165
22.2024 55.8268
22.248 53.0654
22.2933 51.3039
22.3389 50.2885
22.3843 50.3337
22.4299 50.0647
22.4753 50.0744
22.5208 49.9882
22.5662 50.0513
22.6118 50.269
22.6572 50.7408
22.7028 51.1805
22.7483 51.5281
22.7939 52.3556
22.8393 53.6903
22.8849 55.4156
22.9303 57.0177
22.9759 58.8345
23.0214 58.9201
23.067 56.2427
23.1126 52.4996
23.1581 50.7832
23.2037 50.3819
23.2492 50.5098
23.2948 50.6525
23.3403 50.9567
23.3859 51.6592
23.4314 52.6462
23.477 54.0376
23.5225 55.6986
23.5682 57.768
23.6137 59.2107
23.6593 57.2038
23.7048 53.2751
23.7505 49.6428
23.796 47.9841
23.8417 47.3551
23.8872 46.879
23.9329 46.4692
23.9784 46.1465
24.0241 45.8099
24.0697 45.5898
24.1154 45.2032
24.1609 45.1322
24.2066 45.0593
24.2522 45.0142
24.2979 44.6743
24.3434 44.4862
24.3892 44.2976
24.4349 44.1968
24.4805 43.9813
24.5262 44.3196
24.5718 44.089
24.6175 44.165
24.6631 43.9682
24.7089 43.6632
24.7545 43.5556
24.8002 43.4525
24.8458 43.5281
24.8916 43.2726
24.9372 43.5723
24.983 43.9371
25.0286 44.2007
25.0744 44.4947
25.12 45.0432
25.1658 45.5773
25.2114 46.0278
25.2572 45.972
25.3029 45.8729
25.3487 45.9798
25.3943 45.8601
25.4402 44.7283
25.4858 43.5777
25.5316 42.5795
25.5773 41.9567
25.6231 41.9688
25.669 41.713
25.7147 41.6766
25.7605 41.6056
25.8062 41.6808
25.8521 41.7406
25.8977 41.8225
25.9436 41.973
25.9893 42.0747
26.0352 42.5496
26.0809 42.5817
26.1268 42.8374
26.1725 42.4253
26.2184 41.9421
26.2641 41.5544
26.31 41.2782
26.3557 41.437
26.4017 41.3655
26.4474 41.6459
26.4933 41.9592
26.5391 42.319
26.585 42.6729
26.6308 43.1267
26.6767 43.2776
26.7225 43.2036
26.7684 42.634
26.8142 41.961
26.8601 41.5063
26.9059 41.1229
26.9519 40.6703
26.9979 40.3078
27.0437 40.0785
27.0896 39.8272
27.1354 39.8195
27.1814 39.6833
27.2272 39.6395
27.2732 39.5603
27.3191 39.452
27.3651 39.5071
27.4109 39.4375
27.4569 39.4691
27.5027 39.6257
27.5488 39.6867
27.5946 39.3599
27.6407 39.2718
27.6865 39.141
27.7326 38.8549
27.7784 39.0353
27.8245 38.9469
27.8703 39.0827
27.9164 39.2261
27.9623 39.3853
28.0084 39.6251
28.0543 40.2175
28.1003 40.1154
28.1462 39.813
28.1923 39.5784
28.2384 39.0024
28.2843 38.6163
28.3304 38.1483
28.3764 37.6356
28.4225 37.4315
28.4684 37.2356
28.5145 36.844
28.5605 36.911
28.6066 36.6332
28.6526 36.577
28.6987 36.6741
28.7447 36.4615
28.7908 36.3849
28.8368 36.3511
28.8829 36.2912
28.9289 36.2821
28.9751 36.1384
29.0211 35.9234
29.0673 35.5309
29.1133 35.4529
29.1595 35.2939
29.2055 35.2367
29.2517 35.1654
29.2977 35.2119
29.3439 35.113
29.3899 35.0742
29.4361 34.9863
29.4824 34.8295
29.5284 34.6284
29.5746 34.3739
29.6207 34.0736
29.6669 33.9796
29.713 33.9023
29.7593 33.7783
29.8053 33.7314
29.8516 33.5963
29.8977 33.7472
29.9439 33.5166
29.99 33.3797
30.0363 33.3516
30.0824 33.419
30.1287 33.2062
30.1748 33.3449
30.2211 33.3539
30.2673 33.1183
30.3136 33.2076
30.3597 33.1401
30.406 33.1145
30.4522 32.9497
30.4985 32.9904
30.5447 32.9639
30.591 33.0692
30.6372 33.0618
30.6835 33.009
30.7297 33.0772
30.7761 33.0317
30.8224 32.8828
30.8686 32.7491
30.915 32.3436
30.9612 32.356
31.0076 32.2177
31.0538 32.0214
31.1002 31.9871
31.1464 31.8193
31.1928 31.8185
31.2391 31.8304
31.2855 31.6571
31.3317 31.6906
31.3781 31.8017
31.4244 31.7373
31.4708 31.5588
31.5171 31.6469
31.5636 31.5527
31.6098 31.3835
31.6563 31.1713
31.7026 31.1045
31.7491 30.8759
31.7953 30.8718
31.8418 30.9438
31.8881 30.8242
31.9346 30.8299
31.9809 30.8407
32.0275 30.7035
32.074 30.6099
32.1203 30.4406
32.1668 30.368
32.2132 30.265
32.2597 30.0409
32.306 29.9915
32.3526 29.6653
32.399 29.6434
32.4455 29.6378
32.4919 29.4741
32.5385 29.4735
32.5848 29.1961
32.6314 29.2014
32.6778 29.2334
32.7244 29.0804
32.7708 28.9318
32.8174 28.8965
32.8638 28.723
32.9104 28.8932
32.9569 28.7853
33.0035 28.6315
33.0499 28.594
33.0966 28.4698
33.143 28.5414
33.1897 28.3801
33.2361 28.3384
33.2828 28.2561
33.3293 28.0324
33.3759 28.1861
33.4226 27.9414
33.4691 27.7788
33.5158 27.6417
33.5623 27.7064
33.609 27.5173
33.6555 27.3846
33.7022 27.2678
33.7487 27.1897
33.7954 27.1828
33.842 27.0496
33.8887 26.9837
33.9353 26.985
33.982 26.8493
34.0286 26.8114
34.0753 26.6157
34.1219 26.5595
34.1687 26.484
34.2152 26.341
34.262 26.2953
34.3086 26.2477
34.3554 26.1933
34.402 26.069
34.4488 26.027
34.4954 25.9658
34.5422 25.7611
34.5889 25.7112
34.6357 25.6064
34.6825 25.589
34.7292 25.5282
34.776 25.4088
34.8227 25.3483
34.8695 25.2385
34.9162 25.2071
34.9631 25.0391
35.0098 25.1964
35.0566 24.991
35.1033 25.0061
35.1502 24.8989
35.1969 24.8103
35.2438 24.7339
35.2906 24.6544
35.3375 24.6496
35.3842 24.5867
35.4311 24.6312
35.4779 24.6085
35.5248 24.5037
35.5716 24.358
35.6185 24.3294
35.6653 24.1763
35.7123 24.0733
35.759 24.1234
35.806 23.9828
35.8528 23.8285
35.8998 23.8568
35.9468 23.7758
35.9936 23.7188
36.0406 23.6357
36.0874 23.6235
36.1345 23.4857
36.1813 23.3886
36.2283 23.2905
36.2752 23.1919
36.3222 23.2341
36.3691 23.2382
36.4161 23.0531
36.463 23.0152
36.5101 23.044
36.557 22.9327
36.6041 22.7051
36.651 22.8257
36.6981 22.6645
36.745 22.687
36.7921 22.4918
36.839 22.3862
36.8861 22.3843
36.9331 22.2606
36.9802 22.2797
37.0272 22.1523
37.0743 22.0522
37.1213 22.0543
37.1684 22.0182
37.2154 21.8965
37.2626 21.8347
37.3098 21.765
37.3568 21.6627
37.404 21.5963
37.451 21.5458
37.4982 21.4937
37.5452 21.4168
37.5924 21.2586
37.6395 21.3803
37.6867 21.2807
37.7337 21.0954
37.781 20.9936
37.8281 21.0167
37.8753 20.8436
37.9224 20.8659
37.9697 20.7837
38.0168 20.7636
38.064 20.6958
38.1111 20.662
38.1584 20.5453
38.2056 20.5184
38.2529 20.4214
38.3 20.3623
38.3473 20.2862
38.3945 20.2028
38.4418 20.2425
38.489 20.0388
38.5363 20.0291
38.5837 19.9428
38.6309 19.9131
38.6782 19.8616
38.7254 19.7995
38.7728 19.7136
38.82 19.6968
38.8674 19.6059
38.9146 19.5756
38.9621 19.4881
39.0093 19.4173
39.0567 19.397
39.104 19.2592
39.1514 19.1517
39.1987 19.2218
39.2461 19.0569
39.2934 19.0299
39.3409 18.9424
39.3882 18.9066
39.4356 18.8085
39.483 18.7943
39.5304 18.7046
39.5778 18.7576
39.6253 18.5974
39.6726 18.5758
39.7201 18.5298
39.7675 18.4385
39.815 18.4053
39.8624 18.3158
39.9099 18.3374
39.9575 18.1209
40.0049 18.1602
40.0525 18.0677
40.0999 17.9982
40.1474 18.029
40.1949 17.9291
40.2425 17.8928
40.2899 17.7855
40.3375 17.7393
40.385 17.6792
40.4326 17.616
40.48 17.6021
40.5277 17.5875
40.5752 17.4401
40.6228 17.3984
40.6703 17.3798
40.718 17.3154
40.7655 17.2269
40.8132 17.1579
40.8607 17.1433
40.9084 17.1067
40.9559 17.0535
41.0036 16.9933
41.0512 16.8986
41.0989 16.8868
41.1465 16.8542
41.1942 16.7635
41.242 16.6772
41.2896 16.6254
41.3373 16.571
41.3849 16.5648
41.4327 16.4805
41.4803 16.3796
41.5281 16.3378
41.5758 16.3023
41.6236 16.2454
41.6712 16.2022
41.7191 16.1029
41.7667 16.0881
41.8146 16.049
41.8622 15.9684
41.9101 15.9383
41.9578 15.8942
42.0057 15.7987
42.0534 15.7908
42.1013 15.7143
42.149 15.6024
42.1969 15.579
42.2446 15.5402
42.2925 15.4559
42.3403 15.5021
42.3882 15.3657
42.436 15.3359
42.4839 15.2568
42.5319 15.2515
42.5797 15.1904
42.6277 15.1349
42.6755 15.0782
42.7235 15.02
42.7713 15.0075
42.8193 14.9832
42.8671 14.8603
42.9152 14.8145
42.963 14.767
43.0111 14.7542
43.0589 14.6566
43.107 14.6118
43.1549 14.5425
43.2029 14.5453
43.2508 14.5059
43.2989 14.4561
43.3468 14.3266
43.3949 14.3142
43.4429 14.2545
43.491 14.1936
43.5389 14.1764
43.5871 14.1097
43.635 14.069
43.6832 14.0569
43.7312 13.9493
43.7793 13.9093
43.8273 13.9122
43.8755 13.8333
43.9237 13.8013
43.9717 13.7823
44.0199 13.7092
44.068 13.6396
44.1162 13.5904
44.1642 13.6047
44.2125 13.504
44.2606 13.489
44.3088 13.4351
44.3569 13.3791
44.4052 13.338
44.4533 13.2567
44.5016 13.1889
44.5497 13.1828
44.598 13.1364
44.6461 13.105
44.6945 13.0463
44.7426 12.9975
44.791 12.927
44.8391 12.9192
44.8875 12.9312
44.9357 12.8417
44.984 12.7547
45.0322 12.6939
45.0806 12.6958
45.1288 12.6181
45.1773 12.6023
45.2257 12.5012
45.2739 12.4808
45.3224 12.4881
45.3706 12.4104
45.4191 12.3682
45.4673 12.3089
45.5158 12.2816
45.5641 12.2212
45.6126 12.2057
45.6609 12.1507
45.7094 12.1121
45.7577 12.0281
45.8063 11.9987
45.8546 12.0045
45.9031 11.9196
45.9515 11.9137
46.0001 11.8482
46.0484 11.8144
46.097 11.7635
46.1454 11.7471
46.194 11.6991
46.2424 11.6146
46.291 11.6187
46.3395 11.5295
46.3881 11.4812
46.4365 11.473
46.4852 11.4318
46.5337 11.3603
46.5823 11.3695
46.631 11.2687
46.6795 11.2633
46.7282 11.2446
46.7767 11.2011
46.8254 11.1226
46.8739 11.0923
46.9226 11.0185
46.9712 11.035
47.0199 10.9329
47.0685 10.9359
47.1173 10.9162
47.1658 10.8911
47.2146 10.8378
47.2632 10.7655
47.312 10.732
47.3606 10.6908
47.4095 10.6302
47.4581 10.6132
47.5069 10.596
47.5556 10.5234
47.6044 10.4902
47.6531 10.4455
47.702 10.3716
47.7507 10.39
47.7996 10.3268
47.8483 10.2972
47.8972 10.2879
47.9461 10.2412
47.9948 10.1752
48.0438 10.112
48.0925 10.111
48.1415 10.1074
48.1902 10.0361
48.2392 10.0127
48.288 9.95208
48.337 9.95543
48.3858 9.91845
48.4348 9.86872
48.4837 9.87252
48.5327 9.82713
48.5815 9.76992
48.6306 9.74362
48.6795 9.69504
48.7285 9.63201
48.7774 9.62658
48.8265 9.60462
48.8754 9.54004
48.9245 9.49874
48.9734 9.48696
49.0226 9.46111
49.0715 9.4108
49.1206 9.37601
49.1696 9.338
49.2188 9.30267
49.2679 9.2599
49.3169 9.21713
49.3661 9.16588
49.4151 9.21401
49.4643 9.16761
49.5134 9.11168
49.5626 9.05034
49.6117 9.03605
49.6609 9.01047
49.71 8.92238
49.7592 8.91961
49.8083 8.87328
49.8576 8.85858
49.9067 8.8381
49.956 8.77199
50.0052 8.72329
50.0545 8.70951
50.1036 8.6631
50.153 8.66505
50.2022 8.60119
50.2515 8.5758
50.3007 8.52012
50.3501 8.48442
50.3993 8.4603
50.4487 8.43942
50.498 8.40961
50.5474 8.3874
50.5966 8.35029
50.6461 8.3282
50.6955 8.29433
50.7448 8.26096
50.7943 8.18174
50.8436 8.19978
50.8931 8.1629
50.9424 8.11201
50.9919 8.0774
51.0413 8.0455
51.0908 8.03799
51.1402 7.99685
51.1897 7.94518
51.2391 7.97563
51.2887 7.87565
51.3381 7.87752
51.3877 7.82466
51.4371 7.83843
51.4867 7.76673
51.5362 7.74138
51.5858 7.73544
51.6353 7.69013
51.6849 7.63146
51.7344 7.59227
51.7841 7.56465
51.8336 7.55334
51.8833 7.49736
51.9328 7.48013
51.9826 7.41372
52.0323 7.39649
52.0818 7.3684
52.1316 7.36353
52.1812 7.334
52.231 7.31169
52.2806 7.221
52.3304 7.27791
52.38 7.1813
52.4298 7.1846
52.4794 7.13134
52.5293 7.11143
52.5789 7.08675
52.6288 7.06232
52.6785 7.05218
52.7284 7.03941
52.7781 6.96733
52.828 6.92008
52.8777 6.89124
52.9276 6.9068
52.9774 6.85096
53.0273 6.83012
53.0771 6.78297
53.1271 6.77925
53.1769 6.74203
53.2269 6.74634
53.2767 6.69653
53.3267 6.65661
53.3765 6.64875
53.4266 6.63649
53.4766 6.59466
53.5265 6.51809
53.5765 6.49242
53.6264 6.42145
53.6765 6.45254
53.7264 6.4452
53.7765 6.39085
53.8265 6.36271
53.8766 6.3022
53.9266 6.28159
53.9767 6.24433
54.0267 6.23437
54.0769 6.18556
54.1269 6.16172
54.1771 6.14183
54.2271 6.13464
54.2773 6.08477
54.3274 6.06832
54.3776 6.04074
54.4277 6.00979
54.478 5.99966
54.528 5.91726
54.5783 5.8966
54.6285 5.8233
54.6788 5.83686
54.7289 5.7865
54.7792 5.78866
54.8296 5.68671
54.8798 5.63282
54.9301 5.605
54.9803 5.58172
55.0307 5.59466
55.0809 5.50545
55.1314 5.47548
55.1816 5.44452
55.232 5.3877
55.2823 5.34381
55.3328 5.27279
55.383 5.20132
55.4335 5.18602
55.4838 5.14601
55.5344 5.08984
55.5847 5.08771
55.6352 5.02205
55.6856 4.93237
55.7361 4.93127