File: XRD/Ni3Fe_FD0518.xy
TT I
1.27165 7.30663
1.31627 6.91097
1.36089 6.32648
1.40551 6.64796
1.45013 6.26654
1.49476 5.95072
1.53938 6.33094
1.584 5.81726
1.62863 5.36112
1.67325 5.38237
1.71787 5.43137
1.7625 4.79869
1.80712 4.99162
1.85174 5.15104
1.89636 4.83636
1.94099 5.17504
1.98562 4.86343
2.03025 4.6828
2.07487 4.12855
2.11949 4.95479
2.16411 4.96759
2.20874 15.1489
2.25338 25.3877
2.298 6.18298
2.34263 4.78616
2.38725 5.30023
2.43188 5.27781
2.4765 6.67733
2.52115 6.20162
2.56577 7.12306
2.6104 7.8887
2.65503 7.90941
2.69965 8.17362
2.7443 8.28087
2.78893 7.19384
2.83356 8.04691
2.87818 9.21973
2.92281 8.69601
2.96744 9.23476
3.01209 10.299
3.05672 11.2783
3.10135 12.6178
3.14599 13.1619
3.19062 14.4674
3.23527 14.8043
3.2799 15.7792
3.32454 16.9515
3.36917 17.6235
3.4138 18.5652
3.45844 20.3653
3.50309 21.4146
3.54773 22.3067
3.59237 24.7222
3.637 103.966
3.68164 64.7905
3.7263 27.0612
3.77094 26.5807
3.81558 27.2286
3.86022 28.057
3.90486 29.5582
3.9495 30.2198
3.99416 31.3277
4.0388 33.0987
4.08344 34.1059
4.12809 35.1981
4.17273 37.5859
4.21738 44.8819
4.26204 279.705
4.30669 245.021
4.35133 49.8551
4.39598 45.5193
4.44063 55.8431
4.4853 68.762
4.52995 51.223
4.5746 51.5704
4.61925 53.868
4.6639 56.0629
4.70855 58.4549
4.75322 61.838
4.79788 63.6581
4.84253 67.8379
4.88719 72.3415
4.93184 76.3333
4.97652 82.117
5.02118 87.753
5.06583 95.2483
5.11049 107.685
5.15515 185.292
5.19981 383.146
5.24449 2865.16
5.28916 11834.4
5.33382 3249.87
5.37848 205.3
5.42315 133.636
5.46783 116.074
5.5125 107.869
5.55716 103.884
5.60183 99.3601
5.6465 98.2286
5.69117 95.3041
5.73586 93.675
5.78053 92.2672
5.8252 92.0917
5.86988 93.023
5.91455 95.4768
5.95924 103.648
6.00392 212.684
6.0486 990.709
6.09328 4110.99
6.13795 3429.46
6.18263 294.263
6.22733 97.3039
6.27201 85.058
6.3167 108.25
6.36138 83.3809
6.40606 70.1607
6.45075 68.237
6.49545 66.2927
6.54014 64.9072
6.58483 64.0072
6.62952 63.8264
6.67421 99.3867
6.71892 157.556
6.76361 71.0048
6.8083 59.5903
6.853 58.4103
6.89769 57.6932
6.94239 57.832
6.98711 56.9354
7.03181 56.2569
7.07651 56.0645
7.12121 56.0573
7.16591 56.2249
7.21063 56.6041
7.25533 73.4338
7.30004 200.525
7.34475 98.4199
7.38945 57.8497
7.43416 55.5654
7.47889 55.3518
7.5236 55.5921
7.56831 56.2679
7.61303 58.1138
7.65774 58.5874
7.70247 56.7575
7.74719 56.8934
7.79191 57.3101
7.83663 57.7525
7.88135 58.6913
7.92607 59.7284
7.97081 60.6274
8.01553 61.5984
8.06026 62.9033
8.10498 65.0246
8.14971 75.5107
8.19446 73.6117
8.23919 70.2966
8.28392 72.5559
8.32865 74.9944
8.37339 79.3045
8.41812 86.6033
8.46288 119.044
8.50761 166.875
8.55235 390.63
8.59709 1131.65
8.64183 2128.22
8.68658 1053.02
8.73134 187.665
8.77609 102.218
8.82083 94.5308
8.86558 91.1202
8.91033 91.4469
8.9551 93.7723
8.99985 86.4373
9.04461 84.346
9.08936 83.5954
9.13412 82.6941
9.17888 83.0826
9.22365 84.0956
9.26841 82.9552
9.31318 83.5883
9.35794 83.5107
9.4027 84.2879
9.44749 84.7765
9.49226 85.5588
9.53703 86.8381
9.5818 88.0097
9.62657 93.4011
9.67134 101.254
9.71614 95.1407
9.76091 94.7717
9.80569 97.6293
9.85047 101.116
9.89525 128.468
9.94005 141.976
9.98484 179.017
10.0296 344.324
10.0744 776.013
10.1192 1633.05
10.164 1638.95
10.2088 448.793
10.2536 135.004
10.2984 116.194
10.3432 118.184
10.388 106.136
10.4328 119.245
10.4776 160.753
10.5224 276.505
10.5672 494.969
10.612 528.205
10.6568 225.875
10.7017 100.303
10.7465 87.5592
10.7913 84.5942
10.8361 82.3812
10.8809 79.8521
10.9257 79.5297
10.9706 80.348
11.0154 75.9366
11.0602 73.6104
11.105 72.8673
11.1499 78.1683
11.1947 86.4654
11.2395 76.421
11.2844 72.0104
11.3292 68.0584
11.374 67.1765
11.4189 66.4051
11.4637 65.8347
11.5086 66.4
11.5534 69.8571
11.5983 66.6754
11.6431 64.4148
11.688 63.5752
11.7328 63.6616
11.7777 63.6471
11.8225 63.2307
11.8674 63.2095
11.9122 63.6809
11.9571 63.8705
12.002 64.3107
12.0468 68.2741
12.0917 80.2389
12.1366 103.806
12.1814 151.521
12.2263 201.637
12.2712 174.726
12.3161 103.964
12.3609 73.0484
12.4058 65.9454
12.4507 65.3476
12.4956 65.102
12.5405 65.3019
12.5853 66.4344
12.6302 75.3878
12.6751 81.55
12.72 71.417
12.7649 68.8838
12.8098 69.2105
12.8547 70.5781
12.8996 71.9131
12.9445 72.9945
12.9894 74.9559
13.0343 76.4944
13.0792 79.5866
13.1242 88.6493
13.1691 113.653
13.214 149.139
13.2589 231.761
13.3038 354.102
13.3487 432.762
13.3937 286.743
13.4386 132.286
13.4835 107.379
13.5285 121.859
13.5734 157.847
13.6183 238.713
13.6633 335.54
13.7082 343.566
13.7531 201.536
13.7981 102.725
13.843 83.3422
13.888 80.521
13.9329 78.0958
13.9779 76.8777
14.0228 75.2393
14.0678 73.8531
14.1127 73.6234
14.1577 73.6404
14.2027 72.2586
14.2476 71.0871
14.2926 71.4951
14.3376 73.0693
14.3825 71.187
14.4275 69.6991
14.4725 69.4308
14.5175 69.4559
14.5624 69.9796
14.6074 72.3909
14.6524 72.7983
14.6974 71.3393
14.7424 72.5159
14.7874 79.2113
14.8324 89.5381
14.8774 110.351
14.9224 150.002
14.9674 200.391
15.0124 217.529
15.0574 156.755
15.1024 94.8825
15.1474 73.9711
15.1924 71.7517
15.2374 72.3488
15.2824 71.6931
15.3274 68.9594
15.3725 67.6031
15.4175 67.3446
15.4625 66.7788
15.5076 66.9459
15.5526 67.0655
15.5976 66.4615
15.6426 67.5162
15.6877 72.878
15.7327 80.4079
15.7778 95.0073
15.8228 123.563
15.8679 165.41
15.9129 192.475
15.958 162.809
16.003 103.33
16.0481 70.5294
16.0931 65.8708
16.1382 64.2955
16.1833 61.4676
16.2283 59.7915
16.2734 59.3503
16.3185 59.7307
16.3636 60.5109
16.4086 58.9423
16.4537 57.1204
16.4988 56.1766
16.5439 56.3443
16.589 55.9377
16.6341 55.6269
16.6792 55.308
16.7243 55.5013
16.7694 55.5372
16.8145 55.44
16.8596 56.2189
16.9047 57.7961
16.9498 58.0486
16.9949 56.548
17.04 56.3007
17.0851 57.6154
17.1302 59.3461
17.1754 62.3669
17.2205 67.0856
17.2656 74.0897
17.3108 81.7888
17.3559 82.5264
17.401 72.5485
17.4462 63.8614
17.4913 59.991
17.5365 59.9168
17.5815 60.0464
17.6268 60.3839
17.6718 61.214
17.7171 61.5699
17.7622 62.0264
17.8074 62.693
17.8525 64.7321
17.8977 68.7929
17.9428 74.5984
17.9881 82.8084
18.0331 98.4901
18.0784 118.915
18.1237 137.883
18.1688 134.758
18.214 108.075
18.2591 88.4176
18.3044 90.2355
18.3495 99.1993
18.3948 106.524
18.4399 99.2935
18.4852 80.4001
18.5303 67.6451
18.5756 63.3736
18.6207 62.0705
18.666 61.1564
18.7112 60.5453
18.7565 59.5788
18.8016 59.4384
18.8469 58.8898
18.892 58.4775
18.9374 58.0556
18.9825 57.8164
19.0278 57.7115
19.073 57.8975
19.1183 58.2495
19.1635 58.8718
19.2088 60.2625
19.254 62.6451
19.2993 66.8362
19.3447 72.4359
19.3898 76.9247
19.4352 73.7333
19.4804 64.8858
19.5257 57.9888
19.5709 55.1612
19.6163 54.705
19.6615 54.4671
19.7068 53.9476
19.752 53.9583
19.7974 54.2075
19.8426 54.9424
19.888 55.8117
19.9332 56.8808
19.9786 59.376
20.0238 62.4092
20.0692 67.2521
20.1144 70.4582
20.1598 69.3958
20.205 64.7473
20.2504 62.7991
20.2957 64.0752
20.3411 65.9388
20.3863 65.1515
20.4318 59.7093
20.477 54.6783
20.5224 52.4279
20.5677 51.9555
20.6131 51.0413
20.6586 50.2971
20.7038 50.0676
20.7493 49.7129
20.7945 49.675
20.84 49.4255
20.8853 49.4243
20.9307 49.1872
20.976 49.3005
21.0215 49.0763
21.0668 49.6979
21.1122 50.1127
21.1575 50.4904
21.203 51.1995
21.2483 51.783
21.2938 52.1747
21.3391 50.9645
21.3846 49.6791
21.4299 49.1807
21.4754 48.9001
21.5207 49.0852
21.5662 49.4431
21.6116 49.8616
21.6571 50.4806
21.7024 51.3204
21.7479 53.1278
21.7933 55.7409
21.8388 58.9843
21.8843 62.6184
21.9297 65.046
21.9752 64.4409
22.0206 61.0409
22.0661 57.226
22.1115 56.5308
22.157 56.7048
22.2024 55.3634
22.248 52.3615
22.2933 50.7155
22.3389 49.853
22.3843 49.7568
22.4299 49.5572
22.4753 49.4991
22.5208 49.2848
22.5662 49.0881
22.6118 49.0582
22.6572 49.4554
22.7028 49.873
22.7483 50.3392
22.7939 50.8042
22.8393 52.4146
22.8849 54.409
22.9303 56.2857
22.9759 58.0677
23.0214 58.1348
23.067 55.5854
23.1126 52.313
23.1581 50.0177
23.2037 49.5238
23.2492 49.4976
23.2948 49.4943
23.3403 49.6772
23.3859 50.3428
23.4314 51.2087
23.477 52.9951
23.5225 54.8822
23.5682 57.0786
23.6137 58.2311
23.6593 56.7275
23.7048 52.8354
23.7505 49.2519
23.796 47.3566
23.8417 46.5717
23.8872 46.1084
23.9329 45.8398
23.9784 45.5388
24.0241 45.1972
24.0697 45.0715
24.1154 44.7458
24.1609 44.5863
24.2066 44.427
24.2522 44.2673
24.2979 43.9929
24.3434 43.9794
24.3892 43.7613
24.4349 43.7333
24.4805 43.4848
24.5262 43.6283
24.5718 43.41
24.6175 43.4895
24.6631 43.4149
24.7089 43.1523
24.7545 43.0194
24.8002 42.7673
24.8458 42.8433
24.8916 42.5663
24.9372 42.6817
24.983 43.0608
25.0286 43.398
25.0744 43.8045
25.12 44.2341
25.1658 44.7631
25.2114 45.1363
25.2572 45.289
25.3029 45.2867
25.3487 45.3744
25.3943 45.1797
25.4402 44.1257
25.4858 43.1285
25.5316 42.0379
25.5773 41.5296
25.6231 41.4205
25.669 41.0885
25.7147 41.0444
25.7605 40.9217
25.8062 41.1644
25.8521 41.2069
25.8977 41.2373
25.9436 41.3794
25.9893 41.4752
26.0352 41.9099
26.0809 42.0518
26.1268 42.2215
26.1725 41.9417
26.2184 41.4633
26.2641 40.7966
26.31 40.6899
26.3557 40.6917
26.4017 40.7375
26.4474 40.9796
26.4933 41.206
26.5391 41.7243
26.585 42.1612
26.6308 42.4236
26.6767 42.5249
26.7225 42.5875
26.7684 42.0134
26.8142 41.4207
26.8601 41.0788
26.9059 40.5361
26.9519 40.0728
26.9979 39.616
27.0437 39.4018
27.0896 39.1642
27.1354 39.3857
27.1814 39.075
27.2272 39.0374
27.2732 39.1133
27.3191 38.8785
27.3651 39.0775
27.4109 38.8401
27.4569 38.8956
27.5027 38.9915
27.5488 39.0316
27.5946 38.9081
27.6407 38.7856
27.6865 38.6904
27.7326 38.3942
27.7784 38.392
27.8245 38.3873
27.8703 38.602
27.9164 38.6561
27.9623 38.8107
28.0084 39.1786
28.0543 39.5964
28.1003 39.4692
28.1462 39.4119
28.1923 38.9834
28.2384 38.4306
28.2843 38.1052
28.3304 37.7407
28.3764 37.3019
28.4225 36.983
28.4684 36.7336
28.5145 36.4313
28.5605 36.331
28.6066 36.0839
28.6526 36.0784
28.6987 36.094
28.7447 35.9755
28.7908 35.8912
28.8368 35.8894
28.8829 35.9109
28.9289 35.7926
28.9751 35.6108
29.0211 35.3907
29.0673 35.2485
29.1133 35.0457
29.1595 34.9603
29.2055 34.8918
29.2517 34.7998
29.2977 34.6465
29.3439 34.5512
29.3899 34.745
29.4361 34.502
29.4824 34.5447
29.5284 34.2678
29.5746 33.8477
29.6207 33.5732
29.6669 33.4973
29.713 33.3631
29.7593 33.32
29.8053 33.3107
29.8516 33.2632
29.8977 33.1637
29.9439 33.0796
29.99 33.018
30.0363 32.7947
30.0824 33.0007
30.1287 32.8091
30.1748 32.9142
30.2211 32.832
30.2673 32.7006
30.3136 32.6607
30.3597 32.6398
30.406 32.6134
30.4522 32.5133
30.4985 32.3754
30.5447 32.5409
30.591 32.4788
30.6372 32.5749
30.6835 32.5629
30.7297 32.7053
30.7761 32.5743
30.8224 32.4686
30.8686 32.2987
30.915 31.9362
30.9612 31.9636
31.0076 31.6836
31.0538 31.6094
31.1002 31.4844
31.1464 31.2923
31.1928 31.2875
31.2391 31.3417
31.2855 31.2762
31.3317 31.2208
31.3781 31.2688
31.4244 31.2426
31.4708 31.2013
31.5171 31.247
31.5636 31.2078
31.6098 30.9041
31.6563 30.7154
31.7026 30.6627
31.7491 30.4892
31.7953 30.5696
31.8418 30.5438
31.8881 30.441
31.9346 30.4395
31.9809 30.3969
32.0275 30.3263
32.074 30.2506
32.1203 30.0904
32.1668 29.9145
32.2132 29.7906
32.2597 29.62
32.306 29.5415
32.3526 29.2989
32.399 29.2514
32.4455 29.1583
32.4919 29.1173
32.5385 29.0265
32.5848 28.8521
32.6314 28.9601
32.6778 28.8133
32.7244 28.7133
32.7708 28.5448
32.8174 28.5523
32.8638 28.3072
32.9104 28.463
32.9569 28.4434
33.0035 28.1267
33.0499 28.2959
33.0966 28.2264
33.143 28.183
33.1897 28.0555
33.2361 27.9692
33.2828 27.9629
33.3293 27.7302
33.3759 27.7685
33.4226 27.575
33.4691 27.4244
33.5158 27.3046
33.5623 27.209
33.609 27.0674
33.6555 27.0564
33.7022 26.9428
33.7487 26.8866
33.7954 26.8752
33.842 26.7735
33.8887 26.6957
33.9353 26.5451
33.982 26.4281
34.0286 26.4459
34.0753 26.2821
34.1219 26.2356
34.1687 26.1688
34.2152 26.091
34.262 25.9152
34.3086 25.8932
34.3554 25.8196
34.402 25.6948
34.4488 25.6483
34.4954 25.6576
34.5422 25.4452
34.5889 25.3917
34.6357 25.3881
34.6825 25.3739
34.7292 25.151
34.776 25.05
34.8227 25.0389
34.8695 25.0066
34.9162 24.8395
34.9631 24.8352
35.0098 24.8238
35.0566 24.6366
35.1033 24.6177
35.1502 24.6124
35.1969 24.5281
35.2438 24.4535
35.2906 24.3546
35.3375 24.3553
35.3842 24.301
35.4311 24.3525
35.4779 24.2699
35.5248 24.1608
35.5716 24.0578
35.6185 24.0191
35.6653 23.9281
35.7123 23.8379
35.759 23.8517
35.806 23.6751
35.8528 23.5568
35.8998 23.4619
35.9468 23.3799
35.9936 23.3721
36.0406 23.3279
36.0874 23.345
36.1345 23.1673
36.1813 23.1215
36.2283 23.0172
36.2752 22.9099
36.3222 22.9617
36.3691 22.8847
36.4161 22.7535
36.463 22.7524
36.5101 22.7808
36.557 22.5862
36.6041 22.4592
36.651 22.4557
36.6981 22.4247
36.745 22.2939
36.7921 22.2811
36.839 22.1393
36.8861 22.0724
36.9331 22.0464
36.9802 21.9319
37.0272 21.9242
37.0743 21.7934
37.1213 21.6395
37.1684 21.7154
37.2154 21.5993
37.2626 21.5514
37.3098 21.5587
37.3568 21.3651
37.404 21.3355
37.451 21.2294
37.4982 21.1891
37.5452 21.1474
37.5924 21.0213
37.6395 21.1175
37.6867 20.9487
37.7337 20.8325
37.781 20.8357
37.8281 20.7778
37.8753 20.6647
37.9224 20.5706
37.9697 20.5275
38.0168 20.4489
38.064 20.3631
38.1111 20.3886
38.1584 20.2223
38.2056 20.3222
38.2529 20.1348
38.3 20.0962
38.3473 19.9935
38.3945 19.951
38.4418 19.945
38.489 19.8602
38.5363 19.7757
38.5837 19.6844
38.6309 19.6359
38.6782 19.6211
38.7254 19.511
38.7728 19.4638
38.82 19.4177
38.8674 19.3827
38.9146 19.3097
38.9621 19.2152
39.0093 19.1774
39.0567 19.1522
39.104 19.0455
39.1514 18.918
39.1987 18.9143
39.2461 18.9021
39.2934 18.8586
39.3409 18.643
39.3882 18.6364
39.4356 18.6071
39.483 18.5612
39.5304 18.504
39.5778 18.4112
39.6253 18.3788
39.6726 18.3848
39.7201 18.2907
39.7675 18.229
39.815 18.1562
39.8624 18.0778
39.9099 18.1085
39.9575 17.9866
40.0049 17.8926
40.0525 17.8749
40.0999 17.8188
40.1474 17.7228
40.1949 17.6284
40.2425 17.6803
40.2899 17.5912
40.3375 17.5303
40.385 17.5143
40.4326 17.415
40.48 17.3528
40.5277 17.3869
40.5752 17.2713
40.6228 17.202
40.6703 17.1911
40.718 17.1175
40.7655 17.0521
40.8132 16.9004
40.8607 16.9654
40.9084 16.9065
40.9559 16.8367
41.0036 16.8308
41.0512 16.687
41.0989 16.6477
41.1465 16.5903
41.1942 16.619
41.242 16.5057
41.2896 16.4222
41.3373 16.3831
41.3849 16.3342
41.4327 16.2653
41.4803 16.2443
41.5281 16.169
41.5758 16.1384
41.6236 16.035
41.6712 15.9991
41.7191 15.9656
41.7667 15.8906
41.8146 15.8774
41.8622 15.7862
41.9101 15.7675
41.9578 15.6417
42.0057 15.6298
42.0534 15.6075
42.1013 15.5505
42.149 15.493
42.1969 15.4543
42.2446 15.339
42.2925 15.2831
42.3403 15.3263
42.3882 15.2331
42.436 15.149
42.4839 15.1296
42.5319 15.1242
42.5797 15.0622
42.6277 14.9801
42.6755 14.9225
42.7235 14.8239
42.7713 14.8128
42.8193 14.7595
42.8671 14.6853
42.9152 14.6458
42.963 14.6357
43.0111 14.55
43.0589 14.5606
43.107 14.4325
43.1549 14.4508
43.2029 14.3235
43.2508 14.3074
43.2989 14.2463
43.3468 14.186
43.3949 14.2364
43.4429 14.1504
43.491 14.0513
43.5389 14.0157
43.5871 13.9794
43.635 13.8579
43.6832 13.8785
43.7312 13.8219
43.7793 13.7844
43.8273 13.7619
43.8755 13.6886
43.9237 13.642
43.9717 13.5862
44.0199 13.5431
44.068 13.5453
44.1162 13.4639
44.1642 13.4318
44.2125 13.3908
44.2606 13.3742
44.3088 13.2401
44.3569 13.1646
44.4052 13.1604
44.4533 13.1205
44.5016 13.061
44.5497 13.0219
44.598 12.9758
44.6461 12.911
44.6945 12.887
44.7426 12.8481
44.791 12.7547
44.8391 12.7728
44.8875 12.7261
44.9357 12.6761
44.984 12.5964
45.0322 12.5733
45.0806 12.5566
45.1288 12.539
45.1773 12.388
45.2257 12.3917
45.2739 12.342
45.3224 12.3433
45.3706 12.3063
45.4191 12.2341
45.4673 12.1513
45.5158 12.1491
45.5641 12.0929
45.6126 12.0473
45.6609 12.0338
45.7094 11.9858
45.7577 11.9059
45.8063 11.8522
45.8546 11.8883
45.9031 11.7834
45.9515 11.7578
46.0001 11.6952
46.0484 11.6561
46.097 11.639
46.1454 11.5754
46.194 11.5981
46.2424 11.5167
46.291 11.4539
46.3395 11.4369
46.3881 11.3609
46.4365 11.3545
46.4852 11.3005
46.5337 11.2374
46.5823 11.2006
46.631 11.1716
46.6795 11.1451
46.7282 11.1584
46.7767 11.0701
46.8254 11.0099
46.8739 10.9498
46.9226 10.9396
46.9712 10.9203
47.0199 10.8639
47.0685 10.817
47.1173 10.7905
47.1658 10.7535
47.2146 10.6708
47.2632 10.6621
47.312 10.6163
47.3606 10.5809
47.4095 10.57
47.4581 10.4673
47.5069 10.4478
47.5556 10.432
47.6044 10.39
47.6531 10.3575
47.702 10.2539
47.7507 10.2563
47.7996 10.2176
47.8483 10.1911
47.8972 10.1479
47.9461 10.1086
47.9948 10.0625
48.0438 10.0219
48.0925 10.0452
48.1415 10.016
48.1902 9.92758
48.2392 9.9408
48.288 9.87063
48.337 9.83558
48.3858 9.78507
48.4348 9.77627
48.4837 9.76049
48.5327 9.71152
48.5815 9.63994
48.6306 9.63484
48.6795 9.58709
48.7285 9.54775
48.7774 9.49447
48.8265 9.4937
48.8754 9.42763
48.9245 9.40369
48.9734 9.36987
49.0226 9.36464
49.0715 9.31679
49.1206 9.28941
49.1696 9.23016
49.2188 9.19993
49.2679 9.14771
49.3169 9.13084
49.3661 9.07658
49.4151 9.05668
49.4643 9.02651
49.5134 9.00222
49.5626 8.92338
49.6117 8.9039
49.6609 8.87064
49.71 8.84104
49.7592 8.8037
49.8083 8.75056
49.8576 8.76966
49.9067 8.72386
49.956 8.69784
50.0052 8.6925
50.0545 8.60988
50.1036 8.57024
50.153 8.52043
50.2022 8.49888
50.2515 8.50089
50.3007 8.41632
50.3501 8.42511
50.3993 8.34935
50.4487 8.38481
50.498 8.30172
50.5474 8.31396
50.5966 8.24736
50.6461 8.24912
50.6955 8.20907
50.7448 8.16592
50.7943 8.13243
50.8436 8.08536
50.8931 8.09671
50.9424 8.02349
50.9919 8.01079
51.0413 7.97026
51.0908 7.9314
51.1402 7.9078
51.1897 7.88609
51.2391 7.81202
51.2887 7.78721
51.3381 7.77707
51.3877 7.78075
51.4371 7.71362
51.4867 7.68086
51.5362 7.66111
51.5858 7.59838
51.6353 7.58138
51.6849 7.55189
51.7344 7.50943
51.7841 7.5286
51.8336 7.44874
51.8833 7.39372
51.9328 7.40855
51.9826 7.37755
52.0323 7.35063
52.0818 7.3145
52.1316 7.27285
52.1812 7.25342
52.231 7.22011
52.2806 7.18657
52.3304 7.16372
52.38 7.12858
52.4298 7.11443
52.4794 7.08401
52.5293 7.03605
52.5789 7.03402
52.6288 7.02123
52.6785 6.914
52.7284 6.94596
52.7781 6.91358
52.828 6.88785
52.8777 6.85096
52.9276 6.81001
52.9774 6.79194
53.0273 6.78163
53.0771 6.74282
53.1271 6.72979
53.1769 6.65247
53.2269 6.60528
53.2767 6.6271
53.3267 6.5971
53.3765 6.57557
53.4266 6.53762
53.4766 6.51121
53.5265 6.48194
53.5765 6.45987
53.6264 6.38567
53.6765 6.40381
53.7264 6.37007
53.7765 6.31723
53.8265 6.32021
53.8766 6.24546
53.9266 6.26041
53.9767 6.21792
54.0267 6.21216
54.0769 6.2175
54.1269 6.12732
54.1771 6.07143
54.2271 6.04185
54.2773 6.01248
54.3274 6.02593
54.3776 6.00474
54.4277 5.94952
54.478 5.91782
54.528 5.89302
54.5783 5.83884
54.6285 5.80846
54.6788 5.75097
54.7289 5.6991
54.7792 5.68759
54.8296 5.6554
54.8798 5.60603
54.9301 5.60191
54.9803 5.52123
55.0307 5.49904
55.0809 5.45519
55.1314 5.4217
55.1816 5.36559
55.232 5.33658
55.2823 5.31571
55.3328 5.20763
55.383 5.17237
55.4335 5.1713
55.4838 5.10161
55.5344 5.02876
55.5847 4.98974
55.6352 5.01272
55.6856 4.89567
55.7361 4.91018