File: XRD/Ni3Fe_FD0414.xy
TT I
1.27165 7.60986
1.31627 7.28678
1.36089 6.71681
1.40551 5.6406
1.45013 6.28937
1.49476 5.21642
1.53938 6.15176
1.584 5.10604
1.62863 5.4444
1.67325 4.99245
1.71787 4.88452
1.7625 5.06765
1.80712 5.05664
1.85174 4.48028
1.89636 4.866
1.94099 4.79212
1.98562 4.56345
2.03025 5.22431
2.07487 5.19592
2.11949 4.79557
2.16411 5.46087
2.20874 16.7932
2.25338 29.4146
2.298 6.69462
2.34263 5.1605
2.38725 5.18516
2.43188 5.31531
2.4765 7.00446
2.52115 6.29122
2.56577 6.81455
2.6104 7.27077
2.65503 7.45231
2.69965 7.25176
2.7443 6.98306
2.78893 7.99819
2.83356 8.02314
2.87818 8.86472
2.92281 8.46491
2.96744 9.15965
3.01209 10.5375
3.05672 11.0048
3.10135 12.2244
3.14599 12.5787
3.19062 13.9666
3.23527 14.9496
3.2799 15.962
3.32454 16.8845
3.36917 17.7325
3.4138 19.1786
3.45844 20.0204
3.50309 21.3441
3.54773 22.2179
3.59237 25.3371
3.637 117.366
3.68164 72.5222
3.7263 27.17
3.77094 26.9914
3.81558 27.0547
3.86022 27.9315
3.90486 29.5045
3.9495 30.6062
3.99416 31.6353
4.0388 32.5589
4.08344 34.7697
4.12809 35.9592
4.17273 38.0737
4.21738 45.819
4.26204 320.917
4.30669 280.284
4.35133 51.6232
4.39598 45.3788
4.44063 57.1502
4.4853 73.1991
4.52995 52.0756
4.5746 52.3601
4.61925 53.7921
4.6639 56.4631
4.70855 59.1611
4.75322 61.7534
4.79788 64.7706
4.84253 68.5251
4.88719 72.1425
4.93184 75.9626
4.97652 82.139
5.02118 88.828
5.06583 97.0939
5.11049 109.828
5.15515 201.675
5.19981 424.649
5.24449 2900.63
5.28916 11457.4
5.33382 3536.43
5.37848 223.066
5.42315 137.682
5.46783 118.715
5.5125 109.753
5.55716 104.766
5.60183 100.891
5.6465 99.1135
5.69117 96.6341
5.73586 94.4211
5.78053 93.7757
5.8252 93.6296
5.86988 94.1699
5.91455 97.4788
5.95924 106.368
6.00392 229.569
6.0486 1013.19
6.09328 3881.75
6.13795 3486.97
6.18263 306.79
6.22733 99.9092
6.27201 87.0818
6.3167 114.277
6.36138 85.9513
6.40606 71.1719
6.45075 69.2698
6.49545 67.1577
6.54014 65.5592
6.58483 64.913
6.62952 65.0554
6.67421 105.497
6.71892 175.856
6.76361 73.7016
6.8083 60.5669
6.853 58.9005
6.89769 58.4729
6.94239 57.8736
6.98711 57.3881
7.03181 57.111
7.07651 56.7267
7.12121 56.7847
7.16591 57.2542
7.21063 57.4795
7.25533 76.2297
7.30004 225.474
7.34475 106.397
7.38945 58.5687
7.43416 56.2347
7.47889 55.8021
7.5236 56.018
7.56831 56.8913
7.61303 59.2349
7.65774 59.76
7.70247 57.5128
7.74719 57.6512
7.79191 57.9079
7.83663 58.257
7.88135 59.4081
7.92607 60.0655
7.97081 61.0044
8.01553 61.8968
8.06026 63.5679
8.10498 65.4152
8.14971 77.7435
8.19446 75.9872
8.23919 71.0555
8.28392 73.3216
8.32865 75.6129
8.37339 79.9765
8.41812 87.9487
8.46288 125.2
8.50761 176.151
8.55235 402.605
8.59709 1069.03
8.64183 2092.78
8.68658 1138.17
8.73134 193.882
8.77609 104.189
8.82083 95.5488
8.86558 91.814
8.91033 92.7229
8.9551 95.6006
8.99985 87.4391
9.04461 85.453
9.08936 84.2032
9.13412 83.1673
9.17888 83.7793
9.22365 85.0502
9.26841 84.0166
9.31318 84.1352
9.35794 84.4113
9.4027 84.6862
9.44749 84.9223
9.49226 86.1847
9.53703 86.6048
9.5818 89.1943
9.62657 95.0462
9.67134 103.617
9.71614 95.8451
9.76091 95.755
9.80569 98.3716
9.85047 101.975
9.89525 133.325
9.94005 149.36
9.98484 185.745
10.0296 358.259
10.0744 751.912
10.1192 1583.92
10.164 1777.56
10.2088 515.545
10.2536 140.652
10.2984 119.244
10.3432 121.963
10.388 108.15
10.4328 121.801
10.4776 164.238
10.5224 264.057
10.5672 470.916
10.612 529.258
10.6568 230.748
10.7017 102.283
10.7465 89.1839
10.7913 85.4321
10.8361 83.2156
10.8809 80.7221
10.9257 80.8668
10.9706 82.0218
11.0154 76.6481
11.0602 74.3621
11.105 73.5673
11.1499 79.883
11.1947 90.2228
11.2395 78.1863
11.2844 72.9556
11.3292 68.8424
11.374 67.6883
11.4189 67.3255
11.4637 66.1149
11.5086 67.326
11.5534 71.4188
11.5983 67.7969
11.6431 65.4386
11.688 64.4484
11.7328 64.3315
11.7777 64.2806
11.8225 63.9644
11.8674 63.9035
11.9122 64.1033
11.9571 64.0659
12.002 65.038
12.0468 69.4287
12.0917 81.5641
12.1366 102.013
12.1814 142.224
12.2263 199.582
12.2712 184.98
12.3161 109.297
12.3609 74.9802
12.4058 66.5971
12.4507 66.0267
12.4956 65.994
12.5405 65.9681
12.5853 67.1585
12.6302 77.7451
12.6751 85.0235
12.72 72.8574
12.7649 69.4632
12.8098 69.8504
12.8547 71.2335
12.8996 72.5286
12.9445 73.5149
12.9894 75.4619
13.0343 77.0021
13.0792 80.3892
13.1242 90.1444
13.1691 115.804
13.214 149.982
13.2589 222.885
13.3038 338.409
13.3487 431.593
13.3937 297.761
13.4386 138.797
13.4835 109.588
13.5285 124.086
13.5734 156.678
13.6183 227.561
13.6633 328.17
13.7082 360.794
13.7531 217.208
13.7981 106.245
13.843 84.2912
13.888 81.5637
13.9329 79.0023
13.9779 77.5228
14.0228 75.7966
14.0678 74.6124
14.1127 74.2638
14.1577 74.3895
14.2027 73.4555
14.2476 71.8511
14.2926 72.403
14.3376 74.0439
14.3825 72.11
14.4275 70.2837
14.4725 69.9027
14.5175 70.3339
14.5624 70.6073
14.6074 73.3753
14.6524 73.9961
14.6974 72.1604
14.7424 73.4172
14.7874 80.6708
14.8324 91.0471
14.8774 109.735
14.9224 143.915
14.9674 193.812
15.0124 222.074
15.0574 164.354
15.1024 99.477
15.1474 75.1587
15.1924 72.4479
15.2374 73.6838
15.2824 72.7303
15.3274 70.2746
15.3725 68.4097
15.4175 68.1042
15.4625 67.6349
15.5076 67.9807
15.5526 67.6696
15.5976 67.2743
15.6426 68.0333
15.6877 74.0008
15.7327 81.8363
15.7778 95.297
15.8228 120.129
15.8679 158.621
15.9129 191.785
15.958 170.688
16.003 107.873
16.0481 71.9181
16.0931 67.533
16.1382 65.1116
16.1833 62.2045
16.2283 60.4506
16.2734 59.9815
16.3185 60.436
16.3636 61.695
16.4086 59.8665
16.4537 57.8364
16.4988 57.0064
16.5439 56.7588
16.589 56.464
16.6341 56.2525
16.6792 55.8306
16.7243 56.2676
16.7694 56.5126
16.8145 56.3768
16.8596 56.7141
16.9047 58.7373
16.9498 59.1799
16.9949 57.296
17.04 57.2558
17.0851 58.4712
17.1302 60.1552
17.1754 62.9186
17.2205 67.0274
17.2656 73.2872
17.3108 81.4909
17.3559 83.566
17.401 74.6053
17.4462 64.3288
17.4913 60.6478
17.5365 60.4952
17.5815 60.4316
17.6268 60.9086
17.6718 61.7359
17.7171 62.4199
17.7622 62.4836
17.8074 63.056
17.8525 65.7876
17.8977 69.8249
17.9428 75.3002
17.9881 82.6175
18.0331 96.5691
18.0784 115.139
18.1237 136.89
18.1688 138.185
18.214 112.218
18.2591 89.6079
18.3044 89.2794
18.3495 97.5703
18.3948 106.824
18.4399 101.754
18.4852 82.8275
18.5303 68.7949
18.5756 63.9542
18.6207 62.8665
18.666 61.775
18.7112 61.193
18.7565 60.4509
18.8016 60.1286
18.8469 59.265
18.892 58.8402
18.9374 58.5409
18.9825 58.3727
19.0278 58.2206
19.073 58.5164
19.1183 59.0857
19.1635 59.7702
19.2088 61.0479
19.254 63.0601
19.2993 66.4953
19.3447 72.2157
19.3898 77.6594
19.4352 75.7765
19.4804 66.5639
19.5257 58.8532
19.5709 55.7647
19.6163 55.1744
19.6615 54.9243
19.7068 54.4923
19.752 54.4843
19.7974 54.8943
19.8426 55.8153
19.888 56.3997
19.9332 57.6319
19.9786 59.4596
20.0238 62.2915
20.0692 66.8095
20.1144 70.7035
20.1598 70.7504
20.205 65.7601
20.2504 62.9099
20.2957 63.936
20.3411 66.4715
20.3863 66.2047
20.4318 61.2685
20.477 55.7478
20.5224 53.3382
20.5677 52.459
20.6131 51.516
20.6586 50.9273
20.7038 50.7588
20.7493 50.221
20.7945 50.0071
20.84 49.9759
20.8853 49.7907
20.9307 49.7782
20.976 49.9303
21.0215 49.7254
21.0668 50.1882
21.1122 50.6016
21.1575 50.9428
21.203 51.7073
21.2483 52.5424
21.2938 52.8573
21.3391 51.5599
21.3846 50.5035
21.4299 49.6742
21.4754 49.4708
21.5207 49.6796
21.5662 50.0207
21.6116 50.3295
21.6571 50.9948
21.7024 51.9451
21.7479 53.3877
21.7933 55.6404
21.8388 58.8111
21.8843 62.5748
21.9297 65.3896
21.9752 65.7168
22.0206 61.7873
22.0661 57.9854
22.1115 56.9594
22.157 57.2141
22.2024 56.1189
22.248 53.2573
22.2933 51.3146
22.3389 50.2788
22.3843 50.2697
22.4299 50.0819
22.4753 50.2464
22.5208 49.7707
22.5662 49.5937
22.6118 49.8185
22.6572 50.038
22.7028 50.342
22.7483 50.7462
22.7939 51.4991
22.8393 52.5965
22.8849 54.3534
22.9303 56.2857
22.9759 58.3344
23.0214 58.941
23.067 56.6309
23.1126 53.0395
23.1581 50.6607
23.2037 49.9546
23.2492 50.0184
23.2948 50.0661
23.3403 50.4535
23.3859 50.8873
23.4314 51.5943
23.477 52.9137
23.5225 54.9443
23.5682 57.0398
23.6137 58.8609
23.6593 57.6339
23.7048 53.8865
23.7505 50.0046
23.796 47.8283
23.8417 47.1797
23.8872 46.6268
23.9329 46.2272
23.9784 45.9545
24.0241 45.7428
24.0697 45.5326
24.1154 45.1517
24.1609 45.0954
24.2066 44.9391
24.2522 44.9019
24.2979 44.464
24.3434 44.3652
24.3892 44.0931
24.4349 44.125
24.4805 43.8947
24.5262 43.9389
24.5718 43.8477
24.6175 43.993
24.6631 43.783
24.7089 43.6437
24.7545 43.5218
24.8002 43.2091
24.8458 43.2094
24.8916 43.1159
24.9372 43.2361
24.983 43.5327
25.0286 43.7083
25.0744 43.9645
25.12 44.5438
25.1658 45.2115
25.2114 45.6247
25.2572 45.6622
25.3029 45.6374
25.3487 45.7865
25.3943 45.8198
25.4402 44.6799
25.4858 43.8223
25.5316 42.5419
25.5773 41.8944
25.6231 41.8253
25.669 41.4239
25.7147 41.4567
25.7605 41.3293
25.8062 41.441
25.8521 41.6237
25.8977 41.5709
25.9436 41.7707
25.9893 41.757
26.0352 42.185
26.0809 42.4119
26.1268 42.7552
26.1725 42.4809
26.2184 41.9121
26.2641 41.2853
26.31 41.0353
26.3557 41.1023
26.4017 41.0096
26.4474 41.3925
26.4933 41.5765
26.5391 41.8907
26.585 42.347
26.6308 42.8889
26.6767 43.0565
26.7225 43.0284
26.7684 42.4687
26.8142 41.8845
26.8601 41.4179
26.9059 40.9271
26.9519 40.4506
26.9979 40.1868
27.0437 39.7776
27.0896 39.6622
27.1354 39.6181
27.1814 39.5178
27.2272 39.3997
27.2732 39.3979
27.3191 39.2185
27.3651 39.2799
27.4109 39.2506
27.4569 39.3445
27.5027 39.2629
27.5488 39.4484
27.5946 39.2676
27.6407 39.1271
27.6865 39.0769
27.7326 38.8195
27.7784 38.8771
27.8245 38.6738
27.8703 38.8394
27.9164 39.0901
27.9623 39.0926
28.0084 39.5058
28.0543 39.9367
28.1003 39.9158
28.1462 39.7078
28.1923 39.5564
28.2384 38.8405
28.2843 38.6898
28.3304 38.2895
28.3764 37.6406
28.4225 37.298
28.4684 37.0551
28.5145 36.8623
28.5605 36.6274
28.6066 36.4177
28.6526 36.4353
28.6987 36.5041
28.7447 36.2755
28.7908 36.2199
28.8368 36.2007
28.8829 36.2518
28.9289 36.1021
28.9751 35.9495
29.0211 35.7854
29.0673 35.4346
29.1133 35.4102
29.1595 35.219
29.2055 35.1032
29.2517 35.1511
29.2977 34.9996
29.3439 34.9844
29.3899 35.0513
29.4361 35.0219
29.4824 34.7328
29.5284 34.5579
29.5746 34.1927
29.6207 33.9242
29.6669 33.8732
29.713 33.7932
29.7593 33.6233
29.8053 33.6759
29.8516 33.592
29.8977 33.4739
29.9439 33.4209
29.99 33.3525
30.0363 33.2497
30.0824 33.3191
30.1287 33.1915
30.1748 33.1143
30.2211 33.1533
30.2673 32.9539
30.3136 33.1242
30.3597 32.9773
30.406 32.9651
30.4522 32.7904
30.4985 32.6818
30.5447 32.8253
30.591 32.8205
30.6372 32.9084
30.6835 32.8354
30.7297 32.947
30.7761 32.8938
30.8224 32.7815
30.8686 32.6641
30.915 32.4249
30.9612 32.2305
31.0076 32.0461
31.0538 31.8566
31.1002 31.8274
31.1464 31.6928
31.1928 31.6362
31.2391 31.6362
31.2855 31.5408
31.3317 31.4816
31.3781 31.5185
31.4244 31.4968
31.4708 31.4438
31.5171 31.426
31.5636 31.5379
31.6098 31.1936
31.6563 31.0204
31.7026 30.9696
31.7491 30.8212
31.7953 30.8215
31.8418 30.8156
31.8881 30.8499
31.9346 30.775
31.9809 30.6887
32.0275 30.6725
32.074 30.5168
32.1203 30.351
32.1668 30.2011
32.2132 30.0608
32.2597 29.8675
32.306 29.947
32.3526 29.668
32.399 29.5901
32.4455 29.426
32.4919 29.4118
32.5385 29.2917
32.5848 29.1614
32.6314 29.0957
32.6778 29.0633
32.7244 29.0122
32.7708 28.8221
32.8174 28.825
32.8638 28.6667
32.9104 28.7312
32.9569 28.606
33.0035 28.4849
33.0499 28.5076
33.0966 28.3911
33.143 28.3915
33.1897 28.3125
33.2361 28.2586
33.2828 28.2324
33.3293 28.1122
33.3759 28.0481
33.4226 27.8435
33.4691 27.6996
33.5158 27.6478
33.5623 27.5668
33.609 27.3545
33.6555 27.3006
33.7022 27.173
33.7487 27.0894
33.7954 27.0872
33.842 26.8981
33.8887 26.9224
33.9353 26.9563
33.982 26.7855
34.0286 26.6945
34.0753 26.5436
34.1219 26.4692
34.1687 26.4086
34.2152 26.4086
34.262 26.2263
34.3086 26.1953
34.3554 26.131
34.402 25.957
34.4488 25.8682
34.4954 25.8694
34.5422 25.7303
34.5889 25.6639
34.6357 25.5449
34.6825 25.545
34.7292 25.4549
34.776 25.3122
34.8227 25.2422
34.8695 25.1694
34.9162 25.1779
34.9631 25.0809
35.0098 25.0975
35.0566 24.8549
35.1033 24.8336
35.1502 24.8096
35.1969 24.7591
35.2438 24.6663
35.2906 24.6252
35.3375 24.5804
35.3842 24.4947
35.4311 24.5465
35.4779 24.4632
35.5248 24.4286
35.5716 24.3677
35.6185 24.2509
35.6653 24.122
35.7123 24.0187
35.759 23.9325
35.806 23.8886
35.8528 23.7276
35.8998 23.7562
35.9468 23.6927
35.9936 23.5952
36.0406 23.463
36.0874 23.5422
36.1345 23.4253
36.1813 23.3083
36.2283 23.245
36.2752 23.1472
36.3222 23.1478
36.3691 23.0361
36.4161 22.9429
36.463 22.9518
36.5101 22.9142
36.557 22.7669
36.6041 22.7007
36.651 22.6393
36.6981 22.6681
36.745 22.6054
36.7921 22.434
36.839 22.4568
36.8861 22.3606
36.9331 22.2654
36.9802 22.1383
37.0272 22.1168
37.0743 22.0181
37.1213 21.973
37.1684 21.9302
37.2154 21.8299
37.2626 21.7874
37.3098 21.671
37.3568 21.6664
37.404 21.537
37.451 21.5068
37.4982 21.4198
37.5452 21.2986
37.5924 21.2572
37.6395 21.3457
37.6867 21.1639
37.7337 21.067
37.781 21.0153
37.8281 20.9291
37.8753 20.8489
37.9224 20.7663
37.9697 20.7085
38.0168 20.6868
38.064 20.5718
38.1111 20.5812
38.1584 20.4824
38.2056 20.3705
38.2529 20.3851
38.3 20.28
38.3473 20.2916
38.3945 20.1141
38.4418 20.1412
38.489 20.0417
38.5363 19.9626
38.5837 19.9525
38.6309 19.816
38.6782 19.8115
38.7254 19.6458
38.7728 19.6269
38.82 19.5695
38.8674 19.5405
38.9146 19.4435
38.9621 19.3679
39.0093 19.3932
39.0567 19.3066
39.104 19.1805
39.1514 19.1387
39.1987 19.0733
39.2461 19.0446
39.2934 18.9899
39.3409 18.8846
39.3882 18.8448
39.4356 18.7419
39.483 18.7827
39.5304 18.6482
39.5778 18.5981
39.6253 18.5917
39.6726 18.5298
39.7201 18.423
39.7675 18.4049
39.815 18.3311
39.8624 18.2922
39.9099 18.2221
39.9575 18.1247
40.0049 18.1345
40.0525 18.055
40.0999 17.9905
40.1474 17.885
40.1949 17.8728
40.2425 17.7762
40.2899 17.7673
40.3375 17.666
40.385 17.633
40.4326 17.6019
40.48 17.5329
40.5277 17.5124
40.5752 17.4343
40.6228 17.3573
40.6703 17.3359
40.718 17.2936
40.7655 17.2775
40.8132 17.1266
40.8607 17.1033
40.9084 17.0791
40.9559 16.9963
41.0036 16.9886
41.0512 16.9119
41.0989 16.8485
41.1465 16.7589
41.1942 16.717
41.242 16.6106
41.2896 16.6287
41.3373 16.4974
41.3849 16.4997
41.4327 16.4116
41.4803 16.3099
41.5281 16.3612
41.5758 16.2447
41.6236 16.1727
41.6712 16.1568
41.7191 16.1091
41.7667 16.0438
41.8146 16.0024
41.8622 15.9516
41.9101 15.8897
41.9578 15.8194
42.0057 15.7672
42.0534 15.7246
42.1013 15.68
42.149 15.5813
42.1969 15.5552
42.2446 15.553
42.2925 15.4873
42.3403 15.3963
42.3882 15.4015
42.436 15.3617
42.4839 15.259
42.5319 15.23
42.5797 15.1876
42.6277 15.1452
42.6755 15.0615
42.7235 15.0082
42.7713 14.9615
42.8193 14.8934
42.8671 14.8745
42.9152 14.7968
42.963 14.7783
43.0111 14.7068
43.0589 14.6678
43.107 14.5629
43.1549 14.567
43.2029 14.4832
43.2508 14.5011
43.2989 14.3926
43.3468 14.3295
43.3949 14.2901
43.4429 14.2272
43.491 14.1981
43.5389 14.1603
43.5871 14.0772
43.635 14.0685
43.6832 14.0193
43.7312 13.9769
43.7793 13.9213
43.8273 13.8644
43.8755 13.7783
43.9237 13.724
43.9717 13.7406
44.0199 13.6746
44.068 13.6275
44.1162 13.5941
44.1642 13.5637
44.2125 13.496
44.2606 13.472
44.3088 13.3891
44.3569 13.3098
44.4052 13.3242
44.4533 13.2209
44.5016 13.1739
44.5497 13.1731
44.598 13.1208
44.6461 13.0674
44.6945 13.0474
44.7426 13.0089
44.791 12.8824
44.8391 12.9249
44.8875 12.8281
44.9357 12.8042
44.984 12.784
45.0322 12.7316
45.0806 12.6565
45.1288 12.6531
45.1773 12.5218
45.2257 12.5408
45.2739 12.4902
45.3224 12.4572
45.3706 12.3732
45.4191 12.3043
45.4673 12.3489
45.5158 12.2437
45.5641 12.2154
45.6126 12.1758
45.6609 12.1105
45.7094 12.1017
45.7577 12.0319
45.8063 11.9775
45.8546 11.9644
45.9031 11.95
45.9515 11.8847
46.0001 11.831
46.0484 11.7997
46.097 11.7681
46.1454 11.7448
46.194 11.6826
46.2424 11.648
46.291 11.5994
46.3395 11.5345
46.3881 11.4874
46.4365 11.4631
46.4852 11.4451
46.5337 11.3703
46.5823 11.355
46.631 11.2618
46.6795 11.2402
46.7282 11.2003
46.7767 11.1716
46.8254 11.0858
46.8739 11.075
46.9226 11.0229
46.9712 11.0079
47.0199 10.9657
47.0685 10.9288
47.1173 10.8878
47.1658 10.855
47.2146 10.8354
47.2632 10.7477
47.312 10.6942
47.3606 10.6775
47.4095 10.6707
47.4581 10.6053
47.5069 10.5409
47.5556 10.5367
47.6044 10.4647
47.6531 10.4577
47.702 10.4118
47.7507 10.3532
47.7996 10.2837
47.8483 10.2797
47.8972 10.2811
47.9461 10.2214
47.9948 10.1436
48.0438 10.1574
48.0925 10.123
48.1415 10.0972
48.1902 9.98937
48.2392 10.032
48.288 9.97185
48.337 9.9436
48.3858 9.9068
48.4348 9.85145
48.4837 9.84397
48.5327 9.81862
48.5815 9.76182
48.6306 9.7257
48.6795 9.68608
48.7285 9.62448
48.7774 9.60071
48.8265 9.59409
48.8754 9.55219
48.9245 9.50336
48.9734 9.43131
49.0226 9.43671
49.0715 9.38638
49.1206 9.35371
49.1696 9.30397
49.2188 9.2753
49.2679 9.25061
49.3169 9.18833
49.3661 9.1726
49.4151 9.07029
49.4643 9.12122
49.5134 9.12256
49.5626 9.03251
49.6117 9.0107
49.6609 8.98352
49.71 8.90196
49.7592 8.91735
49.8083 8.86201
49.8576 8.8544
49.9067 8.82164
49.956 8.76255
50.0052 8.74639
50.0545 8.68199
50.1036 8.66371
50.153 8.65188
50.2022 8.57969
50.2515 8.56852
50.3007 8.51311
50.3501 8.48224
50.3993 8.47366
50.4487 8.46042
50.498 8.37938
50.5474 8.38079
50.5966 8.33129
50.6461 8.28053
50.6955 8.26831
50.7448 8.26048
50.7943 8.24884
50.8436 8.17359
50.8931 8.13839
50.9424 8.12234
50.9919 8.10771
51.0413 8.04962
51.0908 8.00441
51.1402 7.94826
51.1897 7.96355
51.2391 7.92014
51.2887 7.8901
51.3381 7.85406
51.3877 7.81074
51.4371 7.80327
51.4867 7.73491
51.5362 7.71778
51.5858 7.71318
51.6353 7.62711
51.6849 7.64468
51.7344 7.59694
51.7841 7.60798
51.8336 7.52238
51.8833 7.49984
51.9328 7.47966
51.9826 7.44879
52.0323 7.43429
52.0818 7.37253
52.1316 7.35685
52.1812 7.31633
52.231 7.26764
52.2806 7.24922
52.3304 7.24835
52.38 7.2138
52.4298 7.18411
52.4794 7.16289
52.5293 7.14981
52.5789 7.07484
52.6288 7.0612
52.6785 7.0329
52.7284 7.01367
52.7781 6.96457
52.828 6.94339
52.8777 6.89921
52.9276 6.84846
52.9774 6.83925
53.0273 6.83923
53.0771 6.78529
53.1271 6.78838
53.1769 6.71842
53.2269 6.69657
53.2767 6.63602
53.3267 6.63939
53.3765 6.63498
53.4266 6.58451
53.4766 6.54252
53.5265 6.53455
53.5765 6.52907
53.6264 6.46934
53.6765 6.46545
53.7264 6.40717
53.7765 6.42632
53.8265 6.37152
53.8766 6.33781
53.9266 6.33921
53.9767 6.26148
54.0267 6.2579
54.0769 6.24644
54.1269 6.20102
54.1771 6.16415
54.2271 6.06644
54.2773 6.10669
54.3274 6.06159
54.3776 6.04025
54.4277 6.01076
54.478 5.97402
54.528 5.92283
54.5783 5.85509
54.6285 5.83831
54.6788 5.79182
54.7289 5.747
54.7792 5.78778
54.8296 5.68618
54.8798 5.66984
54.9301 5.63729
54.9803 5.57733
55.0307 5.52797
55.0809 5.49534
55.1314 5.48597
55.1816 5.38436
55.232 5.35959
55.2823 5.29712
55.3328 5.23158
55.383 5.171
55.4335 5.14084
55.4838 5.11725
55.5344 5.08115
55.5847 5.03251
55.6352 5.01799
55.6856 4.97966
55.7361 4.95028