File: XRD/Ni3Fe_FD0205.xy
TT I
1.27165 8.07787
1.31627 7.04188
1.36089 7.34768
1.40551 6.26427
1.45013 6.68834
1.49476 6.78535
1.53938 6.63585
1.584 6.23784
1.62863 5.69577
1.67325 5.53433
1.71787 5.7648
1.7625 5.83914
1.80712 5.28801
1.85174 5.1199
1.89636 5.14688
1.94099 5.24836
1.98562 5.08163
2.03025 4.33313
2.07487 5.02255
2.11949 4.96859
2.16411 5.38821
2.20874 4.43602
2.25338 3.66944
2.298 5.06615
2.34263 4.44975
2.38725 4.2393
2.43188 4.39404
2.4765 4.81165
2.52115 4.63589
2.56577 4.80114
2.6104 5.29943
2.65503 5.19171
2.69965 5.92812
2.7443 6.49946
2.78893 6.32608
2.83356 7.36739
2.87818 8.01852
2.92281 8.43381
2.96744 9.18267
3.01209 9.95819
3.05672 10.8212
3.10135 12.2035
3.14599 13.4948
3.19062 13.8174
3.23527 15.1382
3.2799 15.7377
3.32454 17.3552
3.36917 17.6714
3.4138 18.7948
3.45844 19.6266
3.50309 21.1445
3.54773 21.0356
3.59237 22.3318
3.637 23.6007
3.68164 24.1466
3.7263 25.2753
3.77094 26.2623
3.81558 27.0209
3.86022 27.6195
3.90486 29.4196
3.9495 30.1402
3.99416 31.4199
4.0388 32.8421
4.08344 33.8566
4.12809 35.3345
4.17273 36.4476
4.21738 38.1869
4.26204 39.2789
4.30669 40.8271
4.35133 43.115
4.39598 44.6224
4.44063 46.3274
4.4853 48.8501
4.52995 51.3693
4.5746 53.8112
4.61925 55.932
4.6639 58.3929
4.70855 61.7664
4.75322 64.4311
4.79788 67.6394
4.84253 71.9322
4.88719 76.5201
4.93184 81.3799
4.97652 88.9703
5.02118 97.2905
5.06583 108.066
5.11049 124.802
5.15515 169.748
5.19981 882.943
5.24449 3948.86
5.28916 10201.4
5.33382 4490.47
5.37848 290.492
5.42315 156.733
5.46783 130.001
5.5125 118.348
5.55716 113.652
5.60183 107.474
5.6465 105.103
5.69117 103.6
5.73586 101.922
5.78053 101.95
5.8252 101.462
5.86988 105.128
5.91455 111.679
5.95924 134.905
6.00392 441.654
6.0486 1430.68
6.09328 3512.49
6.13795 3855.46
6.18263 410.445
6.22733 112.61
6.27201 89.8407
6.3167 81.5662
6.36138 76.23
6.40606 73.0688
6.45075 71.026
6.49545 68.8675
6.54014 66.91
6.58483 65.3614
6.62952 64.1336
6.67421 62.6426
6.71892 61.5689
6.76361 60.9405
6.8083 59.9338
6.853 59.2549
6.89769 58.4639
6.94239 58.4379
6.98711 57.6138
7.03181 57.1866
7.07651 57.0166
7.12121 56.5165
7.16591 56.2921
7.21063 55.8498
7.25533 55.5829
7.30004 55.7843
7.34475 56.4286
7.38945 56.2136
7.43416 55.3532
7.47889 55.4914
7.5236 57.3978
7.56831 59.2322
7.61303 57.5764
7.65774 57.0957
7.70247 58.2318
7.74719 58.3745
7.79191 58.891
7.83663 59.3996
7.88135 60.5146
7.92607 61.4082
7.97081 62.6244
8.01553 63.6386
8.06026 65.3431
8.10498 66.8328
8.14971 69.0255
8.19446 70.5034
8.23919 73.3158
8.28392 76.5137
8.32865 79.3069
8.37339 84.405
8.41812 91.159
8.46288 109.267
8.50761 287.921
8.55235 598.735
8.59709 1034.51
8.64183 1948.53
8.68658 1290.87
8.73134 238.274
8.77609 112.499
8.82083 101.021
8.86558 96.3275
8.91033 93.6413
8.9551 91.2544
8.99985 89.6848
9.04461 88.6425
9.08936 88.0218
9.13412 87.1825
9.17888 86.8225
9.22365 88.4259
9.26841 89.6344
9.31318 88.7791
9.35794 88.1026
9.4027 88.2742
9.44749 89.3099
9.49226 90.2913
9.53703 91.1352
9.5818 92.7639
9.62657 93.8315
9.67134 95.7937
9.71614 98.0098
9.76091 100.104
9.80569 103.258
9.85047 107.356
9.89525 113.156
9.94005 133.69
9.98484 301.552
10.0296 528.981
10.0744 781.739
10.1192 1406.46
10.164 1737.81
10.2088 612.658
10.2536 155.859
10.2984 119.014
10.3432 113.636
10.388 114.47
10.4328 158.696
10.4776 215.939
10.5224 277.328
10.5672 429.85
10.612 533.886
10.6568 266.169
10.7017 111.487
10.7465 93.3379
10.7913 88.5246
10.8361 85.6879
10.8809 83.3191
10.9257 80.5552
10.9706 79.6201
11.0154 77.8239
11.0602 76.4754
11.105 74.969
11.1499 73.678
11.1947 72.5105
11.2395 71.6115
11.2844 70.8519
11.3292 69.9665
11.374 69.3042
11.4189 68.8003
11.4637 67.8628
11.5086 67.428
11.5534 66.7883
11.5983 66.6918
11.6431 66.1827
11.688 65.7121
11.7328 65.9299
11.7777 65.6148
11.8225 65.6942
11.8674 65.4988
11.9122 66.3253
11.9571 67.267
12.002 68.8195
12.0468 79.8239
12.0917 95.8772
12.1366 108.258
12.1814 137.109
12.2263 186.381
12.2712 187.432
12.3161 106.724
12.3609 70.944
12.4058 67.8321
12.4507 67.5884
12.4956 67.3139
12.5405 67.4828
12.5853 67.8461
12.6302 68.3067
12.6751 69.2869
12.72 69.7568
12.7649 71.2514
12.8098 71.878
12.8547 73.2243
12.8996 74.8944
12.9445 76.4696
12.9894 78.7868
13.0343 80.8361
13.0792 86.0899
13.1242 109.274
13.1691 150.434
13.214 176.167
13.2589 224.536
13.3038 309.537
13.3487 414.991
13.3937 320.766
13.4386 154.854
13.4835 135.197
13.5285 156.275
13.5734 173.673
13.6183 220.14
13.6633 302.404
13.7082 365.984
13.7531 244.113
13.7981 116.45
13.843 87.8054
13.888 84.7069
13.9329 81.9272
13.9779 80.3233
14.0228 78.5567
14.0678 77.3251
14.1127 76.7553
14.1577 76.1424
14.2027 75.3569
14.2476 74.3375
14.2926 73.8586
14.3376 73.3837
14.3825 72.972
14.4275 72.5929
14.4725 72.6193
14.5175 73.072
14.5624 72.7842
14.6074 72.9064
14.6524 73.6379
14.6974 74.6405
14.7424 80.0807
14.7874 96.2039
14.8324 108.3
14.8774 119.136
14.9224 142.621
14.9674 181.507
15.0124 220.577
15.0574 178.515
15.1024 108.177
15.1474 78.4252
15.1924 74.2408
15.2374 72.6497
15.2824 71.7807
15.3274 70.8281
15.3725 70.3986
15.4175 70.0191
15.4625 69.7147
15.5076 69.418
15.5526 69.5391
15.5976 70.1351
15.6426 74.2597
15.6877 87.1489
15.7327 96.306
15.7778 103.57
15.8228 120.252
15.8679 149.111
15.9129 186.906
15.958 178.775
16.003 118.105
16.0481 75.1592
16.0931 66.53
16.1382 64.2234
16.1833 63.3125
16.2283 61.8856
16.2734 61.0005
16.3185 60.5378
16.3636 59.8786
16.4086 58.9187
16.4537 58.8681
16.4988 58.151
16.5439 58.1349
16.589 57.9398
16.6341 57.7022
16.6792 57.2819
16.7243 57.5157
16.7694 57.3206
16.8145 57.2273
16.8596 57.6851
16.9047 57.7818
16.9498 58.0931
16.9949 58.0219
17.04 59.1573
17.0851 62.0114
17.1302 64.3154
17.1754 65.7857
17.2205 68.8468
17.2656 73.1348
17.3108 80.956
17.3559 85.1584
17.401 78.875
17.4462 67.8618
17.4913 62.7987
17.5365 62.2476
17.5815 62.4831
17.6268 62.8059
17.6718 63.4132
17.7171 63.8689
17.7622 64.841
17.8074 66.3593
17.8525 72.2415
17.8977 79.1344
17.9428 83.7205
17.9881 88.0432
18.0331 98.2682
18.0784 112.747
18.1237 136.468
18.1688 145.611
18.214 122.953
18.2591 95.7149
18.3044 89.9845
18.3495 95.9748
18.3948 105.572
18.4399 103.212
18.4852 85.9293
18.5303 71.2518
18.5756 65.8605
18.6207 64.6622
18.666 63.7878
18.7112 63.1598
18.7565 62.0932
18.8016 61.6948
18.8469 61.2752
18.892 60.8101
18.9374 60.3661
18.9825 60.0705
19.0278 60.0039
19.073 60.3515
19.1183 61.5775
19.1635 62.5991
19.2088 63.2733
19.254 64.6882
19.2993 67.2924
19.3447 70.9178
19.3898 76.2207
19.4352 77.0573
19.4804 69.7972
19.5257 61.274
19.5709 57.4599
19.6163 56.8961
19.6615 56.6592
19.7068 56.341
19.752 56.3312
19.7974 57.1328
19.8426 58.4446
19.888 59.1382
19.9332 59.9217
19.9786 61.3559
20.0238 64.0064
20.0692 68.1818
20.1144 72.2129
20.1598 73.6532
20.205 68.7591
20.2504 64.6368
20.2957 64.3306
20.3411 66.8329
20.3863 67.601
20.4318 63.2752
20.477 57.4928
20.5224 54.2597
20.5677 53.1158
20.6131 52.7703
20.6586 52.3535
20.7038 52.1812
20.7493 51.7007
20.7945 51.5346
20.84 51.5437
20.8853 51.156
20.9307 51.3736
20.976 51.622
21.0215 51.3922
21.0668 51.6685
21.1122 51.9097
21.1575 52.1841
21.203 52.5423
21.2483 53.5042
21.2938 54.1985
21.3391 53.331
21.3846 52.0866
21.4299 51.0644
21.4754 51.026
21.5207 51.2226
21.5662 51.8938
21.6116 52.8862
21.6571 53.9309
21.7024 54.4364
21.7479 55.6553
21.7933 57.594
21.8388 60.0288
21.8843 63.145
21.9297 66.6927
21.9752 67.3006
22.0206 63.947
22.0661 59.0557
22.1115 57.8181
22.157 58.246
22.2024 57.8128
22.248 55.1173
22.2933 52.9353
22.3389 51.7459
22.3843 51.3393
22.4299 51.0769
22.4753 51.1018
22.5208 51.0139
22.5662 51.1473
22.6118 51.4735
22.6572 52.2007
22.7028 52.8534
22.7483 53.1717
22.7939 53.295
22.8393 54.1987
22.8849 55.4369
22.9303 56.9066
22.9759 58.9524
23.0214 60.1302
23.067 58.5043
23.1126 54.9505
23.1581 52.2907
23.2037 51.6472
23.2492 51.9446
23.2948 52.2909
23.3403 52.7319
23.3859 52.7375
23.4314 53.2971
23.477 54.2282
23.5225 55.5885
23.5682 57.3769
23.6137 59.5374
23.6593 59.1163
23.7048 55.6966
23.7505 51.6806
23.796 49.4403
23.8417 48.556
23.8872 47.9056
23.9329 47.7246
23.9784 47.4118
24.0241 46.8402
24.0697 46.6148
24.1154 46.3936
24.1609 46.3707
24.2066 45.8254
24.2522 45.8575
24.2979 45.6587
24.3434 45.4553
24.3892 45.3855
24.4349 45.1733
24.4805 45.141
24.5262 45.2212
24.5718 44.9913
24.6175 45.0547
24.6631 45.0092
24.7089 44.785
24.7545 44.5477
24.8002 44.4132
24.8458 44.6448
24.8916 44.3253
24.9372 44.4617
24.983 44.9457
25.0286 45.1654
25.0744 45.3792
25.12 45.638
25.1658 46.2388
25.2114 46.5557
25.2572 46.7069
25.3029 46.5817
25.3487 46.5429
25.3943 46.7692
25.4402 46.1324
25.4858 44.9905
25.5316 43.8937
25.5773 43.1549
25.6231 42.9573
25.669 42.6458
25.7147 42.761
25.7605 42.6044
25.8062 42.608
25.8521 42.7818
25.8977 42.5841
25.9436 42.8221
25.9893 43.0129
26.0352 43.126
26.0809 43.1808
26.1268 43.4833
26.1725 43.6529
26.2184 43.1645
26.2641 42.625
26.31 42.2416
26.3557 42.3838
26.4017 42.2554
26.4474 42.478
26.4933 42.6774
26.5391 43.0501
26.585 43.3897
26.6308 43.7863
26.6767 43.9866
26.7225 44.127
26.7684 43.5927
26.8142 42.973
26.8601 42.5305
26.9059 42.2034
26.9519 41.5804
26.9979 41.3952
27.0437 40.894
27.0896 40.7418
27.1354 40.885
27.1814 40.6482
27.2272 40.7024
27.2732 40.5195
27.3191 40.3541
27.3651 40.3587
27.4109 40.4138
27.4569 40.2881
27.5027 40.3877
27.5488 40.4768
27.5946 40.461
27.6407 40.3719
27.6865 40.2203
27.7326 40.0118
27.7784 39.9574
27.8245 39.7317
27.8703 39.8308
27.9164 40.1379
27.9623 40.0595
28.0084 40.263
28.0543 40.8478
28.1003 40.8309
28.1462 40.7497
28.1923 40.3771
28.2384 39.8911
28.2843 39.5985
28.3304 39.0786
28.3764 38.6407
28.4225 38.3859
28.4684 38.1934
28.5145 37.804
28.5605 37.6436
28.6066 37.4811
28.6526 37.5171
28.6987 37.4133
28.7447 37.0629
28.7908 37.1089
28.8368 37.0522
28.8829 36.9633
28.9289 37.0743
28.9751 36.9205
29.0211 36.8122
29.0673 36.4684
29.1133 36.3745
29.1595 36.084
29.2055 35.9448
29.2517 35.9631
29.2977 35.8376
29.3439 35.834
29.3899 35.8219
29.4361 35.7461
29.4824 35.7707
29.5284 35.4465
29.5746 35.086
29.6207 34.8525
29.6669 34.6589
29.713 34.6677
29.7593 34.4763
29.8053 34.486
29.8516 34.4204
29.8977 34.4127
29.9439 34.1897
29.99 34.2203
30.0363 34.0964
30.0824 34.1434
30.1287 34.0155
30.1748 33.9327
30.2211 34.0156
30.2673 33.9393
30.3136 34.0196
30.3597 33.9462
30.406 33.8162
30.4522 33.6758
30.4985 33.5994
30.5447 33.7267
30.591 33.5506
30.6372 33.7237
30.6835 33.6693
30.7297 33.7294
30.7761 33.7234
30.8224 33.506
30.8686 33.538
30.915 33.2445
30.9612 33.0892
31.0076 32.9037
31.0538 32.8368
31.1002 32.6909
31.1464 32.432
31.1928 32.4508
31.2391 32.5098
31.2855 32.4225
31.3317 32.4502
31.3781 32.3948
31.4244 32.3503
31.4708 32.2921
31.5171 32.3655
31.5636 32.3226
31.6098 32.1077
31.6563 31.9214
31.7026 31.8082
31.7491 31.6307
31.7953 31.604
31.8418 31.5368
31.8881 31.5554
31.9346 31.526
31.9809 31.5811
32.0275 31.5285
32.074 31.3179
32.1203 31.1568
32.1668 30.9839
32.2132 30.897
32.2597 30.6887
32.306 30.6539
32.3526 30.4739
32.399 30.269
32.4455 30.1902
32.4919 30.0791
32.5385 30.1127
32.5848 29.9151
32.6314 30.0189
32.6778 29.8692
32.7244 29.6938
32.7708 29.5493
32.8174 29.6566
32.8638 29.4222
32.9104 29.4849
32.9569 29.4114
33.0035 29.1966
33.0499 29.2029
33.0966 29.0851
33.143 29.0971
33.1897 29.0667
33.2361 28.8588
33.2828 28.9493
33.3293 28.7369
33.3759 28.7831
33.4226 28.6398
33.4691 28.52
33.5158 28.3491
33.5623 28.2796
33.609 28.1688
33.6555 27.9318
33.7022 27.9227
33.7487 27.8542
33.7954 27.697
33.842 27.6708
33.8887 27.5847
33.9353 27.5525
33.982 27.4151
34.0286 27.3985
34.0753 27.2872
34.1219 27.0955
34.1687 27.1253
34.2152 26.9997
34.262 26.9914
34.3086 26.844
34.3554 26.7348
34.402 26.5987
34.4488 26.5035
34.4954 26.4109
34.5422 26.3596
34.5889 26.3361
34.6357 26.2015
34.6825 26.1275
34.7292 26.0478
34.776 25.9441
34.8227 25.9811
34.8695 25.9053
34.9162 25.8141
34.9631 25.6018
35.0098 25.732
35.0566 25.5796
35.1033 25.5108
35.1502 25.4446
35.1969 25.3791
35.2438 25.3095
35.2906 25.2271
35.3375 25.1941
35.3842 25.0413
35.4311 25.094
35.4779 25.0757
35.5248 24.9746
35.5716 24.937
35.6185 24.8569
35.6653 24.8141
35.7123 24.6748
35.759 24.6573
35.806 24.5054
35.8528 24.3707
35.8998 24.3372
35.9468 24.2464
35.9936 24.2301
36.0406 24.1848
36.0874 24.1117
36.1345 23.9241
36.1813 23.9121
36.2283 23.7352
36.2752 23.7338
36.3222 23.7885
36.3691 23.6556
36.4161 23.5271
36.463 23.5136
36.5101 23.5781
36.557 23.3411
36.6041 23.2333
36.651 23.2499
36.6981 23.1811
36.745 23.184
36.7921 23.0726
36.839 22.9446
36.8861 22.8183
36.9331 22.8251
36.9802 22.7455
37.0272 22.6086
37.0743 22.551
37.1213 22.5125
37.1684 22.4529
37.2154 22.3999
37.2626 22.2766
37.3098 22.2576
37.3568 22.1429
37.404 22.1486
37.451 21.9962
37.4982 21.9376
37.5452 21.8802
37.5924 21.8086
37.6395 21.8497
37.6867 21.7262
37.7337 21.5887
37.781 21.5816
37.8281 21.502
37.8753 21.415
37.9224 21.3049
37.9697 21.2933
38.0168 21.2784
38.064 21.1335
38.1111 21.1125
38.1584 21.0019
38.2056 21.0213
38.2529 20.8964
38.3 20.7982
38.3473 20.8297
38.3945 20.5723
38.4418 20.5978
38.489 20.5412
38.5363 20.4677
38.5837 20.3736
38.6309 20.3012
38.6782 20.2676
38.7254 20.1961
38.7728 20.1275
38.82 20.0774
38.8674 20.0646
38.9146 19.9422
38.9621 19.9132
39.0093 19.825
39.0567 19.7501
39.104 19.6795
39.1514 19.5719
39.1987 19.657
39.2461 19.5069
39.2934 19.4415
39.3409 19.41
39.3882 19.2709
39.4356 19.2357
39.483 19.2084
39.5304 19.1857
39.5778 19.063
39.6253 19.0116
39.6726 19.0186
39.7201 18.9802
39.7675 18.8447
39.815 18.783
39.8624 18.706
39.9099 18.7634
39.9575 18.6758
40.0049 18.5385
40.0525 18.4683
40.0999 18.4814
40.1474 18.4277
40.1949 18.2926
40.2425 18.2744
40.2899 18.2279
40.3375 18.1265
40.385 18.1551
40.4326 18.0347
40.48 17.9264
40.5277 17.9581
40.5752 17.8138
40.6228 17.752
40.6703 17.7933
40.718 17.7514
40.7655 17.6599
40.8132 17.5606
40.8607 17.5721
40.9084 17.486
40.9559 17.4597
41.0036 17.3632
41.0512 17.2812
41.0989 17.272
41.1465 17.1895
41.1942 17.1357
41.242 16.983
41.2896 17.0063
41.3373 16.9273
41.3849 16.9436
41.4327 16.876
41.4803 16.7415
41.5281 16.6928
41.5758 16.6342
41.6236 16.6204
41.6712 16.5233
41.7191 16.4916
41.7667 16.4078
41.8146 16.4257
41.8622 16.3283
41.9101 16.2665
41.9578 16.201
42.0057 16.215
42.0534 16.1226
42.1013 16.052
42.149 15.9482
42.1969 15.9257
42.2446 15.9156
42.2925 15.8507
42.3403 15.8012
42.3882 15.7367
42.436 15.7177
42.4839 15.6005
42.5319 15.6284
42.5797 15.5029
42.6277 15.4992
42.6755 15.4056
42.7235 15.3717
42.7713 15.3914
42.8193 15.3131
42.8671 15.2091
42.9152 15.1662
42.963 15.0809
43.0111 15.0764
43.0589 14.9766
43.107 14.9677
43.1549 14.9035
43.2029 14.8666
43.2508 14.8157
43.2989 14.7482
43.3468 14.6798
43.3949 14.6553
43.4429 14.5534
43.491 14.5642
43.5389 14.4757
43.5871 14.4454
43.635 14.4065
43.6832 14.3378
43.7312 14.2979
43.7793 14.266
43.8273 14.2241
43.8755 14.1323
43.9237 14.1099
43.9717 14.068
44.0199 14.0322
44.068 14.0358
44.1162 13.8985
44.1642 13.8654
44.2125 13.8187
44.2606 13.7701
44.3088 13.6946
44.3569 13.6742
44.4052 13.6321
44.4533 13.5555
44.5016 13.5082
44.5497 13.4507
44.598 13.4113
44.6461 13.4112
44.6945 13.3087
44.7426 13.2761
44.791 13.2194
44.8391 13.1887
44.8875 13.1554
44.9357 13.0897
44.984 13.0797
45.0322 12.9804
45.0806 12.9817
45.1288 12.899
45.1773 12.8658
45.2257 12.8425
45.2739 12.7314
45.3224 12.7549
45.3706 12.6722
45.4191 12.6075
45.4673 12.6079
45.5158 12.5949
45.5641 12.4989
45.6126 12.4459
45.6609 12.4364
45.7094 12.3603
45.7577 12.3102
45.8063 12.2976
45.8546 12.2651
45.9031 12.1822
45.9515 12.1658
46.0001 12.1041
46.0484 12.0682
46.097 12.0121
46.1454 12.0034
46.194 11.9238
46.2424 11.8558
46.291 11.8647
46.3395 11.7934
46.3881 11.7003
46.4365 11.7439
46.4852 11.6573
46.5337 11.6135
46.5823 11.6158
46.631 11.553
46.6795 11.488
46.7282 11.4854
46.7767 11.3513
46.8254 11.3464
46.8739 11.3572
46.9226 11.2595
46.9712 11.2599
47.0199 11.1985
47.0685 11.1397
47.1173 11.1484
47.1658 11.0766
47.2146 11.0483
47.2632 10.9877
47.312 10.9465
47.3606 10.9095
47.4095 10.8586
47.4581 10.821
47.5069 10.7611
47.5556 10.7411
47.6044 10.7177
47.6531 10.6845
47.702 10.6051
47.7507 10.6291
47.7996 10.5551
47.8483 10.5151
47.8972 10.5182
47.9461 10.4412
47.9948 10.4262
48.0438 10.3717
48.0925 10.3136
48.1415 10.2922
48.1902 10.2848
48.2392 10.2252
48.288 10.1963
48.337 10.1522
48.3858 10.1042
48.4348 10.0422
48.4837 10.0503
48.5327 10.0114
48.5815 9.96318
48.6306 9.93138
48.6795 9.89982
48.7285 9.86091
48.7774 9.81479
48.8265 9.78439
48.8754 9.74458
48.9245 9.73078
48.9734 9.67224
49.0226 9.66467
49.0715 9.62606
49.1206 9.56361
49.1696 9.57803
49.2188 9.50963
49.2679 9.4362
49.3169 9.39787
49.3661 9.40659
49.4151 9.34297
49.4643 9.33109
49.5134 9.2816
49.5626 9.20302
49.6117 9.19277
49.6609 9.15988
49.71 9.12184
49.7592 9.09566
49.8083 9.06094
49.8576 9.03631
49.9067 8.96703
49.956 8.93078
50.0052 8.96464
50.0545 8.93148
50.1036 8.85939
50.153 8.84803
50.2022 8.80666
50.2515 8.76574
50.3007 8.72106
50.3501 8.6772
50.3993 8.66941
50.4487 8.59107
50.498 8.57662
50.5474 8.55734
50.5966 8.5429
50.6461 8.4905
50.6955 8.47185
50.7448 8.45898
50.7943 8.37632
50.8436 8.37536
50.8931 8.3417
50.9424 8.2997
50.9919 8.27154
51.0413 8.20532
51.0908 8.2081
51.1402 8.17507
51.1897 8.13307
51.2391 8.11415
51.2887 8.08176
51.3381 8.04018
51.3877 7.98768
51.4371 7.95255
51.4867 7.93995
51.5362 7.93407
51.5858 7.83702
51.6353 7.8064
51.6849 7.77888
51.7344 7.73116
51.7841 7.74822
51.8336 7.72
51.8833 7.70779
51.9328 7.63379
51.9826 7.59704
52.0323 7.59967
52.0818 7.59334
52.1316 7.49437
52.1812 7.47464
52.231 7.46117
52.2806 7.42758
52.3304 7.38933
52.38 7.38577
52.4298 7.32529
52.4794 7.28889
52.5293 7.28081
52.5789 7.24251
52.6288 7.21535
52.6785 7.1673
52.7284 7.13962
52.7781 7.14593
52.828 7.12422
52.8777 7.01818
52.9276 7.05066
52.9774 6.97559
53.0273 6.96427
53.0771 6.92235
53.1271 6.91043
53.1769 6.88327
53.2269 6.87728
53.2767 6.81792
53.3267 6.77206
53.3765 6.76656
53.4266 6.7197
53.4766 6.69598
53.5265 6.63327
53.5765 6.62501
53.6264 6.61333
53.6765 6.64561
53.7264 6.56076
53.7765 6.52827
53.8265 6.46415
53.8766 6.47863
53.9266 6.44078
53.9767 6.45381
54.0267 6.42359
54.0769 6.37858
54.1269 6.31368
54.1771 6.26685
54.2271 6.28112
54.2773 6.20697
54.3274 6.18603
54.3776 6.16096
54.4277 6.10021
54.478 6.07798
54.528 6.0284
54.5783 5.99483
54.6285 5.89166
54.6788 5.87602
54.7289 5.84025
54.7792 5.85754
54.8296 5.75585
54.8798 5.69097
54.9301 5.68822
54.9803 5.6297
55.0307 5.61688
55.0809 5.55254
55.1314 5.49309
55.1816 5.45915
55.232 5.43818
55.2823 5.39739
55.3328 5.30207
55.383 5.20758
55.4335 5.18831
55.4838 5.15961
55.5344 5.11961
55.5847 5.02522
55.6352 5.03706
55.6856 5.03735
55.7361 5.00104