File: XRD/Ni3Fe_FD0484.xy
TT I
1.27165 7.38943
1.31627 6.74465
1.36089 6.8587
1.40551 6.28466
1.45013 6.6767
1.49476 6.59105
1.53938 6.32181
1.584 5.02815
1.62863 5.32008
1.67325 5.50948
1.71787 4.93669
1.7625 4.882
1.80712 5.15414
1.85174 4.66745
1.89636 4.89286
1.94099 5.09669
1.98562 5.0527
2.03025 4.66673
2.07487 4.27133
2.11949 4.76552
2.16411 4.33018
2.20874 8.63335
2.25338 11.8315
2.298 5.2895
2.34263 5.15392
2.38725 4.99357
2.43188 5.24567
2.4765 6.15017
2.52115 6.27004
2.56577 7.04044
2.6104 7.24804
2.65503 7.25028
2.69965 6.93278
2.7443 7.45463
2.78893 7.63281
2.83356 8.10709
2.87818 7.9912
2.92281 8.32232
2.96744 9.49417
3.01209 10.3511
3.05672 11.1437
3.10135 12.0869
3.14599 13.1884
3.19062 13.9652
3.23527 14.9139
3.2799 15.7381
3.32454 17.0533
3.36917 17.638
3.4138 18.8379
3.45844 19.3735
3.50309 20.7056
3.54773 21.4324
3.59237 23.0409
3.637 50.2535
3.68164 37.703
3.7263 25.2091
3.77094 25.9698
3.81558 26.6968
3.86022 27.2125
3.90486 28.9614
3.9495 29.6694
3.99416 31.0217
4.0388 31.7044
4.08344 32.8835
4.12809 34.5444
4.17273 36.2965
4.21738 40.0735
4.26204 119.494
4.30669 106.958
4.35133 44.603
4.39598 43.875
4.44063 49.0859
4.4853 54.6777
4.52995 54.8266
4.5746 55.0567
4.61925 54.2963
4.6639 56.4605
4.70855 59.0358
4.75322 62.0664
4.79788 67.271
4.84253 69.0882
4.88719 74.7516
4.93184 77.6138
4.97652 83.0671
5.02118 90.3178
5.06583 98.3164
5.11049 112.113
5.15515 163.262
5.19981 538.41
5.24449 3502.19
5.28916 11766.1
5.33382 2864.62
5.37848 208.084
5.42315 135.881
5.46783 121.43
5.5125 112.341
5.55716 104.872
5.60183 100.137
5.6465 98.6572
5.69117 96.5967
5.73586 95.1808
5.78053 98.2137
5.8252 97.9345
5.86988 100.064
5.91455 99.2052
5.95924 112.509
6.00392 299.723
6.0486 1189.48
6.09328 4269.37
6.13795 3322.5
6.18263 249.785
6.22733 95.7556
6.27201 83.2168
6.3167 86.7672
6.36138 76.1147
6.40606 70.8363
6.45075 69.7742
6.49545 66.1389
6.54014 64.4209
6.58483 63.6012
6.62952 63.179
6.67421 73.769
6.71892 92.2825
6.76361 63.2814
6.8083 59.5293
6.853 59.33
6.89769 57.1401
6.94239 56.9796
6.98711 56.221
7.03181 56.2314
7.07651 55.2565
7.12121 55.4522
7.16591 56.5794
7.21063 55.4834
7.25533 61.0615
7.30004 101.024
7.34475 68.9797
7.38945 55.587
7.43416 54.716
7.47889 54.4827
7.5236 54.7846
7.56831 55.7871
7.61303 56.344
7.65774 56.8149
7.70247 56.7933
7.74719 56.8627
7.79191 57.3115
7.83663 57.5136
7.88135 58.3682
7.92607 59.4381
7.97081 60.3833
8.01553 61.7006
8.06026 63.6006
8.10498 64.8733
8.14971 71.1545
8.19446 71.1215
8.23919 70.6965
8.28392 73.2182
8.32865 75.8025
8.37339 80.138
8.41812 86.2115
8.46288 108.528
8.50761 212.518
8.55235 466.985
8.59709 1240.84
8.64183 2158.88
8.68658 957.673
8.73134 164.226
8.77609 101.629
8.82083 94.6748
8.86558 92.8959
8.91033 92.4159
8.9551 90.2774
8.99985 86.5537
9.04461 85.2881
9.08936 85.1555
9.13412 84.0483
9.17888 83.1833
9.22365 83.3117
9.26841 83.4103
9.31318 85.2357
9.35794 86.1951
9.4027 86.5553
9.44749 86.4079
9.49226 86.133
9.53703 87.015
9.5818 90.3421
9.62657 94.1139
9.67134 96.1904
9.71614 94.6022
9.76091 96.1042
9.80569 99.7508
9.85047 102.924
9.89525 114.515
9.94005 133.95
9.98484 223.823
10.0296 412.751
10.0744 888.67
10.1192 1700.95
10.164 1605.49
10.2088 403.821
10.2536 129.279
10.2984 112.044
10.3432 110.989
10.388 108.708
10.4328 132.426
10.4776 179.412
10.5224 304.564
10.5672 498.473
10.612 493.301
10.6568 200.01
10.7017 96.9992
10.7465 87.7337
10.7913 84.3958
10.8361 82.2981
10.8809 79.8888
10.9257 79.0915
10.9706 78.8669
11.0154 75.7802
11.0602 73.7271
11.105 72.6811
11.1499 73.2209
11.1947 75.2846
11.2395 71.1383
11.2844 69.6007
11.3292 67.8567
11.374 66.8119
11.4189 66.5279
11.4637 65.5248
11.5086 65.2015
11.5534 66.5034
11.5983 64.8728
11.6431 64.2567
11.688 63.8889
11.7328 63.5892
11.7777 63.5889
11.8225 63.4357
11.8674 63.262
11.9122 63.7291
11.9571 63.887
12.002 65.6883
12.0468 72.3822
12.0917 84.1784
12.1366 109.538
12.1814 156.112
12.2263 201.785
12.2712 166.739
12.3161 90.8563
12.3609 68.1924
12.4058 65.0249
12.4507 65.024
12.4956 65.4723
12.5405 65.7529
12.5853 66.1314
12.6302 69.1953
12.6751 71.7136
12.72 68.9269
12.7649 68.987
12.8098 69.4801
12.8547 70.8798
12.8996 72.7254
12.9445 73.9597
12.9894 75.5706
13.0343 77.6939
13.0792 82.2355
13.1242 98.2191
13.1691 122.139
13.214 163.33
13.2589 253.032
13.3038 366.946
13.3487 421.239
13.3937 259.074
13.4386 125.398
13.4835 114.074
13.5285 131.256
13.5734 172.577
13.6183 254.169
13.6633 343.604
13.7082 339.656
13.7531 189.195
13.7981 97.6905
13.843 82.9084
13.888 81.0348
13.9329 78.3975
13.9779 76.9119
14.0228 75.4003
14.0678 74.1211
14.1127 73.6489
14.1577 73.3056
14.2027 72.3905
14.2476 71.3932
14.2926 71.2582
14.3376 71.4651
14.3825 71.0458
14.4275 70.21
14.4725 69.9107
14.5175 69.8656
14.5624 70.1151
14.6074 71.2606
14.6524 71.7185
14.6974 71.627
14.7424 76.2596
14.7874 83.939
14.8324 95.363
14.8774 118.812
14.9224 158.421
14.9674 203.703
15.0124 215.433
15.0574 149.038
15.1024 90.7528
15.1474 73.4747
15.1924 71.4205
15.2374 70.8252
15.2824 69.7374
15.3274 68.5216
15.3725 67.903
15.4175 67.4343
15.4625 67.0919
15.5076 67.0501
15.5526 66.9527
15.5976 67.1323
15.6426 70.3947
15.6877 76.7908
15.7327 84.9681
15.7778 101.318
15.8228 131.511
15.8679 169.522
15.9129 190.65
15.958 154.001
16.003 95.1847
16.0481 67.918
16.0931 64.2582
16.1382 62.5596
16.1833 61.2181
16.2283 59.7667
16.2734 58.9373
16.3185 58.7754
16.3636 58.687
16.4086 57.8163
16.4537 56.8051
16.4988 56.1028
16.5439 56.1014
16.589 56.133
16.6341 55.5871
16.6792 55.3611
16.7243 55.404
16.7694 55.5108
16.8145 55.3979
16.8596 55.9157
16.9047 56.3332
16.9498 56.5997
16.9949 56.3667
17.04 57.1528
17.0851 58.6376
17.1302 60.3598
17.1754 63.5783
17.2205 68.6143
17.2656 75.7296
17.3108 82.3604
17.3559 81.6241
17.401 71.4157
17.4462 62.8904
17.4913 60.1211
17.5365 60.0974
17.5815 60.2487
17.6268 60.5775
17.6718 61.101
17.7171 61.5002
17.7622 62.346
17.8074 63.8084
17.8525 67.2542
17.8977 71.2632
17.9428 76.96
17.9881 87.031
18.0331 103.193
18.0784 122.627
18.1237 141.126
18.1688 133.433
18.214 105.267
18.2591 88.7954
18.3044 92.1567
18.3495 100.464
18.3948 106.797
18.4399 96.6678
18.4852 77.8298
18.5303 66.5968
18.5756 63.084
18.6207 62.1739
18.666 61.1417
18.7112 60.3785
18.7565 59.8981
18.8016 59.5021
18.8469 58.8676
18.892 58.4482
18.9374 57.9747
18.9825 57.8716
19.0278 57.8433
19.073 58.1859
19.1183 58.644
19.1635 58.9026
19.2088 60.7343
19.254 63.7877
19.2993 67.8532
19.3447 72.6378
19.3898 76.3123
19.4352 72.8068
19.4804 63.7513
19.5257 57.2342
19.5709 54.9604
19.6163 54.8576
19.6615 54.5596
19.7068 54.069
19.752 54.2807
19.7974 54.7305
19.8426 55.5564
19.888 56.2588
19.9332 57.5353
19.9786 60.3958
20.0238 63.7866
20.0692 68.1862
20.1144 70.6449
20.1598 69.2841
20.205 64.5518
20.2504 62.956
20.2957 64.3099
20.3411 66.2332
20.3863 64.7537
20.4318 58.7798
20.477 53.9216
20.5224 52.0015
20.5677 51.3655
20.6131 51.0099
20.6586 50.2751
20.7038 50.2004
20.7493 49.74
20.7945 49.5802
20.84 49.4864
20.8853 49.4646
20.9307 49.3717
20.976 49.5327
21.0215 49.411
21.0668 49.6725
21.1122 50.467
21.1575 50.8303
21.203 51.5089
21.2483 52.1473
21.2938 52.1655
21.3391 50.7556
21.3846 49.502
21.4299 49.1614
21.4754 49.258
21.5207 49.3124
21.5662 50.003
21.6116 50.3874
21.6571 51.1446
21.7024 52.0736
21.7479 54.0475
21.7933 56.9371
21.8388 59.8462
21.8843 63.3184
21.9297 65.4226
21.9752 63.8813
22.0206 60.119
22.0661 57.0471
22.1115 56.3838
22.157 56.3509
22.2024 54.9084
22.248 51.9962
22.2933 50.4712
22.3389 49.592
22.3843 49.5149
22.4299 49.4709
22.4753 49.4355
22.5208 49.3777
22.5662 49.2294
22.6118 49.5868
22.6572 49.7496
22.7028 50.359
22.7483 50.6902
22.7939 51.534
22.8393 53.0758
22.8849 54.7839
22.9303 56.5395
22.9759 58.1727
23.0214 58.0001
23.067 54.9211
23.1126 51.7688
23.1581 49.9508
23.2037 49.6794
23.2492 49.881
23.2948 49.7667
23.3403 50.1314
23.3859 50.7788
23.4314 51.9698
23.477 53.5811
23.5225 55.3778
23.5682 57.2447
23.6137 58.2881
23.6593 56.1618
23.7048 52.1048
23.7505 48.6596
23.796 47.2712
23.8417 46.7526
23.8872 46.0932
23.9329 45.9005
23.9784 45.4359
24.0241 45.3051
24.0697 45.0889
24.1154 44.6382
24.1609 44.5431
24.2066 44.3786
24.2522 44.2758
24.2979 43.8193
24.3434 43.9342
24.3892 43.6875
24.4349 43.7835
24.4805 43.4249
24.5262 43.7905
24.5718 43.6364
24.6175 43.5592
24.6631 43.4842
24.7089 43.164
24.7545 42.9701
24.8002 42.8617
24.8458 42.9669
24.8916 42.7657
24.9372 42.9971
24.983 43.2418
25.0286 43.6494
25.0744 43.9697
25.12 44.3467
25.1658 44.9951
25.2114 45.3746
25.2572 45.2248
25.3029 45.265
25.3487 45.4157
25.3943 45.3511
25.4402 44.1111
25.4858 43.0529
25.5316 42.0039
25.5773 41.4795
25.6231 41.4339
25.669 40.9906
25.7147 41.161
25.7605 41.121
25.8062 40.9905
25.8521 41.1576
25.8977 41.2803
25.9436 41.4576
25.9893 41.6767
26.0352 41.9416
26.0809 42.1581
26.1268 42.3432
26.1725 41.9408
26.2184 41.3843
26.2641 40.8384
26.31 40.8371
26.3557 40.7782
26.4017 40.6769
26.4474 41.1343
26.4933 41.3439
26.5391 41.7265
26.585 42.2858
26.6308 42.6105
26.6767 42.8527
26.7225 42.5403
26.7684 41.9045
26.8142 41.3509
26.8601 40.8517
26.9059 40.5804
26.9519 40.0145
26.9979 39.8903
27.0437 39.4294
27.0896 39.3218
27.1354 39.1763
27.1814 39.1518
27.2272 39.1227
27.2732 39.0393
27.3191 39.0173
27.3651 39.0402
27.4109 38.9672
27.4569 39.1594
27.5027 39.1202
27.5488 39.1614
27.5946 38.9155
27.6407 38.7421
27.6865 38.6725
27.7326 38.5039
27.7784 38.5601
27.8245 38.4073
27.8703 38.6677
27.9164 38.8132
27.9623 39.0746
28.0084 39.3281
28.0543 39.7506
28.1003 39.6245
28.1462 39.4016
28.1923 38.8433
28.2384 38.4472
28.2843 38.1569
28.3304 37.5484
28.3764 37.2362
28.4225 36.9189
28.4684 36.8211
28.5145 36.3316
28.5605 36.3857
28.6066 36.1047
28.6526 36.0648
28.6987 36.1341
28.7447 35.9667
28.7908 35.9557
28.8368 36.0123
28.8829 35.9076
28.9289 35.8269
28.9751 35.5416
29.0211 35.3123
29.0673 35.1725
29.1133 35.1108
29.1595 34.8442
29.2055 34.8261
29.2517 34.8368
29.2977 34.7515
29.3439 34.6792
29.3899 34.6038
29.4361 34.6224
29.4824 34.4166
29.5284 34.2095
29.5746 33.8387
29.6207 33.4994
29.6669 33.567
29.713 33.3334
29.7593 33.2662
29.8053 33.3436
29.8516 33.1788
29.8977 33.1615
29.9439 33.0675
29.99 33.1331
30.0363 32.8839
30.0824 32.8872
30.1287 32.7234
30.1748 32.9077
30.2211 32.8774
30.2673 32.7051
30.3136 32.8125
30.3597 32.6314
30.406 32.7109
30.4522 32.5021
30.4985 32.4814
30.5447 32.6028
30.591 32.6359
30.6372 32.7211
30.6835 32.6395
30.7297 32.6581
30.7761 32.6899
30.8224 32.3216
30.8686 32.2841
30.915 32.0253
30.9612 31.989
31.0076 31.6602
31.0538 31.7104
31.1002 31.6317
31.1464 31.4598
31.1928 31.4935
31.2391 31.3673
31.2855 31.4038
31.3317 31.2797
31.3781 31.3467
31.4244 31.368
31.4708 31.2654
31.5171 31.2955
31.5636 31.1627
31.6098 30.9467
31.6563 30.727
31.7026 30.6586
31.7491 30.5708
31.7953 30.5603
31.8418 30.6213
31.8881 30.5137
31.9346 30.5076
31.9809 30.5447
32.0275 30.2641
32.074 30.2126
32.1203 30.0321
32.1668 29.8548
32.2132 29.859
32.2597 29.6887
32.306 29.6419
32.3526 29.3944
32.399 29.4047
32.4455 29.1567
32.4919 29.1801
32.5385 28.9934
32.5848 28.9042
32.6314 28.8307
32.6778 28.8157
32.7244 28.6706
32.7708 28.5882
32.8174 28.6691
32.8638 28.4686
32.9104 28.5721
32.9569 28.4377
33.0035 28.2298
33.0499 28.1987
33.0966 28.1917
33.143 28.2305
33.1897 28.0761
33.2361 28.0585
33.2828 27.9212
33.3293 27.7679
33.3759 27.8771
33.4226 27.6442
33.4691 27.483
33.5158 27.4512
33.5623 27.2164
33.609 27.146
33.6555 26.9535
33.7022 26.9882
33.7487 26.9213
33.7954 26.874
33.842 26.7449
33.8887 26.7085
33.9353 26.5946
33.982 26.5894
34.0286 26.4183
34.0753 26.3959
34.1219 26.2537
34.1687 26.0838
34.2152 26.1047
34.262 26.0567
34.3086 25.8849
34.3554 25.9563
34.402 25.7362
34.4488 25.6143
34.4954 25.6201
34.5422 25.5371
34.5889 25.3556
34.6357 25.2795
34.6825 25.2701
34.7292 25.1505
34.776 25.0708
34.8227 24.968
34.8695 25.0628
34.9162 24.9085
34.9631 24.8358
35.0098 24.8882
35.0566 24.6077
35.1033 24.6869
35.1502 24.6744
35.1969 24.5623
35.2438 24.5473
35.2906 24.454
35.3375 24.3896
35.3842 24.3375
35.4311 24.2758
35.4779 24.31
35.5248 24.2093
35.5716 24.0887
35.6185 23.9806
35.6653 23.9745
35.7123 23.8394
35.759 23.8766
35.806 23.6691
35.8528 23.5803
35.8998 23.501
35.9468 23.4235
35.9936 23.3889
36.0406 23.2833
36.0874 23.3923
36.1345 23.2021
36.1813 23.1448
36.2283 22.9896
36.2752 22.992
36.3222 22.9534
36.3691 22.9113
36.4161 22.8346
36.463 22.7495
36.5101 22.7446
36.557 22.6142
36.6041 22.5411
36.651 22.4983
36.6981 22.4487
36.745 22.3737
36.7921 22.2646
36.839 22.1311
36.8861 22.0674
36.9331 22.0644
36.9802 21.9376
37.0272 21.8588
37.0743 21.7423
37.1213 21.7643
37.1684 21.67
37.2154 21.6272
37.2626 21.5634
37.3098 21.4751
37.3568 21.4506
37.404 21.3264
37.451 21.2596
37.4982 21.2028
37.5452 21.0909
37.5924 21.1176
37.6395 21.1304
37.6867 21.0064
37.7337 20.9115
37.781 20.7945
37.8281 20.7327
37.8753 20.6223
37.9224 20.6081
37.9697 20.5566
38.0168 20.4665
38.064 20.4274
38.1111 20.3643
38.1584 20.2603
38.2056 20.1991
38.2529 20.2054
38.3 20.1097
38.3473 20.1094
38.3945 20.0124
38.4418 19.8551
38.489 19.8573
38.5363 19.768
38.5837 19.7099
38.6309 19.674
38.6782 19.6047
38.7254 19.4853
38.7728 19.4857
38.82 19.356
38.8674 19.3238
38.9146 19.269
38.9621 19.1535
39.0093 19.2373
39.0567 19.1171
39.104 19.0167
39.1514 18.9201
39.1987 18.91
39.2461 18.8811
39.2934 18.821
39.3409 18.7265
39.3882 18.7049
39.4356 18.6384
39.483 18.5641
39.5304 18.4339
39.5778 18.454
39.6253 18.4152
39.6726 18.3064
39.7201 18.3516
39.7675 18.2464
39.815 18.2051
39.8624 18.1066
39.9099 18.1133
39.9575 18.0541
40.0049 17.9015
40.0525 17.8694
40.0999 17.8032
40.1474 17.7387
40.1949 17.6823
40.2425 17.6163
40.2899 17.6552
40.3375 17.5414
40.385 17.4583
40.4326 17.4162
40.48 17.3176
40.5277 17.3488
40.5752 17.2325
40.6228 17.1756
40.6703 17.1342
40.718 17.1127
40.7655 17.1011
40.8132 16.951
40.8607 16.9247
40.9084 16.9093
40.9559 16.8392
41.0036 16.7464
41.0512 16.7317
41.0989 16.7236
41.1465 16.6319
41.1942 16.5184
41.242 16.4425
41.2896 16.454
41.3373 16.3965
41.3849 16.3001
41.4327 16.2988
41.4803 16.1645
41.5281 16.142
41.5758 16.1172
41.6236 16.0628
41.6712 15.9677
41.7191 15.9442
41.7667 15.9257
41.8146 15.8554
41.8622 15.7611
41.9101 15.7079
41.9578 15.587
42.0057 15.6358
42.0534 15.5303
42.1013 15.579
42.149 15.4367
42.1969 15.4208
42.2446 15.2969
42.2925 15.2995
42.3403 15.2839
42.3882 15.2224
42.436 15.1567
42.4839 15.1253
42.5319 15.0483
42.5797 15.0407
42.6277 14.9067
42.6755 14.8929
42.7235 14.8735
42.7713 14.8176
42.8193 14.7529
42.8671 14.6756
42.9152 14.6541
42.963 14.6251
43.0111 14.513
43.0589 14.4883
43.107 14.4389
43.1549 14.3945
43.2029 14.3597
43.2508 14.297
43.2989 14.2232
43.3468 14.1492
43.3949 14.1331
43.4429 14.1167
43.491 14.0566
43.5389 13.9994
43.5871 13.9717
43.635 13.8977
43.6832 13.867
43.7312 13.7881
43.7793 13.721
43.8273 13.7332
43.8755 13.6466
43.9237 13.6537
43.9717 13.5401
44.0199 13.5036
44.068 13.5237
44.1162 13.4389
44.1642 13.4708
44.2125 13.3377
44.2606 13.2784
44.3088 13.2662
44.3569 13.1532
44.4052 13.1974
44.4533 13.1138
44.5016 13.0644
44.5497 13.0362
44.598 12.9666
44.6461 12.9116
44.6945 12.8826
44.7426 12.8373
44.791 12.768
44.8391 12.7696
44.8875 12.7267
44.9357 12.6771
44.984 12.5748
45.0322 12.5519
45.0806 12.4824
45.1288 12.4922
45.1773 12.429
45.2257 12.4404
45.2739 12.3431
45.3224 12.2907
45.3706 12.2423
45.4191 12.178
45.4673 12.2016
45.5158 12.1309
45.5641 12.08
45.6126 12.0423
45.6609 11.9562
45.7094 11.948
45.7577 11.9488
45.8063 11.8711
45.8546 11.8605
45.9031 11.7866
45.9515 11.7505
46.0001 11.6704
46.0484 11.6607
46.097 11.645
46.1454 11.6208
46.194 11.524
46.2424 11.505
46.291 11.4405
46.3395 11.408
46.3881 11.3701
46.4365 11.3367
46.4852 11.2932
46.5337 11.2376
46.5823 11.2178
46.631 11.1436
46.6795 11.111
46.7282 11.0885
46.7767 11.0372
46.8254 10.9359
46.8739 10.9615
46.9226 10.9083
46.9712 10.8578
47.0199 10.8444
47.0685 10.8197
47.1173 10.7693
47.1658 10.6938
47.2146 10.6807
47.2632 10.6117
47.312 10.6128
47.3606 10.5691
47.4095 10.5199
47.4581 10.4996
47.5069 10.4008
47.5556 10.4118
47.6044 10.3707
47.6531 10.3061
47.702 10.2649
47.7507 10.2268
47.7996 10.2034
47.8483 10.1675
47.8972 10.1099
47.9461 10.1178
47.9948 10.079
48.0438 10.0417
48.0925 10.0038
48.1415 9.9439
48.1902 9.89802
48.2392 9.90378
48.288 9.85329
48.337 9.81702
48.3858 9.78003
48.4348 9.72444
48.4837 9.7366
48.5327 9.69174
48.5815 9.6056
48.6306 9.63418
48.6795 9.58795
48.7285 9.50473
48.7774 9.47159
48.8265 9.50454
48.8754 9.41517
48.9245 9.39265
48.9734 9.35346
49.0226 9.32599
49.0715 9.29769
49.1206 9.2457
49.1696 9.23795
49.2188 9.17803
49.2679 9.12352
49.3169 9.13695
49.3661 9.07921
49.4151 9.01683
49.4643 9.03672
49.5134 8.97235
49.5626 8.91671
49.6117 8.91043
49.6609 8.89369
49.71 8.81016
49.7592 8.75105
49.8083 8.75332
49.8576 8.74556
49.9067 8.70337
49.956 8.67209
50.0052 8.62652
50.0545 8.59801
50.1036 8.57886
50.153 8.52492
50.2022 8.51821
50.2515 8.44139
50.3007 8.42363
50.3501 8.38049
50.3993 8.38515
50.4487 8.34759
50.498 8.29614
50.5474 8.25542
50.5966 8.24823
50.6461 8.21734
50.6955 8.20979
50.7448 8.13957
50.7943 8.14206
50.8436 8.04055
50.8931 8.0499
50.9424 8.0364
50.9919 8.00161
51.0413 7.95778
51.0908 7.92607
51.1402 7.86048
51.1897 7.89132
51.2391 7.83375
51.2887 7.80796
51.3381 7.74124
51.3877 7.75654
51.4371 7.69344
51.4867 7.66668
51.5362 7.66074
51.5858 7.57058
51.6353 7.54862
51.6849 7.55737
51.7344 7.50238
51.7841 7.50308
51.8336 7.47098
51.8833 7.41165
51.9328 7.39188
51.9826 7.36194
52.0323 7.30166
52.0818 7.3036
52.1316 7.23459
52.1812 7.23119
52.231 7.20068
52.2806 7.16034
52.3304 7.16179
52.38 7.10044
52.4298 7.07952
52.4794 7.07969
52.5293 7.02053
52.5789 6.99827
52.6288 6.96158
52.6785 6.96813
52.7284 6.9264
52.7781 6.92047
52.828 6.86629
52.8777 6.84594
52.9276 6.80997
52.9774 6.7481
53.0273 6.7803
53.0771 6.71976
53.1271 6.707
53.1769 6.64304
53.2269 6.65886
53.2767 6.61638
53.3267 6.59148
53.3765 6.55607
53.4266 6.52784
53.4766 6.47277
53.5265 6.4491
53.5765 6.43765
53.6264 6.41632
53.6765 6.38245
53.7264 6.39475
53.7765 6.3193
53.8265 6.29721
53.8766 6.28063
53.9266 6.22779
53.9767 6.20244
54.0267 6.17798
54.0769 6.19618
54.1269 6.11062
54.1771 6.1127
54.2271 6.05404
54.2773 6.03605
54.3274 5.99867
54.3776 5.93929
54.4277 5.91264
54.478 5.90912
54.528 5.87325
54.5783 5.83001
54.6285 5.79015
54.6788 5.77317
54.7289 5.72783
54.7792 5.69577
54.8296 5.59222
54.8798 5.56319
54.9301 5.57812
54.9803 5.55245
55.0307 5.525
55.0809 5.44442
55.1314 5.42589
55.1816 5.386
55.232 5.32972
55.2823 5.29905
55.3328 5.21007
55.383 5.15487
55.4335 5.12558
55.4838 5.08886
55.5344 5.03054
55.5847 5.03881
55.6352 4.99299
55.6856 4.9184
55.7361 4.93466