File: XRD/Ni3Fe_FD0475.xy
TT I
1.27165 7.33152
1.31627 7.07752
1.36089 6.29256
1.40551 6.98587
1.45013 6.35416
1.49476 5.73849
1.53938 5.97944
1.584 4.86799
1.62863 5.30679
1.67325 5.22574
1.71787 4.63056
1.7625 5.51679
1.80712 4.9294
1.85174 4.89169
1.89636 4.9975
1.94099 4.77331
1.98562 4.75073
2.03025 4.41303
2.07487 4.03466
2.11949 4.75758
2.16411 4.45244
2.20874 9.43137
2.25338 11.6089
2.298 5.29911
2.34263 4.97875
2.38725 5.04258
2.43188 5.18524
2.4765 6.46567
2.52115 6.33034
2.56577 6.55781
2.6104 7.82224
2.65503 6.71855
2.69965 7.99011
2.7443 8.31965
2.78893 7.61523
2.83356 7.36857
2.87818 8.56244
2.92281 9.0024
2.96744 9.92932
3.01209 10.0902
3.05672 11.0172
3.10135 11.9279
3.14599 13.0805
3.19062 14.2582
3.23527 14.9369
3.2799 15.6274
3.32454 16.696
3.36917 17.7577
3.4138 18.8194
3.45844 19.5193
3.50309 21.0654
3.54773 21.6013
3.59237 23.6131
3.637 53.8618
3.68164 38.9052
3.7263 25.5438
3.77094 25.8489
3.81558 26.7816
3.86022 27.3751
3.90486 28.8896
3.9495 29.8578
3.99416 30.8738
4.0388 32.4484
4.08344 33.4806
4.12809 34.3334
4.17273 36.2328
4.21738 40.522
4.26204 132.015
4.30669 115.014
4.35133 45.0877
4.39598 44.457
4.44063 49.4633
4.4853 55.5917
4.52995 54.0178
4.5746 54.5494
4.61925 54.6452
4.6639 56.6077
4.70855 59.3518
4.75322 62.303
4.79788 67.1314
4.84253 69.2855
4.88719 75.3687
4.93184 77.4806
4.97652 83.2909
5.02118 90.3439
5.06583 98.7008
5.11049 112.039
5.15515 165.538
5.19981 541.963
5.24449 3547.68
5.28916 11696.5
5.33382 2813.0
5.37848 204.973
5.42315 135.202
5.46783 120.427
5.5125 112.025
5.55716 105.065
5.60183 100.875
5.6465 98.55
5.69117 97.0975
5.73586 95.5281
5.78053 97.3069
5.8252 97.6623
5.86988 99.0843
5.91455 99.2623
5.95924 112.43
6.00392 300.889
6.0486 1195.87
6.09328 4271.51
6.13795 3277.67
6.18263 252.644
6.22733 95.9537
6.27201 83.5763
6.3167 88.2143
6.36138 76.1314
6.40606 70.7334
6.45075 69.5986
6.49545 66.3044
6.54014 63.9574
6.58483 63.6105
6.62952 62.9887
6.67421 76.3077
6.71892 96.4974
6.76361 63.7942
6.8083 59.5894
6.853 59.2413
6.89769 57.4541
6.94239 57.0549
6.98711 56.2501
7.03181 56.4845
7.07651 55.5261
7.12121 55.5402
7.16591 56.0732
7.21063 55.672
7.25533 62.1615
7.30004 108.513
7.34475 70.451
7.38945 56.0629
7.43416 55.0466
7.47889 54.9741
7.5236 55.0899
7.56831 56.0729
7.61303 56.7195
7.65774 57.0731
7.70247 56.9768
7.74719 57.1105
7.79191 57.2358
7.83663 57.6859
7.88135 58.6189
7.92607 59.277
7.97081 60.8371
8.01553 61.8935
8.06026 63.2226
8.10498 65.0915
8.14971 71.4481
8.19446 71.1057
8.23919 70.7004
8.28392 73.4009
8.32865 75.8962
8.37339 80.4053
8.41812 86.9777
8.46288 109.383
8.50761 212.624
8.55235 469.128
8.59709 1246.32
8.64183 2172.51
8.68658 943.46
8.73134 163.809
8.77609 101.269
8.82083 94.3694
8.86558 92.622
8.91033 91.8318
8.9551 90.6345
8.99985 86.7631
9.04461 85.372
9.08936 85.3028
9.13412 83.5512
9.17888 83.294
9.22365 83.7096
9.26841 83.4532
9.31318 85.6965
9.35794 86.1172
9.4027 86.1112
9.44749 86.226
9.49226 86.3626
9.53703 87.3481
9.5818 90.0821
9.62657 93.9914
9.67134 96.3346
9.71614 94.5049
9.76091 96.5482
9.80569 100.156
9.85047 102.737
9.89525 115.787
9.94005 135.229
9.98484 224.699
10.0296 413.782
10.0744 894.379
10.1192 1710.27
10.164 1602.7
10.2088 394.293
10.2536 129.256
10.2984 112.887
10.3432 111.562
10.388 109.015
10.4328 132.614
10.4776 180.37
10.5224 303.972
10.5672 502.826
10.612 490.59
10.6568 196.748
10.7017 97.1134
10.7465 88.165
10.7913 84.7176
10.8361 82.4263
10.8809 80.2056
10.9257 79.0114
10.9706 78.7177
11.0154 75.9377
11.0602 73.9849
11.105 72.6701
11.1499 73.9018
11.1947 76.6121
11.2395 71.8271
11.2844 69.7732
11.3292 68.0722
11.374 67.2962
11.4189 66.4138
11.4637 65.8801
11.5086 65.5656
11.5534 66.6027
11.5983 65.2464
11.6431 64.6725
11.688 63.942
11.7328 63.6862
11.7777 63.6803
11.8225 63.5769
11.8674 63.4125
11.9122 63.7113
11.9571 64.1337
12.002 65.8006
12.0468 72.767
12.0917 84.4229
12.1366 109.938
12.1814 156.858
12.2263 201.596
12.2712 167.687
12.3161 90.8927
12.3609 68.5758
12.4058 65.3767
12.4507 65.6633
12.4956 65.6656
12.5405 65.5246
12.5853 66.3531
12.6302 69.8251
12.6751 72.7142
12.72 69.4154
12.7649 68.8375
12.8098 69.6727
12.8547 70.9315
12.8996 72.5841
12.9445 74.1459
12.9894 76.0965
13.0343 77.4377
13.0792 82.423
13.1242 98.4015
13.1691 123.151
13.214 163.873
13.2589 252.834
13.3038 368.665
13.3487 418.282
13.3937 257.61
13.4386 124.772
13.4835 114.296
13.5285 131.7
13.5734 172.308
13.6183 255.219
13.6633 340.74
13.7082 340.079
13.7531 186.4
13.7981 97.5246
13.843 83.0908
13.888 81.0053
13.9329 78.4538
13.9779 77.417
14.0228 75.6483
14.0678 74.083
14.1127 73.8241
14.1577 73.5533
14.2027 72.4407
14.2476 71.5723
14.2926 71.374
14.3376 71.6795
14.3825 71.0855
14.4275 69.9343
14.4725 70.0848
14.5175 70.4147
14.5624 70.2497
14.6074 71.3902
14.6524 72.0533
14.6974 72.1234
14.7424 76.13
14.7874 84.1241
14.8324 95.5324
14.8774 119.014
14.9224 158.338
14.9674 202.913
15.0124 214.199
15.0574 146.476
15.1024 90.0435
15.1474 73.2921
15.1924 71.4172
15.2374 71.1195
15.2824 70.1396
15.3274 68.7199
15.3725 68.0407
15.4175 67.5597
15.4625 66.9776
15.5076 67.1262
15.5526 67.5228
15.5976 67.378
15.6426 70.5928
15.6877 76.7531
15.7327 85.0068
15.7778 101.632
15.8228 131.48
15.8679 169.113
15.9129 190.995
15.958 153.46
16.003 94.9059
16.0481 68.0426
16.0931 64.3682
16.1382 62.6341
16.1833 61.3652
16.2283 59.7728
16.2734 59.0652
16.3185 58.8345
16.3636 58.893
16.4086 57.7336
16.4537 56.8635
16.4988 56.4383
16.5439 56.4238
16.589 56.106
16.6341 55.6345
16.6792 55.4412
16.7243 55.7699
16.7694 55.689
16.8145 55.6113
16.8596 55.9038
16.9047 56.5325
16.9498 57.0052
16.9949 56.4269
17.04 57.225
17.0851 58.6937
17.1302 60.4679
17.1754 63.6701
17.2205 68.8031
17.2656 75.4868
17.3108 82.3517
17.3559 81.7543
17.401 71.493
17.4462 62.8113
17.4913 60.1312
17.5365 60.3176
17.5815 60.3387
17.6268 60.6098
17.6718 61.2995
17.7171 61.7592
17.7622 62.3715
17.8074 63.904
17.8525 67.2814
17.8977 71.2349
17.9428 77.1113
17.9881 86.921
18.0331 103.27
18.0784 122.054
18.1237 139.997
18.1688 132.297
18.214 105.186
18.2591 88.7382
18.3044 92.3804
18.3495 100.759
18.3948 106.793
18.4399 96.6421
18.4852 78.1301
18.5303 66.6847
18.5756 63.0605
18.6207 62.2425
18.666 61.4531
18.7112 60.5951
18.7565 60.0601
18.8016 59.7019
18.8469 58.9741
18.892 58.8606
18.9374 58.2283
18.9825 57.8854
19.0278 57.8683
19.073 58.2417
19.1183 58.6925
19.1635 59.2316
19.2088 61.1237
19.254 63.8013
19.2993 67.6887
19.3447 72.9246
19.3898 76.5978
19.4352 72.5762
19.4804 63.6308
19.5257 57.3533
19.5709 54.8491
19.6163 54.7614
19.6615 54.6409
19.7068 54.4421
19.752 54.347
19.7974 54.8137
19.8426 55.498
19.888 56.4404
19.9332 57.6836
19.9786 60.4421
20.0238 63.6885
20.0692 67.9873
20.1144 70.5662
20.1598 69.1904
20.205 64.5445
20.2504 62.929
20.2957 64.3682
20.3411 66.0817
20.3863 64.5493
20.4318 58.6043
20.477 53.9422
20.5224 52.1285
20.5677 51.4441
20.6131 50.9694
20.6586 50.555
20.7038 50.3915
20.7493 49.7615
20.7945 49.7681
20.84 49.565
20.8853 49.6801
20.9307 49.4466
20.976 49.7383
21.0215 49.4184
21.0668 49.8548
21.1122 50.4099
21.1575 50.9949
21.203 51.6262
21.2483 52.1792
21.2938 52.1121
21.3391 50.7207
21.3846 49.7491
21.4299 49.2128
21.4754 49.2424
21.5207 49.4336
21.5662 50.1014
21.6116 50.4734
21.6571 51.1425
21.7024 52.108
21.7479 54.0855
21.7933 56.9127
21.8388 59.9433
21.8843 63.2314
21.9297 65.3229
21.9752 63.9929
22.0206 60.0614
22.0661 56.842
22.1115 56.4903
22.157 56.5817
22.2024 54.8711
22.248 51.8909
22.2933 50.5796
22.3389 49.8564
22.3843 49.7108
22.4299 49.3727
22.4753 49.5789
22.5208 49.472
22.5662 49.3273
22.6118 49.654
22.6572 49.8863
22.7028 50.3386
22.7483 50.6882
22.7939 51.6518
22.8393 53.0102
22.8849 54.9667
22.9303 56.7274
22.9759 58.1767
23.0214 57.9418
23.067 54.8697
23.1126 51.7451
23.1581 49.9431
23.2037 49.6532
23.2492 49.9232
23.2948 49.7791
23.3403 50.2127
23.3859 50.7972
23.4314 52.0032
23.477 53.6488
23.5225 55.4725
23.5682 57.2576
23.6137 58.3226
23.6593 56.0697
23.7048 52.1297
23.7505 48.8901
23.796 47.1628
23.8417 46.8268
23.8872 46.3212
23.9329 45.7962
23.9784 45.535
24.0241 45.3029
24.0697 45.1379
24.1154 44.7253
24.1609 44.6502
24.2066 44.4971
24.2522 44.482
24.2979 43.854
24.3434 44.0259
24.3892 43.872
24.4349 43.7837
24.4805 43.6576
24.5262 43.8859
24.5718 43.5715
24.6175 43.6004
24.6631 43.4133
24.7089 43.1155
24.7545 42.9661
24.8002 42.9236
24.8458 42.9842
24.8916 42.7713
24.9372 42.9906
24.983 43.2667
25.0286 43.6008
25.0744 44.0894
25.12 44.5839
25.1658 45.0369
25.2114 45.3927
25.2572 45.4071
25.3029 45.3651
25.3487 45.4182
25.3943 45.1119
25.4402 44.013
25.4858 43.0032
25.5316 42.1443
25.5773 41.4504
25.6231 41.4571
25.669 41.1904
25.7147 41.2469
25.7605 41.1333
25.8062 41.1238
25.8521 41.3459
25.8977 41.2413
25.9436 41.4939
25.9893 41.6002
26.0352 42.0385
26.0809 42.0521
26.1268 42.3316
26.1725 42.0055
26.2184 41.4157
26.2641 40.9377
26.31 40.8673
26.3557 40.837
26.4017 40.6791
26.4474 41.1641
26.4933 41.399
26.5391 42.0135
26.585 42.3267
26.6308 42.6743
26.6767 42.6881
26.7225 42.5996
26.7684 42.0082
26.8142 41.3547
26.8601 41.0435
26.9059 40.5825
26.9519 39.9669
26.9979 39.8916
27.0437 39.5165
27.0896 39.3816
27.1354 39.3842
27.1814 39.2946
27.2272 39.2
27.2732 39.2119
27.3191 38.8711
27.3651 39.1467
27.4109 39.0118
27.4569 39.0195
27.5027 39.2064
27.5488 39.0756
27.5946 39.1007
27.6407 38.6562
27.6865 38.7459
27.7326 38.4256
27.7784 38.6474
27.8245 38.3473
27.8703 38.6861
27.9164 38.896
27.9623 39.0522
28.0084 39.1976
28.0543 39.7127
28.1003 39.5302
28.1462 39.3512
28.1923 39.0934
28.2384 38.5411
28.2843 38.0392
28.3304 37.7405
28.3764 37.2427
28.4225 36.9062
28.4684 36.687
28.5145 36.3869
28.5605 36.3975
28.6066 36.2108
28.6526 36.2242
28.6987 36.2027
28.7447 36.2356
28.7908 36.002
28.8368 35.9241
28.8829 35.9078
28.9289 35.8904
28.9751 35.6697
29.0211 35.3877
29.0673 35.1566
29.1133 35.0753
29.1595 34.9342
29.2055 34.8803
29.2517 34.8865
29.2977 34.8711
29.3439 34.8067
29.3899 34.6876
29.4361 34.6657
29.4824 34.3855
29.5284 34.2701
29.5746 33.9574
29.6207 33.6659
29.6669 33.5811
29.713 33.4558
29.7593 33.2858
29.8053 33.3698
29.8516 33.2856
29.8977 33.2345
29.9439 33.065
29.99 33.0226
30.0363 32.9668
30.0824 33.0401
30.1287 32.7705
30.1748 32.9126
30.2211 32.9478
30.2673 32.7455
30.3136 32.8544
30.3597 32.7377
30.406 32.6791
30.4522 32.574
30.4985 32.5649
30.5447 32.6695
30.591 32.5831
30.6372 32.6255
30.6835 32.5869
30.7297 32.7772
30.7761 32.6273
30.8224 32.5384
30.8686 32.3758
30.915 32.0331
30.9612 31.9275
31.0076 31.7401
31.0538 31.6125
31.1002 31.6045
31.1464 31.3843
31.1928 31.4662
31.2391 31.5173
31.2855 31.3401
31.3317 31.3041
31.3781 31.3507
31.4244 31.2637
31.4708 31.2525
31.5171 31.2578
31.5636 31.2537
31.6098 31.0059
31.6563 30.7881
31.7026 30.6817
31.7491 30.5946
31.7953 30.652
31.8418 30.5538
31.8881 30.6364
31.9346 30.5392
31.9809 30.3717
32.0275 30.2609
32.074 30.3855
32.1203 30.1501
32.1668 29.9883
32.2132 29.8789
32.2597 29.6571
32.306 29.6604
32.3526 29.4287
32.399 29.3695
32.4455 29.1692
32.4919 29.0725
32.5385 29.1206
32.5848 28.9484
32.6314 28.8854
32.6778 28.8268
32.7244 28.6625
32.7708 28.5944
32.8174 28.5908
32.8638 28.4653
32.9104 28.487
32.9569 28.4117
33.0035 28.3133
33.0499 28.2908
33.0966 28.2038
33.143 28.2096
33.1897 28.2146
33.2361 28.0113
33.2828 27.9231
33.3293 27.8445
33.3759 27.7903
33.4226 27.5993
33.4691 27.5168
33.5158 27.4057
33.5623 27.3393
33.609 27.1856
33.6555 27.0863
33.7022 26.9999
33.7487 26.9251
33.7954 26.9159
33.842 26.8216
33.8887 26.7173
33.9353 26.6595
33.982 26.54
34.0286 26.4898
34.0753 26.2598
34.1219 26.3282
34.1687 26.2714
34.2152 26.2224
34.262 26.0187
34.3086 25.9284
34.3554 25.9657
34.402 25.6699
34.4488 25.7402
34.4954 25.6026
34.5422 25.5271
34.5889 25.4516
34.6357 25.3785
34.6825 25.3238
34.7292 25.2185
34.776 25.1118
34.8227 25.1034
34.8695 24.9831
34.9162 24.9317
34.9631 24.891
35.0098 24.8322
35.0566 24.6549
35.1033 24.7004
35.1502 24.6335
35.1969 24.5391
35.2438 24.5344
35.2906 24.5036
35.3375 24.3378
35.3842 24.3318
35.4311 24.3088
35.4779 24.2224
35.5248 24.2412
35.5716 24.0886
35.6185 23.9372
35.6653 24.0028
35.7123 23.8805
35.759 23.8267
35.806 23.6576
35.8528 23.5767
35.8998 23.5419
35.9468 23.4836
35.9936 23.4587
36.0406 23.3613
36.0874 23.2699
36.1345 23.2729
36.1813 23.2066
36.2283 23.0744
36.2752 22.9473
36.3222 22.9815
36.3691 22.8243
36.4161 22.7712
36.463 22.8274
36.5101 22.7236
36.557 22.7302
36.6041 22.4999
36.651 22.5262
36.6981 22.4465
36.745 22.3938
36.7921 22.3117
36.839 22.171
36.8861 22.0895
36.9331 22.0317
36.9802 21.9549
37.0272 21.8488
37.0743 21.8264
37.1213 21.7393
37.1684 21.7505
37.2154 21.6876
37.2626 21.5495
37.3098 21.5071
37.3568 21.4923
37.404 21.384
37.451 21.2872
37.4982 21.2957
37.5452 21.1244
37.5924 21.0439
37.6395 21.1437
37.6867 20.9551
37.7337 20.8774
37.781 20.8564
37.8281 20.8176
37.8753 20.7026
37.9224 20.5537
37.9697 20.5879
38.0168 20.5285
38.064 20.4788
38.1111 20.4089
38.1584 20.2692
38.2056 20.198
38.2529 20.2036
38.3 20.1243
38.3473 20.0873
38.3945 19.9554
38.4418 19.9861
38.489 19.9125
38.5363 19.746
38.5837 19.6743
38.6309 19.7295
38.6782 19.6278
38.7254 19.5418
38.7728 19.4913
38.82 19.4047
38.8674 19.3331
38.9146 19.3361
38.9621 19.2399
39.0093 19.2006
39.0567 19.1764
39.104 19.1239
39.1514 18.9545
39.1987 18.9731
39.2461 18.9082
39.2934 18.8529
39.3409 18.6905
39.3882 18.68
39.4356 18.6417
39.483 18.5888
39.5304 18.4898
39.5778 18.4688
39.6253 18.4236
39.6726 18.3369
39.7201 18.2809
39.7675 18.2603
39.815 18.1964
39.8624 18.1065
39.9099 18.0854
39.9575 17.9612
40.0049 17.9539
40.0525 17.8563
40.0999 17.8331
40.1474 17.8182
40.1949 17.7232
40.2425 17.617
40.2899 17.6106
40.3375 17.5338
40.385 17.4881
40.4326 17.4227
40.48 17.3965
40.5277 17.38
40.5752 17.2634
40.6228 17.1861
40.6703 17.1478
40.718 17.1122
40.7655 17.0673
40.8132 16.9922
40.8607 16.9364
40.9084 16.9257
40.9559 16.9053
41.0036 16.8638
41.0512 16.7164
41.0989 16.6708
41.1465 16.5964
41.1942 16.5682
41.242 16.4527
41.2896 16.4352
41.3373 16.4335
41.3849 16.3282
41.4327 16.3047
41.4803 16.2519
41.5281 16.1736
41.5758 16.1315
41.6236 16.0565
41.6712 15.9898
41.7191 15.9733
41.7667 15.8932
41.8146 15.8611
41.8622 15.815
41.9101 15.7945
41.9578 15.6918
42.0057 15.6337
42.0534 15.5791
42.1013 15.5613
42.149 15.5349
42.1969 15.4134
42.2446 15.3578
42.2925 15.3267
42.3403 15.2965
42.3882 15.2415
42.436 15.1845
42.4839 15.1583
42.5319 15.0728
42.5797 15.0456
42.6277 15.0103
42.6755 14.8997
42.7235 14.8629
42.7713 14.8806
42.8193 14.7759
42.8671 14.7106
42.9152 14.6985
42.963 14.6631
43.0111 14.5984
43.0589 14.5236
43.107 14.4509
43.1549 14.4071
43.2029 14.3715
43.2508 14.3406
43.2989 14.2626
43.3468 14.1632
43.3949 14.2349
43.4429 14.1254
43.491 14.0478
43.5389 13.9796
43.5871 13.9648
43.635 13.856
43.6832 13.8587
43.7312 13.8259
43.7793 13.7746
43.8273 13.745
43.8755 13.6802
43.9237 13.6618
43.9717 13.6242
44.0199 13.5501
44.068 13.5212
44.1162 13.4449
44.1642 13.4748
44.2125 13.3391
44.2606 13.3701
44.3088 13.2201
44.3569 13.233
44.4052 13.1893
44.4533 13.1102
44.5016 13.0746
44.5497 13.0722
44.598 13.0295
44.6461 12.9122
44.6945 12.9256
44.7426 12.8027
44.791 12.7894
44.8391 12.7585
44.8875 12.7062
44.9357 12.7027
44.984 12.648
45.0322 12.612
45.0806 12.5449
45.1288 12.4808
45.1773 12.4513
45.2257 12.4511
45.2739 12.3816
45.3224 12.3328
45.3706 12.2732
45.4191 12.21
45.4673 12.2039
45.5158 12.1649
45.5641 12.0982
45.6126 12.0378
45.6609 11.9673
45.7094 11.9848
45.7577 11.9164
45.8063 11.8892
45.8546 11.839
45.9031 11.7617
45.9515 11.7194
46.0001 11.727
46.0484 11.7024
46.097 11.6346
46.1454 11.6383
46.194 11.5616
46.2424 11.5108
46.291 11.4467
46.3395 11.4151
46.3881 11.3738
46.4365 11.3414
46.4852 11.3324
46.5337 11.2767
46.5823 11.2408
46.631 11.14
46.6795 11.1314
46.7282 11.1067
46.7767 11.0446
46.8254 10.9779
46.8739 10.9366
46.9226 10.9183
46.9712 10.8538
47.0199 10.846
47.0685 10.8518
47.1173 10.7319
47.1658 10.7429
47.2146 10.6975
47.2632 10.6484
47.312 10.6279
47.3606 10.5486
47.4095 10.5137
47.4581 10.5131
47.5069 10.4526
47.5556 10.4642
47.6044 10.379
47.6531 10.3563
47.702 10.2864
47.7507 10.2594
47.7996 10.2259
47.8483 10.1784
47.8972 10.1521
47.9461 10.1496
47.9948 10.0673
48.0438 10.003
48.0925 10.0318
48.1415 9.91041
48.1902 9.93657
48.2392 9.95619
48.288 9.8771
48.337 9.82048
48.3858 9.76894
48.4348 9.77942
48.4837 9.73546
48.5327 9.70884
48.5815 9.67081
48.6306 9.62082
48.6795 9.58928
48.7285 9.54018
48.7774 9.53228
48.8265 9.47895
48.8754 9.45431
48.9245 9.35917
48.9734 9.35307
49.0226 9.35854
49.0715 9.28209
49.1206 9.27771
49.1696 9.2129
49.2188 9.21622
49.2679 9.18966
49.3169 9.07749
49.3661 9.08439
49.4151 9.08514
49.4643 9.02872
49.5134 8.96047
49.5626 8.91266
49.6117 8.87637
49.6609 8.90638
49.71 8.82697
49.7592 8.80518
49.8083 8.77552
49.8576 8.75359
49.9067 8.70816
49.956 8.66893
50.0052 8.6546
50.0545 8.63008
50.1036 8.60497
50.153 8.55156
50.2022 8.502
50.2515 8.46935
50.3007 8.43621
50.3501 8.41879
50.3993 8.39833
50.4487 8.34559
50.498 8.3253
50.5474 8.34808
50.5966 8.24492
50.6461 8.22737
50.6955 8.20048
50.7448 8.1203
50.7943 8.17843
50.8436 8.10009
50.8931 8.05746
50.9424 8.0648
50.9919 8.00418
51.0413 7.99662
51.0908 7.91415
51.1402 7.91189
51.1897 7.89796
51.2391 7.8296
51.2887 7.80508
51.3381 7.76349
51.3877 7.74705
51.4371 7.70963
51.4867 7.67311
51.5362 7.62684
51.5858 7.62061
51.6353 7.56186
51.6849 7.55637
51.7344 7.50069
51.7841 7.50938
51.8336 7.47154
51.8833 7.41568
51.9328 7.38991
51.9826 7.37115
52.0323 7.33304
52.0818 7.28001
52.1316 7.27828
52.1812 7.25409
52.231 7.21295
52.2806 7.18239
52.3304 7.11853
52.38 7.15755
52.4298 7.09582
52.4794 7.09465
52.5293 7.07022
52.5789 7.02939
52.6288 6.98014
52.6785 6.94341
52.7284 6.9283
52.7781 6.93108
52.828 6.89239
52.8777 6.8205
52.9276 6.81136
52.9774 6.77299
53.0273 6.75719
53.0771 6.70671
53.1271 6.70831
53.1769 6.68919
53.2269 6.68342
53.2767 6.58311
53.3267 6.59744
53.3765 6.55259
53.4266 6.52549
53.4766 6.53543
53.5265 6.47141
53.5765 6.4193
53.6264 6.44389
53.6765 6.40837
53.7264 6.33553
53.7765 6.35093
53.8265 6.30317
53.8766 6.29024
53.9266 6.22661
53.9767 6.2493
54.0267 6.18817
54.0769 6.20455
54.1269 6.12834
54.1771 6.0648
54.2271 6.08293
54.2773 6.03554
54.3274 6.05872
54.3776 6.01219
54.4277 5.90666
54.478 5.91245
54.528 5.87626
54.5783 5.85065
54.6285 5.79291
54.6788 5.77417
54.7289 5.68287
54.7792 5.66559
54.8296 5.6158
54.8798 5.54085
54.9301 5.58574
54.9803 5.51312
55.0307 5.51666
55.0809 5.47519
55.1314 5.40015
55.1816 5.37171
55.232 5.33792
55.2823 5.28913
55.3328 5.19577
55.383 5.18368
55.4335 5.12724
55.4838 5.01014
55.5344 5.04978
55.5847 4.98634
55.6352 4.96536
55.6856 4.92357
55.7361 4.91382