File: XRD/Ni3Fe_FD0478.xy
TT I
1.27165 7.7898
1.31627 6.84937
1.36089 6.8877
1.40551 6.15698
1.45013 5.72349
1.49476 6.30244
1.53938 6.17929
1.584 4.66527
1.62863 5.44351
1.67325 5.32672
1.71787 5.31597
1.7625 4.66736
1.80712 4.89515
1.85174 4.79715
1.89636 4.65127
1.94099 5.14732
1.98562 4.67581
2.03025 4.18489
2.07487 4.3091
2.11949 4.41864
2.16411 4.67212
2.20874 8.03534
2.25338 11.8712
2.298 4.85855
2.34263 4.88436
2.38725 5.51803
2.43188 5.59004
2.4765 6.18955
2.52115 6.2177
2.56577 6.5293
2.6104 8.13821
2.65503 6.90765
2.69965 7.55174
2.7443 7.50513
2.78893 7.53501
2.83356 8.06066
2.87818 8.232
2.92281 8.61315
2.96744 9.2124
3.01209 10.191
3.05672 10.872
3.10135 11.9922
3.14599 12.8469
3.19062 13.7701
3.23527 14.6336
3.2799 15.5312
3.32454 16.4696
3.36917 17.9306
3.4138 18.9733
3.45844 19.6825
3.50309 20.7035
3.54773 21.5092
3.59237 23.2519
3.637 52.8769
3.68164 38.7488
3.7263 25.6099
3.77094 25.7832
3.81558 26.813
3.86022 27.056
3.90486 29.1161
3.9495 30.0817
3.99416 30.7312
4.0388 32.3852
4.08344 34.0373
4.12809 35.0189
4.17273 36.3685
4.21738 39.8047
4.26204 127.446
4.30669 112.604
4.35133 45.1445
4.39598 43.9292
4.44063 49.0203
4.4853 55.4281
4.52995 54.5389
4.5746 54.7875
4.61925 54.2082
4.6639 56.2682
4.70855 59.2752
4.75322 62.087
4.79788 67.4196
4.84253 69.2466
4.88719 74.7507
4.93184 77.3268
4.97652 83.4469
5.02118 90.2488
5.06583 98.4288
5.11049 111.834
5.15515 164.563
5.19981 537.554
5.24449 3513.02
5.28916 11708.0
5.33382 2855.9
5.37848 207.269
5.42315 135.745
5.46783 120.852
5.5125 112.217
5.55716 104.668
5.60183 100.523
5.6465 98.5615
5.69117 96.6922
5.73586 95.2849
5.78053 97.4611
5.8252 97.2544
5.86988 99.0441
5.91455 98.6712
5.95924 112.032
6.00392 299.428
6.0486 1186.25
6.09328 4239.06
6.13795 3252.02
6.18263 247.055
6.22733 95.6533
6.27201 83.3558
6.3167 87.1945
6.36138 76.3388
6.40606 70.7399
6.45075 69.5206
6.49545 66.4828
6.54014 64.4212
6.58483 63.3434
6.62952 63.1562
6.67421 75.2767
6.71892 94.9733
6.76361 63.8858
6.8083 59.658
6.853 58.9967
6.89769 57.0759
6.94239 56.5875
6.98711 56.2936
7.03181 56.3003
7.07651 55.719
7.12121 55.3561
7.16591 55.9593
7.21063 55.465
7.25533 61.5316
7.30004 105.321
7.34475 70.2028
7.38945 55.729
7.43416 54.8076
7.47889 54.7599
7.5236 54.9731
7.56831 55.6775
7.61303 56.4142
7.65774 56.5796
7.70247 57.19
7.74719 56.8749
7.79191 57.304
7.83663 57.7702
7.88135 58.5749
7.92607 59.228
7.97081 60.824
8.01553 61.5437
8.06026 63.7058
8.10498 64.7549
8.14971 71.0431
8.19446 70.5745
8.23919 70.5736
8.28392 73.1315
8.32865 75.2854
8.37339 79.9914
8.41812 86.3426
8.46288 108.967
8.50761 211.468
8.55235 466.337
8.59709 1243.2
8.64183 2165.41
8.68658 963.121
8.73134 165.919
8.77609 101.067
8.82083 94.6432
8.86558 92.8812
8.91033 91.6804
8.9551 90.4173
8.99985 86.4957
9.04461 85.1561
9.08936 85.0601
9.13412 83.5985
9.17888 83.3236
9.22365 83.435
9.26841 83.391
9.31318 85.5344
9.35794 86.3434
9.4027 85.982
9.44749 86.2298
9.49226 86.2069
9.53703 87.181
9.5818 89.9331
9.62657 93.8302
9.67134 96.138
9.71614 94.7433
9.76091 96.3423
9.80569 99.9542
9.85047 102.939
9.89525 115.601
9.94005 134.39
9.98484 223.598
10.0296 412.856
10.0744 888.195
10.1192 1708.26
10.164 1627.68
10.2088 401.283
10.2536 129.204
10.2984 112.736
10.3432 111.431
10.388 108.903
10.4328 132.098
10.4776 180.138
10.5224 303.735
10.5672 500.276
10.612 492.642
10.6568 199.936
10.7017 97.0254
10.7465 88.1228
10.7913 84.4976
10.8361 82.3999
10.8809 79.9064
10.9257 78.6811
10.9706 78.959
11.0154 75.8063
11.0602 74.2236
11.105 72.383
11.1499 73.7565
11.1947 75.8506
11.2395 71.6851
11.2844 69.8772
11.3292 67.8941
11.374 67.2141
11.4189 66.3058
11.4637 65.6767
11.5086 65.5082
11.5534 66.5932
11.5983 65.3808
11.6431 64.2182
11.688 63.7802
11.7328 63.7231
11.7777 63.515
11.8225 63.3627
11.8674 63.2674
11.9122 63.83
11.9571 64.3116
12.002 65.7306
12.0468 72.4881
12.0917 83.949
12.1366 109.193
12.1814 155.915
12.2263 202.506
12.2712 168.014
12.3161 91.1027
12.3609 68.8201
12.4058 65.0934
12.4507 65.2294
12.4956 65.3826
12.5405 65.5408
12.5853 66.1614
12.6302 69.4189
12.6751 72.7842
12.72 69.1875
12.7649 68.5965
12.8098 69.4673
12.8547 71.0087
12.8996 72.5336
12.9445 74.1363
12.9894 75.9855
13.0343 77.7054
13.0792 82.373
13.1242 98.0451
13.1691 122.604
13.214 163.146
13.2589 252.553
13.3038 369.455
13.3487 422.727
13.3937 260.431
13.4386 125.202
13.4835 114.035
13.5285 131.244
13.5734 172.009
13.6183 255.612
13.6633 341.741
13.7082 339.206
13.7531 188.395
13.7981 97.6031
13.843 83.1296
13.888 80.9503
13.9329 78.3669
13.9779 76.7786
14.0228 75.4356
14.0678 74.2804
14.1127 73.7818
14.1577 73.1285
14.2027 72.485
14.2476 71.5564
14.2926 71.1451
14.3376 71.4625
14.3825 70.7606
14.4275 69.8983
14.4725 70.0047
14.5175 69.8472
14.5624 70.2889
14.6074 71.3176
14.6524 71.7812
14.6974 71.9695
14.7424 76.128
14.7874 84.004
14.8324 95.3721
14.8774 118.66
14.9224 158.114
14.9674 203.778
15.0124 215.48
15.0574 148.612
15.1024 90.7609
15.1474 73.4015
15.1924 71.3178
15.2374 70.7861
15.2824 69.8159
15.3274 68.5737
15.3725 67.817
15.4175 67.4747
15.4625 67.144
15.5076 66.9977
15.5526 66.7968
15.5976 67.1492
15.6426 70.4454
15.6877 76.7181
15.7327 84.8814
15.7778 101.588
15.8228 131.172
15.8679 169.04
15.9129 191.883
15.958 154.638
16.003 95.386
16.0481 68.0032
16.0931 64.2097
16.1382 62.5297
16.1833 61.1833
16.2283 59.8378
16.2734 59.21
16.3185 58.927
16.3636 58.8317
16.4086 57.6465
16.4537 56.843
16.4988 56.1718
16.5439 56.1514
16.589 55.9898
16.6341 55.9367
16.6792 55.2592
16.7243 55.6637
16.7694 55.7631
16.8145 55.5354
16.8596 55.8859
16.9047 56.4754
16.9498 56.7004
16.9949 56.3278
17.04 57.2296
17.0851 58.9969
17.1302 60.3573
17.1754 63.6489
17.2205 68.7816
17.2656 75.2345
17.3108 82.1457
17.3559 81.9308
17.401 71.7489
17.4462 63.0095
17.4913 60.2402
17.5365 60.0246
17.5815 60.3105
17.6268 60.7363
17.6718 61.1802
17.7171 61.8486
17.7622 62.6556
17.8074 63.7689
17.8525 67.3669
17.8977 71.6356
17.9428 77.2682
17.9881 86.8627
18.0331 103.156
18.0784 122.049
18.1237 140.244
18.1688 133.321
18.214 105.639
18.2591 88.8054
18.3044 92.2982
18.3495 100.566
18.3948 106.733
18.4399 96.926
18.4852 78.1837
18.5303 66.5277
18.5756 63.3185
18.6207 62.2178
18.666 61.2622
18.7112 60.5825
18.7565 60.0683
18.8016 59.6563
18.8469 58.9077
18.892 58.7935
18.9374 58.1045
18.9825 57.8583
19.0278 57.8201
19.073 58.2581
19.1183 58.6006
19.1635 59.2978
19.2088 60.7233
19.254 63.6555
19.2993 67.6722
19.3447 72.7811
19.3898 76.6433
19.4352 73.1893
19.4804 63.9477
19.5257 57.172
19.5709 55.0449
19.6163 54.7488
19.6615 54.6433
19.7068 54.295
19.752 54.1485
19.7974 54.7902
19.8426 55.6292
19.888 56.3213
19.9332 57.7436
19.9786 60.4404
20.0238 63.6637
20.0692 67.9113
20.1144 70.6129
20.1598 69.2911
20.205 64.8934
20.2504 63.031
20.2957 64.494
20.3411 66.1135
20.3863 64.5894
20.4318 58.8971
20.477 53.984
20.5224 51.992
20.5677 51.3226
20.6131 50.8834
20.6586 50.3676
20.7038 50.328
20.7493 49.8061
20.7945 49.7346
20.84 49.6436
20.8853 49.4543
20.9307 49.4775
20.976 49.61
21.0215 49.4053
21.0668 49.8771
21.1122 50.3297
21.1575 51.0198
21.203 51.6117
21.2483 52.1328
21.2938 52.3065
21.3391 50.7441
21.3846 49.773
21.4299 49.2629
21.4754 49.2265
21.5207 49.4764
21.5662 50.0472
21.6116 50.3613
21.6571 51.1009
21.7024 52.1799
21.7479 54.0616
21.7933 56.7534
21.8388 60.0047
21.8843 63.3639
21.9297 65.4824
21.9752 64.2416
22.0206 60.1643
22.0661 57.1906
22.1115 56.4911
22.157 56.4986
22.2024 54.99
22.248 52.203
22.2933 50.582
22.3389 49.7711
22.3843 49.6484
22.4299 49.4629
22.4753 49.4506
22.5208 49.3439
22.5662 49.333
22.6118 49.6999
22.6572 49.975
22.7028 50.1603
22.7483 50.9265
22.7939 51.5887
22.8393 53.1443
22.8849 55.0017
22.9303 56.7496
22.9759 58.3637
23.0214 58.0939
23.067 55.0871
23.1126 51.7572
23.1581 49.8324
23.2037 49.6435
23.2492 49.817
23.2948 49.8998
23.3403 50.1387
23.3859 50.9118
23.4314 51.9253
23.477 53.759
23.5225 55.5548
23.5682 57.3522
23.6137 58.2541
23.6593 56.2586
23.7048 52.342
23.7505 48.9054
23.796 47.2293
23.8417 46.6765
23.8872 46.2446
23.9329 45.8318
23.9784 45.7876
24.0241 45.1836
24.0697 45.0527
24.1154 44.7544
24.1609 44.6677
24.2066 44.5176
24.2522 44.2887
24.2979 44.0853
24.3434 43.9581
24.3892 43.9572
24.4349 43.6257
24.4805 43.6787
24.5262 43.7691
24.5718 43.6453
24.6175 43.6744
24.6631 43.5219
24.7089 42.934
24.7545 43.1086
24.8002 42.8801
24.8458 42.8834
24.8916 42.7784
24.9372 42.9321
24.983 43.5004
25.0286 43.6389
25.0744 44.0617
25.12 44.3702
25.1658 45.1213
25.2114 45.4842
25.2572 45.4979
25.3029 45.3245
25.3487 45.5125
25.3943 45.2524
25.4402 44.005
25.4858 42.9595
25.5316 42.0647
25.5773 41.5602
25.6231 41.5098
25.669 41.2367
25.7147 41.229
25.7605 41.1317
25.8062 41.1341
25.8521 41.2339
25.8977 41.31
25.9436 41.5189
25.9893 41.61
26.0352 42.1884
26.0809 42.2587
26.1268 42.3394
26.1725 42.0858
26.2184 41.4526
26.2641 41.1007
26.31 40.708
26.3557 40.8976
26.4017 40.8543
26.4474 41.0963
26.4933 41.5367
26.5391 41.9951
26.585 42.2692
26.6308 42.7702
26.6767 42.7133
26.7225 42.6658
26.7684 42.0362
26.8142 41.302
26.8601 41.0493
26.9059 40.6238
26.9519 40.1673
26.9979 39.8341
27.0437 39.5183
27.0896 39.4063
27.1354 39.4565
27.1814 39.1657
27.2272 39.1946
27.2732 39.2073
27.3191 39.0789
27.3651 39.0711
27.4109 38.9696
27.4569 39.2672
27.5027 39.1855
27.5488 39.1076
27.5946 39.0246
27.6407 38.7504
27.6865 38.6913
27.7326 38.4739
27.7784 38.5556
27.8245 38.5165
27.8703 38.6328
27.9164 39.0764
27.9623 39.0246
28.0084 39.3612
28.0543 39.6481
28.1003 39.4595
28.1462 39.4384
28.1923 39.0124
28.2384 38.6125
28.2843 38.2321
28.3304 37.6078
28.3764 37.3373
28.4225 37.0042
28.4684 36.8277
28.5145 36.4307
28.5605 36.5832
28.6066 36.2007
28.6526 36.1527
28.6987 36.0901
28.7447 36.0701
28.7908 35.9103
28.8368 36.0175
28.8829 35.9788
28.9289 35.8998
28.9751 35.67
29.0211 35.4318
29.0673 35.1784
29.1133 35.1046
29.1595 34.9295
29.2055 34.7834
29.2517 34.9044
29.2977 34.8401
29.3439 34.7982
29.3899 34.7096
29.4361 34.6133
29.4824 34.4549
29.5284 34.2048
29.5746 33.8643
29.6207 33.6492
29.6669 33.4784
29.713 33.4481
29.7593 33.2141
29.8053 33.2213
29.8516 33.2351
29.8977 33.2278
29.9439 33.1621
29.99 33.0615
30.0363 33.0327
30.0824 33.0727
30.1287 32.8619
30.1748 32.949
30.2211 32.9007
30.2673 32.7283
30.3136 32.9273
30.3597 32.7826
30.406 32.6138
30.4522 32.5107
30.4985 32.598
30.5447 32.628
30.591 32.6388
30.6372 32.6058
30.6835 32.6522
30.7297 32.671
30.7761 32.6017
30.8224 32.4623
30.8686 32.3085
30.915 32.0175
30.9612 31.9335
31.0076 31.7778
31.0538 31.6296
31.1002 31.6212
31.1464 31.5049
31.1928 31.471
31.2391 31.4659
31.2855 31.3237
31.3317 31.3345
31.3781 31.3135
31.4244 31.5
31.4708 31.2436
31.5171 31.2771
31.5636 31.2914
31.6098 30.9386
31.6563 30.8564
31.7026 30.7541
31.7491 30.5814
31.7953 30.6675
31.8418 30.6447
31.8881 30.5379
31.9346 30.6535
31.9809 30.462
32.0275 30.3564
32.074 30.2675
32.1203 30.0739
32.1668 29.9144
32.2132 29.7987
32.2597 29.6188
32.306 29.6322
32.3526 29.4407
32.399 29.293
32.4455 29.2128
32.4919 29.0921
32.5385 29.0377
32.5848 28.7888
32.6314 28.9384
32.6778 28.9108
32.7244 28.7149
32.7708 28.5968
32.8174 28.5337
32.8638 28.4003
32.9104 28.4842
32.9569 28.4485
33.0035 28.3357
33.0499 28.2152
33.0966 28.2488
33.143 28.2236
33.1897 28.1481
33.2361 27.9974
33.2828 27.999
33.3293 27.8511
33.3759 27.7087
33.4226 27.6587
33.4691 27.4605
33.5158 27.4781
33.5623 27.3072
33.609 27.122
33.6555 27.0146
33.7022 26.9656
33.7487 26.9525
33.7954 26.9312
33.842 26.6995
33.8887 26.7651
33.9353 26.7349
33.982 26.4967
34.0286 26.4984
34.0753 26.3784
34.1219 26.3425
34.1687 26.284
34.2152 26.1689
34.262 26.0387
34.3086 26.0029
34.3554 25.9179
34.402 25.8593
34.4488 25.6593
34.4954 25.6403
34.5422 25.5096
34.5889 25.3533
34.6357 25.3161
34.6825 25.3285
34.7292 25.2325
34.776 25.1104
34.8227 25.0492
34.8695 25.0348
34.9162 24.9737
34.9631 24.894
35.0098 24.8564
35.0566 24.6917
35.1033 24.6504
35.1502 24.6649
35.1969 24.5811
35.2438 24.5691
35.2906 24.5188
35.3375 24.4559
35.3842 24.3618
35.4311 24.3963
35.4779 24.2854
35.5248 24.1875
35.5716 24.1078
35.6185 24.0618
35.6653 23.9573
35.7123 23.8539
35.759 23.9192
35.806 23.648
35.8528 23.6095
35.8998 23.5439
35.9468 23.3858
35.9936 23.3765
36.0406 23.348
36.0874 23.4081
36.1345 23.2172
36.1813 23.168
36.2283 23.0074
36.2752 23.0541
36.3222 23.0092
36.3691 22.8799
36.4161 22.7497
36.463 22.7207
36.5101 22.7768
36.557 22.6958
36.6041 22.5376
36.651 22.4711
36.6981 22.4142
36.745 22.3736
36.7921 22.3256
36.839 22.215
36.8861 22.1313
36.9331 22.0204
36.9802 21.9959
37.0272 22.0054
37.0743 21.7572
37.1213 21.8255
37.1684 21.7202
37.2154 21.6731
37.2626 21.5614
37.3098 21.5154
37.3568 21.4345
37.404 21.4636
37.451 21.286
37.4982 21.2708
37.5452 21.1852
37.5924 21.1145
37.6395 21.1255
37.6867 21.0064
37.7337 20.9485
37.781 20.8466
37.8281 20.7659
37.8753 20.6707
37.9224 20.6245
37.9697 20.4916
38.0168 20.4281
38.064 20.4509
38.1111 20.3644
38.1584 20.3061
38.2056 20.2084
38.2529 20.2025
38.3 20.0965
38.3473 20.0712
38.3945 19.9716
38.4418 19.9801
38.489 19.8727
38.5363 19.807
38.5837 19.7749
38.6309 19.7323
38.6782 19.6032
38.7254 19.5528
38.7728 19.4974
38.82 19.4414
38.8674 19.4003
38.9146 19.3064
38.9621 19.2071
39.0093 19.2105
39.0567 19.1526
39.104 19.1218
39.1514 19.0147
39.1987 18.9645
39.2461 18.9066
39.2934 18.8312
39.3409 18.6814
39.3882 18.6398
39.4356 18.6445
39.483 18.621
39.5304 18.498
39.5778 18.5094
39.6253 18.3937
39.6726 18.3722
39.7201 18.4099
39.7675 18.2275
39.815 18.1607
39.8624 18.1344
39.9099 18.0717
39.9575 17.9406
40.0049 17.9956
40.0525 17.9108
40.0999 17.8376
40.1474 17.7657
40.1949 17.7146
40.2425 17.6929
40.2899 17.5571
40.3375 17.5504
40.385 17.5044
40.4326 17.4723
40.48 17.3942
40.5277 17.3696
40.5752 17.2504
40.6228 17.157
40.6703 17.1441
40.718 17.106
40.7655 17.085
40.8132 16.9514
40.8607 16.9502
40.9084 16.936
40.9559 16.89
41.0036 16.8163
41.0512 16.783
41.0989 16.677
41.1465 16.6118
41.1942 16.6309
41.242 16.4998
41.2896 16.425
41.3373 16.385
41.3849 16.3382
41.4327 16.2979
41.4803 16.2083
41.5281 16.2245
41.5758 16.1566
41.6236 16.081
41.6712 16.0235
41.7191 15.9595
41.7667 15.8997
41.8146 15.8551
41.8622 15.8405
41.9101 15.719
41.9578 15.6545
42.0057 15.5918
42.0534 15.6099
42.1013 15.5717
42.149 15.4798
42.1969 15.4625
42.2446 15.3774
42.2925 15.3303
42.3403 15.2923
42.3882 15.2099
42.436 15.1999
42.4839 15.1159
42.5319 15.1139
42.5797 15.0279
42.6277 15.0164
42.6755 14.9172
42.7235 14.82
42.7713 14.8305
42.8193 14.7792
42.8671 14.7393
42.9152 14.6268
42.963 14.6102
43.0111 14.5918
43.0589 14.5092
43.107 14.4504
43.1549 14.4557
43.2029 14.3405
43.2508 14.3341
43.2989 14.2517
43.3468 14.1613
43.3949 14.1734
43.4429 14.2031
43.491 14.0371
43.5389 14.0336
43.5871 13.9781
43.635 13.914
43.6832 13.9034
43.7312 13.8341
43.7793 13.7911
43.8273 13.7919
43.8755 13.6896
43.9237 13.6509
43.9717 13.5768
44.0199 13.5813
44.068 13.5529
44.1162 13.5049
44.1642 13.4173
44.2125 13.3656
44.2606 13.3727
44.3088 13.2677
44.3569 13.2414
44.4052 13.1489
44.4533 13.1157
44.5016 13.0635
44.5497 13.072
44.598 13.0281
44.6461 12.9477
44.6945 12.888
44.7426 12.8327
44.791 12.7833
44.8391 12.7948
44.8875 12.7023
44.9357 12.6159
44.984 12.6303
45.0322 12.5929
45.0806 12.5273
45.1288 12.4925
45.1773 12.4371
45.2257 12.4329
45.2739 12.3351
45.3224 12.3458
45.3706 12.272
45.4191 12.2166
45.4673 12.1853
45.5158 12.131
45.5641 12.0691
45.6126 12.0716
45.6609 12.0218
45.7094 11.9719
45.7577 11.939
45.8063 11.8866
45.8546 11.8416
45.9031 11.7563
45.9515 11.7256
46.0001 11.6904
46.0484 11.7188
46.097 11.7032
46.1454 11.6053
46.194 11.5389
46.2424 11.5336
46.291 11.4319
46.3395 11.4293
46.3881 11.4033
46.4365 11.344
46.4852 11.3213
46.5337 11.2577
46.5823 11.2493
46.631 11.1986
46.6795 11.1341
46.7282 11.1105
46.7767 11.0641
46.8254 11.0101
46.8739 10.987
46.9226 10.948
46.9712 10.8625
47.0199 10.8402
47.0685 10.8085
47.1173 10.776
47.1658 10.7097
47.2146 10.7031
47.2632 10.5934
47.312 10.638
47.3606 10.5459
47.4095 10.5298
47.4581 10.5252
47.5069 10.3852
47.5556 10.4445
47.6044 10.325
47.6531 10.3448
47.702 10.2885
47.7507 10.2773
47.7996 10.2703
47.8483 10.1783
47.8972 10.1887
47.9461 10.1662
47.9948 10.0665
48.0438 10.0403
48.0925 10.037
48.1415 9.96304
48.1902 9.94392
48.2392 9.88184
48.288 9.89578
48.337 9.84964
48.3858 9.79585
48.4348 9.75561
48.4837 9.76038
48.5327 9.72504
48.5815 9.65433
48.6306 9.67209
48.6795 9.55817
48.7285 9.56493
48.7774 9.54596
48.8265 9.51982
48.8754 9.44327
48.9245 9.40779
48.9734 9.3478
49.0226 9.36609
49.0715 9.3036
49.1206 9.27956
49.1696 9.2456
49.2188 9.18768
49.2679 9.16639
49.3169 9.1152
49.3661 9.09113
49.4151 9.05939
49.4643 9.04555
49.5134 8.9938
49.5626 8.93281
49.6117 8.9248
49.6609 8.90708
49.71 8.79693
49.7592 8.79822
49.8083 8.74888
49.8576 8.74954
49.9067 8.70615
49.956 8.70204
50.0052 8.65015
50.0545 8.62202
50.1036 8.57159
50.153 8.52694
50.2022 8.5273
50.2515 8.49089
50.3007 8.43662
50.3501 8.4027
50.3993 8.38755
50.4487 8.34638
50.498 8.34769
50.5474 8.28606
50.5966 8.27214
50.6461 8.22737
50.6955 8.21328
50.7448 8.17617
50.7943 8.18003
50.8436 8.12308
50.8931 8.05825
50.9424 8.05078
50.9919 8.00615
51.0413 7.97819
51.0908 7.95461
51.1402 7.90508
51.1897 7.88599
51.2391 7.83151
51.2887 7.78067
51.3381 7.77647
51.3877 7.75579
51.4371 7.70174
51.4867 7.69234
51.5362 7.64155
51.5858 7.61152
51.6353 7.60485
51.6849 7.57664
51.7344 7.51304
51.7841 7.53716
51.8336 7.44781
51.8833 7.43195
51.9328 7.4349
51.9826 7.35264
52.0323 7.34268
52.0818 7.27926
52.1316 7.25985
52.1812 7.2954
52.231 7.21589
52.2806 7.19136
52.3304 7.21048
52.38 7.12817
52.4298 7.08936
52.4794 7.06881
52.5293 7.03303
52.5789 7.04659
52.6288 7.0094
52.6785 6.94855
52.7284 6.96933
52.7781 6.89808
52.828 6.8991
52.8777 6.82963
52.9276 6.79421
52.9774 6.79652
53.0273 6.77394
53.0771 6.74209
53.1271 6.67808
53.1769 6.65438
53.2269 6.64962
53.2767 6.60289
53.3267 6.60091
53.3765 6.59098
53.4266 6.49989
53.4766 6.48488
53.5265 6.45486
53.5765 6.45609
53.6264 6.39903
53.6765 6.39919
53.7264 6.36545
53.7765 6.35322
53.8265 6.31363
53.8766 6.26185
53.9266 6.23052
53.9767 6.18162
54.0267 6.18801
54.0769 6.18797
54.1269 6.10725
54.1771 6.10366
54.2271 6.06346
54.2773 6.03038
54.3274 6.01943
54.3776 5.95116
54.4277 5.98001
54.478 5.93789
54.528 5.8623
54.5783 5.8964
54.6285 5.78657
54.6788 5.70648
54.7289 5.69776
54.7792 5.68834
54.8296 5.60186
54.8798 5.58495
54.9301 5.57197
54.9803 5.49296
55.0307 5.50299
55.0809 5.42632
55.1314 5.41985
55.1816 5.39273
55.232 5.36515
55.2823 5.337
55.3328 5.22411
55.383 5.16935
55.4335 5.13021
55.4838 5.01155
55.5344 5.02491
55.5847 4.99475
55.6352 5.00111
55.6856 4.93813
55.7361 4.8752