File: XRD/Ni3Fe_FD0829.xy
TT I
1.27165 7.63052
1.31627 6.55496
1.36089 6.54087
1.40551 5.87436
1.45013 6.4273
1.49476 6.4107
1.53938 5.57657
1.584 4.95846
1.62863 5.27379
1.67325 4.75515
1.71787 4.85421
1.7625 4.84526
1.80712 5.40379
1.85174 4.66281
1.89636 4.64541
1.94099 5.01378
1.98562 3.82493
2.03025 4.67932
2.07487 4.42639
2.11949 5.14348
2.16411 4.49189
2.20874 8.1035
2.25338 10.2356
2.298 5.78784
2.34263 5.31105
2.38725 6.07361
2.43188 6.0878
2.4765 7.05826
2.52115 7.20234
2.56577 8.31638
2.6104 8.40608
2.65503 8.38985
2.69965 8.97149
2.7443 7.96314
2.78893 8.1408
2.83356 8.49974
2.87818 8.80813
2.92281 8.87932
2.96744 9.73361
3.01209 10.6696
3.05672 11.0249
3.10135 11.8904
3.14599 13.1099
3.19062 14.7257
3.23527 15.2471
3.2799 15.4645
3.32454 16.7432
3.36917 17.67
3.4138 18.8161
3.45844 19.2073
3.50309 20.6797
3.54773 21.0742
3.59237 23.3175
3.637 44.8939
3.68164 34.0651
3.7263 25.2501
3.77094 25.8256
3.81558 26.292
3.86022 27.0378
3.90486 28.2665
3.9495 29.8145
3.99416 30.2439
4.0388 31.4684
4.08344 32.8443
4.12809 34.1735
4.17273 35.7236
4.21738 38.8034
4.26204 106.061
4.30669 93.0509
4.35133 43.7632
4.39598 43.4615
4.44063 47.7493
4.4853 52.2858
4.52995 58.8755
4.5746 58.9581
4.61925 53.3608
4.6639 55.1285
4.70855 57.7851
4.75322 61.7802
4.79788 68.9596
4.84253 68.595
4.88719 75.6802
4.93184 76.4611
4.97652 80.8758
5.02118 86.9701
5.06583 94.0859
5.11049 105.766
5.15515 155.082
5.19981 407.14
5.24449 2907.53
5.28916 12359.7
5.33382 2470.25
5.37848 195.585
5.42315 130.22
5.46783 120.829
5.5125 113.826
5.55716 101.217
5.60183 96.8826
5.6465 95.3254
5.69117 93.8311
5.73586 92.3801
5.78053 99.6178
5.8252 99.5192
5.86988 102.306
5.91455 95.1011
5.95924 103.887
6.00392 242.402
6.0486 976.224
6.09328 4554.13
6.13795 2962.78
6.18263 196.979
6.22733 88.8202
6.27201 79.4877
6.3167 81.7335
6.36138 73.3054
6.40606 69.5763
6.45075 69.9052
6.49545 64.8567
6.54014 62.7951
6.58483 62.6923
6.62952 62.8001
6.67421 70.3612
6.71892 83.0599
6.76361 60.7031
6.8083 59.2643
6.853 60.2678
6.89769 56.1726
6.94239 55.8964
6.98711 55.0209
7.03181 55.8245
7.07651 54.831
7.12121 54.4762
7.16591 56.1236
7.21063 55.1697
7.25533 59.5699
7.30004 90.322
7.34475 64.2729
7.38945 54.3456
7.43416 53.36
7.47889 53.1564
7.5236 53.5552
7.56831 54.2446
7.61303 54.8927
7.65774 55.2801
7.70247 57.113
7.74719 56.2392
7.79191 55.7762
7.83663 56.105
7.88135 57.1619
7.92607 57.9165
7.97081 59.2977
8.01553 60.4648
8.06026 62.3427
8.10498 63.3832
8.14971 70.6005
8.19446 70.4474
8.23919 68.9281
8.28392 71.0778
8.32865 73.3113
8.37339 77.9002
8.41812 83.1371
8.46288 101.046
8.50761 179.463
8.55235 383.761
8.59709 1218.52
8.64183 2181.39
8.68658 835.384
8.73134 147.219
8.77609 97.1321
8.82083 91.8606
8.86558 92.9608
8.91033 92.4805
8.9551 88.8939
8.99985 84.6734
9.04461 83.237
9.08936 84.2486
9.13412 82.6446
9.17888 81.5961
9.22365 81.4051
9.26841 81.4404
9.31318 85.041
9.35794 86.8948
9.4027 85.9508
9.44749 84.9712
9.49226 84.8828
9.53703 84.9558
9.5818 89.4992
9.62657 94.8135
9.67134 95.0482
9.71614 92.1317
9.76091 94.5136
9.80569 99.3762
9.85047 101.284
9.89525 109.999
9.94005 125.334
9.98484 190.999
10.0296 345.036
10.0744 841.15
10.1192 1834.09
10.164 1510.0
10.2088 349.9
10.2536 119.753
10.2984 107.768
10.3432 106.436
10.388 104.313
10.4328 121.693
10.4776 162.934
10.5224 298.002
10.5672 538.091
10.612 491.233
10.6568 182.491
10.7017 93.5865
10.7465 85.464
10.7913 82.6432
10.8361 80.4545
10.8809 78.3707
10.9257 77.1784
10.9706 77.5125
11.0154 74.8322
11.0602 72.1897
11.105 70.784
11.1499 71.3167
11.1947 72.6624
11.2395 69.1811
11.2844 67.4567
11.3292 66.2572
11.374 65.6046
11.4189 65.1569
11.4637 64.1551
11.5086 63.976
11.5534 64.4609
11.5983 63.3832
11.6431 62.8231
11.688 62.1816
11.7328 62.1933
11.7777 62.2673
11.8225 62.2966
11.8674 61.8878
11.9122 62.0845
11.9571 62.6062
12.002 64.0676
12.0468 68.5834
12.0917 78.2795
12.1366 103.846
12.1814 161.743
12.2263 214.171
12.2712 160.727
12.3161 85.3072
12.3609 65.7418
12.4058 63.361
12.4507 63.7167
12.4956 64.2161
12.5405 64.433
12.5853 64.4802
12.6302 67.1169
12.6751 69.5192
12.72 67.3476
12.7649 67.0108
12.8098 67.859
12.8547 69.3424
12.8996 71.0201
12.9445 72.5706
12.9894 74.2581
13.0343 75.5788
13.0792 79.6918
13.1242 92.374
13.1691 111.507
13.214 149.895
13.2589 249.729
13.3038 392.53
13.3487 413.237
13.3937 232.485
13.4386 117.262
13.4835 105.785
13.5285 120.328
13.5734 162.067
13.6183 259.425
13.6633 364.382
13.7082 326.233
13.7531 168.061
13.7981 93.4526
13.843 80.6892
13.888 78.9003
13.9329 76.4198
13.9779 75.0789
14.0228 73.6713
14.0678 72.6306
14.1127 71.8028
14.1577 71.187
14.2027 70.5205
14.2476 69.4861
14.2926 69.0001
14.3376 69.5411
14.3825 69.0876
14.4275 68.4991
14.4725 68.0508
14.5175 68.2985
14.5624 68.3797
14.6074 69.2418
14.6524 69.7725
14.6974 69.9969
14.7424 73.2781
14.7874 79.4334
14.8324 88.7231
14.8774 112.143
14.9224 160.433
14.9674 218.236
15.0124 218.68
15.0574 139.902
15.1024 85.4282
15.1474 71.3246
15.1924 69.519
15.2374 68.4883
15.2824 67.8742
15.3274 66.7533
15.3725 65.9139
15.4175 65.4006
15.4625 65.0662
15.5076 65.1318
15.5526 65.2051
15.5976 65.2907
15.6426 67.5962
15.6877 72.852
15.7327 79.4736
15.7778 95.7675
15.8228 130.419
15.8679 177.126
15.9129 195.926
15.958 146.141
16.003 88.8909
16.0481 65.4244
16.0931 62.0546
16.1382 60.6342
16.1833 59.3056
16.2283 58.0641
16.2734 57.5866
16.3185 57.2916
16.3636 57.0775
16.4086 56.1461
16.4537 55.4169
16.4988 54.8049
16.5439 54.6183
16.589 54.6495
16.6341 54.2869
16.6792 53.7658
16.7243 54.2527
16.7694 54.1907
16.8145 53.9782
16.8596 54.4667
16.9047 54.776
16.9498 54.9761
16.9949 54.846
17.04 55.3119
17.0851 56.608
17.1302 58.3057
17.1754 61.2116
17.2205 66.8746
17.2656 75.3562
17.3108 83.8488
17.3559 80.8987
17.401 68.4244
17.4462 60.8102
17.4913 58.8754
17.5365 58.5713
17.5815 58.736
17.6268 59.2684
17.6718 59.5143
17.7171 59.9867
17.7622 60.7988
17.8074 61.8125
17.8525 64.6567
17.8977 67.82
17.9428 73.1867
17.9881 82.8754
18.0331 101.838
18.0784 125.487
18.1237 141.396
18.1688 126.549
18.214 98.8415
18.2591 84.6741
18.3044 91.5894
18.3495 101.922
18.3948 104.915
18.4399 91.3405
18.4852 73.4816
18.5303 64.1368
18.5756 61.3799
18.6207 60.3316
18.666 59.5969
18.7112 58.9331
18.7565 58.2628
18.8016 57.9415
18.8469 57.5524
18.892 57.2044
18.9374 56.6076
18.9825 56.3134
19.0278 56.1278
19.073 56.3909
19.1183 56.6906
19.1635 57.0426
19.2088 58.5863
19.254 61.8579
19.2993 66.5979
19.3447 72.6706
19.3898 75.3188
19.4352 69.6925
19.4804 60.8043
19.5257 55.2969
19.5709 53.4789
19.6163 53.2144
19.6615 52.9597
19.7068 52.7207
19.752 52.8477
19.7974 53.2413
19.8426 54.0354
19.888 54.4509
19.9332 55.8981
19.9786 58.5936
20.0238 62.7001
20.0692 67.7857
20.1144 69.807
20.1598 66.7608
20.205 62.1826
20.2504 61.7941
20.2957 64.1409
20.3411 65.2412
20.3863 62.5594
20.4318 56.5476
20.477 52.4367
20.5224 50.5488
20.5677 50.094
20.6131 49.4399
20.6586 49.1146
20.7038 48.9339
20.7493 48.2636
20.7945 48.4146
20.84 48.3143
20.8853 48.1742
20.9307 48.1193
20.976 48.2771
21.0215 47.9998
21.0668 48.3314
21.1122 48.9341
21.1575 49.5779
21.203 50.4099
21.2483 51.0896
21.2938 50.7154
21.3391 49.3754
21.3846 48.2753
21.4299 47.7718
21.4754 47.873
21.5207 48.1669
21.5662 48.4872
21.6116 48.8801
21.6571 49.462
21.7024 50.3647
21.7479 52.2088
21.7933 55.349
21.8388 59.1937
21.8843 62.7877
21.9297 63.8623
21.9752 61.5415
22.0206 57.8432
22.0661 55.6032
22.1115 55.61
22.157 55.0457
22.2024 53.1813
22.248 50.3195
22.2933 49.1625
22.3389 48.5207
22.3843 48.3471
22.4299 48.0835
22.4753 48.2076
22.5208 48.0715
22.5662 48.0619
22.6118 48.2949
22.6572 48.6159
22.7028 48.7936
22.7483 49.2156
22.7939 50.058
22.8393 51.7448
22.8849 53.9701
22.9303 55.935
22.9759 57.5211
23.0214 56.4807
23.067 53.2045
23.1126 50.0239
23.1581 48.4977
23.2037 48.308
23.2492 48.4069
23.2948 48.2284
23.3403 48.5727
23.3859 49.3248
23.4314 50.3603
23.477 52.2264
23.5225 54.7411
23.5682 56.967
23.6137 57.3683
23.6593 54.1
23.7048 50.1686
23.7505 47.3942
23.796 45.993
23.8417 45.4476
23.8872 45.0944
23.9329 44.7245
23.9784 44.3922
24.0241 44.1781
24.0697 43.9337
24.1154 43.7012
24.1609 43.3589
24.2066 43.3735
24.2522 43.116
24.2979 42.8137
24.3434 42.8317
24.3892 42.6077
24.4349 42.6739
24.4805 42.4459
24.5262 42.7707
24.5718 42.519
24.6175 42.4537
24.6631 42.2764
24.7089 41.9718
24.7545 41.8929
24.8002 41.734
24.8458 41.7648
24.8916 41.7868
24.9372 41.7841
24.983 42.165
25.0286 42.4683
25.0744 42.9541
25.12 43.4121
25.1658 44.0533
25.2114 44.1858
25.2572 44.2918
25.3029 44.4156
25.3487 44.4426
25.3943 43.9467
25.4402 42.8103
25.4858 41.6886
25.5316 40.9112
25.5773 40.4485
25.6231 40.4738
25.669 40.0036
25.7147 39.9658
25.7605 39.9761
25.8062 39.9199
25.8521 40.1298
25.8977 40.0402
25.9436 40.5572
25.9893 40.6084
26.0352 41.0044
26.0809 41.2045
26.1268 41.279
26.1725 40.7863
26.2184 40.1031
26.2641 39.7478
26.31 39.5678
26.3557 39.6442
26.4017 39.6465
26.4474 40.0269
26.4933 40.3722
26.5391 40.8633
26.585 41.4867
26.6308 41.7279
26.6767 41.797
26.7225 41.4652
26.7684 40.876
26.8142 40.3116
26.8601 40.0113
26.9059 39.4897
26.9519 39.0631
26.9979 38.6913
27.0437 38.4695
27.0896 38.2371
27.1354 38.2505
27.1814 38.1021
27.2272 38.0903
27.2732 38.1209
27.3191 37.9479
27.3651 38.0579
27.4109 38.0322
27.4569 38.2042
27.5027 38.2145
27.5488 38.2344
27.5946 37.8835
27.6407 37.7139
27.6865 37.6124
27.7326 37.4608
27.7784 37.4649
27.8245 37.4749
27.8703 37.7144
27.9164 38.0858
27.9623 38.0509
28.0084 38.462
28.0543 38.6943
28.1003 38.4881
28.1462 38.4037
28.1923 37.8769
28.2384 37.499
28.2843 37.1521
28.3304 36.6356
28.3764 36.1427
28.4225 35.9177
28.4684 35.8131
28.5145 35.5869
28.5605 35.4533
28.6066 35.2754
28.6526 35.3334
28.6987 35.2629
28.7447 35.1294
28.7908 35.0279
28.8368 35.0892
28.8829 35.069
28.9289 35.0143
28.9751 34.8823
29.0211 34.4839
29.0673 34.2597
29.1133 34.1101
29.1595 34.0672
29.2055 33.9104
29.2517 33.9321
29.2977 33.9701
29.3439 33.9035
29.3899 33.9261
29.4361 33.7494
29.4824 33.5423
29.5284 33.3148
29.5746 32.9686
29.6207 32.6721
29.6669 32.7053
29.713 32.5866
29.7593 32.3996
29.8053 32.5112
29.8516 32.3814
29.8977 32.3546
29.9439 32.2577
29.99 32.1818
30.0363 32.1605
30.0824 32.1654
30.1287 32.0552
30.1748 32.0569
30.2211 32.0983
30.2673 31.9427
30.3136 32.0182
30.3597 31.8531
30.406 31.8506
30.4522 31.6633
30.4985 31.6144
30.5447 31.8008
30.591 31.8133
30.6372 31.8573
30.6835 31.8496
30.7297 31.8718
30.7761 31.8785
30.8224 31.5617
30.8686 31.4702
30.915 31.2736
30.9612 31.2085
31.0076 30.8693
31.0538 30.847
31.1002 30.7844
31.1464 30.5891
31.1928 30.5792
31.2391 30.5995
31.2855 30.5635
31.3317 30.4053
31.3781 30.6362
31.4244 30.5803
31.4708 30.517
31.5171 30.3861
31.5636 30.3941
31.6098 30.1134
31.6563 29.956
31.7026 29.8995
31.7491 29.8546
31.7953 29.8737
31.8418 29.782
31.8881 29.822
31.9346 29.7645
31.9809 29.7232
32.0275 29.605
32.074 29.521
32.1203 29.2698
32.1668 29.1418
32.2132 29.0291
32.2597 28.8921
32.306 28.7903
32.3526 28.7244
32.399 28.6443
32.4455 28.4609
32.4919 28.3037
32.5385 28.2852
32.5848 28.1158
32.6314 28.2538
32.6778 28.0729
32.7244 27.9856
32.7708 27.8162
32.8174 27.833
32.8638 27.6233
32.9104 27.6892
32.9569 27.7035
33.0035 27.4824
33.0499 27.5851
33.0966 27.4514
33.143 27.5799
33.1897 27.3996
33.2361 27.2209
33.2828 27.233
33.3293 27.0652
33.3759 27.148
33.4226 26.9663
33.4691 26.8328
33.5158 26.7129
33.5623 26.6242
33.609 26.5063
33.6555 26.3788
33.7022 26.2507
33.7487 26.1706
33.7954 26.2004
33.842 26.0489
33.8887 25.9892
33.9353 25.9725
33.982 25.8175
34.0286 25.7045
34.0753 25.7033
34.1219 25.6201
34.1687 25.5185
34.2152 25.4429
34.262 25.2771
34.3086 25.3114
34.3554 25.2384
34.402 25.0773
34.4488 24.8761
34.4954 24.9517
34.5422 24.9361
34.5889 24.83
34.6357 24.6777
34.6825 24.7095
34.7292 24.5407
34.776 24.3932
34.8227 24.3985
34.8695 24.3941
34.9162 24.2674
34.9631 24.1422
35.0098 24.1681
35.0566 24.0972
35.1033 23.9752
35.1502 24.0399
35.1969 23.9496
35.2438 23.8603
35.2906 23.7514
35.3375 23.7469
35.3842 23.7546
35.4311 23.7993
35.4779 23.6684
35.5248 23.5373
35.5716 23.5238
35.6185 23.5082
35.6653 23.3036
35.7123 23.2536
35.759 23.2313
35.806 23.0667
35.8528 23.0368
35.8998 22.9856
35.9468 22.894
35.9936 22.8517
36.0406 22.7796
36.0874 22.6917
36.1345 22.6118
36.1813 22.6015
36.2283 22.4617
36.2752 22.3956
36.3222 22.4433
36.3691 22.3406
36.4161 22.1764
36.463 22.199
36.5101 22.1777
36.557 22.089
36.6041 21.9302
36.651 21.9768
36.6981 21.8201
36.745 21.8187
36.7921 21.7061
36.839 21.5928
36.8861 21.5334
36.9331 21.4489
36.9802 21.3811
37.0272 21.3122
37.0743 21.269
37.1213 21.2027
37.1684 21.1697
37.2154 21.1154
37.2626 20.9308
37.3098 20.9364
37.3568 20.8601
37.404 20.899
37.451 20.7225
37.4982 20.7693
37.5452 20.6141
37.5924 20.5623
37.6395 20.5728
37.6867 20.4444
37.7337 20.347
37.781 20.2535
37.8281 20.2257
37.8753 20.1184
37.9224 20.1431
37.9697 20.034
38.0168 20.0009
38.064 19.8784
38.1111 19.8435
38.1584 19.7417
38.2056 19.7286
38.2529 19.6731
38.3 19.6312
38.3473 19.5776
38.3945 19.4236
38.4418 19.3906
38.489 19.3935
38.5363 19.2936
38.5837 19.2897
38.6309 19.2129
38.6782 19.0904
38.7254 19.036
38.7728 18.9964
38.82 18.9319
38.8674 18.9261
38.9146 18.7927
38.9621 18.6821
39.0093 18.7166
39.0567 18.6268
39.104 18.5554
39.1514 18.4967
39.1987 18.425
39.2461 18.399
39.2934 18.4367
39.3409 18.1641
39.3882 18.1585
39.4356 18.2326
39.483 18.0979
39.5304 18.0667
39.5778 18.0275
39.6253 17.8647
39.6726 17.8672
39.7201 17.8413
39.7675 17.7999
39.815 17.7592
39.8624 17.6585
39.9099 17.6017
39.9575 17.5544
40.0049 17.5296
40.0525 17.3949
40.0999 17.3799
40.1474 17.3616
40.1949 17.2557
40.2425 17.1365
40.2899 17.2011
40.3375 17.0718
40.385 17.0237
40.4326 16.9504
40.48 16.8979
40.5277 16.9071
40.5752 16.8077
40.6228 16.7343
40.6703 16.7024
40.718 16.6375
40.7655 16.6262
40.8132 16.568
40.8607 16.5513
40.9084 16.5008
40.9559 16.416
41.0036 16.3679
41.0512 16.3143
41.0989 16.2885
41.1465 16.1313
41.1942 16.1521
41.242 16.1238
41.2896 16.0608
41.3373 15.9461
41.3849 15.9402
41.4327 15.8676
41.4803 15.8325
41.5281 15.7744
41.5758 15.7162
41.6236 15.6565
41.6712 15.6199
41.7191 15.5619
41.7667 15.5054
41.8146 15.4616
41.8622 15.4403
41.9101 15.3687
41.9578 15.2657
42.0057 15.2411
42.0534 15.2051
42.1013 15.1608
42.149 15.0995
42.1969 15.0662
42.2446 14.972
42.2925 14.9487
42.3403 14.9106
42.3882 14.8435
42.436 14.8286
42.4839 14.73
42.5319 14.6652
42.5797 14.6217
42.6277 14.5776
42.6755 14.5954
42.7235 14.4047
42.7713 14.4306
42.8193 14.4258
42.8671 14.3645
42.9152 14.3279
42.963 14.2558
43.0111 14.1339
43.0589 14.1333
43.107 14.0559
43.1549 14.033
43.2029 13.9626
43.2508 14.0411
43.2989 13.8701
43.3468 13.8552
43.3949 13.8083
43.4429 13.8231
43.491 13.7486
43.5389 13.6665
43.5871 13.5896
43.635 13.5385
43.6832 13.541
43.7312 13.4538
43.7793 13.4549
43.8273 13.3588
43.8755 13.3258
43.9237 13.2992
43.9717 13.2694
44.0199 13.2075
44.068 13.186
44.1162 13.1009
44.1642 13.1014
44.2125 13.0638
44.2606 12.9661
44.3088 12.9127
44.3569 12.9064
44.4052 12.9066
44.4533 12.815
44.5016 12.737
44.5497 12.6751
44.598 12.7086
44.6461 12.6443
44.6945 12.6102
44.7426 12.5288
44.791 12.4389
44.8391 12.4264
44.8875 12.4438
44.9357 12.3722
44.984 12.3224
45.0322 12.3147
45.0806 12.241
45.1288 12.1675
45.1773 12.1017
45.2257 12.1398
45.2739 12.0318
45.3224 12.0067
45.3706 11.9847
45.4191 11.9359
45.4673 11.8769
45.5158 11.8614
45.5641 11.7781
45.6126 11.7685
45.6609 11.7104
45.7094 11.6455
45.7577 11.6499
45.8063 11.545
45.8546 11.5881
45.9031 11.5112
45.9515 11.4685
46.0001 11.4368
46.0484 11.3949
46.097 11.3488
46.1454 11.3209
46.194 11.2421
46.2424 11.2533
46.291 11.2317
46.3395 11.1963
46.3881 11.0983
46.4365 11.0934
46.4852 11.0148
46.5337 11.0053
46.5823 10.9603
46.631 10.8863
46.6795 10.8371
46.7282 10.8286
46.7767 10.789
46.8254 10.7409
46.8739 10.7119
46.9226 10.6414
46.9712 10.612
47.0199 10.6011
47.0685 10.5335
47.1173 10.489
47.1658 10.4903
47.2146 10.4016
47.2632 10.3871
47.312 10.3685
47.3606 10.2796
47.4095 10.2521
47.4581 10.2345
47.5069 10.1924
47.5556 10.1695
47.6044 10.1134
47.6531 10.0967
47.702 10.0484
47.7507 9.98758
47.7996 9.93032
47.8483 9.95336
47.8972 9.91717
47.9461 9.85484
47.9948 9.83057
48.0438 9.79312
48.0925 9.7697
48.1415 9.74196
48.1902 9.68677
48.2392 9.64716
48.288 9.65127
48.337 9.58132
48.3858 9.5406
48.4348 9.49635
48.4837 9.53466
48.5327 9.44699
48.5815 9.39557
48.6306 9.35083
48.6795 9.35046
48.7285 9.32268
48.7774 9.29327
48.8265 9.2315
48.8754 9.1595
48.9245 9.12566
48.9734 9.12036
49.0226 9.09277
49.0715 9.07606
49.1206 9.0401
49.1696 9.01278
49.2188 8.95963
49.2679 8.94632
49.3169 8.90542
49.3661 8.83535
49.4151 8.84298
49.4643 8.80214
49.5134 8.7862
49.5626 8.67403
49.6117 8.71725
49.6609 8.67595
49.71 8.60638
49.7592 8.61072
49.8083 8.54241
49.8576 8.53643
49.9067 8.46654
49.956 8.45902
50.0052 8.44255
50.0545 8.43986
50.1036 8.37607
50.153 8.3421
50.2022 8.31613
50.2515 8.23611
50.3007 8.22653
50.3501 8.20924
50.3993 8.20179
50.4487 8.13772
50.498 8.11334
50.5474 8.09005
50.5966 8.03571
50.6461 8.03215
50.6955 7.98677
50.7448 7.98219
50.7943 7.91776
50.8436 7.86484
50.8931 7.85467
50.9424 7.83682
50.9919 7.80762
51.0413 7.81153
51.0908 7.71897
51.1402 7.76482
51.1897 7.68839
51.2391 7.63981
51.2887 7.60835
51.3381 7.58599
51.3877 7.5692
51.4371 7.51859
51.4867 7.46111
51.5362 7.46612
51.5858 7.43986
51.6353 7.35704
51.6849 7.39977
51.7344 7.31941
51.7841 7.32203
51.8336 7.28002
51.8833 7.2182
51.9328 7.22213
51.9826 7.156
52.0323 7.16217
52.0818 7.16461
52.1316 7.09157
52.1812 7.11046
52.231 7.00851
52.2806 7.00685
52.3304 6.96161
52.38 6.96425
52.4298 6.91863
52.4794 6.88613
52.5293 6.84583
52.5789 6.82021
52.6288 6.85434
52.6785 6.78284
52.7284 6.77505
52.7781 6.75315
52.828 6.69132
52.8777 6.65847
52.9276 6.64699
52.9774 6.64137
53.0273 6.59823
53.0771 6.55493
53.1271 6.5345
53.1769 6.51363
53.2269 6.47454
53.2767 6.42531
53.3267 6.44095
53.3765 6.39838
53.4266 6.36929
53.4766 6.30799
53.5265 6.29291
53.5765 6.30711
53.6264 6.27581
53.6765 6.20365
53.7264 6.20865
53.7765 6.20567
53.8265 6.11145
53.8766 6.12377
53.9266 6.11446
53.9767 6.08244
54.0267 6.00994
54.0769 6.00979
54.1269 5.98613
54.1771 5.95645
54.2271 5.93595
54.2773 5.93134
54.3274 5.91066
54.3776 5.82502
54.4277 5.79743
54.478 5.7661
54.528 5.73707
54.5783 5.66084
54.6285 5.62265
54.6788 5.62574
54.7289 5.58148
54.7792 5.51431
54.8296 5.48397
54.8798 5.45421
54.9301 5.39882
54.9803 5.39199
55.0307 5.33155
55.0809 5.30046
55.1314 5.29591
55.1816 5.21948
55.232 5.17986
55.2823 5.1317
55.3328 5.15388
55.383 5.04848
55.4335 5.00304
55.4838 4.88355
55.5344 4.91585
55.5847 4.84203
55.6352 4.87216
55.6856 4.81094
55.7361 4.74238