File: XRD/Ni3Fe_FD0582.xy
TT I
1.27165 7.03874
1.31627 6.72361
1.36089 6.74245
1.40551 6.4895
1.45013 6.42592
1.49476 6.59219
1.53938 5.65025
1.584 5.62556
1.62863 5.25179
1.67325 5.05717
1.71787 4.86789
1.7625 4.90002
1.80712 4.60816
1.85174 4.74863
1.89636 4.71071
1.94099 4.76188
1.98562 4.5676
2.03025 4.29893
2.07487 4.6347
2.11949 5.15046
2.16411 4.38265
2.20874 9.11548
2.25338 14.054
2.298 5.28645
2.34263 5.06245
2.38725 4.96188
2.43188 5.70897
2.4765 6.80923
2.52115 6.39514
2.56577 7.15927
2.6104 7.9154
2.65503 7.46648
2.69965 7.61211
2.7443 8.27117
2.78893 7.84282
2.83356 8.56533
2.87818 8.91334
2.92281 9.0641
2.96744 9.07014
3.01209 10.2517
3.05672 11.072
3.10135 12.2343
3.14599 12.7398
3.19062 14.3005
3.23527 14.8254
3.2799 15.3996
3.32454 16.7773
3.36917 17.6673
3.4138 18.6409
3.45844 19.5998
3.50309 20.7818
3.54773 21.4874
3.59237 23.1486
3.637 55.179
3.68164 40.2917
3.7263 25.8652
3.77094 26.3016
3.81558 26.5504
3.86022 27.3086
3.90486 29.0506
3.9495 30.1002
3.99416 30.5739
4.0388 32.363
4.08344 33.5582
4.12809 34.2901
4.17273 36.214
4.21738 40.2568
4.26204 139.354
4.30669 121.367
4.35133 45.087
4.39598 43.9391
4.44063 49.812
4.4853 56.3542
4.52995 53.5217
4.5746 54.4251
4.61925 53.8944
4.6639 56.2452
4.70855 58.5913
4.75322 61.9135
4.79788 66.9018
4.84253 68.5123
4.88719 74.2391
4.93184 76.6003
4.97652 82.2453
5.02118 88.5885
5.06583 96.7755
5.11049 109.131
5.15515 161.675
5.19981 472.418
5.24449 3204.27
5.28916 12335.1
5.33382 2826.05
5.37848 200.253
5.42315 132.543
5.46783 118.201
5.5125 110.135
5.55716 103.34
5.60183 99.2975
5.6465 97.2953
5.69117 95.5933
5.73586 93.9282
5.78053 95.6987
5.8252 95.8101
5.86988 97.7093
5.91455 97.3204
5.95924 108.845
6.00392 269.962
6.0486 1107.25
6.09328 4446.85
6.13795 3335.08
6.18263 243.497
6.22733 93.3256
6.27201 82.1032
6.3167 88.1221
6.36138 75.9329
6.40606 69.574
6.45075 68.93
6.49545 65.8694
6.54014 63.6805
6.58483 62.7788
6.62952 62.7205
6.67421 76.6824
6.71892 99.7503
6.76361 63.4375
6.8083 58.9652
6.853 58.5925
6.89769 56.7895
6.94239 56.3364
6.98711 55.5
7.03181 55.7514
7.07651 55.1921
7.12121 54.6233
7.16591 55.6478
7.21063 55.6006
7.25533 62.5306
7.30004 112.235
7.34475 71.9733
7.38945 55.3916
7.43416 54.0489
7.47889 54.1834
7.5236 54.7024
7.56831 55.4591
7.61303 55.9198
7.65774 56.2091
7.70247 56.61
7.74719 56.6412
7.79191 56.8413
7.83663 57.1679
7.88135 58.1336
7.92607 59.2636
7.97081 60.151
8.01553 61.312
8.06026 62.7151
8.10498 64.3052
8.14971 70.4831
8.19446 71.084
8.23919 70.0292
8.28392 72.2542
8.32865 74.8605
8.37339 79.2523
8.41812 85.5161
8.46288 106.93
8.50761 196.028
8.55235 438.069
8.59709 1248.63
8.64183 2202.75
8.68658 929.808
8.73134 159.269
8.77609 99.969
8.82083 92.9788
8.86558 91.8979
8.91033 90.906
8.9551 89.5644
8.99985 85.6443
9.04461 84.2365
9.08936 84.2541
9.13412 83.0362
9.17888 82.6409
9.22365 82.8283
9.26841 82.5733
9.31318 84.258
9.35794 85.0222
9.4027 85.3384
9.44749 85.355
9.49226 85.438
9.53703 86.826
9.5818 89.1612
9.62657 92.7339
9.67134 95.8166
9.71614 93.7961
9.76091 95.4217
9.80569 98.6883
9.85047 101.532
9.89525 115.251
9.94005 132.264
9.98484 208.098
10.0296 380.769
10.0744 863.9
10.1192 1741.53
10.164 1567.65
10.2088 372.947
10.2536 125.638
10.2984 110.845
10.3432 110.3
10.388 106.359
10.4328 127.319
10.4776 171.594
10.5224 298.324
10.5672 519.876
10.612 489.271
10.6568 191.153
10.7017 95.3585
10.7465 87.0288
10.7913 83.8978
10.8361 81.6368
10.8809 79.3789
10.9257 78.3157
10.9706 78.204
11.0154 75.5041
11.0602 73.2344
11.105 71.9441
11.1499 73.1596
11.1947 76.0882
11.2395 71.4211
11.2844 68.9929
11.3292 67.381
11.374 66.4721
11.4189 65.8162
11.4637 65.2275
11.5086 65.0847
11.5534 66.027
11.5983 64.6723
11.6431 63.8351
11.688 63.0082
11.7328 63.4393
11.7777 63.3239
11.8225 62.6945
11.8674 62.7927
11.9122 63.2137
11.9571 63.5034
12.002 64.7739
12.0468 70.5232
12.0917 81.7532
12.1366 106.62
12.1814 155.673
12.2263 201.728
12.2712 162.865
12.3161 89.804
12.3609 67.8065
12.4058 64.5676
12.4507 64.6998
12.4956 64.579
12.5405 65.1556
12.5853 65.74
12.6302 69.5272
12.6751 72.6862
12.72 68.7993
12.7649 68.2103
12.8098 69.0341
12.8547 70.1619
12.8996 71.694
12.9445 73.444
12.9894 75.0122
13.0343 76.8337
13.0792 81.0861
13.1242 95.2597
13.1691 117.669
13.214 158.403
13.2589 252.917
13.3038 377.507
13.3487 422.826
13.3937 250.128
13.4386 121.578
13.4835 110.448
13.5285 126.459
13.5734 167.85
13.6183 254.511
13.6633 350.313
13.7082 330.551
13.7531 181.436
13.7981 96.8298
13.843 82.3973
13.888 80.002
13.9329 77.9284
13.9779 76.2892
14.0228 74.8904
14.0678 73.521
14.1127 72.8542
14.1577 72.4444
14.2027 71.6836
14.2476 70.835
14.2926 70.797
14.3376 71.0089
14.3825 70.2327
14.4275 69.1813
14.4725 69.3679
14.5175 69.4841
14.5624 69.6426
14.6074 70.6203
14.6524 71.2526
14.6974 71.3166
14.7424 74.7955
14.7874 82.0949
14.8324 92.3964
14.8774 116.173
14.9224 158.766
14.9674 209.501
15.0124 214.312
15.0574 143.526
15.1024 89.0993
15.1474 72.399
15.1924 70.7239
15.2374 70.1292
15.2824 69.5259
15.3274 68.0906
15.3725 67.3511
15.4175 66.7891
15.4625 66.3842
15.5076 66.5143
15.5526 66.5747
15.5976 66.6533
15.6426 69.2091
15.6877 74.9964
15.7327 82.5347
15.7778 99.1107
15.8228 131.059
15.8679 172.486
15.9129 192.816
15.958 150.116
16.003 93.2631
16.0481 66.9627
16.0931 63.8096
16.1382 62.2591
16.1833 60.8171
16.2283 59.057
16.2734 58.651
16.3185 58.4032
16.3636 58.2269
16.4086 57.3157
16.4537 56.5706
16.4988 55.981
16.5439 55.8104
16.589 55.2624
16.6341 55.3029
16.6792 54.7077
16.7243 55.0846
16.7694 55.0336
16.8145 55.0836
16.8596 55.2871
16.9047 56.1744
16.9498 56.3725
16.9949 55.7698
17.04 56.6965
17.0851 58.0445
17.1302 59.4203
17.1754 62.6618
17.2205 67.9401
17.2656 75.1638
17.3108 82.4357
17.3559 81.5297
17.401 70.9712
17.4462 62.3019
17.4913 59.6696
17.5365 59.5487
17.5815 59.6038
17.6268 60.0601
17.6718 60.852
17.7171 61.3688
17.7622 61.8273
17.8074 62.9635
17.8525 66.1816
17.8977 69.9627
17.9428 75.6502
17.9881 85.3545
18.0331 102.933
18.0784 123.887
18.1237 141.875
18.1688 132.496
18.214 103.099
18.2591 87.4792
18.3044 91.9233
18.3495 101.262
18.3948 106.338
18.4399 95.6803
18.4852 76.8593
18.5303 65.9651
18.5756 62.6942
18.6207 61.433
18.666 60.6981
18.7112 60.1217
18.7565 59.3815
18.8016 59.0142
18.8469 58.3828
18.892 57.9998
18.9374 57.8069
18.9825 57.393
19.0278 57.3809
19.073 57.6247
19.1183 58.0443
19.1635 58.494
19.2088 59.9756
19.254 62.9965
19.2993 67.6569
19.3447 72.9591
19.3898 76.3321
19.4352 72.2298
19.4804 62.9974
19.5257 56.6131
19.5709 54.6145
19.6163 54.0742
19.6615 53.941
19.7068 53.7017
19.752 53.8206
19.7974 54.284
19.8426 54.8313
19.888 55.6315
19.9332 56.913
19.9786 59.8626
20.0238 63.4907
20.0692 67.9476
20.1144 70.364
20.1598 68.2678
20.205 63.8173
20.2504 62.6625
20.2957 64.2389
20.3411 65.8009
20.3863 64.1851
20.4318 58.249
20.477 53.6233
20.5224 51.5819
20.5677 51.0229
20.6131 50.3755
20.6586 49.8496
20.7038 49.8076
20.7493 49.4272
20.7945 49.2824
20.84 49.1292
20.8853 48.886
20.9307 49.0722
20.976 49.1819
21.0215 48.947
21.0668 49.4664
21.1122 49.837
21.1575 50.4296
21.203 51.1895
21.2483 51.7648
21.2938 51.5865
21.3391 50.219
21.3846 49.288
21.4299 48.6693
21.4754 48.914
21.5207 48.9337
21.5662 49.4515
21.6116 49.8374
21.6571 50.3899
21.7024 51.4672
21.7479 53.5439
21.7933 56.3234
21.8388 59.8834
21.8843 63.359
21.9297 65.0378
21.9752 63.531
22.0206 59.8032
22.0661 56.8321
22.1115 56.1445
22.157 56.1753
22.2024 54.4775
22.248 51.5728
22.2933 49.9574
22.3389 49.3591
22.3843 49.2942
22.4299 49.0207
22.4753 49.1604
22.5208 48.8835
22.5662 48.846
22.6118 49.2715
22.6572 49.2545
22.7028 49.8041
22.7483 50.0433
22.7939 51.0063
22.8393 52.5319
22.8849 54.712
22.9303 56.6625
22.9759 58.2353
23.0214 57.4165
23.067 54.3934
23.1126 51.1757
23.1581 49.4819
23.2037 48.9964
23.2492 49.4216
23.2948 49.3177
23.3403 49.7946
23.3859 50.4696
23.4314 51.4527
23.477 53.4195
23.5225 55.4079
23.5682 57.3209
23.6137 58.1684
23.6593 55.7055
23.7048 51.5915
23.7505 48.4046
23.796 46.9221
23.8417 46.2977
23.8872 45.7607
23.9329 45.4286
23.9784 45.1587
24.0241 44.9669
24.0697 44.6242
24.1154 44.3289
24.1609 44.2761
24.2066 43.9838
24.2522 43.9954
24.2979 43.7292
24.3434 43.5018
24.3892 43.3546
24.4349 43.5244
24.4805 43.2509
24.5262 43.4401
24.5718 43.2254
24.6175 43.26
24.6631 43.1411
24.7089 42.6609
24.7545 42.6209
24.8002 42.5563
24.8458 42.5471
24.8916 42.4896
24.9372 42.6307
24.983 42.9061
25.0286 43.205
25.0744 43.8231
25.12 44.2429
25.1658 44.6155
25.2114 44.9827
25.2572 45.2904
25.3029 45.0257
25.3487 45.191
25.3943 44.9389
25.4402 43.6437
25.4858 42.5242
25.5316 41.657
25.5773 41.2364
25.6231 41.2756
25.669 40.8165
25.7147 40.8328
25.7605 40.7212
25.8062 40.7194
25.8521 40.9021
25.8977 40.978
25.9436 41.1367
25.9893 41.3621
26.0352 41.8853
26.0809 41.8007
26.1268 41.9908
26.1725 41.5993
26.2184 41.0703
26.2641 40.6113
26.31 40.37
26.3557 40.5388
26.4017 40.5852
26.4474 40.7993
26.4933 41.0426
26.5391 41.4532
26.585 41.9571
26.6308 42.4902
26.6767 42.4211
26.7225 42.3612
26.7684 41.6769
26.8142 41.0712
26.8601 40.7537
26.9059 40.2294
26.9519 39.8305
26.9979 39.4948
27.0437 39.2021
27.0896 38.9767
27.1354 39.0748
27.1814 38.9125
27.2272 38.795
27.2732 38.7662
27.3191 38.6292
27.3651 38.7991
27.4109 38.6447
27.4569 38.8462
27.5027 38.8864
27.5488 38.8434
27.5946 38.764
27.6407 38.4682
27.6865 38.3247
27.7326 38.1116
27.7784 38.19
27.8245 38.0491
27.8703 38.1588
27.9164 38.6153
27.9623 38.7422
28.0084 39.1176
28.0543 39.3997
28.1003 39.3546
28.1462 39.069
28.1923 38.6186
28.2384 38.0804
28.2843 37.8448
28.3304 37.3579
28.3764 36.8045
28.4225 36.5974
28.4684 36.6304
28.5145 36.1975
28.5605 36.1032
28.6066 35.8701
28.6526 35.8466
28.6987 35.8307
28.7447 35.785
28.7908 35.5882
28.8368 35.5948
28.8829 35.7014
28.9289 35.5634
28.9751 35.386
29.0211 35.0839
29.0673 34.8709
29.1133 34.8677
29.1595 34.6163
29.2055 34.6627
29.2517 34.5958
29.2977 34.4773
29.3439 34.5458
29.3899 34.4853
29.4361 34.424
29.4824 34.1728
29.5284 34.0261
29.5746 33.6768
29.6207 33.3325
29.6669 33.3139
29.713 33.1836
29.7593 33.106
29.8053 33.1042
29.8516 33.019
29.8977 32.9545
29.9439 32.8157
29.99 32.8206
30.0363 32.6278
30.0824 32.7942
30.1287 32.6135
30.1748 32.5959
30.2211 32.5856
30.2673 32.4149
30.3136 32.619
30.3597 32.4587
30.406 32.4161
30.4522 32.2103
30.4985 32.2669
30.5447 32.416
30.591 32.3108
30.6372 32.4808
30.6835 32.4374
30.7297 32.4851
30.7761 32.2627
30.8224 32.132
30.8686 32.0452
30.915 31.7487
30.9612 31.7487
31.0076 31.5337
31.0538 31.3216
31.1002 31.2072
31.1464 31.1418
31.1928 31.1973
31.2391 31.2079
31.2855 31.1848
31.3317 31.0181
31.3781 31.1266
31.4244 31.1715
31.4708 31.0394
31.5171 31.0304
31.5636 31.0041
31.6098 30.6527
31.6563 30.5566
31.7026 30.4688
31.7491 30.3416
31.7953 30.4268
31.8418 30.3144
31.8881 30.3663
31.9346 30.299
31.9809 30.2618
32.0275 30.1369
32.074 29.9885
32.1203 29.9031
32.1668 29.776
32.2132 29.5765
32.2597 29.5128
32.306 29.3419
32.3526 29.0687
32.399 29.1633
32.4455 28.9833
32.4919 28.9714
32.5385 28.7663
32.5848 28.7719
32.6314 28.6449
32.6778 28.6495
32.7244 28.3798
32.7708 28.2996
32.8174 28.3646
32.8638 28.1334
32.9104 28.2488
32.9569 28.3036
33.0035 28.0584
33.0499 28.0322
33.0966 28.0257
33.143 28.0561
33.1897 27.9707
33.2361 27.748
33.2828 27.7846
33.3293 27.6263
33.3759 27.4916
33.4226 27.4358
33.4691 27.325
33.5158 27.2575
33.5623 27.0594
33.609 26.8562
33.6555 26.8549
33.7022 26.7612
33.7487 26.625
33.7954 26.6669
33.842 26.5352
33.8887 26.4903
33.9353 26.4499
33.982 26.3353
34.0286 26.2156
34.0753 26.2307
34.1219 26.1219
34.1687 25.9116
34.2152 25.9022
34.262 25.7588
34.3086 25.7267
34.3554 25.6745
34.402 25.4689
34.4488 25.3757
34.4954 25.3815
34.5422 25.3909
34.5889 25.1619
34.6357 25.2291
34.6825 25.0526
34.7292 24.91
34.776 24.952
34.8227 24.8978
34.8695 24.7715
34.9162 24.839
34.9631 24.7095
35.0098 24.5634
35.0566 24.5599
35.1033 24.5121
35.1502 24.3747
35.1969 24.3632
35.2438 24.2923
35.2906 24.2716
35.3375 24.2749
35.3842 24.153
35.4311 24.1179
35.4779 24.1186
35.5248 23.9811
35.5716 23.9605
35.6185 23.8837
35.6653 23.7747
35.7123 23.6495
35.759 23.4711
35.806 23.4143
35.8528 23.3983
35.8998 23.3407
35.9468 23.2784
35.9936 23.2705
36.0406 23.2054
36.0874 23.1674
36.1345 23.0614
36.1813 22.9023
36.2283 22.8611
36.2752 22.8021
36.3222 22.7945
36.3691 22.7923
36.4161 22.5781
36.463 22.5327
36.5101 22.5684
36.557 22.432
36.6041 22.2778
36.651 22.3234
36.6981 22.302
36.745 22.1805
36.7921 22.1125
36.839 22.0489
36.8861 21.9009
36.9331 21.8861
36.9802 21.8136
37.0272 21.7436
37.0743 21.6163
37.1213 21.6295
37.1684 21.499
37.2154 21.4801
37.2626 21.3195
37.3098 21.3068
37.3568 21.2311
37.404 21.2144
37.451 21.1507
37.4982 21.0647
37.5452 21.0039
37.5924 20.917
37.6395 20.9628
37.6867 20.8025
37.7337 20.7433
37.781 20.6228
37.8281 20.6135
37.8753 20.5235
37.9224 20.5693
37.9697 20.3723
38.0168 20.3381
38.064 20.2666
38.1111 20.1866
38.1584 20.0995
38.2056 20.1
38.2529 20.029
38.3 19.9392
38.3473 19.9308
38.3945 19.8253
38.4418 19.79
38.489 19.7264
38.5363 19.6294
38.5837 19.5535
38.6309 19.4947
38.6782 19.4787
38.7254 19.2793
38.7728 19.3379
38.82 19.2259
38.8674 19.2787
38.9146 19.1566
38.9621 19.0402
39.0093 19.057
39.0567 18.9756
39.104 18.882
39.1514 18.8327
39.1987 18.8379
39.2461 18.7096
39.2934 18.6482
39.3409 18.5382
39.3882 18.5253
39.4356 18.4821
39.483 18.4389
39.5304 18.3544
39.5778 18.3352
39.6253 18.2469
39.6726 18.2113
39.7201 18.18
39.7675 18.0799
39.815 18.007
39.8624 17.9909
39.9099 17.9071
39.9575 17.8793
40.0049 17.797
40.0525 17.7109
40.0999 17.6787
40.1474 17.607
40.1949 17.5602
40.2425 17.5312
40.2899 17.5131
40.3375 17.4414
40.385 17.2924
40.4326 17.3046
40.48 17.2229
40.5277 17.2207
40.5752 17.1108
40.6228 17.017
40.6703 17.0292
40.718 16.9821
40.7655 16.9515
40.8132 16.8206
40.8607 16.8818
40.9084 16.8141
40.9559 16.7167
41.0036 16.6812
41.0512 16.5878
41.0989 16.5662
41.1465 16.4804
41.1942 16.494
41.242 16.3684
41.2896 16.3187
41.3373 16.2479
41.3849 16.1768
41.4327 16.131
41.4803 16.0139
41.5281 16.0675
41.5758 16.0076
41.6236 15.9487
41.6712 15.8806
41.7191 15.8378
41.7667 15.8098
41.8146 15.7749
41.8622 15.676
41.9101 15.6291
41.9578 15.5072
42.0057 15.4825
42.0534 15.4509
42.1013 15.4108
42.149 15.3314
42.1969 15.2894
42.2446 15.2237
42.2925 15.1676
42.3403 15.1557
42.3882 15.185
42.436 15.0666
42.4839 14.9642
42.5319 15.0131
42.5797 14.8359
42.6277 14.8313
42.6755 14.7968
42.7235 14.7581
42.7713 14.7556
42.8193 14.5886
42.8671 14.5454
42.9152 14.5713
42.963 14.5106
43.0111 14.4616
43.0589 14.3719
43.107 14.3214
43.1549 14.3469
43.2029 14.2297
43.2508 14.2482
43.2989 14.1536
43.3468 14.079
43.3949 14.0643
43.4429 13.9732
43.491 13.9517
43.5389 13.8942
43.5871 13.8385
43.635 13.787
43.6832 13.7802
43.7312 13.7277
43.7793 13.6796
43.8273 13.6826
43.8755 13.591
43.9237 13.5357
43.9717 13.5278
44.0199 13.4376
44.068 13.4017
44.1162 13.3513
44.1642 13.3265
44.2125 13.2313
44.2606 13.2377
44.3088 13.1668
44.3569 13.1003
44.4052 13.0574
44.4533 13.0325
44.5016 12.9754
44.5497 12.9536
44.598 12.8838
44.6461 12.8534
44.6945 12.8007
44.7426 12.73
44.791 12.6919
44.8391 12.6796
44.8875 12.6027
44.9357 12.5676
44.984 12.542
45.0322 12.4642
45.0806 12.4369
45.1288 12.3941
45.1773 12.3782
45.2257 12.3371
45.2739 12.2268
45.3224 12.2394
45.3706 12.2324
45.4191 12.1504
45.4673 12.1188
45.5158 12.0565
45.5641 11.9883
45.6126 11.971
45.6609 11.92
45.7094 11.9157
45.7577 11.8496
45.8063 11.7867
45.8546 11.7311
45.9031 11.7031
45.9515 11.6007
46.0001 11.6517
46.0484 11.6307
46.097 11.5249
46.1454 11.514
46.194 11.515
46.2424 11.3978
46.291 11.3713
46.3395 11.3477
46.3881 11.2724
46.4365 11.2577
46.4852 11.1998
46.5337 11.1786
46.5823 11.0909
46.631 11.0632
46.6795 11.0365
46.7282 11.0267
46.7767 11.0156
46.8254 10.8964
46.8739 10.9117
46.9226 10.8277
46.9712 10.7762
47.0199 10.769
47.0685 10.7405
47.1173 10.6698
47.1658 10.6557
47.2146 10.5901
47.2632 10.5584
47.312 10.5362
47.3606 10.4614
47.4095 10.4349
47.4581 10.3916
47.5069 10.3688
47.5556 10.3262
47.6044 10.2848
47.6531 10.2797
47.702 10.2315
47.7507 10.1691
47.7996 10.1581
47.8483 10.1062
47.8972 10.0842
47.9461 10.0326
47.9948 10.0275
48.0438 9.9631
48.0925 9.95772
48.1415 9.88186
48.1902 9.85774
48.2392 9.839
48.288 9.80787
48.337 9.77048
48.3858 9.75967
48.4348 9.6729
48.4837 9.65939
48.5327 9.60578
48.5815 9.55524
48.6306 9.57136
48.6795 9.52532
48.7285 9.47738
48.7774 9.45278
48.8265 9.398
48.8754 9.37341
48.9245 9.33013
48.9734 9.2867
49.0226 9.28812
49.0715 9.21458
49.1206 9.18489
49.1696 9.15974
49.2188 9.11125
49.2679 9.08659
49.3169 9.06348
49.3661 9.01142
49.4151 8.96785
49.4643 8.9532
49.5134 8.89079
49.5626 8.84829
49.6117 8.85205
49.6609 8.81994
49.71 8.77262
49.7592 8.74194
49.8083 8.69649
49.8576 8.68386
49.9067 8.65047
49.956 8.5936
50.0052 8.56547
50.0545 8.53608
50.1036 8.54562
50.153 8.45317
50.2022 8.46942
50.2515 8.41074
50.3007 8.3878
50.3501 8.32854
50.3993 8.29016
50.4487 8.28851
50.498 8.24361
50.5474 8.25706
50.5966 8.19952
50.6461 8.16249
50.6955 8.12951
50.7448 8.12862
50.7943 8.03798
50.8436 8.06182
50.8931 8.02462
50.9424 7.96409
50.9919 7.91617
51.0413 7.89557
51.0908 7.86738
51.1402 7.85629
51.1897 7.82353
51.2391 7.77726
51.2887 7.74846
51.3381 7.69225
51.3877 7.67894
51.4371 7.66801
51.4867 7.62971
51.5362 7.62112
51.5858 7.57436
51.6353 7.52786
51.6849 7.5219
51.7344 7.448
51.7841 7.4576
51.8336 7.41722
51.8833 7.38391
51.9328 7.33835
51.9826 7.31032
52.0323 7.30066
52.0818 7.25758
52.1316 7.20523
52.1812 7.20266
52.231 7.13214
52.2806 7.13322
52.3304 7.13208
52.38 7.07956
52.4298 7.06165
52.4794 7.0232
52.5293 6.98088
52.5789 6.99202
52.6288 6.95659
52.6785 6.90886
52.7284 6.85416
52.7781 6.83863
52.828 6.82423
52.8777 6.76146
52.9276 6.78781
52.9774 6.69438
53.0273 6.70962
53.0771 6.67429
53.1271 6.68278
53.1769 6.62842
53.2269 6.61327
53.2767 6.59617
53.3267 6.52402
53.3765 6.50032
53.4266 6.51775
53.4766 6.49864
53.5265 6.4227
53.5765 6.40191
53.6264 6.34986
53.6765 6.39237
53.7264 6.31661
53.7765 6.27258
53.8265 6.24241
53.8766 6.22177
53.9266 6.20407
53.9767 6.1615
54.0267 6.19151
54.0769 6.11686
54.1269 6.09168
54.1771 6.03571
54.2271 6.04057
54.2773 5.97177
54.3274 6.00147
54.3776 5.94198
54.4277 5.88742
54.478 5.8569
54.528 5.84507
54.5783 5.81404
54.6285 5.79255
54.6788 5.67148
54.7289 5.69801
54.7792 5.65511
54.8296 5.56051
54.8798 5.52152
54.9301 5.52569
54.9803 5.4545
55.0307 5.44669
55.0809 5.38447
55.1314 5.38149
55.1816 5.27438
55.232 5.31945
55.2823 5.24729
55.3328 5.18524
55.383 5.09885
55.4335 5.12329
55.4838 5.03306
55.5344 5.02649
55.5847 4.92581
55.6352 4.92615
55.6856 4.89511
55.7361 4.84617