File: XRD/Ni3Fe_FD0790.xy
TT I
1.27165 7.37732
1.31627 6.58511
1.36089 7.04129
1.40551 6.37908
1.45013 6.13261
1.49476 6.05654
1.53938 5.1891
1.584 5.54473
1.62863 5.34413
1.67325 5.04421
1.71787 5.4127
1.7625 4.81138
1.80712 4.71501
1.85174 4.79764
1.89636 4.84968
1.94099 5.04041
1.98562 5.23439
2.03025 4.22282
2.07487 4.59961
2.11949 4.78789
2.16411 5.08136
2.20874 10.5673
2.25338 16.3001
2.298 6.24687
2.34263 5.53607
2.38725 6.3416
2.43188 6.12196
2.4765 7.34466
2.52115 7.6299
2.56577 7.81073
2.6104 8.50334
2.65503 8.25915
2.69965 8.60525
2.7443 8.13353
2.78893 8.11233
2.83356 8.62176
2.87818 8.96527
2.92281 9.2331
2.96744 9.56739
3.01209 10.324
3.05672 11.0323
3.10135 12.3311
3.14599 13.5357
3.19062 14.2542
3.23527 15.1587
3.2799 15.9941
3.32454 16.5422
3.36917 17.3654
3.4138 18.2989
3.45844 19.3501
3.50309 20.5569
3.54773 21.3181
3.59237 23.829
3.637 68.457
3.68164 45.9147
3.7263 25.829
3.77094 25.5211
3.81558 26.7008
3.86022 27.7498
3.90486 28.7795
3.9495 29.7899
3.99416 30.6677
4.0388 31.8351
4.08344 33.4858
4.12809 34.5103
4.17273 36.0187
4.21738 40.3767
4.26204 176.394
4.30669 151.598
4.35133 45.5186
4.39598 43.862
4.44063 50.9502
4.4853 58.7005
4.52995 51.2264
4.5746 52.6314
4.61925 53.1325
4.6639 55.108
4.70855 58.0441
4.75322 60.6096
4.79788 64.4337
4.84253 67.4073
4.88719 71.8678
4.93184 75.1095
4.97652 80.4213
5.02118 86.4298
5.06583 93.7335
5.11049 104.551
5.15515 159.421
5.19981 361.152
5.24449 2811.56
5.28916 12410.4
5.33382 2517.0
5.37848 178.29
5.42315 125.584
5.46783 112.842
5.5125 105.795
5.55716 101.026
5.60183 97.4703
5.6465 95.7699
5.69117 93.9005
5.73586 91.9123
5.78053 91.9405
5.8252 92.0448
5.86988 92.9434
5.91455 93.8964
5.95924 102.888
6.00392 218.484
6.0486 971.421
6.09328 4558.07
6.13795 3003.84
6.18263 199.963
6.22733 89.1233
6.27201 80.1208
6.3167 91.2658
6.36138 75.925
6.40606 68.3995
6.45075 67.0653
6.49545 64.5716
6.54014 62.9575
6.58483 61.9357
6.62952 61.9431
6.67421 82.4705
6.71892 111.952
6.76361 64.5398
6.8083 58.0196
6.853 57.284
6.89769 56.3457
6.94239 55.6546
6.98711 54.9402
7.03181 55.0403
7.07651 54.1349
7.12121 54.3392
7.16591 54.4755
7.21063 55.0155
7.25533 65.0644
7.30004 133.763
7.34475 77.0803
7.38945 55.2209
7.43416 53.6136
7.47889 53.2999
7.5236 53.9785
7.56831 54.7226
7.61303 55.728
7.65774 55.9988
7.70247 56.0163
7.74719 55.9316
7.79191 56.1938
7.83663 56.2775
7.88135 57.1114
7.92607 58.298
7.97081 59.3354
8.01553 60.5427
8.06026 61.9845
8.10498 63.5476
8.14971 71.0828
8.19446 70.1646
8.23919 69.1355
8.28392 71.1673
8.32865 73.4607
8.37339 77.7315
8.41812 83.9387
8.46288 106.5
8.50761 171.445
8.55235 385.631
8.59709 1204.11
8.64183 2187.02
8.68658 841.268
8.73134 149.065
8.77609 97.1612
8.82083 91.1566
8.86558 89.1878
8.91033 89.284
8.9551 88.813
8.99985 84.4104
9.04461 83.1461
9.08936 82.5827
9.13412 81.1955
9.17888 81.3596
9.22365 82.0968
9.26841 81.3519
9.31318 82.3513
9.35794 82.7972
9.4027 83.0809
9.44749 83.2704
9.49226 83.8599
9.53703 84.883
9.5818 87.2586
9.62657 91.6517
9.67134 94.8473
9.71614 92.5491
9.76091 93.3777
9.80569 96.4287
9.85047 99.2476
9.89525 116.466
9.94005 129.313
9.98484 183.265
10.0296 345.046
10.0744 837.792
10.1192 1786.1
10.164 1499.36
10.2088 344.657
10.2536 119.847
10.2984 109.739
10.3432 109.571
10.388 103.377
10.4328 119.568
10.4776 161.457
10.5224 292.053
10.5672 538.517
10.612 483.226
10.6568 181.483
10.7017 93.5777
10.7465 85.0484
10.7913 82.3794
10.8361 80.1081
10.8809 78.2136
10.9257 77.1904
10.9706 77.1676
11.0154 73.6725
11.0602 71.7969
11.105 71.1365
11.1499 73.5168
11.1947 77.736
11.2395 71.6516
11.2844 68.8737
11.3292 66.5472
11.374 65.4424
11.4189 65.0544
11.4637 64.0471
11.5086 64.3014
11.5534 66.1039
11.5983 64.0365
11.6431 62.984
11.688 62.2238
11.7328 62.1056
11.7777 62.2282
11.8225 61.8905
11.8674 61.7643
11.9122 61.9482
11.9571 62.5165
12.002 63.3847
12.0468 67.6757
12.0917 78.215
12.1366 102.846
12.1814 157.402
12.2263 214.502
12.2712 164.59
12.3161 87.6323
12.3609 67.7553
12.4058 63.5895
12.4507 63.4047
12.4956 63.7263
12.5405 63.9527
12.5853 64.5991
12.6302 69.4469
12.6751 73.4693
12.72 68.3388
12.7649 66.9502
12.8098 67.8037
12.8547 68.9152
12.8996 70.5272
12.9445 71.7893
12.9894 73.48
13.0343 75.1921
13.0792 79.004
13.1242 89.1451
13.1691 111.515
13.214 148.955
13.2589 246.369
13.3038 387.384
13.3487 420.921
13.3937 239.177
13.4386 117.274
13.4835 105.013
13.5285 120.174
13.5734 159.526
13.6183 257.751
13.6633 364.628
13.7082 327.406
13.7531 165.607
13.7981 92.1464
13.843 80.261
13.888 78.7708
13.9329 76.3181
13.9779 74.9169
14.0228 73.6915
14.0678 72.4007
14.1127 71.7433
14.1577 71.3499
14.2027 70.556
14.2476 69.5897
14.2926 69.683
14.3376 70.2703
14.3825 69.1399
14.4275 67.9983
14.4725 68.0367
14.5175 68.3795
14.5624 68.4537
14.6074 69.8565
14.6524 70.2844
14.6974 69.8806
14.7424 72.0636
14.7874 79.2461
14.8324 88.5089
14.8774 111.391
14.9224 158.045
14.9674 215.552
15.0124 220.024
15.0574 139.843
15.1024 85.2542
15.1474 71.1667
15.1924 69.358
15.2374 69.5227
15.2824 68.7605
15.3274 66.8619
15.3725 65.8689
15.4175 65.7237
15.4625 65.4044
15.5076 65.3962
15.5526 65.6654
15.5976 65.2855
15.6426 67.0534
15.6877 72.1331
15.7327 79.084
15.7778 94.6238
15.8228 128.908
15.8679 176.038
15.9129 195.786
15.958 146.691
16.003 89.1477
16.0481 65.68
16.0931 62.9017
16.1382 61.2492
16.1833 59.593
16.2283 58.2741
16.2734 57.5959
16.3185 57.7409
16.3636 57.9419
16.4086 56.7964
16.4537 55.609
16.4988 54.7199
16.5439 54.9574
16.589 54.3924
16.6341 54.3937
16.6792 53.9371
16.7243 54.3335
16.7694 54.3205
16.8145 54.3434
16.8596 54.5138
16.9047 55.5237
16.9498 55.707
16.9949 54.7632
17.04 55.2397
17.0851 56.488
17.1302 58.3023
17.1754 61.2964
17.2205 66.9049
17.2656 75.3194
17.3108 83.3346
17.3559 81.4419
17.401 68.6721
17.4462 60.8443
17.4913 58.3707
17.5365 58.3341
17.5815 58.4201
17.6268 58.9806
17.6718 59.6369
17.7171 60.1961
17.7622 60.8857
17.8074 61.7072
17.8525 64.0497
17.8977 67.7681
17.9428 72.9978
17.9881 82.4761
18.0331 101.392
18.0784 125.209
18.1237 141.141
18.1688 126.172
18.214 98.2321
18.2591 84.3881
18.3044 91.0582
18.3495 101.452
18.3948 105.708
18.4399 92.419
18.4852 74.3333
18.5303 64.3167
18.5756 61.4589
18.6207 60.4774
18.666 59.6355
18.7112 58.9862
18.7565 58.2619
18.8016 58.014
18.8469 57.5356
18.892 57.1278
18.9374 56.3927
18.9825 56.2841
19.0278 56.2482
19.073 56.3033
19.1183 56.8568
19.1635 57.5439
19.2088 58.846
19.254 61.729
19.2993 66.5051
19.3447 72.8196
19.3898 75.9984
19.4352 69.7668
19.4804 61.1366
19.5257 55.3791
19.5709 53.5817
19.6163 53.0452
19.6615 53.2124
19.7068 52.7256
19.752 52.8357
19.7974 53.1452
19.8426 54.047
19.888 54.4184
19.9332 55.9201
19.9786 58.6644
20.0238 62.296
20.0692 67.6991
20.1144 69.4208
20.1598 66.7984
20.205 62.1578
20.2504 61.6416
20.2957 63.7562
20.3411 65.1969
20.3863 62.7494
20.4318 56.7482
20.477 52.6045
20.5224 50.7671
20.5677 50.0751
20.6131 49.6864
20.6586 49.1193
20.7038 49.0614
20.7493 48.4837
20.7945 48.4161
20.84 48.417
20.8853 48.0931
20.9307 47.996
20.976 48.3021
21.0215 48.1693
21.0668 48.4789
21.1122 48.9699
21.1575 49.6202
21.203 50.5479
21.2483 51.1832
21.2938 50.9836
21.3391 49.5302
21.3846 48.4403
21.4299 47.7657
21.4754 47.825
21.5207 47.8704
21.5662 48.4533
21.6116 48.8944
21.6571 49.3764
21.7024 50.2785
21.7479 52.3112
21.7933 55.3058
21.8388 59.2637
21.8843 63.0045
21.9297 64.3476
21.9752 61.8099
22.0206 58.099
22.0661 55.8356
22.1115 55.7795
22.157 55.1947
22.2024 53.151
22.248 50.7113
22.2933 49.0974
22.3389 48.5197
22.3843 48.4242
22.4299 48.2433
22.4753 48.3371
22.5208 48.2447
22.5662 47.971
22.6118 48.2467
22.6572 48.4161
22.7028 48.6722
22.7483 49.1859
22.7939 50.1391
22.8393 51.5388
22.8849 53.9927
22.9303 56.2192
22.9759 57.7058
23.0214 56.4411
23.067 53.2312
23.1126 50.1415
23.1581 48.6117
23.2037 48.327
23.2492 48.3983
23.2948 48.2923
23.3403 48.6541
23.3859 49.4781
23.4314 50.343
23.477 52.3986
23.5225 54.8241
23.5682 56.8803
23.6137 57.5273
23.6593 54.4119
23.7048 50.311
23.7505 47.4791
23.796 45.9783
23.8417 45.4741
23.8872 45.0866
23.9329 44.778
23.9784 44.4206
24.0241 44.1766
24.0697 44.0246
24.1154 43.5924
24.1609 43.4633
24.2066 43.4386
24.2522 43.2674
24.2979 42.8595
24.3434 42.901
24.3892 42.8347
24.4349 42.6719
24.4805 42.6044
24.5262 42.7435
24.5718 42.5304
24.6175 42.515
24.6631 42.3651
24.7089 42.0928
24.7545 41.7781
24.8002 41.7938
24.8458 41.7754
24.8916 41.654
24.9372 41.7908
24.983 42.127
25.0286 42.5575
25.0744 42.9163
25.12 43.3471
25.1658 44.0934
25.2114 44.0922
25.2572 44.2517
25.3029 44.3666
25.3487 44.5032
25.3943 44.0465
25.4402 42.8587
25.4858 41.8944
25.5316 40.8608
25.5773 40.5089
25.6231 40.3807
25.669 40.0631
25.7147 40.1471
25.7605 40.1533
25.8062 40.2024
25.8521 40.3591
25.8977 40.2136
25.9436 40.5673
25.9893 40.6632
26.0352 41.1412
26.0809 41.1671
26.1268 41.2868
26.1725 40.8545
26.2184 40.2677
26.2641 39.877
26.31 39.5471
26.3557 39.6693
26.4017 39.7014
26.4474 40.048
26.4933 40.3791
26.5391 40.8612
26.585 41.3389
26.6308 41.761
26.6767 41.8504
26.7225 41.5545
26.7684 40.933
26.8142 40.3025
26.8601 39.9664
26.9059 39.6412
26.9519 39.0336
26.9979 38.8073
27.0437 38.62
27.0896 38.3434
27.1354 38.2556
27.1814 38.3294
27.2272 38.2009
27.2732 38.1808
27.3191 37.9561
27.3651 38.096
27.4109 38.1294
27.4569 38.0772
27.5027 38.1983
27.5488 38.0787
27.5946 38.0667
27.6407 37.6732
27.6865 37.6414
27.7326 37.4406
27.7784 37.674
27.8245 37.4306
27.8703 37.6607
27.9164 37.9335
27.9623 38.1557
28.0084 38.3487
28.0543 38.8473
28.1003 38.6218
28.1462 38.4222
28.1923 38.0494
28.2384 37.4233
28.2843 37.1434
28.3304 36.6565
28.3764 36.2348
28.4225 35.9809
28.4684 35.8675
28.5145 35.5078
28.5605 35.5582
28.6066 35.3382
28.6526 35.2378
28.6987 35.3315
28.7447 35.2621
28.7908 35.1363
28.8368 35.0298
28.8829 35.2243
28.9289 34.968
28.9751 34.8331
29.0211 34.5991
29.0673 34.2843
29.1133 34.2011
29.1595 33.9708
29.2055 33.956
29.2517 34.0367
29.2977 33.8954
29.3439 34.0036
29.3899 33.9925
29.4361 33.7456
29.4824 33.6583
29.5284 33.3496
29.5746 33.0347
29.6207 32.8591
29.6669 32.7495
29.713 32.6352
29.7593 32.5998
29.8053 32.5405
29.8516 32.4573
29.8977 32.5351
29.9439 32.2242
29.99 32.2677
30.0363 32.1885
30.0824 32.1902
30.1287 32.1564
30.1748 32.1575
30.2211 32.2242
30.2673 31.9453
30.3136 32.0091
30.3597 31.9022
30.406 31.8027
30.4522 31.7543
30.4985 31.7772
30.5447 31.9386
30.591 31.852
30.6372 31.7235
30.6835 31.8675
30.7297 31.9996
30.7761 31.7847
30.8224 31.6585
30.8686 31.5716
30.915 31.2505
30.9612 31.1725
31.0076 30.923
31.0538 30.7812
31.1002 30.8017
31.1464 30.6238
31.1928 30.5564
31.2391 30.5598
31.2855 30.5935
31.3317 30.4698
31.3781 30.5833
31.4244 30.578
31.4708 30.5025
31.5171 30.5092
31.5636 30.3884
31.6098 30.13
31.6563 30.06
31.7026 29.9003
31.7491 29.7888
31.7953 29.8874
31.8418 29.8909
31.8881 29.8354
31.9346 29.8905
31.9809 29.6064
32.0275 29.5406
32.074 29.4651
32.1203 29.2982
32.1668 29.2295
32.2132 29.1137
32.2597 28.9349
32.306 28.8037
32.3526 28.7479
32.399 28.5251
32.4455 28.5845
32.4919 28.4734
32.5385 28.381
32.5848 28.1754
32.6314 28.1984
32.6778 28.1472
32.7244 27.9703
32.7708 27.7865
32.8174 27.834
32.8638 27.7403
32.9104 27.7597
32.9569 27.7333
33.0035 27.6039
33.0499 27.5217
33.0966 27.569
33.143 27.5157
33.1897 27.4335
33.2361 27.2774
33.2828 27.2557
33.3293 27.0755
33.3759 27.0394
33.4226 27.0146
33.4691 26.7729
33.5158 26.7462
33.5623 26.5682
33.609 26.5354
33.6555 26.3758
33.7022 26.3469
33.7487 26.1918
33.7954 26.2332
33.842 26.0677
33.8887 26.0275
33.9353 26.0435
33.982 25.8286
34.0286 25.7913
34.0753 25.7275
34.1219 25.638
34.1687 25.5808
34.2152 25.4783
34.262 25.3614
34.3086 25.2617
34.3554 25.274
34.402 25.1359
34.4488 25.0248
34.4954 24.9867
34.5422 24.8587
34.5889 24.7806
34.6357 24.709
34.6825 24.6177
34.7292 24.6614
34.776 24.4333
34.8227 24.447
34.8695 24.3898
34.9162 24.368
34.9631 24.2227
35.0098 24.1888
35.0566 24.0898
35.1033 24.0381
35.1502 23.9602
35.1969 23.9822
35.2438 23.8932
35.2906 23.8924
35.3375 23.7964
35.3842 23.7584
35.4311 23.8142
35.4779 23.7473
35.5248 23.688
35.5716 23.5638
35.6185 23.5095
35.6653 23.2985
35.7123 23.3546
35.759 23.1993
35.806 23.1473
35.8528 22.987
35.8998 22.8556
35.9468 22.8381
35.9936 22.8909
36.0406 22.7239
36.0874 22.7843
36.1345 22.6671
36.1813 22.5288
36.2283 22.403
36.2752 22.362
36.3222 22.4835
36.3691 22.2641
36.4161 22.2143
36.463 22.1666
36.5101 22.1887
36.557 22.1388
36.6041 22.0054
36.651 21.9588
36.6981 21.8776
36.745 21.7661
36.7921 21.6527
36.839 21.6067
36.8861 21.6294
36.9331 21.505
36.9802 21.4467
37.0272 21.3875
37.0743 21.2518
37.1213 21.2207
37.1684 21.072
37.2154 21.1191
37.2626 21.0418
37.3098 21.0315
37.3568 20.922
37.404 20.8952
37.451 20.7738
37.4982 20.7898
37.5452 20.6261
37.5924 20.6406
37.6395 20.604
37.6867 20.5263
37.7337 20.4241
37.781 20.2787
37.8281 20.3003
37.8753 20.2112
37.9224 20.1585
37.9697 20.1548
38.0168 19.9791
38.064 19.968
38.1111 19.806
38.1584 19.813
38.2056 19.7533
38.2529 19.6491
38.3 19.5771
38.3473 19.6149
38.3945 19.4521
38.4418 19.4183
38.489 19.3638
38.5363 19.38
38.5837 19.251
38.6309 19.2114
38.6782 19.1186
38.7254 19.0621
38.7728 18.9492
38.82 18.9518
38.8674 18.8313
38.9146 18.8693
38.9621 18.6419
39.0093 18.7628
39.0567 18.7031
39.104 18.6119
39.1514 18.5411
39.1987 18.4839
39.2461 18.4714
39.2934 18.33
39.3409 18.2806
39.3882 18.2576
39.4356 18.1354
39.483 18.1488
39.5304 18.084
39.5778 18.0277
39.6253 17.947
39.6726 17.8816
39.7201 17.9021
39.7675 17.8348
39.815 17.7547
39.8624 17.6229
39.9099 17.6602
39.9575 17.523
40.0049 17.4826
40.0525 17.4535
40.0999 17.362
40.1474 17.3762
40.1949 17.3162
40.2425 17.2334
40.2899 17.2006
40.3375 17.1281
40.385 17.0384
40.4326 17.0222
40.48 16.9236
40.5277 16.9228
40.5752 16.8354
40.6228 16.7913
40.6703 16.7821
40.718 16.7586
40.7655 16.6949
40.8132 16.5042
40.8607 16.5954
40.9084 16.4822
40.9559 16.411
41.0036 16.4123
41.0512 16.3723
41.0989 16.2798
41.1465 16.2423
41.1942 16.188
41.242 16.0565
41.2896 16.098
41.3373 16.0125
41.3849 15.9292
41.4327 15.9061
41.4803 15.787
41.5281 15.8123
41.5758 15.7596
41.6236 15.6682
41.6712 15.5802
41.7191 15.5688
41.7667 15.4986
41.8146 15.5224
41.8622 15.4694
41.9101 15.4097
41.9578 15.2508
42.0057 15.2974
42.0534 15.1649
42.1013 15.1586
42.149 15.0519
42.1969 15.1299
42.2446 14.9754
42.2925 14.9544
42.3403 14.9361
42.3882 14.8558
42.436 14.8497
42.4839 14.7658
42.5319 14.7368
42.5797 14.6875
42.6277 14.6335
42.6755 14.5315
42.7235 14.4949
42.7713 14.4329
42.8193 14.3763
42.8671 14.3498
42.9152 14.3013
42.963 14.2873
43.0111 14.1985
43.0589 14.1446
43.107 14.0983
43.1549 14.0488
43.2029 14.0005
43.2508 13.9993
43.2989 13.9326
43.3468 13.9053
43.3949 13.8715
43.4429 13.7959
43.491 13.7456
43.5389 13.7016
43.5871 13.636
43.635 13.5817
43.6832 13.5427
43.7312 13.5027
43.7793 13.4392
43.8273 13.4332
43.8755 13.3841
43.9237 13.3452
43.9717 13.3108
44.0199 13.2075
44.068 13.2219
44.1162 13.1059
44.1642 13.1072
44.2125 13.0484
44.2606 13.0122
44.3088 12.9192
44.3569 12.9252
44.4052 12.9042
44.4533 12.8246
44.5016 12.7795
44.5497 12.7583
44.598 12.7036
44.6461 12.639
44.6945 12.6406
44.7426 12.6038
44.791 12.4942
44.8391 12.5081
44.8875 12.4331
44.9357 12.4064
44.984 12.3407
45.0322 12.2805
45.0806 12.1976
45.1288 12.1938
45.1773 12.1449
45.2257 12.1632
45.2739 12.0488
45.3224 12.0686
45.3706 11.9824
45.4191 11.9213
45.4673 11.9081
45.5158 11.8827
45.5641 11.8006
45.6126 11.7849
45.6609 11.7034
45.7094 11.6552
45.7577 11.6696
45.8063 11.5752
45.8546 11.5835
45.9031 11.5197
45.9515 11.5079
46.0001 11.4004
46.0484 11.4176
46.097 11.3624
46.1454 11.2904
46.194 11.3012
46.2424 11.2296
46.291 11.1779
46.3395 11.1796
46.3881 11.1037
46.4365 11.1226
46.4852 11.0248
46.5337 11.0025
46.5823 10.9799
46.631 10.8886
46.6795 10.9178
46.7282 10.8361
46.7767 10.8053
46.8254 10.7356
46.8739 10.677
46.9226 10.7246
46.9712 10.6507
47.0199 10.5946
47.0685 10.5233
47.1173 10.537
47.1658 10.5038
47.2146 10.4348
47.2632 10.4235
47.312 10.3917
47.3606 10.3089
47.4095 10.2812
47.4581 10.2487
47.5069 10.2248
47.5556 10.1702
47.6044 10.1138
47.6531 10.1204
47.702 10.0575
47.7507 10.0622
47.7996 9.9763
47.8483 9.97732
47.8972 9.96308
47.9461 9.89035
47.9948 9.80979
48.0438 9.81246
48.0925 9.83068
48.1415 9.75144
48.1902 9.73089
48.2392 9.68756
48.288 9.6447
48.337 9.61759
48.3858 9.58741
48.4348 9.51703
48.4837 9.53845
48.5327 9.49691
48.5815 9.44017
48.6306 9.39176
48.6795 9.36087
48.7285 9.34313
48.7774 9.26511
48.8265 9.23238
48.8754 9.22312
48.9245 9.19558
48.9734 9.15544
49.0226 9.1305
49.0715 9.1065
49.1206 9.06326
49.1696 9.01218
49.2188 9.02389
49.2679 8.96275
49.3169 8.87209
49.3661 8.8962
49.4151 8.8525
49.4643 8.84939
49.5134 8.78104
49.5626 8.69248
49.6117 8.68107
49.6609 8.72493
49.71 8.60946
49.7592 8.58964
49.8083 8.58864
49.8576 8.57235
49.9067 8.48731
49.956 8.47794
50.0052 8.43769
50.0545 8.42106
50.1036 8.39212
50.153 8.35488
50.2022 8.32754
50.2515 8.23873
50.3007 8.25699
50.3501 8.23598
50.3993 8.21484
50.4487 8.15344
50.498 8.10778
50.5474 8.0968
50.5966 8.04715
50.6461 8.04588
50.6955 7.99315
50.7448 7.96158
50.7943 7.93896
50.8436 7.93079
50.8931 7.89329
50.9424 7.86173
50.9919 7.82331
51.0413 7.78607
51.0908 7.74722
51.1402 7.70977
51.1897 7.69994
51.2391 7.67772
51.2887 7.63841
51.3381 7.58733
51.3877 7.55799
51.4371 7.53187
51.4867 7.47261
51.5362 7.47777
51.5858 7.42758
51.6353 7.43599
51.6849 7.39299
51.7344 7.36867
51.7841 7.30122
51.8336 7.25692
51.8833 7.267
51.9328 7.24244
51.9826 7.19715
52.0323 7.17944
52.0818 7.17796
52.1316 7.13203
52.1812 7.11413
52.231 7.08144
52.2806 7.01719
52.3304 7.00113
52.38 6.94721
52.4298 6.96201
52.4794 6.89193
52.5293 6.86321
52.5789 6.89527
52.6288 6.8246
52.6785 6.76513
52.7284 6.76606
52.7781 6.73475
52.828 6.68613
52.8777 6.69261
52.9276 6.60208
52.9774 6.65897
53.0273 6.56933
53.0771 6.58358
53.1271 6.57565
53.1769 6.50294
53.2269 6.50031
53.2767 6.44537
53.3267 6.44772
53.3765 6.4379
53.4266 6.3878
53.4766 6.37768
53.5265 6.31456
53.5765 6.29806
53.6264 6.24411
53.6765 6.29864
53.7264 6.23322
53.7765 6.18279
53.8265 6.168
53.8766 6.13106
53.9266 6.12487
53.9767 6.07573
54.0267 6.05094
54.0769 5.99932
54.1269 5.99573
54.1771 5.95474
54.2271 5.94431
54.2773 5.87004
54.3274 5.8801
54.3776 5.80125
54.4277 5.79968
54.478 5.75637
54.528 5.76719
54.5783 5.69941
54.6285 5.70986
54.6788 5.62211
54.7289 5.6237
54.7792 5.528
54.8296 5.48896
54.8798 5.43636
54.9301 5.41632
54.9803 5.39773
55.0307 5.33715
55.0809 5.28705
55.1314 5.33391
55.1816 5.22284
55.232 5.15991
55.2823 5.20252
55.3328 5.04526
55.383 5.0542
55.4335 5.01072
55.4838 4.96342
55.5344 4.92384
55.5847 4.8863
55.6352 4.85802
55.6856 4.83767
55.7361 4.79256