File: XRD/Ni3Fe_FD0781.xy
TT I
1.27165 7.58142
1.31627 6.58368
1.36089 6.59819
1.40551 5.68311
1.45013 6.12154
1.49476 5.69438
1.53938 5.70527
1.584 5.49717
1.62863 5.39031
1.67325 4.75442
1.71787 5.95495
1.7625 4.82586
1.80712 5.21664
1.85174 5.22559
1.89636 4.32109
1.94099 5.09554
1.98562 4.65263
2.03025 4.32045
2.07487 4.4199
2.11949 4.87943
2.16411 4.95839
2.20874 12.8436
2.25338 19.222
2.298 6.08392
2.34263 5.36693
2.38725 5.49849
2.43188 5.54039
2.4765 7.28347
2.52115 7.12081
2.56577 7.92291
2.6104 7.84027
2.65503 7.83784
2.69965 8.34839
2.7443 8.30166
2.78893 8.50619
2.83356 8.41957
2.87818 9.05526
2.92281 9.03742
2.96744 9.60011
3.01209 10.3554
3.05672 11.7923
3.10135 12.632
3.14599 13.5607
3.19062 14.376
3.23527 15.1271
3.2799 15.935
3.32454 16.56
3.36917 17.5523
3.4138 19.0672
3.45844 19.6475
3.50309 20.9528
3.54773 21.7557
3.59237 24.1005
3.637 79.45
3.68164 52.1738
3.7263 25.6527
3.77094 25.8807
3.81558 26.4632
3.86022 27.274
3.90486 29.084
3.9495 29.6814
3.99416 30.8052
4.0388 32.1355
4.08344 33.4823
4.12809 34.5454
4.17273 36.544
4.21738 41.9349
4.26204 209.858
4.30669 182.438
4.35133 46.6303
4.39598 43.7332
4.44063 51.8401
4.4853 61.8466
4.52995 49.9045
4.5746 51.1668
4.61925 52.6164
4.6639 54.9873
4.70855 57.5059
4.75322 60.8567
4.79788 63.453
4.84253 66.1392
4.88719 70.6428
4.93184 74.4425
4.97652 80.3194
5.02118 86.0062
5.06583 93.7995
5.11049 103.789
5.15515 162.315
5.19981 329.527
5.24449 2748.28
5.28916 12885.2
5.33382 2657.19
5.37848 176.183
5.42315 125.24
5.46783 110.573
5.5125 104.218
5.55716 100.202
5.60183 96.904
5.6465 95.3118
5.69117 93.1905
5.73586 91.4486
5.78053 90.5509
5.8252 89.8203
5.86988 90.9824
5.91455 92.6308
5.95924 100.888
6.00392 201.991
6.0486 938.518
6.09328 4479.12
6.13795 3173.17
6.18263 209.438
6.22733 89.729
6.27201 80.9619
6.3167 95.8405
6.36138 77.7448
6.40606 68.1982
6.45075 66.1598
6.49545 64.691
6.54014 63.321
6.58483 62.3457
6.62952 61.7171
6.67421 87.6325
6.71892 126.338
6.76361 66.4795
6.8083 57.9922
6.853 56.6735
6.89769 56.3892
6.94239 55.9752
6.98711 55.0837
7.03181 55.1426
7.07651 54.5915
7.12121 54.2362
7.16591 54.6943
7.21063 54.705
7.25533 67.7553
7.30004 153.4
7.34475 83.8557
7.38945 55.4455
7.43416 54.0456
7.47889 53.8054
7.5236 54.1795
7.56831 54.5545
7.61303 56.0016
7.65774 56.3353
7.70247 55.4238
7.74719 55.4158
7.79191 56.2959
7.83663 56.3586
7.88135 57.3162
7.92607 58.1883
7.97081 58.974
8.01553 60.0816
8.06026 61.9121
8.10498 63.2666
8.14971 71.1345
8.19446 70.5826
8.23919 68.8517
8.28392 71.1249
8.32865 73.1748
8.37339 77.3523
8.41812 83.8593
8.46288 109.088
8.50761 161.909
8.55235 372.996
8.59709 1206.95
8.64183 2216.26
8.68658 869.256
8.73134 148.239
8.77609 96.8779
8.82083 91.0627
8.86558 88.1817
8.91033 88.3095
8.9551 89.4107
8.99985 84.335
9.04461 82.4564
9.08936 81.8632
9.13412 80.7374
9.17888 81.2721
9.22365 81.3178
9.26841 81.0263
9.31318 81.724
9.35794 82.0981
9.4027 82.2856
9.44749 83.3022
9.49226 83.2238
9.53703 84.2447
9.5818 86.122
9.62657 90.2741
9.67134 95.7121
9.71614 92.2764
9.76091 92.99
9.80569 95.2887
9.85047 99.011
9.89525 118.993
9.94005 131.301
9.98484 172.254
10.0296 333.859
10.0744 814.688
10.1192 1777.94
10.164 1517.39
10.2088 349.288
10.2536 120.316
10.2984 110.384
10.3432 111.161
10.388 103.077
10.4328 116.464
10.4776 157.92
10.5224 284.872
10.5672 533.635
10.612 482.833
10.6568 187.656
10.7017 94.0402
10.7465 85.379
10.7913 82.0749
10.8361 80.0942
10.8809 77.5968
10.9257 76.9959
10.9706 77.3252
11.0154 73.7996
11.0602 71.9703
11.105 71.1341
11.1499 74.3144
11.1947 79.8014
11.2395 72.4612
11.2844 68.9948
11.3292 66.2681
11.374 65.1781
11.4189 64.9028
11.4637 64.3949
11.5086 64.5735
11.5534 66.8136
11.5983 64.5202
11.6431 62.8713
11.688 62.0228
11.7328 62.0464
11.7777 62.1562
11.8225 61.6657
11.8674 61.5331
11.9122 62.1436
11.9571 62.4508
12.002 62.6968
12.0468 66.7464
12.0917 77.3559
12.1366 101.63
12.1814 158.223
12.2263 213.844
12.2712 168.784
12.3161 89.7886
12.3609 68.4974
12.4058 63.894
12.4507 63.4728
12.4956 63.6633
12.5405 63.8299
12.5853 64.6239
12.6302 70.71
12.6751 75.3169
12.72 68.655
12.7649 67.0368
12.8098 67.6087
12.8547 68.9071
12.8996 70.0847
12.9445 71.601
12.9894 73.1705
13.0343 75.0837
13.0792 78.1305
13.1242 86.8803
13.1691 109.565
13.214 146.032
13.2589 240.434
13.3038 385.529
13.3487 426.966
13.3937 243.534
13.4386 117.09
13.4835 103.293
13.5285 118.184
13.5734 156.23
13.6183 252.046
13.6633 362.018
13.7082 338.023
13.7531 170.49
13.7981 92.4151
13.843 80.4782
13.888 78.6059
13.9329 75.9729
13.9779 75.2015
14.0228 73.4074
14.0678 72.1168
14.1127 71.7956
14.1577 71.4049
14.2027 70.7384
14.2476 69.6361
14.2926 69.826
14.3376 70.5757
14.3825 69.3544
14.4275 68.163
14.4725 67.6835
14.5175 68.1589
14.5624 68.2437
14.6074 69.9409
14.6524 70.4653
14.6974 69.6702
14.7424 71.2499
14.7874 77.7436
14.8324 87.6263
14.8774 109.555
14.9224 155.803
14.9674 215.696
15.0124 220.522
15.0574 145.334
15.1024 86.4914
15.1474 70.8325
15.1924 69.4786
15.2374 69.7862
15.2824 69.1644
15.3274 67.0243
15.3725 65.979
15.4175 65.7312
15.4625 65.2324
15.5076 65.4571
15.5526 65.3063
15.5976 65.1363
15.6426 66.0767
15.6877 71.3067
15.7327 78.2949
15.7778 93.485
15.8228 127.076
15.8679 176.386
15.9129 199.087
15.958 150.176
16.003 90.6774
16.0481 65.9579
16.0931 63.0432
16.1382 61.4235
16.1833 59.7266
16.2283 58.1193
16.2734 57.5613
16.3185 57.883
16.3636 58.2541
16.4086 56.8774
16.4537 55.5607
16.4988 54.7624
16.5439 54.9156
16.589 54.4691
16.6341 54.2759
16.6792 53.8046
16.7243 54.3802
16.7694 54.345
16.8145 54.1145
16.8596 54.4832
16.9047 55.5428
16.9498 55.9287
16.9949 55.07
17.04 55.0149
17.0851 56.4919
17.1302 57.9389
17.1754 60.933
17.2205 66.3939
17.2656 74.6055
17.3108 83.2972
17.3559 81.1758
17.401 68.859
17.4462 60.6461
17.4913 58.4113
17.5365 58.6523
17.5815 58.5416
17.6268 58.8745
17.6718 59.7008
17.7171 60.0545
17.7622 60.56
17.8074 61.2476
17.8525 63.4775
17.8977 67.5016
17.9428 72.8255
17.9881 81.8407
18.0331 100.332
18.0784 124.705
18.1237 142.037
18.1688 127.718
18.214 98.8988
18.2591 84.4357
18.3044 90.2562
18.3495 101.953
18.3948 106.203
18.4399 93.2523
18.4852 74.4087
18.5303 64.3399
18.5756 61.2899
18.6207 60.5888
18.666 59.753
18.7112 58.9859
18.7565 58.468
18.8016 58.0875
18.8469 57.3662
18.892 57.2479
18.9374 56.577
18.9825 56.4471
19.0278 56.2262
19.073 56.2169
19.1183 56.5422
19.1635 57.4117
19.2088 58.7533
19.254 61.355
19.2993 66.3144
19.3447 72.9038
19.3898 76.1311
19.4352 70.8425
19.4804 61.5961
19.5257 55.6983
19.5709 53.4505
19.6163 53.3498
19.6615 53.2018
19.7068 52.6162
19.752 52.8296
19.7974 52.9661
19.8426 53.9218
19.888 54.2802
19.9332 55.6249
19.9786 58.1619
20.0238 62.2526
20.0692 67.5028
20.1144 69.7171
20.1598 67.0751
20.205 62.274
20.2504 61.5045
20.2957 64.0476
20.3411 65.5107
20.3863 62.8163
20.4318 56.7317
20.477 52.4486
20.5224 50.7569
20.5677 50.3472
20.6131 49.6783
20.6586 48.9285
20.7038 48.8724
20.7493 48.3508
20.7945 48.4409
20.84 48.253
20.8853 48.1447
20.9307 47.9758
20.976 48.1964
21.0215 48.1718
21.0668 48.4693
21.1122 48.8756
21.1575 49.4381
21.203 50.4265
21.2483 50.9021
21.2938 51.0346
21.3391 49.1984
21.3846 48.2119
21.4299 47.8053
21.4754 47.9
21.5207 47.9189
21.5662 48.2172
21.6116 48.6853
21.6571 49.4829
21.7024 50.1493
21.7479 52.079
21.7933 54.8623
21.8388 58.9187
21.8843 62.6564
21.9297 64.286
21.9752 62.0425
22.0206 58.189
22.0661 55.8247
22.1115 55.7675
22.157 55.5051
22.2024 53.4012
22.248 50.5826
22.2933 49.1041
22.3389 48.5297
22.3843 48.4202
22.4299 48.2054
22.4753 48.3726
22.5208 48.0084
22.5662 48.0553
22.6118 48.089
22.6572 48.1339
22.7028 48.7998
22.7483 49.0778
22.7939 49.9422
22.8393 51.428
22.8849 53.9048
22.9303 55.9728
22.9759 57.6497
23.0214 56.6301
23.067 53.6226
23.1126 50.0336
23.1581 48.6464
23.2037 48.1407
23.2492 48.341
23.2948 48.1942
23.3403 48.6392
23.3859 49.3275
23.4314 50.2915
23.477 52.1465
23.5225 54.7829
23.5682 56.9988
23.6137 57.5151
23.6593 54.6692
23.7048 50.5586
23.7505 47.4856
23.796 46.0334
23.8417 45.3299
23.8872 45.0605
23.9329 44.6992
23.9784 44.2819
24.0241 44.1782
24.0697 44.0622
24.1154 43.4814
24.1609 43.5125
24.2066 43.4101
24.2522 43.2948
24.2979 42.9973
24.3434 42.7891
24.3892 42.5944
24.4349 42.5876
24.4805 42.4639
24.5262 42.7793
24.5718 42.4942
24.6175 42.3818
24.6631 42.3634
24.7089 41.9164
24.7545 41.8892
24.8002 41.7628
24.8458 41.6901
24.8916 41.6019
24.9372 41.6161
24.983 42.068
25.0286 42.3613
25.0744 42.8991
25.12 43.3727
25.1658 44.0132
25.2114 44.2206
25.2572 44.1868
25.3029 44.3864
25.3487 44.5991
25.3943 44.1168
25.4402 42.8412
25.4858 41.9427
25.5316 40.8635
25.5773 40.4257
25.6231 40.5028
25.669 40.1057
25.7147 40.1872
25.7605 39.8409
25.8062 39.9644
25.8521 40.1114
25.8977 40.1297
25.9436 40.4493
25.9893 40.6927
26.0352 41.065
26.0809 41.1624
26.1268 41.2225
26.1725 40.953
26.2184 40.3194
26.2641 39.789
26.31 39.6535
26.3557 39.7451
26.4017 39.6494
26.4474 39.8958
26.4933 40.3736
26.5391 40.9043
26.585 41.3996
26.6308 41.8299
26.6767 41.7865
26.7225 41.3833
26.7684 40.9708
26.8142 40.2429
26.8601 39.9109
26.9059 39.5198
26.9519 39.0434
26.9979 38.7208
27.0437 38.4259
27.0896 38.2694
27.1354 38.2856
27.1814 38.2713
27.2272 38.1055
27.2732 38.2156
27.3191 37.8841
27.3651 38.0173
27.4109 37.8778
27.4569 38.1761
27.5027 38.2062
27.5488 38.1454
27.5946 37.9741
27.6407 37.6626
27.6865 37.6178
27.7326 37.3835
27.7784 37.5037
27.8245 37.4661
27.8703 37.5035
27.9164 37.9403
27.9623 38.0214
28.0084 38.4633
28.0543 38.6879
28.1003 38.5977
28.1462 38.3964
28.1923 38.1364
28.2384 37.4403
28.2843 37.1985
28.3304 36.8711
28.3764 36.2756
28.4225 35.8772
28.4684 35.9016
28.5145 35.5735
28.5605 35.5572
28.6066 35.2297
28.6526 35.1327
28.6987 35.2205
28.7447 35.1135
28.7908 35.0131
28.8368 35.1107
28.8829 35.0741
28.9289 34.9446
28.9751 34.8282
29.0211 34.607
29.0673 34.1854
29.1133 34.1266
29.1595 33.985
29.2055 33.9224
29.2517 33.9443
29.2977 33.8971
29.3439 33.9525
29.3899 33.8206
29.4361 33.7094
29.4824 33.5559
29.5284 33.3301
29.5746 33.0196
29.6207 32.8156
29.6669 32.7773
29.713 32.5694
29.7593 32.6161
29.8053 32.5541
29.8516 32.5626
29.8977 32.3704
29.9439 32.2084
29.99 32.3191
30.0363 32.0564
30.0824 32.1379
30.1287 32.1057
30.1748 32.1761
30.2211 32.1081
30.2673 31.8608
30.3136 32.0233
30.3597 31.8134
30.406 31.8287
30.4522 31.7944
30.4985 31.7561
30.5447 31.7578
30.591 31.7392
30.6372 31.8569
30.6835 31.8564
30.7297 31.8569
30.7761 31.7585
30.8224 31.5662
30.8686 31.4791
30.915 31.3339
30.9612 31.2108
31.0076 30.8958
31.0538 30.8876
31.1002 30.7285
31.1464 30.6323
31.1928 30.6857
31.2391 30.6781
31.2855 30.5399
31.3317 30.5778
31.3781 30.5016
31.4244 30.6603
31.4708 30.5486
31.5171 30.3997
31.5636 30.4132
31.6098 30.1035
31.6563 29.9929
31.7026 29.9012
31.7491 29.8032
31.7953 29.8275
31.8418 29.8807
31.8881 29.9192
31.9346 29.7553
31.9809 29.739
32.0275 29.6195
32.074 29.5325
32.1203 29.342
32.1668 29.327
32.2132 29.0633
32.2597 28.9136
32.306 28.8486
32.3526 28.6707
32.399 28.5629
32.4455 28.3961
32.4919 28.3573
32.5385 28.3719
32.5848 28.1393
32.6314 28.1443
32.6778 28.1093
32.7244 27.9753
32.7708 27.8631
32.8174 27.8469
32.8638 27.6734
32.9104 27.7966
32.9569 27.7263
33.0035 27.5695
33.0499 27.4958
33.0966 27.4566
33.143 27.515
33.1897 27.4165
33.2361 27.3225
33.2828 27.3852
33.3293 27.0565
33.3759 27.0802
33.4226 26.93
33.4691 26.8038
33.5158 26.702
33.5623 26.5542
33.609 26.4772
33.6555 26.3895
33.7022 26.322
33.7487 26.2095
33.7954 26.218
33.842 26.0769
33.8887 26.0067
33.9353 26.0204
33.982 25.8085
34.0286 25.8252
34.0753 25.7099
34.1219 25.6482
34.1687 25.5748
34.2152 25.6119
34.262 25.3293
34.3086 25.2334
34.3554 25.2093
34.402 25.1105
34.4488 25.0739
34.4954 24.8564
34.5422 24.929
34.5889 24.8026
34.6357 24.7435
34.6825 24.6544
34.7292 24.6323
34.776 24.4792
34.8227 24.4191
34.8695 24.3027
34.9162 24.3398
34.9631 24.2796
35.0098 24.2864
35.0566 24.0863
35.1033 24.1029
35.1502 24.0658
35.1969 23.9323
35.2438 23.89
35.2906 23.8665
35.3375 23.7755
35.3842 23.6886
35.4311 23.827
35.4779 23.6791
35.5248 23.5782
35.5716 23.5077
35.6185 23.428
35.6653 23.3594
35.7123 23.2606
35.759 23.2414
35.806 23.1091
35.8528 23.0598
35.8998 22.9771
35.9468 22.8534
35.9936 22.8086
36.0406 22.7489
36.0874 22.7406
36.1345 22.6721
36.1813 22.5968
36.2283 22.4528
36.2752 22.4647
36.3222 22.4252
36.3691 22.3776
36.4161 22.1891
36.463 22.1764
36.5101 22.1981
36.557 22.1961
36.6041 21.9757
36.651 21.9334
36.6981 21.8299
36.745 21.8028
36.7921 21.787
36.839 21.6187
36.8861 21.5568
36.9331 21.5463
36.9802 21.4749
37.0272 21.3997
37.0743 21.3381
37.1213 21.2641
37.1684 21.2161
37.2154 21.0817
37.2626 21.005
37.3098 20.9985
37.3568 20.8293
37.404 20.904
37.451 20.8011
37.4982 20.7379
37.5452 20.5773
37.5924 20.5587
37.6395 20.5763
37.6867 20.4577
37.7337 20.384
37.781 20.3762
37.8281 20.3322
37.8753 20.1373
37.9224 20.1471
37.9697 20.058
38.0168 19.9901
38.064 19.9286
38.1111 19.8953
38.1584 19.8262
38.2056 19.7807
38.2529 19.6923
38.3 19.658
38.3473 19.6085
38.3945 19.4121
38.4418 19.5029
38.489 19.4292
38.5363 19.3194
38.5837 19.2698
38.6309 19.2269
38.6782 19.1558
38.7254 19.1091
38.7728 19.0419
38.82 18.9034
38.8674 18.9079
38.9146 18.8317
38.9621 18.7691
39.0093 18.7301
39.0567 18.655
39.104 18.5625
39.1514 18.5206
39.1987 18.488
39.2461 18.496
39.2934 18.371
39.3409 18.2635
39.3882 18.2038
39.4356 18.1553
39.483 18.109
39.5304 18.0901
39.5778 18.0514
39.6253 17.9439
39.6726 17.9183
39.7201 17.8309
39.7675 17.8392
39.815 17.7255
39.8624 17.6569
39.9099 17.613
39.9575 17.587
40.0049 17.4975
40.0525 17.4127
40.0999 17.4199
40.1474 17.3882
40.1949 17.2571
40.2425 17.202
40.2899 17.1916
40.3375 17.121
40.385 17.0345
40.4326 16.9689
40.48 16.9251
40.5277 16.9299
40.5752 16.8195
40.6228 16.7665
40.6703 16.7472
40.718 16.672
40.7655 16.7032
40.8132 16.558
40.8607 16.5715
40.9084 16.4299
40.9559 16.4074
41.0036 16.3861
41.0512 16.325
41.0989 16.2735
41.1465 16.2073
41.1942 16.1703
41.242 16.0627
41.2896 16.0383
41.3373 16.0308
41.3849 15.9852
41.4327 15.8626
41.4803 15.8018
41.5281 15.85
41.5758 15.7619
41.6236 15.6447
41.6712 15.6408
41.7191 15.5907
41.7667 15.5465
41.8146 15.5114
41.8622 15.4041
41.9101 15.3951
41.9578 15.2708
42.0057 15.2891
42.0534 15.2278
42.1013 15.2216
42.149 15.0957
42.1969 15.019
42.2446 14.994
42.2925 15.0094
42.3403 14.8803
42.3882 14.9309
42.436 14.8215
42.4839 14.777
42.5319 14.7246
42.5797 14.7005
42.6277 14.5749
42.6755 14.5886
42.7235 14.463
42.7713 14.4627
42.8193 14.4068
42.8671 14.3426
42.9152 14.3141
42.963 14.2584
43.0111 14.2068
43.0589 14.1954
43.107 14.1428
43.1549 14.0594
43.2029 13.9761
43.2508 14.0041
43.2989 13.9177
43.3468 13.8721
43.3949 13.8291
43.4429 13.7423
43.491 13.7522
43.5389 13.6852
43.5871 13.624
43.635 13.5849
43.6832 13.5505
43.7312 13.4886
43.7793 13.4449
43.8273 13.3972
43.8755 13.3452
43.9237 13.2969
43.9717 13.2746
44.0199 13.2962
44.068 13.2062
44.1162 13.0911
44.1642 13.0914
44.2125 13.0673
44.2606 13.0334
44.3088 12.8999
44.3569 12.9357
44.4052 12.8951
44.4533 12.8407
44.5016 12.7728
44.5497 12.7395
44.598 12.6827
44.6461 12.645
44.6945 12.5809
44.7426 12.53
44.791 12.4993
44.8391 12.4405
44.8875 12.4415
44.9357 12.4253
44.984 12.3125
45.0322 12.3112
45.0806 12.2718
45.1288 12.1826
45.1773 12.1435
45.2257 12.1295
45.2739 12.055
45.3224 12.0553
45.3706 12.014
45.4191 11.9628
45.4673 11.8478
45.5158 11.879
45.5641 11.8087
45.6126 11.7761
45.6609 11.7201
45.7094 11.659
45.7577 11.6601
45.8063 11.5615
45.8546 11.5817
45.9031 11.5424
45.9515 11.4744
46.0001 11.4549
46.0484 11.4057
46.097 11.3545
46.1454 11.3277
46.194 11.3344
46.2424 11.2519
46.291 11.2072
46.3395 11.1985
46.3881 11.0927
46.4365 11.0922
46.4852 11.0665
46.5337 10.9607
46.5823 11.0016
46.631 10.9388
46.6795 10.8865
46.7282 10.8541
46.7767 10.8231
46.8254 10.744
46.8739 10.6842
46.9226 10.6731
46.9712 10.6644
47.0199 10.5872
47.0685 10.5402
47.1173 10.5371
47.1658 10.4644
47.2146 10.4837
47.2632 10.3827
47.312 10.3671
47.3606 10.3324
47.4095 10.248
47.4581 10.2981
47.5069 10.2129
47.5556 10.1161
47.6044 10.1499
47.6531 10.1071
47.702 10.0477
47.7507 10.0064
47.7996 9.9912
47.8483 9.9695
47.8972 9.90738
47.9461 9.90973
47.9948 9.81345
48.0438 9.82365
48.0925 9.82201
48.1415 9.72272
48.1902 9.71897
48.2392 9.6872
48.288 9.64436
48.337 9.5935
48.3858 9.58007
48.4348 9.52975
48.4837 9.51983
48.5327 9.50875
48.5815 9.4301
48.6306 9.42119
48.6795 9.36192
48.7285 9.36053
48.7774 9.32555
48.8265 9.23202
48.8754 9.22306
48.9245 9.1673
48.9734 9.15476
49.0226 9.14175
49.0715 9.08015
49.1206 9.0415
49.1696 9.00171
49.2188 8.98349
49.2679 8.97555
49.3169 8.9169
49.3661 8.91572
49.4151 8.85081
49.4643 8.85124
49.5134 8.811
49.5626 8.74033
49.6117 8.70734
49.6609 8.69068
49.71 8.60825
49.7592 8.61117
49.8083 8.57196
49.8576 8.53743
49.9067 8.49084
49.956 8.46465
50.0052 8.47522
50.0545 8.43068
50.1036 8.38698
50.153 8.3319
50.2022 8.28684
50.2515 8.27251
50.3007 8.25127
50.3501 8.24396
50.3993 8.20784
50.4487 8.1414
50.498 8.11577
50.5474 8.10347
50.5966 8.0573
50.6461 8.05282
50.6955 8.00608
50.7448 7.95006
50.7943 7.93129
50.8436 7.89157
50.8931 7.85907
50.9424 7.85463
50.9919 7.82121
51.0413 7.80297
51.0908 7.7672
51.1402 7.70876
51.1897 7.72194
51.2391 7.68471
51.2887 7.67235
51.3381 7.61319
51.3877 7.58851
51.4371 7.51611
51.4867 7.49982
51.5362 7.46519
51.5858 7.47543
51.6353 7.38227
51.6849 7.36192
51.7344 7.36193
51.7841 7.32004
51.8336 7.29363
51.8833 7.28998
51.9328 7.23572
51.9826 7.195
52.0323 7.18181
52.0818 7.15981
52.1316 7.09686
52.1812 7.08849
52.231 7.03279
52.2806 7.02964
52.3304 6.98407
52.38 6.98102
52.4298 6.94965
52.4794 6.8799
52.5293 6.84007
52.5789 6.86143
52.6288 6.83059
52.6785 6.78135
52.7284 6.74933
52.7781 6.73032
52.828 6.69548
52.8777 6.68574
52.9276 6.66661
52.9774 6.61284
53.0273 6.59841
53.0771 6.58081
53.1271 6.58027
53.1769 6.49912
53.2269 6.51629
53.2767 6.49085
53.3267 6.42931
53.3765 6.42318
53.4266 6.40103
53.4766 6.36992
53.5265 6.32935
53.5765 6.30283
53.6264 6.29282
53.6765 6.23172
53.7264 6.19035
53.7765 6.18711
53.8265 6.15996
53.8766 6.09568
53.9266 6.09189
53.9767 6.0671
54.0267 6.08409
54.0769 5.99572
54.1269 5.94683
54.1771 5.94159
54.2271 5.9383
54.2773 5.95078
54.3274 5.88992
54.3776 5.82514
54.4277 5.81666
54.478 5.79377
54.528 5.73986
54.5783 5.71856
54.6285 5.69556
54.6788 5.65202
54.7289 5.5757
54.7792 5.54661
54.8296 5.47713
54.8798 5.41003
54.9301 5.42401
54.9803 5.40537
55.0307 5.37473
55.0809 5.2834
55.1314 5.32633
55.1816 5.20522
55.232 5.17208
55.2823 5.15894
55.3328 5.11344
55.383 5.02309
55.4335 5.01999
55.4838 4.9092
55.5344 4.93026
55.5847 4.87176
55.6352 4.8812
55.6856 4.81386
55.7361 4.75903