File: XRD/Ni3Fe_FD0298.xy
TT I
1.27165 7.89446
1.31627 7.01887
1.36089 7.16366
1.40551 6.56926
1.45013 5.75696
1.49476 6.20747
1.53938 6.16729
1.584 5.89482
1.62863 5.50062
1.67325 5.76638
1.71787 5.49302
1.7625 4.7399
1.80712 5.29587
1.85174 4.5056
1.89636 4.86022
1.94099 5.09967
1.98562 4.62019
2.03025 4.67851
2.07487 4.79485
2.11949 5.60737
2.16411 5.17176
2.20874 17.6829
2.25338 30.6559
2.298 6.09501
2.34263 5.50018
2.38725 5.45691
2.43188 5.23689
2.4765 5.48293
2.52115 5.54303
2.56577 7.14104
2.6104 7.23284
2.65503 6.51872
2.69965 7.07414
2.7443 7.80882
2.78893 7.57705
2.83356 8.08852
2.87818 8.48145
2.92281 8.65127
2.96744 9.72342
3.01209 10.7667
3.05672 11.1515
3.10135 12.4977
3.14599 13.2805
3.19062 14.4377
3.23527 15.2498
3.2799 16.0903
3.32454 16.8146
3.36917 18.5074
3.4138 19.4044
3.45844 20.3043
3.50309 21.3183
3.54773 22.6335
3.59237 25.2905
3.637 122.79
3.68164 75.4993
3.7263 27.3905
3.77094 26.9183
3.81558 27.7257
3.86022 28.204
3.90486 29.903
3.9495 30.9586
3.99416 32.0604
4.0388 33.1772
4.08344 34.7407
4.12809 36.0262
4.17273 38.6445
4.21738 46.4603
4.26204 334.778
4.30669 299.061
4.35133 53.0711
4.39598 46.2962
4.44063 58.4687
4.4853 74.8239
4.52995 53.5467
4.5746 53.6959
4.61925 55.1283
4.6639 56.8224
4.70855 59.9603
4.75322 62.9291
4.79788 66.4438
4.84253 69.2579
4.88719 73.9251
4.93184 77.6509
4.97652 83.8068
5.02118 90.7717
5.06583 99.3669
5.11049 114.69
5.15515 212.935
5.19981 498.656
5.24449 3016.62
5.28916 11122.8
5.33382 4240.04
5.37848 257.213
5.42315 146.094
5.46783 124.038
5.5125 112.691
5.55716 107.404
5.60183 103.527
5.6465 101.334
5.69117 98.4481
5.73586 96.6306
5.78053 96.941
5.8252 96.4169
5.86988 97.5417
5.91455 100.353
5.95924 112.04
6.00392 254.817
6.0486 1052.16
6.09328 3656.36
6.13795 3828.2
6.18263 364.889
6.22733 107.077
6.27201 90.1638
6.3167 117.767
6.36138 88.1093
6.40606 72.5664
6.45075 70.4192
6.49545 68.2436
6.54014 66.4878
6.58483 65.6156
6.62952 66.0219
6.67421 108.767
6.71892 183.917
6.76361 75.3524
6.8083 61.7176
6.853 60.3604
6.89769 59.3227
6.94239 58.7851
6.98711 58.1064
7.03181 57.6491
7.07651 57.5255
7.12121 57.8175
7.16591 57.8715
7.21063 58.3279
7.25533 77.8653
7.30004 235.748
7.34475 110.755
7.38945 59.6043
7.43416 57.0332
7.47889 56.5166
7.5236 56.9303
7.56831 57.9081
7.61303 60.1794
7.65774 60.6004
7.70247 58.4011
7.74719 57.9757
7.79191 58.7968
7.83663 58.8962
7.88135 60.0501
7.92607 60.9006
7.97081 61.8711
8.01553 62.8411
8.06026 64.8249
8.10498 66.0612
8.14971 79.4503
8.19446 77.3849
8.23919 71.8092
8.28392 74.265
8.32865 76.5748
8.37339 81.7721
8.41812 89.9206
8.46288 130.202
8.50761 191.034
8.55235 432.811
8.59709 993.158
8.64183 2075.32
8.68658 1280.52
8.73134 225.84
8.77609 108.518
8.82083 98.3748
8.86558 93.8663
8.91033 94.6836
8.9551 97.9567
8.99985 89.1561
9.04461 86.2895
9.08936 85.5075
9.13412 84.7086
9.17888 84.8667
9.22365 86.2979
9.26841 85.0654
9.31318 85.7936
9.35794 85.9581
9.4027 86.0117
9.44749 86.743
9.49226 87.4603
9.53703 88.3168
9.5818 90.4451
9.62657 96.8834
9.67134 105.561
9.71614 97.903
9.76091 97.1507
9.80569 99.9917
9.85047 104.272
9.89525 136.699
9.94005 155.023
9.98484 198.396
10.0296 378.6
10.0744 707.857
10.1192 1488.71
10.164 1789.4
10.2088 573.308
10.2536 152.431
10.2984 122.691
10.3432 124.587
10.388 110.426
10.4328 127.057
10.4776 171.276
10.5224 253.891
10.5672 446.154
10.612 551.554
10.6568 260.393
10.7017 106.949
10.7465 90.5907
10.7913 86.696
10.8361 84.2575
10.8809 82.0049
10.9257 82.0444
10.9706 83.8317
11.0154 78.0414
11.0602 75.6608
11.105 74.6779
11.1499 80.8437
11.1947 92.6691
11.2395 79.9955
11.2844 74.3922
11.3292 69.8141
11.374 68.744
11.4189 68.0339
11.4637 67.395
11.5086 68.4323
11.5534 72.8042
11.5983 69.0362
11.6431 66.0628
11.688 65.4218
11.7328 65.3496
11.7777 65.4508
11.8225 64.9112
11.8674 64.743
11.9122 65.0604
11.9571 65.3745
12.002 66.2419
12.0468 70.9514
12.0917 84.202
12.1366 102.065
12.1814 137.559
12.2263 195.948
12.2712 192.976
12.3161 117.912
12.3609 76.9874
12.4058 67.8143
12.4507 66.8466
12.4956 67.2213
12.5405 67.0735
12.5853 68.4678
12.6302 79.1438
12.6751 86.9503
12.72 74.0243
12.7649 70.4446
12.8098 70.6244
12.8547 72.2726
12.8996 73.5151
12.9445 74.6743
12.9894 76.5632
13.0343 78.2277
13.0792 81.7339
13.1242 92.9773
13.1691 121.263
13.214 152.865
13.2589 211.702
13.3038 321.905
13.3487 441.063
13.3937 324.691
13.4386 149.172
13.4835 114.23
13.5285 129.717
13.5734 156.484
13.6183 214.213
13.6633 313.416
13.7082 370.203
13.7531 237.316
13.7981 113.141
13.843 86.1518
13.888 83.0263
13.9329 79.9076
13.9779 78.6221
14.0228 76.9624
14.0678 75.5804
14.1127 75.2727
14.1577 75.5195
14.2027 74.3487
14.2476 72.9353
14.2926 73.4311
14.3376 75.2933
14.3825 73.5198
14.4275 71.4929
14.4725 70.8952
14.5175 71.0458
14.5624 71.7369
14.6074 74.6489
14.6524 75.1709
14.6974 73.3729
14.7424 74.9511
14.7874 82.9699
14.8324 94.0137
14.8774 108.9
14.9224 137.412
14.9674 187.882
15.0124 227.961
15.0574 176.265
15.1024 104.36
15.1474 76.5252
15.1924 73.6981
15.2374 74.8137
15.2824 74.0061
15.3274 71.1148
15.3725 69.5876
15.4175 68.6522
15.4625 68.2944
15.5076 68.9776
15.5526 68.8068
15.5976 68.0777
15.6426 69.3182
15.6877 75.833
15.7327 84.3869
15.7778 95.3478
15.8228 115.83
15.8679 152.384
15.9129 192.989
15.958 180.083
16.003 116.385
16.0481 74.8379
16.0931 68.7148
16.1382 66.4246
16.1833 63.2431
16.2283 61.3235
16.2734 60.67
16.3185 61.365
16.3636 62.7046
16.4086 60.862
16.4537 58.6
16.4988 57.7385
16.5439 57.6862
16.589 57.5102
16.6341 57.0378
16.6792 56.7528
16.7243 57.0508
16.7694 57.152
16.8145 57.1217
16.8596 57.4638
16.9047 59.6419
16.9498 59.9752
16.9949 58.1337
17.04 58.172
17.0851 59.1963
17.1302 61.3332
17.1754 63.7953
17.2205 67.0397
17.2656 72.3362
17.3108 81.6171
17.3559 85.6889
17.401 77.2803
17.4462 66.2415
17.4913 61.7708
17.5365 61.2356
17.5815 61.2533
17.6268 61.5493
17.6718 62.6145
17.7171 63.2309
17.7622 63.5655
17.8074 64.0917
17.8525 66.6989
17.8977 71.462
17.9428 76.9619
17.9881 82.9112
18.0331 94.3524
18.0784 112.442
18.1237 137.553
18.1688 142.759
18.214 117.231
18.2591 92.0623
18.3044 88.5592
18.3495 97.0087
18.3948 108.376
18.4399 105.006
18.4852 85.6793
18.5303 70.1529
18.5756 64.8433
18.6207 63.7341
18.666 62.8781
18.7112 61.9756
18.7565 61.2215
18.8016 60.8146
18.8469 60.1138
18.892 60.0346
18.9374 59.3518
18.9825 59.22
19.0278 59.0879
19.073 59.3528
19.1183 59.8545
19.1635 61.0185
19.2088 61.8436
19.254 63.3256
19.2993 66.2314
19.3447 72.1936
19.3898 78.33
19.4352 77.7614
19.4804 68.7898
19.5257 60.342
19.5709 56.4659
19.6163 55.9412
19.6615 55.8557
19.7068 55.3741
19.752 55.2496
19.7974 55.5809
19.8426 56.6076
19.888 57.3393
19.9332 58.4642
19.9786 59.6664
20.0238 61.9592
20.0692 66.7451
20.1144 71.5684
20.1598 72.1653
20.205 67.012
20.2504 63.5169
20.2957 63.7875
20.3411 66.8177
20.3863 67.769
20.4318 62.64
20.477 57.021
20.5224 54.2617
20.5677 53.2328
20.6131 52.2174
20.6586 51.7109
20.7038 51.4086
20.7493 51.0821
20.7945 50.8933
20.84 50.701
20.8853 50.6079
20.9307 50.3704
20.976 50.4623
21.0215 50.435
21.0668 50.9331
21.1122 51.1243
21.1575 51.6742
21.203 51.9527
21.2483 53.0117
21.2938 53.297
21.3391 52.4873
21.3846 51.1101
21.4299 50.271
21.4754 50.2002
21.5207 50.3765
21.5662 50.5964
21.6116 51.0384
21.6571 51.732
21.7024 52.9179
21.7479 54.1605
21.7933 55.9631
21.8388 59.0108
21.8843 62.5778
21.9297 66.217
21.9752 66.8615
22.0206 63.2381
22.0661 58.7299
22.1115 57.3593
22.157 57.8896
22.2024 57.1641
22.248 54.1441
22.2933 52.1109
22.3389 51.2057
22.3843 51.0431
22.4299 51.0385
22.4753 50.9277
22.5208 50.4096
22.5662 50.354
22.6118 50.4797
22.6572 50.6151
22.7028 51.0344
22.7483 51.5244
22.7939 51.9693
22.8393 53.0562
22.8849 54.686
22.9303 56.4528
22.9759 58.9763
23.0214 59.9945
23.067 58.1421
23.1126 54.0976
23.1581 51.5875
23.2037 50.8484
23.2492 50.7924
23.2948 50.5637
23.3403 51.0347
23.3859 51.4107
23.4314 52.1339
23.477 53.3256
23.5225 54.9073
23.5682 57.2328
23.6137 59.6396
23.6593 58.8495
23.7048 55.195
23.7505 51.1092
23.796 48.7641
23.8417 47.8049
23.8872 47.3822
23.9329 47.1052
23.9784 46.5265
24.0241 46.2973
24.0697 46.0724
24.1154 45.8815
24.1609 45.8597
24.2066 45.504
24.2522 45.4979
24.2979 45.1906
24.3434 44.9493
24.3892 44.8975
24.4349 44.7295
24.4805 44.5172
24.5262 44.5804
24.5718 44.4373
24.6175 44.5253
24.6631 44.4992
24.7089 44.129
24.7545 44.084
24.8002 43.8001
24.8458 43.826
24.8916 43.8298
24.9372 43.7273
24.983 44.0476
25.0286 44.2469
25.0744 44.5795
25.12 44.8476
25.1658 45.5915
25.2114 46.1232
25.2572 46.0822
25.3029 46.1621
25.3487 46.355
25.3943 46.4197
25.4402 45.7111
25.4858 44.5493
25.5316 43.2843
25.5773 42.4277
25.6231 42.4887
25.669 42.014
25.7147 42.0567
25.7605 41.8728
25.8062 42.0369
25.8521 42.1318
25.8977 42.1394
25.9436 42.149
25.9893 42.1368
26.0352 42.7265
26.0809 42.7178
26.1268 43.1561
26.1725 42.9119
26.2184 42.5128
26.2641 41.8333
26.31 41.7068
26.3557 41.6516
26.4017 41.5667
26.4474 41.9103
26.4933 42.1643
26.5391 42.4584
26.585 42.8355
26.6308 43.3108
26.6767 43.5072
26.7225 43.6008
26.7684 43.0129
26.8142 42.4241
26.8601 41.9784
26.9059 41.6758
26.9519 41.0795
26.9979 40.7283
27.0437 40.1842
27.0896 40.0821
27.1354 40.085
27.1814 40.092
27.2272 39.9331
27.2732 39.9049
27.3191 39.5555
27.3651 39.8142
27.4109 39.79
27.4569 39.8397
27.5027 39.8503
27.5488 39.8137
27.5946 39.8224
27.6407 39.7079
27.6865 39.6142
27.7326 39.2159
27.7784 39.1712
27.8245 39.144
27.8703 39.384
27.9164 39.5433
27.9623 39.4821
28.0084 39.7576
28.0543 40.1995
28.1003 40.3537
28.1462 40.2016
28.1923 39.8969
28.2384 39.3714
28.2843 39.0719
28.3304 38.6326
28.3764 38.2302
28.4225 37.7566
28.4684 37.6499
28.5145 37.3187
28.5605 37.1056
28.6066 37.0084
28.6526 36.8634
28.6987 36.9244
28.7447 36.6986
28.7908 36.7467
28.8368 36.7336
28.8829 36.7153
28.9289 36.7126
28.9751 36.402
29.0211 36.2985
29.0673 36.1098
29.1133 35.8592
29.1595 35.712
29.2055 35.5978
29.2517 35.4815
29.2977 35.3273
29.3439 35.5023
29.3899 35.4641
29.4361 35.3667
29.4824 35.2052
29.5284 35.0263
29.5746 34.7422
29.6207 34.4083
29.6669 34.3065
29.713 34.2573
29.7593 34.1243
29.8053 34.055
29.8516 34.0734
29.8977 34.019
29.9439 33.7404
29.99 33.7778
30.0363 33.5649
30.0824 33.6141
30.1287 33.5655
30.1748 33.5397
30.2211 33.5872
30.2673 33.4293
30.3136 33.6256
30.3597 33.4718
30.406 33.301
30.4522 33.2866
30.4985 33.2358
30.5447 33.254
30.591 33.2323
30.6372 33.2628
30.6835 33.2304
30.7297 33.3634
30.7761 33.3249
30.8224 33.0878
30.8686 33.0116
30.915 32.9038
30.9612 32.6905
31.0076 32.4265
31.0538 32.3716
31.1002 32.2802
31.1464 32.113
31.1928 31.9711
31.2391 32.0463
31.2855 31.8963
31.3317 31.9863
31.3781 31.9635
31.4244 31.9642
31.4708 31.7946
31.5171 31.8872
31.5636 31.8559
31.6098 31.7153
31.6563 31.5606
31.7026 31.339
31.7491 31.1929
31.7953 31.2768
31.8418 31.2354
31.8881 31.1425
31.9346 31.1455
31.9809 31.1465
32.0275 31.0774
32.074 30.9297
32.1203 30.7434
32.1668 30.6779
32.2132 30.4734
32.2597 30.3536
32.306 30.2449
32.3526 30.1046
32.399 30.0437
32.4455 29.7807
32.4919 29.7897
32.5385 29.7705
32.5848 29.5781
32.6314 29.5326
32.6778 29.5409
32.7244 29.3632
32.7708 29.193
32.8174 29.1194
32.8638 29.0986
32.9104 29.1197
32.9569 29.0287
33.0035 28.8857
33.0499 28.8379
33.0966 28.8306
33.143 28.6966
33.1897 28.6919
33.2361 28.6496
33.2828 28.5963
33.3293 28.4295
33.3759 28.4295
33.4226 28.2979
33.4691 28.0773
33.5158 28.0512
33.5623 27.9494
33.609 27.7427
33.6555 27.6187
33.7022 27.6862
33.7487 27.4768
33.7954 27.4595
33.842 27.3305
33.8887 27.2857
33.9353 27.2632
33.982 27.178
34.0286 27.0271
34.0753 26.9516
34.1219 26.9175
34.1687 26.8039
34.2152 26.7986
34.262 26.5995
34.3086 26.5303
34.3554 26.4812
34.402 26.3591
34.4488 26.2603
34.4954 26.2242
34.5422 26.1165
34.5889 25.9403
34.6357 25.8153
34.6825 25.8514
34.7292 25.7145
34.776 25.64
34.8227 25.6157
34.8695 25.4221
34.9162 25.4863
34.9631 25.4358
35.0098 25.3108
35.0566 25.2488
35.1033 25.1697
35.1502 25.2172
35.1969 25.0916
35.2438 25.0221
35.2906 24.9681
35.3375 24.9434
35.3842 24.8923
35.4311 24.8309
35.4779 24.797
35.5248 24.805
35.5716 24.6647
35.6185 24.5021
35.6653 24.4351
35.7123 24.3948
35.759 24.3709
35.806 24.2983
35.8528 24.0929
35.8998 24.0031
35.9468 23.9236
35.9936 23.9221
36.0406 23.8515
36.0874 23.8336
36.1345 23.7024
36.1813 23.6166
36.2283 23.5378
36.2752 23.4497
36.3222 23.4636
36.3691 23.4091
36.4161 23.2586
36.463 23.2062
36.5101 23.2425
36.557 23.1601
36.6041 23.0267
36.651 22.9798
36.6981 22.9317
36.745 22.9073
36.7921 22.815
36.839 22.7097
36.8861 22.5856
36.9331 22.5915
36.9802 22.4923
37.0272 22.4083
37.0743 22.256
37.1213 22.199
37.1684 22.1636
37.2154 22.0548
37.2626 22.1117
37.3098 22.0492
37.3568 21.9235
37.404 21.9866
37.451 21.8185
37.4982 21.6459
37.5452 21.5717
37.5924 21.5892
37.6395 21.6123
37.6867 21.4072
37.7337 21.3258
37.781 21.3125
37.8281 21.2225
37.8753 21.1269
37.9224 21.1093
37.9697 21.0015
38.0168 20.9628
38.064 20.933
38.1111 20.8037
38.1584 20.7587
38.2056 20.6885
38.2529 20.6141
38.3 20.5259
38.3473 20.4987
38.3945 20.4124
38.4418 20.411
38.489 20.338
38.5363 20.248
38.5837 20.1651
38.6309 20.1127
38.6782 20.0737
38.7254 19.9968
38.7728 19.919
38.82 19.8448
38.8674 19.8573
38.9146 19.7554
38.9621 19.6669
39.0093 19.593
39.0567 19.5805
39.104 19.4671
39.1514 19.3623
39.1987 19.4035
39.2461 19.2712
39.2934 19.1974
39.3409 19.1947
39.3882 19.1198
39.4356 19.0421
39.483 19.0004
39.5304 18.8899
39.5778 18.8894
39.6253 18.8452
39.6726 18.7174
39.7201 18.7793
39.7675 18.6044
39.815 18.6054
39.8624 18.4874
39.9099 18.5053
39.9575 18.4225
40.0049 18.3628
40.0525 18.3441
40.0999 18.2264
40.1474 18.2023
40.1949 18.1355
40.2425 17.9869
40.2899 17.9926
40.3375 17.932
40.385 17.8571
40.4326 17.8152
40.48 17.7784
40.5277 17.7138
40.5752 17.7069
40.6228 17.6037
40.6703 17.5754
40.718 17.5187
40.7655 17.4419
40.8132 17.37
40.8607 17.3125
40.9084 17.3113
40.9559 17.2851
41.0036 17.1795
41.0512 17.1381
41.0989 17.0781
41.1465 17.0548
41.1942 16.9501
41.242 16.8808
41.2896 16.7854
41.3373 16.7494
41.3849 16.7722
41.4327 16.6827
41.4803 16.5135
41.5281 16.5489
41.5758 16.5214
41.6236 16.4624
41.6712 16.3566
41.7191 16.2822
41.7667 16.2411
41.8146 16.2414
41.8622 16.1837
41.9101 16.0709
41.9578 16.025
42.0057 16.0111
42.0534 15.8981
42.1013 15.8988
42.149 15.856
42.1969 15.7843
42.2446 15.7072
42.2925 15.6969
42.3403 15.65
42.3882 15.5417
42.436 15.5649
42.4839 15.4477
42.5319 15.4016
42.5797 15.4121
42.6277 15.2385
42.6755 15.2661
42.7235 15.1551
42.7713 15.1712
42.8193 15.0569
42.8671 15.0118
42.9152 15.0617
42.963 14.9928
43.0111 14.8797
43.0589 14.8575
43.107 14.7907
43.1549 14.759
43.2029 14.7073
43.2508 14.6725
43.2989 14.6285
43.3468 14.4801
43.3949 14.4631
43.4429 14.4475
43.491 14.4656
43.5389 14.3299
43.5871 14.3071
43.635 14.2398
43.6832 14.1953
43.7312 14.1326
43.7793 14.0696
43.8273 14.0507
43.8755 13.986
43.9237 13.9778
43.9717 13.9085
44.0199 13.8364
44.068 13.8474
44.1162 13.7321
44.1642 13.6989
44.2125 13.6529
44.2606 13.6307
44.3088 13.5151
44.3569 13.5181
44.4052 13.518
44.4533 13.4125
44.5016 13.4028
44.5497 13.3459
44.598 13.2606
44.6461 13.2684
44.6945 13.1912
44.7426 13.1632
44.791 13.0733
44.8391 13.0286
44.8875 13.0285
44.9357 12.9712
44.984 12.9143
45.0322 12.8574
45.0806 12.8433
45.1288 12.8055
45.1773 12.7451
45.2257 12.6702
45.2739 12.594
45.3224 12.5993
45.3706 12.5844
45.4191 12.4829
45.4673 12.4267
45.5158 12.4228
45.5641 12.3921
45.6126 12.3412
45.6609 12.3267
45.7094 12.2371
45.7577 12.2111
45.8063 12.1234
45.8546 12.1175
45.9031 12.1375
45.9515 12.0179
46.0001 11.9759
46.0484 11.9402
46.097 11.9068
46.1454 11.8956
46.194 11.834
46.2424 11.8116
46.291 11.7306
46.3395 11.6753
46.3881 11.6001
46.4365 11.6242
46.4852 11.5787
46.5337 11.5024
46.5823 11.4543
46.631 11.457
46.6795 11.4027
46.7282 11.3777
46.7767 11.3158
46.8254 11.2141
46.8739 11.2306
46.9226 11.1858
46.9712 11.1291
47.0199 11.0847
47.0685 11.0365
47.1173 11.0349
47.1658 10.9745
47.2146 10.9416
47.2632 10.857
47.312 10.8658
47.3606 10.8133
47.4095 10.728
47.4581 10.7351
47.5069 10.6804
47.5556 10.6561
47.6044 10.6197
47.6531 10.5914
47.702 10.5333
47.7507 10.4456
47.7996 10.4766
47.8483 10.4429
47.8972 10.4231
47.9461 10.3643
47.9948 10.3061
48.0438 10.2753
48.0925 10.2438
48.1415 10.1775
48.1902 10.1579
48.2392 10.1514
48.288 10.0998
48.337 10.0431
48.3858 10.0091
48.4348 10.018
48.4837 9.95587
48.5327 9.93068
48.5815 9.8841
48.6306 9.84002
48.6795 9.79533
48.7285 9.73963
48.7774 9.74994
48.8265 9.74652
48.8754 9.6743
48.9245 9.66194
48.9734 9.59672
49.0226 9.53755
49.0715 9.51388
49.1206 9.51064
49.1696 9.45351
49.2188 9.42011
49.2679 9.36052
49.3169 9.30913
49.3661 9.31232
49.4151 9.24582
49.4643 9.22428
49.5134 9.22204
49.5626 9.13394
49.6117 9.13989
49.6609 9.08403
49.71 9.06142
49.7592 9.01373
49.8083 9.00415
49.8576 8.93654
49.9067 8.90962
49.956 8.90541
50.0052 8.85047
50.0545 8.84209
50.1036 8.78299
50.153 8.75465
50.2022 8.74963
50.2515 8.67944
50.3007 8.62102
50.3501 8.59783
50.3993 8.59073
50.4487 8.53348
50.498 8.50908
50.5474 8.45618
50.5966 8.43073
50.6461 8.38492
50.6955 8.3956
50.7448 8.3974
50.7943 8.33564
50.8436 8.2944
50.8931 8.25393
50.9424 8.22644
50.9919 8.18846
51.0413 8.17937
51.0908 8.11749
51.1402 8.10964
51.1897 8.0583
51.2391 8.0884
51.2887 8.0068
51.3381 7.99054
51.3877 7.92164
51.4371 7.88887
51.4867 7.88328
51.5362 7.83778
51.5858 7.81104
51.6353 7.74876
51.6849 7.7478
51.7344 7.69437
51.7841 7.6889
51.8336 7.63941
51.8833 7.59248
51.9328 7.57102
51.9826 7.50743
52.0323 7.52734
52.0818 7.4692
52.1316 7.4324
52.1812 7.42434
52.231 7.40914
52.2806 7.36766
52.3304 7.33485
52.38 7.29153
52.4298 7.26659
52.4794 7.22598
52.5293 7.19212
52.5789 7.18325
52.6288 7.1421
52.6785 7.09109
52.7284 7.07095
52.7781 7.0892
52.828 7.04327
52.8777 7.01719
52.9276 6.95487
52.9774 6.95378
53.0273 6.90405
53.0771 6.8648
53.1271 6.89596
53.1769 6.82587
53.2269 6.7933
53.2767 6.76112
53.3267 6.72019
53.3765 6.70541
53.4266 6.6816
53.4766 6.61638
53.5265 6.60001
53.5765 6.597
53.6264 6.54708
53.6765 6.5135
53.7264 6.51523
53.7765 6.50242
53.8265 6.45822
53.8766 6.44983
53.9266 6.39352
53.9767 6.36485
54.0267 6.34941
54.0769 6.30534
54.1269 6.30041
54.1771 6.25462
54.2271 6.19887
54.2773 6.16948
54.3274 6.13909
54.3776 6.11663
54.4277 6.05402
54.478 6.0372
54.528 6.03072
54.5783 5.94962
54.6285 5.86728
54.6788 5.87946
54.7289 5.8723
54.7792 5.772
54.8296 5.73923
54.8798 5.69051
54.9301 5.67457
54.9803 5.69893
55.0307 5.59281
55.0809 5.52128
55.1314 5.51022
55.1816 5.47359
55.232 5.44314
55.2823 5.39343
55.3328 5.30988
55.383 5.27939
55.4335 5.24853
55.4838 5.16493
55.5344 5.10938
55.5847 5.15739
55.6352 5.0486
55.6856 5.04855
55.7361 4.98755