File: XRD/Ni3Fe_FD0994.xy
TT I
1.27165 7.21705
1.31627 6.73451
1.36089 6.21383
1.40551 6.55447
1.45013 6.39086
1.49476 6.33928
1.53938 5.74519
1.584 5.71617
1.62863 4.90837
1.67325 4.66046
1.71787 5.25621
1.7625 4.64569
1.80712 4.95053
1.85174 4.64992
1.89636 4.84315
1.94099 4.80267
1.98562 4.46299
2.03025 4.19433
2.07487 4.71178
2.11949 4.74096
2.16411 5.18997
2.20874 15.2718
2.25338 26.4117
2.298 6.24308
2.34263 5.99289
2.38725 6.51705
2.43188 6.60216
2.4765 7.01789
2.52115 7.59374
2.56577 8.55003
2.6104 9.09901
2.65503 8.48022
2.69965 8.99772
2.7443 8.83918
2.78893 8.78322
2.83356 9.37442
2.87818 8.66788
2.92281 9.01963
2.96744 9.85181
3.01209 10.5057
3.05672 11.1476
3.10135 12.648
3.14599 13.7285
3.19062 14.5571
3.23527 15.235
3.2799 15.8472
3.32454 16.6583
3.36917 18.0259
3.4138 19.3384
3.45844 19.8943
3.50309 20.6374
3.54773 22.0499
3.59237 23.9357
3.637 103.355
3.68164 66.1081
3.7263 26.3002
3.77094 25.9341
3.81558 27.0205
3.86022 27.6274
3.90486 29.2885
3.9495 29.8795
3.99416 30.519
4.0388 31.4112
4.08344 32.9347
4.12809 33.9984
4.17273 36.7935
4.21738 43.5652
4.26204 282.262
4.30669 253.329
4.35133 49.4795
4.39598 44.3993
4.44063 55.0966
4.4853 68.3717
4.52995 49.7173
4.5746 50.6258
4.61925 52.3335
4.6639 54.4367
4.70855 57.265
4.75322 59.9222
4.79788 62.1664
4.84253 65.9226
4.88719 69.4256
4.93184 73.0628
4.97652 78.3103
5.02118 83.7975
5.06583 90.487
5.11049 100.482
5.15515 169.661
5.19981 267.821
5.24449 2187.7
5.28916 13359.8
5.33382 2742.91
5.37848 173.009
5.42315 123.565
5.46783 110.081
5.5125 102.657
5.55716 99.0374
5.60183 96.1768
5.6465 94.7317
5.69117 91.5656
5.73586 89.7765
5.78053 88.8181
5.8252 87.7521
5.86988 88.8069
5.91455 89.9062
5.95924 94.9711
6.00392 161.645
6.0486 752.884
6.09328 4516.71
6.13795 3226.67
6.18263 214.219
6.22733 89.0169
6.27201 80.9224
6.3167 105.132
6.36138 80.569
6.40606 67.8305
6.45075 65.9943
6.49545 64.3774
6.54014 63.0245
6.58483 62.2598
6.62952 61.8249
6.67421 98.3978
6.71892 157.789
6.76361 69.936
6.8083 57.9277
6.853 56.781
6.89769 56.4769
6.94239 55.7558
6.98711 55.1816
7.03181 54.9556
7.07651 54.8535
7.12121 54.6133
7.16591 54.9423
7.21063 54.9626
7.25533 72.1788
7.30004 197.187
7.34475 99.371
7.38945 56.5087
7.43416 54.1235
7.47889 53.938
7.5236 53.9429
7.56831 54.8124
7.61303 56.4871
7.65774 57.2511
7.70247 55.2083
7.74719 55.0703
7.79191 56.1235
7.83663 56.2782
7.88135 56.7606
7.92607 57.7555
7.97081 58.8685
8.01553 59.6629
8.06026 60.7498
8.10498 62.6045
8.14971 73.3326
8.19446 72.1181
8.23919 68.0789
8.28392 70.3344
8.32865 72.6072
8.37339 75.9331
8.41812 82.9293
8.46288 113.292
8.50761 138.912
8.55235 311.123
8.59709 1108.12
8.64183 2358.81
8.68658 963.803
8.73134 163.023
8.77609 96.6186
8.82083 90.453
8.86558 87.0203
8.91033 88.138
8.9551 91.0298
8.99985 84.0144
9.04461 81.387
9.08936 80.9168
9.13412 80.2113
9.17888 80.4227
9.22365 80.9431
9.26841 80.4395
9.31318 80.9058
9.35794 80.4882
9.4027 81.1242
9.44749 81.9558
9.49226 82.7154
9.53703 83.2049
9.5818 85.5717
9.62657 90.4681
9.67134 97.7748
9.71614 91.6349
9.76091 92.0647
9.80569 93.5906
9.85047 97.3927
9.89525 123.911
9.94005 136.087
9.98484 150.487
10.0296 282.55
10.0744 729.131
10.1192 1770.51
10.164 1585.97
10.2088 372.711
10.2536 123.439
10.2984 110.992
10.3432 113.807
10.388 101.815
10.4328 109.271
10.4776 143.488
10.5224 261.863
10.5672 530.939
10.612 514.051
10.6568 196.707
10.7017 94.5626
10.7465 84.7315
10.7913 81.5976
10.8361 79.3235
10.8809 77.432
10.9257 77.2882
10.9706 77.8866
11.0154 73.5251
11.0602 71.2216
11.105 70.4107
11.1499 75.8629
11.1947 85.091
11.2395 74.1518
11.2844 69.6267
11.3292 66.2106
11.374 64.8684
11.4189 64.169
11.4637 63.8443
11.5086 64.4316
11.5534 68.0028
11.5983 64.827
11.6431 62.8149
11.688 61.7132
11.7328 61.7787
11.7777 61.8595
11.8225 61.1364
11.8674 61.1357
11.9122 61.4302
11.9571 61.6697
12.002 62.1626
12.0468 64.5552
12.0917 74.3532
12.1366 96.9632
12.1814 148.662
12.2263 205.465
12.2712 163.272
12.3161 94.4961
12.3609 70.0932
12.4058 63.6779
12.4507 63.0119
12.4956 63.1403
12.5405 63.0988
12.5853 64.4774
12.6302 73.1392
12.6751 79.4305
12.72 69.3096
12.7649 66.3963
12.8098 66.7449
12.8547 68.1508
12.8996 69.4481
12.9445 70.4587
12.9894 72.0814
13.0343 73.8546
13.0792 76.4224
13.1242 82.7041
13.1691 102.261
13.214 134.073
13.2589 222.784
13.3038 375.645
13.3487 435.737
13.3937 254.588
13.4386 121.086
13.4835 98.6205
13.5285 110.548
13.5734 145.303
13.6183 237.023
13.6633 356.863
13.7082 338.101
13.7531 179.552
13.7981 94.7397
13.843 79.7254
13.888 77.6351
13.9329 75.2562
13.9779 74.3281
14.0228 72.5968
14.0678 71.4515
14.1127 71.0282
14.1577 71.0056
14.2027 69.9967
14.2476 68.7718
14.2926 68.9563
14.3376 70.5343
14.3825 68.8388
14.4275 67.2166
14.4725 67.134
14.5175 67.4665
14.5624 67.3707
14.6074 69.8024
14.6524 70.5157
14.6974 68.8568
14.7424 69.6634
14.7874 74.2713
14.8324 82.7247
14.8774 102.475
14.9224 146.772
14.9674 211.163
15.0124 219.465
15.0574 150.668
15.1024 89.0481
15.1474 70.9775
15.1924 69.2797
15.2374 69.8168
15.2824 69.3714
15.3274 66.7525
15.3725 65.5529
15.4175 64.8837
15.4625 64.7616
15.5076 64.9844
15.5526 64.7741
15.5976 64.2988
15.6426 64.3496
15.6877 68.4783
15.7327 74.5473
15.7778 88.3966
15.8228 118.948
15.8679 170.298
15.9129 196.543
15.958 154.131
16.003 94.1462
16.0481 67.0042
16.0931 63.8128
16.1382 61.6814
16.1833 59.6084
16.2283 57.9425
16.2734 57.1003
16.3185 57.5467
16.3636 58.5
16.4086 56.9922
16.4537 55.2515
16.4988 54.2475
16.5439 54.3729
16.589 54.0544
16.6341 53.7751
16.6792 53.3437
16.7243 53.9057
16.7694 53.6614
16.8145 53.7255
16.8596 54.2585
16.9047 55.8261
16.9498 55.9311
16.9949 54.6363
17.04 54.3481
17.0851 55.2039
17.1302 56.8431
17.1754 59.5225
17.2205 64.5616
17.2656 72.5598
17.3108 81.7866
17.3559 80.2766
17.401 69.0303
17.4462 60.5267
17.4913 57.8434
17.5365 57.7264
17.5815 57.7672
17.6268 58.2059
17.6718 59.0742
17.7171 59.4847
17.7622 59.7552
17.8074 60.2349
17.8525 61.8199
17.8977 65.1615
17.9428 70.0489
17.9881 78.3112
18.0331 95.4695
18.0784 119.669
18.1237 138.424
18.1688 127.585
18.214 99.4393
18.2591 83.1807
18.3044 87.8356
18.3495 99.6263
18.3948 106.213
18.4399 94.4501
18.4852 75.7245
18.5303 64.5119
18.5756 60.8635
18.6207 59.7968
18.666 59.1546
18.7112 58.4154
18.7565 57.5867
18.8016 57.2448
18.8469 56.7878
18.892 56.4696
18.9374 55.9718
18.9825 55.7453
19.0278 55.6685
19.073 55.7179
19.1183 55.8445
19.1635 56.6735
19.2088 57.9615
19.254 59.9978
19.2993 64.8991
19.3447 71.6905
19.3898 75.4598
19.4352 70.9256
19.4804 61.4945
19.5257 55.3952
19.5709 53.036
19.6163 52.7963
19.6615 52.4759
19.7068 51.9686
19.752 52.1338
19.7974 52.4895
19.8426 52.9734
19.888 53.3689
19.9332 54.6229
19.9786 56.8919
20.0238 60.9467
20.0692 66.0942
20.1144 69.0539
20.1598 66.5289
20.205 61.8933
20.2504 60.5911
20.2957 62.9726
20.3411 64.9282
20.3863 62.9719
20.4318 57.2908
20.477 52.3778
20.5224 50.852
20.5677 50.0424
20.6131 49.2661
20.6586 48.6979
20.7038 48.5989
20.7493 48.1927
20.7945 47.9116
20.84 47.9389
20.8853 47.6942
20.9307 47.5421
20.976 47.5075
21.0215 47.6037
21.0668 47.8966
21.1122 48.2653
21.1575 48.9179
21.203 49.8263
21.2483 50.5805
21.2938 50.2912
21.3391 48.8181
21.3846 47.7422
21.4299 47.2819
21.4754 47.1229
21.5207 47.39
21.5662 47.611
21.6116 47.8969
21.6571 48.4253
21.7024 49.4078
21.7479 51.0177
21.7933 53.8026
21.8388 57.7047
21.8843 61.778
21.9297 63.562
21.9752 61.6047
22.0206 57.9376
22.0661 55.4345
22.1115 55.304
22.157 55.0092
22.2024 53.0672
22.248 50.3519
22.2933 48.9195
22.3389 48.296
22.3843 48.0104
22.4299 47.9533
22.4753 47.9529
22.5208 47.5044
22.5662 47.5507
22.6118 47.4977
22.6572 47.7194
22.7028 48.1294
22.7483 48.4148
22.7939 49.0741
22.8393 50.6761
22.8849 52.65
22.9303 55.0877
22.9759 57.1216
23.0214 56.5426
23.067 53.5534
23.1126 49.8905
23.1581 48.0986
23.2037 47.7432
23.2492 47.7035
23.2948 47.6438
23.3403 47.7627
23.3859 48.4012
23.4314 49.3404
23.477 51.3197
23.5225 53.7869
23.5682 56.3933
23.6137 57.1744
23.6593 54.5632
23.7048 50.5655
23.7505 47.2581
23.796 45.7273
23.8417 45.1941
23.8872 44.5686
23.9329 44.4871
23.9784 43.907
24.0241 43.8719
24.0697 43.5912
24.1154 43.3184
24.1609 43.1809
24.2066 42.8318
24.2522 42.8835
24.2979 42.4846
24.3434 42.4479
24.3892 42.2733
24.4349 42.2593
24.4805 42.0871
24.5262 42.2055
24.5718 42.0357
24.6175 42.0248
24.6631 41.8117
24.7089 41.5967
24.7545 41.6483
24.8002 41.2872
24.8458 41.3834
24.8916 41.154
24.9372 41.3222
24.983 41.4638
25.0286 41.8058
25.0744 42.4205
25.12 42.916
25.1658 43.4356
25.2114 43.694
25.2572 43.8914
25.3029 43.9725
25.3487 44.1297
25.3943 43.8482
25.4402 42.6789
25.4858 41.6281
25.5316 40.6873
25.5773 40.0213
25.6231 40.114
25.669 39.7828
25.7147 39.6895
25.7605 39.7309
25.8062 39.6581
25.8521 39.8447
25.8977 39.7809
25.9436 39.9143
25.9893 40.0601
26.0352 40.6163
26.0809 40.8382
26.1268 40.9607
26.1725 40.6063
26.2184 39.9738
26.2641 39.3845
26.31 39.2741
26.3557 39.3549
26.4017 39.1612
26.4474 39.4775
26.4933 39.8743
26.5391 40.4054
26.585 40.8974
26.6308 41.2912
26.6767 41.4418
26.7225 41.1942
26.7684 40.518
26.8142 40.1304
26.8601 39.6893
26.9059 39.1936
26.9519 38.6881
26.9979 38.3366
27.0437 38.0769
27.0896 37.9107
27.1354 37.9303
27.1814 37.7972
27.2272 37.8022
27.2732 37.7602
27.3191 37.6411
27.3651 37.8075
27.4109 37.6431
27.4569 37.6623
27.5027 37.7888
27.5488 37.7975
27.5946 37.7164
27.6407 37.3807
27.6865 37.3076
27.7326 36.9663
27.7784 37.1037
27.8245 36.9738
27.8703 37.1838
27.9164 37.4607
27.9623 37.711
28.0084 38.037
28.0543 38.3795
28.1003 38.2095
28.1462 38.1058
28.1923 37.7863
28.2384 37.2731
28.2843 36.9653
28.3304 36.3407
28.3764 35.936
28.4225 35.677
28.4684 35.4639
28.5145 35.2625
28.5605 35.2585
28.6066 34.9673
28.6526 34.9107
28.6987 34.9587
28.7447 34.8322
28.7908 34.676
28.8368 34.7676
28.8829 34.727
28.9289 34.7685
28.9751 34.4522
29.0211 34.2216
29.0673 34.0894
29.1133 33.9195
29.1595 33.8068
29.2055 33.5911
29.2517 33.4778
29.2977 33.5537
29.3439 33.6754
29.3899 33.6419
29.4361 33.5228
29.4824 33.2875
29.5284 33.0664
29.5746 32.6618
29.6207 32.4723
29.6669 32.4882
29.713 32.2628
29.7593 32.2411
29.8053 32.2559
29.8516 32.2262
29.8977 32.1176
29.9439 31.9982
29.99 31.9389
30.0363 31.7654
30.0824 31.8417
30.1287 31.7103
30.1748 31.8284
30.2211 31.8849
30.2673 31.6987
30.3136 31.7519
30.3597 31.55
30.406 31.5302
30.4522 31.4445
30.4985 31.3535
30.5447 31.4633
30.591 31.5577
30.6372 31.6262
30.6835 31.5286
30.7297 31.7165
30.7761 31.4231
30.8224 31.2333
30.8686 31.2981
30.915 31.019
30.9612 31.0127
31.0076 30.7182
31.0538 30.5458
31.1002 30.4699
31.1464 30.3968
31.1928 30.3181
31.2391 30.3358
31.2855 30.3323
31.3317 30.3537
31.3781 30.3353
31.4244 30.3368
31.4708 30.2216
31.5171 30.1586
31.5636 30.1188
31.6098 29.8531
31.6563 29.7215
31.7026 29.6628
31.7491 29.4345
31.7953 29.6245
31.8418 29.6048
31.8881 29.5873
31.9346 29.5287
31.9809 29.4565
32.0275 29.3542
32.074 29.2305
32.1203 28.9976
32.1668 28.934
32.2132 28.7337
32.2597 28.7293
32.306 28.5908
32.3526 28.3479
32.399 28.3332
32.4455 28.2415
32.4919 28.131
32.5385 28.1578
32.5848 27.8975
32.6314 27.9518
32.6778 27.8565
32.7244 27.7085
32.7708 27.5875
32.8174 27.6199
32.8638 27.3747
32.9104 27.4931
32.9569 27.484
33.0035 27.3218
33.0499 27.3405
33.0966 27.2456
33.143 27.2927
33.1897 27.0665
33.2361 27.0785
33.2828 27.0695
33.3293 26.8563
33.3759 26.7964
33.4226 26.8284
33.4691 26.6021
33.5158 26.5856
33.5623 26.3509
33.609 26.2824
33.6555 26.1739
33.7022 26.0287
33.7487 25.9878
33.7954 26.0722
33.842 25.8823
33.8887 25.8648
33.9353 25.8171
33.982 25.6674
34.0286 25.5939
34.0753 25.5029
34.1219 25.3705
34.1687 25.285
34.2152 25.2892
34.262 25.1925
34.3086 25.0846
34.3554 25.0359
34.402 24.9
34.4488 24.7516
34.4954 24.7523
34.5422 24.6642
34.5889 24.6115
34.6357 24.3926
34.6825 24.4128
34.7292 24.3948
34.776 24.2538
34.8227 24.2547
34.8695 24.2199
34.9162 24.0474
34.9631 23.9484
35.0098 24.0032
35.0566 23.9195
35.1033 23.751
35.1502 23.8068
35.1969 23.7186
35.2438 23.723
35.2906 23.608
35.3375 23.5226
35.3842 23.5244
35.4311 23.5264
35.4779 23.4662
35.5248 23.3121
35.5716 23.3235
35.6185 23.3355
35.6653 23.1273
35.7123 23.0694
35.759 23.0204
35.806 22.8916
35.8528 22.7233
35.8998 22.7535
35.9468 22.6195
35.9936 22.6131
36.0406 22.489
36.0874 22.5545
36.1345 22.4464
36.1813 22.3962
36.2283 22.211
36.2752 22.2701
36.3222 22.2403
36.3691 22.1491
36.4161 21.9901
36.463 21.9954
36.5101 22.0482
36.557 21.9669
36.6041 21.8032
36.651 21.7998
36.6981 21.6722
36.745 21.6302
36.7921 21.5461
36.839 21.4121
36.8861 21.4004
36.9331 21.2619
36.9802 21.2283
37.0272 21.1922
37.0743 21.0475
37.1213 21.0805
37.1684 20.9652
37.2154 20.9436
37.2626 20.8263
37.3098 20.7796
37.3568 20.7108
37.404 20.6074
37.451 20.5865
37.4982 20.5416
37.5452 20.5295
37.5924 20.3586
37.6395 20.3953
37.6867 20.2534
37.7337 20.2065
37.781 20.179
37.8281 20.1323
37.8753 19.9402
37.9224 19.9128
37.9697 19.8766
38.0168 19.8704
38.064 19.7863
38.1111 19.7379
38.1584 19.5922
38.2056 19.5417
38.2529 19.5039
38.3 19.4526
38.3473 19.4473
38.3945 19.295
38.4418 19.2847
38.489 19.2034
38.5363 19.1008
38.5837 19.1134
38.6309 19.0266
38.6782 18.9396
38.7254 18.8855
38.7728 18.7633
38.82 18.7692
38.8674 18.6832
38.9146 18.7167
38.9621 18.5535
39.0093 18.5635
39.0567 18.5167
39.104 18.4454
39.1514 18.3777
39.1987 18.3149
39.2461 18.2881
39.2934 18.1836
39.3409 18.1325
39.3882 18.0879
39.4356 17.9676
39.483 18.0775
39.5304 17.9245
39.5778 17.9087
39.6253 17.8476
39.6726 17.7772
39.7201 17.7432
39.7675 17.6128
39.815 17.576
39.8624 17.5081
39.9099 17.5161
39.9575 17.3545
40.0049 17.4162
40.0525 17.2779
40.0999 17.2594
40.1474 17.1786
40.1949 17.1097
40.2425 17.0777
40.2899 17.0475
40.3375 17.0229
40.385 16.9094
40.4326 16.8632
40.48 16.8152
40.5277 16.81
40.5752 16.6796
40.6228 16.6344
40.6703 16.5964
40.718 16.5573
40.7655 16.497
40.8132 16.4679
40.8607 16.4115
40.9084 16.3626
40.9559 16.3372
41.0036 16.2424
41.0512 16.2297
41.0989 16.2036
41.1465 16.0663
41.1942 16.0462
41.242 15.9583
41.2896 15.8756
41.3373 15.9114
41.3849 15.8161
41.4327 15.7612
41.4803 15.6671
41.5281 15.6555
41.5758 15.575
41.6236 15.514
41.6712 15.5136
41.7191 15.4828
41.7667 15.4104
41.8146 15.3694
41.8622 15.2607
41.9101 15.2213
41.9578 15.1511
42.0057 15.1306
42.0534 15.0361
42.1013 15.0374
42.149 15.0043
42.1969 14.9093
42.2446 14.8806
42.2925 14.8807
42.3403 14.7827
42.3882 14.7545
42.436 14.7072
42.4839 14.625
42.5319 14.6418
42.5797 14.5194
42.6277 14.5095
42.6755 14.4721
42.7235 14.3804
42.7713 14.3266
42.8193 14.288
42.8671 14.2795
42.9152 14.2037
42.963 14.1639
43.0111 14.0903
43.0589 14.0998
43.107 14.027
43.1549 14.0328
43.2029 13.9066
43.2508 13.8777
43.2989 13.8374
43.3468 13.7248
43.3949 13.726
43.4429 13.6955
43.491 13.63
43.5389 13.6052
43.5871 13.5191
43.635 13.4818
43.6832 13.4627
43.7312 13.3825
43.7793 13.3462
43.8273 13.3102
43.8755 13.2539
43.9237 13.2014
43.9717 13.1861
44.0199 13.1107
44.068 13.1039
44.1162 13.0501
44.1642 12.9974
44.2125 12.966
44.2606 12.8757
44.3088 12.8658
44.3569 12.8554
44.4052 12.8003
44.4533 12.714
44.5016 12.6622
44.5497 12.6413
44.598 12.5834
44.6461 12.5026
44.6945 12.4812
44.7426 12.4334
44.791 12.4149
44.8391 12.3662
44.8875 12.3226
44.9357 12.3085
44.984 12.2578
45.0322 12.2473
45.0806 12.1715
45.1288 12.1147
45.1773 12.0562
45.2257 12.0261
45.2739 11.9986
45.3224 11.9895
45.3706 11.897
45.4191 11.8359
45.4673 11.8094
45.5158 11.7326
45.5641 11.7471
45.6126 11.7051
45.6609 11.6267
45.7094 11.6397
45.7577 11.5814
45.8063 11.4742
45.8546 11.5074
45.9031 11.4815
45.9515 11.4097
46.0001 11.3797
46.0484 11.3249
46.097 11.2869
46.1454 11.2509
46.194 11.2513
46.2424 11.1493
46.291 11.1056
46.3395 11.1212
46.3881 11.0154
46.4365 11.0431
46.4852 10.9479
46.5337 10.9322
46.5823 10.899
46.631 10.8311
46.6795 10.8078
46.7282 10.7717
46.7767 10.6986
46.8254 10.6225
46.8739 10.633
46.9226 10.6011
46.9712 10.5123
47.0199 10.4816
47.0685 10.4999
47.1173 10.4251
47.1658 10.3767
47.2146 10.327
47.2632 10.3453
47.312 10.2544
47.3606 10.2594
47.4095 10.1976
47.4581 10.1858
47.5069 10.1397
47.5556 10.0928
47.6044 10.0446
47.6531 9.99863
47.702 9.97674
47.7507 9.96087
47.7996 9.88944
47.8483 9.88126
47.8972 9.82714
47.9461 9.82063
47.9948 9.71969
48.0438 9.73926
48.0925 9.69818
48.1415 9.64269
48.1902 9.62286
48.2392 9.61731
48.288 9.61048
48.337 9.57365
48.3858 9.53481
48.4348 9.42673
48.4837 9.44431
48.5327 9.38507
48.5815 9.33214
48.6306 9.32493
48.6795 9.29637
48.7285 9.28148
48.7774 9.23922
48.8265 9.18443
48.8754 9.19345
48.9245 9.12399
48.9734 9.07919
49.0226 9.06932
49.0715 9.01734
49.1206 8.95056
49.1696 8.93271
49.2188 8.92834
49.2679 8.87447
49.3169 8.78495
49.3661 8.79919
49.4151 8.77773
49.4643 8.78463
49.5134 8.70014
49.5626 8.63633
49.6117 8.64737
49.6609 8.5658
49.71 8.53949
49.7592 8.52668
49.8083 8.47734
49.8576 8.48369
49.9067 8.45542
49.956 8.41432
50.0052 8.35587
50.0545 8.33734
50.1036 8.33423
50.153 8.28129
50.2022 8.29419
50.2515 8.20375
50.3007 8.16927
50.3501 8.12996
50.3993 8.12076
50.4487 8.08859
50.498 8.05899
50.5474 8.05851
50.5966 7.97636
50.6461 7.95176
50.6955 7.96977
50.7448 7.91563
50.7943 7.90219
50.8436 7.85976
50.8931 7.80064
50.9424 7.77929
50.9919 7.77133
51.0413 7.75889
51.0908 7.68193
51.1402 7.66107
51.1897 7.64444
51.2391 7.59366
51.2887 7.57587
51.3381 7.52226
51.3877 7.52472
51.4371 7.49217
51.4867 7.43393
51.5362 7.4407
51.5858 7.41721
51.6353 7.34014
51.6849 7.33354
51.7344 7.32483
51.7841 7.25134
51.8336 7.22763
51.8833 7.20384
51.9328 7.1727
51.9826 7.14436
52.0323 7.11318
52.0818 7.08464
52.1316 7.0497
52.1812 7.01983
52.231 7.02534
52.2806 6.94607
52.3304 6.93285
52.38 6.94195
52.4298 6.89722
52.4794 6.84556
52.5293 6.80513
52.5789 6.82983
52.6288 6.80097
52.6785 6.74098
52.7284 6.70731
52.7781 6.6711
52.828 6.63759
52.8777 6.61832
52.9276 6.60737
52.9774 6.59608
53.0273 6.53565
53.0771 6.48693
53.1271 6.54017
53.1769 6.46585
53.2269 6.43862
53.2767 6.42712
53.3267 6.38522
53.3765 6.34559
53.4266 6.34143
53.4766 6.27039
53.5265 6.26691
53.5765 6.26754
53.6264 6.2561
53.6765 6.21766
53.7264 6.18604
53.7765 6.16051
53.8265 6.15407
53.8766 6.09963
53.9266 6.06645
53.9767 6.06047
54.0267 6.01508
54.0769 5.99947
54.1269 6.00671
54.1771 5.88027
54.2271 5.93021
54.2773 5.87117
54.3274 5.81295
54.3776 5.80403
54.4277 5.8034
54.478 5.75586
54.528 5.66551
54.5783 5.67694
54.6285 5.6642
54.6788 5.5888
54.7289 5.52236
54.7792 5.51357
54.8296 5.45936
54.8798 5.41275
54.9301 5.38637
54.9803 5.35408
55.0307 5.32362
55.0809 5.27458
55.1314 5.25645
55.1816 5.13105
55.232 5.16452
55.2823 5.14062
55.3328 5.0691
55.383 5.00192
55.4335 4.93765
55.4838 4.89632
55.5344 4.86058
55.5847 4.89107
55.6352 4.85831
55.6856 4.79702
55.7361 4.77653