File: XRD/Ni3Fe_FD0206.xy
TT I
1.27165 8.51116
1.31627 7.67315
1.36089 7.32855
1.40551 7.13364
1.45013 6.9575
1.49476 7.75699
1.53938 6.2432
1.584 5.96065
1.62863 6.11036
1.67325 5.74755
1.71787 6.23167
1.7625 5.60754
1.80712 5.41892
1.85174 5.23062
1.89636 5.77871
1.94099 5.60678
1.98562 5.28272
2.03025 4.77716
2.07487 4.78173
2.11949 5.17133
2.16411 4.73937
2.20874 4.4699
2.25338 4.75715
2.298 4.79204
2.34263 4.17062
2.38725 4.203
2.43188 4.65861
2.4765 4.72815
2.52115 5.10364
2.56577 4.83821
2.6104 5.64974
2.65503 5.66154
2.69965 5.86491
2.7443 6.34383
2.78893 7.20963
2.83356 7.08831
2.87818 7.52114
2.92281 8.46643
2.96744 8.73141
3.01209 10.2315
3.05672 11.8858
3.10135 11.9932
3.14599 12.9606
3.19062 14.5419
3.23527 14.9898
3.2799 16.0775
3.32454 16.7327
3.36917 17.9552
3.4138 18.7604
3.45844 19.7247
3.50309 21.0464
3.54773 21.7029
3.59237 22.5876
3.637 23.4795
3.68164 23.8575
3.7263 25.0031
3.77094 26.0208
3.81558 26.6761
3.86022 28.0237
3.90486 29.0022
3.9495 30.2126
3.99416 31.3026
4.0388 32.7052
4.08344 34.4399
4.12809 35.3814
4.17273 36.812
4.21738 38.2231
4.26204 39.3789
4.30669 40.328
4.35133 42.8155
4.39598 44.191
4.44063 46.9121
4.4853 48.7791
4.52995 51.5335
4.5746 53.7533
4.61925 55.4742
4.6639 58.0908
4.70855 61.7948
4.75322 64.6058
4.79788 68.4925
4.84253 71.6696
4.88719 76.6102
4.93184 82.2286
4.97652 89.2236
5.02118 97.5879
5.06583 108.271
5.11049 125.507
5.15515 170.352
5.19981 889.376
5.24449 3956.3
5.28916 10243.0
5.33382 4412.27
5.37848 288.802
5.42315 156.088
5.46783 130.352
5.5125 118.602
5.55716 113.374
5.60183 107.69
5.6465 105.139
5.69117 103.66
5.73586 101.753
5.78053 101.52
5.8252 102.244
5.86988 105.129
5.91455 111.433
5.95924 135.007
6.00392 445.018
6.0486 1436.4
6.09328 3540.57
6.13795 3858.4
6.18263 403.258
6.22733 112.733
6.27201 90.3366
6.3167 81.8908
6.36138 76.9471
6.40606 73.0068
6.45075 70.8174
6.49545 68.8724
6.54014 67.1282
6.58483 65.5194
6.62952 64.7567
6.67421 62.5754
6.71892 61.7612
6.76361 60.9453
6.8083 60.1733
6.853 59.4101
6.89769 58.609
6.94239 58.3187
6.98711 57.5318
7.03181 57.1861
7.07651 56.648
7.12121 56.818
7.16591 56.5142
7.21063 56.0178
7.25533 56.0699
7.30004 56.0929
7.34475 56.0709
7.38945 56.3653
7.43416 55.7387
7.47889 55.4835
7.5236 57.1446
7.56831 58.7868
7.61303 57.7776
7.65774 57.642
7.70247 58.1937
7.74719 58.2226
7.79191 59.2504
7.83663 59.3026
7.88135 60.713
7.92607 61.4537
7.97081 62.8148
8.01553 63.7268
8.06026 65.1756
8.10498 66.9548
8.14971 68.8946
8.19446 70.4471
8.23919 73.4026
8.28392 76.8301
8.32865 79.546
8.37339 85.0475
8.41812 91.0795
8.46288 109.928
8.50761 289.529
8.55235 598.844
8.59709 1039.86
8.64183 1937.5
8.68658 1272.81
8.73134 234.235
8.77609 112.534
8.82083 101.145
8.86558 96.2766
8.91033 93.5224
8.9551 90.8881
8.99985 89.7508
9.04461 88.7583
9.08936 88.4056
9.13412 87.5937
9.17888 87.202
9.22365 88.1426
9.26841 89.5816
9.31318 88.8344
9.35794 88.1442
9.4027 88.5376
9.44749 88.798
9.49226 90.0103
9.53703 91.7971
9.5818 92.6438
9.62657 93.8502
9.67134 95.8537
9.71614 98.0716
9.76091 100.355
9.80569 103.342
9.85047 107.028
9.89525 113.053
9.94005 134.512
9.98484 303.323
10.0296 528.699
10.0744 785.808
10.1192 1413.21
10.164 1735.15
10.2088 602.656
10.2536 154.588
10.2984 118.946
10.3432 113.593
10.388 114.688
10.4328 159.706
10.4776 216.338
10.5224 278.229
10.5672 430.75
10.612 532.703
10.6568 261.885
10.7017 110.56
10.7465 93.1013
10.7913 88.6485
10.8361 86.1218
10.8809 83.1907
10.9257 81.0352
10.9706 79.3616
11.0154 78.0987
11.0602 76.5422
11.105 75.3435
11.1499 73.7164
11.1947 72.5391
11.2395 71.4788
11.2844 70.9498
11.3292 70.1875
11.374 69.5558
11.4189 68.6704
11.4637 67.9369
11.5086 67.2313
11.5534 66.9829
11.5983 66.5069
11.6431 66.6351
11.688 66.082
11.7328 65.894
11.7777 65.7527
11.8225 65.5753
11.8674 65.5336
11.9122 66.3605
11.9571 67.2127
12.002 69.0605
12.0468 79.9807
12.0917 95.9783
12.1366 108.499
12.1814 137.191
12.2263 186.064
12.2712 186.981
12.3161 106.01
12.3609 70.8895
12.4058 67.6486
12.4507 67.4814
12.4956 67.5086
12.5405 67.294
12.5853 68.1812
12.6302 68.4047
12.6751 69.0334
12.72 69.9332
12.7649 71.1562
12.8098 71.9345
12.8547 73.4289
12.8996 75.0642
12.9445 76.7803
12.9894 78.9171
13.0343 80.8776
13.0792 86.2893
13.1242 109.713
13.1691 150.242
13.214 176.011
13.2589 225.507
13.3038 310.759
13.3487 414.102
13.3937 318.807
13.4386 154.003
13.4835 134.93
13.5285 155.932
13.5734 174.136
13.6183 220.535
13.6633 304.02
13.7082 366.182
13.7531 242.616
13.7981 116.408
13.843 88.0913
13.888 84.6445
13.9329 81.7903
13.9779 80.6701
14.0228 78.9774
14.0678 77.1359
14.1127 76.6301
14.1577 76.2615
14.2027 75.3978
14.2476 74.5064
14.2926 73.709
14.3376 73.3545
14.3825 73.0307
14.4275 72.6508
14.4725 72.6284
14.5175 72.9609
14.5624 72.6978
14.6074 73.2065
14.6524 74.0881
14.6974 74.7114
14.7424 80.5737
14.7874 96.177
14.8324 108.388
14.8774 118.767
14.9224 142.657
14.9674 181.565
15.0124 220.746
15.0574 177.7
15.1024 106.39
15.1474 78.0276
15.1924 74.1944
15.2374 72.7208
15.2824 71.8167
15.3274 70.9998
15.3725 70.2974
15.4175 70.257
15.4625 69.7518
15.5076 69.5741
15.5526 69.7067
15.5976 70.0641
15.6426 74.62
15.6877 86.7018
15.7327 96.5403
15.7778 103.506
15.8228 120.804
15.8679 149.838
15.9129 187.135
15.958 177.339
16.003 116.351
16.0481 74.9479
16.0931 66.3538
16.1382 64.3046
16.1833 63.2885
16.2283 61.8766
16.2734 61.0294
16.3185 60.3709
16.3636 59.753
16.4086 59.1104
16.4537 58.8071
16.4988 58.2724
16.5439 58.2136
16.589 57.8584
16.6341 57.6098
16.6792 57.2892
16.7243 57.368
16.7694 57.4937
16.8145 57.2954
16.8596 57.6768
16.9047 57.7458
16.9498 58.0116
16.9949 58.1734
17.04 59.3191
17.0851 62.1381
17.1302 64.1487
17.1754 65.7559
17.2205 68.8417
17.2656 73.1667
17.3108 80.8931
17.3559 85.1057
17.401 78.6725
17.4462 67.7295
17.4913 62.8159
17.5365 62.1877
17.5815 62.46
17.6268 63.0849
17.6718 63.3869
17.7171 63.845
17.7622 65.0738
17.8074 66.4359
17.8525 72.2021
17.8977 79.1129
17.9428 83.3914
17.9881 88.1972
18.0331 98.1128
18.0784 113.052
18.1237 136.666
18.1688 145.43
18.214 122.127
18.2591 95.4111
18.3044 90.1492
18.3495 95.7117
18.3948 106.114
18.4399 103.172
18.4852 85.7061
18.5303 71.0469
18.5756 66.0199
18.6207 64.8175
18.666 63.8346
18.7112 62.8795
18.7565 62.2933
18.8016 61.9364
18.8469 61.0676
18.892 60.779
18.9374 60.2841
18.9825 60.0492
19.0278 59.915
19.073 60.3289
19.1183 61.5349
19.1635 62.4512
19.2088 63.3213
19.254 64.7689
19.2993 67.1677
19.3447 70.8696
19.3898 76.0783
19.4352 76.7542
19.4804 69.5736
19.5257 61.0253
19.5709 57.2353
19.6163 56.7892
19.6615 56.6478
19.7068 56.1674
19.752 56.2326
19.7974 57.1768
19.8426 58.3464
19.888 59.0238
19.9332 59.599
19.9786 61.5683
20.0238 63.7256
20.0692 68.1219
20.1144 72.3247
20.1598 73.6689
20.205 68.7331
20.2504 64.6171
20.2957 64.2682
20.3411 66.5252
20.3863 67.7845
20.4318 63.2929
20.477 57.5548
20.5224 53.9434
20.5677 53.2071
20.6131 52.861
20.6586 52.3427
20.7038 52.0008
20.7493 51.6129
20.7945 51.4365
20.84 51.2395
20.8853 51.3959
20.9307 51.2364
20.976 51.5545
21.0215 51.5756
21.0668 51.8176
21.1122 52.0121
21.1575 52.2699
21.203 52.7251
21.2483 53.4152
21.2938 54.1929
21.3391 53.0045
21.3846 51.822
21.4299 51.0562
21.4754 51.0518
21.5207 51.2857
21.5662 51.9893
21.6116 52.9284
21.6571 53.8188
21.7024 54.5312
21.7479 55.6346
21.7933 57.228
21.8388 59.915
21.8843 63.2812
21.9297 66.6291
21.9752 67.1023
22.0206 63.5849
22.0661 59.05
22.1115 57.8186
22.157 58.1634
22.2024 57.6232
22.248 55.0783
22.2933 52.7647
22.3389 51.5345
22.3843 51.4755
22.4299 51.2382
22.4753 51.1748
22.5208 51.2109
22.5662 51.0946
22.6118 51.566
22.6572 52.1735
22.7028 52.731
22.7483 53.1388
22.7939 53.3947
22.8393 54.3221
22.8849 55.4491
22.9303 56.8801
22.9759 59.0114
23.0214 60.0906
23.067 58.53
23.1126 54.7736
23.1581 52.284
23.2037 51.6858
23.2492 52.0373
23.2948 52.383
23.3403 52.4711
23.3859 52.7215
23.4314 53.3191
23.477 54.0949
23.5225 55.4773
23.5682 57.4211
23.6137 59.5063
23.6593 59.1095
23.7048 55.6564
23.7505 51.7722
23.796 49.2763
23.8417 48.4321
23.8872 47.8036
23.9329 47.5792
23.9784 47.3093
24.0241 47.1383
24.0697 46.6597
24.1154 46.3994
24.1609 46.0019
24.2066 45.948
24.2522 45.9448
24.2979 45.5505
24.3434 45.4491
24.3892 45.45
24.4349 45.3481
24.4805 44.9379
24.5262 45.2107
24.5718 45.0006
24.6175 45.0075
24.6631 45.0475
24.7089 44.5601
24.7545 44.5308
24.8002 44.3787
24.8458 44.619
24.8916 44.4282
24.9372 44.4317
24.983 44.8069
25.0286 45.2094
25.0744 45.3853
25.12 45.6488
25.1658 46.2563
25.2114 46.58
25.2572 46.6958
25.3029 46.4818
25.3487 46.5639
25.3943 46.7808
25.4402 46.054
25.4858 45.0148
25.5316 43.8834
25.5773 43.0641
25.6231 42.9785
25.669 42.6331
25.7147 42.679
25.7605 42.56
25.8062 42.639
25.8521 42.7651
25.8977 42.7078
25.9436 42.7629
25.9893 42.7137
26.0352 43.1221
26.0809 43.2231
26.1268 43.623
26.1725 43.6404
26.2184 43.114
26.2641 42.6649
26.31 42.5498
26.3557 42.2846
26.4017 42.3165
26.4474 42.4836
26.4933 42.6267
26.5391 42.9347
26.585 43.1717
26.6308 43.6063
26.6767 43.9342
26.7225 44.0357
26.7684 43.6935
26.8142 42.8717
26.8601 42.5212
26.9059 42.1714
26.9519 41.5383
26.9979 41.4151
27.0437 40.8807
27.0896 40.7885
27.1354 40.7809
27.1814 40.6042
27.2272 40.4969
27.2732 40.4593
27.3191 40.2783
27.3651 40.4328
27.4109 40.2315
27.4569 40.1825
27.5027 40.41
27.5488 40.6298
27.5946 40.3824
27.6407 40.1899
27.6865 40.1402
27.7326 39.7866
27.7784 39.894
27.8245 39.7681
27.8703 39.8408
27.9164 40.0865
27.9623 40.0638
28.0084 40.3332
28.0543 40.6542
28.1003 40.9137
28.1462 40.7078
28.1923 40.4249
28.2384 39.8532
28.2843 39.5985
28.3304 39.002
28.3764 38.7728
28.4225 38.2442
28.4684 37.9665
28.5145 37.7925
28.5605 37.6567
28.6066 37.4934
28.6526 37.3885
28.6987 37.3695
28.7447 37.2621
28.7908 37.1063
28.8368 37.1179
28.8829 37.0791
28.9289 37.0183
28.9751 36.7565
29.0211 36.7089
29.0673 36.5422
29.1133 36.1657
29.1595 36.16
29.2055 36.0108
29.2517 35.9185
29.2977 35.8309
29.3439 35.8909
29.3899 35.7664
29.4361 35.8617
29.4824 35.6638
29.5284 35.4995
29.5746 35.0672
29.6207 34.7181
29.6669 34.7411
29.713 34.6883
29.7593 34.4764
29.8053 34.5139
29.8516 34.3936
29.8977 34.3489
29.9439 34.247
29.99 34.1383
30.0363 34.0449
30.0824 34.1361
30.1287 33.9184
30.1748 33.9333
30.2211 33.9664
30.2673 33.7455
30.3136 33.9859
30.3597 33.8687
30.406 33.8452
30.4522 33.6773
30.4985 33.6171
30.5447 33.6564
30.591 33.5041
30.6372 33.691
30.6835 33.6579
30.7297 33.7513
30.7761 33.698
30.8224 33.54
30.8686 33.4783
30.915 33.1713
30.9612 33.1419
31.0076 32.8834
31.0538 32.732
31.1002 32.7019
31.1464 32.5303
31.1928 32.4003
31.2391 32.5404
31.2855 32.2939
31.3317 32.3134
31.3781 32.385
31.4244 32.345
31.4708 32.3502
31.5171 32.2723
31.5636 32.3619
31.6098 32.0601
31.6563 31.9686
31.7026 31.8271
31.7491 31.5732
31.7953 31.639
31.8418 31.5731
31.8881 31.5222
31.9346 31.5417
31.9809 31.4198
32.0275 31.43
32.074 31.243
32.1203 31.0545
32.1668 31.0135
32.2132 30.7379
32.2597 30.7027
32.306 30.6295
32.3526 30.3829
32.399 30.3536
32.4455 30.2125
32.4919 30.0431
32.5385 30.0206
32.5848 29.8596
32.6314 29.8334
32.6778 29.8406
32.7244 29.7172
32.7708 29.5674
32.8174 29.5187
32.8638 29.3933
32.9104 29.3965
32.9569 29.3997
33.0035 29.1325
33.0499 29.195
33.0966 29.1565
33.143 29.1206
33.1897 28.9504
33.2361 28.9579
33.2828 28.875
33.3293 28.7408
33.3759 28.6984
33.4226 28.6122
33.4691 28.475
33.5158 28.3501
33.5623 28.211
33.609 28.0834
33.6555 27.9452
33.7022 27.8786
33.7487 27.8507
33.7954 27.7061
33.842 27.7309
33.8887 27.5908
33.9353 27.5737
33.982 27.4107
34.0286 27.3389
34.0753 27.3483
34.1219 27.1448
34.1687 27.009
34.2152 27.0448
34.262 26.8971
34.3086 26.819
34.3554 26.7672
34.402 26.6338
34.4488 26.5102
34.4954 26.4906
34.5422 26.4151
34.5889 26.2803
34.6357 26.2557
34.6825 26.1219
34.7292 26.0193
34.776 25.9722
34.8227 25.8808
34.8695 25.8189
34.9162 25.7577
34.9631 25.7589
35.0098 25.6814
35.0566 25.4548
35.1033 25.5262
35.1502 25.3893
35.1969 25.3017
35.2438 25.2998
35.2906 25.176
35.3375 25.2007
35.3842 25.1534
35.4311 25.0089
35.4779 25.0754
35.5248 24.9792
35.5716 24.9105
35.6185 24.8372
35.6653 24.7229
35.7123 24.6751
35.759 24.6218
35.806 24.4993
35.8528 24.3899
35.8998 24.4194
35.9468 24.1716
35.9936 24.2253
36.0406 24.0684
36.0874 24.1469
36.1345 24.0021
36.1813 23.9554
36.2283 23.7877
36.2752 23.7068
36.3222 23.7736
36.3691 23.7058
36.4161 23.4938
36.463 23.553
36.5101 23.5238
36.557 23.4767
36.6041 23.1585
36.651 23.2747
36.6981 23.1937
36.745 23.1253
36.7921 23.0217
36.839 22.9449
36.8861 22.907
36.9331 22.7817
36.9802 22.7307
37.0272 22.5941
37.0743 22.522
37.1213 22.531
37.1684 22.5221
37.2154 22.3792
37.2626 22.3537
37.3098 22.2705
37.3568 22.1713
37.404 22.1394
37.451 22.038
37.4982 21.9704
37.5452 21.7753
37.5924 21.7633
37.6395 21.885
37.6867 21.6925
37.7337 21.616
37.781 21.5236
37.8281 21.453
37.8753 21.2866
37.9224 21.3189
37.9697 21.2461
38.0168 21.1676
38.064 21.0595
38.1111 21.0931
38.1584 20.9908
38.2056 20.9482
38.2529 20.8366
38.3 20.7682
38.3473 20.7247
38.3945 20.6067
38.4418 20.5612
38.489 20.5484
38.5363 20.4352
38.5837 20.3322
38.6309 20.3037
38.6782 20.2548
38.7254 20.2092
38.7728 20.1458
38.82 20.0878
38.8674 20.0899
38.9146 20.0056
38.9621 19.8548
39.0093 19.8613
39.0567 19.6984
39.104 19.669
39.1514 19.5824
39.1987 19.5079
39.2461 19.4863
39.2934 19.4359
39.3409 19.3229
39.3882 19.3449
39.4356 19.2166
39.483 19.2321
39.5304 19.1063
39.5778 19.0531
39.6253 18.9644
39.6726 19.0009
39.7201 18.896
39.7675 18.8153
39.815 18.8102
39.8624 18.7436
39.9099 18.6866
39.9575 18.6114
40.0049 18.5404
40.0525 18.4445
40.0999 18.4539
40.1474 18.3935
40.1949 18.3123
40.2425 18.25
40.2899 18.2269
40.3375 18.0853
40.385 18.0692
40.4326 17.9765
40.48 17.9568
40.5277 17.9354
40.5752 17.8048
40.6228 17.7435
40.6703 17.7306
40.718 17.6967
40.7655 17.6547
40.8132 17.587
40.8607 17.5815
40.9084 17.5232
40.9559 17.4186
41.0036 17.3549
41.0512 17.318
41.0989 17.2397
41.1465 17.1636
41.1942 17.1258
41.242 17.0775
41.2896 17.0013
41.3373 16.9494
41.3849 16.8994
41.4327 16.8056
41.4803 16.7222
41.5281 16.7481
41.5758 16.6574
41.6236 16.5386
41.6712 16.5417
41.7191 16.4632
41.7667 16.3983
41.8146 16.452
41.8622 16.3173
41.9101 16.2416
41.9578 16.16
42.0057 16.1192
42.0534 16.0877
42.1013 16.0787
42.149 16.0372
42.1969 15.9381
42.2446 15.8492
42.2925 15.8868
42.3403 15.8154
42.3882 15.7259
42.436 15.7052
42.4839 15.5827
42.5319 15.6132
42.5797 15.4889
42.6277 15.4413
42.6755 15.4176
42.7235 15.3498
42.7713 15.3125
42.8193 15.2759
42.8671 15.2308
42.9152 15.1503
42.963 15.104
43.0111 15.0246
43.0589 14.9445
43.107 14.9154
43.1549 14.8515
43.2029 14.8836
43.2508 14.8074
43.2989 14.7863
43.3468 14.7123
43.3949 14.6148
43.4429 14.5812
43.491 14.5363
43.5389 14.4615
43.5871 14.4377
43.635 14.3175
43.6832 14.2971
43.7312 14.2942
43.7793 14.2147
43.8273 14.2122
43.8755 14.1636
43.9237 14.088
43.9717 14.0735
44.0199 14.0064
44.068 13.9196
44.1162 13.9431
44.1642 13.8842
44.2125 13.8393
44.2606 13.7884
44.3088 13.6483
44.3569 13.6549
44.4052 13.6651
44.4533 13.602
44.5016 13.4946
44.5497 13.4632
44.598 13.4532
44.6461 13.3201
44.6945 13.2882
44.7426 13.2996
44.791 13.2041
44.8391 13.1971
44.8875 13.1512
44.9357 13.11
44.984 13.0534
45.0322 13.0161
45.0806 12.9679
45.1288 12.9276
45.1773 12.835
45.2257 12.7868
45.2739 12.758
45.3224 12.688
45.3706 12.6434
45.4191 12.6179
45.4673 12.6055
45.5158 12.5555
45.5641 12.4951
45.6126 12.4468
45.6609 12.4094
45.7094 12.3514
45.7577 12.3097
45.8063 12.2302
45.8546 12.2217
45.9031 12.1863
45.9515 12.118
46.0001 12.1017
46.0484 12.0946
46.097 12.0236
46.1454 12.0171
46.194 11.9414
46.2424 11.8761
46.291 11.8155
46.3395 11.7951
46.3881 11.7361
46.4365 11.7491
46.4852 11.72
46.5337 11.6258
46.5823 11.5987
46.631 11.561
46.6795 11.4851
46.7282 11.5117
46.7767 11.414
46.8254 11.3514
46.8739 11.2858
46.9226 11.2486
46.9712 11.2256
47.0199 11.1932
47.0685 11.1564
47.1173 11.0977
47.1658 11.0763
47.2146 11.061
47.2632 10.9696
47.312 10.9749
47.3606 10.8949
47.4095 10.8464
47.4581 10.8078
47.5069 10.8071
47.5556 10.7917
47.6044 10.7289
47.6531 10.6533
47.702 10.6367
47.7507 10.5806
47.7996 10.5013
47.8483 10.5133
47.8972 10.4907
47.9461 10.4176
47.9948 10.4186
48.0438 10.3815
48.0925 10.3459
48.1415 10.3065
48.1902 10.2501
48.2392 10.2087
48.288 10.2256
48.337 10.124
48.3858 10.1402
48.4348 10.0782
48.4837 10.0461
48.5327 9.97807
48.5815 9.98293
48.6306 9.93421
48.6795 9.91505
48.7285 9.84286
48.7774 9.8351
48.8265 9.76949
48.8754 9.74479
48.9245 9.7218
48.9734 9.68318
49.0226 9.6583
49.0715 9.60967
49.1206 9.56978
49.1696 9.53559
49.2188 9.53803
49.2679 9.47431
49.3169 9.4257
49.3661 9.32372
49.4151 9.33328
49.4643 9.305
49.5134 9.27162
49.5626 9.24211
49.6117 9.19688
49.6609 9.17633
49.71 9.12203
49.7592 9.09381
49.8083 9.08365
49.8576 9.05265
49.9067 8.94523
49.956 8.95502
50.0052 8.89956
50.0545 8.90157
50.1036 8.85437
50.153 8.79995
50.2022 8.792
50.2515 8.72905
50.3007 8.7012
50.3501 8.66955
50.3993 8.66337
50.4487 8.62301
50.498 8.57177
50.5474 8.56216
50.5966 8.4939
50.6461 8.47931
50.6955 8.46699
50.7448 8.43867
50.7943 8.41411
50.8436 8.36858
50.8931 8.30603
50.9424 8.3107
50.9919 8.23532
51.0413 8.23271
51.0908 8.21173
51.1402 8.16561
51.1897 8.14174
51.2391 8.12299
51.2887 8.07339
51.3381 8.00858
51.3877 7.97489
51.4371 7.95412
51.4867 7.90716
51.5362 7.86214
51.5858 7.85981
51.6353 7.81104
51.6849 7.80848
51.7344 7.79208
51.7841 7.74848
51.8336 7.71505
51.8833 7.66835
51.9328 7.62374
51.9826 7.56439
52.0323 7.56017
52.0818 7.52806
52.1316 7.47998
52.1812 7.45827
52.231 7.451
52.2806 7.40975
52.3304 7.39241
52.38 7.34714
52.4298 7.31297
52.4794 7.2512
52.5293 7.249
52.5789 7.22817
52.6288 7.18663
52.6785 7.17589
52.7284 7.1546
52.7781 7.08162
52.828 7.0675
52.8777 7.03805
52.9276 7.01144
52.9774 6.99482
53.0273 6.96875
53.0771 6.92205
53.1271 6.92425
53.1769 6.89262
53.2269 6.80645
53.2767 6.81847
53.3267 6.81816
53.3765 6.75427
53.4266 6.7318
53.4766 6.72208
53.5265 6.66074
53.5765 6.64342
53.6264 6.61183
53.6765 6.58543
53.7264 6.54996
53.7765 6.51832
53.8265 6.44341
53.8766 6.43826
53.9266 6.41831
53.9767 6.37914
54.0267 6.37095
54.0769 6.38281
54.1269 6.33413
54.1771 6.26861
54.2271 6.27192
54.2773 6.17138
54.3274 6.2085
54.3776 6.10075
54.4277 6.10276
54.478 6.06017
54.528 6.02568
54.5783 5.94503
54.6285 5.95322
54.6788 5.89856
54.7289 5.84973
54.7792 5.79991
54.8296 5.77218
54.8798 5.65399
54.9301 5.67228
54.9803 5.6482
55.0307 5.64652
55.0809 5.50517
55.1314 5.55621
55.1816 5.43188
55.232 5.44806
55.2823 5.3612
55.3328 5.28031
55.383 5.21003
55.4335 5.14825
55.4838 5.1469
55.5344 5.10292
55.5847 5.06115
55.6352 5.10292
55.6856 4.99361
55.7361 5.00249