File: XRD/Ni3Fe_FD0479.xy
TT I
1.27165 7.87426
1.31627 7.5207
1.36089 6.74709
1.40551 6.13377
1.45013 6.08144
1.49476 6.31888
1.53938 6.0453
1.584 4.77711
1.62863 5.59531
1.67325 5.37591
1.71787 5.3492
1.7625 5.00525
1.80712 5.2884
1.85174 5.41278
1.89636 4.53206
1.94099 4.78789
1.98562 4.35851
2.03025 4.7124
2.07487 4.47629
2.11949 5.09184
2.16411 4.61142
2.20874 8.5812
2.25338 11.2384
2.298 5.42925
2.34263 5.15463
2.38725 5.32661
2.43188 5.38566
2.4765 6.34383
2.52115 6.52559
2.56577 6.65395
2.6104 7.64928
2.65503 7.20164
2.69965 7.69275
2.7443 7.74121
2.78893 7.32124
2.83356 8.38059
2.87818 8.62447
2.92281 8.95385
2.96744 9.57359
3.01209 10.0096
3.05672 10.9051
3.10135 12.0561
3.14599 12.5838
3.19062 13.6301
3.23527 15.1731
3.2799 15.7887
3.32454 16.9716
3.36917 18.166
3.4138 19.0238
3.45844 19.7195
3.50309 20.6509
3.54773 21.5144
3.59237 23.1145
3.637 51.9347
3.68164 38.5245
3.7263 25.2021
3.77094 26.2853
3.81558 27.0859
3.86022 27.6306
3.90486 29.0053
3.9495 29.9703
3.99416 31.1182
4.0388 32.6044
4.08344 33.5802
4.12809 34.7614
4.17273 36.605
4.21738 40.5393
4.26204 125.289
4.30669 111.879
4.35133 45.08
4.39598 44.2348
4.44063 49.2693
4.4853 55.0382
4.52995 54.338
4.5746 54.937
4.61925 54.6428
4.6639 56.4717
4.70855 59.092
4.75322 62.1917
4.79788 66.9845
4.84253 69.1089
4.88719 74.9446
4.93184 77.7517
4.97652 83.1131
5.02118 89.926
5.06583 98.3766
5.11049 111.812
5.15515 165.348
5.19981 536.71
5.24449 3503.41
5.28916 11741.4
5.33382 2905.01
5.37848 208.198
5.42315 135.396
5.46783 120.778
5.5125 111.579
5.55716 105.026
5.60183 100.409
5.6465 98.2664
5.69117 96.8723
5.73586 95.0656
5.78053 98.2925
5.8252 97.3487
5.86988 99.287
5.91455 99.4884
5.95924 112.366
6.00392 300.064
6.0486 1188.01
6.09328 4250.95
6.13795 3239.61
6.18263 245.491
6.22733 95.2779
6.27201 83.3222
6.3167 87.271
6.36138 76.3076
6.40606 70.8374
6.45075 69.3456
6.49545 66.2444
6.54014 64.6975
6.58483 63.4623
6.62952 63.564
6.67421 74.7126
6.71892 94.5401
6.76361 63.4764
6.8083 59.3258
6.853 59.0106
6.89769 57.543
6.94239 56.799
6.98711 56.3671
7.03181 55.9381
7.07651 55.4964
7.12121 55.2027
7.16591 56.0811
7.21063 55.5475
7.25533 61.8166
7.30004 104.037
7.34475 69.951
7.38945 55.8823
7.43416 54.6779
7.47889 54.4884
7.5236 55.1143
7.56831 55.6695
7.61303 56.4443
7.65774 56.6309
7.70247 57.014
7.74719 57.0622
7.79191 57.4452
7.83663 57.6311
7.88135 58.3367
7.92607 59.234
7.97081 60.4912
8.01553 62.1931
8.06026 63.3087
8.10498 64.7753
8.14971 71.3196
8.19446 71.1665
8.23919 70.8921
8.28392 73.375
8.32865 75.5807
8.37339 80.2657
8.41812 86.5605
8.46288 109.001
8.50761 211.5
8.55235 466.2
8.59709 1240.18
8.64183 2163.12
8.68658 963.45
8.73134 165.383
8.77609 101.528
8.82083 94.3795
8.86558 92.9269
8.91033 92.048
8.9551 90.5951
8.99985 86.6133
9.04461 85.2393
9.08936 84.7503
9.13412 83.6837
9.17888 83.5934
9.22365 83.3023
9.26841 83.3535
9.31318 85.1491
9.35794 86.2261
9.4027 86.0434
9.44749 86.3343
9.49226 86.4677
9.53703 87.2315
9.5818 89.9776
9.62657 93.9145
9.67134 96.0967
9.71614 94.6571
9.76091 96.2413
9.80569 99.9467
9.85047 102.698
9.89525 115.042
9.94005 134.291
9.98484 223.336
10.0296 413.393
10.0744 888.354
10.1192 1709.29
10.164 1611.68
10.2088 403.795
10.2536 129.49
10.2984 112.546
10.3432 111.239
10.388 108.287
10.4328 132.12
10.4776 180.121
10.5224 303.494
10.5672 500.143
10.612 495.784
10.6568 200.541
10.7017 97.3128
10.7465 87.9706
10.7913 84.4125
10.8361 82.0389
10.8809 80.2826
10.9257 78.775
10.9706 78.7672
11.0154 75.7815
11.0602 74.208
11.105 72.6338
11.1499 73.3765
11.1947 75.8903
11.2395 71.9688
11.2844 69.6302
11.3292 68.2329
11.374 67.2508
11.4189 66.5056
11.4637 65.9284
11.5086 65.8127
11.5534 66.459
11.5983 65.0588
11.6431 64.6012
11.688 63.9131
11.7328 63.7442
11.7777 63.5629
11.8225 63.5271
11.8674 63.2585
11.9122 63.4067
11.9571 63.8415
12.002 65.8114
12.0468 72.4655
12.0917 84.0456
12.1366 109.589
12.1814 156.12
12.2263 202.637
12.2712 168.795
12.3161 90.8363
12.3609 68.5632
12.4058 65.3453
12.4507 65.032
12.4956 65.5864
12.5405 65.4931
12.5853 66.2009
12.6302 69.3204
12.6751 72.2776
12.72 69.4694
12.7649 68.761
12.8098 69.4919
12.8547 71.0342
12.8996 72.4206
12.9445 73.8644
12.9894 76.1581
13.0343 77.5826
13.0792 82.1664
13.1242 97.9607
13.1691 122.542
13.214 163.214
13.2589 252.115
13.3038 369.649
13.3487 423.672
13.3937 261.738
13.4386 125.154
13.4835 114.0
13.5285 131.147
13.5734 172.228
13.6183 255.576
13.6633 343.813
13.7082 338.51
13.7531 188.289
13.7981 97.5848
13.843 82.9911
13.888 81.0816
13.9329 78.47
13.9779 76.9358
14.0228 75.7499
14.0678 74.3272
14.1127 73.3018
14.1577 73.2528
14.2027 72.4722
14.2476 71.7456
14.2926 71.299
14.3376 71.307
14.3825 70.8954
14.4275 70.1272
14.4725 69.7582
14.5175 70.2128
14.5624 70.1736
14.6074 71.3179
14.6524 71.8357
14.6974 71.9429
14.7424 76.1667
14.7874 83.8183
14.8324 95.5494
14.8774 118.612
14.9224 157.833
14.9674 203.928
15.0124 215.785
15.0574 148.599
15.1024 90.7478
15.1474 73.2509
15.1924 71.1873
15.2374 70.8281
15.2824 69.8428
15.3274 68.5896
15.3725 67.9583
15.4175 67.7827
15.4625 67.011
15.5076 67.0128
15.5526 67.0805
15.5976 67.0441
15.6426 70.5426
15.6877 76.6081
15.7327 84.8861
15.7778 101.519
15.8228 130.939
15.8679 169.481
15.9129 191.812
15.958 154.517
16.003 95.062
16.0481 68.004
16.0931 64.1284
16.1382 62.5453
16.1833 61.2389
16.2283 59.6687
16.2734 59.124
16.3185 58.8022
16.3636 58.7105
16.4086 57.6316
16.4537 56.8733
16.4988 56.396
16.5439 56.4295
16.589 55.8372
16.6341 55.7242
16.6792 55.5837
16.7243 55.3734
16.7694 55.5433
16.8145 55.5599
16.8596 55.8611
16.9047 56.5349
16.9498 56.692
16.9949 56.436
17.04 57.245
17.0851 58.7932
17.1302 60.3749
17.1754 63.7776
17.2205 68.7119
17.2656 75.3473
17.3108 82.211
17.3559 81.5644
17.401 71.505
17.4462 62.8899
17.4913 60.1257
17.5365 60.0238
17.5815 59.9857
17.6268 60.5608
17.6718 61.241
17.7171 61.8537
17.7622 62.5552
17.8074 64.006
17.8525 67.5013
17.8977 71.4302
17.9428 77.2103
17.9881 86.8024
18.0331 103.24
18.0784 122.549
18.1237 140.611
18.1688 133.279
18.214 105.45
18.2591 88.7996
18.3044 92.2978
18.3495 100.649
18.3948 106.715
18.4399 96.982
18.4852 77.8928
18.5303 66.7676
18.5756 63.2063
18.6207 62.1435
18.666 61.3241
18.7112 60.5116
18.7565 59.9683
18.8016 59.7084
18.8469 58.8779
18.892 58.6948
18.9374 58.1294
18.9825 57.897
19.0278 57.6527
19.073 58.1581
19.1183 58.6224
19.1635 59.2587
19.2088 60.7618
19.254 63.9023
19.2993 67.9249
19.3447 72.6675
19.3898 76.5872
19.4352 73.0832
19.4804 63.7491
19.5257 57.2424
19.5709 54.9631
19.6163 54.8194
19.6615 54.4494
19.7068 54.2157
19.752 54.1807
19.7974 54.8482
19.8426 55.6897
19.888 56.3754
19.9332 57.8946
19.9786 60.2754
20.0238 63.7584
20.0692 67.7316
20.1144 70.7681
20.1598 69.1843
20.205 64.6531
20.2504 62.9983
20.2957 64.2682
20.3411 66.1732
20.3863 64.7094
20.4318 58.6941
20.477 54.0992
20.5224 52.0936
20.5677 51.3656
20.6131 50.8821
20.6586 50.3958
20.7038 50.2491
20.7493 49.8407
20.7945 49.757
20.84 49.6168
20.8853 49.4729
20.9307 49.4732
20.976 49.7074
21.0215 49.3116
21.0668 49.8631
21.1122 50.3783
21.1575 50.8582
21.203 51.5667
21.2483 52.0402
21.2938 52.2176
21.3391 50.6121
21.3846 49.6904
21.4299 49.0799
21.4754 49.1073
21.5207 49.4444
21.5662 49.9739
21.6116 50.4792
21.6571 50.9834
21.7024 52.125
21.7479 54.0486
21.7933 56.7352
21.8388 60.0584
21.8843 63.1673
21.9297 65.5272
21.9752 64.0629
22.0206 60.2369
22.0661 57.1664
22.1115 56.5253
22.157 56.4665
22.2024 54.9693
22.248 52.0553
22.2933 50.6328
22.3389 49.7125
22.3843 49.6463
22.4299 49.3278
22.4753 49.5573
22.5208 49.2602
22.5662 49.4009
22.6118 49.5198
22.6572 49.8963
22.7028 50.2532
22.7483 50.9137
22.7939 51.7249
22.8393 53.129
22.8849 54.8958
22.9303 56.7995
22.9759 58.4421
23.0214 57.9898
23.067 55.1386
23.1126 51.7473
23.1581 49.9228
23.2037 49.5026
23.2492 49.9663
23.2948 49.8344
23.3403 50.2392
23.3859 50.744
23.4314 51.8138
23.477 53.5898
23.5225 55.3771
23.5682 57.3038
23.6137 58.3655
23.6593 55.9011
23.7048 52.2934
23.7505 48.9735
23.796 47.3377
23.8417 46.6773
23.8872 46.3848
23.9329 45.9332
23.9784 45.5566
24.0241 45.3416
24.0697 45.0473
24.1154 44.8552
24.1609 44.5958
24.2066 44.4123
24.2522 44.313
24.2979 43.9416
24.3434 43.8356
24.3892 43.7277
24.4349 43.7648
24.4805 43.5116
24.5262 43.7927
24.5718 43.5999
24.6175 43.6303
24.6631 43.4058
24.7089 43.1807
24.7545 43.0672
24.8002 42.9929
24.8458 42.8056
24.8916 42.7667
24.9372 42.9617
24.983 43.3836
25.0286 43.7799
25.0744 44.122
25.12 44.3955
25.1658 44.948
25.2114 45.3725
25.2572 45.3078
25.3029 45.2963
25.3487 45.5652
25.3943 45.0941
25.4402 44.0288
25.4858 42.9471
25.5316 42.0761
25.5773 41.5878
25.6231 41.6273
25.669 41.1328
25.7147 41.1558
25.7605 41.0975
25.8062 41.2518
25.8521 41.2604
25.8977 41.2138
25.9436 41.6082
25.9893 41.6063
26.0352 42.119
26.0809 42.1766
26.1268 42.283
26.1725 41.9029
26.2184 41.4079
26.2641 40.8612
26.31 40.812
26.3557 40.9027
26.4017 41.0142
26.4474 41.1278
26.4933 41.4697
26.5391 41.8494
26.585 42.3485
26.6308 42.6828
26.6767 42.7498
26.7225 42.5711
26.7684 41.9753
26.8142 41.4435
26.8601 41.0779
26.9059 40.5142
26.9519 40.0897
26.9979 39.8272
27.0437 39.5273
27.0896 39.3079
27.1354 39.2142
27.1814 39.1414
27.2272 39.0391
27.2732 39.2835
27.3191 38.9119
27.3651 39.0876
27.4109 38.8526
27.4569 39.0423
27.5027 39.1923
27.5488 39.1236
27.5946 39.0412
27.6407 38.6781
27.6865 38.6812
27.7326 38.4297
27.7784 38.4963
27.8245 38.4193
27.8703 38.6278
27.9164 38.8861
27.9623 38.9609
28.0084 39.2778
28.0543 39.6659
28.1003 39.5619
28.1462 39.4259
28.1923 38.9752
28.2384 38.4491
28.2843 38.2842
28.3304 37.6027
28.3764 37.3142
28.4225 36.853
28.4684 36.9309
28.5145 36.4401
28.5605 36.3382
28.6066 36.3053
28.6526 36.2468
28.6987 36.1926
28.7447 36.0046
28.7908 35.8829
28.8368 35.8425
28.8829 35.9428
28.9289 35.8828
28.9751 35.7127
29.0211 35.4495
29.0673 35.1513
29.1133 35.0432
29.1595 34.9195
29.2055 34.8751
29.2517 34.7588
29.2977 34.7381
29.3439 34.7035
29.3899 34.6994
29.4361 34.6594
29.4824 34.4737
29.5284 34.2683
29.5746 33.8949
29.6207 33.6678
29.6669 33.5694
29.713 33.4767
29.7593 33.345
29.8053 33.3944
29.8516 33.2381
29.8977 33.3287
29.9439 33.1118
29.99 33.0652
30.0363 32.9193
30.0824 32.9347
30.1287 32.939
30.1748 32.8483
30.2211 32.9041
30.2673 32.7033
30.3136 32.8373
30.3597 32.7724
30.406 32.6942
30.4522 32.552
30.4985 32.5463
30.5447 32.6355
30.591 32.4829
30.6372 32.6765
30.6835 32.6119
30.7297 32.6663
30.7761 32.6247
30.8224 32.4892
30.8686 32.323
30.915 32.255
30.9612 31.9441
31.0076 31.6612
31.0538 31.6917
31.1002 31.5381
31.1464 31.3746
31.1928 31.4275
31.2391 31.4203
31.2855 31.3284
31.3317 31.3527
31.3781 31.3442
31.4244 31.3715
31.4708 31.309
31.5171 31.3026
31.5636 31.1069
31.6098 31.0464
31.6563 30.8085
31.7026 30.7382
31.7491 30.5412
31.7953 30.6029
31.8418 30.5254
31.8881 30.5769
31.9346 30.5356
31.9809 30.5318
32.0275 30.3589
32.074 30.3465
32.1203 30.1077
32.1668 29.9841
32.2132 29.8372
32.2597 29.7697
32.306 29.6383
32.3526 29.4448
32.399 29.3802
32.4455 29.197
32.4919 29.1362
32.5385 29.0639
32.5848 28.9336
32.6314 28.9152
32.6778 28.8036
32.7244 28.59
32.7708 28.6032
32.8174 28.5263
32.8638 28.4964
32.9104 28.5398
32.9569 28.4219
33.0035 28.2468
33.0499 28.2471
33.0966 28.181
33.143 28.2609
33.1897 28.0947
33.2361 27.9227
33.2828 28.0063
33.3293 27.8184
33.3759 27.7379
33.4226 27.5932
33.4691 27.4991
33.5158 27.4242
33.5623 27.3257
33.609 27.1559
33.6555 27.0294
33.7022 26.8446
33.7487 26.8498
33.7954 26.8887
33.842 26.7491
33.8887 26.7502
33.9353 26.7371
33.982 26.5951
34.0286 26.45
34.0753 26.4633
34.1219 26.3202
34.1687 26.2193
34.2152 26.1414
34.262 26.043
34.3086 25.8866
34.3554 25.967
34.402 25.7818
34.4488 25.7002
34.4954 25.5933
34.5422 25.5499
34.5889 25.4175
34.6357 25.324
34.6825 25.1742
34.7292 25.236
34.776 25.1082
34.8227 24.9943
34.8695 25.0396
34.9162 24.9162
34.9631 24.8315
35.0098 24.9248
35.0566 24.7048
35.1033 24.6507
35.1502 24.672
35.1969 24.5024
35.2438 24.5552
35.2906 24.4229
35.3375 24.4483
35.3842 24.3599
35.4311 24.337
35.4779 24.2996
35.5248 24.1921
35.5716 24.0858
35.6185 24.0159
35.6653 23.8773
35.7123 23.8953
35.759 23.8056
35.806 23.6918
35.8528 23.521
35.8998 23.5045
35.9468 23.4848
35.9936 23.3723
36.0406 23.3553
36.0874 23.2979
36.1345 23.1992
36.1813 23.1237
36.2283 23.055
36.2752 22.9412
36.3222 23.0201
36.3691 22.8682
36.4161 22.8116
36.463 22.7427
36.5101 22.7891
36.557 22.6704
36.6041 22.5436
36.651 22.5045
36.6981 22.4788
36.745 22.3366
36.7921 22.3209
36.839 22.1888
36.8861 22.1717
36.9331 21.9793
36.9802 21.9754
37.0272 21.9208
37.0743 21.8589
37.1213 21.8622
37.1684 21.7426
37.2154 21.6564
37.2626 21.5798
37.3098 21.4255
37.3568 21.4413
37.404 21.3257
37.451 21.267
37.4982 21.3006
37.5452 21.1408
37.5924 21.0514
37.6395 21.1135
37.6867 21.0402
37.7337 20.922
37.781 20.7985
37.8281 20.7167
37.8753 20.6989
37.9224 20.6354
37.9697 20.6006
38.0168 20.45
38.064 20.4223
38.1111 20.3516
38.1584 20.3184
38.2056 20.2374
38.2529 20.2783
38.3 20.1544
38.3473 20.0487
38.3945 19.8822
38.4418 19.9269
38.489 19.8715
38.5363 19.8015
38.5837 19.7316
38.6309 19.6863
38.6782 19.6672
38.7254 19.5387
38.7728 19.4945
38.82 19.4228
38.8674 19.3464
38.9146 19.294
38.9621 19.2593
39.0093 19.1821
39.0567 19.142
39.104 19.0687
39.1514 18.9834
39.1987 18.9438
39.2461 18.8303
39.2934 18.8874
39.3409 18.7525
39.3882 18.6991
39.4356 18.6606
39.483 18.5764
39.5304 18.5136
39.5778 18.5049
39.6253 18.3981
39.6726 18.3043
39.7201 18.3489
39.7675 18.2139
39.815 18.1793
39.8624 18.0383
39.9099 18.1557
39.9575 17.9682
40.0049 17.9203
40.0525 17.8602
40.0999 17.8545
40.1474 17.819
40.1949 17.711
40.2425 17.6404
40.2899 17.5798
40.3375 17.5525
40.385 17.4643
40.4326 17.4244
40.48 17.2999
40.5277 17.3456
40.5752 17.3154
40.6228 17.2222
40.6703 17.1462
40.718 17.0936
40.7655 17.045
40.8132 16.9878
40.8607 16.9579
40.9084 16.8978
40.9559 16.8336
41.0036 16.8011
41.0512 16.7289
41.0989 16.711
41.1465 16.5633
41.1942 16.561
41.242 16.498
41.2896 16.3881
41.3373 16.3561
41.3849 16.3479
41.4327 16.3079
41.4803 16.2073
41.5281 16.2058
41.5758 16.0587
41.6236 16.0113
41.6712 15.9705
41.7191 15.9307
41.7667 15.896
41.8146 15.8581
41.8622 15.7293
41.9101 15.8075
41.9578 15.6574
42.0057 15.6589
42.0534 15.6446
42.1013 15.5216
42.149 15.4934
42.1969 15.401
42.2446 15.352
42.2925 15.3142
42.3403 15.2362
42.3882 15.2356
42.436 15.1826
42.4839 15.0756
42.5319 15.0719
42.5797 15.0448
42.6277 14.9586
42.6755 14.963
42.7235 14.8366
42.7713 14.8385
42.8193 14.7684
42.8671 14.7398
42.9152 14.6633
42.963 14.6236
43.0111 14.5317
43.0589 14.5239
43.107 14.4608
43.1549 14.4281
43.2029 14.3353
43.2508 14.3035
43.2989 14.2314
43.3468 14.1905
43.3949 14.1905
43.4429 14.1067
43.491 14.0785
43.5389 13.9896
43.5871 13.9897
43.635 13.9048
43.6832 13.9007
43.7312 13.7923
43.7793 13.7901
43.8273 13.7331
43.8755 13.666
43.9237 13.6716
43.9717 13.5839
44.0199 13.5144
44.068 13.5427
44.1162 13.4177
44.1642 13.4255
44.2125 13.3878
44.2606 13.2828
44.3088 13.3178
44.3569 13.1847
44.4052 13.1615
44.4533 13.128
44.5016 13.0561
44.5497 13.0087
44.598 12.9801
44.6461 12.9601
44.6945 12.888
44.7426 12.8463
44.791 12.7443
44.8391 12.7822
44.8875 12.6486
44.9357 12.7166
44.984 12.5659
45.0322 12.5782
45.0806 12.5688
45.1288 12.4778
45.1773 12.4357
45.2257 12.4541
45.2739 12.3376
45.3224 12.3495
45.3706 12.3152
45.4191 12.2047
45.4673 12.213
45.5158 12.1296
45.5641 12.0679
45.6126 11.9871
45.6609 12.005
45.7094 12.0052
45.7577 11.8955
45.8063 11.8506
45.8546 11.8529
45.9031 11.7868
45.9515 11.757
46.0001 11.7402
46.0484 11.6884
46.097 11.6468
46.1454 11.6455
46.194 11.5708
46.2424 11.5175
46.291 11.4929
46.3395 11.4408
46.3881 11.3929
46.4365 11.3562
46.4852 11.3071
46.5337 11.2807
46.5823 11.2316
46.631 11.1671
46.6795 11.1414
46.7282 11.0909
46.7767 11.062
46.8254 10.9977
46.8739 10.9809
46.9226 10.9159
46.9712 10.901
47.0199 10.8572
47.0685 10.7635
47.1173 10.7515
47.1658 10.7475
47.2146 10.7119
47.2632 10.6465
47.312 10.5847
47.3606 10.5419
47.4095 10.5287
47.4581 10.5051
47.5069 10.4606
47.5556 10.4179
47.6044 10.3569
47.6531 10.3361
47.702 10.3094
47.7507 10.2612
47.7996 10.2184
47.8483 10.1832
47.8972 10.1187
47.9461 10.1071
47.9948 10.0603
48.0438 10.0513
48.0925 10.0238
48.1415 9.99071
48.1902 9.92611
48.2392 9.92135
48.288 9.84153
48.337 9.8366
48.3858 9.74477
48.4348 9.73219
48.4837 9.73474
48.5327 9.70503
48.5815 9.63126
48.6306 9.64625
48.6795 9.58363
48.7285 9.55064
48.7774 9.52791
48.8265 9.52507
48.8754 9.45227
48.9245 9.4191
48.9734 9.33597
49.0226 9.35467
49.0715 9.28581
49.1206 9.25604
49.1696 9.20308
49.2188 9.16819
49.2679 9.14578
49.3169 9.11283
49.3661 9.0867
49.4151 9.03636
49.4643 9.03207
49.5134 8.98337
49.5626 8.88625
49.6117 8.89828
49.6609 8.85155
49.71 8.82421
49.7592 8.82232
49.8083 8.77573
49.8576 8.81746
49.9067 8.68607
49.956 8.66904
50.0052 8.65909
50.0545 8.62689
50.1036 8.57976
50.153 8.55189
50.2022 8.49874
50.2515 8.46361
50.3007 8.40313
50.3501 8.39812
50.3993 8.35923
50.4487 8.34786
50.498 8.28888
50.5474 8.28974
50.5966 8.25534
50.6461 8.21849
50.6955 8.18578
50.7448 8.15313
50.7943 8.12725
50.8436 8.1279
50.8931 8.03884
50.9424 8.02282
50.9919 8.0077
51.0413 7.95813
51.0908 7.90863
51.1402 7.89646
51.1897 7.85919
51.2391 7.84147
51.2887 7.77544
51.3381 7.74896
51.3877 7.72725
51.4371 7.68354
51.4867 7.70457
51.5362 7.64768
51.5858 7.61505
51.6353 7.55259
51.6849 7.57759
51.7344 7.52306
51.7841 7.52047
51.8336 7.45336
51.8833 7.42788
51.9328 7.3917
51.9826 7.35857
52.0323 7.30238
52.0818 7.27663
52.1316 7.25924
52.1812 7.24917
52.231 7.19833
52.2806 7.16667
52.3304 7.19708
52.38 7.13485
52.4298 7.09219
52.4794 7.06869
52.5293 7.00391
52.5789 6.99838
52.6288 7.00285
52.6785 6.95846
52.7284 6.92274
52.7781 6.88044
52.828 6.86488
52.8777 6.82769
52.9276 6.79128
52.9774 6.78368
53.0273 6.73579
53.0771 6.72774
53.1271 6.6852
53.1769 6.65019
53.2269 6.63547
53.2767 6.59757
53.3267 6.58917
53.3765 6.54224
53.4266 6.4865
53.4766 6.49533
53.5265 6.48121
53.5765 6.43057
53.6264 6.42431
53.6765 6.3803
53.7264 6.36688
53.7765 6.34684
53.8265 6.29069
53.8766 6.23088
53.9266 6.23675
53.9767 6.22301
54.0267 6.22114
54.0769 6.17779
54.1269 6.1079
54.1771 6.03614
54.2271 6.06064
54.2773 6.04714
54.3274 5.95998
54.3776 5.98737
54.4277 5.95787
54.478 5.89664
54.528 5.89671
54.5783 5.84702
54.6285 5.79515
54.6788 5.76042
54.7289 5.72829
54.7792 5.67994
54.8296 5.61045
54.8798 5.6173
54.9301 5.56982
54.9803 5.48147
55.0307 5.50688
55.0809 5.44803
55.1314 5.45705
55.1816 5.38748
55.232 5.2987
55.2823 5.29997
55.3328 5.22222
55.383 5.19879
55.4335 5.15681
55.4838 5.06862
55.5344 4.99575
55.5847 4.99596
55.6352 4.97553
55.6856 4.91793
55.7361 4.86119