File: XRD/Ni3Fe_FD0962.xy
TT I
1.27165 7.24203
1.31627 7.11943
1.36089 6.39667
1.40551 5.94456
1.45013 6.61006
1.49476 5.53339
1.53938 5.59951
1.584 5.25758
1.62863 5.56484
1.67325 4.90889
1.71787 4.90089
1.7625 4.73995
1.80712 5.22213
1.85174 4.64765
1.89636 4.47897
1.94099 5.42293
1.98562 4.58026
2.03025 4.67757
2.07487 4.78134
2.11949 5.44221
2.16411 4.91533
2.20874 12.6293
2.25338 20.2599
2.298 5.6003
2.34263 5.98587
2.38725 6.85062
2.43188 6.62122
2.4765 7.82954
2.52115 7.2474
2.56577 8.21903
2.6104 8.18487
2.65503 8.43204
2.69965 8.80937
2.7443 8.58328
2.78893 8.73025
2.83356 9.30939
2.87818 9.07023
2.92281 9.22417
2.96744 9.64722
3.01209 10.7189
3.05672 11.2071
3.10135 12.5916
3.14599 13.1063
3.19062 14.8758
3.23527 15.6022
3.2799 15.3633
3.32454 16.8048
3.36917 17.9076
3.4138 19.2461
3.45844 19.5386
3.50309 20.7323
3.54773 21.7025
3.59237 23.5428
3.637 79.8664
3.68164 52.2612
3.7263 26.022
3.77094 25.8955
3.81558 26.4017
3.86022 27.3712
3.90486 28.7499
3.9495 29.7409
3.99416 30.6378
4.0388 32.1927
4.08344 33.6321
4.12809 34.3152
4.17273 36.7516
4.21738 42.1274
4.26204 214.156
4.30669 184.635
4.35133 46.7183
4.39598 43.8759
4.44063 52.5943
4.4853 61.4688
4.52995 50.3705
4.5746 51.1992
4.61925 52.9392
4.6639 54.5207
4.70855 57.6638
4.75322 60.236
4.79788 62.8949
4.84253 66.8647
4.88719 71.1329
4.93184 74.0618
4.97652 79.3904
5.02118 84.8544
5.06583 92.0274
5.11049 102.179
5.15515 158.992
5.19981 286.391
5.24449 2505.87
5.28916 13506.1
5.33382 2846.45
5.37848 173.45
5.42315 124.277
5.46783 111.093
5.5125 103.919
5.55716 100.234
5.60183 96.7794
5.6465 95.1061
5.69117 92.6007
5.73586 90.4215
5.78053 90.4065
5.8252 89.9459
5.86988 90.0993
5.91455 91.3064
5.95924 97.2861
6.00392 178.233
6.0486 836.776
6.09328 4627.78
6.13795 3135.04
6.18263 211.506
6.22733 88.9601
6.27201 80.5497
6.3167 95.7726
6.36138 77.3562
6.40606 68.2068
6.45075 66.4907
6.49545 64.7143
6.54014 62.9384
6.58483 62.2521
6.62952 61.7826
6.67421 88.6733
6.71892 126.81
6.76361 66.1815
6.8083 57.7822
6.853 56.9405
6.89769 55.8584
6.94239 55.852
6.98711 55.0224
7.03181 54.5783
7.07651 55.1934
7.12121 54.3695
7.16591 54.4959
7.21063 54.6985
7.25533 68.0452
7.30004 155.509
7.34475 83.5087
7.38945 55.1382
7.43416 53.6224
7.47889 53.9818
7.5236 53.8685
7.56831 54.5022
7.61303 55.9363
7.65774 55.9649
7.70247 55.076
7.74719 55.2794
7.79191 55.8695
7.83663 56.0622
7.88135 56.8164
7.92607 57.7211
7.97081 58.5288
8.01553 59.934
8.06026 61.3184
8.10498 63.1696
8.14971 71.3364
8.19446 70.2027
8.23919 68.7216
8.28392 70.4694
8.32865 72.3108
8.37339 76.635
8.41812 83.1288
8.46288 107.061
8.50761 145.529
8.55235 343.425
8.59709 1166.57
8.64183 2255.96
8.68658 904.748
8.73134 155.575
8.77609 96.7473
8.82083 90.87
8.86558 88.1117
8.91033 88.431
8.9551 89.1504
8.99985 83.785
9.04461 81.9027
9.08936 81.8615
9.13412 80.7914
9.17888 80.9218
9.22365 81.7126
9.26841 80.8881
9.31318 81.6401
9.35794 81.7285
9.4027 82.1776
9.44749 82.4951
9.49226 83.4459
9.53703 83.8548
9.5818 86.1885
9.62657 90.4439
9.67134 95.1663
9.71614 91.825
9.76091 92.0426
9.80569 94.7793
9.85047 97.9429
9.89525 118.178
9.94005 128.195
9.98484 159.078
10.0296 306.613
10.0744 789.951
10.1192 1811.25
10.164 1532.6
10.2088 357.625
10.2536 122.154
10.2984 109.975
10.3432 110.802
10.388 101.891
10.4328 111.66
10.4776 151.049
10.5224 277.025
10.5672 525.212
10.612 495.29
10.6568 194.519
10.7017 93.9451
10.7465 84.717
10.7913 81.7753
10.8361 79.8361
10.8809 77.568
10.9257 76.7594
10.9706 77.1283
11.0154 73.2954
11.0602 71.4609
11.105 70.81
11.1499 74.2137
11.1947 79.7411
11.2395 72.1976
11.2844 68.7401
11.3292 65.8541
11.374 64.8733
11.4189 64.5429
11.4637 63.5827
11.5086 64.2438
11.5534 66.5044
11.5983 63.8196
11.6431 62.5456
11.688 61.9465
11.7328 61.6579
11.7777 61.6761
11.8225 61.6183
11.8674 61.2574
11.9122 61.7092
11.9571 61.6551
12.002 62.3177
12.0468 65.45
12.0917 75.3943
12.1366 99.4364
12.1814 155.946
12.2263 205.509
12.2712 162.027
12.3161 94.2543
12.3609 68.5944
12.4058 63.0595
12.4507 62.9649
12.4956 63.1733
12.5405 63.2163
12.5853 64.3198
12.6302 70.728
12.6751 74.961
12.72 68.2976
12.7649 66.3814
12.8098 66.8264
12.8547 68.3043
12.8996 69.6669
12.9445 70.9814
12.9894 72.5386
13.0343 74.2079
13.0792 77.12
13.1242 84.3475
13.1691 104.743
13.214 140.623
13.2589 237.562
13.3038 384.229
13.3487 422.31
13.3937 246.01
13.4386 118.511
13.4835 100.323
13.5285 113.972
13.5734 151.929
13.6183 249.184
13.6633 357.198
13.7082 324.478
13.7531 176.614
13.7981 94.6808
13.843 80.1221
13.888 78.0245
13.9329 75.5175
13.9779 74.4217
14.0228 72.8515
14.0678 71.624
14.1127 71.2844
14.1577 71.2284
14.2027 70.0335
14.2476 68.9802
14.2926 69.2012
14.3376 70.0159
14.3825 68.7412
14.4275 67.4755
14.4725 67.3139
14.5175 67.4944
14.5624 67.7397
14.6074 69.5788
14.6524 70.157
14.6974 68.9411
14.7424 70.1948
14.7874 75.6173
14.8324 85.0568
14.8774 106.821
14.9224 154.331
14.9674 214.448
15.0124 215.813
15.0574 144.432
15.1024 86.9903
15.1474 70.7399
15.1924 68.9874
15.2374 69.4719
15.2824 68.5423
15.3274 66.6188
15.3725 65.4825
15.4175 65.2729
15.4625 64.8843
15.5076 64.8977
15.5526 64.8038
15.5976 64.2857
15.6426 65.0198
15.6877 69.1894
15.7327 76.3416
15.7778 91.6746
15.8228 125.348
15.8679 174.511
15.9129 193.92
15.958 148.235
16.003 92.2023
16.0481 66.37
16.0931 62.8761
16.1382 61.1694
16.1833 59.404
16.2283 57.9029
16.2734 57.3903
16.3185 57.4002
16.3636 57.9449
16.4086 56.3271
16.4537 55.0137
16.4988 54.5001
16.5439 54.4399
16.589 54.1597
16.6341 53.7564
16.6792 53.3595
16.7243 53.7617
16.7694 53.8979
16.8145 53.6689
16.8596 54.2697
16.9047 55.4269
16.9498 55.5798
16.9949 54.5581
17.04 54.5935
17.0851 55.598
17.1302 57.2454
17.1754 60.2111
17.2205 65.3706
17.2656 74.3798
17.3108 82.7109
17.3559 79.8533
17.401 69.1009
17.4462 60.6124
17.4913 57.9051
17.5365 57.8437
17.5815 58.0912
17.6268 58.4443
17.6718 59.2384
17.7171 59.8479
17.7622 59.8919
17.8074 60.5793
17.8525 62.4303
17.8977 66.0775
17.9428 71.26
17.9881 79.9747
18.0331 99.1768
18.0784 122.942
18.1237 137.182
18.1688 124.943
18.214 98.914
18.2591 84.2316
18.3044 90.0182
18.3495 100.651
18.3948 104.657
18.4399 93.0664
18.4852 75.0207
18.5303 64.3893
18.5756 60.8513
18.6207 60.0389
18.666 59.2291
18.7112 58.4748
18.7565 57.6604
18.8016 57.4313
18.8469 56.9897
18.892 56.5296
18.9374 56.2505
18.9825 55.9
19.0278 55.9661
19.073 55.7443
19.1183 56.1677
19.1635 56.7341
19.2088 58.0289
19.254 60.8749
19.2993 65.7474
19.3447 71.7664
19.3898 74.5664
19.4352 70.0732
19.4804 61.3804
19.5257 55.4489
19.5709 53.1576
19.6163 52.9365
19.6615 52.86
19.7068 52.2524
19.752 52.3119
19.7974 52.5518
19.8426 53.1543
19.888 53.689
19.9332 55.1321
19.9786 57.8333
20.0238 61.9549
20.0692 66.7836
20.1144 68.707
20.1598 66.1221
20.205 61.87
20.2504 61.2848
20.2957 63.7953
20.3411 64.7491
20.3863 62.3716
20.4318 57.0321
20.477 52.3579
20.5224 50.5275
20.5677 49.8909
20.6131 49.2792
20.6586 48.7682
20.7038 48.6838
20.7493 48.0905
20.7945 48.0808
20.84 47.9502
20.8853 47.7986
20.9307 47.5527
20.976 47.67
21.0215 47.7885
21.0668 48.0302
21.1122 48.4821
21.1575 49.058
21.203 49.9039
21.2483 50.4806
21.2938 50.3124
21.3391 48.9365
21.3846 48.0791
21.4299 47.3558
21.4754 47.3813
21.5207 47.468
21.5662 48.0135
21.6116 48.2632
21.6571 48.7077
21.7024 49.6454
21.7479 51.4569
21.7933 54.3548
21.8388 58.3704
21.8843 62.28
21.9297 63.4517
21.9752 61.4176
22.0206 57.9514
22.0661 55.5631
22.1115 55.2693
22.157 54.7313
22.2024 52.9497
22.248 50.4617
22.2933 48.9841
22.3389 48.0627
22.3843 47.9698
22.4299 47.8071
22.4753 48.0613
22.5208 47.6274
22.5662 47.5118
22.6118 47.7585
22.6572 47.8649
22.7028 48.2349
22.7483 48.5897
22.7939 49.2529
22.8393 50.989
22.8849 53.3675
22.9303 55.5285
22.9759 56.8553
23.0214 56.0894
23.067 53.1399
23.1126 49.8892
23.1581 48.1321
23.2037 47.8339
23.2492 47.8785
23.2948 48.0094
23.3403 48.0287
23.3859 48.6762
23.4314 49.8493
23.477 51.797
23.5225 54.1985
23.5682 56.3886
23.6137 56.8301
23.6593 54.1325
23.7048 50.5077
23.7505 47.387
23.796 45.7082
23.8417 45.2114
23.8872 44.7444
23.9329 44.3243
23.9784 44.163
24.0241 43.9141
24.0697 43.573
24.1154 43.3566
24.1609 43.1797
24.2066 43.0852
24.2522 42.8681
24.2979 42.6621
24.3434 42.492
24.3892 42.5163
24.4349 42.4093
24.4805 42.1118
24.5262 42.3567
24.5718 42.2275
24.6175 42.2265
24.6631 41.9745
24.7089 41.7248
24.7545 41.7013
24.8002 41.5025
24.8458 41.4391
24.8916 41.2368
24.9372 41.433
24.983 41.7186
25.0286 42.1341
25.0744 42.4979
25.12 42.9425
25.1658 43.5495
25.2114 43.7778
25.2572 44.0954
25.3029 44.1618
25.3487 44.3218
25.3943 43.7907
25.4402 42.5336
25.4858 41.5413
25.5316 40.5226
25.5773 40.2442
25.6231 40.3105
25.669 39.8301
25.7147 39.8492
25.7605 39.7627
25.8062 39.6938
25.8521 39.7602
25.8977 39.8737
25.9436 39.9864
25.9893 40.3842
26.0352 40.8164
26.0809 40.8281
26.1268 40.9624
26.1725 40.4923
26.2184 39.8401
26.2641 39.5764
26.31 39.2035
26.3557 39.3409
26.4017 39.3911
26.4474 39.7979
26.4933 39.9046
26.5391 40.5737
26.585 41.044
26.6308 41.3752
26.6767 41.4039
26.7225 41.1176
26.7684 40.6966
26.8142 40.2167
26.8601 39.5958
26.9059 39.3388
26.9519 38.6707
26.9979 38.4448
27.0437 38.0924
27.0896 37.8972
27.1354 38.0504
27.1814 37.8147
27.2272 37.7798
27.2732 37.8637
27.3191 37.5425
27.3651 37.7423
27.4109 37.6333
27.4569 37.8824
27.5027 37.8747
27.5488 38.0002
27.5946 37.7953
27.6407 37.335
27.6865 37.2486
27.7326 37.0954
27.7784 37.1265
27.8245 37.0327
27.8703 37.2167
27.9164 37.4069
27.9623 37.7211
28.0084 38.1803
28.0543 38.3335
28.1003 38.2721
28.1462 38.1248
28.1923 37.6879
28.2384 37.3952
28.2843 36.9303
28.3304 36.4827
28.3764 35.9719
28.4225 35.7105
28.4684 35.5134
28.5145 35.3218
28.5605 35.2014
28.6066 34.9636
28.6526 35.1007
28.6987 34.9572
28.7447 34.6978
28.7908 34.8182
28.8368 34.7683
28.8829 34.8571
28.9289 34.6983
28.9751 34.4492
29.0211 34.2424
29.0673 34.0137
29.1133 33.9311
29.1595 33.8426
29.2055 33.6768
29.2517 33.7506
29.2977 33.733
29.3439 33.6368
29.3899 33.6495
29.4361 33.4219
29.4824 33.3387
29.5284 33.0824
29.5746 32.7217
29.6207 32.5948
29.6669 32.4523
29.713 32.3952
29.7593 32.1702
29.8053 32.2687
29.8516 32.1776
29.8977 32.0303
29.9439 31.9877
29.99 31.9379
30.0363 31.8607
30.0824 31.8912
30.1287 31.7871
30.1748 31.8237
30.2211 31.9763
30.2673 31.7214
30.3136 31.8445
30.3597 31.7551
30.406 31.5517
30.4522 31.4607
30.4985 31.4639
30.5447 31.5679
30.591 31.5312
30.6372 31.5897
30.6835 31.6545
30.7297 31.6393
30.7761 31.5366
30.8224 31.5254
30.8686 31.3193
30.915 31.0897
30.9612 30.8708
31.0076 30.6917
31.0538 30.5979
31.1002 30.6453
31.1464 30.3278
31.1928 30.4493
31.2391 30.5125
31.2855 30.2946
31.3317 30.2535
31.3781 30.3146
31.4244 30.3811
31.4708 30.2654
31.5171 30.2318
31.5636 30.2469
31.6098 29.9328
31.6563 29.8293
31.7026 29.6657
31.7491 29.5956
31.7953 29.6692
31.8418 29.6408
31.8881 29.6408
31.9346 29.5543
31.9809 29.4386
32.0275 29.3196
32.074 29.2882
32.1203 29.0594
32.1668 28.9841
32.2132 28.8358
32.2597 28.7319
32.306 28.6168
32.3526 28.4706
32.399 28.3492
32.4455 28.2826
32.4919 28.123
32.5385 28.1085
32.5848 28.0267
32.6314 27.9694
32.6778 27.8614
32.7244 27.7514
32.7708 27.636
32.8174 27.6647
32.8638 27.4439
32.9104 27.6051
32.9569 27.4205
33.0035 27.5154
33.0499 27.3381
33.0966 27.3678
33.143 27.3566
33.1897 27.2003
33.2361 27.1327
33.2828 27.1181
33.3293 26.9211
33.3759 26.9001
33.4226 26.797
33.4691 26.621
33.5158 26.5136
33.5623 26.3723
33.609 26.317
33.6555 26.1974
33.7022 26.148
33.7487 26.0246
33.7954 26.0841
33.842 25.9649
33.8887 25.8472
33.9353 25.7419
33.982 25.659
34.0286 25.5502
34.0753 25.5929
34.1219 25.5236
34.1687 25.4814
34.2152 25.3399
34.262 25.1684
34.3086 25.0818
34.3554 25.0479
34.402 24.9146
34.4488 24.7921
34.4954 24.7578
34.5422 24.7782
34.5889 24.6074
34.6357 24.5056
34.6825 24.5293
34.7292 24.3736
34.776 24.2671
34.8227 24.2458
34.8695 24.1881
34.9162 24.1188
34.9631 24.1275
35.0098 24.0659
35.0566 23.9157
35.1033 23.8628
35.1502 23.8267
35.1969 23.7801
35.2438 23.7109
35.2906 23.6399
35.3375 23.5937
35.3842 23.6721
35.4311 23.6603
35.4779 23.556
35.5248 23.4526
35.5716 23.3653
35.6185 23.2316
35.6653 23.1868
35.7123 23.1778
35.759 23.0046
35.806 22.9898
35.8528 22.8232
35.8998 22.7776
35.9468 22.7723
35.9936 22.6967
36.0406 22.7113
36.0874 22.5835
36.1345 22.5747
36.1813 22.358
36.2283 22.3195
36.2752 22.2273
36.3222 22.2779
36.3691 22.1197
36.4161 22.0617
36.463 22.15
36.5101 21.9891
36.557 21.9198
36.6041 21.7534
36.651 21.7744
36.6981 21.7369
36.745 21.6813
36.7921 21.6012
36.839 21.5013
36.8861 21.3926
36.9331 21.3529
36.9802 21.2817
37.0272 21.2284
37.0743 21.1508
37.1213 21.117
37.1684 21.0269
37.2154 20.9642
37.2626 20.874
37.3098 20.8096
37.3568 20.7617
37.404 20.6638
37.451 20.643
37.4982 20.586
37.5452 20.5344
37.5924 20.4238
37.6395 20.4314
37.6867 20.2869
37.7337 20.2143
37.781 20.2173
37.8281 20.0878
37.8753 20.0272
37.9224 20.0323
37.9697 19.9289
38.0168 19.8749
38.064 19.7912
38.1111 19.6968
38.1584 19.616
38.2056 19.6091
38.2529 19.5333
38.3 19.4535
38.3473 19.5493
38.3945 19.3174
38.4418 19.3443
38.489 19.3014
38.5363 19.113
38.5837 19.0756
38.6309 19.0115
38.6782 18.9802
38.7254 18.8858
38.7728 18.8049
38.82 18.8012
38.8674 18.7782
38.9146 18.7275
38.9621 18.5958
39.0093 18.5868
39.0567 18.5543
39.104 18.4488
39.1514 18.3724
39.1987 18.4253
39.2461 18.2755
39.2934 18.2548
39.3409 18.1386
39.3882 18.0836
39.4356 17.9995
39.483 17.9487
39.5304 17.864
39.5778 17.9252
39.6253 17.7374
39.6726 17.7629
39.7201 17.6938
39.7675 17.694
39.815 17.6063
39.8624 17.4833
39.9099 17.5199
39.9575 17.4077
40.0049 17.3624
40.0525 17.2935
40.0999 17.2673
40.1474 17.2157
40.1949 17.1317
40.2425 17.1986
40.2899 17.0263
40.3375 16.9542
40.385 16.9197
40.4326 16.9262
40.48 16.8252
40.5277 16.8085
40.5752 16.7022
40.6228 16.6776
40.6703 16.6376
40.718 16.5882
40.7655 16.5478
40.8132 16.4532
40.8607 16.4545
40.9084 16.4103
40.9559 16.307
41.0036 16.295
41.0512 16.2184
41.0989 16.151
41.1465 16.0981
41.1942 16.0544
41.242 16.0178
41.2896 15.945
41.3373 15.8763
41.3849 15.7927
41.4327 15.7522
41.4803 15.7046
41.5281 15.6541
41.5758 15.5872
41.6236 15.5863
41.6712 15.4992
41.7191 15.4335
41.7667 15.406
41.8146 15.4076
41.8622 15.3263
41.9101 15.2558
41.9578 15.1725
42.0057 15.148
42.0534 15.1404
42.1013 15.0253
42.149 15.0064
42.1969 14.9777
42.2446 14.8972
42.2925 14.897
42.3403 14.825
42.3882 14.8047
42.436 14.7084
42.4839 14.6384
42.5319 14.6116
42.5797 14.5487
42.6277 14.5188
42.6755 14.4654
42.7235 14.3479
42.7713 14.317
42.8193 14.2922
42.8671 14.2944
42.9152 14.2287
42.963 14.1615
43.0111 14.1048
43.0589 14.1038
43.107 14.0449
43.1549 13.9751
43.2029 13.8831
43.2508 13.8995
43.2989 13.8022
43.3468 13.7528
43.3949 13.6798
43.4429 13.6866
43.491 13.6498
43.5389 13.625
43.5871 13.5518
43.635 13.5143
43.6832 13.4929
43.7312 13.4302
43.7793 13.3911
43.8273 13.3154
43.8755 13.2044
43.9237 13.1989
43.9717 13.1879
44.0199 13.118
44.068 13.0988
44.1162 13.0094
44.1642 13.0076
44.2125 12.9348
44.2606 12.8603
44.3088 12.8212
44.3569 12.761
44.4052 12.7966
44.4533 12.7008
44.5016 12.7015
44.5497 12.6828
44.598 12.6263
44.6461 12.5281
44.6945 12.4741
44.7426 12.4559
44.791 12.4217
44.8391 12.3808
44.8875 12.3558
44.9357 12.2898
44.984 12.279
45.0322 12.1782
45.0806 12.1373
45.1288 12.1029
45.1773 12.0765
45.2257 12.0168
45.2739 12.0122
45.3224 11.9227
45.3706 11.9161
45.4191 11.823
45.4673 11.8044
45.5158 11.7625
45.5641 11.7115
45.6126 11.6973
45.6609 11.6478
45.7094 11.6175
45.7577 11.5345
45.8063 11.4737
45.8546 11.4836
45.9031 11.4949
45.9515 11.3876
46.0001 11.3472
46.0484 11.3106
46.097 11.2851
46.1454 11.2754
46.194 11.2036
46.2424 11.1955
46.291 11.1153
46.3395 11.0485
46.3881 11.076
46.4365 10.9978
46.4852 10.947
46.5337 10.9045
46.5823 10.8714
46.631 10.8342
46.6795 10.84
46.7282 10.7568
46.7767 10.7278
46.8254 10.6907
46.8739 10.6375
46.9226 10.6145
46.9712 10.5657
47.0199 10.5096
47.0685 10.5067
47.1173 10.4874
47.1658 10.4071
47.2146 10.3857
47.2632 10.3071
47.312 10.2907
47.3606 10.2056
47.4095 10.2339
47.4581 10.1944
47.5069 10.1297
47.5556 10.0726
47.6044 10.0403
47.6531 10.0165
47.702 9.99274
47.7507 9.9382
47.7996 9.92326
47.8483 9.89431
47.8972 9.84292
47.9461 9.82567
47.9948 9.76552
48.0438 9.73965
48.0925 9.71241
48.1415 9.67141
48.1902 9.64157
48.2392 9.64371
48.288 9.54629
48.337 9.53906
48.3858 9.47138
48.4348 9.47228
48.4837 9.45422
48.5327 9.40524
48.5815 9.35373
48.6306 9.30829
48.6795 9.29894
48.7285 9.28287
48.7774 9.22686
48.8265 9.23538
48.8754 9.16734
48.9245 9.14086
48.9734 9.08391
49.0226 9.09062
49.0715 9.02751
49.1206 9.0162
49.1696 8.97904
49.2188 8.97457
49.2679 8.90869
49.3169 8.86115
49.3661 8.7874
49.4151 8.78445
49.4643 8.77083
49.5134 8.72304
49.5626 8.63392
49.6117 8.64336
49.6609 8.60596
49.71 8.56413
49.7592 8.5785
49.8083 8.48978
49.8576 8.49271
49.9067 8.47374
49.956 8.40235
50.0052 8.40111
50.0545 8.34226
50.1036 8.31737
50.153 8.27684
50.2022 8.22922
50.2515 8.21321
50.3007 8.17489
50.3501 8.14154
50.3993 8.12063
50.4487 8.10365
50.498 8.09868
50.5474 8.03829
50.5966 8.02511
50.6461 7.97408
50.6955 7.96109
50.7448 7.90566
50.7943 7.88144
50.8436 7.8863
50.8931 7.83732
50.9424 7.82289
50.9919 7.75899
51.0413 7.75263
51.0908 7.7213
51.1402 7.67447
51.1897 7.62245
51.2391 7.60384
51.2887 7.59531
51.3381 7.55555
51.3877 7.56103
51.4371 7.45994
51.4867 7.40688
51.5362 7.41165
51.5858 7.39428
51.6353 7.36718
51.6849 7.3255
51.7344 7.27865
51.7841 7.28844
51.8336 7.25247
51.8833 7.22205
51.9328 7.20081
51.9826 7.14836
52.0323 7.14733
52.0818 7.0998
52.1316 7.02675
52.1812 7.0593
52.231 6.98472
52.2806 6.95873
52.3304 6.94252
52.38 6.93651
52.4298 6.87715
52.4794 6.86601
52.5293 6.8141
52.5789 6.82808
52.6288 6.79681
52.6785 6.74226
52.7284 6.7385
52.7781 6.67953
52.828 6.67482
52.8777 6.60555
52.9276 6.60717
52.9774 6.59062
53.0273 6.5928
53.0771 6.54365
53.1271 6.51686
53.1769 6.4427
53.2269 6.43796
53.2767 6.42125
53.3267 6.39028
53.3765 6.35423
53.4266 6.32515
53.4766 6.32997
53.5265 6.30403
53.5765 6.23072
53.6264 6.22001
53.6765 6.21895
53.7264 6.19157
53.7765 6.17407
53.8265 6.1332
53.8766 6.06733
53.9266 6.0832
53.9767 6.07098
54.0267 6.06058
54.0769 5.982
54.1269 5.96018
54.1771 5.89367
54.2271 5.86717
54.2773 5.87023
54.3274 5.84339
54.3776 5.73991
54.4277 5.76363
54.478 5.78661
54.528 5.72813
54.5783 5.67751
54.6285 5.63468
54.6788 5.58312
54.7289 5.52605
54.7792 5.48354
54.8296 5.47002
54.8798 5.40678
54.9301 5.40702
54.9803 5.32833
55.0307 5.37279
55.0809 5.25583
55.1314 5.28736
55.1816 5.19393
55.232 5.14601
55.2823 5.13199
55.3328 5.05138
55.383 4.98688
55.4335 5.00763
55.4838 4.92436
55.5344 4.89749
55.5847 4.85214
55.6352 4.79283
55.6856 4.75135
55.7361 4.76171