File: XRD/Ni3Fe_FD0841.xy
TT I
1.27165 7.49939
1.31627 6.53233
1.36089 6.44391
1.40551 6.14458
1.45013 6.02805
1.49476 6.0576
1.53938 6.1933
1.584 5.50448
1.62863 5.84787
1.67325 4.85899
1.71787 4.61131
1.7625 4.96542
1.80712 5.3688
1.85174 4.72721
1.89636 5.06453
1.94099 5.04617
1.98562 5.20626
2.03025 4.50123
2.07487 4.65783
2.11949 4.88213
2.16411 4.99137
2.20874 12.9166
2.25338 18.5107
2.298 5.94646
2.34263 5.65508
2.38725 6.36995
2.43188 5.81775
2.4765 7.29351
2.52115 7.01973
2.56577 7.51506
2.6104 8.73137
2.65503 8.76553
2.69965 8.55119
2.7443 8.82005
2.78893 8.49551
2.83356 8.72561
2.87818 8.62833
2.92281 9.24873
2.96744 9.90919
3.01209 10.2686
3.05672 11.2597
3.10135 11.8933
3.14599 13.3303
3.19062 14.5675
3.23527 14.5602
3.2799 15.6111
3.32454 16.8906
3.36917 17.5928
3.4138 18.6121
3.45844 19.646
3.50309 20.3374
3.54773 21.7014
3.59237 23.6706
3.637 76.5524
3.68164 51.0146
3.7263 25.6692
3.77094 25.9285
3.81558 26.4994
3.86022 27.3106
3.90486 28.9164
3.9495 29.7302
3.99416 30.9385
4.0388 32.2032
4.08344 33.367
4.12809 34.3108
4.17273 36.2983
4.21738 42.3818
4.26204 202.184
4.30669 174.781
4.35133 46.6449
4.39598 44.1098
4.44063 52.0378
4.4853 60.8171
4.52995 50.5202
4.5746 51.6681
4.61925 52.855
4.6639 55.1695
4.70855 57.4802
4.75322 60.178
4.79788 63.9261
4.84253 66.7437
4.88719 71.3369
4.93184 74.1678
4.97652 79.5659
5.02118 85.8885
5.06583 93.0531
5.11049 103.264
5.15515 159.349
5.19981 318.601
5.24449 2673.56
5.28916 12422.4
5.33382 2704.45
5.37848 179.258
5.42315 125.581
5.46783 112.592
5.5125 105.628
5.55716 101.259
5.60183 97.3944
5.6465 95.7132
5.69117 93.5683
5.73586 91.4176
5.78053 91.1257
5.8252 90.7366
5.86988 91.9276
5.91455 92.4671
5.95924 99.2516
6.00392 191.417
6.0486 906.713
6.09328 4361.28
6.13795 3097.53
6.18263 225.221
6.22733 89.6076
6.27201 80.7221
6.3167 94.4109
6.36138 77.7058
6.40606 68.4642
6.45075 66.6891
6.49545 64.4064
6.54014 63.0357
6.58483 62.1649
6.62952 61.9924
6.67421 86.3464
6.71892 121.606
6.76361 65.4234
6.8083 57.7135
6.853 57.2039
6.89769 56.4997
6.94239 56.2353
6.98711 55.4286
7.03181 54.9158
7.07651 54.5118
7.12121 54.4501
7.16591 54.7026
7.21063 54.8243
7.25533 67.8722
7.30004 147.101
7.34475 81.9524
7.38945 55.552
7.43416 53.7522
7.47889 54.1274
7.5236 54.5553
7.56831 54.6102
7.61303 56.0538
7.65774 56.1922
7.70247 55.48
7.74719 55.386
7.79191 55.9937
7.83663 56.3665
7.88135 57.4458
7.92607 58.0506
7.97081 59.0531
8.01553 60.235
8.06026 61.6332
8.10498 63.1761
8.14971 71.4036
8.19446 70.493
8.23919 68.6763
8.28392 70.8976
8.32865 73.1792
8.37339 77.2338
8.41812 83.4725
8.46288 106.529
8.50761 153.039
8.55235 362.022
8.59709 1170.19
8.64183 2157.89
8.68658 939.862
8.73134 162.715
8.77609 97.3414
8.82083 91.5495
8.86558 88.9988
8.91033 88.7094
8.9551 89.4353
8.99985 84.3966
9.04461 82.6179
9.08936 82.2749
9.13412 81.0477
9.17888 81.3344
9.22365 81.5221
9.26841 81.138
9.31318 82.2766
9.35794 82.4478
9.4027 82.7145
9.44749 83.3485
9.49226 83.5919
9.53703 84.5687
9.5818 86.5309
9.62657 91.1954
9.67134 95.879
9.71614 92.1318
9.76091 93.0225
9.80569 95.7629
9.85047 98.8404
9.89525 117.725
9.94005 127.852
9.98484 165.175
10.0296 322.671
10.0744 804.847
10.1192 1757.12
10.164 1552.16
10.2088 404.426
10.2536 125.129
10.2984 110.71
10.3432 110.806
10.388 102.877
10.4328 114.281
10.4776 155.702
10.5224 286.189
10.5672 526.856
10.612 510.936
10.6568 200.578
10.7017 95.8115
10.7465 85.4222
10.7913 82.1751
10.8361 80.5228
10.8809 78.1551
10.9257 77.4483
10.9706 77.2799
11.0154 73.9002
11.0602 72.0406
11.105 70.8278
11.1499 74.1097
11.1947 79.3552
11.2395 72.2154
11.2844 68.8398
11.3292 66.3784
11.374 65.3039
11.4189 64.78
11.4637 64.2215
11.5086 64.6116
11.5534 66.4263
11.5983 64.4122
11.6431 62.7957
11.688 62.2357
11.7328 62.0216
11.7777 61.9908
11.8225 61.785
11.8674 61.6496
11.9122 61.977
11.9571 62.416
12.002 62.6935
12.0468 66.4058
12.0917 76.8926
12.1366 101.265
12.1814 156.735
12.2263 207.49
12.2712 170.125
12.3161 93.9186
12.3609 68.3939
12.4058 63.8439
12.4507 63.5687
12.4956 63.4935
12.5405 63.6612
12.5853 64.6788
12.6302 70.7448
12.6751 74.5939
12.72 68.472
12.7649 66.9061
12.8098 67.6717
12.8547 68.7737
12.8996 70.2505
12.9445 71.3444
12.9894 73.2616
13.0343 74.8742
13.0792 77.9591
13.1242 86.0664
13.1691 107.761
13.214 144.613
13.2589 242.42
13.3038 382.377
13.3487 412.17
13.3937 252.81
13.4386 121.942
13.4835 102.846
13.5285 116.967
13.5734 155.912
13.6183 252.267
13.6633 351.29
13.7082 327.854
13.7531 179.659
13.7981 96.0168
13.843 80.6257
13.888 78.5049
13.9329 76.0749
13.9779 74.6848
14.0228 73.2663
14.0678 72.0316
14.1127 71.6873
14.1577 71.3807
14.2027 70.5008
14.2476 69.4726
14.2926 69.6839
14.3376 70.4284
14.3825 69.0529
14.4275 67.9008
14.4725 67.837
14.5175 68.0184
14.5624 68.2107
14.6074 70.0049
14.6524 70.2464
14.6974 69.3859
14.7424 71.1472
14.7874 76.7765
14.8324 86.6393
14.8774 109.05
14.9224 154.947
14.9674 211.271
15.0124 214.8
15.0574 146.2
15.1024 90.0418
15.1474 71.5117
15.1924 69.5719
15.2374 69.5604
15.2824 68.9033
15.3274 67.0532
15.3725 65.9554
15.4175 65.4004
15.4625 65.4176
15.5076 65.2454
15.5526 65.1959
15.5976 64.8332
15.6426 65.5766
15.6877 70.6749
15.7327 77.9901
15.7778 93.1763
15.8228 126.924
15.8679 172.343
15.9129 189.854
15.958 150.163
16.003 93.8446
16.0481 67.0403
16.0931 63.437
16.1382 61.3576
16.1833 59.688
16.2283 58.1656
16.2734 57.5826
16.3185 57.681
16.3636 58.1805
16.4086 56.802
16.4537 55.5722
16.4988 54.8323
16.5439 54.9212
16.589 54.3852
16.6341 54.0492
16.6792 53.7719
16.7243 54.3894
16.7694 54.2632
16.8145 54.0622
16.8596 54.5159
16.9047 55.4946
16.9498 56.0221
16.9949 54.9607
17.04 55.0361
17.0851 56.1164
17.1302 57.7764
17.1754 60.8919
17.2205 66.1431
17.2656 74.825
17.3108 81.9945
17.3559 80.9273
17.401 70.1123
17.4462 61.3817
17.4913 58.5344
17.5365 58.4015
17.5815 58.4822
17.6268 58.7498
17.6718 59.5815
17.7171 59.9888
17.7622 60.4137
17.8074 61.0294
17.8525 63.3437
17.8977 66.8442
17.9428 72.306
17.9881 81.6163
18.0331 99.8405
18.0784 122.259
18.1237 137.648
18.1688 126.748
18.214 101.065
18.2591 85.9141
18.3044 90.8601
18.3495 100.452
18.3948 103.791
18.4399 93.4819
18.4852 76.0391
18.5303 65.0724
18.5756 61.3026
18.6207 60.5064
18.666 59.8801
18.7112 59.0347
18.7565 58.2719
18.8016 58.0002
18.8469 57.3791
18.892 57.1295
18.9374 56.7082
18.9825 56.2657
19.0278 56.1232
19.073 56.1624
19.1183 56.5109
19.1635 57.3484
19.2088 58.585
19.254 61.441
19.2993 66.1948
19.3447 72.1471
19.3898 75.3383
19.4352 70.6489
19.4804 62.171
19.5257 55.7937
19.5709 53.4819
19.6163 53.0964
19.6615 53.0155
19.7068 52.5741
19.752 52.4422
19.7974 53.0692
19.8426 53.5442
19.888 54.1144
19.9332 55.4067
19.9786 58.2799
20.0238 62.1257
20.0692 66.9206
20.1144 69.0794
20.1598 67.3641
20.205 62.8308
20.2504 61.8129
20.2957 63.6233
20.3411 64.7414
20.3863 63.065
20.4318 57.4104
20.477 52.9705
20.5224 50.8827
20.5677 50.1759
20.6131 49.5988
20.6586 48.9074
20.7038 49.0854
20.7493 48.4316
20.7945 48.2924
20.84 48.3854
20.8853 48.066
20.9307 47.9268
20.976 48.0681
21.0215 47.8324
21.0668 48.468
21.1122 48.8998
21.1575 49.5845
21.203 50.4118
21.2483 50.888
21.2938 50.6266
21.3391 49.4162
21.3846 48.4481
21.4299 47.938
21.4754 47.8355
21.5207 47.8816
21.5662 48.268
21.6116 48.6053
21.6571 49.2772
21.7024 50.2013
21.7479 51.9264
21.7933 54.7996
21.8388 58.7669
21.8843 62.1583
21.9297 63.4609
21.9752 61.9377
22.0206 58.7113
22.0661 55.9472
22.1115 55.4747
22.157 55.1083
22.2024 53.3152
22.248 50.9232
22.2933 49.1769
22.3389 48.3694
22.3843 48.3976
22.4299 48.1705
22.4753 48.1698
22.5208 48.0179
22.5662 47.9859
22.6118 47.9567
22.6572 48.26
22.7028 48.5602
22.7483 49.0504
22.7939 49.6981
22.8393 51.3829
22.8849 53.8346
22.9303 55.9124
22.9759 57.1251
23.0214 56.3017
23.067 53.7016
23.1126 50.431
23.1581 48.7112
23.2037 48.2525
23.2492 48.2193
23.2948 48.27
23.3403 48.6047
23.3859 49.2572
23.4314 50.1636
23.477 52.1718
23.5225 54.6324
23.5682 56.5712
23.6137 57.149
23.6593 54.6987
23.7048 51.0485
23.7505 47.8179
23.796 46.1611
23.8417 45.608
23.8872 45.0025
23.9329 44.7315
23.9784 44.3115
24.0241 44.0769
24.0697 43.9216
24.1154 43.6204
24.1609 43.543
24.2066 43.2874
24.2522 43.201
24.2979 43.0141
24.3434 42.7868
24.3892 42.7168
24.4349 42.564
24.4805 42.4102
24.5262 42.6844
24.5718 42.4053
24.6175 42.3881
24.6631 42.4279
24.7089 41.9459
24.7545 41.9186
24.8002 41.7452
24.8458 41.689
24.8916 41.3764
24.9372 41.7975
24.983 42.142
25.0286 42.4784
25.0744 42.808
25.12 43.1833
25.1658 43.8498
25.2114 44.1172
25.2572 44.2712
25.3029 44.4187
25.3487 44.3821
25.3943 43.99
25.4402 42.9725
25.4858 42.0114
25.5316 40.8718
25.5773 40.303
25.6231 40.4472
25.669 40.0551
25.7147 40.006
25.7605 40.0078
25.8062 39.9452
25.8521 40.2518
25.8977 40.1507
25.9436 40.454
25.9893 40.4738
26.0352 41.1866
26.0809 41.0021
26.1268 41.1488
26.1725 40.9507
26.2184 40.2329
26.2641 39.8093
26.31 39.6726
26.3557 39.6918
26.4017 39.6501
26.4474 39.8854
26.4933 40.3907
26.5391 40.8749
26.585 41.2458
26.6308 41.5239
26.6767 41.6652
26.7225 41.5143
26.7684 41.0015
26.8142 40.4661
26.8601 39.8718
26.9059 39.5636
26.9519 39.0884
26.9979 38.7648
27.0437 38.3484
27.0896 38.2251
27.1354 38.3472
27.1814 38.0141
27.2272 38.1239
27.2732 38.1743
27.3191 37.7754
27.3651 37.9704
27.4109 37.897
27.4569 37.9904
27.5027 38.046
27.5488 38.0582
27.5946 37.9828
27.6407 37.677
27.6865 37.589
27.7326 37.4224
27.7784 37.4938
27.8245 37.3421
27.8703 37.5623
27.9164 37.8596
27.9623 38.1229
28.0084 38.1967
28.0543 38.7224
28.1003 38.5137
28.1462 38.3112
28.1923 37.9075
28.2384 37.5417
28.2843 37.2654
28.3304 36.7653
28.3764 36.3234
28.4225 36.0353
28.4684 35.7958
28.5145 35.5475
28.5605 35.4114
28.6066 35.1805
28.6526 35.2175
28.6987 35.2152
28.7447 35.0854
28.7908 35.0912
28.8368 35.0965
28.8829 35.0674
28.9289 34.9265
28.9751 34.681
29.0211 34.481
29.0673 34.2862
29.1133 34.1999
29.1595 34.0533
29.2055 33.9078
29.2517 34.0172
29.2977 33.9068
29.3439 33.8815
29.3899 33.8424
29.4361 33.7072
29.4824 33.5796
29.5284 33.3167
29.5746 33.0871
29.6207 32.8451
29.6669 32.7243
29.713 32.5307
29.7593 32.5278
29.8053 32.4574
29.8516 32.3871
29.8977 32.4389
29.9439 32.2725
29.99 32.1933
30.0363 32.0459
30.0824 32.2049
30.1287 32.0468
30.1748 32.0714
30.2211 31.9938
30.2673 31.8006
30.3136 31.9466
30.3597 31.9142
30.406 31.8574
30.4522 31.6631
30.4985 31.6582
30.5447 31.7447
30.591 31.7651
30.6372 31.8118
30.6835 31.8148
30.7297 31.8405
30.7761 31.8305
30.8224 31.6322
30.8686 31.519
30.915 31.2837
30.9612 31.0734
31.0076 30.8851
31.0538 30.7953
31.1002 30.7403
31.1464 30.6082
31.1928 30.6275
31.2391 30.6382
31.2855 30.5309
31.3317 30.5728
31.3781 30.6265
31.4244 30.5397
31.4708 30.5124
31.5171 30.4399
31.5636 30.3964
31.6098 30.1487
31.6563 30.075
31.7026 29.8758
31.7491 29.8349
31.7953 29.8781
31.8418 29.7804
31.8881 29.9066
31.9346 29.7756
31.9809 29.6767
32.0275 29.6383
32.074 29.4803
32.1203 29.2761
32.1668 29.2518
32.2132 29.0339
32.2597 28.8866
32.306 28.8368
32.3526 28.7227
32.399 28.6196
32.4455 28.4015
32.4919 28.2988
32.5385 28.2823
32.5848 28.0891
32.6314 28.0957
32.6778 28.0401
32.7244 27.9841
32.7708 27.8337
32.8174 27.8293
32.8638 27.6502
32.9104 27.7016
32.9569 27.6494
33.0035 27.5443
33.0499 27.5766
33.0966 27.537
33.143 27.5389
33.1897 27.3999
33.2361 27.2442
33.2828 27.3217
33.3293 27.0854
33.3759 27.0581
33.4226 26.8876
33.4691 26.8245
33.5158 26.7115
33.5623 26.568
33.609 26.4564
33.6555 26.4612
33.7022 26.3412
33.7487 26.2061
33.7954 26.1572
33.842 26.0257
33.8887 26.1158
33.9353 25.9285
33.982 25.8523
34.0286 25.754
34.0753 25.6663
34.1219 25.6275
34.1687 25.6196
34.2152 25.3723
34.262 25.2819
34.3086 25.3337
34.3554 25.2403
34.402 25.057
34.4488 24.9766
34.4954 24.9535
34.5422 24.9482
34.5889 24.7475
34.6357 24.7062
34.6825 24.6054
34.7292 24.5748
34.776 24.4318
34.8227 24.4024
34.8695 24.4045
34.9162 24.3589
34.9631 24.2134
35.0098 24.2277
35.0566 24.0598
35.1033 24.0267
35.1502 24.0377
35.1969 23.9914
35.2438 23.9358
35.2906 23.8965
35.3375 23.76
35.3842 23.7804
35.4311 23.7837
35.4779 23.7117
35.5248 23.6716
35.5716 23.5111
35.6185 23.4251
35.6653 23.2384
35.7123 23.2463
35.759 23.2357
35.806 23.0924
35.8528 23.0329
35.8998 22.8924
35.9468 22.8472
35.9936 22.888
36.0406 22.8106
36.0874 22.6093
36.1345 22.6032
36.1813 22.5964
36.2283 22.3898
36.2752 22.4034
36.3222 22.4337
36.3691 22.2536
36.4161 22.2142
36.463 22.2563
36.5101 22.1631
36.557 22.1258
36.6041 22.0
36.651 21.9302
36.6981 21.9087
36.745 21.7613
36.7921 21.7293
36.839 21.6253
36.8861 21.4916
36.9331 21.4902
36.9802 21.4901
37.0272 21.3388
37.0743 21.2105
37.1213 21.259
37.1684 21.2318
37.2154 21.1031
37.2626 21.0021
37.3098 20.9599
37.3568 20.923
37.404 20.8447
37.451 20.7273
37.4982 20.7186
37.5452 20.5314
37.5924 20.5627
37.6395 20.6455
37.6867 20.4961
37.7337 20.3945
37.781 20.2769
37.8281 20.3461
37.8753 20.1294
37.9224 20.114
37.9697 20.056
38.0168 20.0236
38.064 19.9151
38.1111 19.8291
38.1584 19.7381
38.2056 19.7758
38.2529 19.6785
38.3 19.5788
38.3473 19.635
38.3945 19.5003
38.4418 19.4498
38.489 19.4171
38.5363 19.2824
38.5837 19.2787
38.6309 19.2049
38.6782 19.0185
38.7254 18.9969
38.7728 18.995
38.82 18.9289
38.8674 18.8841
38.9146 18.9105
38.9621 18.7127
39.0093 18.741
39.0567 18.6807
39.104 18.6385
39.1514 18.5229
39.1987 18.5056
39.2461 18.4087
39.2934 18.3908
39.3409 18.3367
39.3882 18.2314
39.4356 18.1673
39.483 18.0915
39.5304 18.0479
39.5778 18.0047
39.6253 17.9587
39.6726 17.8788
39.7201 17.8855
39.7675 17.7902
39.815 17.6852
39.8624 17.6198
39.9099 17.6001
39.9575 17.5595
40.0049 17.52
40.0525 17.4603
40.0999 17.4788
40.1474 17.3384
40.1949 17.2681
40.2425 17.2194
40.2899 17.1595
40.3375 17.1318
40.385 17.0151
40.4326 16.97
40.48 16.9723
40.5277 16.9244
40.5752 16.8189
40.6228 16.7708
40.6703 16.7568
40.718 16.6448
40.7655 16.6212
40.8132 16.5178
40.8607 16.5225
40.9084 16.4941
40.9559 16.4142
41.0036 16.3826
41.0512 16.2962
41.0989 16.2643
41.1465 16.2339
41.1942 16.2053
41.242 16.0626
41.2896 16.0598
41.3373 16.0329
41.3849 15.9527
41.4327 15.9312
41.4803 15.823
41.5281 15.7904
41.5758 15.7129
41.6236 15.6513
41.6712 15.6261
41.7191 15.5971
41.7667 15.4792
41.8146 15.5079
41.8622 15.4287
41.9101 15.336
41.9578 15.2919
42.0057 15.2506
42.0534 15.2168
42.1013 15.1756
42.149 15.0709
42.1969 15.0278
42.2446 14.9825
42.2925 14.9615
42.3403 14.9569
42.3882 14.8364
42.436 14.9217
42.4839 14.776
42.5319 14.7375
42.5797 14.6932
42.6277 14.5814
42.6755 14.6011
42.7235 14.4687
42.7713 14.4881
42.8193 14.4534
42.8671 14.3149
42.9152 14.3022
42.963 14.3102
43.0111 14.1989
43.0589 14.1862
43.107 14.1483
43.1549 14.1037
43.2029 14.0384
43.2508 13.9427
43.2989 13.9404
43.3468 13.8714
43.3949 13.8578
43.4429 13.7496
43.491 13.6871
43.5389 13.7065
43.5871 13.6195
43.635 13.5992
43.6832 13.5733
43.7312 13.4703
43.7793 13.4673
43.8273 13.3768
43.8755 13.3302
43.9237 13.306
43.9717 13.2653
44.0199 13.2657
44.068 13.1876
44.1162 13.1426
44.1642 13.1365
44.2125 13.0706
44.2606 12.9959
44.3088 12.9346
44.3569 12.93
44.4052 12.8646
44.4533 12.7515
44.5016 12.7395
44.5497 12.7425
44.598 12.6586
44.6461 12.6149
44.6945 12.6254
44.7426 12.5208
44.791 12.5203
44.8391 12.5
44.8875 12.4264
44.9357 12.3727
44.984 12.3132
45.0322 12.2192
45.0806 12.2612
45.1288 12.2106
45.1773 12.1216
45.2257 12.1426
45.2739 12.0444
45.3224 12.0387
45.3706 11.9725
45.4191 11.8791
45.4673 11.9081
45.5158 11.9009
45.5641 11.7901
45.6126 11.7829
45.6609 11.7364
45.7094 11.6672
45.7577 11.6112
45.8063 11.5602
45.8546 11.5464
45.9031 11.5308
45.9515 11.4686
46.0001 11.4569
46.0484 11.4077
46.097 11.3714
46.1454 11.3188
46.194 11.2962
46.2424 11.2263
46.291 11.1896
46.3395 11.1453
46.3881 11.1124
46.4365 11.1041
46.4852 11.025
46.5337 10.9746
46.5823 10.9799
46.631 10.9059
46.6795 10.8928
46.7282 10.8559
46.7767 10.8024
46.8254 10.7461
46.8739 10.6806
46.9226 10.6657
46.9712 10.6368
47.0199 10.586
47.0685 10.5627
47.1173 10.5682
47.1658 10.4657
47.2146 10.4356
47.2632 10.4358
47.312 10.3992
47.3606 10.3328
47.4095 10.2453
47.4581 10.2563
47.5069 10.226
47.5556 10.1909
47.6044 10.116
47.6531 10.1023
47.702 10.0606
47.7507 10.0025
47.7996 9.9451
47.8483 9.94832
47.8972 9.92684
47.9461 9.89398
47.9948 9.80184
48.0438 9.82791
48.0925 9.77229
48.1415 9.73391
48.1902 9.66966
48.2392 9.67117
48.288 9.65434
48.337 9.57778
48.3858 9.55458
48.4348 9.54677
48.4837 9.52314
48.5327 9.49211
48.5815 9.394
48.6306 9.38387
48.6795 9.37326
48.7285 9.31395
48.7774 9.28485
48.8265 9.29636
48.8754 9.20731
48.9245 9.20877
48.9734 9.14621
49.0226 9.13951
49.0715 9.09166
49.1206 9.02905
49.1696 9.00098
49.2188 9.03443
49.2679 8.8972
49.3169 8.86595
49.3661 8.87479
49.4151 8.84266
49.4643 8.85539
49.5134 8.76526
49.5626 8.70909
49.6117 8.7149
49.6609 8.68347
49.71 8.61791
49.7592 8.60805
49.8083 8.56053
49.8576 8.53552
49.9067 8.45765
49.956 8.45503
50.0052 8.43934
50.0545 8.42356
50.1036 8.3811
50.153 8.34737
50.2022 8.3321
50.2515 8.29787
50.3007 8.22031
50.3501 8.19041
50.3993 8.17915
50.4487 8.12968
50.498 8.10353
50.5474 8.10735
50.5966 8.10806
50.6461 7.9948
50.6955 7.99873
50.7448 7.97744
50.7943 7.94
50.8436 7.91395
50.8931 7.87581
50.9424 7.84033
50.9919 7.79993
51.0413 7.8063
51.0908 7.7413
51.1402 7.746
51.1897 7.69214
51.2391 7.63688
51.2887 7.60027
51.3381 7.56437
51.3877 7.55282
51.4371 7.51511
51.4867 7.47958
51.5362 7.46996
51.5858 7.45473
51.6353 7.36994
51.6849 7.35476
51.7344 7.35
51.7841 7.33262
51.8336 7.25977
51.8833 7.25966
51.9328 7.196
51.9826 7.18791
52.0323 7.18219
52.0818 7.16911
52.1316 7.10389
52.1812 7.11314
52.231 7.07361
52.2806 7.02731
52.3304 7.01062
52.38 6.98227
52.4298 6.93423
52.4794 6.93154
52.5293 6.89124
52.5789 6.83293
52.6288 6.80398
52.6785 6.79156
52.7284 6.77128
52.7781 6.76556
52.828 6.72317
52.8777 6.67769
52.9276 6.63441
52.9774 6.63283
53.0273 6.54405
53.0771 6.59858
53.1271 6.56211
53.1769 6.52339
53.2269 6.5321
53.2767 6.45139
53.3267 6.4318
53.3765 6.44136
53.4266 6.40349
53.4766 6.34788
53.5265 6.3069
53.5765 6.32031
53.6264 6.27951
53.6765 6.21598
53.7264 6.2087
53.7765 6.16955
53.8265 6.12959
53.8766 6.15394
53.9266 6.11027
53.9767 6.06754
54.0267 6.05544
54.0769 6.01215
54.1269 6.01175
54.1771 5.9802
54.2271 5.95373
54.2773 5.88903
54.3274 5.86715
54.3776 5.84097
54.4277 5.85404
54.478 5.79031
54.528 5.75179
54.5783 5.66971
54.6285 5.67389
54.6788 5.63598
54.7289 5.63165
54.7792 5.54386
54.8296 5.51036
54.8798 5.43638
54.9301 5.43614
54.9803 5.34631
55.0307 5.40205
55.0809 5.29956
55.1314 5.28751
55.1816 5.2283
55.232 5.23507
55.2823 5.15509
55.3328 5.07572
55.383 5.03059
55.4335 4.95379
55.4838 4.95977
55.5344 4.91743
55.5847 4.85076
55.6352 4.8245
55.6856 4.8408
55.7361 4.76738