File: XRD/Ni3Fe_FD0563.xy
TT I
1.27165 7.03501
1.31627 7.18435
1.36089 6.80089
1.40551 6.5005
1.45013 6.45471
1.49476 5.50351
1.53938 6.22182
1.584 4.95909
1.62863 5.4841
1.67325 5.13631
1.71787 5.1187
1.7625 4.46175
1.80712 4.66841
1.85174 4.97941
1.89636 4.59776
1.94099 5.2301
1.98562 4.54887
2.03025 4.24403
2.07487 4.50302
2.11949 4.70187
2.16411 4.8647
2.20874 10.5953
2.25338 16.2177
2.298 6.01111
2.34263 5.427
2.38725 5.78574
2.43188 6.11993
2.4765 7.09155
2.52115 6.72042
2.56577 6.6038
2.6104 7.77765
2.65503 7.82004
2.69965 8.59282
2.7443 8.55184
2.78893 8.37346
2.83356 8.0166
2.87818 8.58447
2.92281 8.88351
2.96744 9.60161
3.01209 10.387
3.05672 11.1086
3.10135 11.9857
3.14599 13.4237
3.19062 14.7198
3.23527 15.1468
3.2799 15.9444
3.32454 17.0721
3.36917 17.5536
3.4138 18.8262
3.45844 19.3647
3.50309 20.8836
3.54773 21.8303
3.59237 23.4978
3.637 67.9772
3.68164 46.0826
3.7263 25.8665
3.77094 25.8656
3.81558 26.8904
3.86022 27.7132
3.90486 28.4929
3.9495 29.6493
3.99416 30.9726
4.0388 31.7344
4.08344 33.8238
4.12809 34.8611
4.17273 36.6725
4.21738 41.0715
4.26204 175.743
4.30669 148.553
4.35133 46.2693
4.39598 44.4061
4.44063 51.2762
4.4853 58.6635
4.52995 50.7702
4.5746 51.8183
4.61925 53.9153
4.6639 55.8025
4.70855 58.7583
4.75322 61.866
4.79788 65.0661
4.84253 68.2912
4.88719 72.3793
4.93184 76.4804
4.97652 82.4501
5.02118 88.5747
5.06583 96.5951
5.11049 108.654
5.15515 166.43
5.19981 435.804
5.24449 3174.76
5.28916 12275.0
5.33382 2928.68
5.37848 196.985
5.42315 130.633
5.46783 115.336
5.5125 107.517
5.55716 103.005
5.60183 99.3148
5.6465 97.2274
5.69117 95.5379
5.73586 93.4657
5.78053 93.5573
5.8252 93.3663
5.86988 94.7287
5.91455 96.6597
5.95924 107.724
6.00392 254.423
6.0486 1100.62
6.09328 4459.48
6.13795 3406.61
6.18263 251.655
6.22733 93.95
6.27201 82.5316
6.3167 92.8217
6.36138 77.664
6.40606 69.5668
6.45075 67.9832
6.49545 65.8989
6.54014 64.0118
6.58483 63.4236
6.62952 62.822
6.67421 83.4348
6.71892 113.926
6.76361 65.0696
6.8083 58.7753
6.853 57.5135
6.89769 57.2781
6.94239 56.8137
6.98711 56.1832
7.03181 55.4634
7.07651 55.818
7.12121 55.0774
7.16591 55.3094
7.21063 55.2502
7.25533 66.1526
7.30004 134.271
7.34475 77.9428
7.38945 55.7607
7.43416 54.7186
7.47889 54.443
7.5236 55.1498
7.56831 55.6628
7.61303 56.3018
7.65774 56.9557
7.70247 56.3866
7.74719 56.5795
7.79191 57.1695
7.83663 57.1271
7.88135 58.0909
7.92607 59.1769
7.97081 60.1826
8.01553 61.4151
8.06026 62.7257
8.10498 64.5437
8.14971 71.3149
8.19446 70.8162
8.23919 70.3238
8.28392 72.4851
8.32865 74.7799
8.37339 79.2229
8.41812 85.7433
8.46288 109.694
8.50761 187.405
8.55235 434.166
8.59709 1229.04
8.64183 2214.01
8.68658 988.124
8.73134 163.992
8.77609 100.386
8.82083 93.2568
8.86558 90.2402
8.91033 89.9787
8.9551 90.2119
8.99985 85.8419
9.04461 83.9577
9.08936 83.6406
9.13412 82.6701
9.17888 82.8086
9.22365 83.0156
9.26841 82.3564
9.31318 83.5605
9.35794 83.7562
9.4027 83.9378
9.44749 85.0592
9.49226 85.0762
9.53703 86.0783
9.5818 88.0667
9.62657 92.2846
9.67134 96.8589
9.71614 93.6012
9.76091 95.2112
9.80569 98.1414
9.85047 101.01
9.89525 118.995
9.94005 133.54
9.98484 201.153
10.0296 379.214
10.0744 856.018
10.1192 1709.57
10.164 1533.0
10.2088 402.369
10.2536 126.928
10.2984 112.051
10.3432 112.126
10.388 106.095
10.4328 125.444
10.4776 170.109
10.5224 295.68
10.5672 520.191
10.612 500.384
10.6568 193.261
10.7017 95.8034
10.7465 87.0188
10.7913 83.5784
10.8361 81.5511
10.8809 79.2095
10.9257 78.5236
10.9706 78.2695
11.0154 75.0609
11.0602 73.3584
11.105 72.1362
11.1499 74.2817
11.1947 78.5805
11.2395 72.4746
11.2844 70.0419
11.3292 67.5505
11.374 66.6783
11.4189 65.9516
11.4637 65.2706
11.5086 65.4677
11.5534 67.1451
11.5983 65.2101
11.6431 64.0822
11.688 63.1267
11.7328 63.3407
11.7777 62.8667
11.8225 62.8259
11.8674 62.467
11.9122 63.1932
11.9571 63.4013
12.002 64.5574
12.0468 70.1009
12.0917 81.565
12.1366 106.11
12.1814 154.937
12.2263 200.501
12.2712 159.31
12.3161 90.8957
12.3609 68.745
12.4058 64.9971
12.4507 64.6626
12.4956 64.5355
12.5405 64.8256
12.5853 65.549
12.6302 70.7531
12.6751 74.3325
12.72 69.3672
12.7649 68.3201
12.8098 68.807
12.8547 69.9251
12.8996 71.7935
12.9445 72.95
12.9894 74.7269
13.0343 76.6041
13.0792 80.3017
13.1242 92.7263
13.1691 117.122
13.214 156.766
13.2589 249.371
13.3038 373.193
13.3487 425.525
13.3937 257.125
13.4386 123.454
13.4835 109.795
13.5285 125.949
13.5734 166.757
13.6183 254.399
13.6633 349.571
13.7082 336.377
13.7531 180.835
13.7981 96.4649
13.843 82.1141
13.888 80.0202
13.9329 77.5487
13.9779 76.4436
14.0228 74.9994
14.0678 73.5299
14.1127 72.9289
14.1577 72.64
14.2027 71.894
14.2476 71.061
14.2926 70.6322
14.3376 71.4834
14.3825 70.3812
14.4275 69.2349
14.4725 69.113
14.5175 69.3773
14.5624 69.3637
14.6074 71.0011
14.6524 71.5822
14.6974 71.1687
14.7424 73.9849
14.7874 81.6527
14.8324 92.5909
14.8774 115.681
14.9224 157.713
14.9674 209.779
15.0124 217.649
15.0574 144.157
15.1024 88.5876
15.1474 72.4316
15.1924 70.6759
15.2374 70.297
15.2824 70.0154
15.3274 68.3097
15.3725 67.1904
15.4175 66.8565
15.4625 66.7486
15.5076 66.4199
15.5526 66.5088
15.5976 66.4401
15.6426 68.3752
15.6877 74.5812
15.7327 82.4251
15.7778 98.6118
15.8228 130.471
15.8679 172.622
15.9129 195.2
15.958 152.804
16.003 95.0068
16.0481 67.2268
16.0931 64.1624
16.1382 62.1761
16.1833 60.7915
16.2283 59.1736
16.2734 58.5756
16.3185 58.6771
16.3636 59.0696
16.4086 57.5363
16.4537 56.4144
16.4988 55.7086
16.5439 55.8595
16.589 55.6347
16.6341 55.2345
16.6792 54.9513
16.7243 55.2148
16.7694 55.1287
16.8145 54.9859
16.8596 55.6366
16.9047 56.4283
16.9498 56.5952
16.9949 56.0287
17.04 56.448
17.0851 57.7893
17.1302 59.447
17.1754 62.634
17.2205 67.7779
17.2656 75.2738
17.3108 82.5459
17.3559 81.6507
17.401 71.4857
17.4462 62.2101
17.4913 59.4718
17.5365 59.5342
17.5815 59.9141
17.6268 60.1377
17.6718 60.6114
17.7171 61.2129
17.7622 61.7827
17.8074 62.7061
17.8525 65.8009
17.8977 69.9193
17.9428 75.4588
17.9881 84.7525
18.0331 102.46
18.0784 123.35
18.1237 142.034
18.1688 132.723
18.214 102.99
18.2591 87.1802
18.3044 91.6712
18.3495 101.067
18.3948 106.208
18.4399 95.3789
18.4852 76.7157
18.5303 66.0565
18.5756 62.6611
18.6207 61.6075
18.666 60.5765
18.7112 59.9634
18.7565 59.3349
18.8016 58.9738
18.8469 58.4789
18.892 58.1897
18.9374 57.7171
18.9825 57.3847
19.0278 57.2801
19.073 57.3639
19.1183 57.9016
19.1635 58.7683
19.2088 60.0494
19.254 62.9993
19.2993 67.4086
19.3447 73.0466
19.3898 76.2595
19.4352 72.0387
19.4804 63.1416
19.5257 56.8463
19.5709 54.2622
19.6163 54.332
19.6615 54.0244
19.7068 53.8858
19.752 53.8076
19.7974 54.3482
19.8426 54.9307
19.888 55.4203
19.9332 56.9686
19.9786 59.4188
20.0238 63.4199
20.0692 67.9692
20.1144 70.422
20.1598 68.328
20.205 63.8957
20.2504 62.6445
20.2957 64.1329
20.3411 65.8605
20.3863 64.1287
20.4318 58.2469
20.477 53.6805
20.5224 51.6709
20.5677 51.1969
20.6131 50.5094
20.6586 50.132
20.7038 49.8883
20.7493 49.6027
20.7945 49.272
20.84 49.1409
20.8853 49.1009
20.9307 48.9264
20.976 49.1612
21.0215 49.1637
21.0668 49.4682
21.1122 49.8806
21.1575 50.6132
21.203 51.2919
21.2483 51.8866
21.2938 51.7899
21.3391 50.2808
21.3846 49.1044
21.4299 48.7856
21.4754 48.6078
21.5207 48.9517
21.5662 49.3445
21.6116 49.5542
21.6571 50.3765
21.7024 51.6001
21.7479 53.3652
21.7933 56.1113
21.8388 59.6509
21.8843 63.2566
21.9297 65.1467
21.9752 63.5733
22.0206 59.5135
22.0661 56.7
22.1115 56.4166
22.157 56.1135
22.2024 54.302
22.248 51.7878
22.2933 50.0347
22.3389 49.5275
22.3843 49.2135
22.4299 49.0139
22.4753 49.0053
22.5208 49.0008
22.5662 48.8405
22.6118 49.0461
22.6572 49.321
22.7028 49.7987
22.7483 50.2283
22.7939 50.938
22.8393 52.7305
22.8849 54.5642
22.9303 56.5226
22.9759 58.2562
23.0214 57.6461
23.067 54.5016
23.1126 51.2794
23.1581 49.4014
23.2037 49.183
23.2492 49.2314
23.2948 49.2341
23.3403 49.6168
23.3859 50.2094
23.4314 51.5775
23.477 53.1986
23.5225 55.1973
23.5682 57.386
23.6137 58.2511
23.6593 55.8253
23.7048 51.5924
23.7505 48.3868
23.796 46.7459
23.8417 46.378
23.8872 45.7547
23.9329 45.4861
23.9784 45.1781
24.0241 44.917
24.0697 44.7308
24.1154 44.2728
24.1609 44.2596
24.2066 43.9739
24.2522 44.0173
24.2979 43.5447
24.3434 43.5116
24.3892 43.4087
24.4349 43.4328
24.4805 43.2465
24.5262 43.3225
24.5718 43.2589
24.6175 43.2366
24.6631 43.0047
24.7089 42.7423
24.7545 42.5781
24.8002 42.5501
24.8458 42.4809
24.8916 42.2964
24.9372 42.5484
24.983 42.8954
25.0286 43.1641
25.0744 43.6135
25.12 44.153
25.1658 44.6393
25.2114 44.9842
25.2572 45.0488
25.3029 45.0813
25.3487 45.1771
25.3943 44.9353
25.4402 43.6282
25.4858 42.746
25.5316 41.631
25.5773 41.2381
25.6231 41.1572
25.669 40.7816
25.7147 40.7184
25.7605 40.7737
25.8062 40.8204
25.8521 40.9815
25.8977 40.922
25.9436 41.198
25.9893 41.3016
26.0352 41.8673
26.0809 41.9378
26.1268 42.0157
26.1725 41.526
26.2184 40.899
26.2641 40.5459
26.31 40.4012
26.3557 40.4686
26.4017 40.5031
26.4474 40.7794
26.4933 41.1841
26.5391 41.6662
26.585 41.9659
26.6308 42.3349
26.6767 42.4651
26.7225 42.1422
26.7684 41.5565
26.8142 41.0691
26.8601 40.6321
26.9059 40.3194
26.9519 39.7876
26.9979 39.4377
27.0437 39.1175
27.0896 38.9636
27.1354 39.0657
27.1814 38.8031
27.2272 38.8325
27.2732 38.7984
27.3191 38.6038
27.3651 38.8165
27.4109 38.8259
27.4569 38.8294
27.5027 38.7662
27.5488 38.927
27.5946 38.6994
27.6407 38.3585
27.6865 38.2261
27.7326 38.0892
27.7784 38.1768
27.8245 38.1842
27.8703 38.2399
27.9164 38.4934
27.9623 38.7933
28.0084 39.0304
28.0543 39.4214
28.1003 39.3576
28.1462 38.9849
28.1923 38.6545
28.2384 38.1549
28.2843 37.9051
28.3304 37.3908
28.3764 36.792
28.4225 36.5511
28.4684 36.4634
28.5145 36.1899
28.5605 36.0405
28.6066 35.7546
28.6526 35.8953
28.6987 35.9145
28.7447 35.7134
28.7908 35.5948
28.8368 35.7209
28.8829 35.5978
28.9289 35.4762
28.9751 35.4202
29.0211 35.1387
29.0673 34.8685
29.1133 34.8884
29.1595 34.5984
29.2055 34.595
29.2517 34.6388
29.2977 34.5009
29.3439 34.5018
29.3899 34.4754
29.4361 34.4341
29.4824 34.2095
29.5284 34.0406
29.5746 33.675
29.6207 33.3101
29.6669 33.4041
29.713 33.1941
29.7593 33.1747
29.8053 33.0522
29.8516 33.0386
29.8977 33.0242
29.9439 32.909
29.99 32.7363
30.0363 32.6742
30.0824 32.7191
30.1287 32.572
30.1748 32.6733
30.2211 32.6504
30.2673 32.5215
30.3136 32.6072
30.3597 32.4511
30.406 32.4182
30.4522 32.2048
30.4985 32.2926
30.5447 32.4234
30.591 32.3821
30.6372 32.3429
30.6835 32.3136
30.7297 32.3991
30.7761 32.3951
30.8224 32.2216
30.8686 31.9449
30.915 31.8906
30.9612 31.7652
31.0076 31.5123
31.0538 31.3113
31.1002 31.2935
31.1464 31.1036
31.1928 31.1998
31.2391 31.2106
31.2855 31.0814
31.3317 31.0159
31.3781 31.1455
31.4244 31.0794
31.4708 30.9765
31.5171 30.9114
31.5636 30.8489
31.6098 30.6017
31.6563 30.6808
31.7026 30.432
31.7491 30.3505
31.7953 30.401
31.8418 30.4116
31.8881 30.3401
31.9346 30.3549
31.9809 30.2843
32.0275 30.0516
32.074 30.0758
32.1203 29.8181
32.1668 29.7363
32.2132 29.5482
32.2597 29.3874
32.306 29.3915
32.3526 29.0528
32.399 29.1414
32.4455 28.9925
32.4919 28.851
32.5385 28.7747
32.5848 28.7159
32.6314 28.6383
32.6778 28.6225
32.7244 28.404
32.7708 28.4176
32.8174 28.255
32.8638 28.2533
32.9104 28.1494
32.9569 28.3015
33.0035 28.149
33.0499 27.995
33.0966 28.038
33.143 27.9913
33.1897 27.9331
33.2361 27.7784
33.2828 27.7438
33.3293 27.5336
33.3759 27.5682
33.4226 27.3845
33.4691 27.2488
33.5158 27.1838
33.5623 27.0912
33.609 26.9546
33.6555 26.8956
33.7022 26.8353
33.7487 26.6457
33.7954 26.7256
33.842 26.5864
33.8887 26.4648
33.9353 26.3549
33.982 26.2832
34.0286 26.2019
34.0753 26.1373
34.1219 26.1567
34.1687 26.0777
34.2152 25.9193
34.262 25.7429
34.3086 25.6978
34.3554 25.6914
34.402 25.6145
34.4488 25.4441
34.4954 25.3901
34.5422 25.2746
34.5889 25.2342
34.6357 25.1656
34.6825 25.0599
34.7292 24.9882
34.776 24.8512
34.8227 24.8778
34.8695 24.8682
34.9162 24.7465
34.9631 24.6527
35.0098 24.7109
35.0566 24.5085
35.1033 24.5533
35.1502 24.5055
35.1969 24.3982
35.2438 24.3131
35.2906 24.3054
35.3375 24.2093
35.3842 24.1589
35.4311 24.1166
35.4779 24.1635
35.5248 24.1317
35.5716 24.0014
35.6185 23.8208
35.6653 23.7035
35.7123 23.6928
35.759 23.6117
35.806 23.5047
35.8528 23.4271
35.8998 23.3564
35.9468 23.2847
35.9936 23.2338
36.0406 23.1746
36.0874 23.1296
36.1345 23.0547
36.1813 22.9827
36.2283 22.8661
36.2752 22.8163
36.3222 22.7901
36.3691 22.6708
36.4161 22.6229
36.463 22.5577
36.5101 22.577
36.557 22.5218
36.6041 22.3411
36.651 22.2564
36.6981 22.2703
36.745 22.2579
36.7921 22.0817
36.839 22.0302
36.8861 21.9449
36.9331 21.8742
36.9802 21.8299
37.0272 21.7561
37.0743 21.6626
37.1213 21.5994
37.1684 21.5217
37.2154 21.4845
37.2626 21.4256
37.3098 21.3143
37.3568 21.2885
37.404 21.2285
37.451 21.1311
37.4982 21.0826
37.5452 21.0237
37.5924 20.9304
37.6395 20.9531
37.6867 20.852
37.7337 20.7586
37.781 20.7387
37.8281 20.6624
37.8753 20.5083
37.9224 20.4589
37.9697 20.3699
38.0168 20.3393
38.064 20.2842
38.1111 20.2332
38.1584 20.0883
38.2056 20.0546
38.2529 20.0428
38.3 19.9554
38.3473 19.9331
38.3945 19.8202
38.4418 19.8674
38.489 19.7837
38.5363 19.669
38.5837 19.6062
38.6309 19.556
38.6782 19.4258
38.7254 19.3639
38.7728 19.3328
38.82 19.2749
38.8674 19.2775
38.9146 19.0939
38.9621 19.0715
39.0093 19.03
39.0567 19.0072
39.104 18.8812
39.1514 18.7885
39.1987 18.7744
39.2461 18.7325
39.2934 18.7016
39.3409 18.5677
39.3882 18.4846
39.4356 18.5071
39.483 18.3929
39.5304 18.3786
39.5778 18.3209
39.6253 18.2125
39.6726 18.1681
39.7201 18.1999
39.7675 18.1355
39.815 17.9964
39.8624 17.9863
39.9099 17.8976
39.9575 17.8747
40.0049 17.8025
40.0525 17.7556
40.0999 17.6659
40.1474 17.6735
40.1949 17.5626
40.2425 17.5638
40.2899 17.4827
40.3375 17.3984
40.385 17.2772
40.4326 17.2474
40.48 17.2328
40.5277 17.1872
40.5752 17.1396
40.6228 17.0763
40.6703 17.0501
40.718 16.9985
40.7655 16.9686
40.8132 16.888
40.8607 16.8857
40.9084 16.8009
40.9559 16.699
41.0036 16.7073
41.0512 16.6204
41.0989 16.5794
41.1465 16.4924
41.1942 16.4182
41.242 16.3266
41.2896 16.3191
41.3373 16.2976
41.3849 16.1838
41.4327 16.1521
41.4803 16.1333
41.5281 16.0347
41.5758 15.9318
41.6236 15.9356
41.6712 15.8879
41.7191 15.8535
41.7667 15.795
41.8146 15.7587
41.8622 15.6736
41.9101 15.612
41.9578 15.5108
42.0057 15.4747
42.0534 15.5304
42.1013 15.4452
42.149 15.3993
42.1969 15.2846
42.2446 15.2381
42.2925 15.2333
42.3403 15.145
42.3882 15.1244
42.436 15.0372
42.4839 15.0565
42.5319 15.0086
42.5797 14.9252
42.6277 14.8948
42.6755 14.7685
42.7235 14.759
42.7713 14.7485
42.8193 14.7219
42.8671 14.6206
42.9152 14.5437
42.963 14.5051
43.0111 14.4451
43.0589 14.4208
43.107 14.3371
43.1549 14.3202
43.2029 14.2694
43.2508 14.1599
43.2989 14.184
43.3468 14.0822
43.3949 14.082
43.4429 13.9924
43.491 13.9395
43.5389 13.8729
43.5871 13.8506
43.635 13.7687
43.6832 13.7159
43.7312 13.7029
43.7793 13.6851
43.8273 13.5972
43.8755 13.5658
43.9237 13.523
43.9717 13.4864
44.0199 13.4306
44.068 13.3798
44.1162 13.3787
44.1642 13.3515
44.2125 13.2841
44.2606 13.2393
44.3088 13.1429
44.3569 13.1373
44.4052 13.0763
44.4533 13.0321
44.5016 12.9347
44.5497 12.9403
44.598 12.9298
44.6461 12.8482
44.6945 12.788
44.7426 12.8116
44.791 12.698
44.8391 12.6736
44.8875 12.6103
44.9357 12.5632
44.984 12.5108
45.0322 12.4988
45.0806 12.4756
45.1288 12.4001
45.1773 12.3567
45.2257 12.2476
45.2739 12.2989
45.3224 12.2172
45.3706 12.1703
45.4191 12.132
45.4673 12.114
45.5158 12.0794
45.5641 12.0173
45.6126 11.9565
45.6609 11.929
45.7094 11.8652
45.7577 11.8506
45.8063 11.8109
45.8546 11.7833
45.9031 11.7469
45.9515 11.6661
46.0001 11.5922
46.0484 11.5807
46.097 11.5678
46.1454 11.5086
46.194 11.4318
46.2424 11.4305
46.291 11.3668
46.3395 11.3452
46.3881 11.2898
46.4365 11.2902
46.4852 11.1995
46.5337 11.1352
46.5823 11.1544
46.631 11.1121
46.6795 11.0631
46.7282 11.0401
46.7767 10.9262
46.8254 10.9071
46.8739 10.8788
46.9226 10.822
46.9712 10.8242
47.0199 10.7535
47.0685 10.7188
47.1173 10.7319
47.1658 10.6383
47.2146 10.6062
47.2632 10.5959
47.312 10.549
47.3606 10.4965
47.4095 10.4438
47.4581 10.3899
47.5069 10.393
47.5556 10.3544
47.6044 10.3016
47.6531 10.276
47.702 10.1899
47.7507 10.1984
47.7996 10.1355
47.8483 10.1288
47.8972 10.0758
47.9461 10.0753
47.9948 9.97854
48.0438 9.95486
48.0925 9.92959
48.1415 9.89219
48.1902 9.85735
48.2392 9.8315
48.288 9.787
48.337 9.77353
48.3858 9.72571
48.4348 9.69541
48.4837 9.66933
48.5327 9.64251
48.5815 9.56731
48.6306 9.55481
48.6795 9.51588
48.7285 9.48086
48.7774 9.41624
48.8265 9.41263
48.8754 9.36746
48.9245 9.30271
48.9734 9.29115
49.0226 9.28732
49.0715 9.25255
49.1206 9.17445
49.1696 9.15359
49.2188 9.12395
49.2679 9.0713
49.3169 8.99657
49.3661 8.96938
49.4151 8.97489
49.4643 8.97261
49.5134 8.9194
49.5626 8.86066
49.6117 8.84354
49.6609 8.80377
49.71 8.77353
49.7592 8.74818
49.8083 8.70233
49.8576 8.69773
49.9067 8.66113
49.956 8.60188
50.0052 8.56763
50.0545 8.58888
50.1036 8.54036
50.153 8.51686
50.2022 8.45807
50.2515 8.40972
50.3007 8.39227
50.3501 8.36112
50.3993 8.29921
50.4487 8.30489
50.498 8.26117
50.5474 8.22707
50.5966 8.19531
50.6461 8.18968
50.6955 8.13328
50.7448 8.09171
50.7943 8.09734
50.8436 8.03825
50.8931 8.02077
50.9424 7.98932
50.9919 7.95517
51.0413 7.87936
51.0908 7.88126
51.1402 7.83881
51.1897 7.81503
51.2391 7.78722
51.2887 7.76641
51.3381 7.66927
51.3877 7.6908
51.4371 7.62949
51.4867 7.61156
51.5362 7.59748
51.5858 7.58329
51.6353 7.51975
51.6849 7.50135
51.7344 7.4714
51.7841 7.4405
51.8336 7.40065
51.8833 7.35375
51.9328 7.34445
51.9826 7.29489
52.0323 7.27635
52.0818 7.25726
52.1316 7.20656
52.1812 7.20336
52.231 7.186
52.2806 7.13877
52.3304 7.1061
52.38 7.07124
52.4298 7.03436
52.4794 7.01632
52.5293 6.97296
52.5789 6.93602
52.6288 6.9456
52.6785 6.88747
52.7284 6.87186
52.7781 6.84223
52.828 6.82176
52.8777 6.76787
52.9276 6.75343
52.9774 6.74575
53.0273 6.70412
53.0771 6.6625
53.1271 6.67044
53.1769 6.58348
53.2269 6.61837
53.2767 6.53631
53.3267 6.52485
53.3765 6.50308
53.4266 6.45842
53.4766 6.43064
53.5265 6.41954
53.5765 6.40271
53.6264 6.37748
53.6765 6.32993
53.7264 6.31461
53.7765 6.27569
53.8265 6.24275
53.8766 6.22088
53.9266 6.16479
53.9767 6.15524
54.0267 6.16568
54.0769 6.10538
54.1269 6.07596
54.1771 6.04435
54.2271 6.0339
54.2773 6.02695
54.3274 5.94566
54.3776 5.91936
54.4277 5.93683
54.478 5.88293
54.528 5.83172
54.5783 5.76843
54.6285 5.74862
54.6788 5.73654
54.7289 5.63571
54.7792 5.63635
54.8296 5.58178
54.8798 5.51337
54.9301 5.50625
54.9803 5.47406
55.0307 5.47487
55.0809 5.40533
55.1314 5.3924
55.1816 5.36648
55.232 5.26194
55.2823 5.23755
55.3328 5.17585
55.383 5.07979
55.4335 5.10916
55.4838 5.03742
55.5344 4.9866
55.5847 4.93906
55.6352 4.91341
55.6856 4.87622
55.7361 4.81879