File: XRD/Ni3Fe_FD0413.xy
TT I
1.27165 7.40475
1.31627 7.10598
1.36089 6.88915
1.40551 6.38931
1.45013 6.5544
1.49476 6.4005
1.53938 6.39641
1.584 5.89158
1.62863 5.08205
1.67325 5.28087
1.71787 5.44584
1.7625 5.28242
1.80712 5.31023
1.85174 4.7325
1.89636 5.46233
1.94099 5.47508
1.98562 4.85979
2.03025 4.64652
2.07487 3.95901
2.11949 5.07539
2.16411 4.91061
2.20874 17.0283
2.25338 28.9989
2.298 6.86514
2.34263 5.14448
2.38725 5.35712
2.43188 6.00277
2.4765 6.71554
2.52115 5.94961
2.56577 6.53068
2.6104 7.69596
2.65503 7.92406
2.69965 7.13909
2.7443 7.53937
2.78893 7.74896
2.83356 7.88084
2.87818 8.71359
2.92281 8.92561
2.96744 9.74756
3.01209 10.4743
3.05672 10.9911
3.10135 12.7209
3.14599 13.3663
3.19062 14.9585
3.23527 15.1194
3.2799 16.297
3.32454 16.9023
3.36917 18.2671
3.4138 19.2662
3.45844 20.0034
3.50309 21.6254
3.54773 22.1486
3.59237 25.0176
3.637 116.348
3.68164 72.6031
3.7263 27.3924
3.77094 26.7915
3.81558 27.5045
3.86022 28.197
3.90486 29.8403
3.9495 30.6464
3.99416 31.7311
4.0388 32.7228
4.08344 34.6336
4.12809 35.2508
4.17273 38.0786
4.21738 45.8514
4.26204 314.665
4.30669 280.694
4.35133 51.6835
4.39598 45.9039
4.44063 57.6586
4.4853 72.9954
4.52995 52.2939
4.5746 52.3473
4.61925 53.9531
4.6639 56.4439
4.70855 59.2902
4.75322 61.5851
4.79788 64.8446
4.84253 67.7266
4.88719 72.3451
4.93184 76.1029
4.97652 82.0985
5.02118 88.5393
5.06583 96.8575
5.11049 109.505
5.15515 199.983
5.19981 421.589
5.24449 2872.67
5.28916 11462.8
5.33382 3593.18
5.37848 223.94
5.42315 137.85
5.46783 118.852
5.5125 109.52
5.55716 104.948
5.60183 100.945
5.6465 99.2275
5.69117 95.981
5.73586 94.5824
5.78053 94.0643
5.8252 93.627
5.86988 94.4705
5.91455 96.853
5.95924 106.362
6.00392 228.314
6.0486 1009.42
6.09328 3884.0
6.13795 3515.63
6.18263 310.179
6.22733 100.328
6.27201 86.7598
6.3167 114.16
6.36138 85.3588
6.40606 71.1182
6.45075 69.0702
6.49545 66.8294
6.54014 65.6285
6.58483 64.7345
6.62952 64.4295
6.67421 104.631
6.71892 175.127
6.76361 73.3404
6.8083 60.4903
6.853 59.0348
6.89769 58.0335
6.94239 57.8697
6.98711 57.5559
7.03181 57.0674
7.07651 56.5771
7.12121 56.4399
7.16591 57.2863
7.21063 57.1437
7.25533 75.6173
7.30004 222.982
7.34475 106.774
7.38945 58.9502
7.43416 56.2965
7.47889 55.8528
7.5236 56.0953
7.56831 56.9869
7.61303 58.9651
7.65774 59.5212
7.70247 57.365
7.74719 57.2165
7.79191 57.8646
7.83663 57.8746
7.88135 58.8503
7.92607 60.1403
7.97081 60.9193
8.01553 61.7681
8.06026 63.5174
8.10498 65.2706
8.14971 77.4787
8.19446 75.7745
8.23919 71.2019
8.28392 73.1976
8.32865 75.4473
8.37339 79.9102
8.41812 87.8845
8.46288 124.134
8.50761 176.509
8.55235 402.907
8.59709 1061.46
8.64183 2116.13
8.68658 1153.83
8.73134 196.147
8.77609 104.095
8.82083 95.5442
8.86558 91.8262
8.91033 92.4239
8.9551 95.2174
8.99985 87.2733
9.04461 85.1824
9.08936 84.2097
9.13412 83.0983
9.17888 83.8378
9.22365 84.4479
9.26841 83.3403
9.31318 83.9366
9.35794 84.582
9.4027 84.215
9.44749 85.3539
9.49226 85.7243
9.53703 87.2505
9.5818 89.0276
9.62657 94.5381
9.67134 103.247
9.71614 96.0296
9.76091 95.7868
9.80569 98.4964
9.85047 102.152
9.89525 132.147
9.94005 148.631
9.98484 184.886
10.0296 355.85
10.0744 749.815
10.1192 1584.47
10.164 1785.94
10.2088 520.545
10.2536 141.497
10.2984 119.083
10.3432 121.998
10.388 108.254
10.4328 121.882
10.4776 163.59
10.5224 264.02
10.5672 469.242
10.612 534.343
10.6568 233.319
10.7017 102.74
10.7465 89.0327
10.7913 85.0455
10.8361 83.0925
10.8809 81.0171
10.9257 80.5739
10.9706 82.0584
11.0154 76.8692
11.0602 74.4367
11.105 73.4115
11.1499 79.3844
11.1947 90.3186
11.2395 78.1999
11.2844 73.0159
11.3292 69.0687
11.374 67.7526
11.4189 67.2949
11.4637 66.4184
11.5086 67.1957
11.5534 71.3843
11.5983 67.5434
11.6431 65.0473
11.688 64.382
11.7328 64.1807
11.7777 64.4876
11.8225 63.866
11.8674 63.8609
11.9122 64.2427
11.9571 64.2513
12.002 64.8452
12.0468 69.2525
12.0917 81.3116
12.1366 102.173
12.1814 142.093
12.2263 198.448
12.2712 185.629
12.3161 109.69
12.3609 74.8426
12.4058 66.6489
12.4507 65.9526
12.4956 66.0939
12.5405 66.1078
12.5853 67.0821
12.6302 77.076
12.6751 85.0659
12.72 72.9143
12.7649 69.3089
12.8098 69.7866
12.8547 71.2234
12.8996 72.1733
12.9445 73.4477
12.9894 75.572
13.0343 76.9713
13.0792 80.4111
13.1242 89.8675
13.1691 115.596
13.214 150.177
13.2589 222.328
13.3038 337.238
13.3487 430.161
13.3937 299.745
13.4386 139.337
13.4835 109.443
13.5285 123.748
13.5734 156.394
13.6183 226.581
13.6633 327.75
13.7082 361.702
13.7531 218.777
13.7981 106.728
13.843 84.0838
13.888 81.5767
13.9329 78.8138
13.9779 77.3798
14.0228 75.7544
14.0678 74.6553
14.1127 74.0498
14.1577 74.4898
14.2027 73.3604
14.2476 71.7987
14.2926 72.1325
14.3376 73.732
14.3825 72.0741
14.4275 70.3726
14.4725 70.0857
14.5175 70.0738
14.5624 70.2795
14.6074 73.1112
14.6524 74.1275
14.6974 72.0714
14.7424 73.4374
14.7874 80.5739
14.8324 91.0589
14.8774 109.374
14.9224 143.549
14.9674 193.452
15.0124 221.53
15.0574 165.404
15.1024 100.06
15.1474 75.1166
15.1924 72.4541
15.2374 73.3784
15.2824 72.8296
15.3274 70.0757
15.3725 68.4052
15.4175 67.805
15.4625 67.651
15.5076 67.9448
15.5526 67.706
15.5976 67.063
15.6426 68.0061
15.6877 73.8453
15.7327 81.8958
15.7778 94.8926
15.8228 119.925
15.8679 158.705
15.9129 192.559
15.958 171.35
16.003 108.228
16.0481 71.9912
16.0931 67.3264
16.1382 64.9792
16.1833 62.4
16.2283 60.4297
16.2734 59.7949
16.3185 60.2918
16.3636 61.59
16.4086 59.7251
16.4537 57.5335
16.4988 56.8307
16.5439 56.8483
16.589 56.5771
16.6341 56.2762
16.6792 55.8274
16.7243 56.3038
16.7694 56.625
16.8145 56.2727
16.8596 56.6442
16.9047 58.7554
16.9498 59.0031
16.9949 57.31
17.04 57.1333
17.0851 58.1461
17.1302 60.0404
17.1754 62.8869
17.2205 66.9678
17.2656 73.0699
17.3108 81.0686
17.3559 83.3951
17.401 74.6057
17.4462 64.4894
17.4913 60.6216
17.5365 60.3321
17.5815 60.5691
17.6268 60.9778
17.6718 61.5599
17.7171 62.3194
17.7622 62.6176
17.8074 63.022
17.8525 65.4945
17.8977 69.8079
17.9428 75.346
17.9881 82.4906
18.0331 96.4958
18.0784 115.356
18.1237 136.932
18.1688 138.196
18.214 112.351
18.2591 89.8342
18.3044 89.1283
18.3495 97.5885
18.3948 106.695
18.4399 101.782
18.4852 82.7997
18.5303 68.9742
18.5756 63.7667
18.6207 62.6827
18.666 61.8979
18.7112 60.9421
18.7565 60.4022
18.8016 59.9223
18.8469 59.3481
18.892 58.9552
18.9374 58.4287
18.9825 58.442
19.0278 58.1021
19.073 58.2099
19.1183 58.8307
19.1635 59.8525
19.2088 60.8957
19.254 62.7726
19.2993 66.3479
19.3447 72.1831
19.3898 77.5615
19.4352 75.5839
19.4804 66.7184
19.5257 59.1654
19.5709 55.6868
19.6163 55.1632
19.6615 54.9421
19.7068 54.6168
19.752 54.4436
19.7974 54.8114
19.8426 55.7293
19.888 56.3836
19.9332 57.226
19.9786 59.4209
20.0238 62.1908
20.0692 66.8292
20.1144 70.4237
20.1598 70.7069
20.205 65.7222
20.2504 63.048
20.2957 63.9276
20.3411 66.2814
20.3863 66.34
20.4318 61.041
20.477 55.9449
20.5224 53.2206
20.5677 52.3778
20.6131 51.3725
20.6586 50.8079
20.7038 50.6788
20.7493 50.142
20.7945 50.0669
20.84 49.9993
20.8853 49.6532
20.9307 49.595
20.976 49.8432
21.0215 49.7501
21.0668 50.2569
21.1122 50.5015
21.1575 51.0228
21.203 51.6964
21.2483 52.3795
21.2938 52.8285
21.3391 51.4617
21.3846 50.2397
21.4299 49.5986
21.4754 49.4324
21.5207 49.585
21.5662 49.9283
21.6116 50.1977
21.6571 50.8159
21.7024 51.8902
21.7479 53.5432
21.7933 55.7443
21.8388 58.9414
21.8843 62.6251
21.9297 65.3318
21.9752 65.8935
22.0206 61.9345
22.0661 58.1937
22.1115 57.0386
22.157 57.2575
22.2024 56.2196
22.248 53.4959
22.2933 51.2563
22.3389 50.2907
22.3843 50.268
22.4299 50.1767
22.4753 49.8876
22.5208 49.8376
22.5662 49.5855
22.6118 49.766
22.6572 49.8932
22.7028 50.3833
22.7483 50.7751
22.7939 51.286
22.8393 52.5154
22.8849 54.3196
22.9303 56.2634
22.9759 58.4814
23.0214 58.97
23.067 56.8295
23.1126 53.0402
23.1581 50.7414
23.2037 49.9443
23.2492 49.948
23.2948 49.8847
23.3403 50.1302
23.3859 50.7207
23.4314 51.565
23.477 52.9457
23.5225 54.9799
23.5682 57.1949
23.6137 58.967
23.6593 57.5978
23.7048 53.7664
23.7505 50.0462
23.796 47.8694
23.8417 47.1342
23.8872 46.5379
23.9329 46.1589
23.9784 45.7999
24.0241 45.6773
24.0697 45.5444
24.1154 45.1312
24.1609 45.1462
24.2066 44.7926
24.2522 44.7606
24.2979 44.3709
24.3434 44.3718
24.3892 44.111
24.4349 44.1526
24.4805 43.8203
24.5262 44.0386
24.5718 43.8479
24.6175 44.0941
24.6631 43.9018
24.7089 43.6374
24.7545 43.4358
24.8002 43.2843
24.8458 43.0591
24.8916 43.0803
24.9372 43.1612
24.983 43.3952
25.0286 43.6517
25.0744 44.0339
25.12 44.5515
25.1658 45.2149
25.2114 45.577
25.2572 45.6733
25.3029 45.538
25.3487 45.8525
25.3943 45.8033
25.4402 44.9075
25.4858 43.8156
25.5316 42.6596
25.5773 41.9678
25.6231 41.7418
25.669 41.3211
25.7147 41.5343
25.7605 41.4957
25.8062 41.4173
25.8521 41.6847
25.8977 41.3925
25.9436 41.6877
25.9893 41.6378
26.0352 42.2514
26.0809 42.3242
26.1268 42.6754
26.1725 42.45
26.2184 41.8597
26.2641 41.3974
26.31 41.069
26.3557 41.0237
26.4017 41.0333
26.4474 41.2201
26.4933 41.6611
26.5391 42.0742
26.585 42.4157
26.6308 42.7085
26.6767 43.1078
26.7225 43.0518
26.7684 42.4667
26.8142 41.8871
26.8601 41.4808
26.9059 41.1246
26.9519 40.5035
26.9979 40.0823
27.0437 39.807
27.0896 39.6749
27.1354 39.6978
27.1814 39.5458
27.2272 39.3644
27.2732 39.4116
27.3191 39.2152
27.3651 39.2566
27.4109 39.1186
27.4569 39.3595
27.5027 39.3699
27.5488 39.5261
27.5946 39.2944
27.6407 39.06
27.6865 39.0712
27.7326 38.6454
27.7784 38.7268
27.8245 38.519
27.8703 38.7957
27.9164 39.0032
27.9623 39.108
28.0084 39.4488
28.0543 39.8603
28.1003 39.7818
28.1462 39.6732
28.1923 39.3083
28.2384 38.8472
28.2843 38.5092
28.3304 38.1979
28.3764 37.6815
28.4225 37.257
28.4684 37.1513
28.5145 36.7524
28.5605 36.6677
28.6066 36.5968
28.6526 36.4758
28.6987 36.4673
28.7447 36.2163
28.7908 36.1504
28.8368 36.1982
28.8829 36.2091
28.9289 36.2324
28.9751 35.9461
29.0211 35.817
29.0673 35.4954
29.1133 35.3395
29.1595 35.2161
29.2055 35.0194
29.2517 35.135
29.2977 35.0126
29.3439 35.0858
29.3899 34.9514
29.4361 34.8001
29.4824 34.7941
29.5284 34.5502
29.5746 34.1824
29.6207 33.8034
29.6669 33.8105
29.713 33.6928
29.7593 33.7398
29.8053 33.5865
29.8516 33.5195
29.8977 33.4682
29.9439 33.3608
29.99 33.4019
30.0363 33.2052
30.0824 33.2864
30.1287 33.1591
30.1748 33.16
30.2211 33.0848
30.2673 33.131
30.3136 33.1453
30.3597 32.962
30.406 32.8696
30.4522 32.793
30.4985 32.7566
30.5447 32.806
30.591 32.7134
30.6372 32.9068
30.6835 32.918
30.7297 32.9579
30.7761 32.8598
30.8224 32.6984
30.8686 32.6
30.915 32.3843
30.9612 32.2181
31.0076 31.994
31.0538 31.9416
31.1002 31.8973
31.1464 31.6387
31.1928 31.6429
31.2391 31.6496
31.2855 31.6456
31.3317 31.5335
31.3781 31.6316
31.4244 31.5774
31.4708 31.5489
31.5171 31.4729
31.5636 31.5315
31.6098 31.2771
31.6563 31.1599
31.7026 30.8877
31.7491 30.7402
31.7953 30.7353
31.8418 30.7874
31.8881 30.8274
31.9346 30.7808
31.9809 30.6818
32.0275 30.6119
32.074 30.5157
32.1203 30.3364
32.1668 30.1859
32.2132 30.128
32.2597 29.9286
32.306 29.8474
32.3526 29.6424
32.399 29.6106
32.4455 29.4452
32.4919 29.3067
32.5385 29.2425
32.5848 29.0726
32.6314 29.2037
32.6778 29.0666
32.7244 29.0511
32.7708 28.8697
32.8174 28.8773
32.8638 28.6542
32.9104 28.7534
32.9569 28.6514
33.0035 28.437
33.0499 28.4851
33.0966 28.4236
33.143 28.3618
33.1897 28.2599
33.2361 28.1783
33.2828 28.2507
33.3293 28.0661
33.3759 28.0252
33.4226 27.8522
33.4691 27.8357
33.5158 27.7355
33.5623 27.5441
33.609 27.3525
33.6555 27.2953
33.7022 27.1463
33.7487 27.0862
33.7954 27.061
33.842 26.9773
33.8887 26.8924
33.9353 26.9044
33.982 26.714
34.0286 26.7341
34.0753 26.6134
34.1219 26.506
34.1687 26.4779
34.2152 26.414
34.262 26.2047
34.3086 26.1403
34.3554 26.0926
34.402 25.9888
34.4488 25.9141
34.4954 25.8409
34.5422 25.7274
34.5889 25.6561
34.6357 25.5437
34.6825 25.5419
34.7292 25.4428
34.776 25.3298
34.8227 25.2096
34.8695 25.1835
34.9162 25.1127
34.9631 25.0912
35.0098 25.0836
35.0566 24.8461
35.1033 24.8062
35.1502 24.8301
35.1969 24.7579
35.2438 24.6479
35.2906 24.6937
35.3375 24.663
35.3842 24.4221
35.4311 24.5569
35.4779 24.4817
35.5248 24.3917
35.5716 24.2999
35.6185 24.2181
35.6653 24.0204
35.7123 24.0283
35.759 23.9481
35.806 23.8662
35.8528 23.777
35.8998 23.7029
35.9468 23.6973
35.9936 23.5684
36.0406 23.4822
36.0874 23.4881
36.1345 23.4164
36.1813 23.3894
36.2283 23.2185
36.2752 23.1466
36.3222 23.1978
36.3691 23.073
36.4161 22.9607
36.463 22.9209
36.5101 22.9315
36.557 22.9099
36.6041 22.7073
36.651 22.7099
36.6981 22.6233
36.745 22.5641
36.7921 22.4755
36.839 22.38
36.8861 22.2478
36.9331 22.216
36.9802 22.181
37.0272 22.0411
37.0743 21.9803
37.1213 22.0194
37.1684 21.9188
37.2154 21.7882
37.2626 21.7363
37.3098 21.6786
37.3568 21.616
37.404 21.4935
37.451 21.4467
37.4982 21.4551
37.5452 21.2845
37.5924 21.2737
37.6395 21.2732
37.6867 21.1258
37.7337 21.0193
37.781 20.9555
37.8281 20.9841
37.8753 20.8763
37.9224 20.7941
37.9697 20.7171
38.0168 20.6894
38.064 20.6079
38.1111 20.5257
38.1584 20.4448
38.2056 20.4504
38.2529 20.4123
38.3 20.2721
38.3473 20.334
38.3945 20.1164
38.4418 20.1323
38.489 20.0517
38.5363 19.929
38.5837 19.8698
38.6309 19.8248
38.6782 19.8166
38.7254 19.7354
38.7728 19.6527
38.82 19.545
38.8674 19.5894
38.9146 19.4833
38.9621 19.4571
39.0093 19.3714
39.0567 19.2768
39.104 19.2341
39.1514 19.1042
39.1987 19.1912
39.2461 18.9954
39.2934 18.9773
39.3409 18.9035
39.3882 18.8092
39.4356 18.7259
39.483 18.7208
39.5304 18.7233
39.5778 18.6175
39.6253 18.5809
39.6726 18.5446
39.7201 18.4709
39.7675 18.3373
39.815 18.3512
39.8624 18.2083
39.9099 18.2842
39.9575 18.104
40.0049 18.1171
40.0525 18.0014
40.0999 18.0069
40.1474 17.9429
40.1949 17.8528
40.2425 17.7504
40.2899 17.7397
40.3375 17.6936
40.385 17.6374
40.4326 17.6139
40.48 17.5133
40.5277 17.4577
40.5752 17.391
40.6228 17.3395
40.6703 17.3377
40.718 17.2897
40.7655 17.2433
40.8132 17.103
40.8607 17.1264
40.9084 17.0121
40.9559 17.0083
41.0036 16.9192
41.0512 16.9116
41.0989 16.8045
41.1465 16.7449
41.1942 16.7774
41.242 16.591
41.2896 16.5747
41.3373 16.5102
41.3849 16.5215
41.4327 16.4563
41.4803 16.3845
41.5281 16.3276
41.5758 16.2629
41.6236 16.1854
41.6712 16.1297
41.7191 16.095
41.7667 15.988
41.8146 16.0871
41.8622 15.9001
41.9101 15.8865
41.9578 15.8235
42.0057 15.7639
42.0534 15.7107
42.1013 15.7292
42.149 15.6044
42.1969 15.5658
42.2446 15.5298
42.2925 15.4748
42.3403 15.4108
42.3882 15.3995
42.436 15.2691
42.4839 15.2794
42.5319 15.22
42.5797 15.1468
42.6277 15.1598
42.6755 15.0604
42.7235 14.9877
42.7713 14.9613
42.8193 14.888
42.8671 14.8497
42.9152 14.821
42.963 14.7084
43.0111 14.7009
43.0589 14.6148
43.107 14.5566
43.1549 14.559
43.2029 14.4997
43.2508 14.4651
43.2989 14.38
43.3468 14.3848
43.3949 14.3391
43.4429 14.2726
43.491 14.2103
43.5389 14.1489
43.5871 14.105
43.635 14.0391
43.6832 14.0025
43.7312 13.9164
43.7793 13.9146
43.8273 13.8479
43.8755 13.8013
43.9237 13.749
43.9717 13.7294
44.0199 13.6255
44.068 13.6141
44.1162 13.58
44.1642 13.5272
44.2125 13.4794
44.2606 13.4232
44.3088 13.3441
44.3569 13.3812
44.4052 13.3064
44.4533 13.24
44.5016 13.1655
44.5497 13.1703
44.598 13.0941
44.6461 13.0592
44.6945 13.051
44.7426 12.9858
44.791 12.911
44.8391 12.876
44.8875 12.8512
44.9357 12.7786
44.984 12.7514
45.0322 12.6878
45.0806 12.6329
45.1288 12.5917
45.1773 12.5179
45.2257 12.4971
45.2739 12.4879
45.3224 12.4413
45.3706 12.3987
45.4191 12.3236
45.4673 12.3324
45.5158 12.2751
45.5641 12.2101
45.6126 12.1903
45.6609 12.1313
45.7094 12.0531
45.7577 12.0642
45.8063 11.9833
45.8546 11.9547
45.9031 11.9052
45.9515 11.8641
46.0001 11.8588
46.0484 11.8035
46.097 11.7686
46.1454 11.7272
46.194 11.6098
46.2424 11.5731
46.291 11.5748
46.3395 11.5561
46.3881 11.4583
46.4365 11.481
46.4852 11.4445
46.5337 11.3798
46.5823 11.4015
46.631 11.268
46.6795 11.2469
46.7282 11.1829
46.7767 11.1869
46.8254 11.1273
46.8739 11.0686
46.9226 10.9973
46.9712 10.984
47.0199 10.9403
47.0685 10.9156
47.1173 10.8605
47.1658 10.8326
47.2146 10.7693
47.2632 10.7128
47.312 10.7225
47.3606 10.6445
47.4095 10.623
47.4581 10.6161
47.5069 10.5625
47.5556 10.5251
47.6044 10.4537
47.6531 10.4229
47.702 10.3705
47.7507 10.3499
47.7996 10.3067
47.8483 10.3058
47.8972 10.2616
47.9461 10.221
47.9948 10.1533
48.0438 10.161
48.0925 10.0783
48.1415 10.0726
48.1902 9.98246
48.2392 10.0298
48.288 9.98464
48.337 9.91081
48.3858 9.88816
48.4348 9.81532
48.4837 9.85297
48.5327 9.77598
48.5815 9.73785
48.6306 9.71614
48.6795 9.69784
48.7285 9.64819
48.7774 9.6004
48.8265 9.55551
48.8754 9.5416
48.9245 9.50837
48.9734 9.4739
49.0226 9.42827
49.0715 9.37453
49.1206 9.35449
49.1696 9.34214
49.2188 9.30645
49.2679 9.25409
49.3169 9.21961
49.3661 9.14822
49.4151 9.12171
49.4643 9.1357
49.5134 9.06056
49.5626 9.0222
49.6117 8.99323
49.6609 8.96141
49.71 8.91624
49.7592 8.87127
49.8083 8.86604
49.8576 8.845
49.9067 8.76971
49.956 8.77922
50.0052 8.72122
50.0545 8.72349
50.1036 8.67902
50.153 8.58719
50.2022 8.62071
50.2515 8.57728
50.3007 8.48359
50.3501 8.50829
50.3993 8.46104
50.4487 8.40559
50.498 8.40338
50.5474 8.36311
50.5966 8.37363
50.6461 8.29559
50.6955 8.2686
50.7448 8.2434
50.7943 8.20371
50.8436 8.19186
50.8931 8.12549
50.9424 8.10965
50.9919 8.07228
51.0413 8.05365
51.0908 8.00969
51.1402 7.97929
51.1897 7.90735
51.2391 7.94577
51.2887 7.88302
51.3381 7.82721
51.3877 7.79496
51.4371 7.77799
51.4867 7.75813
51.5362 7.73385
51.5858 7.71205
51.6353 7.68026
51.6849 7.61534
51.7344 7.61345
51.7841 7.57901
51.8336 7.5331
51.8833 7.45431
51.9328 7.47587
51.9826 7.41999
52.0323 7.42634
52.0818 7.37158
52.1316 7.33057
52.1812 7.3306
52.231 7.28924
52.2806 7.2351
52.3304 7.21393
52.38 7.20218
52.4298 7.16488
52.4794 7.122
52.5293 7.08768
52.5789 7.08663
52.6288 7.02507
52.6785 7.00053
52.7284 6.98208
52.7781 6.95757
52.828 6.94145
52.8777 6.88947
52.9276 6.87362
52.9774 6.83705
53.0273 6.80215
53.0771 6.77713
53.1271 6.76128
53.1769 6.70046
53.2269 6.64072
53.2767 6.68721
53.3267 6.63371
53.3765 6.61315
53.4266 6.61222
53.4766 6.57958
53.5265 6.52495
53.5765 6.50689
53.6264 6.46249
53.6765 6.44874
53.7264 6.38534
53.7765 6.38674
53.8265 6.38383
53.8766 6.33176
53.9266 6.30456
53.9767 6.24181
54.0267 6.25813
54.0769 6.24051
54.1269 6.19512
54.1771 6.15056
54.2271 6.16487
54.2773 6.07923
54.3274 6.07373
54.3776 6.00258
54.4277 6.02168
54.478 5.93245
54.528 5.97321
54.5783 5.8755
54.6285 5.86067
54.6788 5.81316
54.7289 5.75623
54.7792 5.69618
54.8296 5.66381
54.8798 5.63017
54.9301 5.60213
54.9803 5.57345
55.0307 5.53618
55.0809 5.59393
55.1314 5.48119
55.1816 5.42213
55.232 5.37521
55.2823 5.36659
55.3328 5.31023
55.383 5.23909
55.4335 5.19479
55.4838 5.12717
55.5344 5.0717
55.5847 5.07779
55.6352 5.00151
55.6856 4.96829
55.7361 4.85556