File: XRD/Ni3Fe_FD1054.xy
TT I
1.27165 6.8927
1.31627 6.7115
1.36089 6.63498
1.40551 5.8657
1.45013 5.56722
1.49476 5.4665
1.53938 5.20165
1.584 4.80836
1.62863 4.89362
1.67325 4.92037
1.71787 4.62274
1.7625 4.0825
1.80712 4.923
1.85174 4.00033
1.89636 4.082
1.94099 3.61897
1.98562 4.41231
2.03025 4.25175
2.07487 4.22203
2.11949 4.56554
2.16411 4.7796
2.20874 5.15285
2.25338 5.84031
2.298 4.87131
2.34263 4.61921
2.38725 5.80844
2.43188 5.77655
2.4765 7.25198
2.52115 6.45535
2.56577 8.19173
2.6104 8.15667
2.65503 8.42956
2.69965 8.74497
2.7443 7.92683
2.78893 8.93811
2.83356 8.59508
2.87818 8.59934
2.92281 9.18942
2.96744 9.65583
3.01209 9.59945
3.05672 10.785
3.10135 12.1695
3.14599 12.5765
3.19062 13.9892
3.23527 14.7183
3.2799 15.5598
3.32454 16.4934
3.36917 17.3234
3.4138 18.0645
3.45844 18.6857
3.50309 19.9607
3.54773 20.5251
3.59237 21.2622
3.637 27.5359
3.68164 26.8287
3.7263 23.8607
3.77094 24.6195
3.81558 25.222
3.86022 25.9869
3.90486 27.8357
3.9495 28.297
3.99416 29.4447
4.0388 30.6326
4.08344 31.4366
4.12809 32.42
4.17273 33.8972
4.21738 35.1379
4.26204 52.0041
4.30669 57.2098
4.35133 40.9701
4.39598 40.7757
4.44063 43.3407
4.4853 46.3172
4.52995 46.269
4.5746 48.6549
4.61925 50.4861
4.6639 52.5224
4.70855 55.4606
4.75322 57.8064
4.79788 60.5742
4.84253 63.8527
4.88719 68.2777
4.93184 71.2002
4.97652 76.9025
5.02118 82.5201
5.06583 89.8912
5.11049 97.7503
5.15515 117.898
5.19981 233.124
5.24449 2502.1
5.28916 13482.1
5.33382 3298.77
5.37848 211.672
5.42315 123.877
5.46783 108.259
5.5125 101.102
5.55716 97.3673
5.60183 93.6342
5.6465 91.2052
5.69117 89.6146
5.73586 87.6041
5.78053 87.0857
5.8252 86.337
5.86988 87.0384
5.91455 88.6024
5.95924 95.4696
6.00392 163.721
6.0486 894.798
6.09328 4550.39
6.13795 3600.84
6.18263 238.076
6.22733 87.1328
6.27201 75.5292
6.3167 73.0197
6.36138 68.6667
6.40606 64.9666
6.45075 63.779
6.49545 61.9248
6.54014 60.1469
6.58483 59.0572
6.62952 58.1317
6.67421 58.7339
6.71892 64.1783
6.76361 56.2056
6.8083 54.4303
6.853 53.7061
6.89769 53.1905
6.94239 53.4235
6.98711 52.1664
7.03181 52.224
7.07651 51.7701
7.12121 51.6841
7.16591 51.3359
7.21063 51.1689
7.25533 51.7347
7.30004 61.5089
7.34475 55.4239
7.38945 51.6427
7.43416 51.2748
7.47889 51.7523
7.5236 58.6998
7.56831 73.7694
7.61303 57.2319
7.65774 52.7979
7.70247 53.301
7.74719 53.4556
7.79191 53.7007
7.83663 53.856
7.88135 54.8119
7.92607 55.7916
7.97081 56.6545
8.01553 57.577
8.06026 58.9441
8.10498 60.2088
8.14971 62.4767
8.19446 63.8568
8.23919 65.697
8.28392 67.9342
8.32865 70.3565
8.37339 74.2051
8.41812 77.7379
8.46288 86.525
8.50761 128.324
8.55235 373.099
8.59709 1087.28
8.64183 2267.12
8.68658 1098.53
8.73134 173.053
8.77609 94.6799
8.82083 88.2635
8.86558 85.7584
8.91033 83.7069
8.9551 82.387
8.99985 80.8897
9.04461 80.0341
9.08936 79.6884
9.13412 78.765
9.17888 79.4308
9.22365 90.7883
9.26841 113.542
9.31318 88.9706
9.35794 79.9977
9.4027 80.3061
9.44749 80.3688
9.49226 81.1826
9.53703 81.5282
9.5818 83.2594
9.62657 84.4619
9.67134 86.8339
9.71614 87.9664
9.76091 89.77
9.80569 91.6009
9.85047 94.0217
9.89525 99.2681
9.94005 106.065
9.98484 147.449
10.0296 350.171
10.0744 775.354
10.1192 1762.62
10.164 1682.16
10.2088 438.6
10.2536 124.984
10.2984 103.075
10.3432 100.945
10.388 97.7494
10.4328 107.556
10.4776 161.147
10.5224 271.401
10.5672 508.264
10.612 567.516
10.6568 228.696
10.7017 104.094
10.7465 86.0142
10.7913 79.8858
10.8361 77.8902
10.8809 75.4798
10.9257 73.4769
10.9706 72.2254
11.0154 70.7556
11.0602 69.2528
11.105 68.4704
11.1499 66.9338
11.1947 67.3031
11.2395 65.6011
11.2844 64.8542
11.3292 63.5716
11.374 63.1338
11.4189 62.5088
11.4637 61.7684
11.5086 61.2978
11.5534 61.145
11.5983 60.8421
11.6431 60.8075
11.688 59.9427
11.7328 59.7648
11.7777 59.8256
11.8225 59.723
11.8674 59.8372
11.9122 62.0105
11.9571 68.2543
12.002 66.5572
12.0468 64.3646
12.0917 77.0009
12.1366 98.8753
12.1814 146.074
12.2263 202.263
12.2712 174.782
12.3161 98.6744
12.3609 64.6699
12.4058 61.1568
12.4507 61.142
12.4956 61.33
12.5405 61.553
12.5853 62.142
12.6302 62.5461
12.6751 64.0277
12.72 64.1619
12.7649 64.5214
12.8098 65.5068
12.8547 66.5444
12.8996 67.8367
12.9445 69.078
12.9894 70.781
13.0343 72.8777
13.0792 76.3868
13.1242 82.5236
13.1691 107.9
13.214 148.073
13.2589 228.715
13.3038 367.14
13.3487 444.579
13.3937 279.716
13.4386 127.555
13.4835 99.1731
13.5285 120.395
13.5734 156.444
13.6183 237.031
13.6633 355.198
13.7082 358.981
13.7531 206.29
13.7981 100.338
13.843 79.579
13.888 76.939
13.9329 74.5365
13.9779 73.6355
14.0228 72.3034
14.0678 70.9784
14.1127 71.6227
14.1577 75.0035
14.2027 73.3874
14.2476 68.7146
14.2926 67.5195
14.3376 67.338
14.3825 66.8796
14.4275 66.376
14.4725 66.2777
14.5175 66.5759
14.5624 66.1314
14.6074 66.7118
14.6524 67.1528
14.6974 67.2963
14.7424 68.5838
14.7874 74.401
14.8324 88.6278
14.8774 110.159
14.9224 148.563
14.9674 208.187
15.0124 227.907
15.0574 160.83
15.1024 93.9018
15.1474 70.987
15.1924 67.7597
15.2374 66.5019
15.2824 65.8577
15.3274 64.8952
15.3725 64.3088
15.4175 64.0595
15.4625 63.6802
15.5076 63.3999
15.5526 63.3497
15.5976 63.4828
15.6426 63.851
15.6877 68.5627
15.7327 79.6159
15.7778 94.7207
15.8228 122.432
15.8679 169.195
15.9129 202.569
15.958 168.363
16.003 103.816
16.0481 69.5365
16.0931 62.8066
16.1382 59.9386
16.1833 58.1763
16.2283 57.0435
16.2734 56.3752
16.3185 55.4778
16.3636 55.0723
16.4086 54.5373
16.4537 54.0236
16.4988 53.3409
16.5439 53.3818
16.589 53.0406
16.6341 52.9404
16.6792 52.2488
16.7243 52.7694
16.7694 52.7804
16.8145 52.5549
16.8596 52.9863
16.9047 53.6464
16.9498 54.1921
16.9949 54.0532
17.04 53.9437
17.0851 54.8102
17.1302 57.07
17.1754 60.3007
17.2205 64.853
17.2656 72.4857
17.3108 81.7688
17.3559 82.5694
17.401 72.0105
17.4462 61.358
17.4913 57.5024
17.5365 57.3803
17.5815 57.3036
17.6268 57.7943
17.6718 58.211
17.7171 58.6547
17.7622 59.9994
17.8074 60.684
17.8525 61.8014
17.8977 66.5329
17.9428 73.3419
17.9881 81.995
18.0331 97.8259
18.0784 121.373
18.1237 142.114
18.1688 137.404
18.214 108.859
18.2591 87.9561
18.3044 88.9798
18.3495 99.5897
18.3948 107.69
18.4399 99.0781
18.4852 79.2176
18.5303 65.8775
18.5756 61.388
18.6207 60.0343
18.666 58.9573
18.7112 58.0633
18.7565 57.3712
18.8016 57.067
18.8469 56.3446
18.892 56.2774
18.9374 55.7881
18.9825 55.3758
19.0278 55.1165
19.073 55.2465
19.1183 55.377
19.1635 56.2481
19.2088 58.1556
19.254 60.6266
19.2993 65.4861
19.3447 72.239
19.3898 76.0904
19.4352 72.3879
19.4804 63.3454
19.5257 56.083
19.5709 53.2253
19.6163 52.5614
19.6615 52.2197
19.7068 51.8158
19.752 51.6679
19.7974 51.9316
19.8426 52.7509
19.888 53.7342
19.9332 55.058
19.9786 57.3611
20.0238 61.0595
20.0692 66.5147
20.1144 70.6348
20.1598 69.2527
20.205 64.0758
20.2504 61.8968
20.2957 63.5621
20.3411 65.7434
20.3863 64.1105
20.4318 58.3326
20.477 52.8432
20.5224 50.0661
20.5677 49.2251
20.6131 48.9555
20.6586 48.2285
20.7038 48.1869
20.7493 48.0044
20.7945 47.8975
20.84 47.7324
20.8853 47.562
20.9307 47.2596
20.976 47.4514
21.0215 47.4744
21.0668 47.5997
21.1122 48.2005
21.1575 48.8702
21.203 49.5258
21.2483 50.3512
21.2938 50.6841
21.3391 49.2698
21.3846 47.8293
21.4299 47.2452
21.4754 47.2943
21.5207 47.433
21.5662 47.4986
21.6116 47.8504
21.6571 48.9085
21.7024 49.9985
21.7479 51.7747
21.7933 54.1961
21.8388 57.9677
21.8843 62.7876
21.9297 65.4077
21.9752 63.9976
22.0206 59.7058
22.0661 56.4619
22.1115 55.9898
22.157 55.9119
22.2024 54.2992
22.248 51.2263
22.2933 49.0954
22.3389 47.8805
22.3843 47.8848
22.4299 47.53
22.4753 47.3607
22.5208 47.51
22.5662 47.4794
22.6118 47.5242
22.6572 47.6562
22.7028 48.389
22.7483 48.9963
22.7939 49.8395
22.8393 51.2242
22.8849 53.2596
22.9303 55.9049
22.9759 57.8221
23.0214 57.4228
23.067 54.5464
23.1126 51.0186
23.1581 48.5986
23.2037 47.9037
23.2492 47.7104
23.2948 47.8551
23.3403 48.5121
23.3859 49.3239
23.4314 50.53
23.477 51.9155
23.5225 54.5094
23.5682 57.223
23.6137 58.4369
23.6593 56.4316
23.7048 52.1144
23.7505 48.2682
23.796 46.0161
23.8417 45.0246
23.8872 44.6497
23.9329 44.4349
23.9784 43.8957
24.0241 43.6893
24.0697 43.5225
24.1154 43.049
24.1609 43.0121
24.2066 42.7463
24.2522 42.6007
24.2979 42.4587
24.3434 42.2585
24.3892 42.1313
24.4349 42.0661
24.4805 41.9212
24.5262 42.1935
24.5718 42.1798
24.6175 42.1128
24.6631 42.1028
24.7089 41.5793
24.7545 41.4382
24.8002 41.2365
24.8458 41.1995
24.8916 41.2964
24.9372 41.4113
24.983 41.5757
25.0286 41.9973
25.0744 42.7121
25.12 43.2363
25.1658 43.8423
25.2114 44.2492
25.2572 44.484
25.3029 44.4459
25.3487 44.6624
25.3943 44.3972
25.4402 43.2205
25.4858 41.8339
25.5316 40.7723
25.5773 40.2317
25.6231 40.1375
25.669 39.6576
25.7147 39.7515
25.7605 39.6452
25.8062 39.7836
25.8521 39.8479
25.8977 39.8112
25.9436 40.1014
25.9893 40.263
26.0352 40.7999
26.0809 40.9926
26.1268 41.2615
26.1725 41.0785
26.2184 40.3044
26.2641 39.8141
26.31 39.3129
26.3557 39.4231
26.4017 39.4755
26.4474 39.891
26.4933 39.945
26.5391 40.605
26.585 41.1754
26.6308 41.8563
26.6767 41.9412
26.7225 41.8453
26.7684 41.1974
26.8142 40.5147
26.8601 40.0698
26.9059 39.5868
26.9519 38.9083
26.9979 38.7506
27.0437 38.2176
27.0896 38.0041
27.1354 38.0583
27.1814 37.9737
27.2272 37.9912
27.2732 37.8706
27.3191 37.6786
27.3651 37.7601
27.4109 37.8607
27.4569 37.9849
27.5027 37.9595
27.5488 38.0239
27.5946 37.8158
27.6407 37.6441
27.6865 37.537
27.7326 37.3614
27.7784 37.2097
27.8245 37.2421
27.8703 37.4145
27.9164 37.7371
27.9623 37.9974
28.0084 38.3099
28.0543 38.8772
28.1003 38.8968
28.1462 38.6841
28.1923 38.3118
28.2384 37.7775
28.2843 37.3838
28.3304 36.7864
28.3764 36.2493
28.4225 35.8978
28.4684 35.548
28.5145 35.3822
28.5605 35.3546
28.6066 35.0925
28.6526 35.0122
28.6987 35.0524
28.7447 35.0323
28.7908 34.8179
28.8368 34.931
28.8829 34.9073
28.9289 34.6607
28.9751 34.5998
29.0211 34.4268
29.0673 34.0703
29.1133 33.924
29.1595 33.9141
29.2055 33.7844
29.2517 33.7634
29.2977 33.8288
29.3439 33.6988
29.3899 33.6366
29.4361 33.6692
29.4824 33.4806
29.5284 33.2717
29.5746 32.8858
29.6207 32.5514
29.6669 32.4879
29.713 32.4146
29.7593 32.1764
29.8053 32.2623
29.8516 32.1729
29.8977 32.1321
29.9439 32.0795
29.99 31.9339
30.0363 31.8082
30.0824 31.994
30.1287 31.8286
30.1748 31.9333
30.2211 31.9033
30.2673 31.6639
30.3136 31.8662
30.3597 31.7049
30.406 31.57
30.4522 31.4576
30.4985 31.5213
30.5447 31.6851
30.591 31.6115
30.6372 31.7723
30.6835 31.798
30.7297 31.7646
30.7761 31.8806
30.8224 31.6924
30.8686 31.5592
30.915 31.2456
30.9612 31.0011
31.0076 30.8729
31.0538 30.6756
31.1002 30.7564
31.1464 30.5428
31.1928 30.5071
31.2391 30.5934
31.2855 30.4693
31.3317 30.3746
31.3781 30.473
31.4244 30.455
31.4708 30.369
31.5171 30.4376
31.5636 30.4114
31.6098 30.2093
31.6563 30.0159
31.7026 29.8698
31.7491 29.7884
31.7953 29.7534
31.8418 29.7376
31.8881 29.807
31.9346 29.761
31.9809 29.6834
32.0275 29.5107
32.074 29.4237
32.1203 29.3126
32.1668 29.2342
32.2132 28.929
32.2597 28.8407
32.306 28.8284
32.3526 28.5325
32.399 28.4525
32.4455 28.3764
32.4919 28.242
32.5385 28.2626
32.5848 28.0487
32.6314 28.1558
32.6778 28.046
32.7244 27.9138
32.7708 27.7457
32.8174 27.7672
32.8638 27.6096
32.9104 27.633
32.9569 27.5784
33.0035 27.4349
33.0499 27.419
33.0966 27.3747
33.143 27.4183
33.1897 27.3528
33.2361 27.2052
33.2828 27.2941
33.3293 26.9488
33.3759 27.1107
33.4226 26.8583
33.4691 26.752
33.5158 26.6416
33.5623 26.543
33.609 26.3517
33.6555 26.3305
33.7022 26.1894
33.7487 26.1011
33.7954 26.0697
33.842 25.9665
33.8887 25.9636
33.9353 25.9172
33.982 25.7894
34.0286 25.6659
34.0753 25.6086
34.1219 25.5715
34.1687 25.4239
34.2152 25.3896
34.262 25.2549
34.3086 25.1506
34.3554 25.1895
34.402 24.9493
34.4488 24.9341
34.4954 24.8767
34.5422 24.7631
34.5889 24.6967
34.6357 24.5878
34.6825 24.4537
34.7292 24.4893
34.776 24.3512
34.8227 24.4181
34.8695 24.2975
34.9162 24.1693
34.9631 24.1172
35.0098 24.1308
35.0566 23.9503
35.1033 23.9077
35.1502 23.9299
35.1969 23.8255
35.2438 23.8316
35.2906 23.7812
35.3375 23.7512
35.3842 23.7005
35.4311 23.669
35.4779 23.589
35.5248 23.5442
35.5716 23.3989
35.6185 23.3868
35.6653 23.3509
35.7123 23.2483
35.759 23.166
35.806 23.0335
35.8528 22.9563
35.8998 22.8565
35.9468 22.7319
35.9936 22.7191
36.0406 22.6881
36.0874 22.6889
36.1345 22.5058
36.1813 22.5101
36.2283 22.3547
36.2752 22.2907
36.3222 22.3717
36.3691 22.2611
36.4161 22.0621
36.463 22.1249
36.5101 22.0722
36.557 22.0321
36.6041 21.8459
36.651 21.8466
36.6981 21.8239
36.745 21.594
36.7921 21.689
36.839 21.5474
36.8861 21.5199
36.9331 21.4643
36.9802 21.3597
37.0272 21.241
37.0743 21.2012
37.1213 21.1151
37.1684 21.0926
37.2154 21.0129
37.2626 20.9525
37.3098 20.906
37.3568 20.8348
37.404 20.6702
37.451 20.6561
37.4982 20.644
37.5452 20.5138
37.5924 20.446
37.6395 20.4796
37.6867 20.4061
37.7337 20.3365
37.781 20.1906
37.8281 20.1857
37.8753 20.0465
37.9224 20.0065
37.9697 19.9659
38.0168 19.9501
38.064 19.8613
38.1111 19.8002
38.1584 19.7208
38.2056 19.6882
38.2529 19.6021
38.3 19.5588
38.3473 19.5272
38.3945 19.4101
38.4418 19.3435
38.489 19.2881
38.5363 19.2009
38.5837 19.1489
38.6309 19.1131
38.6782 19.0401
38.7254 18.9714
38.7728 18.9725
38.82 18.8224
38.8674 18.8122
38.9146 18.7461
38.9621 18.6441
39.0093 18.5756
39.0567 18.5212
39.104 18.4847
39.1514 18.3868
39.1987 18.3737
39.2461 18.4201
39.2934 18.2786
39.3409 18.1785
39.3882 18.1778
39.4356 18.0808
39.483 17.9821
39.5304 17.9265
39.5778 17.9909
39.6253 17.8784
39.6726 17.7576
39.7201 17.7812
39.7675 17.6825
39.815 17.6811
39.8624 17.5554
39.9099 17.5699
39.9575 17.4409
40.0049 17.4628
40.0525 17.3024
40.0999 17.3195
40.1474 17.2491
40.1949 17.2385
40.2425 17.1258
40.2899 17.0622
40.3375 17.0554
40.385 16.9898
40.4326 16.9856
40.48 16.8314
40.5277 16.8354
40.5752 16.8163
40.6228 16.7167
40.6703 16.7307
40.718 16.6157
40.7655 16.5611
40.8132 16.5041
40.8607 16.4646
40.9084 16.3643
40.9559 16.3834
41.0036 16.3293
41.0512 16.239
41.0989 16.2141
41.1465 16.1688
41.1942 16.0527
41.242 15.9622
41.2896 15.9787
41.3373 15.9226
41.3849 15.866
41.4327 15.847
41.4803 15.815
41.5281 15.7427
41.5758 15.6544
41.6236 15.618
41.6712 15.58
41.7191 15.5538
41.7667 15.4512
41.8146 15.4069
41.8622 15.3626
41.9101 15.3108
41.9578 15.2533
42.0057 15.14
42.0534 15.1136
42.1013 15.0689
42.149 15.0336
42.1969 15.015
42.2446 14.9812
42.2925 14.9101
42.3403 14.7893
42.3882 14.8191
42.436 14.7794
42.4839 14.7128
42.5319 14.6265
42.5797 14.6099
42.6277 14.5352
42.6755 14.5381
42.7235 14.4309
42.7713 14.46
42.8193 14.3121
42.8671 14.2919
42.9152 14.2298
42.963 14.2127
43.0111 14.1491
43.0589 14.1093
43.107 14.0816
43.1549 13.9672
43.2029 13.8907
43.2508 13.9435
43.2989 13.8646
43.3468 13.7927
43.3949 13.7478
43.4429 13.7075
43.491 13.655
43.5389 13.6245
43.5871 13.5635
43.635 13.4939
43.6832 13.495
43.7312 13.4546
43.7793 13.3795
43.8273 13.3729
43.8755 13.2889
43.9237 13.2742
43.9717 13.1857
44.0199 13.1755
44.068 13.1444
44.1162 13.0494
44.1642 13.0527
44.2125 13.0262
44.2606 12.9588
44.3088 12.8863
44.3569 12.8621
44.4052 12.8109
44.4533 12.7146
44.5016 12.6871
44.5497 12.6892
44.598 12.5936
44.6461 12.5824
44.6945 12.5193
44.7426 12.538
44.791 12.4099
44.8391 12.4212
44.8875 12.4067
44.9357 12.3174
44.984 12.2494
45.0322 12.2511
45.0806 12.1898
45.1288 12.1563
45.1773 12.0629
45.2257 12.0312
45.2739 12.0032
45.3224 12.0101
45.3706 11.9098
45.4191 11.8171
45.4673 11.8736
45.5158 11.8058
45.5641 11.7676
45.6126 11.7116
45.6609 11.6538
45.7094 11.6081
45.7577 11.5883
45.8063 11.5335
45.8546 11.5054
45.9031 11.4507
45.9515 11.435
46.0001 11.3865
46.0484 11.3286
46.097 11.324
46.1454 11.3063
46.194 11.2737
46.2424 11.1579
46.291 11.1067
46.3395 11.0747
46.3881 11.0192
46.4365 11.0223
46.4852 10.9976
46.5337 10.9885
46.5823 10.922
46.631 10.8395
46.6795 10.8459
46.7282 10.7645
46.7767 10.7702
46.8254 10.6986
46.8739 10.6701
46.9226 10.642
46.9712 10.5837
47.0199 10.5412
47.0685 10.5117
47.1173 10.4459
47.1658 10.4224
47.2146 10.4046
47.2632 10.353
47.312 10.3379
47.3606 10.3054
47.4095 10.2408
47.4581 10.2189
47.5069 10.1421
47.5556 10.1177
47.6044 10.0607
47.6531 10.0418
47.702 9.9918
47.7507 9.98255
47.7996 9.93659
47.8483 9.89618
47.8972 9.87606
47.9461 9.82621
47.9948 9.77056
48.0438 9.75511
48.0925 9.71708
48.1415 9.68665
48.1902 9.65729
48.2392 9.61981
48.288 9.62323
48.337 9.55205
48.3858 9.51957
48.4348 9.49963
48.4837 9.45428
48.5327 9.43363
48.5815 9.39412
48.6306 9.36949
48.6795 9.30648
48.7285 9.26919
48.7774 9.20958
48.8265 9.29268
48.8754 9.17175
48.9245 9.13513
48.9734 9.10468
49.0226 9.09977
49.0715 9.06068
49.1206 8.96458
49.1696 8.96604
49.2188 8.96606
49.2679 8.86376
49.3169 8.88946
49.3661 8.78584
49.4151 8.77113
49.4643 8.75738
49.5134 8.74378
49.5626 8.67927
49.6117 8.64288
49.6609 8.64654
49.71 8.56087
49.7592 8.55152
49.8083 8.50539
49.8576 8.5064
49.9067 8.44616
49.956 8.44193
50.0052 8.3944
50.0545 8.39821
50.1036 8.32333
50.153 8.29963
50.2022 8.30503
50.2515 8.22475
50.3007 8.16256
50.3501 8.20557
50.3993 8.14334
50.4487 8.11509
50.498 8.06617
50.5474 8.06461
50.5966 8.02904
50.6461 7.98535
50.6955 7.95192
50.7448 7.94588
50.7943 7.88633
50.8436 7.88085
50.8931 7.83052
50.9424 7.82527
50.9919 7.79367
51.0413 7.77316
51.0908 7.74214
51.1402 7.66892
51.1897 7.66785
51.2391 7.62689
51.2887 7.59706
51.3381 7.5464
51.3877 7.5427
51.4371 7.49938
51.4867 7.46762
51.5362 7.4487
51.5858 7.41312
51.6353 7.34985
51.6849 7.34685
51.7344 7.34485
51.7841 7.30027
51.8336 7.29436
51.8833 7.22766
51.9328 7.18511
51.9826 7.15274
52.0323 7.16281
52.0818 7.10746
52.1316 7.01139
52.1812 7.01434
52.231 7.02854
52.2806 6.98901
52.3304 6.95688
52.38 6.9477
52.4298 6.90971
52.4794 6.89328
52.5293 6.85977
52.5789 6.82046
52.6288 6.79678
52.6785 6.74063
52.7284 6.7572
52.7781 6.7053
52.828 6.6932
52.8777 6.65046
52.9276 6.62214
52.9774 6.6066
53.0273 6.57479
53.0771 6.51905
53.1271 6.54875
53.1769 6.4784
53.2269 6.43892
53.2767 6.38089
53.3267 6.37465
53.3765 6.37769
53.4266 6.33345
53.4766 6.29968
53.5265 6.30434
53.5765 6.29992
53.6264 6.27678
53.6765 6.20991
53.7264 6.16171
53.7765 6.19594
53.8265 6.12643
53.8766 6.09272
53.9266 6.08757
53.9767 6.02462
54.0267 6.02634
54.0769 5.9906
54.1269 5.92509
54.1771 5.90523
54.2271 5.93096
54.2773 5.86679
54.3274 5.82855
54.3776 5.81767
54.4277 5.78615
54.478 5.7299
54.528 5.75398
54.5783 5.67232
54.6285 5.65012
54.6788 5.59237
54.7289 5.57123
54.7792 5.52588
54.8296 5.46569
54.8798 5.42326
54.9301 5.36361
54.9803 5.29143
55.0307 5.3945
55.0809 5.31107
55.1314 5.34657
55.1816 5.17579
55.232 5.15423
55.2823 5.144
55.3328 5.07716
55.383 5.02255
55.4335 4.97044
55.4838 4.95936
55.5344 4.9395
55.5847 4.88668
55.6352 4.90758
55.6856 4.82903
55.7361 4.75056