File: XRD/Ni3Fe_FD0875.xy
TT I
1.27165 7.43737
1.31627 6.60355
1.36089 6.81505
1.40551 6.4215
1.45013 5.39759
1.49476 5.87225
1.53938 5.65051
1.584 5.41881
1.62863 5.00651
1.67325 5.06363
1.71787 5.227
1.7625 4.05098
1.80712 4.68777
1.85174 4.41858
1.89636 4.56026
1.94099 5.30876
1.98562 4.88057
2.03025 4.10127
2.07487 4.74061
2.11949 5.15631
2.16411 5.01027
2.20874 15.3691
2.25338 26.5038
2.298 6.39447
2.34263 4.98258
2.38725 6.01113
2.43188 5.87643
2.4765 7.21294
2.52115 7.76875
2.56577 7.68809
2.6104 9.18448
2.65503 8.13425
2.69965 9.1003
2.7443 9.25413
2.78893 8.63607
2.83356 8.91078
2.87818 8.22417
2.92281 9.1
2.96744 9.89746
3.01209 10.1954
3.05672 11.0286
3.10135 12.297
3.14599 13.1255
3.19062 14.4288
3.23527 15.6139
3.2799 15.267
3.32454 16.892
3.36917 17.5862
3.4138 19.1326
3.45844 19.4488
3.50309 21.1178
3.54773 21.7665
3.59237 24.4275
3.637 103.982
3.68164 66.5935
3.7263 26.528
3.77094 26.2304
3.81558 26.7284
3.86022 27.4367
3.90486 28.9935
3.9495 29.7794
3.99416 30.5171
4.0388 32.0907
4.08344 33.273
4.12809 34.5575
4.17273 36.7745
4.21738 43.7536
4.26204 280.087
4.30669 254.634
4.35133 49.8244
4.39598 44.4506
4.44063 54.3697
4.4853 68.5896
4.52995 49.9836
4.5746 50.4102
4.61925 52.4618
4.6639 54.9276
4.70855 57.133
4.75322 59.8048
4.79788 62.9479
4.84253 65.9538
4.88719 69.9125
4.93184 73.5274
4.97652 78.8602
5.02118 84.4494
5.06583 91.4708
5.11049 101.412
5.15515 172.899
5.19981 288.246
5.24449 2373.87
5.28916 12807.8
5.33382 2924.98
5.37848 178.919
5.42315 125.735
5.46783 111.107
5.5125 104.151
5.55716 99.8782
5.60183 96.6442
5.6465 95.2664
5.69117 92.0032
5.73586 90.2119
5.78053 89.2207
5.8252 88.6376
5.86988 88.9746
5.91455 91.0892
5.95924 96.6727
6.00392 169.168
6.0486 799.068
6.09328 4349.46
6.13795 3267.9
6.18263 229.53
6.22733 90.6147
6.27201 81.7954
6.3167 105.54
6.36138 81.1568
6.40606 67.8149
6.45075 66.3471
6.49545 64.6349
6.54014 63.4463
6.58483 62.153
6.62952 61.8743
6.67421 97.8596
6.71892 159.267
6.76361 70.6592
6.8083 58.2463
6.853 56.9294
6.89769 56.3664
6.94239 56.1309
6.98711 55.3759
7.03181 55.2216
7.07651 54.9532
7.12121 54.687
7.16591 55.0082
7.21063 54.9497
7.25533 71.9452
7.30004 199.601
7.34475 98.343
7.38945 56.636
7.43416 54.4885
7.47889 54.1289
7.5236 54.2635
7.56831 54.8678
7.61303 56.8159
7.65774 57.2447
7.70247 55.7567
7.74719 55.5197
7.79191 55.9148
7.83663 56.2035
7.88135 57.0423
7.92607 57.7649
7.97081 58.9246
8.01553 60.2214
8.06026 61.5386
8.10498 63.2053
8.14971 73.6025
8.19446 72.4618
8.23919 68.2632
8.28392 70.4363
8.32865 72.5882
8.37339 76.5817
8.41812 83.4413
8.46288 114.682
8.50761 143.926
8.55235 324.369
8.59709 1103.09
8.64183 2274.2
8.68658 973.812
8.73134 166.762
8.77609 97.6496
8.82083 91.0501
8.86558 88.0337
8.91033 88.8462
8.9551 91.7228
8.99985 84.5655
9.04461 82.2684
9.08936 81.4287
9.13412 80.5994
9.17888 80.6309
9.22365 81.788
9.26841 80.5949
9.31318 80.9135
9.35794 81.1816
9.4027 81.646
9.44749 82.7182
9.49226 83.0694
9.53703 83.9575
9.5818 85.9127
9.62657 91.193
9.67134 98.366
9.71614 92.4621
9.76091 92.1734
9.80569 94.4951
9.85047 98.2871
9.89525 124.241
9.94005 137.498
9.98484 155.33
10.0296 294.594
10.0744 735.64
10.1192 1753.39
10.164 1620.44
10.2088 408.863
10.2536 125.024
10.2984 112.268
10.3432 114.894
10.388 102.857
10.4328 110.85
10.4776 146.055
10.5224 263.26
10.5672 523.306
10.612 506.245
10.6568 200.746
10.7017 95.7094
10.7465 85.1779
10.7913 81.5142
10.8361 79.7336
10.8809 77.8524
10.9257 77.868
10.9706 78.7981
11.0154 73.8623
11.0602 72.0918
11.105 71.0533
11.1499 76.1048
11.1947 85.176
11.2395 74.9108
11.2844 70.0644
11.3292 66.2123
11.374 65.4225
11.4189 64.7548
11.4637 63.9684
11.5086 64.7367
11.5534 68.4877
11.5983 65.0949
11.6431 62.8793
11.688 61.8254
11.7328 62.4222
11.7777 61.8361
11.8225 61.7781
11.8674 61.335
11.9122 61.8022
11.9571 61.9651
12.002 62.3429
12.0468 65.1788
12.0917 74.9651
12.1366 97.3472
12.1814 149.15
12.2263 208.221
12.2712 169.845
12.3161 98.7129
12.3609 71.0232
12.4058 63.9411
12.4507 63.3438
12.4956 63.2654
12.5405 63.7255
12.5853 64.7717
12.6302 73.466
12.6751 80.2656
12.72 69.5558
12.7649 67.0243
12.8098 67.2042
12.8547 68.2546
12.8996 69.7528
12.9445 70.8658
12.9894 72.5383
13.0343 74.3805
13.0792 76.9614
13.1242 83.7133
13.1691 103.931
13.214 137.141
13.2589 223.063
13.3038 365.961
13.3487 429.04
13.3937 264.125
13.4386 123.676
13.4835 100.283
13.5285 112.299
13.5734 147.556
13.6183 239.68
13.6633 352.766
13.7082 346.299
13.7531 185.459
13.7981 96.0463
13.843 80.5643
13.888 78.2433
13.9329 75.8065
13.9779 74.4931
14.0228 73.1497
14.0678 71.9642
14.1127 71.561
14.1577 71.569
14.2027 70.486
14.2476 69.3692
14.2926 69.675
14.3376 70.8555
14.3825 69.4119
14.4275 67.9028
14.4725 67.4016
14.5175 67.7101
14.5624 67.8554
14.6074 70.4367
14.6524 70.8053
14.6974 69.2101
14.7424 69.959
14.7874 75.074
14.8324 83.889
14.8774 104.565
14.9224 148.285
14.9674 207.928
15.0124 217.169
15.0574 146.817
15.1024 89.7117
15.1474 71.5064
15.1924 69.524
15.2374 70.4349
15.2824 69.7289
15.3274 67.617
15.3725 65.6648
15.4175 65.3254
15.4625 64.9581
15.5076 65.3836
15.5526 64.9874
15.5976 64.6707
15.6426 64.9938
15.6877 68.9981
15.7327 75.4787
15.7778 89.3584
15.8228 121.345
15.8679 167.399
15.9129 194.945
15.958 155.813
16.003 94.8745
16.0481 67.0222
16.0931 64.2914
16.1382 62.1081
16.1833 59.8523
16.2283 58.1735
16.2734 57.5126
16.3185 58.3134
16.3636 59.2434
16.4086 57.1837
16.4537 55.3719
16.4988 54.9257
16.5439 54.7751
16.589 54.4817
16.6341 54.0665
16.6792 53.6333
16.7243 53.971
16.7694 54.2098
16.8145 53.9838
16.8596 54.5989
16.9047 56.2054
16.9498 56.5289
16.9949 54.948
17.04 54.9021
17.0851 55.7664
17.1302 57.3868
17.1754 59.98
17.2205 64.9425
17.2656 73.0123
17.3108 82.5669
17.3559 81.2903
17.401 69.865
17.4462 60.7667
17.4913 57.9427
17.5365 58.0513
17.5815 58.2925
17.6268 58.4771
17.6718 59.4594
17.7171 59.8604
17.7622 60.3662
17.8074 60.6549
17.8525 62.2417
17.8977 65.8782
17.9428 70.6749
17.9881 78.8298
18.0331 96.2599
18.0784 119.917
18.1237 138.612
18.1688 129.6
18.214 101.351
18.2591 84.3248
18.3044 88.8319
18.3495 99.3709
18.3948 105.598
18.4399 95.3894
18.4852 76.6917
18.5303 65.2295
18.5756 61.2202
18.6207 60.3533
18.666 59.4716
18.7112 58.8787
18.7565 58.3225
18.8016 57.7265
18.8469 57.2896
18.892 56.9005
18.9374 56.4214
18.9825 56.2765
19.0278 56.273
19.073 56.1393
19.1183 56.4365
19.1635 57.1133
19.2088 58.3659
19.254 60.7131
19.2993 65.3366
19.3447 72.2898
19.3898 76.1865
19.4352 71.6772
19.4804 62.5645
19.5257 56.0334
19.5709 53.5664
19.6163 52.9479
19.6615 53.0143
19.7068 52.3693
19.752 52.3891
19.7974 52.6145
19.8426 53.4185
19.888 53.9416
19.9332 55.0764
19.9786 57.4842
20.0238 61.017
20.0692 66.1616
20.1144 69.4717
20.1598 67.5674
20.205 62.4414
20.2504 61.169
20.2957 63.354
20.3411 65.3518
20.3863 63.9749
20.4318 58.1287
20.477 53.167
20.5224 51.1835
20.5677 50.3691
20.6131 49.6128
20.6586 49.044
20.7038 49.0287
20.7493 48.4527
20.7945 48.3578
20.84 48.0667
20.8853 48.039
20.9307 47.9462
20.976 47.9799
21.0215 47.7846
21.0668 48.3793
21.1122 48.8542
21.1575 49.3528
21.203 50.3065
21.2483 50.795
21.2938 50.7915
21.3391 49.3986
21.3846 48.3819
21.4299 47.7215
21.4754 47.8075
21.5207 47.8452
21.5662 47.931
21.6116 48.2745
21.6571 48.7618
21.7024 49.8239
21.7479 51.431
21.7933 54.0894
21.8388 57.9136
21.8843 61.8209
21.9297 63.8849
21.9752 62.4354
22.0206 58.7344
22.0661 55.9677
22.1115 55.5414
22.157 55.5868
22.2024 53.347
22.248 50.764
22.2933 49.2493
22.3389 48.4818
22.3843 48.386
22.4299 48.322
22.4753 48.2449
22.5208 47.9667
22.5662 47.8934
22.6118 47.8345
22.6572 47.9927
22.7028 48.481
22.7483 48.9273
22.7939 49.5177
22.8393 50.9212
22.8849 52.987
22.9303 55.2219
22.9759 57.2579
23.0214 56.6738
23.067 53.7224
23.1126 50.4667
23.1581 48.6379
23.2037 48.1322
23.2492 48.0657
23.2948 48.0812
23.3403 48.1503
23.3859 48.829
23.4314 49.8118
23.477 51.6349
23.5225 53.9728
23.5682 56.5625
23.6137 57.5138
23.6593 55.0693
23.7048 51.0569
23.7505 47.6476
23.796 46.2085
23.8417 45.3614
23.8872 44.9177
23.9329 44.5673
23.9784 44.1479
24.0241 44.0779
24.0697 43.9317
24.1154 43.4784
24.1609 43.4602
24.2066 43.2823
24.2522 43.1499
24.2979 42.9066
24.3434 42.6992
24.3892 42.6398
24.4349 42.5008
24.4805 42.1909
24.5262 42.5826
24.5718 42.3661
24.6175 42.3023
24.6631 42.2084
24.7089 42.0123
24.7545 41.8965
24.8002 41.8015
24.8458 41.6241
24.8916 41.4244
24.9372 41.4895
24.983 41.827
25.0286 42.1833
25.0744 42.7321
25.12 43.0721
25.1658 43.6879
25.2114 44.0991
25.2572 44.2306
25.3029 44.2831
25.3487 44.3342
25.3943 44.2352
25.4402 42.9321
25.4858 41.9826
25.5316 40.8259
25.5773 40.4152
25.6231 40.308
25.669 39.9444
25.7147 40.0212
25.7605 39.8783
25.8062 39.9934
25.8521 40.1009
25.8977 39.9016
25.9436 40.2514
25.9893 40.272
26.0352 40.9814
26.0809 41.1002
26.1268 41.0661
26.1725 40.8731
26.2184 40.2801
26.2641 39.6941
26.31 39.6357
26.3557 39.4421
26.4017 39.535
26.4474 39.7816
26.4933 40.129
26.5391 40.6302
26.585 41.1187
26.6308 41.5203
26.6767 41.6105
26.7225 41.4122
26.7684 40.9311
26.8142 40.3307
26.8601 39.9969
26.9059 39.5737
26.9519 39.0293
26.9979 38.6643
27.0437 38.3543
27.0896 38.2582
27.1354 38.2569
27.1814 38.122
27.2272 37.978
27.2732 38.0286
27.3191 37.8832
27.3651 37.8888
27.4109 37.8585
27.4569 37.9916
27.5027 38.1107
27.5488 38.0894
27.5946 37.8096
27.6407 37.6006
27.6865 37.6098
27.7326 37.192
27.7784 37.2989
27.8245 37.2599
27.8703 37.4265
27.9164 37.7821
27.9623 37.8673
28.0084 38.1497
28.0543 38.6839
28.1003 38.5475
28.1462 38.3679
28.1923 37.9887
28.2384 37.4625
28.2843 37.0924
28.3304 36.707
28.3764 36.262
28.4225 35.8826
28.4684 35.8312
28.5145 35.4173
28.5605 35.425
28.6066 35.2399
28.6526 35.0781
28.6987 35.15
28.7447 35.0227
28.7908 35.0292
28.8368 35.0174
28.8829 34.9627
28.9289 35.0254
28.9751 34.6661
29.0211 34.4794
29.0673 34.2062
29.1133 34.1108
29.1595 33.898
29.2055 33.851
29.2517 33.8476
29.2977 33.7907
29.3439 33.7801
29.3899 33.8521
29.4361 33.7542
29.4824 33.5359
29.5284 33.2852
29.5746 32.9874
29.6207 32.6746
29.6669 32.6637
29.713 32.4954
29.7593 32.4684
29.8053 32.3556
29.8516 32.3404
29.8977 32.3173
29.9439 32.1791
29.99 32.2905
30.0363 31.99
30.0824 32.1954
30.1287 31.9786
30.1748 32.0896
30.2211 32.0838
30.2673 31.8454
30.3136 31.9353
30.3597 31.8493
30.406 31.7335
30.4522 31.7218
30.4985 31.6482
30.5447 31.7007
30.591 31.5753
30.6372 31.7515
30.6835 31.7653
30.7297 31.839
30.7761 31.7435
30.8224 31.5871
30.8686 31.5784
30.915 31.084
30.9612 31.0653
31.0076 30.8835
31.0538 30.7406
31.1002 30.6705
31.1464 30.519
31.1928 30.5986
31.2391 30.5085
31.2855 30.4336
31.3317 30.3466
31.3781 30.6174
31.4244 30.4738
31.4708 30.3735
31.5171 30.3756
31.5636 30.4635
31.6098 30.112
31.6563 29.8785
31.7026 29.9223
31.7491 29.7645
31.7953 29.7954
31.8418 29.7268
31.8881 29.7575
31.9346 29.7527
31.9809 29.7499
32.0275 29.572
32.074 29.4687
32.1203 29.2308
32.1668 29.2127
32.2132 29.1245
32.2597 28.8578
32.306 28.8303
32.3526 28.5335
32.399 28.6467
32.4455 28.4745
32.4919 28.3242
32.5385 28.2317
32.5848 28.2088
32.6314 28.1517
32.6778 28.0405
32.7244 27.9774
32.7708 27.7677
32.8174 27.8095
32.8638 27.6708
32.9104 27.6918
32.9569 27.729
33.0035 27.5895
33.0499 27.5072
33.0966 27.4077
33.143 27.3709
33.1897 27.4227
33.2361 27.2413
33.2828 27.2525
33.3293 27.0721
33.3759 27.0133
33.4226 26.8606
33.4691 26.7142
33.5158 26.7022
33.5623 26.5755
33.609 26.3931
33.6555 26.2603
33.7022 26.2766
33.7487 26.1937
33.7954 26.0922
33.842 26.0794
33.8887 25.9228
33.9353 25.9375
33.982 25.824
34.0286 25.7017
34.0753 25.6353
34.1219 25.581
34.1687 25.5956
34.2152 25.3916
34.262 25.3113
34.3086 25.2263
34.3554 25.2486
34.402 25.0177
34.4488 24.9635
34.4954 24.8976
34.5422 24.7705
34.5889 24.7539
34.6357 24.6813
34.6825 24.5959
34.7292 24.4844
34.776 24.3916
34.8227 24.4589
34.8695 24.372
34.9162 24.2675
34.9631 24.233
35.0098 24.2318
35.0566 24.0339
35.1033 24.0665
35.1502 23.9913
35.1969 23.8492
35.2438 23.8287
35.2906 23.7762
35.3375 23.7787
35.3842 23.7379
35.4311 23.7739
35.4779 23.7193
35.5248 23.5581
35.5716 23.4656
35.6185 23.3999
35.6653 23.3394
35.7123 23.2061
35.759 23.2628
35.806 23.0504
35.8528 22.9968
35.8998 22.8556
35.9468 22.774
35.9936 22.8249
36.0406 22.7646
36.0874 22.666
36.1345 22.5535
36.1813 22.5926
36.2283 22.3884
36.2752 22.3887
36.3222 22.3727
36.3691 22.2032
36.4161 22.1363
36.463 22.1612
36.5101 22.1422
36.557 22.0805
36.6041 21.9599
36.651 21.9283
36.6981 21.8849
36.745 21.7622
36.7921 21.693
36.839 21.5669
36.8861 21.4735
36.9331 21.4687
36.9802 21.464
37.0272 21.2772
37.0743 21.254
37.1213 21.1081
37.1684 21.144
37.2154 21.1533
37.2626 20.9831
37.3098 20.9564
37.3568 20.8902
37.404 20.8331
37.451 20.6857
37.4982 20.6144
37.5452 20.579
37.5924 20.5415
37.6395 20.5749
37.6867 20.4698
37.7337 20.3017
37.781 20.3196
37.8281 20.2373
37.8753 20.1183
37.9224 20.0769
37.9697 19.9926
38.0168 19.943
38.064 19.9028
38.1111 19.8206
38.1584 19.8226
38.2056 19.7453
38.2529 19.6162
38.3 19.5918
38.3473 19.6193
38.3945 19.4248
38.4418 19.3972
38.489 19.3834
38.5363 19.2921
38.5837 19.1615
38.6309 19.1311
38.6782 19.0736
38.7254 19.0422
38.7728 18.9623
38.82 18.9741
38.8674 18.8938
38.9146 18.8322
38.9621 18.7277
39.0093 18.7628
39.0567 18.6095
39.104 18.5676
39.1514 18.4845
39.1987 18.466
39.2461 18.3997
39.2934 18.3698
39.3409 18.2368
39.3882 18.1638
39.4356 18.1626
39.483 18.0824
39.5304 18.0543
39.5778 18.057
39.6253 17.9581
39.6726 17.8216
39.7201 17.8625
39.7675 17.7674
39.815 17.6517
39.8624 17.6753
39.9099 17.5821
39.9575 17.5731
40.0049 17.4825
40.0525 17.3726
40.0999 17.3756
40.1474 17.2904
40.1949 17.2181
40.2425 17.2098
40.2899 17.1873
40.3375 17.1111
40.385 17.0148
40.4326 16.9851
40.48 16.9067
40.5277 16.8999
40.5752 16.8267
40.6228 16.7118
40.6703 16.736
40.718 16.6557
40.7655 16.5814
40.8132 16.568
40.8607 16.5577
40.9084 16.4702
40.9559 16.4379
41.0036 16.3883
41.0512 16.2582
41.0989 16.2719
41.1465 16.241
41.1942 16.1501
41.242 16.0939
41.2896 16.0632
41.3373 15.9785
41.3849 15.9287
41.4327 15.8319
41.4803 15.8014
41.5281 15.8356
41.5758 15.7069
41.6236 15.6629
41.6712 15.6448
41.7191 15.5377
41.7667 15.5163
41.8146 15.457
41.8622 15.4285
41.9101 15.3645
41.9578 15.249
42.0057 15.2327
42.0534 15.1563
42.1013 15.167
42.149 15.0759
42.1969 15.0436
42.2446 14.985
42.2925 14.9236
42.3403 14.8433
42.3882 14.8347
42.436 14.8347
42.4839 14.7578
42.5319 14.7181
42.5797 14.6312
42.6277 14.6053
42.6755 14.6179
42.7235 14.4713
42.7713 14.4375
42.8193 14.4041
42.8671 14.3082
42.9152 14.3755
42.963 14.2304
43.0111 14.1985
43.0589 14.1669
43.107 14.0779
43.1549 14.0469
43.2029 14.0383
43.2508 13.971
43.2989 13.898
43.3468 13.8643
43.3949 13.8472
43.4429 13.7128
43.491 13.7308
43.5389 13.7112
43.5871 13.631
43.635 13.5611
43.6832 13.5709
43.7312 13.4962
43.7793 13.4361
43.8273 13.4383
43.8755 13.3357
43.9237 13.3325
43.9717 13.2941
44.0199 13.1846
44.068 13.1921
44.1162 13.0913
44.1642 13.0959
44.2125 13.0415
44.2606 12.9899
44.3088 12.9152
44.3569 12.8794
44.4052 12.8704
44.4533 12.7941
44.5016 12.7515
44.5497 12.7316
44.598 12.6905
44.6461 12.6235
44.6945 12.5528
44.7426 12.5444
44.791 12.467
44.8391 12.4627
44.8875 12.3728
44.9357 12.3531
44.984 12.3311
45.0322 12.2553
45.0806 12.2652
45.1288 12.1689
45.1773 12.1277
45.2257 12.1155
45.2739 12.0878
45.3224 11.9592
45.3706 12.0478
45.4191 11.9663
45.4673 11.8833
45.5158 11.824
45.5641 11.8216
45.6126 11.7609
45.6609 11.7208
45.7094 11.6285
45.7577 11.6144
45.8063 11.5789
45.8546 11.577
45.9031 11.5343
45.9515 11.4623
46.0001 11.4301
46.0484 11.4446
46.097 11.352
46.1454 11.3137
46.194 11.2756
46.2424 11.2468
46.291 11.1925
46.3395 11.1518
46.3881 11.088
46.4365 11.1197
46.4852 11.0605
46.5337 10.9778
46.5823 10.955
46.631 10.9085
46.6795 10.8487
46.7282 10.8251
46.7767 10.8428
46.8254 10.7105
46.8739 10.6575
46.9226 10.6641
46.9712 10.6508
47.0199 10.5773
47.0685 10.535
47.1173 10.5046
47.1658 10.4486
47.2146 10.4714
47.2632 10.3487
47.312 10.4159
47.3606 10.3089
47.4095 10.2732
47.4581 10.2265
47.5069 10.1858
47.5556 10.165
47.6044 10.1077
47.6531 10.1216
47.702 10.0313
47.7507 9.97585
47.7996 9.94897
47.8483 9.98978
47.8972 9.95853
47.9461 9.89329
47.9948 9.8393
48.0438 9.75786
48.0925 9.81745
48.1415 9.76176
48.1902 9.6854
48.2392 9.70162
48.288 9.60807
48.337 9.60462
48.3858 9.5522
48.4348 9.52982
48.4837 9.53993
48.5327 9.48361
48.5815 9.446
48.6306 9.40833
48.6795 9.36065
48.7285 9.31938
48.7774 9.3114
48.8265 9.30037
48.8754 9.20889
48.9245 9.18783
48.9734 9.15522
49.0226 9.11369
49.0715 9.11825
49.1206 9.03388
49.1696 9.02014
49.2188 8.98339
49.2679 8.95437
49.3169 8.89346
49.3661 8.83476
49.4151 8.83016
49.4643 8.83899
49.5134 8.77299
49.5626 8.70217
49.6117 8.68868
49.6609 8.70334
49.71 8.59705
49.7592 8.58216
49.8083 8.55241
49.8576 8.531
49.9067 8.48784
49.956 8.45834
50.0052 8.46035
50.0545 8.41327
50.1036 8.34744
50.153 8.32309
50.2022 8.32547
50.2515 8.29469
50.3007 8.21525
50.3501 8.19238
50.3993 8.16973
50.4487 8.16384
50.498 8.1008
50.5474 8.08903
50.5966 8.00786
50.6461 8.03467
50.6955 7.99444
50.7448 8.0116
50.7943 7.90114
50.8436 7.91172
50.8931 7.86019
50.9424 7.81734
50.9919 7.82019
51.0413 7.7797
51.0908 7.74834
51.1402 7.7099
51.1897 7.67625
51.2391 7.66115
51.2887 7.62611
51.3381 7.57804
51.3877 7.60426
51.4371 7.53344
51.4867 7.49668
51.5362 7.45656
51.5858 7.40153
51.6353 7.37542
51.6849 7.37543
51.7344 7.36463
51.7841 7.31406
51.8336 7.31585
51.8833 7.24344
51.9328 7.23975
51.9826 7.18281
52.0323 7.17169
52.0818 7.11758
52.1316 7.0914
52.1812 7.10537
52.231 7.05191
52.2806 7.02779
52.3304 7.01234
52.38 6.98073
52.4298 6.90195
52.4794 6.88349
52.5293 6.88802
52.5789 6.87245
52.6288 6.83572
52.6785 6.79285
52.7284 6.78587
52.7781 6.75666
52.828 6.72417
52.8777 6.64679
52.9276 6.65163
52.9774 6.62731
53.0273 6.61005
53.0771 6.61173
53.1271 6.55993
53.1769 6.55417
53.2269 6.48342
53.2767 6.46048
53.3267 6.46377
53.3765 6.42316
53.4266 6.384
53.4766 6.34047
53.5265 6.32356
53.5765 6.32427
53.6264 6.27132
53.6765 6.2683
53.7264 6.22593
53.7765 6.16697
53.8265 6.09885
53.8766 6.15199
53.9266 6.10723
53.9767 6.09729
54.0267 6.06093
54.0769 6.00819
54.1269 6.02281
54.1771 5.94382
54.2271 5.93362
54.2773 5.91136
54.3274 5.88259
54.3776 5.83404
54.4277 5.8067
54.478 5.80458
54.528 5.75359
54.5783 5.70846
54.6285 5.66533
54.6788 5.61602
54.7289 5.59173
54.7792 5.50237
54.8296 5.49031
54.8798 5.43022
54.9301 5.40403
54.9803 5.37761
55.0307 5.33877
55.0809 5.30313
55.1314 5.3032
55.1816 5.1674
55.232 5.19174
55.2823 5.20895
55.3328 5.1094
55.383 5.01086
55.4335 4.95236
55.4838 4.94978
55.5344 4.91191
55.5847 4.86275
55.6352 4.89376
55.6856 4.77519
55.7361 4.77444