File: XRD/Ni3Fe_FD0013.xy
TT I
1.27165 36.1885
1.31627 36.4533
1.36089 35.0691
1.40551 32.6151
1.45013 32.9086
1.49476 30.8855
1.53938 31.1378
1.584 29.525
1.62863 28.4016
1.67325 27.8689
1.71787 27.0283
1.7625 26.5334
1.80712 26.6754
1.85174 26.1402
1.89636 25.5185
1.94099 26.0206
1.98562 25.6979
2.03025 25.3757
2.07487 25.3262
2.11949 25.9143
2.16411 25.5877
2.20874 26.3776
2.25338 26.1751
2.298 26.5937
2.34263 26.4533
2.38725 26.2841
2.43188 26.4535
2.4765 26.7019
2.52115 26.0766
2.56577 27.0317
2.6104 27.298
2.65503 27.5032
2.69965 30.2174
2.7443 31.4543
2.78893 34.3102
2.83356 36.8185
2.87818 39.7369
2.92281 44.514
2.96744 50.0186
3.01209 57.9857
3.05672 66.4358
3.10135 76.9575
3.14599 84.1528
3.19062 85.3756
3.23527 80.0352
3.2799 70.2694
3.32454 59.3436
3.36917 50.7422
3.4138 44.5015
3.45844 41.3087
3.50309 39.671
3.54773 38.7651
3.59237 39.4545
3.637 40.4178
3.68164 41.2596
3.7263 42.1139
3.77094 41.7454
3.81558 41.17
3.86022 41.1954
3.90486 42.5475
3.9495 43.3455
3.99416 44.7406
4.0388 47.3605
4.08344 50.4999
4.12809 54.8745
4.17273 59.1196
4.21738 67.0787
4.26204 73.4018
4.30669 78.2659
4.35133 79.7445
4.39598 76.2819
4.44063 72.1227
4.4853 68.1387
4.52995 64.2037
4.5746 59.2545
4.61925 57.0807
4.6639 54.2364
4.70855 54.1946
4.75322 55.3784
4.79788 56.2004
4.84253 59.5848
4.88719 63.7487
4.93184 69.388
4.97652 76.9029
5.02118 91.6865
5.06583 114.424
5.11049 136.113
5.15515 173.635
5.19981 255.399
5.24449 500.798
5.28916 1033.28
5.33382 2737.38
5.37848 4027.76
5.42315 1425.43
5.46783 412.746
5.5125 227.04
5.55716 162.708
5.60183 128.729
5.6465 113.899
5.69117 106.046
5.73586 100.438
5.78053 96.0842
5.8252 95.1908
5.86988 99.2311
5.91455 108.029
5.95924 124.513
6.00392 161.734
6.0486 246.163
6.09328 414.594
6.13795 714.503
6.18263 1262.17
6.22733 870.76
6.27201 354.06
6.3167 179.85
6.36138 113.916
6.40606 86.2644
6.45075 73.6921
6.49545 65.4038
6.54014 59.8982
6.58483 56.6815
6.62952 55.0242
6.67421 54.1431
6.71892 53.0964
6.76361 53.162
6.8083 52.3604
6.853 51.3326
6.89769 50.2325
6.94239 49.1392
6.98711 48.4058
7.03181 48.1172
7.07651 48.4233
7.12121 49.3807
7.16591 51.5743
7.21063 53.9184
7.25533 57.0943
7.30004 63.3325
7.34475 69.5688
7.38945 71.3975
7.43416 67.0331
7.47889 63.1947
7.5236 63.9134
7.56831 93.8568
7.61303 167.121
7.65774 95.8271
7.70247 51.2816
7.74719 44.096
7.79191 41.8459
7.83663 40.034
7.88135 39.5017
7.92607 39.4996
7.97081 39.7191
8.01553 39.7232
8.06026 40.1547
8.10498 40.7836
8.14971 42.0524
8.19446 43.0568
8.23919 44.7815
8.28392 46.4464
8.32865 47.9353
8.37339 51.7011
8.41812 55.5721
8.46288 62.4605
8.50761 73.1216
8.55235 94.9881
8.59709 145.06
8.64183 201.397
8.68658 320.405
8.73134 655.541
8.77609 738.98
8.82083 348.251
8.86558 157.2
8.91033 102.436
8.9551 80.2959
8.99985 71.3663
9.04461 64.8244
9.08936 61.3506
9.13412 59.3073
9.17888 59.5229
9.22365 65.4906
9.26841 107.584
9.31318 245.36
9.35794 191.137
9.4027 77.4084
9.44749 56.5985
9.49226 52.1507
9.53703 50.4684
9.5818 49.8241
9.62657 49.8193
9.67134 50.6683
9.71614 51.6926
9.76091 52.7122
9.80569 54.2708
9.85047 56.5943
9.89525 60.0215
9.94005 64.8386
9.98484 73.5418
10.0296 89.8729
10.0744 124.272
10.1192 170.553
10.164 216.561
10.2088 396.308
10.2536 761.021
10.2984 685.978
10.3432 315.219
10.388 149.26
10.4328 100.52
10.4776 84.3122
10.5224 82.7524
10.5672 89.1566
10.612 95.0557
10.6568 130.608
10.7017 240.736
10.7465 295.076
10.7913 181.444
10.8361 86.2143
10.8809 57.606
10.9257 49.4824
10.9706 45.7745
11.0154 44.0289
11.0602 42.8229
11.105 42.0024
11.1499 40.9603
11.1947 40.9423
11.2395 40.4523
11.2844 40.6329
11.3292 40.1326
11.374 39.7015
11.4189 39.3792
11.4637 38.7765
11.5086 38.1579
11.5534 37.8713
11.5983 37.6206
11.6431 37.7312
11.688 37.3722
11.7328 37.2079
11.7777 37.084
11.8225 37.2205
11.8674 37.9148
11.9122 39.4219
11.9571 44.3742
12.002 66.6918
12.0468 95.7721
12.0917 72.6361
12.1366 48.8435
12.1814 46.5287
12.2263 48.2912
12.2712 52.3532
12.3161 64.604
12.3609 88.3896
12.4058 97.08
12.4507 73.7752
12.4956 54.6693
12.5405 46.2097
12.5853 42.4778
12.6302 40.3829
12.6751 39.8552
12.72 39.6281
12.7649 40.0215
12.8098 39.9027
12.8547 39.5612
12.8996 39.5603
12.9445 39.3097
12.9894 39.7699
13.0343 40.203
13.0792 41.6398
13.1242 44.4693
13.1691 54.115
13.214 61.9658
13.2589 62.0349
13.3038 66.0297
13.3487 70.9702
13.3937 84.7237
13.4386 124.727
13.4835 202.876
13.5285 223.624
13.5734 151.596
13.6183 100.002
13.6633 84.0427
13.7082 79.5702
13.7531 90.2959
13.7981 133.76
13.843 207.143
13.888 195.065
13.9329 112.122
13.9779 68.6936
14.0228 53.2341
14.0678 46.8766
14.1127 44.5029
14.1577 45.7487
14.2027 59.1839
14.2476 85.855
14.2926 80.4795
14.3376 51.6369
14.3825 40.6674
14.4275 38.0846
14.4725 37.2869
14.5175 36.9209
14.5624 36.2916
14.6074 36.1387
14.6524 36.5536
14.6974 36.5143
14.7424 37.0877
14.7874 37.5326
14.8324 38.8884
14.8774 40.9332
14.9224 44.9987
14.9674 48.3861
15.0124 50.1075
15.0574 55.9912
15.1024 71.6097
15.1474 105.995
15.1924 133.388
15.2374 109.796
15.2824 72.848
15.3274 52.652
15.3725 44.5487
15.4175 41.3256
15.4625 39.1839
15.5076 38.4558
15.5526 37.8177
15.5976 37.5391
15.6426 37.3017
15.6877 37.3925
15.7327 38.3332
15.7778 39.8399
15.8228 42.8796
15.8679 46.218
15.9129 47.2587
15.958 50.9961
16.003 60.7907
16.0481 84.5056
16.0931 120.908
16.1382 132.399
16.1833 103.045
16.2283 68.953
16.2734 48.7076
16.3185 40.8097
16.3636 36.8985
16.4086 35.1036
16.4537 33.9535
16.4988 32.9734
16.5439 32.6612
16.589 32.1067
16.6341 31.6593
16.6792 31.2053
16.7243 31.1431
16.7694 31.2284
16.8145 30.8781
16.8596 31.1706
16.9047 31.321
16.9498 31.994
16.9949 34.4211
17.04 38.8142
17.0851 39.7035
17.1302 35.3447
17.1754 32.8864
17.2205 32.6676
17.2656 33.087
17.3108 33.7425
17.3559 33.7596
17.401 35.0369
17.4462 37.7548
17.4913 43.3843
17.5365 51.2584
17.5815 51.1838
17.6268 43.4727
17.6718 37.4336
17.7171 34.9522
17.7622 34.4403
17.8074 35.1604
17.8525 38.3522
17.8977 41.9574
17.9428 41.031
17.9881 38.2832
18.0331 39.5311
18.0784 41.129
18.1237 42.5071
18.1688 43.4361
18.214 47.9627
18.2591 58.0979
18.3044 79.9706
18.3495 104.542
18.3948 101.809
18.4399 76.0565
18.4852 59.3667
18.5303 57.5736
18.5756 66.047
18.6207 77.7292
18.666 73.6686
18.7112 58.7826
18.7565 46.0836
18.8016 39.1115
18.8469 36.1676
18.892 34.7931
18.9374 33.9197
18.9825 33.2466
19.0278 32.6351
19.073 32.4711
19.1183 32.4034
19.1635 32.2418
19.2088 32.4632
19.254 33.1671
19.2993 33.9257
19.3447 35.1089
19.3898 37.8304
19.4352 44.1226
19.4804 48.6462
19.5257 46.8154
19.5709 45.438
19.6163 49.2842
19.6615 49.911
19.7068 43.4741
19.752 37.359
19.7974 34.1458
19.8426 32.53
19.888 31.6627
19.9332 31.2964
19.9786 31.3468
20.0238 31.4252
20.0692 31.8752
20.1144 31.7791
20.1598 32.3498
20.205 33.3638
20.2504 35.6557
20.2957 39.9666
20.3411 45.7356
20.3863 48.6242
20.4318 44.3811
20.477 39.9531
20.5224 39.6995
20.5677 43.3165
20.6131 46.1037
20.6586 42.5231
20.7038 36.2811
20.7493 32.5551
20.7945 31.1315
20.84 31.0839
20.8853 32.621
20.9307 33.8796
20.976 32.8371
21.0215 29.8559
21.0668 28.655
21.1122 28.1979
21.1575 28.1298
21.203 27.9621
21.2483 27.9746
21.2938 27.9118
21.3391 27.9725
21.3846 28.3011
21.4299 28.8128
21.4754 30.3357
21.5207 32.1631
21.5662 32.4843
21.6116 31.4844
21.6571 30.1416
21.7024 29.4334
21.7479 29.0044
21.7933 29.3946
21.8388 29.8669
21.8843 30.3934
21.9297 30.4892
21.9752 31.1157
22.0206 32.6173
22.0661 34.628
22.1115 38.5559
22.157 44.7739
22.2024 50.3794
22.248 50.3838
22.2933 46.342
22.3389 42.4013
22.3843 40.756
22.4299 40.0622
22.4753 37.7236
22.5208 34.2071
22.5662 31.6658
22.6118 30.51
22.6572 29.7005
22.7028 29.2782
22.7483 29.1259
22.7939 29.2146
22.8393 29.6275
22.8849 30.6309
22.9303 31.5109
22.9759 31.9127
23.0214 31.1782
23.067 30.7584
23.1126 31.4691
23.1581 33.1962
23.2037 36.7454
23.2492 41.963
23.2948 44.2735
23.3403 41.0411
23.3859 35.9434
23.4314 33.1297
23.477 32.3009
23.5225 33.137
23.5682 34.5375
23.6137 34.7258
23.6593 33.1533
23.7048 32.4832
23.7505 33.0937
23.796 35.6344
23.8417 40.1837
23.8872 45.238
23.9329 45.8965
23.9784 40.4724
24.0241 34.5785
24.0697 31.1093
24.1154 29.5072
24.1609 28.9025
24.2066 28.5143
24.2522 28.0479
24.2979 27.2817
24.3434 26.652
24.3892 26.3581
24.4349 26.174
24.4805 25.8971
24.5262 25.905
24.5718 25.5902
24.6175 25.7541
24.6631 25.8201
24.7089 25.9721
24.7545 26.7157
24.8002 27.4452
24.8458 27.8178
24.8916 27.2221
24.9372 26.5889
24.983 26.1752
25.0286 25.7579
25.0744 25.6228
25.12 25.6115
25.1658 25.6227
25.2114 25.7163
25.2572 26.1395
25.3029 26.4965
25.3487 27.1041
25.3943 28.2315
25.4402 29.3217
25.4858 30.2852
25.5316 30.6524
25.5773 30.5586
25.6231 31.3474
25.669 32.6924
25.7147 32.8303
25.7605 30.6267
25.8062 28.2465
25.8521 26.8662
25.8977 26.4675
25.9436 26.5159
25.9893 26.6755
26.0352 26.402
26.0809 25.7402
26.1268 25.3494
26.1725 25.1296
26.2184 25.1537
26.2641 25.5347
26.31 25.9579
26.3557 26.9671
26.4017 28.1442
26.4474 29.0854
26.4933 28.7574
26.5391 27.7598
26.585 26.7304
26.6308 26.1667
26.6767 25.6196
26.7225 25.6967
26.7684 25.9196
26.8142 26.1956
26.8601 26.8165
26.9059 27.8825
26.9519 29.6385
26.9979 31.5451
27.0437 31.7272
27.0896 31.2728
27.1354 30.3757
27.1814 29.3526
27.2272 27.9244
27.2732 26.589
27.3191 25.4472
27.3651 24.9478
27.4109 24.4561
27.4569 24.2832
27.5027 24.1217
27.5488 24.2663
27.5946 24.2354
27.6407 24.3947
27.6865 24.5574
27.7326 24.3644
27.7784 24.6192
27.8245 24.8558
27.8703 25.5087
27.9164 25.8004
27.9623 25.5361
28.0084 25.1167
28.0543 24.8644
28.1003 24.9144
28.1462 25.5899
28.1923 25.9572
28.2384 26.1631
28.2843 26.0642
28.3304 26.5157
28.3764 28.0115
28.4225 29.3333
28.4684 29.4981
28.5145 28.517
28.5605 27.7462
28.6066 27.3451
28.6526 26.8087
28.6987 25.8516
28.7447 24.8146
28.7908 23.9532
28.8368 23.4248
28.8829 22.9879
28.9289 22.7172
28.9751 22.4471
29.0211 22.3824
29.0673 22.3617
29.1133 22.4325
29.1595 22.5752
29.2055 22.8617
29.2517 23.2017
29.2977 23.3644
29.3439 23.1201
29.3899 22.5667
29.4361 22.1243
29.4824 21.9288
29.5284 21.7604
29.5746 21.6179
29.6207 21.6961
29.6669 21.983
29.713 22.3098
29.7593 22.7169
29.8053 22.9538
29.8516 22.7814
29.8977 22.1748
29.9439 21.5937
29.99 21.3409
30.0363 21.0347
30.0824 20.9901
30.1287 20.9165
30.1748 21.1165
30.2211 21.4383
30.2673 21.4902
30.3136 21.2857
30.3597 20.984
30.406 20.8777
30.4522 20.8274
30.4985 20.8811
30.5447 21.169
30.591 21.34
30.6372 21.5366
30.6835 21.4243
30.7297 21.1928
30.7761 21.0071
30.8224 20.9338
30.8686 20.9583
30.915 21.0904
30.9612 21.3973
31.0076 21.7484
31.0538 22.3699
31.1002 23.2076
31.1464 23.3722
31.1928 23.2522
31.2391 22.9354
31.2855 22.4349
31.3317 21.853
31.3781 21.2149
31.4244 20.8904
31.4708 20.567
31.5171 20.4522
31.5636 20.3878
31.6098 20.3512
31.6563 20.4541
31.7026 20.7131
31.7491 20.7906
31.7953 21.0587
31.8418 21.392
31.8881 21.8049
31.9346 21.8402
31.9809 21.4142
32.0275 20.8243
32.074 20.5191
32.1203 20.3462
32.1668 20.365
32.2132 20.4569
32.2597 20.568
32.306 20.9618
32.3526 21.1537
32.399 21.2662
32.4455 21.1185
32.4919 20.6425
32.5385 20.2895
32.5848 19.9774
32.6314 19.7421
32.6778 19.4387
32.7244 19.1701
32.7708 18.9239
32.8174 18.8145
32.8638 18.7249
32.9104 18.7185
32.9569 18.6233
33.0035 18.6209
33.0499 18.7482
33.0966 18.8341
33.143 18.921
33.1897 18.7383
33.2361 18.5492
33.2828 18.4172
33.3293 18.3688
33.3759 18.4544
33.4226 18.4457
33.4691 18.5209
33.5158 18.7603
33.5623 18.9775
33.609 19.1039
33.6555 19.2407
33.7022 19.2843
33.7487 19.2298
33.7954 19.0123
33.842 18.544
33.8887 18.1616
33.9353 17.9849
33.982 17.8116
34.0286 17.8218
34.0753 17.7312
34.1219 17.6088
34.1687 17.6645
34.2152 17.582
34.262 17.5529
34.3086 17.6075
34.3554 17.7267
34.402 17.573
34.4488 17.3838
34.4954 17.2186
34.5422 17.1544
34.5889 16.9223
34.6357 16.997
34.6825 16.9665
34.7292 17.1398
34.776 16.9503
34.8227 17.0832
34.8695 16.9785
34.9162 16.7969
34.9631 16.6941
35.0098 16.5345
35.0566 16.3781
35.1033 16.287
35.1502 16.3957
35.1969 16.2701
35.2438 16.3418
35.2906 16.3259
35.3375 16.2699
35.3842 16.2781
35.4311 16.3593
35.4779 16.3069
35.5248 16.3358
35.5716 16.27
35.6185 16.27
35.6653 16.2248
35.7123 16.3322
35.759 16.455
35.806 16.6466
35.8528 16.8146
35.8998 16.9691
35.9468 16.9901
35.9936 16.9261
36.0406 16.758
36.0874 16.639
36.1345 16.3131
36.1813 16.0943
36.2283 15.8974
36.2752 15.7673
36.3222 15.7217
36.3691 15.6309
36.4161 15.523
36.463 15.5855
36.5101 15.545
36.557 15.7282
36.6041 15.7355
36.651 15.728
36.6981 15.6348
36.745 15.5823
36.7921 15.4693
36.839 15.2523
36.8861 15.233
36.9331 15.2873
36.9802 15.3489
37.0272 15.3175
37.0743 15.4124
37.1213 15.2752
37.1684 15.2237
37.2154 15.1226
37.2626 14.9575
37.3098 14.8637
37.3568 14.7989
37.404 14.6647
37.451 14.6423
37.4982 14.5688
37.5452 14.4388
37.5924 14.4326
37.6395 14.4332
37.6867 14.3939
37.7337 14.3449
37.781 14.3061
37.8281 14.2419
37.8753 14.1551
37.9224 14.1006
37.9697 14.0998
38.0168 14.0507
38.064 14.1085
38.1111 14.0866
38.1584 14.0788
38.2056 14.1573
38.2529 14.0313
38.3 13.9126
38.3473 13.8466
38.3945 13.6911
38.4418 13.5865
38.489 13.6161
38.5363 13.484
38.5837 13.4912
38.6309 13.5108
38.6782 13.4836
38.7254 13.5521
38.7728 13.5268
38.82 13.4788
38.8674 13.4112
38.9146 13.3648
38.9621 13.2818
39.0093 13.2036
39.0567 13.2811
39.104 13.2293
39.1514 13.2654
39.1987 13.2458
39.2461 13.1809
39.2934 13.1716
39.3409 12.974
39.3882 12.9039
39.4356 12.8311
39.483 12.8159
39.5304 12.732
39.5778 12.6354
39.6253 12.5945
39.6726 12.605
39.7201 12.6456
39.7675 12.5172
39.815 12.5123
39.8624 12.5014
39.9099 12.457
39.9575 12.4185
40.0049 12.4014
40.0525 12.2922
40.0999 12.2984
40.1474 12.3317
40.1949 12.303
40.2425 12.3003
40.2899 12.355
40.3375 12.3765
40.385 12.3341
40.4326 12.2445
40.48 12.1918
40.5277 12.1493
40.5752 12.0615
40.6228 12.0206
40.6703 11.9372
40.718 11.9346
40.7655 11.9772
40.8132 11.9351
40.8607 11.9409
40.9084 11.8648
40.9559 11.8016
41.0036 11.7798
41.0512 11.6874
41.0989 11.7709
41.1465 11.696
41.1942 11.6962
41.242 11.6341
41.2896 11.6855
41.3373 11.586
41.3849 11.5819
41.4327 11.5131
41.4803 11.3972
41.5281 11.3752
41.5758 11.2567
41.6236 11.2569
41.6712 11.198
41.7191 11.1698
41.7667 11.1709
41.8146 11.1125
41.8622 11.0991
41.9101 11.0883
41.9578 11.0152
42.0057 11.0144
42.0534 11.0029
42.1013 10.9649
42.149 10.9891
42.1969 10.9256
42.2446 10.9502
42.2925 10.9089
42.3403 10.8667
42.3882 10.8585
42.436 10.744
42.4839 10.7237
42.5319 10.6411
42.5797 10.5633
42.6277 10.5496
42.6755 10.4511
42.7235 10.4321
42.7713 10.3734
42.8193 10.3968
42.8671 10.3316
42.9152 10.318
42.963 10.2876
43.0111 10.2702
43.0589 10.1618
43.107 10.1374
43.1549 10.1292
43.2029 10.0776
43.2508 10.0569
43.2989 9.99019
43.3468 9.95438
43.3949 9.92648
43.4429 9.90635
43.491 9.83515
43.5389 9.84056
43.5871 9.7635
43.635 9.72054
43.6832 9.76531
43.7312 9.72939
43.7793 9.65872
43.8273 9.63727
43.8755 9.64591
43.9237 9.6304
43.9717 9.55072
44.0199 9.53693
44.068 9.56104
44.1162 9.48724
44.1642 9.47325
44.2125 9.49535
44.2606 9.47306
44.3088 9.43377
44.3569 9.37645
44.4052 9.31224
44.4533 9.30382
44.5016 9.23842
44.5497 9.21945
44.598 9.1949
44.6461 9.12834
44.6945 9.1072
44.7426 9.1314
44.791 9.10548
44.8391 9.08085
44.8875 9.02308
44.9357 9.0217
44.984 8.94784
45.0322 8.95728
45.0806 8.92015
45.1288 8.95115
45.1773 8.88592
45.2257 8.851
45.2739 8.80086
45.3224 8.75021
45.3706 8.76187
45.4191 8.66411
45.4673 8.65394
45.5158 8.63569
45.5641 8.59835
45.6126 8.57615
45.6609 8.5407
45.7094 8.503
45.7577 8.46068
45.8063 8.45285
45.8546 8.42928
45.9031 8.39484
45.9515 8.37719
46.0001 8.37671
46.0484 8.34917
46.097 8.28776
46.1454 8.32049
46.194 8.28777
46.2424 8.1931
46.291 8.19108
46.3395 8.14489
46.3881 8.16454
46.4365 8.09546
46.4852 8.05422
46.5337 8.05474
46.5823 8.0175
46.631 7.98349
46.6795 7.95517
46.7282 7.94444
46.7767 7.88114
46.8254 7.8958
46.8739 7.84229
46.9226 7.82266
46.9712 7.77479
47.0199 7.77269
47.0685 7.73647
47.1173 7.66059
47.1658 7.66584
47.2146 7.61684
47.2632 7.6195
47.312 7.59525
47.3606 7.57825
47.4095 7.52902
47.4581 7.49595
47.5069 7.46741
47.5556 7.45791
47.6044 7.42884
47.6531 7.39726
47.702 7.36523
47.7507 7.35396
47.7996 7.34411
47.8483 7.32064
47.8972 7.27074
47.9461 7.25244
47.9948 7.17693
48.0438 7.18933
48.0925 7.15539
48.1415 7.13534
48.1902 7.08488
48.2392 7.09285
48.288 7.05386
48.337 7.0308
48.3858 6.98255
48.4348 7.00742
48.4837 6.95078
48.5327 6.92904
48.5815 6.92249
48.6306 6.90683
48.6795 6.85671
48.7285 6.8416
48.7774 6.85368
48.8265 6.8095
48.8754 6.77981
48.9245 6.76847
48.9734 6.72588
49.0226 6.72678
49.0715 6.67207
49.1206 6.63359
49.1696 6.63863
49.2188 6.59267
49.2679 6.56481
49.3169 6.54761
49.3661 6.49737
49.4151 6.49835
49.4643 6.47979
49.5134 6.46019
49.5626 6.42226
49.6117 6.44545
49.6609 6.40433
49.71 6.3495
49.7592 6.3695
49.8083 6.35097
49.8576 6.34739
49.9067 6.26918
49.956 6.2826
50.0052 6.24812
50.0545 6.22586
50.1036 6.19752
50.153 6.18537
50.2022 6.17879
50.2515 6.13384
50.3007 6.08415
50.3501 6.11541
50.3993 6.07118
50.4487 6.04613
50.498 6.03247
50.5474 6.03852
50.5966 5.98489
50.6461 5.97101
50.6955 5.98074
50.7448 5.91039
50.7943 5.91019
50.8436 5.88418
50.8931 5.85644
50.9424 5.83817
50.9919 5.77778
51.0413 5.78436
51.0908 5.77897
51.1402 5.75471
51.1897 5.72577
51.2391 5.71836
51.2887 5.68036
51.3381 5.64317
51.3877 5.6384
51.4371 5.6111
51.4867 5.56615
51.5362 5.57368
51.5858 5.5309
51.6353 5.48659
51.6849 5.4882
51.7344 5.45631
51.7841 5.44791
51.8336 5.46814
51.8833 5.41879
51.9328 5.4122
51.9826 5.36602
52.0323 5.328
52.0818 5.3345
52.1316 5.31095
52.1812 5.28719
52.231 5.28292
52.2806 5.24934
52.3304 5.2668
52.38 5.21682
52.4298 5.18233
52.4794 5.14787
52.5293 5.12856
52.5789 5.14001
52.6288 5.09657
52.6785 5.0864
52.7284 5.05816
52.7781 5.05936
52.828 5.04749
52.8777 4.99374
52.9276 4.99578
52.9774 4.98838
53.0273 4.94709
53.0771 4.91589
53.1271 4.92919
53.1769 4.88158
53.2269 4.88331
53.2767 4.82119
53.3267 4.82177
53.3765 4.79881
53.4266 4.82415
53.4766 4.73461
53.5265 4.75035
53.5765 4.71441
53.6264 4.69978
53.6765 4.71402
53.7264 4.65734
53.7765 4.62088
53.8265 4.60012
53.8766 4.63168
53.9266 4.55004
53.9767 4.53105
54.0267 4.55233
54.0769 4.49542
54.1269 4.48299
54.1771 4.42041
54.2271 4.42773
54.2773 4.38944
54.3274 4.41193
54.3776 4.35659
54.4277 4.33057
54.478 4.31129
54.528 4.26167
54.5783 4.19877
54.6285 4.12134
54.6788 4.13955
54.7289 4.11496
54.7792 4.11088
54.8296 4.08622
54.8798 3.99587
54.9301 4.02342
54.9803 4.00523
55.0307 4.03554
55.0809 3.90118
55.1314 3.89688
55.1816 3.83851
55.232 3.81529
55.2823 3.77343
55.3328 3.72913
55.383 3.72881
55.4335 3.66496
55.4838 3.61366
55.5344 3.56481
55.5847 3.56818
55.6352 3.55715
55.6856 3.55219
55.7361 3.54879