File: XRD/Ni3Fe_FD1067.xy
TT I
1.27165 7.11011
1.31627 5.68129
1.36089 6.19028
1.40551 6.31837
1.45013 5.62811
1.49476 5.31879
1.53938 5.36829
1.584 4.99133
1.62863 4.44368
1.67325 5.26356
1.71787 4.36397
1.7625 4.53081
1.80712 3.85279
1.85174 4.31562
1.89636 3.93912
1.94099 4.59502
1.98562 4.60763
2.03025 4.04501
2.07487 3.9426
2.11949 4.43033
2.16411 4.12
2.20874 5.65593
2.25338 6.92382
2.298 4.74044
2.34263 4.62545
2.38725 5.89254
2.43188 6.08686
2.4765 7.27499
2.52115 7.15702
2.56577 7.54388
2.6104 8.42893
2.65503 7.63404
2.69965 8.52777
2.7443 9.06737
2.78893 8.16395
2.83356 8.48997
2.87818 9.1093
2.92281 9.0502
2.96744 9.31253
3.01209 9.91468
3.05672 10.417
3.10135 12.3911
3.14599 12.923
3.19062 14.0246
3.23527 14.9556
3.2799 15.1174
3.32454 15.9125
3.36917 16.9359
3.4138 18.4527
3.45844 18.3778
3.50309 19.5789
3.54773 20.4742
3.59237 21.4755
3.637 27.3244
3.68164 26.4512
3.7263 23.6757
3.77094 24.5757
3.81558 25.6525
3.86022 25.8691
3.90486 27.1153
3.9495 28.2216
3.99416 29.2736
4.0388 30.3611
4.08344 31.1556
4.12809 32.2986
4.17273 33.8419
4.21738 35.2121
4.26204 52.0245
4.30669 56.7743
4.35133 40.4636
4.39598 41.4235
4.44063 43.3263
4.4853 45.8851
4.52995 46.7666
4.5746 48.5673
4.61925 50.5947
4.6639 52.7189
4.70855 55.1448
4.75322 57.9133
4.79788 60.9203
4.84253 64.1036
4.88719 68.4807
4.93184 71.8981
4.97652 76.7365
5.02118 83.3089
5.06583 89.4022
5.11049 98.2449
5.15515 118.226
5.19981 229.647
5.24449 2498.07
5.28916 13668.6
5.33382 3368.78
5.37848 210.039
5.42315 123.764
5.46783 108.014
5.5125 100.805
5.55716 97.5555
5.60183 93.1644
5.6465 91.2351
5.69117 89.8613
5.73586 88.108
5.78053 86.8316
5.8252 86.4125
5.86988 87.162
5.91455 88.7092
5.95924 94.8781
6.00392 163.271
6.0486 888.587
6.09328 4531.94
6.13795 3650.91
6.18263 240.741
6.22733 87.4225
6.27201 76.1451
6.3167 73.3425
6.36138 68.499
6.40606 65.1283
6.45075 63.5958
6.49545 61.9069
6.54014 60.4034
6.58483 59.1151
6.62952 57.9091
6.67421 58.6813
6.71892 64.3386
6.76361 56.6375
6.8083 54.6693
6.853 53.6686
6.89769 53.6569
6.94239 53.1224
6.98711 52.4877
7.03181 52.3386
7.07651 51.899
7.12121 51.9984
7.16591 51.7706
7.21063 51.162
7.25533 51.7399
7.30004 61.7708
7.34475 55.8339
7.38945 52.0339
7.43416 51.228
7.47889 51.8341
7.5236 58.3095
7.56831 72.1847
7.61303 56.6016
7.65774 52.7302
7.70247 53.2558
7.74719 53.2696
7.79191 53.8522
7.83663 53.9902
7.88135 55.1056
7.92607 55.8421
7.97081 56.7525
8.01553 57.6663
8.06026 59.1968
8.10498 59.9393
8.14971 62.1863
8.19446 64.0922
8.23919 65.9808
8.28392 68.2776
8.32865 70.4681
8.37339 73.9595
8.41812 77.9084
8.46288 86.3226
8.50761 128.024
8.55235 377.395
8.59709 1103.61
8.64183 2297.94
8.68658 1106.73
8.73134 171.99
8.77609 94.9347
8.82083 88.7256
8.86558 85.6983
8.91033 84.0951
8.9551 82.2472
8.99985 80.9154
9.04461 80.3966
9.08936 79.5515
9.13412 79.2566
9.17888 79.2384
9.22365 90.0707
9.26841 111.812
9.31318 88.7849
9.35794 79.8404
9.4027 79.8804
9.44749 81.1082
9.49226 81.362
9.53703 82.2952
9.5818 83.2941
9.62657 84.5641
9.67134 86.5797
9.71614 87.8892
9.76091 89.8136
9.80569 91.7379
9.85047 94.2047
9.89525 99.4215
9.94005 106.225
9.98484 147.375
10.0296 349.13
10.0744 777.462
10.1192 1776.37
10.164 1715.92
10.2088 449.375
10.2536 125.573
10.2984 103.152
10.3432 100.683
10.388 98.0809
10.4328 107.842
10.4776 162.256
10.5224 273.247
10.5672 512.362
10.612 567.393
10.6568 231.32
10.7017 103.802
10.7465 86.5173
10.7913 80.1681
10.8361 77.8324
10.8809 75.7083
10.9257 73.5625
10.9706 72.626
11.0154 70.953
11.0602 69.5135
11.105 68.2999
11.1499 67.2868
11.1947 67.4413
11.2395 65.4825
11.2844 64.8444
11.3292 63.8492
11.374 63.2066
11.4189 62.7954
11.4637 61.9754
11.5086 61.2696
11.5534 61.2799
11.5983 60.7392
11.6431 60.4964
11.688 59.8828
11.7328 59.8907
11.7777 59.9718
11.8225 59.868
11.8674 59.8622
11.9122 62.0295
11.9571 67.8701
12.002 66.7023
12.0468 64.2962
12.0917 76.8873
12.1366 99.2876
12.1814 146.855
12.2263 204.542
12.2712 176.587
12.3161 97.7384
12.3609 64.8309
12.4058 61.4436
12.4507 61.0382
12.4956 61.2505
12.5405 61.4591
12.5853 62.105
12.6302 62.7859
12.6751 64.2718
12.72 64.0736
12.7649 64.9068
12.8098 65.4825
12.8547 66.5325
12.8996 67.8771
12.9445 69.45
12.9894 71.0311
13.0343 72.7749
13.0792 76.7128
13.1242 82.3512
13.1691 108.06
13.214 148.926
13.2589 230.278
13.3038 369.573
13.3487 454.374
13.3937 282.223
13.4386 127.356
13.4835 99.3574
13.5285 120.373
13.5734 157.17
13.6183 237.03
13.6633 355.839
13.7082 363.98
13.7531 206.451
13.7981 100.682
13.843 79.8149
13.888 76.9648
13.9329 74.6277
13.9779 73.5589
14.0228 72.0786
14.0678 70.7111
14.1127 71.7699
14.1577 75.1976
14.2027 73.287
14.2476 69.0046
14.2926 67.6179
14.3376 67.1313
14.3825 66.9083
14.4275 66.3651
14.4725 66.0839
14.5175 66.4283
14.5624 66.223
14.6074 66.9925
14.6524 67.1911
14.6974 67.519
14.7424 68.7952
14.7874 74.6003
14.8324 89.0679
14.8774 110.611
14.9224 148.895
14.9674 209.016
15.0124 228.855
15.0574 160.19
15.1024 94.0217
15.1474 71.3126
15.1924 67.8402
15.2374 66.7384
15.2824 65.9015
15.3274 64.927
15.3725 64.2698
15.4175 63.969
15.4625 63.7917
15.5076 63.5323
15.5526 63.6464
15.5976 63.6551
15.6426 64.0404
15.6877 68.4945
15.7327 79.8262
15.7778 95.114
15.8228 123.152
15.8679 169.074
15.9129 202.667
15.958 169.923
16.003 104.925
16.0481 69.727
16.0931 63.0436
16.1382 59.865
16.1833 58.4181
16.2283 56.9025
16.2734 56.4784
16.3185 55.7116
16.3636 55.3534
16.4086 54.521
16.4537 54.0818
16.4988 53.5643
16.5439 53.635
16.589 53.2146
16.6341 53.2496
16.6792 52.6194
16.7243 52.9158
16.7694 52.8158
16.8145 52.8893
16.8596 52.8751
16.9047 53.7377
16.9498 54.2937
16.9949 53.8937
17.04 53.9269
17.0851 54.903
17.1302 57.1248
17.1754 60.3594
17.2205 65.0515
17.2656 72.5149
17.3108 82.3125
17.3559 83.0133
17.401 72.4061
17.4462 61.5561
17.4913 57.6713
17.5365 57.2975
17.5815 57.5069
17.6268 57.7133
17.6718 58.238
17.7171 58.9492
17.7622 60.0698
17.8074 60.7269
17.8525 61.8702
17.8977 66.6754
17.9428 73.4261
17.9881 82.4449
18.0331 98.1402
18.0784 121.298
18.1237 142.515
18.1688 138.608
18.214 109.596
18.2591 88.5264
18.3044 89.1459
18.3495 99.2747
18.3948 107.847
18.4399 99.2264
18.4852 79.3269
18.5303 65.9629
18.5756 61.2986
18.6207 60.2259
18.666 59.0428
18.7112 58.3024
18.7565 57.6967
18.8016 57.0907
18.8469 56.5869
18.892 56.1329
18.9374 56.0298
18.9825 55.5358
19.0278 55.1809
19.073 55.1358
19.1183 55.3322
19.1635 56.3517
19.2088 58.2868
19.254 60.7524
19.2993 65.7189
19.3447 72.2473
19.3898 76.4373
19.4352 72.3491
19.4804 63.6066
19.5257 56.3103
19.5709 53.0156
19.6163 52.5343
19.6615 52.3524
19.7068 51.9771
19.752 51.7566
19.7974 52.0109
19.8426 52.8195
19.888 53.7756
19.9332 55.2449
19.9786 57.6155
20.0238 61.1587
20.0692 66.6638
20.1144 70.6546
20.1598 69.3894
20.205 64.4064
20.2504 62.012
20.2957 63.5679
20.3411 65.6262
20.3863 64.3126
20.4318 58.3841
20.477 52.8947
20.5224 50.3014
20.5677 49.3511
20.6131 48.9986
20.6586 48.4708
20.7038 48.3022
20.7493 48.1528
20.7945 48.3046
20.84 48.074
20.8853 47.6699
20.9307 47.342
20.976 47.4097
21.0215 47.3548
21.0668 47.8926
21.1122 48.1827
21.1575 48.8482
21.203 49.6268
21.2483 50.4032
21.2938 50.7578
21.3391 49.3426
21.3846 48.0072
21.4299 47.3857
21.4754 47.5428
21.5207 47.4051
21.5662 47.6934
21.6116 47.9002
21.6571 49.0675
21.7024 50.3483
21.7479 51.9156
21.7933 54.3813
21.8388 58.2571
21.8843 62.9307
21.9297 65.3513
21.9752 64.1637
22.0206 60.0432
22.0661 56.6448
22.1115 56.1183
22.157 56.1695
22.2024 54.4692
22.248 51.4618
22.2933 49.104
22.3389 48.0343
22.3843 47.7207
22.4299 47.6274
22.4753 47.6322
22.5208 47.6738
22.5662 47.5162
22.6118 47.7546
22.6572 47.7783
22.7028 48.5187
22.7483 49.2084
22.7939 49.9903
22.8393 51.4329
22.8849 53.3917
22.9303 55.8907
22.9759 57.886
23.0214 57.3986
23.067 54.7296
23.1126 51.1355
23.1581 48.6368
23.2037 47.8043
23.2492 47.8199
23.2948 47.8932
23.3403 48.7381
23.3859 49.4488
23.4314 50.5437
23.477 52.2869
23.5225 54.7163
23.5682 57.2767
23.6137 58.8677
23.6593 56.5347
23.7048 52.2058
23.7505 48.2932
23.796 46.1218
23.8417 45.2417
23.8872 44.6558
23.9329 44.4145
23.9784 44.0823
24.0241 43.9665
24.0697 43.5611
24.1154 43.2135
24.1609 42.9322
24.2066 42.901
24.2522 42.7056
24.2979 42.4704
24.3434 42.2273
24.3892 42.318
24.4349 42.2102
24.4805 42.0856
24.5262 42.2046
24.5718 42.125
24.6175 42.1092
24.6631 42.0401
24.7089 41.615
24.7545 41.5067
24.8002 41.2933
24.8458 41.3872
24.8916 41.2826
24.9372 41.4875
24.983 41.6183
25.0286 42.0379
25.0744 42.5221
25.12 43.3703
25.1658 43.8499
25.2114 44.3059
25.2572 44.4999
25.3029 44.6108
25.3487 44.7149
25.3943 44.504
25.4402 43.1085
25.4858 41.9846
25.5316 41.0041
25.5773 40.2476
25.6231 40.2216
25.669 39.9534
25.7147 39.7819
25.7605 39.6678
25.8062 39.7045
25.8521 40.0094
25.8977 39.8737
25.9436 40.1673
25.9893 40.2259
26.0352 40.9605
26.0809 41.1375
26.1268 41.387
26.1725 40.9404
26.2184 40.3263
26.2641 39.7797
26.31 39.4949
26.3557 39.5035
26.4017 39.5457
26.4474 39.9802
26.4933 40.1363
26.5391 40.7062
26.585 41.3207
26.6308 41.8941
26.6767 42.085
26.7225 41.9566
26.7684 41.3227
26.8142 40.6518
26.8601 40.0653
26.9059 39.8242
26.9519 39.2288
26.9979 38.8523
27.0437 38.4266
27.0896 38.1337
27.1354 38.2253
27.1814 38.116
27.2272 37.8949
27.2732 37.9578
27.3191 37.7787
27.3651 37.8519
27.4109 37.7555
27.4569 38.0859
27.5027 38.0777
27.5488 38.0731
27.5946 37.9123
27.6407 37.7733
27.6865 37.7231
27.7326 37.3754
27.7784 37.3623
27.8245 37.2313
27.8703 37.575
27.9164 37.7977
27.9623 38.0719
28.0084 38.4909
28.0543 39.0278
28.1003 38.8939
28.1462 38.7762
28.1923 38.3636
28.2384 37.8837
28.2843 37.3287
28.3304 36.9936
28.3764 36.3494
28.4225 36.0235
28.4684 35.7393
28.5145 35.4089
28.5605 35.2222
28.6066 35.1888
28.6526 35.2633
28.6987 35.0724
28.7447 34.9724
28.7908 34.8587
28.8368 34.9186
28.8829 34.9592
28.9289 34.9404
28.9751 34.711
29.0211 34.4325
29.0673 34.1408
29.1133 34.0565
29.1595 33.8814
29.2055 33.7449
29.2517 33.7459
29.2977 33.7032
29.3439 33.8102
29.3899 33.8018
29.4361 33.8195
29.4824 33.4925
29.5284 33.3758
29.5746 32.968
29.6207 32.6953
29.6669 32.5235
29.713 32.4941
29.7593 32.4021
29.8053 32.3737
29.8516 32.1954
29.8977 32.3306
29.9439 32.1363
29.99 32.0042
30.0363 31.9622
30.0824 31.9754
30.1287 31.897
30.1748 32.0499
30.2211 31.9249
30.2673 31.7473
30.3136 31.9517
30.3597 31.8171
30.406 31.8121
30.4522 31.6812
30.4985 31.6053
30.5447 31.76
30.591 31.6484
30.6372 31.868
30.6835 31.8359
30.7297 31.917
30.7761 31.8912
30.8224 31.6921
30.8686 31.5604
30.915 31.3049
30.9612 31.1276
31.0076 30.8901
31.0538 30.8639
31.1002 30.7599
31.1464 30.5658
31.1928 30.5522
31.2391 30.5753
31.2855 30.5297
31.3317 30.4385
31.3781 30.5542
31.4244 30.4947
31.4708 30.5041
31.5171 30.4335
31.5636 30.4568
31.6098 30.3265
31.6563 29.8943
31.7026 29.9347
31.7491 29.7395
31.7953 29.8214
31.8418 29.8468
31.8881 29.8521
31.9346 29.8548
31.9809 29.789
32.0275 29.6408
32.074 29.5493
32.1203 29.3969
32.1668 29.1832
32.2132 29.0691
32.2597 28.864
32.306 28.8848
32.3526 28.5813
32.399 28.5091
32.4455 28.4893
32.4919 28.2719
32.5385 28.1582
32.5848 28.0719
32.6314 28.1339
32.6778 28.0802
32.7244 27.8851
32.7708 27.767
32.8174 27.7525
32.8638 27.6439
32.9104 27.6706
32.9569 27.7668
33.0035 27.52
33.0499 27.5207
33.0966 27.456
33.143 27.4857
33.1897 27.3829
33.2361 27.275
33.2828 27.2916
33.3293 27.1197
33.3759 27.0663
33.4226 26.973
33.4691 26.7878
33.5158 26.7089
33.5623 26.5399
33.609 26.384
33.6555 26.344
33.7022 26.2492
33.7487 26.1217
33.7954 26.1889
33.842 26.0726
33.8887 26.0694
33.9353 26.0013
33.982 25.8028
34.0286 25.7198
34.0753 25.775
34.1219 25.5409
34.1687 25.5629
34.2152 25.3651
34.262 25.1901
34.3086 25.2033
34.3554 25.1791
34.402 25.061
34.4488 24.8906
34.4954 24.9187
34.5422 24.7805
34.5889 24.7821
34.6357 24.6941
34.6825 24.5903
34.7292 24.5
34.776 24.4536
34.8227 24.3734
34.8695 24.3244
34.9162 24.2928
34.9631 24.1185
35.0098 24.1911
35.0566 24.0442
35.1033 24.0114
35.1502 23.985
35.1969 23.8857
35.2438 23.8559
35.2906 23.8248
35.3375 23.7992
35.3842 23.6966
35.4311 23.7672
35.4779 23.7028
35.5248 23.5691
35.5716 23.5188
35.6185 23.4333
35.6653 23.3325
35.7123 23.2236
35.759 23.1857
35.806 23.0512
35.8528 22.943
35.8998 22.8794
35.9468 22.8475
35.9936 22.814
36.0406 22.7301
36.0874 22.6992
36.1345 22.6114
36.1813 22.575
36.2283 22.5136
36.2752 22.3757
36.3222 22.3251
36.3691 22.2506
36.4161 22.2061
36.463 22.1532
36.5101 22.1941
36.557 22.0645
36.6041 21.8871
36.651 21.8971
36.6981 21.8432
36.745 21.7932
36.7921 21.673
36.839 21.588
36.8861 21.5506
36.9331 21.4489
36.9802 21.3898
37.0272 21.3102
37.0743 21.2439
37.1213 21.2447
37.1684 21.2078
37.2154 21.1194
37.2626 20.9473
37.3098 20.9761
37.3568 20.8164
37.404 20.8165
37.451 20.7596
37.4982 20.6925
37.5452 20.5826
37.5924 20.5469
37.6395 20.537
37.6867 20.5051
37.7337 20.3361
37.781 20.3051
37.8281 20.25
37.8753 20.1813
37.9224 20.113
37.9697 20.1037
38.0168 19.9812
38.064 19.8536
38.1111 19.9175
38.1584 19.7251
38.2056 19.7292
38.2529 19.7023
38.3 19.5694
38.3473 19.5727
38.3945 19.4376
38.4418 19.4529
38.489 19.4228
38.5363 19.2482
38.5837 19.2416
38.6309 19.1308
38.6782 19.1065
38.7254 18.9926
38.7728 19.008
38.82 18.9088
38.8674 18.886
38.9146 18.8022
38.9621 18.7169
39.0093 18.7065
39.0567 18.6494
39.104 18.5541
39.1514 18.4912
39.1987 18.42
39.2461 18.4276
39.2934 18.3694
39.3409 18.2739
39.3882 18.2055
39.4356 18.1214
39.483 18.0525
39.5304 18.0292
39.5778 18.0522
39.6253 17.8856
39.6726 17.8491
39.7201 17.8341
39.7675 17.7706
39.815 17.7117
39.8624 17.5903
39.9099 17.6038
39.9575 17.537
40.0049 17.457
40.0525 17.4489
40.0999 17.3712
40.1474 17.3115
40.1949 17.2552
40.2425 17.2374
40.2899 17.1701
40.3375 17.1298
40.385 16.9772
40.4326 16.9768
40.48 16.9278
40.5277 16.8775
40.5752 16.8276
40.6228 16.8677
40.6703 16.6987
40.718 16.6341
40.7655 16.6074
40.8132 16.5338
40.8607 16.5628
40.9084 16.5031
40.9559 16.3518
41.0036 16.4041
41.0512 16.3312
41.0989 16.2409
41.1465 16.2043
41.1942 16.082
41.242 16.09
41.2896 16.0499
41.3373 15.9477
41.3849 15.9201
41.4327 15.8624
41.4803 15.7832
41.5281 15.7583
41.5758 15.6608
41.6236 15.6193
41.6712 15.6382
41.7191 15.5026
41.7667 15.4465
41.8146 15.4558
41.8622 15.3899
41.9101 15.3144
41.9578 15.2401
42.0057 15.2299
42.0534 15.1813
42.1013 15.1321
42.149 15.0983
42.1969 15.0073
42.2446 14.9455
42.2925 14.9765
42.3403 14.8929
42.3882 14.8859
42.436 14.7945
42.4839 14.6996
42.5319 14.7168
42.5797 14.6975
42.6277 14.6009
42.6755 14.5541
42.7235 14.4767
42.7713 14.4467
42.8193 14.3903
42.8671 14.3332
42.9152 14.3244
42.963 14.2689
43.0111 14.2298
43.0589 14.1223
43.107 14.0532
43.1549 14.0789
43.2029 13.9558
43.2508 13.9811
43.2989 13.9048
43.3468 13.8349
43.3949 13.8268
43.4429 13.7778
43.491 13.7145
43.5389 13.6893
43.5871 13.6301
43.635 13.5739
43.6832 13.5112
43.7312 13.4612
43.7793 13.4625
43.8273 13.3829
43.8755 13.3294
43.9237 13.2041
43.9717 13.2667
44.0199 13.233
44.068 13.1395
44.1162 13.0706
44.1642 13.0839
44.2125 12.9943
44.2606 12.985
44.3088 12.9236
44.3569 12.8913
44.4052 12.8606
44.4533 12.7966
44.5016 12.7383
44.5497 12.6947
44.598 12.6342
44.6461 12.6008
44.6945 12.5333
44.7426 12.5217
44.791 12.4809
44.8391 12.4103
44.8875 12.4174
44.9357 12.3676
44.984 12.309
45.0322 12.2768
45.0806 12.2066
45.1288 12.1729
45.1773 12.1417
45.2257 12.1075
45.2739 12.0553
45.3224 12.029
45.3706 11.9742
45.4191 11.8794
45.4673 11.8469
45.5158 11.8409
45.5641 11.7933
45.6126 11.7379
45.6609 11.697
45.7094 11.6974
45.7577 11.6294
45.8063 11.5707
45.8546 11.5373
45.9031 11.5039
45.9515 11.4743
46.0001 11.4572
46.0484 11.4084
46.097 11.3416
46.1454 11.3101
46.194 11.2867
46.2424 11.211
46.291 11.1453
46.3395 11.1389
46.3881 11.0952
46.4365 11.0979
46.4852 11.0299
46.5337 10.9662
46.5823 10.9382
46.631 10.8969
46.6795 10.8455
46.7282 10.8082
46.7767 10.7706
46.8254 10.6833
46.8739 10.6972
46.9226 10.6583
46.9712 10.5736
47.0199 10.5691
47.0685 10.4973
47.1173 10.4707
47.1658 10.4861
47.2146 10.4541
47.2632 10.3399
47.312 10.3379
47.3606 10.3079
47.4095 10.2566
47.4581 10.2263
47.5069 10.184
47.5556 10.1196
47.6044 10.0936
47.6531 10.0538
47.702 10.036
47.7507 10.021
47.7996 9.95267
47.8483 9.91388
47.8972 9.916
47.9461 9.87113
47.9948 9.80663
48.0438 9.78314
48.0925 9.79863
48.1415 9.71334
48.1902 9.64101
48.2392 9.66535
48.288 9.62235
48.337 9.59923
48.3858 9.54594
48.4348 9.52656
48.4837 9.48458
48.5327 9.39654
48.5815 9.38558
48.6306 9.3975
48.6795 9.37856
48.7285 9.30753
48.7774 9.25688
48.8265 9.2489
48.8754 9.19434
48.9245 9.16275
48.9734 9.1019
49.0226 9.0839
49.0715 9.04575
49.1206 9.02659
49.1696 8.94654
49.2188 8.9625
49.2679 8.94619
49.3169 8.8857
49.3661 8.87695
49.4151 8.78523
49.4643 8.77863
49.5134 8.72457
49.5626 8.70576
49.6117 8.6665
49.6609 8.62967
49.71 8.63083
49.7592 8.59364
49.8083 8.48514
49.8576 8.50371
49.9067 8.49007
49.956 8.44632
50.0052 8.41303
50.0545 8.40152
50.1036 8.36222
50.153 8.32758
50.2022 8.33102
50.2515 8.2494
50.3007 8.19806
50.3501 8.2082
50.3993 8.1727
50.4487 8.15125
50.498 8.08893
50.5474 8.08472
50.5966 8.0294
50.6461 8.0215
50.6955 7.99603
50.7448 7.95247
50.7943 7.91548
50.8436 7.893
50.8931 7.82498
50.9424 7.81765
50.9919 7.78618
51.0413 7.79385
51.0908 7.72712
51.1402 7.7207
51.1897 7.66657
51.2391 7.64927
51.2887 7.61905
51.3381 7.54978
51.3877 7.57711
51.4371 7.48823
51.4867 7.48599
51.5362 7.45041
51.5858 7.3891
51.6353 7.35667
51.6849 7.35548
51.7344 7.33764
51.7841 7.29408
51.8336 7.2553
51.8833 7.22562
51.9328 7.22852
51.9826 7.18123
52.0323 7.15601
52.0818 7.1246
52.1316 7.07773
52.1812 7.11617
52.231 7.01943
52.2806 7.04136
52.3304 6.97667
52.38 6.92631
52.4298 6.91636
52.4794 6.88536
52.5293 6.8575
52.5789 6.83606
52.6288 6.78235
52.6785 6.75367
52.7284 6.72706
52.7781 6.7386
52.828 6.70205
52.8777 6.66782
52.9276 6.6521
52.9774 6.62301
53.0273 6.60574
53.0771 6.56311
53.1271 6.5121
53.1769 6.50429
53.2269 6.47862
53.2767 6.46272
53.3267 6.4065
53.3765 6.38632
53.4266 6.36636
53.4766 6.33452
53.5265 6.31735
53.5765 6.28744
53.6264 6.23547
53.6765 6.22086
53.7264 6.16657
53.7765 6.1709
53.8265 6.15085
53.8766 6.10625
53.9266 6.08857
53.9767 6.05231
54.0267 6.0302
54.0769 6.00489
54.1269 5.93292
54.1771 5.94783
54.2271 5.95601
54.2773 5.92829
54.3274 5.885
54.3776 5.81378
54.4277 5.81761
54.478 5.74538
54.528 5.69885
54.5783 5.71021
54.6285 5.64359
54.6788 5.64474
54.7289 5.56987
54.7792 5.53456
54.8296 5.47846
54.8798 5.411
54.9301 5.43957
54.9803 5.40823
55.0307 5.35915
55.0809 5.31673
55.1314 5.30474
55.1816 5.2711
55.232 5.23989
55.2823 5.14733
55.3328 5.07323
55.383 5.03832
55.4335 5.05204
55.4838 4.95721
55.5344 4.90244
55.5847 4.86317
55.6352 4.85062
55.6856 4.79511
55.7361 4.75366