File: XRD/Ni3Fe_FD0116.xy
TT I
1.27165 8.43982
1.31627 7.61565
1.36089 7.35516
1.40551 7.30714
1.45013 6.91652
1.49476 6.74948
1.53938 5.73167
1.584 5.72411
1.62863 6.32975
1.67325 5.94541
1.71787 5.77545
1.7625 5.24259
1.80712 5.77875
1.85174 5.87426
1.89636 4.6563
1.94099 5.4014
1.98562 4.71582
2.03025 4.68513
2.07487 5.67763
2.11949 5.6506
2.16411 4.80518
2.20874 5.02182
2.25338 5.21457
2.298 3.59591
2.34263 4.46883
2.38725 4.59663
2.43188 4.03249
2.4765 4.59321
2.52115 4.07946
2.56577 4.30951
2.6104 4.64731
2.65503 4.2413
2.69965 5.20919
2.7443 5.713
2.78893 6.15433
2.83356 6.38363
2.87818 7.66938
2.92281 8.333
2.96744 9.25477
3.01209 9.72704
3.05672 10.994
3.10135 12.4052
3.14599 12.5435
3.19062 14.086
3.23527 15.2351
3.2799 15.7683
3.32454 16.6053
3.36917 17.5264
3.4138 18.5528
3.45844 19.4658
3.50309 19.9815
3.54773 20.5486
3.59237 21.2698
3.637 22.4597
3.68164 23.0504
3.7263 24.1043
3.77094 24.8353
3.81558 25.534
3.86022 26.2779
3.90486 27.3854
3.9495 27.8819
3.99416 29.2146
4.0388 30.2506
4.08344 31.9076
4.12809 32.6068
4.17273 33.2471
4.21738 34.9641
4.26204 35.9529
4.30669 37.6211
4.35133 39.4862
4.39598 40.9559
4.44063 42.7975
4.4853 44.5179
4.52995 46.9053
4.5746 48.746
4.61925 51.1733
4.6639 52.9702
4.70855 56.2859
4.75322 59.1531
4.79788 62.3442
4.84253 65.7145
4.88719 70.2125
4.93184 75.1986
4.97652 82.1431
5.02118 91.7766
5.06583 102.831
5.11049 121.006
5.15515 161.602
5.19981 606.392
5.24449 3787.54
5.28916 7502.15
5.33382 6786.16
5.37848 550.376
5.42315 175.041
5.46783 131.72
5.5125 116.424
5.55716 109.096
5.60183 103.145
5.6465 99.8508
5.69117 98.1661
5.73586 96.3011
5.78053 95.7591
5.8252 96.5766
5.86988 99.7312
5.91455 107.578
5.95924 129.531
6.00392 310.367
6.0486 1412.0
6.09328 2431.65
6.13795 3948.91
6.18263 798.525
6.22733 132.96
6.27201 91.446
6.3167 79.2277
6.36138 72.9933
6.40606 68.5402
6.45075 65.9937
6.49545 63.8354
6.54014 62.0241
6.58483 60.3746
6.62952 59.4455
6.67421 57.8389
6.71892 56.7206
6.76361 56.1545
6.8083 55.0348
6.853 54.424
6.89769 54.1035
6.94239 53.7767
6.98711 52.4822
7.03181 52.4278
7.07651 51.99
7.12121 52.1575
7.16591 52.0152
7.21063 51.544
7.25533 51.3818
7.30004 51.422
7.34475 51.6034
7.38945 51.8281
7.43416 51.0841
7.47889 51.8108
7.5236 57.0498
7.56831 68.4661
7.61303 56.4527
7.65774 53.1397
7.70247 53.3221
7.74719 53.7409
7.79191 54.4219
7.83663 54.7126
7.88135 55.4835
7.92607 56.5723
7.97081 57.5454
8.01553 58.5761
8.06026 60.249
8.10498 61.1035
8.14971 63.2416
8.19446 64.9094
8.23919 67.2828
8.28392 70.2578
8.32865 72.8792
8.37339 77.9241
8.41812 83.8302
8.46288 96.5033
8.50761 180.89
8.55235 624.955
8.59709 817.014
8.64183 1316.08
8.68658 1704.28
8.73134 480.664
8.77609 121.53
8.82083 98.4414
8.86558 91.3235
8.91033 87.2673
8.9551 85.0632
8.99985 83.4931
9.04461 82.5689
9.08936 81.578
9.13412 81.2748
9.17888 80.9439
9.22365 88.7599
9.26841 105.322
9.31318 89.6435
9.35794 81.8938
9.4027 81.529
9.44749 82.596
9.49226 82.8513
9.53703 83.6811
9.5818 85.217
9.62657 86.3559
9.67134 87.681
9.71614 90.0974
9.76091 92.5246
9.80569 95.1076
9.85047 98.1101
9.89525 103.364
9.94005 114.961
9.98484 192.241
10.0296 567.54
10.0744 701.16
10.1192 897.51
10.164 1578.06
10.2088 1095.59
10.2536 242.32
10.2984 119.091
10.3432 108.589
10.388 104.741
10.4328 122.321
10.4776 220.812
10.5224 252.923
10.5672 295.204
10.612 461.937
10.6568 401.394
10.7017 145.231
10.7465 91.9043
10.7913 83.4562
10.8361 80.2346
10.8809 77.5448
10.9257 75.1691
10.9706 73.6648
11.0154 72.1525
11.0602 70.4711
11.105 69.7236
11.1499 67.713
11.1947 66.916
11.2395 66.002
11.2844 65.7913
11.3292 64.7237
11.374 64.0119
11.4189 63.4847
11.4637 62.3708
11.5086 62.0533
11.5534 61.6428
11.5983 61.4126
11.6431 61.4098
11.688 60.8482
11.7328 60.9725
11.7777 60.6721
11.8225 60.6413
11.8674 60.6598
11.9122 62.0877
11.9571 67.5089
12.002 66.6808
12.0468 67.9584
12.0917 91.3754
12.1366 107.073
12.1814 110.578
12.2263 138.436
12.2712 186.593
12.3161 147.745
12.3609 77.9483
12.4058 63.9516
12.4507 62.5584
12.4956 62.7371
12.5405 62.4103
12.5853 62.8233
12.6302 63.1233
12.6751 63.7611
12.72 64.2905
12.7649 65.3121
12.8098 66.2336
12.8547 67.3023
12.8996 68.8656
12.9445 70.2694
12.9894 72.418
13.0343 74.4223
13.0792 78.9251
13.1242 86.9342
13.1691 135.214
13.214 189.972
13.2589 194.107
13.3038 220.795
13.3487 321.132
13.3937 394.85
13.4386 233.551
13.4835 124.063
13.5285 157.598
13.5734 182.453
13.6183 179.55
13.6633 214.175
13.7082 309.56
13.7531 318.82
13.7981 167.673
13.843 89.4282
13.888 80.3647
13.9329 77.0236
13.9779 75.4053
14.0228 74.0964
14.0678 72.3128
14.1127 72.3318
14.1577 74.9706
14.2027 73.4656
14.2476 70.2683
14.2926 68.696
14.3376 68.3447
14.3825 67.9892
14.4275 67.3618
14.4725 67.343
14.5175 67.5931
14.5624 67.4397
14.6074 67.8236
14.6524 68.3854
14.6974 68.8703
14.7424 71.0019
14.7874 80.5595
14.8324 108.52
14.8774 120.357
14.9224 119.675
14.9674 135.897
15.0124 178.477
15.0574 206.148
15.1024 149.391
15.1474 84.7503
15.1924 70.9888
15.2374 68.5868
15.2824 67.2606
15.3274 66.3098
15.3725 65.7515
15.4175 65.4462
15.4625 64.7357
15.5076 64.7193
15.5526 64.69
15.5976 64.9163
15.6426 65.8381
15.6877 73.4485
15.7327 95.8383
15.7778 107.476
15.8228 105.839
15.8679 114.93
15.9129 142.221
15.958 182.963
16.003 160.998
16.0481 94.2978
16.0931 66.833
16.1382 61.7279
16.1833 60.0947
16.2283 58.2349
16.2734 57.593
16.3185 56.7155
16.3636 56.0648
16.4086 55.3515
16.4537 54.865
16.4988 54.3433
16.5439 54.4305
16.589 54.1777
16.6341 53.9578
16.6792 53.4701
16.7243 53.5248
16.7694 53.5299
16.8145 53.641
16.8596 53.5914
16.9047 54.1704
16.9498 54.5941
16.9949 54.5346
17.04 54.902
17.0851 56.3278
17.1302 60.7072
17.1754 63.9664
17.2205 64.0698
17.2656 64.9862
17.3108 69.4229
17.3559 76.4873
17.401 81.2114
17.4462 72.5174
17.4913 61.6431
17.5365 58.5777
17.5815 58.3131
17.6268 58.884
17.6718 59.096
17.7171 59.6863
17.7622 60.759
17.8074 61.651
17.8525 63.3494
17.8977 71.8948
17.9428 84.1304
17.9881 87.7131
18.0331 87.5556
18.0784 92.2088
18.1237 107.489
18.1688 134.999
18.214 144.823
18.2591 115.212
18.3044 87.4389
18.3495 83.2255
18.3948 90.8403
18.4399 101.377
18.4852 97.3614
18.5303 78.517
18.5756 65.1963
18.6207 61.7487
18.666 60.5938
18.7112 59.3007
18.7565 58.6187
18.8016 58.2703
18.8469 57.6648
18.892 57.2102
18.9374 56.716
18.9825 56.6498
19.0278 55.9965
19.073 56.2035
19.1183 56.7934
19.1635 59.1744
19.2088 61.6836
19.254 61.6584
19.2993 61.5362
19.3447 63.2115
19.3898 66.9492
19.4352 72.3218
19.4804 72.8109
19.5257 65.0475
19.5709 56.527
19.6163 53.7998
19.6615 53.2105
19.7068 53.0179
19.752 52.9084
19.7974 52.9902
19.8426 54.2263
19.888 56.4417
19.9332 57.8844
19.9786 57.8578
20.0238 57.7109
20.0692 60.176
20.1144 65.1764
20.1598 70.9284
20.205 70.9503
20.2504 65.3151
20.2957 59.981
20.3411 59.9953
20.3863 63.1944
20.4318 64.0979
20.477 59.7729
20.5224 53.3489
20.5677 50.6846
20.6131 49.8434
20.6586 49.4723
20.7038 49.3753
20.7493 48.9678
20.7945 48.8243
20.84 48.7398
20.8853 48.2758
20.9307 48.1306
20.976 48.4925
21.0215 48.6049
21.0668 49.0134
21.1122 49.0976
21.1575 48.9302
21.203 49.1218
21.2483 49.4292
21.2938 50.534
21.3391 51.0676
21.3846 50.241
21.4299 49.0785
21.4754 48.3357
21.5207 48.3898
21.5662 48.5947
21.6116 48.8817
21.6571 50.9172
21.7024 52.8748
21.7479 53.5747
21.7933 53.4804
21.8388 54.4922
21.8843 57.0467
21.9297 60.3371
21.9752 64.5334
22.0206 65.3955
22.0661 61.1514
22.1115 56.0208
22.157 54.5923
22.2024 55.7201
22.248 55.148
22.2933 52.6673
22.3389 49.7731
22.3843 48.881
22.4299 48.4689
22.4753 48.3986
22.5208 48.3252
22.5662 48.3552
22.6118 48.4654
22.6572 48.6177
22.7028 49.8133
22.7483 51.0772
22.7939 51.4488
22.8393 51.2916
22.8849 51.6781
22.9303 52.2955
22.9759 53.5613
23.0214 55.8762
23.067 57.8606
23.1126 56.2228
23.1581 52.4158
23.2037 49.6527
23.2492 48.9392
23.2948 49.4358
23.3403 50.749
23.3859 51.4906
23.4314 51.3344
23.477 50.9115
23.5225 51.0847
23.5682 52.2983
23.6137 54.5072
23.6593 56.7282
23.7048 57.2175
23.7505 53.9563
23.796 49.3154
23.8417 46.8116
23.8872 45.7493
23.9329 45.3865
23.9784 44.9569
24.0241 44.5893
24.0697 44.3519
24.1154 44.0182
24.1609 43.7672
24.2066 43.5367
24.2522 43.5006
24.2979 43.328
24.3434 43.1429
24.3892 42.9818
24.4349 42.7376
24.4805 42.5045
24.5262 42.7276
24.5718 42.5544
24.6175 42.68
24.6631 42.661
24.7089 42.5897
24.7545 42.4163
24.8002 42.0212
24.8458 42.0864
24.8916 42.1549
24.9372 42.2987
24.983 42.4436
25.0286 42.6732
25.0744 43.1147
25.12 43.4537
25.1658 43.7446
25.2114 43.9651
25.2572 44.34
25.3029 44.4847
25.3487 44.1463
25.3943 44.1757
25.4402 44.5134
25.4858 44.3215
25.5316 43.0266
25.5773 41.632
25.6231 40.9706
25.669 40.5013
25.7147 40.411
25.7605 40.4426
25.8062 40.5901
25.8521 40.8043
25.8977 40.7555
25.9436 40.6079
25.9893 40.4131
26.0352 40.7448
26.0809 40.7368
26.1268 41.0209
26.1725 41.4558
26.2184 41.683
26.2641 41.2436
26.31 40.7118
26.3557 40.7415
26.4017 40.4758
26.4474 40.5057
26.4933 40.5662
26.5391 40.7282
26.585 40.8502
26.6308 41.2067
26.6767 41.4599
26.7225 42.0442
26.7684 42.3254
26.8142 41.7693
26.8601 40.9543
26.9059 40.535
26.9519 40.2343
26.9979 39.8859
27.0437 39.2723
27.0896 39.0248
27.1354 38.7379
27.1814 38.6014
27.2272 38.597
27.2732 38.6432
27.3191 38.3221
27.3651 38.3865
27.4109 38.1111
27.4569 38.3363
27.5027 38.2713
27.5488 38.4031
27.5946 38.3522
27.6407 38.3404
27.6865 38.4961
27.7326 38.3147
27.7784 38.2509
27.8245 38.1413
27.8703 38.0413
27.9164 38.1384
27.9623 38.0385
28.0084 38.286
28.0543 38.4887
28.1003 38.5813
28.1462 38.9285
28.1923 38.9782
28.2384 38.6499
28.2843 38.0927
28.3304 37.6354
28.3764 37.3092
28.4225 36.9937
28.4684 36.4152
28.5145 35.9955
28.5605 35.8948
28.6066 35.7575
28.6526 35.6783
28.6987 35.6973
28.7447 35.4864
28.7908 35.2763
28.8368 35.1618
28.8829 35.1888
28.9289 35.007
28.9751 35.0877
29.0211 35.0198
29.0673 34.986
29.1133 34.8554
29.1595 34.4649
29.2055 34.3616
29.2517 34.2452
29.2977 34.136
29.3439 34.0042
29.3899 33.9041
29.4361 33.9328
29.4824 34.0218
29.5284 33.9554
29.5746 33.6614
29.6207 33.3436
29.6669 33.0119
29.713 32.9121
29.7593 32.7585
29.8053 32.7548
29.8516 32.7437
29.8977 32.6781
29.9439 32.5326
29.99 32.5137
30.0363 32.2752
30.0824 32.3302
30.1287 32.2274
30.1748 32.2208
30.2211 32.2633
30.2673 32.0433
30.3136 32.3115
30.3597 32.3583
30.406 32.2867
30.4522 32.1242
30.4985 32.0257
30.5447 32.0688
30.591 31.9353
30.6372 31.9214
30.6835 31.8014
30.7297 32.0128
30.7761 32.0554
30.8224 32.107
30.8686 32.0303
30.915 31.7952
30.9612 31.6517
31.0076 31.4694
31.0538 31.2307
31.1002 31.1986
31.1464 31.0967
31.1928 31.0075
31.2391 30.9888
31.2855 30.8909
31.3317 30.8386
31.3781 30.826
31.4244 30.744
31.4708 30.6606
31.5171 30.5983
31.5636 30.7539
31.6098 30.755
31.6563 30.6273
31.7026 30.4177
31.7491 30.2015
31.7953 30.1752
31.8418 30.0987
31.8881 29.9905
31.9346 29.8708
31.9809 29.8168
32.0275 29.9119
32.074 29.8678
32.1203 29.8515
32.1668 29.588
32.2132 29.5683
32.2597 29.2805
32.306 29.2595
32.3526 28.9572
32.399 28.9646
32.4455 28.6892
32.4919 28.6073
32.5385 28.6026
32.5848 28.4389
32.6314 28.5334
32.6778 28.3808
32.7244 28.2356
32.7708 28.0543
32.8174 28.1285
32.8638 27.9595
32.9104 28.0522
32.9569 27.9737
33.0035 27.77
33.0499 27.7627
33.0966 27.6883
33.143 27.674
33.1897 27.5681
33.2361 27.494
33.2828 27.4704
33.3293 27.3965
33.3759 27.3989
33.4226 27.2893
33.4691 27.2125
33.5158 27.1363
33.5623 26.9557
33.609 26.6882
33.6555 26.6352
33.7022 26.5672
33.7487 26.4794
33.7954 26.3753
33.842 26.3674
33.8887 26.2524
33.9353 26.1442
33.982 26.0839
34.0286 26.0588
34.0753 25.9251
34.1219 25.8422
34.1687 25.8008
34.2152 25.6681
34.262 25.487
34.3086 25.4459
34.3554 25.418
34.402 25.3642
34.4488 25.3176
34.4954 25.234
34.5422 25.1198
34.5889 25.0014
34.6357 24.9734
34.6825 24.8623
34.7292 24.8141
34.776 24.5641
34.8227 24.5748
34.8695 24.5893
34.9162 24.5419
34.9631 24.4148
35.0098 24.4701
35.0566 24.2261
35.1033 24.2078
35.1502 24.289
35.1969 24.0786
35.2438 24.1095
35.2906 23.9985
35.3375 23.9991
35.3842 23.8985
35.4311 23.8655
35.4779 23.8708
35.5248 23.859
35.5716 23.7649
35.6185 23.6869
35.6653 23.6388
35.7123 23.5437
35.759 23.4915
35.806 23.3559
35.8528 23.2324
35.8998 23.1509
35.9468 23.0918
35.9936 23.0412
36.0406 22.9188
36.0874 22.9156
36.1345 22.8019
36.1813 22.7756
36.2283 22.6682
36.2752 22.6447
36.3222 22.664
36.3691 22.5287
36.4161 22.3878
36.463 22.3914
36.5101 22.348
36.557 22.2884
36.6041 22.0918
36.651 22.1741
36.6981 22.1213
36.745 22.054
36.7921 21.9675
36.839 21.8288
36.8861 21.8205
36.9331 21.7008
36.9802 21.6285
37.0272 21.522
37.0743 21.523
37.1213 21.4176
37.1684 21.3601
37.2154 21.2826
37.2626 21.1822
37.3098 21.171
37.3568 21.0959
37.404 21.0279
37.451 20.9451
37.4982 20.9212
37.5452 20.7477
37.5924 20.7308
37.6395 20.7562
37.6867 20.6891
37.7337 20.6035
37.781 20.5265
37.8281 20.4295
37.8753 20.3043
37.9224 20.3196
37.9697 20.2081
38.0168 20.2058
38.064 20.0801
38.1111 20.0046
38.1584 19.9764
38.2056 19.8715
38.2529 19.8966
38.3 19.7447
38.3473 19.7533
38.3945 19.6954
38.4418 19.6524
38.489 19.5566
38.5363 19.4779
38.5837 19.4202
38.6309 19.3385
38.6782 19.3164
38.7254 19.1465
38.7728 19.2163
38.82 19.1352
38.8674 19.0606
38.9146 18.9839
38.9621 18.9479
39.0093 18.8733
39.0567 18.8256
39.104 18.7354
39.1514 18.6616
39.1987 18.6589
39.2461 18.576
39.2934 18.5354
39.3409 18.3828
39.3882 18.3968
39.4356 18.3192
39.483 18.2196
39.5304 18.1739
39.5778 18.219
39.6253 18.1159
39.6726 18.0505
39.7201 18.0958
39.7675 17.9862
39.815 17.9294
39.8624 17.8573
39.9099 17.8315
39.9575 17.7394
40.0049 17.6789
40.0525 17.5752
40.0999 17.5789
40.1474 17.5362
40.1949 17.4024
40.2425 17.3891
40.2899 17.351
40.3375 17.2854
40.385 17.2239
40.4326 17.1941
40.48 17.1276
40.5277 17.0755
40.5752 17.0053
40.6228 16.9507
40.6703 16.8305
40.718 16.8417
40.7655 16.7699
40.8132 16.7259
40.8607 16.774
40.9084 16.6638
40.9559 16.5578
41.0036 16.4964
41.0512 16.524
41.0989 16.476
41.1465 16.3778
41.1942 16.2797
41.242 16.2332
41.2896 16.175
41.3373 16.1253
41.3849 16.0637
41.4327 16.0103
41.4803 15.9239
41.5281 15.8929
41.5758 15.8908
41.6236 15.7998
41.6712 15.7876
41.7191 15.6938
41.7667 15.5885
41.8146 15.6194
41.8622 15.5448
41.9101 15.5388
41.9578 15.387
42.0057 15.4311
42.0534 15.3542
42.1013 15.3008
42.149 15.2799
42.1969 15.1846
42.2446 15.1134
42.2925 15.1078
42.3403 14.9963
42.3882 14.9641
42.436 14.9685
42.4839 14.8749
42.5319 14.8331
42.5797 14.8002
42.6277 14.7438
42.6755 14.7025
42.7235 14.6032
42.7713 14.5675
42.8193 14.5373
42.8671 14.4866
42.9152 14.4213
42.963 14.3974
43.0111 14.3257
43.0589 14.334
43.107 14.1753
43.1549 14.2223
43.2029 14.1265
43.2508 14.1081
43.2989 13.9861
43.3468 14.0011
43.3949 13.9632
43.4429 13.9122
43.491 13.8614
43.5389 13.7645
43.5871 13.7865
43.635 13.7398
43.6832 13.6544
43.7312 13.5931
43.7793 13.5521
43.8273 13.5044
43.8755 13.4642
43.9237 13.4011
43.9717 13.4029
44.0199 13.3326
44.068 13.3462
44.1162 13.2294
44.1642 13.2286
44.2125 13.2
44.2606 13.1115
44.3088 13.0307
44.3569 13.0366
44.4052 13.006
44.4533 12.9047
44.5016 12.8731
44.5497 12.8347
44.598 12.7581
44.6461 12.7319
44.6945 12.7347
44.7426 12.6687
44.791 12.5609
44.8391 12.5792
44.8875 12.5229
44.9357 12.4854
44.984 12.4337
45.0322 12.3556
45.0806 12.3123
45.1288 12.2788
45.1773 12.2371
45.2257 12.1995
45.2739 12.1369
45.3224 12.0979
45.3706 12.0964
45.4191 12.0212
45.4673 12.0201
45.5158 11.9738
45.5641 11.9129
45.6126 11.8796
45.6609 11.8692
45.7094 11.751
45.7577 11.7729
45.8063 11.6592
45.8546 11.6463
45.9031 11.6229
45.9515 11.5838
46.0001 11.5087
46.0484 11.5
46.097 11.5083
46.1454 11.3946
46.194 11.3499
46.2424 11.3425
46.291 11.3102
46.3395 11.2709
46.3881 11.1696
46.4365 11.1911
46.4852 11.1056
46.5337 11.0602
46.5823 11.0712
46.631 11.0098
46.6795 10.9548
46.7282 10.9258
46.7767 10.883
46.8254 10.8395
46.8739 10.7665
46.9226 10.725
46.9712 10.7041
47.0199 10.6413
47.0685 10.6447
47.1173 10.5896
47.1658 10.5491
47.2146 10.513
47.2632 10.4437
47.312 10.4638
47.3606 10.3911
47.4095 10.3348
47.4581 10.3354
47.5069 10.2552
47.5556 10.234
47.6044 10.1944
47.6531 10.1554
47.702 10.1412
47.7507 10.1276
47.7996 10.0665
47.8483 10.043
47.8972 9.97505
47.9461 9.97131
47.9948 9.91364
48.0438 9.85333
48.0925 9.8632
48.1415 9.80778
48.1902 9.77547
48.2392 9.81327
48.288 9.72681
48.337 9.70186
48.3858 9.57958
48.4348 9.57873
48.4837 9.57158
48.5327 9.53661
48.5815 9.50855
48.6306 9.44113
48.6795 9.45869
48.7285 9.41716
48.7774 9.36076
48.8265 9.31787
48.8754 9.28357
48.9245 9.28082
48.9734 9.27033
49.0226 9.18809
49.0715 9.13326
49.1206 9.11135
49.1696 9.10058
49.2188 9.10132
49.2679 9.04569
49.3169 8.99436
49.3661 8.9386
49.4151 8.91076
49.4643 8.88572
49.5134 8.84878
49.5626 8.81384
49.6117 8.8039
49.6609 8.76712
49.71 8.68235
49.7592 8.7062
49.8083 8.66705
49.8576 8.62056
49.9067 8.57079
49.956 8.58477
50.0052 8.54827
50.0545 8.52756
50.1036 8.47195
50.153 8.43374
50.2022 8.40783
50.2515 8.37152
50.3007 8.28923
50.3501 8.31775
50.3993 8.25556
50.4487 8.24608
50.498 8.19701
50.5474 8.17541
50.5966 8.12104
50.6461 8.11713
50.6955 8.0505
50.7448 8.07753
50.7943 7.9724
50.8436 7.95895
50.8931 7.96015
50.9424 7.93598
50.9919 7.90171
51.0413 7.8842
51.0908 7.83917
51.1402 7.79886
51.1897 7.76228
51.2391 7.73367
51.2887 7.69458
51.3381 7.67337
51.3877 7.66013
51.4371 7.60318
51.4867 7.60496
51.5362 7.54016
51.5858 7.52644
51.6353 7.41556
51.6849 7.4242
51.7344 7.43019
51.7841 7.3902
51.8336 7.34704
51.8833 7.32368
51.9328 7.29655
51.9826 7.23593
52.0323 7.23377
52.0818 7.21772
52.1316 7.15896
52.1812 7.15607
52.231 7.14474
52.2806 7.03994
52.3304 7.07746
52.38 7.0235
52.4298 7.00172
52.4794 6.95081
52.5293 6.96202
52.5789 6.88586
52.6288 6.88412
52.6785 6.88035
52.7284 6.79368
52.7781 6.82776
52.828 6.78174
52.8777 6.73486
52.9276 6.7314
52.9774 6.65041
53.0273 6.65839
53.0771 6.64823
53.1271 6.61738
53.1769 6.59722
53.2269 6.48827
53.2767 6.51394
53.3267 6.48449
53.3765 6.44541
53.4266 6.42679
53.4766 6.38652
53.5265 6.34967
53.5765 6.32406
53.6264 6.32626
53.6765 6.31884
53.7264 6.24916
53.7765 6.21031
53.8265 6.24155
53.8766 6.19954
53.9266 6.13969
53.9767 6.08712
54.0267 6.0524
54.0769 6.0393
54.1269 6.01778
54.1771 5.98916
54.2271 5.99613
54.2773 5.93325
54.3274 5.91497
54.3776 5.86912
54.4277 5.81522
54.478 5.79587
54.528 5.7483
54.5783 5.68501
54.6285 5.63006
54.6788 5.56556
54.7289 5.59399
54.7792 5.48992
54.8296 5.46584
54.8798 5.42925
54.9301 5.40325
54.9803 5.42424
55.0307 5.33067
55.0809 5.26767
55.1314 5.25713
55.1816 5.21744
55.232 5.14865
55.2823 5.0655
55.3328 4.99095
55.383 4.91552
55.4335 4.92647
55.4838 4.88225
55.5344 4.82453
55.5847 4.80295
55.6352 4.78405
55.6856 4.73849
55.7361 4.74991