File: XRD/Ni3Fe_FD0939.xy
TT I
1.27165 7.26419
1.31627 6.65381
1.36089 5.6302
1.40551 5.42799
1.45013 6.12396
1.49476 6.54575
1.53938 5.4635
1.584 5.45157
1.62863 5.84519
1.67325 4.64171
1.71787 5.12281
1.7625 4.56362
1.80712 4.50641
1.85174 4.67978
1.89636 4.88033
1.94099 5.1514
1.98562 5.37566
2.03025 4.57344
2.07487 4.58422
2.11949 4.92429
2.16411 4.66444
2.20874 7.57446
2.25338 10.0008
2.298 5.63326
2.34263 5.59003
2.38725 6.04277
2.43188 6.55493
2.4765 7.04592
2.52115 7.12568
2.56577 7.94447
2.6104 8.44107
2.65503 8.08013
2.69965 8.69178
2.7443 8.43446
2.78893 9.0428
2.83356 8.32361
2.87818 9.29365
2.92281 9.15329
2.96744 9.4859
3.01209 10.0813
3.05672 11.5401
3.10135 12.5094
3.14599 13.0808
3.19062 14.5829
3.23527 15.3331
3.2799 16.2526
3.32454 16.4907
3.36917 17.3653
3.4138 18.2444
3.45844 19.2791
3.50309 20.4706
3.54773 21.1902
3.59237 23.2065
3.637 42.6484
3.68164 33.501
3.7263 25.1239
3.77094 25.509
3.81558 25.9506
3.86022 26.8754
3.90486 28.3327
3.9495 28.7814
3.99416 30.55
4.0388 31.6041
4.08344 33.1112
4.12809 33.8461
4.17273 35.0521
4.21738 38.2282
4.26204 101.029
4.30669 88.3609
4.35133 43.6132
4.39598 42.9327
4.44063 47.0186
4.4853 52.0553
4.52995 59.5195
4.5746 59.4758
4.61925 53.361
4.6639 55.0259
4.70855 57.5974
4.75322 60.9385
4.79788 69.1763
4.84253 67.7253
4.88719 76.2611
4.93184 76.381
4.97652 79.8061
5.02118 86.4022
5.06583 93.7599
5.11049 104.524
5.15515 153.29
5.19981 370.593
5.24449 2767.74
5.28916 13584.1
5.33382 2686.12
5.37848 197.592
5.42315 130.493
5.46783 120.521
5.5125 114.033
5.55716 100.836
5.60183 96.7641
5.6465 94.6586
5.69117 92.9397
5.73586 91.5356
5.78053 99.8313
5.8252 100.166
5.86988 103.333
5.91455 94.1461
5.95924 102.036
6.00392 227.948
6.0486 908.027
6.09328 4677.75
6.13795 2997.31
6.18263 192.623
6.22733 87.8105
6.27201 78.8919
6.3167 80.4838
6.36138 72.6595
6.40606 69.4296
6.45075 69.7928
6.49545 64.9422
6.54014 62.4106
6.58483 61.9582
6.62952 62.4088
6.67421 68.9768
6.71892 81.6405
6.76361 60.7879
6.8083 59.2762
6.853 59.9491
6.89769 55.9081
6.94239 55.3248
6.98711 54.7979
7.03181 55.4423
7.07651 53.7881
7.12121 53.7957
7.16591 55.8464
7.21063 55.0172
7.25533 58.2401
7.30004 87.9275
7.34475 63.9692
7.38945 53.7829
7.43416 52.9652
7.47889 53.1381
7.5236 53.3324
7.56831 54.2367
7.61303 54.4478
7.65774 55.1403
7.70247 56.7417
7.74719 56.0136
7.79191 55.8603
7.83663 55.5854
7.88135 56.6219
7.92607 57.3595
7.97081 58.6893
8.01553 59.8555
8.06026 62.3357
8.10498 63.3112
8.14971 70.6819
8.19446 70.1946
8.23919 68.3448
8.28392 70.7449
8.32865 72.9953
8.37339 77.2299
8.41812 82.1835
8.46288 98.6068
8.50761 170.991
8.55235 365.336
8.59709 1202.12
8.64183 2237.22
8.68658 835.455
8.73134 140.255
8.77609 95.6071
8.82083 91.1474
8.86558 92.5509
8.91033 92.5355
8.9551 88.6719
8.99985 84.0018
9.04461 82.6933
9.08936 84.1306
9.13412 81.773
9.17888 80.9819
9.22365 81.029
9.26841 81.1567
9.31318 84.6154
9.35794 87.5094
9.4027 86.08
9.44749 84.9566
9.49226 83.7696
9.53703 85.1059
9.5818 88.7975
9.62657 94.5223
9.67134 94.2793
9.71614 91.5661
9.76091 93.9728
9.80569 98.9297
9.85047 100.53
9.89525 108.721
9.94005 123.816
9.98484 184.614
10.0296 329.63
10.0744 828.621
10.1192 1840.53
10.164 1467.36
10.2088 325.689
10.2536 117.903
10.2984 106.815
10.3432 105.37
10.388 103.042
10.4328 119.624
10.4776 157.786
10.5224 290.212
10.5672 548.059
10.612 482.154
10.6568 177.668
10.7017 92.0615
10.7465 84.8986
10.7913 81.922
10.8361 79.5229
10.8809 77.7907
10.9257 76.9157
10.9706 77.2093
11.0154 74.6761
11.0602 71.6435
11.105 70.4838
11.1499 70.364
11.1947 71.6916
11.2395 68.3827
11.2844 67.2186
11.3292 66.0557
11.374 65.3588
11.4189 64.6398
11.4637 63.557
11.5086 63.5227
11.5534 63.8866
11.5983 62.8646
11.6431 62.5578
11.688 61.8283
11.7328 61.7204
11.7777 61.612
11.8225 61.8446
11.8674 61.5474
11.9122 61.9119
11.9571 61.9781
12.002 63.5231
12.0468 67.5801
12.0917 77.3745
12.1366 102.209
12.1814 159.531
12.2263 209.404
12.2712 154.273
12.3161 86.0671
12.3609 65.2452
12.4058 62.7993
12.4507 63.1725
12.4956 63.8015
12.5405 64.4518
12.5853 64.412
12.6302 66.5444
12.6751 68.5515
12.72 66.8575
12.7649 66.8081
12.8098 67.3691
12.8547 68.9659
12.8996 70.4635
12.9445 72.1854
12.9894 73.8018
13.0343 74.8657
13.0792 79.4015
13.1242 91.1538
13.1691 109.177
13.214 145.903
13.2589 246.652
13.3038 392.189
13.3487 418.697
13.3937 227.34
13.4386 114.032
13.4835 104.096
13.5285 117.801
13.5734 157.928
13.6183 259.563
13.6633 371.901
13.7082 323.129
13.7531 166.373
13.7981 91.7549
13.843 80.2344
13.888 78.4735
13.9329 76.3702
13.9779 74.4707
14.0228 72.9853
14.0678 71.7867
14.1127 71.2736
14.1577 70.6338
14.2027 70.0364
14.2476 69.3279
14.2926 68.7952
14.3376 68.8492
14.3825 68.5872
14.4275 68.0279
14.4725 67.6761
14.5175 67.8245
14.5624 67.7409
14.6074 68.6544
14.6524 69.0922
14.6974 69.7156
14.7424 72.8541
14.7874 78.3498
14.8324 87.1615
14.8774 110.521
14.9224 159.902
14.9674 219.24
15.0124 212.567
15.0574 136.207
15.1024 83.9854
15.1474 70.5368
15.1924 69.2102
15.2374 68.0391
15.2824 67.308
15.3274 66.1804
15.3725 65.7301
15.4175 65.2959
15.4625 64.5715
15.5076 64.6371
15.5526 64.5774
15.5976 64.7506
15.6426 67.2978
15.6877 71.574
15.7327 78.5569
15.7778 93.7481
15.8228 128.471
15.8679 177.441
15.9129 195.586
15.958 145.148
16.003 87.1467
16.0481 64.5336
16.0931 61.6136
16.1382 60.1737
16.1833 59.1771
16.2283 57.5852
16.2734 57.1474
16.3185 56.6829
16.3636 56.2756
16.4086 55.629
16.4537 54.8619
16.4988 54.4251
16.5439 54.5315
16.589 54.2765
16.6341 53.9093
16.6792 53.5915
16.7243 53.6586
16.7694 53.7518
16.8145 53.7685
16.8596 53.8914
16.9047 54.4193
16.9498 54.5772
16.9949 54.2825
17.04 55.1018
17.0851 56.2808
17.1302 57.6348
17.1754 60.506
17.2205 66.2233
17.2656 74.9798
17.3108 83.3493
17.3559 80.1142
17.401 67.7422
17.4462 60.3029
17.4913 58.1667
17.5365 58.0953
17.5815 58.2659
17.6268 58.6028
17.6718 59.3376
17.7171 59.6291
17.7622 60.302
17.8074 61.4825
17.8525 64.0135
17.8977 67.3344
17.9428 72.2212
17.9881 82.0299
18.0331 101.122
18.0784 126.585
18.1237 140.814
18.1688 125.456
18.214 96.9555
18.2591 83.7174
18.3044 91.0193
18.3495 101.543
18.3948 105.448
18.4399 90.8286
18.4852 72.9405
18.5303 63.7958
18.5756 60.884
18.6207 60.1725
18.666 59.0391
18.7112 58.6238
18.7565 58.1285
18.8016 57.4522
18.8469 57.0637
18.892 56.8257
18.9374 56.2488
18.9825 55.9405
19.0278 55.6937
19.073 55.9119
19.1183 56.371
19.1635 56.879
19.2088 58.2365
19.254 61.1831
19.2993 66.3098
19.3447 72.2576
19.3898 74.9893
19.4352 69.2974
19.4804 60.3715
19.5257 55.0759
19.5709 53.0833
19.6163 52.9384
19.6615 52.745
19.7068 52.6
19.752 52.5466
19.7974 52.7452
19.8426 53.5149
19.888 53.8209
19.9332 55.2966
19.9786 58.0912
20.0238 62.5123
20.0692 67.3134
20.1144 69.5123
20.1598 66.5073
20.205 61.7123
20.2504 61.391
20.2957 64.2257
20.3411 65.5063
20.3863 62.4234
20.4318 55.9909
20.477 51.6167
20.5224 49.9349
20.5677 49.6887
20.6131 49.1021
20.6586 48.73
20.7038 48.6603
20.7493 48.2983
20.7945 48.1006
20.84 47.9751
20.8853 47.7076
20.9307 47.7389
20.976 47.8017
21.0215 47.8016
21.0668 48.1492
21.1122 48.6263
21.1575 49.376
21.203 50.1515
21.2483 50.6067
21.2938 50.407
21.3391 49.0876
21.3846 48.0399
21.4299 47.7113
21.4754 47.803
21.5207 47.7327
21.5662 48.2253
21.6116 48.5035
21.6571 49.0704
21.7024 49.9396
21.7479 51.8787
21.7933 54.8754
21.8388 58.9275
21.8843 62.8948
21.9297 64.1964
21.9752 61.2976
22.0206 57.4216
22.0661 55.3434
22.1115 55.6018
22.157 54.9733
22.2024 52.7786
22.248 50.1081
22.2933 48.581
22.3389 48.2286
22.3843 47.9355
22.4299 47.9196
22.4753 47.8156
22.5208 47.718
22.5662 47.7694
22.6118 47.9249
22.6572 48.0475
22.7028 48.4506
22.7483 48.8154
22.7939 49.521
22.8393 51.4506
22.8849 53.662
22.9303 56.102
22.9759 57.2924
23.0214 56.1176
23.067 52.7749
23.1126 49.7077
23.1581 48.1808
23.2037 47.7904
23.2492 47.9657
23.2948 47.928
23.3403 48.3279
23.3859 49.0191
23.4314 50.1797
23.477 52.0333
23.5225 54.6623
23.5682 57.0744
23.6137 57.3662
23.6593 54.0167
23.7048 49.8635
23.7505 47.0751
23.796 45.7078
23.8417 45.2213
23.8872 44.5918
23.9329 44.37
23.9784 43.9412
24.0241 43.8725
24.0697 43.6005
24.1154 43.3396
24.1609 43.1634
24.2066 42.9216
24.2522 42.8784
24.2979 42.5504
24.3434 42.447
24.3892 42.3006
24.4349 42.457
24.4805 42.1836
24.5262 42.5532
24.5718 42.1805
24.6175 42.0619
24.6631 42.0963
24.7089 41.8279
24.7545 41.6358
24.8002 41.5576
24.8458 41.4832
24.8916 41.3059
24.9372 41.5078
24.983 41.8395
25.0286 42.0494
25.0744 42.7011
25.12 43.2358
25.1658 43.8327
25.2114 43.8951
25.2572 44.0289
25.3029 44.1908
25.3487 44.3961
25.3943 43.8384
25.4402 42.4846
25.4858 41.4105
25.5316 40.6778
25.5773 40.2209
25.6231 40.2445
25.669 39.7696
25.7147 39.8271
25.7605 39.7175
25.8062 39.7874
25.8521 39.9822
25.8977 39.9354
25.9436 40.1459
25.9893 40.3838
26.0352 40.8999
26.0809 41.1481
26.1268 41.2415
26.1725 40.5126
26.2184 39.9756
26.2641 39.6237
26.31 39.3792
26.3557 39.337
26.4017 39.434
26.4474 39.7507
26.4933 40.0077
26.5391 40.6525
26.585 41.1247
26.6308 41.4862
26.6767 41.4681
26.7225 41.1794
26.7684 40.615
26.8142 40.1069
26.8601 39.6959
26.9059 39.1723
26.9519 38.6705
26.9979 38.4913
27.0437 38.2038
27.0896 38.011
27.1354 38.0588
27.1814 37.8681
27.2272 37.7724
27.2732 37.9862
27.3191 37.8365
27.3651 37.739
27.4109 37.7593
27.4569 37.8892
27.5027 37.8548
27.5488 37.9326
27.5946 37.8181
27.6407 37.6705
27.6865 37.4426
27.7326 37.1694
27.7784 37.3003
27.8245 37.2281
27.8703 37.2563
27.9164 37.6724
27.9623 37.8409
28.0084 38.2466
28.0543 38.5902
28.1003 38.287
28.1462 38.2221
28.1923 37.8616
28.2384 37.1978
28.2843 36.931
28.3304 36.4746
28.3764 36.0651
28.4225 35.7502
28.4684 35.7021
28.5145 35.2839
28.5605 35.2157
28.6066 35.059
28.6526 34.9258
28.6987 35.1342
28.7447 34.8602
28.7908 34.88
28.8368 34.8244
28.8829 34.7631
28.9289 34.75
28.9751 34.4563
29.0211 34.3622
29.0673 34.0733
29.1133 33.8894
29.1595 33.8779
29.2055 33.7442
29.2517 33.7237
29.2977 33.6968
29.3439 33.7212
29.3899 33.7224
29.4361 33.5909
29.4824 33.476
29.5284 33.233
29.5746 32.7872
29.6207 32.5222
29.6669 32.4728
29.713 32.4945
29.7593 32.3277
29.8053 32.3091
29.8516 32.1853
29.8977 32.1916
29.9439 31.9962
29.99 32.0513
30.0363 31.984
30.0824 31.9314
30.1287 31.9436
30.1748 31.8373
30.2211 31.9301
30.2673 31.7207
30.3136 31.8274
30.3597 31.7276
30.406 31.5864
30.4522 31.4855
30.4985 31.4651
30.5447 31.7179
30.591 31.6567
30.6372 31.6097
30.6835 31.7692
30.7297 31.7448
30.7761 31.7338
30.8224 31.4314
30.8686 31.2823
30.915 31.052
30.9612 31.0477
31.0076 30.7583
31.0538 30.7464
31.1002 30.6004
31.1464 30.4438
31.1928 30.3584
31.2391 30.4485
31.2855 30.3313
31.3317 30.3095
31.3781 30.4685
31.4244 30.389
31.4708 30.3053
31.5171 30.2653
31.5636 30.2284
31.6098 30.0007
31.6563 29.8437
31.7026 29.7517
31.7491 29.5964
31.7953 29.6879
31.8418 29.5864
31.8881 29.61
31.9346 29.6372
31.9809 29.6193
32.0275 29.4049
32.074 29.3176
32.1203 29.1285
32.1668 28.9241
32.2132 28.8526
32.2597 28.7892
32.306 28.6603
32.3526 28.5008
32.399 28.4229
32.4455 28.3397
32.4919 28.2916
32.5385 28.1754
32.5848 28.008
32.6314 27.9413
32.6778 27.9796
32.7244 27.8183
32.7708 27.6483
32.8174 27.6992
32.8638 27.5324
32.9104 27.5877
32.9569 27.5353
33.0035 27.4187
33.0499 27.3759
33.0966 27.3095
33.143 27.3468
33.1897 27.2528
33.2361 27.1794
33.2828 27.1551
33.3293 26.951
33.3759 26.8951
33.4226 26.7889
33.4691 26.7143
33.5158 26.5886
33.5623 26.5175
33.609 26.3363
33.6555 26.1925
33.7022 26.0463
33.7487 26.0449
33.7954 26.0378
33.842 25.9454
33.8887 25.9056
33.9353 25.8226
33.982 25.729
34.0286 25.6283
34.0753 25.5544
34.1219 25.444
34.1687 25.4347
34.2152 25.4286
34.262 25.2366
34.3086 25.184
34.3554 25.0995
34.402 24.9548
34.4488 24.9184
34.4954 24.8419
34.5422 24.7718
34.5889 24.6122
34.6357 24.4726
34.6825 24.4745
34.7292 24.399
34.776 24.2453
34.8227 24.2545
34.8695 24.2752
34.9162 24.1633
34.9631 24.097
35.0098 24.0727
35.0566 23.9285
35.1033 23.887
35.1502 23.8198
35.1969 23.8449
35.2438 23.739
35.2906 23.7209
35.3375 23.6062
35.3842 23.6145
35.4311 23.5992
35.4779 23.5935
35.5248 23.4548
35.5716 23.3514
35.6185 23.3017
35.6653 23.1853
35.7123 23.1586
35.759 23.1144
35.806 22.9734
35.8528 22.8539
35.8998 22.8064
35.9468 22.7751
35.9936 22.7065
36.0406 22.6035
36.0874 22.6196
36.1345 22.4472
36.1813 22.3415
36.2283 22.2645
36.2752 22.3102
36.3222 22.3448
36.3691 22.2216
36.4161 22.0471
36.463 22.0722
36.5101 22.0896
36.557 21.9486
36.6041 21.8438
36.651 21.8409
36.6981 21.7176
36.745 21.7128
36.7921 21.62
36.839 21.5508
36.8861 21.4249
36.9331 21.3124
36.9802 21.2153
37.0272 21.2164
37.0743 21.1107
37.1213 21.1246
37.1684 20.9929
37.2154 20.9466
37.2626 20.933
37.3098 20.8517
37.3568 20.8267
37.404 20.7479
37.451 20.6399
37.4982 20.5834
37.5452 20.4333
37.5924 20.4797
37.6395 20.5251
37.6867 20.3205
37.7337 20.2554
37.781 20.1621
37.8281 20.073
37.8753 20.0167
37.9224 19.9775
37.9697 19.8801
38.0168 19.8844
38.064 19.7988
38.1111 19.7362
38.1584 19.7346
38.2056 19.6589
38.2529 19.5371
38.3 19.5028
38.3473 19.4496
38.3945 19.2963
38.4418 19.3464
38.489 19.1955
38.5363 19.1901
38.5837 19.0824
38.6309 19.0149
38.6782 18.9704
38.7254 19.0004
38.7728 18.7955
38.82 18.845
38.8674 18.7401
38.9146 18.6725
38.9621 18.6772
39.0093 18.5837
39.0567 18.5597
39.104 18.5025
39.1514 18.3419
39.1987 18.3105
39.2461 18.266
39.2934 18.2697
39.3409 18.1334
39.3882 18.0128
39.4356 18.0441
39.483 18.0191
39.5304 17.8753
39.5778 17.8911
39.6253 17.8686
39.6726 17.7777
39.7201 17.8187
39.7675 17.6193
39.815 17.6105
39.8624 17.5329
39.9099 17.4954
39.9575 17.3926
40.0049 17.3447
40.0525 17.3255
40.0999 17.3076
40.1474 17.2467
40.1949 17.2327
40.2425 17.1083
40.2899 17.0486
40.3375 17.0074
40.385 16.915
40.4326 16.8873
40.48 16.8169
40.5277 16.7987
40.5752 16.7574
40.6228 16.692
40.6703 16.6204
40.718 16.5472
40.7655 16.5268
40.8132 16.4539
40.8607 16.4604
40.9084 16.4242
40.9559 16.3169
41.0036 16.2439
41.0512 16.1893
41.0989 16.1917
41.1465 16.1043
41.1942 16.0601
41.242 15.9391
41.2896 15.9741
41.3373 15.8179
41.3849 15.83
41.4327 15.7909
41.4803 15.7133
41.5281 15.6781
41.5758 15.5971
41.6236 15.5465
41.6712 15.4902
41.7191 15.5139
41.7667 15.451
41.8146 15.3818
41.8622 15.3341
41.9101 15.2724
41.9578 15.2214
42.0057 15.1257
42.0534 15.1502
42.1013 15.1069
42.149 15.0663
42.1969 14.9681
42.2446 14.9273
42.2925 14.8584
42.3403 14.8021
42.3882 14.8044
42.436 14.7381
42.4839 14.6916
42.5319 14.6272
42.5797 14.5535
42.6277 14.5126
42.6755 14.5406
42.7235 14.4574
42.7713 14.3885
42.8193 14.3191
42.8671 14.3134
42.9152 14.2234
42.963 14.1367
43.0111 14.0897
43.0589 14.0326
43.107 14.0118
43.1549 13.9588
43.2029 13.9109
43.2508 13.9097
43.2989 13.7943
43.3468 13.8225
43.3949 13.7197
43.4429 13.6884
43.491 13.6256
43.5389 13.6024
43.5871 13.5606
43.635 13.4984
43.6832 13.4627
43.7312 13.3588
43.7793 13.3708
43.8273 13.3621
43.8755 13.2488
43.9237 13.2216
43.9717 13.1865
44.0199 13.1228
44.068 13.0731
44.1162 13.0651
44.1642 12.9936
44.2125 12.9728
44.2606 12.8632
44.3088 12.8397
44.3569 12.8431
44.4052 12.8018
44.4533 12.7777
44.5016 12.6474
44.5497 12.6463
44.598 12.5692
44.6461 12.5478
44.6945 12.4877
44.7426 12.4226
44.791 12.4432
44.8391 12.3861
44.8875 12.3095
44.9357 12.3065
44.984 12.236
45.0322 12.1832
45.0806 12.1467
45.1288 12.1095
45.1773 12.044
45.2257 12.0537
45.2739 11.9629
45.3224 11.9591
45.3706 11.9093
45.4191 11.8414
45.4673 11.8332
45.5158 11.7782
45.5641 11.7312
45.6126 11.6954
45.6609 11.6579
45.7094 11.5955
45.7577 11.5772
45.8063 11.5329
45.8546 11.4748
45.9031 11.4
45.9515 11.3966
46.0001 11.3465
46.0484 11.3421
46.097 11.3169
46.1454 11.2423
46.194 11.1745
46.2424 11.1497
46.291 11.1216
46.3395 11.1056
46.3881 11.0291
46.4365 11.0052
46.4852 10.9766
46.5337 10.89
46.5823 10.9425
46.631 10.8427
46.6795 10.7681
46.7282 10.7719
46.7767 10.7713
46.8254 10.6295
46.8739 10.6417
46.9226 10.6364
46.9712 10.5753
47.0199 10.4956
47.0685 10.4822
47.1173 10.483
47.1658 10.407
47.2146 10.3575
47.2632 10.2984
47.312 10.2836
47.3606 10.2145
47.4095 10.2199
47.4581 10.1713
47.5069 10.1555
47.5556 10.0809
47.6044 10.0704
47.6531 10.0128
47.702 9.95329
47.7507 9.96164
47.7996 9.89337
47.8483 9.90204
47.8972 9.86297
47.9461 9.82817
47.9948 9.77168
48.0438 9.74343
48.0925 9.7256
48.1415 9.70319
48.1902 9.65224
48.2392 9.6164
48.288 9.56424
48.337 9.57173
48.3858 9.49515
48.4348 9.46493
48.4837 9.46258
48.5327 9.37839
48.5815 9.37822
48.6306 9.29925
48.6795 9.29054
48.7285 9.25808
48.7774 9.26279
48.8265 9.17725
48.8754 9.15747
48.9245 9.10674
48.9734 9.10108
49.0226 9.04473
49.0715 8.99914
49.1206 8.96819
49.1696 8.93668
49.2188 8.91966
49.2679 8.90047
49.3169 8.84499
49.3661 8.81455
49.4151 8.77858
49.4643 8.73232
49.5134 8.71745
49.5626 8.64149
49.6117 8.65173
49.6609 8.6471
49.71 8.56367
49.7592 8.56073
49.8083 8.51099
49.8576 8.47494
49.9067 8.44105
49.956 8.39324
50.0052 8.37545
50.0545 8.35368
50.1036 8.30175
50.153 8.31218
50.2022 8.22768
50.2515 8.22969
50.3007 8.1689
50.3501 8.11151
50.3993 8.09845
50.4487 8.12438
50.498 8.06611
50.5474 7.99014
50.5966 7.97566
50.6461 7.93383
50.6955 7.9473
50.7448 7.92228
50.7943 7.87386
50.8436 7.88344
50.8931 7.78595
50.9424 7.81883
50.9919 7.75105
51.0413 7.74359
51.0908 7.72224
51.1402 7.66582
51.1897 7.61782
51.2391 7.60475
51.2887 7.55885
51.3381 7.51462
51.3877 7.52838
51.4371 7.50381
51.4867 7.44667
51.5362 7.41488
51.5858 7.42937
51.6353 7.33844
51.6849 7.35028
51.7344 7.30907
51.7841 7.26125
51.8336 7.2299
51.8833 7.24454
51.9328 7.18125
51.9826 7.15342
52.0323 7.10529
52.0818 7.07761
52.1316 7.04683
52.1812 7.04871
52.231 7.00689
52.2806 6.97502
52.3304 6.94417
52.38 6.94258
52.4298 6.91013
52.4794 6.87479
52.5293 6.8421
52.5789 6.80531
52.6288 6.79205
52.6785 6.74061
52.7284 6.7149
52.7781 6.70251
52.828 6.69659
52.8777 6.62021
52.9276 6.6324
52.9774 6.60986
53.0273 6.59233
53.0771 6.54893
53.1271 6.56582
53.1769 6.44678
53.2269 6.41298
53.2767 6.42549
53.3267 6.38835
53.3765 6.38305
53.4266 6.32132
53.4766 6.30169
53.5265 6.24716
53.5765 6.22682
53.6264 6.24612
53.6765 6.18687
53.7264 6.15115
53.7765 6.16566
53.8265 6.11158
53.8766 6.06666
53.9266 6.07419
53.9767 6.05926
54.0267 6.04738
54.0769 5.9467
54.1269 5.96649
54.1771 5.91069
54.2271 5.88711
54.2773 5.83654
54.3274 5.83666
54.3776 5.78111
54.4277 5.73597
54.478 5.75627
54.528 5.71466
54.5783 5.69004
54.6285 5.6817
54.6788 5.58188
54.7289 5.52679
54.7792 5.50756
54.8296 5.45792
54.8798 5.43467
54.9301 5.40109
54.9803 5.38257
55.0307 5.38143
55.0809 5.29633
55.1314 5.25029
55.1816 5.19991
55.232 5.17648
55.2823 5.15693
55.3328 5.06388
55.383 5.02383
55.4335 4.98292
55.4838 4.91236
55.5344 4.89005
55.5847 4.86776
55.6352 4.81006
55.6856 4.75825
55.7361 4.72525