File: XRD/Ni3Fe_FD0150.xy
TT I
1.27165 7.84228
1.31627 7.6675
1.36089 7.09
1.40551 6.0764
1.45013 6.84
1.49476 6.3198
1.53938 5.84359
1.584 5.61876
1.62863 5.40422
1.67325 5.06527
1.71787 5.60413
1.7625 5.17014
1.80712 5.11249
1.85174 5.43265
1.89636 5.06963
1.94099 5.49993
1.98562 5.12607
2.03025 4.53587
2.07487 4.87274
2.11949 5.24326
2.16411 4.4571
2.20874 4.74627
2.25338 4.40147
2.298 4.49602
2.34263 4.78221
2.38725 4.25162
2.43188 4.44946
2.4765 4.50197
2.52115 4.25518
2.56577 4.65066
2.6104 5.59654
2.65503 5.0224
2.69965 5.65674
2.7443 6.04837
2.78893 6.76116
2.83356 7.64661
2.87818 7.81608
2.92281 9.02932
2.96744 9.16309
3.01209 10.684
3.05672 10.9669
3.10135 12.0487
3.14599 13.0624
3.19062 14.3433
3.23527 14.7288
3.2799 15.6855
3.32454 16.9738
3.36917 17.8083
3.4138 18.664
3.45844 19.8649
3.50309 20.6291
3.54773 20.7203
3.59237 21.824
3.637 22.5119
3.68164 23.0088
3.7263 24.2944
3.77094 25.129
3.81558 25.7605
3.86022 26.2851
3.90486 27.8184
3.9495 28.3401
3.99416 29.417
4.0388 30.5756
4.08344 31.4997
4.12809 32.7759
4.17273 33.7622
4.21738 35.3539
4.26204 36.4876
4.30669 37.5175
4.35133 39.8654
4.39598 40.8665
4.44063 43.4056
4.4853 44.5735
4.52995 47.4916
4.5746 49.2032
4.61925 51.6785
4.6639 53.2927
4.70855 56.0751
4.75322 59.1281
4.79788 62.1923
4.84253 66.6018
4.88719 70.2216
4.93184 75.4488
4.97652 82.5505
5.02118 90.4834
5.06583 100.846
5.11049 116.858
5.15515 154.72
5.19981 550.508
5.24449 3770.6
5.28916 8174.12
5.33382 6368.83
5.37848 451.289
5.42315 163.142
5.46783 127.327
5.5125 114.444
5.55716 107.501
5.60183 101.699
5.6465 98.7496
5.69117 97.2063
5.73586 95.4823
5.78053 94.656
5.8252 94.9238
5.86988 97.4456
5.91455 104.933
5.95924 123.986
6.00392 288.914
6.0486 1381.48
6.09328 2699.15
6.13795 3977.34
6.18263 725.071
6.22733 122.36
6.27201 89.1943
6.3167 78.7608
6.36138 72.5917
6.40606 67.8873
6.45075 66.0296
6.49545 64.4813
6.54014 61.9434
6.58483 60.8781
6.62952 59.6112
6.67421 58.0715
6.71892 57.2297
6.76361 56.5155
6.8083 55.2244
6.853 54.474
6.89769 54.2674
6.94239 54.0296
6.98711 53.001
7.03181 52.6567
7.07651 52.6207
7.12121 52.218
7.16591 52.0321
7.21063 51.9912
7.25533 51.8219
7.30004 51.8597
7.34475 52.0495
7.38945 52.3461
7.43416 51.4936
7.47889 51.7638
7.5236 55.823
7.56831 63.6089
7.61303 55.0373
7.65774 53.5465
7.70247 53.88
7.74719 53.9298
7.79191 54.6243
7.83663 54.8595
7.88135 55.9353
7.92607 56.8799
7.97081 58.2424
8.01553 59.0114
8.06026 60.3506
8.10498 61.7299
8.14971 63.629
8.19446 64.8994
8.23919 67.7126
8.28392 70.6092
8.32865 73.1216
8.37339 78.2114
8.41812 83.2636
8.46288 94.9231
8.50761 172.916
8.55235 602.513
8.59709 884.28
8.64183 1483.44
8.68658 1638.67
8.73134 411.039
8.77609 116.015
8.82083 97.2268
8.86558 90.9703
8.91033 87.285
8.9551 84.8722
8.99985 83.851
9.04461 82.882
9.08936 81.9122
9.13412 81.2297
9.17888 81.1877
9.22365 86.9684
9.26841 97.2089
9.31318 86.2919
9.35794 81.9963
9.4027 82.1671
9.44749 82.9874
9.49226 83.069
9.53703 84.2777
9.5818 85.4355
9.62657 87.0579
9.67134 88.2588
9.71614 90.4299
9.76091 92.587
9.80569 94.8785
9.85047 98.3898
9.89525 103.482
9.94005 113.428
9.98484 185.654
10.0296 545.567
10.0744 734.181
10.1192 1028.18
10.164 1662.77
10.2088 984.457
10.2536 214.36
10.2984 116.107
10.3432 107.838
10.388 103.914
10.4328 120.584
10.4776 214.487
10.5224 261.034
10.5672 329.342
10.612 488.95
10.6568 371.13
10.7017 134.195
10.7465 90.2762
10.7913 83.2275
10.8361 80.2977
10.8809 77.7624
10.9257 75.3523
10.9706 74.1007
11.0154 72.4895
11.0602 71.0642
11.105 70.1283
11.1499 68.6286
11.1947 67.523
11.2395 66.5296
11.2844 66.1363
11.3292 64.9675
11.374 64.4463
11.4189 63.6993
11.4637 63.3918
11.5086 62.7112
11.5534 62.3288
11.5983 61.847
11.6431 61.5237
11.688 61.2874
11.7328 61.1786
11.7777 61.0111
11.8225 60.9775
11.8674 60.9586
11.9122 62.325
11.9571 65.7857
12.002 65.1525
12.0468 67.5621
12.0917 90.3745
12.1366 107.803
12.1814 117.679
12.2263 150.615
12.2712 191.371
12.3161 138.789
12.3609 75.0978
12.4058 63.7142
12.4507 62.7387
12.4956 62.8416
12.5405 62.7264
12.5853 63.3974
12.6302 63.4892
12.6751 64.1217
12.72 64.9685
12.7649 65.7967
12.8098 66.8013
12.8547 68.0506
12.8996 69.4594
12.9445 70.9886
12.9894 72.9549
13.0343 74.7028
13.0792 78.8276
13.1242 85.9984
13.1691 132.372
13.214 186.48
13.2589 203.269
13.3038 243.293
13.3487 348.19
13.3937 381.227
13.4386 210.357
13.4835 119.044
13.5285 153.883
13.5734 181.523
13.6183 191.504
13.6633 236.611
13.7082 329.238
13.7531 306.431
13.7981 153.088
13.843 88.1604
13.888 80.3741
13.9329 77.1223
13.9779 75.8577
14.0228 74.0334
14.0678 72.9925
14.1127 72.4767
14.1577 74.1049
14.2027 72.4196
14.2476 70.4526
14.2926 69.2722
14.3376 68.7731
14.3825 68.2878
14.4275 67.8604
14.4725 68.1038
14.5175 68.0157
14.5624 67.8492
14.6074 68.4116
14.6524 68.8432
14.6974 69.5844
14.7424 71.3451
14.7874 80.5692
14.8324 106.93
14.8774 120.609
14.9224 126.465
14.9674 147.651
15.0124 191.378
15.0574 203.21
15.1024 139.66
15.1474 81.868
15.1924 70.8664
15.2374 68.8145
15.2824 67.5944
15.3274 66.6821
15.3725 66.0291
15.4175 65.7041
15.4625 65.4148
15.5076 65.2728
15.5526 65.3409
15.5976 65.5467
15.6426 66.1683
15.6877 73.4204
15.7327 94.6282
15.7778 107.105
15.8228 110.254
15.8679 123.806
15.9129 153.02
15.958 183.662
16.003 150.873
16.0481 88.6771
16.0931 66.1388
16.1382 61.6646
16.1833 59.8999
16.2283 58.5481
16.2734 57.9551
16.3185 57.106
16.3636 56.4579
16.4086 55.636
16.4537 55.2667
16.4988 54.7798
16.5439 54.6702
16.589 54.3419
16.6341 54.2545
16.6792 53.8135
16.7243 54.0597
16.7694 53.8483
16.8145 54.0115
16.8596 54.1751
16.9047 54.308
16.9498 54.8929
16.9949 54.7902
17.04 55.0804
17.0851 56.5996
17.1302 60.945
17.1754 64.0304
17.2205 65.1129
17.2656 67.0194
17.3108 71.9532
17.3559 79.031
17.401 81.2194
17.4462 70.8001
17.4913 61.2825
17.5365 58.8691
17.5815 58.7293
17.6268 59.1125
17.6718 59.5562
17.7171 59.9691
17.7622 61.236
17.8074 62.0144
17.8525 63.6086
17.8977 71.6617
17.9428 83.313
17.9881 88.2125
18.0331 90.7335
18.0784 97.5356
18.1237 114.071
18.1688 140.026
18.214 141.885
18.2591 110.75
18.3044 88.2232
18.3495 86.2001
18.3948 94.4337
18.4399 103.268
18.4852 94.6139
18.5303 76.0769
18.5756 64.8445
18.6207 61.9366
18.666 60.6911
18.7112 59.7103
18.7565 58.85
18.8016 58.6565
18.8469 58.1191
18.892 57.7304
18.9374 57.0955
18.9825 56.8461
19.0278 56.5194
19.073 56.7546
19.1183 57.1581
19.1635 59.5409
19.2088 61.5698
19.254 62.1381
19.2993 62.9087
19.3447 65.0366
19.3898 68.9493
19.4352 73.4664
19.4804 72.3898
19.5257 63.6317
19.5709 56.308
19.6163 54.1847
19.6615 53.9269
19.7068 53.0764
19.752 53.1119
19.7974 53.3457
19.8426 54.5475
19.888 56.7361
19.9332 57.806
19.9786 58.3716
20.0238 58.9827
20.0692 61.7215
20.1144 66.6632
20.1598 72.3367
20.205 70.8148
20.2504 65.1334
20.2957 60.8833
20.3411 61.5435
20.3863 64.4753
20.4318 64.1988
20.477 58.7947
20.5224 53.0413
20.5677 51.0573
20.6131 50.2957
20.6586 49.521
20.7038 49.4854
20.7493 49.0476
20.7945 49.124
20.84 48.9127
20.8853 48.6531
20.9307 48.3902
20.976 48.5784
21.0215 48.9119
21.0668 49.3396
21.1122 49.3824
21.1575 49.4066
21.203 49.6232
21.2483 50.2962
21.2938 51.2387
21.3391 51.2116
21.3846 50.3197
21.4299 49.2231
21.4754 48.7224
21.5207 48.5734
21.5662 48.7176
21.6116 49.2247
21.6571 51.2034
21.7024 53.0512
21.7479 53.9018
21.7933 54.3132
21.8388 55.5114
21.8843 58.477
21.9297 61.8838
21.9752 65.4747
22.0206 65.4267
22.0661 60.4608
22.1115 56.0522
22.157 55.3572
22.2024 56.345
22.248 55.1759
22.2933 52.4402
22.3389 49.9948
22.3843 49.0986
22.4299 48.6936
22.4753 48.7041
22.5208 48.5621
22.5662 48.6243
22.6118 48.8244
22.6572 49.0772
22.7028 50.2757
22.7483 51.2698
22.7939 51.8621
22.8393 51.9373
22.8849 52.5007
22.9303 53.3673
22.9759 54.8
23.0214 57.0926
23.067 58.0784
23.1126 55.8034
23.1581 52.1599
23.2037 49.5738
23.2492 48.9608
23.2948 49.6407
23.3403 50.8235
23.3859 51.7319
23.4314 51.61
23.477 51.7913
23.5225 52.2947
23.5682 53.5147
23.6137 55.5951
23.6593 57.536
23.7048 57.0898
23.7505 53.1998
23.796 49.0027
23.8417 46.8116
23.8872 45.9132
23.9329 45.6146
23.9784 45.1533
24.0241 44.9414
24.0697 44.6207
24.1154 44.3275
24.1609 44.1298
24.2066 43.9617
24.2522 43.7465
24.2979 43.5994
24.3434 43.3824
24.3892 43.392
24.4349 43.2006
24.4805 42.8631
24.5262 43.0422
24.5718 42.8846
24.6175 42.9146
24.6631 42.8723
24.7089 42.9394
24.7545 42.6741
24.8002 42.3755
24.8458 42.5208
24.8916 42.463
24.9372 42.6989
24.983 42.8119
25.0286 42.9546
25.0744 43.3743
25.12 43.7863
25.1658 44.1165
25.2114 44.4761
25.2572 45.0074
25.3029 44.8604
25.3487 44.586
25.3943 44.7091
25.4402 44.9703
25.4858 44.3066
25.5316 43.0435
25.5773 41.78
25.6231 41.2946
25.669 40.6785
25.7147 40.8013
25.7605 40.5687
25.8062 40.9487
25.8521 41.0725
25.8977 40.9586
25.9436 41.0745
25.9893 40.9409
26.0352 40.9856
26.0809 41.1072
26.1268 41.4879
26.1725 42.0395
26.2184 41.8216
26.2641 41.2769
26.31 40.798
26.3557 40.9262
26.4017 40.8569
26.4474 40.8778
26.4933 40.8136
26.5391 41.1058
26.585 41.2152
26.6308 41.613
26.6767 41.8705
26.7225 42.5762
26.7684 42.6079
26.8142 41.9509
26.8601 41.1415
26.9059 40.8067
26.9519 40.4552
26.9979 40.0458
27.0437 39.6238
27.0896 39.0296
27.1354 39.0139
27.1814 38.8511
27.2272 38.8088
27.2732 38.8179
27.3191 38.7732
27.3651 38.7234
27.4109 38.5613
27.4569 38.5741
27.5027 38.7161
27.5488 38.6325
27.5946 38.6829
27.6407 38.7056
27.6865 38.7409
27.7326 38.5481
27.7784 38.4444
27.8245 38.2254
27.8703 38.4067
27.9164 38.519
27.9623 38.4207
28.0084 38.5947
28.0543 38.8779
28.1003 39.0538
28.1462 39.2792
28.1923 39.3042
28.2384 38.7614
28.2843 38.3705
28.3304 38.0096
28.3764 37.5758
28.4225 37.1139
28.4684 36.8027
28.5145 36.2925
28.5605 36.2066
28.6066 35.9667
28.6526 35.983
28.6987 35.968
28.7447 35.7513
28.7908 35.4404
28.8368 35.5989
28.8829 35.4893
28.9289 35.4807
28.9751 35.3344
29.0211 35.3473
29.0673 35.0927
29.1133 34.9609
29.1595 34.8488
29.2055 34.5709
29.2517 34.4335
29.2977 34.3527
29.3439 34.2129
29.3899 34.2331
29.4361 34.2427
29.4824 34.336
29.5284 34.2081
29.5746 33.9181
29.6207 33.4286
29.6669 33.4515
29.713 33.2153
29.7593 32.9383
29.8053 33.0436
29.8516 32.9648
29.8977 32.9977
29.9439 32.8145
29.99 32.7687
30.0363 32.564
30.0824 32.6291
30.1287 32.5348
30.1748 32.5393
30.2211 32.4727
30.2673 32.4553
30.3136 32.4696
30.3597 32.605
30.406 32.503
30.4522 32.3343
30.4985 32.1864
30.5447 32.354
30.591 32.2189
30.6372 32.2551
30.6835 32.1246
30.7297 32.2646
30.7761 32.4412
30.8224 32.5685
30.8686 32.2455
30.915 32.2008
30.9612 31.8779
31.0076 31.7056
31.0538 31.5197
31.1002 31.3568
31.1464 31.3418
31.1928 31.2014
31.2391 31.1401
31.2855 31.202
31.3317 30.9663
31.3781 31.0909
31.4244 31.0945
31.4708 30.9766
31.5171 30.8757
31.5636 31.0422
31.6098 30.9909
31.6563 30.8445
31.7026 30.6656
31.7491 30.3961
31.7953 30.4704
31.8418 30.2864
31.8881 30.23
31.9346 30.1521
31.9809 30.2745
32.0275 30.2173
32.074 30.214
32.1203 29.986
32.1668 29.9408
32.2132 29.7398
32.2597 29.6082
32.306 29.4401
32.3526 29.2126
32.399 29.2413
32.4455 28.9989
32.4919 28.8467
32.5385 28.8934
32.5848 28.6667
32.6314 28.6983
32.6778 28.6545
32.7244 28.42
32.7708 28.3244
32.8174 28.2196
32.8638 28.1764
32.9104 28.3288
32.9569 28.1833
33.0035 28.0525
33.0499 27.9427
33.0966 27.9099
33.143 27.9682
33.1897 27.7994
33.2361 27.7213
33.2828 27.6477
33.3293 27.5742
33.3759 27.6887
33.4226 27.5395
33.4691 27.3869
33.5158 27.306
33.5623 27.1451
33.609 26.9682
33.6555 26.8024
33.7022 26.7043
33.7487 26.6838
33.7954 26.6036
33.842 26.5181
33.8887 26.4746
33.9353 26.4957
33.982 26.3511
34.0286 26.209
34.0753 26.1316
34.1219 26.1088
34.1687 26.0219
34.2152 25.8489
34.262 25.8349
34.3086 25.76
34.3554 25.7023
34.402 25.5132
34.4488 25.4608
34.4954 25.4005
34.5422 25.3009
34.5889 25.2091
34.6357 25.1776
34.6825 25.1083
34.7292 24.9573
34.776 24.9141
34.8227 24.8052
34.8695 24.8029
34.9162 24.7045
34.9631 24.6479
35.0098 24.6111
35.0566 24.4681
35.1033 24.5086
35.1502 24.3785
35.1969 24.4154
35.2438 24.249
35.2906 24.1733
35.3375 24.2104
35.3842 24.0603
35.4311 24.0948
35.4779 24.1022
35.5248 23.9848
35.5716 23.9068
35.6185 23.8094
35.6653 23.7668
35.7123 23.6841
35.759 23.6499
35.806 23.5922
35.8528 23.3278
35.8998 23.2709
35.9468 23.2856
35.9936 23.218
36.0406 23.1335
36.0874 23.1631
36.1345 23.1015
36.1813 22.8968
36.2283 22.8932
36.2752 22.7959
36.3222 22.8875
36.3691 22.7296
36.4161 22.5511
36.463 22.5799
36.5101 22.6317
36.557 22.4824
36.6041 22.3432
36.651 22.35
36.6981 22.312
36.745 22.204
36.7921 22.094
36.839 22.08
36.8861 21.9694
36.9331 21.8191
36.9802 21.828
37.0272 21.7086
37.0743 21.6584
37.1213 21.6093
37.1684 21.4724
37.2154 21.4718
37.2626 21.3459
37.3098 21.373
37.3568 21.2392
37.404 21.2475
37.451 21.0957
37.4982 21.0248
37.5452 20.9268
37.5924 20.9211
37.6395 20.9173
37.6867 20.8111
37.7337 20.6972
37.781 20.6564
37.8281 20.5822
37.8753 20.5741
37.9224 20.4614
37.9697 20.4084
38.0168 20.2714
38.064 20.2511
38.1111 20.2051
38.1584 20.177
38.2056 20.0926
38.2529 20.005
38.3 19.8996
38.3473 19.9008
38.3945 19.7804
38.4418 19.7824
38.489 19.6698
38.5363 19.5706
38.5837 19.6008
38.6309 19.4732
38.6782 19.4221
38.7254 19.3337
38.7728 19.3364
38.82 19.1704
38.8674 19.2089
38.9146 19.1727
38.9621 19.0459
39.0093 19.0471
39.0567 18.9483
39.104 18.8974
39.1514 18.791
39.1987 18.7648
39.2461 18.6948
39.2934 18.6686
39.3409 18.5226
39.3882 18.5128
39.4356 18.4666
39.483 18.4585
39.5304 18.348
39.5778 18.3194
39.6253 18.2379
39.6726 18.1812
39.7201 18.1669
39.7675 18.0767
39.815 18.0591
39.8624 17.931
39.9099 17.9411
39.9575 17.7971
40.0049 17.775
40.0525 17.6698
40.0999 17.6898
40.1474 17.6543
40.1949 17.5386
40.2425 17.4929
40.2899 17.5012
40.3375 17.3762
40.385 17.3305
40.4326 17.2577
40.48 17.2162
40.5277 17.2165
40.5752 17.1735
40.6228 17.0762
40.6703 17.0287
40.718 16.9843
40.7655 16.9446
40.8132 16.8996
40.8607 16.9311
40.9084 16.7927
40.9559 16.6516
41.0036 16.6796
41.0512 16.6113
41.0989 16.5987
41.1465 16.4782
41.1942 16.4463
41.242 16.3376
41.2896 16.3148
41.3373 16.2572
41.3849 16.1933
41.4327 16.1443
41.4803 16.0757
41.5281 16.0353
41.5758 15.9856
41.6236 15.9106
41.6712 15.8304
41.7191 15.8426
41.7667 15.8153
41.8146 15.7727
41.8622 15.6993
41.9101 15.6399
41.9578 15.5259
42.0057 15.5623
42.0534 15.4378
42.1013 15.4465
42.149 15.3642
42.1969 15.3453
42.2446 15.2314
42.2925 15.2118
42.3403 15.1409
42.3882 15.1288
42.436 15.111
42.4839 14.9955
42.5319 14.8992
42.5797 14.9377
42.6277 14.8078
42.6755 14.825
42.7235 14.729
42.7713 14.6827
42.8193 14.6614
42.8671 14.598
42.9152 14.5114
42.963 14.5201
43.0111 14.443
43.0589 14.4557
43.107 14.3307
43.1549 14.3226
43.2029 14.2547
43.2508 14.2676
43.2989 14.1686
43.3468 14.1225
43.3949 14.1098
43.4429 14.0495
43.491 13.9539
43.5389 13.9536
43.5871 13.8362
43.635 13.777
43.6832 13.7819
43.7312 13.7328
43.7793 13.6275
43.8273 13.6242
43.8755 13.599
43.9237 13.5386
43.9717 13.5079
44.0199 13.4535
44.068 13.3829
44.1162 13.3821
44.1642 13.3257
44.2125 13.2982
44.2606 13.2333
44.3088 13.1773
44.3569 13.0939
44.4052 13.1019
44.4533 13.0106
44.5016 12.9322
44.5497 12.9321
44.598 12.9034
44.6461 12.8164
44.6945 12.799
44.7426 12.7448
44.791 12.73
44.8391 12.6641
44.8875 12.6247
44.9357 12.5378
44.984 12.5051
45.0322 12.451
45.0806 12.4468
45.1288 12.4044
45.1773 12.3486
45.2257 12.353
45.2739 12.241
45.3224 12.2216
45.3706 12.1479
45.4191 12.1109
45.4673 12.1043
45.5158 12.0541
45.5641 11.9966
45.6126 11.9362
45.6609 11.8998
45.7094 11.8527
45.7577 11.8247
45.8063 11.7698
45.8546 11.7686
45.9031 11.7087
45.9515 11.6711
46.0001 11.5995
46.0484 11.6314
46.097 11.5456
46.1454 11.4728
46.194 11.4513
46.2424 11.4193
46.291 11.3624
46.3395 11.2977
46.3881 11.3094
46.4365 11.2678
46.4852 11.2283
46.5337 11.1594
46.5823 11.1547
46.631 11.0727
46.6795 11.0481
46.7282 11.0574
46.7767 10.9523
46.8254 10.9492
46.8739 10.8512
46.9226 10.8224
46.9712 10.839
47.0199 10.7825
47.0685 10.769
47.1173 10.6654
47.1658 10.6581
47.2146 10.6003
47.2632 10.5296
47.312 10.5327
47.3606 10.5204
47.4095 10.4835
47.4581 10.4038
47.5069 10.359
47.5556 10.3383
47.6044 10.2757
47.6531 10.2437
47.702 10.1818
47.7507 10.1594
47.7996 10.1277
47.8483 10.1207
47.8972 10.1075
47.9461 10.0479
47.9948 9.98264
48.0438 9.96975
48.0925 9.92455
48.1415 9.89342
48.1902 9.84664
48.2392 9.80628
48.288 9.79931
48.337 9.74926
48.3858 9.69212
48.4348 9.68953
48.4837 9.70809
48.5327 9.63987
48.5815 9.53933
48.6306 9.58646
48.6795 9.48746
48.7285 9.48513
48.7774 9.41829
48.8265 9.39782
48.8754 9.33345
48.9245 9.33419
48.9734 9.29898
49.0226 9.29972
49.0715 9.22613
49.1206 9.17178
49.1696 9.16771
49.2188 9.14925
49.2679 9.09696
49.3169 9.06111
49.3661 8.99357
49.4151 8.99328
49.4643 8.94232
49.5134 8.89589
49.5626 8.8805
49.6117 8.82499
49.6609 8.81111
49.71 8.76637
49.7592 8.76447
49.8083 8.66904
49.8576 8.70239
49.9067 8.64376
49.956 8.60381
50.0052 8.58058
50.0545 8.54501
50.1036 8.53755
50.153 8.48701
50.2022 8.43712
50.2515 8.40676
50.3007 8.37116
50.3501 8.34043
50.3993 8.30701
50.4487 8.28545
50.498 8.25611
50.5474 8.22606
50.5966 8.20724
50.6461 8.13527
50.6955 8.11008
50.7448 8.11535
50.7943 8.04108
50.8436 8.01685
50.8931 8.04446
50.9424 7.97953
50.9919 7.9165
51.0413 7.90559
51.0908 7.8888
51.1402 7.86766
51.1897 7.8157
51.2391 7.80982
51.2887 7.76414
51.3381 7.72453
51.3877 7.69353
51.4371 7.63616
51.4867 7.62846
51.5362 7.60526
51.5858 7.60053
51.6353 7.52224
51.6849 7.48228
51.7344 7.47039
51.7841 7.47662
51.8336 7.43241
51.8833 7.37252
51.9328 7.36103
51.9826 7.30177
52.0323 7.27976
52.0818 7.29485
52.1316 7.16088
52.1812 7.21366
52.231 7.18974
52.2806 7.16736
52.3304 7.11341
52.38 7.09086
52.4298 7.02374
52.4794 6.99844
52.5293 7.01239
52.5789 6.97296
52.6288 6.94257
52.6785 6.93167
52.7284 6.89835
52.7781 6.84553
52.828 6.81221
52.8777 6.7415
52.9276 6.7984
52.9774 6.73155
53.0273 6.71938
53.0771 6.67207
53.1271 6.65558
53.1769 6.60045
53.2269 6.61963
53.2767 6.55686
53.3267 6.52232
53.3765 6.51317
53.4266 6.51365
53.4766 6.45077
53.5265 6.43126
53.5765 6.41756
53.6264 6.3522
53.6765 6.33071
53.7264 6.2882
53.7765 6.28583
53.8265 6.23877
53.8766 6.24575
53.9266 6.22101
53.9767 6.16559
54.0267 6.09271
54.0769 6.03343
54.1269 6.08702
54.1771 6.03959
54.2271 6.00371
54.2773 5.9705
54.3274 5.9202
54.3776 5.91633
54.4277 5.89363
54.478 5.8619
54.528 5.81789
54.5783 5.74049
54.6285 5.70888
54.6788 5.64683
54.7289 5.62203
54.7792 5.55381
54.8296 5.52629
54.8798 5.46237
54.9301 5.43537
54.9803 5.36659
55.0307 5.37365
55.0809 5.31928
55.1314 5.30818
55.1816 5.20639
55.232 5.16936
55.2823 5.15045
55.3328 5.07206
55.383 5.01054
55.4335 4.99486
55.4838 4.91116
55.5344 4.89616
55.5847 4.87589
55.6352 4.87671
55.6856 4.78237
55.7361 4.77176