File: XRD/Ni3Fe_FD0713.xy
TT I
1.27165 7.46149
1.31627 6.32327
1.36089 6.55928
1.40551 6.10543
1.45013 6.13623
1.49476 5.59464
1.53938 5.57295
1.584 5.41613
1.62863 4.88359
1.67325 5.5979
1.71787 5.55721
1.7625 4.70062
1.80712 5.10949
1.85174 4.68784
1.89636 4.58868
1.94099 4.95622
1.98562 4.67821
2.03025 4.72267
2.07487 4.87212
2.11949 4.92521
2.16411 5.15726
2.20874 8.49818
2.25338 10.2746
2.298 5.6345
2.34263 5.372
2.38725 5.81959
2.43188 6.46333
2.4765 6.73132
2.52115 7.21377
2.56577 8.16416
2.6104 8.65925
2.65503 7.29049
2.69965 8.0711
2.7443 8.13725
2.78893 8.28161
2.83356 8.90889
2.87818 8.93039
2.92281 9.10205
2.96744 9.77564
3.01209 10.1755
3.05672 10.9859
3.10135 12.4212
3.14599 13.057
3.19062 14.644
3.23527 15.3838
3.2799 16.1581
3.32454 16.913
3.36917 17.6664
3.4138 18.7895
3.45844 19.4098
3.50309 21.3523
3.54773 21.0098
3.59237 23.043
3.637 48.4632
3.68164 35.7
3.7263 25.3537
3.77094 25.7398
3.81558 26.8513
3.86022 27.1904
3.90486 28.8179
3.9495 29.6889
3.99416 30.4674
4.0388 32.1879
4.08344 33.242
4.12809 34.302
4.17273 35.7259
4.21738 39.2433
4.26204 115.65
4.30669 98.5494
4.35133 44.2678
4.39598 43.5921
4.44063 48.6829
4.4853 53.5224
4.52995 57.4811
4.5746 57.5186
4.61925 54.0736
4.6639 55.6881
4.70855 58.4091
4.75322 62.0006
4.79788 69.081
4.84253 68.9775
4.88719 75.9703
4.93184 77.2808
4.97652 81.573
5.02118 88.2519
5.06583 95.9298
5.11049 107.413
5.15515 157.936
5.19981 437.029
5.24449 3097.93
5.28916 12711.5
5.33382 2648.05
5.37848 198.913
5.42315 131.846
5.46783 120.957
5.5125 112.695
5.55716 103.024
5.60183 98.2977
5.6465 96.4722
5.69117 95.2119
5.73586 93.5627
5.78053 98.7702
5.8252 98.608
5.86988 102.325
5.91455 96.35
5.95924 106.487
6.00392 260.418
6.0486 1033.87
6.09328 4616.08
6.13795 3044.53
6.18263 212.859
6.22733 90.9321
6.27201 80.782
6.3167 84.4601
6.36138 74.4523
6.40606 70.3856
6.45075 69.7021
6.49545 65.4157
6.54014 63.3841
6.58483 62.693
6.62952 62.9677
6.67421 72.6863
6.71892 87.8105
6.76361 61.9558
6.8083 59.5434
6.853 59.8643
6.89769 56.6959
6.94239 56.2618
6.98711 55.2544
7.03181 55.817
7.07651 54.736
7.12121 54.9021
7.16591 56.0349
7.21063 55.2814
7.25533 60.3861
7.30004 96.7566
7.34475 66.6389
7.38945 55.0518
7.43416 53.5759
7.47889 54.1919
7.5236 54.2536
7.56831 54.7765
7.61303 55.5732
7.65774 55.9534
7.70247 56.7404
7.74719 56.4941
7.79191 56.6423
7.83663 56.8248
7.88135 57.34
7.92607 58.6281
7.97081 60.0312
8.01553 61.1488
8.06026 62.5795
8.10498 64.2834
8.14971 71.1607
8.19446 70.7313
8.23919 69.6274
8.28392 72.353
8.32865 74.2355
8.37339 78.8716
8.41812 84.3227
8.46288 104.559
8.50761 190.246
8.55235 414.837
8.59709 1246.86
8.64183 2172.63
8.68658 841.297
8.73134 146.892
8.77609 98.019
8.82083 92.8315
8.86558 92.6724
8.91033 92.5341
8.9551 89.522
8.99985 85.4618
9.04461 84.5007
9.08936 84.9493
9.13412 83.3154
9.17888 82.3801
9.22365 82.5855
9.26841 82.096
9.31318 85.1596
9.35794 86.9818
9.4027 86.2594
9.44749 85.6896
9.49226 85.0793
9.53703 86.201
9.5818 89.7819
9.62657 95.1207
9.67134 95.2769
9.71614 93.3626
9.76091 95.2564
9.80569 99.844
9.85047 102.09
9.89525 112.431
9.94005 129.583
9.98484 201.838
10.0296 368.272
10.0744 865.886
10.1192 1803.75
10.164 1523.16
10.2088 352.009
10.2536 121.759
10.2984 109.509
10.3432 108.453
10.388 106.145
10.4328 125.394
10.4776 167.633
10.5224 297.238
10.5672 524.202
10.612 489.849
10.6568 188.695
10.7017 94.0147
10.7465 85.9305
10.7913 83.0517
10.8361 81.1379
10.8809 79.0704
10.9257 78.0906
10.9706 78.1603
11.0154 75.5512
11.0602 72.9819
11.105 71.8515
11.1499 72.0942
11.1947 73.818
11.2395 70.2384
11.2844 68.3211
11.3292 66.7052
11.374 66.1447
11.4189 65.471
11.4637 64.715
11.5086 64.8892
11.5534 65.5379
11.5983 64.2232
11.6431 63.3552
11.688 62.9904
11.7328 62.8414
11.7777 62.8203
11.8225 62.8959
11.8674 62.7037
11.9122 62.871
11.9571 63.1945
12.002 64.7289
12.0468 69.6706
12.0917 79.8376
12.1366 106.076
12.1814 157.637
12.2263 206.37
12.2712 158.489
12.3161 88.3021
12.3609 66.9335
12.4058 63.9729
12.4507 64.3686
12.4956 64.7806
12.5405 65.1937
12.5853 65.1759
12.6302 67.9148
12.6751 70.7257
12.72 68.2796
12.7649 67.6328
12.8098 68.7019
12.8547 69.9649
12.8996 71.6717
12.9445 73.2226
12.9894 74.714
13.0343 76.3697
13.0792 81.0592
13.1242 94.393
13.1691 114.828
13.214 154.871
13.2589 252.612
13.3038 382.258
13.3487 417.038
13.3937 242.992
13.4386 119.806
13.4835 108.821
13.5285 123.889
13.5734 165.823
13.6183 259.992
13.6633 358.253
13.7082 326.676
13.7531 170.846
13.7981 93.6522
13.843 81.6798
13.888 79.7393
13.9329 77.2222
13.9779 75.8609
14.0228 74.2371
14.0678 73.0584
14.1127 72.4848
14.1577 71.9676
14.2027 71.3308
14.2476 70.3474
14.2926 70.1925
14.3376 70.3743
14.3825 69.839
14.4275 68.9943
14.4725 68.7583
14.5175 68.96
14.5624 69.1011
14.6074 69.8818
14.6524 70.6356
14.6974 71.0627
14.7424 74.5802
14.7874 80.7539
14.8324 91.0255
14.8774 114.944
14.9224 160.299
14.9674 213.125
15.0124 214.438
15.0574 138.38
15.1024 85.8692
15.1474 71.6836
15.1924 70.1242
15.2374 69.6283
15.2824 68.6459
15.3274 67.4475
15.3725 66.8144
15.4175 66.4116
15.4625 65.8573
15.5076 65.6943
15.5526 66.0045
15.5976 65.8893
15.6426 68.8943
15.6877 73.5889
15.7327 81.3623
15.7778 97.3661
15.8228 131.771
15.8679 176.04
15.9129 192.685
15.958 147.32
16.003 91.1253
16.0481 66.3291
16.0931 63.2948
16.1382 61.4258
16.1833 60.0265
16.2283 58.727
16.2734 58.001
16.3185 57.9988
16.3636 57.5815
16.4086 56.5363
16.4537 56.1188
16.4988 55.3204
16.5439 55.3757
16.589 55.2084
16.6341 54.588
16.6792 54.4649
16.7243 54.7893
16.7694 54.6942
16.8145 54.6269
16.8596 54.7593
16.9047 55.3557
16.9498 55.7252
16.9949 55.5014
17.04 56.1458
17.0851 57.6045
17.1302 58.9012
17.1754 62.061
17.2205 67.0974
17.2656 75.4056
17.3108 83.2831
17.3559 81.2336
17.401 69.5858
17.4462 61.6118
17.4913 59.3634
17.5365 59.0569
17.5815 59.2929
17.6268 59.6535
17.6718 60.1783
17.7171 60.7613
17.7622 61.4799
17.8074 62.6278
17.8525 65.7467
17.8977 69.1145
17.9428 74.5424
17.9881 84.509
18.0331 103.189
18.0784 125.722
18.1237 140.853
18.1688 129.519
18.214 99.8897
18.2591 86.156
18.3044 91.5231
18.3495 101.471
18.3948 105.27
18.4399 92.6318
18.4852 74.5388
18.5303 64.7424
18.5756 61.937
18.6207 61.1443
18.666 60.1762
18.7112 59.6171
18.7565 58.9464
18.8016 58.6771
18.8469 57.9879
18.892 57.6841
18.9374 57.1517
18.9825 57.0874
19.0278 56.9329
19.073 57.1868
19.1183 57.4791
19.1635 57.9273
19.2088 59.3776
19.254 62.6896
19.2993 67.2183
19.3447 72.9885
19.3898 75.5552
19.4352 70.7616
19.4804 61.7054
19.5257 56.0112
19.5709 53.9956
19.6163 53.7248
19.6615 53.7495
19.7068 53.291
19.752 53.3821
19.7974 53.75
19.8426 54.3185
19.888 54.8872
19.9332 56.3465
19.9786 59.4288
20.0238 63.1362
20.0692 67.7759
20.1144 69.9073
20.1598 67.4865
20.205 62.9398
20.2504 62.2481
20.2957 64.0712
20.3411 65.4166
20.3863 62.915
20.4318 56.9573
20.477 52.8792
20.5224 50.9835
20.5677 50.4779
20.6131 50.1722
20.6586 49.5199
20.7038 49.3764
20.7493 48.8161
20.7945 48.7635
20.84 48.7526
20.8853 48.8091
20.9307 48.6302
20.976 48.66
21.0215 48.4552
21.0668 48.7673
21.1122 49.507
21.1575 50.0867
21.203 50.775
21.2483 51.3661
21.2938 51.3459
21.3391 49.8042
21.3846 48.8295
21.4299 48.3902
21.4754 48.5802
21.5207 48.5461
21.5662 49.0158
21.6116 49.4226
21.6571 49.891
21.7024 51.1141
21.7479 53.04
21.7933 56.0159
21.8388 59.6064
21.8843 63.3275
21.9297 64.8364
21.9752 62.4909
22.0206 58.7919
22.0661 56.129
22.1115 55.974
22.157 55.7415
22.2024 53.7696
22.248 51.062
22.2933 49.5842
22.3389 48.8651
22.3843 48.6692
22.4299 48.6898
22.4753 48.5595
22.5208 48.5171
22.5662 48.3499
22.6118 48.6114
22.6572 48.9279
22.7028 49.3681
22.7483 49.8741
22.7939 50.6015
22.8393 52.3384
22.8849 54.3042
22.9303 56.4489
22.9759 57.8298
23.0214 56.8792
23.067 53.7937
23.1126 50.6053
23.1581 49.114
23.2037 48.8208
23.2492 48.9816
23.2948 48.8071
23.3403 49.1815
23.3859 49.7977
23.4314 50.9903
23.477 52.8481
23.5225 55.2768
23.5682 57.1334
23.6137 57.7154
23.6593 54.8939
23.7048 50.9197
23.7505 47.9007
23.796 46.2882
23.8417 46.0863
23.8872 45.4235
23.9329 45.0699
23.9784 44.7904
24.0241 44.534
24.0697 44.2669
24.1154 43.972
24.1609 43.8663
24.2066 43.6738
24.2522 43.6739
24.2979 43.3049
24.3434 43.2452
24.3892 43.0446
24.4349 43.1112
24.4805 42.8451
24.5262 42.9388
24.5718 42.9033
24.6175 42.8118
24.6631 42.6828
24.7089 42.3553
24.7545 42.3881
24.8002 42.1037
24.8458 42.1698
24.8916 42.0051
24.9372 42.2915
24.983 42.5255
25.0286 42.8147
25.0744 43.305
25.12 43.8984
25.1658 44.3053
25.2114 44.6639
25.2572 44.7787
25.3029 44.8905
25.3487 44.732
25.3943 44.5832
25.4402 43.167
25.4858 42.2188
25.5316 41.2034
25.5773 40.8717
25.6231 40.8655
25.669 40.5843
25.7147 40.3511
25.7605 40.5298
25.8062 40.4779
25.8521 40.5443
25.8977 40.4662
25.9436 40.7851
25.9893 41.0757
26.0352 41.4254
26.0809 41.7209
26.1268 41.5724
26.1725 41.2856
26.2184 40.7142
26.2641 40.1499
26.31 40.0314
26.3557 40.0451
26.4017 40.0608
26.4474 40.4814
26.4933 40.6619
26.5391 41.2261
26.585 41.6277
26.6308 42.0128
26.6767 42.1289
26.7225 41.7401
26.7684 41.3103
26.8142 40.6587
26.8601 40.3031
26.9059 39.8237
26.9519 39.2813
26.9979 39.0918
27.0437 38.8518
27.0896 38.6963
27.1354 38.631
27.1814 38.5136
27.2272 38.4793
27.2732 38.4423
27.3191 38.282
27.3651 38.5171
27.4109 38.3917
27.4569 38.5951
27.5027 38.57
27.5488 38.5229
27.5946 38.3512
27.6407 37.9562
27.6865 37.9749
27.7326 37.8054
27.7784 38.0512
27.8245 37.8393
27.8703 37.9246
27.9164 38.2574
27.9623 38.4337
28.0084 38.7568
28.0543 39.1497
28.1003 38.8781
28.1462 38.6637
28.1923 38.3104
28.2384 37.7504
28.2843 37.382
28.3304 36.9215
28.3764 36.4759
28.4225 36.2934
28.4684 36.193
28.5145 35.8922
28.5605 35.8769
28.6066 35.6381
28.6526 35.5994
28.6987 35.5594
28.7447 35.4625
28.7908 35.4027
28.8368 35.3558
28.8829 35.2841
28.9289 35.2793
28.9751 34.9877
29.0211 34.9574
29.0673 34.5634
29.1133 34.4257
29.1595 34.3518
29.2055 34.3619
29.2517 34.3678
29.2977 34.2148
29.3439 34.2038
29.3899 34.092
29.4361 34.16
29.4824 33.8652
29.5284 33.5886
29.5746 33.3208
29.6207 33.0081
29.6669 32.9297
29.713 32.9208
29.7593 32.8319
29.8053 32.8788
29.8516 32.7073
29.8977 32.6375
29.9439 32.5651
29.99 32.5383
30.0363 32.4012
30.0824 32.4659
30.1287 32.3057
30.1748 32.3053
30.2211 32.3273
30.2673 32.1913
30.3136 32.3549
30.3597 32.216
30.406 32.1526
30.4522 32.0875
30.4985 32.0073
30.5447 32.1337
30.591 32.087
30.6372 32.1308
30.6835 32.114
30.7297 32.1915
30.7761 32.0308
30.8224 31.8852
30.8686 31.7689
30.915 31.5748
30.9612 31.4244
31.0076 31.2318
31.0538 31.083
31.1002 31.0755
31.1464 30.8804
31.1928 30.7987
31.2391 30.9178
31.2855 30.7697
31.3317 30.8003
31.3781 30.8457
31.4244 30.7744
31.4708 30.7497
31.5171 30.75
31.5636 30.6662
31.6098 30.424
31.6563 30.322
31.7026 30.091
31.7491 30.1147
31.7953 30.1951
31.8418 30.0987
31.8881 30.1101
31.9346 30.0216
31.9809 29.9887
32.0275 29.9215
32.074 29.7606
32.1203 29.5506
32.1668 29.4416
32.2132 29.2401
32.2597 29.0552
32.306 29.0972
32.3526 28.9712
32.399 28.8903
32.4455 28.7525
32.4919 28.6946
32.5385 28.5665
32.5848 28.4769
32.6314 28.4031
32.6778 28.4032
32.7244 28.2953
32.7708 28.0315
32.8174 28.1426
32.8638 27.9899
32.9104 28.0129
32.9569 27.8379
33.0035 27.813
33.0499 27.8707
33.0966 27.7469
33.143 27.6689
33.1897 27.7049
33.2361 27.5482
33.2828 27.5432
33.3293 27.3507
33.3759 27.2813
33.4226 27.1773
33.4691 27.0454
33.5158 26.9618
33.5623 26.8318
33.609 26.6018
33.6555 26.6202
33.7022 26.5234
33.7487 26.4777
33.7954 26.4193
33.842 26.3643
33.8887 26.2574
33.9353 26.195
33.982 26.061
34.0286 26.0761
34.0753 25.8871
34.1219 25.7923
34.1687 25.6465
34.2152 25.7504
34.262 25.576
34.3086 25.5783
34.3554 25.402
34.402 25.3435
34.4488 25.2675
34.4954 25.1498
34.5422 25.0633
34.5889 25.0524
34.6357 24.9519
34.6825 24.8591
34.7292 24.7666
34.776 24.6937
34.8227 24.5523
34.8695 24.5581
34.9162 24.4279
34.9631 24.4426
35.0098 24.4423
35.0566 24.2077
35.1033 24.2439
35.1502 24.1378
35.1969 24.132
35.2438 24.1473
35.2906 24.0597
35.3375 23.9514
35.3842 23.8977
35.4311 23.9353
35.4779 23.9208
35.5248 23.8199
35.5716 23.6804
35.6185 23.6298
35.6653 23.5351
35.7123 23.4425
35.759 23.3882
35.806 23.3113
35.8528 23.2222
35.8998 23.0959
35.9468 23.0351
35.9936 22.99
36.0406 22.9319
36.0874 22.9483
36.1345 22.8722
36.1813 22.6917
36.2283 22.6596
36.2752 22.5735
36.3222 22.6716
36.3691 22.5153
36.4161 22.3841
36.463 22.353
36.5101 22.4111
36.557 22.2756
36.6041 22.0645
36.651 22.0476
36.6981 22.1351
36.745 22.003
36.7921 21.9642
36.839 21.751
36.8861 21.7387
36.9331 21.71
36.9802 21.5961
37.0272 21.5121
37.0743 21.4668
37.1213 21.3972
37.1684 21.3422
37.2154 21.2849
37.2626 21.2052
37.3098 21.1574
37.3568 21.0444
37.404 21.1243
37.451 20.9103
37.4982 20.8944
37.5452 20.7674
37.5924 20.7168
37.6395 20.8014
37.6867 20.6311
37.7337 20.5616
37.781 20.484
37.8281 20.4612
37.8753 20.2945
37.9224 20.2801
37.9697 20.1544
38.0168 20.1069
38.064 20.0796
38.1111 20.0392
38.1584 19.9539
38.2056 19.888
38.2529 19.8544
38.3 19.8208
38.3473 19.7658
38.3945 19.6822
38.4418 19.5982
38.489 19.5244
38.5363 19.4734
38.5837 19.4701
38.6309 19.3194
38.6782 19.2538
38.7254 19.1938
38.7728 19.1736
38.82 19.0645
38.8674 19.0601
38.9146 18.9867
38.9621 18.856
39.0093 18.8223
39.0567 18.8383
39.104 18.7375
39.1514 18.6334
39.1987 18.5799
39.2461 18.6049
39.2934 18.4991
39.3409 18.3688
39.3882 18.3204
39.4356 18.3772
39.483 18.3104
39.5304 18.2448
39.5778 18.1748
39.6253 18.1271
39.6726 18.0015
39.7201 17.9784
39.7675 17.9596
39.815 17.8773
39.8624 17.7428
39.9099 17.7641
39.9575 17.6762
40.0049 17.6412
40.0525 17.5831
40.0999 17.5269
40.1474 17.4728
40.1949 17.3692
40.2425 17.3448
40.2899 17.351
40.3375 17.2183
40.385 17.212
40.4326 17.1121
40.48 17.1009
40.5277 17.1068
40.5752 17.0411
40.6228 16.8712
40.6703 16.8127
40.718 16.7886
40.7655 16.7657
40.8132 16.7136
40.8607 16.666
40.9084 16.6629
40.9559 16.5555
41.0036 16.4942
41.0512 16.3948
41.0989 16.4512
41.1465 16.3535
41.1942 16.264
41.242 16.2517
41.2896 16.1405
41.3373 16.0886
41.3849 16.0581
41.4327 16.0126
41.4803 15.9242
41.5281 15.8809
41.5758 15.8689
41.6236 15.8047
41.6712 15.7719
41.7191 15.6307
41.7667 15.6098
41.8146 15.6317
41.8622 15.5341
41.9101 15.4464
41.9578 15.3427
42.0057 15.457
42.0534 15.3605
42.1013 15.2955
42.149 15.2398
42.1969 15.1452
42.2446 15.1538
42.2925 15.0588
42.3403 15.0095
42.3882 14.9989
42.436 14.952
42.4839 14.8474
42.5319 14.8369
42.5797 14.7777
42.6277 14.7167
42.6755 14.6198
42.7235 14.6142
42.7713 14.5641
42.8193 14.5337
42.8671 14.4753
42.9152 14.454
42.963 14.3517
43.0111 14.3158
43.0589 14.2541
43.107 14.2242
43.1549 14.1829
43.2029 14.1557
43.2508 14.0872
43.2989 14.0108
43.3468 13.9666
43.3949 13.9047
43.4429 13.8568
43.491 13.8365
43.5389 13.7858
43.5871 13.7533
43.635 13.6715
43.6832 13.6444
43.7312 13.5754
43.7793 13.4881
43.8273 13.4779
43.8755 13.4542
43.9237 13.4608
43.9717 13.3586
44.0199 13.3228
44.068 13.2688
44.1162 13.2178
44.1642 13.257
44.2125 13.1892
44.2606 13.0884
44.3088 13.0506
44.3569 13.0346
44.4052 12.9358
44.4533 12.9113
44.5016 12.8799
44.5497 12.8267
44.598 12.806
44.6461 12.7132
44.6945 12.6848
44.7426 12.6601
44.791 12.5759
44.8391 12.5613
44.8875 12.5179
44.9357 12.5138
44.984 12.455
45.0322 12.3575
45.0806 12.3117
45.1288 12.3201
45.1773 12.2199
45.2257 12.231
45.2739 12.1275
45.3224 12.1312
45.3706 12.1329
45.4191 12.037
45.4673 12.0039
45.5158 11.9647
45.5641 11.8896
45.6126 11.8718
45.6609 11.8016
45.7094 11.7773
45.7577 11.7062
45.8063 11.6721
45.8546 11.6655
45.9031 11.5806
45.9515 11.5636
46.0001 11.5971
46.0484 11.5068
46.097 11.4666
46.1454 11.4121
46.194 11.3783
46.2424 11.2923
46.291 11.2877
46.3395 11.2472
46.3881 11.1919
46.4365 11.1932
46.4852 11.1682
46.5337 11.0429
46.5823 11.0706
46.631 10.9819
46.6795 10.9222
46.7282 10.9371
46.7767 10.8803
46.8254 10.8373
46.8739 10.7892
46.9226 10.7469
46.9712 10.7029
47.0199 10.6528
47.0685 10.639
47.1173 10.589
47.1658 10.5699
47.2146 10.5205
47.2632 10.474
47.312 10.4572
47.3606 10.4322
47.4095 10.3634
47.4581 10.3083
47.5069 10.2843
47.5556 10.2796
47.6044 10.1657
47.6531 10.209
47.702 10.087
47.7507 10.1057
47.7996 10.048
47.8483 9.98761
47.8972 10.0102
47.9461 9.96727
47.9948 9.89218
48.0438 9.87985
48.0925 9.86378
48.1415 9.83707
48.1902 9.76017
48.2392 9.74983
48.288 9.69692
48.337 9.67003
48.3858 9.61447
48.4348 9.65016
48.4837 9.57466
48.5327 9.54779
48.5815 9.49658
48.6306 9.51769
48.6795 9.39996
48.7285 9.38438
48.7774 9.36059
48.8265 9.35735
48.8754 9.30181
48.9245 9.22575
48.9734 9.20981
49.0226 9.19799
49.0715 9.10165
49.1206 9.12197
49.1696 9.11751
49.2188 9.04274
49.2679 9.0337
49.3169 8.96945
49.3661 8.91693
49.4151 8.90184
49.4643 8.86039
49.5134 8.83213
49.5626 8.80236
49.6117 8.80246
49.6609 8.74806
49.71 8.68438
49.7592 8.69313
49.8083 8.61281
49.8576 8.60415
49.9067 8.56443
49.956 8.56472
50.0052 8.45843
50.0545 8.47089
50.1036 8.44339
50.153 8.4272
50.2022 8.37523
50.2515 8.33301
50.3007 8.29997
50.3501 8.2686
50.3993 8.25113
50.4487 8.21056
50.498 8.18237
50.5474 8.15408
50.5966 8.1048
50.6461 8.09837
50.6955 8.03696
50.7448 8.05831
50.7943 8.01493
50.8436 7.9719
50.8931 7.92466
50.9424 7.88117
50.9919 7.87828
51.0413 7.86663
51.0908 7.82609
51.1402 7.79509
51.1897 7.78248
51.2391 7.73878
51.2887 7.68843
51.3381 7.63974
51.3877 7.61995
51.4371 7.58769
51.4867 7.51656
51.5362 7.55749
51.5858 7.4943
51.6353 7.44632
51.6849 7.40866
51.7344 7.38525
51.7841 7.39687
51.8336 7.31842
51.8833 7.30352
51.9328 7.26842
51.9826 7.24719
52.0323 7.2022
52.0818 7.15303
52.1316 7.19782
52.1812 7.15342
52.231 7.07477
52.2806 7.07877
52.3304 7.03339
52.38 7.04059
52.4298 6.97934
52.4794 6.93219
52.5293 6.93607
52.5789 6.93746
52.6288 6.86423
52.6785 6.81918
52.7284 6.80896
52.7781 6.78245
52.828 6.79279
52.8777 6.72127
52.9276 6.67126
52.9774 6.65661
53.0273 6.6325
53.0771 6.62155
53.1271 6.57649
53.1769 6.55475
53.2269 6.52639
53.2767 6.49498
53.3267 6.51498
53.3765 6.49116
53.4266 6.44164
53.4766 6.37522
53.5265 6.36487
53.5765 6.35109
53.6264 6.34145
53.6765 6.27154
53.7264 6.27369
53.7765 6.21737
53.8265 6.19097
53.8766 6.22132
53.9266 6.15532
53.9767 6.11197
54.0267 6.11552
54.0769 6.07192
54.1269 6.0525
54.1771 6.0036
54.2271 6.01081
54.2773 5.91133
54.3274 5.89417
54.3776 5.81924
54.4277 5.83647
54.478 5.81223
54.528 5.78227
54.5783 5.77732
54.6285 5.69846
54.6788 5.69925
54.7289 5.62345
54.7792 5.57683
54.8296 5.48809
54.8798 5.50667
54.9301 5.47784
54.9803 5.46487
55.0307 5.39519
55.0809 5.36927
55.1314 5.30548
55.1816 5.26534
55.232 5.19724
55.2823 5.18438
55.3328 5.05402
55.383 5.0509
55.4335 5.06588
55.4838 4.99101
55.5344 4.94669
55.5847 4.9287
55.6352 4.92878
55.6856 4.84777
55.7361 4.82814