File: XRD/Ni3Fe_FD0942.xy
TT I
1.27165 7.18475
1.31627 7.40068
1.36089 6.3278
1.40551 6.38823
1.45013 6.32631
1.49476 5.60415
1.53938 5.66432
1.584 5.34396
1.62863 5.38917
1.67325 4.79293
1.71787 5.79814
1.7625 4.49334
1.80712 4.42982
1.85174 4.72094
1.89636 4.85753
1.94099 4.61693
1.98562 4.7282
2.03025 4.11661
2.07487 5.10537
2.11949 5.07123
2.16411 4.65598
2.20874 7.59964
2.25338 9.98581
2.298 6.14479
2.34263 5.54406
2.38725 5.57587
2.43188 6.38578
2.4765 7.49955
2.52115 7.5668
2.56577 7.30836
2.6104 9.39032
2.65503 8.93415
2.69965 7.96864
2.7443 8.45219
2.78893 8.78329
2.83356 8.49779
2.87818 8.85365
2.92281 9.1983
2.96744 9.12767
3.01209 10.3838
3.05672 10.477
3.10135 12.4089
3.14599 12.9663
3.19062 14.4422
3.23527 15.1266
3.2799 16.0166
3.32454 16.575
3.36917 17.7808
3.4138 18.7628
3.45844 19.0058
3.50309 20.6995
3.54773 21.2492
3.59237 22.8553
3.637 41.9655
3.68164 33.3963
3.7263 25.0881
3.77094 25.5564
3.81558 26.1383
3.86022 26.8857
3.90486 28.1682
3.9495 29.5116
3.99416 30.384
4.0388 31.5068
4.08344 32.7619
4.12809 33.2994
4.17273 35.5855
4.21738 38.3893
4.26204 98.6083
4.30669 86.2991
4.35133 43.3241
4.39598 42.6627
4.44063 46.8877
4.4853 51.8219
4.52995 59.6917
4.5746 60.1791
4.61925 54.0887
4.6639 55.264
4.70855 57.6724
4.75322 61.4221
4.79788 69.4268
4.84253 68.2415
4.88719 75.9727
4.93184 76.3814
4.97652 80.037
5.02118 86.1638
5.06583 93.6554
5.11049 105.08
5.15515 153.523
5.19981 374.266
5.24449 2787.75
5.28916 13582.4
5.33382 2678.05
5.37848 196.845
5.42315 130.322
5.46783 121.29
5.5125 113.953
5.55716 101.278
5.60183 96.9219
5.6465 94.959
5.69117 93.3449
5.73586 92.3219
5.78053 99.831
5.8252 100.362
5.86988 103.766
5.91455 94.0893
5.95924 102.054
6.00392 228.142
6.0486 909.182
6.09328 4678.75
6.13795 2981.68
6.18263 192.331
6.22733 87.6627
6.27201 78.8557
6.3167 80.5244
6.36138 72.4106
6.40606 69.6875
6.45075 70.0894
6.49545 64.4595
6.54014 62.6011
6.58483 62.1914
6.62952 62.3826
6.67421 68.6395
6.71892 80.3444
6.76361 60.5484
6.8083 59.4878
6.853 60.3997
6.89769 55.9799
6.94239 55.1384
6.98711 54.9936
7.03181 55.7086
7.07651 54.4477
7.12121 54.101
7.16591 56.1506
7.21063 55.0347
7.25533 58.5022
7.30004 87.1386
7.34475 63.3394
7.38945 54.1025
7.43416 52.9568
7.47889 52.6537
7.5236 53.594
7.56831 54.0477
7.61303 54.5531
7.65774 55.4019
7.70247 56.7159
7.74719 56.1635
7.79191 55.851
7.83663 55.8174
7.88135 56.7342
7.92607 57.6719
7.97081 58.9326
8.01553 60.2658
8.06026 62.1085
8.10498 63.6785
8.14971 70.7195
8.19446 70.3384
8.23919 68.5079
8.28392 70.5622
8.32865 72.9397
8.37339 77.5229
8.41812 82.6387
8.46288 99.231
8.50761 171.019
8.55235 366.76
8.59709 1205.52
8.64183 2223.63
8.68658 827.028
8.73134 140.47
8.77609 95.7887
8.82083 91.1025
8.86558 92.5349
8.91033 92.5497
8.9551 88.9515
8.99985 84.7468
9.04461 83.0949
9.08936 83.9654
9.13412 82.2125
9.17888 80.7695
9.22365 81.3529
9.26841 81.119
9.31318 85.1032
9.35794 87.3371
9.4027 86.2341
9.44749 84.7968
9.49226 83.887
9.53703 84.8822
9.5818 89.442
9.62657 94.8977
9.67134 94.9913
9.71614 91.426
9.76091 94.0103
9.80569 99.3208
9.85047 100.773
9.89525 108.763
9.94005 123.563
9.98484 184.955
10.0296 330.941
10.0744 832.748
10.1192 1842.65
10.164 1462.62
10.2088 325.593
10.2536 118.226
10.2984 107.416
10.3432 105.436
10.388 103.681
10.4328 119.87
10.4776 158.216
10.5224 291.282
10.5672 552.327
10.612 479.148
10.6568 174.675
10.7017 92.1101
10.7465 84.913
10.7913 81.6844
10.8361 79.8852
10.8809 77.7691
10.9257 77.2405
10.9706 77.1849
11.0154 74.9341
11.0602 71.8967
11.105 70.6416
11.1499 70.5669
11.1947 71.7541
11.2395 68.4764
11.2844 67.0906
11.3292 66.0336
11.374 65.3592
11.4189 64.5822
11.4637 63.9244
11.5086 63.4307
11.5534 63.8598
11.5983 62.9481
11.6431 62.2328
11.688 61.7105
11.7328 62.1925
11.7777 61.5181
11.8225 61.6979
11.8674 61.6826
11.9122 61.6524
11.9571 62.1899
12.002 63.3673
12.0468 67.9186
12.0917 77.2259
12.1366 102.52
12.1814 160.312
12.2263 208.691
12.2712 153.462
12.3161 84.6696
12.3609 65.3032
12.4058 62.9372
12.4507 63.076
12.4956 63.7123
12.5405 64.1694
12.5853 64.7189
12.6302 66.4089
12.6751 68.5225
12.72 66.8241
12.7649 66.7086
12.8098 67.3466
12.8547 69.2138
12.8996 70.6332
12.9445 72.2184
12.9894 73.6545
13.0343 75.1217
13.0792 79.5728
13.1242 91.5193
13.1691 109.407
13.214 146.542
13.2589 247.578
13.3038 393.614
13.3487 417.535
13.3937 226.343
13.4386 114.079
13.4835 104.012
13.5285 118.675
13.5734 158.626
13.6183 261.049
13.6633 371.624
13.7082 320.895
13.7531 164.373
13.7981 91.3759
13.843 80.2393
13.888 78.4587
13.9329 76.3704
13.9779 74.6645
14.0228 73.0856
14.0678 72.0263
14.1127 71.2452
14.1577 70.3377
14.2027 70.3194
14.2476 69.462
14.2926 68.9104
14.3376 68.8304
14.3825 68.7196
14.4275 67.7815
14.4725 67.6709
14.5175 68.0392
14.5624 67.7008
14.6074 68.6488
14.6524 69.1401
14.6974 69.5854
14.7424 72.6491
14.7874 78.0762
14.8324 87.5321
14.8774 111.158
14.9224 160.817
14.9674 219.437
15.0124 212.015
15.0574 135.225
15.1024 83.6721
15.1474 70.6598
15.1924 69.121
15.2374 68.3962
15.2824 67.192
15.3274 66.3695
15.3725 65.6391
15.4175 65.3628
15.4625 64.8215
15.5076 64.6609
15.5526 64.5981
15.5976 65.0411
15.6426 67.0958
15.6877 71.6674
15.7327 78.7619
15.7778 94.303
15.8228 129.012
15.8679 177.992
15.9129 195.329
15.958 143.848
16.003 86.6214
16.0481 64.498
16.0931 61.6917
16.1382 60.1438
16.1833 59.1535
16.2283 57.7242
16.2734 57.1347
16.3185 56.7106
16.3636 56.4342
16.4086 55.5972
16.4537 55.0967
16.4988 54.5147
16.5439 54.3183
16.589 54.091
16.6341 53.8065
16.6792 53.5399
16.7243 53.7338
16.7694 53.754
16.8145 53.745
16.8596 53.9461
16.9047 54.4352
16.9498 54.6538
16.9949 54.2559
17.04 55.0529
17.0851 56.3524
17.1302 57.7014
17.1754 60.5873
17.2205 66.2387
17.2656 74.9838
17.3108 83.2686
17.3559 80.1268
17.401 67.5326
17.4462 60.2115
17.4913 58.1688
17.5365 58.2407
17.5815 58.078
17.6268 58.7765
17.6718 59.2582
17.7171 59.7328
17.7622 60.3125
17.8074 61.4647
17.8525 64.0386
17.8977 67.1037
17.9428 72.235
17.9881 81.723
18.0331 101.276
18.0784 126.521
18.1237 140.6
18.1688 124.452
18.214 96.6624
18.2591 83.8052
18.3044 90.7469
18.3495 101.178
18.3948 105.017
18.4399 90.1837
18.4852 72.779
18.5303 63.746
18.5756 61.198
18.6207 60.0669
18.666 59.1365
18.7112 58.6339
18.7565 57.9942
18.8016 57.6868
18.8469 57.0797
18.892 56.7829
18.9374 56.2462
18.9825 55.8084
19.0278 55.6455
19.073 55.9626
19.1183 56.2616
19.1635 56.5822
19.2088 58.1342
19.254 61.1159
19.2993 66.3069
19.3447 72.3384
19.3898 75.0917
19.4352 68.9636
19.4804 60.2019
19.5257 54.9481
19.5709 53.0978
19.6163 52.8571
19.6615 52.6998
19.7068 52.363
19.752 52.3941
19.7974 52.8901
19.8426 53.4874
19.888 53.8476
19.9332 55.142
19.9786 58.2586
20.0238 62.4815
20.0692 67.493
20.1144 69.3065
20.1598 66.1979
20.205 61.5131
20.2504 61.4844
20.2957 64.1748
20.3411 65.3046
20.3863 62.0524
20.4318 55.9758
20.477 51.7895
20.5224 50.0698
20.5677 49.6619
20.6131 49.2128
20.6586 48.8074
20.7038 48.5591
20.7493 48.2527
20.7945 48.1994
20.84 47.9172
20.8853 47.9665
20.9307 47.7075
20.976 47.9663
21.0215 47.6224
21.0668 48.2344
21.1122 48.7828
21.1575 49.392
21.203 50.1846
21.2483 50.8091
21.2938 50.4831
21.3391 48.9039
21.3846 47.9442
21.4299 47.5019
21.4754 47.7395
21.5207 47.8058
21.5662 48.153
21.6116 48.6409
21.6571 48.9439
21.7024 50.0675
21.7479 51.9049
21.7933 54.9114
21.8388 58.9651
21.8843 63.2963
21.9297 64.0608
21.9752 61.3159
22.0206 57.5475
22.0661 55.4877
22.1115 55.5915
22.157 54.8596
22.2024 52.8223
22.248 50.1494
22.2933 48.7043
22.3389 48.2572
22.3843 48.0495
22.4299 47.9111
22.4753 47.7828
22.5208 47.6624
22.5662 47.8636
22.6118 47.9012
22.6572 47.9113
22.7028 48.49
22.7483 49.0241
22.7939 49.6806
22.8393 51.2377
22.8849 53.7352
22.9303 55.9074
22.9759 57.5069
23.0214 55.9424
23.067 52.669
23.1126 49.6497
23.1581 48.1532
23.2037 47.8888
23.2492 47.9792
23.2948 47.9744
23.3403 48.2972
23.3859 48.8897
23.4314 50.2163
23.477 52.088
23.5225 54.7034
23.5682 57.0394
23.6137 57.1609
23.6593 53.9782
23.7048 49.719
23.7505 46.9642
23.796 45.5356
23.8417 45.174
23.8872 44.8447
23.9329 44.4437
23.9784 44.0469
24.0241 43.877
24.0697 43.6459
24.1154 43.3586
24.1609 43.154
24.2066 42.937
24.2522 42.8878
24.2979 42.7573
24.3434 42.4816
24.3892 42.3979
24.4349 42.3035
24.4805 42.3348
24.5262 42.4931
24.5718 42.3282
24.6175 42.1794
24.6631 42.1543
24.7089 41.8114
24.7545 41.6928
24.8002 41.5972
24.8458 41.5095
24.8916 41.3524
24.9372 41.3996
24.983 41.9526
25.0286 42.1183
25.0744 42.7555
25.12 43.2694
25.1658 43.6814
25.2114 44.0021
25.2572 44.0519
25.3029 44.1812
25.3487 44.3636
25.3943 43.6426
25.4402 42.4398
25.4858 41.3855
25.5316 40.6872
25.5773 40.1156
25.6231 40.2474
25.669 39.8379
25.7147 39.7896
25.7605 39.7986
25.8062 39.82
25.8521 39.7771
25.8977 39.8268
25.9436 40.2333
25.9893 40.2828
26.0352 40.8925
26.0809 41.0329
26.1268 41.1245
26.1725 40.573
26.2184 40.0354
26.2641 39.5064
26.31 39.3997
26.3557 39.5584
26.4017 39.3684
26.4474 39.7929
26.4933 40.1284
26.5391 40.7226
26.585 41.1261
26.6308 41.6601
26.6767 41.5622
26.7225 41.193
26.7684 40.6626
26.8142 40.0464
26.8601 39.628
26.9059 39.2255
26.9519 38.6627
26.9979 38.4744
27.0437 38.2339
27.0896 38.0361
27.1354 38.0812
27.1814 38.0056
27.2272 37.8153
27.2732 37.9212
27.3191 37.7448
27.3651 37.8415
27.4109 37.7521
27.4569 37.9006
27.5027 37.9149
27.5488 38.0246
27.5946 37.8573
27.6407 37.4839
27.6865 37.4429
27.7326 37.3121
27.7784 37.2323
27.8245 37.2891
27.8703 37.2782
27.9164 37.7456
27.9623 37.834
28.0084 38.1729
28.0543 38.6195
28.1003 38.4499
28.1462 38.1273
28.1923 37.7775
28.2384 37.1936
28.2843 36.8118
28.3304 36.4983
28.3764 35.9622
28.4225 35.8288
28.4684 35.5832
28.5145 35.2315
28.5605 35.2856
28.6066 35.045
28.6526 35.0173
28.6987 35.0435
28.7447 34.8736
28.7908 34.7992
28.8368 35.0089
28.8829 34.8632
28.9289 34.7262
28.9751 34.5174
29.0211 34.1943
29.0673 34.1141
29.1133 34.0104
29.1595 33.791
29.2055 33.6741
29.2517 33.7935
29.2977 33.7121
29.3439 33.6995
29.3899 33.7159
29.4361 33.5081
29.4824 33.3332
29.5284 33.1345
29.5746 32.8137
29.6207 32.5602
29.6669 32.4906
29.713 32.417
29.7593 32.3503
29.8053 32.3513
29.8516 32.2919
29.8977 32.1518
29.9439 32.097
29.99 32.1157
30.0363 31.8772
30.0824 31.9528
30.1287 31.8891
30.1748 31.9968
30.2211 31.8559
30.2673 31.6902
30.3136 31.7845
30.3597 31.6656
30.406 31.734
30.4522 31.5826
30.4985 31.4761
30.5447 31.5853
30.591 31.577
30.6372 31.6601
30.6835 31.8091
30.7297 31.7234
30.7761 31.5662
30.8224 31.3369
30.8686 31.3444
30.915 31.0823
30.9612 30.9498
31.0076 30.8433
31.0538 30.5945
31.1002 30.6084
31.1464 30.4923
31.1928 30.3456
31.2391 30.4518
31.2855 30.3145
31.3317 30.2986
31.3781 30.3828
31.4244 30.3601
31.4708 30.2842
31.5171 30.255
31.5636 30.2504
31.6098 29.957
31.6563 29.7956
31.7026 29.6853
31.7491 29.6621
31.7953 29.6304
31.8418 29.6671
31.8881 29.6761
31.9346 29.6053
31.9809 29.5012
32.0275 29.3261
32.074 29.277
32.1203 29.1143
32.1668 28.8799
32.2132 28.9257
32.2597 28.7104
32.306 28.6674
32.3526 28.4669
32.399 28.4428
32.4455 28.3057
32.4919 28.1855
32.5385 28.0539
32.5848 27.9762
32.6314 27.9697
32.6778 27.9673
32.7244 27.8753
32.7708 27.7193
32.8174 27.6628
32.8638 27.4816
32.9104 27.6183
32.9569 27.5778
33.0035 27.3822
33.0499 27.4613
33.0966 27.3748
33.143 27.3593
33.1897 27.2777
33.2361 27.0432
33.2828 27.1268
33.3293 26.838
33.3759 26.8882
33.4226 26.7229
33.4691 26.7106
33.5158 26.5499
33.5623 26.4166
33.609 26.3107
33.6555 26.2392
33.7022 26.1658
33.7487 26.0734
33.7954 26.0394
33.842 25.969
33.8887 25.8863
33.9353 25.7761
33.982 25.711
34.0286 25.5922
34.0753 25.5402
34.1219 25.4359
34.1687 25.3883
34.2152 25.3426
34.262 25.1955
34.3086 25.0428
34.3554 25.1493
34.402 25.002
34.4488 24.8846
34.4954 24.7451
34.5422 24.812
34.5889 24.6473
34.6357 24.488
34.6825 24.502
34.7292 24.5425
34.776 24.2481
34.8227 24.2542
34.8695 24.1926
34.9162 24.1992
34.9631 24.0292
35.0098 24.1102
35.0566 23.964
35.1033 23.9425
35.1502 23.8319
35.1969 23.7675
35.2438 23.7729
35.2906 23.6725
35.3375 23.6451
35.3842 23.6093
35.4311 23.6465
35.4779 23.5562
35.5248 23.5416
35.5716 23.3468
35.6185 23.3044
35.6653 23.2079
35.7123 23.1175
35.759 23.0094
35.806 22.9283
35.8528 22.8987
35.8998 22.7351
35.9468 22.8182
35.9936 22.7544
36.0406 22.6272
36.0874 22.6517
36.1345 22.5494
36.1813 22.4585
36.2283 22.3021
36.2752 22.2557
36.3222 22.3345
36.3691 22.1467
36.4161 22.0705
36.463 22.0692
36.5101 22.0815
36.557 21.9775
36.6041 21.8845
36.651 21.7266
36.6981 21.7534
36.745 21.6761
36.7921 21.5442
36.839 21.4516
36.8861 21.4382
36.9331 21.3816
36.9802 21.3265
37.0272 21.1648
37.0743 21.0973
37.1213 21.0977
37.1684 21.0348
37.2154 21.0465
37.2626 20.8634
37.3098 20.8305
37.3568 20.7476
37.404 20.6609
37.451 20.6141
37.4982 20.6002
37.5452 20.5185
37.5924 20.3671
37.6395 20.4843
37.6867 20.3315
37.7337 20.2965
37.781 20.1881
37.8281 20.1345
37.8753 19.9876
37.9224 20.0297
37.9697 19.8923
38.0168 19.8781
38.064 19.8448
38.1111 19.6838
38.1584 19.6479
38.2056 19.6
38.2529 19.5825
38.3 19.5044
38.3473 19.4663
38.3945 19.3871
38.4418 19.3695
38.489 19.3005
38.5363 19.1232
38.5837 19.0806
38.6309 19.1342
38.6782 19.0212
38.7254 18.9891
38.7728 18.9319
38.82 18.8208
38.8674 18.7853
38.9146 18.6502
38.9621 18.6709
39.0093 18.5992
39.0567 18.6133
39.104 18.4577
39.1514 18.3983
39.1987 18.3538
39.2461 18.3038
39.2934 18.1983
39.3409 18.1568
39.3882 18.0847
39.4356 18.0352
39.483 18.0023
39.5304 17.9628
39.5778 17.8937
39.6253 17.8062
39.6726 17.7858
39.7201 17.8241
39.7675 17.6352
39.815 17.6027
39.8624 17.5265
39.9099 17.5489
39.9575 17.4503
40.0049 17.3488
40.0525 17.3452
40.0999 17.2822
40.1474 17.2042
40.1949 17.1221
40.2425 17.1209
40.2899 17.0795
40.3375 17.0461
40.385 16.9114
40.4326 16.9102
40.48 16.7949
40.5277 16.796
40.5752 16.744
40.6228 16.6899
40.6703 16.5869
40.718 16.5989
40.7655 16.4868
40.8132 16.4805
40.8607 16.4329
40.9084 16.3493
40.9559 16.3717
41.0036 16.3394
41.0512 16.2199
41.0989 16.2191
41.1465 16.1179
41.1942 16.0064
41.242 15.9641
41.2896 15.8723
41.3373 15.8616
41.3849 15.8657
41.4327 15.7501
41.4803 15.6914
41.5281 15.7272
41.5758 15.6281
41.6236 15.5486
41.6712 15.5302
41.7191 15.4572
41.7667 15.4049
41.8146 15.3471
41.8622 15.3093
41.9101 15.3212
41.9578 15.1949
42.0057 15.1495
42.0534 15.1186
42.1013 15.0648
42.149 14.9839
42.1969 14.9793
42.2446 14.906
42.2925 14.8944
42.3403 14.8435
42.3882 14.8016
42.436 14.7309
42.4839 14.6552
42.5319 14.6247
42.5797 14.5765
42.6277 14.5341
42.6755 14.4172
42.7235 14.4371
42.7713 14.4139
42.8193 14.3356
42.8671 14.2351
42.9152 14.2087
42.963 14.1692
43.0111 14.0669
43.0589 14.095
43.107 14.03
43.1549 13.993
43.2029 13.9552
43.2508 13.8557
43.2989 13.8459
43.3468 13.7924
43.3949 13.7629
43.4429 13.6909
43.491 13.6264
43.5389 13.6235
43.5871 13.5374
43.635 13.4815
43.6832 13.4787
43.7312 13.4117
43.7793 13.3275
43.8273 13.3123
43.8755 13.2721
43.9237 13.2497
43.9717 13.1755
44.0199 13.128
44.068 13.0685
44.1162 13.0035
44.1642 13.0416
44.2125 12.978
44.2606 12.9182
44.3088 12.8058
44.3569 12.8029
44.4052 12.8496
44.4533 12.702
44.5016 12.697
44.5497 12.6452
44.598 12.6202
44.6461 12.545
44.6945 12.5219
44.7426 12.4954
44.791 12.4216
44.8391 12.4126
44.8875 12.348
44.9357 12.285
44.984 12.2399
45.0322 12.2273
45.0806 12.1837
45.1288 12.1031
45.1773 12.074
45.2257 11.9914
45.2739 12.0112
45.3224 11.9654
45.3706 11.882
45.4191 11.8313
45.4673 11.8182
45.5158 11.7856
45.5641 11.7216
45.6126 11.6961
45.6609 11.6139
45.7094 11.5881
45.7577 11.5625
45.8063 11.5056
45.8546 11.5434
45.9031 11.4611
45.9515 11.4473
46.0001 11.3752
46.0484 11.3434
46.097 11.3075
46.1454 11.2772
46.194 11.1957
46.2424 11.152
46.291 11.1177
46.3395 11.0596
46.3881 11.007
46.4365 11.0317
46.4852 10.9975
46.5337 10.951
46.5823 10.9119
46.631 10.8355
46.6795 10.7904
46.7282 10.7707
46.7767 10.7209
46.8254 10.6835
46.8739 10.6314
46.9226 10.5818
46.9712 10.5686
47.0199 10.5319
47.0685 10.4881
47.1173 10.4112
47.1658 10.3706
47.2146 10.385
47.2632 10.2913
47.312 10.2936
47.3606 10.2581
47.4095 10.2219
47.4581 10.1588
47.5069 10.1386
47.5556 10.1094
47.6044 10.0419
47.6531 9.98917
47.702 9.97855
47.7507 9.95556
47.7996 9.91426
47.8483 9.91199
47.8972 9.86875
47.9461 9.8505
47.9948 9.74364
48.0438 9.73604
48.0925 9.74109
48.1415 9.7132
48.1902 9.60652
48.2392 9.63693
48.288 9.55111
48.337 9.56162
48.3858 9.45934
48.4348 9.46736
48.4837 9.42515
48.5327 9.39976
48.5815 9.36423
48.6306 9.33828
48.6795 9.30434
48.7285 9.24902
48.7774 9.23195
48.8265 9.22207
48.8754 9.16353
48.9245 9.11598
48.9734 9.11273
49.0226 9.08943
49.0715 9.02774
49.1206 8.98591
49.1696 8.95642
49.2188 8.88192
49.2679 8.89998
49.3169 8.84028
49.3661 8.79248
49.4151 8.75847
49.4643 8.73754
49.5134 8.70714
49.5626 8.64109
49.6117 8.65877
49.6609 8.61791
49.71 8.56773
49.7592 8.53127
49.8083 8.51652
49.8576 8.49401
49.9067 8.42062
49.956 8.42242
50.0052 8.39425
50.0545 8.37328
50.1036 8.3572
50.153 8.2848
50.2022 8.2678
50.2515 8.2572
50.3007 8.16567
50.3501 8.16209
50.3993 8.10558
50.4487 8.0994
50.498 8.0438
50.5474 8.03783
50.5966 8.00332
50.6461 7.98502
50.6955 7.9056
50.7448 7.90068
50.7943 7.86727
50.8436 7.86069
50.8931 7.83334
50.9424 7.79597
50.9919 7.7857
51.0413 7.76139
51.0908 7.69781
51.1402 7.6867
51.1897 7.64718
51.2391 7.62473
51.2887 7.58003
51.3381 7.54183
51.3877 7.50829
51.4371 7.48208
51.4867 7.45411
51.5362 7.43041
51.5858 7.41629
51.6353 7.3402
51.6849 7.33224
51.7344 7.35223
51.7841 7.25568
51.8336 7.26157
51.8833 7.22984
51.9328 7.18822
51.9826 7.09317
52.0323 7.13378
52.0818 7.08423
52.1316 7.07301
52.1812 7.01847
52.231 6.97908
52.2806 6.98499
52.3304 6.93156
52.38 6.94836
52.4298 6.87512
52.4794 6.87179
52.5293 6.81246
52.5789 6.82005
52.6288 6.76512
52.6785 6.71923
52.7284 6.7399
52.7781 6.70934
52.828 6.6864
52.8777 6.64797
52.9276 6.62233
52.9774 6.57243
53.0273 6.57245
53.0771 6.53779
53.1271 6.51389
53.1769 6.46061
53.2269 6.45962
53.2767 6.42456
53.3267 6.38465
53.3765 6.34331
53.4266 6.34397
53.4766 6.30963
53.5265 6.25961
53.5765 6.26049
53.6264 6.23879
53.6765 6.21449
53.7264 6.14533
53.7765 6.13443
53.8265 6.11581
53.8766 6.07486
53.9266 6.0356
53.9767 6.07286
54.0267 6.0207
54.0769 5.99436
54.1269 5.95053
54.1771 5.91313
54.2271 5.85331
54.2773 5.84214
54.3274 5.84206
54.3776 5.83149
54.4277 5.75927
54.478 5.7351
54.528 5.75045
54.5783 5.70318
54.6285 5.63132
54.6788 5.5773
54.7289 5.47887
54.7792 5.50008
54.8296 5.40811
54.8798 5.41663
54.9301 5.38466
54.9803 5.36743
55.0307 5.36688
55.0809 5.30239
55.1314 5.25508
55.1816 5.20129
55.232 5.12449
55.2823 5.14056
55.3328 5.07228
55.383 5.06172
55.4335 4.95698
55.4838 4.94039
55.5344 4.8531
55.5847 4.82392
55.6352 4.85045
55.6856 4.75511
55.7361 4.72458