File: XRD/Ni3Fe_FD0387.xy
TT I
1.27165 7.45777
1.31627 6.9376
1.36089 6.40973
1.40551 6.77172
1.45013 6.40681
1.49476 6.30593
1.53938 5.70639
1.584 5.59294
1.62863 5.83306
1.67325 5.55551
1.71787 5.51039
1.7625 4.82827
1.80712 5.1507
1.85174 5.2438
1.89636 5.1665
1.94099 4.98849
1.98562 4.91763
2.03025 4.35645
2.07487 4.93142
2.11949 5.13278
2.16411 5.00505
2.20874 13.4708
2.25338 22.3875
2.298 5.68343
2.34263 4.90014
2.38725 5.78548
2.43188 5.54066
2.4765 5.99528
2.52115 5.05141
2.56577 6.49653
2.6104 7.72711
2.65503 7.33432
2.69965 6.96668
2.7443 7.58329
2.78893 7.45775
2.83356 8.506
2.87818 7.92781
2.92281 9.28334
2.96744 9.99775
3.01209 10.2814
3.05672 11.3954
3.10135 12.1801
3.14599 12.7678
3.19062 14.5686
3.23527 15.1725
3.2799 16.024
3.32454 16.6726
3.36917 17.8273
3.4138 19.2202
3.45844 19.6587
3.50309 21.4937
3.54773 22.1895
3.59237 24.3689
3.637 91.9008
3.68164 58.4759
3.7263 26.3254
3.77094 26.7197
3.81558 26.9661
3.86022 27.8463
3.90486 29.5906
3.9495 29.9867
3.99416 31.652
4.0388 33.1784
4.08344 34.3245
4.12809 35.4275
4.17273 37.9143
4.21738 44.2193
4.26204 247.676
4.30669 212.227
4.35133 49.5496
4.39598 45.0185
4.44063 55.1455
4.4853 66.367
4.52995 52.523
4.5746 52.5458
4.61925 54.4916
4.6639 56.7645
4.70855 59.3184
4.75322 62.9499
4.79788 65.7073
4.84253 69.231
4.88719 74.1054
4.93184 77.1681
4.97652 83.3151
5.02118 90.3148
5.06583 98.6503
5.11049 112.029
5.15515 187.265
5.19981 459.978
5.24449 3183.9
5.28916 11529.8
5.33382 3533.07
5.37848 226.18
5.42315 138.954
5.46783 120.441
5.5125 110.557
5.55716 105.613
5.60183 101.646
5.6465 100.094
5.69117 97.4024
5.73586 95.1754
5.78053 95.7523
5.8252 95.4567
5.86988 96.2157
5.91455 99.221
5.95924 109.182
6.00392 249.795
6.0486 1115.12
6.09328 4006.54
6.13795 3501.62
6.18263 305.012
6.22733 100.829
6.27201 87.2803
6.3167 104.307
6.36138 82.605
6.40606 71.4222
6.45075 69.4203
6.49545 66.9024
6.54014 65.6424
6.58483 64.8273
6.62952 64.3961
6.67421 95.4126
6.71892 143.835
6.76361 70.1439
6.8083 60.4132
6.853 59.2222
6.89769 58.3809
6.94239 57.7993
6.98711 57.1166
7.03181 56.861
7.07651 56.5935
7.12121 56.622
7.16591 56.9359
7.21063 57.1466
7.25533 72.2208
7.30004 180.816
7.34475 91.9276
7.38945 58.0447
7.43416 56.0796
7.47889 55.4766
7.5236 56.0809
7.56831 56.5023
7.61303 58.2162
7.65774 58.7479
7.70247 57.7694
7.74719 57.4488
7.79191 58.2493
7.83663 58.2752
7.88135 59.2727
7.92607 59.9129
7.97081 61.2556
8.01553 61.8228
8.06026 63.6454
8.10498 65.59
8.14971 75.1676
8.19446 73.6871
8.23919 71.37
8.28392 73.3719
8.32865 76.065
8.37339 80.4159
8.41812 88.4408
8.46288 118.293
8.50761 184.461
8.55235 438.738
8.59709 1144.06
8.64183 2109.58
8.68658 1169.54
8.73134 195.991
8.77609 105.3
8.82083 96.0856
8.86558 92.7615
8.91033 92.775
8.9551 93.9634
8.99985 87.593
9.04461 86.0774
9.08936 84.9018
9.13412 84.1948
9.17888 84.2925
9.22365 85.2724
9.26841 84.4131
9.31318 84.7227
9.35794 85.1666
9.4027 85.2876
9.44749 86.4766
9.49226 86.8429
9.53703 87.8613
9.5818 89.5546
9.62657 94.1517
9.67134 100.677
9.71614 96.0321
9.76091 96.8778
9.80569 99.5106
9.85047 102.857
9.89525 127.732
9.94005 140.689
9.98484 195.028
10.0296 386.648
10.0744 813.724
10.1192 1593.24
10.164 1700.95
10.2088 506.03
10.2536 141.226
10.2984 117.845
10.3432 118.219
10.388 108.558
10.4328 125.372
10.4776 171.947
10.5224 282.71
10.5672 482.833
10.612 524.758
10.6568 228.212
10.7017 102.463
10.7465 89.4039
10.7913 85.7886
10.8361 83.5851
10.8809 81.1859
10.9257 80.5798
10.9706 81.1501
11.0154 76.8642
11.0602 74.6822
11.105 73.9037
11.1499 77.9572
11.1947 84.9922
11.2395 76.0552
11.2844 72.3539
11.3292 69.0242
11.374 67.9093
11.4189 67.2239
11.4637 66.5413
11.5086 67.2809
11.5534 69.7622
11.5983 67.3853
11.6431 65.306
11.688 64.276
11.7328 64.5597
11.7777 64.6476
11.8225 64.0351
11.8674 64.0944
11.9122 64.3389
11.9571 64.6034
12.002 65.5157
12.0468 70.5051
12.0917 83.293
12.1366 105.958
12.1814 148.591
12.2263 196.923
12.2712 179.002
12.3161 107.164
12.3609 72.945
12.4058 66.4593
12.4507 66.043
12.4956 66.2242
12.5405 66.0716
12.5853 67.2298
12.6302 75.2444
12.6751 80.4749
12.72 71.7091
12.7649 69.6548
12.8098 70.0008
12.8547 71.6016
12.8996 73.0902
12.9445 74.1535
12.9894 75.8514
13.0343 78.042
13.0792 81.0754
13.1242 92.0818
13.1691 119.433
13.214 157.344
13.2589 236.495
13.3038 349.397
13.3487 424.482
13.3937 297.185
13.4386 140.671
13.4835 111.899
13.5285 128.988
13.5734 163.863
13.6183 239.356
13.6633 327.237
13.7082 346.128
13.7531 210.514
13.7981 106.587
13.843 84.6551
13.888 81.8564
13.9329 79.3499
13.9779 77.8351
14.0228 76.4737
14.0678 74.8026
14.1127 74.5573
14.1577 74.2729
14.2027 73.3645
14.2476 72.1845
14.2926 72.5479
14.3376 73.5119
14.3825 72.1998
14.4275 70.6286
14.4725 70.542
14.5175 70.476
14.5624 70.9643
14.6074 72.9589
14.6524 73.6954
14.6974 72.5005
14.7424 74.3736
14.7874 82.149
14.8324 93.8794
14.8774 113.936
14.9224 150.327
14.9674 197.443
15.0124 217.865
15.0574 162.764
15.1024 98.8112
15.1474 75.4683
15.1924 72.461
15.2374 72.899
15.2824 72.1519
15.3274 69.9764
15.3725 68.4843
15.4175 68.0666
15.4625 68.0228
15.5076 68.0682
15.5526 67.889
15.5976 67.4365
15.6426 68.7655
15.6877 74.9276
15.7327 83.9452
15.7778 98.2191
15.8228 125.475
15.8679 162.804
15.9129 189.438
15.958 168.584
16.003 106.991
16.0481 72.003
16.0931 66.7652
16.1382 64.4387
16.1833 62.1594
16.2283 60.7182
16.2734 59.8257
16.3185 60.3058
16.3636 61.004
16.4086 59.2933
16.4537 57.7182
16.4988 57.0509
16.5439 56.9341
16.589 56.5341
16.6341 56.2641
16.6792 55.9587
16.7243 56.3958
16.7694 56.4276
16.8145 56.2823
16.8596 56.6637
16.9047 58.1963
16.9498 58.3523
16.9949 57.2797
17.04 57.3514
17.0851 58.7257
17.1302 60.7427
17.1754 63.4271
17.2205 67.924
17.2656 74.453
17.3108 82.4394
17.3559 84.2482
17.401 74.819
17.4462 64.7527
17.4913 60.7231
17.5365 60.4475
17.5815 60.6681
17.6268 61.1147
17.6718 62.0795
17.7171 62.6152
17.7622 62.9944
17.8074 63.4851
17.8525 66.3722
17.8977 70.7421
17.9428 77.0024
17.9881 84.9163
18.0331 99.8007
18.0784 118.254
18.1237 136.938
18.1688 136.781
18.214 112.127
18.2591 90.9768
18.3044 91.0027
18.3495 99.0217
18.3948 105.849
18.4399 99.9038
18.4852 81.9523
18.5303 68.736
18.5756 64.1874
18.6207 62.9418
18.666 62.1014
18.7112 61.3721
18.7565 60.5225
18.8016 60.1808
18.8469 59.5743
18.892 59.287
18.9374 58.651
18.9825 58.7265
19.0278 58.3757
19.073 58.6061
19.1183 59.0345
19.1635 60.1683
19.2088 61.4611
19.254 63.6786
19.2993 67.0477
19.3447 72.5489
19.3898 76.6721
19.4352 74.749
19.4804 66.56
19.5257 59.1925
19.5709 56.0564
19.6163 55.2265
19.6615 55.1433
19.7068 54.8442
19.752 54.8053
19.7974 55.1513
19.8426 55.957
19.888 56.7295
19.9332 58.0716
19.9786 60.2993
20.0238 63.2121
20.0692 67.396
20.1144 70.6068
20.1598 70.6339
20.205 66.1824
20.2504 63.5848
20.2957 64.545
20.3411 66.1977
20.3863 65.6224
20.4318 60.9638
20.477 55.8614
20.5224 53.1203
20.5677 52.4752
20.6131 51.5535
20.6586 51.0009
20.7038 51.0202
20.7493 50.2854
20.7945 50.3189
20.84 50.1601
20.8853 50.1186
20.9307 49.9894
20.976 50.0349
21.0215 49.9327
21.0668 50.3184
21.1122 50.665
21.1575 51.4735
21.203 51.7927
21.2483 52.3735
21.2938 52.8843
21.3391 51.6277
21.3846 50.3995
21.4299 49.8459
21.4754 49.6839
21.5207 49.851
21.5662 50.0047
21.6116 50.6698
21.6571 51.4493
21.7024 52.348
21.7479 54.0724
21.7933 56.5524
21.8388 59.733
21.8843 63.0961
21.9297 65.7003
21.9752 65.331
22.0206 61.9862
22.0661 58.2854
22.1115 57.0433
22.157 57.1195
22.2024 56.1916
22.248 53.2726
22.2933 51.43
22.3389 50.5451
22.3843 50.3981
22.4299 50.1899
22.4753 50.1307
22.5208 49.8132
22.5662 49.7215
22.6118 49.9561
22.6572 50.1594
22.7028 50.786
22.7483 51.038
22.7939 51.817
22.8393 53.2092
22.8849 55.0906
22.9303 56.5983
22.9759 58.4492
23.0214 58.7204
23.067 56.5432
23.1126 52.9267
23.1581 50.8
23.2037 50.158
23.2492 50.2348
23.2948 50.3207
23.3403 50.6181
23.3859 51.2716
23.4314 52.062
23.477 53.7428
23.5225 55.3261
23.5682 57.3963
23.6137 58.7188
23.6593 57.5346
23.7048 53.948
23.7505 50.1173
23.796 47.9358
23.8417 47.4153
23.8872 46.8741
23.9329 46.3817
23.9784 46.1453
24.0241 45.8695
24.0697 45.7054
24.1154 45.3082
24.1609 45.2469
24.2066 45.1413
24.2522 44.8754
24.2979 44.7248
24.3434 44.4978
24.3892 44.3807
24.4349 44.2353
24.4805 44.1047
24.5262 44.3282
24.5718 44.0933
24.6175 43.9932
24.6631 44.0938
24.7089 43.7307
24.7545 43.6274
24.8002 43.3478
24.8458 43.4029
24.8916 43.1625
24.9372 43.3603
24.983 43.6602
25.0286 44.0042
25.0744 44.3619
25.12 44.7238
25.1658 45.3586
25.2114 45.7522
25.2572 45.915
25.3029 45.8284
25.3487 45.92
25.3943 45.6208
25.4402 44.8311
25.4858 43.8279
25.5316 42.7496
25.5773 41.9817
25.6231 42.088
25.669 41.5916
25.7147 41.6849
25.7605 41.5131
25.8062 41.6604
25.8521 41.7586
25.8977 41.6706
25.9436 41.9559
25.9893 41.9202
26.0352 42.4351
26.0809 42.5805
26.1268 42.5653
26.1725 42.4483
26.2184 42.0907
26.2641 41.5094
26.31 41.3135
26.3557 41.3226
26.4017 41.2503
26.4474 41.5933
26.4933 41.7924
26.5391 42.31
26.585 42.5437
26.6308 42.89
26.6767 43.1944
26.7225 43.0605
26.7684 42.5666
26.8142 42.0848
26.8601 41.5963
26.9059 41.0794
26.9519 40.6238
26.9979 40.2504
27.0437 39.9339
27.0896 39.73
27.1354 39.7576
27.1814 39.5104
27.2272 39.6356
27.2732 39.6475
27.3191 39.3561
27.3651 39.4729
27.4109 39.4131
27.4569 39.4692
27.5027 39.4603
27.5488 39.6038
27.5946 39.4013
27.6407 39.1583
27.6865 39.0904
27.7326 38.899
27.7784 38.9789
27.8245 38.855
27.8703 38.9913
27.9164 39.2462
27.9623 39.2957
28.0084 39.6381
28.0543 39.9989
28.1003 39.9586
28.1462 39.8547
28.1923 39.4402
28.2384 38.9756
28.2843 38.6813
28.3304 38.1988
28.3764 37.7657
28.4225 37.46
28.4684 37.2931
28.5145 36.9217
28.5605 36.8146
28.6066 36.6569
28.6526 36.5822
28.6987 36.6134
28.7447 36.6491
28.7908 36.3382
28.8368 36.3646
28.8829 36.1966
28.9289 36.1796
28.9751 36.116
29.0211 35.9064
29.0673 35.5164
29.1133 35.5476
29.1595 35.3201
29.2055 35.1404
29.2517 35.2848
29.2977 35.074
29.3439 35.1395
29.3899 35.0711
29.4361 34.9987
29.4824 34.9062
29.5284 34.6405
29.5746 34.2977
29.6207 34.0405
29.6669 33.9117
29.713 33.8723
29.7593 33.7392
29.8053 33.8195
29.8516 33.7657
29.8977 33.6374
29.9439 33.3965
29.99 33.3959
30.0363 33.2709
30.0824 33.3927
30.1287 33.253
30.1748 33.3169
30.2211 33.315
30.2673 33.1596
30.3136 33.3012
30.3597 33.1389
30.406 33.1161
30.4522 32.9949
30.4985 32.8968
30.5447 33.0698
30.591 32.8921
30.6372 32.9887
30.6835 32.9183
30.7297 33.076
30.7761 32.9009
30.8224 32.7763
30.8686 32.7202
30.915 32.5489
30.9612 32.2739
31.0076 32.2602
31.0538 32.0326
31.1002 31.9899
31.1464 31.7602
31.1928 31.8412
31.2391 31.8006
31.2855 31.7
31.3317 31.6824
31.3781 31.6922
31.4244 31.6247
31.4708 31.5531
31.5171 31.4696
31.5636 31.5801
31.6098 31.3966
31.6563 31.2407
31.7026 31.0018
31.7491 30.8976
31.7953 30.8997
31.8418 30.9138
31.8881 30.9481
31.9346 30.8095
31.9809 30.8278
32.0275 30.7182
32.074 30.6535
32.1203 30.3924
32.1668 30.3719
32.2132 30.1688
32.2597 29.981
32.306 30.0106
32.3526 29.7313
32.399 29.735
32.4455 29.5361
32.4919 29.4819
32.5385 29.4708
32.5848 29.1717
32.6314 29.208
32.6778 29.1437
32.7244 28.899
32.7708 28.8304
32.8174 28.9643
32.8638 28.7791
32.9104 28.7316
32.9569 28.7431
33.0035 28.5782
33.0499 28.6037
33.0966 28.5065
33.143 28.5581
33.1897 28.3737
33.2361 28.3571
33.2828 28.2411
33.3293 28.1172
33.3759 28.0706
33.4226 27.9948
33.4691 27.7829
33.5158 27.8335
33.5623 27.5967
33.609 27.3992
33.6555 27.3366
33.7022 27.3794
33.7487 27.2227
33.7954 27.2829
33.842 27.1166
33.8887 27.0477
33.9353 26.9099
33.982 26.769
34.0286 26.6932
34.0753 26.736
34.1219 26.5261
34.1687 26.4191
34.2152 26.4949
34.262 26.297
34.3086 26.2519
34.3554 26.2522
34.402 26.0992
34.4488 25.9781
34.4954 25.8809
34.5422 25.8655
34.5889 25.7477
34.6357 25.5584
34.6825 25.5516
34.7292 25.5218
34.776 25.3592
34.8227 25.3634
34.8695 25.2961
34.9162 25.217
34.9631 25.117
35.0098 25.1805
35.0566 25.0052
35.1033 24.8056
35.1502 24.9654
35.1969 24.8212
35.2438 24.7794
35.2906 24.6554
35.3375 24.6241
35.3842 24.701
35.4311 24.5748
35.4779 24.6174
35.5248 24.4887
35.5716 24.409
35.6185 24.3271
35.6653 24.2586
35.7123 24.2131
35.759 24.1322
35.806 23.9747
35.8528 23.8843
35.8998 23.705
35.9468 23.7026
35.9936 23.6635
36.0406 23.5777
36.0874 23.5878
36.1345 23.4754
36.1813 23.4002
36.2283 23.282
36.2752 23.1883
36.3222 23.2674
36.3691 23.1619
36.4161 22.9911
36.463 23.0457
36.5101 22.9618
36.557 22.9058
36.6041 22.7454
36.651 22.7235
36.6981 22.7446
36.745 22.5948
36.7921 22.5349
36.839 22.4302
36.8861 22.4156
36.9331 22.2616
36.9802 22.2745
37.0272 22.246
37.0743 22.0585
37.1213 22.0296
37.1684 22.0044
37.2154 21.9221
37.2626 21.7646
37.3098 21.7291
37.3568 21.7016
37.404 21.6224
37.451 21.5067
37.4982 21.4761
37.5452 21.4304
37.5924 21.3042
37.6395 21.3687
37.6867 21.2748
37.7337 21.1013
37.781 21.0049
37.8281 21.0549
37.8753 20.9124
37.9224 20.8532
37.9697 20.8335
38.0168 20.7191
38.064 20.633
38.1111 20.6293
38.1584 20.4496
38.2056 20.4734
38.2529 20.3857
38.3 20.3074
38.3473 20.2628
38.3945 20.1944
38.4418 20.1642
38.489 20.1254
38.5363 19.9575
38.5837 19.9004
38.6309 19.8405
38.6782 19.8445
38.7254 19.7464
38.7728 19.6825
38.82 19.5652
38.8674 19.5709
38.9146 19.5056
38.9621 19.4537
39.0093 19.4546
39.0567 19.3662
39.104 19.3078
39.1514 19.157
39.1987 19.1655
39.2461 19.0807
39.2934 18.9782
39.3409 18.9549
39.3882 18.8888
39.4356 18.8762
39.483 18.7854
39.5304 18.6814
39.5778 18.6849
39.6253 18.6201
39.6726 18.6048
39.7201 18.4732
39.7675 18.4797
39.815 18.3812
39.8624 18.3818
39.9099 18.3212
39.9575 18.1691
40.0049 18.1235
40.0525 18.0928
40.0999 18.0233
40.1474 18.0177
40.1949 17.9309
40.2425 17.858
40.2899 17.8065
40.3375 17.7623
40.385 17.6952
40.4326 17.686
40.48 17.5127
40.5277 17.5418
40.5752 17.4487
40.6228 17.4377
40.6703 17.3521
40.718 17.2991
40.7655 17.2492
40.8132 17.1924
40.8607 17.1596
40.9084 17.0696
40.9559 17.0303
41.0036 16.9733
41.0512 17.0005
41.0989 16.9082
41.1465 16.8378
41.1942 16.7583
41.242 16.6539
41.2896 16.6537
41.3373 16.5527
41.3849 16.564
41.4327 16.524
41.4803 16.42
41.5281 16.3441
41.5758 16.2963
41.6236 16.2134
41.6712 16.1957
41.7191 16.1228
41.7667 16.0604
41.8146 16.0308
41.8622 16.0055
41.9101 15.9167
41.9578 15.8027
42.0057 15.8566
42.0534 15.7533
42.1013 15.6861
42.149 15.6378
42.1969 15.6221
42.2446 15.5598
42.2925 15.5504
42.3403 15.4346
42.3882 15.4426
42.436 15.3434
42.4839 15.2731
42.5319 15.2404
42.5797 15.2227
42.6277 15.1605
42.6755 15.1113
42.7235 15.0071
42.7713 15.0047
42.8193 14.9694
42.8671 14.8555
42.9152 14.8536
42.963 14.7894
43.0111 14.7311
43.0589 14.6323
43.107 14.6081
43.1549 14.6227
43.2029 14.5323
43.2508 14.5111
43.2989 14.427
43.3468 14.3915
43.3949 14.3767
43.4429 14.2747
43.491 14.2649
43.5389 14.1819
43.5871 14.1717
43.635 14.0755
43.6832 14.0831
43.7312 13.9706
43.7793 13.8908
43.8273 13.8769
43.8755 13.8378
43.9237 13.8282
43.9717 13.7867
44.0199 13.7002
44.068 13.6643
44.1162 13.5772
44.1642 13.5938
44.2125 13.5205
44.2606 13.4877
44.3088 13.4108
44.3569 13.4164
44.4052 13.3108
44.4533 13.2822
44.5016 13.2497
44.5497 13.203
44.598 13.1537
44.6461 13.1054
44.6945 13.0545
44.7426 13.0143
44.791 12.9607
44.8391 12.9442
44.8875 12.8979
44.9357 12.8369
44.984 12.7854
45.0322 12.7587
45.0806 12.6719
45.1288 12.6515
45.1773 12.5968
45.2257 12.5467
45.2739 12.4963
45.3224 12.4791
45.3706 12.4453
45.4191 12.368
45.4673 12.3143
45.5158 12.3517
45.5641 12.245
45.6126 12.2056
45.6609 12.1687
45.7094 12.0875
45.7577 12.0546
45.8063 12.0228
45.8546 11.9746
45.9031 11.8959
45.9515 11.8951
46.0001 11.8432
46.0484 11.7953
46.097 11.7919
46.1454 11.7601
46.194 11.6952
46.2424 11.6541
46.291 11.6144
46.3395 11.5778
46.3881 11.4675
46.4365 11.4982
46.4852 11.4519
46.5337 11.3943
46.5823 11.3716
46.631 11.2975
46.6795 11.2945
46.7282 11.2447
46.7767 11.2285
46.8254 11.121
46.8739 11.1415
46.9226 11.0593
46.9712 10.9979
47.0199 10.9692
47.0685 10.9457
47.1173 10.8913
47.1658 10.8755
47.2146 10.8147
47.2632 10.8096
47.312 10.7581
47.3606 10.6911
47.4095 10.6701
47.4581 10.6217
47.5069 10.5804
47.5556 10.5491
47.6044 10.4971
47.6531 10.4576
47.702 10.4253
47.7507 10.4059
47.7996 10.3466
47.8483 10.3088
47.8972 10.2844
47.9461 10.2303
47.9948 10.19
48.0438 10.135
48.0925 10.1352
48.1415 10.0923
48.1902 10.0414
48.2392 10.0144
48.288 10.0041
48.337 9.89309
48.3858 9.88337
48.4348 9.88207
48.4837 9.89609
48.5327 9.84047
48.5815 9.74376
48.6306 9.76772
48.6795 9.68873
48.7285 9.65301
48.7774 9.63325
48.8265 9.58048
48.8754 9.54588
48.9245 9.51221
48.9734 9.49542
49.0226 9.45443
49.0715 9.43063
49.1206 9.3543
49.1696 9.33518
49.2188 9.32833
49.2679 9.29563
49.3169 9.19755
49.3661 9.16717
49.4151 9.12684
49.4643 9.12735
49.5134 9.1329
49.5626 9.04961
49.6117 9.01481
49.6609 9.01346
49.71 8.9324
49.7592 8.95842
49.8083 8.86849
49.8576 8.84716
49.9067 8.79673
49.956 8.78693
50.0052 8.77678
50.0545 8.72933
50.1036 8.67219
50.153 8.68566
50.2022 8.62388
50.2515 8.57023
50.3007 8.56395
50.3501 8.5208
50.3993 8.50418
50.4487 8.43775
50.498 8.3933
50.5474 8.38544
50.5966 8.34142
50.6461 8.32332
50.6955 8.25759
50.7448 8.23624
50.7943 8.2196
50.8436 8.19521
50.8931 8.15128
50.9424 8.1192
50.9919 8.06732
51.0413 8.05655
51.0908 8.01372
51.1402 7.9941
51.1897 7.94893
51.2391 7.97394
51.2887 7.8979
51.3381 7.84238
51.3877 7.84147
51.4371 7.80441
51.4867 7.77532
51.5362 7.73084
51.5858 7.72365
51.6353 7.66993
51.6849 7.59733
51.7344 7.62353
51.7841 7.58634
51.8336 7.59195
51.8833 7.52267
51.9328 7.46719
51.9826 7.41919
52.0323 7.4201
52.0818 7.39046
52.1316 7.35068
52.1812 7.31026
52.231 7.26811
52.2806 7.24207
52.3304 7.26957
52.38 7.21061
52.4298 7.17852
52.4794 7.14616
52.5293 7.11525
52.5789 7.07377
52.6288 7.05889
52.6785 7.03797
52.7284 7.01204
52.7781 6.96879
52.828 6.94035
52.8777 6.87352
52.9276 6.89419
52.9774 6.89337
53.0273 6.86485
53.0771 6.79884
53.1271 6.79269
53.1769 6.71689
53.2269 6.72934
53.2767 6.7199
53.3267 6.66313
53.3765 6.65129
53.4266 6.64017
53.4766 6.60352
53.5265 6.54453
53.5765 6.49374
53.6264 6.50275
53.6765 6.44751
53.7264 6.44225
53.7765 6.40717
53.8265 6.40926
53.8766 6.3479
53.9266 6.30761
53.9767 6.31194
54.0267 6.24211
54.0769 6.23228
54.1269 6.20786
54.1771 6.15162
54.2271 6.16647
54.2773 6.10666
54.3274 6.08723
54.3776 6.03143
54.4277 6.03138
54.478 5.95411
54.528 5.93882
54.5783 5.88053
54.6285 5.85104
54.6788 5.80096
54.7289 5.79517
54.7792 5.74047
54.8296 5.69167
54.8798 5.65428
54.9301 5.63414
54.9803 5.59819
55.0307 5.56478
55.0809 5.52778
55.1314 5.48715
55.1816 5.44554
55.232 5.34689
55.2823 5.373
55.3328 5.28611
55.383 5.20513
55.4335 5.20782
55.4838 5.11604
55.5344 5.11005
55.5847 5.09984
55.6352 5.05343
55.6856 4.97535
55.7361 4.86157