File: XRD/Ni3Fe_FD0694.xy
TT I
1.27165 7.27754
1.31627 6.8414
1.36089 6.87956
1.40551 5.81641
1.45013 5.7602
1.49476 6.24544
1.53938 5.45277
1.584 5.76227
1.62863 5.23649
1.67325 4.55646
1.71787 4.41685
1.7625 4.64249
1.80712 4.48355
1.85174 4.98395
1.89636 4.72251
1.94099 5.12146
1.98562 5.02765
2.03025 4.2618
2.07487 4.44304
2.11949 5.15031
2.16411 4.6935
2.20874 8.96647
2.25338 13.4524
2.298 5.6342
2.34263 4.77135
2.38725 5.81654
2.43188 5.78173
2.4765 7.10516
2.52115 6.67423
2.56577 7.58569
2.6104 8.6003
2.65503 8.13171
2.69965 7.92105
2.7443 8.57624
2.78893 8.71204
2.83356 8.47412
2.87818 8.72983
2.92281 9.43554
2.96744 9.42971
3.01209 10.847
3.05672 10.9206
3.10135 11.9669
3.14599 12.6179
3.19062 14.2081
3.23527 14.8255
3.2799 15.5901
3.32454 16.4147
3.36917 17.6798
3.4138 19.1748
3.45844 19.3949
3.50309 20.4491
3.54773 21.2014
3.59237 22.8245
3.637 57.0827
3.68164 39.8446
3.7263 25.061
3.77094 25.5367
3.81558 26.3558
3.86022 26.9696
3.90486 28.1943
3.9495 29.5554
3.99416 30.5514
4.0388 31.8528
4.08344 32.6948
4.12809 33.936
4.17273 35.708
4.21738 40.0895
4.26204 138.405
4.30669 118.676
4.35133 45.144
4.39598 43.7745
4.44063 49.4093
4.4853 55.4526
4.52995 54.7994
4.5746 55.4606
4.61925 53.6992
4.6639 55.7813
4.70855 58.274
4.75322 62.0815
4.79788 67.2546
4.84253 68.0889
4.88719 73.8626
4.93184 76.5625
4.97652 81.6244
5.02118 87.9615
5.06583 96.1174
5.11049 107.277
5.15515 159.295
5.19981 431.321
5.24449 3059.95
5.28916 12484.1
5.33382 2652.64
5.37848 191.859
5.42315 130.276
5.46783 117.332
5.5125 110.134
5.55716 102.3
5.60183 98.7163
5.6465 96.5173
5.69117 94.7203
5.73586 92.6496
5.78053 96.2818
5.8252 95.9263
5.86988 97.8317
5.91455 96.4921
5.95924 105.834
6.00392 252.032
6.0486 1032.62
6.09328 4615.77
6.13795 3101.89
6.18263 217.221
6.22733 90.8755
6.27201 81.1556
6.3167 87.6317
6.36138 75.3383
6.40606 69.6558
6.45075 68.7232
6.49545 65.1684
6.54014 63.6616
6.58483 62.8812
6.62952 62.7742
6.67421 77.1052
6.71892 98.4295
6.76361 63.2045
6.8083 58.8681
6.853 58.8969
6.89769 56.9026
6.94239 56.2573
6.98711 55.6933
7.03181 55.3675
7.07651 55.0094
7.12121 54.7744
7.16591 55.779
7.21063 55.3428
7.25533 62.2938
7.30004 112.556
7.34475 70.6876
7.38945 55.2069
7.43416 53.9761
7.47889 54.176
7.5236 54.1891
7.56831 54.9122
7.61303 55.5345
7.65774 56.0725
7.70247 56.4742
7.74719 56.2384
7.79191 56.3446
7.83663 56.7052
7.88135 57.5485
7.92607 58.8504
7.97081 59.7116
8.01553 60.9584
8.06026 62.8134
8.10498 64.3013
8.14971 70.7463
8.19446 70.7125
8.23919 69.8329
8.28392 72.0206
8.32865 74.344
8.37339 78.4988
8.41812 84.5336
8.46288 105.876
8.50761 187.487
8.55235 413.788
8.59709 1242.76
8.64183 2197.07
8.68658 855.934
8.73134 152.03
8.77609 98.4034
8.82083 92.2852
8.86558 91.4746
8.91033 91.1444
8.9551 89.4715
8.99985 85.1753
9.04461 83.6774
9.08936 84.0803
9.13412 82.6232
9.17888 82.1666
9.22365 82.5221
9.26841 81.9654
9.31318 84.4056
9.35794 85.416
9.4027 85.105
9.44749 84.8561
9.49226 85.224
9.53703 86.1774
9.5818 88.7906
9.62657 93.3409
9.67134 95.5853
9.71614 93.1012
9.76091 95.0918
9.80569 98.4258
9.85047 101.609
9.89525 114.541
9.94005 130.112
9.98484 200.68
10.0296 367.511
10.0744 860.498
10.1192 1792.66
10.164 1541.72
10.2088 354.56
10.2536 122.219
10.2984 110.295
10.3432 109.287
10.388 105.855
10.4328 124.444
10.4776 167.512
10.5224 295.993
10.5672 513.697
10.612 491.623
10.6568 193.607
10.7017 94.5984
10.7465 86.3351
10.7913 83.0476
10.8361 80.7403
10.8809 78.8749
10.9257 77.9892
10.9706 77.8588
11.0154 75.1411
11.0602 72.7962
11.105 71.5481
11.1499 73.0008
11.1947 75.9122
11.2395 70.9561
11.2844 68.7632
11.3292 67.0735
11.374 65.9459
11.4189 65.3091
11.4637 64.8737
11.5086 65.0816
11.5534 65.9472
11.5983 64.333
11.6431 63.3699
11.688 62.8123
11.7328 62.8783
11.7777 62.6085
11.8225 62.4423
11.8674 62.1842
11.9122 62.9774
11.9571 62.8945
12.002 64.5635
12.0468 69.6452
12.0917 79.9458
12.1366 105.413
12.1814 154.588
12.2263 203.949
12.2712 157.353
12.3161 87.8632
12.3609 67.3849
12.4058 64.0726
12.4507 64.1497
12.4956 64.3752
12.5405 64.6642
12.5853 64.976
12.6302 68.7272
12.6751 72.0763
12.72 68.3233
12.7649 67.7764
12.8098 68.4671
12.8547 69.9101
12.8996 71.2833
12.9445 72.7679
12.9894 74.3812
13.0343 76.0203
13.0792 80.367
13.1242 93.6247
13.1691 114.673
13.214 153.863
13.2589 251.2
13.3038 383.238
13.3487 418.44
13.3937 245.697
13.4386 119.831
13.4835 108.953
13.5285 123.451
13.5734 164.907
13.6183 256.555
13.6633 358.206
13.7082 327.371
13.7531 170.587
13.7981 93.6186
13.843 81.258
13.888 79.5652
13.9329 77.214
13.9779 75.674
14.0228 74.1546
14.0678 72.9403
14.1127 72.5469
14.1577 71.9637
14.2027 71.2479
14.2476 70.3721
14.2926 70.0368
14.3376 70.7083
14.3825 69.8492
14.4275 68.8647
14.4725 68.6267
14.5175 69.0234
14.5624 69.0774
14.6074 70.1521
14.6524 70.501
14.6974 70.924
14.7424 73.9403
14.7874 80.5976
14.8324 90.8061
14.8774 114.273
14.9224 160.324
14.9674 213.871
15.0124 216.37
15.0574 139.593
15.1024 86.4762
15.1474 71.7408
15.1924 70.2411
15.2374 69.6772
15.2824 68.8329
15.3274 67.5989
15.3725 66.8477
15.4175 66.2713
15.4625 65.8769
15.5076 66.0013
15.5526 66.0633
15.5976 65.881
15.6426 68.5315
15.6877 73.8433
15.7327 81.0262
15.7778 97.1767
15.8228 130.698
15.8679 175.687
15.9129 194.162
15.958 148.71
16.003 90.7221
16.0481 66.2914
16.0931 63.2532
16.1382 61.491
16.1833 60.0951
16.2283 58.7243
16.2734 58.0787
16.3185 57.7237
16.3636 57.9351
16.4086 56.7965
16.4537 55.8449
16.4988 55.4047
16.5439 55.3855
16.589 54.9744
16.6341 54.7067
16.6792 54.3096
16.7243 54.5595
16.7694 54.5496
16.8145 54.7044
16.8596 54.887
16.9047 55.8192
16.9498 55.8127
16.9949 55.5318
17.04 56.2529
17.0851 57.3199
17.1302 58.7279
17.1754 61.9806
17.2205 67.5622
17.2656 75.1035
17.3108 83.257
17.3559 81.3842
17.401 69.7342
17.4462 61.4441
17.4913 59.0082
17.5365 59.08
17.5815 59.0652
17.6268 59.438
17.6718 59.9866
17.7171 60.7984
17.7622 61.4926
17.8074 62.7143
17.8525 65.3619
17.8977 69.0026
17.9428 74.6422
17.9881 84.2023
18.0331 102.833
18.0784 125.096
18.1237 141.562
18.1688 130.056
18.214 100.552
18.2591 85.8396
18.3044 91.3208
18.3495 101.319
18.3948 105.582
18.4399 94.1022
18.4852 74.9572
18.5303 64.8554
18.5756 62.0605
18.6207 61.0814
18.666 60.0508
18.7112 59.4978
18.7565 58.5444
18.8016 58.4349
18.8469 57.8633
18.892 57.6378
18.9374 57.0025
18.9825 56.9545
19.0278 56.8808
19.073 57.0998
19.1183 57.3618
19.1635 57.7735
19.2088 59.178
19.254 62.5256
19.2993 67.219
19.3447 73.1604
19.3898 75.9815
19.4352 70.9368
19.4804 62.041
19.5257 56.1177
19.5709 54.0534
19.6163 53.8482
19.6615 53.6852
19.7068 53.3598
19.752 53.2933
19.7974 53.825
19.8426 54.5451
19.888 55.0645
19.9332 56.2768
19.9786 59.1563
20.0238 63.103
20.0692 67.7952
20.1144 69.8256
20.1598 67.6069
20.205 62.9039
20.2504 62.1391
20.2957 64.1003
20.3411 65.4099
20.3863 63.3845
20.4318 57.6399
20.477 52.9658
20.5224 50.9735
20.5677 50.5273
20.6131 50.0206
20.6586 49.5736
20.7038 49.3814
20.7493 49.0423
20.7945 49.0096
20.84 48.6272
20.8853 48.715
20.9307 48.5392
20.976 48.8509
21.0215 48.5504
21.0668 49.1892
21.1122 49.3959
21.1575 49.9481
21.203 50.9067
21.2483 51.3375
21.2938 51.2497
21.3391 49.9692
21.3846 48.8358
21.4299 48.318
21.4754 48.397
21.5207 48.6497
21.5662 49.0075
21.6116 49.3735
21.6571 50.05
21.7024 50.8924
21.7479 53.0309
21.7933 55.8627
21.8388 59.5307
21.8843 63.1409
21.9297 64.6259
21.9752 62.7041
22.0206 58.9767
22.0661 56.1909
22.1115 56.0223
22.157 55.8397
22.2024 53.7015
22.248 51.0843
22.2933 49.5514
22.3389 48.9808
22.3843 48.9413
22.4299 48.8946
22.4753 48.8409
22.5208 48.6212
22.5662 48.5249
22.6118 48.8664
22.6572 48.9836
22.7028 49.3522
22.7483 49.8546
22.7939 50.477
22.8393 52.2377
22.8849 54.3441
22.9303 56.5059
22.9759 57.6754
23.0214 56.9989
23.067 53.9607
23.1126 50.5818
23.1581 48.9411
23.2037 48.6573
23.2492 48.8638
23.2948 48.8274
23.3403 49.1214
23.3859 50.1126
23.4314 50.9748
23.477 53.0233
23.5225 55.2993
23.5682 57.219
23.6137 57.6878
23.6593 55.0015
23.7048 50.976
23.7505 47.825
23.796 46.2923
23.8417 45.9459
23.8872 45.5101
23.9329 45.1664
23.9784 44.9714
24.0241 44.5553
24.0697 44.417
24.1154 44.023
24.1609 43.8503
24.2066 43.7695
24.2522 43.7091
24.2979 43.3783
24.3434 43.1182
24.3892 43.0148
24.4349 43.0786
24.4805 42.8158
24.5262 43.045
24.5718 42.918
24.6175 42.8499
24.6631 42.7893
24.7089 42.4212
24.7545 42.3201
24.8002 42.1899
24.8458 42.1231
24.8916 42.0862
24.9372 42.1975
24.983 42.5724
25.0286 42.7521
25.0744 43.3618
25.12 43.8643
25.1658 44.1801
25.2114 44.544
25.2572 44.6858
25.3029 44.6119
25.3487 44.859
25.3943 44.4387
25.4402 43.2135
25.4858 42.127
25.5316 41.3083
25.5773 40.6787
25.6231 40.8399
25.669 40.3957
25.7147 40.5078
25.7605 40.4365
25.8062 40.3679
25.8521 40.5452
25.8977 40.5363
25.9436 40.7631
25.9893 40.9214
26.0352 41.5657
26.0809 41.6483
26.1268 41.5722
26.1725 41.2034
26.2184 40.7128
26.2641 40.1965
26.31 40.0503
26.3557 40.1058
26.4017 40.0656
26.4474 40.5401
26.4933 40.6257
26.5391 41.2563
26.585 41.775
26.6308 42.1019
26.6767 42.1393
26.7225 41.8871
26.7684 41.179
26.8142 40.6911
26.8601 40.405
26.9059 39.9894
26.9519 39.3474
26.9979 39.0265
27.0437 38.8188
27.0896 38.6385
27.1354 38.7258
27.1814 38.506
27.2272 38.4938
27.2732 38.4364
27.3191 38.223
27.3651 38.4348
27.4109 38.3652
27.4569 38.5815
27.5027 38.5708
27.5488 38.5375
27.5946 38.2221
27.6407 38.144
27.6865 37.9837
27.7326 37.7136
27.7784 37.8543
27.8245 37.7638
27.8703 37.9404
27.9164 38.3398
27.9623 38.5183
28.0084 38.8291
28.0543 39.1949
28.1003 39.0475
28.1462 38.8192
28.1923 38.3736
28.2384 37.9835
28.2843 37.5292
28.3304 37.1214
28.3764 36.5327
28.4225 36.3294
28.4684 36.1937
28.5145 35.8381
28.5605 35.7987
28.6066 35.5986
28.6526 35.5576
28.6987 35.5754
28.7447 35.4723
28.7908 35.2818
28.8368 35.3175
28.8829 35.3146
28.9289 35.2691
28.9751 35.1291
29.0211 34.8918
29.0673 34.5296
29.1133 34.6192
29.1595 34.3429
29.2055 34.2889
29.2517 34.2768
29.2977 34.2124
29.3439 34.1896
29.3899 34.3041
29.4361 34.12
29.4824 33.8067
29.5284 33.6833
29.5746 33.299
29.6207 33.0621
29.6669 33.0462
29.713 32.8974
29.7593 32.8313
29.8053 32.8673
29.8516 32.7158
29.8977 32.7676
29.9439 32.613
29.99 32.4666
30.0363 32.4403
30.0824 32.546
30.1287 32.3045
30.1748 32.3807
30.2211 32.3583
30.2673 32.1355
30.3136 32.2877
30.3597 32.1898
30.406 32.1218
30.4522 31.9662
30.4985 32.089
30.5447 32.1802
30.591 32.0816
30.6372 32.1719
30.6835 32.199
30.7297 32.1867
30.7761 32.0997
30.8224 31.9603
30.8686 31.8734
30.915 31.5365
30.9612 31.4044
31.0076 31.2469
31.0538 31.077
31.1002 31.049
31.1464 30.8916
31.1928 30.8666
31.2391 30.8497
31.2855 30.8173
31.3317 30.7723
31.3781 30.9516
31.4244 30.8888
31.4708 30.714
31.5171 30.7519
31.5636 30.7436
31.6098 30.3922
31.6563 30.2879
31.7026 30.1358
31.7491 30.0124
31.7953 30.1479
31.8418 30.1765
31.8881 30.0943
31.9346 30.0491
31.9809 29.9713
32.0275 29.9
32.074 29.7862
32.1203 29.5539
32.1668 29.44
32.2132 29.3397
32.2597 29.1679
32.306 29.0946
32.3526 28.9459
32.399 28.8726
32.4455 28.6816
32.4919 28.6333
32.5385 28.5522
32.5848 28.4872
32.6314 28.5041
32.6778 28.4304
32.7244 28.2802
32.7708 28.1506
32.8174 28.1562
32.8638 28.0317
32.9104 28.0399
32.9569 27.9615
33.0035 27.7329
33.0499 27.7972
33.0966 27.7533
33.143 27.8231
33.1897 27.6795
33.2361 27.5678
33.2828 27.4753
33.3293 27.3618
33.3759 27.3426
33.4226 27.2467
33.4691 27.1272
33.5158 26.9297
33.5623 26.8106
33.609 26.7105
33.6555 26.6158
33.7022 26.6147
33.7487 26.5432
33.7954 26.5299
33.842 26.2364
33.8887 26.2125
33.9353 26.2171
33.982 26.0501
34.0286 25.9418
34.0753 26.0292
34.1219 25.8735
34.1687 25.7566
34.2152 25.7026
34.262 25.5568
34.3086 25.4905
34.3554 25.4437
34.402 25.3365
34.4488 25.1989
34.4954 25.2499
34.5422 25.1019
34.5889 25.0217
34.6357 24.9243
34.6825 24.846
34.7292 24.7784
34.776 24.8073
34.8227 24.6157
34.8695 24.5663
34.9162 24.5825
34.9631 24.4453
35.0098 24.4768
35.0566 24.3383
35.1033 24.1997
35.1502 24.2325
35.1969 24.1016
35.2438 24.0679
35.2906 24.0455
35.3375 24.0612
35.3842 23.9533
35.4311 23.9834
35.4779 23.9425
35.5248 23.8209
35.5716 23.6818
35.6185 23.6496
35.6653 23.5464
35.7123 23.5197
35.759 23.4032
35.806 23.301
35.8528 23.2441
35.8998 23.1058
35.9468 23.0389
35.9936 23.1423
36.0406 22.9065
36.0874 22.9549
36.1345 22.8871
36.1813 22.7655
36.2283 22.6933
36.2752 22.6661
36.3222 22.5646
36.3691 22.4576
36.4161 22.3194
36.463 22.3625
36.5101 22.4029
36.557 22.3096
36.6041 22.1601
36.651 22.1768
36.6981 22.0656
36.745 21.9854
36.7921 21.9363
36.839 21.8313
36.8861 21.7142
36.9331 21.743
36.9802 21.6258
37.0272 21.523
37.0743 21.5139
37.1213 21.4512
37.1684 21.4041
37.2154 21.2955
37.2626 21.2937
37.3098 21.1514
37.3568 21.121
37.404 21.0642
37.451 20.9384
37.4982 20.911
37.5452 20.8302
37.5924 20.7823
37.6395 20.8228
37.6867 20.5774
37.7337 20.5361
37.781 20.481
37.8281 20.4019
37.8753 20.3655
37.9224 20.2551
37.9697 20.249
38.0168 20.1676
38.064 20.1443
38.1111 20.0471
38.1584 19.9296
38.2056 19.9554
38.2529 19.9174
38.3 19.7716
38.3473 19.7241
38.3945 19.6727
38.4418 19.58
38.489 19.5184
38.5363 19.4976
38.5837 19.459
38.6309 19.286
38.6782 19.2979
38.7254 19.1699
38.7728 19.1766
38.82 19.1405
38.8674 19.0082
38.9146 18.9843
38.9621 18.8973
39.0093 18.936
39.0567 18.8984
39.104 18.7465
39.1514 18.7005
39.1987 18.6638
39.2461 18.6329
39.2934 18.5508
39.3409 18.4339
39.3882 18.3904
39.4356 18.3408
39.483 18.2819
39.5304 18.2452
39.5778 18.2465
39.6253 18.0552
39.6726 18.0408
39.7201 17.9555
39.7675 17.9392
39.815 17.9052
39.8624 17.8382
39.9099 17.7878
39.9575 17.6581
40.0049 17.6951
40.0525 17.5754
40.0999 17.555
40.1474 17.4992
40.1949 17.3839
40.2425 17.3472
40.2899 17.3239
40.3375 17.2791
40.385 17.2451
40.4326 17.1371
40.48 17.0348
40.5277 17.1098
40.5752 17.0084
40.6228 16.8784
40.6703 16.8726
40.718 16.8243
40.7655 16.7945
40.8132 16.7067
40.8607 16.7501
40.9084 16.6567
40.9559 16.5407
41.0036 16.4779
41.0512 16.5094
41.0989 16.483
41.1465 16.3352
41.1942 16.3237
41.242 16.2022
41.2896 16.1963
41.3373 16.084
41.3849 16.1171
41.4327 16.0375
41.4803 15.9528
41.5281 15.9597
41.5758 15.8646
41.6236 15.8562
41.6712 15.7393
41.7191 15.7025
41.7667 15.6748
41.8146 15.6241
41.8622 15.5383
41.9101 15.4848
41.9578 15.4336
42.0057 15.3831
42.0534 15.3196
42.1013 15.3179
42.149 15.2395
42.1969 15.2281
42.2446 15.1716
42.2925 15.1085
42.3403 15.0143
42.3882 14.9702
42.436 14.944
42.4839 14.8518
42.5319 14.8893
42.5797 14.8283
42.6277 14.7632
42.6755 14.6683
42.7235 14.6548
42.7713 14.5828
42.8193 14.5336
42.8671 14.4534
42.9152 14.4673
42.963 14.4474
43.0111 14.3317
43.0589 14.3099
43.107 14.2574
43.1549 14.2032
43.2029 14.1454
43.2508 14.0762
43.2989 14.0293
43.3468 13.9647
43.3949 14.0167
43.4429 13.9443
43.491 13.8523
43.5389 13.8237
43.5871 13.795
43.635 13.7199
43.6832 13.6228
43.7312 13.6207
43.7793 13.5367
43.8273 13.5462
43.8755 13.4972
43.9237 13.48
43.9717 13.3953
44.0199 13.3056
44.068 13.2812
44.1162 13.2607
44.1642 13.2096
44.2125 13.1762
44.2606 13.1035
44.3088 13.0604
44.3569 13.0015
44.4052 12.9616
44.4533 12.9232
44.5016 12.8846
44.5497 12.8595
44.598 12.7621
44.6461 12.7539
44.6945 12.7029
44.7426 12.6515
44.791 12.5886
44.8391 12.5809
44.8875 12.4852
44.9357 12.4592
44.984 12.3937
45.0322 12.4164
45.0806 12.3647
45.1288 12.3099
45.1773 12.2523
45.2257 12.2195
45.2739 12.1613
45.3224 12.1208
45.3706 12.087
45.4191 12.0418
45.4673 11.9841
45.5158 11.9497
45.5641 11.912
45.6126 11.8592
45.6609 11.8151
45.7094 11.7574
45.7577 11.7285
45.8063 11.6615
45.8546 11.6835
45.9031 11.5918
45.9515 11.5708
46.0001 11.5459
46.0484 11.5732
46.097 11.4459
46.1454 11.432
46.194 11.3519
46.2424 11.3495
46.291 11.2847
46.3395 11.2434
46.3881 11.1961
46.4365 11.1877
46.4852 11.1165
46.5337 11.0883
46.5823 11.0761
46.631 11.0176
46.6795 10.961
46.7282 10.9234
46.7767 10.8637
46.8254 10.8145
46.8739 10.7402
46.9226 10.7642
46.9712 10.6741
47.0199 10.6776
47.0685 10.6665
47.1173 10.6212
47.1658 10.58
47.2146 10.5366
47.2632 10.4754
47.312 10.4495
47.3606 10.4281
47.4095 10.3935
47.4581 10.3488
47.5069 10.3012
47.5556 10.2672
47.6044 10.198
47.6531 10.1504
47.702 10.1363
47.7507 10.0892
47.7996 10.1045
47.8483 10.067
47.8972 10.0152
47.9461 9.94527
47.9948 9.95836
48.0438 9.88753
48.0925 9.84127
48.1415 9.85651
48.1902 9.76934
48.2392 9.73992
48.288 9.70402
48.337 9.71017
48.3858 9.65457
48.4348 9.61425
48.4837 9.64817
48.5327 9.56274
48.5815 9.5242
48.6306 9.50318
48.6795 9.44329
48.7285 9.38135
48.7774 9.37186
48.8265 9.32064
48.8754 9.30717
48.9245 9.26257
48.9734 9.22441
49.0226 9.19105
49.0715 9.14968
49.1206 9.12925
49.1696 9.09411
49.2188 9.03729
49.2679 9.05443
49.3169 8.97569
49.3661 8.91771
49.4151 8.88794
49.4643 8.85834
49.5134 8.84591
49.5626 8.75955
49.6117 8.81798
49.6609 8.76946
49.71 8.68787
49.7592 8.70239
49.8083 8.63192
49.8576 8.62602
49.9067 8.57834
49.956 8.57155
50.0052 8.48426
50.0545 8.50262
50.1036 8.42102
50.153 8.42362
50.2022 8.38241
50.2515 8.3523
50.3007 8.32237
50.3501 8.29222
50.3993 8.25412
50.4487 8.21436
50.498 8.1874
50.5474 8.16237
50.5966 8.10539
50.6461 8.08731
50.6955 8.02927
50.7448 8.05953
50.7943 8.01297
50.8436 7.95825
50.8931 7.95281
50.9424 7.87978
50.9919 7.92244
51.0413 7.84926
51.0908 7.77774
51.1402 7.76001
51.1897 7.77193
51.2391 7.70602
51.2887 7.66342
51.3381 7.63995
51.3877 7.65306
51.4371 7.59141
51.4867 7.58315
51.5362 7.56025
51.5858 7.49033
51.6353 7.44335
51.6849 7.43707
51.7344 7.37086
51.7841 7.40134
51.8336 7.36259
51.8833 7.28505
51.9328 7.25294
51.9826 7.24605
52.0323 7.23145
52.0818 7.19656
52.1316 7.1585
52.1812 7.15849
52.231 7.09947
52.2806 7.09365
52.3304 7.05186
52.38 7.02171
52.4298 7.00455
52.4794 6.94608
52.5293 6.92816
52.5789 6.89826
52.6288 6.89843
52.6785 6.839
52.7284 6.81351
52.7781 6.78257
52.828 6.80337
52.8777 6.70095
52.9276 6.68588
52.9774 6.70262
53.0273 6.64377
53.0771 6.63248
53.1271 6.63052
53.1769 6.56347
53.2269 6.51195
53.2767 6.4909
53.3267 6.49283
53.3765 6.46783
53.4266 6.43627
53.4766 6.38186
53.5265 6.36933
53.5765 6.32962
53.6264 6.3403
53.6765 6.28145
53.7264 6.26503
53.7765 6.24783
53.8265 6.2085
53.8766 6.17569
53.9266 6.18426
53.9767 6.12889
54.0267 6.08768
54.0769 6.03659
54.1269 6.02979
54.1771 6.01565
54.2271 6.01729
54.2773 5.93731
54.3274 5.92108
54.3776 5.83452
54.4277 5.83372
54.478 5.84192
54.528 5.76755
54.5783 5.73302
54.6285 5.72831
54.6788 5.6273
54.7289 5.62582
54.7792 5.57681
54.8296 5.51667
54.8798 5.47875
54.9301 5.51345
54.9803 5.43389
55.0307 5.40281
55.0809 5.34575
55.1314 5.31582
55.1816 5.30224
55.232 5.21715
55.2823 5.17169
55.3328 5.12678
55.383 5.08707
55.4335 5.05088
55.4838 4.99992
55.5344 4.98015
55.5847 4.97898
55.6352 4.88561
55.6856 4.85857
55.7361 4.81759