File: XRD/Ni3Fe_FD0658.xy
TT I
1.27165 7.63684
1.31627 6.91398
1.36089 7.32578
1.40551 5.8529
1.45013 6.11518
1.49476 6.0631
1.53938 5.3098
1.584 5.49514
1.62863 5.06414
1.67325 5.22411
1.71787 5.09748
1.7625 4.77239
1.80712 4.57824
1.85174 4.75451
1.89636 4.16523
1.94099 4.84712
1.98562 5.13852
2.03025 5.29516
2.07487 4.6334
2.11949 4.97515
2.16411 4.67236
2.20874 16.5343
2.25338 27.7147
2.298 5.90119
2.34263 5.04179
2.38725 6.25971
2.43188 5.98125
2.4765 6.29647
2.52115 6.59731
2.56577 7.79152
2.6104 8.53786
2.65503 7.3738
2.69965 8.33722
2.7443 8.15754
2.78893 7.78741
2.83356 8.23125
2.87818 8.90683
2.92281 8.59629
2.96744 9.18173
3.01209 10.2233
3.05672 10.9944
3.10135 12.4855
3.14599 12.6775
3.19062 14.0402
3.23527 15.1232
3.2799 15.3787
3.32454 16.7946
3.36917 17.7009
3.4138 18.8057
3.45844 19.6474
3.50309 20.8239
3.54773 22.1939
3.59237 24.6491
3.637 110.091
3.68164 69.4835
3.7263 26.6134
3.77094 26.572
3.81558 26.8029
3.86022 27.4589
3.90486 28.8793
3.9495 29.8364
3.99416 30.9715
4.0388 32.2156
4.08344 33.8359
4.12809 34.9676
4.17273 37.4515
4.21738 44.1873
4.26204 304.316
4.30669 271.74
4.35133 50.2284
4.39598 44.9725
4.44063 55.6615
4.4853 71.007
4.52995 50.6853
4.5746 50.9428
4.61925 53.4384
4.6639 55.2518
4.70855 58.2027
4.75322 60.5868
4.79788 63.6307
4.84253 66.5155
4.88719 71.1289
4.93184 74.5309
4.97652 79.819
5.02118 86.0292
5.06583 93.9031
5.11049 104.97
5.15515 183.546
5.19981 321.965
5.24449 2581.15
5.28916 12711.0
5.33382 3131.91
5.37848 192.93
5.42315 128.129
5.46783 112.659
5.5125 104.715
5.55716 100.982
5.60183 97.553
5.6465 96.4366
5.69117 93.9574
5.73586 91.5258
5.78053 90.4421
5.8252 90.0621
5.86988 90.5936
5.91455 92.9382
5.95924 100.085
6.00392 185.167
6.0486 864.832
6.09328 4396.35
6.13795 3397.18
6.18263 243.86
6.22733 93.4746
6.27201 83.2971
6.3167 109.548
6.36138 82.7194
6.40606 69.156
6.45075 67.1626
6.49545 65.2394
6.54014 63.7522
6.58483 63.0956
6.62952 63.1796
6.67421 101.928
6.71892 168.896
6.76361 71.806
6.8083 58.7267
6.853 57.6852
6.89769 57.1199
6.94239 56.6463
6.98711 56.0406
7.03181 56.0064
7.07651 55.8298
7.12121 55.2644
7.16591 55.4012
7.21063 56.2449
7.25533 73.8356
7.30004 214.656
7.34475 103.294
7.38945 57.549
7.43416 55.1597
7.47889 54.6458
7.5236 55.3766
7.56831 55.5959
7.61303 57.7187
7.65774 57.9315
7.70247 56.1177
7.74719 56.3426
7.79191 57.0074
7.83663 56.8018
7.88135 57.8048
7.92607 58.9371
7.97081 59.6941
8.01553 60.7038
8.06026 62.2728
8.10498 63.779
8.14971 75.4498
8.19446 73.7508
8.23919 69.3412
8.28392 71.6328
8.32865 73.5552
8.37339 78.0442
8.41812 85.1271
8.46288 118.972
8.50761 154.245
8.55235 357.35
8.59709 1110.17
8.64183 2239.6
8.68658 991.023
8.73134 171.65
8.77609 99.4124
8.82083 92.1589
8.86558 89.6577
8.91033 90.0393
8.9551 93.2851
8.99985 85.2298
9.04461 83.1515
9.08936 82.3337
9.13412 81.5368
9.17888 81.5525
9.22365 82.709
9.26841 81.6593
9.31318 82.0346
9.35794 82.1245
9.4027 82.7067
9.44749 83.7327
9.49226 84.2947
9.53703 84.9506
9.5818 86.8971
9.62657 92.36
9.67134 100.597
9.71614 93.9993
9.76091 93.6678
9.80569 95.9394
9.85047 99.6304
9.89525 128.887
9.94005 142.205
9.98484 164.925
10.0296 315.321
10.0744 750.343
10.1192 1711.32
10.164 1667.53
10.2088 421.446
10.2536 129.084
10.2984 114.474
10.3432 117.784
10.388 104.418
10.4328 114.016
10.4776 151.784
10.5224 264.317
10.5672 500.468
10.612 526.89
10.6568 212.197
10.7017 96.3406
10.7465 86.6634
10.7913 82.8407
10.8361 80.9049
10.8809 78.9017
10.9257 78.8183
10.9706 79.6839
11.0154 74.7134
11.0602 72.7891
11.105 72.1713
11.1499 77.5203
11.1947 87.6783
11.2395 76.3103
11.2844 71.022
11.3292 67.4548
11.374 65.9
11.4189 65.6083
11.4637 65.0218
11.5086 65.7613
11.5534 69.8186
11.5983 66.4217
11.6431 63.8717
11.688 63.0539
11.7328 63.0562
11.7777 62.8312
11.8225 62.5457
11.8674 62.0072
11.9122 62.8002
11.9571 62.9843
12.002 63.2657
12.0468 66.3798
12.0917 77.2104
12.1366 99.9927
12.1814 147.472
12.2263 206.158
12.2712 175.219
12.3161 99.8281
12.3609 71.6764
12.4058 65.011
12.4507 64.3271
12.4956 64.4468
12.5405 64.6485
12.5853 65.6971
12.6302 75.1464
12.6751 82.5972
12.72 71.3028
12.7649 67.6319
12.8098 68.3213
12.8547 69.5974
12.8996 70.6724
12.9445 71.7575
12.9894 73.4677
13.0343 75.578
13.0792 78.4215
13.1242 85.551
13.1691 108.506
13.214 142.358
13.2589 226.423
13.3038 368.538
13.3487 443.177
13.3937 274.822
13.4386 125.25
13.4835 103.166
13.5285 116.236
13.5734 150.882
13.6183 236.792
13.6633 349.536
13.7082 351.848
13.7531 192.861
13.7981 97.9331
13.843 81.8859
13.888 79.4405
13.9329 76.8315
13.9779 75.693
14.0228 74.1124
14.0678 72.8246
14.1127 72.6492
14.1577 72.7583
14.2027 71.4997
14.2476 70.3172
14.2926 70.6939
14.3376 72.002
14.3825 70.3971
14.4275 68.6384
14.4725 68.3477
14.5175 68.7624
14.5624 68.8465
14.6074 71.4922
14.6524 72.1993
14.6974 70.3339
14.7424 71.121
14.7874 76.8178
14.8324 86.4163
14.8774 106.085
14.9224 147.012
14.9674 204.473
15.0124 223.331
15.0574 153.308
15.1024 92.4617
15.1474 72.3508
15.1924 70.5576
15.2374 71.7015
15.2824 71.057
15.3274 68.5248
15.3725 66.8548
15.4175 66.3063
15.4625 65.9165
15.5076 66.253
15.5526 66.3546
15.5976 65.457
15.6426 66.0966
15.6877 70.9334
15.7327 77.7328
15.7778 91.7225
15.8228 121.155
15.8679 167.676
15.9129 197.286
15.958 160.803
16.003 99.0408
16.0481 68.659
16.0931 65.3301
16.1382 63.4519
16.1833 60.8011
16.2283 59.0388
16.2734 58.3567
16.3185 58.876
16.3636 60.0638
16.4086 58.3724
16.4537 56.4406
16.4988 55.7154
16.5439 55.4572
16.589 55.237
16.6341 55.0818
16.6792 54.6793
16.7243 54.9328
16.7694 55.0593
16.8145 54.8651
16.8596 55.5207
16.9047 57.3633
16.9498 57.5408
16.9949 55.7323
17.04 55.8284
17.0851 56.7547
17.1302 58.2794
17.1754 61.1746
17.2205 65.7692
17.2656 73.5052
17.3108 83.5791
17.3559 83.4504
17.401 71.6623
17.4462 62.2393
17.4913 59.2809
17.5365 59.1747
17.5815 58.9849
17.6268 59.3588
17.6718 60.5857
17.7171 60.9371
17.7622 61.279
17.8074 61.5705
17.8525 63.364
17.8977 67.5544
17.9428 72.5905
17.9881 80.8642
18.0331 96.8176
18.0784 120.197
18.1237 142.151
18.1688 134.461
18.214 104.283
18.2591 85.9077
18.3044 89.2246
18.3495 100.322
18.3948 107.456
18.4399 98.2541
18.4852 78.5804
18.5303 66.4207
18.5756 62.304
18.6207 61.3695
18.666 60.5906
18.7112 59.6784
18.7565 58.9397
18.8016 58.5539
18.8469 58.1525
18.892 57.6258
18.9374 57.2462
18.9825 57.1
19.0278 56.8234
19.073 56.8331
19.1183 57.2104
19.1635 58.1547
19.2088 59.4768
19.254 61.678
19.2993 65.8921
19.3447 72.7994
19.3898 77.6321
19.4352 73.5643
19.4804 63.9215
19.5257 56.8842
19.5709 54.1878
19.6163 53.7452
19.6615 53.6927
19.7068 53.2375
19.752 53.2833
19.7974 53.4337
19.8426 54.4209
19.888 54.7675
19.9332 56.0343
19.9786 58.3473
20.0238 61.5468
20.0692 66.7628
20.1144 70.1558
20.1598 68.3994
20.205 63.2547
20.2504 61.6082
20.2957 63.5093
20.3411 65.8333
20.3863 64.5376
20.4318 58.6482
20.477 53.7864
20.5224 51.8217
20.5677 51.1012
20.6131 50.3201
20.6586 49.641
20.7038 49.6191
20.7493 49.1836
20.7945 49.0537
20.84 49.0093
20.8853 48.7048
20.9307 48.4105
20.976 48.7346
21.0215 48.5825
21.0668 49.0579
21.1122 49.4166
21.1575 49.9509
21.203 50.7814
21.2483 51.5801
21.2938 51.5368
21.3391 50.0467
21.3846 48.9065
21.4299 48.5141
21.4754 48.4177
21.5207 48.5075
21.5662 48.6431
21.6116 48.9269
21.6571 49.6589
21.7024 50.6488
21.7479 52.1422
21.7933 54.7988
21.8388 58.5203
21.8843 62.5211
21.9297 65.003
21.9752 63.9783
22.0206 60.0213
22.0661 56.7144
22.1115 56.2443
22.157 56.2082
22.2024 54.532
22.248 51.4979
22.2933 50.1216
22.3389 49.2714
22.3843 49.3346
22.4299 49.0629
22.4753 49.1094
22.5208 48.7098
22.5662 48.4414
22.6118 48.7605
22.6572 48.8629
22.7028 49.0989
22.7483 49.6698
22.7939 50.0965
22.8393 51.5717
22.8849 53.8755
22.9303 55.9785
22.9759 58.2472
23.0214 57.7729
23.067 55.0233
23.1126 51.3816
23.1581 49.3524
23.2037 48.7886
23.2492 48.8057
23.2948 48.7743
23.3403 48.9355
23.3859 49.4828
23.4314 50.5438
23.477 52.4015
23.5225 54.7247
23.5682 57.132
23.6137 58.4565
23.6593 56.1729
23.7048 51.9078
23.7505 48.4406
23.796 46.7972
23.8417 46.0946
23.8872 45.6832
23.9329 45.2504
23.9784 44.8572
24.0241 44.8005
24.0697 44.493
24.1154 44.1553
24.1609 44.0576
24.2066 43.8278
24.2522 43.8081
24.2979 43.4827
24.3434 43.4732
24.3892 43.2339
24.4349 43.1684
24.4805 42.9008
24.5262 43.1431
24.5718 42.9477
24.6175 43.1371
24.6631 42.9223
24.7089 42.6624
24.7545 42.4774
24.8002 42.1993
24.8458 42.2741
24.8916 41.976
24.9372 42.1972
24.983 42.3979
25.0286 42.9056
25.0744 43.2047
25.12 43.7014
25.1658 44.3626
25.2114 44.6359
25.2572 44.861
25.3029 44.911
25.3487 45.1048
25.3943 44.7878
25.4402 43.7914
25.4858 42.5716
25.5316 41.6219
25.5773 40.965
25.6231 41.062
25.669 40.4922
25.7147 40.6726
25.7605 40.4891
25.8062 40.5962
25.8521 40.7458
25.8977 40.66
25.9436 40.8645
25.9893 40.9927
26.0352 41.4282
26.0809 41.5707
26.1268 41.9184
26.1725 41.5422
26.2184 40.8065
26.2641 40.2796
26.31 40.1122
26.3557 40.0321
26.4017 40.0796
26.4474 40.3421
26.4933 40.7113
26.5391 41.2986
26.585 41.7136
26.6308 42.1718
26.6767 42.4145
26.7225 42.0642
26.7684 41.5002
26.8142 40.9255
26.8601 40.535
26.9059 40.1458
26.9519 39.6098
26.9979 39.3416
27.0437 39.069
27.0896 38.838
27.1354 38.8026
27.1814 38.6523
27.2272 38.4951
27.2732 38.7089
27.3191 38.3697
27.3651 38.5911
27.4109 38.3107
27.4569 38.6364
27.5027 38.6887
27.5488 38.6476
27.5946 38.4314
27.6407 38.2293
27.6865 38.1782
27.7326 37.829
27.7784 37.8741
27.8245 37.8631
27.8703 37.9974
27.9164 38.2297
27.9623 38.4139
28.0084 38.8329
28.0543 39.2022
28.1003 39.2208
28.1462 38.9092
28.1923 38.545
28.2384 38.179
28.2843 37.7694
28.3304 37.2679
28.3764 36.7629
28.4225 36.4514
28.4684 36.4431
28.5145 35.993
28.5605 35.9521
28.6066 35.8237
28.6526 35.7748
28.6987 35.5812
28.7447 35.6319
28.7908 35.5474
28.8368 35.518
28.8829 35.3608
28.9289 35.3898
28.9751 35.2861
29.0211 35.0346
29.0673 34.8323
29.1133 34.5682
29.1595 34.4241
29.2055 34.3257
29.2517 34.3862
29.2977 34.3394
29.3439 34.3992
29.3899 34.3608
29.4361 34.3144
29.4824 34.068
29.5284 33.7845
29.5746 33.5124
29.6207 33.2251
29.6669 33.1707
29.713 33.035
29.7593 32.916
29.8053 32.9374
29.8516 32.9121
29.8977 32.7999
29.9439 32.6214
29.99 32.67
30.0363 32.5057
30.0824 32.5773
30.1287 32.3805
30.1748 32.5271
30.2211 32.5221
30.2673 32.3648
30.3136 32.4339
30.3597 32.3315
30.406 32.2091
30.4522 32.1333
30.4985 32.214
30.5447 32.1976
30.591 32.218
30.6372 32.2036
30.6835 32.1836
30.7297 32.1889
30.7761 32.2308
30.8224 32.0486
30.8686 32.0168
30.915 31.7307
30.9612 31.5654
31.0076 31.3826
31.0538 31.2222
31.1002 31.1808
31.1464 31.0135
31.1928 30.8293
31.2391 31.097
31.2855 30.9474
31.3317 30.9942
31.3781 31.0314
31.4244 31.0338
31.4708 30.8321
31.5171 30.9028
31.5636 30.717
31.6098 30.522
31.6563 30.5562
31.7026 30.3587
31.7491 30.213
31.7953 30.2369
31.8418 30.2312
31.8881 30.2757
31.9346 30.2467
31.9809 30.1667
32.0275 29.9745
32.074 29.8194
32.1203 29.6682
32.1668 29.6436
32.2132 29.4573
32.2597 29.3482
32.306 29.2569
32.3526 29.1058
32.399 29.0915
32.4455 28.8329
32.4919 28.7672
32.5385 28.762
32.5848 28.5945
32.6314 28.5278
32.6778 28.5495
32.7244 28.4094
32.7708 28.2165
32.8174 28.2424
32.8638 28.0484
32.9104 28.1752
32.9569 27.9407
33.0035 27.9622
33.0499 27.9652
33.0966 27.9146
33.143 27.7826
33.1897 27.7863
33.2361 27.5893
33.2828 27.6048
33.3293 27.5113
33.3759 27.4729
33.4226 27.3217
33.4691 27.1719
33.5158 27.0957
33.5623 26.9938
33.609 26.8845
33.6555 26.7001
33.7022 26.6843
33.7487 26.5307
33.7954 26.5626
33.842 26.5199
33.8887 26.4438
33.9353 26.441
33.982 26.2509
34.0286 26.1199
34.0753 26.0596
34.1219 25.993
34.1687 25.9364
34.2152 25.8519
34.262 25.7759
34.3086 25.6508
34.3554 25.6801
34.402 25.5105
34.4488 25.3323
34.4954 25.3456
34.5422 25.3129
34.5889 25.0758
34.6357 25.022
34.6825 24.8962
34.7292 24.8847
34.776 24.7859
34.8227 24.7537
34.8695 24.6518
34.9162 24.6657
34.9631 24.5398
35.0098 24.599
35.0566 24.4345
35.1033 24.3284
35.1502 24.2904
35.1969 24.267
35.2438 24.2652
35.2906 24.1897
35.3375 24.1053
35.3842 24.0138
35.4311 24.0446
35.4779 24.037
35.5248 23.9852
35.5716 23.7838
35.6185 23.7876
35.6653 23.7363
35.7123 23.6664
35.759 23.5554
35.806 23.412
35.8528 23.3564
35.8998 23.2155
35.9468 23.1474
35.9936 23.1262
36.0406 23.0461
36.0874 23.0662
36.1345 22.9413
36.1813 22.8095
36.2283 22.779
36.2752 22.6412
36.3222 22.6971
36.3691 22.6159
36.4161 22.4857
36.463 22.4606
36.5101 22.4367
36.557 22.4444
36.6041 22.2971
36.651 22.2016
36.6981 22.1867
36.745 22.1543
36.7921 22.0669
36.839 21.8353
36.8861 21.8023
36.9331 21.7458
36.9802 21.7451
37.0272 21.6283
37.0743 21.5459
37.1213 21.5435
37.1684 21.4688
37.2154 21.3819
37.2626 21.3395
37.3098 21.2863
37.3568 21.2474
37.404 21.116
37.451 21.0208
37.4982 21.0138
37.5452 20.9145
37.5924 20.8784
37.6395 20.8654
37.6867 20.785
37.7337 20.6137
37.781 20.5842
37.8281 20.509
37.8753 20.4237
37.9224 20.3725
37.9697 20.2877
38.0168 20.2089
38.064 20.2052
38.1111 20.196
38.1584 20.0814
38.2056 20.0105
38.2529 19.9847
38.3 19.9736
38.3473 19.922
38.3945 19.7562
38.4418 19.6542
38.489 19.6207
38.5363 19.5374
38.5837 19.4707
38.6309 19.4045
38.6782 19.4184
38.7254 19.3344
38.7728 19.3202
38.82 19.199
38.8674 19.1251
38.9146 19.07
38.9621 19.0406
39.0093 18.9933
39.0567 18.9561
39.104 18.8509
39.1514 18.7976
39.1987 18.792
39.2461 18.6947
39.2934 18.6044
39.3409 18.5356
39.3882 18.4474
39.4356 18.427
39.483 18.361
39.5304 18.2658
39.5778 18.281
39.6253 18.1907
39.6726 18.1592
39.7201 18.1095
39.7675 18.0562
39.815 17.9166
39.8624 17.9199
39.9099 17.8522
39.9575 17.8004
40.0049 17.8013
40.0525 17.7033
40.0999 17.599
40.1474 17.6023
40.1949 17.4503
40.2425 17.4579
40.2899 17.4679
40.3375 17.382
40.385 17.3179
40.4326 17.2332
40.48 17.1747
40.5277 17.0947
40.5752 17.1281
40.6228 16.9953
40.6703 16.9996
40.718 16.9168
40.7655 16.8413
40.8132 16.8081
40.8607 16.7335
40.9084 16.7321
40.9559 16.6519
41.0036 16.6608
41.0512 16.5412
41.0989 16.5496
41.1465 16.428
41.1942 16.3845
41.242 16.3149
41.2896 16.269
41.3373 16.2254
41.3849 16.1546
41.4327 16.0499
41.4803 16.0371
41.5281 15.9986
41.5758 15.909
41.6236 15.8808
41.6712 15.8578
41.7191 15.7698
41.7667 15.729
41.8146 15.6591
41.8622 15.6455
41.9101 15.5797
41.9578 15.4794
42.0057 15.4547
42.0534 15.4538
42.1013 15.4308
42.149 15.2784
42.1969 15.2399
42.2446 15.2016
42.2925 15.2029
42.3403 15.1333
42.3882 15.0727
42.436 15.0301
42.4839 14.9438
42.5319 14.9084
42.5797 14.8582
42.6277 14.8077
42.6755 14.7448
42.7235 14.7031
42.7713 14.7501
42.8193 14.6158
42.8671 14.5438
42.9152 14.4872
42.963 14.4486
43.0111 14.46
43.0589 14.4133
43.107 14.2565
43.1549 14.2335
43.2029 14.1602
43.2508 14.1527
43.2989 14.1115
43.3468 14.0511
43.3949 14.0169
43.4429 13.9946
43.491 13.952
43.5389 13.9238
43.5871 13.7772
43.635 13.7645
43.6832 13.7253
43.7312 13.6955
43.7793 13.6304
43.8273 13.6239
43.8755 13.522
43.9237 13.4911
43.9717 13.4587
44.0199 13.4199
44.068 13.3783
44.1162 13.2977
44.1642 13.2765
44.2125 13.2606
44.2606 13.1697
44.3088 13.1028
44.3569 13.1338
44.4052 13.0522
44.4533 12.9854
44.5016 12.9197
44.5497 12.9135
44.598 12.8863
44.6461 12.8275
44.6945 12.7754
44.7426 12.7638
44.791 12.6814
44.8391 12.6367
44.8875 12.5765
44.9357 12.5872
44.984 12.4912
45.0322 12.4718
45.0806 12.458
45.1288 12.3544
45.1773 12.3539
45.2257 12.2591
45.2739 12.265
45.3224 12.1954
45.3706 12.107
45.4191 12.0778
45.4673 12.0451
45.5158 12.0256
45.5641 11.9661
45.6126 11.9685
45.6609 11.8864
45.7094 11.8334
45.7577 11.8192
45.8063 11.7129
45.8546 11.7473
45.9031 11.7006
45.9515 11.6457
46.0001 11.6504
46.0484 11.5764
46.097 11.5169
46.1454 11.4937
46.194 11.4906
46.2424 11.4362
46.291 11.3281
46.3395 11.3376
46.3881 11.249
46.4365 11.228
46.4852 11.2462
46.5337 11.1589
46.5823 11.1186
46.631 11.0146
46.6795 11.043
46.7282 10.9798
46.7767 10.9282
46.8254 10.8833
46.8739 10.8406
46.9226 10.8413
46.9712 10.8262
47.0199 10.7301
47.0685 10.7086
47.1173 10.6921
47.1658 10.6368
47.2146 10.6062
47.2632 10.523
47.312 10.5244
47.3606 10.5174
47.4095 10.4374
47.4581 10.3883
47.5069 10.3588
47.5556 10.3119
47.6044 10.2982
47.6531 10.2565
47.702 10.1649
47.7507 10.1622
47.7996 10.1435
47.8483 10.0888
47.8972 10.067
47.9461 10.0028
47.9948 9.94957
48.0438 9.93406
48.0925 9.92512
48.1415 9.8905
48.1902 9.85682
48.2392 9.79254
48.288 9.7845
48.337 9.73948
48.3858 9.65994
48.4348 9.6953
48.4837 9.62066
48.5327 9.60187
48.5815 9.55851
48.6306 9.55584
48.6795 9.48535
48.7285 9.44052
48.7774 9.44888
48.8265 9.36573
48.8754 9.32131
48.9245 9.30738
48.9734 9.30962
49.0226 9.25881
49.0715 9.2233
49.1206 9.15852
49.1696 9.14125
49.2188 9.10358
49.2679 9.07577
49.3169 9.03917
49.3661 8.96963
49.4151 8.98512
49.4643 8.91534
49.5134 8.92054
49.5626 8.84263
49.6117 8.8123
49.6609 8.77766
49.71 8.74665
49.7592 8.74219
49.8083 8.67631
49.8576 8.70386
49.9067 8.61918
49.956 8.59922
50.0052 8.52173
50.0545 8.52549
50.1036 8.48713
50.153 8.41378
50.2022 8.45761
50.2515 8.3895
50.3007 8.34211
50.3501 8.31795
50.3993 8.31862
50.4487 8.27553
50.498 8.21152
50.5474 8.22436
50.5966 8.13348
50.6461 8.12254
50.6955 8.15501
50.7448 8.07606
50.7943 8.0464
50.8436 8.02015
50.8931 8.0241
50.9424 7.94971
50.9919 7.90689
51.0413 7.88722
51.0908 7.82657
51.1402 7.82141
51.1897 7.8423
51.2391 7.76721
51.2887 7.75057
51.3381 7.69702
51.3877 7.67337
51.4371 7.64926
51.4867 7.60873
51.5362 7.59268
51.5858 7.55314
51.6353 7.5313
51.6849 7.49027
51.7344 7.46346
51.7841 7.40779
51.8336 7.38054
51.8833 7.36586
51.9328 7.35672
51.9826 7.26008
52.0323 7.23458
52.0818 7.21737
52.1316 7.20924
52.1812 7.15128
52.231 7.15265
52.2806 7.10968
52.3304 7.1019
52.38 7.07888
52.4298 7.05844
52.4794 7.0129
52.5293 6.97344
52.5789 6.98367
52.6288 6.94723
52.6785 6.90077
52.7284 6.86858
52.7781 6.80733
52.828 6.80532
52.8777 6.72758
52.9276 6.72477
52.9774 6.73034
53.0273 6.67519
53.0771 6.68104
53.1271 6.64574
53.1769 6.58708
53.2269 6.5604
53.2767 6.55502
53.3267 6.52931
53.3765 6.50921
53.4266 6.44635
53.4766 6.42427
53.5265 6.42556
53.5765 6.36037
53.6264 6.33583
53.6765 6.33228
53.7264 6.29397
53.7765 6.32733
53.8265 6.26842
53.8766 6.23642
53.9266 6.16691
53.9767 6.18277
54.0267 6.13432
54.0769 6.10048
54.1269 6.07145
54.1771 6.03632
54.2271 6.05036
54.2773 5.98604
54.3274 5.91983
54.3776 5.95778
54.4277 5.91769
54.478 5.86009
54.528 5.82827
54.5783 5.77706
54.6285 5.71245
54.6788 5.71161
54.7289 5.67564
54.7792 5.61305
54.8296 5.52854
54.8798 5.53372
54.9301 5.48817
54.9803 5.49449
55.0307 5.44431
55.0809 5.4115
55.1314 5.32311
55.1816 5.29406
55.232 5.28815
55.2823 5.24811
55.3328 5.20672
55.383 5.12771
55.4335 5.12022
55.4838 4.99564
55.5344 4.94154
55.5847 4.91697
55.6352 4.89758
55.6856 4.87413
55.7361 4.84224