File: XRD/Ni3Fe_FD0253.xy
TT I
1.27165 8.1092
1.31627 7.2002
1.36089 6.86609
1.40551 6.63858
1.45013 6.3501
1.49476 6.36772
1.53938 6.20747
1.584 5.86696
1.62863 5.30037
1.67325 5.08178
1.71787 4.88149
1.7625 5.29232
1.80712 5.50186
1.85174 5.21326
1.89636 5.11483
1.94099 4.78217
1.98562 5.04519
2.03025 5.21105
2.07487 4.75854
2.11949 4.73803
2.16411 4.41963
2.20874 4.38348
2.25338 4.86757
2.298 4.75051
2.34263 5.02576
2.38725 4.71209
2.43188 5.23697
2.4765 5.42167
2.52115 4.9575
2.56577 5.71163
2.6104 5.64275
2.65503 6.46673
2.69965 5.58865
2.7443 6.37031
2.78893 7.0956
2.83356 7.48335
2.87818 8.52194
2.92281 8.34821
2.96744 9.60151
3.01209 10.5372
3.05672 11.1939
3.10135 12.4713
3.14599 13.1158
3.19062 14.1791
3.23527 14.827
3.2799 16.2228
3.32454 16.4008
3.36917 17.9796
3.4138 18.9345
3.45844 19.4053
3.50309 20.9001
3.54773 21.4207
3.59237 21.8741
3.637 23.0253
3.68164 23.6399
3.7263 25.2131
3.77094 25.7953
3.81558 26.7951
3.86022 27.5012
3.90486 28.9148
3.9495 29.6329
3.99416 30.7844
4.0388 32.3128
4.08344 34.1636
4.12809 34.5946
4.17273 36.2008
4.21738 37.9042
4.26204 39.2023
4.30669 40.306
4.35133 42.6771
4.39598 44.0852
4.44063 45.8371
4.4853 48.4883
4.52995 53.1741
4.5746 54.2885
4.61925 55.2723
4.6639 57.7786
4.70855 61.2664
4.75322 64.3742
4.79788 68.3968
4.84253 71.489
4.88719 76.6984
4.93184 81.127
4.97652 88.1097
5.02118 95.5721
5.06583 106.044
5.11049 122.372
5.15515 167.076
5.19981 870.416
5.24449 3961.64
5.28916 10548.5
5.33382 3918.38
5.37848 259.97
5.42315 150.849
5.46783 128.836
5.5125 117.695
5.55716 111.42
5.60183 105.711
5.6465 103.331
5.69117 102.433
5.73586 100.317
5.78053 101.984
5.8252 101.862
5.86988 104.293
5.91455 108.955
5.95924 131.066
6.00392 440.034
6.0486 1428.04
6.09328 3710.01
6.13795 3626.42
6.18263 344.572
6.22733 107.835
6.27201 88.4647
6.3167 80.3234
6.36138 75.9765
6.40606 72.7383
6.45075 70.8373
6.49545 68.3218
6.54014 66.16
6.58483 65.3263
6.62952 63.974
6.67421 62.1516
6.71892 61.1945
6.76361 60.4239
6.8083 59.9441
6.853 59.3241
6.89769 58.0701
6.94239 57.9733
6.98711 57.255
7.03181 56.9965
7.07651 56.4821
7.12121 56.0794
7.16591 56.6042
7.21063 56.1628
7.25533 55.2662
7.30004 55.1896
7.34475 55.6376
7.38945 55.8714
7.43416 55.2392
7.47889 55.3752
7.5236 55.7347
7.56831 56.6212
7.61303 56.771
7.65774 56.9816
7.70247 58.0843
7.74719 57.8388
7.79191 58.2955
7.83663 58.8389
7.88135 59.7911
7.92607 61.1291
7.97081 62.2485
8.01553 63.4641
8.06026 65.0565
8.10498 66.5566
8.14971 69.0947
8.19446 70.3084
8.23919 72.8681
8.28392 76.2802
8.32865 78.7285
8.37339 83.8765
8.41812 89.847
8.46288 110.597
8.50761 287.466
8.55235 576.854
8.59709 1084.47
8.64183 2000.38
8.68658 1197.91
8.73134 209.477
8.77609 109.639
8.82083 99.2006
8.86558 95.617
8.91033 93.4221
8.9551 90.3892
8.99985 89.0471
9.04461 88.038
9.08936 87.6301
9.13412 86.2707
9.17888 86.0102
9.22365 86.1085
9.26841 86.0998
9.31318 87.9009
9.35794 87.59
9.4027 88.251
9.44749 88.7925
9.49226 89.1642
9.53703 90.4083
9.5818 92.6017
9.62657 94.5627
9.67134 95.0149
9.71614 97.0645
9.76091 99.6199
9.80569 103.689
9.85047 106.313
9.89525 112.489
9.94005 136.962
9.98484 298.693
10.0296 512.93
10.0744 814.298
10.1192 1480.02
10.164 1736.39
10.2088 525.061
10.2536 145.354
10.2984 116.786
10.3432 112.067
10.388 114.665
10.4328 157.47
10.4776 209.617
10.5224 285.072
10.5672 453.363
10.612 532.584
10.6568 243.037
10.7017 105.871
10.7465 91.8041
10.7913 87.602
10.8361 85.053
10.8809 82.5584
10.9257 80.6656
10.9706 79.5105
11.0154 77.2954
11.0602 75.6719
11.105 74.7312
11.1499 72.7789
11.1947 72.0369
11.2395 70.899
11.2844 70.3335
11.3292 69.6987
11.374 68.7238
11.4189 68.3133
11.4637 67.3344
11.5086 66.6026
11.5534 66.2739
11.5983 66.0808
11.6431 65.891
11.688 65.2815
11.7328 65.4075
11.7777 64.9994
11.8225 65.0557
11.8674 64.9499
11.9122 65.371
11.9571 65.8229
12.002 68.5566
12.0468 79.1116
12.0917 93.8451
12.1366 109.143
12.1814 141.584
12.2263 196.076
12.2712 186.511
12.3161 103.901
12.3609 69.5001
12.4058 66.96
12.4507 67.0679
12.4956 67.0557
12.5405 67.262
12.5853 67.634
12.6302 68.0984
12.6751 68.6406
12.72 69.2968
12.7649 70.2883
12.8098 71.4735
12.8547 72.9644
12.8996 74.7235
12.9445 75.9483
12.9894 78.3592
13.0343 80.7001
13.0792 86.0104
13.1242 110.57
13.1691 145.161
13.214 175.053
13.2589 232.205
13.3038 326.046
13.3487 421.243
13.3937 306.537
13.4386 148.381
13.4835 132.204
13.5285 151.634
13.5734 175.835
13.6183 229.106
13.6633 317.481
13.7082 361.293
13.7531 223.89
13.7981 109.258
13.843 86.5318
13.888 83.6314
13.9329 80.7208
13.9779 79.7411
14.0228 77.8902
14.0678 76.5339
14.1127 75.787
14.1577 74.9062
14.2027 74.3296
14.2476 73.7057
14.2926 72.9209
14.3376 72.5263
14.3825 72.4612
14.4275 72.0873
14.4725 71.9836
14.5175 72.1925
14.5624 72.1556
14.6074 72.488
14.6524 73.2136
14.6974 74.2544
14.7424 80.9847
14.7874 94.3721
14.8324 105.658
14.8774 120.01
14.9224 146.77
14.9674 189.463
15.0124 221.47
15.0574 167.544
15.1024 99.6965
15.1474 76.324
15.1924 73.6342
15.2374 71.8366
15.2824 70.935
15.3274 70.0281
15.3725 69.8183
15.4175 69.7371
15.4625 69.0489
15.5076 68.6102
15.5526 68.8988
15.5976 69.6911
15.6426 74.7708
15.6877 85.5068
15.7327 93.9917
15.7778 104.0
15.8228 123.274
15.8679 153.831
15.9129 188.768
15.958 170.453
16.003 109.575
16.0481 72.1978
16.0931 65.3217
16.1382 63.5115
16.1833 62.7173
16.2283 61.3594
16.2734 60.7455
16.3185 59.7515
16.3636 59.3736
16.4086 58.3608
16.4537 58.2628
16.4988 57.7268
16.5439 57.7187
16.589 57.2507
16.6341 57.2802
16.6792 56.7918
16.7243 56.9566
16.7694 56.8596
16.8145 56.8521
16.8596 56.9654
16.9047 57.264
16.9498 57.4579
16.9949 57.6587
17.04 58.9981
17.0851 61.5809
17.1302 63.3326
17.1754 65.5608
17.2205 69.0061
17.2656 74.1646
17.3108 81.9776
17.3559 85.5345
17.401 76.686
17.4462 66.2807
17.4913 62.1565
17.5365 61.6102
17.5815 61.9807
17.6268 62.4776
17.6718 62.7389
17.7171 63.4463
17.7622 64.5045
17.8074 66.2704
17.8525 71.8039
17.8977 77.5496
17.9428 82.3442
17.9881 88.4306
18.0331 99.5184
18.0784 116.182
18.1237 139.295
18.1688 143.264
18.214 116.679
18.2591 93.1542
18.3044 90.4591
18.3495 97.3192
18.3948 106.522
18.4399 101.419
18.4852 82.8982
18.5303 69.4924
18.5756 65.1074
18.6207 64.2399
18.666 63.1348
18.7112 62.3407
18.7565 61.5856
18.8016 61.2168
18.8469 60.7347
18.892 60.2754
18.9374 60.013
18.9825 59.5772
19.0278 59.4629
19.073 60.1433
19.1183 60.9227
19.1635 61.8069
19.2088 62.6463
19.254 64.5411
19.2993 67.1872
19.3447 71.5924
19.3898 76.3304
19.4352 75.9265
19.4804 67.5258
19.5257 59.8272
19.5709 57.0152
19.6163 56.1443
19.6615 56.1713
19.7068 55.6878
19.752 55.7101
19.7974 56.8768
19.8426 57.947
19.888 58.7618
19.9332 59.3481
19.9786 61.1906
20.0238 63.99
20.0692 68.2527
20.1144 72.3281
20.1598 72.5819
20.205 67.7905
20.2504 64.1201
20.2957 64.5264
20.3411 66.7766
20.3863 67.0858
20.4318 61.9837
20.477 56.2343
20.5224 53.5583
20.5677 52.7108
20.6131 52.4004
20.6586 51.9005
20.7038 51.8208
20.7493 51.1828
20.7945 51.1438
20.84 50.9803
20.8853 50.9231
20.9307 50.9263
20.976 51.1745
21.0215 50.9214
21.0668 51.3332
21.1122 51.5133
21.1575 52.0067
21.203 52.4378
21.2483 53.2142
21.2938 53.7457
21.3391 52.4671
21.3846 51.1932
21.4299 50.7393
21.4754 50.613
21.5207 50.7543
21.5662 51.4235
21.6116 52.543
21.6571 53.2245
21.7024 54.1019
21.7479 55.3319
21.7933 57.5472
21.8388 60.0871
21.8843 63.5808
21.9297 66.432
21.9752 66.78
22.0206 62.4333
22.0661 58.4645
22.1115 57.4762
22.157 57.9046
22.2024 57.1041
22.248 54.3874
22.2933 52.1218
22.3389 51.1671
22.3843 51.0508
22.4299 50.5621
22.4753 50.613
22.5208 50.6156
22.5662 50.6295
22.6118 51.2276
22.6572 51.7412
22.7028 52.2324
22.7483 52.6347
22.7939 52.9172
22.8393 54.2408
22.8849 55.3428
22.9303 57.2096
22.9759 59.2555
23.0214 59.6965
23.067 57.6451
23.1126 54.0179
23.1581 51.8093
23.2037 51.3392
23.2492 51.6214
23.2948 51.6008
23.3403 52.0033
23.3859 52.5167
23.4314 53.1542
23.477 54.2112
23.5225 55.527
23.5682 57.6053
23.6137 59.6541
23.6593 58.3688
23.7048 54.7322
23.7505 50.9244
23.796 48.8396
23.8417 48.0488
23.8872 47.4664
23.9329 47.1909
23.9784 46.6849
24.0241 46.5501
24.0697 46.3279
24.1154 45.9191
24.1609 45.7352
24.2066 45.7499
24.2522 45.5647
24.2979 45.2344
24.3434 45.222
24.3892 45.0491
24.4349 44.9582
24.4805 44.7062
24.5262 44.8631
24.5718 44.7591
24.6175 44.7505
24.6631 44.6719
24.7089 44.2738
24.7545 44.3589
24.8002 44.1739
24.8458 44.2423
24.8916 44.0351
24.9372 44.3068
24.983 44.6272
25.0286 44.8453
25.0744 45.0777
25.12 45.4614
25.1658 46.0495
25.2114 46.3842
25.2572 46.4529
25.3029 46.2479
25.3487 46.6183
25.3943 46.5346
25.4402 45.5772
25.4858 44.4737
25.5316 43.4092
25.5773 42.7235
25.6231 42.8823
25.669 42.3747
25.7147 42.4769
25.7605 42.2853
25.8062 42.3958
25.8521 42.4824
25.8977 42.4244
25.9436 42.5182
25.9893 42.5119
26.0352 42.9304
26.0809 43.1262
26.1268 43.5113
26.1725 43.2617
26.2184 42.7265
26.2641 42.208
26.31 42.0896
26.3557 42.0324
26.4017 42.0462
26.4474 42.3084
26.4933 42.2898
26.5391 42.7232
26.585 43.1446
26.6308 43.4828
26.6767 43.911
26.7225 43.7627
26.7684 43.2668
26.8142 42.6005
26.8601 42.3003
26.9059 41.926
26.9519 41.3056
26.9979 41.0543
27.0437 40.5874
27.0896 40.5678
27.1354 40.4679
27.1814 40.3456
27.2272 40.2286
27.2732 40.2023
27.3191 39.9808
27.3651 40.0513
27.4109 39.9747
27.4569 40.0356
27.5027 40.0627
27.5488 40.1876
27.5946 40.0924
27.6407 39.9452
27.6865 39.8885
27.7326 39.6343
27.7784 39.5546
27.8245 39.5482
27.8703 39.6045
27.9164 39.9201
27.9623 39.6873
28.0084 40.2098
28.0543 40.4893
28.1003 40.4451
28.1462 40.4558
28.1923 40.0447
28.2384 39.5494
28.2843 39.235
28.3304 38.8559
28.3764 38.305
28.4225 37.8759
28.4684 37.8153
28.5145 37.4613
28.5605 37.3733
28.6066 37.196
28.6526 37.1066
28.6987 37.0805
28.7447 36.8776
28.7908 36.7778
28.8368 36.8198
28.8829 36.7674
28.9289 36.8072
28.9751 36.6603
29.0211 36.579
29.0673 36.2265
29.1133 36.0901
29.1595 35.8443
29.2055 35.8115
29.2517 35.7874
29.2977 35.788
29.3439 35.6374
29.3899 35.599
29.4361 35.4853
29.4824 35.4155
29.5284 35.1768
29.5746 34.829
29.6207 34.5946
29.6669 34.4845
29.713 34.3362
29.7593 34.2338
29.8053 34.2776
29.8516 34.1824
29.8977 34.1693
29.9439 34.1097
29.99 33.9329
30.0363 33.7326
30.0824 33.7861
30.1287 33.7656
30.1748 33.7992
30.2211 33.7959
30.2673 33.6531
30.3136 33.8111
30.3597 33.5916
30.406 33.5868
30.4522 33.368
30.4985 33.3773
30.5447 33.4752
30.591 33.4806
30.6372 33.4789
30.6835 33.4092
30.7297 33.4717
30.7761 33.5658
30.8224 33.332
30.8686 33.2438
30.915 32.9985
30.9612 32.7884
31.0076 32.8184
31.0538 32.5284
31.1002 32.4351
31.1464 32.2326
31.1928 32.2962
31.2391 32.2009
31.2855 32.0841
31.3317 32.1017
31.3781 32.241
31.4244 32.155
31.4708 32.0518
31.5171 32.0727
31.5636 32.0874
31.6098 31.8368
31.6563 31.7107
31.7026 31.4856
31.7491 31.4429
31.7953 31.4911
31.8418 31.392
31.8881 31.3844
31.9346 31.2997
31.9809 31.3749
32.0275 31.1927
32.074 31.0503
32.1203 30.8915
32.1668 30.731
32.2132 30.679
32.2597 30.4557
32.306 30.4425
32.3526 30.1843
32.399 30.139
32.4455 30.0145
32.4919 29.9077
32.5385 29.8663
32.5848 29.6765
32.6314 29.7312
32.6778 29.6332
32.7244 29.5651
32.7708 29.3876
32.8174 29.391
32.8638 29.237
32.9104 29.2948
32.9569 29.1203
33.0035 29.1099
33.0499 28.953
33.0966 28.8459
33.143 28.9988
33.1897 28.8106
33.2361 28.7192
33.2828 28.7658
33.3293 28.55
33.3759 28.5293
33.4226 28.3594
33.4691 28.2963
33.5158 28.2185
33.5623 27.9702
33.609 27.8797
33.6555 27.797
33.7022 27.7748
33.7487 27.6406
33.7954 27.5812
33.842 27.444
33.8887 27.416
33.9353 27.3501
33.982 27.2042
34.0286 27.1526
34.0753 27.0943
34.1219 26.9649
34.1687 26.9364
34.2152 26.8392
34.262 26.7385
34.3086 26.5847
34.3554 26.6202
34.402 26.4033
34.4488 26.3507
34.4954 26.2695
34.5422 26.1893
34.5889 26.0861
34.6357 26.0257
34.6825 25.9503
34.7292 25.9363
34.776 25.7343
34.8227 25.8099
34.8695 25.643
34.9162 25.6194
34.9631 25.472
35.0098 25.446
35.0566 25.3547
35.1033 25.2431
35.1502 25.3044
35.1969 25.2086
35.2438 25.1341
35.2906 25.0479
35.3375 25.0956
35.3842 24.9715
35.4311 24.9577
35.4779 24.9231
35.5248 24.7884
35.5716 24.7145
35.6185 24.6538
35.6653 24.5936
35.7123 24.5555
35.759 24.4482
35.806 24.3378
35.8528 24.184
35.8998 24.1162
35.9468 24.1585
35.9936 24.0861
36.0406 23.9506
36.0874 23.9862
36.1345 23.8959
36.1813 23.7765
36.2283 23.6868
36.2752 23.603
36.3222 23.6303
36.3691 23.5225
36.4161 23.3345
36.463 23.3443
36.5101 23.3066
36.557 23.2691
36.6041 23.1142
36.651 23.1249
36.6981 23.0256
36.745 22.9939
36.7921 22.8823
36.839 22.7187
36.8861 22.7144
36.9331 22.6314
36.9802 22.5581
37.0272 22.535
37.0743 22.4174
37.1213 22.361
37.1684 22.2712
37.2154 22.2146
37.2626 22.1137
37.3098 22.0997
37.3568 21.9895
37.404 21.9915
37.451 21.8246
37.4982 21.8385
37.5452 21.7875
37.5924 21.62
37.6395 21.6093
37.6867 21.4825
37.7337 21.4968
37.781 21.3009
37.8281 21.2869
37.8753 21.1888
37.9224 21.1483
37.9697 21.1214
38.0168 21.0936
38.064 20.9509
38.1111 20.9116
38.1584 20.7892
38.2056 20.7985
38.2529 20.6611
38.3 20.6571
38.3473 20.6432
38.3945 20.5098
38.4418 20.5104
38.489 20.3996
38.5363 20.4064
38.5837 20.2803
38.6309 20.2322
38.6782 20.1114
38.7254 20.0224
38.7728 20.0098
38.82 19.9584
38.8674 19.8548
38.9146 19.8549
38.9621 19.7103
39.0093 19.7216
39.0567 19.6505
39.104 19.5725
39.1514 19.4385
39.1987 19.3865
39.2461 19.4039
39.2934 19.3149
39.3409 19.2232
39.3882 19.1695
39.4356 19.1275
39.483 19.0497
39.5304 18.9636
39.5778 19.0613
39.6253 18.8479
39.6726 18.8064
39.7201 18.7963
39.7675 18.74
39.815 18.6576
39.8624 18.5739
39.9099 18.6415
39.9575 18.4341
40.0049 18.4459
40.0525 18.3579
40.0999 18.3124
40.1474 18.244
40.1949 18.1923
40.2425 18.118
40.2899 18.0879
40.3375 18.0457
40.385 17.9756
40.4326 17.8957
40.48 17.8756
40.5277 17.7899
40.5752 17.7192
40.6228 17.7219
40.6703 17.6838
40.718 17.5804
40.7655 17.5333
40.8132 17.4224
40.8607 17.4371
40.9084 17.3567
40.9559 17.2627
41.0036 17.2244
41.0512 17.2002
41.0989 17.1806
41.1465 17.0783
41.1942 17.0083
41.242 16.8629
41.2896 16.8251
41.3373 16.7582
41.3849 16.7677
41.4327 16.6616
41.4803 16.6117
41.5281 16.5435
41.5758 16.5285
41.6236 16.5256
41.6712 16.4239
41.7191 16.3846
41.7667 16.3962
41.8146 16.2664
41.8622 16.2129
41.9101 16.1624
41.9578 16.0934
42.0057 16.0791
42.0534 15.9786
42.1013 15.9709
42.149 15.9248
42.1969 15.8593
42.2446 15.7803
42.2925 15.7042
42.3403 15.6468
42.3882 15.683
42.436 15.647
42.4839 15.5111
42.5319 15.5016
42.5797 15.42
42.6277 15.3857
42.6755 15.2743
42.7235 15.2593
42.7713 15.2186
42.8193 15.2056
42.8671 15.1032
42.9152 15.0205
42.963 15.0051
43.0111 14.9769
43.0589 14.9332
43.107 14.8571
43.1549 14.8098
43.2029 14.7723
43.2508 14.707
43.2989 14.6499
43.3468 14.5858
43.3949 14.5785
43.4429 14.5093
43.491 14.4874
43.5389 14.4086
43.5871 14.3911
43.635 14.3159
43.6832 14.2227
43.7312 14.1957
43.7793 14.152
43.8273 14.0916
43.8755 14.0468
43.9237 13.9866
43.9717 13.9697
44.0199 13.9236
44.068 13.8653
44.1162 13.7611
44.1642 13.7373
44.2125 13.6734
44.2606 13.6656
44.3088 13.6252
44.3569 13.5835
44.4052 13.5619
44.4533 13.4886
44.5016 13.4132
44.5497 13.379
44.598 13.3325
44.6461 13.2813
44.6945 13.2524
44.7426 13.2007
44.791 13.1278
44.8391 13.0856
44.8875 13.0391
44.9357 12.9724
44.984 12.9967
45.0322 12.8868
45.0806 12.8416
45.1288 12.8003
45.1773 12.7965
45.2257 12.7116
45.2739 12.7066
45.3224 12.6767
45.3706 12.6002
45.4191 12.5388
45.4673 12.5194
45.5158 12.4651
45.5641 12.457
45.6126 12.3495
45.6609 12.3201
45.7094 12.2682
45.7577 12.2396
45.8063 12.1259
45.8546 12.1703
45.9031 12.1025
45.9515 12.0642
46.0001 12.0747
46.0484 12.0059
46.097 11.9954
46.1454 11.9152
46.194 11.8692
46.2424 11.8378
46.291 11.7866
46.3395 11.6982
46.3881 11.6549
46.4365 11.6129
46.4852 11.5902
46.5337 11.5884
46.5823 11.5786
46.631 11.4965
46.6795 11.4116
46.7282 11.3892
46.7767 11.3545
46.8254 11.2852
46.8739 11.2219
46.9226 11.2024
46.9712 11.1467
47.0199 11.1667
47.0685 11.1081
47.1173 11.0553
47.1658 10.9882
47.2146 10.9694
47.2632 10.9068
47.312 10.8833
47.3606 10.8386
47.4095 10.7701
47.4581 10.7838
47.5069 10.7387
47.5556 10.6711
47.6044 10.6431
47.6531 10.6023
47.702 10.5458
47.7507 10.5366
47.7996 10.4792
47.8483 10.4206
47.8972 10.4443
47.9461 10.3689
47.9948 10.3267
48.0438 10.3112
48.0925 10.2917
48.1415 10.2361
48.1902 10.1371
48.2392 10.1843
48.288 10.1252
48.337 10.096
48.3858 9.98897
48.4348 9.99114
48.4837 9.97454
48.5327 9.96071
48.5815 9.90594
48.6306 9.88653
48.6795 9.8287
48.7285 9.76614
48.7774 9.79362
48.8265 9.71268
48.8754 9.69606
48.9245 9.63227
48.9734 9.59306
49.0226 9.61826
49.0715 9.56544
49.1206 9.53902
49.1696 9.49145
49.2188 9.46459
49.2679 9.39339
49.3169 9.34501
49.3661 9.30789
49.4151 9.27215
49.4643 9.30945
49.5134 9.2181
49.5626 9.17718
49.6117 9.14834
49.6609 9.09819
49.71 9.06374
49.7592 9.03422
49.8083 8.98327
49.8576 8.98199
49.9067 8.96047
49.956 8.91181
50.0052 8.88152
50.0545 8.84557
50.1036 8.79769
50.153 8.77221
50.2022 8.73074
50.2515 8.69295
50.3007 8.64784
50.3501 8.61128
50.3993 8.59325
50.4487 8.58071
50.498 8.54836
50.5474 8.50911
50.5966 8.44919
50.6461 8.43757
50.6955 8.39892
50.7448 8.36746
50.7943 8.35625
50.8436 8.2876
50.8931 8.30891
50.9424 8.24877
50.9919 8.21342
51.0413 8.15914
51.0908 8.1619
51.1402 8.11427
51.1897 8.09955
51.2391 8.03428
51.2887 8.04368
51.3381 7.9824
51.3877 7.96258
51.4371 7.9028
51.4867 7.86758
51.5362 7.84715
51.5858 7.79581
51.6353 7.80282
51.6849 7.7633
51.7344 7.70764
51.7841 7.71861
51.8336 7.6696
51.8833 7.60542
51.9328 7.57334
51.9826 7.5468
52.0323 7.54094
52.0818 7.46928
52.1316 7.43853
52.1812 7.41669
52.231 7.37945
52.2806 7.35504
52.3304 7.33413
52.38 7.33914
52.4298 7.26837
52.4794 7.25789
52.5293 7.22426
52.5789 7.16323
52.6288 7.14902
52.6785 7.12189
52.7284 7.13554
52.7781 7.05951
52.828 7.03268
52.8777 6.98891
52.9276 6.99067
52.9774 6.95949
53.0273 6.91903
53.0771 6.89198
53.1271 6.86092
53.1769 6.84675
53.2269 6.80155
53.2767 6.74777
53.3267 6.78854
53.3765 6.69773
53.4266 6.69976
53.4766 6.66786
53.5265 6.63331
53.5765 6.63298
53.6264 6.54644
53.6765 6.57525
53.7264 6.50921
53.7765 6.48041
53.8265 6.49503
53.8766 6.45293
53.9266 6.40068
53.9767 6.36933
54.0267 6.35077
54.0769 6.31763
54.1269 6.29722
54.1771 6.27741
54.2271 6.25537
54.2773 6.1816
54.3274 6.12379
54.3776 6.09072
54.4277 6.09618
54.478 6.04324
54.528 5.95897
54.5783 5.94113
54.6285 5.91847
54.6788 5.88721
54.7289 5.8457
54.7792 5.76822
54.8296 5.74655
54.8798 5.72828
54.9301 5.66318
54.9803 5.65517
55.0307 5.63108
55.0809 5.5431
55.1314 5.52924
55.1816 5.47431
55.232 5.42924
55.2823 5.39166
55.3328 5.29977
55.383 5.24975
55.4335 5.21993
55.4838 5.11602
55.5344 5.13895
55.5847 5.08994
55.6352 5.09164
55.6856 5.01526
55.7361 4.9824