File: XRD/Ni3Fe_FD0271.xy
TT I
1.27165 7.68424
1.31627 7.18214
1.36089 7.4565
1.40551 5.79071
1.45013 6.22831
1.49476 5.7443
1.53938 5.78412
1.584 5.78483
1.62863 5.97272
1.67325 5.06129
1.71787 6.33775
1.7625 5.07837
1.80712 5.07661
1.85174 5.21524
1.89636 4.55595
1.94099 5.32217
1.98562 4.55684
2.03025 4.02794
2.07487 4.84487
2.11949 5.39405
2.16411 4.76969
2.20874 13.1042
2.25338 20.3163
2.298 4.9805
2.34263 4.41956
2.38725 4.86202
2.43188 5.45287
2.4765 5.15845
2.52115 5.33037
2.56577 5.78748
2.6104 6.74218
2.65503 6.73325
2.69965 7.01709
2.7443 6.78651
2.78893 7.18803
2.83356 7.57354
2.87818 8.44709
2.92281 8.34912
2.96744 9.29892
3.01209 10.1782
3.05672 11.2918
3.10135 12.2167
3.14599 12.9852
3.19062 14.3885
3.23527 15.2691
3.2799 15.4619
3.32454 17.3441
3.36917 17.466
3.4138 19.1196
3.45844 19.8002
3.50309 21.1593
3.54773 21.9838
3.59237 24.3776
3.637 83.6617
3.68164 55.4399
3.7263 26.8733
3.77094 26.8013
3.81558 27.3508
3.86022 28.0012
3.90486 29.0472
3.9495 30.1821
3.99416 31.747
4.0388 33.248
4.08344 34.6787
4.12809 35.974
4.17273 37.9577
4.21738 43.5583
4.26204 218.067
4.30669 198.693
4.35133 49.5188
4.39598 45.8944
4.44063 53.9989
4.4853 64.587
4.52995 53.8103
4.5746 53.5796
4.61925 55.2623
4.6639 57.1163
4.70855 60.2057
4.75322 63.426
4.79788 67.0434
4.84253 69.9698
4.88719 74.9598
4.93184 78.8631
4.97652 85.0102
5.02118 92.6208
5.06583 101.85
5.11049 117.318
5.15515 191.955
5.19981 530.874
5.24449 3386.79
5.28916 10850.8
5.33382 4211.83
5.37848 266.119
5.42315 149.916
5.46783 126.609
5.5125 115.281
5.55716 109.243
5.60183 104.768
5.6465 102.437
5.69117 99.8248
5.73586 97.4887
5.78053 98.3626
5.8252 98.5212
5.86988 99.6482
5.91455 103.181
5.95924 115.744
6.00392 273.71
6.0486 1186.77
6.09328 3702.04
6.13795 3750.12
6.18263 375.691
6.22733 107.843
6.27201 89.5478
6.3167 103.866
6.36138 83.722
6.40606 72.8311
6.45075 70.7038
6.49545 68.6081
6.54014 66.4588
6.58483 65.5245
6.62952 65.3527
6.67421 90.6587
6.71892 135.726
6.76361 70.4068
6.8083 60.9546
6.853 59.8774
6.89769 58.8569
6.94239 58.4958
6.98711 57.7726
7.03181 57.7471
7.07651 57.7281
7.12121 56.8142
7.16591 57.3034
7.21063 57.2557
7.25533 69.7441
7.30004 164.666
7.34475 90.313
7.38945 58.3449
7.43416 56.7157
7.47889 56.1781
7.5236 56.6624
7.56831 57.3611
7.61303 58.9446
7.65774 59.2021
7.70247 58.2321
7.74719 58.1939
7.79191 58.6277
7.83663 58.9391
7.88135 60.4777
7.92607 61.258
7.97081 61.985
8.01553 63.245
8.06026 65.2725
8.10498 66.46
8.14971 75.2483
8.19446 75.0948
8.23919 72.4128
8.28392 75.0783
8.32865 77.0916
8.37339 82.1152
8.41812 89.45
8.46288 118.446
8.50761 195.172
8.55235 481.408
8.59709 1073.0
8.64183 1992.6
8.68658 1253.35
8.73134 235.513
8.77609 109.445
8.82083 99.1356
8.86558 94.9588
8.91033 94.712
8.9551 95.1986
8.99985 89.1105
9.04461 87.2107
9.08936 86.8341
9.13412 85.2591
9.17888 85.5355
9.22365 86.0099
9.26841 85.5568
9.31318 86.5669
9.35794 86.9295
9.4027 86.443
9.44749 87.4492
9.49226 88.1556
9.53703 89.2842
9.5818 91.2928
9.62657 95.4971
9.67134 101.699
9.71614 97.8151
9.76091 97.8931
9.80569 101.455
9.85047 104.431
9.89525 126.414
9.94005 141.667
9.98484 205.03
10.0296 426.684
10.0744 781.169
10.1192 1473.64
10.164 1725.89
10.2088 596.952
10.2536 153.775
10.2984 120.805
10.3432 120.359
10.388 110.659
10.4328 129.77
10.4776 184.007
10.5224 272.58
10.5672 455.739
10.612 535.409
10.6568 264.484
10.7017 108.908
10.7465 91.8554
10.7913 87.5408
10.8361 85.024
10.8809 82.6144
10.9257 81.7987
10.9706 82.2204
11.0154 78.0752
11.0602 75.8133
11.105 74.7512
11.1499 78.1102
11.1947 84.7413
11.2395 76.5376
11.2844 73.0086
11.3292 69.838
11.374 68.6614
11.4189 68.0795
11.4637 67.4658
11.5086 67.6052
11.5534 70.3692
11.5983 68.0001
11.6431 66.1447
11.688 65.5439
11.7328 65.4255
11.7777 64.9914
11.8225 64.9324
11.8674 64.9845
11.9122 65.2854
11.9571 65.4358
12.002 66.6106
12.0468 71.9506
12.0917 86.8454
12.1366 106.706
12.1814 141.891
12.2263 194.26
12.2712 186.345
12.3161 113.228
12.3609 74.9808
12.4058 67.7087
12.4507 67.0767
12.4956 66.9828
12.5405 67.3132
12.5853 68.0757
12.6302 74.6191
12.6751 80.0256
12.72 72.6628
12.7649 70.3426
12.8098 70.9268
12.8547 72.3689
12.8996 73.7024
12.9445 75.0655
12.9894 77.0057
13.0343 78.9026
13.0792 82.4105
13.1242 93.8446
13.1691 125.816
13.214 163.437
13.2589 224.368
13.3038 328.376
13.3487 427.138
13.3937 323.547
13.4386 153.729
13.4835 116.186
13.5285 136.876
13.5734 165.852
13.6183 227.632
13.6633 317.107
13.7082 358.007
13.7531 236.579
13.7981 114.66
13.843 86.4619
13.888 83.4619
13.9329 80.7296
13.9779 79.3563
14.0228 77.4926
14.0678 76.1378
14.1127 75.7595
14.1577 75.5707
14.2027 74.4678
14.2476 73.316
14.2926 73.4823
14.3376 74.2045
14.3825 73.1193
14.4275 71.59
14.4725 71.7235
14.5175 71.8014
14.5624 71.8572
14.6074 73.908
14.6524 74.3514
14.6974 73.5327
14.7424 75.4761
14.7874 84.2274
14.8324 98.6441
14.8774 114.606
14.9224 144.499
14.9674 189.571
15.0124 219.934
15.0574 175.206
15.1024 105.964
15.1474 77.4001
15.1924 73.7815
15.2374 73.8991
15.2824 73.025
15.3274 70.9887
15.3725 69.6847
15.4175 69.303
15.4625 68.7422
15.5076 68.9883
15.5526 68.8968
15.5976 68.86
15.6426 69.8704
15.6877 77.2979
15.7327 87.8787
15.7778 99.8574
15.8228 121.263
15.8679 155.718
15.9129 189.839
15.958 176.631
16.003 116.066
16.0481 74.727
16.0931 67.7976
16.1382 65.4889
16.1833 63.2899
16.2283 61.5498
16.2734 60.9554
16.3185 61.0637
16.3636 61.7156
16.4086 60.1783
16.4537 58.6757
16.4988 57.773
16.5439 57.7614
16.589 57.4059
16.6341 57.1648
16.6792 56.8881
16.7243 57.1094
16.7694 57.2715
16.8145 57.2966
16.8596 57.266
16.9047 58.7144
16.9498 59.0876
16.9949 57.966
17.04 58.2439
17.0851 59.7021
17.1302 62.0703
17.1754 64.7328
17.2205 68.2934
17.2656 73.823
17.3108 82.1833
17.3559 85.3372
17.401 77.8223
17.4462 66.8415
17.4913 62.1324
17.5365 61.4603
17.5815 61.7526
17.6268 62.1353
17.6718 62.813
17.7171 63.437
17.7622 63.863
17.8074 64.5001
17.8525 67.4675
17.8977 72.9385
17.9428 79.4953
17.9881 85.8743
18.0331 97.8633
18.0784 115.529
18.1237 136.416
18.1688 142.135
18.214 119.792
18.2591 94.4685
18.3044 90.8994
18.3495 97.9756
18.3948 106.851
18.4399 103.134
18.4852 85.9211
18.5303 70.984
18.5756 65.1381
18.6207 63.957
18.666 63.0493
18.7112 62.2463
18.7565 61.3695
18.8016 61.0449
18.8469 60.4877
18.892 60.1876
18.9374 59.5715
18.9825 59.5256
19.0278 59.3814
19.073 59.5906
19.1183 60.2082
19.1635 61.3089
19.2088 62.4877
19.254 64.2411
19.2993 67.4342
19.3447 72.3678
19.3898 77.3796
19.4352 77.0018
19.4804 69.4703
19.5257 61.2838
19.5709 57.1311
19.6163 56.2256
19.6615 55.951
19.7068 55.5242
19.752 55.6854
19.7974 55.9316
19.8426 57.1164
19.888 57.8278
19.9332 59.0947
19.9786 60.6423
20.0238 63.3645
20.0692 67.7056
20.1144 71.742
20.1598 72.4972
20.205 67.9255
20.2504 64.6108
20.2957 64.9603
20.3411 66.737
20.3863 67.3809
20.4318 62.5045
20.477 57.2804
20.5224 54.1543
20.5677 53.1911
20.6131 52.5333
20.6586 51.8716
20.7038 51.6998
20.7493 51.1173
20.7945 50.9839
20.84 50.9014
20.8853 50.8181
20.9307 50.6281
20.976 50.874
21.0215 50.8176
21.0668 51.2781
21.1122 51.3948
21.1575 51.9349
21.203 52.538
21.2483 53.0712
21.2938 53.6243
21.3391 52.7366
21.3846 51.3499
21.4299 50.5047
21.4754 50.4983
21.5207 50.6149
21.5662 50.7169
21.6116 51.483
21.6571 52.272
21.7024 53.5026
21.7479 54.813
21.7933 56.8503
21.8388 59.5506
21.8843 63.3632
21.9297 66.3575
21.9752 66.8867
22.0206 63.5003
22.0661 59.3123
22.1115 57.8455
22.157 57.9905
22.2024 57.2148
22.248 54.5557
22.2933 52.5087
22.3389 51.3874
22.3843 51.1259
22.4299 51.1588
22.4753 50.9434
22.5208 50.6844
22.5662 50.517
22.6118 50.7682
22.6572 51.1045
22.7028 51.5895
22.7483 52.1434
22.7939 52.838
22.8393 53.7645
22.8849 55.1324
22.9303 56.9516
22.9759 59.0836
23.0214 59.9321
23.067 58.1853
23.1126 54.5254
23.1581 51.7345
23.2037 51.1379
23.2492 50.9942
23.2948 51.3685
23.3403 51.4736
23.3859 52.1534
23.4314 52.6613
23.477 54.1001
23.5225 55.7083
23.5682 57.7674
23.6137 59.4987
23.6593 58.9468
23.7048 55.4324
23.7505 51.616
23.796 49.1578
23.8417 48.0846
23.8872 47.5771
23.9329 47.1723
23.9784 46.7704
24.0241 46.5699
24.0697 46.3584
24.1154 45.9832
24.1609 45.9128
24.2066 45.6331
24.2522 45.7542
24.2979 45.1998
24.3434 45.253
24.3892 45.0862
24.4349 44.9793
24.4805 44.5829
24.5262 44.7843
24.5718 44.7107
24.6175 44.6555
24.6631 44.5615
24.7089 44.4682
24.7545 44.1927
24.8002 44.0643
24.8458 44.0707
24.8916 43.9435
24.9372 44.1317
24.983 44.2951
25.0286 44.5815
25.0744 44.8272
25.12 45.2968
25.1658 45.8863
25.2114 46.3687
25.2572 46.4947
25.3029 46.4509
25.3487 46.4468
25.3943 46.4542
25.4402 45.7574
25.4858 44.7795
25.5316 43.6419
25.5773 42.6444
25.6231 42.543
25.669 42.39
25.7147 42.3806
25.7605 42.1944
25.8062 42.3201
25.8521 42.4991
25.8977 42.3287
25.9436 42.4497
25.9893 42.5773
26.0352 42.8647
26.0809 43.0024
26.1268 43.324
26.1725 43.2232
26.2184 42.7173
26.2641 42.2099
26.31 41.9108
26.3557 41.9125
26.4017 41.8529
26.4474 42.1811
26.4933 42.3065
26.5391 42.827
26.585 43.1027
26.6308 43.3994
26.6767 43.7261
26.7225 43.8855
26.7684 43.3978
26.8142 42.7003
26.8601 42.29
26.9059 41.9348
26.9519 41.3685
26.9979 40.9425
27.0437 40.6376
27.0896 40.3506
27.1354 40.4124
27.1814 40.2068
27.2272 40.218
27.2732 40.193
27.3191 40.0738
27.3651 39.9603
27.4109 39.9469
27.4569 40.1129
27.5027 40.1099
27.5488 40.1533
27.5946 40.0025
27.6407 39.7986
27.6865 39.8241
27.7326 39.5029
27.7784 39.4034
27.8245 39.393
27.8703 39.4626
27.9164 39.6174
27.9623 39.7706
28.0084 40.0967
28.0543 40.5221
28.1003 40.6104
28.1462 40.5899
28.1923 40.2468
28.2384 39.5251
28.2843 39.3026
28.3304 38.8253
28.3764 38.4424
28.4225 37.9661
28.4684 37.8998
28.5145 37.5051
28.5605 37.4833
28.6066 37.1403
28.6526 37.2815
28.6987 37.0489
28.7447 37.0989
28.7908 36.7977
28.8368 36.888
28.8829 36.8566
28.9289 36.754
28.9751 36.5995
29.0211 36.4941
29.0673 36.2277
29.1133 36.1567
29.1595 35.8297
29.2055 35.7052
29.2517 35.719
29.2977 35.6964
29.3439 35.6101
29.3899 35.6068
29.4361 35.5712
29.4824 35.5174
29.5284 35.2286
29.5746 34.8878
29.6207 34.6351
29.6669 34.4935
29.713 34.3778
29.7593 34.1859
29.8053 34.3632
29.8516 34.1523
29.8977 34.1737
29.9439 33.8722
29.99 33.9359
30.0363 33.788
30.0824 33.9063
30.1287 33.7445
30.1748 33.8523
30.2211 33.7546
30.2673 33.7067
30.3136 33.7631
30.3597 33.7192
30.406 33.5651
30.4522 33.4537
30.4985 33.477
30.5447 33.4395
30.591 33.4452
30.6372 33.4908
30.6835 33.4359
30.7297 33.4196
30.7761 33.4519
30.8224 33.3566
30.8686 33.2217
30.915 32.9961
30.9612 32.9209
31.0076 32.7559
31.0538 32.4614
31.1002 32.3759
31.1464 32.2614
31.1928 32.3023
31.2391 32.2908
31.2855 32.1377
31.3317 32.2022
31.3781 32.2106
31.4244 32.1579
31.4708 32.1189
31.5171 32.1018
31.5636 32.057
31.6098 31.7468
31.6563 31.7323
31.7026 31.548
31.7491 31.4278
31.7953 31.4669
31.8418 31.433
31.8881 31.3081
31.9346 31.248
31.9809 31.2877
32.0275 31.145
32.074 31.066
32.1203 30.844
32.1668 30.8227
32.2132 30.7014
32.2597 30.5444
32.306 30.4477
32.3526 30.2159
32.399 30.1781
32.4455 29.9599
32.4919 29.9328
32.5385 29.8413
32.5848 29.7384
32.6314 29.6494
32.6778 29.6116
32.7244 29.4573
32.7708 29.2446
32.8174 29.4291
32.8638 29.192
32.9104 29.2548
32.9569 29.2518
33.0035 29.0581
33.0499 29.0137
33.0966 28.9802
33.143 29.0213
33.1897 28.8788
33.2361 28.7963
33.2828 28.7325
33.3293 28.5601
33.3759 28.5045
33.4226 28.5042
33.4691 28.2769
33.5158 28.2392
33.5623 28.0825
33.609 27.9016
33.6555 27.7846
33.7022 27.7419
33.7487 27.6684
33.7954 27.6151
33.842 27.5884
33.8887 27.4131
33.9353 27.3772
33.982 27.2347
34.0286 27.1929
34.0753 27.097
34.1219 26.9134
34.1687 26.9366
34.2152 26.7951
34.262 26.7365
34.3086 26.6518
34.3554 26.6497
34.402 26.4048
34.4488 26.3769
34.4954 26.3562
34.5422 26.1883
34.5889 26.0913
34.6357 26.0526
34.6825 26.0228
34.7292 25.9151
34.776 25.7488
34.8227 25.7365
34.8695 25.7308
34.9162 25.6303
34.9631 25.5522
35.0098 25.5753
35.0566 25.3322
35.1033 25.3046
35.1502 25.2423
35.1969 25.2562
35.2438 25.1458
35.2906 25.0027
35.3375 25.0292
35.3842 24.9622
35.4311 25.0477
35.4779 24.9072
35.5248 24.9876
35.5716 24.8554
35.6185 24.7746
35.6653 24.5934
35.7123 24.5474
35.759 24.4902
35.806 24.33
35.8528 24.301
35.8998 24.1812
35.9468 24.128
35.9936 24.1021
36.0406 24.0459
36.0874 23.9039
36.1345 23.8158
36.1813 23.8231
36.2283 23.6795
36.2752 23.5507
36.3222 23.6401
36.3691 23.5026
36.4161 23.3656
36.463 23.3605
36.5101 23.3898
36.557 23.3484
36.6041 23.1283
36.651 23.0419
36.6981 23.0774
36.745 23.0042
36.7921 22.8968
36.839 22.7599
36.8861 22.671
36.9331 22.6387
36.9802 22.5339
37.0272 22.4985
37.0743 22.4054
37.1213 22.4142
37.1684 22.294
37.2154 22.2778
37.2626 22.1874
37.3098 22.1104
37.3568 22.0632
37.404 22.0037
37.451 21.9443
37.4982 21.8415
37.5452 21.7269
37.5924 21.7161
37.6395 21.6707
37.6867 21.6148
37.7337 21.494
37.781 21.4317
37.8281 21.3567
37.8753 21.2217
37.9224 21.2576
37.9697 21.0663
38.0168 21.0751
38.064 20.9696
38.1111 20.9443
38.1584 20.8579
38.2056 20.8143
38.2529 20.7534
38.3 20.6349
38.3473 20.7032
38.3945 20.5271
38.4418 20.4812
38.489 20.4006
38.5363 20.307
38.5837 20.2273
38.6309 20.2091
38.6782 20.177
38.7254 20.0677
38.7728 20.0343
38.82 19.9351
38.8674 19.8761
38.9146 19.8571
38.9621 19.8029
39.0093 19.7225
39.0567 19.6284
39.104 19.6026
39.1514 19.5104
39.1987 19.4548
39.2461 19.4253
39.2934 19.3907
39.3409 19.286
39.3882 19.1386
39.4356 19.1552
39.483 19.0978
39.5304 18.9855
39.5778 18.9831
39.6253 18.9159
39.6726 18.8638
39.7201 18.7818
39.7675 18.7269
39.815 18.6453
39.8624 18.5561
39.9099 18.5986
39.9575 18.4945
40.0049 18.448
40.0525 18.3675
40.0999 18.3435
40.1474 18.286
40.1949 18.1869
40.2425 18.1733
40.2899 18.1437
40.3375 18.0514
40.385 17.9973
40.4326 17.9603
40.48 17.8276
40.5277 17.8309
40.5752 17.8059
40.6228 17.6432
40.6703 17.6889
40.718 17.623
40.7655 17.5311
40.8132 17.467
40.8607 17.4124
40.9084 17.4057
40.9559 17.3382
41.0036 17.27
41.0512 17.2583
41.0989 17.1923
41.1465 17.0805
41.1942 17.0219
41.242 16.8936
41.2896 16.8836
41.3373 16.8466
41.3849 16.7645
41.4327 16.7473
41.4803 16.6139
41.5281 16.6679
41.5758 16.5884
41.6236 16.5197
41.6712 16.484
41.7191 16.3751
41.7667 16.3189
41.8146 16.3539
41.8622 16.2462
41.9101 16.1823
41.9578 16.1176
42.0057 16.0499
42.0534 15.9887
42.1013 15.9492
42.149 15.933
42.1969 15.8747
42.2446 15.8231
42.2925 15.751
42.3403 15.6725
42.3882 15.6916
42.436 15.6005
42.4839 15.5313
42.5319 15.5298
42.5797 15.4209
42.6277 15.4166
42.6755 15.3589
42.7235 15.2755
42.7713 15.2618
42.8193 15.1455
42.8671 15.1702
42.9152 15.0717
42.963 15.016
43.0111 15.0318
43.0589 14.923
43.107 14.8266
43.1549 14.8537
43.2029 14.7364
43.2508 14.734
43.2989 14.6884
43.3468 14.624
43.3949 14.557
43.4429 14.5622
43.491 14.4534
43.5389 14.4189
43.5871 14.3529
43.635 14.2588
43.6832 14.2561
43.7312 14.1886
43.7793 14.1596
43.8273 14.1175
43.8755 14.0504
43.9237 14.0197
43.9717 13.9663
44.0199 13.8752
44.068 13.8878
44.1162 13.7918
44.1642 13.8291
44.2125 13.7428
44.2606 13.6649
44.3088 13.6528
44.3569 13.5869
44.4052 13.5666
44.4533 13.5009
44.5016 13.4493
44.5497 13.4026
44.598 13.3589
44.6461 13.3222
44.6945 13.2745
44.7426 13.2287
44.791 13.1101
44.8391 13.0882
44.8875 13.1208
44.9357 13.067
44.984 12.9857
45.0322 12.9096
45.0806 12.8486
45.1288 12.8628
45.1773 12.7928
45.2257 12.7201
45.2739 12.6177
45.3224 12.6779
45.3706 12.603
45.4191 12.5616
45.4673 12.5418
45.5158 12.5034
45.5641 12.4421
45.6126 12.4369
45.6609 12.3448
45.7094 12.2853
45.7577 12.2691
45.8063 12.2133
45.8546 12.192
45.9031 12.1254
45.9515 12.077
46.0001 12.0565
46.0484 12.0523
46.097 11.9766
46.1454 11.9105
46.194 11.8947
46.2424 11.8123
46.291 11.7821
46.3395 11.7576
46.3881 11.6959
46.4365 11.6735
46.4852 11.6229
46.5337 11.5479
46.5823 11.4988
46.631 11.4705
46.6795 11.4441
46.7282 11.4585
46.7767 11.3561
46.8254 11.3233
46.8739 11.2731
46.9226 11.1822
46.9712 11.1788
47.0199 11.1367
47.0685 11.0975
47.1173 11.0497
47.1658 10.9818
47.2146 10.9836
47.2632 10.9
47.312 10.9049
47.3606 10.8841
47.4095 10.8497
47.4581 10.7486
47.5069 10.7162
47.5556 10.6686
47.6044 10.6576
47.6531 10.6457
47.702 10.548
47.7507 10.5211
47.7996 10.4954
47.8483 10.4707
47.8972 10.4465
47.9461 10.4144
47.9948 10.3531
48.0438 10.3079
48.0925 10.288
48.1415 10.2485
48.1902 10.2078
48.2392 10.1969
48.288 10.1333
48.337 10.0911
48.3858 10.072
48.4348 10.0032
48.4837 10.044
48.5327 9.95545
48.5815 9.91303
48.6306 9.86957
48.6795 9.8508
48.7285 9.81393
48.7774 9.75382
48.8265 9.74834
48.8754 9.7303
48.9245 9.62375
48.9734 9.6391
49.0226 9.62615
49.0715 9.52582
49.1206 9.50937
49.1696 9.50522
49.2188 9.44864
49.2679 9.41906
49.3169 9.39789
49.3661 9.32701
49.4151 9.2712
49.4643 9.25861
49.5134 9.23391
49.5626 9.16101
49.6117 9.14995
49.6609 9.1267
49.71 9.04944
49.7592 9.07993
49.8083 9.01378
49.8576 8.99477
49.9067 8.94279
49.956 8.95858
50.0052 8.90033
50.0545 8.86653
50.1036 8.80385
50.153 8.79598
50.2022 8.75668
50.2515 8.68544
50.3007 8.65877
50.3501 8.63274
50.3993 8.64406
50.4487 8.53587
50.498 8.58598
50.5474 8.50163
50.5966 8.49251
50.6461 8.4498
50.6955 8.42178
50.7448 8.35382
50.7943 8.35582
50.8436 8.30125
50.8931 8.28673
50.9424 8.2646
50.9919 8.2042
51.0413 8.18003
51.0908 8.1926
51.1402 8.13407
51.1897 8.10762
51.2391 8.05245
51.2887 8.00227
51.3381 7.99071
51.3877 7.98027
51.4371 7.93376
51.4867 7.92153
51.5362 7.84486
51.5858 7.83059
51.6353 7.77185
51.6849 7.76257
51.7344 7.70228
51.7841 7.72296
51.8336 7.68615
51.8833 7.63135
51.9328 7.62521
51.9826 7.55114
52.0323 7.52093
52.0818 7.49872
52.1316 7.44356
52.1812 7.46208
52.231 7.41541
52.2806 7.37408
52.3304 7.37242
52.38 7.30852
52.4298 7.28024
52.4794 7.24619
52.5293 7.18926
52.5789 7.17269
52.6288 7.19893
52.6785 7.13633
52.7284 7.14036
52.7781 7.11044
52.828 7.04956
52.8777 6.97999
52.9276 7.00131
52.9774 6.94994
53.0273 6.92308
53.0771 6.89624
53.1271 6.89652
53.1769 6.84158
53.2269 6.82315
53.2767 6.7999
53.3267 6.76278
53.3765 6.73225
53.4266 6.68943
53.4766 6.66167
53.5265 6.63043
53.5765 6.61241
53.6264 6.54289
53.6765 6.55784
53.7264 6.52149
53.7765 6.50314
53.8265 6.45396
53.8766 6.45796
53.9266 6.46846
53.9767 6.37165
54.0267 6.3586
54.0769 6.34582
54.1269 6.32974
54.1771 6.27587
54.2271 6.25427
54.2773 6.17199
54.3274 6.17721
54.3776 6.09107
54.4277 6.08322
54.478 6.00402
54.528 6.04405
54.5783 5.93682
54.6285 5.90654
54.6788 5.89893
54.7289 5.88307
54.7792 5.81621
54.8296 5.76715
54.8798 5.73237
54.9301 5.73953
54.9803 5.66593
55.0307 5.60714
55.0809 5.55464
55.1314 5.52591
55.1816 5.49678
55.232 5.38923
55.2823 5.39137
55.3328 5.33225
55.383 5.25695
55.4335 5.2124
55.4838 5.1547
55.5344 5.11781
55.5847 5.13151
55.6352 5.0743
55.6856 5.05271
55.7361 4.98922