File: XRD/Ni3Fe_FD1063.xy
TT I
1.27165 6.94675
1.31627 6.61135
1.36089 6.12297
1.40551 6.26171
1.45013 6.24403
1.49476 5.37538
1.53938 5.58424
1.584 4.78613
1.62863 4.56874
1.67325 4.01088
1.71787 4.69766
1.7625 4.24377
1.80712 4.37382
1.85174 3.81447
1.89636 3.99361
1.94099 4.85469
1.98562 4.10279
2.03025 3.98249
2.07487 3.7598
2.11949 4.10875
2.16411 4.48003
2.20874 4.99016
2.25338 6.29828
2.298 5.12728
2.34263 4.96656
2.38725 6.12581
2.43188 5.81305
2.4765 6.79988
2.52115 7.23666
2.56577 7.26808
2.6104 7.7516
2.65503 7.83289
2.69965 8.35115
2.7443 9.08315
2.78893 8.401
2.83356 7.94247
2.87818 9.03422
2.92281 8.97936
2.96744 9.73927
3.01209 10.7364
3.05672 11.1171
3.10135 12.0973
3.14599 12.6385
3.19062 13.5628
3.23527 14.5154
3.2799 14.912
3.32454 16.0985
3.36917 16.8514
3.4138 17.898
3.45844 18.8232
3.50309 19.7219
3.54773 20.4466
3.59237 21.7656
3.637 27.5039
3.68164 26.5519
3.7263 23.9121
3.77094 24.2662
3.81558 25.2034
3.86022 25.9362
3.90486 27.4217
3.9495 28.0998
3.99416 29.1288
4.0388 30.4358
4.08344 31.6093
4.12809 32.3507
4.17273 33.8092
4.21738 34.8316
4.26204 52.4111
4.30669 56.565
4.35133 40.5741
4.39598 41.3851
4.44063 43.8024
4.4853 46.225
4.52995 46.6525
4.5746 48.3643
4.61925 50.7515
4.6639 52.7841
4.70855 55.7368
4.75322 58.0735
4.79788 61.0464
4.84253 64.1084
4.88719 68.1079
4.93184 71.7555
4.97652 77.4891
5.02118 83.1445
5.06583 89.8307
5.11049 98.0221
5.15515 118.109
5.19981 230.371
5.24449 2490.13
5.28916 13597.3
5.33382 3341.2
5.37848 209.812
5.42315 123.903
5.46783 108.058
5.5125 101.49
5.55716 97.4334
5.60183 93.4858
5.6465 92.0156
5.69117 89.9796
5.73586 88.0735
5.78053 87.0805
5.8252 86.608
5.86988 87.1489
5.91455 88.9418
5.95924 95.2471
6.00392 163.476
6.0486 888.633
6.09328 4579.09
6.13795 3624.92
6.18263 241.824
6.22733 87.7712
6.27201 75.9986
6.3167 73.1537
6.36138 68.5889
6.40606 64.7459
6.45075 63.6233
6.49545 61.6162
6.54014 60.4493
6.58483 59.1773
6.62952 58.1899
6.67421 58.6354
6.71892 64.1544
6.76361 57.1368
6.8083 54.4559
6.853 53.6077
6.89769 53.4993
6.94239 53.1467
6.98711 52.6454
7.03181 52.4232
7.07651 52.5418
7.12121 51.9586
7.16591 51.8369
7.21063 51.4954
7.25533 52.0152
7.30004 61.9955
7.34475 56.0314
7.38945 51.5806
7.43416 51.1173
7.47889 51.6616
7.5236 58.448
7.56831 72.4849
7.61303 56.4722
7.65774 52.9918
7.70247 52.8755
7.74719 53.3267
7.79191 53.6388
7.83663 53.9083
7.88135 55.2685
7.92607 55.5636
7.97081 56.7778
8.01553 57.5889
8.06026 59.281
8.10498 60.2906
8.14971 62.3651
8.19446 63.9312
8.23919 65.6884
8.28392 68.2156
8.32865 70.4659
8.37339 74.0264
8.41812 78.1297
8.46288 86.6602
8.50761 128.31
8.55235 375.115
8.59709 1099.85
8.64183 2285.73
8.68658 1114.09
8.73134 171.587
8.77609 95.1288
8.82083 88.5326
8.86558 85.8526
8.91033 83.9616
8.9551 82.4577
8.99985 81.1352
9.04461 80.4075
9.08936 79.7311
9.13412 79.0075
9.17888 79.7927
9.22365 90.8571
9.26841 112.757
9.31318 88.8557
9.35794 80.0468
9.4027 80.1983
9.44749 80.6323
9.49226 81.2164
9.53703 82.0356
9.5818 83.3837
9.62657 84.7031
9.67134 86.7342
9.71614 88.103
9.76091 89.7239
9.80569 92.0233
9.85047 94.2611
9.89525 99.2301
9.94005 106.343
9.98484 147.419
10.0296 348.992
10.0744 775.362
10.1192 1783.99
10.164 1712.22
10.2088 449.589
10.2536 125.351
10.2984 103.358
10.3432 101.051
10.388 97.7024
10.4328 107.6
10.4776 161.887
10.5224 273.097
10.5672 510.893
10.612 561.901
10.6568 230.681
10.7017 103.568
10.7465 86.4651
10.7913 80.367
10.8361 78.0795
10.8809 75.9727
10.9257 73.6716
10.9706 72.5145
11.0154 71.0636
11.0602 69.5282
11.105 68.3049
11.1499 67.0684
11.1947 67.5099
11.2395 65.7547
11.2844 65.1381
11.3292 63.9649
11.374 63.2674
11.4189 62.6842
11.4637 61.6443
11.5086 61.321
11.5534 61.3697
11.5983 61.0023
11.6431 60.7386
11.688 59.9524
11.7328 60.2386
11.7777 59.8442
11.8225 59.7731
11.8674 59.9424
11.9122 62.22
11.9571 68.0502
12.002 66.3669
12.0468 64.3178
12.0917 76.7452
12.1366 98.9865
12.1814 146.79
12.2263 203.009
12.2712 177.481
12.3161 98.255
12.3609 64.8603
12.4058 61.1031
12.4507 61.138
12.4956 61.4805
12.5405 61.5673
12.5853 62.1113
12.6302 62.8946
12.6751 63.9586
12.72 63.7515
12.7649 64.6262
12.8098 65.3459
12.8547 66.4715
12.8996 68.3296
12.9445 69.1589
12.9894 71.4212
13.0343 72.8017
13.0792 76.5719
13.1242 82.4985
13.1691 108.039
13.214 148.681
13.2589 229.578
13.3038 369.489
13.3487 452.233
13.3937 282.518
13.4386 127.965
13.4835 99.4953
13.5285 120.463
13.5734 157.26
13.6183 236.822
13.6633 356.511
13.7082 363.336
13.7531 206.924
13.7981 100.624
13.843 79.7726
13.888 77.0941
13.9329 74.6859
13.9779 73.5164
14.0228 72.2779
14.0678 70.7906
14.1127 71.7598
14.1577 74.9355
14.2027 73.36
14.2476 69.07
14.2926 67.6992
14.3376 67.5472
14.3825 66.8568
14.4275 66.4624
14.4725 66.1759
14.5175 66.6439
14.5624 66.317
14.6074 66.8185
14.6524 67.3143
14.6974 67.5742
14.7424 68.7552
14.7874 74.4505
14.8324 88.8583
14.8774 110.343
14.9224 149.041
14.9674 209.222
15.0124 229.521
15.0574 160.12
15.1024 94.1735
15.1474 71.4121
15.1924 67.9438
15.2374 66.7459
15.2824 65.8427
15.3274 65.2865
15.3725 64.6055
15.4175 63.9338
15.4625 63.6506
15.5076 63.6081
15.5526 63.442
15.5976 63.5161
15.6426 63.9556
15.6877 68.6105
15.7327 79.7049
15.7778 94.8608
15.8228 122.853
15.8679 169.385
15.9129 203.394
15.958 169.592
16.003 104.848
16.0481 69.623
16.0931 63.1058
16.1382 60.0064
16.1833 58.4452
16.2283 57.1315
16.2734 56.1864
16.3185 55.6472
16.3636 55.407
16.4086 54.4046
16.4537 53.9392
16.4988 53.3417
16.5439 53.5144
16.589 53.1943
16.6341 52.8935
16.6792 52.662
16.7243 52.9898
16.7694 52.9353
16.8145 52.5966
16.8596 52.9054
16.9047 53.5872
16.9498 54.4136
16.9949 54.1383
17.04 53.9848
17.0851 55.0289
17.1302 57.345
17.1754 60.3354
17.2205 65.1088
17.2656 72.4729
17.3108 81.9616
17.3559 82.8179
17.401 72.4747
17.4462 61.6979
17.4913 57.674
17.5365 57.2506
17.5815 57.3941
17.6268 57.8667
17.6718 58.3049
17.7171 58.84
17.7622 60.1491
17.8074 60.9088
17.8525 61.9917
17.8977 66.4552
17.9428 73.579
17.9881 82.1537
18.0331 98.1299
18.0784 121.171
18.1237 142.924
18.1688 138.464
18.214 109.629
18.2591 88.4669
18.3044 89.0178
18.3495 99.4255
18.3948 107.918
18.4399 99.0691
18.4852 79.4815
18.5303 65.8137
18.5756 61.4688
18.6207 60.0926
18.666 58.952
18.7112 58.3035
18.7565 57.3245
18.8016 57.2822
18.8469 56.8364
18.892 56.1388
18.9374 55.7702
18.9825 55.0373
19.0278 55.1955
19.073 55.1149
19.1183 55.2932
19.1635 56.3709
19.2088 58.1324
19.254 60.9747
19.2993 65.529
19.3447 72.4436
19.3898 76.2367
19.4352 72.4947
19.4804 63.4799
19.5257 56.1983
19.5709 53.07
19.6163 52.6232
19.6615 52.232
19.7068 51.9035
19.752 51.8741
19.7974 51.9757
19.8426 52.8852
19.888 53.8084
19.9332 55.224
19.9786 57.4839
20.0238 61.0295
20.0692 66.4903
20.1144 70.471
20.1598 69.4083
20.205 64.184
20.2504 62.023
20.2957 63.573
20.3411 65.6349
20.3863 64.3361
20.4318 58.3908
20.477 53.0772
20.5224 50.0606
20.5677 49.2351
20.6131 48.927
20.6586 48.3646
20.7038 48.3248
20.7493 47.9819
20.7945 48.1994
20.84 47.8401
20.8853 47.7778
20.9307 47.5029
20.976 47.4829
21.0215 47.4743
21.0668 47.8393
21.1122 48.1265
21.1575 48.7426
21.203 49.7203
21.2483 50.5292
21.2938 50.7629
21.3391 49.2432
21.3846 48.0401
21.4299 47.4947
21.4754 47.3707
21.5207 47.54
21.5662 47.6617
21.6116 48.0293
21.6571 49.0034
21.7024 50.2018
21.7479 51.8706
21.7933 54.3011
21.8388 58.0564
21.8843 63.0032
21.9297 65.5175
21.9752 64.0866
22.0206 60.052
22.0661 56.4892
22.1115 55.8969
22.157 56.0512
22.2024 54.4918
22.248 51.4229
22.2933 49.0497
22.3389 47.9417
22.3843 47.8255
22.4299 47.5015
22.4753 47.5922
22.5208 47.4495
22.5662 47.4892
22.6118 47.6021
22.6572 47.6398
22.7028 48.4374
22.7483 49.1559
22.7939 49.9
22.8393 51.4607
22.8849 53.3611
22.9303 55.8616
22.9759 57.5942
23.0214 57.4578
23.067 54.8202
23.1126 51.0355
23.1581 48.82
23.2037 47.9106
23.2492 47.6587
23.2948 48.0538
23.3403 48.6019
23.3859 49.5152
23.4314 50.4545
23.477 52.0477
23.5225 54.5657
23.5682 57.3226
23.6137 58.6675
23.6593 56.4572
23.7048 52.1233
23.7505 48.3568
23.796 46.1158
23.8417 45.2948
23.8872 44.6575
23.9329 44.2937
23.9784 43.9673
24.0241 43.8401
24.0697 43.6139
24.1154 43.1158
24.1609 43.0407
24.2066 42.8179
24.2522 42.8702
24.2979 42.443
24.3434 42.4281
24.3892 42.2
24.4349 42.3097
24.4805 42.1771
24.5262 42.3062
24.5718 42.0637
24.6175 42.172
24.6631 42.0363
24.7089 41.6755
24.7545 41.6971
24.8002 41.2145
24.8458 41.4092
24.8916 41.1562
24.9372 41.411
24.983 41.6874
25.0286 41.9269
25.0744 42.6739
25.12 43.2464
25.1658 43.9693
25.2114 44.2822
25.2572 44.5153
25.3029 44.5639
25.3487 44.8084
25.3943 44.4844
25.4402 43.2568
25.4858 42.1103
25.5316 41.0729
25.5773 40.1876
25.6231 40.2054
25.669 39.6792
25.7147 39.6395
25.7605 39.6847
25.8062 39.7672
25.8521 39.9671
25.8977 39.882
25.9436 40.1244
25.9893 40.2527
26.0352 40.9679
26.0809 40.9785
26.1268 41.2687
26.1725 40.987
26.2184 40.452
26.2641 39.7517
26.31 39.5354
26.3557 39.4769
26.4017 39.5887
26.4474 39.7889
26.4933 40.1605
26.5391 40.7369
26.585 41.3412
26.6308 41.8836
26.6767 41.9592
26.7225 41.8964
26.7684 41.3924
26.8142 40.5531
26.8601 40.1663
26.9059 39.7218
26.9519 39.1286
26.9979 38.7684
27.0437 38.2848
27.0896 38.101
27.1354 38.217
27.1814 38.028
27.2272 37.9581
27.2732 37.9255
27.3191 37.7923
27.3651 37.9281
27.4109 37.8189
27.4569 37.9151
27.5027 38.1304
27.5488 38.2046
27.5946 38.0403
27.6407 37.8093
27.6865 37.5309
27.7326 37.5117
27.7784 37.527
27.8245 37.3142
27.8703 37.3942
27.9164 37.7237
27.9623 38.1743
28.0084 38.4442
28.0543 38.814
28.1003 38.8127
28.1462 38.8355
28.1923 38.291
28.2384 37.6759
28.2843 37.4929
28.3304 36.8747
28.3764 36.4614
28.4225 36.0319
28.4684 35.8262
28.5145 35.4687
28.5605 35.3133
28.6066 35.3243
28.6526 34.9942
28.6987 35.0653
28.7447 35.0659
28.7908 34.864
28.8368 34.9148
28.8829 34.8996
28.9289 34.8743
28.9751 34.7459
29.0211 34.4445
29.0673 34.1851
29.1133 34.0162
29.1595 33.8917
29.2055 33.8536
29.2517 33.8641
29.2977 33.7704
29.3439 33.7825
29.3899 33.7524
29.4361 33.7258
29.4824 33.489
29.5284 33.3854
29.5746 32.9345
29.6207 32.6568
29.6669 32.6202
29.713 32.4206
29.7593 32.33
29.8053 32.4769
29.8516 32.2614
29.8977 32.2735
29.9439 32.1814
29.99 32.1404
30.0363 31.9183
30.0824 32.0364
30.1287 31.9438
30.1748 31.9542
30.2211 31.946
30.2673 31.7839
30.3136 31.858
30.3597 31.8138
30.406 31.7242
30.4522 31.687
30.4985 31.5271
30.5447 31.7458
30.591 31.7064
30.6372 31.8519
30.6835 31.83
30.7297 31.8669
30.7761 31.8881
30.8224 31.6816
30.8686 31.578
30.915 31.2645
30.9612 31.1537
31.0076 30.9721
31.0538 30.8607
31.1002 30.7195
31.1464 30.5298
31.1928 30.5409
31.2391 30.6193
31.2855 30.5978
31.3317 30.4352
31.3781 30.5349
31.4244 30.6355
31.4708 30.495
31.5171 30.5592
31.5636 30.5448
31.6098 30.14
31.6563 30.0232
31.7026 29.8852
31.7491 29.7634
31.7953 29.8384
31.8418 29.7902
31.8881 29.8511
31.9346 29.799
31.9809 29.7767
32.0275 29.7361
32.074 29.533
32.1203 29.3625
32.1668 29.2431
32.2132 28.9717
32.2597 28.8919
32.306 28.8045
32.3526 28.65
32.399 28.5608
32.4455 28.3446
32.4919 28.3086
32.5385 28.2267
32.5848 28.0043
32.6314 28.1016
32.6778 28.0743
32.7244 27.869
32.7708 27.8078
32.8174 27.7953
32.8638 27.7014
32.9104 27.756
32.9569 27.6844
33.0035 27.4809
33.0499 27.5441
33.0966 27.494
33.143 27.5193
33.1897 27.4322
33.2361 27.4202
33.2828 27.2587
33.3293 27.0862
33.3759 27.0552
33.4226 26.9748
33.4691 26.8652
33.5158 26.7394
33.5623 26.5759
33.609 26.4182
33.6555 26.3483
33.7022 26.1313
33.7487 26.1809
33.7954 26.1756
33.842 26.1074
33.8887 25.9531
33.9353 26.0201
33.982 25.7428
34.0286 25.7428
34.0753 25.6091
34.1219 25.5225
34.1687 25.4324
34.2152 25.4741
34.262 25.3416
34.3086 25.2344
34.3554 25.1399
34.402 25.1377
34.4488 24.9963
34.4954 24.9162
34.5422 24.9005
34.5889 24.6616
34.6357 24.5816
34.6825 24.5869
34.7292 24.5054
34.776 24.4207
34.8227 24.3265
34.8695 24.3081
34.9162 24.357
34.9631 24.1327
35.0098 24.1244
35.0566 24.0643
35.1033 23.9778
35.1502 23.926
35.1969 23.8007
35.2438 23.8184
35.2906 23.7674
35.3375 23.7094
35.3842 23.7396
35.4311 23.7335
35.4779 23.6196
35.5248 23.6792
35.5716 23.558
35.6185 23.4494
35.6653 23.3312
35.7123 23.2566
35.759 23.1531
35.806 23.0692
35.8528 22.9095
35.8998 22.8983
35.9468 22.8084
35.9936 22.773
36.0406 22.7465
36.0874 22.6953
36.1345 22.6152
36.1813 22.5847
36.2283 22.4117
36.2752 22.493
36.3222 22.4377
36.3691 22.3113
36.4161 22.2388
36.463 22.2221
36.5101 22.2167
36.557 22.0756
36.6041 21.9957
36.651 21.9137
36.6981 21.8703
36.745 21.7817
36.7921 21.7144
36.839 21.5854
36.8861 21.4587
36.9331 21.4675
36.9802 21.3981
37.0272 21.3838
37.0743 21.254
37.1213 21.1442
37.1684 21.2278
37.2154 21.1135
37.2626 21.004
37.3098 20.9094
37.3568 20.8919
37.404 20.8687
37.451 20.6724
37.4982 20.6625
37.5452 20.5909
37.5924 20.522
37.6395 20.5916
37.6867 20.4065
37.7337 20.4084
37.781 20.2598
37.8281 20.1798
37.8753 20.1203
37.9224 20.0922
37.9697 20.0555
38.0168 19.9506
38.064 19.9056
38.1111 19.8219
38.1584 19.7386
38.2056 19.7384
38.2529 19.6253
38.3 19.5473
38.3473 19.5451
38.3945 19.3746
38.4418 19.4209
38.489 19.3451
38.5363 19.2694
38.5837 19.2029
38.6309 19.1331
38.6782 19.0036
38.7254 19.0578
38.7728 19.0534
38.82 18.9156
38.8674 18.8854
38.9146 18.8344
38.9621 18.7328
39.0093 18.6636
39.0567 18.6386
39.104 18.5517
39.1514 18.4277
39.1987 18.4727
39.2461 18.3801
39.2934 18.2958
39.3409 18.1891
39.3882 18.1559
39.4356 18.0954
39.483 18.0989
39.5304 17.9508
39.5778 17.9672
39.6253 17.922
39.6726 17.9115
39.7201 17.8147
39.7675 17.7832
39.815 17.7251
39.8624 17.6381
39.9099 17.5707
39.9575 17.5529
40.0049 17.4533
40.0525 17.424
40.0999 17.4128
40.1474 17.3299
40.1949 17.2351
40.2425 17.2257
40.2899 17.1824
40.3375 17.0897
40.385 17.0596
40.4326 17.0177
40.48 16.9138
40.5277 16.9433
40.5752 16.91
40.6228 16.7778
40.6703 16.7011
40.718 16.6787
40.7655 16.6237
40.8132 16.5335
40.8607 16.5964
40.9084 16.5039
40.9559 16.3406
41.0036 16.3651
41.0512 16.3695
41.0989 16.2147
41.1465 16.2422
41.1942 16.1249
41.242 16.0503
41.2896 16.0125
41.3373 16.0001
41.3849 15.9687
41.4327 15.8445
41.4803 15.8571
41.5281 15.777
41.5758 15.7161
41.6236 15.6253
41.6712 15.5486
41.7191 15.5504
41.7667 15.5509
41.8146 15.4554
41.8622 15.411
41.9101 15.3699
41.9578 15.2709
42.0057 15.24
42.0534 15.1541
42.1013 15.1331
42.149 15.095
42.1969 15.0295
42.2446 14.9583
42.2925 14.9976
42.3403 14.9037
42.3882 14.8752
42.436 14.7432
42.4839 14.7486
42.5319 14.6986
42.5797 14.6292
42.6277 14.5699
42.6755 14.5488
42.7235 14.4654
42.7713 14.4287
42.8193 14.3915
42.8671 14.3273
42.9152 14.2971
42.963 14.221
43.0111 14.1686
43.0589 14.1556
43.107 14.1171
43.1549 14.0504
43.2029 13.9742
43.2508 13.9352
43.2989 13.9334
43.3468 13.8337
43.3949 13.8134
43.4429 13.7702
43.491 13.7097
43.5389 13.6598
43.5871 13.6022
43.635 13.5314
43.6832 13.4864
43.7312 13.4984
43.7793 13.4015
43.8273 13.3892
43.8755 13.3567
43.9237 13.2907
43.9717 13.2303
44.0199 13.1747
44.068 13.1281
44.1162 13.053
44.1642 13.0586
44.2125 13.01
44.2606 12.9611
44.3088 12.9343
44.3569 12.9203
44.4052 12.8704
44.4533 12.7831
44.5016 12.7382
44.5497 12.6807
44.598 12.6615
44.6461 12.5742
44.6945 12.6168
44.7426 12.5472
44.791 12.4433
44.8391 12.4072
44.8875 12.4103
44.9357 12.3629
44.984 12.2826
45.0322 12.2483
45.0806 12.1874
45.1288 12.1923
45.1773 12.1092
45.2257 12.0851
45.2739 12.0359
45.3224 11.9998
45.3706 11.999
45.4191 11.9014
45.4673 11.876
45.5158 11.8789
45.5641 11.7557
45.6126 11.7723
45.6609 11.7087
45.7094 11.6695
45.7577 11.5965
45.8063 11.5555
45.8546 11.5725
45.9031 11.4962
45.9515 11.444
46.0001 11.4249
46.0484 11.3951
46.097 11.3766
46.1454 11.3085
46.194 11.2746
46.2424 11.2038
46.291 11.1834
46.3395 11.1035
46.3881 11.1183
46.4365 11.1016
46.4852 11.0339
46.5337 10.9119
46.5823 10.942
46.631 10.9005
46.6795 10.8473
46.7282 10.8407
46.7767 10.7788
46.8254 10.7643
46.8739 10.6956
46.9226 10.6642
46.9712 10.5898
47.0199 10.6101
47.0685 10.5186
47.1173 10.5054
47.1658 10.457
47.2146 10.4283
47.2632 10.3528
47.312 10.3318
47.3606 10.3131
47.4095 10.251
47.4581 10.2369
47.5069 10.178
47.5556 10.1446
47.6044 10.1221
47.6531 10.0431
47.702 10.051
47.7507 10.0138
47.7996 9.95031
47.8483 9.94765
47.8972 9.91261
47.9461 9.8395
47.9948 9.82106
48.0438 9.76121
48.0925 9.73643
48.1415 9.71532
48.1902 9.66783
48.2392 9.67599
48.288 9.63255
48.337 9.57049
48.3858 9.56205
48.4348 9.52222
48.4837 9.50477
48.5327 9.45287
48.5815 9.43131
48.6306 9.38491
48.6795 9.34085
48.7285 9.30085
48.7774 9.25396
48.8265 9.24912
48.8754 9.17356
48.9245 9.16857
48.9734 9.10904
49.0226 9.11869
49.0715 9.0683
49.1206 9.01919
49.1696 8.95739
49.2188 8.96457
49.2679 8.89862
49.3169 8.90166
49.3661 8.8417
49.4151 8.81708
49.4643 8.81553
49.5134 8.72406
49.5626 8.67735
49.6117 8.68065
49.6609 8.64685
49.71 8.62211
49.7592 8.58695
49.8083 8.53477
49.8576 8.49505
49.9067 8.50934
49.956 8.49845
50.0052 8.45016
50.0545 8.36554
50.1036 8.35854
50.153 8.34458
50.2022 8.28147
50.2515 8.29966
50.3007 8.17372
50.3501 8.20732
50.3993 8.15879
50.4487 8.12787
50.498 8.07767
50.5474 8.06557
50.5966 8.04939
50.6461 8.02874
50.6955 7.9479
50.7448 7.95661
50.7943 7.94565
50.8436 7.87572
50.8931 7.85532
50.9424 7.82536
50.9919 7.80767
51.0413 7.76696
51.0908 7.74823
51.1402 7.72178
51.1897 7.68328
51.2391 7.61432
51.2887 7.60632
51.3381 7.57715
51.3877 7.53198
51.4371 7.51819
51.4867 7.47787
51.5362 7.45682
51.5858 7.43124
51.6353 7.38345
51.6849 7.32783
51.7344 7.36861
51.7841 7.31163
51.8336 7.26313
51.8833 7.21491
51.9328 7.23493
51.9826 7.15655
52.0323 7.16649
52.0818 7.13837
52.1316 7.05318
52.1812 7.08654
52.231 7.02815
52.2806 7.0327
52.3304 6.98206
52.38 6.94067
52.4298 6.88075
52.4794 6.89977
52.5293 6.88431
52.5789 6.79389
52.6288 6.81134
52.6785 6.76542
52.7284 6.75608
52.7781 6.6922
52.828 6.6727
52.8777 6.6745
52.9276 6.63576
52.9774 6.59694
53.0273 6.58497
53.0771 6.53552
53.1271 6.53104
53.1769 6.50208
53.2269 6.45336
53.2767 6.45421
53.3267 6.42629
53.3765 6.39887
53.4266 6.37895
53.4766 6.33151
53.5265 6.30875
53.5765 6.25265
53.6264 6.25528
53.6765 6.19642
53.7264 6.18319
53.7765 6.18962
53.8265 6.09859
53.8766 6.09622
53.9266 6.07075
53.9767 6.0671
54.0267 6.04
54.0769 6.00341
54.1269 5.93325
54.1771 5.95389
54.2271 5.9175
54.2773 5.86217
54.3274 5.90743
54.3776 5.81788
54.4277 5.81871
54.478 5.76774
54.528 5.75243
54.5783 5.70553
54.6285 5.64996
54.6788 5.63088
54.7289 5.59362
54.7792 5.55958
54.8296 5.48248
54.8798 5.45545
54.9301 5.40728
54.9803 5.34884
55.0307 5.3402
55.0809 5.30879
55.1314 5.27766
55.1816 5.25068
55.232 5.14783
55.2823 5.18638
55.3328 5.0867
55.383 5.03125
55.4335 5.0535
55.4838 4.96142
55.5344 4.88445
55.5847 4.89695
55.6352 4.87948
55.6856 4.82466
55.7361 4.77295