File: XRD/Ni3Fe_FD0609.xy
TT I
1.27165 7.12358
1.31627 6.8433
1.36089 6.75522
1.40551 6.17379
1.45013 6.41089
1.49476 5.69969
1.53938 6.06082
1.584 5.7284
1.62863 5.14342
1.67325 4.90294
1.71787 4.91445
1.7625 4.88178
1.80712 4.76465
1.85174 4.88944
1.89636 4.66204
1.94099 5.06316
1.98562 4.5114
2.03025 4.42013
2.07487 4.36131
2.11949 4.74562
2.16411 4.819
2.20874 12.17
2.25338 19.4911
2.298 6.02223
2.34263 4.71636
2.38725 5.40848
2.43188 5.82441
2.4765 6.42768
2.52115 7.33254
2.56577 7.62282
2.6104 8.00724
2.65503 8.07671
2.69965 7.99586
2.7443 7.93034
2.78893 7.79049
2.83356 8.92477
2.87818 8.46902
2.92281 9.40251
2.96744 9.71422
3.01209 10.2685
3.05672 11.2366
3.10135 11.6957
3.14599 13.0895
3.19062 14.5294
3.23527 15.1143
3.2799 16.3223
3.32454 16.8609
3.36917 17.8153
3.4138 18.8043
3.45844 20.0152
3.50309 20.7403
3.54773 21.6288
3.59237 23.8327
3.637 81.0076
3.68164 51.9578
3.7263 25.9508
3.77094 26.6454
3.81558 26.7387
3.86022 27.1952
3.90486 28.9568
3.9495 30.1223
3.99416 30.9585
4.0388 31.921
4.08344 33.7624
4.12809 35.1171
4.17273 37.1072
4.21738 42.8562
4.26204 210.011
4.30669 179.008
4.35133 47.8318
4.39598 44.5633
4.44063 53.1273
4.4853 62.3723
4.52995 51.0286
4.5746 51.6305
4.61925 53.7864
4.6639 55.7872
4.70855 58.687
4.75322 61.4014
4.79788 64.1182
4.84253 67.6933
4.88719 71.913
4.93184 75.4393
4.97652 81.464
5.02118 87.3214
5.06583 95.3307
5.11049 107.134
5.15515 166.564
5.19981 372.035
5.24449 2999.89
5.28916 12475.7
5.33382 2977.08
5.37848 195.744
5.42315 131.037
5.46783 114.541
5.5125 107.352
5.55716 103.291
5.60183 98.9036
5.6465 97.5441
5.69117 95.1625
5.73586 93.1767
5.78053 92.741
5.8252 91.7475
5.86988 93.2709
5.91455 95.6173
5.95924 103.901
6.00392 218.301
6.0486 1019.13
6.09328 4303.04
6.13795 3531.31
6.18263 256.344
6.22733 94.2678
6.27201 82.8497
6.3167 97.2988
6.36138 79.1062
6.40606 69.5103
6.45075 67.7749
6.49545 66.1051
6.54014 64.2214
6.58483 63.2789
6.62952 62.69
6.67421 89.2815
6.71892 127.138
6.76361 66.9903
6.8083 58.657
6.853 57.8497
6.89769 56.9917
6.94239 56.7705
6.98711 55.6996
7.03181 55.8454
7.07651 55.7268
7.12121 55.189
7.16591 55.3142
7.21063 55.5962
7.25533 68.7225
7.30004 155.338
7.34475 84.286
7.38945 56.5021
7.43416 54.4429
7.47889 54.5288
7.5236 55.05
7.56831 55.6668
7.61303 56.9389
7.65774 57.1833
7.70247 56.3846
7.74719 56.245
7.79191 57.2567
7.83663 57.4254
7.88135 58.4271
7.92607 59.1286
7.97081 60.2294
8.01553 61.1637
8.06026 62.443
8.10498 64.3846
8.14971 72.5531
8.19446 71.7943
8.23919 69.6866
8.28392 72.3555
8.32865 74.4037
8.37339 78.8591
8.41812 85.6327
8.46288 110.708
8.50761 168.429
8.55235 401.026
8.59709 1221.16
8.64183 2192.71
8.68658 1007.0
8.73134 185.417
8.77609 100.495
8.82083 93.704
8.86558 90.5972
8.91033 90.2765
8.9551 91.2182
8.99985 85.88
9.04461 84.3692
9.08936 83.489
9.13412 82.1365
9.17888 82.4759
9.22365 83.4641
9.26841 82.1855
9.31318 83.286
9.35794 83.4107
9.4027 83.7393
9.44749 84.3262
9.49226 84.7942
9.53703 85.9233
9.5818 87.9044
9.62657 92.2682
9.67134 97.5809
9.71614 93.5529
9.76091 94.6106
9.80569 97.1083
9.85047 100.62
9.89525 121.148
9.94005 132.915
9.98484 182.893
10.0296 356.534
10.0744 848.308
10.1192 1692.5
10.164 1575.38
10.2088 417.593
10.2536 129.462
10.2984 113.445
10.3432 113.844
10.388 105.194
10.4328 119.982
10.4776 163.745
10.5224 293.179
10.5672 503.294
10.612 490.529
10.6568 207.222
10.7017 97.6132
10.7465 87.0524
10.7913 83.7317
10.8361 81.7858
10.8809 79.4991
10.9257 78.4211
10.9706 78.5906
11.0154 75.1666
11.0602 73.2871
11.105 72.1206
11.1499 75.3093
11.1947 80.9205
11.2395 73.5297
11.2844 70.1606
11.3292 67.5866
11.374 66.5919
11.4189 66.1093
11.4637 65.5122
11.5086 65.3679
11.5534 68.0685
11.5983 65.7169
11.6431 64.0201
11.688 63.222
11.7328 63.2378
11.7777 63.1367
11.8225 62.9672
11.8674 62.8635
11.9122 63.0872
11.9571 63.0597
12.002 64.1205
12.0468 68.3727
12.0917 80.1055
12.1366 104.902
12.1814 154.186
12.2263 200.106
12.2712 166.298
12.3161 97.1816
12.3609 70.0815
12.4058 64.8572
12.4507 64.6597
12.4956 64.8388
12.5405 64.8709
12.5853 65.8318
12.6302 72.2396
12.6751 76.5513
12.72 69.754
12.7649 68.3004
12.8098 68.8416
12.8547 69.9736
12.8996 71.3115
12.9445 72.7688
12.9894 74.6104
13.0343 75.8861
13.0792 79.7845
13.1242 89.5195
13.1691 113.439
13.214 152.339
13.2589 245.837
13.3038 370.001
13.3487 419.721
13.3937 271.36
13.4386 128.736
13.4835 107.231
13.5285 122.729
13.5734 162.601
13.6183 252.397
13.6633 345.672
13.7082 335.439
13.7531 193.715
13.7981 100.576
13.843 82.6611
13.888 80.2144
13.9329 77.4432
13.9779 76.4363
14.0228 75.049
14.0678 73.7157
14.1127 73.058
14.1577 72.8848
14.2027 71.9307
14.2476 70.8612
14.2926 70.91
14.3376 71.8513
14.3825 70.6187
14.4275 69.4438
14.4725 69.2886
14.5175 69.387
14.5624 69.5231
14.6074 71.3689
14.6524 71.7937
14.6974 70.8315
14.7424 72.5399
14.7874 79.6285
14.8324 90.3368
14.8774 113.445
14.9224 156.764
14.9674 205.859
15.0124 214.999
15.0574 152.46
15.1024 93.2133
15.1474 73.2938
15.1924 71.1023
15.2374 71.1549
15.2824 70.3335
15.3274 68.1986
15.3725 67.3373
15.4175 66.8616
15.4625 66.5559
15.5076 66.5453
15.5526 66.5232
15.5976 66.2542
15.6426 67.4418
15.6877 73.247
15.7327 81.1121
15.7778 96.8106
15.8228 128.643
15.8679 168.865
15.9129 189.758
15.958 155.243
16.003 98.3249
16.0481 69.1727
16.0931 64.7595
16.1382 62.8341
16.1833 60.864
16.2283 59.2613
16.2734 58.6055
16.3185 58.9408
16.3636 59.2691
16.4086 58.0085
16.4537 56.4885
16.4988 55.8989
16.5439 55.8165
16.589 55.3425
16.6341 55.1789
16.6792 54.8681
16.7243 55.3454
16.7694 55.3507
16.8145 55.1574
16.8596 55.6296
16.9047 56.7418
16.9498 57.1311
16.9949 55.9509
17.04 56.397
17.0851 57.5531
17.1302 58.9905
17.1754 62.3269
17.2205 67.4146
17.2656 74.9323
17.3108 81.6192
17.3559 82.1234
17.401 72.906
17.4462 63.3659
17.4913 59.628
17.5365 59.686
17.5815 59.6158
17.6268 59.9077
17.6718 60.8104
17.7171 61.2407
17.7622 61.6464
17.8074 62.3807
17.8525 65.0574
17.8977 68.9779
17.9428 74.749
17.9881 84.1437
18.0331 101.609
18.0784 121.729
18.1237 137.999
18.1688 131.844
18.214 106.251
18.2591 88.6814
18.3044 91.7284
18.3495 100.136
18.3948 104.963
18.4399 96.7933
18.4852 79.4714
18.5303 67.0724
18.5756 62.6341
18.6207 61.5814
18.666 60.8946
18.7112 60.0954
18.7565 59.2974
18.8016 58.9137
18.8469 58.4429
18.892 58.3869
18.9374 57.6109
18.9825 57.4365
19.0278 57.3713
19.073 57.3661
19.1183 57.9451
19.1635 58.4655
19.2088 59.997
19.254 62.4958
19.2993 67.3877
19.3447 73.0771
19.3898 75.9404
19.4352 72.4295
19.4804 64.4725
19.5257 57.6441
19.5709 54.6362
19.6163 54.4277
19.6615 54.136
19.7068 53.5572
19.752 53.6457
19.7974 53.9262
19.8426 54.7534
19.888 55.3815
19.9332 56.8403
19.9786 59.3565
20.0238 63.1395
20.0692 67.3325
20.1144 69.5218
20.1598 68.3395
20.205 64.1451
20.2504 62.8224
20.2957 64.0852
20.3411 65.2638
20.3863 64.2154
20.4318 58.9717
20.477 54.2628
20.5224 51.8704
20.5677 51.2126
20.6131 50.6247
20.6586 50.1501
20.7038 49.8437
20.7493 49.4609
20.7945 49.2192
20.84 49.0939
20.8853 48.9606
20.9307 48.8399
20.976 49.0316
21.0215 48.8633
21.0668 49.392
21.1122 49.8848
21.1575 50.4849
21.203 51.1846
21.2483 51.5886
21.2938 51.5595
21.3391 50.4564
21.3846 49.3685
21.4299 48.8534
21.4754 48.5505
21.5207 48.7265
21.5662 49.0203
21.6116 49.5669
21.6571 50.4652
21.7024 51.127
21.7479 53.0763
21.7933 55.96
21.8388 59.3216
21.8843 62.7321
21.9297 64.3828
21.9752 63.5884
22.0206 60.4518
22.0661 57.1225
22.1115 56.3738
22.157 56.2761
22.2024 54.4682
22.248 51.8718
22.2933 50.4304
22.3389 49.4836
22.3843 49.2457
22.4299 49.1798
22.4753 49.0364
22.5208 48.9522
22.5662 48.7995
22.6118 48.8154
22.6572 49.2306
22.7028 49.5964
22.7483 50.0951
22.7939 50.6345
22.8393 52.287
22.8849 54.6297
22.9303 56.4025
22.9759 57.6901
23.0214 57.5458
23.067 54.8999
23.1126 51.6941
23.1581 49.7393
23.2037 49.0462
23.2492 49.2849
23.2948 49.3953
23.3403 49.4926
23.3859 50.1179
23.4314 51.2855
23.477 53.0787
23.5225 55.2363
23.5682 56.9138
23.6137 57.7102
23.6593 55.8574
23.7048 52.2259
23.7505 48.7143
23.796 46.9317
23.8417 46.354
23.8872 45.7939
23.9329 45.466
23.9784 45.1697
24.0241 44.9657
24.0697 44.7671
24.1154 44.4221
24.1609 44.4013
24.2066 44.2081
24.2522 44.026
24.2979 43.6523
24.3434 43.5934
24.3892 43.5047
24.4349 43.4072
24.4805 43.1709
24.5262 43.3793
24.5718 43.2503
24.6175 43.307
24.6631 43.0446
24.7089 42.8033
24.7545 42.6725
24.8002 42.5591
24.8458 42.5485
24.8916 42.4851
24.9372 42.4936
24.983 42.857
25.0286 43.0502
25.0744 43.7288
25.12 43.963
25.1658 44.5309
25.2114 45.1187
25.2572 45.2996
25.3029 45.2521
25.3487 45.098
25.3943 44.7889
25.4402 43.662
25.4858 42.7756
25.5316 41.8401
25.5773 41.2442
25.6231 41.1522
25.669 40.7546
25.7147 40.8084
25.7605 40.8469
25.8062 40.7412
25.8521 40.8669
25.8977 40.8832
25.9436 41.1097
25.9893 41.3572
26.0352 41.6925
26.0809 41.6564
26.1268 41.9217
26.1725 41.528
26.2184 41.0815
26.2641 40.6448
26.31 40.4198
26.3557 40.4662
26.4017 40.3483
26.4474 40.7916
26.4933 41.0964
26.5391 41.5328
26.585 41.9985
26.6308 42.2953
26.6767 42.3175
26.7225 42.2542
26.7684 41.753
26.8142 41.0883
26.8601 40.6914
26.9059 40.2894
26.9519 39.8166
26.9979 39.5418
27.0437 39.1079
27.0896 39.0666
27.1354 39.0918
27.1814 38.9406
27.2272 38.6944
27.2732 38.8745
27.3191 38.6071
27.3651 38.7594
27.4109 38.6688
27.4569 38.8916
27.5027 38.7348
27.5488 38.7886
27.5946 38.6124
27.6407 38.41
27.6865 38.3003
27.7326 38.0797
27.7784 38.1574
27.8245 38.0225
27.8703 38.208
27.9164 38.514
27.9623 38.7185
28.0084 38.9174
28.0543 39.3327
28.1003 39.3854
28.1462 39.0261
28.1923 38.8166
28.2384 38.1245
28.2843 37.8716
28.3304 37.4556
28.3764 37.0313
28.4225 36.7584
28.4684 36.5396
28.5145 36.2262
28.5605 36.0856
28.6066 35.9646
28.6526 35.8711
28.6987 35.8971
28.7447 35.7014
28.7908 35.7292
28.8368 35.695
28.8829 35.6916
28.9289 35.4884
28.9751 35.4355
29.0211 35.264
29.0673 34.8496
29.1133 34.7657
29.1595 34.5812
29.2055 34.57
29.2517 34.6595
29.2977 34.6082
29.3439 34.4067
29.3899 34.4082
29.4361 34.4125
29.4824 34.1622
29.5284 33.9104
29.5746 33.6631
29.6207 33.3487
29.6669 33.3091
29.713 33.2419
29.7593 33.1028
29.8053 33.1015
29.8516 33.0352
29.8977 32.9118
29.9439 32.8331
29.99 32.8463
30.0363 32.7078
30.0824 32.7216
30.1287 32.6442
30.1748 32.6482
30.2211 32.6936
30.2673 32.503
30.3136 32.5827
30.3597 32.4749
30.406 32.4243
30.4522 32.2603
30.4985 32.2917
30.5447 32.4724
30.591 32.3052
30.6372 32.488
30.6835 32.4073
30.7297 32.4332
30.7761 32.3362
30.8224 32.1615
30.8686 32.1181
30.915 31.8357
30.9612 31.713
31.0076 31.4836
31.0538 31.3564
31.1002 31.3609
31.1464 31.2187
31.1928 31.1594
31.2391 31.1992
31.2855 31.12
31.3317 31.0486
31.3781 31.2393
31.4244 31.2012
31.4708 30.9899
31.5171 31.0321
31.5636 30.9028
31.6098 30.7373
31.6563 30.6567
31.7026 30.4294
31.7491 30.3379
31.7953 30.4631
31.8418 30.4104
31.8881 30.2982
31.9346 30.3381
31.9809 30.1759
32.0275 30.1498
32.074 30.0439
32.1203 29.8397
32.1668 29.7751
32.2132 29.5492
32.2597 29.4844
32.306 29.3411
32.3526 29.1014
32.399 29.1867
32.4455 28.9996
32.4919 28.8806
32.5385 28.8302
32.5848 28.6821
32.6314 28.6536
32.6778 28.5716
32.7244 28.5355
32.7708 28.2981
32.8174 28.387
32.8638 28.2502
32.9104 28.246
32.9569 28.1475
33.0035 28.056
33.0499 28.1162
33.0966 27.9532
33.143 27.9709
33.1897 27.9615
33.2361 27.7581
33.2828 27.8064
33.3293 27.4815
33.3759 27.5904
33.4226 27.4486
33.4691 27.3694
33.5158 27.2862
33.5623 27.1222
33.609 26.9181
33.6555 26.9004
33.7022 26.8551
33.7487 26.6702
33.7954 26.7254
33.842 26.5167
33.8887 26.4588
33.9353 26.3692
33.982 26.2945
34.0286 26.2824
34.0753 26.1662
34.1219 26.107
34.1687 25.9871
34.2152 26.0097
34.262 25.8858
34.3086 25.7905
34.3554 25.636
34.402 25.5439
34.4488 25.4281
34.4954 25.4064
34.5422 25.3127
34.5889 25.2709
34.6357 25.1374
34.6825 25.2196
34.7292 25.0486
34.776 24.848
34.8227 24.9136
34.8695 24.8618
34.9162 24.7165
34.9631 24.561
35.0098 24.6378
35.0566 24.4941
35.1033 24.4915
35.1502 24.4266
35.1969 24.4285
35.2438 24.3522
35.2906 24.2209
35.3375 24.1682
35.3842 24.2026
35.4311 24.198
35.4779 24.1096
35.5248 24.034
35.5716 23.8754
35.6185 23.8897
35.6653 23.7362
35.7123 23.7087
35.759 23.6885
35.806 23.557
35.8528 23.3924
35.8998 23.3648
35.9468 23.2519
35.9936 23.2305
36.0406 23.0892
36.0874 23.1692
36.1345 23.056
36.1813 22.9667
36.2283 22.8653
36.2752 22.7949
36.3222 22.8067
36.3691 22.6834
36.4161 22.5273
36.463 22.579
36.5101 22.5555
36.557 22.541
36.6041 22.3531
36.651 22.3806
36.6981 22.3028
36.745 22.1434
36.7921 22.1402
36.839 21.9844
36.8861 21.8932
36.9331 21.8542
36.9802 21.8028
37.0272 21.7499
37.0743 21.5766
37.1213 21.587
37.1684 21.5894
37.2154 21.4903
37.2626 21.4847
37.3098 21.3049
37.3568 21.3178
37.404 21.2997
37.451 21.1658
37.4982 21.0623
37.5452 21.0356
37.5924 20.8823
37.6395 20.9626
37.6867 20.8401
37.7337 20.7353
37.781 20.6608
37.8281 20.5919
37.8753 20.4694
37.9224 20.497
37.9697 20.3919
38.0168 20.3144
38.064 20.3306
38.1111 20.2446
38.1584 20.1804
38.2056 20.0632
38.2529 19.9964
38.3 19.9751
38.3473 19.9549
38.3945 19.8267
38.4418 19.726
38.489 19.6887
38.5363 19.6396
38.5837 19.5004
38.6309 19.4921
38.6782 19.4455
38.7254 19.3924
38.7728 19.304
38.82 19.2765
38.8674 19.2791
38.9146 19.1347
38.9621 19.1733
39.0093 19.0899
39.0567 18.9729
39.104 18.9243
39.1514 18.8182
39.1987 18.8074
39.2461 18.6774
39.2934 18.6744
39.3409 18.5949
39.3882 18.5869
39.4356 18.4815
39.483 18.4886
39.5304 18.3962
39.5778 18.3842
39.6253 18.2562
39.6726 18.2217
39.7201 18.1895
39.7675 18.1204
39.815 18.044
39.8624 18.0055
39.9099 18.0058
39.9575 17.9492
40.0049 17.7727
40.0525 17.7653
40.0999 17.6615
40.1474 17.6067
40.1949 17.5927
40.2425 17.5452
40.2899 17.4232
40.3375 17.4054
40.385 17.3247
40.4326 17.2903
40.48 17.2448
40.5277 17.2217
40.5752 17.1107
40.6228 17.0839
40.6703 17.0188
40.718 16.9886
40.7655 16.9428
40.8132 16.8504
40.8607 16.8215
40.9084 16.8346
40.9559 16.7433
41.0036 16.6486
41.0512 16.5768
41.0989 16.5298
41.1465 16.4663
41.1942 16.4447
41.242 16.3554
41.2896 16.2902
41.3373 16.3202
41.3849 16.1455
41.4327 16.1499
41.4803 16.077
41.5281 16.0372
41.5758 16.0108
41.6236 15.9497
41.6712 15.964
41.7191 15.8235
41.7667 15.8086
41.8146 15.6776
41.8622 15.727
41.9101 15.666
41.9578 15.5446
42.0057 15.49
42.0534 15.4633
42.1013 15.476
42.149 15.3638
42.1969 15.3389
42.2446 15.3361
42.2925 15.2162
42.3403 15.1495
42.3882 15.1299
42.436 15.1094
42.4839 15.0058
42.5319 14.9641
42.5797 14.9347
42.6277 14.8491
42.6755 14.8282
42.7235 14.7419
42.7713 14.7619
42.8193 14.6383
42.8671 14.6016
42.9152 14.5548
42.963 14.5296
43.0111 14.444
43.0589 14.4094
43.107 14.3204
43.1549 14.2876
43.2029 14.2643
43.2508 14.2156
43.2989 14.1761
43.3468 14.1244
43.3949 14.0481
43.4429 13.9973
43.491 13.9815
43.5389 13.9275
43.5871 13.8908
43.635 13.8292
43.6832 13.8003
43.7312 13.7298
43.7793 13.686
43.8273 13.6575
43.8755 13.6143
43.9237 13.5293
43.9717 13.5173
44.0199 13.4797
44.068 13.4021
44.1162 13.363
44.1642 13.3649
44.2125 13.2524
44.2606 13.2189
44.3088 13.1598
44.3569 13.1341
44.4052 13.1109
44.4533 13.052
44.5016 12.9355
44.5497 12.9682
44.598 12.8842
44.6461 12.8578
44.6945 12.7881
44.7426 12.7752
44.791 12.7317
44.8391 12.66
44.8875 12.6186
44.9357 12.6179
44.984 12.5632
45.0322 12.4781
45.0806 12.4484
45.1288 12.4009
45.1773 12.3625
45.2257 12.3016
45.2739 12.2558
45.3224 12.2527
45.3706 12.1973
45.4191 12.1391
45.4673 12.1293
45.5158 12.0824
45.5641 12.0349
45.6126 11.9858
45.6609 11.9108
45.7094 11.8711
45.7577 11.8296
45.8063 11.7636
45.8546 11.7601
45.9031 11.718
45.9515 11.6862
46.0001 11.6532
46.0484 11.6331
46.097 11.5714
46.1454 11.5403
46.194 11.4906
46.2424 11.4181
46.291 11.3985
46.3395 11.3314
46.3881 11.2546
46.4365 11.2805
46.4852 11.2416
46.5337 11.182
46.5823 11.1632
46.631 11.1238
46.6795 11.0511
46.7282 11.0282
46.7767 10.9779
46.8254 10.9385
46.8739 10.8977
46.9226 10.8789
46.9712 10.843
47.0199 10.7763
47.0685 10.7618
47.1173 10.6839
47.1658 10.6294
47.2146 10.6157
47.2632 10.5778
47.312 10.5628
47.3606 10.505
47.4095 10.5032
47.4581 10.443
47.5069 10.3616
47.5556 10.3514
47.6044 10.3068
47.6531 10.3004
47.702 10.226
47.7507 10.2108
47.7996 10.1651
47.8483 10.1253
47.8972 10.1017
47.9461 10.0964
47.9948 9.96373
48.0438 9.99725
48.0925 9.95384
48.1415 9.90754
48.1902 9.85036
48.2392 9.86915
48.288 9.77942
48.337 9.80128
48.3858 9.74006
48.4348 9.72895
48.4837 9.69603
48.5327 9.6158
48.5815 9.60092
48.6306 9.53329
48.6795 9.54928
48.7285 9.45706
48.7774 9.48961
48.8265 9.37303
48.8754 9.3632
48.9245 9.34544
48.9734 9.3003
49.0226 9.28368
49.0715 9.21875
49.1206 9.17889
49.1696 9.18344
49.2188 9.1504
49.2679 9.08887
49.3169 9.0451
49.3661 9.00663
49.4151 8.97624
49.4643 8.92359
49.5134 8.87486
49.5626 8.86449
49.6117 8.82938
49.6609 8.80801
49.71 8.76245
49.7592 8.73868
49.8083 8.6953
49.8576 8.70623
49.9067 8.63988
49.956 8.60617
50.0052 8.58324
50.0545 8.59169
50.1036 8.55844
50.153 8.48735
50.2022 8.48422
50.2515 8.40661
50.3007 8.37819
50.3501 8.35941
50.3993 8.31407
50.4487 8.29184
50.498 8.25199
50.5474 8.1957
50.5966 8.20069
50.6461 8.16625
50.6955 8.14204
50.7448 8.11285
50.7943 8.11102
50.8436 8.03505
50.8931 7.9862
50.9424 7.99161
50.9919 7.94906
51.0413 7.90617
51.0908 7.86977
51.1402 7.82374
51.1897 7.835
51.2391 7.8084
51.2887 7.72942
51.3381 7.68602
51.3877 7.73585
51.4371 7.68559
51.4867 7.62421
51.5362 7.58896
51.5858 7.5684
51.6353 7.5271
51.6849 7.48155
51.7344 7.48961
51.7841 7.51285
51.8336 7.42052
51.8833 7.37323
51.9328 7.3368
51.9826 7.32186
52.0323 7.31823
52.0818 7.20882
52.1316 7.22791
52.1812 7.20108
52.231 7.19671
52.2806 7.13968
52.3304 7.12362
52.38 7.08272
52.4298 7.05816
52.4794 7.01732
52.5293 7.01094
52.5789 6.96441
52.6288 6.95532
52.6785 6.89616
52.7284 6.8927
52.7781 6.85527
52.828 6.83785
52.8777 6.76625
52.9276 6.7314
52.9774 6.77064
53.0273 6.73538
53.0771 6.65644
53.1271 6.65091
53.1769 6.62568
53.2269 6.64321
53.2767 6.56376
53.3267 6.54698
53.3765 6.57469
53.4266 6.46083
53.4766 6.4763
53.5265 6.41784
53.5765 6.3726
53.6264 6.39214
53.6765 6.36038
53.7264 6.32563
53.7765 6.30461
53.8265 6.27698
53.8766 6.21372
53.9266 6.20976
53.9767 6.16162
54.0267 6.19175
54.0769 6.16128
54.1269 6.11716
54.1771 6.08237
54.2271 6.03265
54.2773 5.97565
54.3274 6.01284
54.3776 5.91664
54.4277 5.9083
54.478 5.8869
54.528 5.87213
54.5783 5.80822
54.6285 5.76657
54.6788 5.69775
54.7289 5.69634
54.7792 5.65669
54.8296 5.55172
54.8798 5.5773
54.9301 5.51651
54.9803 5.50669
55.0307 5.46588
55.0809 5.39471
55.1314 5.38311
55.1816 5.32962
55.232 5.3044
55.2823 5.26428
55.3328 5.23688
55.383 5.15847
55.4335 5.08367
55.4838 5.02758
55.5344 4.99767
55.5847 4.98221
55.6352 4.93963
55.6856 4.94123
55.7361 4.90882