File: XRD/Ni3Fe_FD0154.xy
TT I
1.27165 8.04219
1.31627 7.10115
1.36089 7.11389
1.40551 6.16597
1.45013 6.32862
1.49476 5.94593
1.53938 6.28309
1.584 5.46137
1.62863 5.18941
1.67325 5.67395
1.71787 6.1831
1.7625 5.29312
1.80712 5.50329
1.85174 4.58357
1.89636 5.32108
1.94099 5.11944
1.98562 4.91959
2.03025 4.83735
2.07487 4.77876
2.11949 5.10604
2.16411 4.65414
2.20874 4.77121
2.25338 3.72624
2.298 4.52266
2.34263 4.39407
2.38725 4.74526
2.43188 4.30826
2.4765 5.00508
2.52115 3.93014
2.56577 4.85516
2.6104 5.06865
2.65503 4.1066
2.69965 5.02697
2.7443 5.99099
2.78893 6.2758
2.83356 7.43659
2.87818 7.89244
2.92281 8.82433
2.96744 9.50415
3.01209 10.447
3.05672 11.1633
3.10135 12.7739
3.14599 13.303
3.19062 14.3248
3.23527 15.0438
3.2799 15.9803
3.32454 16.7259
3.36917 17.73
3.4138 19.0404
3.45844 19.6459
3.50309 20.6201
3.54773 21.0047
3.59237 22.0931
3.637 23.1093
3.68164 23.1786
3.7263 24.2896
3.77094 25.2738
3.81558 25.7968
3.86022 26.8547
3.90486 27.9382
3.9495 28.6049
3.99416 29.6259
4.0388 30.6737
4.08344 32.0844
4.12809 32.6289
4.17273 33.7413
4.21738 35.7786
4.26204 36.5833
4.30669 38.0786
4.35133 39.7053
4.39598 41.2329
4.44063 43.0432
4.4853 44.8758
4.52995 46.9314
4.5746 49.2263
4.61925 51.2752
4.6639 53.8853
4.70855 56.7897
4.75322 59.4893
4.79788 62.5393
4.84253 65.8236
4.88719 70.4133
4.93184 75.5568
4.97652 82.8451
5.02118 90.4564
5.06583 101.27
5.11049 117.034
5.15515 154.41
5.19981 543.72
5.24449 3765.19
5.28916 8308.88
5.33382 6354.07
5.37848 450.701
5.42315 162.173
5.46783 127.757
5.5125 114.224
5.55716 107.281
5.60183 102.247
5.6465 98.6848
5.69117 97.3605
5.73586 95.4597
5.78053 95.5797
5.8252 95.4167
5.86988 98.6563
5.91455 105.32
5.95924 123.856
6.00392 287.279
6.0486 1384.27
6.09328 2731.6
6.13795 4028.31
6.18263 728.589
6.22733 122.38
6.27201 88.5574
6.3167 78.2775
6.36138 72.4965
6.40606 68.464
6.45075 66.2338
6.49545 64.0535
6.54014 62.3403
6.58483 60.6213
6.62952 59.8729
6.67421 58.5593
6.71892 57.2231
6.76361 56.3646
6.8083 55.6933
6.853 55.1109
6.89769 54.7091
6.94239 54.3603
6.98711 53.4505
7.03181 53.1995
7.07651 52.761
7.12121 52.448
7.16591 52.2923
7.21063 52.0411
7.25533 51.8607
7.30004 51.9361
7.34475 52.0297
7.38945 52.147
7.43416 51.9156
7.47889 52.073
7.5236 55.672
7.56831 63.2391
7.61303 55.3379
7.65774 53.7337
7.70247 54.1529
7.74719 54.274
7.79191 55.05
7.83663 55.2008
7.88135 56.2031
7.92607 57.1881
7.97081 58.2636
8.01553 58.9704
8.06026 60.8237
8.10498 61.6521
8.14971 63.7555
8.19446 65.5288
8.23919 67.4725
8.28392 70.8737
8.32865 73.3503
8.37339 78.2749
8.41812 83.4642
8.46288 95.4193
8.50761 172.487
8.55235 599.172
8.59709 890.912
8.64183 1493.73
8.68658 1629.0
8.73134 386.131
8.77609 116.086
8.82083 97.0968
8.86558 91.1329
8.91033 87.4166
8.9551 84.8816
8.99985 83.9833
9.04461 82.8495
9.08936 82.2615
9.13412 81.235
9.17888 81.4025
9.22365 86.9658
9.26841 97.2122
9.31318 86.2322
9.35794 82.3865
9.4027 81.9681
9.44749 82.4058
9.49226 83.4603
9.53703 84.2461
9.5818 85.9718
9.62657 86.9761
9.67134 88.6214
9.71614 90.3305
9.76091 92.6657
9.80569 95.3142
9.85047 98.6352
9.89525 103.688
9.94005 113.918
9.98484 185.045
10.0296 543.215
10.0744 734.674
10.1192 1038.35
10.164 1657.79
10.2088 981.322
10.2536 215.498
10.2984 116.327
10.3432 108.001
10.388 104.303
10.4328 121.183
10.4776 214.699
10.5224 262.375
10.5672 330.546
10.612 486.403
10.6568 364.376
10.7017 133.255
10.7465 90.5289
10.7913 83.5691
10.8361 80.4482
10.8809 78.188
10.9257 75.4625
10.9706 74.565
11.0154 72.6854
11.0602 70.9406
11.105 70.0979
11.1499 68.6916
11.1947 67.7182
11.2395 66.7329
11.2844 66.0641
11.3292 65.3694
11.374 64.5642
11.4189 64.0944
11.4637 63.2943
11.5086 62.6463
11.5534 62.4061
11.5983 62.3919
11.6431 61.9646
11.688 61.4572
11.7328 61.3005
11.7777 60.9841
11.8225 60.781
11.8674 61.2518
11.9122 62.2061
11.9571 65.7056
12.002 65.1374
12.0468 67.6583
12.0917 90.2792
12.1366 107.991
12.1814 117.762
12.2263 151.489
12.2712 192.151
12.3161 138.629
12.3609 74.6603
12.4058 64.0643
12.4507 63.325
12.4956 62.9999
12.5405 62.9925
12.5853 63.4328
12.6302 63.7231
12.6751 64.4005
12.72 64.908
12.7649 65.9508
12.8098 66.7553
12.8547 68.4475
12.8996 69.7024
12.9445 71.2459
12.9894 73.0561
13.0343 74.8893
13.0792 79.0003
13.1242 86.3248
13.1691 132.621
13.214 186.208
13.2589 204.916
13.3038 246.048
13.3487 350.085
13.3937 381.9
13.4386 211.131
13.4835 119.711
13.5285 153.679
13.5734 182.286
13.6183 192.948
13.6633 239.194
13.7082 332.931
13.7531 307.256
13.7981 153.601
13.843 88.1055
13.888 80.5979
13.9329 77.5697
13.9779 75.998
14.0228 74.2198
14.0678 72.9187
14.1127 72.529
14.1577 73.9412
14.2027 72.3679
14.2476 70.3591
14.2926 69.2505
14.3376 69.0085
14.3825 68.74
14.4275 68.2752
14.4725 68.1272
14.5175 68.41
14.5624 68.1891
14.6074 68.5117
14.6524 69.0544
14.6974 69.6218
14.7424 71.1028
14.7874 80.1168
14.8324 107.006
14.8774 120.828
14.9224 127.339
14.9674 149.053
15.0124 192.078
15.0574 203.556
15.1024 139.78
15.1474 81.9703
15.1924 71.2147
15.2374 69.1395
15.2824 67.7125
15.3274 67.0184
15.3725 66.4032
15.4175 66.1989
15.4625 65.7922
15.5076 65.3377
15.5526 65.4435
15.5976 65.567
15.6426 66.365
15.6877 73.7091
15.7327 94.5512
15.7778 107.363
15.8228 111.121
15.8679 124.839
15.9129 155.134
15.958 184.882
16.003 151.262
16.0481 87.8799
16.0931 66.039
16.1382 61.9499
16.1833 60.2211
16.2283 58.7838
16.2734 58.0626
16.3185 57.3213
16.3636 56.5336
16.4086 55.7658
16.4537 55.3555
16.4988 54.9806
16.5439 54.8833
16.589 54.6918
16.6341 54.3776
16.6792 53.8533
16.7243 54.0607
16.7694 54.1493
16.8145 54.0191
16.8596 54.1626
16.9047 54.7779
16.9498 55.2141
16.9949 54.8555
17.04 55.3624
17.0851 56.8033
17.1302 60.6714
17.1754 64.2504
17.2205 65.3322
17.2656 67.1417
17.3108 72.1874
17.3559 79.2632
17.401 80.7332
17.4462 70.9409
17.4913 61.2706
17.5365 58.8992
17.5815 58.8585
17.6268 59.2079
17.6718 59.6415
17.7171 60.2378
17.7622 61.1579
17.8074 62.0956
17.8525 63.6835
17.8977 71.9993
17.9428 83.7866
17.9881 88.4437
18.0331 91.1979
18.0784 98.2367
18.1237 115.023
18.1688 141.19
18.214 142.111
18.2591 110.506
18.3044 88.2156
18.3495 86.5991
18.3948 95.3289
18.4399 104.023
18.4852 94.9952
18.5303 76.3875
18.5756 64.9181
18.6207 62.0184
18.666 60.8991
18.7112 59.981
18.7565 59.0294
18.8016 58.6339
18.8469 58.2255
18.892 57.7702
18.9374 57.2554
18.9825 56.9067
19.0278 56.6526
19.073 56.5916
19.1183 57.1711
19.1635 59.5786
19.2088 61.888
19.254 62.4021
19.2993 62.9988
19.3447 65.0696
19.3898 69.059
19.4352 73.801
19.4804 72.2875
19.5257 63.6484
19.5709 56.319
19.6163 54.3295
19.6615 53.8719
19.7068 53.3285
19.752 53.2776
19.7974 53.3855
19.8426 54.5897
19.888 56.8351
19.9332 58.0559
19.9786 58.6092
20.0238 59.1207
20.0692 61.733
20.1144 66.8517
20.1598 72.4008
20.205 70.8798
20.2504 65.3704
20.2957 61.3191
20.3411 61.6289
20.3863 64.4836
20.4318 64.0085
20.477 59.0005
20.5224 53.0197
20.5677 51.0348
20.6131 50.4498
20.6586 49.8337
20.7038 49.685
20.7493 49.1956
20.7945 49.0955
20.84 49.0838
20.8853 48.8357
20.9307 48.6132
20.976 48.9714
21.0215 48.926
21.0668 49.3051
21.1122 49.426
21.1575 49.5362
21.203 49.695
21.2483 50.1763
21.2938 51.374
21.3391 51.3209
21.3846 50.4188
21.4299 49.2913
21.4754 48.7768
21.5207 48.6522
21.5662 48.8732
21.6116 49.401
21.6571 51.4648
21.7024 53.0973
21.7479 53.9581
21.7933 54.497
21.8388 55.7433
21.8843 58.7356
21.9297 62.0444
21.9752 65.9032
22.0206 65.6936
22.0661 60.6407
22.1115 56.0647
22.157 55.7272
22.2024 56.3945
22.248 55.067
22.2933 52.4737
22.3389 50.0344
22.3843 49.04
22.4299 48.7986
22.4753 48.9396
22.5208 48.69
22.5662 48.7311
22.6118 48.9736
22.6572 49.0529
22.7028 50.1962
22.7483 51.3062
22.7939 51.8948
22.8393 51.9778
22.8849 52.704
22.9303 53.4357
22.9759 54.9212
23.0214 57.2213
23.067 58.2975
23.1126 55.8809
23.1581 52.1473
23.2037 49.9428
23.2492 49.3262
23.2948 49.8224
23.3403 50.995
23.3859 51.7446
23.4314 51.6763
23.477 51.8791
23.5225 52.3518
23.5682 53.7293
23.6137 55.9388
23.6593 57.7715
23.7048 57.3373
23.7505 53.1133
23.796 49.2284
23.8417 46.8859
23.8872 45.9965
23.9329 45.621
23.9784 45.2694
24.0241 44.9815
24.0697 44.7251
24.1154 44.2606
24.1609 44.0762
24.2066 43.979
24.2522 43.8933
24.2979 43.5494
24.3434 43.423
24.3892 43.4062
24.4349 43.1415
24.4805 42.9654
24.5262 43.1534
24.5718 42.947
24.6175 43.0617
24.6631 43.0127
24.7089 42.8059
24.7545 42.7161
24.8002 42.4521
24.8458 42.5222
24.8916 42.5691
24.9372 42.6522
24.983 42.7524
25.0286 43.0909
25.0744 43.4723
25.12 43.795
25.1658 44.2921
25.2114 44.6871
25.2572 44.9897
25.3029 44.8865
25.3487 44.8476
25.3943 44.8237
25.4402 44.9091
25.4858 44.4123
25.5316 43.009
25.5773 41.7219
25.6231 41.3168
25.669 40.8466
25.7147 40.7499
25.7605 40.6445
25.8062 40.8657
25.8521 41.2048
25.8977 40.9494
25.9436 41.1008
25.9893 41.0142
26.0352 41.3489
26.0809 41.2623
26.1268 41.5969
26.1725 41.9668
26.2184 41.8647
26.2641 41.4537
26.31 40.9761
26.3557 40.8708
26.4017 40.7705
26.4474 40.7731
26.4933 40.8271
26.5391 41.114
26.585 41.4554
26.6308 41.727
26.6767 42.1823
26.7225 42.5786
26.7684 42.8184
26.8142 41.9919
26.8601 41.2107
26.9059 40.8594
26.9519 40.3465
26.9979 39.8764
27.0437 39.4824
27.0896 39.1056
27.1354 39.0426
27.1814 39.0346
27.2272 38.9306
27.2732 38.8844
27.3191 38.8278
27.3651 38.7645
27.4109 38.6357
27.4569 38.7702
27.5027 38.61
27.5488 38.7079
27.5946 38.9198
27.6407 38.7916
27.6865 38.7218
27.7326 38.6562
27.7784 38.4836
27.8245 38.1413
27.8703 38.383
27.9164 38.4731
27.9623 38.512
28.0084 38.6397
28.0543 38.9553
28.1003 39.1136
28.1462 39.4458
28.1923 39.4154
28.2384 38.8602
28.2843 38.4723
28.3304 38.0117
28.3764 37.6126
28.4225 37.0984
28.4684 36.7698
28.5145 36.1832
28.5605 36.1964
28.6066 36.0066
28.6526 36.0478
28.6987 35.895
28.7447 35.6506
28.7908 35.5973
28.8368 35.6506
28.8829 35.4496
28.9289 35.5022
28.9751 35.4426
29.0211 35.3206
29.0673 35.2139
29.1133 34.9495
29.1595 34.8015
29.2055 34.4965
29.2517 34.4455
29.2977 34.3655
29.3439 34.4164
29.3899 34.2957
29.4361 34.2847
29.4824 34.1764
29.5284 34.2197
29.5746 33.9901
29.6207 33.6257
29.6669 33.4216
29.713 33.3509
29.7593 33.0384
29.8053 33.0872
29.8516 32.9702
29.8977 32.9771
29.9439 32.8513
29.99 32.9058
30.0363 32.705
30.0824 32.7761
30.1287 32.5565
30.1748 32.5744
30.2211 32.6097
30.2673 32.5048
30.3136 32.6215
30.3597 32.6243
30.406 32.6082
30.4522 32.4732
30.4985 32.3274
30.5447 32.4521
30.591 32.231
30.6372 32.3594
30.6835 32.3327
30.7297 32.3908
30.7761 32.4072
30.8224 32.4028
30.8686 32.3973
30.915 32.0932
30.9612 31.9704
31.0076 31.7675
31.0538 31.5793
31.1002 31.521
31.1464 31.2943
31.1928 31.2815
31.2391 31.297
31.2855 31.1415
31.3317 31.0618
31.3781 31.1648
31.4244 31.1219
31.4708 30.9602
31.5171 30.9362
31.5636 31.0963
31.6098 31.0651
31.6563 30.8356
31.7026 30.7077
31.7491 30.3879
31.7953 30.4281
31.8418 30.4124
31.8881 30.2996
31.9346 30.2657
31.9809 30.2268
32.0275 30.2688
32.074 30.1532
32.1203 29.9994
32.1668 29.985
32.2132 29.6643
32.2597 29.5924
32.306 29.5124
32.3526 29.2649
32.399 29.1557
32.4455 29.0634
32.4919 28.9
32.5385 28.889
32.5848 28.7798
32.6314 28.7697
32.6778 28.6712
32.7244 28.4778
32.7708 28.4975
32.8174 28.4455
32.8638 28.2562
32.9104 28.2591
32.9569 28.2492
33.0035 27.998
33.0499 28.1115
33.0966 27.9324
33.143 27.9032
33.1897 27.8399
33.2361 27.8792
33.2828 27.8128
33.3293 27.7096
33.3759 27.6586
33.4226 27.5361
33.4691 27.4515
33.5158 27.3045
33.5623 27.1889
33.609 27.0251
33.6555 26.8842
33.7022 26.7759
33.7487 26.7606
33.7954 26.7055
33.842 26.5838
33.8887 26.5129
33.9353 26.5127
33.982 26.3855
34.0286 26.2808
34.0753 26.2844
34.1219 26.1286
34.1687 25.9005
34.2152 25.8991
34.262 25.8575
34.3086 25.7099
34.3554 25.652
34.402 25.5989
34.4488 25.4707
34.4954 25.4575
34.5422 25.3935
34.5889 25.296
34.6357 25.252
34.6825 25.1067
34.7292 24.9714
34.776 24.8767
34.8227 24.8619
34.8695 24.7572
34.9162 24.736
34.9631 24.6829
35.0098 24.6272
35.0566 24.6218
35.1033 24.4007
35.1502 24.3963
35.1969 24.4078
35.2438 24.3514
35.2906 24.2665
35.3375 24.2078
35.3842 24.0992
35.4311 24.1068
35.4779 24.0924
35.5248 24.1048
35.5716 24.0322
35.6185 23.8707
35.6653 23.9333
35.7123 23.7423
35.759 23.6279
35.806 23.5516
35.8528 23.4284
35.8998 23.3236
35.9468 23.2595
35.9936 23.2321
36.0406 23.1817
36.0874 23.1111
36.1345 23.132
36.1813 23.0181
36.2283 22.9852
36.2752 22.8521
36.3222 22.8197
36.3691 22.8219
36.4161 22.6663
36.463 22.676
36.5101 22.6061
36.557 22.5001
36.6041 22.3989
36.651 22.3762
36.6981 22.2811
36.745 22.1738
36.7921 22.1393
36.839 22.1319
36.8861 21.986
36.9331 21.8743
36.9802 21.788
37.0272 21.7408
37.0743 21.6682
37.1213 21.7065
37.1684 21.5438
37.2154 21.5584
37.2626 21.3862
37.3098 21.4166
37.3568 21.3365
37.404 21.2968
37.451 21.1198
37.4982 21.1161
37.5452 21.0473
37.5924 20.951
37.6395 20.9648
37.6867 20.8831
37.7337 20.8412
37.781 20.6725
37.8281 20.6515
37.8753 20.5238
37.9224 20.4318
37.9697 20.4663
38.0168 20.3488
38.064 20.2485
38.1111 20.2943
38.1584 20.1501
38.2056 20.1897
38.2529 20.037
38.3 20.0329
38.3473 19.9485
38.3945 19.7613
38.4418 19.8008
38.489 19.738
38.5363 19.6721
38.5837 19.6002
38.6309 19.5044
38.6782 19.4417
38.7254 19.4256
38.7728 19.3641
38.82 19.2338
38.8674 19.2833
38.9146 19.1932
38.9621 19.0862
39.0093 19.0709
39.0567 19.052
39.104 18.9288
39.1514 18.7436
39.1987 18.7384
39.2461 18.7277
39.2934 18.6985
39.3409 18.576
39.3882 18.5321
39.4356 18.5578
39.483 18.4189
39.5304 18.4254
39.5778 18.3457
39.6253 18.323
39.6726 18.1874
39.7201 18.1229
39.7675 18.1163
39.815 18.0455
39.8624 17.9708
39.9099 17.9307
39.9575 17.9192
40.0049 17.8706
40.0525 17.7191
40.0999 17.7278
40.1474 17.6407
40.1949 17.5698
40.2425 17.5846
40.2899 17.5047
40.3375 17.4325
40.385 17.4293
40.4326 17.3583
40.48 17.2919
40.5277 17.2401
40.5752 17.1554
40.6228 17.1132
40.6703 17.0483
40.718 17.0154
40.7655 16.9622
40.8132 16.8688
40.8607 16.868
40.9084 16.7958
40.9559 16.7433
41.0036 16.6567
41.0512 16.6081
41.0989 16.6206
41.1465 16.5144
41.1942 16.4957
41.242 16.4213
41.2896 16.3228
41.3373 16.2966
41.3849 16.2423
41.4327 16.1768
41.4803 16.1097
41.5281 16.104
41.5758 15.9537
41.6236 15.9277
41.6712 15.8973
41.7191 15.8059
41.7667 15.7779
41.8146 15.7549
41.8622 15.6843
41.9101 15.7015
41.9578 15.623
42.0057 15.4867
42.0534 15.4883
42.1013 15.4495
42.149 15.3556
42.1969 15.3322
42.2446 15.2744
42.2925 15.2217
42.3403 15.2063
42.3882 15.1739
42.436 15.0421
42.4839 15.014
42.5319 14.947
42.5797 14.9226
42.6277 14.8395
42.6755 14.7861
42.7235 14.7995
42.7713 14.7287
42.8193 14.7084
42.8671 14.6263
42.9152 14.5819
42.963 14.522
43.0111 14.451
43.0589 14.401
43.107 14.2939
43.1549 14.3115
43.2029 14.2546
43.2508 14.2483
43.2989 14.2021
43.3468 14.1402
43.3949 14.1153
43.4429 14.0779
43.491 13.9737
43.5389 13.9535
43.5871 13.8538
43.635 13.8515
43.6832 13.7792
43.7312 13.7494
43.7793 13.7062
43.8273 13.6046
43.8755 13.6364
43.9237 13.5576
43.9717 13.4684
44.0199 13.4611
44.068 13.4356
44.1162 13.38
44.1642 13.3109
44.2125 13.3249
44.2606 13.2375
44.3088 13.1553
44.3569 13.1332
44.4052 13.168
44.4533 13.0369
44.5016 12.9672
44.5497 12.9441
44.598 12.9176
44.6461 12.8859
44.6945 12.8264
44.7426 12.7672
44.791 12.6991
44.8391 12.7062
44.8875 12.5981
44.9357 12.5702
44.984 12.5569
45.0322 12.5184
45.0806 12.4542
45.1288 12.4269
45.1773 12.354
45.2257 12.3576
45.2739 12.2511
45.3224 12.2211
45.3706 12.2541
45.4191 12.1112
45.4673 12.1116
45.5158 12.0836
45.5641 11.9514
45.6126 12.0075
45.6609 11.9089
45.7094 11.8874
45.7577 11.8316
45.8063 11.7757
45.8546 11.7817
45.9031 11.7364
45.9515 11.6486
46.0001 11.6202
46.0484 11.6104
46.097 11.5775
46.1454 11.5535
46.194 11.4927
46.2424 11.4382
46.291 11.3722
46.3395 11.3692
46.3881 11.289
46.4365 11.2643
46.4852 11.2249
46.5337 11.1867
46.5823 11.1681
46.631 11.0771
46.6795 11.0543
46.7282 11.0349
46.7767 10.9967
46.8254 10.9334
46.8739 10.8991
46.9226 10.8682
46.9712 10.8245
47.0199 10.786
47.0685 10.7685
47.1173 10.699
47.1658 10.6519
47.2146 10.6596
47.2632 10.6057
47.312 10.5791
47.3606 10.5258
47.4095 10.472
47.4581 10.4498
47.5069 10.3906
47.5556 10.3219
47.6044 10.305
47.6531 10.273
47.702 10.2269
47.7507 10.1977
47.7996 10.1685
47.8483 10.0934
47.8972 10.0844
47.9461 10.0661
47.9948 10.0279
48.0438 10.0139
48.0925 9.93245
48.1415 9.9047
48.1902 9.88412
48.2392 9.86359
48.288 9.7856
48.337 9.75379
48.3858 9.74356
48.4348 9.69584
48.4837 9.69473
48.5327 9.62204
48.5815 9.56506
48.6306 9.60115
48.6795 9.51809
48.7285 9.46816
48.7774 9.45773
48.8265 9.42844
48.8754 9.38241
48.9245 9.3429
48.9734 9.32179
49.0226 9.30735
49.0715 9.27196
49.1206 9.20885
49.1696 9.19198
49.2188 9.17849
49.2679 9.06527
49.3169 9.0533
49.3661 9.04519
49.4151 8.96906
49.4643 8.99101
49.5134 8.91084
49.5626 8.88709
49.6117 8.86048
49.6609 8.83152
49.71 8.77046
49.7592 8.7626
49.8083 8.71318
49.8576 8.6971
49.9067 8.61364
49.956 8.64015
50.0052 8.57833
50.0545 8.54132
50.1036 8.52229
50.153 8.50635
50.2022 8.48079
50.2515 8.41942
50.3007 8.3987
50.3501 8.3917
50.3993 8.34008
50.4487 8.25612
50.498 8.30244
50.5474 8.25695
50.5966 8.2029
50.6461 8.19765
50.6955 8.12979
50.7448 8.16331
50.7943 8.05418
50.8436 8.0746
50.8931 8.01833
50.9424 8.02182
50.9919 7.96096
51.0413 7.9852
51.0908 7.90874
51.1402 7.87988
51.1897 7.83198
51.2391 7.7927
51.2887 7.75811
51.3381 7.71426
51.3877 7.70602
51.4371 7.68523
51.4867 7.63635
51.5362 7.64898
51.5858 7.57981
51.6353 7.56475
51.6849 7.5073
51.7344 7.4943
51.7841 7.4892
51.8336 7.44371
51.8833 7.4032
51.9328 7.31066
51.9826 7.29116
52.0323 7.27294
52.0818 7.24765
52.1316 7.21896
52.1812 7.23956
52.231 7.18801
52.2806 7.16594
52.3304 7.1343
52.38 7.1107
52.4298 7.08357
52.4794 7.02769
52.5293 7.01689
52.5789 6.97054
52.6288 6.94494
52.6785 6.9356
52.7284 6.89818
52.7781 6.86473
52.828 6.855
52.8777 6.80102
52.9276 6.78139
52.9774 6.73897
53.0273 6.72463
53.0771 6.68962
53.1271 6.69475
53.1769 6.608
53.2269 6.61789
53.2767 6.5472
53.3267 6.57352
53.3765 6.53679
53.4266 6.50245
53.4766 6.44941
53.5265 6.44781
53.5765 6.41495
53.6264 6.39703
53.6765 6.33456
53.7264 6.37282
53.7765 6.31716
53.8265 6.28145
53.8766 6.24429
53.9266 6.23048
53.9767 6.17031
54.0267 6.17599
54.0769 6.10863
54.1269 6.06456
54.1771 6.01978
54.2271 6.00882
54.2773 6.0062
54.3274 5.96109
54.3776 5.95739
54.4277 5.86348
54.478 5.85401
54.528 5.77901
54.5783 5.7667
54.6285 5.68684
54.6788 5.7266
54.7289 5.69095
54.7792 5.56001
54.8296 5.49121
54.8798 5.45373
54.9301 5.43176
54.9803 5.4151
55.0307 5.43626
55.0809 5.35171
55.1314 5.31641
55.1816 5.23493
55.232 5.21794
55.2823 5.1877
55.3328 5.06211
55.383 5.05106
55.4335 4.99984
55.4838 4.92565
55.5344 4.9002
55.5847 4.88625
55.6352 4.89256
55.6856 4.85352
55.7361 4.76137