File: XRD/Ni3Fe_FD0827.xy
TT I
1.27165 7.42592
1.31627 7.46207
1.36089 6.40037
1.40551 5.97352
1.45013 6.09733
1.49476 5.9613
1.53938 5.83329
1.584 5.42587
1.62863 4.94539
1.67325 4.89229
1.71787 4.83409
1.7625 4.82077
1.80712 4.94947
1.85174 4.51885
1.89636 4.65473
1.94099 4.97087
1.98562 5.03835
2.03025 4.33257
2.07487 4.69659
2.11949 5.05635
2.16411 4.88985
2.20874 8.02277
2.25338 10.3783
2.298 5.48895
2.34263 5.7854
2.38725 5.64047
2.43188 6.33378
2.4765 6.87963
2.52115 6.81268
2.56577 7.53169
2.6104 8.70635
2.65503 8.04519
2.69965 8.60859
2.7443 8.30687
2.78893 8.49177
2.83356 8.72893
2.87818 8.52464
2.92281 8.84217
2.96744 9.77998
3.01209 10.3406
3.05672 10.4581
3.10135 12.5046
3.14599 13.0393
3.19062 14.5385
3.23527 15.1681
3.2799 15.941
3.32454 16.5366
3.36917 17.9151
3.4138 18.5693
3.45844 18.7451
3.50309 20.3831
3.54773 21.2818
3.59237 23.2365
3.637 44.784
3.68164 34.498
3.7263 24.9544
3.77094 25.5421
3.81558 26.34
3.86022 26.9544
3.90486 28.4182
3.9495 29.1706
3.99416 30.4278
4.0388 31.5288
4.08344 32.4494
4.12809 33.9663
4.17273 35.5332
4.21738 38.8963
4.26204 108.33
4.30669 96.1393
4.35133 43.8258
4.39598 42.9357
4.44063 47.7329
4.4853 52.8037
4.52995 58.0392
4.5746 58.0822
4.61925 53.3708
4.6639 55.2611
4.70855 57.539
4.75322 61.1938
4.79788 69.2599
4.84253 68.3524
4.88719 75.6856
4.93184 76.1438
4.97652 80.2775
5.02118 86.5988
5.06583 94.1188
5.11049 105.694
5.15515 155.36
5.19981 404.303
5.24449 2877.13
5.28916 12446.9
5.33382 2445.28
5.37848 195.02
5.42315 129.8
5.46783 120.5
5.5125 112.78
5.55716 101.503
5.60183 97.0899
5.6465 95.4509
5.69117 93.8301
5.73586 92.468
5.78053 99.1894
5.8252 99.1189
5.86988 102.01
5.91455 95.1069
5.95924 103.836
6.00392 241.959
6.0486 978.309
6.09328 4587.65
6.13795 2975.47
6.18263 199.229
6.22733 88.9844
6.27201 79.0361
6.3167 81.8101
6.36138 73.5505
6.40606 69.8027
6.45075 69.9821
6.49545 64.6809
6.54014 62.5442
6.58483 62.335
6.62952 62.7761
6.67421 70.4824
6.71892 83.9492
6.76361 61.214
6.8083 59.5233
6.853 60.0042
6.89769 56.1147
6.94239 55.5784
6.98711 54.9614
7.03181 55.4263
7.07651 54.4801
7.12121 54.1489
7.16591 55.8659
7.21063 55.3339
7.25533 59.3544
7.30004 91.453
7.34475 64.3339
7.38945 54.1322
7.43416 52.7737
7.47889 53.2215
7.5236 53.6022
7.56831 54.4723
7.61303 54.7379
7.65774 55.5677
7.70247 56.3849
7.74719 55.8291
7.79191 56.05
7.83663 56.4457
7.88135 57.2574
7.92607 58.164
7.97081 59.2016
8.01553 60.3925
8.06026 62.1062
8.10498 63.9442
8.14971 70.4172
8.19446 70.5809
8.23919 69.0078
8.28392 71.32
8.32865 73.717
8.37339 77.9311
8.41812 82.8477
8.46288 100.905
8.50761 177.868
8.55235 381.994
8.59709 1218.16
8.64183 2171.39
8.68658 837.392
8.73134 147.667
8.77609 97.0144
8.82083 91.8731
8.86558 92.457
8.91033 92.1722
8.9551 89.1661
8.99985 84.9768
9.04461 83.612
9.08936 83.7742
9.13412 82.8625
9.17888 81.3987
9.22365 81.3761
9.26841 81.7944
9.31318 84.7554
9.35794 86.8744
9.4027 85.8242
9.44749 85.0967
9.49226 84.1423
9.53703 85.1633
9.5818 89.271
9.62657 94.8707
9.67134 94.9363
9.71614 91.9688
9.76091 94.4239
9.80569 99.2384
9.85047 101.215
9.89525 110.342
9.94005 125.483
9.98484 190.623
10.0296 342.886
10.0744 839.785
10.1192 1834.87
10.164 1516.59
10.2088 351.474
10.2536 119.909
10.2984 108.357
10.3432 106.867
10.388 104.578
10.4328 121.887
10.4776 163.004
10.5224 297.631
10.5672 537.13
10.612 492.895
10.6568 183.669
10.7017 93.4566
10.7465 85.4557
10.7913 82.5376
10.8361 80.4462
10.8809 78.2418
10.9257 77.2971
10.9706 77.4869
11.0154 75.0822
11.0602 72.2684
11.105 70.6985
11.1499 71.1199
11.1947 72.4913
11.2395 69.1488
11.2844 67.5874
11.3292 66.2535
11.374 65.6784
11.4189 65.061
11.4637 64.0981
11.5086 63.8795
11.5534 64.3862
11.5983 63.4812
11.6431 62.7384
11.688 62.3361
11.7328 62.0989
11.7777 61.9408
11.8225 62.3695
11.8674 62.1408
11.9122 62.1582
11.9571 62.406
12.002 63.9118
12.0468 68.3096
12.0917 77.8707
12.1366 103.021
12.1814 161.483
12.2263 216.361
12.2712 162.377
12.3161 86.3209
12.3609 65.6326
12.4058 63.2379
12.4507 63.3061
12.4956 64.1813
12.5405 64.4796
12.5853 64.7348
12.6302 66.8553
12.6751 69.2317
12.72 67.4271
12.7649 67.1744
12.8098 67.8454
12.8547 69.5111
12.8996 70.7085
12.9445 72.6983
12.9894 74.2838
13.0343 75.6698
13.0792 79.9779
13.1242 92.5353
13.1691 111.507
13.214 149.421
13.2589 249.527
13.3038 391.806
13.3487 411.175
13.3937 233.411
13.4386 117.811
13.4835 105.912
13.5285 120.218
13.5734 161.275
13.6183 258.73
13.6633 364.015
13.7082 328.179
13.7531 169.431
13.7981 93.2503
13.843 80.3887
13.888 78.9693
13.9329 76.4974
13.9779 74.8392
14.0228 73.7103
14.0678 72.1902
14.1127 71.6687
14.1577 71.2151
14.2027 70.3381
14.2476 69.6463
14.2926 69.3782
14.3376 69.6355
14.3825 68.9775
14.4275 68.3975
14.4725 68.2165
14.5175 68.0879
14.5624 68.0546
14.6074 68.8693
14.6524 69.9421
14.6974 69.9381
14.7424 73.4666
14.7874 79.0893
14.8324 88.7049
14.8774 112.052
14.9224 160.321
14.9674 218.025
15.0124 218.665
15.0574 140.34
15.1024 85.372
15.1474 71.1778
15.1924 69.4117
15.2374 68.6992
15.2824 67.7181
15.3274 66.5332
15.3725 65.9593
15.4175 65.5762
15.4625 65.1825
15.5076 65.1336
15.5526 65.1694
15.5976 65.3374
15.6426 67.8477
15.6877 72.6296
15.7327 79.5861
15.7778 95.627
15.8228 130.074
15.8679 176.429
15.9129 195.967
15.958 146.478
16.003 89.1299
16.0481 65.5342
16.0931 62.1047
16.1382 60.6181
16.1833 59.5731
16.2283 57.975
16.2734 57.4172
16.3185 57.2699
16.3636 57.1643
16.4086 55.9683
16.4537 55.2188
16.4988 54.9165
16.5439 54.7873
16.589 54.616
16.6341 54.1605
16.6792 53.9411
16.7243 54.0796
16.7694 54.0605
16.8145 54.0233
16.8596 54.2897
16.9047 54.7396
16.9498 55.1197
16.9949 54.7636
17.04 55.5727
17.0851 56.8338
17.1302 58.0319
17.1754 61.3016
17.2205 66.721
17.2656 75.3538
17.3108 83.7425
17.3559 81.0981
17.401 68.3096
17.4462 60.7084
17.4913 58.5651
17.5365 58.4575
17.5815 58.5136
17.6268 59.0662
17.6718 59.572
17.7171 59.9454
17.7622 60.7849
17.8074 62.0061
17.8525 64.733
17.8977 67.847
17.9428 73.2076
17.9881 82.984
18.0331 101.952
18.0784 125.387
18.1237 141.012
18.1688 126.584
18.214 98.9384
18.2591 84.7372
18.3044 91.3705
18.3495 101.737
18.3948 104.819
18.4399 91.6161
18.4852 73.8354
18.5303 64.3479
18.5756 61.2516
18.6207 60.4424
18.666 59.6533
18.7112 58.9137
18.7565 58.3967
18.8016 57.8469
18.8469 57.5083
18.892 57.1745
18.9374 56.6318
18.9825 56.3841
19.0278 56.0181
19.073 56.2552
19.1183 56.6478
19.1635 57.1787
19.2088 58.7702
19.254 61.7283
19.2993 67.0266
19.3447 72.5136
19.3898 75.6061
19.4352 69.769
19.4804 60.8615
19.5257 55.3059
19.5709 53.4751
19.6163 53.2264
19.6615 53.179
19.7068 52.825
19.752 52.6835
19.7974 53.1699
19.8426 53.6405
19.888 54.3787
19.9332 55.8132
19.9786 58.5507
20.0238 62.5917
20.0692 67.7869
20.1144 69.6175
20.1598 66.8719
20.205 62.3157
20.2504 61.7076
20.2957 64.0799
20.3411 65.1386
20.3863 62.4146
20.4318 56.614
20.477 52.2529
20.5224 50.4898
20.5677 49.9357
20.6131 49.5301
20.6586 49.1122
20.7038 48.7352
20.7493 48.5776
20.7945 48.3851
20.84 48.3401
20.8853 48.15
20.9307 48.1514
20.976 48.3057
21.0215 48.133
21.0668 48.4528
21.1122 48.8817
21.1575 49.6185
21.203 50.5694
21.2483 51.0105
21.2938 50.9237
21.3391 49.1638
21.3846 48.3122
21.4299 47.9289
21.4754 47.877
21.5207 48.0231
21.5662 48.4389
21.6116 48.7332
21.6571 49.3665
21.7024 50.391
21.7479 52.2977
21.7933 55.3455
21.8388 59.0055
21.8843 63.0186
21.9297 64.1787
21.9752 61.7124
22.0206 57.9779
22.0661 55.5725
22.1115 55.8696
22.157 55.3102
22.2024 53.1918
22.248 50.633
22.2933 49.1289
22.3389 48.4428
22.3843 48.2471
22.4299 48.2394
22.4753 48.2805
22.5208 47.9846
22.5662 47.9259
22.6118 48.296
22.6572 48.3819
22.7028 48.7674
22.7483 49.2326
22.7939 50.0391
22.8393 51.6573
22.8849 53.9326
22.9303 56.1283
22.9759 57.5318
23.0214 56.4084
23.067 53.212
23.1126 50.2541
23.1581 48.5226
23.2037 48.3299
23.2492 48.4384
23.2948 48.1509
23.3403 48.4708
23.3859 49.3661
23.4314 50.4856
23.477 52.4391
23.5225 54.801
23.5682 56.997
23.6137 57.4794
23.6593 54.3111
23.7048 50.19
23.7505 47.2278
23.796 46.0593
23.8417 45.42
23.8872 45.0454
23.9329 44.6748
23.9784 44.4552
24.0241 44.1359
24.0697 43.9777
24.1154 43.8144
24.1609 43.5187
24.2066 43.2283
24.2522 43.2698
24.2979 43.021
24.3434 42.7717
24.3892 42.697
24.4349 42.6025
24.4805 42.3885
24.5262 42.6642
24.5718 42.6131
24.6175 42.41
24.6631 42.4058
24.7089 41.9626
24.7545 41.9278
24.8002 41.7257
24.8458 41.7013
24.8916 41.631
24.9372 41.7519
24.983 42.1527
25.0286 42.3807
25.0744 42.8668
25.12 43.503
25.1658 44.0598
25.2114 44.191
25.2572 44.2507
25.3029 44.3087
25.3487 44.5346
25.3943 44.0996
25.4402 42.7528
25.4858 41.5916
25.5316 40.7817
25.5773 40.439
25.6231 40.4215
25.669 40.0707
25.7147 40.1101
25.7605 39.928
25.8062 40.0327
25.8521 40.0933
25.8977 40.17
25.9436 40.4644
25.9893 40.5339
26.0352 41.1384
26.0809 41.227
26.1268 41.3404
26.1725 40.7569
26.2184 40.1574
26.2641 39.8031
26.31 39.6309
26.3557 39.6861
26.4017 39.7571
26.4474 39.9662
26.4933 40.3112
26.5391 40.8625
26.585 41.4128
26.6308 41.7689
26.6767 41.8483
26.7225 41.5597
26.7684 40.8546
26.8142 40.3588
26.8601 39.8829
26.9059 39.4407
26.9519 39.0657
26.9979 38.656
27.0437 38.4438
27.0896 38.2039
27.1354 38.385
27.1814 38.1633
27.2272 38.07
27.2732 38.1767
27.3191 37.9771
27.3651 38.1497
27.4109 38.0678
27.4569 38.0465
27.5027 38.2501
27.5488 38.2277
27.5946 37.9229
27.6407 37.7347
27.6865 37.5231
27.7326 37.4759
27.7784 37.5726
27.8245 37.4951
27.8703 37.5442
27.9164 37.9638
27.9623 38.1558
28.0084 38.4836
28.0543 38.7697
28.1003 38.58
28.1462 38.3817
28.1923 37.9503
28.2384 37.602
28.2843 36.9936
28.3304 36.698
28.3764 36.2466
28.4225 35.9468
28.4684 35.889
28.5145 35.5423
28.5605 35.3639
28.6066 35.2218
28.6526 35.2823
28.6987 35.2713
28.7447 35.0877
28.7908 35.048
28.8368 35.0371
28.8829 34.9536
28.9289 34.8746
28.9751 34.6866
29.0211 34.5395
29.0673 34.2704
29.1133 34.2171
29.1595 34.1271
29.2055 33.944
29.2517 33.9183
29.2977 33.8676
29.3439 33.9376
29.3899 33.99
29.4361 33.8169
29.4824 33.4352
29.5284 33.3088
29.5746 33.0421
29.6207 32.7698
29.6669 32.6757
29.713 32.638
29.7593 32.5042
29.8053 32.457
29.8516 32.4149
29.8977 32.3905
29.9439 32.2285
29.99 32.1527
30.0363 32.1277
30.0824 32.1194
30.1287 31.9679
30.1748 32.1463
30.2211 32.0295
30.2673 31.989
30.3136 32.0484
30.3597 31.9342
30.406 31.8985
30.4522 31.7419
30.4985 31.6502
30.5447 31.8597
30.591 31.822
30.6372 31.9274
30.6835 31.7845
30.7297 31.8811
30.7761 31.8236
30.8224 31.5795
30.8686 31.4253
30.915 31.2795
30.9612 31.1747
31.0076 30.9676
31.0538 30.9261
31.1002 30.7663
31.1464 30.5684
31.1928 30.6728
31.2391 30.5819
31.2855 30.5299
31.3317 30.5324
31.3781 30.5554
31.4244 30.6155
31.4708 30.4814
31.5171 30.4901
31.5636 30.4805
31.6098 30.1413
31.6563 29.9967
31.7026 29.9447
31.7491 29.8177
31.7953 29.8684
31.8418 29.8181
31.8881 29.834
31.9346 29.7995
31.9809 29.6702
32.0275 29.5905
32.074 29.4335
32.1203 29.2451
32.1668 29.3029
32.2132 29.0918
32.2597 28.8452
32.306 28.9601
32.3526 28.6078
32.399 28.5322
32.4455 28.3795
32.4919 28.4606
32.5385 28.3565
32.5848 28.1413
32.6314 28.086
32.6778 28.0755
32.7244 27.9654
32.7708 27.8847
32.8174 27.913
32.8638 27.6484
32.9104 27.75
32.9569 27.7021
33.0035 27.568
33.0499 27.6018
33.0966 27.573
33.143 27.5669
33.1897 27.4783
33.2361 27.3442
33.2828 27.3066
33.3293 27.0967
33.3759 27.0103
33.4226 26.8235
33.4691 26.7852
33.5158 26.7167
33.5623 26.597
33.609 26.4726
33.6555 26.4453
33.7022 26.3294
33.7487 26.2516
33.7954 26.1574
33.842 26.1739
33.8887 26.0581
33.9353 25.9434
33.982 25.8613
34.0286 25.7194
34.0753 25.7245
34.1219 25.6687
34.1687 25.5089
34.2152 25.5686
34.262 25.3432
34.3086 25.2298
34.3554 25.2307
34.402 25.1295
34.4488 25.0126
34.4954 24.9755
34.5422 24.8854
34.5889 24.8016
34.6357 24.625
34.6825 24.599
34.7292 24.618
34.776 24.4536
34.8227 24.3783
34.8695 24.4352
34.9162 24.275
34.9631 24.1905
35.0098 24.2272
35.0566 24.0903
35.1033 24.0006
35.1502 23.9629
35.1969 23.9239
35.2438 23.8462
35.2906 23.8563
35.3375 23.8128
35.3842 23.7322
35.4311 23.7205
35.4779 23.6619
35.5248 23.7071
35.5716 23.4852
35.6185 23.4377
35.6653 23.3112
35.7123 23.2699
35.759 23.2146
35.806 23.1279
35.8528 22.9274
35.8998 22.9479
35.9468 22.8181
35.9936 22.8474
36.0406 22.7152
36.0874 22.7625
36.1345 22.6727
36.1813 22.5625
36.2283 22.4719
36.2752 22.3859
36.3222 22.3739
36.3691 22.3101
36.4161 22.1622
36.463 22.2053
36.5101 22.1513
36.557 22.0595
36.6041 21.9649
36.651 21.9081
36.6981 21.8609
36.745 21.7432
36.7921 21.7017
36.839 21.5956
36.8861 21.528
36.9331 21.484
36.9802 21.3805
37.0272 21.426
37.0743 21.1953
37.1213 21.1863
37.1684 21.0928
37.2154 21.0897
37.2626 21.0323
37.3098 20.8865
37.3568 20.9236
37.404 20.8635
37.451 20.7257
37.4982 20.6856
37.5452 20.6134
37.5924 20.5418
37.6395 20.5689
37.6867 20.512
37.7337 20.3339
37.781 20.2612
37.8281 20.2482
37.8753 20.076
37.9224 20.118
37.9697 20.0689
38.0168 19.9411
38.064 19.896
38.1111 19.9191
38.1584 19.8029
38.2056 19.7673
38.2529 19.689
38.3 19.5321
38.3473 19.5799
38.3945 19.4462
38.4418 19.3709
38.489 19.366
38.5363 19.2851
38.5837 19.2489
38.6309 19.2194
38.6782 19.1273
38.7254 19.0337
38.7728 19.0018
38.82 18.9727
38.8674 18.861
38.9146 18.868
38.9621 18.7542
39.0093 18.6977
39.0567 18.665
39.104 18.5826
39.1514 18.5673
39.1987 18.5037
39.2461 18.4124
39.2934 18.3829
39.3409 18.1984
39.3882 18.1921
39.4356 18.2796
39.483 18.1134
39.5304 18.0546
39.5778 17.9975
39.6253 17.8684
39.6726 17.8909
39.7201 17.8302
39.7675 17.7291
39.815 17.731
39.8624 17.6016
39.9099 17.6489
39.9575 17.5835
40.0049 17.5165
40.0525 17.3693
40.0999 17.3757
40.1474 17.335
40.1949 17.2269
40.2425 17.2171
40.2899 17.1972
40.3375 17.0956
40.385 17.0302
40.4326 17.0236
40.48 16.9444
40.5277 16.9087
40.5752 16.834
40.6228 16.749
40.6703 16.7555
40.718 16.6681
40.7655 16.6072
40.8132 16.5483
40.8607 16.5614
40.9084 16.4696
40.9559 16.3914
41.0036 16.3685
41.0512 16.3251
41.0989 16.3061
41.1465 16.1845
41.1942 16.1449
41.242 16.0591
41.2896 16.0001
41.3373 15.9592
41.3849 15.9645
41.4327 15.8835
41.4803 15.8458
41.5281 15.745
41.5758 15.7486
41.6236 15.6525
41.6712 15.5558
41.7191 15.5187
41.7667 15.5299
41.8146 15.4691
41.8622 15.3996
41.9101 15.3218
41.9578 15.2108
42.0057 15.2198
42.0534 15.2355
42.1013 15.191
42.149 15.0973
42.1969 15.0334
42.2446 15.0199
42.2925 14.93
42.3403 14.917
42.3882 14.8417
42.436 14.8265
42.4839 14.7107
42.5319 14.7106
42.5797 14.639
42.6277 14.5554
42.6755 14.5387
42.7235 14.4441
42.7713 14.4371
42.8193 14.4267
42.8671 14.3875
42.9152 14.3237
42.963 14.2528
43.0111 14.184
43.0589 14.1441
43.107 14.1181
43.1549 14.0218
43.2029 13.9956
43.2508 13.9802
43.2989 13.8751
43.3468 13.8227
43.3949 13.801
43.4429 13.7926
43.491 13.7232
43.5389 13.6897
43.5871 13.5963
43.635 13.5663
43.6832 13.5482
43.7312 13.4661
43.7793 13.4296
43.8273 13.3637
43.8755 13.3265
43.9237 13.2904
43.9717 13.2575
44.0199 13.231
44.068 13.1357
44.1162 13.1161
44.1642 13.0936
44.2125 13.0376
44.2606 12.9641
44.3088 12.9503
44.3569 12.9027
44.4052 12.8767
44.4533 12.8315
44.5016 12.7509
44.5497 12.7239
44.598 12.6715
44.6461 12.5843
44.6945 12.5246
44.7426 12.5336
44.791 12.4767
44.8391 12.4803
44.8875 12.4499
44.9357 12.3739
44.984 12.3109
45.0322 12.3097
45.0806 12.1988
45.1288 12.1865
45.1773 12.1412
45.2257 12.1313
45.2739 12.0878
45.3224 12.0296
45.3706 11.9622
45.4191 11.8902
45.4673 11.8928
45.5158 11.8758
45.5641 11.7937
45.6126 11.7904
45.6609 11.679
45.7094 11.6818
45.7577 11.6442
45.8063 11.5643
45.8546 11.555
45.9031 11.5214
45.9515 11.4927
46.0001 11.3934
46.0484 11.4327
46.097 11.3498
46.1454 11.3364
46.194 11.2886
46.2424 11.2629
46.291 11.1851
46.3395 11.1546
46.3881 11.075
46.4365 11.1068
46.4852 11.0463
46.5337 11.0112
46.5823 10.9793
46.631 10.8894
46.6795 10.8746
46.7282 10.852
46.7767 10.8168
46.8254 10.7273
46.8739 10.7171
46.9226 10.6769
46.9712 10.6258
47.0199 10.5798
47.0685 10.5881
47.1173 10.5256
47.1658 10.4904
47.2146 10.4033
47.2632 10.3951
47.312 10.3777
47.3606 10.3159
47.4095 10.2696
47.4581 10.2163
47.5069 10.2034
47.5556 10.1753
47.6044 10.1182
47.6531 10.0927
47.702 10.0431
47.7507 10.0489
47.7996 9.94841
47.8483 9.95625
47.8972 9.90444
47.9461 9.869
47.9948 9.80288
48.0438 9.81849
48.0925 9.76429
48.1415 9.74023
48.1902 9.70875
48.2392 9.64629
48.288 9.68246
48.337 9.58143
48.3858 9.5496
48.4348 9.53989
48.4837 9.52442
48.5327 9.45498
48.5815 9.42406
48.6306 9.41537
48.6795 9.36047
48.7285 9.31369
48.7774 9.26439
48.8265 9.28217
48.8754 9.19454
48.9245 9.17167
48.9734 9.13195
49.0226 9.12998
49.0715 9.08358
49.1206 9.02127
49.1696 9.00932
49.2188 8.94493
49.2679 8.93393
49.3169 8.90587
49.3661 8.85515
49.4151 8.84836
49.4643 8.83686
49.5134 8.74728
49.5626 8.70969
49.6117 8.69868
49.6609 8.6664
49.71 8.5942
49.7592 8.61771
49.8083 8.56149
49.8576 8.54873
49.9067 8.52558
49.956 8.50277
50.0052 8.46188
50.0545 8.38265
50.1036 8.35601
50.153 8.31276
50.2022 8.30737
50.2515 8.25295
50.3007 8.21815
50.3501 8.17695
50.3993 8.1801
50.4487 8.11292
50.498 8.12646
50.5474 8.07589
50.5966 8.02294
50.6461 7.99852
50.6955 7.9696
50.7448 7.94695
50.7943 7.93213
50.8436 7.90315
50.8931 7.88319
50.9424 7.84506
50.9919 7.83202
51.0413 7.78284
51.0908 7.74826
51.1402 7.74407
51.1897 7.68493
51.2391 7.6568
51.2887 7.58985
51.3381 7.55781
51.3877 7.57898
51.4371 7.50039
51.4867 7.48044
51.5362 7.43819
51.5858 7.43076
51.6353 7.38284
51.6849 7.36686
51.7344 7.36877
51.7841 7.33592
51.8336 7.30001
51.8833 7.23267
51.9328 7.24005
51.9826 7.18708
52.0323 7.17154
52.0818 7.15164
52.1316 7.09158
52.1812 7.06726
52.231 7.05301
52.2806 6.99836
52.3304 6.98523
52.38 6.93201
52.4298 6.90796
52.4794 6.85104
52.5293 6.89857
52.5789 6.86742
52.6288 6.80718
52.6785 6.765
52.7284 6.77205
52.7781 6.75741
52.828 6.70959
52.8777 6.64262
52.9276 6.68095
52.9774 6.60671
53.0273 6.61339
53.0771 6.54771
53.1271 6.5718
53.1769 6.51847
53.2269 6.47801
53.2767 6.44937
53.3267 6.42509
53.3765 6.40115
53.4266 6.37548
53.4766 6.32872
53.5265 6.30906
53.5765 6.25345
53.6264 6.27599
53.6765 6.22015
53.7264 6.1799
53.7765 6.22831
53.8265 6.19298
53.8766 6.07512
53.9266 6.08014
53.9767 6.05236
54.0267 6.06808
54.0769 5.99833
54.1269 5.9526
54.1771 5.92818
54.2271 5.90127
54.2773 5.89161
54.3274 5.87245
54.3776 5.84519
54.4277 5.80779
54.478 5.79336
54.528 5.73413
54.5783 5.6988
54.6285 5.64422
54.6788 5.61185
54.7289 5.57824
54.7792 5.5409
54.8296 5.48397
54.8798 5.41741
54.9301 5.43765
54.9803 5.39283
55.0307 5.30582
55.0809 5.22015
55.1314 5.30916
55.1816 5.19369
55.232 5.16225
55.2823 5.14273
55.3328 5.07263
55.383 5.04073
55.4335 5.00739
55.4838 4.93575
55.5344 4.9595
55.5847 4.92482
55.6352 4.85029
55.6856 4.80918
55.7361 4.77718