File: XRD/Ni3Fe_FD0218.xy
TT I
1.27165 7.53797
1.31627 7.18964
1.36089 7.33337
1.40551 6.04162
1.45013 6.62149
1.49476 6.45023
1.53938 5.88974
1.584 6.54532
1.62863 5.88546
1.67325 5.9642
1.71787 5.98828
1.7625 5.52957
1.80712 5.46428
1.85174 4.81786
1.89636 4.98255
1.94099 5.43691
1.98562 5.28244
2.03025 4.90441
2.07487 4.8688
2.11949 4.96851
2.16411 4.60597
2.20874 4.70404
2.25338 4.36466
2.298 4.42864
2.34263 4.44806
2.38725 4.7012
2.43188 4.24786
2.4765 5.19283
2.52115 4.51399
2.56577 5.10989
2.6104 5.43924
2.65503 5.51069
2.69965 6.07645
2.7443 6.614
2.78893 6.45694
2.83356 7.69194
2.87818 7.46554
2.92281 8.95724
2.96744 9.2789
3.01209 10.1085
3.05672 11.0516
3.10135 12.0415
3.14599 12.8315
3.19062 13.9436
3.23527 15.1812
3.2799 16.1015
3.32454 17.079
3.36917 17.9569
3.4138 18.8978
3.45844 19.9204
3.50309 21.1547
3.54773 21.4108
3.59237 22.5234
3.637 23.5479
3.68164 24.4999
3.7263 25.3435
3.77094 26.0495
3.81558 27.1426
3.86022 27.746
3.90486 28.8757
3.9495 29.9714
3.99416 31.2656
4.0388 32.788
4.08344 33.9611
4.12809 34.5713
4.17273 36.4196
4.21738 38.0919
4.26204 39.081
4.30669 40.335
4.35133 43.1312
4.39598 44.3157
4.44063 46.2693
4.4853 48.5769
4.52995 52.2895
4.5746 53.975
4.61925 56.0674
4.6639 58.375
4.70855 61.2122
4.75322 64.4122
4.79788 68.15
4.84253 71.5403
4.88719 77.125
4.93184 81.7885
4.97652 88.2556
5.02118 97.0518
5.06583 107.8
5.11049 124.469
5.15515 169.211
5.19981 892.449
5.24449 3962.24
5.28916 10592.8
5.33382 4401.96
5.37848 282.812
5.42315 154.867
5.46783 129.08
5.5125 118.595
5.55716 112.477
5.60183 107.17
5.6465 104.813
5.69117 103.251
5.73586 101.309
5.78053 101.988
5.8252 102.105
5.86988 104.675
5.91455 111.21
5.95924 134.128
6.00392 446.861
6.0486 1423.15
6.09328 3581.73
6.13795 3721.47
6.18263 390.842
6.22733 110.1
6.27201 89.8923
6.3167 81.1341
6.36138 76.1415
6.40606 72.9671
6.45075 71.0646
6.49545 68.5487
6.54014 66.6506
6.58483 65.201
6.62952 64.0517
6.67421 62.3909
6.71892 61.7478
6.76361 60.7918
6.8083 59.8401
6.853 59.2997
6.89769 58.6531
6.94239 58.5792
6.98711 57.5186
7.03181 57.1406
7.07651 56.8138
7.12121 56.3963
7.16591 56.6161
7.21063 55.6826
7.25533 55.7555
7.30004 56.0569
7.34475 55.921
7.38945 56.1182
7.43416 55.7389
7.47889 55.3173
7.5236 56.3968
7.56831 57.3201
7.61303 57.4069
7.65774 57.2588
7.70247 58.255
7.74719 58.3074
7.79191 58.9375
7.83663 59.2181
7.88135 60.3995
7.92607 61.3062
7.97081 62.4853
8.01553 63.579
8.06026 65.2947
8.10498 66.612
8.14971 68.9053
8.19446 70.8486
8.23919 73.3467
8.28392 76.1002
8.32865 79.3986
8.37339 84.3315
8.41812 91.094
8.46288 110.229
8.50761 291.107
8.55235 588.991
8.59709 1053.65
8.64183 1963.76
8.68658 1253.95
8.73134 227.913
8.77609 111.674
8.82083 100.759
8.86558 96.2974
8.91033 93.5254
8.9551 91.0027
8.99985 89.519
9.04461 88.5979
9.08936 87.9234
9.13412 86.8176
9.17888 87.0366
9.22365 87.1954
9.26841 87.2464
9.31318 88.0544
9.35794 87.9763
9.4027 88.6897
9.44749 89.2382
9.49226 89.6614
9.53703 91.1033
9.5818 92.9566
9.62657 94.469
9.67134 95.6082
9.71614 97.9673
9.76091 100.466
9.80569 103.734
9.85047 106.992
9.89525 113.033
9.94005 135.559
9.98484 303.624
10.0296 522.849
10.0744 794.171
10.1192 1439.65
10.164 1751.62
10.2088 576.528
10.2536 152.799
10.2984 117.934
10.3432 113.212
10.388 114.623
10.4328 159.084
10.4776 212.662
10.5224 280.15
10.5672 432.241
10.612 531.372
10.6568 260.939
10.7017 108.733
10.7465 92.7588
10.7913 88.3196
10.8361 85.4122
10.8809 83.1783
10.9257 80.7527
10.9706 79.5067
11.0154 77.7736
11.0602 75.9791
11.105 74.9409
11.1499 73.3645
11.1947 72.5141
11.2395 71.1316
11.2844 70.8058
11.3292 69.7124
11.374 69.1341
11.4189 68.412
11.4637 67.808
11.5086 67.0688
11.5534 66.6206
11.5983 66.1115
11.6431 66.7812
11.688 65.992
11.7328 65.8334
11.7777 65.5661
11.8225 65.4888
11.8674 65.5666
11.9122 65.827
11.9571 66.3651
12.002 68.5736
12.0468 80.0683
12.0917 94.9566
12.1366 109.052
12.1814 139.662
12.2263 191.488
12.2712 189.241
12.3161 106.365
12.3609 70.2003
12.4058 67.28
12.4507 67.4192
12.4956 67.2553
12.5405 67.4806
12.5853 67.8566
12.6302 68.4224
12.6751 69.3194
12.72 69.9982
12.7649 70.9361
12.8098 71.9632
12.8547 73.2871
12.8996 74.7629
12.9445 76.4224
12.9894 78.547
13.0343 81.0609
13.0792 86.38
13.1242 110.212
13.1691 148.533
13.214 175.001
13.2589 226.776
13.3038 316.971
13.3487 418.749
13.3937 313.014
13.4386 151.071
13.4835 134.438
13.5285 154.3
13.5734 174.015
13.6183 223.468
13.6633 306.651
13.7082 357.956
13.7531 232.464
13.7981 112.521
13.843 87.4655
13.888 84.4249
13.9329 81.7955
13.9779 80.1938
14.0228 78.6517
14.0678 77.1327
14.1127 76.4285
14.1577 75.5942
14.2027 74.8797
14.2476 74.2293
14.2926 73.3266
14.3376 73.2756
14.3825 73.0592
14.4275 72.6357
14.4725 72.5686
14.5175 72.6985
14.5624 72.6027
14.6074 72.8851
14.6524 73.65
14.6974 74.492
14.7424 80.8017
14.7874 95.6438
14.8324 106.974
14.8774 119.283
14.9224 143.794
14.9674 185.139
15.0124 223.327
15.0574 174.46
15.1024 104.47
15.1474 77.4122
15.1924 73.9759
15.2374 72.493
15.2824 71.4226
15.3274 70.6087
15.3725 70.1299
15.4175 70.044
15.4625 69.4382
15.5076 69.1896
15.5526 69.2119
15.5976 69.9863
15.6426 74.717
15.6877 86.6042
15.7327 95.4359
15.7778 103.511
15.8228 121.378
15.8679 152.022
15.9129 189.186
15.958 178.971
16.003 115.316
16.0481 73.6752
16.0931 65.7633
16.1382 64.0118
16.1833 63.2363
16.2283 61.7794
16.2734 61.1565
16.3185 60.2815
16.3636 59.8544
16.4086 58.909
16.4537 58.3954
16.4988 58.0774
16.5439 58.0436
16.589 57.8349
16.6341 57.5121
16.6792 57.1432
16.7243 57.3589
16.7694 57.4273
16.8145 57.2543
16.8596 57.5977
16.9047 57.7009
16.9498 57.7656
16.9949 58.0094
17.04 59.4901
17.0851 61.7918
17.1302 63.8184
17.1754 65.562
17.2205 68.7885
17.2656 73.635
17.3108 81.9797
17.3559 85.9259
17.401 77.8824
17.4462 67.0765
17.4913 62.6208
17.5365 62.0822
17.5815 62.2586
17.6268 62.7666
17.6718 63.2579
17.7171 63.7758
17.7622 64.651
17.8074 66.5711
17.8525 72.3742
17.8977 78.4166
17.9428 82.9835
17.9881 88.0282
18.0331 98.8429
18.0784 114.277
18.1237 138.635
18.1688 145.976
18.214 120.161
18.2591 94.5686
18.3044 90.161
18.3495 96.5141
18.3948 106.623
18.4399 102.992
18.4852 84.8382
18.5303 70.7772
18.5756 65.6871
18.6207 64.5955
18.666 63.3053
18.7112 62.5974
18.7565 62.0146
18.8016 61.6168
18.8469 61.0108
18.892 60.8559
18.9374 60.0876
18.9825 59.9182
19.0278 59.6662
19.073 60.5336
19.1183 61.477
19.1635 62.2813
19.2088 63.2439
19.254 64.6646
19.2993 67.2905
19.3447 71.0942
19.3898 76.2744
19.4352 76.6721
19.4804 69.125
19.5257 60.8266
19.5709 57.0433
19.6163 56.8133
19.6615 56.5848
19.7068 56.1428
19.752 56.257
19.7974 57.0161
19.8426 58.2196
19.888 58.9666
19.9332 59.5397
19.9786 61.2065
20.0238 63.7735
20.0692 68.2083
20.1144 72.4878
20.1598 73.3066
20.205 68.1984
20.2504 64.5639
20.2957 64.3327
20.3411 66.9182
20.3863 67.6048
20.4318 62.6843
20.477 57.1645
20.5224 53.8645
20.5677 52.9671
20.6131 52.6825
20.6586 52.2936
20.7038 52.0357
20.7493 51.5416
20.7945 51.3964
20.84 51.4424
20.8853 51.2915
20.9307 51.2188
20.976 51.5662
21.0215 51.3918
21.0668 51.5056
21.1122 51.8167
21.1575 52.2831
21.203 52.6937
21.2483 53.5059
21.2938 53.8029
21.3391 52.9388
21.3846 51.6075
21.4299 51.1587
21.4754 51.1028
21.5207 51.1817
21.5662 51.9359
21.6116 52.8701
21.6571 53.6423
21.7024 54.3174
21.7479 55.591
21.7933 57.5028
21.8388 59.9816
21.8843 63.489
21.9297 66.6952
21.9752 67.0373
22.0206 63.357
22.0661 59.078
22.1115 57.6905
22.157 58.5485
22.2024 57.8272
22.248 54.8639
22.2933 52.7029
22.3389 51.5889
22.3843 51.3272
22.4299 50.9727
22.4753 51.0619
22.5208 51.0061
22.5662 51.0382
22.6118 51.5802
22.6572 52.0901
22.7028 52.7506
22.7483 52.9343
22.7939 53.0432
22.8393 54.1274
22.8849 55.5076
22.9303 56.971
22.9759 59.1203
23.0214 60.1104
23.067 58.4924
23.1126 54.5814
23.1581 52.0732
23.2037 51.6013
23.2492 51.8303
23.2948 52.1704
23.3403 52.3192
23.3859 52.6778
23.4314 53.2497
23.477 54.1839
23.5225 55.5808
23.5682 57.5425
23.6137 59.6106
23.6593 58.9389
23.7048 55.4443
23.7505 51.5459
23.796 49.1879
23.8417 48.4125
23.8872 47.8135
23.9329 47.5754
23.9784 47.2796
24.0241 46.7918
24.0697 46.6341
24.1154 46.3536
24.1609 46.1058
24.2066 45.9684
24.2522 45.8634
24.2979 45.4987
24.3434 45.613
24.3892 45.277
24.4349 45.212
24.4805 45.0242
24.5262 45.1914
24.5718 44.9897
24.6175 45.1555
24.6631 44.9381
24.7089 44.5387
24.7545 44.4389
24.8002 44.4887
24.8458 44.3797
24.8916 44.1779
24.9372 44.5019
24.983 44.8035
25.0286 45.2253
25.0744 45.3082
25.12 45.5832
25.1658 46.2588
25.2114 46.5741
25.2572 46.7574
25.3029 46.4739
25.3487 46.6362
25.3943 46.6419
25.4402 45.917
25.4858 44.9304
25.5316 43.7353
25.5773 43.1125
25.6231 42.9696
25.669 42.6185
25.7147 42.6727
25.7605 42.5436
25.8062 42.5584
25.8521 42.6205
25.8977 42.5145
25.9436 42.7557
25.9893 42.7574
26.0352 43.151
26.0809 43.3963
26.1268 43.5244
26.1725 43.5704
26.2184 43.0791
26.2641 42.6314
26.31 42.3523
26.3557 42.2695
26.4017 42.1302
26.4474 42.4523
26.4933 42.7577
26.5391 42.913
26.585 43.206
26.6308 43.5948
26.6767 43.8867
26.7225 44.1055
26.7684 43.4367
26.8142 42.8371
26.8601 42.5008
26.9059 42.1281
26.9519 41.529
26.9979 41.1844
27.0437 40.9267
27.0896 40.659
27.1354 40.6779
27.1814 40.5138
27.2272 40.3512
27.2732 40.5328
27.3191 40.1517
27.3651 40.3721
27.4109 40.3057
27.4569 40.2273
27.5027 40.2728
27.5488 40.4132
27.5946 40.4177
27.6407 40.2519
27.6865 40.1397
27.7326 39.8
27.7784 39.7713
27.8245 39.7309
27.8703 39.9523
27.9164 40.0965
27.9623 40.003
28.0084 40.3384
28.0543 40.6335
28.1003 40.9305
28.1462 40.6364
28.1923 40.1848
28.2384 39.8185
28.2843 39.5799
28.3304 39.0717
28.3764 38.4625
28.4225 38.3036
28.4684 38.0712
28.5145 37.6412
28.5605 37.5485
28.6066 37.3834
28.6526 37.4282
28.6987 37.2229
28.7447 37.1246
28.7908 37.0864
28.8368 37.0679
28.8829 37.038
28.9289 36.9204
28.9751 36.8871
29.0211 36.7154
29.0673 36.3958
29.1133 36.2537
29.1595 36.0807
29.2055 35.9745
29.2517 36.0006
29.2977 35.9103
29.3439 35.7206
29.3899 35.7379
29.4361 35.7052
29.4824 35.5664
29.5284 35.4651
29.5746 34.9802
29.6207 34.6951
29.6669 34.6798
29.713 34.5974
29.7593 34.5172
29.8053 34.5016
29.8516 34.4324
29.8977 34.329
29.9439 34.1924
29.99 34.2809
30.0363 33.9615
30.0824 34.0575
30.1287 33.9032
30.1748 34.0242
30.2211 33.9866
30.2673 33.8176
30.3136 33.9551
30.3597 33.7917
30.406 33.8185
30.4522 33.6534
30.4985 33.5794
30.5447 33.6884
30.591 33.5732
30.6372 33.613
30.6835 33.6237
30.7297 33.6989
30.7761 33.5707
30.8224 33.529
30.8686 33.5704
30.915 33.2332
30.9612 33.0885
31.0076 32.8379
31.0538 32.7454
31.1002 32.6974
31.1464 32.4138
31.1928 32.5066
31.2391 32.5114
31.2855 32.4923
31.3317 32.3273
31.3781 32.4024
31.4244 32.28
31.4708 32.3899
31.5171 32.2721
31.5636 32.4298
31.6098 32.0941
31.6563 31.9038
31.7026 31.7527
31.7491 31.5444
31.7953 31.6437
31.8418 31.5526
31.8881 31.5665
31.9346 31.4331
31.9809 31.4794
32.0275 31.3621
32.074 31.1684
32.1203 31.0276
32.1668 31.0023
32.2132 30.8052
32.2597 30.6008
32.306 30.5963
32.3526 30.3993
32.399 30.2816
32.4455 30.1846
32.4919 30.0988
32.5385 30.082
32.5848 29.7194
32.6314 29.8393
32.6778 29.877
32.7244 29.5904
32.7708 29.4896
32.8174 29.5145
32.8638 29.361
32.9104 29.432
32.9569 29.3365
33.0035 29.269
33.0499 29.2062
33.0966 29.1332
33.143 29.1947
33.1897 29.0423
33.2361 28.8237
33.2828 28.8859
33.3293 28.7091
33.3759 28.7052
33.4226 28.5549
33.4691 28.4087
33.5158 28.2828
33.5623 28.206
33.609 27.9986
33.6555 27.9586
33.7022 27.9759
33.7487 27.7879
33.7954 27.6681
33.842 27.6528
33.8887 27.6194
33.9353 27.4942
33.982 27.4489
34.0286 27.3476
34.0753 27.2332
34.1219 27.1976
34.1687 27.1679
34.2152 27.0548
34.262 26.873
34.3086 26.713
34.3554 26.7509
34.402 26.6194
34.4488 26.5284
34.4954 26.5156
34.5422 26.3374
34.5889 26.3119
34.6357 26.16
34.6825 26.1265
34.7292 26.0376
34.776 25.9546
34.8227 25.8006
34.8695 25.8238
34.9162 25.7334
34.9631 25.5642
35.0098 25.6654
35.0566 25.5164
35.1033 25.5454
35.1502 25.4088
35.1969 25.3223
35.2438 25.2644
35.2906 25.2127
35.3375 25.1371
35.3842 25.1452
35.4311 25.0693
35.4779 25.105
35.5248 24.9362
35.5716 24.8932
35.6185 24.8811
35.6653 24.7433
35.7123 24.5699
35.759 24.5956
35.806 24.4091
35.8528 24.3776
35.8998 24.3373
35.9468 24.1659
35.9936 24.2585
36.0406 24.0856
36.0874 24.0715
36.1345 23.8956
36.1813 23.8955
36.2283 23.7972
36.2752 23.7546
36.3222 23.7624
36.3691 23.5948
36.4161 23.4625
36.463 23.4401
36.5101 23.5063
36.557 23.3726
36.6041 23.2434
36.651 23.1958
36.6981 23.1315
36.745 23.1165
36.7921 23.0247
36.839 22.9743
36.8861 22.8248
36.9331 22.811
36.9802 22.6838
37.0272 22.5935
37.0743 22.5012
37.1213 22.4775
37.1684 22.3855
37.2154 22.3633
37.2626 22.3245
37.3098 22.2536
37.3568 22.1687
37.404 22.1507
37.451 21.9922
37.4982 22.0046
37.5452 21.8574
37.5924 21.7522
37.6395 21.755
37.6867 21.7395
37.7337 21.6202
37.781 21.5369
37.8281 21.5176
37.8753 21.3653
37.9224 21.3491
37.9697 21.1945
38.0168 21.2168
38.064 21.1007
38.1111 21.12
38.1584 20.9508
38.2056 20.8518
38.2529 20.8424
38.3 20.8203
38.3473 20.74
38.3945 20.6177
38.4418 20.5878
38.489 20.4831
38.5363 20.4195
38.5837 20.2564
38.6309 20.2867
38.6782 20.18
38.7254 20.1901
38.7728 20.1214
38.82 19.9996
38.8674 19.9728
38.9146 19.9146
38.9621 19.8626
39.0093 19.7895
39.0567 19.7263
39.104 19.7072
39.1514 19.5414
39.1987 19.6221
39.2461 19.5536
39.2934 19.4028
39.3409 19.3559
39.3882 19.3321
39.4356 19.2388
39.483 19.1734
39.5304 19.0835
39.5778 19.0752
39.6253 18.9879
39.6726 18.9446
39.7201 18.8762
39.7675 18.8245
39.815 18.7744
39.8624 18.6943
39.9099 18.6844
39.9575 18.5705
40.0049 18.516
40.0525 18.4145
40.0999 18.3821
40.1474 18.3325
40.1949 18.2995
40.2425 18.2179
40.2899 18.1808
40.3375 18.0938
40.385 18.0615
40.4326 18.0658
40.48 17.8909
40.5277 17.8814
40.5752 17.823
40.6228 17.6963
40.6703 17.7814
40.718 17.6098
40.7655 17.6804
40.8132 17.5218
40.8607 17.5337
40.9084 17.496
40.9559 17.4142
41.0036 17.329
41.0512 17.2688
41.0989 17.2309
41.1465 17.1343
41.1942 17.1346
41.242 17.066
41.2896 16.9477
41.3373 16.9174
41.3849 16.8514
41.4327 16.7804
41.4803 16.7066
41.5281 16.6841
41.5758 16.6045
41.6236 16.5602
41.6712 16.4959
41.7191 16.4375
41.7667 16.4247
41.8146 16.4061
41.8622 16.2748
41.9101 16.2565
41.9578 16.1982
42.0057 16.1466
42.0534 16.1263
42.1013 16.068
42.149 16.0709
42.1969 15.9345
42.2446 15.8993
42.2925 15.8529
42.3403 15.7932
42.3882 15.7412
42.436 15.7028
42.4839 15.5477
42.5319 15.5452
42.5797 15.5159
42.6277 15.4455
42.6755 15.4241
42.7235 15.3802
42.7713 15.2972
42.8193 15.2492
42.8671 15.2057
42.9152 15.1751
42.963 15.076
43.0111 15.006
43.0589 14.9561
43.107 14.9454
43.1549 14.893
43.2029 14.8333
43.2508 14.786
43.2989 14.7391
43.3468 14.6324
43.3949 14.6633
43.4429 14.5494
43.491 14.5353
43.5389 14.4568
43.5871 14.4136
43.635 14.3573
43.6832 14.3755
43.7312 14.2492
43.7793 14.2266
43.8273 14.1759
43.8755 14.1093
43.9237 14.0867
43.9717 14.0494
44.0199 13.9983
44.068 13.9605
44.1162 13.8813
44.1642 13.8794
44.2125 13.8228
44.2606 13.7338
44.3088 13.7109
44.3569 13.6121
44.4052 13.6124
44.4533 13.5356
44.5016 13.5065
44.5497 13.5035
44.598 13.4309
44.6461 13.3358
44.6945 13.322
44.7426 13.2412
44.791 13.1906
44.8391 13.2037
44.8875 13.1355
44.9357 13.062
44.984 13.0574
45.0322 12.9465
45.0806 12.9086
45.1288 12.9086
45.1773 12.8223
45.2257 12.7965
45.2739 12.786
45.3224 12.7668
45.3706 12.6622
45.4191 12.568
45.4673 12.6054
45.5158 12.5702
45.5641 12.4772
45.6126 12.4478
45.6609 12.4129
45.7094 12.3148
45.7577 12.3227
45.8063 12.2223
45.8546 12.2468
45.9031 12.2051
45.9515 12.1132
46.0001 12.1073
46.0484 12.0356
46.097 12.0332
46.1454 11.964
46.194 11.9745
46.2424 11.8811
46.291 11.8386
46.3395 11.7896
46.3881 11.7524
46.4365 11.7267
46.4852 11.6638
46.5337 11.6096
46.5823 11.5964
46.631 11.517
46.6795 11.5017
46.7282 11.4299
46.7767 11.3874
46.8254 11.3713
46.8739 11.3342
46.9226 11.2316
46.9712 11.2134
47.0199 11.178
47.0685 11.1486
47.1173 11.1158
47.1658 11.0448
47.2146 11.0536
47.2632 10.9861
47.312 10.9621
47.3606 10.8973
47.4095 10.846
47.4581 10.8101
47.5069 10.7234
47.5556 10.7523
47.6044 10.6982
47.6531 10.6637
47.702 10.6154
47.7507 10.5868
47.7996 10.5323
47.8483 10.5164
47.8972 10.4958
47.9461 10.4382
47.9948 10.4147
48.0438 10.3476
48.0925 10.3594
48.1415 10.2782
48.1902 10.2139
48.2392 10.2038
48.288 10.1851
48.337 10.1351
48.3858 10.0674
48.4348 10.0396
48.4837 10.0517
48.5327 10.0086
48.5815 9.96588
48.6306 9.90837
48.6795 9.89012
48.7285 9.83471
48.7774 9.81395
48.8265 9.79086
48.8754 9.74492
48.9245 9.68957
48.9734 9.66046
49.0226 9.6553
49.0715 9.59358
49.1206 9.58977
49.1696 9.54403
49.2188 9.47889
49.2679 9.42775
49.3169 9.38949
49.3661 9.38719
49.4151 9.34085
49.4643 9.30493
49.5134 9.27412
49.5626 9.19866
49.6117 9.1757
49.6609 9.16403
49.71 9.12439
49.7592 9.09632
49.8083 9.03963
49.8576 9.0419
49.9067 8.95156
49.956 8.99044
50.0052 8.91824
50.0545 8.86112
50.1036 8.85407
50.153 8.79469
50.2022 8.75991
50.2515 8.70664
50.3007 8.66834
50.3501 8.68836
50.3993 8.61527
50.4487 8.60018
50.498 8.58532
50.5474 8.54798
50.5966 8.47196
50.6461 8.46424
50.6955 8.4599
50.7448 8.40932
50.7943 8.37723
50.8436 8.35522
50.8931 8.33757
50.9424 8.27975
50.9919 8.24192
51.0413 8.22487
51.0908 8.19626
51.1402 8.13565
51.1897 8.14044
51.2391 8.09819
51.2887 8.0371
51.3381 8.00778
51.3877 8.0099
51.4371 7.94555
51.4867 7.87335
51.5362 7.8855
51.5858 7.89948
51.6353 7.82095
51.6849 7.81325
51.7344 7.76488
51.7841 7.73801
51.8336 7.68538
51.8833 7.63588
51.9328 7.64125
51.9826 7.58061
52.0323 7.56231
52.0818 7.53879
52.1316 7.5106
52.1812 7.48012
52.231 7.41178
52.2806 7.43257
52.3304 7.39263
52.38 7.34584
52.4298 7.31748
52.4794 7.29338
52.5293 7.24554
52.5789 7.2246
52.6288 7.22066
52.6785 7.19211
52.7284 7.14539
52.7781 7.08395
52.828 7.07178
52.8777 7.05251
52.9276 7.01117
52.9774 6.99198
53.0273 6.95043
53.0771 6.93598
53.1271 6.93533
53.1769 6.88983
53.2269 6.84398
53.2767 6.82421
53.3267 6.77997
53.3765 6.72793
53.4266 6.70653
53.4766 6.67522
53.5265 6.6219
53.5765 6.64139
53.6264 6.59711
53.6765 6.58963
53.7264 6.52319
53.7765 6.53628
53.8265 6.48523
53.8766 6.46695
53.9266 6.4228
53.9767 6.3948
54.0267 6.34506
54.0769 6.35372
54.1269 6.31089
54.1771 6.26916
54.2271 6.23686
54.2773 6.18774
54.3274 6.1562
54.3776 6.09977
54.4277 6.11081
54.478 6.05457
54.528 6.01674
54.5783 5.961
54.6285 5.92419
54.6788 5.85114
54.7289 5.82338
54.7792 5.87104
54.8296 5.74824
54.8798 5.70506
54.9301 5.65862
54.9803 5.66816
55.0307 5.63475
55.0809 5.551
55.1314 5.54197
55.1816 5.47381
55.232 5.4056
55.2823 5.38582
55.3328 5.27155
55.383 5.26399
55.4335 5.21443
55.4838 5.19975
55.5344 5.12547
55.5847 5.05061
55.6352 5.05261
55.6856 5.02342
55.7361 4.96663