File: XRD/Ni3Fe_FD1060.xy
TT I
1.27165 7.16279
1.31627 6.40276
1.36089 6.15628
1.40551 5.85032
1.45013 5.66884
1.49476 5.55465
1.53938 5.48916
1.584 4.96615
1.62863 4.85145
1.67325 4.87649
1.71787 5.15105
1.7625 4.48793
1.80712 4.71642
1.85174 4.03489
1.89636 4.13544
1.94099 4.33636
1.98562 4.0693
2.03025 4.00573
2.07487 4.08997
2.11949 4.21737
2.16411 4.37304
2.20874 4.63198
2.25338 6.06578
2.298 4.86136
2.34263 5.07736
2.38725 5.77836
2.43188 6.5083
2.4765 6.36819
2.52115 7.32916
2.56577 7.70732
2.6104 8.40856
2.65503 8.30146
2.69965 9.03366
2.7443 8.56544
2.78893 8.26242
2.83356 8.27647
2.87818 8.64477
2.92281 8.72822
2.96744 9.10715
3.01209 10.1963
3.05672 11.0984
3.10135 11.9254
3.14599 13.0572
3.19062 13.9794
3.23527 14.4877
3.2799 14.8412
3.32454 16.1794
3.36917 17.0211
3.4138 17.7218
3.45844 18.7129
3.50309 19.8871
3.54773 20.3148
3.59237 21.2186
3.637 27.4895
3.68164 26.5525
3.7263 24.2006
3.77094 24.7075
3.81558 24.6981
3.86022 25.9087
3.90486 27.564
3.9495 27.9078
3.99416 29.1222
4.0388 30.1073
4.08344 32.1415
4.12809 32.1516
4.17273 33.5655
4.21738 35.4911
4.26204 52.0547
4.30669 56.9385
4.35133 40.4855
4.39598 41.2329
4.44063 43.3433
4.4853 46.0657
4.52995 46.7616
4.5746 48.7789
4.61925 50.8091
4.6639 52.848
4.70855 55.4692
4.75322 58.165
4.79788 60.9027
4.84253 64.0791
4.88719 68.2199
4.93184 71.7273
4.97652 76.758
5.02118 83.0027
5.06583 89.8002
5.11049 98.3065
5.15515 118.764
5.19981 231.469
5.24449 2501.56
5.28916 13545.9
5.33382 3323.37
5.37848 210.949
5.42315 123.98
5.46783 109.008
5.5125 101.465
5.55716 97.4853
5.60183 93.531
5.6465 91.8284
5.69117 90.2535
5.73586 87.8429
5.78053 86.8975
5.8252 86.8058
5.86988 87.1971
5.91455 89.1839
5.95924 95.3991
6.00392 163.772
6.0486 890.885
6.09328 4551.41
6.13795 3626.96
6.18263 239.561
6.22733 87.8715
6.27201 75.8978
6.3167 73.4304
6.36138 69.327
6.40606 65.2252
6.45075 63.7757
6.49545 61.7418
6.54014 60.4529
6.58483 59.0068
6.62952 58.1723
6.67421 59.0307
6.71892 64.299
6.76361 56.6446
6.8083 54.7858
6.853 53.8973
6.89769 53.7572
6.94239 53.0759
6.98711 52.5648
7.03181 52.3302
7.07651 52.1886
7.12121 51.7804
7.16591 51.6056
7.21063 51.169
7.25533 51.9721
7.30004 61.9171
7.34475 56.0257
7.38945 51.8175
7.43416 50.9067
7.47889 51.5239
7.5236 58.6643
7.56831 73.3142
7.61303 56.8427
7.65774 53.2862
7.70247 53.3785
7.74719 53.4153
7.79191 53.9459
7.83663 54.0886
7.88135 54.9621
7.92607 55.797
7.97081 56.9587
8.01553 57.911
8.06026 59.0421
8.10498 60.2133
8.14971 62.5748
8.19446 63.9734
8.23919 65.7476
8.28392 68.6851
8.32865 70.5309
8.37339 74.1044
8.41812 77.9399
8.46288 86.7728
8.50761 128.783
8.55235 375.287
8.59709 1099.6
8.64183 2287.25
8.68658 1111.92
8.73134 172.202
8.77609 95.0953
8.82083 88.378
8.86558 86.1174
8.91033 83.9215
8.9551 82.5855
8.99985 81.6277
9.04461 80.2445
9.08936 79.7564
9.13412 79.0289
9.17888 79.7068
9.22365 90.7115
9.26841 113.511
9.31318 89.0865
9.35794 80.2624
9.4027 80.2813
9.44749 80.4365
9.49226 81.052
9.53703 81.8074
9.5818 83.4962
9.62657 84.8809
9.67134 86.531
9.71614 88.2414
9.76091 90.0903
9.80569 91.6633
9.85047 94.0534
9.89525 99.3124
9.94005 107.208
9.98484 147.383
10.0296 351.0
10.0744 778.703
10.1192 1775.46
10.164 1693.81
10.2088 443.421
10.2536 125.786
10.2984 103.313
10.3432 100.865
10.388 97.7971
10.4328 107.614
10.4776 162.275
10.5224 272.922
10.5672 509.519
10.612 568.467
10.6568 228.754
10.7017 104.363
10.7465 86.4481
10.7913 80.1424
10.8361 77.9218
10.8809 75.6634
10.9257 73.8065
10.9706 72.7412
11.0154 70.8218
11.0602 69.4408
11.105 68.4075
11.1499 66.8785
11.1947 67.5751
11.2395 65.9788
11.2844 64.9297
11.3292 63.8245
11.374 63.2367
11.4189 62.6904
11.4637 62.079
11.5086 60.9733
11.5534 61.2638
11.5983 61.1221
11.6431 60.9143
11.688 60.3486
11.7328 60.2138
11.7777 60.114
11.8225 59.806
11.8674 59.9771
11.9122 61.9832
11.9571 68.277
12.002 66.5442
12.0468 64.5289
12.0917 76.9724
12.1366 98.9834
12.1814 146.468
12.2263 202.339
12.2712 175.681
12.3161 98.5951
12.3609 65.0504
12.4058 61.5614
12.4507 61.5162
12.4956 61.478
12.5405 61.6432
12.5853 62.1879
12.6302 62.67
12.6751 64.2218
12.72 64.3055
12.7649 64.6021
12.8098 65.2604
12.8547 66.6129
12.8996 67.9375
12.9445 69.4526
12.9894 70.9579
13.0343 72.8859
13.0792 76.8455
13.1242 82.437
13.1691 107.865
13.214 148.755
13.2589 229.959
13.3038 369.032
13.3487 449.383
13.3937 280.301
13.4386 127.67
13.4835 99.3082
13.5285 120.093
13.5734 156.92
13.6183 237.995
13.6633 357.006
13.7082 361.329
13.7531 206.323
13.7981 100.551
13.843 79.772
13.888 77.017
13.9329 74.6947
13.9779 73.5382
14.0228 72.1395
14.0678 71.0511
14.1127 71.8357
14.1577 75.2133
14.2027 73.6387
14.2476 69.255
14.2926 67.5078
14.3376 67.348
14.3825 67.0716
14.4275 66.1742
14.4725 66.3852
14.5175 66.695
14.5624 66.4039
14.6074 66.8118
14.6524 67.134
14.6974 67.6932
14.7424 68.7253
14.7874 74.5523
14.8324 89.0358
14.8774 110.441
14.9224 149.304
14.9674 208.68
15.0124 228.388
15.0574 161.004
15.1024 94.5869
15.1474 71.3315
15.1924 67.8865
15.2374 66.5878
15.2824 65.9454
15.3274 65.0023
15.3725 64.6103
15.4175 64.1435
15.4625 63.6823
15.5076 63.3928
15.5526 63.6115
15.5976 63.529
15.6426 64.1019
15.6877 68.8242
15.7327 79.827
15.7778 94.9884
15.8228 122.689
15.8679 169.611
15.9129 203.21
15.958 169.493
16.003 104.481
16.0481 69.6054
16.0931 62.9271
16.1382 60.0273
16.1833 58.398
16.2283 57.0107
16.2734 56.3173
16.3185 55.643
16.3636 55.2414
16.4086 54.4281
16.4537 54.1327
16.4988 53.5231
16.5439 53.6316
16.589 53.3724
16.6341 53.0137
16.6792 52.4904
16.7243 52.9379
16.7694 52.7506
16.8145 52.7695
16.8596 52.9173
16.9047 53.5146
16.9498 54.4004
16.9949 53.9944
17.04 54.0643
17.0851 54.9681
17.1302 57.2908
17.1754 60.2629
17.2205 64.8742
17.2656 72.7805
17.3108 82.0537
17.3559 82.8233
17.401 72.2783
17.4462 61.6224
17.4913 57.8669
17.5365 57.3267
17.5815 57.3485
17.6268 57.8019
17.6718 58.5124
17.7171 58.9257
17.7622 60.2754
17.8074 60.8424
17.8525 61.9097
17.8977 66.7066
17.9428 73.6168
17.9881 82.422
18.0331 98.0648
18.0784 121.666
18.1237 142.991
18.1688 137.641
18.214 109.101
18.2591 88.2907
18.3044 89.16
18.3495 99.8814
18.3948 107.958
18.4399 99.0494
18.4852 79.3391
18.5303 65.7935
18.5756 61.5281
18.6207 60.3071
18.666 59.0713
18.7112 58.1301
18.7565 57.5012
18.8016 57.0351
18.8469 56.4646
18.892 56.2733
18.9374 55.6768
18.9825 55.4768
19.0278 55.1925
19.073 55.1202
19.1183 55.5562
19.1635 56.5553
19.2088 58.2461
19.254 60.7488
19.2993 65.6219
19.3447 72.212
19.3898 76.232
19.4352 72.4237
19.4804 63.3248
19.5257 56.3502
19.5709 52.9934
19.6163 52.5954
19.6615 52.2929
19.7068 51.7647
19.752 51.8104
19.7974 52.2198
19.8426 52.8399
19.888 53.6637
19.9332 55.407
19.9786 57.6753
20.0238 61.1242
20.0692 66.803
20.1144 70.5466
20.1598 69.2322
20.205 64.3328
20.2504 61.9986
20.2957 63.7069
20.3411 65.729
20.3863 64.3162
20.4318 58.4065
20.477 53.013
20.5224 50.1116
20.5677 49.4048
20.6131 48.8949
20.6586 48.4876
20.7038 48.318
20.7493 48.1442
20.7945 48.2172
20.84 47.7685
20.8853 47.6833
20.9307 47.4075
20.976 47.6186
21.0215 47.4085
21.0668 47.963
21.1122 48.4582
21.1575 48.9196
21.203 49.8492
21.2483 50.5102
21.2938 50.9114
21.3391 49.3172
21.3846 48.0222
21.4299 47.4799
21.4754 47.3382
21.5207 47.3904
21.5662 47.7728
21.6116 48.1172
21.6571 48.9097
21.7024 50.3131
21.7479 51.8985
21.7933 54.3518
21.8388 58.152
21.8843 62.7746
21.9297 65.4506
21.9752 64.2117
22.0206 60.1321
22.0661 56.6565
22.1115 56.0357
22.157 55.9106
22.2024 54.4166
22.248 51.3794
22.2933 49.2691
22.3389 48.1684
22.3843 47.8189
22.4299 47.634
22.4753 47.6278
22.5208 47.5725
22.5662 47.5643
22.6118 47.701
22.6572 47.7806
22.7028 48.3514
22.7483 49.1971
22.7939 49.8959
22.8393 51.3158
22.8849 53.3719
22.9303 55.8787
22.9759 57.7985
23.0214 57.5534
23.067 54.7998
23.1126 50.9614
23.1581 48.7389
23.2037 47.8683
23.2492 47.739
23.2948 47.9692
23.3403 48.4475
23.3859 49.4035
23.4314 50.6471
23.477 52.1828
23.5225 54.7483
23.5682 57.4489
23.6137 58.676
23.6593 56.5561
23.7048 52.0617
23.7505 48.1637
23.796 46.0047
23.8417 45.3117
23.8872 44.7768
23.9329 44.4234
23.9784 44.0689
24.0241 43.7401
24.0697 43.6222
24.1154 43.0956
24.1609 43.0867
24.2066 42.8441
24.2522 42.7569
24.2979 42.5795
24.3434 42.4435
24.3892 42.1228
24.4349 42.2884
24.4805 42.0777
24.5262 42.2137
24.5718 42.1877
24.6175 42.245
24.6631 42.0666
24.7089 41.787
24.7545 41.4647
24.8002 41.2398
24.8458 41.3611
24.8916 41.1901
24.9372 41.5635
24.983 41.8389
25.0286 42.1189
25.0744 42.7535
25.12 43.3608
25.1658 44.0607
25.2114 44.2972
25.2572 44.2932
25.3029 44.4628
25.3487 44.7711
25.3943 44.3879
25.4402 43.3281
25.4858 42.1031
25.5316 40.9247
25.5773 40.3299
25.6231 40.1671
25.669 39.6948
25.7147 39.7459
25.7605 39.5479
25.8062 39.9185
25.8521 40.0203
25.8977 39.9439
25.9436 40.1639
25.9893 40.3722
26.0352 40.8798
26.0809 41.0609
26.1268 41.4373
26.1725 41.1213
26.2184 40.3593
26.2641 39.7215
26.31 39.4782
26.3557 39.5646
26.4017 39.4849
26.4474 39.8708
26.4933 40.0936
26.5391 40.5417
26.585 41.3672
26.6308 41.8092
26.6767 42.0133
26.7225 41.965
26.7684 41.3921
26.8142 40.6918
26.8601 40.1044
26.9059 39.7936
26.9519 39.1237
26.9979 38.6437
27.0437 38.3406
27.0896 38.193
27.1354 38.209
27.1814 38.0498
27.2272 38.0007
27.2732 37.9248
27.3191 37.7015
27.3651 37.9345
27.4109 37.7516
27.4569 37.9619
27.5027 38.0618
27.5488 38.1004
27.5946 37.9385
27.6407 37.7323
27.6865 37.6433
27.7326 37.4626
27.7784 37.2787
27.8245 37.331
27.8703 37.4188
27.9164 37.7872
27.9623 38.049
28.0084 38.4754
28.0543 38.9059
28.1003 38.9647
28.1462 38.6215
28.1923 38.3584
28.2384 37.7102
28.2843 37.4043
28.3304 36.8871
28.3764 36.3699
28.4225 36.0818
28.4684 35.8012
28.5145 35.4169
28.5605 35.3518
28.6066 35.168
28.6526 35.1994
28.6987 35.0544
28.7447 34.9624
28.7908 34.8658
28.8368 34.9232
28.8829 34.9234
28.9289 34.8184
28.9751 34.7449
29.0211 34.4586
29.0673 34.1466
29.1133 34.1654
29.1595 33.9357
29.2055 33.7579
29.2517 33.8878
29.2977 33.82
29.3439 33.8081
29.3899 33.7708
29.4361 33.7725
29.4824 33.5766
29.5284 33.4667
29.5746 32.8798
29.6207 32.7117
29.6669 32.513
29.713 32.4508
29.7593 32.3483
29.8053 32.3021
29.8516 32.343
29.8977 32.3089
29.9439 32.0848
29.99 32.1263
30.0363 31.9218
30.0824 32.0169
30.1287 31.9371
30.1748 31.9689
30.2211 32.0506
30.2673 31.732
30.3136 31.9097
30.3597 31.7168
30.406 31.7714
30.4522 31.5376
30.4985 31.643
30.5447 31.7568
30.591 31.7342
30.6372 31.801
30.6835 31.7594
30.7297 31.956
30.7761 31.8486
30.8224 31.643
30.8686 31.5623
30.915 31.3101
30.9612 31.2116
31.0076 30.8382
31.0538 30.7822
31.1002 30.7131
31.1464 30.4689
31.1928 30.5153
31.2391 30.5988
31.2855 30.3942
31.3317 30.5476
31.3781 30.4892
31.4244 30.54
31.4708 30.5102
31.5171 30.4262
31.5636 30.478
31.6098 30.1459
31.6563 29.9986
31.7026 29.9118
31.7491 29.7999
31.7953 29.8278
31.8418 29.7874
31.8881 29.8554
31.9346 29.765
31.9809 29.6683
32.0275 29.6302
32.074 29.5618
32.1203 29.3466
32.1668 29.2527
32.2132 29.031
32.2597 28.9049
32.306 28.8164
32.3526 28.6323
32.399 28.5371
32.4455 28.3937
32.4919 28.3463
32.5385 28.3205
32.5848 28.0207
32.6314 28.188
32.6778 28.0032
32.7244 27.9128
32.7708 27.8546
32.8174 27.7902
32.8638 27.6221
32.9104 27.7717
32.9569 27.6457
33.0035 27.477
33.0499 27.5044
33.0966 27.4842
33.143 27.5201
33.1897 27.4011
33.2361 27.4049
33.2828 27.3119
33.3293 27.1241
33.3759 27.0458
33.4226 26.9088
33.4691 26.7283
33.5158 26.7781
33.5623 26.568
33.609 26.3276
33.6555 26.3271
33.7022 26.2118
33.7487 26.1251
33.7954 26.1306
33.842 26.0037
33.8887 26.0096
33.9353 25.9075
33.982 25.7426
34.0286 25.8378
34.0753 25.674
34.1219 25.576
34.1687 25.4047
34.2152 25.4017
34.262 25.2982
34.3086 25.2516
34.3554 25.2288
34.402 24.9186
34.4488 25.0037
34.4954 24.8695
34.5422 24.7496
34.5889 24.7411
34.6357 24.6252
34.6825 24.5838
34.7292 24.5433
34.776 24.4781
34.8227 24.2957
34.8695 24.3396
34.9162 24.2055
34.9631 24.1198
35.0098 24.2002
35.0566 24.0447
35.1033 24.0236
35.1502 23.9926
35.1969 23.8591
35.2438 23.8589
35.2906 23.7774
35.3375 23.7975
35.3842 23.7268
35.4311 23.6765
35.4779 23.7264
35.5248 23.6901
35.5716 23.4823
35.6185 23.3826
35.6653 23.3766
35.7123 23.2593
35.759 23.2301
35.806 23.0612
35.8528 23.0107
35.8998 22.9585
35.9468 22.8356
35.9936 22.8651
36.0406 22.7567
36.0874 22.756
36.1345 22.7003
36.1813 22.4766
36.2283 22.4534
36.2752 22.3276
36.3222 22.4056
36.3691 22.3141
36.4161 22.1948
36.463 22.1736
36.5101 22.1721
36.557 22.1041
36.6041 21.8868
36.651 21.9884
36.6981 21.8905
36.745 21.8165
36.7921 21.6703
36.839 21.5596
36.8861 21.5352
36.9331 21.4839
36.9802 21.4127
37.0272 21.3119
37.0743 21.2763
37.1213 21.2606
37.1684 21.0888
37.2154 21.1222
37.2626 20.9791
37.3098 20.8966
37.3568 20.8273
37.404 20.8636
37.451 20.6978
37.4982 20.683
37.5452 20.5488
37.5924 20.4953
37.6395 20.6352
37.6867 20.3979
37.7337 20.2968
37.781 20.2508
37.8281 20.1863
37.8753 20.2021
37.9224 20.1083
37.9697 20.0773
38.0168 19.9192
38.064 19.9271
38.1111 19.845
38.1584 19.7362
38.2056 19.6789
38.2529 19.6809
38.3 19.6155
38.3473 19.6242
38.3945 19.4155
38.4418 19.4201
38.489 19.3474
38.5363 19.2798
38.5837 19.2031
38.6309 19.1613
38.6782 19.0882
38.7254 19.0437
38.7728 18.9487
38.82 18.9251
38.8674 18.852
38.9146 18.7703
38.9621 18.6619
39.0093 18.6982
39.0567 18.6125
39.104 18.5869
39.1514 18.4305
39.1987 18.4968
39.2461 18.4287
39.2934 18.2962
39.3409 18.2252
39.3882 18.1646
39.4356 18.1699
39.483 18.0522
39.5304 17.9921
39.5778 18.0569
39.6253 17.9127
39.6726 17.8531
39.7201 17.8091
39.7675 17.7315
39.815 17.6871
39.8624 17.6051
39.9099 17.6037
39.9575 17.4708
40.0049 17.5
40.0525 17.3979
40.0999 17.3953
40.1474 17.3513
40.1949 17.2434
40.2425 17.159
40.2899 17.0962
40.3375 17.0253
40.385 17.0014
40.4326 16.9731
40.48 16.897
40.5277 16.8613
40.5752 16.8149
40.6228 16.7425
40.6703 16.6911
40.718 16.6478
40.7655 16.6124
40.8132 16.4844
40.8607 16.5244
40.9084 16.4753
40.9559 16.4085
41.0036 16.4041
41.0512 16.3029
41.0989 16.2505
41.1465 16.1535
41.1942 16.1922
41.242 16.0718
41.2896 16.0041
41.3373 15.9595
41.3849 15.9356
41.4327 15.8726
41.4803 15.7812
41.5281 15.7448
41.5758 15.6909
41.6236 15.6259
41.6712 15.5727
41.7191 15.4955
41.7667 15.4869
41.8146 15.4805
41.8622 15.3859
41.9101 15.3718
41.9578 15.2211
42.0057 15.2125
42.0534 15.1888
42.1013 15.138
42.149 15.0427
42.1969 15.0148
42.2446 14.9244
42.2925 14.9583
42.3403 14.8696
42.3882 14.8145
42.436 14.8001
42.4839 14.724
42.5319 14.6647
42.5797 14.6404
42.6277 14.567
42.6755 14.5654
42.7235 14.4473
42.7713 14.4683
42.8193 14.3962
42.8671 14.2994
42.9152 14.3008
42.963 14.2799
43.0111 14.1849
43.0589 14.1518
43.107 14.0738
43.1549 14.0693
43.2029 13.988
43.2508 13.9693
43.2989 13.8953
43.3468 13.8377
43.3949 13.7644
43.4429 13.8156
43.491 13.7193
43.5389 13.6966
43.5871 13.6172
43.635 13.5472
43.6832 13.5391
43.7312 13.4293
43.7793 13.3978
43.8273 13.3926
43.8755 13.3327
43.9237 13.2472
43.9717 13.262
44.0199 13.1734
44.068 13.1736
44.1162 13.094
44.1642 13.058
44.2125 13.0323
44.2606 12.9865
44.3088 12.9581
44.3569 12.9029
44.4052 12.8909
44.4533 12.8197
44.5016 12.7326
44.5497 12.6593
44.598 12.6956
44.6461 12.5739
44.6945 12.5715
44.7426 12.5293
44.791 12.4362
44.8391 12.4123
44.8875 12.373
44.9357 12.3646
44.984 12.2882
45.0322 12.244
45.0806 12.2145
45.1288 12.1884
45.1773 12.0846
45.2257 12.1121
45.2739 12.0258
45.3224 12.0002
45.3706 11.9518
45.4191 11.9083
45.4673 11.8799
45.5158 11.8347
45.5641 11.7728
45.6126 11.7589
45.6609 11.7193
45.7094 11.6629
45.7577 11.6194
45.8063 11.5779
45.8546 11.5714
45.9031 11.4804
45.9515 11.4487
46.0001 11.424
46.0484 11.4065
46.097 11.3436
46.1454 11.3073
46.194 11.2252
46.2424 11.2105
46.291 11.1757
46.3395 11.0985
46.3881 11.0581
46.4365 11.0747
46.4852 11.0186
46.5337 10.9881
46.5823 10.9939
46.631 10.883
46.6795 10.8871
46.7282 10.8026
46.7767 10.7346
46.8254 10.7211
46.8739 10.6802
46.9226 10.6954
46.9712 10.61
47.0199 10.5661
47.0685 10.5645
47.1173 10.4573
47.1658 10.4716
47.2146 10.4064
47.2632 10.3632
47.312 10.3247
47.3606 10.3175
47.4095 10.2262
47.4581 10.2047
47.5069 10.1738
47.5556 10.1575
47.6044 10.0918
47.6531 10.0954
47.702 10.0149
47.7507 10.0112
47.7996 9.97004
47.8483 9.93271
47.8972 9.87368
47.9461 9.89913
47.9948 9.78529
48.0438 9.78133
48.0925 9.78425
48.1415 9.70595
48.1902 9.66687
48.2392 9.65495
48.288 9.61181
48.337 9.56008
48.3858 9.52559
48.4348 9.50741
48.4837 9.50013
48.5327 9.44935
48.5815 9.40142
48.6306 9.40981
48.6795 9.32482
48.7285 9.2822
48.7774 9.30091
48.8265 9.21125
48.8754 9.22353
48.9245 9.13636
48.9734 9.12837
49.0226 9.05366
49.0715 9.02777
49.1206 9.01872
49.1696 8.96864
49.2188 8.97419
49.2679 8.91933
49.3169 8.89414
49.3661 8.87265
49.4151 8.83064
49.4643 8.81753
49.5134 8.72768
49.5626 8.68336
49.6117 8.65432
49.6609 8.67229
49.71 8.5956
49.7592 8.59608
49.8083 8.53472
49.8576 8.51248
49.9067 8.44745
49.956 8.45989
50.0052 8.44118
50.0545 8.39722
50.1036 8.37216
50.153 8.31707
50.2022 8.31231
50.2515 8.24641
50.3007 8.22257
50.3501 8.20156
50.3993 8.16514
50.4487 8.10563
50.498 8.12374
50.5474 8.07008
50.5966 8.03815
50.6461 8.00779
50.6955 7.99111
50.7448 7.94882
50.7943 7.94403
50.8436 7.90162
50.8931 7.87325
50.9424 7.82691
50.9919 7.77707
51.0413 7.77082
51.0908 7.73387
51.1402 7.70519
51.1897 7.6531
51.2391 7.6553
51.2887 7.6429
51.3381 7.54948
51.3877 7.53505
51.4371 7.52457
51.4867 7.42907
51.5362 7.43143
51.5858 7.4268
51.6353 7.39053
51.6849 7.34159
51.7344 7.33079
51.7841 7.30907
51.8336 7.26326
51.8833 7.23307
51.9328 7.2098
51.9826 7.16576
52.0323 7.1687
52.0818 7.11644
52.1316 7.08485
52.1812 7.07341
52.231 7.03255
52.2806 7.01485
52.3304 6.96377
52.38 6.96591
52.4298 6.92511
52.4794 6.90817
52.5293 6.86647
52.5789 6.83208
52.6288 6.80057
52.6785 6.76209
52.7284 6.72295
52.7781 6.7281
52.828 6.69037
52.8777 6.59249
52.9276 6.66885
52.9774 6.6053
53.0273 6.58067
53.0771 6.60158
53.1271 6.50225
53.1769 6.48301
53.2269 6.46677
53.2767 6.40737
53.3267 6.40176
53.3765 6.39835
53.4266 6.3816
53.4766 6.33013
53.5265 6.27156
53.5765 6.28987
53.6264 6.25775
53.6765 6.26471
53.7264 6.20214
53.7765 6.22023
53.8265 6.12815
53.8766 6.11123
53.9266 6.10014
53.9767 6.07096
54.0267 6.01078
54.0769 6.0
54.1269 5.97831
54.1771 5.9524
54.2271 5.94987
54.2773 5.8747
54.3274 5.89632
54.3776 5.79308
54.4277 5.79771
54.478 5.78218
54.528 5.71871
54.5783 5.68079
54.6285 5.66223
54.6788 5.63573
54.7289 5.59515
54.7792 5.49277
54.8296 5.51568
54.8798 5.43878
54.9301 5.42297
54.9803 5.38444
55.0307 5.36048
55.0809 5.30623
55.1314 5.37485
55.1816 5.21372
55.232 5.21313
55.2823 5.21259
55.3328 5.06483
55.383 5.02762
55.4335 4.99192
55.4838 4.90646
55.5344 4.84582
55.5847 4.89128
55.6352 4.8542
55.6856 4.7627
55.7361 4.76075