File: XRD/Ni3Fe_FD0608.xy
TT I
1.27165 7.64534
1.31627 6.58264
1.36089 6.85672
1.40551 6.49513
1.45013 5.95789
1.49476 6.81809
1.53938 5.61011
1.584 5.06499
1.62863 6.0249
1.67325 5.44575
1.71787 5.24838
1.7625 4.81407
1.80712 4.77894
1.85174 5.08968
1.89636 4.9578
1.94099 4.86515
1.98562 5.02687
2.03025 4.58272
2.07487 4.64139
2.11949 4.98048
2.16411 4.63815
2.20874 12.8704
2.25338 18.6416
2.298 5.79392
2.34263 5.4134
2.38725 5.35563
2.43188 6.22488
2.4765 6.66621
2.52115 6.47106
2.56577 7.92016
2.6104 7.64565
2.65503 7.71734
2.69965 8.16609
2.7443 7.79192
2.78893 8.67147
2.83356 8.66213
2.87818 9.04089
2.92281 9.27557
2.96744 9.60565
3.01209 10.1839
3.05672 11.935
3.10135 12.7315
3.14599 12.9708
3.19062 14.1492
3.23527 15.1179
3.2799 15.7028
3.32454 16.8685
3.36917 17.3405
3.4138 18.8003
3.45844 19.8886
3.50309 20.8801
3.54773 21.9049
3.59237 24.0126
3.637 79.3356
3.68164 50.6288
3.7263 26.1529
3.77094 26.2087
3.81558 26.9938
3.86022 27.6286
3.90486 29.3305
3.9495 29.9763
3.99416 30.9648
4.0388 32.637
4.08344 33.4622
4.12809 34.9922
4.17273 37.168
4.21738 42.561
4.26204 207.81
4.30669 174.389
4.35133 47.8222
4.39598 44.6608
4.44063 53.5668
4.4853 61.8992
4.52995 50.5917
4.5746 51.7251
4.61925 53.9525
4.6639 56.425
4.70855 58.6591
4.75322 61.2627
4.79788 64.8989
4.84253 68.3154
4.88719 71.9677
4.93184 75.654
4.97652 81.4259
5.02118 87.9198
5.06583 95.7989
5.11049 107.471
5.15515 166.756
5.19981 380.244
5.24449 3034.51
5.28916 12334.7
5.33382 2913.59
5.37848 195.614
5.42315 131.257
5.46783 114.825
5.5125 107.443
5.55716 103.278
5.60183 99.4478
5.6465 97.5568
5.69117 95.4668
5.73586 93.2607
5.78053 93.0513
5.8252 92.0359
5.86988 93.9128
5.91455 95.5249
5.95924 104.08
6.00392 221.697
6.0486 1028.3
6.09328 4294.75
6.13795 3461.62
6.18263 253.746
6.22733 94.4594
6.27201 83.6309
6.3167 97.2832
6.36138 78.9726
6.40606 69.7643
6.45075 67.9217
6.49545 65.9849
6.54014 63.9907
6.58483 63.5932
6.62952 63.0334
6.67421 89.4989
6.71892 125.623
6.76361 66.846
6.8083 58.7676
6.853 58.0403
6.89769 57.1515
6.94239 56.8954
6.98711 56.4067
7.03181 56.014
7.07651 55.6369
7.12121 55.4685
7.16591 55.5309
7.21063 55.9089
7.25533 69.0431
7.30004 152.527
7.34475 82.634
7.38945 56.6254
7.43416 55.2387
7.47889 55.1159
7.5236 55.1826
7.56831 55.6948
7.61303 57.0349
7.65774 57.3003
7.70247 56.6876
7.74719 56.3259
7.79191 57.4026
7.83663 57.0081
7.88135 58.1719
7.92607 59.3426
7.97081 60.4518
8.01553 61.3054
8.06026 63.0156
8.10498 64.4639
8.14971 72.4551
8.19446 71.684
8.23919 69.9442
8.28392 72.5296
8.32865 74.9974
8.37339 79.1126
8.41812 85.9018
8.46288 110.55
8.50761 170.989
8.55235 404.795
8.59709 1227.01
8.64183 2168.66
8.68658 998.72
8.73134 175.021
8.77609 100.568
8.82083 93.8578
8.86558 90.7542
8.91033 90.882
8.9551 91.1923
8.99985 85.9454
9.04461 84.5013
9.08936 83.7109
9.13412 82.6484
9.17888 82.7379
9.22365 83.7211
9.26841 82.9464
9.31318 83.3742
9.35794 83.7655
9.4027 84.4083
9.44749 84.5241
9.49226 85.6074
9.53703 86.3687
9.5818 88.2381
9.62657 92.4004
9.67134 97.7651
9.71614 94.2457
9.76091 94.9464
9.80569 97.5572
9.85047 100.892
9.89525 121.345
9.94005 132.312
9.98484 186.637
10.0296 359.842
10.0744 856.316
10.1192 1691.45
10.164 1554.93
10.2088 413.752
10.2536 129.26
10.2984 113.644
10.3432 113.616
10.388 105.732
10.4328 120.908
10.4776 165.021
10.5224 295.046
10.5672 510.755
10.612 488.373
10.6568 206.675
10.7017 97.6547
10.7465 87.41
10.7913 84.0161
10.8361 81.9391
10.8809 79.6974
10.9257 78.8685
10.9706 79.0805
11.0154 75.5434
11.0602 73.2778
11.105 72.3259
11.1499 75.5099
11.1947 81.0088
11.2395 73.8029
11.2844 70.6077
11.3292 67.8569
11.374 66.6039
11.4189 66.0939
11.4637 65.6069
11.5086 66.0213
11.5534 67.9196
11.5983 65.4527
11.6431 64.0832
11.688 63.4563
11.7328 63.3294
11.7777 63.288
11.8225 63.0514
11.8674 63.0321
11.9122 63.2352
11.9571 63.6114
12.002 64.0831
12.0468 68.8914
12.0917 80.5977
12.1366 105.721
12.1814 154.64
12.2263 200.252
12.2712 165.7
12.3161 97.3206
12.3609 69.98
12.4058 64.9017
12.4507 65.0286
12.4956 65.041
12.5405 65.0521
12.5853 65.9953
12.6302 72.6368
12.6751 76.6162
12.72 69.7301
12.7649 68.0545
12.8098 68.7965
12.8547 70.2465
12.8996 71.6168
12.9445 73.1473
12.9894 74.622
13.0343 76.5105
13.0792 79.8987
13.1242 89.9811
13.1691 113.924
13.214 152.864
13.2589 247.961
13.3038 370.575
13.3487 417.955
13.3937 268.349
13.4386 128.398
13.4835 107.869
13.5285 123.158
13.5734 163.827
13.6183 252.717
13.6633 342.653
13.7082 333.222
13.7531 191.859
13.7981 100.056
13.843 82.5162
13.888 80.2828
13.9329 77.8369
13.9779 76.6594
14.0228 75.1402
14.0678 73.6894
14.1127 73.3699
14.1577 72.9835
14.2027 72.1755
14.2476 70.7808
14.2926 71.0006
14.3376 71.9151
14.3825 70.6391
14.4275 69.5458
14.4725 69.2434
14.5175 69.6733
14.5624 69.8227
14.6074 71.2748
14.6524 71.9389
14.6974 71.1414
14.7424 72.9917
14.7874 80.0156
14.8324 90.7636
14.8774 113.92
14.9224 157.495
14.9674 207.162
15.0124 212.02
15.0574 150.836
15.1024 92.9788
15.1474 73.1933
15.1924 71.2146
15.2374 71.1471
15.2824 70.3307
15.3274 68.568
15.3725 67.5102
15.4175 67.216
15.4625 66.9215
15.5076 66.7607
15.5526 66.8654
15.5976 66.3606
15.6426 67.6077
15.6877 73.2165
15.7327 81.1491
15.7778 97.0671
15.8228 129.505
15.8679 169.73
15.9129 189.044
15.958 154.198
16.003 97.9889
16.0481 69.0876
16.0931 64.9094
16.1382 62.6488
16.1833 61.1068
16.2283 59.4474
16.2734 58.8899
16.3185 58.949
16.3636 59.2303
16.4086 57.7563
16.4537 56.5653
16.4988 56.0169
16.5439 55.9866
16.589 55.6075
16.6341 55.5379
16.6792 55.0492
16.7243 55.3829
16.7694 55.4755
16.8145 55.2094
16.8596 55.7042
16.9047 56.6211
16.9498 56.9687
16.9949 56.1173
17.04 56.3074
17.0851 57.7629
17.1302 59.3252
17.1754 62.4945
17.2205 67.7248
17.2656 74.7791
17.3108 81.6041
17.3559 81.7544
17.401 72.5691
17.4462 63.2795
17.4913 59.6716
17.5365 59.7421
17.5815 59.8906
17.6268 60.1221
17.6718 60.923
17.7171 61.4143
17.7622 61.8905
17.8074 62.5017
17.8525 64.9667
17.8977 69.1456
17.9428 74.7654
17.9881 84.2399
18.0331 102.246
18.0784 122.353
18.1237 138.276
18.1688 131.458
18.214 105.202
18.2591 88.7814
18.3044 92.2137
18.3495 99.9503
18.3948 104.266
18.4399 96.3194
18.4852 79.0022
18.5303 66.8589
18.5756 62.9542
18.6207 61.7666
18.666 60.9901
18.7112 60.2264
18.7565 59.231
18.8016 59.1838
18.8469 58.6084
18.892 58.4199
18.9374 57.7603
18.9825 57.3505
19.0278 57.2732
19.073 57.4364
19.1183 58.1061
19.1635 58.7968
19.2088 60.0859
19.254 62.9671
19.2993 67.4212
19.3447 72.8143
19.3898 75.8069
19.4352 72.273
19.4804 64.267
19.5257 57.4936
19.5709 54.6082
19.6163 54.5077
19.6615 54.1138
19.7068 53.5677
19.752 53.7642
19.7974 54.0519
19.8426 54.9521
19.888 55.5291
19.9332 56.8804
19.9786 59.3113
20.0238 63.1784
20.0692 67.588
20.1144 69.7505
20.1598 68.4445
20.205 64.332
20.2504 62.703
20.2957 64.0725
20.3411 65.3918
20.3863 64.1372
20.4318 59.1223
20.477 54.2422
20.5224 52.033
20.5677 51.3109
20.6131 50.7941
20.6586 50.2107
20.7038 49.9797
20.7493 49.5489
20.7945 49.3745
20.84 49.3763
20.8853 49.3197
20.9307 48.9203
20.976 49.1757
21.0215 49.0048
21.0668 49.4778
21.1122 49.8308
21.1575 50.4327
21.203 51.1232
21.2483 51.7852
21.2938 51.7364
21.3391 50.4554
21.3846 49.3921
21.4299 48.8852
21.4754 48.7278
21.5207 49.0105
21.5662 48.9181
21.6116 49.752
21.6571 50.2933
21.7024 51.4818
21.7479 53.2681
21.7933 56.0369
21.8388 59.4022
21.8843 62.5734
21.9297 64.2513
21.9752 63.3927
22.0206 60.2205
22.0661 57.3247
22.1115 56.3648
22.157 56.0351
22.2024 54.5531
22.248 51.8441
22.2933 50.1368
22.3389 49.4186
22.3843 49.3144
22.4299 49.3887
22.4753 49.3805
22.5208 49.0419
22.5662 48.8523
22.6118 49.0957
22.6572 49.2163
22.7028 49.7186
22.7483 50.2441
22.7939 50.8318
22.8393 52.333
22.8849 54.5808
22.9303 56.3428
22.9759 57.7939
23.0214 57.5345
23.067 55.0136
23.1126 51.7641
23.1581 49.6392
23.2037 49.1522
23.2492 49.3596
23.2948 49.2273
23.3403 49.4933
23.3859 50.2168
23.4314 51.3879
23.477 53.1601
23.5225 55.3444
23.5682 56.9625
23.6137 57.7609
23.6593 55.7158
23.7048 51.9483
23.7505 48.8604
23.796 47.1097
23.8417 46.3832
23.8872 45.8941
23.9329 45.5957
23.9784 45.3421
24.0241 44.9124
24.0697 44.8841
24.1154 44.522
24.1609 44.3277
24.2066 44.1604
24.2522 43.9795
24.2979 43.7691
24.3434 43.7199
24.3892 43.5099
24.4349 43.5814
24.4805 43.0712
24.5262 43.4316
24.5718 43.2702
24.6175 43.2067
24.6631 43.2479
24.7089 42.8517
24.7545 42.7932
24.8002 42.5425
24.8458 42.5723
24.8916 42.432
24.9372 42.5246
24.983 42.8578
25.0286 43.2824
25.0744 43.5414
25.12 44.082
25.1658 44.5307
25.2114 44.8541
25.2572 45.0867
25.3029 45.1756
25.3487 45.1889
25.3943 44.661
25.4402 43.8352
25.4858 42.923
25.5316 41.6194
25.5773 41.1594
25.6231 41.2897
25.669 40.7849
25.7147 40.8832
25.7605 40.7851
25.8062 40.8127
25.8521 40.9575
25.8977 40.8976
25.9436 41.205
25.9893 41.3448
26.0352 41.8222
26.0809 41.686
26.1268 41.9081
26.1725 41.5911
26.2184 41.1817
26.2641 40.6554
26.31 40.3598
26.3557 40.574
26.4017 40.3996
26.4474 40.6461
26.4933 41.0645
26.5391 41.5488
26.585 41.9515
26.6308 42.3106
26.6767 42.1994
26.7225 42.2057
26.7684 41.7025
26.8142 41.1279
26.8601 40.7356
26.9059 40.405
26.9519 39.8468
26.9979 39.4627
27.0437 39.0491
27.0896 38.962
27.1354 39.096
27.1814 38.9023
27.2272 38.8278
27.2732 38.9963
27.3191 38.6137
27.3651 38.7778
27.4109 38.6608
27.4569 38.744
27.5027 38.8172
27.5488 38.8024
27.5946 38.6185
27.6407 38.5543
27.6865 38.3441
27.7326 38.1639
27.7784 38.2104
27.8245 38.0459
27.8703 38.4051
27.9164 38.6073
27.9623 38.6695
28.0084 39.0209
28.0543 39.4239
28.1003 39.135
28.1462 39.0617
28.1923 38.8151
28.2384 38.1191
28.2843 38.0045
28.3304 37.4672
28.3764 37.0773
28.4225 36.6113
28.4684 36.5114
28.5145 36.1828
28.5605 36.1392
28.6066 35.9854
28.6526 36.0103
28.6987 35.8941
28.7447 35.7232
28.7908 35.7486
28.8368 35.7507
28.8829 35.6905
28.9289 35.5933
28.9751 35.3761
29.0211 35.1851
29.0673 34.9387
29.1133 34.8635
29.1595 34.7128
29.2055 34.6318
29.2517 34.5919
29.2977 34.526
29.3439 34.5496
29.3899 34.4459
29.4361 34.3785
29.4824 34.225
29.5284 33.9545
29.5746 33.6192
29.6207 33.4569
29.6669 33.4083
29.713 33.1272
29.7593 33.1537
29.8053 33.2249
29.8516 32.9805
29.8977 32.9878
29.9439 32.9307
29.99 32.8192
30.0363 32.7346
30.0824 32.6053
30.1287 32.6028
30.1748 32.7264
30.2211 32.6606
30.2673 32.568
30.3136 32.6562
30.3597 32.5155
30.406 32.4542
30.4522 32.3909
30.4985 32.1667
30.5447 32.4042
30.591 32.367
30.6372 32.5022
30.6835 32.4299
30.7297 32.3941
30.7761 32.4521
30.8224 32.2346
30.8686 32.1167
30.915 31.8675
30.9612 31.7465
31.0076 31.4817
31.0538 31.4292
31.1002 31.319
31.1464 31.1928
31.1928 31.1157
31.2391 31.0938
31.2855 31.1226
31.3317 31.0817
31.3781 31.1156
31.4244 31.1176
31.4708 30.8885
31.5171 31.1108
31.5636 30.986
31.6098 30.8322
31.6563 30.6632
31.7026 30.3789
31.7491 30.3468
31.7953 30.3966
31.8418 30.443
31.8881 30.3663
31.9346 30.3554
31.9809 30.2489
32.0275 30.0998
32.074 29.9834
32.1203 29.8155
32.1668 29.7265
32.2132 29.5992
32.2597 29.5312
32.306 29.4219
32.3526 29.1124
32.399 29.1169
32.4455 28.9711
32.4919 28.9312
32.5385 28.8259
32.5848 28.7289
32.6314 28.6859
32.6778 28.5786
32.7244 28.4767
32.7708 28.382
32.8174 28.3265
32.8638 28.2152
32.9104 28.2806
32.9569 28.2375
33.0035 28.1302
33.0499 28.1086
33.0966 27.9807
33.143 27.9634
33.1897 27.9412
33.2361 27.7624
33.2828 27.7655
33.3293 27.6042
33.3759 27.5904
33.4226 27.4431
33.4691 27.2791
33.5158 27.2263
33.5623 27.0998
33.609 26.9978
33.6555 26.8993
33.7022 26.8083
33.7487 26.6861
33.7954 26.6662
33.842 26.6353
33.8887 26.4917
33.9353 26.4237
33.982 26.3486
34.0286 26.296
34.0753 26.1564
34.1219 26.1455
34.1687 26.0549
34.2152 25.9591
34.262 25.852
34.3086 25.7608
34.3554 25.6729
34.402 25.6801
34.4488 25.4377
34.4954 25.4341
34.5422 25.4142
34.5889 25.2895
34.6357 25.1084
34.6825 25.0985
34.7292 25.0457
34.776 24.8996
34.8227 24.9032
34.8695 24.8375
34.9162 24.7334
34.9631 24.7092
35.0098 24.5524
35.0566 24.5549
35.1033 24.4912
35.1502 24.4987
35.1969 24.3836
35.2438 24.3087
35.2906 24.2901
35.3375 24.1232
35.3842 24.2225
35.4311 24.2046
35.4779 24.0654
35.5248 24.0387
35.5716 23.8927
35.6185 23.9528
35.6653 23.8121
35.7123 23.6705
35.759 23.6164
35.806 23.507
35.8528 23.4008
35.8998 23.3318
35.9468 23.2778
35.9936 23.2918
36.0406 23.1782
36.0874 23.1307
36.1345 23.0696
36.1813 23.0383
36.2283 22.9137
36.2752 22.8114
36.3222 22.8147
36.3691 22.693
36.4161 22.6404
36.463 22.6202
36.5101 22.5961
36.557 22.5161
36.6041 22.3268
36.651 22.4097
36.6981 22.2951
36.745 22.2111
36.7921 22.0972
36.839 22.0753
36.8861 21.9978
36.9331 21.9175
36.9802 21.8069
37.0272 21.7517
37.0743 21.6198
37.1213 21.6335
37.1684 21.5688
37.2154 21.4893
37.2626 21.389
37.3098 21.3961
37.3568 21.3128
37.404 21.2565
37.451 21.1381
37.4982 21.1338
37.5452 20.9935
37.5924 20.977
37.6395 20.9698
37.6867 20.8594
37.7337 20.7612
37.781 20.702
37.8281 20.6494
37.8753 20.5353
37.9224 20.5103
37.9697 20.3898
38.0168 20.3502
38.064 20.2829
38.1111 20.2101
38.1584 20.1827
38.2056 20.0888
38.2529 20.0075
38.3 19.9796
38.3473 19.9779
38.3945 19.86
38.4418 19.8504
38.489 19.7214
38.5363 19.6366
38.5837 19.5897
38.6309 19.5522
38.6782 19.4866
38.7254 19.3432
38.7728 19.3491
38.82 19.2928
38.8674 19.2098
38.9146 19.2057
38.9621 19.1353
39.0093 19.0709
39.0567 19.008
39.104 18.9199
39.1514 18.8474
39.1987 18.8232
39.2461 18.8299
39.2934 18.7083
39.3409 18.5803
39.3882 18.5291
39.4356 18.5304
39.483 18.4737
39.5304 18.4209
39.5778 18.4526
39.6253 18.2818
39.6726 18.2787
39.7201 18.1731
39.7675 18.1003
39.815 18.063
39.8624 17.9813
39.9099 17.9664
39.9575 17.8361
40.0049 17.8081
40.0525 17.8142
40.0999 17.7649
40.1474 17.7043
40.1949 17.647
40.2425 17.5221
40.2899 17.4737
40.3375 17.3963
40.385 17.3395
40.4326 17.2944
40.48 17.3045
40.5277 17.2972
40.5752 17.1579
40.6228 17.099
40.6703 17.0101
40.718 16.9737
40.7655 17.0057
40.8132 16.864
40.8607 16.8445
40.9084 16.8347
40.9559 16.7655
41.0036 16.67
41.0512 16.578
41.0989 16.61
41.1465 16.532
41.1942 16.4725
41.242 16.3776
41.2896 16.3474
41.3373 16.2811
41.3849 16.2868
41.4327 16.2346
41.4803 16.0832
41.5281 16.1077
41.5758 15.9755
41.6236 15.9928
41.6712 15.885
41.7191 15.8135
41.7667 15.7532
41.8146 15.7545
41.8622 15.719
41.9101 15.6175
41.9578 15.5386
42.0057 15.4607
42.0534 15.4775
42.1013 15.466
42.149 15.4104
42.1969 15.3239
42.2446 15.2712
42.2925 15.3152
42.3403 15.1649
42.3882 15.18
42.436 15.0968
42.4839 15.0102
42.5319 15.033
42.5797 14.9504
42.6277 14.9079
42.6755 14.815
42.7235 14.7771
42.7713 14.7072
42.8193 14.6775
42.8671 14.6216
42.9152 14.5667
42.963 14.5484
43.0111 14.4515
43.0589 14.4287
43.107 14.3299
43.1549 14.3415
43.2029 14.2816
43.2508 14.2095
43.2989 14.1283
43.3468 14.0842
43.3949 14.1269
43.4429 14.0304
43.491 13.9664
43.5389 13.9643
43.5871 13.9072
43.635 13.8595
43.6832 13.8195
43.7312 13.7112
43.7793 13.6864
43.8273 13.659
43.8755 13.6204
43.9237 13.5514
43.9717 13.5332
44.0199 13.4519
44.068 13.4106
44.1162 13.3304
44.1642 13.351
44.2125 13.2945
44.2606 13.2196
44.3088 13.165
44.3569 13.1191
44.4052 13.1184
44.4533 13.0766
44.5016 12.953
44.5497 12.9916
44.598 12.8995
44.6461 12.8531
44.6945 12.7761
44.7426 12.7915
44.791 12.7039
44.8391 12.7302
44.8875 12.6743
44.9357 12.6251
44.984 12.5571
45.0322 12.4949
45.0806 12.4987
45.1288 12.4311
45.1773 12.4
45.2257 12.3272
45.2739 12.3268
45.3224 12.2443
45.3706 12.2197
45.4191 12.1687
45.4673 12.1379
45.5158 12.0825
45.5641 12.0304
45.6126 11.9933
45.6609 11.9163
45.7094 11.8999
45.7577 11.8674
45.8063 11.8162
45.8546 11.7364
45.9031 11.7517
45.9515 11.6853
46.0001 11.6426
46.0484 11.6298
46.097 11.5868
46.1454 11.5414
46.194 11.5084
46.2424 11.4349
46.291 11.3889
46.3395 11.3245
46.3881 11.3089
46.4365 11.273
46.4852 11.2242
46.5337 11.2023
46.5823 11.1711
46.631 11.074
46.6795 11.0928
46.7282 11.0521
46.7767 10.957
46.8254 10.9327
46.8739 10.9332
46.9226 10.8707
46.9712 10.8127
47.0199 10.774
47.0685 10.7582
47.1173 10.6608
47.1658 10.6456
47.2146 10.6088
47.2632 10.5758
47.312 10.5605
47.3606 10.4909
47.4095 10.4819
47.4581 10.4512
47.5069 10.398
47.5556 10.3552
47.6044 10.3179
47.6531 10.2791
47.702 10.243
47.7507 10.1958
47.7996 10.1786
47.8483 10.1358
47.8972 10.0941
47.9461 10.0458
47.9948 10.0206
48.0438 9.97508
48.0925 9.98072
48.1415 9.89076
48.1902 9.88672
48.2392 9.86676
48.288 9.81946
48.337 9.77464
48.3858 9.69799
48.4348 9.7034
48.4837 9.70487
48.5327 9.67558
48.5815 9.59914
48.6306 9.59062
48.6795 9.5409
48.7285 9.48488
48.7774 9.46008
48.8265 9.41102
48.8754 9.35965
48.9245 9.34544
48.9734 9.3197
49.0226 9.29301
49.0715 9.24247
49.1206 9.22942
49.1696 9.16273
49.2188 9.16566
49.2679 9.08903
49.3169 9.06448
49.3661 9.03432
49.4151 8.98414
49.4643 8.96816
49.5134 8.95662
49.5626 8.87191
49.6117 8.82656
49.6609 8.86171
49.71 8.77936
49.7592 8.78053
49.8083 8.70381
49.8576 8.68931
49.9067 8.66634
49.956 8.61705
50.0052 8.56958
50.0545 8.57785
50.1036 8.52142
50.153 8.48343
50.2022 8.48823
50.2515 8.42041
50.3007 8.40611
50.3501 8.38746
50.3993 8.33302
50.4487 8.30609
50.498 8.29762
50.5474 8.25027
50.5966 8.16589
50.6461 8.18288
50.6955 8.14785
50.7448 8.12276
50.7943 8.05859
50.8436 8.04926
50.8931 8.04438
50.9424 7.98774
50.9919 7.93819
51.0413 7.91313
51.0908 7.92708
51.1402 7.88165
51.1897 7.84643
51.2391 7.78161
51.2887 7.79089
51.3381 7.68526
51.3877 7.72298
51.4371 7.62519
51.4867 7.62566
51.5362 7.59777
51.5858 7.59173
51.6353 7.5188
51.6849 7.49702
51.7344 7.51323
51.7841 7.48059
51.8336 7.42553
51.8833 7.3845
51.9328 7.34425
51.9826 7.32624
52.0323 7.33181
52.0818 7.27363
52.1316 7.21161
52.1812 7.24938
52.231 7.18224
52.2806 7.12986
52.3304 7.12287
52.38 7.09112
52.4298 7.05902
52.4794 7.00674
52.5293 6.99608
52.5789 6.97633
52.6288 6.91661
52.6785 6.89698
52.7284 6.88021
52.7781 6.88034
52.828 6.87096
52.8777 6.8031
52.9276 6.79271
52.9774 6.72935
53.0273 6.72425
53.0771 6.68701
53.1271 6.65297
53.1769 6.60136
53.2269 6.60028
53.2767 6.58984
53.3267 6.52594
53.3765 6.50315
53.4266 6.50959
53.4766 6.43543
53.5265 6.4072
53.5765 6.40952
53.6264 6.36279
53.6765 6.33307
53.7264 6.32866
53.7765 6.28309
53.8265 6.27828
53.8766 6.27993
53.9266 6.20431
53.9767 6.1944
54.0267 6.17132
54.0769 6.11886
54.1269 6.04824
54.1771 6.06526
54.2271 6.04457
54.2773 5.98189
54.3274 5.96206
54.3776 5.96444
54.4277 5.92626
54.478 5.89237
54.528 5.83262
54.5783 5.80617
54.6285 5.75408
54.6788 5.71319
54.7289 5.6741
54.7792 5.63195
54.8296 5.59785
54.8798 5.57457
54.9301 5.51092
54.9803 5.49104
55.0307 5.51067
55.0809 5.38512
55.1314 5.39161
55.1816 5.31375
55.232 5.20791
55.2823 5.22353
55.3328 5.21291
55.383 5.16728
55.4335 5.08192
55.4838 5.05429
55.5344 5.02292
55.5847 4.95706
55.6352 4.95591
55.6856 4.92085
55.7361 4.89706