File: XRD/Ni3Fe_FD0997.xy
TT I
1.27165 7.27926
1.31627 6.347
1.36089 6.47349
1.40551 6.13177
1.45013 6.14374
1.49476 6.42346
1.53938 6.28667
1.584 5.67606
1.62863 5.36987
1.67325 4.98571
1.71787 5.14471
1.7625 5.15104
1.80712 4.6365
1.85174 5.07598
1.89636 4.9231
1.94099 4.85912
1.98562 5.23702
2.03025 4.17729
2.07487 4.83365
2.11949 5.06698
2.16411 4.87378
2.20874 15.8565
2.25338 27.1413
2.298 6.53398
2.34263 5.91195
2.38725 6.35443
2.43188 6.32349
2.4765 7.49696
2.52115 7.31353
2.56577 8.34799
2.6104 8.32967
2.65503 8.29048
2.69965 8.58075
2.7443 8.60038
2.78893 8.45149
2.83356 8.7246
2.87818 9.09511
2.92281 8.71309
2.96744 10.0997
3.01209 11.1529
3.05672 11.0147
3.10135 12.5266
3.14599 13.4619
3.19062 14.5995
3.23527 15.2522
3.2799 15.511
3.32454 17.0037
3.36917 18.1244
3.4138 19.1396
3.45844 19.9185
3.50309 20.8517
3.54773 21.9561
3.59237 24.3674
3.637 105.258
3.68164 66.6611
3.7263 26.5993
3.77094 26.6512
3.81558 26.8269
3.86022 27.6272
3.90486 29.0289
3.9495 29.8593
3.99416 30.3619
4.0388 31.72
4.08344 33.5299
4.12809 34.5288
4.17273 36.7515
4.21738 43.5683
4.26204 288.789
4.30669 257.65
4.35133 49.6471
4.39598 44.2836
4.44063 55.2123
4.4853 69.8968
4.52995 50.0233
4.5746 50.8022
4.61925 52.3366
4.6639 54.2139
4.70855 57.1031
4.75322 59.5728
4.79788 62.1617
4.84253 65.8946
4.88719 69.8792
4.93184 73.0245
4.97652 78.3896
5.02118 83.9819
5.06583 90.3438
5.11049 100.277
5.15515 171.133
5.19981 267.865
5.24449 2192.57
5.28916 13463.1
5.33382 2779.44
5.37848 173.509
5.42315 123.406
5.46783 110.472
5.5125 103.059
5.55716 99.2652
5.60183 96.1399
5.6465 94.2615
5.69117 92.1334
5.73586 89.5924
5.78053 89.2801
5.8252 87.9969
5.86988 88.5884
5.91455 89.8278
5.95924 94.79
6.00392 161.241
6.0486 748.3
6.09328 4537.48
6.13795 3264.89
6.18263 213.301
6.22733 89.4598
6.27201 81.2054
6.3167 105.452
6.36138 81.3232
6.40606 67.7488
6.45075 66.341
6.49545 64.1549
6.54014 62.4188
6.58483 61.7695
6.62952 62.0395
6.67421 99.1777
6.71892 160.488
6.76361 70.4546
6.8083 58.1423
6.853 56.8926
6.89769 56.5178
6.94239 55.8405
6.98711 55.2825
7.03181 55.5649
7.07651 54.8931
7.12121 54.6429
7.16591 54.6351
7.21063 55.0388
7.25533 72.1536
7.30004 202.036
7.34475 99.5148
7.38945 56.3195
7.43416 54.2656
7.47889 53.803
7.5236 53.9163
7.56831 54.883
7.61303 56.746
7.65774 57.1289
7.70247 55.5442
7.74719 55.1755
7.79191 55.6397
7.83663 56.1215
7.88135 56.7062
7.92607 57.5117
7.97081 58.8985
8.01553 59.9602
8.06026 61.058
8.10498 62.513
8.14971 73.3923
8.19446 72.4895
8.23919 67.9906
8.28392 70.3687
8.32865 72.3118
8.37339 76.4276
8.41812 83.274
8.46288 113.948
8.50761 138.783
8.55235 311.531
8.59709 1101.96
8.64183 2378.15
8.68658 956.318
8.73134 162.065
8.77609 96.8032
8.82083 90.4694
8.86558 87.1454
8.91033 88.2602
8.9551 91.3077
8.99985 84.1902
9.04461 82.0276
9.08936 80.9633
9.13412 80.1531
9.17888 80.6002
9.22365 81.3534
9.26841 80.1255
9.31318 80.5264
9.35794 80.6458
9.4027 81.0924
9.44749 82.0705
9.49226 82.7871
9.53703 83.2506
9.5818 85.2948
9.62657 90.5628
9.67134 98.5324
9.71614 92.075
9.76091 91.7512
9.80569 94.067
9.85047 97.9615
9.89525 124.516
9.94005 137.163
9.98484 150.783
10.0296 282.077
10.0744 726.249
10.1192 1772.41
10.164 1591.54
10.2088 372.836
10.2536 122.891
10.2984 111.604
10.3432 114.115
10.388 102.25
10.4328 108.875
10.4776 142.261
10.5224 261.614
10.5672 528.605
10.612 512.151
10.6568 197.484
10.7017 94.8065
10.7465 84.7079
10.7913 81.3744
10.8361 79.6927
10.8809 77.2306
10.9257 77.1647
10.9706 78.4189
11.0154 73.445
11.0602 71.3887
11.105 70.5689
11.1499 76.3126
11.1947 85.1799
11.2395 74.6678
11.2844 69.9531
11.3292 65.975
11.374 64.8042
11.4189 64.4445
11.4637 63.8493
11.5086 64.4604
11.5534 68.0619
11.5983 64.8005
11.6431 62.5271
11.688 61.6158
11.7328 61.7679
11.7777 61.8694
11.8225 61.2764
11.8674 61.089
11.9122 61.4983
11.9571 61.6904
12.002 62.1873
12.0468 64.534
12.0917 74.2981
12.1366 97.2275
12.1814 148.174
12.2263 206.436
12.2712 162.107
12.3161 95.1072
12.3609 70.1263
12.4058 63.6265
12.4507 62.9419
12.4956 63.1999
12.5405 63.1235
12.5853 64.5787
12.6302 73.6318
12.6751 80.2484
12.72 69.5468
12.7649 66.6257
12.8098 67.0026
12.8547 68.1502
12.8996 69.3803
12.9445 70.5003
12.9894 72.0523
13.0343 73.8728
13.0792 76.5582
13.1242 82.8492
13.1691 102.535
13.214 134.188
13.2589 222.248
13.3038 374.324
13.3487 437.727
13.3937 255.795
13.4386 121.208
13.4835 98.8196
13.5285 110.65
13.5734 144.735
13.6183 235.241
13.6633 354.203
13.7082 337.849
13.7531 179.808
13.7981 94.7319
13.843 80.0622
13.888 77.6699
13.9329 75.5362
13.9779 74.0498
14.0228 72.6139
14.0678 71.2971
14.1127 70.9896
14.1577 71.195
14.2027 70.097
14.2476 68.7315
14.2926 69.295
14.3376 70.7286
14.3825 69.1174
14.4275 67.4475
14.4725 67.1826
14.5175 67.4279
14.5624 67.661
14.6074 69.9177
14.6524 70.535
14.6974 68.7636
14.7424 69.6784
14.7874 74.4217
14.8324 82.9532
14.8774 102.599
14.9224 146.048
14.9674 210.046
15.0124 218.46
15.0574 150.142
15.1024 88.9872
15.1474 71.1273
15.1924 69.0585
15.2374 70.1562
15.2824 69.4184
15.3274 66.8142
15.3725 65.3711
15.4175 65.0625
15.4625 64.6702
15.5076 65.0731
15.5526 64.8284
15.5976 64.0683
15.6426 64.7598
15.6877 68.3798
15.7327 74.4242
15.7778 88.3154
15.8228 118.809
15.8679 170.253
15.9129 196.179
15.958 153.671
16.003 94.2724
16.0481 67.1663
16.0931 63.8477
16.1382 61.9323
16.1833 59.4585
16.2283 57.9197
16.2734 57.319
16.3185 57.6029
16.3636 58.8892
16.4086 56.9593
16.4537 55.4062
16.4988 54.6525
16.5439 54.4427
16.589 53.9774
16.6341 53.8672
16.6792 53.3667
16.7243 53.7881
16.7694 54.0596
16.8145 53.7982
16.8596 54.122
16.9047 55.8523
16.9498 56.2909
16.9949 54.7438
17.04 54.4214
17.0851 55.369
17.1302 56.649
17.1754 59.6361
17.2205 64.4712
17.2656 72.7468
17.3108 81.9526
17.3559 80.5657
17.401 69.0213
17.4462 60.5516
17.4913 57.9972
17.5365 57.7081
17.5815 57.7771
17.6268 58.3161
17.6718 59.0775
17.7171 59.6071
17.7622 59.905
17.8074 60.3482
17.8525 61.9511
17.8977 65.2291
17.9428 70.0342
17.9881 78.1825
18.0331 95.669
18.0784 119.985
18.1237 139.016
18.1688 127.624
18.214 99.9313
18.2591 83.2478
18.3044 88.015
18.3495 99.4556
18.3948 106.593
18.4399 94.3242
18.4852 75.7254
18.5303 64.684
18.5756 60.8569
18.6207 59.9742
18.666 59.1553
18.7112 58.3519
18.7565 57.8256
18.8016 57.3381
18.8469 56.7715
18.892 56.4184
18.9374 56.2268
18.9825 55.9171
19.0278 55.7424
19.073 55.642
19.1183 55.9083
19.1635 56.7865
19.2088 57.9018
19.254 60.2418
19.2993 65.0754
19.3447 71.613
19.3898 75.4462
19.4352 70.7168
19.4804 61.5364
19.5257 55.124
19.5709 53.1345
19.6163 52.6159
19.6615 52.5323
19.7068 52.2694
19.752 52.2099
19.7974 52.5251
19.8426 53.0448
19.888 53.724
19.9332 54.6284
19.9786 57.1181
20.0238 61.0058
20.0692 66.2066
20.1144 69.1908
20.1598 66.4363
20.205 61.7882
20.2504 60.6451
20.2957 63.1277
20.3411 65.0047
20.3863 63.1406
20.4318 57.1443
20.477 52.5641
20.5224 50.6204
20.5677 50.0964
20.6131 49.3098
20.6586 48.6386
20.7038 48.5319
20.7493 48.2136
20.7945 47.9948
20.84 47.754
20.8853 47.743
20.9307 47.5271
20.976 47.6767
21.0215 47.5511
21.0668 47.9072
21.1122 48.3996
21.1575 49.0545
21.203 49.9742
21.2483 50.5329
21.2938 50.2296
21.3391 48.884
21.3846 47.8375
21.4299 47.2563
21.4754 47.3275
21.5207 47.6074
21.5662 47.6618
21.6116 47.85
21.6571 48.4336
21.7024 49.5378
21.7479 50.9615
21.7933 53.8363
21.8388 57.6506
21.8843 61.9592
21.9297 63.5847
21.9752 61.8042
22.0206 58.0549
22.0661 55.5333
22.1115 55.3739
22.157 55.115
22.2024 53.0987
22.248 50.2708
22.2933 48.9703
22.3389 48.0791
22.3843 48.2642
22.4299 47.942
22.4753 47.9348
22.5208 47.7033
22.5662 47.4378
22.6118 47.6016
22.6572 47.5981
22.7028 47.9504
22.7483 48.4931
22.7939 49.0498
22.8393 50.4432
22.8849 52.7996
22.9303 55.3237
22.9759 57.1901
23.0214 56.5087
23.067 53.4656
23.1126 50.031
23.1581 48.3326
23.2037 47.7458
23.2492 47.9136
23.2948 47.5783
23.3403 47.9419
23.3859 48.4071
23.4314 49.4445
23.477 51.2728
23.5225 53.8799
23.5682 56.3473
23.6137 57.1081
23.6593 54.6902
23.7048 50.3965
23.7505 47.3762
23.796 45.7224
23.8417 45.1571
23.8872 44.6242
23.9329 44.2562
23.9784 43.9483
24.0241 43.94
24.0697 43.6063
24.1154 43.2809
24.1609 43.1151
24.2066 42.8853
24.2522 42.8766
24.2979 42.7177
24.3434 42.448
24.3892 42.3071
24.4349 42.3507
24.4805 42.2139
24.5262 42.3005
24.5718 42.2695
24.6175 42.0689
24.6631 41.897
24.7089 41.8192
24.7545 41.5662
24.8002 41.2947
24.8458 41.3164
24.8916 41.1643
24.9372 41.3079
24.983 41.5043
25.0286 41.7791
25.0744 42.448
25.12 42.9135
25.1658 43.399
25.2114 43.76
25.2572 43.7649
25.3029 43.9711
25.3487 44.2881
25.3943 43.7951
25.4402 42.6551
25.4858 41.7808
25.5316 40.7849
25.5773 40.1279
25.6231 40.0959
25.669 39.764
25.7147 39.6405
25.7605 39.6953
25.8062 39.7147
25.8521 39.8517
25.8977 39.8617
25.9436 40.0037
25.9893 40.0744
26.0352 40.6931
26.0809 40.7491
26.1268 41.0065
26.1725 40.4518
26.2184 39.9501
26.2641 39.4248
26.31 39.3558
26.3557 39.2496
26.4017 39.1126
26.4474 39.6124
26.4933 39.8305
26.5391 40.3532
26.585 40.9096
26.6308 41.2972
26.6767 41.4399
26.7225 41.1285
26.7684 40.5902
26.8142 40.0729
26.8601 39.5369
26.9059 39.4807
26.9519 38.6917
26.9979 38.3732
27.0437 37.9803
27.0896 38.0073
27.1354 37.9787
27.1814 37.9144
27.2272 37.5463
27.2732 37.7306
27.3191 37.6037
27.3651 37.6244
27.4109 37.6621
27.4569 37.6986
27.5027 37.7991
27.5488 37.737
27.5946 37.678
27.6407 37.3907
27.6865 37.2677
27.7326 37.1738
27.7784 36.9909
27.8245 37.0664
27.8703 37.179
27.9164 37.4368
27.9623 37.6378
28.0084 38.017
28.0543 38.4001
28.1003 38.3164
28.1462 38.0998
28.1923 37.809
28.2384 37.2303
28.2843 37.0027
28.3304 36.5199
28.3764 36.0207
28.4225 35.5828
28.4684 35.5741
28.5145 35.3233
28.5605 35.1975
28.6066 34.987
28.6526 34.9487
28.6987 34.9423
28.7447 34.8329
28.7908 34.8363
28.8368 34.7892
28.8829 34.8527
28.9289 34.7014
28.9751 34.4878
29.0211 34.3288
29.0673 33.892
29.1133 33.8885
29.1595 33.7895
29.2055 33.6471
29.2517 33.6638
29.2977 33.6055
29.3439 33.6432
29.3899 33.5489
29.4361 33.5036
29.4824 33.383
29.5284 33.2068
29.5746 32.8517
29.6207 32.5469
29.6669 32.3966
29.713 32.2999
29.7593 32.1627
29.8053 32.4708
29.8516 32.1331
29.8977 32.116
29.9439 32.0853
29.99 31.9539
30.0363 31.7984
30.0824 31.8312
30.1287 31.8
30.1748 31.7477
30.2211 31.8188
30.2673 31.6896
30.3136 31.6901
30.3597 31.7345
30.406 31.5278
30.4522 31.4415
30.4985 31.4615
30.5447 31.5283
30.591 31.612
30.6372 31.5367
30.6835 31.598
30.7297 31.6909
30.7761 31.6402
30.8224 31.3546
30.8686 31.1636
30.915 30.9099
30.9612 30.8703
31.0076 30.548
31.0538 30.4631
31.1002 30.5106
31.1464 30.3274
31.1928 30.3193
31.2391 30.4288
31.2855 30.2727
31.3317 30.2909
31.3781 30.2825
31.4244 30.3551
31.4708 30.2809
31.5171 30.2707
31.5636 30.2211
31.6098 29.809
31.6563 29.826
31.7026 29.6702
31.7491 29.5027
31.7953 29.5597
31.8418 29.5806
31.8881 29.5937
31.9346 29.4617
31.9809 29.4667
32.0275 29.3224
32.074 29.1616
32.1203 29.048
32.1668 28.9339
32.2132 28.8559
32.2597 28.7049
32.306 28.7052
32.3526 28.4373
32.399 28.4833
32.4455 28.279
32.4919 28.1995
32.5385 28.0749
32.5848 28.0059
32.6314 27.9423
32.6778 27.8672
32.7244 27.6933
32.7708 27.5774
32.8174 27.6042
32.8638 27.4758
32.9104 27.6035
32.9569 27.4095
33.0035 27.2891
33.0499 27.2747
33.0966 27.3359
33.143 27.2535
33.1897 27.2298
33.2361 27.0902
33.2828 27.0534
33.3293 26.8586
33.3759 26.901
33.4226 26.7231
33.4691 26.5568
33.5158 26.5011
33.5623 26.3979
33.609 26.2741
33.6555 26.2067
33.7022 26.1041
33.7487 26.0233
33.7954 25.9345
33.842 25.9098
33.8887 25.8407
33.9353 25.7462
33.982 25.6119
34.0286 25.5722
34.0753 25.5078
34.1219 25.4671
34.1687 25.3062
34.2152 25.3449
34.262 25.2023
34.3086 25.0361
34.3554 25.0342
34.402 24.8715
34.4488 24.8064
34.4954 24.7689
34.5422 24.685
34.5889 24.6119
34.6357 24.5243
34.6825 24.5103
34.7292 24.2956
34.776 24.2908
34.8227 24.2586
34.8695 24.1459
34.9162 24.1073
34.9631 24.0654
35.0098 24.0383
35.0566 23.9471
35.1033 23.8741
35.1502 23.7959
35.1969 23.8179
35.2438 23.7046
35.2906 23.5956
35.3375 23.5874
35.3842 23.524
35.4311 23.5978
35.4779 23.4944
35.5248 23.4576
35.5716 23.2863
35.6185 23.2715
35.6653 23.1379
35.7123 23.0603
35.759 23.0767
35.806 22.9074
35.8528 22.8749
35.8998 22.7948
35.9468 22.6542
35.9936 22.7164
36.0406 22.585
36.0874 22.5244
36.1345 22.4935
36.1813 22.3274
36.2283 22.3082
36.2752 22.1688
36.3222 22.1734
36.3691 22.1398
36.4161 22.035
36.463 22.0478
36.5101 21.9574
36.557 21.9372
36.6041 21.8325
36.651 21.8463
36.6981 21.7601
36.745 21.6257
36.7921 21.5792
36.839 21.4192
36.8861 21.446
36.9331 21.3161
36.9802 21.2514
37.0272 21.157
37.0743 21.1169
37.1213 21.0516
37.1684 20.987
37.2154 20.9322
37.2626 20.8244
37.3098 20.803
37.3568 20.788
37.404 20.7611
37.451 20.6133
37.4982 20.5285
37.5452 20.4652
37.5924 20.4244
37.6395 20.4601
37.6867 20.2822
37.7337 20.1934
37.781 20.115
37.8281 20.1689
37.8753 19.9836
37.9224 19.8826
37.9697 19.8628
38.0168 19.866
38.064 19.7301
38.1111 19.7269
38.1584 19.6008
38.2056 19.6063
38.2529 19.5253
38.3 19.4963
38.3473 19.5206
38.3945 19.3268
38.4418 19.3571
38.489 19.2829
38.5363 19.17
38.5837 19.1052
38.6309 18.9968
38.6782 19.0047
38.7254 18.9598
38.7728 18.8316
38.82 18.7619
38.8674 18.7231
38.9146 18.7012
38.9621 18.5968
39.0093 18.5635
39.0567 18.4486
39.104 18.4071
39.1514 18.3276
39.1987 18.3562
39.2461 18.3275
39.2934 18.2508
39.3409 18.1046
39.3882 18.0227
39.4356 18.0347
39.483 17.9353
39.5304 17.8814
39.5778 17.9007
39.6253 17.787
39.6726 17.7927
39.7201 17.7556
39.7675 17.6704
39.815 17.6503
39.8624 17.5009
39.9099 17.5079
39.9575 17.4043
40.0049 17.3798
40.0525 17.3353
40.0999 17.2562
40.1474 17.1623
40.1949 17.1153
40.2425 17.0672
40.2899 17.0016
40.3375 16.9828
40.385 16.9455
40.4326 16.9009
40.48 16.7902
40.5277 16.8074
40.5752 16.7213
40.6228 16.6442
40.6703 16.5968
40.718 16.6034
40.7655 16.5323
40.8132 16.4401
40.8607 16.4468
40.9084 16.3898
40.9559 16.3099
41.0036 16.276
41.0512 16.1465
41.0989 16.1849
41.1465 16.1054
41.1942 16.0487
41.242 15.9392
41.2896 15.9322
41.3373 15.8791
41.3849 15.8283
41.4327 15.7774
41.4803 15.673
41.5281 15.6815
41.5758 15.593
41.6236 15.5238
41.6712 15.5165
41.7191 15.4352
41.7667 15.4309
41.8146 15.3262
41.8622 15.3206
41.9101 15.2505
41.9578 15.2022
42.0057 15.1439
42.0534 15.1547
42.1013 15.0742
42.149 14.9747
42.1969 14.9248
42.2446 14.8948
42.2925 14.8364
42.3403 14.7793
42.3882 14.7622
42.436 14.6797
42.4839 14.6371
42.5319 14.6119
42.5797 14.5413
42.6277 14.4876
42.6755 14.4643
42.7235 14.4016
42.7713 14.3861
42.8193 14.2598
42.8671 14.237
42.9152 14.1969
42.963 14.1999
43.0111 14.1054
43.0589 14.1018
43.107 13.9938
43.1549 13.9339
43.2029 13.9084
43.2508 13.8518
43.2989 13.8047
43.3468 13.7368
43.3949 13.7243
43.4429 13.6924
43.491 13.6335
43.5389 13.5642
43.5871 13.5755
43.635 13.5155
43.6832 13.4342
43.7312 13.3585
43.7793 13.3504
43.8273 13.3622
43.8755 13.2668
43.9237 13.2392
43.9717 13.1645
44.0199 13.1271
44.068 13.1059
44.1162 13.0495
44.1642 13.0021
44.2125 12.9499
44.2606 12.9253
44.3088 12.8751
44.3569 12.8156
44.4052 12.7679
44.4533 12.7253
44.5016 12.6874
44.5497 12.6429
44.598 12.6245
44.6461 12.5545
44.6945 12.542
44.7426 12.4243
44.791 12.4173
44.8391 12.3937
44.8875 12.3104
44.9357 12.2811
44.984 12.2501
45.0322 12.2022
45.0806 12.1633
45.1288 12.0697
45.1773 12.0795
45.2257 12.0336
45.2739 11.9682
45.3224 11.9969
45.3706 11.9489
45.4191 11.8791
45.4673 11.8247
45.5158 11.7899
45.5641 11.7044
45.6126 11.6761
45.6609 11.6325
45.7094 11.6129
45.7577 11.5766
45.8063 11.5048
45.8546 11.4994
45.9031 11.4354
45.9515 11.4443
46.0001 11.3792
46.0484 11.3094
46.097 11.2664
46.1454 11.2139
46.194 11.2067
46.2424 11.1439
46.291 11.1126
46.3395 11.0868
46.3881 11.0303
46.4365 10.9728
46.4852 10.9797
46.5337 10.9004
46.5823 10.9075
46.631 10.8587
46.6795 10.8063
46.7282 10.7544
46.7767 10.735
46.8254 10.6849
46.8739 10.6214
46.9226 10.6198
46.9712 10.582
47.0199 10.5641
47.0685 10.5193
47.1173 10.4362
47.1658 10.4258
47.2146 10.3692
47.2632 10.3204
47.312 10.3034
47.3606 10.234
47.4095 10.2196
47.4581 10.1642
47.5069 10.1325
47.5556 10.095
47.6044 10.0509
47.6531 10.0398
47.702 9.99041
47.7507 10.0035
47.7996 9.92782
47.8483 9.87724
47.8972 9.90993
47.9461 9.82388
47.9948 9.8145
48.0438 9.79872
48.0925 9.70216
48.1415 9.66571
48.1902 9.6406
48.2392 9.62634
48.288 9.61652
48.337 9.52751
48.3858 9.47508
48.4348 9.46043
48.4837 9.46527
48.5327 9.41524
48.5815 9.37906
48.6306 9.30633
48.6795 9.28405
48.7285 9.27088
48.7774 9.24022
48.8265 9.16462
48.8754 9.17953
48.9245 9.15602
48.9734 9.06969
49.0226 9.0886
49.0715 9.01041
49.1206 8.9875
49.1696 8.96387
49.2188 8.86318
49.2679 8.87736
49.3169 8.83578
49.3661 8.79516
49.4151 8.76613
49.4643 8.75428
49.5134 8.71273
49.5626 8.67037
49.6117 8.68189
49.6609 8.60433
49.71 8.56065
49.7592 8.56118
49.8083 8.49011
49.8576 8.4566
49.9067 8.43219
49.956 8.41463
50.0052 8.36365
50.0545 8.31981
50.1036 8.32609
50.153 8.26553
50.2022 8.28782
50.2515 8.21506
50.3007 8.1785
50.3501 8.15745
50.3993 8.16372
50.4487 8.0759
50.498 8.09598
50.5474 8.06458
50.5966 7.99882
50.6461 7.95414
50.6955 7.93495
50.7448 7.93359
50.7943 7.89451
50.8436 7.8632
50.8931 7.81981
50.9424 7.818
50.9919 7.80356
51.0413 7.72758
51.0908 7.69871
51.1402 7.71243
51.1897 7.62802
51.2391 7.58887
51.2887 7.57952
51.3381 7.52706
51.3877 7.52254
51.4371 7.52299
51.4867 7.45322
51.5362 7.42245
51.5858 7.35971
51.6353 7.37668
51.6849 7.34363
51.7344 7.32064
51.7841 7.31517
51.8336 7.25936
51.8833 7.24851
51.9328 7.14556
51.9826 7.16195
52.0323 7.12104
52.0818 7.09674
52.1316 7.03919
52.1812 7.06488
52.231 7.0147
52.2806 6.9632
52.3304 6.96226
52.38 6.92341
52.4298 6.92606
52.4794 6.888
52.5293 6.84262
52.5789 6.78774
52.6288 6.77588
52.6785 6.73054
52.7284 6.75116
52.7781 6.6839
52.828 6.68185
52.8777 6.57903
52.9276 6.61745
52.9774 6.57299
53.0273 6.5427
53.0771 6.55243
53.1271 6.5216
53.1769 6.4874
53.2269 6.4383
53.2767 6.4315
53.3267 6.38884
53.3765 6.36226
53.4266 6.33254
53.4766 6.32171
53.5265 6.30958
53.5765 6.22214
53.6264 6.21781
53.6765 6.18411
53.7264 6.20796
53.7765 6.16659
53.8265 6.12109
53.8766 6.11602
53.9266 6.06883
53.9767 6.02341
54.0267 6.05718
54.0769 6.01938
54.1269 5.94103
54.1771 5.91494
54.2271 5.88752
54.2773 5.8595
54.3274 5.85215
54.3776 5.83207
54.4277 5.77363
54.478 5.76091
54.528 5.71025
54.5783 5.69023
54.6285 5.63044
54.6788 5.60686
54.7289 5.55362
54.7792 5.50199
54.8296 5.46235
54.8798 5.39998
54.9301 5.36834
54.9803 5.39137
55.0307 5.33478
55.0809 5.26608
55.1314 5.29344
55.1816 5.20296
55.232 5.13239
55.2823 5.14296
55.3328 5.07275
55.383 5.04656
55.4335 4.94756
55.4838 4.93978
55.5344 4.85324
55.5847 4.84302
55.6352 4.80206
55.6856 4.74039
55.7361 4.74152