File: XRD/Ni3Fe_FD0612.xy
TT I
1.27165 7.45626
1.31627 6.42931
1.36089 6.8406
1.40551 6.75329
1.45013 6.78195
1.49476 6.02451
1.53938 5.66593
1.584 5.50667
1.62863 5.42769
1.67325 5.23366
1.71787 5.57779
1.7625 4.97477
1.80712 5.49141
1.85174 4.49927
1.89636 4.95491
1.94099 4.51925
1.98562 4.84142
2.03025 4.73545
2.07487 4.14326
2.11949 5.3138
2.16411 5.0293
2.20874 13.2893
2.25338 19.7451
2.298 6.06436
2.34263 6.04418
2.38725 5.93482
2.43188 6.2898
2.4765 7.37316
2.52115 6.45267
2.56577 7.65439
2.6104 8.21938
2.65503 8.04983
2.69965 7.7809
2.7443 8.487
2.78893 8.04
2.83356 8.5749
2.87818 8.98022
2.92281 9.32678
2.96744 9.46498
3.01209 10.1466
3.05672 11.168
3.10135 12.3329
3.14599 13.3725
3.19062 14.602
3.23527 14.8216
3.2799 15.4846
3.32454 16.9921
3.36917 17.6129
3.4138 18.8512
3.45844 19.5971
3.50309 20.9809
3.54773 22.0506
3.59237 23.8775
3.637 83.9622
3.68164 54.1083
3.7263 26.4121
3.77094 26.4216
3.81558 26.819
3.86022 27.3111
3.90486 29.5056
3.9495 29.6376
3.99416 30.8067
4.0388 32.1604
4.08344 33.8712
4.12809 34.8962
4.17273 36.9855
4.21738 42.5757
4.26204 221.175
4.30669 190.001
4.35133 48.1
4.39598 44.2249
4.44063 53.7037
4.4853 63.3078
4.52995 50.3425
4.5746 51.3617
4.61925 53.5869
4.6639 55.5264
4.70855 58.566
4.75322 61.2185
4.79788 64.2001
4.84253 67.654
4.88719 71.617
4.93184 75.5533
4.97652 81.3239
5.02118 87.6486
5.06583 94.8227
5.11049 107.071
5.15515 168.466
5.19981 363.562
5.24449 2945.94
5.28916 12499.5
5.33382 3014.36
5.37848 195.28
5.42315 130.7
5.46783 114.464
5.5125 106.616
5.55716 103.196
5.60183 98.8996
5.6465 96.9206
5.69117 94.8737
5.73586 92.8777
5.78053 92.5397
5.8252 92.017
5.86988 92.7137
5.91455 95.0135
5.95924 102.867
6.00392 212.024
6.0486 997.659
6.09328 4343.12
6.13795 3499.29
6.18263 258.257
6.22733 94.678
6.27201 84.0816
6.3167 99.1391
6.36138 79.5754
6.40606 69.1312
6.45075 67.5245
6.49545 65.7929
6.54014 64.4824
6.58483 62.9883
6.62952 63.0505
6.67421 90.742
6.71892 133.02
6.76361 67.2215
6.8083 58.6633
6.853 57.6412
6.89769 57.2316
6.94239 56.3304
6.98711 55.7584
7.03181 55.6581
7.07651 55.7464
7.12121 55.3262
7.16591 54.933
7.21063 55.5753
7.25533 69.4005
7.30004 163.067
7.34475 86.8997
7.38945 56.4988
7.43416 54.8346
7.47889 54.9607
7.5236 55.2238
7.56831 55.3991
7.61303 57.0618
7.65774 57.4611
7.70247 56.3956
7.74719 56.1941
7.79191 57.0331
7.83663 57.1685
7.88135 58.1733
7.92607 59.0207
7.97081 60.0956
8.01553 61.1009
8.06026 62.1107
8.10498 63.9601
8.14971 72.4618
8.19446 72.0296
8.23919 70.0522
8.28392 72.3577
8.32865 74.2484
8.37339 78.9252
8.41812 85.4516
8.46288 111.88
8.50761 165.471
8.55235 396.038
8.59709 1210.34
8.64183 2192.19
8.68658 1012.92
8.73134 184.212
8.77609 100.942
8.82083 93.3918
8.86558 90.3309
8.91033 90.0998
8.9551 91.2518
8.99985 85.4708
9.04461 84.3005
9.08936 82.933
9.13412 82.5443
9.17888 82.5786
9.22365 83.2987
9.26841 82.4089
9.31318 83.2919
9.35794 83.1348
9.4027 83.3208
9.44749 84.4531
9.49226 85.2166
9.53703 85.9069
9.5818 87.6072
9.62657 92.1372
9.67134 97.9101
9.71614 93.758
9.76091 94.3527
9.80569 96.9953
9.85047 99.9936
9.89525 122.139
9.94005 133.826
9.98484 178.909
10.0296 347.373
10.0744 835.202
10.1192 1694.7
10.164 1564.05
10.2088 418.574
10.2536 129.148
10.2984 113.425
10.3432 114.365
10.388 105.307
10.4328 119.282
10.4776 162.958
10.5224 289.735
10.5672 510.193
10.612 492.538
10.6568 205.674
10.7017 97.4254
10.7465 87.2789
10.7913 83.5404
10.8361 81.3426
10.8809 79.7559
10.9257 78.8296
10.9706 79.0561
11.0154 75.1083
11.0602 73.2659
11.105 72.2157
11.1499 75.8506
11.1947 81.628
11.2395 73.9749
11.2844 70.4592
11.3292 67.3771
11.374 66.3506
11.4189 65.9847
11.4637 65.4169
11.5086 65.577
11.5534 68.1665
11.5983 65.3518
11.6431 63.8291
11.688 63.1483
11.7328 63.0317
11.7777 63.1998
11.8225 62.9271
11.8674 62.6462
11.9122 62.9907
11.9571 63.1802
12.002 63.9397
12.0468 68.0361
12.0917 79.8774
12.1366 104.129
12.1814 153.639
12.2263 200.462
12.2712 167.057
12.3161 97.1237
12.3609 70.5609
12.4058 65.0665
12.4507 64.7949
12.4956 64.734
12.5405 64.7601
12.5853 65.9885
12.6302 72.537
12.6751 77.2344
12.72 69.9396
12.7649 68.1319
12.8098 68.568
12.8547 69.8255
12.8996 71.092
12.9445 72.6575
12.9894 74.5581
13.0343 76.3288
13.0792 79.2196
13.1242 88.5587
13.1691 112.533
13.214 151.177
13.2589 243.616
13.3038 369.076
13.3487 420.529
13.3937 271.497
13.4386 128.774
13.4835 106.629
13.5285 121.702
13.5734 161.505
13.6183 250.405
13.6633 344.844
13.7082 338.644
13.7531 192.953
13.7981 100.076
13.843 82.5502
13.888 80.2459
13.9329 77.712
13.9779 76.5058
14.0228 74.6621
14.0678 73.3607
14.1127 73.0254
14.1577 72.7569
14.2027 72.1992
14.2476 70.7574
14.2926 70.8812
14.3376 71.7719
14.3825 70.5847
14.4275 69.1772
14.4725 69.0469
14.5175 69.4789
14.5624 69.5145
14.6074 71.4201
14.6524 71.7389
14.6974 70.8558
14.7424 72.1873
14.7874 79.0572
14.8324 89.6952
14.8774 112.654
14.9224 156.068
14.9674 204.928
15.0124 213.551
15.0574 152.551
15.1024 93.6794
15.1474 73.1133
15.1924 70.9885
15.2374 71.327
15.2824 70.4971
15.3274 68.447
15.3725 67.3359
15.4175 66.9653
15.4625 66.7044
15.5076 66.5828
15.5526 66.6353
15.5976 66.0686
15.6426 66.9238
15.6877 72.5834
15.7327 80.6728
15.7778 96.3022
15.8228 128.105
15.8679 169.275
15.9129 190.743
15.958 156.008
16.003 98.7191
16.0481 68.9684
16.0931 64.9217
16.1382 63.1212
16.1833 60.9755
16.2283 59.2998
16.2734 58.6915
16.3185 58.9998
16.3636 59.4646
16.4086 57.7947
16.4537 56.488
16.4988 55.8972
16.5439 55.6938
16.589 55.3854
16.6341 55.5177
16.6792 54.7929
16.7243 55.0302
16.7694 55.1561
16.8145 55.2108
16.8596 55.5195
16.9047 56.7403
16.9498 56.9799
16.9949 55.9221
17.04 56.1456
17.0851 57.4624
17.1302 58.9246
17.1754 62.3624
17.2205 67.4531
17.2656 74.8813
17.3108 82.2286
17.3559 82.34
17.401 72.6321
17.4462 63.1533
17.4913 59.4909
17.5365 59.3606
17.5815 59.7423
17.6268 59.9317
17.6718 60.8057
17.7171 61.1871
17.7622 61.8091
17.8074 62.2225
17.8525 64.5337
17.8977 68.7624
17.9428 74.508
17.9881 83.3851
18.0331 100.979
18.0784 122.248
18.1237 138.474
18.1688 132.38
18.214 106.073
18.2591 88.477
18.3044 91.7085
18.3495 100.367
18.3948 105.382
18.4399 97.3202
18.4852 79.0946
18.5303 66.8618
18.5756 62.5987
18.6207 61.7343
18.666 60.729
18.7112 60.0411
18.7565 59.4394
18.8016 59.0067
18.8469 58.396
18.892 57.9852
18.9374 57.5211
18.9825 57.3155
19.0278 57.3239
19.073 57.2942
19.1183 57.7602
19.1635 58.4329
19.2088 59.9493
19.254 62.5274
19.2993 67.0834
19.3447 73.1457
19.3898 76.0024
19.4352 72.4937
19.4804 64.4548
19.5257 57.5331
19.5709 54.5932
19.6163 53.9272
19.6615 54.0811
19.7068 53.7251
19.752 53.5799
19.7974 53.7049
19.8426 54.7583
19.888 55.2832
19.9332 56.3793
19.9786 59.2397
20.0238 62.8623
20.0692 67.4415
20.1144 69.5832
20.1598 68.3151
20.205 64.2274
20.2504 62.9202
20.2957 64.2263
20.3411 65.4577
20.3863 64.3932
20.4318 59.2029
20.477 54.2643
20.5224 51.9707
20.5677 51.2449
20.6131 50.5559
20.6586 50.106
20.7038 49.8891
20.7493 49.4501
20.7945 49.2288
20.84 49.0848
20.8853 48.9152
20.9307 48.7175
20.976 48.9887
21.0215 48.9857
21.0668 49.3223
21.1122 49.7741
21.1575 50.3998
21.203 50.9679
21.2483 51.4258
21.2938 51.5971
21.3391 50.2763
21.3846 49.2388
21.4299 48.8372
21.4754 48.8631
21.5207 48.8262
21.5662 49.0058
21.6116 49.663
21.6571 50.1732
21.7024 51.2197
21.7479 52.9621
21.7933 55.8473
21.8388 59.2253
21.8843 62.6691
21.9297 64.1523
21.9752 63.4393
22.0206 60.1392
22.0661 57.1151
22.1115 56.5617
22.157 56.0844
22.2024 54.4977
22.248 51.8005
22.2933 50.2161
22.3389 49.3373
22.3843 49.2942
22.4299 49.0441
22.4753 49.1439
22.5208 48.9178
22.5662 48.5754
22.6118 48.9761
22.6572 49.222
22.7028 49.5675
22.7483 49.9203
22.7939 50.7997
22.8393 52.1871
22.8849 54.3897
22.9303 56.4032
22.9759 57.6634
23.0214 57.5535
23.067 55.0039
23.1126 51.6904
23.1581 49.5129
23.2037 49.0731
23.2492 48.8459
23.2948 49.0714
23.3403 49.4134
23.3859 50.1862
23.4314 51.1804
23.477 53.106
23.5225 55.0101
23.5682 57.0497
23.6137 57.8503
23.6593 55.7675
23.7048 52.1388
23.7505 48.8518
23.796 46.904
23.8417 46.3562
23.8872 45.8677
23.9329 45.5514
23.9784 45.1826
24.0241 44.9339
24.0697 44.746
24.1154 44.3063
24.1609 44.2852
24.2066 43.9783
24.2522 44.0361
24.2979 43.6439
24.3434 43.5738
24.3892 43.5262
24.4349 43.4391
24.4805 43.2343
24.5262 43.4446
24.5718 43.15
24.6175 43.0242
24.6631 43.0789
24.7089 42.7877
24.7545 42.6066
24.8002 42.448
24.8458 42.3848
24.8916 42.4321
24.9372 42.4246
24.983 42.7781
25.0286 42.9865
25.0744 43.6252
25.12 43.9321
25.1658 44.6004
25.2114 44.8897
25.2572 45.1153
25.3029 45.1107
25.3487 45.1272
25.3943 44.7424
25.4402 43.7526
25.4858 42.8744
25.5316 41.8032
25.5773 41.1464
25.6231 41.3678
25.669 40.7029
25.7147 40.7093
25.7605 40.6455
25.8062 40.7052
25.8521 40.8092
25.8977 40.8241
25.9436 41.0265
25.9893 41.1298
26.0352 41.6862
26.0809 41.7281
26.1268 41.9199
26.1725 41.5032
26.2184 41.0273
26.2641 40.5087
26.31 40.2988
26.3557 40.4069
26.4017 40.2947
26.4474 40.6202
26.4933 40.898
26.5391 41.3378
26.585 41.9947
26.6308 42.3166
26.6767 42.2398
26.7225 42.2818
26.7684 41.7239
26.8142 41.0748
26.8601 40.7434
26.9059 40.2934
26.9519 39.8288
26.9979 39.3717
27.0437 39.1719
27.0896 38.9632
27.1354 38.9578
27.1814 38.6843
27.2272 38.7734
27.2732 38.7825
27.3191 38.6884
27.3651 38.6605
27.4109 38.6038
27.4569 38.7688
27.5027 38.7084
27.5488 38.7297
27.5946 38.6752
27.6407 38.5295
27.6865 38.3588
27.7326 38.0558
27.7784 38.0598
27.8245 38.1257
27.8703 38.2843
27.9164 38.5817
27.9623 38.6736
28.0084 38.949
28.0543 39.2739
28.1003 39.264
28.1462 39.02
28.1923 38.7251
28.2384 38.0846
28.2843 37.8744
28.3304 37.4062
28.3764 36.9423
28.4225 36.7358
28.4684 36.427
28.5145 36.0888
28.5605 36.0884
28.6066 35.9142
28.6526 35.8605
28.6987 35.9168
28.7447 35.7484
28.7908 35.694
28.8368 35.6236
28.8829 35.5657
28.9289 35.5072
28.9751 35.2947
29.0211 35.1366
29.0673 34.8966
29.1133 34.799
29.1595 34.5652
29.2055 34.4817
29.2517 34.5399
29.2977 34.4555
29.3439 34.5873
29.3899 34.4152
29.4361 34.283
29.4824 34.2189
29.5284 33.9589
29.5746 33.5948
29.6207 33.3633
29.6669 33.3321
29.713 33.1664
29.7593 33.0616
29.8053 33.0234
29.8516 32.9619
29.8977 32.9212
29.9439 32.7478
29.99 32.7644
30.0363 32.6047
30.0824 32.7118
30.1287 32.6009
30.1748 32.619
30.2211 32.6547
30.2673 32.4161
30.3136 32.539
30.3597 32.4905
30.406 32.3729
30.4522 32.3542
30.4985 32.2489
30.5447 32.2877
30.591 32.2784
30.6372 32.3973
30.6835 32.3802
30.7297 32.4575
30.7761 32.2762
30.8224 32.2113
30.8686 32.0
30.915 31.8976
30.9612 31.7459
31.0076 31.6316
31.0538 31.3726
31.1002 31.3707
31.1464 31.2177
31.1928 31.095
31.2391 31.1141
31.2855 31.078
31.3317 31.0624
31.3781 31.1042
31.4244 31.0306
31.4708 31.0506
31.5171 31.0053
31.5636 30.9062
31.6098 30.7031
31.6563 30.5489
31.7026 30.4111
31.7491 30.2994
31.7953 30.4076
31.8418 30.3517
31.8881 30.3969
31.9346 30.3311
31.9809 30.0834
32.0275 30.165
32.074 30.003
32.1203 29.777
32.1668 29.6098
32.2132 29.5747
32.2597 29.3957
32.306 29.378
32.3526 29.2182
32.399 29.1683
32.4455 28.9569
32.4919 28.8435
32.5385 28.8191
32.5848 28.6509
32.6314 28.6049
32.6778 28.6178
32.7244 28.4169
32.7708 28.3243
32.8174 28.3055
32.8638 28.2107
32.9104 28.1557
32.9569 28.2386
33.0035 27.9672
33.0499 28.0183
33.0966 27.963
33.143 27.9312
33.1897 27.8488
33.2361 27.7787
33.2828 27.8166
33.3293 27.6143
33.3759 27.522
33.4226 27.3667
33.4691 27.2868
33.5158 27.0878
33.5623 27.0716
33.609 26.8765
33.6555 26.8225
33.7022 26.7612
33.7487 26.688
33.7954 26.6443
33.842 26.5407
33.8887 26.5174
33.9353 26.4569
33.982 26.312
34.0286 26.2268
34.0753 26.1173
34.1219 26.0831
34.1687 25.99
34.2152 25.9118
34.262 25.7858
34.3086 25.6848
34.3554 25.6128
34.402 25.5141
34.4488 25.4235
34.4954 25.5091
34.5422 25.2687
34.5889 25.2404
34.6357 25.0141
34.6825 25.0386
34.7292 24.9677
34.776 24.8527
34.8227 24.8476
34.8695 24.8526
34.9162 24.7517
34.9631 24.6312
35.0098 24.6093
35.0566 24.491
35.1033 24.3932
35.1502 24.4428
35.1969 24.4043
35.2438 24.2833
35.2906 24.2816
35.3375 24.1652
35.3842 24.2209
35.4311 24.194
35.4779 24.1323
35.5248 24.022
35.5716 23.9839
35.6185 23.787
35.6653 23.7045
35.7123 23.6822
35.759 23.6155
35.806 23.5523
35.8528 23.358
35.8998 23.4357
35.9468 23.2779
35.9936 23.2626
36.0406 23.1444
36.0874 23.21
36.1345 22.9955
36.1813 22.9854
36.2283 22.8146
36.2752 22.811
36.3222 22.7454
36.3691 22.6623
36.4161 22.6198
36.463 22.608
36.5101 22.5246
36.557 22.5213
36.6041 22.3017
36.651 22.3305
36.6981 22.3503
36.745 22.1154
36.7921 22.1505
36.839 21.9643
36.8861 21.9538
36.9331 21.86
36.9802 21.7523
37.0272 21.7311
37.0743 21.6659
37.1213 21.5613
37.1684 21.589
37.2154 21.4999
37.2626 21.3632
37.3098 21.3469
37.3568 21.2568
37.404 21.2143
37.451 21.1613
37.4982 21.048
37.5452 20.9653
37.5924 20.8822
37.6395 20.929
37.6867 20.8686
37.7337 20.7548
37.781 20.6902
37.8281 20.5565
37.8753 20.4944
37.9224 20.4416
37.9697 20.3261
38.0168 20.293
38.064 20.2182
38.1111 20.3232
38.1584 20.1266
38.2056 20.0629
38.2529 20.0578
38.3 19.9315
38.3473 19.9207
38.3945 19.8659
38.4418 19.8024
38.489 19.7596
38.5363 19.5993
38.5837 19.6051
38.6309 19.5194
38.6782 19.4562
38.7254 19.4204
38.7728 19.3247
38.82 19.2826
38.8674 19.1819
38.9146 19.1223
38.9621 19.0735
39.0093 19.0011
39.0567 18.9395
39.104 18.9468
39.1514 18.7689
39.1987 18.6839
39.2461 18.8124
39.2934 18.7733
39.3409 18.5525
39.3882 18.5286
39.4356 18.4671
39.483 18.3959
39.5304 18.3616
39.5778 18.373
39.6253 18.3003
39.6726 18.2366
39.7201 18.1946
39.7675 18.105
39.815 18.0416
39.8624 17.9952
39.9099 17.9421
39.9575 17.8407
40.0049 17.8584
40.0525 17.7346
40.0999 17.7467
40.1474 17.6545
40.1949 17.5436
40.2425 17.5417
40.2899 17.4811
40.3375 17.4108
40.385 17.3531
40.4326 17.3102
40.48 17.2369
40.5277 17.2377
40.5752 17.1278
40.6228 17.0374
40.6703 16.9821
40.718 17.0344
40.7655 16.915
40.8132 16.8281
40.8607 16.8578
40.9084 16.8047
40.9559 16.6924
41.0036 16.6574
41.0512 16.6639
41.0989 16.5622
41.1465 16.4879
41.1942 16.4593
41.242 16.352
41.2896 16.3587
41.3373 16.2917
41.3849 16.2332
41.4327 16.1578
41.4803 16.0946
41.5281 16.0858
41.5758 15.9828
41.6236 15.9414
41.6712 15.868
41.7191 15.8194
41.7667 15.7458
41.8146 15.7694
41.8622 15.7245
41.9101 15.7027
41.9578 15.5213
42.0057 15.4988
42.0534 15.4262
42.1013 15.4599
42.149 15.3757
42.1969 15.3025
42.2446 15.2665
42.2925 15.1838
42.3403 15.1663
42.3882 15.1568
42.436 15.0809
42.4839 15.0209
42.5319 14.954
42.5797 14.9347
42.6277 14.8588
42.6755 14.8307
42.7235 14.8124
42.7713 14.694
42.8193 14.6735
42.8671 14.6167
42.9152 14.5757
42.963 14.4518
43.0111 14.4652
43.0589 14.3855
43.107 14.3547
43.1549 14.2755
43.2029 14.2287
43.2508 14.2194
43.2989 14.1407
43.3468 14.0411
43.3949 14.0822
43.4429 14.0152
43.491 14.0115
43.5389 13.9246
43.5871 13.9006
43.635 13.8172
43.6832 13.7965
43.7312 13.7284
43.7793 13.6763
43.8273 13.6524
43.8755 13.5365
43.9237 13.5564
43.9717 13.4799
44.0199 13.4431
44.068 13.4314
44.1162 13.3652
44.1642 13.289
44.2125 13.2812
44.2606 13.2278
44.3088 13.183
44.3569 13.1211
44.4052 13.0902
44.4533 13.0669
44.5016 12.9759
44.5497 12.9444
44.598 12.9382
44.6461 12.8578
44.6945 12.8236
44.7426 12.7796
44.791 12.715
44.8391 12.6894
44.8875 12.6814
44.9357 12.591
44.984 12.5595
45.0322 12.454
45.0806 12.4368
45.1288 12.4248
45.1773 12.363
45.2257 12.3156
45.2739 12.2924
45.3224 12.2172
45.3706 12.1723
45.4191 12.1313
45.4673 12.1359
45.5158 12.1009
45.5641 12.0317
45.6126 12.0298
45.6609 11.9583
45.7094 11.8806
45.7577 11.8438
45.8063 11.8036
45.8546 11.7243
45.9031 11.6928
45.9515 11.6953
46.0001 11.6366
46.0484 11.6092
46.097 11.5953
46.1454 11.5539
46.194 11.4883
46.2424 11.378
46.291 11.3701
46.3395 11.3383
46.3881 11.3205
46.4365 11.2608
46.4852 11.2053
46.5337 11.1887
46.5823 11.1619
46.631 11.1264
46.6795 11.0241
46.7282 11.0064
46.7767 11.0188
46.8254 10.9159
46.8739 10.9331
46.9226 10.859
46.9712 10.84
47.0199 10.7695
47.0685 10.7073
47.1173 10.6614
47.1658 10.65
47.2146 10.6308
47.2632 10.5853
47.312 10.5473
47.3606 10.5026
47.4095 10.4583
47.4581 10.4533
47.5069 10.3865
47.5556 10.3668
47.6044 10.2761
47.6531 10.2558
47.702 10.2092
47.7507 10.1425
47.7996 10.123
47.8483 10.1139
47.8972 10.0692
47.9461 10.053
47.9948 9.98162
48.0438 9.97184
48.0925 9.94476
48.1415 9.90879
48.1902 9.85454
48.2392 9.85436
48.288 9.79152
48.337 9.78147
48.3858 9.70968
48.4348 9.70812
48.4837 9.67958
48.5327 9.63894
48.5815 9.56465
48.6306 9.54567
48.6795 9.52273
48.7285 9.43953
48.7774 9.45805
48.8265 9.39176
48.8754 9.33832
48.9245 9.36657
48.9734 9.30171
49.0226 9.29923
49.0715 9.1894
49.1206 9.19669
49.1696 9.14297
49.2188 9.15406
49.2679 9.11249
49.3169 9.03113
49.3661 9.01834
49.4151 8.98746
49.4643 8.94001
49.5134 8.92775
49.5626 8.82823
49.6117 8.85421
49.6609 8.80655
49.71 8.75139
49.7592 8.73881
49.8083 8.69697
49.8576 8.70803
49.9067 8.63175
49.956 8.61691
50.0052 8.56481
50.0545 8.5568
50.1036 8.50685
50.153 8.47434
50.2022 8.48486
50.2515 8.41692
50.3007 8.36905
50.3501 8.32335
50.3993 8.31448
50.4487 8.28833
50.498 8.27229
50.5474 8.21337
50.5966 8.1789
50.6461 8.1594
50.6955 8.1383
50.7448 8.10064
50.7943 8.05597
50.8436 8.0234
50.8931 7.99902
50.9424 7.96919
50.9919 7.92698
51.0413 7.91384
51.0908 7.86879
51.1402 7.84744
51.1897 7.7967
51.2391 7.77801
51.2887 7.74659
51.3381 7.70083
51.3877 7.67596
51.4371 7.63365
51.4867 7.64451
51.5362 7.60546
51.5858 7.57362
51.6353 7.54701
51.6849 7.47392
51.7344 7.48877
51.7841 7.44257
51.8336 7.39524
51.8833 7.39014
51.9328 7.35084
51.9826 7.30852
52.0323 7.29567
52.0818 7.26376
52.1316 7.19462
52.1812 7.22058
52.231 7.18734
52.2806 7.14634
52.3304 7.1004
52.38 7.09932
52.4298 7.03649
52.4794 7.00611
52.5293 7.0198
52.5789 6.99803
52.6288 6.88172
52.6785 6.87229
52.7284 6.87041
52.7781 6.85068
52.828 6.8604
52.8777 6.75585
52.9276 6.73044
52.9774 6.71452
53.0273 6.7167
53.0771 6.64651
53.1271 6.65761
53.1769 6.63118
53.2269 6.6356
53.2767 6.5601
53.3267 6.54856
53.3765 6.5206
53.4266 6.50653
53.4766 6.42312
53.5265 6.39033
53.5765 6.4083
53.6264 6.40146
53.6765 6.32924
53.7264 6.29169
53.7765 6.28309
53.8265 6.27144
53.8766 6.25911
53.9266 6.20598
53.9767 6.15046
54.0267 6.13912
54.0769 6.11186
54.1269 6.08602
54.1771 6.06538
54.2271 6.03802
54.2773 6.01012
54.3274 5.99211
54.3776 5.97373
54.4277 5.93429
54.478 5.87046
54.528 5.80051
54.5783 5.79988
54.6285 5.75892
54.6788 5.70325
54.7289 5.71613
54.7792 5.63575
54.8296 5.58479
54.8798 5.56287
54.9301 5.52193
54.9803 5.53251
55.0307 5.45813
55.0809 5.39151
55.1314 5.43242
55.1816 5.38634
55.232 5.29459
55.2823 5.23474
55.3328 5.13069
55.383 5.1564
55.4335 5.12089
55.4838 5.069
55.5344 4.9898
55.5847 4.9304
55.6352 4.92812
55.6856 4.88868
55.7361 4.90288