File: XRD/Ni3Fe_FD0625.xy
TT I
1.27165 7.9998
1.31627 6.79966
1.36089 7.01707
1.40551 6.05648
1.45013 6.43415
1.49476 6.18045
1.53938 5.98634
1.584 5.55941
1.62863 4.32425
1.67325 5.41355
1.71787 5.19495
1.7625 5.34604
1.80712 4.27493
1.85174 4.59116
1.89636 4.94921
1.94099 4.4851
1.98562 4.17722
2.03025 4.30103
2.07487 4.85383
2.11949 4.91888
2.16411 5.23061
2.20874 14.7204
2.25338 23.7488
2.298 6.23299
2.34263 6.07229
2.38725 6.18032
2.43188 6.30829
2.4765 6.76397
2.52115 6.82021
2.56577 6.75049
2.6104 8.16062
2.65503 8.14691
2.69965 8.14091
2.7443 8.5662
2.78893 8.31788
2.83356 8.01757
2.87818 8.751
2.92281 9.14862
2.96744 9.54355
3.01209 10.1437
3.05672 11.1663
3.10135 12.2695
3.14599 13.3005
3.19062 14.2598
3.23527 15.0764
3.2799 16.0395
3.32454 17.1821
3.36917 17.6341
3.4138 19.1911
3.45844 20.1299
3.50309 21.2706
3.54773 21.8801
3.59237 24.1652
3.637 97.0859
3.68164 60.132
3.7263 26.4154
3.77094 26.0335
3.81558 27.0157
3.86022 27.339
3.90486 28.9973
3.9495 29.8938
3.99416 31.1668
4.0388 32.0833
4.08344 33.6253
4.12809 35.394
4.17273 37.479
4.21738 43.7422
4.26204 257.4
4.30669 222.292
4.35133 49.3555
4.39598 45.109
4.44063 55.1826
4.4853 67.1541
4.52995 50.7449
4.5746 51.4506
4.61925 53.6329
4.6639 55.9774
4.70855 58.3945
4.75322 61.2298
4.79788 64.1122
4.84253 67.5331
4.88719 72.0155
4.93184 75.892
4.97652 80.9572
5.02118 87.5456
5.06583 94.3797
5.11049 105.952
5.15515 174.211
5.19981 348.14
5.24449 2803.84
5.28916 12600.6
5.33382 2999.92
5.37848 194.546
5.42315 131.14
5.46783 114.472
5.5125 107.392
5.55716 102.477
5.60183 99.1477
5.6465 97.5086
5.69117 94.5247
5.73586 92.4111
5.78053 92.1249
5.8252 91.2638
5.86988 91.8237
5.91455 93.9429
5.95924 101.994
6.00392 201.989
6.0486 963.09
6.09328 4377.95
6.13795 3506.21
6.18263 253.948
6.22733 94.7178
6.27201 84.4742
6.3167 103.802
6.36138 81.2544
6.40606 69.5391
6.45075 67.2554
6.49545 65.7641
6.54014 64.2215
6.58483 63.2296
6.62952 63.1493
6.67421 96.7612
6.71892 148.613
6.76361 69.6349
6.8083 59.3618
6.853 57.8907
6.89769 57.4232
6.94239 57.3017
6.98711 56.537
7.03181 55.8259
7.07651 55.7074
7.12121 55.7483
7.16591 55.867
7.21063 55.6468
7.25533 71.6644
7.30004 187.115
7.34475 93.4266
7.38945 57.2282
7.43416 55.0613
7.47889 54.7699
7.5236 55.0967
7.56831 56.0446
7.61303 57.7946
7.65774 57.6691
7.70247 56.3655
7.74719 56.4859
7.79191 56.9348
7.83663 56.9318
7.88135 58.1951
7.92607 58.7138
7.97081 59.858
8.01553 61.1877
8.06026 62.6109
8.10498 64.2896
8.14971 73.9535
8.19446 72.5405
8.23919 69.8787
8.28392 71.9875
8.32865 74.2016
8.37339 78.6729
8.41812 85.8456
8.46288 115.453
8.50761 160.698
8.55235 380.221
8.59709 1168.52
8.64183 2172.84
8.68658 991.04
8.73134 169.043
8.77609 100.701
8.82083 93.2321
8.86558 90.1053
8.91033 90.3048
8.9551 92.0912
8.99985 85.7693
9.04461 83.7757
9.08936 83.2509
9.13412 82.1775
9.17888 82.0754
9.22365 83.2592
9.26841 82.5919
9.31318 82.9009
9.35794 83.0752
9.4027 83.496
9.44749 84.0678
9.49226 84.8997
9.53703 85.8177
9.5818 87.7326
9.62657 92.6098
9.67134 99.2028
9.71614 94.117
9.76091 94.1501
9.80569 96.7349
9.85047 99.8316
9.89525 125.236
9.94005 137.37
9.98484 172.237
10.0296 336.005
10.0744 810.699
10.1192 1711.18
10.164 1599.85
10.2088 421.119
10.2536 129.2
10.2984 114.712
10.3432 116.079
10.388 105.23
10.4328 116.667
10.4776 158.285
10.5224 277.56
10.5672 504.954
10.612 502.845
10.6568 209.907
10.7017 97.7015
10.7465 87.1275
10.7913 83.8451
10.8361 81.3676
10.8809 79.5953
10.9257 79.0664
10.9706 79.6689
11.0154 75.4279
11.0602 73.345
11.105 72.2661
11.1499 76.9531
11.1947 84.5525
11.2395 75.1433
11.2844 71.0011
11.3292 67.6706
11.374 66.6751
11.4189 66.033
11.4637 65.3933
11.5086 65.9377
11.5534 68.8268
11.5983 66.2885
11.6431 64.0413
11.688 63.4239
11.7328 63.3427
11.7777 63.1747
11.8225 63.1514
11.8674 62.6529
11.9122 63.084
11.9571 63.1616
12.002 63.5217
12.0468 67.6424
12.0917 78.6002
12.1366 102.343
12.1814 151.48
12.2263 202.888
12.2712 169.597
12.3161 99.3642
12.3609 71.3216
12.4058 65.2491
12.4507 64.7371
12.4956 64.626
12.5405 64.9622
12.5853 65.9296
12.6302 74.204
12.6751 79.9532
12.72 70.5972
12.7649 68.0858
12.8098 68.8694
12.8547 69.8934
12.8996 71.1408
12.9445 72.5014
12.9894 74.4549
13.0343 76.0793
13.0792 79.2556
13.1242 87.5326
13.1691 110.839
13.214 147.444
13.2589 235.426
13.3038 365.68
13.3487 424.545
13.3937 272.085
13.4386 128.394
13.4835 105.044
13.5285 119.735
13.5734 157.934
13.6183 246.231
13.6633 345.879
13.7082 343.966
13.7531 193.817
13.7981 99.8394
13.843 82.5022
13.888 80.0102
13.9329 77.5728
13.9779 76.1271
14.0228 74.7781
14.0678 73.3682
14.1127 73.1845
14.1577 72.9409
14.2027 72.0178
14.2476 70.744
14.2926 71.1735
14.3376 72.0755
14.3825 70.7004
14.4275 69.5208
14.4725 69.1242
14.5175 69.2143
14.5624 69.5303
14.6074 71.5831
14.6524 71.9915
14.6974 70.801
14.7424 72.0465
14.7874 78.5063
14.8324 88.697
14.8774 110.387
14.9224 153.214
14.9674 204.207
15.0124 215.381
15.0574 151.039
15.1024 92.8192
15.1474 73.07
15.1924 70.7222
15.2374 71.4969
15.2824 70.9639
15.3274 68.6133
15.3725 67.132
15.4175 66.7182
15.4625 66.4471
15.5076 66.6479
15.5526 66.4984
15.5976 66.0019
15.6426 66.9762
15.6877 72.1834
15.7327 79.6854
15.7778 94.8566
15.8228 125.901
15.8679 168.158
15.9129 192.78
15.958 156.376
16.003 98.7872
16.0481 69.0847
16.0931 65.0599
16.1382 63.1484
16.1833 61.049
16.2283 59.3822
16.2734 58.6361
16.3185 59.2223
16.3636 59.7243
16.4086 58.3508
16.4537 56.5331
16.4988 55.8844
16.5439 55.7462
16.589 55.4621
16.6341 55.2408
16.6792 54.8007
16.7243 55.3406
16.7694 55.4274
16.8145 55.0789
16.8596 55.6192
16.9047 57.265
16.9498 57.4264
16.9949 56.056
17.04 56.2419
17.0851 57.1908
17.1302 58.7666
17.1754 61.8376
17.2205 66.8987
17.2656 74.3953
17.3108 82.2699
17.3559 82.7928
17.401 72.5859
17.4462 63.0619
17.4913 59.6906
17.5365 59.547
17.5815 59.5754
17.6268 59.7797
17.6718 60.6918
17.7171 61.3051
17.7622 61.4756
17.8074 62.0198
17.8525 64.2782
17.8977 68.254
17.9428 73.6918
17.9881 82.2347
18.0331 99.5198
18.0784 120.874
18.1237 138.602
18.1688 131.27
18.214 104.774
18.2591 87.5429
18.3044 90.9099
18.3495 100.098
18.3948 105.821
18.4399 97.4641
18.4852 78.73
18.5303 66.6501
18.5756 62.4963
18.6207 61.7719
18.666 60.7613
18.7112 60.0207
18.7565 59.3133
18.8016 58.8493
18.8469 58.3639
18.892 57.8579
18.9374 57.6987
18.9825 57.4662
19.0278 57.2747
19.073 57.2497
19.1183 57.8232
19.1635 58.486
19.2088 59.8348
19.254 62.1332
19.2993 66.6629
19.3447 72.5915
19.3898 76.5612
19.4352 72.6118
19.4804 63.9311
19.5257 57.3366
19.5709 54.4393
19.6163 54.0527
19.6615 53.8279
19.7068 53.6185
19.752 53.4046
19.7974 53.7877
19.8426 54.6574
19.888 55.3343
19.9332 56.5816
19.9786 58.9977
20.0238 62.3255
20.0692 67.2583
20.1144 69.5893
20.1598 68.513
20.205 63.8386
20.2504 62.5794
20.2957 63.8584
20.3411 65.6686
20.3863 64.1632
20.4318 59.1252
20.477 54.2466
20.5224 52.068
20.5677 51.3251
20.6131 50.8365
20.6586 50.0236
20.7038 49.9692
20.7493 49.361
20.7945 49.3877
20.84 49.0288
20.8853 48.8806
20.9307 48.8278
20.976 48.9556
21.0215 48.9549
21.0668 49.2557
21.1122 49.6366
21.1575 50.1595
21.203 51.0392
21.2483 51.393
21.2938 51.5311
21.3391 50.3077
21.3846 49.2859
21.4299 48.6657
21.4754 48.5405
21.5207 48.7836
21.5662 48.9688
21.6116 49.2316
21.6571 50.0274
21.7024 51.0381
21.7479 52.8198
21.7933 55.4351
21.8388 59.139
21.8843 62.6125
21.9297 64.472
21.9752 63.4176
22.0206 60.1228
22.0661 56.8
22.1115 56.2583
22.157 56.051
22.2024 54.5228
22.248 51.8422
22.2933 50.4607
22.3389 49.4668
22.3843 49.2519
22.4299 49.2815
22.4753 49.0942
22.5208 48.8931
22.5662 48.869
22.6118 48.8026
22.6572 48.8993
22.7028 49.3832
22.7483 49.9521
22.7939 50.5286
22.8393 52.0203
22.8849 54.3219
22.9303 56.1151
22.9759 57.7694
23.0214 57.5598
23.067 54.7568
23.1126 51.5652
23.1581 49.5378
23.2037 49.1865
23.2492 49.1285
23.2948 49.0045
23.3403 48.9918
23.3859 50.0122
23.4314 50.942
23.477 52.6236
23.5225 54.7636
23.5682 57.0337
23.6137 57.9595
23.6593 55.9275
23.7048 51.9955
23.7505 48.8032
23.796 47.0403
23.8417 46.2316
23.8872 45.8314
23.9329 45.404
23.9784 45.0959
24.0241 44.6974
24.0697 44.7586
24.1154 44.3825
24.1609 44.2159
24.2066 44.0483
24.2522 43.9177
24.2979 43.633
24.3434 43.5319
24.3892 43.403
24.4349 43.4023
24.4805 43.2735
24.5262 43.3156
24.5718 43.1834
24.6175 43.1544
24.6631 43.0766
24.7089 42.8384
24.7545 42.5922
24.8002 42.3423
24.8458 42.3816
24.8916 42.3157
24.9372 42.2945
24.983 42.7578
25.0286 43.0755
25.0744 43.4607
25.12 43.8783
25.1658 44.5044
25.2114 44.7741
25.2572 44.8998
25.3029 44.9487
25.3487 45.0893
25.3943 44.8906
25.4402 43.7333
25.4858 42.8386
25.5316 41.8144
25.5773 41.221
25.6231 41.0424
25.669 40.7152
25.7147 40.7706
25.7605 40.4595
25.8062 40.7097
25.8521 40.8153
25.8977 40.8202
25.9436 41.12
25.9893 41.1059
26.0352 41.6808
26.0809 41.7752
26.1268 41.8537
26.1725 41.5045
26.2184 41.0007
26.2641 40.578
26.31 40.3969
26.3557 40.3763
26.4017 40.44
26.4474 40.6241
26.4933 40.9374
26.5391 41.3652
26.585 41.941
26.6308 42.2631
26.6767 42.2958
26.7225 42.2664
26.7684 41.7076
26.8142 40.9695
26.8601 40.6479
26.9059 40.3124
26.9519 39.7311
26.9979 39.4668
27.0437 39.1202
27.0896 38.795
27.1354 39.0767
27.1814 38.8882
27.2272 38.7031
27.2732 38.7155
27.3191 38.4782
27.3651 38.6945
27.4109 38.6076
27.4569 38.7253
27.5027 38.7131
27.5488 38.7984
27.5946 38.5767
27.6407 38.3278
27.6865 38.3461
27.7326 38.0528
27.7784 37.9649
27.8245 38.1438
27.8703 38.1913
27.9164 38.365
27.9623 38.5137
28.0084 38.9721
28.0543 39.2885
28.1003 39.2001
28.1462 38.9736
28.1923 38.7082
28.2384 38.1692
28.2843 37.9673
28.3304 37.3336
28.3764 36.9232
28.4225 36.6307
28.4684 36.4945
28.5145 36.0722
28.5605 36.0728
28.6066 35.8614
28.6526 35.8806
28.6987 35.8989
28.7447 35.6998
28.7908 35.6051
28.8368 35.795
28.8829 35.6157
28.9289 35.5852
28.9751 35.3514
29.0211 35.1933
29.0673 34.8711
29.1133 34.7903
29.1595 34.5518
29.2055 34.5295
29.2517 34.387
29.2977 34.4036
29.3439 34.3748
29.3899 34.4063
29.4361 34.3051
29.4824 34.2016
29.5284 33.9272
29.5746 33.4441
29.6207 33.3548
29.6669 33.273
29.713 33.0782
29.7593 32.9807
29.8053 33.081
29.8516 33.0063
29.8977 32.9012
29.9439 32.8289
29.99 32.8517
30.0363 32.556
30.0824 32.6872
30.1287 32.4614
30.1748 32.609
30.2211 32.5991
30.2673 32.4329
30.3136 32.5777
30.3597 32.459
30.406 32.3566
30.4522 32.2135
30.4985 32.2291
30.5447 32.3662
30.591 32.3169
30.6372 32.3936
30.6835 32.344
30.7297 32.4538
30.7761 32.2739
30.8224 32.143
30.8686 31.9028
30.915 31.8658
30.9612 31.6627
31.0076 31.3972
31.0538 31.319
31.1002 31.3391
31.1464 31.1269
31.1928 31.1221
31.2391 31.1298
31.2855 30.9212
31.3317 30.9868
31.3781 31.0491
31.4244 31.0874
31.4708 31.006
31.5171 30.8811
31.5636 30.9456
31.6098 30.7728
31.6563 30.5547
31.7026 30.358
31.7491 30.3653
31.7953 30.3535
31.8418 30.3048
31.8881 30.2711
31.9346 30.2044
31.9809 30.2161
32.0275 30.0806
32.074 29.9519
32.1203 29.7099
32.1668 29.7528
32.2132 29.5502
32.2597 29.4026
32.306 29.3924
32.3526 29.1518
32.399 29.0202
32.4455 28.8958
32.4919 28.7747
32.5385 28.7754
32.5848 28.748
32.6314 28.6601
32.6778 28.6003
32.7244 28.4656
32.7708 28.3141
32.8174 28.3006
32.8638 28.1882
32.9104 28.1982
32.9569 28.173
33.0035 28.0656
33.0499 28.0563
33.0966 27.883
33.143 27.9145
33.1897 27.9699
33.2361 27.7417
33.2828 27.7118
33.3293 27.5238
33.3759 27.6236
33.4226 27.4462
33.4691 27.2504
33.5158 27.212
33.5623 27.0566
33.609 26.9228
33.6555 26.8126
33.7022 26.7846
33.7487 26.6425
33.7954 26.6895
33.842 26.5944
33.8887 26.4517
33.9353 26.4147
33.982 26.249
34.0286 26.1715
34.0753 26.2027
34.1219 26.0323
34.1687 26.0312
34.2152 25.9374
34.262 25.7791
34.3086 25.675
34.3554 25.7659
34.402 25.6452
34.4488 25.4634
34.4954 25.3766
34.5422 25.3366
34.5889 25.2733
34.6357 25.1753
34.6825 25.0734
34.7292 24.9813
34.776 24.9091
34.8227 24.8609
34.8695 24.7171
34.9162 24.7371
34.9631 24.6409
35.0098 24.6425
35.0566 24.5085
35.1033 24.4567
35.1502 24.3715
35.1969 24.3506
35.2438 24.2619
35.2906 24.2575
35.3375 24.2358
35.3842 24.1378
35.4311 24.1783
35.4779 24.0766
35.5248 24.0104
35.5716 23.8902
35.6185 23.7824
35.6653 23.7228
35.7123 23.6755
35.759 23.6519
35.806 23.4804
35.8528 23.4016
35.8998 23.3178
35.9468 23.2486
35.9936 23.2211
36.0406 23.1422
36.0874 23.0807
36.1345 22.9193
36.1813 22.8871
36.2283 22.9154
36.2752 22.7348
36.3222 22.8169
36.3691 22.6631
36.4161 22.6032
36.463 22.6708
36.5101 22.52
36.557 22.4272
36.6041 22.3426
36.651 22.3
36.6981 22.2002
36.745 22.2048
36.7921 22.0456
36.839 21.9855
36.8861 21.8969
36.9331 21.814
36.9802 21.7927
37.0272 21.7434
37.0743 21.574
37.1213 21.5703
37.1684 21.5365
37.2154 21.5148
37.2626 21.3655
37.3098 21.3833
37.3568 21.2403
37.404 21.2133
37.451 21.075
37.4982 21.1188
37.5452 21.0192
37.5924 20.8251
37.6395 20.959
37.6867 20.8479
37.7337 20.8071
37.781 20.667
37.8281 20.6099
37.8753 20.4737
37.9224 20.4587
37.9697 20.4092
38.0168 20.3674
38.064 20.2448
38.1111 20.1786
38.1584 20.1978
38.2056 20.077
38.2529 19.9823
38.3 19.9867
38.3473 19.9517
38.3945 19.7764
38.4418 19.8027
38.489 19.7082
38.5363 19.6029
38.5837 19.5603
38.6309 19.4636
38.6782 19.5217
38.7254 19.4296
38.7728 19.325
38.82 19.2304
38.8674 19.2005
38.9146 19.1442
38.9621 19.0942
39.0093 19.0163
39.0567 18.953
39.104 18.8785
39.1514 18.8413
39.1987 18.8138
39.2461 18.7452
39.2934 18.6804
39.3409 18.5633
39.3882 18.5238
39.4356 18.5406
39.483 18.3896
39.5304 18.3857
39.5778 18.2786
39.6253 18.2169
39.6726 18.1867
39.7201 18.2089
39.7675 18.0067
39.815 18.0039
39.8624 17.9606
39.9099 17.9304
39.9575 17.7775
40.0049 17.769
40.0525 17.7065
40.0999 17.7037
40.1474 17.6156
40.1949 17.5553
40.2425 17.4726
40.2899 17.4735
40.3375 17.3844
40.385 17.3388
40.4326 17.2667
40.48 17.2236
40.5277 17.2424
40.5752 17.1063
40.6228 17.0491
40.6703 16.9822
40.718 16.9408
40.7655 16.905
40.8132 16.7948
40.8607 16.8441
40.9084 16.7749
40.9559 16.6795
41.0036 16.6142
41.0512 16.6338
41.0989 16.5739
41.1465 16.4575
41.1942 16.4433
41.242 16.4053
41.2896 16.2604
41.3373 16.2564
41.3849 16.2005
41.4327 16.1823
41.4803 15.9983
41.5281 16.0855
41.5758 15.9713
41.6236 15.8899
41.6712 15.8405
41.7191 15.827
41.7667 15.7682
41.8146 15.7402
41.8622 15.6344
41.9101 15.5872
41.9578 15.4981
42.0057 15.4723
42.0534 15.4201
42.1013 15.4687
42.149 15.3998
42.1969 15.2946
42.2446 15.2556
42.2925 15.2708
42.3403 15.0919
42.3882 15.1282
42.436 15.1166
42.4839 14.9828
42.5319 14.9972
42.5797 14.8915
42.6277 14.836
42.6755 14.7671
42.7235 14.7643
42.7713 14.7054
42.8193 14.6279
42.8671 14.6213
42.9152 14.6018
42.963 14.5048
43.0111 14.4402
43.0589 14.3923
43.107 14.3834
43.1549 14.2767
43.2029 14.2615
43.2508 14.2059
43.2989 14.1386
43.3468 14.0679
43.3949 14.0513
43.4429 14.0059
43.491 13.9125
43.5389 13.9144
43.5871 13.9162
43.635 13.8113
43.6832 13.8065
43.7312 13.6923
43.7793 13.6796
43.8273 13.6071
43.8755 13.6026
43.9237 13.5211
43.9717 13.5452
44.0199 13.4702
44.068 13.4156
44.1162 13.3031
44.1642 13.3303
44.2125 13.2691
44.2606 13.24
44.3088 13.2068
44.3569 13.1408
44.4052 13.0533
44.4533 13.0427
44.5016 12.9734
44.5497 12.9493
44.598 12.8287
44.6461 12.8307
44.6945 12.8102
44.7426 12.7906
44.791 12.6768
44.8391 12.7159
44.8875 12.6705
44.9357 12.6103
44.984 12.5449
45.0322 12.4994
45.0806 12.4493
45.1288 12.4075
45.1773 12.3841
45.2257 12.2971
45.2739 12.2703
45.3224 12.2128
45.3706 12.1983
45.4191 12.1414
45.4673 12.1011
45.5158 12.0549
45.5641 11.9757
45.6126 11.9503
45.6609 11.8952
45.7094 11.8813
45.7577 11.8625
45.8063 11.7738
45.8546 11.7589
45.9031 11.7061
45.9515 11.6575
46.0001 11.6067
46.0484 11.6008
46.097 11.5635
46.1454 11.5601
46.194 11.4727
46.2424 11.4187
46.291 11.3575
46.3395 11.347
46.3881 11.2847
46.4365 11.269
46.4852 11.2284
46.5337 11.2053
46.5823 11.1168
46.631 11.0539
46.6795 11.0657
46.7282 11.0298
46.7767 10.9747
46.8254 10.926
46.8739 10.9162
46.9226 10.8707
46.9712 10.7834
47.0199 10.7774
47.0685 10.7298
47.1173 10.6708
47.1658 10.6439
47.2146 10.6388
47.2632 10.5647
47.312 10.5575
47.3606 10.4915
47.4095 10.4471
47.4581 10.4086
47.5069 10.353
47.5556 10.3555
47.6044 10.2859
47.6531 10.2666
47.702 10.1848
47.7507 10.1993
47.7996 10.1092
47.8483 10.1176
47.8972 10.0982
47.9461 10.0411
47.9948 10.0131
48.0438 9.9929
48.0925 9.97081
48.1415 9.91109
48.1902 9.85924
48.2392 9.84804
48.288 9.78804
48.337 9.78365
48.3858 9.73174
48.4348 9.69183
48.4837 9.68411
48.5327 9.58047
48.5815 9.60496
48.6306 9.53995
48.6795 9.5611
48.7285 9.44231
48.7774 9.43265
48.8265 9.41574
48.8754 9.3173
48.9245 9.34222
48.9734 9.30563
49.0226 9.28823
49.0715 9.21498
49.1206 9.18831
49.1696 9.13898
49.2188 9.08699
49.2679 9.09875
49.3169 9.03855
49.3661 9.03545
49.4151 8.9713
49.4643 8.94655
49.5134 8.91791
49.5626 8.87107
49.6117 8.86904
49.6609 8.85217
49.71 8.74715
49.7592 8.74933
49.8083 8.69728
49.8576 8.67036
49.9067 8.63012
49.956 8.60988
50.0052 8.58045
50.0545 8.53616
50.1036 8.51244
50.153 8.4666
50.2022 8.43157
50.2515 8.40531
50.3007 8.35826
50.3501 8.34655
50.3993 8.27487
50.4487 8.27567
50.498 8.25658
50.5474 8.22363
50.5966 8.19352
50.6461 8.16011
50.6955 8.1675
50.7448 8.09795
50.7943 8.08773
50.8436 8.03392
50.8931 8.00659
50.9424 7.98946
50.9919 7.92667
51.0413 7.90929
51.0908 7.88134
51.1402 7.85384
51.1897 7.80315
51.2391 7.77303
51.2887 7.76306
51.3381 7.69681
51.3877 7.72488
51.4371 7.64352
51.4867 7.59968
51.5362 7.61698
51.5858 7.56242
51.6353 7.49803
51.6849 7.48502
51.7344 7.47842
51.7841 7.43871
51.8336 7.40287
51.8833 7.37626
51.9328 7.3354
51.9826 7.27996
52.0323 7.2895
52.0818 7.2638
52.1316 7.23482
52.1812 7.17846
52.231 7.13102
52.2806 7.11656
52.3304 7.09869
52.38 7.08354
52.4298 7.00878
52.4794 7.00266
52.5293 6.97525
52.5789 6.95963
52.6288 6.94627
52.6785 6.91902
52.7284 6.89042
52.7781 6.86589
52.828 6.81676
52.8777 6.78008
52.9276 6.72995
52.9774 6.74688
53.0273 6.70317
53.0771 6.6601
53.1271 6.65808
53.1769 6.5878
53.2269 6.59194
53.2767 6.54517
53.3267 6.54475
53.3765 6.46429
53.4266 6.45171
53.4766 6.43955
53.5265 6.44436
53.5765 6.38505
53.6264 6.35527
53.6765 6.3658
53.7264 6.32077
53.7765 6.27146
53.8265 6.2649
53.8766 6.24582
53.9266 6.17183
53.9767 6.16151
54.0267 6.14303
54.0769 6.11288
54.1269 6.05345
54.1771 6.07122
54.2271 6.01371
54.2773 5.99804
54.3274 5.97123
54.3776 5.90247
54.4277 5.88166
54.478 5.87133
54.528 5.84974
54.5783 5.78615
54.6285 5.73139
54.6788 5.69879
54.7289 5.6796
54.7792 5.63208
54.8296 5.55053
54.8798 5.5464
54.9301 5.50752
54.9803 5.4665
55.0307 5.45801
55.0809 5.36576
55.1314 5.39796
55.1816 5.3304
55.232 5.27127
55.2823 5.26243
55.3328 5.20472
55.383 5.14211
55.4335 5.07763
55.4838 5.04302
55.5344 4.96064
55.5847 4.93267
55.6352 4.91673
55.6856 4.87953
55.7361 4.88898