File: XRD/Ni3Fe_FD0223.xy
TT I
1.27165 7.50814
1.31627 7.58213
1.36089 7.67107
1.40551 6.79972
1.45013 7.16474
1.49476 6.73503
1.53938 5.94201
1.584 5.67801
1.62863 6.38125
1.67325 5.52515
1.71787 5.55167
1.7625 5.20798
1.80712 5.54717
1.85174 4.86832
1.89636 5.28268
1.94099 5.17451
1.98562 4.78468
2.03025 5.28262
2.07487 4.91551
2.11949 5.07025
2.16411 4.81817
2.20874 4.77309
2.25338 4.25746
2.298 4.777
2.34263 4.83891
2.38725 4.73906
2.43188 4.87794
2.4765 4.75173
2.52115 4.9537
2.56577 5.1945
2.6104 5.95167
2.65503 5.49767
2.69965 6.06348
2.7443 6.36154
2.78893 6.67686
2.83356 6.86074
2.87818 7.87325
2.92281 7.91934
2.96744 9.43023
3.01209 10.1398
3.05672 11.3623
3.10135 12.3517
3.14599 12.72
3.19062 13.7021
3.23527 14.9223
3.2799 15.8056
3.32454 16.9213
3.36917 17.6389
3.4138 18.6942
3.45844 19.9119
3.50309 21.0521
3.54773 21.7768
3.59237 22.6439
3.637 23.1178
3.68164 23.6837
3.7263 25.0978
3.77094 25.8129
3.81558 26.4118
3.86022 27.8275
3.90486 28.9861
3.9495 29.9015
3.99416 31.1509
4.0388 32.9447
4.08344 34.1852
4.12809 34.9743
4.17273 35.9967
4.21738 37.9635
4.26204 39.033
4.30669 40.5108
4.35133 42.6968
4.39598 44.4178
4.44063 46.18
4.4853 49.0518
4.52995 52.0795
4.5746 54.0856
4.61925 55.8397
4.6639 58.1746
4.70855 61.3915
4.75322 64.5841
4.79788 67.9493
4.84253 71.6665
4.88719 77.2408
4.93184 80.9318
4.97652 88.4036
5.02118 97.0285
5.06583 107.558
5.11049 124.521
5.15515 169.87
5.19981 889.349
5.24449 3968.01
5.28916 10605.5
5.33382 4195.3
5.37848 273.815
5.42315 154.057
5.46783 129.116
5.5125 118.423
5.55716 112.179
5.60183 106.735
5.6465 104.765
5.69117 103.281
5.73586 101.431
5.78053 101.689
5.8252 101.852
5.86988 105.409
5.91455 110.426
5.95924 133.837
6.00392 449.089
6.0486 1421.15
6.09328 3608.73
6.13795 3630.08
6.18263 371.118
6.22733 109.728
6.27201 89.2828
6.3167 81.1679
6.36138 76.231
6.40606 72.8294
6.45075 71.1662
6.49545 68.6099
6.54014 66.475
6.58483 65.7502
6.62952 63.9402
6.67421 62.5446
6.71892 61.5584
6.76361 60.7741
6.8083 60.1747
6.853 59.3344
6.89769 58.5185
6.94239 58.248
6.98711 57.3134
7.03181 57.1726
7.07651 56.8423
7.12121 56.7003
7.16591 56.4801
7.21063 56.2756
7.25533 56.0694
7.30004 56.1455
7.34475 55.7854
7.38945 56.0165
7.43416 55.4747
7.47889 55.5038
7.5236 56.2061
7.56831 57.1866
7.61303 57.0117
7.65774 57.145
7.70247 58.2953
7.74719 58.2628
7.79191 58.8889
7.83663 59.1054
7.88135 60.3912
7.92607 60.8796
7.97081 62.3626
8.01553 63.7567
8.06026 65.6742
8.10498 66.49
8.14971 69.2575
8.19446 70.6455
8.23919 73.7389
8.28392 76.2902
8.32865 79.1131
8.37339 84.295
8.41812 90.8023
8.46288 110.641
8.50761 290.794
8.55235 588.333
8.59709 1059.49
8.64183 1972.53
8.68658 1204.79
8.73134 217.892
8.77609 111.035
8.82083 100.577
8.86558 96.5027
8.91033 93.5133
8.9551 91.064
8.99985 89.5647
9.04461 88.4671
9.08936 87.8839
9.13412 87.3692
9.17888 86.7829
9.22365 87.0743
9.26841 87.0835
9.31318 88.0283
9.35794 88.3122
9.4027 88.585
9.44749 89.1749
9.49226 89.7574
9.53703 90.8345
9.5818 92.8712
9.62657 94.546
9.67134 95.7041
9.71614 97.488
9.76091 100.17
9.80569 103.841
9.85047 107.006
9.89525 112.904
9.94005 136.663
9.98484 304.196
10.0296 519.303
10.0744 797.689
10.1192 1454.06
10.164 1711.87
10.2088 557.444
10.2536 149.317
10.2984 117.65
10.3432 112.811
10.388 115.205
10.4328 159.361
10.4776 212.577
10.5224 279.704
10.5672 438.518
10.612 537.685
10.6568 256.02
10.7017 109.178
10.7465 92.5251
10.7913 87.8672
10.8361 85.4084
10.8809 83.1756
10.9257 80.8685
10.9706 79.7015
11.0154 77.7552
11.0602 75.999
11.105 74.9349
11.1499 73.4688
11.1947 72.4648
11.2395 71.3617
11.2844 70.7669
11.3292 69.6783
11.374 69.0902
11.4189 68.808
11.4637 67.9428
11.5086 67.2154
11.5534 66.8455
11.5983 66.4558
11.6431 66.2391
11.688 65.7921
11.7328 65.6548
11.7777 65.5136
11.8225 65.2399
11.8674 65.545
11.9122 65.8705
11.9571 66.5372
12.002 68.7986
12.0468 80.0489
12.0917 94.8688
12.1366 108.807
12.1814 140.085
12.2263 191.433
12.2712 186.713
12.3161 103.815
12.3609 70.1994
12.4058 67.2203
12.4507 67.1292
12.4956 67.0409
12.5405 67.4578
12.5853 67.9157
12.6302 68.1477
12.6751 68.9781
12.72 69.7393
12.7649 70.9612
12.8098 71.6818
12.8547 73.148
12.8996 74.8715
12.9445 76.3804
12.9894 78.27
13.0343 80.3681
13.0792 86.4764
13.1242 110.789
13.1691 147.681
13.214 174.544
13.2589 228.186
13.3038 318.998
13.3487 416.897
13.3937 310.415
13.4386 149.932
13.4835 134.235
13.5285 153.679
13.5734 174.093
13.6183 224.776
13.6633 307.801
13.7082 356.198
13.7531 230.526
13.7981 112.756
13.843 87.43
13.888 84.1624
13.9329 81.3384
13.9779 80.0334
14.0228 78.473
14.0678 76.9814
14.1127 75.9469
14.1577 75.4452
14.2027 74.8557
14.2476 74.121
14.2926 73.3773
14.3376 73.1261
14.3825 72.9462
14.4275 72.4662
14.4725 72.5746
14.5175 72.747
14.5624 72.6055
14.6074 73.0038
14.6524 73.6556
14.6974 74.7004
14.7424 81.2648
14.7874 95.4498
14.8324 106.937
14.8774 119.369
14.9224 144.473
14.9674 185.697
15.0124 221.058
15.0574 172.32
15.1024 103.413
15.1474 77.3836
15.1924 73.9147
15.2374 72.4432
15.2824 71.4165
15.3274 70.6746
15.3725 70.155
15.4175 69.8173
15.4625 69.3298
15.5076 69.2206
15.5526 69.2463
15.5976 69.8189
15.6426 74.7789
15.6877 86.6373
15.7327 95.208
15.7778 103.486
15.8228 121.959
15.8679 152.345
15.9129 189.29
15.958 178.575
16.003 114.146
16.0481 73.4106
16.0931 65.9773
16.1382 63.9485
16.1833 63.1466
16.2283 61.87
16.2734 60.9683
16.3185 60.1847
16.3636 59.8049
16.4086 58.9333
16.4537 58.5934
16.4988 58.0265
16.5439 58.1526
16.589 57.6003
16.6341 57.5758
16.6792 57.2684
16.7243 57.2988
16.7694 57.2915
16.8145 57.1316
16.8596 57.3713
16.9047 57.5186
16.9498 57.6776
16.9949 57.8566
17.04 59.2611
17.0851 61.9036
17.1302 63.8034
17.1754 65.6741
17.2205 68.9207
17.2656 73.7182
17.3108 81.7188
17.3559 85.672
17.401 77.503
17.4462 66.8006
17.4913 62.5641
17.5365 62.0446
17.5815 62.1567
17.6268 62.6934
17.6718 63.1275
17.7171 63.5705
17.7622 64.6599
17.8074 66.466
17.8525 72.2889
17.8977 78.2296
17.9428 82.8739
17.9881 87.9734
18.0331 99.0693
18.0784 114.759
18.1237 139.242
18.1688 145.433
18.214 119.05
18.2591 93.9989
18.3044 90.199
18.3495 96.8081
18.3948 106.673
18.4399 103.261
18.4852 84.2428
18.5303 70.3785
18.5756 65.6766
18.6207 64.5307
18.666 63.4317
18.7112 62.5346
18.7565 62.0172
18.8016 61.628
18.8469 60.8788
18.892 60.6353
18.9374 60.0279
18.9825 59.8929
19.0278 59.7243
19.073 60.4477
19.1183 61.4271
19.1635 62.1382
19.2088 62.9201
19.254 64.7048
19.2993 67.3824
19.3447 71.2288
19.3898 76.3664
19.4352 76.3013
19.4804 68.6222
19.5257 60.6515
19.5709 57.0495
19.6163 56.7486
19.6615 56.5346
19.7068 56.1859
19.752 56.1796
19.7974 57.3286
19.8426 58.2386
19.888 58.7341
19.9332 59.4072
19.9786 61.4143
20.0238 64.0087
20.0692 68.38
20.1144 72.5654
20.1598 72.9046
20.205 68.0736
20.2504 64.3182
20.2957 64.3793
20.3411 66.7915
20.3863 67.7569
20.4318 62.7129
20.477 57.0217
20.5224 53.7974
20.5677 53.0372
20.6131 52.6977
20.6586 51.9483
20.7038 52.0242
20.7493 51.3509
20.7945 51.3157
20.84 51.3292
20.8853 51.1788
20.9307 51.1759
20.976 51.3922
21.0215 51.2817
21.0668 51.5291
21.1122 51.9096
21.1575 52.1393
21.203 52.5564
21.2483 53.4407
21.2938 54.1061
21.3391 52.8633
21.3846 51.6481
21.4299 51.0083
21.4754 50.9505
21.5207 51.256
21.5662 51.9952
21.6116 52.8318
21.6571 53.8939
21.7024 54.4073
21.7479 55.5794
21.7933 57.452
21.8388 60.1291
21.8843 63.6312
21.9297 66.7282
21.9752 67.1889
22.0206 63.294
22.0661 58.9988
22.1115 57.6742
22.157 58.3562
22.2024 57.6689
22.248 54.7847
22.2933 52.6473
22.3389 51.5173
22.3843 51.1099
22.4299 50.9014
22.4753 50.9918
22.5208 51.0952
22.5662 50.8466
22.6118 51.5044
22.6572 51.9359
22.7028 52.7437
22.7483 52.852
22.7939 53.0767
22.8393 54.1585
22.8849 55.5325
22.9303 57.0624
22.9759 59.1322
23.0214 60.0259
23.067 58.0342
23.1126 54.6731
23.1581 52.1303
23.2037 51.5045
23.2492 51.9185
23.2948 52.0766
23.3403 52.4771
23.3859 52.5217
23.4314 53.1226
23.477 54.3093
23.5225 55.5409
23.5682 57.7218
23.6137 59.8507
23.6593 58.9959
23.7048 55.334
23.7505 51.404
23.796 49.1677
23.8417 48.3248
23.8872 47.7897
23.9329 47.5492
23.9784 47.0441
24.0241 46.9643
24.0697 46.5805
24.1154 46.1901
24.1609 46.027
24.2066 45.9538
24.2522 45.8198
24.2979 45.5911
24.3434 45.3375
24.3892 45.1346
24.4349 45.0453
24.4805 44.9907
24.5262 45.1588
24.5718 44.8781
24.6175 44.9767
24.6631 44.8925
24.7089 44.6273
24.7545 44.4382
24.8002 44.4269
24.8458 44.379
24.8916 44.4126
24.9372 44.5054
24.983 44.8005
25.0286 45.1126
25.0744 45.3603
25.12 45.769
25.1658 46.2372
25.2114 46.6003
25.2572 46.6268
25.3029 46.5349
25.3487 46.7187
25.3943 46.7341
25.4402 45.8913
25.4858 44.8927
25.5316 43.5965
25.5773 42.9827
25.6231 42.8807
25.669 42.5344
25.7147 42.5823
25.7605 42.4694
25.8062 42.5516
25.8521 42.5825
25.8977 42.6086
25.9436 42.8208
25.9893 42.6513
26.0352 43.0838
26.0809 43.3394
26.1268 43.673
26.1725 43.4759
26.2184 43.0862
26.2641 42.5549
26.31 42.3085
26.3557 42.2808
26.4017 42.2427
26.4474 42.4027
26.4933 42.5033
26.5391 43.053
26.585 43.1387
26.6308 43.6359
26.6767 44.0353
26.7225 43.9126
26.7684 43.5981
26.8142 42.9161
26.8601 42.4113
26.9059 42.0115
26.9519 41.4881
26.9979 41.3249
27.0437 40.9046
27.0896 40.6498
27.1354 40.7351
27.1814 40.5696
27.2272 40.4663
27.2732 40.3314
27.3191 40.2065
27.3651 40.2485
27.4109 40.1587
27.4569 40.302
27.5027 40.1934
27.5488 40.3916
27.5946 40.3312
27.6407 40.2614
27.6865 40.1862
27.7326 39.8773
27.7784 39.7619
27.8245 39.7756
27.8703 39.736
27.9164 40.0232
27.9623 40.0747
28.0084 40.17
28.0543 40.698
28.1003 40.8146
28.1462 40.6753
28.1923 40.2512
28.2384 39.7658
28.2843 39.4042
28.3304 39.0295
28.3764 38.4559
28.4225 38.2544
28.4684 37.9856
28.5145 37.5984
28.5605 37.5415
28.6066 37.4272
28.6526 37.2478
28.6987 37.2269
28.7447 37.0496
28.7908 37.0752
28.8368 37.0169
28.8829 37.0
28.9289 37.0049
28.9751 36.8592
29.0211 36.6891
29.0673 36.2774
29.1133 36.1692
29.1595 36.0815
29.2055 35.9398
29.2517 35.9377
29.2977 35.8077
29.3439 35.7369
29.3899 35.7559
29.4361 35.8109
29.4824 35.5556
29.5284 35.3966
29.5746 35.02
29.6207 34.726
29.6669 34.7251
29.713 34.5333
29.7593 34.586
29.8053 34.4706
29.8516 34.3891
29.8977 34.3959
29.9439 34.2142
29.99 34.1712
30.0363 33.9683
30.0824 34.1433
30.1287 33.9824
30.1748 33.8972
30.2211 33.8897
30.2673 33.7583
30.3136 33.8843
30.3597 33.7696
30.406 33.8137
30.4522 33.5781
30.4985 33.6509
30.5447 33.7019
30.591 33.5022
30.6372 33.6445
30.6835 33.64
30.7297 33.7934
30.7761 33.5466
30.8224 33.5032
30.8686 33.2861
30.915 33.0828
30.9612 32.9897
31.0076 32.8233
31.0538 32.8059
31.1002 32.7161
31.1464 32.3971
31.1928 32.4087
31.2391 32.3804
31.2855 32.3184
31.3317 32.3232
31.3781 32.3036
31.4244 32.3816
31.4708 32.3133
31.5171 32.2387
31.5636 32.1779
31.6098 31.961
31.6563 31.7975
31.7026 31.7161
31.7491 31.5958
31.7953 31.5762
31.8418 31.5647
31.8881 31.6269
31.9346 31.5972
31.9809 31.4584
32.0275 31.3153
32.074 31.2268
32.1203 31.0831
32.1668 30.8591
32.2132 30.8792
32.2597 30.5268
32.306 30.5753
32.3526 30.3965
32.399 30.4039
32.4455 30.1797
32.4919 30.0349
32.5385 30.0225
32.5848 29.865
32.6314 29.8465
32.6778 29.7494
32.7244 29.6052
32.7708 29.4965
32.8174 29.4982
32.8638 29.312
32.9104 29.3866
32.9569 29.3837
33.0035 29.2093
33.0499 29.1426
33.0966 29.1422
33.143 29.1239
33.1897 29.0146
33.2361 28.9442
33.2828 28.8527
33.3293 28.7914
33.3759 28.7207
33.4226 28.6041
33.4691 28.3989
33.5158 28.2685
33.5623 28.2057
33.609 27.9829
33.6555 27.942
33.7022 27.8427
33.7487 27.7908
33.7954 27.8207
33.842 27.6088
33.8887 27.6069
33.9353 27.5333
33.982 27.4347
34.0286 27.3548
34.0753 27.176
34.1219 27.0927
34.1687 26.9718
34.2152 26.9148
34.262 26.864
34.3086 26.7911
34.3554 26.6648
34.402 26.5562
34.4488 26.5778
34.4954 26.4594
34.5422 26.3852
34.5889 26.2324
34.6357 26.1636
34.6825 26.0454
34.7292 25.9815
34.776 25.8977
34.8227 25.8744
34.8695 25.8447
34.9162 25.7332
34.9631 25.621
35.0098 25.5885
35.0566 25.4815
35.1033 25.3819
35.1502 25.4388
35.1969 25.3012
35.2438 25.2119
35.2906 25.2776
35.3375 25.1275
35.3842 25.0719
35.4311 25.096
35.4779 24.9912
35.5248 24.9786
35.5716 24.843
35.6185 24.7923
35.6653 24.6881
35.7123 24.7055
35.759 24.6012
35.806 24.3703
35.8528 24.3259
35.8998 24.317
35.9468 24.2348
35.9936 24.1412
36.0406 24.1103
36.0874 24.0376
36.1345 23.9467
36.1813 23.8564
36.2283 23.7903
36.2752 23.6894
36.3222 23.7138
36.3691 23.5633
36.4161 23.5161
36.463 23.4599
36.5101 23.4499
36.557 23.3739
36.6041 23.1544
36.651 23.1581
36.6981 23.1397
36.745 23.0944
36.7921 23.0664
36.839 22.8777
36.8861 22.9015
36.9331 22.8344
36.9802 22.721
37.0272 22.5636
37.0743 22.5853
37.1213 22.505
37.1684 22.3664
37.2154 22.3067
37.2626 22.2785
37.3098 22.1871
37.3568 22.144
37.404 22.1174
37.451 21.9939
37.4982 21.9566
37.5452 21.8157
37.5924 21.7857
37.6395 21.8672
37.6867 21.7309
37.7337 21.5603
37.781 21.4306
37.8281 21.4349
37.8753 21.3984
37.9224 21.3015
37.9697 21.2249
38.0168 21.1012
38.064 21.1213
38.1111 21.0443
38.1584 20.9392
38.2056 20.8851
38.2529 20.7474
38.3 20.745
38.3473 20.7602
38.3945 20.5833
38.4418 20.5565
38.489 20.5525
38.5363 20.4219
38.5837 20.3265
38.6309 20.29
38.6782 20.2204
38.7254 20.1925
38.7728 20.0981
38.82 20.0678
38.8674 19.9581
38.9146 19.996
38.9621 19.837
39.0093 19.7731
39.0567 19.7428
39.104 19.698
39.1514 19.5055
39.1987 19.6471
39.2461 19.5093
39.2934 19.3525
39.3409 19.2796
39.3882 19.2677
39.4356 19.184
39.483 19.2652
39.5304 19.1186
39.5778 19.0744
39.6253 18.9664
39.6726 18.8935
39.7201 18.8751
39.7675 18.7646
39.815 18.7524
39.8624 18.6886
39.9099 18.6567
39.9575 18.573
40.0049 18.4408
40.0525 18.428
40.0999 18.3771
40.1474 18.3817
40.1949 18.2684
40.2425 18.2255
40.2899 18.1921
40.3375 18.152
40.385 18.0595
40.4326 17.9949
40.48 17.8929
40.5277 17.8899
40.5752 17.7994
40.6228 17.7748
40.6703 17.6909
40.718 17.6738
40.7655 17.5787
40.8132 17.5283
40.8607 17.4978
40.9084 17.4556
40.9559 17.3882
41.0036 17.3812
41.0512 17.3023
41.0989 17.1982
41.1465 17.1548
41.1942 17.0464
41.242 16.9703
41.2896 16.9245
41.3373 16.907
41.3849 16.9109
41.4327 16.8015
41.4803 16.7569
41.5281 16.6858
41.5758 16.5962
41.6236 16.551
41.6712 16.478
41.7191 16.4158
41.7667 16.4667
41.8146 16.3528
41.8622 16.2629
41.9101 16.2342
41.9578 16.1757
42.0057 16.1394
42.0534 16.0816
42.1013 16.0314
42.149 16.0151
42.1969 15.9147
42.2446 15.8209
42.2925 15.8088
42.3403 15.7414
42.3882 15.7424
42.436 15.7034
42.4839 15.614
42.5319 15.5753
42.5797 15.4642
42.6277 15.4289
42.6755 15.4015
42.7235 15.3004
42.7713 15.286
42.8193 15.2096
42.8671 15.151
42.9152 15.1176
42.963 15.0749
43.0111 15.0398
43.0589 14.9579
43.107 14.8953
43.1549 14.8899
43.2029 14.862
43.2508 14.7747
43.2989 14.6798
43.3468 14.6553
43.3949 14.5896
43.4429 14.5677
43.491 14.5269
43.5389 14.5089
43.5871 14.4116
43.635 14.3733
43.6832 14.3459
43.7312 14.2694
43.7793 14.225
43.8273 14.1737
43.8755 14.1233
43.9237 14.0611
43.9717 14.0229
44.0199 13.9435
44.068 13.8954
44.1162 13.8158
44.1642 13.8713
44.2125 13.7652
44.2606 13.7517
44.3088 13.6343
44.3569 13.6375
44.4052 13.6245
44.4533 13.5136
44.5016 13.4257
44.5497 13.4622
44.598 13.3757
44.6461 13.354
44.6945 13.3095
44.7426 13.24
44.791 13.2141
44.8391 13.1619
44.8875 13.1423
44.9357 13.0753
44.984 12.9989
45.0322 13.0093
45.0806 12.9424
45.1288 12.8987
45.1773 12.7697
45.2257 12.7443
45.2739 12.7348
45.3224 12.7132
45.3706 12.6644
45.4191 12.6
45.4673 12.5577
45.5158 12.4875
45.5641 12.4687
45.6126 12.447
45.6609 12.3532
45.7094 12.3306
45.7577 12.3095
45.8063 12.2042
45.8546 12.2452
45.9031 12.1703
45.9515 12.145
46.0001 12.0913
46.0484 12.0254
46.097 11.9747
46.1454 11.957
46.194 11.9254
46.2424 11.8733
46.291 11.7964
46.3395 11.8102
46.3881 11.7016
46.4365 11.7338
46.4852 11.6037
46.5337 11.6096
46.5823 11.5916
46.631 11.508
46.6795 11.4807
46.7282 11.4653
46.7767 11.4
46.8254 11.3316
46.8739 11.2911
46.9226 11.2751
46.9712 11.2434
47.0199 11.1857
47.0685 11.1552
47.1173 11.0998
47.1658 11.0319
47.2146 11.0588
47.2632 10.9718
47.312 10.944
47.3606 10.9243
47.4095 10.8356
47.4581 10.83
47.5069 10.7985
47.5556 10.6958
47.6044 10.7122
47.6531 10.6644
47.702 10.568
47.7507 10.5509
47.7996 10.5733
47.8483 10.4746
47.8972 10.4768
47.9461 10.409
47.9948 10.3979
48.0438 10.3376
48.0925 10.3277
48.1415 10.2719
48.1902 10.2163
48.2392 10.1706
48.288 10.1526
48.337 10.151
48.3858 10.0795
48.4348 10.0752
48.4837 10.056
48.5327 9.99496
48.5815 9.93397
48.6306 9.92469
48.6795 9.88379
48.7285 9.83983
48.7774 9.85979
48.8265 9.78196
48.8754 9.72768
48.9245 9.7139
48.9734 9.66311
49.0226 9.61528
49.0715 9.57943
49.1206 9.56119
49.1696 9.51945
49.2188 9.50202
49.2679 9.40328
49.3169 9.40396
49.3661 9.36753
49.4151 9.3318
49.4643 9.31876
49.5134 9.24775
49.5626 9.19894
49.6117 9.21587
49.6609 9.13482
49.71 9.07579
49.7592 9.09471
49.8083 9.02549
49.8576 8.97804
49.9067 8.98336
49.956 8.92461
50.0052 8.89763
50.0545 8.90826
50.1036 8.85354
50.153 8.8332
50.2022 8.80497
50.2515 8.76663
50.3007 8.70698
50.3501 8.65455
50.3993 8.63128
50.4487 8.58042
50.498 8.58658
50.5474 8.59121
50.5966 8.47019
50.6461 8.48789
50.6955 8.4542
50.7448 8.41143
50.7943 8.36436
50.8436 8.32084
50.8931 8.29488
50.9424 8.30041
50.9919 8.23902
51.0413 8.22787
51.0908 8.21036
51.1402 8.16419
51.1897 8.11967
51.2391 8.07284
51.2887 8.02572
51.3381 7.98366
51.3877 7.98714
51.4371 7.94844
51.4867 7.88792
51.5362 7.87067
51.5858 7.86014
51.6353 7.7581
51.6849 7.77063
51.7344 7.7403
51.7841 7.73698
51.8336 7.66294
51.8833 7.66467
51.9328 7.59577
51.9826 7.56571
52.0323 7.56637
52.0818 7.52925
52.1316 7.45627
52.1812 7.48329
52.231 7.40911
52.2806 7.38824
52.3304 7.37246
52.38 7.33062
52.4298 7.28359
52.4794 7.28106
52.5293 7.23011
52.5789 7.23106
52.6288 7.16062
52.6785 7.16739
52.7284 7.14275
52.7781 7.11039
52.828 7.10567
52.8777 7.03595
52.9276 7.00607
52.9774 7.02162
53.0273 6.94533
53.0771 6.89967
53.1271 6.91212
53.1769 6.84207
53.2269 6.84724
53.2767 6.79169
53.3267 6.79754
53.3765 6.76066
53.4266 6.73887
53.4766 6.67978
53.5265 6.66076
53.5765 6.64919
53.6264 6.60143
53.6765 6.57261
53.7264 6.54568
53.7765 6.53161
53.8265 6.46732
53.8766 6.42966
53.9266 6.4229
53.9767 6.39298
54.0267 6.36872
54.0769 6.3696
54.1269 6.26456
54.1771 6.26157
54.2271 6.27414
54.2773 6.187
54.3274 6.18907
54.3776 6.11054
54.4277 6.05563
54.478 6.05718
54.528 6.01083
54.5783 5.95549
54.6285 5.94402
54.6788 5.8524
54.7289 5.87023
54.7792 5.8396
54.8296 5.76153
54.8798 5.76851
54.9301 5.66511
54.9803 5.64873
55.0307 5.65457
55.0809 5.58942
55.1314 5.47779
55.1816 5.45022
55.232 5.40555
55.2823 5.35473
55.3328 5.32943
55.383 5.2375
55.4335 5.21881
55.4838 5.15132
55.5344 5.12046
55.5847 5.13853
55.6352 5.09744
55.6856 5.048
55.7361 5.02354