File: XRD/Ni3Fe_FD0870.xy
TT I
1.27165 7.8189
1.31627 6.48041
1.36089 7.01604
1.40551 5.75742
1.45013 5.76483
1.49476 6.33859
1.53938 6.3845
1.584 5.54128
1.62863 5.01687
1.67325 4.85565
1.71787 5.11844
1.7625 5.00371
1.80712 5.39763
1.85174 5.12253
1.89636 4.70384
1.94099 4.88985
1.98562 4.7284
2.03025 4.25989
2.07487 4.33698
2.11949 5.27015
2.16411 5.20428
2.20874 15.2038
2.25338 26.0893
2.298 6.25757
2.34263 5.91084
2.38725 6.587
2.43188 6.47457
2.4765 7.56672
2.52115 7.72569
2.56577 7.86375
2.6104 8.71645
2.65503 8.16704
2.69965 8.70866
2.7443 8.40275
2.78893 8.70345
2.83356 8.61628
2.87818 8.90069
2.92281 9.26541
2.96744 9.52883
3.01209 10.505
3.05672 11.5786
3.10135 12.462
3.14599 13.279
3.19062 14.8216
3.23527 14.8834
3.2799 16.2136
3.32454 16.8065
3.36917 17.8862
3.4138 18.7135
3.45844 19.862
3.50309 20.9881
3.54773 21.6016
3.59237 23.8105
3.637 100.65
3.68164 64.1932
3.7263 26.4973
3.77094 26.1861
3.81558 26.4794
3.86022 27.6924
3.90486 29.0388
3.9495 29.7234
3.99416 30.5152
4.0388 32.0332
4.08344 33.8776
4.12809 34.7184
4.17273 37.1951
4.21738 42.7216
4.26204 270.999
4.30669 245.099
4.35133 49.2674
4.39598 44.3697
4.44063 54.0898
4.4853 67.7287
4.52995 49.746
4.5746 50.6753
4.61925 52.7714
4.6639 54.7901
4.70855 57.159
4.75322 60.1862
4.79788 62.6877
4.84253 66.2258
4.88719 69.8997
4.93184 73.7604
4.97652 78.8586
5.02118 85.1027
5.06583 91.9503
5.11049 101.647
5.15515 170.611
5.19981 290.025
5.24449 2411.32
5.28916 12823.2
5.33382 2927.97
5.37848 179.115
5.42315 125.338
5.46783 110.999
5.5125 104.057
5.55716 99.9893
5.60183 96.8322
5.6465 95.3776
5.69117 92.5215
5.73586 90.6174
5.78053 89.8458
5.8252 88.5909
5.86988 89.1724
5.91455 90.9083
5.95924 96.6083
6.00392 170.957
6.0486 803.643
6.09328 4330.52
6.13795 3212.67
6.18263 226.31
6.22733 90.2956
6.27201 81.7677
6.3167 104.321
6.36138 80.792
6.40606 68.3982
6.45075 66.3468
6.49545 64.7992
6.54014 63.0481
6.58483 62.3119
6.62952 62.1405
6.67421 95.871
6.71892 155.094
6.76361 69.8975
6.8083 57.9617
6.853 56.804
6.89769 56.374
6.94239 56.4517
6.98711 55.5898
7.03181 55.1533
7.07651 54.7294
7.12121 54.6929
7.16591 54.9547
7.21063 55.2804
7.25533 71.3575
7.30004 192.028
7.34475 96.5478
7.38945 56.3429
7.43416 54.328
7.47889 53.8192
7.5236 54.2141
7.56831 55.207
7.61303 56.7442
7.65774 57.4088
7.70247 55.7236
7.74719 55.4068
7.79191 56.09
7.83663 55.9969
7.88135 57.3255
7.92607 58.0325
7.97081 59.087
8.01553 59.7394
8.06026 61.3851
8.10498 62.8103
8.14971 73.5181
8.19446 72.214
8.23919 68.547
8.28392 70.4054
8.32865 72.6552
8.37339 76.7409
8.41812 83.562
8.46288 113.397
8.50761 144.217
8.55235 329.033
8.59709 1110.77
8.64183 2250.7
8.68658 973.897
8.73134 171.227
8.77609 97.3192
8.82083 90.982
8.86558 87.9902
8.91033 88.3843
8.9551 91.079
8.99985 84.3271
9.04461 82.1107
9.08936 81.6545
9.13412 80.4564
9.17888 80.688
9.22365 81.6833
9.26841 80.8608
9.31318 81.4507
9.35794 81.07
9.4027 81.5425
9.44749 82.4124
9.49226 82.9722
9.53703 83.7777
9.5818 86.0231
9.62657 90.4475
9.67134 98.3197
9.71614 92.5005
9.76091 92.6492
9.80569 94.5754
9.85047 97.7067
9.89525 123.44
9.94005 136.024
9.98484 154.906
10.0296 294.556
10.0744 742.168
10.1192 1757.19
10.164 1606.65
10.2088 407.803
10.2536 124.485
10.2984 111.96
10.3432 114.528
10.388 102.841
10.4328 111.541
10.4776 146.941
10.5224 266.74
10.5672 522.138
10.612 504.412
10.6568 202.132
10.7017 96.0333
10.7465 85.388
10.7913 82.1757
10.8361 79.9077
10.8809 77.681
10.9257 77.5392
10.9706 78.381
11.0154 73.9674
11.0602 71.7881
11.105 70.9555
11.1499 75.9007
11.1947 84.3607
11.2395 74.5721
11.2844 69.6864
11.3292 66.3114
11.374 65.0164
11.4189 64.5661
11.4637 64.083
11.5086 64.6496
11.5534 68.0877
11.5983 65.1754
11.6431 62.7307
11.688 61.9351
11.7328 62.1418
11.7777 61.7116
11.8225 61.8592
11.8674 61.6476
11.9122 61.9275
11.9571 61.778
12.002 62.5193
12.0468 65.162
12.0917 75.2698
12.1366 97.5266
12.1814 150.447
12.2263 208.922
12.2712 169.507
12.3161 98.1084
12.3609 70.4224
12.4058 63.7073
12.4507 63.4367
12.4956 63.301
12.5405 63.6109
12.5853 64.7246
12.6302 73.1812
12.6751 79.2456
12.72 69.5271
12.7649 66.7371
12.8098 67.4432
12.8547 68.7101
12.8996 69.8058
12.9445 70.9047
12.9894 72.5611
13.0343 74.0977
13.0792 77.2338
13.1242 83.7889
13.1691 104.358
13.214 137.197
13.2589 226.078
13.3038 368.361
13.3487 430.138
13.3937 263.742
13.4386 123.585
13.4835 100.47
13.5285 112.621
13.5734 148.385
13.6183 241.471
13.6633 352.703
13.7082 344.176
13.7531 185.156
13.7981 96.2663
13.843 80.355
13.888 78.354
13.9329 75.8829
13.9779 74.5954
14.0228 73.2583
14.0678 71.8066
14.1127 71.406
14.1577 71.5231
14.2027 70.3085
14.2476 69.3186
14.2926 69.4232
14.3376 70.9214
14.3825 69.4933
14.4275 67.631
14.4725 67.4916
14.5175 67.9233
14.5624 67.8441
14.6074 70.1844
14.6524 71.0584
14.6974 69.1768
14.7424 69.8972
14.7874 75.1368
14.8324 83.8825
14.8774 104.185
14.9224 147.551
14.9674 207.336
15.0124 216.279
15.0574 146.409
15.1024 89.5084
15.1474 71.3248
15.1924 69.4302
15.2374 70.404
15.2824 69.4406
15.3274 67.4798
15.3725 65.8182
15.4175 65.1381
15.4625 65.1838
15.5076 65.5043
15.5526 65.0951
15.5976 64.4167
15.6426 65.2037
15.6877 69.1772
15.7327 75.8025
15.7778 89.9647
15.8228 122.493
15.8679 170.277
15.9129 196.591
15.958 156.42
16.003 94.1851
16.0481 67.0225
16.0931 63.9869
16.1382 61.9888
16.1833 60.0111
16.2283 58.2011
16.2734 57.6641
16.3185 58.0296
16.3636 58.9358
16.4086 57.2987
16.4537 55.5752
16.4988 54.776
16.5439 54.7338
16.589 54.385
16.6341 53.9646
16.6792 53.6409
16.7243 53.9942
16.7694 54.2389
16.8145 54.2462
16.8596 54.3871
16.9047 56.234
16.9498 56.5716
16.9949 55.0125
17.04 54.6984
17.0851 55.8604
17.1302 57.2971
17.1754 60.0807
17.2205 65.0894
17.2656 73.3204
17.3108 82.9979
17.3559 81.8912
17.401 70.0495
17.4462 60.7304
17.4913 57.8573
17.5365 58.242
17.5815 58.1877
17.6268 58.3916
17.6718 59.4135
17.7171 59.8959
17.7622 60.2657
17.8074 60.6754
17.8525 62.3704
17.8977 66.049
17.9428 71.0644
17.9881 78.9345
18.0331 96.6775
18.0784 120.932
18.1237 139.018
18.1688 128.972
18.214 101.213
18.2591 84.6082
18.3044 89.0445
18.3495 99.4808
18.3948 104.73
18.4399 95.0504
18.4852 76.7967
18.5303 64.8837
18.5756 61.2895
18.6207 60.4435
18.666 59.7713
18.7112 59.0081
18.7565 57.9623
18.8016 57.6866
18.8469 56.9963
18.892 56.8128
18.9374 56.2927
18.9825 56.3309
19.0278 56.0208
19.073 56.1702
19.1183 56.3635
19.1635 57.1795
19.2088 58.335
19.254 60.6666
19.2993 65.3001
19.3447 72.0712
19.3898 76.3019
19.4352 71.6327
19.4804 62.2825
19.5257 55.9491
19.5709 53.2818
19.6163 53.0644
19.6615 52.8727
19.7068 52.6092
19.752 52.5155
19.7974 52.7154
19.8426 53.31
19.888 53.8667
19.9332 55.0879
19.9786 57.5726
20.0238 61.081
20.0692 66.2336
20.1144 69.3383
20.1598 67.198
20.205 62.4337
20.2504 61.2553
20.2957 63.4241
20.3411 65.3802
20.3863 63.3648
20.4318 57.7195
20.477 53.0274
20.5224 51.0061
20.5677 50.4597
20.6131 49.4818
20.6586 49.0779
20.7038 48.6051
20.7493 48.3861
20.7945 48.1425
20.84 47.9851
20.8853 47.9207
20.9307 47.8543
20.976 47.9572
21.0215 47.8968
21.0668 48.279
21.1122 48.7358
21.1575 49.2921
21.203 50.2637
21.2483 50.8061
21.2938 50.7507
21.3391 49.3656
21.3846 48.3463
21.4299 47.6743
21.4754 47.5093
21.5207 47.825
21.5662 47.8871
21.6116 48.2556
21.6571 48.8921
21.7024 49.8201
21.7479 51.4896
21.7933 54.2903
21.8388 57.9642
21.8843 62.31
21.9297 63.6902
21.9752 62.4546
22.0206 58.6007
22.0661 55.7821
22.1115 55.3136
22.157 55.0665
22.2024 53.48
22.248 50.6916
22.2933 49.025
22.3389 48.3931
22.3843 48.229
22.4299 48.1482
22.4753 48.3131
22.5208 47.832
22.5662 47.7252
22.6118 47.8578
22.6572 48.0239
22.7028 48.4162
22.7483 48.6327
22.7939 49.3563
22.8393 50.999
22.8849 53.1016
22.9303 55.5054
22.9759 57.2145
23.0214 56.8127
23.067 53.8206
23.1126 50.4807
23.1581 48.5311
23.2037 48.1399
23.2492 48.1412
23.2948 47.938
23.3403 48.1755
23.3859 48.9363
23.4314 49.7676
23.477 51.5596
23.5225 54.0532
23.5682 56.4794
23.6137 57.3614
23.6593 54.8653
23.7048 51.0024
23.7505 47.6728
23.796 46.0774
23.8417 45.3772
23.8872 44.8655
23.9329 44.6326
23.9784 44.1979
24.0241 43.9492
24.0697 43.7876
24.1154 43.4949
24.1609 43.4077
24.2066 43.2457
24.2522 43.1255
24.2979 42.7342
24.3434 42.7356
24.3892 42.6263
24.4349 42.7048
24.4805 42.3751
24.5262 42.5469
24.5718 42.2938
24.6175 42.2233
24.6631 42.1917
24.7089 41.8716
24.7545 41.7948
24.8002 41.6261
24.8458 41.6212
24.8916 41.4407
24.9372 41.5739
24.983 41.9494
25.0286 42.1933
25.0744 42.6726
25.12 43.0777
25.1658 43.7432
25.2114 43.9702
25.2572 44.203
25.3029 44.2201
25.3487 44.4017
25.3943 44.1659
25.4402 42.976
25.4858 41.9457
25.5316 40.8364
25.5773 40.3435
25.6231 40.3521
25.669 39.9831
25.7147 39.8899
25.7605 39.8065
25.8062 39.8585
25.8521 40.1338
25.8977 40.0133
25.9436 40.2066
25.9893 40.4101
26.0352 40.9518
26.0809 41.0523
26.1268 41.3083
26.1725 40.8609
26.2184 40.2552
26.2641 39.691
26.31 39.4439
26.3557 39.5408
26.4017 39.5276
26.4474 39.8202
26.4933 40.229
26.5391 40.7119
26.585 41.2707
26.6308 41.6132
26.6767 41.6625
26.7225 41.3071
26.7684 40.926
26.8142 40.461
26.8601 39.9029
26.9059 39.5072
26.9519 38.9248
26.9979 38.5765
27.0437 38.3398
27.0896 38.1275
27.1354 38.3638
27.1814 38.0876
27.2272 37.9726
27.2732 37.9906
27.3191 37.7173
27.3651 38.0235
27.4109 37.9214
27.4569 37.903
27.5027 38.0529
27.5488 38.0046
27.5946 37.7932
27.6407 37.6125
27.6865 37.5495
27.7326 37.1929
27.7784 37.3069
27.8245 37.2553
27.8703 37.4057
27.9164 37.694
27.9623 37.8463
28.0084 38.2083
28.0543 38.6679
28.1003 38.4783
28.1462 38.3366
28.1923 38.0218
28.2384 37.3633
28.2843 37.1859
28.3304 36.706
28.3764 36.219
28.4225 35.8495
28.4684 35.6864
28.5145 35.5612
28.5605 35.3556
28.6066 35.162
28.6526 35.1861
28.6987 35.041
28.7447 35.0774
28.7908 34.9172
28.8368 35.0302
28.8829 35.0751
28.9289 34.9242
28.9751 34.6761
29.0211 34.4708
29.0673 34.2148
29.1133 34.1109
29.1595 33.9641
29.2055 33.8875
29.2517 33.7905
29.2977 33.8381
29.3439 33.819
29.3899 33.8901
29.4361 33.6256
29.4824 33.5474
29.5284 33.221
29.5746 32.8911
29.6207 32.733
29.6669 32.6664
29.713 32.5829
29.7593 32.374
29.8053 32.6049
29.8516 32.3862
29.8977 32.3037
29.9439 32.1596
29.99 32.2312
30.0363 32.1018
30.0824 32.102
30.1287 31.9571
30.1748 31.999
30.2211 32.057
30.2673 31.9456
30.3136 31.9197
30.3597 31.8825
30.406 31.7864
30.4522 31.6105
30.4985 31.5693
30.5447 31.7514
30.591 31.643
30.6372 31.7817
30.6835 31.8038
30.7297 31.8399
30.7761 31.7769
30.8224 31.6115
30.8686 31.45
30.915 31.1476
30.9612 31.1033
31.0076 30.8438
31.0538 30.7649
31.1002 30.7508
31.1464 30.5239
31.1928 30.4163
31.2391 30.5833
31.2855 30.5085
31.3317 30.4086
31.3781 30.4393
31.4244 30.509
31.4708 30.3522
31.5171 30.4478
31.5636 30.2908
31.6098 30.0991
31.6563 29.905
31.7026 29.8315
31.7491 29.6327
31.7953 29.8004
31.8418 29.7016
31.8881 29.7373
31.9346 29.6066
31.9809 29.5791
32.0275 29.4845
32.074 29.4676
32.1203 29.2424
32.1668 29.0843
32.2132 29.0405
32.2597 28.8429
32.306 28.808
32.3526 28.5654
32.399 28.5567
32.4455 28.312
32.4919 28.3273
32.5385 28.32
32.5848 28.1381
32.6314 28.1774
32.6778 28.0563
32.7244 27.8994
32.7708 27.7846
32.8174 27.7064
32.8638 27.6147
32.9104 27.6968
32.9569 27.6478
33.0035 27.472
33.0499 27.464
33.0966 27.4143
33.143 27.3807
33.1897 27.3985
33.2361 27.2587
33.2828 27.3259
33.3293 27.0623
33.3759 27.0867
33.4226 26.9407
33.4691 26.7633
33.5158 26.6954
33.5623 26.5999
33.609 26.4456
33.6555 26.2775
33.7022 26.259
33.7487 26.0168
33.7954 26.1319
33.842 26.0723
33.8887 26.0912
33.9353 25.9269
33.982 25.8385
34.0286 25.7671
34.0753 25.6221
34.1219 25.4991
34.1687 25.5364
34.2152 25.3981
34.262 25.3645
34.3086 25.2019
34.3554 25.2014
34.402 25.0436
34.4488 25.0098
34.4954 24.9091
34.5422 24.835
34.5889 24.6429
34.6357 24.6536
34.6825 24.5804
34.7292 24.4717
34.776 24.3835
34.8227 24.3881
34.8695 24.3673
34.9162 24.2696
34.9631 24.15
35.0098 24.1947
35.0566 23.9602
35.1033 23.972
35.1502 23.9844
35.1969 23.9028
35.2438 23.8683
35.2906 23.7612
35.3375 23.7037
35.3842 23.5817
35.4311 23.6839
35.4779 23.6369
35.5248 23.6017
35.5716 23.4049
35.6185 23.4187
35.6653 23.197
35.7123 23.1627
35.759 23.2081
35.806 23.0352
35.8528 22.9111
35.8998 22.9001
35.9468 22.8327
35.9936 22.7784
36.0406 22.7192
36.0874 22.6741
36.1345 22.6572
36.1813 22.5368
36.2283 22.3546
36.2752 22.3155
36.3222 22.3281
36.3691 22.2651
36.4161 22.1154
36.463 22.0919
36.5101 22.1597
36.557 22.0592
36.6041 21.9182
36.651 21.9682
36.6981 21.8461
36.745 21.7442
36.7921 21.6171
36.839 21.6085
36.8861 21.5413
36.9331 21.4234
36.9802 21.3541
37.0272 21.2852
37.0743 21.2173
37.1213 21.2293
37.1684 21.158
37.2154 21.0362
37.2626 21.0406
37.3098 20.9481
37.3568 20.8263
37.404 20.7782
37.451 20.6915
37.4982 20.6656
37.5452 20.4981
37.5924 20.5227
37.6395 20.5698
37.6867 20.4605
37.7337 20.356
37.781 20.2707
37.8281 20.2314
37.8753 20.1938
37.9224 20.1057
37.9697 19.9502
38.0168 19.9296
38.064 19.8567
38.1111 19.8126
38.1584 19.7179
38.2056 19.693
38.2529 19.6526
38.3 19.5425
38.3473 19.5775
38.3945 19.4777
38.4418 19.4164
38.489 19.4169
38.5363 19.2489
38.5837 19.2456
38.6309 19.1816
38.6782 19.0725
38.7254 18.992
38.7728 18.9277
38.82 18.9171
38.8674 18.8218
38.9146 18.8243
38.9621 18.7377
39.0093 18.6989
39.0567 18.5692
39.104 18.5604
39.1514 18.4444
39.1987 18.4285
39.2461 18.3565
39.2934 18.302
39.3409 18.2272
39.3882 18.162
39.4356 18.145
39.483 18.0447
39.5304 18.0078
39.5778 18.0078
39.6253 17.9047
39.6726 17.8712
39.7201 17.8673
39.7675 17.7352
39.815 17.6816
39.8624 17.6484
39.9099 17.6933
39.9575 17.5439
40.0049 17.4371
40.0525 17.3664
40.0999 17.4158
40.1474 17.301
40.1949 17.309
40.2425 17.1409
40.2899 17.1142
40.3375 17.1045
40.385 17.0395
40.4326 17.0133
40.48 16.9213
40.5277 16.865
40.5752 16.8277
40.6228 16.7807
40.6703 16.6925
40.718 16.6416
40.7655 16.6073
40.8132 16.5233
40.8607 16.5415
40.9084 16.4878
40.9559 16.3641
41.0036 16.352
41.0512 16.2753
41.0989 16.2782
41.1465 16.1412
41.1942 16.1278
41.242 16.0516
41.2896 15.9923
41.3373 15.9485
41.3849 15.9454
41.4327 15.8882
41.4803 15.7932
41.5281 15.7836
41.5758 15.7051
41.6236 15.6383
41.6712 15.5951
41.7191 15.5652
41.7667 15.4173
41.8146 15.4467
41.8622 15.3846
41.9101 15.315
41.9578 15.2926
42.0057 15.2294
42.0534 15.2409
42.1013 15.1488
42.149 15.0727
42.1969 14.9818
42.2446 14.9915
42.2925 14.9339
42.3403 14.8701
42.3882 14.8206
42.436 14.8023
42.4839 14.7285
42.5319 14.7403
42.5797 14.6236
42.6277 14.5608
42.6755 14.5949
42.7235 14.4346
42.7713 14.4572
42.8193 14.4253
42.8671 14.3377
42.9152 14.3128
42.963 14.1857
43.0111 14.176
43.0589 14.139
43.107 14.0561
43.1549 14.0717
43.2029 13.9916
43.2508 13.9427
43.2989 13.9164
43.3468 13.8462
43.3949 13.7962
43.4429 13.756
43.491 13.7286
43.5389 13.6719
43.5871 13.6318
43.635 13.5787
43.6832 13.5721
43.7312 13.4336
43.7793 13.4642
43.8273 13.3607
43.8755 13.3378
43.9237 13.3171
43.9717 13.2887
44.0199 13.2129
44.068 13.1786
44.1162 13.1731
44.1642 13.0907
44.2125 13.0493
44.2606 13.0319
44.3088 12.9467
44.3569 12.9275
44.4052 12.8208
44.4533 12.8323
44.5016 12.7018
44.5497 12.7271
44.598 12.7311
44.6461 12.6207
44.6945 12.6055
44.7426 12.5533
44.791 12.4907
44.8391 12.4454
44.8875 12.426
44.9357 12.3612
44.984 12.3001
45.0322 12.2797
45.0806 12.2465
45.1288 12.1942
45.1773 12.1403
45.2257 12.0684
45.2739 12.0468
45.3224 12.0497
45.3706 11.9846
45.4191 11.9173
45.4673 11.8818
45.5158 11.8508
45.5641 11.7862
45.6126 11.7472
45.6609 11.7221
45.7094 11.675
45.7577 11.6667
45.8063 11.568
45.8546 11.5769
45.9031 11.5
45.9515 11.4836
46.0001 11.3973
46.0484 11.3633
46.097 11.3574
46.1454 11.2826
46.194 11.2792
46.2424 11.2509
46.291 11.1522
46.3395 11.1315
46.3881 11.0903
46.4365 11.0952
46.4852 11.0106
46.5337 10.9632
46.5823 10.9624
46.631 10.8564
46.6795 10.8744
46.7282 10.8632
46.7767 10.7934
46.8254 10.7202
46.8739 10.6836
46.9226 10.651
46.9712 10.5907
47.0199 10.583
47.0685 10.5407
47.1173 10.5034
47.1658 10.4498
47.2146 10.4571
47.2632 10.3762
47.312 10.3791
47.3606 10.3496
47.4095 10.3185
47.4581 10.2028
47.5069 10.1728
47.5556 10.1688
47.6044 10.0888
47.6531 10.0901
47.702 10.042
47.7507 10.0151
47.7996 9.95161
47.8483 9.95216
47.8972 9.88232
47.9461 9.87161
47.9948 9.82464
48.0438 9.76462
48.0925 9.74877
48.1415 9.70503
48.1902 9.66837
48.2392 9.69085
48.288 9.62282
48.337 9.58787
48.3858 9.52805
48.4348 9.5321
48.4837 9.52169
48.5327 9.46347
48.5815 9.40417
48.6306 9.40971
48.6795 9.35922
48.7285 9.26513
48.7774 9.26385
48.8265 9.25634
48.8754 9.17946
48.9245 9.19019
48.9734 9.12588
49.0226 9.1009
49.0715 9.05408
49.1206 9.0434
49.1696 8.99119
49.2188 8.94275
49.2679 8.92847
49.3169 8.88506
49.3661 8.84863
49.4151 8.83773
49.4643 8.78643
49.5134 8.74255
49.5626 8.68703
49.6117 8.67189
49.6609 8.64923
49.71 8.61782
49.7592 8.57061
49.8083 8.5496
49.8576 8.53696
49.9067 8.48434
49.956 8.4767
50.0052 8.40917
50.0545 8.37413
50.1036 8.35273
50.153 8.31189
50.2022 8.28486
50.2515 8.27201
50.3007 8.2432
50.3501 8.21988
50.3993 8.21068
50.4487 8.18014
50.498 8.117
50.5474 8.07396
50.5966 8.03224
50.6461 8.00151
50.6955 7.98348
50.7448 7.98963
50.7943 7.92953
50.8436 7.88276
50.8931 7.82785
50.9424 7.8212
50.9919 7.79374
51.0413 7.77273
51.0908 7.7713
51.1402 7.7318
51.1897 7.66779
51.2391 7.66688
51.2887 7.63004
51.3381 7.59595
51.3877 7.54932
51.4371 7.50031
51.4867 7.4835
51.5362 7.4189
51.5858 7.44282
51.6353 7.38805
51.6849 7.37917
51.7344 7.32405
51.7841 7.30771
51.8336 7.3109
51.8833 7.24678
51.9328 7.19063
51.9826 7.21105
52.0323 7.17999
52.0818 7.14917
52.1316 7.08907
52.1812 7.07099
52.231 7.02054
52.2806 6.99279
52.3304 7.01042
52.38 6.95848
52.4298 6.88282
52.4794 6.86282
52.5293 6.87089
52.5789 6.85498
52.6288 6.83
52.6785 6.76585
52.7284 6.79793
52.7781 6.72979
52.828 6.68782
52.8777 6.68572
52.9276 6.63471
52.9774 6.61079
53.0273 6.61368
53.0771 6.60098
53.1271 6.55246
53.1769 6.51739
53.2269 6.52137
53.2767 6.45388
53.3267 6.43953
53.3765 6.41506
53.4266 6.36592
53.4766 6.34634
53.5265 6.33601
53.5765 6.2923
53.6264 6.25063
53.6765 6.2427
53.7264 6.19415
53.7765 6.21142
53.8265 6.16781
53.8766 6.12568
53.9266 6.12914
53.9767 6.0743
54.0267 6.07211
54.0769 6.03099
54.1269 5.98971
54.1771 5.93233
54.2271 5.96221
54.2773 5.8922
54.3274 5.88683
54.3776 5.85384
54.4277 5.82305
54.478 5.73586
54.528 5.71944
54.5783 5.71299
54.6285 5.68157
54.6788 5.59113
54.7289 5.59058
54.7792 5.50924
54.8296 5.49722
54.8798 5.43954
54.9301 5.42816
54.9803 5.35758
55.0307 5.40481
55.0809 5.28622
55.1314 5.31091
55.1816 5.16945
55.232 5.14334
55.2823 5.16921
55.3328 5.04995
55.383 5.01264
55.4335 5.00842
55.4838 4.98242
55.5344 4.88962
55.5847 4.87291
55.6352 4.8561
55.6856 4.80874
55.7361 4.7264