File: XRD/Ni3Fe_FD0535.xy
TT I
1.27165 7.15978
1.31627 6.79052
1.36089 6.94491
1.40551 5.95057
1.45013 6.36119
1.49476 6.33245
1.53938 5.77515
1.584 5.33684
1.62863 5.03701
1.67325 4.6992
1.71787 4.85549
1.7625 5.0631
1.80712 4.90711
1.85174 4.71871
1.89636 4.44715
1.94099 5.2134
1.98562 5.10915
2.03025 4.43679
2.07487 4.52848
2.11949 5.16622
2.16411 4.89145
2.20874 17.2488
2.25338 29.2116
2.298 6.44295
2.34263 5.32651
2.38725 5.56011
2.43188 5.54363
2.4765 6.30327
2.52115 6.28841
2.56577 6.85813
2.6104 7.84348
2.65503 7.55485
2.69965 7.93666
2.7443 7.34597
2.78893 7.8881
2.83356 8.45716
2.87818 8.43381
2.92281 8.74544
2.96744 9.52571
3.01209 10.4019
3.05672 11.1659
3.10135 12.2285
3.14599 13.1607
3.19062 14.682
3.23527 14.8437
3.2799 16.1341
3.32454 17.1739
3.36917 18.0584
3.4138 19.1783
3.45844 19.9256
3.50309 21.1522
3.54773 22.0928
3.59237 24.8189
3.637 116.099
3.68164 72.3725
3.7263 26.7747
3.77094 26.5465
3.81558 27.2936
3.86022 27.8979
3.90486 29.458
3.9495 29.986
3.99416 31.4013
4.0388 32.7929
4.08344 34.7097
4.12809 35.9856
4.17273 37.7136
4.21738 45.4039
4.26204 312.674
4.30669 284.552
4.35133 51.3534
4.39598 45.532
4.44063 57.4327
4.4853 73.0431
4.52995 51.2512
4.5746 51.5676
4.61925 53.365
4.6639 55.4293
4.70855 58.6008
4.75322 61.1835
4.79788 64.1884
4.84253 67.9237
4.88719 71.281
4.93184 74.8925
4.97652 80.9328
5.02118 86.9563
5.06583 94.9638
5.11049 106.785
5.15515 193.165
5.19981 369.755
5.24449 2706.76
5.28916 11825.2
5.33382 3344.41
5.37848 207.342
5.42315 133.366
5.46783 116.346
5.5125 107.554
5.55716 103.432
5.60183 99.9957
5.6465 98.2747
5.69117 95.112
5.73586 92.9639
5.78053 92.2608
5.8252 91.7131
5.86988 92.7788
5.91455 94.4631
5.95924 102.431
6.00392 205.226
6.0486 930.138
6.09328 4109.72
6.13795 3572.74
6.18263 297.873
6.22733 98.0192
6.27201 85.5642
6.3167 113.08
6.36138 85.2684
6.40606 70.5136
6.45075 68.5098
6.49545 66.6843
6.54014 64.59
6.58483 64.2275
6.62952 64.2562
6.67421 104.556
6.71892 175.676
6.76361 73.3576
6.8083 59.7921
6.853 58.296
6.89769 57.6319
6.94239 57.4808
6.98711 56.8384
7.03181 56.9482
7.07651 56.3477
7.12121 56.4133
7.16591 56.4313
7.21063 57.0213
7.25533 75.4706
7.30004 223.608
7.34475 106.699
7.38945 58.2217
7.43416 55.724
7.47889 55.305
7.5236 55.8867
7.56831 56.4927
7.61303 58.1925
7.65774 58.9965
7.70247 57.1838
7.74719 56.7398
7.79191 57.3529
7.83663 57.8616
7.88135 58.5827
7.92607 59.448
7.97081 60.5519
8.01553 61.3387
8.06026 62.7499
8.10498 64.8364
8.14971 77.028
8.19446 75.1028
8.23919 70.2956
8.28392 72.4662
8.32865 74.545
8.37339 79.0321
8.41812 86.5432
8.46288 123.162
8.50761 165.363
8.55235 376.46
8.59709 1089.85
8.64183 2165.36
8.68658 1089.33
8.73134 199.938
8.77609 102.084
8.82083 94.2713
8.86558 90.5827
8.91033 91.0501
8.9551 94.8663
8.99985 86.6609
9.04461 84.2279
9.08936 83.5412
9.13412 82.5508
9.17888 82.8031
9.22365 83.8617
9.26841 82.688
9.31318 83.2112
9.35794 83.0605
9.4027 83.4046
9.44749 84.0667
9.49226 85.1922
9.53703 86.2582
9.5818 87.7584
9.62657 93.7558
9.67134 102.627
9.71614 95.3948
9.76091 94.6425
9.80569 97.1171
9.85047 100.799
9.89525 131.659
9.94005 146.566
9.98484 172.899
10.0296 330.954
10.0744 749.245
10.1192 1626.17
10.164 1716.67
10.2088 470.061
10.2536 134.869
10.2984 117.421
10.3432 120.27
10.388 106.539
10.4328 117.547
10.4776 157.469
10.5224 267.077
10.5672 499.269
10.612 544.456
10.6568 226.502
10.7017 100.283
10.7465 87.6372
10.7913 84.1936
10.8361 82.0162
10.8809 79.8683
10.9257 79.5875
10.9706 80.7339
11.0154 75.9931
11.0602 73.6052
11.105 73.2573
11.1499 79.0936
11.1947 89.3346
11.2395 77.7904
11.2844 72.2392
11.3292 68.1033
11.374 66.7786
11.4189 66.4978
11.4637 65.8169
11.5086 66.6373
11.5534 70.7886
11.5983 66.9691
11.6431 64.8362
11.688 64.0398
11.7328 63.8573
11.7777 63.8269
11.8225 63.3154
11.8674 62.9574
11.9122 63.3687
11.9571 63.4673
12.002 64.378
12.0468 67.9728
12.0917 79.4237
12.1366 101.718
12.1814 147.352
12.2263 204.204
12.2712 178.686
12.3161 105.907
12.3609 73.8945
12.4058 65.9464
12.4507 65.2841
12.4956 65.3128
12.5405 65.4776
12.5853 66.5489
12.6302 76.8299
12.6751 84.4883
12.72 72.0132
12.7649 68.8435
12.8098 68.8573
12.8547 70.3978
12.8996 71.6835
12.9445 73.1223
12.9894 74.6996
13.0343 76.2264
13.0792 79.1303
13.1242 87.7382
13.1691 111.135
13.214 146.213
13.2589 224.264
13.3038 348.511
13.3487 437.452
13.3937 293.097
13.4386 132.705
13.4835 106.628
13.5285 119.549
13.5734 154.06
13.6183 231.653
13.6633 334.01
13.7082 354.83
13.7531 203.896
13.7981 103.2
13.843 83.3288
13.888 80.579
13.9329 77.7677
13.9779 76.575
14.0228 75.2545
14.0678 73.6357
14.1127 73.5396
14.1577 73.5814
14.2027 72.4759
14.2476 70.912
14.2926 71.3824
14.3376 73.1712
14.3825 71.5855
14.4275 69.5578
14.4725 69.2776
14.5175 69.2587
14.5624 69.7307
14.6074 72.5228
14.6524 73.0822
14.6974 71.1304
14.7424 72.0832
14.7874 78.531
14.8324 88.3612
14.8774 107.74
14.9224 145.989
14.9674 198.773
15.0124 222.699
15.0574 161.784
15.1024 96.8746
15.1474 73.8613
15.1924 71.5241
15.2374 72.8705
15.2824 72.2044
15.3274 69.3883
15.3725 67.8967
15.4175 67.2243
15.4625 66.947
15.5076 67.1492
15.5526 67.09
15.5976 66.465
15.6426 67.3023
15.6877 72.5405
15.7327 79.4828
15.7778 93.4011
15.8228 120.444
15.8679 161.868
15.9129 193.513
15.958 165.635
16.003 103.84
16.0481 70.7457
16.0931 66.5536
16.1382 64.3451
16.1833 61.7322
16.2283 59.8389
16.2734 59.1298
16.3185 59.8822
16.3636 60.9733
16.4086 59.1345
16.4537 56.9951
16.4988 56.2365
16.5439 56.1179
16.589 55.8846
16.6341 55.5812
16.6792 55.1556
16.7243 55.6763
16.7694 55.7185
16.8145 55.5486
16.8596 56.1065
16.9047 58.3474
16.9498 58.385
16.9949 56.6696
17.04 56.4303
17.0851 57.514
17.1302 59.2237
17.1754 61.8587
17.2205 66.4475
17.2656 73.4521
17.3108 81.914
17.3559 83.1048
17.401 73.7805
17.4462 63.6078
17.4913 59.9208
17.5365 59.7912
17.5815 60.0138
17.6268 60.1375
17.6718 61.1696
17.7171 61.8161
17.7622 61.8488
17.8074 62.4072
17.8525 64.3294
17.8977 68.3544
17.9428 73.6715
17.9881 81.6272
18.0331 96.6165
18.0784 116.955
18.1237 137.832
18.1688 135.689
18.214 108.919
18.2591 88.1892
18.3044 89.2003
18.3495 98.9414
18.3948 107.081
18.4399 100.473
18.4852 81.211
18.5303 67.7819
18.5756 63.1761
18.6207 62.2822
18.666 61.3873
18.7112 60.5452
18.7565 59.7579
18.8016 59.1916
18.8469 58.6824
18.892 58.187
18.9374 57.8243
18.9825 57.7189
19.0278 57.5935
19.073 57.7285
19.1183 58.2516
19.1635 59.2102
19.2088 60.2185
19.254 62.2222
19.2993 66.266
19.3447 72.2674
19.3898 76.9923
19.4352 74.4893
19.4804 64.9967
19.5257 57.9207
19.5709 55.038
19.6163 54.4474
19.6615 54.3384
19.7068 54.0456
19.752 53.8597
19.7974 54.1208
19.8426 54.9632
19.888 55.5723
19.9332 56.7684
19.9786 58.94
20.0238 61.8325
20.0692 66.5725
20.1144 70.3555
20.1598 69.9342
20.205 64.696
20.2504 62.386
20.2957 63.6594
20.3411 66.2175
20.3863 65.5714
20.4318 59.8278
20.477 54.8235
20.5224 52.6784
20.5677 51.8553
20.6131 50.9961
20.6586 50.3564
20.7038 50.0009
20.7493 49.7727
20.7945 49.5726
20.84 49.3343
20.8853 49.3773
20.9307 49.131
20.976 49.4073
21.0215 49.333
21.0668 49.5705
21.1122 49.9951
21.1575 50.4349
21.203 51.1793
21.2483 51.8664
21.2938 52.3673
21.3391 50.8407
21.3846 49.6445
21.4299 49.0211
21.4754 48.8791
21.5207 49.0689
21.5662 49.4529
21.6116 49.7743
21.6571 50.1782
21.7024 51.3321
21.7479 52.8553
21.7933 55.2968
21.8388 58.3695
21.8843 62.3288
21.9297 65.1263
21.9752 64.9083
22.0206 61.2162
22.0661 57.5167
22.1115 56.5352
22.157 56.6006
22.2024 55.4511
22.248 52.6503
22.2933 50.5872
22.3389 49.7578
22.3843 49.7556
22.4299 49.6107
22.4753 49.7589
22.5208 49.2964
22.5662 49.0736
22.6118 49.256
22.6572 49.3683
22.7028 49.7531
22.7483 50.0278
22.7939 50.8176
22.8393 52.2307
22.8849 54.1295
22.9303 56.0675
22.9759 58.314
23.0214 58.3728
23.067 55.7688
23.1126 52.268
23.1581 49.9449
23.2037 49.3885
23.2492 49.3803
23.2948 49.3618
23.3403 49.6968
23.3859 50.1304
23.4314 51.0738
23.477 52.6278
23.5225 54.6143
23.5682 56.7587
23.6137 58.4347
23.6593 56.9977
23.7048 52.8636
23.7505 49.3021
23.796 47.3471
23.8417 46.6361
23.8872 46.1911
23.9329 45.6665
23.9784 45.508
24.0241 45.2143
24.0697 45.0501
24.1154 44.6931
24.1609 44.6501
24.2066 44.5882
24.2522 44.2195
24.2979 43.9678
24.3434 43.8134
24.3892 43.7451
24.4349 43.5979
24.4805 43.4002
24.5262 43.6224
24.5718 43.3964
24.6175 43.4406
24.6631 43.3953
24.7089 43.0602
24.7545 42.9884
24.8002 42.7059
24.8458 42.7292
24.8916 42.6043
24.9372 42.6491
24.983 42.8946
25.0286 43.2255
25.0744 43.7982
25.12 44.0731
25.1658 44.8414
25.2114 45.1122
25.2572 45.2787
25.3029 45.1373
25.3487 45.4479
25.3943 45.3127
25.4402 44.3607
25.4858 43.2652
25.5316 42.0753
25.5773 41.5029
25.6231 41.3788
25.669 40.9625
25.7147 41.0874
25.7605 40.987
25.8062 40.8581
25.8521 41.17
25.8977 41.0793
25.9436 41.3498
25.9893 41.4321
26.0352 41.7209
26.0809 41.8693
26.1268 42.269
26.1725 41.9929
26.2184 41.4172
26.2641 40.809
26.31 40.5762
26.3557 40.6085
26.4017 40.563
26.4474 40.887
26.4933 41.0507
26.5391 41.6602
26.585 42.0536
26.6308 42.3193
26.6767 42.7154
26.7225 42.4967
26.7684 41.9818
26.8142 41.4516
26.8601 40.8836
26.9059 40.5198
26.9519 39.9698
26.9979 39.714
27.0437 39.465
27.0896 39.179
27.1354 39.262
27.1814 39.0625
27.2272 39.032
27.2732 39.0353
27.3191 38.6955
27.3651 38.9643
27.4109 38.7672
27.4569 38.8926
27.5027 38.891
27.5488 39.0382
27.5946 38.6976
27.6407 38.7215
27.6865 38.4628
27.7326 38.2583
27.7784 38.2799
27.8245 38.2692
27.8703 38.4662
27.9164 38.6261
27.9623 38.6846
28.0084 39.1476
28.0543 39.3885
28.1003 39.3202
28.1462 39.309
28.1923 39.0188
28.2384 38.5243
28.2843 38.0032
28.3304 37.6424
28.3764 37.235
28.4225 36.8896
28.4684 36.7167
28.5145 36.4634
28.5605 36.352
28.6066 36.1187
28.6526 36.1502
28.6987 36.06
28.7447 35.9555
28.7908 35.7565
28.8368 35.9123
28.8829 35.8362
28.9289 35.8033
28.9751 35.5524
29.0211 35.3548
29.0673 35.124
29.1133 35.0303
29.1595 34.7531
29.2055 34.6976
29.2517 34.7325
29.2977 34.7327
29.3439 34.7551
29.3899 34.6398
29.4361 34.5588
29.4824 34.4835
29.5284 34.1832
29.5746 33.946
29.6207 33.5893
29.6669 33.4545
29.713 33.38
29.7593 33.2637
29.8053 33.1923
29.8516 33.2096
29.8977 33.1186
29.9439 33.0526
29.99 32.9888
30.0363 32.8528
30.0824 32.9856
30.1287 32.6979
30.1748 32.7728
30.2211 32.8666
30.2673 32.7084
30.3136 32.7662
30.3597 32.6534
30.406 32.5883
30.4522 32.4557
30.4985 32.4413
30.5447 32.5632
30.591 32.5048
30.6372 32.5999
30.6835 32.5545
30.7297 32.5992
30.7761 32.5603
30.8224 32.3355
30.8686 32.1928
30.915 32.099
30.9612 31.9877
31.0076 31.6606
31.0538 31.5767
31.1002 31.4982
31.1464 31.3104
31.1928 31.3688
31.2391 31.2249
31.2855 31.2093
31.3317 31.2176
31.3781 31.2351
31.4244 31.2015
31.4708 31.2255
31.5171 31.1995
31.5636 31.0843
31.6098 30.8741
31.6563 30.7626
31.7026 30.625
31.7491 30.3815
31.7953 30.5316
31.8418 30.4927
31.8881 30.4609
31.9346 30.4032
31.9809 30.3972
32.0275 30.2664
32.074 30.0606
32.1203 30.0169
32.1668 29.9692
32.2132 29.7579
32.2597 29.6352
32.306 29.4724
32.3526 29.4001
32.399 29.2924
32.4455 29.1177
32.4919 29.0085
32.5385 29.0046
32.5848 28.7902
32.6314 28.8822
32.6778 28.7828
32.7244 28.6319
32.7708 28.5104
32.8174 28.4503
32.8638 28.3568
32.9104 28.4379
32.9569 28.4363
33.0035 28.1896
33.0499 28.1612
33.0966 28.0959
33.143 28.1476
33.1897 27.9915
33.2361 27.9353
33.2828 27.8728
33.3293 27.7965
33.3759 27.7834
33.4226 27.5292
33.4691 27.4721
33.5158 27.4144
33.5623 27.2441
33.609 27.0491
33.6555 26.977
33.7022 26.8954
33.7487 26.8547
33.7954 26.7327
33.842 26.6882
33.8887 26.6185
33.9353 26.5742
33.982 26.4619
34.0286 26.3973
34.0753 26.3158
34.1219 26.2377
34.1687 26.1275
34.2152 26.0365
34.262 25.8789
34.3086 25.9239
34.3554 25.8882
34.402 25.6785
34.4488 25.598
34.4954 25.5024
34.5422 25.3988
34.5889 25.3637
34.6357 25.3335
34.6825 25.2646
34.7292 25.1483
34.776 24.9913
34.8227 25.0823
34.8695 24.9258
34.9162 24.9374
34.9631 24.7968
35.0098 24.7346
35.0566 24.5923
35.1033 24.5186
35.1502 24.5618
35.1969 24.5005
35.2438 24.4537
35.2906 24.3876
35.3375 24.4001
35.3842 24.2935
35.4311 24.3193
35.4779 24.2002
35.5248 24.2424
35.5716 24.1696
35.6185 24.0461
35.6653 23.9681
35.7123 23.7622
35.759 23.6989
35.806 23.6674
35.8528 23.4603
35.8998 23.535
35.9468 23.3673
35.9936 23.3533
36.0406 23.3921
36.0874 23.2391
36.1345 23.1493
36.1813 23.102
36.2283 23.0252
36.2752 22.9697
36.3222 22.9113
36.3691 22.8444
36.4161 22.7168
36.463 22.7762
36.5101 22.7228
36.557 22.5785
36.6041 22.5029
36.651 22.4707
36.6981 22.3967
36.745 22.338
36.7921 22.2396
36.839 22.1855
36.8861 22.0667
36.9331 22.0191
36.9802 21.9348
37.0272 21.8425
37.0743 21.7488
37.1213 21.7035
37.1684 21.6503
37.2154 21.5648
37.2626 21.4766
37.3098 21.4817
37.3568 21.374
37.404 21.3581
37.451 21.2554
37.4982 21.2081
37.5452 21.124
37.5924 21.0518
37.6395 21.0943
37.6867 20.9249
37.7337 20.858
37.781 20.8421
37.8281 20.7521
37.8753 20.6722
37.9224 20.5471
37.9697 20.5009
38.0168 20.4538
38.064 20.4414
38.1111 20.3603
38.1584 20.2147
38.2056 20.1657
38.2529 20.1715
38.3 20.1369
38.3473 20.0283
38.3945 19.8977
38.4418 19.8614
38.489 19.8501
38.5363 19.7612
38.5837 19.6648
38.6309 19.6279
38.6782 19.6249
38.7254 19.4402
38.7728 19.4312
38.82 19.3798
38.8674 19.3765
38.9146 19.3089
38.9621 19.1979
39.0093 19.1884
39.0567 19.1042
39.104 19.0467
39.1514 18.8951
39.1987 18.8879
39.2461 18.914
39.2934 18.8247
39.3409 18.719
39.3882 18.5937
39.4356 18.6002
39.483 18.5246
39.5304 18.4463
39.5778 18.4473
39.6253 18.4414
39.6726 18.2945
39.7201 18.284
39.7675 18.2056
39.815 18.1566
39.8624 18.1296
39.9099 18.0587
39.9575 17.9347
40.0049 17.9057
40.0525 17.8218
40.0999 17.7833
40.1474 17.7409
40.1949 17.7194
40.2425 17.6178
40.2899 17.5585
40.3375 17.6118
40.385 17.4257
40.4326 17.4415
40.48 17.4125
40.5277 17.2658
40.5752 17.2789
40.6228 17.1514
40.6703 17.1588
40.718 17.1329
40.7655 17.0457
40.8132 17.0018
40.8607 17.0135
40.9084 16.8776
40.9559 16.8749
41.0036 16.7615
41.0512 16.6969
41.0989 16.671
41.1465 16.5468
41.1942 16.5586
41.242 16.4607
41.2896 16.4455
41.3373 16.3696
41.3849 16.3154
41.4327 16.2709
41.4803 16.2211
41.5281 16.1041
41.5758 16.052
41.6236 16.0172
41.6712 16.0249
41.7191 15.934
41.7667 15.7799
41.8146 15.9151
41.8622 15.7571
41.9101 15.7045
41.9578 15.6567
42.0057 15.6432
42.0534 15.5606
42.1013 15.5395
42.149 15.4103
42.1969 15.4421
42.2446 15.3398
42.2925 15.3666
42.3403 15.2269
42.3882 15.2358
42.436 15.1983
42.4839 15.1762
42.5319 15.1021
42.5797 14.9835
42.6277 14.9981
42.6755 14.9145
42.7235 14.8883
42.7713 14.8455
42.8193 14.7684
42.8671 14.6756
42.9152 14.627
42.963 14.6276
43.0111 14.6066
43.0589 14.4587
43.107 14.422
43.1549 14.4199
43.2029 14.3699
43.2508 14.3389
43.2989 14.2591
43.3468 14.208
43.3949 14.1135
43.4429 14.1514
43.491 14.0521
43.5389 14.0048
43.5871 13.9378
43.635 13.9448
43.6832 13.9052
43.7312 13.8209
43.7793 13.7487
43.8273 13.7814
43.8755 13.6579
43.9237 13.645
43.9717 13.5891
44.0199 13.48
44.068 13.5197
44.1162 13.4383
44.1642 13.419
44.2125 13.3718
44.2606 13.2566
44.3088 13.235
44.3569 13.2282
44.4052 13.2114
44.4533 13.1725
44.5016 13.0494
44.5497 13.0465
44.598 12.9741
44.6461 12.9239
44.6945 12.914
44.7426 12.8834
44.791 12.764
44.8391 12.7588
44.8875 12.7084
44.9357 12.6997
44.984 12.6223
45.0322 12.6173
45.0806 12.5274
45.1288 12.4466
45.1773 12.463
45.2257 12.3441
45.2739 12.3576
45.3224 12.2953
45.3706 12.2933
45.4191 12.1899
45.4673 12.1905
45.5158 12.1321
45.5641 12.0807
45.6126 12.1079
45.6609 11.9612
45.7094 11.9444
45.7577 11.9345
45.8063 11.8472
45.8546 11.8556
45.9031 11.8052
45.9515 11.7777
46.0001 11.7044
46.0484 11.6799
46.097 11.6352
46.1454 11.6417
46.194 11.5784
46.2424 11.4948
46.291 11.4548
46.3395 11.4406
46.3881 11.393
46.4365 11.3691
46.4852 11.3383
46.5337 11.3008
46.5823 11.2268
46.631 11.1661
46.6795 11.1608
46.7282 11.1258
46.7767 11.0823
46.8254 10.9718
46.8739 10.9856
46.9226 10.9321
46.9712 10.8894
47.0199 10.8276
47.0685 10.8053
47.1173 10.7515
47.1658 10.6958
47.2146 10.7128
47.2632 10.5878
47.312 10.609
47.3606 10.5799
47.4095 10.5462
47.4581 10.4817
47.5069 10.4825
47.5556 10.4461
47.6044 10.3771
47.6531 10.3294
47.702 10.2934
47.7507 10.276
47.7996 10.2411
47.8483 10.2019
47.8972 10.1848
47.9461 10.0715
47.9948 10.0972
48.0438 10.0067
48.0925 10.032
48.1415 9.96983
48.1902 9.92603
48.2392 9.91816
48.288 9.8637
48.337 9.84761
48.3858 9.81977
48.4348 9.76445
48.4837 9.74059
48.5327 9.68147
48.5815 9.64205
48.6306 9.67096
48.6795 9.56761
48.7285 9.55332
48.7774 9.52791
48.8265 9.44572
48.8754 9.39771
48.9245 9.40995
48.9734 9.36995
49.0226 9.35929
49.0715 9.3075
49.1206 9.29553
49.1696 9.26351
49.2188 9.16846
49.2679 9.19483
49.3169 9.09879
49.3661 9.06315
49.4151 9.06915
49.4643 9.0191
49.5134 8.97449
49.5626 8.91514
49.6117 8.90017
49.6609 8.85447
49.71 8.82581
49.7592 8.81387
49.8083 8.76003
49.8576 8.73645
49.9067 8.69998
49.956 8.68249
50.0052 8.62356
50.0545 8.62701
50.1036 8.58054
50.153 8.53955
50.2022 8.52296
50.2515 8.49569
50.3007 8.40875
50.3501 8.41573
50.3993 8.40922
50.4487 8.33778
50.498 8.34574
50.5474 8.32439
50.5966 8.26878
50.6461 8.2292
50.6955 8.19482
50.7448 8.20734
50.7943 8.14753
50.8436 8.0993
50.8931 8.05222
50.9424 8.02167
50.9919 7.97642
51.0413 7.9933
51.0908 7.9342
51.1402 7.90982
51.1897 7.84955
51.2391 7.86568
51.2887 7.79874
51.3381 7.76135
51.3877 7.73627
51.4371 7.73685
51.4867 7.64639
51.5362 7.67105
51.5858 7.61848
51.6353 7.59107
51.6849 7.5458
51.7344 7.52134
51.7841 7.52618
51.8336 7.48285
51.8833 7.43988
51.9328 7.39992
51.9826 7.37879
52.0323 7.37006
52.0818 7.30904
52.1316 7.27206
52.1812 7.27265
52.231 7.20672
52.2806 7.18841
52.3304 7.16924
52.38 7.16199
52.4298 7.1044
52.4794 7.04793
52.5293 7.07269
52.5789 7.0139
52.6288 6.99393
52.6785 6.96072
52.7284 6.92936
52.7781 6.87968
52.828 6.88243
52.8777 6.85308
52.9276 6.84421
52.9774 6.74329
53.0273 6.76853
53.0771 6.73996
53.1271 6.6993
53.1769 6.65914
53.2269 6.65954
53.2767 6.58844
53.3267 6.58394
53.3765 6.59646
53.4266 6.52219
53.4766 6.52184
53.5265 6.45809
53.5765 6.43214
53.6264 6.37312
53.6765 6.39388
53.7264 6.39939
53.7765 6.36338
53.8265 6.30707
53.8766 6.2683
53.9266 6.26118
53.9767 6.20486
54.0267 6.22038
54.0769 6.18718
54.1269 6.11749
54.1771 6.11939
54.2271 6.04047
54.2773 6.01723
54.3274 6.02517
54.3776 5.98647
54.4277 5.93113
54.478 5.95345
54.528 5.90716
54.5783 5.82201
54.6285 5.78399
54.6788 5.73846
54.7289 5.7516
54.7792 5.67091
54.8296 5.61685
54.8798 5.61394
54.9301 5.5446
54.9803 5.56518
55.0307 5.48652
55.0809 5.47593
55.1314 5.41304
55.1816 5.32406
55.232 5.29745
55.2823 5.28885
55.3328 5.22663
55.383 5.17917
55.4335 5.18171
55.4838 5.10263
55.5344 5.01473
55.5847 4.99936
55.6352 4.95848
55.6856 4.92046
55.7361 4.8442