File: XRD/Ni3Fe_FD0182.xy
TT I
1.27165 8.29413
1.31627 7.16674
1.36089 7.37599
1.40551 7.11986
1.45013 6.46103
1.49476 6.56679
1.53938 6.0296
1.584 5.47257
1.62863 5.51847
1.67325 5.3462
1.71787 5.70581
1.7625 5.2141
1.80712 4.44476
1.85174 5.1589
1.89636 4.96411
1.94099 5.19309
1.98562 4.32761
2.03025 4.95487
2.07487 5.03964
2.11949 5.02283
2.16411 4.8759
2.20874 4.31414
2.25338 3.78258
2.298 4.76145
2.34263 3.99057
2.38725 4.36181
2.43188 4.10359
2.4765 4.61601
2.52115 4.59233
2.56577 5.26689
2.6104 5.47758
2.65503 4.99948
2.69965 6.37467
2.7443 6.57536
2.78893 6.96395
2.83356 7.1949
2.87818 8.21762
2.92281 8.72265
2.96744 9.42099
3.01209 10.5062
3.05672 11.2718
3.10135 12.624
3.14599 13.1381
3.19062 14.2232
3.23527 15.0007
3.2799 15.7705
3.32454 17.1404
3.36917 17.9011
3.4138 18.5603
3.45844 20.0899
3.50309 20.5454
3.54773 21.1507
3.59237 21.8993
3.637 22.7637
3.68164 23.0705
3.7263 24.155
3.77094 25.0604
3.81558 25.9783
3.86022 26.5198
3.90486 27.7912
3.9495 28.6625
3.99416 29.6688
4.0388 30.6752
4.08344 32.107
4.12809 32.971
4.17273 34.2827
4.21738 35.8215
4.26204 36.823
4.30669 37.5006
4.35133 40.3645
4.39598 41.4912
4.44063 43.543
4.4853 45.1751
4.52995 47.5737
4.5746 49.6598
4.61925 51.8885
4.6639 54.0239
4.70855 57.1706
4.75322 60.2201
4.79788 62.9276
4.84253 66.5345
4.88719 70.883
4.93184 75.432
4.97652 82.8323
5.02118 91.4437
5.06583 100.727
5.11049 116.349
5.15515 152.037
5.19981 519.248
5.24449 3747.6
5.28916 8583.77
5.33382 6168.37
5.37848 407.57
5.42315 159.195
5.46783 126.338
5.5125 113.477
5.55716 107.672
5.60183 101.642
5.6465 98.8654
5.69117 97.7233
5.73586 95.7303
5.78053 95.0337
5.8252 95.3383
5.86988 98.347
5.91455 104.439
5.95924 122.134
6.00392 278.213
6.0486 1366.88
6.09328 2889.78
6.13795 4019.44
6.18263 638.327
6.22733 118.915
6.27201 88.4263
6.3167 78.4422
6.36138 72.9032
6.40606 68.5704
6.45075 67.0624
6.49545 64.8804
6.54014 63.028
6.58483 61.6455
6.62952 60.3421
6.67421 58.9978
6.71892 57.888
6.76361 57.134
6.8083 55.9499
6.853 55.3263
6.89769 54.945
6.94239 54.5146
6.98711 54.0806
7.03181 53.7795
7.07651 53.3686
7.12121 53.0163
7.16591 52.8987
7.21063 52.4787
7.25533 52.5172
7.30004 52.2245
7.34475 52.5384
7.38945 52.6671
7.43416 52.2347
7.47889 52.2829
7.5236 55.7778
7.56831 61.6491
7.61303 55.2009
7.65774 53.6265
7.70247 54.5036
7.74719 54.8354
7.79191 55.1985
7.83663 55.7229
7.88135 56.54
7.92607 57.4841
7.97081 58.946
8.01553 59.8464
8.06026 60.8572
8.10498 62.6685
8.14971 63.9407
8.19446 66.1737
8.23919 68.0445
8.28392 71.068
8.32865 73.9827
8.37339 78.946
8.41812 84.0669
8.46288 95.6242
8.50761 170.671
8.55235 589.094
8.59709 925.294
8.64183 1592.67
8.68658 1619.82
8.73134 389.829
8.77609 114.63
8.82083 96.9846
8.86558 91.4185
8.91033 88.7585
8.9551 85.6112
8.99985 84.2649
9.04461 83.6221
9.08936 82.4559
9.13412 81.8217
9.17888 82.034
9.22365 86.6276
9.26841 94.2781
9.31318 86.1704
9.35794 82.8966
9.4027 82.5132
9.44749 83.062
9.49226 84.0828
9.53703 84.8232
9.5818 86.5926
9.62657 87.8092
9.67134 89.4886
9.71614 91.4256
9.76091 93.8823
9.80569 95.9456
9.85047 99.4507
9.89525 104.356
9.94005 114.159
9.98484 183.813
10.0296 532.929
10.0744 756.236
10.1192 1098.9
10.164 1701.54
10.2088 930.453
10.2536 204.892
10.2984 115.973
10.3432 108.246
10.388 104.833
10.4328 121.358
10.4776 212.062
10.5224 266.282
10.5672 345.914
10.612 510.994
10.6568 365.682
10.7017 130.056
10.7465 90.7184
10.7913 84.1984
10.8361 81.2779
10.8809 78.6224
10.9257 75.9555
10.9706 74.8227
11.0154 73.118
11.0602 71.7359
11.105 70.6646
11.1499 69.1662
11.1947 68.2489
11.2395 66.9711
11.2844 66.5633
11.3292 65.9324
11.374 64.8893
11.4189 64.7732
11.4637 64.0546
11.5086 63.3359
11.5534 62.6838
11.5983 62.5853
11.6431 62.5971
11.688 62.2352
11.7328 62.0384
11.7777 61.7091
11.8225 61.5475
11.8674 61.7289
11.9122 62.7747
11.9571 65.6452
12.002 65.1109
12.0468 67.7508
12.0917 90.662
12.1366 108.235
12.1814 122.269
12.2263 157.179
12.2712 194.448
12.3161 135.074
12.3609 73.8543
12.4058 64.3674
12.4507 63.8203
12.4956 63.7375
12.5405 63.5302
12.5853 64.1542
12.6302 64.2756
12.6751 64.8467
12.72 65.6
12.7649 66.7398
12.8098 67.5509
12.8547 68.8327
12.8996 70.1893
12.9445 71.5555
12.9894 73.5578
13.0343 75.4729
13.0792 79.9763
13.1242 86.7475
13.1691 132.222
13.214 185.624
13.2589 210.787
13.3038 259.148
13.3487 366.806
13.3937 376.241
13.4386 200.318
13.4835 117.591
13.5285 152.493
13.5734 182.026
13.6183 199.794
13.6633 250.031
13.7082 339.403
13.7531 300.743
13.7981 149.47
13.843 87.6673
13.888 81.085
13.9329 78.1852
13.9779 76.7629
14.0228 74.8278
14.0678 73.3695
14.1127 73.1883
14.1577 74.1921
14.2027 72.6394
14.2476 70.9451
14.2926 70.2287
14.3376 69.4796
14.3825 68.9244
14.4275 68.6107
14.4725 68.861
14.5175 68.9647
14.5624 68.7686
14.6074 69.1838
14.6524 69.6334
14.6974 70.1464
14.7424 71.8437
14.7874 80.9584
14.8324 106.47
14.8774 121.638
14.9224 130.962
14.9674 155.326
15.0124 199.777
15.0574 204.377
15.1024 133.593
15.1474 81.0303
15.1924 71.3226
15.2374 69.6768
15.2824 68.2787
15.3274 67.3595
15.3725 66.9069
15.4175 66.5709
15.4625 66.0502
15.5076 65.9726
15.5526 66.0059
15.5976 66.1906
15.6426 66.8996
15.6877 74.0534
15.7327 94.7401
15.7778 107.656
15.8228 113.937
15.8679 129.835
15.9129 162.086
15.958 187.523
16.003 148.295
16.0481 86.8463
16.0931 66.2959
16.1382 62.0917
16.1833 60.6137
16.2283 59.1499
16.2734 58.6008
16.3185 57.8184
16.3636 57.1055
16.4086 56.4826
16.4537 56.0017
16.4988 55.3715
16.5439 55.2455
16.589 55.127
16.6341 54.7562
16.6792 54.2819
16.7243 54.7471
16.7694 54.6176
16.8145 54.6094
16.8596 54.7601
16.9047 55.1581
16.9498 55.209
16.9949 55.3216
17.04 55.782
17.0851 57.1176
17.1302 61.307
17.1754 64.8209
17.2205 65.89
17.2656 68.421
17.3108 74.3795
17.3559 81.2641
17.401 81.4771
17.4462 71.0231
17.4913 61.7372
17.5365 59.8579
17.5815 59.4659
17.6268 59.8798
17.6718 60.3555
17.7171 60.7232
17.7622 61.6758
17.8074 62.6555
17.8525 64.4328
17.8977 72.3224
17.9428 83.8056
17.9881 88.8322
18.0331 92.8519
18.0784 101.293
18.1237 118.816
18.1688 143.287
18.214 141.108
18.2591 109.844
18.3044 89.4881
18.3495 88.5454
18.3948 97.469
18.4399 104.985
18.4852 94.6008
18.5303 75.4985
18.5756 65.1773
18.6207 62.5869
18.666 61.3597
18.7112 60.4677
18.7565 59.6664
18.8016 59.4321
18.8469 58.7569
18.892 58.0761
18.9374 57.8891
18.9825 57.6097
19.0278 57.1421
19.073 57.1683
19.1183 57.9228
19.1635 59.8506
19.2088 62.1357
19.254 63.0034
19.2993 63.6733
19.3447 66.2966
19.3898 70.2069
19.4352 74.9255
19.4804 72.6356
19.5257 63.5717
19.5709 56.6212
19.6163 54.8031
19.6615 54.3564
19.7068 53.7644
19.752 53.7908
19.7974 53.7988
19.8426 55.1302
19.888 57.0212
19.9332 58.6024
19.9786 59.2264
20.0238 60.1155
20.0692 63.0173
20.1144 68.1322
20.1598 73.0303
20.205 71.0842
20.2504 65.4182
20.2957 61.8789
20.3411 62.7426
20.3863 65.7396
20.4318 64.4397
20.477 58.9875
20.5224 53.4741
20.5677 51.2942
20.6131 50.6278
20.6586 50.2047
20.7038 50.0107
20.7493 49.7892
20.7945 49.663
20.84 49.4006
20.8853 49.0653
20.9307 48.9784
20.976 49.264
21.0215 49.4089
21.0668 49.9238
21.1122 49.8738
21.1575 49.9609
21.203 50.3518
21.2483 50.8846
21.2938 51.9114
21.3391 51.8452
21.3846 50.8926
21.4299 49.6188
21.4754 48.9915
21.5207 49.1728
21.5662 49.3879
21.6116 49.8182
21.6571 51.6029
21.7024 53.469
21.7479 54.5025
21.7933 55.2318
21.8388 56.7017
21.8843 59.6105
21.9297 63.2771
21.9752 66.6209
22.0206 65.9441
22.0661 60.6373
22.1115 56.9552
22.157 56.3235
22.2024 56.9886
22.248 55.2452
22.2933 52.6286
22.3389 50.5463
22.3843 49.6127
22.4299 49.2702
22.4753 49.2141
22.5208 49.0367
22.5662 49.1261
22.6118 49.5136
22.6572 49.3932
22.7028 50.4712
22.7483 51.7809
22.7939 52.33
22.8393 52.8091
22.8849 53.1504
22.9303 54.2747
22.9759 55.8236
23.0214 58.2847
23.067 58.9698
23.1126 56.2976
23.1581 52.567
23.2037 50.2396
23.2492 49.5764
23.2948 50.17
23.3403 51.3558
23.3859 52.1773
23.4314 52.2477
23.477 52.5678
23.5225 53.3128
23.5682 54.4993
23.6137 56.8501
23.6593 58.6286
23.7048 57.235
23.7505 53.3317
23.796 49.4433
23.8417 47.1596
23.8872 46.4339
23.9329 46.2063
23.9784 45.7805
24.0241 45.4753
24.0697 45.233
24.1154 44.9231
24.1609 44.54
24.2066 44.4001
24.2522 44.2577
24.2979 44.0051
24.3434 43.9816
24.3892 43.6951
24.4349 43.6999
24.4805 43.4375
24.5262 43.5308
24.5718 43.4013
24.6175 43.4832
24.6631 43.4963
24.7089 43.3
24.7545 43.1462
24.8002 42.8583
24.8458 42.8831
24.8916 42.911
24.9372 43.2689
24.983 43.2573
25.0286 43.4193
25.0744 43.9369
25.12 44.1888
25.1658 44.8208
25.2114 45.1796
25.2572 45.4915
25.3029 45.4223
25.3487 45.3758
25.3943 45.4221
25.4402 45.3862
25.4858 44.861
25.5316 43.3308
25.5773 42.1238
25.6231 41.6899
25.669 41.1646
25.7147 41.1463
25.7605 41.0613
25.8062 41.346
25.8521 41.4401
25.8977 41.3568
25.9436 41.4001
25.9893 41.3107
26.0352 41.636
26.0809 41.5951
26.1268 42.1744
26.1725 42.4635
26.2184 42.3426
26.2641 41.8159
26.31 41.2595
26.3557 41.1525
26.4017 41.1594
26.4474 41.3266
26.4933 41.435
26.5391 41.6601
26.585 41.933
26.6308 42.2784
26.6767 42.5764
26.7225 43.1366
26.7684 43.0229
26.8142 42.5183
26.8601 41.7928
26.9059 41.2981
26.9519 40.7411
26.9979 40.4385
27.0437 39.9435
27.0896 39.5339
27.1354 39.5099
27.1814 39.4039
27.2272 39.3225
27.2732 39.3941
27.3191 39.1545
27.3651 39.1768
27.4109 39.0173
27.4569 38.9751
27.5027 39.0994
27.5488 39.0612
27.5946 39.0946
27.6407 39.2115
27.6865 39.0876
27.7326 38.9812
27.7784 38.8549
27.8245 38.733
27.8703 38.828
27.9164 39.0279
27.9623 38.9625
28.0084 39.152
28.0543 39.382
28.1003 39.6318
28.1462 39.9105
28.1923 39.83
28.2384 39.1248
28.2843 38.8228
28.3304 38.3415
28.3764 37.9973
28.4225 37.4804
28.4684 37.1436
28.5145 36.7558
28.5605 36.5135
28.6066 36.2943
28.6526 36.2887
28.6987 36.1964
28.7447 36.0419
28.7908 35.9739
28.8368 35.8696
28.8829 35.8448
28.9289 35.912
28.9751 35.7488
29.0211 35.6482
29.0673 35.4256
29.1133 35.264
29.1595 35.1495
29.2055 34.9448
29.2517 34.8086
29.2977 34.7769
29.3439 34.743
29.3899 34.5412
29.4361 34.5616
29.4824 34.7105
29.5284 34.5057
29.5746 34.3445
29.6207 33.9381
29.6669 33.6233
29.713 33.5373
29.7593 33.4136
29.8053 33.523
29.8516 33.3471
29.8977 33.2788
29.9439 33.1741
29.99 33.0975
30.0363 33.0602
30.0824 33.0931
30.1287 32.8428
30.1748 32.9265
30.2211 32.8684
30.2673 32.8625
30.3136 32.974
30.3597 32.9737
30.406 32.9478
30.4522 32.7751
30.4985 32.7479
30.5447 32.8021
30.591 32.6633
30.6372 32.6738
30.6835 32.6502
30.7297 32.6469
30.7761 32.8232
30.8224 32.8194
30.8686 32.6589
30.915 32.3662
30.9612 32.3274
31.0076 31.9875
31.0538 31.8748
31.1002 31.7854
31.1464 31.663
31.1928 31.5126
31.2391 31.4754
31.2855 31.4216
31.3317 31.4318
31.3781 31.4704
31.4244 31.4293
31.4708 31.2782
31.5171 31.3213
31.5636 31.4415
31.6098 31.2828
31.6563 31.106
31.7026 31.0401
31.7491 30.696
31.7953 30.7628
31.8418 30.6918
31.8881 30.6722
31.9346 30.5877
31.9809 30.6888
32.0275 30.5975
32.074 30.5495
32.1203 30.2754
32.1668 30.1837
32.2132 30.0994
32.2597 29.8272
32.306 29.7731
32.3526 29.5252
32.399 29.4388
32.4455 29.3245
32.4919 29.2978
32.5385 29.2497
32.5848 29.03
32.6314 29.0468
32.6778 28.9519
32.7244 28.8697
32.7708 28.6968
32.8174 28.7079
32.8638 28.5438
32.9104 28.6217
32.9569 28.5797
33.0035 28.3122
33.0499 28.3743
33.0966 28.3393
33.143 28.3165
33.1897 28.2056
33.2361 28.0371
33.2828 28.1054
33.3293 28.0483
33.3759 27.9022
33.4226 27.8914
33.4691 27.7807
33.5158 27.6367
33.5623 27.4176
33.609 27.3446
33.6555 27.1717
33.7022 27.0669
33.7487 26.9629
33.7954 26.9747
33.842 26.8035
33.8887 26.7373
33.9353 26.7484
33.982 26.6799
34.0286 26.5187
34.0753 26.4947
34.1219 26.4571
34.1687 26.196
34.2152 26.1582
34.262 26.0289
34.3086 26.0362
34.3554 25.9813
34.402 25.8545
34.4488 25.7359
34.4954 25.7532
34.5422 25.75
34.5889 25.5126
34.6357 25.4383
34.6825 25.4025
34.7292 25.1832
34.776 25.2136
34.8227 25.1064
34.8695 25.0507
34.9162 25.0182
34.9631 24.8556
35.0098 24.9121
35.0566 24.7621
35.1033 24.8023
35.1502 24.7135
35.1969 24.6773
35.2438 24.5523
35.2906 24.5403
35.3375 24.4701
35.3842 24.337
35.4311 24.3988
35.4779 24.4035
35.5248 24.331
35.5716 24.3164
35.6185 24.1338
35.6653 24.1578
35.7123 24.0212
35.759 23.9934
35.806 23.7704
35.8528 23.6194
35.8998 23.5819
35.9468 23.5538
35.9936 23.4595
36.0406 23.4277
36.0874 23.3703
36.1345 23.3049
36.1813 23.209
36.2283 23.0646
36.2752 23.0279
36.3222 23.0762
36.3691 23.0434
36.4161 22.8931
36.463 22.8365
36.5101 22.7479
36.557 22.7866
36.6041 22.5923
36.651 22.5691
36.6981 22.5397
36.745 22.472
36.7921 22.4042
36.839 22.2908
36.8861 22.2375
36.9331 22.2056
36.9802 22.0838
37.0272 21.9677
37.0743 21.9375
37.1213 21.823
37.1684 21.8382
37.2154 21.6609
37.2626 21.5862
37.3098 21.6407
37.3568 21.4851
37.404 21.5012
37.451 21.3414
37.4982 21.3547
37.5452 21.2114
37.5924 21.1152
37.6395 21.2127
37.6867 21.0975
37.7337 20.9938
37.781 20.8885
37.8281 20.8074
37.8753 20.7529
37.9224 20.6197
37.9697 20.6434
38.0168 20.5298
38.064 20.4324
38.1111 20.4289
38.1584 20.3387
38.2056 20.3163
38.2529 20.2478
38.3 20.2249
38.3473 20.1701
38.3945 20.0886
38.4418 19.9661
38.489 19.9217
38.5363 19.773
38.5837 19.779
38.6309 19.7026
38.6782 19.6105
38.7254 19.5921
38.7728 19.4775
38.82 19.4735
38.8674 19.4607
38.9146 19.3422
38.9621 19.3706
39.0093 19.2391
39.0567 19.2517
39.104 19.0702
39.1514 19.0732
39.1987 18.9954
39.2461 18.9706
39.2934 18.8925
39.3409 18.7667
39.3882 18.6922
39.4356 18.7316
39.483 18.657
39.5304 18.5975
39.5778 18.4968
39.6253 18.4955
39.6726 18.4024
39.7201 18.3768
39.7675 18.3072
39.815 18.2275
39.8624 18.1931
39.9099 18.2246
39.9575 18.0452
40.0049 18.0426
40.0525 17.911
40.0999 17.9425
40.1474 17.8929
40.1949 17.7546
40.2425 17.7004
40.2899 17.6423
40.3375 17.6127
40.385 17.5785
40.4326 17.5318
40.48 17.418
40.5277 17.4623
40.5752 17.3696
40.6228 17.2269
40.6703 17.1683
40.718 17.165
40.7655 17.1176
40.8132 17.0832
40.8607 17.0446
40.9084 16.9819
40.9559 16.8634
41.0036 16.8964
41.0512 16.7712
41.0989 16.7628
41.1465 16.7098
41.1942 16.6232
41.242 16.5454
41.2896 16.4879
41.3373 16.431
41.3849 16.3798
41.4327 16.3392
41.4803 16.2291
41.5281 16.2055
41.5758 16.1875
41.6236 16.0751
41.6712 16.1215
41.7191 16.041
41.7667 15.9618
41.8146 15.9433
41.8622 15.8504
41.9101 15.7943
41.9578 15.7931
42.0057 15.7116
42.0534 15.6179
42.1013 15.5914
42.149 15.5217
42.1969 15.5092
42.2446 15.4682
42.2925 15.3877
42.3403 15.3143
42.3882 15.3459
42.436 15.2148
42.4839 15.1766
42.5319 15.0887
42.5797 15.0868
42.6277 15.0005
42.6755 14.9595
42.7235 14.8876
42.7713 14.8844
42.8193 14.8102
42.8671 14.7472
42.9152 14.7357
42.963 14.661
43.0111 14.6077
43.0589 14.5787
43.107 14.5203
43.1549 14.4861
43.2029 14.402
43.2508 14.4079
43.2989 14.3037
43.3468 14.2726
43.3949 14.2291
43.4429 14.1534
43.491 14.1012
43.5389 14.0161
43.5871 14.0118
43.635 13.9739
43.6832 13.9492
43.7312 13.8456
43.7793 13.814
43.8273 13.8269
43.8755 13.7003
43.9237 13.6519
43.9717 13.6409
44.0199 13.6218
44.068 13.5428
44.1162 13.4331
44.1642 13.4835
44.2125 13.4377
44.2606 13.3123
44.3088 13.3497
44.3569 13.2166
44.4052 13.2726
44.4533 13.1671
44.5016 13.1482
44.5497 13.1229
44.598 13.0104
44.6461 13.0145
44.6945 12.9228
44.7426 12.8775
44.791 12.814
44.8391 12.8155
44.8875 12.7103
44.9357 12.719
44.984 12.6341
45.0322 12.5912
45.0806 12.5688
45.1288 12.5799
45.1773 12.481
45.2257 12.4416
45.2739 12.4041
45.3224 12.3767
45.3706 12.2655
45.4191 12.2291
45.4673 12.2433
45.5158 12.18
45.5641 12.1286
45.6126 12.0913
45.6609 12.0982
45.7094 12.0093
45.7577 11.9719
45.8063 11.9074
45.8546 11.866
45.9031 11.8484
45.9515 11.8016
46.0001 11.7479
46.0484 11.6976
46.097 11.6867
46.1454 11.6921
46.194 11.6032
46.2424 11.5344
46.291 11.47
46.3395 11.4517
46.3881 11.402
46.4365 11.372
46.4852 11.3259
46.5337 11.2891
46.5823 11.2856
46.631 11.1967
46.6795 11.1626
46.7282 11.1659
46.7767 11.0842
46.8254 11.0323
46.8739 10.9938
46.9226 11.004
46.9712 10.9545
47.0199 10.8647
47.0685 10.8197
47.1173 10.7982
47.1658 10.7726
47.2146 10.768
47.2632 10.6745
47.312 10.6736
47.3606 10.5862
47.4095 10.5451
47.4581 10.5556
47.5069 10.5098
47.5556 10.3948
47.6044 10.4421
47.6531 10.3266
47.702 10.3323
47.7507 10.3147
47.7996 10.2482
47.8483 10.2241
47.8972 10.2111
47.9461 10.1473
47.9948 10.0702
48.0438 10.0601
48.0925 10.0816
48.1415 10.0075
48.1902 9.92624
48.2392 9.92681
48.288 9.89788
48.337 9.90007
48.3858 9.87116
48.4348 9.79027
48.4837 9.79896
48.5327 9.7239
48.5815 9.67565
48.6306 9.65711
48.6795 9.65909
48.7285 9.58564
48.7774 9.52777
48.8265 9.52546
48.8754 9.4879
48.9245 9.42196
48.9734 9.41983
49.0226 9.39512
49.0715 9.35266
49.1206 9.30728
49.1696 9.29811
49.2188 9.22798
49.2679 9.17935
49.3169 9.1474
49.3661 9.14298
49.4151 9.10275
49.4643 9.05598
49.5134 9.03869
49.5626 8.95355
49.6117 8.94175
49.6609 8.91495
49.71 8.89444
49.7592 8.84179
49.8083 8.81838
49.8576 8.80092
49.9067 8.76312
49.956 8.71066
50.0052 8.71537
50.0545 8.68393
50.1036 8.62206
50.153 8.60726
50.2022 8.53952
50.2515 8.55927
50.3007 8.47297
50.3501 8.45866
50.3993 8.40877
50.4487 8.37508
50.498 8.37907
50.5474 8.34323
50.5966 8.32314
50.6461 8.25625
50.6955 8.22251
50.7448 8.17782
50.7943 8.13237
50.8436 8.13451
50.8931 8.1105
50.9424 8.05261
50.9919 8.0298
51.0413 8.02555
51.0908 7.97864
51.1402 7.96033
51.1897 7.87923
51.2391 7.84106
51.2887 7.86331
51.3381 7.81242
51.3877 7.76981
51.4371 7.71322
51.4867 7.71067
51.5362 7.70069
51.5858 7.68188
51.6353 7.58713
51.6849 7.59539
51.7344 7.54092
51.7841 7.50079
51.8336 7.53411
51.8833 7.45736
51.9328 7.42284
51.9826 7.4082
52.0323 7.36526
52.0818 7.34386
52.1316 7.30709
52.1812 7.29789
52.231 7.25403
52.2806 7.25123
52.3304 7.20012
52.38 7.15847
52.4298 7.13868
52.4794 7.11818
52.5293 7.10392
52.5789 7.11449
52.6288 7.0185
52.6785 6.95998
52.7284 6.91365
52.7781 6.93412
52.828 6.85776
52.8777 6.85534
52.9276 6.85696
52.9774 6.80682
53.0273 6.80696
53.0771 6.75561
53.1271 6.78267
53.1769 6.67197
53.2269 6.67219
53.2767 6.65486
53.3267 6.56996
53.3765 6.60685
53.4266 6.53864
53.4766 6.54765
53.5265 6.52164
53.5765 6.48569
53.6264 6.42769
53.6765 6.43422
53.7264 6.3655
53.7765 6.36732
53.8265 6.3654
53.8766 6.34725
53.9266 6.22631
53.9767 6.24173
54.0267 6.24846
54.0769 6.18143
54.1269 6.11078
54.1771 6.10981
54.2271 6.07273
54.2773 6.03934
54.3274 5.98515
54.3776 5.96254
54.4277 6.00509
54.478 5.91019
54.528 5.89191
54.5783 5.77096
54.6285 5.75775
54.6788 5.74487
54.7289 5.73605
54.7792 5.62104
54.8296 5.62961
54.8798 5.56794
54.9301 5.50371
54.9803 5.50029
55.0307 5.50572
55.0809 5.38572
55.1314 5.3462
55.1816 5.32345
55.232 5.26138
55.2823 5.2091
55.3328 5.14973
55.383 5.07237
55.4335 4.9924
55.4838 4.96278
55.5344 4.99635
55.5847 4.9275
55.6352 4.90482
55.6856 4.9012
55.7361 4.88794