File: XRD/Ni3Fe_FD0276.xy
TT I
1.27165 8.05287
1.31627 7.01373
1.36089 6.72893
1.40551 6.02713
1.45013 6.89035
1.49476 5.80255
1.53938 6.15434
1.584 5.34806
1.62863 5.38323
1.67325 5.33297
1.71787 5.57068
1.7625 5.37327
1.80712 4.99441
1.85174 5.30149
1.89636 4.63208
1.94099 4.95076
1.98562 5.16862
2.03025 4.83411
2.07487 5.05625
2.11949 5.46912
2.16411 4.90491
2.20874 14.0466
2.25338 21.6897
2.298 5.85124
2.34263 5.05812
2.38725 5.20087
2.43188 4.55442
2.4765 5.9138
2.52115 5.9166
2.56577 5.58439
2.6104 6.74782
2.65503 6.4982
2.69965 6.61354
2.7443 6.86189
2.78893 7.21494
2.83356 8.0872
2.87818 8.11646
2.92281 8.72246
2.96744 9.18563
3.01209 10.1752
3.05672 10.9278
3.10135 12.2223
3.14599 13.28
3.19062 14.2798
3.23527 15.1206
3.2799 16.2992
3.32454 17.4903
3.36917 18.4354
3.4138 19.642
3.45844 19.8788
3.50309 21.3118
3.54773 22.1237
3.59237 25.2087
3.637 92.1531
3.68164 59.5976
3.7263 26.9165
3.77094 26.7556
3.81558 27.439
3.86022 28.3246
3.90486 29.7667
3.9495 30.1516
3.99416 31.7484
4.0388 33.0451
4.08344 34.9352
4.12809 35.8704
4.17273 38.5586
4.21738 44.4985
4.26204 247.053
4.30669 218.358
4.35133 50.0382
4.39598 46.0956
4.44063 55.122
4.4853 67.0504
4.52995 53.5199
4.5746 53.7355
4.61925 55.4745
4.6639 57.594
4.70855 60.4512
4.75322 63.3684
4.79788 66.8046
4.84253 70.1973
4.88719 75.2091
4.93184 78.4689
4.97652 84.2203
5.02118 92.4122
5.06583 102.102
5.11049 117.572
5.15515 198.156
5.19981 524.446
5.24449 3355.19
5.28916 10745.2
5.33382 4114.84
5.37848 266.074
5.42315 148.732
5.46783 126.031
5.5125 115.0
5.55716 108.997
5.60183 104.681
5.6465 102.707
5.69117 100.216
5.73586 97.7162
5.78053 98.6825
5.8252 98.3358
5.86988 100.062
5.91455 103.064
5.95924 115.861
6.00392 272.762
6.0486 1164.64
6.09328 3736.85
6.13795 3660.47
6.18263 378.663
6.22733 108.056
6.27201 89.9498
6.3167 107.245
6.36138 84.681
6.40606 73.4521
6.45075 70.9114
6.49545 68.7717
6.54014 66.9132
6.58483 65.651
6.62952 65.7026
6.67421 95.7566
6.71892 146.183
6.76361 71.3126
6.8083 61.3606
6.853 59.7493
6.89769 59.4312
6.94239 59.0263
6.98711 58.113
7.03181 57.9567
7.07651 57.3575
7.12121 57.3818
7.16591 57.9152
7.21063 57.5143
7.25533 72.1031
7.30004 181.104
7.34475 94.1467
7.38945 58.7953
7.43416 56.8029
7.47889 56.7916
7.5236 56.6615
7.56831 57.479
7.61303 59.2459
7.65774 59.6318
7.70247 58.5185
7.74719 58.6678
7.79191 58.9803
7.83663 59.3433
7.88135 59.8935
7.92607 61.0101
7.97081 62.6668
8.01553 63.1954
8.06026 65.0411
8.10498 66.966
8.14971 76.17
8.19446 75.6079
8.23919 72.6121
8.28392 75.1291
8.32865 77.4176
8.37339 82.093
8.41812 89.9086
8.46288 121.519
8.50761 196.075
8.55235 471.356
8.59709 1070.45
8.64183 2045.24
8.68658 1243.2
8.73134 227.944
8.77609 109.557
8.82083 99.0262
8.86558 94.9551
8.91033 94.8154
8.9551 96.1046
8.99985 89.1939
9.04461 87.3069
9.08936 86.7406
9.13412 85.6838
9.17888 85.7876
9.22365 86.1691
9.26841 85.776
9.31318 86.4451
9.35794 87.0571
9.4027 87.0097
9.44749 87.5522
9.49226 88.3606
9.53703 89.5354
9.5818 91.1971
9.62657 96.3968
9.67134 103.179
9.71614 97.8257
9.76091 98.6241
9.80569 101.498
9.85047 105.094
9.89525 129.407
9.94005 144.617
9.98484 205.578
10.0296 419.368
10.0744 770.156
10.1192 1488.49
10.164 1740.07
10.2088 607.74
10.2536 154.469
10.2984 121.766
10.3432 121.448
10.388 111.017
10.4328 129.744
10.4776 182.093
10.5224 270.55
10.5672 454.973
10.612 532.501
10.6568 260.24
10.7017 108.154
10.7465 91.6562
10.7913 87.4695
10.8361 84.9227
10.8809 82.6369
10.9257 82.1728
10.9706 82.8701
11.0154 78.1273
11.0602 76.0391
11.105 75.0995
11.1499 78.8906
11.1947 86.9249
11.2395 77.4695
11.2844 73.1626
11.3292 70.1794
11.374 68.639
11.4189 68.3697
11.4637 67.6335
11.5086 67.9922
11.5534 70.8727
11.5983 68.2338
11.6431 66.3842
11.688 65.5505
11.7328 65.7334
11.7777 65.5239
11.8225 65.226
11.8674 65.0468
11.9122 65.4272
11.9571 65.5854
12.002 66.7297
12.0468 71.9831
12.0917 86.5152
12.1366 105.563
12.1814 141.407
12.2263 196.386
12.2712 189.656
12.3161 114.984
12.3609 75.6337
12.4058 67.9089
12.4507 67.3402
12.4956 67.3652
12.5405 67.1823
12.5853 68.202
12.6302 75.9238
12.6751 81.5893
12.72 73.0765
12.7649 70.9756
12.8098 71.2457
12.8547 72.5866
12.8996 74.1442
12.9445 75.3686
12.9894 77.1653
13.0343 79.0701
13.0792 82.6908
13.1242 94.1698
13.1691 125.513
13.214 161.43
13.2589 222.792
13.3038 329.902
13.3487 430.018
13.3937 321.989
13.4386 152.06
13.4835 116.197
13.5285 135.084
13.5734 164.339
13.6183 225.654
13.6633 319.282
13.7082 357.766
13.7531 234.655
13.7981 115.162
13.843 86.5621
13.888 83.6458
13.9329 80.7216
13.9779 79.2229
14.0228 78.0493
14.0678 76.1577
14.1127 75.4399
14.1577 75.7559
14.2027 74.6211
14.2476 73.3602
14.2926 73.5049
14.3376 74.845
14.3825 73.662
14.4275 71.8014
14.4725 71.6939
14.5175 71.7927
14.5624 71.8725
14.6074 73.9853
14.6524 74.8905
14.6974 73.501
14.7424 75.4699
14.7874 84.3477
14.8324 97.9482
14.8774 113.932
14.9224 143.912
14.9674 190.221
15.0124 221.096
15.0574 174.011
15.1024 105.907
15.1474 77.3188
15.1924 74.0697
15.2374 74.4691
15.2824 73.5196
15.3274 71.0735
15.3725 69.7596
15.4175 69.2651
15.4625 69.1174
15.5076 69.3531
15.5526 69.1659
15.5976 68.5813
15.6426 70.2069
15.6877 77.3947
15.7327 87.1017
15.7778 99.0115
15.8228 120.411
15.8679 156.043
15.9129 190.652
15.958 176.206
16.003 115.132
16.0481 74.6154
16.0931 68.08
16.1382 65.6036
16.1833 63.6422
16.2283 61.6873
16.2734 60.9704
16.3185 61.2317
16.3636 61.8536
16.4086 60.3366
16.4537 58.7418
16.4988 57.9579
16.5439 57.8726
16.589 57.7511
16.6341 57.2355
16.6792 56.8697
16.7243 57.2374
16.7694 57.3903
16.8145 57.184
16.8596 57.4305
16.9047 58.994
16.9498 59.2615
16.9949 58.1346
17.04 58.2339
17.0851 59.7893
17.1302 62.1103
17.1754 64.707
17.2205 68.0156
17.2656 74.0316
17.3108 82.059
17.3559 85.7287
17.401 77.9558
17.4462 67.1819
17.4913 62.1485
17.5365 61.8096
17.5815 61.7882
17.6268 62.135
17.6718 62.8459
17.7171 63.3071
17.7622 63.9466
17.8074 64.8067
17.8525 67.3629
17.8977 72.8528
17.9428 79.0555
17.9881 85.263
18.0331 97.3414
18.0784 114.923
18.1237 136.613
18.1688 141.403
18.214 118.261
18.2591 93.5457
18.3044 90.2317
18.3495 98.1231
18.3948 107.137
18.4399 103.477
18.4852 85.6508
18.5303 70.8102
18.5756 65.3789
18.6207 64.0986
18.666 63.1076
18.7112 62.5109
18.7565 61.7057
18.8016 61.2205
18.8469 60.5532
18.892 60.2051
18.9374 59.6364
18.9825 59.5755
19.0278 59.4164
19.073 59.4736
19.1183 60.1583
19.1635 61.2852
19.2088 62.3071
19.254 64.1673
19.2993 66.8996
19.3447 72.6532
19.3898 77.7875
19.4352 76.9242
19.4804 69.0931
19.5257 60.7586
19.5709 56.9851
19.6163 56.4904
19.6615 55.9358
19.7068 55.7906
19.752 55.7727
19.7974 56.0568
19.8426 57.174
19.888 57.9007
19.9332 58.9137
19.9786 60.4853
20.0238 63.1751
20.0692 67.5878
20.1144 71.83
20.1598 72.476
20.205 67.5638
20.2504 64.2561
20.2957 64.5302
20.3411 66.9335
20.3863 67.4105
20.4318 62.5056
20.477 57.2118
20.5224 54.1236
20.5677 53.324
20.6131 52.4403
20.6586 51.8885
20.7038 51.7092
20.7493 51.1934
20.7945 51.0413
20.84 51.1729
20.8853 50.7217
20.9307 50.6225
20.976 50.8333
21.0215 50.8093
21.0668 51.2303
21.1122 51.4944
21.1575 51.9471
21.203 52.4859
21.2483 53.1305
21.2938 53.5405
21.3391 52.3854
21.3846 51.2433
21.4299 50.5471
21.4754 50.5322
21.5207 50.6434
21.5662 50.8197
21.6116 51.3987
21.6571 52.3304
21.7024 53.3388
21.7479 54.5946
21.7933 56.8242
21.8388 59.5396
21.8843 63.39
21.9297 66.2039
21.9752 66.7892
22.0206 63.425
22.0661 59.1763
22.1115 57.7484
22.157 58.1301
22.2024 57.2638
22.248 54.6708
22.2933 52.5246
22.3389 51.3268
22.3843 51.1575
22.4299 51.0087
22.4753 50.8887
22.5208 50.7112
22.5662 50.5065
22.6118 50.8199
22.6572 51.024
22.7028 51.6564
22.7483 52.0557
22.7939 52.4871
22.8393 53.5817
22.8849 55.1508
22.9303 57.0212
22.9759 59.1316
23.0214 59.8187
23.067 58.07
23.1126 54.5419
23.1581 51.7754
23.2037 50.8917
23.2492 51.109
23.2948 51.104
23.3403 51.5163
23.3859 52.0881
23.4314 52.6852
23.477 53.837
23.5225 55.6349
23.5682 57.8018
23.6137 59.6464
23.6593 58.6678
23.7048 55.1701
23.7505 51.1799
23.796 48.943
23.8417 48.0783
23.8872 47.5196
23.9329 47.3121
23.9784 46.8729
24.0241 46.4871
24.0697 46.4392
24.1154 46.0081
24.1609 46.0027
24.2066 45.8779
24.2522 45.6408
24.2979 45.4289
24.3434 45.2121
24.3892 45.0612
24.4349 44.8181
24.4805 44.7165
24.5262 44.7764
24.5718 44.7456
24.6175 44.6741
24.6631 44.5016
24.7089 44.3399
24.7545 44.1665
24.8002 44.165
24.8458 44.1073
24.8916 43.8618
24.9372 44.2045
24.983 44.2334
25.0286 44.623
25.0744 44.8463
25.12 45.3368
25.1658 45.9722
25.2114 46.4406
25.2572 46.4644
25.3029 46.4928
25.3487 46.5046
25.3943 46.392
25.4402 45.7886
25.4858 44.7004
25.5316 43.4401
25.5773 42.6596
25.6231 42.691
25.669 42.2855
25.7147 42.2658
25.7605 42.3273
25.8062 42.2434
25.8521 42.4233
25.8977 42.1295
25.9436 42.3836
25.9893 42.3774
26.0352 43.0024
26.0809 43.1093
26.1268 43.4105
26.1725 43.2568
26.2184 42.8563
26.2641 42.2229
26.31 41.7977
26.3557 41.8857
26.4017 41.8999
26.4474 42.1157
26.4933 42.3475
26.5391 42.8031
26.585 43.0129
26.6308 43.4097
26.6767 43.7605
26.7225 43.8225
26.7684 43.3674
26.8142 42.6604
26.8601 42.2968
26.9059 41.8339
26.9519 41.299
26.9979 40.8844
27.0437 40.6009
27.0896 40.4064
27.1354 40.3491
27.1814 40.1697
27.2272 40.122
27.2732 40.1899
27.3191 39.9971
27.3651 40.0778
27.4109 39.9915
27.4569 39.9238
27.5027 40.0834
27.5488 39.9828
27.5946 40.0875
27.6407 39.9555
27.6865 39.7634
27.7326 39.5013
27.7784 39.5198
27.8245 39.3074
27.8703 39.7655
27.9164 39.73
27.9623 39.8329
28.0084 40.1505
28.0543 40.4933
28.1003 40.4754
28.1462 40.3685
28.1923 40.0707
28.2384 39.4569
28.2843 39.2691
28.3304 38.8022
28.3764 38.3196
28.4225 37.9714
28.4684 37.863
28.5145 37.5162
28.5605 37.3756
28.6066 37.1507
28.6526 37.1101
28.6987 37.1072
28.7447 36.8655
28.7908 36.9556
28.8368 36.862
28.8829 36.8649
28.9289 36.686
28.9751 36.5968
29.0211 36.3799
29.0673 36.2017
29.1133 35.9475
29.1595 35.8543
29.2055 35.7742
29.2517 35.686
29.2977 35.6765
29.3439 35.6357
29.3899 35.61
29.4361 35.594
29.4824 35.3896
29.5284 35.2886
29.5746 34.8847
29.6207 34.4531
29.6669 34.4738
29.713 34.4047
29.7593 34.3044
29.8053 34.297
29.8516 34.2113
29.8977 34.0619
29.9439 33.9995
29.99 33.9374
30.0363 33.7456
30.0824 33.8601
30.1287 33.6648
30.1748 33.7136
30.2211 33.851
30.2673 33.5447
30.3136 33.6462
30.3597 33.6893
30.406 33.4676
30.4522 33.4506
30.4985 33.3694
30.5447 33.4401
30.591 33.4486
30.6372 33.4994
30.6835 33.4559
30.7297 33.4259
30.7761 33.4828
30.8224 33.3349
30.8686 33.1617
30.915 32.9547
30.9612 32.8883
31.0076 32.6822
31.0538 32.4471
31.1002 32.4098
31.1464 32.3207
31.1928 32.2451
31.2391 32.2384
31.2855 32.0614
31.3317 32.1136
31.3781 32.2055
31.4244 32.019
31.4708 32.0768
31.5171 31.9998
31.5636 32.0549
31.6098 31.9085
31.6563 31.7826
31.7026 31.5449
31.7491 31.3961
31.7953 31.4942
31.8418 31.2555
31.8881 31.3366
31.9346 31.3664
31.9809 31.2608
32.0275 31.2054
32.074 31.1125
32.1203 30.906
32.1668 30.8037
32.2132 30.7514
32.2597 30.4124
32.306 30.4277
32.3526 30.255
32.399 30.0758
32.4455 30.0042
32.4919 29.9003
32.5385 29.88
32.5848 29.6526
32.6314 29.7258
32.6778 29.5997
32.7244 29.4259
32.7708 29.3228
32.8174 29.367
32.8638 29.2064
32.9104 29.2301
32.9569 29.1886
33.0035 29.0106
33.0499 29.0313
33.0966 28.9358
33.143 28.888
33.1897 28.7778
33.2361 28.8112
33.2828 28.7443
33.3293 28.5347
33.3759 28.5354
33.4226 28.4322
33.4691 28.2253
33.5158 28.1714
33.5623 28.0629
33.609 27.9044
33.6555 27.8775
33.7022 27.7545
33.7487 27.576
33.7954 27.5418
33.842 27.4528
33.8887 27.3891
33.9353 27.4468
33.982 27.2265
34.0286 27.0856
34.0753 27.082
34.1219 26.9675
34.1687 26.8993
34.2152 26.8988
34.262 26.7725
34.3086 26.6849
34.3554 26.6067
34.402 26.4663
34.4488 26.3758
34.4954 26.294
34.5422 26.329
34.5889 26.1114
34.6357 26.0602
34.6825 26.0066
34.7292 25.8836
34.776 25.787
34.8227 25.6836
34.8695 25.7115
34.9162 25.5919
34.9631 25.4485
35.0098 25.4988
35.0566 25.3134
35.1033 25.2923
35.1502 25.2359
35.1969 25.3191
35.2438 25.2333
35.2906 25.0171
35.3375 25.0061
35.3842 24.9515
35.4311 24.9622
35.4779 24.8312
35.5248 24.8938
35.5716 24.7667
35.6185 24.6629
35.6653 24.4939
35.7123 24.4929
35.759 24.4157
35.806 24.4069
35.8528 24.2086
35.8998 24.1939
35.9468 24.0211
35.9936 24.0542
36.0406 23.9404
36.0874 23.9261
36.1345 23.8453
36.1813 23.7952
36.2283 23.6705
36.2752 23.5457
36.3222 23.5748
36.3691 23.472
36.4161 23.3769
36.463 23.3461
36.5101 23.3933
36.557 23.2323
36.6041 23.1771
36.651 23.1352
36.6981 22.9799
36.745 22.99
36.7921 22.9322
36.839 22.7266
36.8861 22.7205
36.9331 22.6579
36.9802 22.613
37.0272 22.4603
37.0743 22.3336
37.1213 22.3948
37.1684 22.2855
37.2154 22.2525
37.2626 22.1495
37.3098 22.0961
37.3568 22.0402
37.404 21.9998
37.451 21.8679
37.4982 21.8286
37.5452 21.8103
37.5924 21.6523
37.6395 21.7216
37.6867 21.5819
37.7337 21.4433
37.781 21.3959
37.8281 21.3512
37.8753 21.1889
37.9224 21.22
37.9697 21.1499
38.0168 21.0574
38.064 21.0106
38.1111 20.9578
38.1584 20.8546
38.2056 20.8179
38.2529 20.7556
38.3 20.6412
38.3473 20.6945
38.3945 20.4989
38.4418 20.4331
38.489 20.4115
38.5363 20.3351
38.5837 20.2742
38.6309 20.2967
38.6782 20.136
38.7254 20.038
38.7728 19.965
38.82 19.9258
38.8674 19.9027
38.9146 19.8512
38.9621 19.8111
39.0093 19.7275
39.0567 19.6313
39.104 19.6104
39.1514 19.5025
39.1987 19.4749
39.2461 19.3976
39.2934 19.3675
39.3409 19.2333
39.3882 19.1635
39.4356 19.1904
39.483 19.0694
39.5304 19.0232
39.5778 19.0044
39.6253 18.9159
39.6726 18.8445
39.7201 18.8138
39.7675 18.7374
39.815 18.6923
39.8624 18.6018
39.9099 18.5592
39.9575 18.4601
40.0049 18.4764
40.0525 18.3201
40.0999 18.4145
40.1474 18.2984
40.1949 18.1674
40.2425 18.1059
40.2899 18.0659
40.3375 18.0499
40.385 17.9515
40.4326 17.9668
40.48 17.7677
40.5277 17.8296
40.5752 17.7479
40.6228 17.7012
40.6703 17.6579
40.718 17.6097
40.7655 17.5528
40.8132 17.4156
40.8607 17.4495
40.9084 17.3773
40.9559 17.2911
41.0036 17.3053
41.0512 17.2156
41.0989 17.1608
41.1465 17.0247
41.1942 17.0446
41.242 16.9971
41.2896 16.9009
41.3373 16.8369
41.3849 16.8454
41.4327 16.7242
41.4803 16.625
41.5281 16.7041
41.5758 16.5222
41.6236 16.5001
41.6712 16.4165
41.7191 16.3811
41.7667 16.3155
41.8146 16.2949
41.8622 16.2252
41.9101 16.2391
41.9578 16.0582
42.0057 16.0661
42.0534 16.0348
42.1013 15.9638
42.149 15.9026
42.1969 15.8616
42.2446 15.7976
42.2925 15.7939
42.3403 15.667
42.3882 15.6936
42.436 15.6066
42.4839 15.5004
42.5319 15.4743
42.5797 15.4707
42.6277 15.356
42.6755 15.3863
42.7235 15.2139
42.7713 15.2326
42.8193 15.1568
42.8671 15.1053
42.9152 15.0934
42.963 15.0041
43.0111 14.9097
43.0589 14.9296
43.107 14.8687
43.1549 14.8219
43.2029 14.7325
43.2508 14.7317
43.2989 14.685
43.3468 14.6324
43.3949 14.5739
43.4429 14.5174
43.491 14.4643
43.5389 14.3929
43.5871 14.3565
43.635 14.3186
43.6832 14.2499
43.7312 14.2347
43.7793 14.1473
43.8273 14.1321
43.8755 14.0317
43.9237 14.0091
43.9717 13.991
44.0199 13.8845
44.068 13.8545
44.1162 13.7892
44.1642 13.8197
44.2125 13.7516
44.2606 13.6505
44.3088 13.6518
44.3569 13.5631
44.4052 13.5653
44.4533 13.4645
44.5016 13.4496
44.5497 13.4103
44.598 13.347
44.6461 13.3437
44.6945 13.2806
44.7426 13.2599
44.791 13.1243
44.8391 13.1259
44.8875 13.0568
44.9357 13.0144
44.984 12.9744
45.0322 12.9162
45.0806 12.891
45.1288 12.8453
45.1773 12.7996
45.2257 12.7287
45.2739 12.6754
45.3224 12.657
45.3706 12.6202
45.4191 12.5777
45.4673 12.5462
45.5158 12.5002
45.5641 12.4146
45.6126 12.4155
45.6609 12.3427
45.7094 12.2839
45.7577 12.2451
45.8063 12.1479
45.8546 12.2033
45.9031 12.1184
45.9515 12.1186
46.0001 12.0018
46.0484 11.9996
46.097 11.9621
46.1454 11.8952
46.194 11.8948
46.2424 11.8189
46.291 11.7753
46.3395 11.7267
46.3881 11.6484
46.4365 11.6507
46.4852 11.6006
46.5337 11.5389
46.5823 11.5341
46.631 11.4609
46.6795 11.4551
46.7282 11.39
46.7767 11.3856
46.8254 11.2846
46.8739 11.2688
46.9226 11.2032
46.9712 11.1865
47.0199 11.1192
47.0685 11.1081
47.1173 11.0458
47.1658 11.0135
47.2146 10.9866
47.2632 10.9011
47.312 10.9243
47.3606 10.8481
47.4095 10.8179
47.4581 10.8013
47.5069 10.7319
47.5556 10.6721
47.6044 10.6378
47.6531 10.6464
47.702 10.5821
47.7507 10.5748
47.7996 10.479
47.8483 10.468
47.8972 10.4295
47.9461 10.4186
47.9948 10.3744
48.0438 10.3249
48.0925 10.279
48.1415 10.2475
48.1902 10.1967
48.2392 10.1772
48.288 10.1564
48.337 10.1166
48.3858 10.09
48.4348 10.0354
48.4837 10.0264
48.5327 9.96675
48.5815 9.8978
48.6306 9.91721
48.6795 9.83684
48.7285 9.81334
48.7774 9.77524
48.8265 9.73091
48.8754 9.6967
48.9245 9.65016
48.9734 9.57711
49.0226 9.62911
49.0715 9.54571
49.1206 9.53627
49.1696 9.47767
49.2188 9.43615
49.2679 9.39876
49.3169 9.37028
49.3661 9.31085
49.4151 9.28421
49.4643 9.24721
49.5134 9.25396
49.5626 9.18442
49.6117 9.14187
49.6609 9.12666
49.71 9.0537
49.7592 9.06608
49.8083 8.99781
49.8576 8.9882
49.9067 8.92298
49.956 8.93642
50.0052 8.88319
50.0545 8.85109
50.1036 8.80977
50.153 8.80297
50.2022 8.74868
50.2515 8.75374
50.3007 8.62709
50.3501 8.5932
50.3993 8.5952
50.4487 8.56284
50.498 8.55342
50.5474 8.52468
50.5966 8.47897
50.6461 8.41015
50.6955 8.42439
50.7448 8.39271
50.7943 8.36227
50.8436 8.31641
50.8931 8.28936
50.9424 8.25398
50.9919 8.21008
51.0413 8.17199
51.0908 8.1487
51.1402 8.14311
51.1897 8.08627
51.2391 8.02699
51.2887 8.00714
51.3381 7.98868
51.3877 7.99595
51.4371 7.91733
51.4867 7.87803
51.5362 7.88485
51.5858 7.82431
51.6353 7.78523
51.6849 7.72245
51.7344 7.76555
51.7841 7.70822
51.8336 7.65291
51.8833 7.61333
51.9328 7.56019
51.9826 7.55245
52.0323 7.54068
52.0818 7.50816
52.1316 7.49271
52.1812 7.45281
52.231 7.39749
52.2806 7.4123
52.3304 7.31273
52.38 7.32411
52.4298 7.3084
52.4794 7.2184
52.5293 7.22437
52.5789 7.23288
52.6288 7.17503
52.6785 7.13425
52.7284 7.11009
52.7781 7.10075
52.828 7.06072
52.8777 7.02692
52.9276 6.97128
52.9774 6.96265
53.0273 6.9629
53.0771 6.92348
53.1271 6.87289
53.1769 6.86637
53.2269 6.80891
53.2767 6.79274
53.3267 6.75362
53.3765 6.72959
53.4266 6.68254
53.4766 6.68919
53.5265 6.64234
53.5765 6.65966
53.6264 6.61459
53.6765 6.58023
53.7264 6.50312
53.7765 6.51549
53.8265 6.46587
53.8766 6.42186
53.9266 6.4357
53.9767 6.33339
54.0267 6.40796
54.0769 6.34642
54.1269 6.26021
54.1771 6.28212
54.2271 6.22295
54.2773 6.2047
54.3274 6.18699
54.3776 6.09148
54.4277 6.11094
54.478 6.05592
54.528 6.03436
54.5783 5.946
54.6285 5.89187
54.6788 5.91785
54.7289 5.86178
54.7792 5.82534
54.8296 5.76783
54.8798 5.71601
54.9301 5.69239
54.9803 5.6483
55.0307 5.6311
55.0809 5.57092
55.1314 5.59986
55.1816 5.49191
55.232 5.4542
55.2823 5.38797
55.3328 5.32501
55.383 5.28072
55.4335 5.26242
55.4838 5.17546
55.5344 5.13341
55.5847 5.09875
55.6352 5.08546
55.6856 5.02359
55.7361 5.00814