File: XRD/Ni3Fe_FD0871.xy
TT I
1.27165 7.37577
1.31627 7.05426
1.36089 6.81199
1.40551 6.40096
1.45013 5.96935
1.49476 5.63467
1.53938 6.23996
1.584 5.13096
1.62863 4.70249
1.67325 5.00846
1.71787 5.07119
1.7625 4.61243
1.80712 4.72241
1.85174 4.27613
1.89636 4.67729
1.94099 4.88816
1.98562 4.76932
2.03025 4.04633
2.07487 4.66359
2.11949 4.91517
2.16411 5.08728
2.20874 15.647
2.25338 25.4717
2.298 6.37766
2.34263 5.84323
2.38725 6.08849
2.43188 5.7001
2.4765 6.95249
2.52115 7.60857
2.56577 8.19448
2.6104 8.97642
2.65503 8.27089
2.69965 8.68633
2.7443 8.62532
2.78893 8.1929
2.83356 9.11844
2.87818 8.92505
2.92281 9.18727
2.96744 9.64199
3.01209 11.2023
3.05672 11.3952
3.10135 12.1708
3.14599 13.2854
3.19062 14.9411
3.23527 15.191
3.2799 15.5159
3.32454 16.7603
3.36917 17.8235
3.4138 19.1265
3.45844 19.8551
3.50309 20.5291
3.54773 21.9885
3.59237 24.2054
3.637 101.522
3.68164 64.6001
3.7263 26.3361
3.77094 26.297
3.81558 26.7799
3.86022 27.4396
3.90486 28.9335
3.9495 29.6514
3.99416 29.849
4.0388 32.0421
4.08344 33.7656
4.12809 34.8819
4.17273 36.6839
4.21738 42.5563
4.26204 274.406
4.30669 244.204
4.35133 49.1996
4.39598 44.7344
4.44063 54.3617
4.4853 67.6106
4.52995 49.6543
4.5746 50.4834
4.61925 52.7648
4.6639 54.8024
4.70855 57.3167
4.75322 59.6669
4.79788 62.8791
4.84253 66.1354
4.88719 69.6825
4.93184 73.3304
4.97652 78.2648
5.02118 84.7497
5.06583 91.3966
5.11049 101.923
5.15515 170.815
5.19981 290.0
5.24449 2406.91
5.28916 12822.6
5.33382 2934.82
5.37848 179.23
5.42315 125.324
5.46783 110.937
5.5125 103.623
5.55716 100.3
5.60183 96.6251
5.6465 95.0444
5.69117 92.6883
5.73586 89.9875
5.78053 89.5012
5.8252 88.7187
5.86988 89.3481
5.91455 90.7442
5.95924 96.2427
6.00392 170.831
6.0486 800.755
6.09328 4354.43
6.13795 3208.78
6.18263 228.285
6.22733 90.452
6.27201 81.6588
6.3167 104.117
6.36138 80.9125
6.40606 68.115
6.45075 66.312
6.49545 64.7637
6.54014 63.1303
6.58483 62.673
6.62952 62.0821
6.67421 96.7279
6.71892 154.952
6.76361 69.8494
6.8083 58.3808
6.853 56.6782
6.89769 56.6398
6.94239 56.3453
6.98711 55.5982
7.03181 55.3078
7.07651 54.72
7.12121 54.2522
7.16591 54.9266
7.21063 55.291
7.25533 72.2779
7.30004 194.857
7.34475 97.0397
7.38945 56.4371
7.43416 54.456
7.47889 54.0663
7.5236 54.3342
7.56831 54.8281
7.61303 56.5664
7.65774 57.2259
7.70247 55.4905
7.74719 55.3108
7.79191 56.1818
7.83663 56.293
7.88135 57.2768
7.92607 58.0549
7.97081 59.1791
8.01553 59.7183
8.06026 61.2466
8.10498 63.3331
8.14971 73.3125
8.19446 72.206
8.23919 68.5903
8.28392 70.542
8.32865 73.1185
8.37339 76.3892
8.41812 83.6071
8.46288 113.23
8.50761 144.595
8.55235 328.572
8.59709 1113.98
8.64183 2269.17
8.68658 974.889
8.73134 173.973
8.77609 97.741
8.82083 90.915
8.86558 88.09
8.91033 88.5996
8.9551 91.1958
8.99985 84.3003
9.04461 82.0251
9.08936 81.4271
9.13412 80.4752
9.17888 80.9616
9.22365 81.8717
9.26841 80.3596
9.31318 81.1479
9.35794 81.3044
9.4027 82.1754
9.44749 82.4641
9.49226 83.3865
9.53703 84.2735
9.5818 85.8155
9.62657 90.6792
9.67134 98.3136
9.71614 92.0386
9.76091 92.1273
9.80569 94.365
9.85047 97.8787
9.89525 124.27
9.94005 136.265
9.98484 155.64
10.0296 296.14
10.0744 744.316
10.1192 1760.58
10.164 1604.07
10.2088 405.485
10.2536 124.678
10.2984 111.937
10.3432 114.488
10.388 102.968
10.4328 111.267
10.4776 146.589
10.5224 266.266
10.5672 528.456
10.612 501.319
10.6568 200.341
10.7017 95.8488
10.7465 85.4427
10.7913 81.8337
10.8361 79.8187
10.8809 77.5913
10.9257 77.7698
10.9706 78.3987
11.0154 74.0414
11.0602 71.7241
11.105 70.7865
11.1499 75.9968
11.1947 84.6862
11.2395 74.464
11.2844 70.0433
11.3292 66.4331
11.374 65.3424
11.4189 64.425
11.4637 63.9842
11.5086 64.8333
11.5534 68.1811
11.5983 65.1974
11.6431 62.7311
11.688 62.0134
11.7328 61.951
11.7777 61.9622
11.8225 61.6722
11.8674 61.6599
11.9122 61.6124
11.9571 61.7859
12.002 62.1671
12.0468 65.2886
12.0917 75.1951
12.1366 97.3985
12.1814 149.864
12.2263 208.854
12.2712 168.799
12.3161 98.1146
12.3609 70.447
12.4058 63.9387
12.4507 63.2377
12.4956 63.3706
12.5405 63.7368
12.5853 64.4278
12.6302 73.1501
12.6751 79.4522
12.72 69.574
12.7649 66.6949
12.8098 67.0614
12.8547 68.7119
12.8996 69.8185
12.9445 70.7396
12.9894 72.4509
13.0343 74.043
13.0792 77.0429
13.1242 83.8372
13.1691 103.911
13.214 137.233
13.2589 226.225
13.3038 367.915
13.3487 428.508
13.3937 262.138
13.4386 123.699
13.4835 100.394
13.5285 112.677
13.5734 148.087
13.6183 241.011
13.6633 352.212
13.7082 342.85
13.7531 184.901
13.7981 96.1185
13.843 80.3335
13.888 78.0755
13.9329 75.8225
13.9779 74.6745
14.0228 73.2023
14.0678 71.631
14.1127 71.3788
14.1577 71.3946
14.2027 70.5814
14.2476 69.3815
14.2926 69.4977
14.3376 70.6485
14.3825 69.3453
14.4275 67.4702
14.4725 67.3674
14.5175 67.7381
14.5624 67.7155
14.6074 70.2355
14.6524 70.7892
14.6974 68.9873
14.7424 69.868
14.7874 75.2525
14.8324 84.0343
14.8774 104.659
14.9224 148.288
14.9674 207.646
15.0124 216.214
15.0574 146.056
15.1024 89.4149
15.1474 71.1992
15.1924 69.4757
15.2374 70.3502
15.2824 69.5758
15.3274 67.3116
15.3725 65.8741
15.4175 65.1402
15.4625 65.0678
15.5076 65.2666
15.5526 65.0528
15.5976 64.7008
15.6426 65.0408
15.6877 69.0521
15.7327 75.9795
15.7778 89.843
15.8228 122.277
15.8679 169.554
15.9129 197.248
15.958 157.273
16.003 94.2529
16.0481 67.1303
16.0931 64.0266
16.1382 62.2569
16.1833 59.7954
16.2283 58.1052
16.2734 57.7211
16.3185 58.0856
16.3636 58.7654
16.4086 57.2594
16.4537 55.4291
16.4988 54.6046
16.5439 54.7732
16.589 54.2462
16.6341 54.0993
16.6792 53.6817
16.7243 54.2979
16.7694 54.2399
16.8145 54.1643
16.8596 54.4789
16.9047 55.9312
16.9498 56.433
16.9949 54.8667
17.04 54.6973
17.0851 55.7055
17.1302 57.5256
17.1754 60.0954
17.2205 64.9079
17.2656 73.076
17.3108 82.9632
17.3559 81.5152
17.401 69.6564
17.4462 60.8779
17.4913 58.0574
17.5365 58.1971
17.5815 58.2935
17.6268 58.4572
17.6718 59.438
17.7171 59.6722
17.7622 60.1977
17.8074 60.6071
17.8525 62.3252
17.8977 65.9462
17.9428 70.6133
17.9881 79.15
18.0331 96.7559
18.0784 120.953
18.1237 138.967
18.1688 128.868
18.214 101.296
18.2591 84.2799
18.3044 88.8062
18.3495 99.526
18.3948 104.93
18.4399 94.829
18.4852 76.5322
18.5303 65.0968
18.5756 61.3968
18.6207 60.3894
18.666 59.54
18.7112 58.6681
18.7565 57.7949
18.8016 57.551
18.8469 57.0548
18.892 56.7468
18.9374 56.3206
18.9825 56.1072
19.0278 55.9668
19.073 56.089
19.1183 56.4537
19.1635 57.0426
19.2088 58.3098
19.254 60.4848
19.2993 65.2875
19.3447 72.0226
19.3898 76.4478
19.4352 71.8688
19.4804 62.3217
19.5257 55.9074
19.5709 53.4919
19.6163 53.1618
19.6615 52.9189
19.7068 52.4559
19.752 52.4966
19.7974 52.613
19.8426 53.2586
19.888 54.0337
19.9332 55.0477
19.9786 57.3489
20.0238 61.233
20.0692 66.1998
20.1144 69.1615
20.1598 67.3796
20.205 62.4186
20.2504 61.3552
20.2957 63.2155
20.3411 65.223
20.3863 63.7143
20.4318 57.5627
20.477 53.213
20.5224 50.9998
20.5677 50.4823
20.6131 49.5226
20.6586 48.9472
20.7038 48.9334
20.7493 48.5144
20.7945 48.295
20.84 47.9751
20.8853 47.9267
20.9307 47.7537
20.976 47.8907
21.0215 47.825
21.0668 48.194
21.1122 48.7462
21.1575 49.2602
21.203 50.1123
21.2483 50.7094
21.2938 50.5936
21.3391 49.3722
21.3846 48.2021
21.4299 47.7666
21.4754 47.6036
21.5207 47.6583
21.5662 47.9314
21.6116 48.3904
21.6571 48.7788
21.7024 49.7648
21.7479 51.5418
21.7933 54.2798
21.8388 58.1572
21.8843 62.0371
21.9297 63.9027
21.9752 62.2248
22.0206 58.5841
22.0661 55.8868
22.1115 55.2738
22.157 55.3149
22.2024 53.4833
22.248 50.7499
22.2933 49.2261
22.3389 48.4888
22.3843 48.3389
22.4299 48.1963
22.4753 48.2416
22.5208 47.8321
22.5662 47.9059
22.6118 47.8903
22.6572 47.9592
22.7028 48.2255
22.7483 48.8439
22.7939 49.5463
22.8393 50.9241
22.8849 52.9294
22.9303 55.4049
22.9759 57.2254
23.0214 56.631
23.067 53.7456
23.1126 50.4177
23.1581 48.5896
23.2037 48.0559
23.2492 48.0459
23.2948 47.8594
23.3403 48.3215
23.3859 48.8064
23.4314 49.7255
23.477 51.9087
23.5225 54.0793
23.5682 56.3781
23.6137 57.2498
23.6593 55.0026
23.7048 50.8877
23.7505 47.6412
23.796 46.0021
23.8417 45.6073
23.8872 44.9325
23.9329 44.5873
23.9784 44.206
24.0241 44.2052
24.0697 43.895
24.1154 43.5573
24.1609 43.4646
24.2066 43.1858
24.2522 43.1486
24.2979 42.9003
24.3434 42.687
24.3892 42.6312
24.4349 42.3806
24.4805 42.2424
24.5262 42.5243
24.5718 42.3403
24.6175 42.3198
24.6631 42.1798
24.7089 42.0235
24.7545 41.9606
24.8002 41.6234
24.8458 41.5501
24.8916 41.5106
24.9372 41.4793
24.983 41.9282
25.0286 42.385
25.0744 42.6873
25.12 43.2758
25.1658 43.916
25.2114 44.0632
25.2572 44.0488
25.3029 44.2743
25.3487 44.3779
25.3943 43.9422
25.4402 43.0633
25.4858 41.9257
25.5316 40.9795
25.5773 40.4147
25.6231 40.4099
25.669 39.9917
25.7147 39.8894
25.7605 39.838
25.8062 40.0027
25.8521 40.1823
25.8977 40.0589
25.9436 40.2963
25.9893 40.4209
26.0352 40.9561
26.0809 40.993
26.1268 41.2381
26.1725 40.7433
26.2184 40.1977
26.2641 39.6851
26.31 39.3361
26.3557 39.5045
26.4017 39.5581
26.4474 39.8691
26.4933 40.1916
26.5391 40.5675
26.585 41.0674
26.6308 41.4771
26.6767 41.4723
26.7225 41.3445
26.7684 40.8748
26.8142 40.3797
26.8601 39.8825
26.9059 39.4519
26.9519 38.9342
26.9979 38.6415
27.0437 38.3491
27.0896 38.1421
27.1354 38.1972
27.1814 38.0301
27.2272 37.8986
27.2732 38.069
27.3191 37.7897
27.3651 37.8499
27.4109 37.8458
27.4569 37.906
27.5027 37.9452
27.5488 37.9847
27.5946 37.8175
27.6407 37.6065
27.6865 37.5274
27.7326 37.3364
27.7784 37.4031
27.8245 37.3075
27.8703 37.3285
27.9164 37.7009
27.9623 37.8744
28.0084 38.2942
28.0543 38.5419
28.1003 38.3833
28.1462 38.3054
28.1923 38.0548
28.2384 37.4549
28.2843 37.1752
28.3304 36.5495
28.3764 36.1865
28.4225 35.8967
28.4684 35.8828
28.5145 35.463
28.5605 35.3581
28.6066 35.258
28.6526 35.1932
28.6987 35.1193
28.7447 34.9897
28.7908 34.9755
28.8368 34.813
28.8829 35.0147
28.9289 34.9528
28.9751 34.6079
29.0211 34.5726
29.0673 34.3489
29.1133 34.1261
29.1595 33.896
29.2055 33.8198
29.2517 33.8375
29.2977 33.8336
29.3439 33.7695
29.3899 33.7904
29.4361 33.7092
29.4824 33.5926
29.5284 33.3771
29.5746 33.0179
29.6207 32.7953
29.6669 32.6703
29.713 32.5543
29.7593 32.4097
29.8053 32.5457
29.8516 32.3795
29.8977 32.2384
29.9439 32.098
29.99 32.1505
30.0363 32.0033
30.0824 32.0374
30.1287 31.8784
30.1748 32.0724
30.2211 32.055
30.2673 31.8643
30.3136 31.9198
30.3597 31.8498
30.406 31.6586
30.4522 31.6552
30.4985 31.6148
30.5447 31.809
30.591 31.7327
30.6372 31.8538
30.6835 31.794
30.7297 31.7054
30.7761 31.6844
30.8224 31.5833
30.8686 31.4193
30.915 31.1473
30.9612 31.0608
31.0076 30.8882
31.0538 30.6751
31.1002 30.5949
31.1464 30.4806
31.1928 30.6335
31.2391 30.5299
31.2855 30.473
31.3317 30.3842
31.3781 30.5118
31.4244 30.4195
31.4708 30.4438
31.5171 30.4043
31.5636 30.3013
31.6098 30.0721
31.6563 29.8962
31.7026 29.7636
31.7491 29.6636
31.7953 29.6686
31.8418 29.6903
31.8881 29.7742
31.9346 29.8067
31.9809 29.6676
32.0275 29.5111
32.074 29.4141
32.1203 29.2863
32.1668 29.077
32.2132 28.9222
32.2597 28.9002
32.306 28.6912
32.3526 28.5946
32.399 28.531
32.4455 28.3688
32.4919 28.3459
32.5385 28.2858
32.5848 28.1372
32.6314 28.1327
32.6778 28.156
32.7244 27.8275
32.7708 27.7986
32.8174 27.7032
32.8638 27.6439
32.9104 27.7985
32.9569 27.5864
33.0035 27.3826
33.0499 27.5048
33.0966 27.4311
33.143 27.3784
33.1897 27.3247
33.2361 27.2178
33.2828 27.2274
33.3293 27.0355
33.3759 26.9847
33.4226 26.9178
33.4691 26.7036
33.5158 26.7087
33.5623 26.536
33.609 26.4177
33.6555 26.356
33.7022 26.2664
33.7487 26.1301
33.7954 26.1669
33.842 26.0804
33.8887 25.9417
33.9353 25.9602
33.982 25.7734
34.0286 25.732
34.0753 25.6653
34.1219 25.6621
34.1687 25.526
34.2152 25.4079
34.262 25.316
34.3086 25.2274
34.3554 25.1555
34.402 24.9996
34.4488 24.9192
34.4954 24.9244
34.5422 24.8762
34.5889 24.6992
34.6357 24.6487
34.6825 24.5396
34.7292 24.4799
34.776 24.3735
34.8227 24.3331
34.8695 24.3347
34.9162 24.2367
34.9631 24.1999
35.0098 24.0879
35.0566 23.9988
35.1033 24.0203
35.1502 23.9625
35.1969 23.8958
35.2438 23.8159
35.2906 23.7623
35.3375 23.713
35.3842 23.7366
35.4311 23.6273
35.4779 23.5922
35.5248 23.6402
35.5716 23.4455
35.6185 23.4758
35.6653 23.4006
35.7123 23.1747
35.759 23.1918
35.806 23.0129
35.8528 22.951
35.8998 22.8574
35.9468 22.8608
35.9936 22.7534
36.0406 22.6568
36.0874 22.6418
36.1345 22.6793
36.1813 22.5529
36.2283 22.4259
36.2752 22.2631
36.3222 22.3083
36.3691 22.2452
36.4161 22.2307
36.463 22.1939
36.5101 22.2071
36.557 22.0796
36.6041 21.9232
36.651 21.9083
36.6981 21.7363
36.745 21.7721
36.7921 21.7102
36.839 21.582
36.8861 21.5669
36.9331 21.3682
36.9802 21.3894
37.0272 21.2782
37.0743 21.2582
37.1213 21.2479
37.1684 21.1349
37.2154 21.0448
37.2626 20.934
37.3098 20.9355
37.3568 20.8654
37.404 20.7996
37.451 20.778
37.4982 20.5993
37.5452 20.6084
37.5924 20.5643
37.6395 20.5576
37.6867 20.3941
37.7337 20.3212
37.781 20.2596
37.8281 20.188
37.8753 20.0666
37.9224 20.0315
37.9697 20.0447
38.0168 19.8801
38.064 19.8731
38.1111 19.8743
38.1584 19.7339
38.2056 19.6933
38.2529 19.6134
38.3 19.5622
38.3473 19.5634
38.3945 19.4079
38.4418 19.3321
38.489 19.3353
38.5363 19.2559
38.5837 19.2009
38.6309 19.0671
38.6782 19.1205
38.7254 19.0439
38.7728 18.9996
38.82 18.8664
38.8674 18.8328
38.9146 18.8098
38.9621 18.725
39.0093 18.5815
39.0567 18.633
39.104 18.5186
39.1514 18.5109
39.1987 18.4742
39.2461 18.4523
39.2934 18.3767
39.3409 18.2207
39.3882 18.1765
39.4356 18.0841
39.483 18.0935
39.5304 18.0331
39.5778 17.9507
39.6253 18.0028
39.6726 17.8127
39.7201 17.8212
39.7675 17.7727
39.815 17.7459
39.8624 17.5693
39.9099 17.6209
39.9575 17.5298
40.0049 17.4357
40.0525 17.4029
40.0999 17.3954
40.1474 17.3486
40.1949 17.2332
40.2425 17.2271
40.2899 17.1093
40.3375 17.091
40.385 17.0488
40.4326 16.9882
40.48 16.8967
40.5277 16.8732
40.5752 16.8111
40.6228 16.7008
40.6703 16.6844
40.718 16.6129
40.7655 16.6115
40.8132 16.4946
40.8607 16.531
40.9084 16.4851
40.9559 16.4111
41.0036 16.3208
41.0512 16.3215
41.0989 16.2359
41.1465 16.1704
41.1942 16.1403
41.242 16.0783
41.2896 16.0268
41.3373 15.9715
41.3849 15.9354
41.4327 15.8499
41.4803 15.7628
41.5281 15.77
41.5758 15.6794
41.6236 15.5953
41.6712 15.6014
41.7191 15.5252
41.7667 15.499
41.8146 15.433
41.8622 15.3684
41.9101 15.3313
41.9578 15.244
42.0057 15.2642
42.0534 15.1884
42.1013 15.1212
42.149 15.0788
42.1969 15.0308
42.2446 14.9701
42.2925 14.9085
42.3403 14.8727
42.3882 14.8167
42.436 14.7586
42.4839 14.6917
42.5319 14.6991
42.5797 14.6144
42.6277 14.571
42.6755 14.5274
42.7235 14.4536
42.7713 14.4271
42.8193 14.3285
42.8671 14.3317
42.9152 14.3174
42.963 14.2347
43.0111 14.2227
43.0589 14.172
43.107 14.0573
43.1549 14.0579
43.2029 13.9674
43.2508 13.9856
43.2989 13.8822
43.3468 13.8442
43.3949 13.7874
43.4429 13.7609
43.491 13.7132
43.5389 13.6441
43.5871 13.6523
43.635 13.569
43.6832 13.5261
43.7312 13.4773
43.7793 13.4149
43.8273 13.3181
43.8755 13.2866
43.9237 13.275
43.9717 13.2769
44.0199 13.2182
44.068 13.1721
44.1162 13.1288
44.1642 13.0808
44.2125 13.0341
44.2606 12.977
44.3088 12.8845
44.3569 12.8716
44.4052 12.9145
44.4533 12.7933
44.5016 12.7733
44.5497 12.7083
44.598 12.6983
44.6461 12.6061
44.6945 12.5576
44.7426 12.5266
44.791 12.4586
44.8391 12.4702
44.8875 12.3755
44.9357 12.3621
44.984 12.2818
45.0322 12.2838
45.0806 12.1892
45.1288 12.1779
45.1773 12.0942
45.2257 12.1366
45.2739 12.0732
45.3224 12.0135
45.3706 11.9806
45.4191 11.934
45.4673 11.919
45.5158 11.8599
45.5641 11.7921
45.6126 11.7597
45.6609 11.7107
45.7094 11.7059
45.7577 11.6508
45.8063 11.548
45.8546 11.5813
45.9031 11.4879
45.9515 11.453
46.0001 11.4292
46.0484 11.389
46.097 11.3076
46.1454 11.2844
46.194 11.3019
46.2424 11.2272
46.291 11.1772
46.3395 11.1121
46.3881 11.0277
46.4365 11.0552
46.4852 11.0179
46.5337 10.9666
46.5823 10.963
46.631 10.8895
46.6795 10.8479
46.7282 10.8398
46.7767 10.7759
46.8254 10.7368
46.8739 10.7119
46.9226 10.6631
46.9712 10.6235
47.0199 10.5656
47.0685 10.5293
47.1173 10.4712
47.1658 10.4575
47.2146 10.4762
47.2632 10.3702
47.312 10.3696
47.3606 10.3216
47.4095 10.23
47.4581 10.2191
47.5069 10.2112
47.5556 10.2036
47.6044 10.084
47.6531 10.0754
47.702 10.0742
47.7507 10.0425
47.7996 9.94889
47.8483 9.93393
47.8972 9.88996
47.9461 9.8463
47.9948 9.79948
48.0438 9.7619
48.0925 9.7593
48.1415 9.71523
48.1902 9.66221
48.2392 9.6558
48.288 9.61592
48.337 9.60492
48.3858 9.50546
48.4348 9.5571
48.4837 9.51955
48.5327 9.45181
48.5815 9.4387
48.6306 9.38084
48.6795 9.35339
48.7285 9.31711
48.7774 9.26486
48.8265 9.24261
48.8754 9.21032
48.9245 9.14451
48.9734 9.14566
49.0226 9.10832
49.0715 9.04569
49.1206 9.02368
49.1696 8.96665
49.2188 8.99961
49.2679 8.95251
49.3169 8.86991
49.3661 8.85067
49.4151 8.83457
49.4643 8.83805
49.5134 8.74384
49.5626 8.71223
49.6117 8.6951
49.6609 8.64158
49.71 8.61935
49.7592 8.58427
49.8083 8.54518
49.8576 8.54009
49.9067 8.48212
49.956 8.4734
50.0052 8.4308
50.0545 8.41219
50.1036 8.36633
50.153 8.32041
50.2022 8.29736
50.2515 8.21877
50.3007 8.1987
50.3501 8.1812
50.3993 8.16962
50.4487 8.14668
50.498 8.10881
50.5474 8.08767
50.5966 8.03053
50.6461 8.02904
50.6955 7.96561
50.7448 7.95109
50.7943 7.91579
50.8436 7.89926
50.8931 7.87036
50.9424 7.84795
50.9919 7.78062
51.0413 7.76321
51.0908 7.74442
51.1402 7.6865
51.1897 7.66626
51.2391 7.65586
51.2887 7.6201
51.3381 7.57004
51.3877 7.57523
51.4371 7.5162
51.4867 7.4565
51.5362 7.50354
51.5858 7.45006
51.6353 7.39639
51.6849 7.36774
51.7344 7.32941
51.7841 7.30071
51.8336 7.33748
51.8833 7.27781
51.9328 7.19454
51.9826 7.19172
52.0323 7.16817
52.0818 7.14165
52.1316 7.10195
52.1812 7.09296
52.231 7.03337
52.2806 6.97645
52.3304 6.9908
52.38 6.96598
52.4298 6.92815
52.4794 6.87364
52.5293 6.88245
52.5789 6.8465
52.6288 6.80066
52.6785 6.78337
52.7284 6.76832
52.7781 6.72314
52.828 6.66833
52.8777 6.64308
52.9276 6.604
52.9774 6.62405
53.0273 6.57095
53.0771 6.55867
53.1271 6.57716
53.1769 6.48345
53.2269 6.46125
53.2767 6.44186
53.3267 6.42903
53.3765 6.38284
53.4266 6.36432
53.4766 6.33848
53.5265 6.28609
53.5765 6.25703
53.6264 6.23151
53.6765 6.21524
53.7264 6.16219
53.7765 6.21022
53.8265 6.1409
53.8766 6.07262
53.9266 6.06518
53.9767 6.09002
54.0267 6.09024
54.0769 6.00232
54.1269 5.99198
54.1771 5.97608
54.2271 5.93053
54.2773 5.9002
54.3274 5.88115
54.3776 5.84984
54.4277 5.81422
54.478 5.76169
54.528 5.74638
54.5783 5.71342
54.6285 5.66769
54.6788 5.62348
54.7289 5.60647
54.7792 5.53235
54.8296 5.50695
54.8798 5.44261
54.9301 5.39657
54.9803 5.38593
55.0307 5.3662
55.0809 5.24593
55.1314 5.27723
55.1816 5.20735
55.232 5.14414
55.2823 5.16484
55.3328 5.10882
55.383 5.04518
55.4335 4.98806
55.4838 4.94004
55.5344 4.94692
55.5847 4.86134
55.6352 4.78929
55.6856 4.78661
55.7361 4.75734