File: XRD/Ni3Fe_FD0178.xy
TT I
1.27165 7.79752
1.31627 6.67515
1.36089 7.31408
1.40551 5.85165
1.45013 6.20804
1.49476 6.72598
1.53938 6.21681
1.584 5.70286
1.62863 5.47068
1.67325 5.80704
1.71787 5.08637
1.7625 5.07625
1.80712 5.19657
1.85174 5.33764
1.89636 4.98587
1.94099 5.27481
1.98562 5.40773
2.03025 5.13954
2.07487 4.91609
2.11949 4.55253
2.16411 4.56275
2.20874 4.43315
2.25338 4.7588
2.298 4.11148
2.34263 3.88826
2.38725 4.06856
2.43188 4.53267
2.4765 4.98034
2.52115 4.7028
2.56577 5.00941
2.6104 5.81587
2.65503 6.14151
2.69965 6.23367
2.7443 6.35983
2.78893 6.43649
2.83356 7.26614
2.87818 8.73515
2.92281 8.75441
2.96744 9.52677
3.01209 10.6148
3.05672 11.7221
3.10135 12.4421
3.14599 13.4609
3.19062 14.4736
3.23527 15.3178
3.2799 16.0714
3.32454 16.8151
3.36917 17.6119
3.4138 18.7218
3.45844 19.8754
3.50309 20.5551
3.54773 21.1283
3.59237 22.2716
3.637 22.5313
3.68164 23.2121
3.7263 24.5438
3.77094 24.8724
3.81558 25.755
3.86022 26.3965
3.90486 28.0084
3.9495 28.7835
3.99416 29.7205
4.0388 30.8882
4.08344 32.1333
4.12809 33.5752
4.17273 34.3732
4.21738 35.7378
4.26204 36.8023
4.30669 37.9435
4.35133 40.4483
4.39598 41.4022
4.44063 43.7127
4.4853 45.6036
4.52995 47.7221
4.5746 50.1303
4.61925 51.8677
4.6639 54.5066
4.70855 57.1286
4.75322 60.3904
4.79788 62.7369
4.84253 66.7241
4.88719 71.1021
4.93184 76.027
4.97652 82.5206
5.02118 90.7153
5.06583 100.993
5.11049 115.898
5.15515 152.369
5.19981 522.163
5.24449 3750.62
5.28916 8612.2
5.33382 6173.66
5.37848 409.525
5.42315 159.758
5.46783 126.604
5.5125 114.001
5.55716 107.508
5.60183 102.128
5.6465 98.7875
5.69117 97.6242
5.73586 95.8161
5.78053 95.1464
5.8252 95.5294
5.86988 98.6629
5.91455 104.734
5.95924 122.449
6.00392 279.429
6.0486 1373.6
6.09328 2874.74
6.13795 4058.02
6.18263 636.289
6.22733 119.659
6.27201 88.5053
6.3167 78.6486
6.36138 73.0178
6.40606 68.3867
6.45075 66.8103
6.49545 64.5334
6.54014 62.6742
6.58483 61.4546
6.62952 60.3744
6.67421 58.8511
6.71892 57.9805
6.76361 57.2996
6.8083 55.9145
6.853 55.1982
6.89769 54.82
6.94239 54.6264
6.98711 53.9443
7.03181 53.6041
7.07651 53.3948
7.12121 52.8811
7.16591 52.7074
7.21063 52.5907
7.25533 52.019
7.30004 52.6435
7.34475 52.7015
7.38945 52.6608
7.43416 52.5125
7.47889 52.5242
7.5236 55.7543
7.56831 61.8935
7.61303 55.5569
7.65774 54.1211
7.70247 54.268
7.74719 54.6575
7.79191 55.1728
7.83663 55.8632
7.88135 56.8064
7.92607 57.6898
7.97081 58.5492
8.01553 59.2685
8.06026 60.9701
8.10498 62.5388
8.14971 64.3145
8.19446 65.8903
8.23919 68.2923
8.28392 71.1811
8.32865 73.9209
8.37339 78.8871
8.41812 83.9605
8.46288 95.4629
8.50761 170.791
8.55235 589.635
8.59709 921.06
8.64183 1576.56
8.68658 1642.1
8.73134 397.835
8.77609 115.301
8.82083 97.3409
8.86558 91.5164
8.91033 88.364
8.9551 85.981
8.99985 84.3946
9.04461 83.2875
9.08936 82.7771
9.13412 81.7249
9.17888 81.9696
9.22365 86.4279
9.26841 94.5936
9.31318 86.1987
9.35794 82.6035
9.4027 82.8444
9.44749 83.3112
9.49226 83.8527
9.53703 84.8662
9.5818 86.5903
9.62657 87.7415
9.67134 89.1539
9.71614 91.277
9.76091 93.2763
9.80569 96.2765
9.85047 99.649
9.89525 104.569
9.94005 113.99
9.98484 183.813
10.0296 535.387
10.0744 754.726
10.1192 1087.95
10.164 1714.17
10.2088 946.574
10.2536 207.309
10.2984 116.271
10.3432 108.357
10.388 105.227
10.4328 121.492
10.4776 212.362
10.5224 266.92
10.5672 345.334
10.612 503.2
10.6568 362.912
10.7017 132.658
10.7465 90.7037
10.7913 84.2683
10.8361 81.1794
10.8809 78.7422
10.9257 76.3286
10.9706 75.0851
11.0154 73.2456
11.0602 71.8783
11.105 70.6953
11.1499 69.2518
11.1947 68.3849
11.2395 67.5178
11.2844 66.5963
11.3292 65.8208
11.374 65.2578
11.4189 64.6344
11.4637 64.0268
11.5086 63.2935
11.5534 62.7265
11.5983 62.6084
11.6431 62.6154
11.688 62.1677
11.7328 61.9276
11.7777 61.9567
11.8225 61.5913
11.8674 61.6467
11.9122 62.7441
11.9571 65.7621
12.002 65.4295
12.0468 68.1496
12.0917 90.5463
12.1366 108.523
12.1814 121.583
12.2263 156.488
12.2712 195.404
12.3161 133.793
12.3609 73.6371
12.4058 64.4733
12.4507 63.6076
12.4956 63.3566
12.5405 63.6682
12.5853 64.1853
12.6302 64.2323
12.6751 64.868
12.72 65.5773
12.7649 66.6115
12.8098 67.5361
12.8547 68.6685
12.8996 70.1112
12.9445 71.4576
12.9894 73.5973
13.0343 75.8914
13.0792 79.5616
13.1242 86.7302
13.1691 131.836
13.214 185.711
13.2589 209.999
13.3038 257.189
13.3487 364.992
13.3937 376.979
13.4386 201.535
13.4835 118.086
13.5285 152.929
13.5734 182.295
13.6183 199.45
13.6633 249.956
13.7082 340.477
13.7531 303.201
13.7981 149.869
13.843 88.1276
13.888 80.8033
13.9329 78.0205
13.9779 76.5898
14.0228 74.8841
14.0678 73.4435
14.1127 73.1795
14.1577 74.1985
14.2027 72.8085
14.2476 70.7932
14.2926 69.9857
14.3376 69.6132
14.3825 68.9627
14.4275 68.7517
14.4725 68.6595
14.5175 68.7473
14.5624 68.8699
14.6074 69.1739
14.6524 69.5713
14.6974 70.1899
14.7424 71.7662
14.7874 80.9055
14.8324 106.629
14.8774 121.441
14.9224 130.748
14.9674 154.539
15.0124 198.987
15.0574 205.131
15.1024 134.537
15.1474 81.332
15.1924 71.572
15.2374 69.2054
15.2824 68.2024
15.3274 67.3389
15.3725 66.7613
15.4175 66.7657
15.4625 66.0183
15.5076 65.8023
15.5526 65.9157
15.5976 66.2236
15.6426 66.7532
15.6877 73.802
15.7327 94.7728
15.7778 107.499
15.8228 113.683
15.8679 129.449
15.9129 160.577
15.958 187.522
16.003 148.552
16.0481 86.9909
16.0931 66.2763
16.1382 61.9359
16.1833 60.705
16.2283 59.1666
16.2734 58.3966
16.3185 57.6914
16.3636 57.0468
16.4086 56.3766
16.4537 56.0314
16.4988 55.4258
16.5439 55.4343
16.589 55.0638
16.6341 54.7682
16.6792 54.4584
16.7243 54.6534
16.7694 54.6004
16.8145 54.5924
16.8596 54.7664
16.9047 55.0367
16.9498 55.3842
16.9949 55.2976
17.04 55.5952
17.0851 57.0474
17.1302 61.2377
17.1754 64.5074
17.2205 66.002
17.2656 68.3535
17.3108 73.8951
17.3559 81.0408
17.401 81.5507
17.4462 71.0606
17.4913 61.6979
17.5365 59.4706
17.5815 59.4562
17.6268 59.9051
17.6718 60.3364
17.7171 60.7531
17.7622 61.9305
17.8074 62.6799
17.8525 64.3747
17.8977 72.4238
17.9428 83.9476
17.9881 89.1307
18.0331 92.9477
18.0784 100.8
18.1237 118.644
18.1688 143.302
18.214 141.259
18.2591 109.865
18.3044 89.3268
18.3495 88.4452
18.3948 97.284
18.4399 104.961
18.4852 94.6889
18.5303 75.5097
18.5756 65.218
18.6207 62.4822
18.666 61.306
18.7112 60.4883
18.7565 59.5316
18.8016 59.2899
18.8469 58.7306
18.892 58.2438
18.9374 57.8449
18.9825 57.2791
19.0278 57.2387
19.073 57.1274
19.1183 57.7078
19.1635 59.9853
19.2088 62.1003
19.254 63.016
19.2993 64.0331
19.3447 66.3532
19.3898 70.416
19.4352 74.8985
19.4804 72.4675
19.5257 63.7064
19.5709 56.6237
19.6163 54.523
19.6615 54.2279
19.7068 53.771
19.752 53.8286
19.7974 53.8296
19.8426 55.0778
19.888 56.9832
19.9332 58.7373
19.9786 59.2027
20.0238 59.9199
20.0692 62.8602
20.1144 68.0817
20.1598 73.1909
20.205 71.3065
20.2504 65.9674
20.2957 61.8906
20.3411 62.8062
20.3863 65.5619
20.4318 64.5269
20.477 59.1992
20.5224 53.5674
20.5677 51.3481
20.6131 50.8497
20.6586 50.154
20.7038 50.0414
20.7493 49.5886
20.7945 49.6271
20.84 49.4978
20.8853 49.1926
20.9307 49.0235
20.976 49.0993
21.0215 49.3882
21.0668 49.7707
21.1122 49.9081
21.1575 49.9915
21.203 50.2811
21.2483 50.8991
21.2938 52.0343
21.3391 51.6594
21.3846 50.6903
21.4299 49.5662
21.4754 49.0081
21.5207 49.112
21.5662 49.4684
21.6116 49.7468
21.6571 51.5804
21.7024 53.4764
21.7479 54.5339
21.7933 55.1006
21.8388 56.6236
21.8843 59.5407
21.9297 63.1218
21.9752 66.5523
22.0206 66.085
22.0661 60.9171
22.1115 56.9965
22.157 56.3631
22.2024 56.9507
22.248 55.4622
22.2933 52.8603
22.3389 50.5784
22.3843 49.6951
22.4299 49.2279
22.4753 49.4663
22.5208 49.1742
22.5662 49.1231
22.6118 49.388
22.6572 49.4132
22.7028 50.6524
22.7483 51.7234
22.7939 52.266
22.8393 52.6309
22.8849 53.6093
22.9303 54.0763
22.9759 55.8188
23.0214 57.8635
23.067 58.8498
23.1126 56.2927
23.1581 52.424
23.2037 50.1209
23.2492 49.8011
23.2948 50.1999
23.3403 51.3559
23.3859 52.107
23.4314 52.1648
23.477 52.4336
23.5225 53.2012
23.5682 54.5813
23.6137 56.6495
23.6593 58.5501
23.7048 57.4399
23.7505 53.2382
23.796 49.3401
23.8417 47.2497
23.8872 46.4365
23.9329 46.0526
23.9784 45.7252
24.0241 45.4691
24.0697 45.1032
24.1154 44.6268
24.1609 44.4962
24.2066 44.2417
24.2522 44.4096
24.2979 44.1288
24.3434 43.8689
24.3892 43.786
24.4349 43.6457
24.4805 43.4635
24.5262 43.5716
24.5718 43.2942
24.6175 43.4332
24.6631 43.5666
24.7089 43.2753
24.7545 43.1595
24.8002 42.6902
24.8458 42.9545
24.8916 42.8827
24.9372 43.1151
24.983 43.1358
25.0286 43.3342
25.0744 44.013
25.12 44.406
25.1658 44.747
25.2114 45.0157
25.2572 45.334
25.3029 45.5555
25.3487 45.2522
25.3943 45.3839
25.4402 45.4131
25.4858 44.8376
25.5316 43.4454
25.5773 42.1828
25.6231 41.6221
25.669 41.1891
25.7147 41.1737
25.7605 41.1393
25.8062 41.3464
25.8521 41.4676
25.8977 41.2688
25.9436 41.4359
25.9893 41.4638
26.0352 41.6161
26.0809 41.7196
26.1268 42.1924
26.1725 42.4632
26.2184 42.3223
26.2641 41.8108
26.31 41.1147
26.3557 41.3476
26.4017 41.0612
26.4474 41.2878
26.4933 41.3869
26.5391 41.5855
26.585 41.7889
26.6308 42.1759
26.6767 42.5516
26.7225 43.1181
26.7684 43.0549
26.8142 42.4225
26.8601 41.6482
26.9059 41.2753
26.9519 40.7564
26.9979 40.3436
27.0437 39.8553
27.0896 39.4631
27.1354 39.4204
27.1814 39.313
27.2272 39.3767
27.2732 39.2714
27.3191 39.0924
27.3651 39.0698
27.4109 39.0216
27.4569 38.9658
27.5027 39.0143
27.5488 39.3064
27.5946 39.2615
27.6407 39.0276
27.6865 39.2044
27.7326 38.8456
27.7784 38.9417
27.8245 38.7118
27.8703 38.7376
27.9164 38.9335
27.9623 38.8769
28.0084 39.1446
28.0543 39.4235
28.1003 39.5444
28.1462 39.8451
28.1923 39.7248
28.2384 39.2837
28.2843 38.7407
28.3304 38.4639
28.3764 37.9369
28.4225 37.4241
28.4684 37.0628
28.5145 36.6228
28.5605 36.5569
28.6066 36.3728
28.6526 36.2515
28.6987 36.2488
28.7447 36.0576
28.7908 35.934
28.8368 35.8249
28.8829 35.8538
28.9289 35.8637
28.9751 35.716
29.0211 35.7113
29.0673 35.4971
29.1133 35.3584
29.1595 35.0884
29.2055 35.019
29.2517 34.9208
29.2977 34.7878
29.3439 34.7956
29.3899 34.6536
29.4361 34.6912
29.4824 34.5789
29.5284 34.6245
29.5746 34.302
29.6207 33.8272
29.6669 33.6203
29.713 33.5377
29.7593 33.3007
29.8053 33.3441
29.8516 33.1697
29.8977 33.3086
29.9439 33.1162
29.99 33.0956
30.0363 32.9439
30.0824 33.0474
30.1287 32.9389
30.1748 32.7502
30.2211 32.8611
30.2673 32.702
30.3136 32.9743
30.3597 32.884
30.406 32.9005
30.4522 32.7065
30.4985 32.5914
30.5447 32.6899
30.591 32.6022
30.6372 32.6505
30.6835 32.661
30.7297 32.6264
30.7761 32.6962
30.8224 32.7973
30.8686 32.7139
30.915 32.4346
30.9612 32.3407
31.0076 32.0309
31.0538 31.8424
31.1002 31.8587
31.1464 31.5849
31.1928 31.5134
31.2391 31.5881
31.2855 31.3988
31.3317 31.3727
31.3781 31.3855
31.4244 31.3912
31.4708 31.2696
31.5171 31.3305
31.5636 31.4241
31.6098 31.2726
31.6563 31.1397
31.7026 31.0661
31.7491 30.7508
31.7953 30.6604
31.8418 30.7325
31.8881 30.7404
31.9346 30.661
31.9809 30.5765
32.0275 30.499
32.074 30.4907
32.1203 30.3645
32.1668 30.2229
32.2132 30.0434
32.2597 29.9292
32.306 29.7731
32.3526 29.5195
32.399 29.4992
32.4455 29.2199
32.4919 29.1802
32.5385 29.1425
32.5848 29.0237
32.6314 28.9034
32.6778 28.9516
32.7244 28.7979
32.7708 28.6724
32.8174 28.759
32.8638 28.5709
32.9104 28.54
32.9569 28.4946
33.0035 28.3999
33.0499 28.3644
33.0966 28.1878
33.143 28.3624
33.1897 28.1305
33.2361 28.1169
33.2828 28.0414
33.3293 27.9598
33.3759 27.9177
33.4226 27.8795
33.4691 27.6552
33.5158 27.6416
33.5623 27.4811
33.609 27.2234
33.6555 27.19
33.7022 27.0707
33.7487 26.9315
33.7954 26.9719
33.842 26.9113
33.8887 26.8052
33.9353 26.7489
33.982 26.637
34.0286 26.5805
34.0753 26.5049
34.1219 26.3944
34.1687 26.2802
34.2152 26.276
34.262 26.1096
34.3086 25.9276
34.3554 25.943
34.402 25.7858
34.4488 25.757
34.4954 25.7536
34.5422 25.5848
34.5889 25.5586
34.6357 25.3873
34.6825 25.3982
34.7292 25.2765
34.776 25.133
34.8227 25.1037
34.8695 25.0407
34.9162 24.9398
34.9631 24.9045
35.0098 24.934
35.0566 24.7895
35.1033 24.7344
35.1502 24.7529
35.1969 24.5809
35.2438 24.5956
35.2906 24.4896
35.3375 24.4559
35.3842 24.3921
35.4311 24.3855
35.4779 24.3204
35.5248 24.2497
35.5716 24.1556
35.6185 24.1199
35.6653 24.0688
35.7123 23.9638
35.759 23.8645
35.806 23.8073
35.8528 23.715
35.8998 23.6325
35.9468 23.5318
35.9936 23.5406
36.0406 23.4358
36.0874 23.4207
36.1345 23.3222
36.1813 23.2538
36.2283 23.1293
36.2752 23.0625
36.3222 23.1156
36.3691 23.0154
36.4161 22.8692
36.463 22.8532
36.5101 22.7838
36.557 22.7562
36.6041 22.535
36.651 22.5718
36.6981 22.5315
36.745 22.5096
36.7921 22.3471
36.839 22.2683
36.8861 22.2451
36.9331 22.1623
36.9802 22.0173
37.0272 21.9073
37.0743 21.8573
37.1213 21.822
37.1684 21.769
37.2154 21.7815
37.2626 21.641
37.3098 21.604
37.3568 21.4918
37.404 21.4337
37.451 21.3804
37.4982 21.3086
37.5452 21.1924
37.5924 21.1546
37.6395 21.1813
37.6867 21.0537
37.7337 21.0033
37.781 20.8158
37.8281 20.8722
37.8753 20.7811
37.9224 20.6643
37.9697 20.6139
38.0168 20.5637
38.064 20.5202
38.1111 20.4221
38.1584 20.3917
38.2056 20.3804
38.2529 20.2616
38.3 20.1621
38.3473 20.1895
38.3945 20.0009
38.4418 20.0198
38.489 19.9043
38.5363 19.8142
38.5837 19.8401
38.6309 19.6986
38.6782 19.6212
38.7254 19.5827
38.7728 19.4969
38.82 19.4456
38.8674 19.4674
38.9146 19.3741
38.9621 19.3267
39.0093 19.2417
39.0567 19.2293
39.104 19.1417
39.1514 18.9785
39.1987 18.9773
39.2461 18.9222
39.2934 18.9271
39.3409 18.7398
39.3882 18.7622
39.4356 18.6405
39.483 18.6484
39.5304 18.5137
39.5778 18.5109
39.6253 18.4777
39.6726 18.4726
39.7201 18.3756
39.7675 18.2792
39.815 18.2292
39.8624 18.1447
39.9099 18.1592
39.9575 18.0108
40.0049 18.0743
40.0525 17.9274
40.0999 17.9135
40.1474 17.8963
40.1949 17.7366
40.2425 17.7307
40.2899 17.6486
40.3375 17.6015
40.385 17.5597
40.4326 17.5377
40.48 17.4458
40.5277 17.3429
40.5752 17.3177
40.6228 17.2346
40.6703 17.2246
40.718 17.1434
40.7655 17.1631
40.8132 16.9793
40.8607 17.0819
40.9084 17.0143
40.9559 16.8944
41.0036 16.8938
41.0512 16.8169
41.0989 16.7993
41.1465 16.6394
41.1942 16.5771
41.242 16.5681
41.2896 16.5346
41.3373 16.4496
41.3849 16.4059
41.4327 16.3314
41.4803 16.2746
41.5281 16.2418
41.5758 16.1558
41.6236 16.0998
41.6712 16.0759
41.7191 16.0491
41.7667 15.9629
41.8146 15.8768
41.8622 15.8903
41.9101 15.8335
41.9578 15.7014
42.0057 15.6648
42.0534 15.6077
42.1013 15.5829
42.149 15.5478
42.1969 15.4509
42.2446 15.4348
42.2925 15.3857
42.3403 15.3476
42.3882 15.3179
42.436 15.187
42.4839 15.1032
42.5319 15.0979
42.5797 15.0535
42.6277 15.0221
42.6755 14.9475
42.7235 14.9205
42.7713 14.8602
42.8193 14.8276
42.8671 14.7935
42.9152 14.7512
42.963 14.6665
43.0111 14.64
43.0589 14.5468
43.107 14.5014
43.1549 14.4895
43.2029 14.4066
43.2508 14.3265
43.2989 14.3342
43.3468 14.271
43.3949 14.171
43.4429 14.1673
43.491 14.1527
43.5389 14.0616
43.5871 14.0047
43.635 13.9671
43.6832 13.9578
43.7312 13.8695
43.7793 13.8069
43.8273 13.8032
43.8755 13.7111
43.9237 13.6535
43.9717 13.7059
44.0199 13.6171
44.068 13.5582
44.1162 13.5202
44.1642 13.4912
44.2125 13.4268
44.2606 13.3423
44.3088 13.2683
44.3569 13.2449
44.4052 13.2369
44.4533 13.1907
44.5016 13.0997
44.5497 13.0863
44.598 13.0112
44.6461 12.9545
44.6945 12.9711
44.7426 12.8788
44.791 12.8273
44.8391 12.82
44.8875 12.7872
44.9357 12.7324
44.984 12.6681
45.0322 12.6513
45.0806 12.57
45.1288 12.5597
45.1773 12.4732
45.2257 12.4556
45.2739 12.3792
45.3224 12.3945
45.3706 12.287
45.4191 12.2687
45.4673 12.2417
45.5158 12.2314
45.5641 12.1164
45.6126 12.0875
45.6609 12.0445
45.7094 12.0502
45.7577 11.9745
45.8063 11.8905
45.8546 11.886
45.9031 11.83
45.9515 11.7553
46.0001 11.7509
46.0484 11.7383
46.097 11.6776
46.1454 11.6291
46.194 11.5687
46.2424 11.555
46.291 11.4876
46.3395 11.4668
46.3881 11.3937
46.4365 11.4272
46.4852 11.3676
46.5337 11.3481
46.5823 11.2926
46.631 11.2175
46.6795 11.1567
46.7282 11.1443
46.7767 11.0606
46.8254 11.0393
46.8739 11.0016
46.9226 10.9026
46.9712 10.9272
47.0199 10.8751
47.0685 10.8791
47.1173 10.8234
47.1658 10.724
47.2146 10.7435
47.2632 10.674
47.312 10.6602
47.3606 10.593
47.4095 10.5744
47.4581 10.5129
47.5069 10.5105
47.5556 10.4532
47.6044 10.397
47.6531 10.3667
47.702 10.2968
47.7507 10.3075
47.7996 10.2524
47.8483 10.2493
47.8972 10.1772
47.9461 10.1453
47.9948 10.122
48.0438 10.0864
48.0925 10.0228
48.1415 9.99417
48.1902 9.93184
48.2392 9.92954
48.288 9.88093
48.337 9.89536
48.3858 9.82963
48.4348 9.76602
48.4837 9.82558
48.5327 9.73787
48.5815 9.70613
48.6306 9.69923
48.6795 9.6098
48.7285 9.56752
48.7774 9.55559
48.8265 9.48992
48.8754 9.46582
48.9245 9.48171
48.9734 9.42697
49.0226 9.3879
49.0715 9.31917
49.1206 9.29351
49.1696 9.23093
49.2188 9.23993
49.2679 9.19164
49.3169 9.12864
49.3661 9.15426
49.4151 9.07553
49.4643 9.05895
49.5134 9.02237
49.5626 8.92497
49.6117 8.93799
49.6609 8.90735
49.71 8.88687
49.7592 8.8581
49.8083 8.81389
49.8576 8.76823
49.9067 8.75678
49.956 8.72922
50.0052 8.69018
50.0545 8.62972
50.1036 8.58787
50.153 8.57432
50.2022 8.54837
50.2515 8.49294
50.3007 8.49142
50.3501 8.43453
50.3993 8.43115
50.4487 8.39892
50.498 8.33477
50.5474 8.32345
50.5966 8.26596
50.6461 8.24908
50.6955 8.23496
50.7448 8.1859
50.7943 8.18809
50.8436 8.1196
50.8931 8.09201
50.9424 8.08979
50.9919 8.0473
51.0413 8.00731
51.0908 7.97422
51.1402 7.93741
51.1897 7.88136
51.2391 7.85852
51.2887 7.82986
51.3381 7.82004
51.3877 7.79568
51.4371 7.70595
51.4867 7.69581
51.5362 7.7059
51.5858 7.65813
51.6353 7.59403
51.6849 7.5838
51.7344 7.55217
51.7841 7.58772
51.8336 7.51707
51.8833 7.45877
51.9328 7.40872
51.9826 7.38611
52.0323 7.35751
52.0818 7.31814
52.1316 7.27354
52.1812 7.31511
52.231 7.22064
52.2806 7.17687
52.3304 7.19435
52.38 7.17403
52.4298 7.1119
52.4794 7.08133
52.5293 7.05033
52.5789 7.01636
52.6288 7.03814
52.6785 6.96764
52.7284 6.98488
52.7781 6.95595
52.828 6.91124
52.8777 6.86129
52.9276 6.86593
52.9774 6.86044
53.0273 6.77255
53.0771 6.7776
53.1271 6.71176
53.1769 6.71031
53.2269 6.66955
53.2767 6.62842
53.3267 6.63284
53.3765 6.54921
53.4266 6.58882
53.4766 6.51536
53.5265 6.48914
53.5765 6.47516
53.6264 6.48733
53.6765 6.41191
53.7264 6.38041
53.7765 6.37359
53.8265 6.30761
53.8766 6.2778
53.9266 6.32154
53.9767 6.27394
54.0267 6.23163
54.0769 6.20468
54.1269 6.1379
54.1771 6.10395
54.2271 6.08613
54.2773 6.01864
54.3274 6.02354
54.3776 5.95855
54.4277 5.88841
54.478 5.85597
54.528 5.83839
54.5783 5.84809
54.6285 5.77727
54.6788 5.71302
54.7289 5.71123
54.7792 5.646
54.8296 5.56523
54.8798 5.54977
54.9301 5.52667
54.9803 5.47035
55.0307 5.51483
55.0809 5.3903
55.1314 5.36952
55.1816 5.3466
55.232 5.26955
55.2823 5.20222
55.3328 5.1784
55.383 5.08564
55.4335 5.02975
55.4838 4.97796
55.5344 4.95524
55.5847 4.97202
55.6352 4.87527
55.6856 4.88435
55.7361 4.79034