File: XRD/Ni3Fe_FD0767.xy
TT I
1.27165 7.15428
1.31627 6.59924
1.36089 7.13081
1.40551 6.16227
1.45013 5.99092
1.49476 5.82154
1.53938 5.84949
1.584 5.26572
1.62863 5.30576
1.67325 5.22941
1.71787 4.68625
1.7625 4.2599
1.80712 5.01914
1.85174 4.46038
1.89636 4.9848
1.94099 4.83096
1.98562 4.75862
2.03025 4.98688
2.07487 4.54011
2.11949 5.23143
2.16411 4.96302
2.20874 16.2334
2.25338 28.6629
2.298 6.44312
2.34263 5.76293
2.38725 5.66328
2.43188 5.47714
2.4765 6.83614
2.52115 6.88553
2.56577 7.67101
2.6104 8.20542
2.65503 8.11893
2.69965 8.26453
2.7443 8.54476
2.78893 7.94353
2.83356 8.13049
2.87818 8.89162
2.92281 9.01937
2.96744 9.93527
3.01209 10.6539
3.05672 11.127
3.10135 12.5032
3.14599 13.3227
3.19062 14.5699
3.23527 15.3078
3.2799 15.9678
3.32454 17.2329
3.36917 18.0056
3.4138 18.8812
3.45844 19.7003
3.50309 21.0434
3.54773 22.1145
3.59237 24.5442
3.637 112.932
3.68164 70.838
3.7263 26.4433
3.77094 26.6042
3.81558 26.8176
3.86022 27.5381
3.90486 29.4028
3.9495 29.8977
3.99416 30.5782
4.0388 32.1912
4.08344 33.6734
4.12809 34.9043
4.17273 37.2147
4.21738 43.9861
4.26204 304.199
4.30669 274.596
4.35133 50.5177
4.39598 44.9186
4.44063 55.9836
4.4853 71.0627
4.52995 50.1123
4.5746 51.2827
4.61925 52.857
4.6639 55.2146
4.70855 57.5456
4.75322 60.6491
4.79788 63.0368
4.84253 66.5722
4.88719 70.2436
4.93184 74.2226
4.97652 79.5033
5.02118 85.1522
5.06583 92.367
5.11049 102.664
5.15515 180.742
5.19981 303.82
5.24449 2407.58
5.28916 12940.0
5.33382 3056.86
5.37848 188.125
5.42315 127.797
5.46783 112.8
5.5125 104.492
5.55716 100.524
5.60183 97.3465
5.6465 95.536
5.69117 93.0829
5.73586 90.8933
5.78053 90.0625
5.8252 89.1423
5.86988 89.9671
5.91455 91.8448
5.95924 97.8013
6.00392 178.894
6.0486 828.504
6.09328 4196.53
6.13795 3269.45
6.18263 249.611
6.22733 92.5975
6.27201 82.8998
6.3167 109.848
6.36138 83.3635
6.40606 68.6243
6.45075 66.9626
6.49545 65.1947
6.54014 63.7911
6.58483 62.7945
6.62952 62.7826
6.67421 102.051
6.71892 168.5
6.76361 72.0622
6.8083 58.8338
6.853 57.5654
6.89769 56.6362
6.94239 56.5813
6.98711 55.9678
7.03181 55.5224
7.07651 55.4575
7.12121 55.7236
7.16591 55.38
7.21063 55.738
7.25533 73.9828
7.30004 216.623
7.34475 103.351
7.38945 57.2565
7.43416 54.7921
7.47889 54.3789
7.5236 54.8819
7.56831 55.6176
7.61303 57.4085
7.65774 58.2361
7.70247 56.0647
7.74719 55.9858
7.79191 56.4516
7.83663 56.9133
7.88135 58.0039
7.92607 58.4971
7.97081 59.1753
8.01553 60.3852
8.06026 61.885
8.10498 63.6827
8.14971 74.7599
8.19446 73.4283
8.23919 68.8531
8.28392 71.0251
8.32865 73.4422
8.37339 77.268
8.41812 84.6736
8.46288 117.909
8.50761 150.321
8.55235 341.921
8.59709 1092.89
8.64183 2199.98
8.68658 1054.91
8.73134 170.916
8.77609 99.0079
8.82083 91.7145
8.86558 88.6982
8.91033 89.6477
8.9551 93.0162
8.99985 85.0575
9.04461 82.8287
9.08936 82.0714
9.13412 81.1681
9.17888 80.9421
9.22365 82.2403
9.26841 81.3954
9.31318 81.6622
9.35794 81.6395
9.4027 82.4542
9.44749 82.9369
9.49226 83.7192
9.53703 84.7094
9.5818 86.225
9.62657 92.0323
9.67134 100.208
9.71614 93.3865
9.76091 93.2135
9.80569 94.9661
9.85047 98.7242
9.89525 127.26
9.94005 140.934
9.98484 158.983
10.0296 299.91
10.0744 744.836
10.1192 1726.4
10.164 1634.07
10.2088 404.235
10.2536 126.884
10.2984 114.002
10.3432 117.056
10.388 104.102
10.4328 112.423
10.4776 148.718
10.5224 263.55
10.5672 510.361
10.612 518.171
10.6568 209.462
10.7017 96.4984
10.7465 86.048
10.7913 82.7451
10.8361 80.5888
10.8809 78.5226
10.9257 78.5777
10.9706 79.7488
11.0154 74.6064
11.0602 72.3405
11.105 71.476
11.1499 77.1664
11.1947 87.4845
11.2395 76.088
11.2844 70.968
11.3292 67.0228
11.374 65.8809
11.4189 65.3109
11.4637 64.5765
11.5086 65.4984
11.5534 69.5753
11.5983 66.0815
11.6431 63.2929
11.688 62.3954
11.7328 62.4714
11.7777 62.5413
11.8225 62.2161
11.8674 62.058
11.9122 62.164
11.9571 62.2602
12.002 62.8269
12.0468 65.9511
12.0917 75.7905
12.1366 97.6326
12.1814 146.242
12.2263 209.398
12.2712 173.464
12.3161 101.48
12.3609 71.7021
12.4058 64.6596
12.4507 63.9527
12.4956 64.0239
12.5405 64.3534
12.5853 65.3416
12.6302 75.1644
12.6751 81.9539
12.72 70.5822
12.7649 67.6403
12.8098 67.7511
12.8547 69.0134
12.8996 70.3037
12.9445 71.5247
12.9894 72.9948
13.0343 74.6978
13.0792 77.9197
13.1242 84.7275
13.1691 105.916
13.214 139.318
13.2589 223.902
13.3038 362.451
13.3487 433.309
13.3937 279.328
13.4386 127.812
13.4835 102.157
13.5285 114.152
13.5734 148.547
13.6183 234.556
13.6633 344.19
13.7082 347.198
13.7531 190.803
13.7981 98.4427
13.843 81.229
13.888 78.802
13.9329 76.4231
13.9779 75.171
14.0228 73.7365
14.0678 72.1317
14.1127 72.1169
14.1577 72.3131
14.2027 70.9701
14.2476 69.8105
14.2926 70.3298
14.3376 71.7294
14.3825 70.0987
14.4275 68.126
14.4725 67.9855
14.5175 68.1079
14.5624 68.4696
14.6074 71.1569
14.6524 71.739
14.6974 69.8607
14.7424 70.5896
14.7874 76.1961
14.8324 85.2729
14.8774 105.424
14.9224 146.37
14.9674 203.271
15.0124 221.984
15.0574 151.948
15.1024 92.5684
15.1474 72.2575
15.1924 70.2971
15.2374 71.0632
15.2824 70.4137
15.3274 68.0908
15.3725 66.3854
15.4175 65.9109
15.4625 65.6029
15.5076 65.8268
15.5526 65.8155
15.5976 65.1772
15.6426 65.7336
15.6877 70.0447
15.7327 76.8921
15.7778 90.5589
15.8228 120.648
15.8679 164.795
15.9129 194.276
15.958 158.58
16.003 98.8178
16.0481 68.6475
16.0931 65.1265
16.1382 62.9617
16.1833 60.5219
16.2283 58.6613
16.2734 58.1153
16.3185 58.8186
16.3636 59.8467
16.4086 57.9713
16.4537 56.0042
16.4988 55.2637
16.5439 55.1448
16.589 54.9262
16.6341 54.4495
16.6792 54.4539
16.7243 54.4089
16.7694 54.8409
16.8145 54.546
16.8596 54.9544
16.9047 56.8553
16.9498 57.2264
16.9949 55.6945
17.04 55.3679
17.0851 56.3728
17.1302 57.8217
17.1754 60.4126
17.2205 65.4131
17.2656 73.7426
17.3108 83.1455
17.3559 83.3179
17.401 71.0793
17.4462 61.552
17.4913 58.7143
17.5365 58.5557
17.5815 58.6805
17.6268 59.1313
17.6718 59.9699
17.7171 60.4878
17.7622 60.5564
17.8074 61.1529
17.8525 62.7578
17.8977 66.512
17.9428 71.5886
17.9881 79.8633
18.0331 96.4074
18.0784 118.752
18.1237 138.891
18.1688 132.048
18.214 104.11
18.2591 85.7161
18.3044 88.5692
18.3495 99.1697
18.3948 106.156
18.4399 96.592
18.4852 78.2868
18.5303 66.145
18.5756 61.8758
18.6207 60.7989
18.666 59.9992
18.7112 59.4509
18.7565 58.6907
18.8016 58.3291
18.8469 57.5492
18.892 57.1554
18.9374 56.9206
18.9825 56.5809
19.0278 56.7182
19.073 56.5695
19.1183 56.9397
19.1635 57.6754
19.2088 58.919
19.254 61.163
19.2993 65.1926
19.3447 71.9883
19.3898 76.8365
19.4352 72.6731
19.4804 63.2732
19.5257 56.575
19.5709 53.8279
19.6163 53.5224
19.6615 53.4309
19.7068 52.7835
19.752 52.8334
19.7974 53.2697
19.8426 53.8377
19.888 54.437
19.9332 55.495
19.9786 57.769
20.0238 61.3325
20.0692 66.4772
20.1144 69.2068
20.1598 68.0366
20.205 63.2315
20.2504 61.4427
20.2957 63.1927
20.3411 65.5
20.3863 64.2683
20.4318 58.4322
20.477 53.7107
20.5224 51.5134
20.5677 50.8537
20.6131 50.0343
20.6586 49.3659
20.7038 49.1877
20.7493 48.9072
20.7945 48.6774
20.84 48.4088
20.8853 48.3905
20.9307 48.1761
20.976 48.32
21.0215 48.1648
21.0668 48.5997
21.1122 49.0235
21.1575 49.5503
21.203 50.4484
21.2483 51.2053
21.2938 51.1712
21.3391 49.6824
21.3846 48.5229
21.4299 48.0477
21.4754 48.0492
21.5207 48.0325
21.5662 48.3918
21.6116 48.6703
21.6571 49.2562
21.7024 50.2039
21.7479 51.7018
21.7933 54.4949
21.8388 58.0577
21.8843 62.055
21.9297 64.4512
21.9752 63.2687
22.0206 59.4851
22.0661 56.255
22.1115 55.6138
22.157 55.6655
22.2024 53.9555
22.248 51.1479
22.2933 49.7667
22.3389 48.7611
22.3843 48.7456
22.4299 48.7989
22.4753 48.8392
22.5208 48.33
22.5662 48.0557
22.6118 48.3204
22.6572 48.3672
22.7028 48.7217
22.7483 49.0407
22.7939 49.7535
22.8393 51.1876
22.8849 53.4055
22.9303 55.5911
22.9759 57.6958
23.0214 57.3184
23.067 54.6919
23.1126 51.0423
23.1581 49.009
23.2037 48.4082
23.2492 48.4688
23.2948 48.3934
23.3403 48.6169
23.3859 49.0238
23.4314 50.0557
23.477 51.9536
23.5225 54.01
23.5682 56.8001
23.6137 57.8253
23.6593 55.6833
23.7048 51.6042
23.7505 48.2716
23.796 46.5371
23.8417 45.6856
23.8872 45.2645
23.9329 44.9563
23.9784 44.4955
24.0241 44.4566
24.0697 44.3108
24.1154 43.8146
24.1609 43.853
24.2066 43.6515
24.2522 43.5229
24.2979 43.13
24.3434 42.9899
24.3892 42.8718
24.4349 42.7797
24.4805 42.6685
24.5262 42.8728
24.5718 42.7012
24.6175 42.7633
24.6631 42.6003
24.7089 42.265
24.7545 42.1984
24.8002 42.0364
24.8458 41.9139
24.8916 41.7013
24.9372 41.9595
24.983 42.1608
25.0286 42.416
25.0744 42.861
25.12 43.2535
25.1658 43.9626
25.2114 44.3251
25.2572 44.4617
25.3029 44.5861
25.3487 44.588
25.3943 44.4105
25.4402 43.4329
25.4858 42.3617
25.5316 41.3426
25.5773 40.8057
25.6231 40.6484
25.669 40.2666
25.7147 40.4001
25.7605 40.1748
25.8062 40.2709
25.8521 40.3437
25.8977 40.3078
25.9436 40.5234
25.9893 40.5303
26.0352 41.1507
26.0809 41.2764
26.1268 41.4243
26.1725 41.005
26.2184 40.4728
26.2641 40.0925
26.31 39.7641
26.3557 39.8657
26.4017 39.8043
26.4474 40.0022
26.4933 40.4083
26.5391 41.0303
26.585 41.3666
26.6308 41.8623
26.6767 42.0733
26.7225 41.7337
26.7684 41.2437
26.8142 40.6515
26.8601 40.2456
26.9059 39.8268
26.9519 39.2827
26.9979 38.9408
27.0437 38.5152
27.0896 38.5034
27.1354 38.4438
27.1814 38.439
27.2272 38.233
27.2732 38.2513
27.3191 38.0205
27.3651 38.259
27.4109 38.0693
27.4569 38.227
27.5027 38.2617
27.5488 38.3015
27.5946 38.1306
27.6407 37.8613
27.6865 37.8182
27.7326 37.7222
27.7784 37.5413
27.8245 37.4819
27.8703 37.7061
27.9164 38.0108
27.9623 38.1189
28.0084 38.3962
28.0543 38.8147
28.1003 38.7043
28.1462 38.596
28.1923 38.2101
28.2384 37.8418
28.2843 37.4963
28.3304 36.9869
28.3764 36.5887
28.4225 36.2593
28.4684 36.0176
28.5145 35.7198
28.5605 35.5986
28.6066 35.5249
28.6526 35.4114
28.6987 35.4299
28.7447 35.306
28.7908 35.3058
28.8368 35.2463
28.8829 35.2495
28.9289 35.1491
28.9751 35.0517
29.0211 34.7465
29.0673 34.5705
29.1133 34.3709
29.1595 34.1757
29.2055 34.0983
29.2517 34.1362
29.2977 34.1821
29.3439 33.9555
29.3899 34.0625
29.4361 34.0076
29.4824 33.8114
29.5284 33.5149
29.5746 33.1602
29.6207 32.9393
29.6669 32.8912
29.713 32.7929
29.7593 32.6845
29.8053 32.6549
29.8516 32.6452
29.8977 32.5986
29.9439 32.3453
29.99 32.4588
30.0363 32.2269
30.0824 32.2604
30.1287 32.2419
30.1748 32.2365
30.2211 32.2532
30.2673 32.1342
30.3136 32.1691
30.3597 32.0178
30.406 32.0027
30.4522 31.8499
30.4985 31.9068
30.5447 31.9656
30.591 31.8377
30.6372 32.0349
30.6835 31.9851
30.7297 32.0904
30.7761 32.0433
30.8224 31.8519
30.8686 31.6876
30.915 31.3962
30.9612 31.2836
31.0076 31.1299
31.0538 30.9519
31.1002 31.0056
31.1464 30.7421
31.1928 30.7063
31.2391 30.8641
31.2855 30.6493
31.3317 30.6436
31.3781 30.6741
31.4244 30.7663
31.4708 30.6522
31.5171 30.62
31.5636 30.5006
31.6098 30.3688
31.6563 30.1737
31.7026 30.0325
31.7491 29.8832
31.7953 29.9345
31.8418 29.9801
31.8881 30.0128
31.9346 29.9415
31.9809 29.7788
32.0275 29.6778
32.074 29.6663
32.1203 29.4114
32.1668 29.3787
32.2132 29.1575
32.2597 29.0796
32.306 29.0387
32.3526 28.8041
32.399 28.7792
32.4455 28.6325
32.4919 28.4938
32.5385 28.4983
32.5848 28.3135
32.6314 28.2623
32.6778 28.2649
32.7244 28.1479
32.7708 27.989
32.8174 28.0071
32.8638 27.8352
32.9104 27.8185
32.9569 27.9233
33.0035 27.6881
33.0499 27.6624
33.0966 27.6827
33.143 27.6776
33.1897 27.5163
33.2361 27.5045
33.2828 27.439
33.3293 27.2334
33.3759 27.2818
33.4226 27.1182
33.4691 26.9622
33.5158 26.8093
33.5623 26.8356
33.609 26.5914
33.6555 26.5204
33.7022 26.5193
33.7487 26.3958
33.7954 26.2747
33.842 26.2391
33.8887 26.2161
33.9353 26.1621
33.982 26.0683
34.0286 25.9333
34.0753 25.9317
34.1219 25.7817
34.1687 25.7584
34.2152 25.6503
34.262 25.4619
34.3086 25.412
34.3554 25.4574
34.402 25.2259
34.4488 25.2153
34.4954 25.1517
34.5422 25.0385
34.5889 24.7979
34.6357 24.7924
34.6825 24.7465
34.7292 24.6938
34.776 24.6694
34.8227 24.6402
34.8695 24.476
34.9162 24.4562
34.9631 24.3814
35.0098 24.3126
35.0566 24.2161
35.1033 24.1392
35.1502 24.1398
35.1969 24.0785
35.2438 24.0536
35.2906 23.993
35.3375 23.9326
35.3842 23.8048
35.4311 23.8128
35.4779 23.8158
35.5248 23.7588
35.5716 23.6353
35.6185 23.6382
35.6653 23.4371
35.7123 23.4764
35.759 23.3082
35.806 23.2988
35.8528 23.1432
35.8998 23.1699
35.9468 23.0133
35.9936 22.9747
36.0406 22.8208
36.0874 22.9523
36.1345 22.8042
36.1813 22.652
36.2283 22.6373
36.2752 22.6278
36.3222 22.5783
36.3691 22.5264
36.4161 22.3349
36.463 22.3081
36.5101 22.3189
36.557 22.1587
36.6041 22.0905
36.651 22.0205
36.6981 22.0393
36.745 21.9715
36.7921 21.8781
36.839 21.7531
36.8861 21.7045
36.9331 21.6745
36.9802 21.5977
37.0272 21.4785
37.0743 21.3736
37.1213 21.3469
37.1684 21.26
37.2154 21.2718
37.2626 21.1818
37.3098 21.0869
37.3568 20.9945
37.404 21.0164
37.451 20.8838
37.4982 20.8666
37.5452 20.722
37.5924 20.7072
37.6395 20.7599
37.6867 20.6319
37.7337 20.5429
37.781 20.4068
37.8281 20.3719
37.8753 20.29
37.9224 20.1998
37.9697 20.1955
38.0168 20.1272
38.064 19.9948
38.1111 19.9952
38.1584 19.8459
38.2056 19.8493
38.2529 19.7976
38.3 19.6966
38.3473 19.6863
38.3945 19.5891
38.4418 19.5668
38.489 19.5517
38.5363 19.3992
38.5837 19.3456
38.6309 19.2359
38.6782 19.2584
38.7254 19.1783
38.7728 19.186
38.82 19.042
38.8674 18.9828
38.9146 18.9229
38.9621 18.8992
39.0093 18.7914
39.0567 18.749
39.104 18.6834
39.1514 18.5408
39.1987 18.597
39.2461 18.5546
39.2934 18.5042
39.3409 18.3684
39.3882 18.3692
39.4356 18.2866
39.483 18.2172
39.5304 18.1946
39.5778 18.1765
39.6253 18.0928
39.6726 18.0159
39.7201 17.9838
39.7675 17.9659
39.815 17.8098
39.8624 17.759
39.9099 17.7028
39.9575 17.6271
40.0049 17.5815
40.0525 17.5149
40.0999 17.5251
40.1474 17.437
40.1949 17.3737
40.2425 17.3155
40.2899 17.3136
40.3375 17.2127
40.385 17.172
40.4326 17.1073
40.48 17.0476
40.5277 17.009
40.5752 16.9786
40.6228 16.7836
40.6703 16.8408
40.718 16.8157
40.7655 16.6927
40.8132 16.6771
40.8607 16.6252
40.9084 16.5622
40.9559 16.5598
41.0036 16.5266
41.0512 16.4045
41.0989 16.403
41.1465 16.3495
41.1942 16.2289
41.242 16.1472
41.2896 16.1836
41.3373 16.0655
41.3849 16.0934
41.4327 15.9917
41.4803 15.9349
41.5281 15.8657
41.5758 15.8837
41.6236 15.7324
41.6712 15.7422
41.7191 15.6318
41.7667 15.582
41.8146 15.5456
41.8622 15.4964
41.9101 15.5009
41.9578 15.3817
42.0057 15.3229
42.0534 15.2886
42.1013 15.2525
42.149 15.1332
42.1969 15.1452
42.2446 15.1052
42.2925 15.0077
42.3403 15.0187
42.3882 14.9973
42.436 14.9775
42.4839 14.8063
42.5319 14.8099
42.5797 14.8205
42.6277 14.7119
42.6755 14.7188
42.7235 14.5785
42.7713 14.5761
42.8193 14.4481
42.8671 14.4454
42.9152 14.3724
42.963 14.3693
43.0111 14.2969
43.0589 14.2789
43.107 14.1874
43.1549 14.1995
43.2029 14.1186
43.2508 14.093
43.2989 13.9773
43.3468 13.958
43.3949 13.8704
43.4429 13.899
43.491 13.847
43.5389 13.7672
43.5871 13.7626
43.635 13.7147
43.6832 13.6493
43.7312 13.5714
43.7793 13.5505
43.8273 13.5194
43.8755 13.4529
43.9237 13.3942
43.9717 13.3429
44.0199 13.3669
44.068 13.2774
44.1162 13.2137
44.1642 13.2024
44.2125 13.1487
44.2606 13.1127
44.3088 13.0153
44.3569 12.9433
44.4052 12.9605
44.4533 12.9159
44.5016 12.8163
44.5497 12.808
44.598 12.7833
44.6461 12.7102
44.6945 12.6761
44.7426 12.6535
44.791 12.5875
44.8391 12.5423
44.8875 12.5477
44.9357 12.4909
44.984 12.3958
45.0322 12.3724
45.0806 12.3449
45.1288 12.2868
45.1773 12.2385
45.2257 12.202
45.2739 12.1657
45.3224 12.0527
45.3706 12.0492
45.4191 12.0036
45.4673 12.0001
45.5158 11.9588
45.5641 11.8748
45.6126 11.8565
45.6609 11.7881
45.7094 11.721
45.7577 11.7349
45.8063 11.6238
45.8546 11.6227
45.9031 11.5559
45.9515 11.5996
46.0001 11.4877
46.0484 11.4763
46.097 11.4206
46.1454 11.3754
46.194 11.388
46.2424 11.3203
46.291 11.2812
46.3395 11.2645
46.3881 11.1761
46.4365 11.1576
46.4852 11.1432
46.5337 11.0414
46.5823 11.0159
46.631 10.9787
46.6795 10.985
46.7282 10.9173
46.7767 10.857
46.8254 10.8243
46.8739 10.7729
46.9226 10.7305
46.9712 10.6663
47.0199 10.6825
47.0685 10.6478
47.1173 10.5671
47.1658 10.5249
47.2146 10.4922
47.2632 10.4774
47.312 10.439
47.3606 10.4114
47.4095 10.3355
47.4581 10.3392
47.5069 10.3049
47.5556 10.2599
47.6044 10.183
47.6531 10.1533
47.702 10.0982
47.7507 10.0876
47.7996 10.0285
47.8483 10.0422
47.8972 10.01
47.9461 9.97018
47.9948 9.8965
48.0438 9.91793
48.0925 9.90555
48.1415 9.80752
48.1902 9.76529
48.2392 9.77236
48.288 9.69657
48.337 9.66417
48.3858 9.6163
48.4348 9.58993
48.4837 9.58469
48.5327 9.50774
48.5815 9.4927
48.6306 9.45302
48.6795 9.43111
48.7285 9.34943
48.7774 9.38252
48.8265 9.35746
48.8754 9.26455
48.9245 9.2258
48.9734 9.22097
49.0226 9.18621
49.0715 9.12271
49.1206 9.06448
49.1696 9.09605
49.2188 9.03129
49.2679 9.00058
49.3169 8.94478
49.3661 8.93163
49.4151 8.87078
49.4643 8.89992
49.5134 8.83163
49.5626 8.78315
49.6117 8.75421
49.6609 8.72363
49.71 8.70209
49.7592 8.67076
49.8083 8.65683
49.8576 8.59872
49.9067 8.52546
49.956 8.53066
50.0052 8.5171
50.0545 8.47534
50.1036 8.43582
50.153 8.38407
50.2022 8.37788
50.2515 8.34889
50.3007 8.31236
50.3501 8.28728
50.3993 8.26581
50.4487 8.18188
50.498 8.17238
50.5474 8.16417
50.5966 8.13769
50.6461 8.06465
50.6955 8.04945
50.7448 8.01684
50.7943 8.0183
50.8436 7.96563
50.8931 7.91945
50.9424 7.88844
50.9919 7.88637
51.0413 7.83411
51.0908 7.8259
51.1402 7.76146
51.1897 7.71891
51.2391 7.70056
51.2887 7.68779
51.3381 7.60724
51.3877 7.62255
51.4371 7.58117
51.4867 7.53793
51.5362 7.53151
51.5858 7.51353
51.6353 7.4769
51.6849 7.42628
51.7344 7.40519
51.7841 7.36861
51.8336 7.33656
51.8833 7.30088
51.9328 7.26735
51.9826 7.21126
52.0323 7.17929
52.0818 7.14569
52.1316 7.14948
52.1812 7.13764
52.231 7.06898
52.2806 7.07912
52.3304 7.05532
52.38 7.02684
52.4298 7.00922
52.4794 6.93814
52.5293 6.93665
52.5789 6.91777
52.6288 6.87758
52.6785 6.85471
52.7284 6.83165
52.7781 6.79799
52.828 6.78559
52.8777 6.69541
52.9276 6.70582
52.9774 6.71361
53.0273 6.63579
53.0771 6.65264
53.1271 6.63958
53.1769 6.54023
53.2269 6.5256
53.2767 6.49597
53.3267 6.46285
53.3765 6.45751
53.4266 6.41965
53.4766 6.40448
53.5265 6.36655
53.5765 6.3367
53.6264 6.28776
53.6765 6.25086
53.7264 6.25667
53.7765 6.20077
53.8265 6.21781
53.8766 6.17717
53.9266 6.14255
53.9767 6.11649
54.0267 6.04472
54.0769 6.11793
54.1269 6.04198
54.1771 5.95543
54.2271 6.00267
54.2773 5.94558
54.3274 5.91002
54.3776 5.86241
54.4277 5.85069
54.478 5.82535
54.528 5.77911
54.5783 5.72124
54.6285 5.74293
54.6788 5.62322
54.7289 5.57949
54.7792 5.53517
54.8296 5.50554
54.8798 5.47253
54.9301 5.47489
54.9803 5.4205
55.0307 5.41801
55.0809 5.39376
55.1314 5.31662
55.1816 5.24311
55.232 5.22716
55.2823 5.1787
55.3328 5.10892
55.383 5.07328
55.4335 5.07609
55.4838 4.99017
55.5344 4.94429
55.5847 4.92454
55.6352 4.9171
55.6856 4.80462
55.7361 4.77906