File: XRD/Ni3Fe_FD0516.xy
TT I
1.27165 7.54522
1.31627 6.30229
1.36089 7.02355
1.40551 6.39526
1.45013 6.05287
1.49476 6.53383
1.53938 5.82897
1.584 5.45366
1.62863 5.34069
1.67325 5.38179
1.71787 5.39911
1.7625 4.69704
1.80712 4.99053
1.85174 5.41847
1.89636 4.97515
1.94099 5.25022
1.98562 4.68523
2.03025 4.48059
2.07487 4.43275
2.11949 4.74827
2.16411 5.29512
2.20874 15.6423
2.25338 25.3155
2.298 6.52287
2.34263 5.7522
2.38725 6.11487
2.43188 6.30214
2.4765 6.27037
2.52115 6.49081
2.56577 8.51635
2.6104 7.64263
2.65503 7.69357
2.69965 7.83858
2.7443 7.70684
2.78893 7.68164
2.83356 8.89184
2.87818 9.68533
2.92281 9.0952
2.96744 9.65495
3.01209 10.7494
3.05672 11.4218
3.10135 12.4576
3.14599 13.2825
3.19062 13.9826
3.23527 14.9367
3.2799 16.0416
3.32454 17.166
3.36917 18.2226
3.4138 19.173
3.45844 20.029
3.50309 21.4291
3.54773 22.4032
3.59237 24.7684
3.637 103.204
3.68164 64.3147
3.7263 26.8311
3.77094 26.3651
3.81558 27.3909
3.86022 27.9091
3.90486 29.1838
3.9495 30.5224
3.99416 31.0198
4.0388 32.5762
4.08344 34.2087
4.12809 35.7898
4.17273 37.3307
4.21738 44.4918
4.26204 275.862
4.30669 239.403
4.35133 50.1393
4.39598 45.4239
4.44063 55.4775
4.4853 68.335
4.52995 51.0973
4.5746 51.6585
4.61925 53.4366
4.6639 55.9479
4.70855 58.4723
4.75322 61.7441
4.79788 64.6419
4.84253 67.9259
4.88719 72.4349
4.93184 75.9449
4.97652 81.4303
5.02118 87.3868
5.06583 95.3712
5.11049 107.511
5.15515 184.396
5.19981 386.373
5.24449 2890.5
5.28916 11890.6
5.33382 3252.95
5.37848 204.918
5.42315 133.695
5.46783 116.859
5.5125 108.283
5.55716 104.109
5.60183 99.9631
5.6465 98.2904
5.69117 95.5117
5.73586 93.2218
5.78053 92.933
5.8252 92.6403
5.86988 93.1683
5.91455 95.4983
5.95924 104.241
6.00392 213.893
6.0486 1001.53
6.09328 4095.55
6.13795 3454.47
6.18263 299.799
6.22733 97.4833
6.27201 85.4199
6.3167 107.215
6.36138 82.7781
6.40606 70.3875
6.45075 68.3176
6.49545 66.458
6.54014 64.7508
6.58483 63.6787
6.62952 63.8483
6.67421 98.6973
6.71892 155.545
6.76361 70.722
6.8083 59.5928
6.853 58.1781
6.89769 57.6969
6.94239 57.4871
6.98711 56.6147
7.03181 56.441
7.07651 56.2604
7.12121 56.3622
7.16591 56.0717
7.21063 56.6852
7.25533 72.978
7.30004 196.431
7.34475 97.3471
7.38945 57.6617
7.43416 55.354
7.47889 55.4493
7.5236 55.8976
7.56831 56.1816
7.61303 58.494
7.65774 58.5304
7.70247 56.5641
7.74719 56.8544
7.79191 57.6246
7.83663 57.7937
7.88135 58.7517
7.92607 59.1196
7.97081 60.375
8.01553 61.5976
8.06026 63.0961
8.10498 64.7024
8.14971 75.1415
8.19446 74.026
8.23919 70.3804
8.28392 72.7921
8.32865 74.9218
8.37339 78.8709
8.41812 86.0372
8.46288 118.461
8.50761 167.156
8.55235 391.071
8.59709 1133.7
8.64183 2106.56
8.68658 1066.2
8.73134 185.852
8.77609 101.975
8.82083 94.2701
8.86558 91.0078
8.91033 91.0602
8.9551 93.501
8.99985 86.4998
9.04461 84.1012
9.08936 83.7195
9.13412 82.8171
9.17888 83.0412
9.22365 83.8724
9.26841 83.1394
9.31318 84.0394
9.35794 83.1038
9.4027 84.0856
9.44749 84.5894
9.49226 85.0279
9.53703 86.2103
9.5818 88.3002
9.62657 93.3184
9.67134 100.498
9.71614 94.6775
9.76091 94.9837
9.80569 97.1576
9.85047 101.097
9.89525 127.794
9.94005 141.218
9.98484 179.424
10.0296 346.902
10.0744 783.402
10.1192 1650.0
10.164 1649.53
10.2088 449.867
10.2536 134.637
10.2984 116.145
10.3432 118.035
10.388 106.363
10.4328 119.335
10.4776 161.646
10.5224 276.624
10.5672 492.882
10.612 521.266
10.6568 226.65
10.7017 100.35
10.7465 87.8809
10.7913 84.1103
10.8361 82.2769
10.8809 79.7626
10.9257 79.8846
10.9706 80.459
11.0154 75.9011
11.0602 73.7036
11.105 73.0268
11.1499 77.7027
11.1947 86.2811
11.2395 76.0547
11.2844 71.9307
11.3292 68.2499
11.374 67.174
11.4189 66.5038
11.4637 65.6353
11.5086 66.2264
11.5534 69.7424
11.5983 66.708
11.6431 64.5456
11.688 63.8972
11.7328 63.3684
11.7777 63.7759
11.8225 63.1143
11.8674 63.0705
11.9122 63.6811
11.9571 63.5449
12.002 64.1614
12.0468 68.4351
12.0917 80.5777
12.1366 103.62
12.1814 150.536
12.2263 202.394
12.2712 175.649
12.3161 102.891
12.3609 72.428
12.4058 65.787
12.4507 65.3138
12.4956 65.301
12.5405 65.3779
12.5853 66.5672
12.6302 75.0587
12.6751 81.6939
12.72 71.491
12.7649 68.7033
12.8098 68.9763
12.8547 70.8147
12.8996 71.6648
12.9445 73.14
12.9894 74.6099
13.0343 76.647
13.0792 79.7612
13.1242 88.9762
13.1691 113.828
13.214 149.699
13.2589 232.497
13.3038 355.104
13.3487 430.327
13.3937 285.388
13.4386 131.907
13.4835 107.278
13.5285 122.216
13.5734 157.843
13.6183 239.467
13.6633 333.591
13.7082 344.297
13.7531 201.727
13.7981 102.978
13.843 83.0552
13.888 80.7429
13.9329 77.9919
13.9779 76.8614
14.0228 75.3688
14.0678 73.9931
14.1127 73.4044
14.1577 73.4137
14.2027 72.372
14.2476 71.3941
14.2926 71.4698
14.3376 73.0609
14.3825 70.9342
14.4275 69.8935
14.4725 69.3532
14.5175 69.6742
14.5624 69.7174
14.6074 72.142
14.6524 72.6603
14.6974 71.268
14.7424 72.5475
14.7874 79.2136
14.8324 89.7395
14.8774 110.579
14.9224 150.172
14.9674 199.637
15.0124 216.951
15.0574 156.277
15.1024 95.0871
15.1474 73.735
15.1924 71.4072
15.2374 72.0855
15.2824 71.5039
15.3274 69.351
15.3725 67.8143
15.4175 67.0437
15.4625 66.8763
15.5076 67.1951
15.5526 67.053
15.5976 66.4691
15.6426 67.4498
15.6877 72.7895
15.7327 80.7106
15.7778 95.1819
15.8228 124.799
15.8679 166.634
15.9129 192.522
15.958 161.333
16.003 103.064
16.0481 70.6646
16.0931 66.0261
16.1382 63.9379
16.1833 61.5559
16.2283 59.7285
16.2734 59.2151
16.3185 59.603
16.3636 60.2474
16.4086 58.8361
16.4537 56.9088
16.4988 56.2717
16.5439 56.2141
16.589 55.8065
16.6341 55.4678
16.6792 55.2764
16.7243 55.465
16.7694 55.782
16.8145 55.6578
16.8596 55.8916
16.9047 57.7453
16.9498 57.7859
16.9949 56.5511
17.04 56.4029
17.0851 57.6231
17.1302 59.2493
17.1754 62.4363
17.2205 66.9575
17.2656 73.9918
17.3108 82.0357
17.3559 82.3288
17.401 72.5763
17.4462 63.4958
17.4913 59.8542
17.5365 59.8458
17.5815 60.0048
17.6268 60.1165
17.6718 61.1359
17.7171 61.7336
17.7622 61.8468
17.8074 62.5942
17.8525 64.776
17.8977 69.0994
17.9428 74.6575
17.9881 82.7933
18.0331 98.6137
18.0784 118.892
18.1237 137.574
18.1688 134.047
18.214 107.862
18.2591 88.7684
18.3044 90.2764
18.3495 99.2672
18.3948 106.486
18.4399 99.574
18.4852 80.6407
18.5303 67.74
18.5756 63.1405
18.6207 62.1489
18.666 61.2114
18.7112 60.3666
18.7565 59.6913
18.8016 59.2698
18.8469 58.8088
18.892 58.3706
18.9374 57.8991
18.9825 57.9536
19.0278 57.7542
19.073 57.5736
19.1183 58.0496
19.1635 59.0384
19.2088 60.1988
19.254 62.6768
19.2993 66.788
19.3447 72.6447
19.3898 76.9793
19.4352 73.9886
19.4804 64.8183
19.5257 57.9952
19.5709 55.0113
19.6163 54.6737
19.6615 54.4796
19.7068 54.1351
19.752 53.9633
19.7974 54.083
19.8426 55.1635
19.888 55.6946
19.9332 56.768
19.9786 59.0545
20.0238 62.4051
20.0692 66.9798
20.1144 70.2385
20.1598 69.3238
20.205 64.7206
20.2504 62.8105
20.2957 63.8825
20.3411 65.9676
20.3863 65.1126
20.4318 59.7506
20.477 54.7459
20.5224 52.4184
20.5677 51.7107
20.6131 51.0522
20.6586 50.2957
20.7038 50.1949
20.7493 49.8467
20.7945 49.6872
20.84 49.5286
20.8853 49.3862
20.9307 49.1449
20.976 49.285
21.0215 49.3561
21.0668 49.8566
21.1122 50.0079
21.1575 50.6916
21.203 51.2077
21.2483 51.9737
21.2938 52.0955
21.3391 50.9885
21.3846 49.7373
21.4299 49.0769
21.4754 49.0902
21.5207 49.2224
21.5662 49.4433
21.6116 49.6553
21.6571 50.4213
21.7024 51.4913
21.7479 53.2844
21.7933 55.8508
21.8388 59.0571
21.8843 62.5561
21.9297 64.9646
21.9752 64.223
22.0206 60.9058
22.0661 57.5253
22.1115 56.4204
22.157 56.5725
22.2024 55.168
22.248 52.4279
22.2933 50.7674
22.3389 49.7533
22.3843 49.7563
22.4299 49.6069
22.4753 49.6063
22.5208 49.1821
22.5662 49.1706
22.6118 49.3038
22.6572 49.383
22.7028 49.8911
22.7483 50.3914
22.7939 50.9438
22.8393 52.5351
22.8849 54.5188
22.9303 56.225
22.9759 58.0343
23.0214 58.1178
23.067 55.5615
23.1126 52.1043
23.1581 50.0042
23.2037 49.3876
23.2492 49.4678
23.2948 49.5004
23.3403 49.7321
23.3859 50.4109
23.4314 51.3893
23.477 53.0091
23.5225 54.9989
23.5682 56.9794
23.6137 58.3574
23.6593 56.6551
23.7048 52.9776
23.7505 49.2077
23.796 47.3567
23.8417 46.7208
23.8872 46.2218
23.9329 45.8467
23.9784 45.242
24.0241 45.1459
24.0697 45.153
24.1154 44.7055
24.1609 44.5407
24.2066 44.3567
24.2522 44.2987
24.2979 44.0554
24.3434 43.8537
24.3892 43.8535
24.4349 43.8173
24.4805 43.3839
24.5262 43.6814
24.5718 43.4024
24.6175 43.4291
24.6631 43.5184
24.7089 42.9675
24.7545 42.9168
24.8002 42.7876
24.8458 42.7238
24.8916 42.6085
24.9372 42.7317
24.983 43.0272
25.0286 43.2839
25.0744 43.7012
25.12 44.124
25.1658 44.8956
25.2114 45.2063
25.2572 45.3188
25.3029 45.3115
25.3487 45.3589
25.3943 45.2265
25.4402 44.2903
25.4858 43.1152
25.5316 41.9565
25.5773 41.4204
25.6231 41.4129
25.669 41.0276
25.7147 41.0225
25.7605 40.8716
25.8062 41.1081
25.8521 41.1704
25.8977 41.2397
25.9436 41.4932
25.9893 41.4458
26.0352 41.8653
26.0809 41.9177
26.1268 42.2609
26.1725 42.0058
26.2184 41.4337
26.2641 40.8552
26.31 40.6844
26.3557 40.5183
26.4017 40.6519
26.4474 40.9524
26.4933 41.3618
26.5391 41.5699
26.585 42.0576
26.6308 42.4379
26.6767 42.6959
26.7225 42.7146
26.7684 41.9997
26.8142 41.3964
26.8601 41.0256
26.9059 40.7399
26.9519 40.0933
26.9979 39.716
27.0437 39.4891
27.0896 39.1047
27.1354 39.2147
27.1814 38.9896
27.2272 39.016
27.2732 39.0349
27.3191 38.8068
27.3651 38.9873
27.4109 38.8315
27.4569 38.9982
27.5027 38.9123
27.5488 38.9898
27.5946 38.9284
27.6407 38.6359
27.6865 38.526
27.7326 38.2775
27.7784 38.4414
27.8245 38.2463
27.8703 38.4623
27.9164 38.7198
27.9623 38.8034
28.0084 39.0771
28.0543 39.3849
28.1003 39.3547
28.1462 39.3364
28.1923 39.0382
28.2384 38.5
28.2843 38.1246
28.3304 37.7461
28.3764 37.2431
28.4225 36.8146
28.4684 36.7492
28.5145 36.4055
28.5605 36.3552
28.6066 36.0266
28.6526 36.1459
28.6987 36.1081
28.7447 35.8792
28.7908 35.9124
28.8368 35.9034
28.8829 35.9536
28.9289 35.8142
28.9751 35.5603
29.0211 35.4502
29.0673 34.9833
29.1133 35.0535
29.1595 34.9037
29.2055 34.8308
29.2517 34.8552
29.2977 34.8435
29.3439 34.6987
29.3899 34.6426
29.4361 34.528
29.4824 34.3817
29.5284 34.2044
29.5746 33.8337
29.6207 33.5638
29.6669 33.5988
29.713 33.6052
29.7593 33.2932
29.8053 33.2092
29.8516 33.1507
29.8977 33.2281
29.9439 33.0009
29.99 32.9539
30.0363 32.8537
30.0824 32.9626
30.1287 32.9124
30.1748 32.7993
30.2211 32.8851
30.2673 32.7013
30.3136 32.921
30.3597 32.6127
30.406 32.5831
30.4522 32.495
30.4985 32.4276
30.5447 32.5568
30.591 32.4377
30.6372 32.6136
30.6835 32.6162
30.7297 32.671
30.7761 32.5563
30.8224 32.2709
30.8686 32.2558
30.915 32.1085
30.9612 31.8816
31.0076 31.7733
31.0538 31.5724
31.1002 31.5427
31.1464 31.3646
31.1928 31.2877
31.2391 31.372
31.2855 31.306
31.3317 31.287
31.3781 31.36
31.4244 31.2492
31.4708 31.2212
31.5171 31.188
31.5636 31.1371
31.6098 30.9473
31.6563 30.7492
31.7026 30.596
31.7491 30.4591
31.7953 30.655
31.8418 30.55
31.8881 30.613
31.9346 30.4042
31.9809 30.4198
32.0275 30.3058
32.074 30.3441
32.1203 29.9734
32.1668 29.8979
32.2132 29.7276
32.2597 29.6919
32.306 29.5357
32.3526 29.4433
32.399 29.194
32.4455 29.2381
32.4919 29.2146
32.5385 28.957
32.5848 28.8972
32.6314 28.7983
32.6778 28.7824
32.7244 28.6289
32.7708 28.542
32.8174 28.471
32.8638 28.3543
32.9104 28.4862
32.9569 28.349
33.0035 28.2181
33.0499 28.1917
33.0966 28.1577
33.143 28.127
33.1897 28.0547
33.2361 27.9561
33.2828 27.8817
33.3293 27.7924
33.3759 27.8615
33.4226 27.5922
33.4691 27.4312
33.5158 27.3647
33.5623 27.2575
33.609 27.1127
33.6555 27.0062
33.7022 26.93
33.7487 26.8292
33.7954 26.7965
33.842 26.7326
33.8887 26.6447
33.9353 26.5852
33.982 26.6127
34.0286 26.4294
34.0753 26.301
34.1219 26.2598
34.1687 26.1466
34.2152 26.1219
34.262 25.9746
34.3086 25.8642
34.3554 25.915
34.402 25.6956
34.4488 25.6651
34.4954 25.5859
34.5422 25.5486
34.5889 25.336
34.6357 25.3119
34.6825 25.2031
34.7292 25.1384
34.776 25.0245
34.8227 24.9608
34.8695 24.9762
34.9162 24.9257
34.9631 24.8512
35.0098 24.792
35.0566 24.5729
35.1033 24.628
35.1502 24.4821
35.1969 24.4423
35.2438 24.3898
35.2906 24.3871
35.3375 24.4042
35.3842 24.3058
35.4311 24.3212
35.4779 24.2027
35.5248 24.1775
35.5716 24.1235
35.6185 23.9934
35.6653 23.8776
35.7123 23.8734
35.759 23.7778
35.806 23.6272
35.8528 23.5668
35.8998 23.5401
35.9468 23.4163
35.9936 23.2828
36.0406 23.2978
36.0874 23.2684
36.1345 23.1798
36.1813 23.1765
36.2283 23.017
36.2752 22.8832
36.3222 22.9557
36.3691 22.8816
36.4161 22.7581
36.463 22.763
36.5101 22.6867
36.557 22.6346
36.6041 22.4925
36.651 22.5211
36.6981 22.4579
36.745 22.3375
36.7921 22.2914
36.839 22.088
36.8861 22.1198
36.9331 22.0355
36.9802 21.9038
37.0272 21.8739
37.0743 21.7467
37.1213 21.8102
37.1684 21.702
37.2154 21.6743
37.2626 21.4985
37.3098 21.4521
37.3568 21.3788
37.404 21.4074
37.451 21.2791
37.4982 21.1991
37.5452 21.0922
37.5924 21.0617
37.6395 21.0602
37.6867 20.9887
37.7337 20.8878
37.781 20.7792
37.8281 20.7827
37.8753 20.6382
37.9224 20.5992
37.9697 20.5381
38.0168 20.4658
38.064 20.4101
38.1111 20.3577
38.1584 20.2818
38.2056 20.2149
38.2529 20.2124
38.3 20.0446
38.3473 20.0303
38.3945 19.958
38.4418 19.9007
38.489 19.8188
38.5363 19.7657
38.5837 19.723
38.6309 19.6204
38.6782 19.5915
38.7254 19.5381
38.7728 19.4652
38.82 19.4477
38.8674 19.3263
38.9146 19.2675
38.9621 19.2349
39.0093 19.1966
39.0567 19.1136
39.104 19.0313
39.1514 18.9629
39.1987 18.9805
39.2461 18.8503
39.2934 18.8227
39.3409 18.7223
39.3882 18.6044
39.4356 18.6732
39.483 18.5846
39.5304 18.4468
39.5778 18.5055
39.6253 18.4521
39.6726 18.3533
39.7201 18.2984
39.7675 18.2653
39.815 18.1931
39.8624 18.052
39.9099 18.0491
39.9575 17.9259
40.0049 17.9408
40.0525 17.8327
40.0999 17.82
40.1474 17.7767
40.1949 17.675
40.2425 17.6052
40.2899 17.6471
40.3375 17.5308
40.385 17.5247
40.4326 17.4271
40.48 17.3751
40.5277 17.3192
40.5752 17.2594
40.6228 17.2041
40.6703 17.1346
40.718 17.1055
40.7655 17.0429
40.8132 16.954
40.8607 16.9591
40.9084 16.9698
40.9559 16.8769
41.0036 16.7973
41.0512 16.7106
41.0989 16.699
41.1465 16.5802
41.1942 16.5217
41.242 16.4985
41.2896 16.4647
41.3373 16.3928
41.3849 16.3919
41.4327 16.3002
41.4803 16.2359
41.5281 16.1318
41.5758 16.0521
41.6236 16.0687
41.6712 15.9522
41.7191 15.9745
41.7667 15.8929
41.8146 15.8478
41.8622 15.7899
41.9101 15.6978
41.9578 15.6705
42.0057 15.6074
42.0534 15.5956
42.1013 15.5444
42.149 15.4859
42.1969 15.4207
42.2446 15.3264
42.2925 15.3065
42.3403 15.268
42.3882 15.2389
42.436 15.195
42.4839 15.1032
42.5319 15.1216
42.5797 15.0499
42.6277 14.9706
42.6755 14.9185
42.7235 14.8216
42.7713 14.8144
42.8193 14.7486
42.8671 14.7014
42.9152 14.6677
42.963 14.6298
43.0111 14.5236
43.0589 14.5444
43.107 14.3893
43.1549 14.3923
43.2029 14.3422
43.2508 14.2483
43.2989 14.2982
43.3468 14.181
43.3949 14.1457
43.4429 14.1505
43.491 14.1026
43.5389 14.0005
43.5871 13.9803
43.635 13.9317
43.6832 13.9207
43.7312 13.8034
43.7793 13.7185
43.8273 13.7489
43.8755 13.6382
43.9237 13.6124
43.9717 13.5735
44.0199 13.5571
44.068 13.5627
44.1162 13.4602
44.1642 13.4213
44.2125 13.3661
44.2606 13.2971
44.3088 13.2647
44.3569 13.2461
44.4052 13.194
44.4533 13.131
44.5016 13.0451
44.5497 13.0033
44.598 12.9697
44.6461 12.9839
44.6945 12.8739
44.7426 12.8768
44.791 12.8044
44.8391 12.743
44.8875 12.693
44.9357 12.6804
44.984 12.594
45.0322 12.5503
45.0806 12.5325
45.1288 12.4788
45.1773 12.4564
45.2257 12.3932
45.2739 12.3494
45.3224 12.3262
45.3706 12.2633
45.4191 12.236
45.4673 12.1915
45.5158 12.1632
45.5641 12.0916
45.6126 12.0542
45.6609 12.0354
45.7094 11.8998
45.7577 11.9485
45.8063 11.864
45.8546 11.843
45.9031 11.7953
45.9515 11.7679
46.0001 11.7186
46.0484 11.6696
46.097 11.6627
46.1454 11.6154
46.194 11.5475
46.2424 11.4801
46.291 11.4616
46.3395 11.4111
46.3881 11.3713
46.4365 11.369
46.4852 11.2618
46.5337 11.2948
46.5823 11.2176
46.631 11.1307
46.6795 11.1599
46.7282 11.1217
46.7767 11.0602
46.8254 10.9853
46.8739 10.9507
46.9226 10.9585
46.9712 10.8707
47.0199 10.8144
47.0685 10.834
47.1173 10.7469
47.1658 10.6979
47.2146 10.6874
47.2632 10.64
47.312 10.6123
47.3606 10.5668
47.4095 10.5263
47.4581 10.4901
47.5069 10.4424
47.5556 10.4152
47.6044 10.3725
47.6531 10.3569
47.702 10.2771
47.7507 10.2542
47.7996 10.2019
47.8483 10.192
47.8972 10.1654
47.9461 10.1263
47.9948 10.0492
48.0438 10.0496
48.0925 10.0075
48.1415 9.97918
48.1902 9.89893
48.2392 9.93637
48.288 9.87465
48.337 9.84178
48.3858 9.7478
48.4348 9.75682
48.4837 9.75616
48.5327 9.69944
48.5815 9.60061
48.6306 9.62697
48.6795 9.58327
48.7285 9.55
48.7774 9.47593
48.8265 9.47957
48.8754 9.433
48.9245 9.40618
48.9734 9.38343
49.0226 9.35104
49.0715 9.32804
49.1206 9.24087
49.1696 9.23056
49.2188 9.20692
49.2679 9.14297
49.3169 9.11831
49.3661 9.07705
49.4151 9.06393
49.4643 9.01433
49.5134 8.98233
49.5626 8.94003
49.6117 8.92733
49.6609 8.88399
49.71 8.85712
49.7592 8.80292
49.8083 8.77264
49.8576 8.78016
49.9067 8.71402
49.956 8.69194
50.0052 8.65937
50.0545 8.62367
50.1036 8.56814
50.153 8.56465
50.2022 8.52227
50.2515 8.47783
50.3007 8.42446
50.3501 8.41653
50.3993 8.36633
50.4487 8.32401
50.498 8.32426
50.5474 8.28587
50.5966 8.24851
50.6461 8.23532
50.6955 8.21517
50.7448 8.17071
50.7943 8.08358
50.8436 8.08924
50.8931 8.09069
50.9424 8.05829
50.9919 8.02024
51.0413 7.94035
51.0908 7.94539
51.1402 7.88844
51.1897 7.84537
51.2391 7.87456
51.2887 7.80967
51.3381 7.74118
51.3877 7.78141
51.4371 7.6737
51.4867 7.63327
51.5362 7.6155
51.5858 7.61838
51.6353 7.57169
51.6849 7.54612
51.7344 7.53997
51.7841 7.50971
51.8336 7.46876
51.8833 7.46993
51.9328 7.41036
51.9826 7.35844
52.0323 7.32768
52.0818 7.28795
52.1316 7.297
52.1812 7.28178
52.231 7.22985
52.2806 7.19121
52.3304 7.18858
52.38 7.15803
52.4298 7.10716
52.4794 7.05596
52.5293 7.02591
52.5789 7.05128
52.6288 6.99794
52.6785 6.94164
52.7284 6.90212
52.7781 6.91472
52.828 6.88853
52.8777 6.83897
52.9276 6.8323
52.9774 6.76921
53.0273 6.76068
53.0771 6.72093
53.1271 6.68634
53.1769 6.70171
53.2269 6.66237
53.2767 6.58667
53.3267 6.58089
53.3765 6.54981
53.4266 6.54765
53.4766 6.51209
53.5265 6.42093
53.5765 6.46746
53.6264 6.42318
53.6765 6.4182
53.7264 6.39794
53.7765 6.28978
53.8265 6.32346
53.8766 6.30147
53.9266 6.25311
53.9767 6.24491
54.0267 6.16771
54.0769 6.15316
54.1269 6.12418
54.1771 6.05673
54.2271 6.11709
54.2773 6.01233
54.3274 5.98952
54.3776 6.00858
54.4277 5.93905
54.478 5.94234
54.528 5.87973
54.5783 5.87984
54.6285 5.77196
54.6788 5.76143
54.7289 5.71661
54.7792 5.66308
54.8296 5.63688
54.8798 5.61243
54.9301 5.60635
54.9803 5.49919
55.0307 5.51461
55.0809 5.45217
55.1314 5.39479
55.1816 5.36403
55.232 5.35247
55.2823 5.26732
55.3328 5.20388
55.383 5.18805
55.4335 5.145
55.4838 5.04445
55.5344 5.00882
55.5847 4.97641
55.6352 4.98988
55.6856 4.91292
55.7361 4.8495