File: XRD/Ni3Fe_FD1059.xy
TT I
1.27165 7.27156
1.31627 6.20774
1.36089 6.08319
1.40551 5.62513
1.45013 6.3025
1.49476 5.78061
1.53938 5.10245
1.584 4.6449
1.62863 4.47257
1.67325 4.74123
1.71787 5.4209
1.7625 4.42091
1.80712 4.56343
1.85174 3.98664
1.89636 3.84177
1.94099 4.60351
1.98562 3.55139
2.03025 4.13287
2.07487 4.35692
2.11949 3.87421
2.16411 4.20562
2.20874 5.26758
2.25338 6.64241
2.298 5.47663
2.34263 5.02861
2.38725 5.66068
2.43188 6.01795
2.4765 6.48961
2.52115 7.33792
2.56577 7.68829
2.6104 8.23145
2.65503 7.95039
2.69965 8.04233
2.7443 8.12304
2.78893 8.1395
2.83356 8.83677
2.87818 8.89785
2.92281 8.87626
2.96744 10.418
3.01209 10.418
3.05672 10.9005
3.10135 12.33
3.14599 13.0563
3.19062 13.9705
3.23527 14.3871
3.2799 15.1925
3.32454 16.2559
3.36917 17.2365
3.4138 18.3199
3.45844 18.44
3.50309 19.708
3.54773 20.3964
3.59237 21.1501
3.637 27.5008
3.68164 26.5933
3.7263 23.8511
3.77094 24.7397
3.81558 25.4414
3.86022 26.0138
3.90486 27.644
3.9495 28.4673
3.99416 29.2857
4.0388 30.4221
4.08344 31.6336
4.12809 32.5149
4.17273 33.9337
4.21738 34.7773
4.26204 52.0915
4.30669 56.7654
4.35133 40.822
4.39598 40.6733
4.44063 42.9546
4.4853 46.635
4.52995 46.8507
4.5746 48.2273
4.61925 50.5277
4.6639 52.5272
4.70855 55.4735
4.75322 57.9465
4.79788 60.6942
4.84253 64.2379
4.88719 67.9891
4.93184 71.7284
4.97652 76.6551
5.02118 83.0125
5.06583 89.496
5.11049 97.6865
5.15515 117.704
5.19981 229.821
5.24449 2485.94
5.28916 13552.9
5.33382 3363.67
5.37848 210.556
5.42315 123.884
5.46783 108.237
5.5125 101.145
5.55716 97.1659
5.60183 93.6024
5.6465 91.1625
5.69117 89.7377
5.73586 88.0812
5.78053 87.2216
5.8252 86.4614
5.86988 86.8389
5.91455 88.917
5.95924 95.2756
6.00392 162.723
6.0486 886.69
6.09328 4564.17
6.13795 3629.89
6.18263 241.516
6.22733 87.5146
6.27201 75.8291
6.3167 72.8767
6.36138 68.1682
6.40606 65.1036
6.45075 63.7403
6.49545 61.8273
6.54014 60.1469
6.58483 58.9445
6.62952 58.0329
6.67421 58.5016
6.71892 63.8699
6.76361 57.0245
6.8083 54.2871
6.853 53.9986
6.89769 53.5283
6.94239 53.2905
6.98711 52.6819
7.03181 52.123
7.07651 52.4322
7.12121 51.6263
7.16591 51.3995
7.21063 51.2046
7.25533 51.1962
7.30004 61.7749
7.34475 56.0118
7.38945 51.6919
7.43416 51.288
7.47889 51.527
7.5236 58.6339
7.56831 72.8887
7.61303 56.6046
7.65774 53.1363
7.70247 53.2187
7.74719 53.3302
7.79191 53.8208
7.83663 53.8539
7.88135 54.611
7.92607 55.714
7.97081 56.8727
8.01553 57.4808
8.06026 58.9027
8.10498 60.3407
8.14971 62.1847
8.19446 64.0335
8.23919 65.6097
8.28392 67.6688
8.32865 70.6781
8.37339 73.8195
8.41812 77.936
8.46288 85.9656
8.50761 127.748
8.55235 373.996
8.59709 1090.37
8.64183 2289.32
8.68658 1119.51
8.73134 171.791
8.77609 94.548
8.82083 88.2841
8.86558 85.4322
8.91033 83.513
8.9551 82.7268
8.99985 80.6665
9.04461 80.1232
9.08936 79.7526
9.13412 78.9201
9.17888 79.2323
9.22365 90.5304
9.26841 113.106
9.31318 89.2311
9.35794 79.7242
9.4027 80.1359
9.44749 80.587
9.49226 80.8448
9.53703 81.9923
9.5818 83.244
9.62657 84.1129
9.67134 86.6114
9.71614 87.4865
9.76091 89.5857
9.80569 91.6506
9.85047 94.0454
9.89525 98.8355
9.94005 105.995
9.98484 146.63
10.0296 348.263
10.0744 772.597
10.1192 1772.45
10.164 1707.91
10.2088 449.402
10.2536 125.032
10.2984 103.367
10.3432 100.565
10.388 97.8814
10.4328 107.716
10.4776 161.371
10.5224 271.326
10.5672 508.083
10.612 563.767
10.6568 229.074
10.7017 103.66
10.7465 85.6624
10.7913 80.0263
10.8361 77.5916
10.8809 75.8054
10.9257 73.7828
10.9706 72.3954
11.0154 70.665
11.0602 69.5095
11.105 68.2062
11.1499 67.0436
11.1947 67.4154
11.2395 65.4286
11.2844 64.8095
11.3292 63.9145
11.374 63.1669
11.4189 62.7609
11.4637 61.7946
11.5086 61.0936
11.5534 61.3385
11.5983 60.9139
11.6431 60.9337
11.688 60.0992
11.7328 59.7454
11.7777 59.5982
11.8225 59.5829
11.8674 59.8605
11.9122 61.8196
11.9571 67.8403
12.002 66.2249
12.0468 64.0887
12.0917 76.5469
12.1366 98.6934
12.1814 146.069
12.2263 202.413
12.2712 176.901
12.3161 98.7896
12.3609 64.8234
12.4058 61.2721
12.4507 61.1323
12.4956 61.4932
12.5405 61.4158
12.5853 61.9839
12.6302 62.5456
12.6751 63.9535
12.72 63.8268
12.7649 64.5423
12.8098 65.1585
12.8547 66.4697
12.8996 67.6762
12.9445 69.3123
12.9894 71.0694
13.0343 72.6694
13.0792 76.7275
13.1242 82.5081
13.1691 107.545
13.214 147.637
13.2589 228.519
13.3038 367.354
13.3487 451.167
13.3937 282.502
13.4386 128.306
13.4835 99.2217
13.5285 120.048
13.5734 156.677
13.6183 235.92
13.6633 355.809
13.7082 362.777
13.7531 207.063
13.7981 100.899
13.843 79.5283
13.888 76.9358
13.9329 74.5493
13.9779 73.7263
14.0228 72.2449
14.0678 70.7993
14.1127 71.7639
14.1577 74.9211
14.2027 73.4596
14.2476 68.8503
14.2926 67.4002
14.3376 67.4831
14.3825 67.0182
14.4275 66.3069
14.4725 66.2186
14.5175 66.2787
14.5624 66.3472
14.6074 66.6883
14.6524 67.0099
14.6974 67.262
14.7424 68.6317
14.7874 74.2946
14.8324 88.4754
14.8774 110.06
14.9224 148.762
14.9674 208.593
15.0124 229.378
15.0574 160.742
15.1024 94.483
15.1474 71.1766
15.1924 67.9751
15.2374 66.6253
15.2824 65.8811
15.3274 65.0273
15.3725 64.2127
15.4175 64.0705
15.4625 63.5547
15.5076 63.5138
15.5526 63.4106
15.5976 63.4677
15.6426 64.0422
15.6877 68.4908
15.7327 79.449
15.7778 94.7062
15.8228 122.487
15.8679 169.143
15.9129 202.692
15.958 169.368
16.003 104.682
16.0481 69.5058
16.0931 62.8873
16.1382 59.8366
16.1833 58.4052
16.2283 56.7557
16.2734 56.2606
16.3185 55.9502
16.3636 55.3273
16.4086 54.4702
16.4537 53.8254
16.4988 53.5493
16.5439 53.1853
16.589 53.1577
16.6341 52.788
16.6792 52.5182
16.7243 52.767
16.7694 52.7468
16.8145 52.5898
16.8596 52.9862
16.9047 53.5845
16.9498 54.1426
16.9949 53.8795
17.04 53.9056
17.0851 54.862
17.1302 56.8669
17.1754 60.183
17.2205 64.8133
17.2656 72.1509
17.3108 81.7377
17.3559 82.6546
17.401 72.3819
17.4462 61.5152
17.4913 57.6643
17.5365 57.17
17.5815 57.1651
17.6268 57.7549
17.6718 58.1081
17.7171 58.9633
17.7622 59.8495
17.8074 60.6839
17.8525 61.7958
17.8977 66.2945
17.9428 73.3636
17.9881 81.9265
18.0331 97.6996
18.0784 121.133
18.1237 142.818
18.1688 138.381
18.214 109.553
18.2591 88.1967
18.3044 88.7981
18.3495 99.4597
18.3948 107.798
18.4399 99.0601
18.4852 79.052
18.5303 65.7199
18.5756 61.3061
18.6207 60.1593
18.666 58.8709
18.7112 58.1424
18.7565 57.359
18.8016 57.2584
18.8469 56.436
18.892 56.1004
18.9374 55.7463
18.9825 55.3997
19.0278 55.0393
19.073 54.9745
19.1183 55.1684
19.1635 56.2397
19.2088 58.1231
19.254 60.4839
19.2993 65.4474
19.3447 72.2247
19.3898 76.2598
19.4352 72.3417
19.4804 63.4526
19.5257 56.189
19.5709 53.0841
19.6163 52.5202
19.6615 52.1653
19.7068 51.8188
19.752 51.8707
19.7974 51.8316
19.8426 52.6414
19.888 53.7943
19.9332 55.2387
19.9786 57.5537
20.0238 60.9315
20.0692 66.334
20.1144 70.5254
20.1598 69.3166
20.205 64.3672
20.2504 61.969
20.2957 63.532
20.3411 65.6248
20.3863 64.1096
20.4318 58.2784
20.477 52.9701
20.5224 49.8484
20.5677 49.3251
20.6131 48.7335
20.6586 48.4554
20.7038 48.4237
20.7493 48.2329
20.7945 47.9931
20.84 47.8548
20.8853 47.4053
20.9307 47.2997
20.976 47.3212
21.0215 47.4731
21.0668 47.8397
21.1122 48.2165
21.1575 48.8147
21.203 49.5857
21.2483 50.5123
21.2938 50.5059
21.3391 49.0217
21.3846 48.0633
21.4299 47.2393
21.4754 47.1846
21.5207 47.4013
21.5662 47.6179
21.6116 47.889
21.6571 48.8527
21.7024 50.0988
21.7479 51.7015
21.7933 54.365
21.8388 58.1679
21.8843 62.8341
21.9297 65.3655
21.9752 64.0788
22.0206 60.0111
22.0661 56.4911
22.1115 55.8958
22.157 55.9061
22.2024 54.3431
22.248 51.2789
22.2933 49.1022
22.3389 47.9841
22.3843 47.6157
22.4299 47.52
22.4753 47.691
22.5208 47.4379
22.5662 47.4903
22.6118 47.5183
22.6572 47.7253
22.7028 48.2431
22.7483 49.1237
22.7939 49.8334
22.8393 51.0866
22.8849 53.3495
22.9303 55.8251
22.9759 57.6642
23.0214 57.4869
23.067 54.8253
23.1126 50.9919
23.1581 48.6451
23.2037 47.9472
23.2492 47.8274
23.2948 47.9214
23.3403 48.4188
23.3859 49.4523
23.4314 50.3296
23.477 52.2046
23.5225 54.6042
23.5682 57.2153
23.6137 58.7207
23.6593 56.3014
23.7048 52.1648
23.7505 48.3513
23.796 46.0247
23.8417 45.2279
23.8872 44.6252
23.9329 44.3422
23.9784 44.1658
24.0241 43.8395
24.0697 43.4305
24.1154 43.0778
24.1609 43.0593
24.2066 42.7951
24.2522 42.8161
24.2979 42.4159
24.3434 42.345
24.3892 42.2124
24.4349 42.149
24.4805 42.0039
24.5262 42.1454
24.5718 41.9898
24.6175 42.1136
24.6631 42.0121
24.7089 41.6685
24.7545 41.482
24.8002 41.2331
24.8458 41.2964
24.8916 41.2927
24.9372 41.4478
24.983 41.7372
25.0286 41.9906
25.0744 42.5648
25.12 43.1972
25.1658 43.8908
25.2114 44.292
25.2572 44.3602
25.3029 44.5017
25.3487 44.6531
25.3943 44.3731
25.4402 43.2144
25.4858 42.0561
25.5316 40.8739
25.5773 40.1451
25.6231 40.1828
25.669 39.6582
25.7147 39.7868
25.7605 39.6565
25.8062 39.8013
25.8521 39.9058
25.8977 39.677
25.9436 40.1877
25.9893 40.2809
26.0352 40.8673
26.0809 41.0052
26.1268 41.186
26.1725 40.9852
26.2184 40.3131
26.2641 39.8321
26.31 39.4491
26.3557 39.4821
26.4017 39.4475
26.4474 39.7186
26.4933 40.0014
26.5391 40.6841
26.585 41.3243
26.6308 41.8616
26.6767 41.9198
26.7225 41.769
26.7684 41.22
26.8142 40.5583
26.8601 40.2656
26.9059 39.6976
26.9519 39.0367
26.9979 38.7273
27.0437 38.2706
27.0896 38.1724
27.1354 38.0458
27.1814 37.9855
27.2272 37.9857
27.2732 38.049
27.3191 37.7912
27.3651 37.7878
27.4109 37.7724
27.4569 37.9265
27.5027 38.0144
27.5488 38.0642
27.5946 37.9802
27.6407 37.7293
27.6865 37.5387
27.7326 37.2122
27.7784 37.4541
27.8245 37.2653
27.8703 37.4012
27.9164 37.6926
27.9623 37.9684
28.0084 38.4809
28.0543 38.8205
28.1003 38.8651
28.1462 38.7163
28.1923 38.3403
28.2384 37.841
28.2843 37.3084
28.3304 36.8321
28.3764 36.2809
28.4225 35.9841
28.4684 35.7197
28.5145 35.4393
28.5605 35.1447
28.6066 35.1203
28.6526 35.0073
28.6987 35.0743
28.7447 34.8589
28.7908 34.7467
28.8368 34.8352
28.8829 34.8426
28.9289 34.8299
28.9751 34.6643
29.0211 34.403
29.0673 34.1391
29.1133 33.9727
29.1595 33.909
29.2055 33.7252
29.2517 33.8094
29.2977 33.7744
29.3439 33.7593
29.3899 33.7225
29.4361 33.6602
29.4824 33.5235
29.5284 33.2571
29.5746 32.9055
29.6207 32.6037
29.6669 32.5536
29.713 32.4216
29.7593 32.2871
29.8053 32.3163
29.8516 32.2397
29.8977 32.1503
29.9439 32.0996
29.99 32.111
30.0363 31.9522
30.0824 32.002
30.1287 31.8785
30.1748 31.8901
30.2211 31.8358
30.2673 31.6939
30.3136 31.8321
30.3597 31.7522
30.406 31.6405
30.4522 31.5557
30.4985 31.6308
30.5447 31.698
30.591 31.6621
30.6372 31.7775
30.6835 31.8251
30.7297 31.8267
30.7761 31.8319
30.8224 31.7108
30.8686 31.5237
30.915 31.3259
30.9612 31.0932
31.0076 30.862
31.0538 30.7109
31.1002 30.6306
31.1464 30.4594
31.1928 30.4723
31.2391 30.6159
31.2855 30.4451
31.3317 30.3798
31.3781 30.5126
31.4244 30.4975
31.4708 30.4424
31.5171 30.5062
31.5636 30.4901
31.6098 30.1683
31.6563 29.9928
31.7026 29.8819
31.7491 29.7409
31.7953 29.8307
31.8418 29.8106
31.8881 29.7905
31.9346 29.5994
31.9809 29.6861
32.0275 29.5489
32.074 29.4637
32.1203 29.2522
32.1668 29.1861
32.2132 28.9896
32.2597 28.7977
32.306 28.7151
32.3526 28.6265
32.399 28.5438
32.4455 28.3841
32.4919 28.2446
32.5385 28.2514
32.5848 28.0094
32.6314 28.0969
32.6778 28.0079
32.7244 27.8212
32.7708 27.6582
32.8174 27.7502
32.8638 27.7411
32.9104 27.7557
32.9569 27.7006
33.0035 27.444
33.0499 27.5172
33.0966 27.4037
33.143 27.4222
33.1897 27.3887
33.2361 27.2035
33.2828 27.1645
33.3293 27.0234
33.3759 27.1034
33.4226 26.8197
33.4691 26.6702
33.5158 26.5547
33.5623 26.5082
33.609 26.3327
33.6555 26.397
33.7022 26.1704
33.7487 26.1398
33.7954 26.0454
33.842 25.977
33.8887 25.9275
33.9353 25.89
33.982 25.8196
34.0286 25.6645
34.0753 25.6562
34.1219 25.4196
34.1687 25.3907
34.2152 25.4034
34.262 25.3188
34.3086 25.2288
34.3554 25.1419
34.402 25.0348
34.4488 24.9279
34.4954 24.8416
34.5422 24.7569
34.5889 24.6878
34.6357 24.6038
34.6825 24.5139
34.7292 24.5213
34.776 24.383
34.8227 24.4171
34.8695 24.3093
34.9162 24.2892
34.9631 24.1451
35.0098 24.0483
35.0566 23.9887
35.1033 23.9377
35.1502 23.8801
35.1969 23.8146
35.2438 23.9156
35.2906 23.8556
35.3375 23.7509
35.3842 23.6801
35.4311 23.7425
35.4779 23.6401
35.5248 23.6289
35.5716 23.5538
35.6185 23.4204
35.6653 23.3161
35.7123 23.2689
35.759 23.0574
35.806 22.9949
35.8528 22.8866
35.8998 22.8254
35.9468 22.8133
35.9936 22.7749
36.0406 22.687
36.0874 22.6382
36.1345 22.5773
36.1813 22.4184
36.2283 22.3737
36.2752 22.3482
36.3222 22.3568
36.3691 22.2593
36.4161 22.1113
36.463 22.141
36.5101 22.1289
36.557 22.0707
36.6041 21.8888
36.651 21.8318
36.6981 21.8809
36.745 21.7327
36.7921 21.6675
36.839 21.4717
36.8861 21.4667
36.9331 21.4152
36.9802 21.3519
37.0272 21.2725
37.0743 21.1604
37.1213 21.1401
37.1684 21.0708
37.2154 21.0467
37.2626 20.9442
37.3098 20.8927
37.3568 20.8284
37.404 20.78
37.451 20.6953
37.4982 20.6432
37.5452 20.5381
37.5924 20.4974
37.6395 20.5188
37.6867 20.4481
37.7337 20.2949
37.781 20.2782
37.8281 20.1685
37.8753 20.1154
37.9224 20.1178
37.9697 19.9523
38.0168 19.9054
38.064 19.8956
38.1111 19.7963
38.1584 19.7452
38.2056 19.6882
38.2529 19.6249
38.3 19.5215
38.3473 19.5385
38.3945 19.4003
38.4418 19.3937
38.489 19.2917
38.5363 19.2547
38.5837 19.1677
38.6309 19.1019
38.6782 19.0589
38.7254 18.9879
38.7728 18.9456
38.82 18.8202
38.8674 18.8447
38.9146 18.7249
38.9621 18.6528
39.0093 18.6051
39.0567 18.6344
39.104 18.4794
39.1514 18.4
39.1987 18.3926
39.2461 18.4236
39.2934 18.3068
39.3409 18.1721
39.3882 18.1607
39.4356 18.1173
39.483 18.101
39.5304 18.0198
39.5778 17.9622
39.6253 17.8775
39.6726 17.8089
39.7201 17.7788
39.7675 17.7103
39.815 17.6186
39.8624 17.565
39.9099 17.5424
39.9575 17.4887
40.0049 17.4368
40.0525 17.381
40.0999 17.338
40.1474 17.2778
40.1949 17.1513
40.2425 17.1293
40.2899 17.1176
40.3375 17.0744
40.385 16.9852
40.4326 16.9194
40.48 16.8353
40.5277 16.857
40.5752 16.7682
40.6228 16.6885
40.6703 16.6949
40.718 16.6315
40.7655 16.6241
40.8132 16.4796
40.8607 16.4537
40.9084 16.4717
40.9559 16.3809
41.0036 16.3117
41.0512 16.2773
41.0989 16.2148
41.1465 16.1789
41.1942 16.1139
41.242 15.9979
41.2896 15.9608
41.3373 15.8903
41.3849 15.8897
41.4327 15.8052
41.4803 15.7379
41.5281 15.7424
41.5758 15.6562
41.6236 15.6195
41.6712 15.5566
41.7191 15.5343
41.7667 15.5247
41.8146 15.4528
41.8622 15.3524
41.9101 15.3494
41.9578 15.2583
42.0057 15.2569
42.0534 15.1557
42.1013 15.1139
42.149 15.0478
42.1969 14.9688
42.2446 14.9552
42.2925 14.9386
42.3403 14.8654
42.3882 14.846
42.436 14.7776
42.4839 14.712
42.5319 14.6744
42.5797 14.5672
42.6277 14.578
42.6755 14.5355
42.7235 14.4222
42.7713 14.4456
42.8193 14.352
42.8671 14.2457
42.9152 14.2736
42.963 14.1979
43.0111 14.1753
43.0589 14.1436
43.107 14.1014
43.1549 14.0134
43.2029 13.9098
43.2508 13.8744
43.2989 13.8232
43.3468 13.8153
43.3949 13.7265
43.4429 13.7272
43.491 13.6983
43.5389 13.6045
43.5871 13.6116
43.635 13.5564
43.6832 13.5058
43.7312 13.4772
43.7793 13.3871
43.8273 13.4053
43.8755 13.3044
43.9237 13.2393
43.9717 13.2259
44.0199 13.1788
44.068 13.1634
44.1162 13.0828
44.1642 13.0651
44.2125 12.9626
44.2606 12.9458
44.3088 12.9236
44.3569 12.8718
44.4052 12.8365
44.4533 12.7659
44.5016 12.7131
44.5497 12.7039
44.598 12.6713
44.6461 12.5969
44.6945 12.5282
44.7426 12.5146
44.791 12.4781
44.8391 12.4223
44.8875 12.3863
44.9357 12.2979
44.984 12.2705
45.0322 12.214
45.0806 12.1735
45.1288 12.1574
45.1773 12.151
45.2257 12.0917
45.2739 12.0444
45.3224 11.9966
45.3706 11.9663
45.4191 11.8244
45.4673 11.8741
45.5158 11.8049
45.5641 11.762
45.6126 11.7507
45.6609 11.6897
45.7094 11.6279
45.7577 11.5717
45.8063 11.512
45.8546 11.5038
45.9031 11.4925
45.9515 11.4458
46.0001 11.4009
46.0484 11.3913
46.097 11.3484
46.1454 11.3067
46.194 11.2311
46.2424 11.1969
46.291 11.1393
46.3395 11.1102
46.3881 11.0498
46.4365 11.0418
46.4852 10.9678
46.5337 10.9589
46.5823 10.9307
46.631 10.8681
46.6795 10.8476
46.7282 10.8304
46.7767 10.7463
46.8254 10.6644
46.8739 10.6077
46.9226 10.6329
46.9712 10.6037
47.0199 10.5612
47.0685 10.5387
47.1173 10.4871
47.1658 10.4162
47.2146 10.4285
47.2632 10.3339
47.312 10.3504
47.3606 10.2653
47.4095 10.2182
47.4581 10.203
47.5069 10.1792
47.5556 10.1461
47.6044 10.0991
47.6531 10.0764
47.702 10.026
47.7507 10.0014
47.7996 9.94785
47.8483 9.93291
47.8972 9.86623
47.9461 9.87854
47.9948 9.79424
48.0438 9.73019
48.0925 9.75136
48.1415 9.67565
48.1902 9.65977
48.2392 9.65263
48.288 9.62467
48.337 9.57112
48.3858 9.48978
48.4348 9.5175
48.4837 9.4639
48.5327 9.46362
48.5815 9.40903
48.6306 9.34397
48.6795 9.32876
48.7285 9.27814
48.7774 9.2665
48.8265 9.22343
48.8754 9.18478
48.9245 9.12563
48.9734 9.09676
49.0226 9.11595
49.0715 9.0695
49.1206 8.99177
49.1696 8.95316
49.2188 8.97725
49.2679 8.87315
49.3169 8.88678
49.3661 8.83185
49.4151 8.78298
49.4643 8.79155
49.5134 8.76334
49.5626 8.68574
49.6117 8.64753
49.6609 8.64989
49.71 8.58383
49.7592 8.56156
49.8083 8.54847
49.8576 8.51884
49.9067 8.45133
49.956 8.46158
50.0052 8.43789
50.0545 8.39861
50.1036 8.36197
50.153 8.31987
50.2022 8.26171
50.2515 8.25603
50.3007 8.19691
50.3501 8.15603
50.3993 8.14905
50.4487 8.13752
50.498 8.10478
50.5474 8.07681
50.5966 8.01323
50.6461 7.98834
50.6955 7.9327
50.7448 7.93315
50.7943 7.9215
50.8436 7.87921
50.8931 7.85768
50.9424 7.80615
50.9919 7.79007
51.0413 7.76449
51.0908 7.74164
51.1402 7.69263
51.1897 7.66254
51.2391 7.64735
51.2887 7.58821
51.3381 7.58195
51.3877 7.52185
51.4371 7.4766
51.4867 7.49377
51.5362 7.43756
51.5858 7.41104
51.6353 7.34646
51.6849 7.33952
51.7344 7.36257
51.7841 7.29752
51.8336 7.24238
51.8833 7.21674
51.9328 7.18393
51.9826 7.17299
52.0323 7.11066
52.0818 7.12998
52.1316 7.05523
52.1812 7.06285
52.231 7.01886
52.2806 7.02042
52.3304 6.92856
52.38 6.96273
52.4298 6.92238
52.4794 6.84509
52.5293 6.83286
52.5789 6.83943
52.6288 6.79287
52.6785 6.75066
52.7284 6.77489
52.7781 6.69836
52.828 6.67805
52.8777 6.64965
52.9276 6.62534
52.9774 6.62004
53.0273 6.55794
53.0771 6.56462
53.1271 6.58095
53.1769 6.47005
53.2269 6.46098
53.2767 6.41188
53.3267 6.41362
53.3765 6.39447
53.4266 6.34935
53.4766 6.31286
53.5265 6.28826
53.5765 6.24518
53.6264 6.24893
53.6765 6.18398
53.7264 6.19823
53.7765 6.18145
53.8265 6.13115
53.8766 6.10343
53.9266 6.07727
53.9767 6.04301
54.0267 6.0143
54.0769 5.96484
54.1269 5.97639
54.1771 5.89863
54.2271 5.94799
54.2773 5.8962
54.3274 5.82835
54.3776 5.79423
54.4277 5.77309
54.478 5.79228
54.528 5.72208
54.5783 5.66564
54.6285 5.61898
54.6788 5.6229
54.7289 5.53188
54.7792 5.53464
54.8296 5.49419
54.8798 5.43797
54.9301 5.45207
54.9803 5.38257
55.0307 5.33177
55.0809 5.2958
55.1314 5.30199
55.1816 5.23187
55.232 5.13939
55.2823 5.15328
55.3328 5.11671
55.383 5.03069
55.4335 4.99879
55.4838 4.93161
55.5344 4.92816
55.5847 4.8576
55.6352 4.84956
55.6856 4.83673
55.7361 4.72964