File: XRD/Ni3Fe_FD0681.xy
TT I
1.27165 6.95862
1.31627 7.08227
1.36089 6.3352
1.40551 5.5719
1.45013 6.51585
1.49476 6.31742
1.53938 5.52109
1.584 5.34245
1.62863 4.99405
1.67325 5.17183
1.71787 4.6981
1.7625 4.73813
1.80712 4.87801
1.85174 4.64459
1.89636 4.97657
1.94099 5.1131
1.98562 5.1201
2.03025 4.62606
2.07487 4.66854
2.11949 4.71052
2.16411 4.3909
2.20874 11.1979
2.25338 15.2616
2.298 5.76124
2.34263 5.74442
2.38725 5.70577
2.43188 5.4269
2.4765 6.38863
2.52115 6.87828
2.56577 6.73654
2.6104 8.13072
2.65503 7.52076
2.69965 8.17994
2.7443 7.85819
2.78893 7.80258
2.83356 8.34498
2.87818 9.18366
2.92281 9.25026
2.96744 9.46278
3.01209 10.3487
3.05672 11.573
3.10135 12.0216
3.14599 12.8989
3.19062 14.1248
3.23527 15.1565
3.2799 15.7577
3.32454 16.5025
3.36917 17.8025
3.4138 19.1735
3.45844 19.247
3.50309 20.8251
3.54773 21.5908
3.59237 23.5218
3.637 65.4245
3.68164 43.6233
3.7263 25.4193
3.77094 25.9404
3.81558 26.811
3.86022 27.2955
3.90486 28.7505
3.9495 29.4706
3.99416 30.571
4.0388 31.5137
4.08344 33.3867
4.12809 34.5102
4.17273 36.0377
4.21738 40.9046
4.26204 166.336
4.30669 141.02
4.35133 45.7672
4.39598 43.6867
4.44063 50.8817
4.4853 57.9589
4.52995 51.306
4.5746 53.0834
4.61925 53.5338
4.6639 55.8621
4.70855 58.5954
4.75322 61.2527
4.79788 65.5883
4.84253 68.059
4.88719 72.6166
4.93184 75.7316
4.97652 81.6022
5.02118 87.9302
5.06583 95.4454
5.11049 107.437
5.15515 161.187
5.19981 411.897
5.24449 3044.78
5.28916 12517.0
5.33382 2758.81
5.37848 187.084
5.42315 129.171
5.46783 115.529
5.5125 107.923
5.55716 102.815
5.60183 98.1319
5.6465 96.2112
5.69117 94.9575
5.73586 92.8116
5.78053 93.8821
5.8252 93.331
5.86988 95.5401
5.91455 95.6713
5.95924 105.312
6.00392 239.531
6.0486 1021.69
6.09328 4498.74
6.13795 3090.54
6.18263 217.774
6.22733 91.3158
6.27201 81.4413
6.3167 90.6553
6.36138 76.4963
6.40606 68.9608
6.45075 68.0091
6.49545 64.7621
6.54014 63.4908
6.58483 62.5729
6.62952 62.733
6.67421 80.7638
6.71892 109.285
6.76361 64.0267
6.8083 58.8293
6.853 57.7458
6.89769 56.8347
6.94239 56.3587
6.98711 55.603
7.03181 55.3241
7.07651 54.9288
7.12121 55.0291
7.16591 55.2815
7.21063 55.3397
7.25533 64.1858
7.30004 126.47
7.34475 75.3717
7.38945 55.3574
7.43416 54.0479
7.47889 54.0437
7.5236 54.5067
7.56831 55.2891
7.61303 56.1038
7.65774 56.78
7.70247 56.2279
7.74719 56.1848
7.79191 56.5279
7.83663 56.9064
7.88135 57.7411
7.92607 58.5759
7.97081 59.8893
8.01553 61.0911
8.06026 62.3328
8.10498 64.1346
8.14971 70.8129
8.19446 70.8051
8.23919 69.6422
8.28392 72.136
8.32865 74.2711
8.37339 78.7262
8.41812 84.8505
8.46288 108.158
8.50761 183.736
8.55235 410.816
8.59709 1223.33
8.64183 2221.47
8.68658 867.08
8.73134 152.988
8.77609 98.4872
8.82083 92.4792
8.86558 90.3731
8.91033 90.0201
8.9551 89.6821
8.99985 85.0546
9.04461 84.0625
9.08936 83.6139
9.13412 82.4516
9.17888 82.2198
9.22365 82.5264
9.26841 81.6979
9.31318 83.1511
9.35794 83.8904
9.4027 84.1934
9.44749 84.41
9.49226 84.7488
9.53703 85.7795
9.5818 88.2117
9.62657 91.9921
9.67134 95.8605
9.71614 93.2257
9.76091 94.7594
9.80569 97.5634
9.85047 100.789
9.89525 116.819
9.94005 130.995
9.98484 195.655
10.0296 367.024
10.0744 850.21
10.1192 1805.95
10.164 1551.46
10.2088 356.386
10.2536 122.22
10.2984 110.469
10.3432 110.167
10.388 105.198
10.4328 123.726
10.4776 167.153
10.5224 294.236
10.5672 507.8
10.612 490.033
10.6568 191.698
10.7017 94.4864
10.7465 86.2264
10.7913 83.0354
10.8361 80.7031
10.8809 78.8553
10.9257 78.2281
10.9706 77.8302
11.0154 74.8821
11.0602 72.721
11.105 71.1831
11.1499 73.8556
11.1947 77.3513
11.2395 71.4647
11.2844 69.2417
11.3292 66.9568
11.374 65.7032
11.4189 65.6551
11.4637 65.0398
11.5086 65.0625
11.5534 66.5673
11.5983 64.7937
11.6431 63.5855
11.688 62.6794
11.7328 62.7686
11.7777 62.6198
11.8225 62.7232
11.8674 62.2329
11.9122 62.9316
11.9571 62.8688
12.002 64.2068
12.0468 69.1706
12.0917 80.3157
12.1366 104.765
12.1814 154.799
12.2263 204.184
12.2712 159.219
12.3161 89.898
12.3609 67.9829
12.4058 64.19
12.4507 64.2469
12.4956 64.2908
12.5405 64.5342
12.5853 65.2987
12.6302 69.9094
12.6751 73.2546
12.72 68.6541
12.7649 67.5928
12.8098 68.3433
12.8547 69.6819
12.8996 71.0786
12.9445 72.4147
12.9894 74.2485
13.0343 76.1167
13.0792 80.0088
13.1242 92.0065
13.1691 114.852
13.214 153.879
13.2589 249.945
13.3038 379.663
13.3487 421.089
13.3937 250.492
13.4386 120.426
13.4835 108.025
13.5285 123.232
13.5734 163.902
13.6183 256.098
13.6633 353.79
13.7082 324.331
13.7531 169.314
13.7981 93.4937
13.843 81.334
13.888 79.6065
13.9329 76.8608
13.9779 75.7539
14.0228 74.469
14.0678 72.9818
14.1127 72.5913
14.1577 72.1354
14.2027 71.2176
14.2476 70.5053
14.2926 70.1838
14.3376 70.7084
14.3825 69.8094
14.4275 68.6426
14.4725 68.6507
14.5175 69.0155
14.5624 69.0247
14.6074 70.3263
14.6524 70.7982
14.6974 70.6654
14.7424 73.3255
14.7874 80.5188
14.8324 90.3851
14.8774 113.571
14.9224 158.372
14.9674 211.877
15.0124 216.269
15.0574 139.285
15.1024 86.761
15.1474 71.6963
15.1924 69.988
15.2374 69.8256
15.2824 69.14
15.3274 67.7802
15.3725 66.5742
15.4175 66.3375
15.4625 65.7662
15.5076 66.0077
15.5526 66.2668
15.5976 65.8382
15.6426 67.9937
15.6877 73.6036
15.7327 80.9269
15.7778 96.93
15.8228 129.725
15.8679 175.039
15.9129 194.63
15.958 149.37
16.003 91.2603
16.0481 66.4061
16.0931 63.3544
16.1382 61.6267
16.1833 60.1963
16.2283 58.8803
16.2734 58.0807
16.3185 58.0951
16.3636 58.5189
16.4086 57.1429
16.4537 55.7447
16.4988 55.3027
16.5439 55.114
16.589 55.11
16.6341 54.8634
16.6792 54.3043
16.7243 54.7153
16.7694 54.6858
16.8145 54.6522
16.8596 54.9387
16.9047 55.9193
16.9498 56.2021
16.9949 55.7348
17.04 55.882
17.0851 57.2051
17.1302 58.9324
17.1754 62.0314
17.2205 67.634
17.2656 75.5643
17.3108 83.6598
17.3559 81.8314
17.401 69.8044
17.4462 61.3602
17.4913 59.1281
17.5365 59.0742
17.5815 59.0122
17.6268 59.3804
17.6718 60.0735
17.7171 60.9078
17.7622 61.1762
17.8074 62.2451
17.8525 65.2601
17.8977 68.9852
17.9428 74.6122
17.9881 83.9478
18.0331 102.429
18.0784 124.768
18.1237 142.577
18.1688 130.293
18.214 100.715
18.2591 86.0549
18.3044 91.3101
18.3495 101.037
18.3948 105.624
18.4399 94.2955
18.4852 75.0891
18.5303 64.9112
18.5756 62.0069
18.6207 60.8907
18.666 60.0888
18.7112 59.5955
18.7565 58.7527
18.8016 58.5153
18.8469 58.009
18.892 57.492
18.9374 57.0656
18.9825 56.8505
19.0278 56.6424
19.073 56.9274
19.1183 57.4071
19.1635 58.0898
19.2088 59.4374
19.254 62.4842
19.2993 67.2376
19.3447 73.3032
19.3898 76.315
19.4352 71.0592
19.4804 62.2286
19.5257 56.0918
19.5709 54.0728
19.6163 53.8684
19.6615 53.5962
19.7068 53.3222
19.752 53.3552
19.7974 53.4795
19.8426 54.5611
19.888 55.0548
19.9332 56.4396
19.9786 59.2065
20.0238 63.125
20.0692 67.8521
20.1144 69.9666
20.1598 67.6605
20.205 62.9598
20.2504 62.0614
20.2957 63.9269
20.3411 65.2966
20.3863 63.3431
20.4318 57.5084
20.477 52.9701
20.5224 51.2046
20.5677 50.8632
20.6131 50.0248
20.6586 49.8079
20.7038 49.4654
20.7493 48.8497
20.7945 48.9325
20.84 48.6996
20.8853 48.6072
20.9307 48.5625
20.976 48.5931
21.0215 48.5249
21.0668 48.8779
21.1122 49.5068
21.1575 49.9599
21.203 50.9059
21.2483 51.2873
21.2938 51.3044
21.3391 49.8587
21.3846 48.5787
21.4299 48.3692
21.4754 48.4415
21.5207 48.3668
21.5662 48.9096
21.6116 49.4298
21.6571 50.0207
21.7024 50.9215
21.7479 52.9021
21.7933 55.8186
21.8388 59.6709
21.8843 63.0561
21.9297 64.5532
21.9752 62.5575
22.0206 58.6767
22.0661 56.4107
22.1115 55.9845
22.157 55.8399
22.2024 53.7092
22.248 50.9398
22.2933 49.6234
22.3389 48.8312
22.3843 48.827
22.4299 48.598
22.4753 48.6222
22.5208 48.5243
22.5662 48.3296
22.6118 48.7586
22.6572 48.7545
22.7028 49.2873
22.7483 49.7539
22.7939 50.5262
22.8393 52.263
22.8849 54.3978
22.9303 56.3239
22.9759 57.9353
23.0214 56.9431
23.067 53.927
23.1126 50.8233
23.1581 48.8959
23.2037 48.8178
23.2492 48.9082
23.2948 48.7491
23.3403 49.04
23.3859 49.861
23.4314 50.8882
23.477 52.8255
23.5225 55.1961
23.5682 57.2979
23.6137 57.6851
23.6593 54.8173
23.7048 50.8783
23.7505 47.7721
23.796 46.4025
23.8417 45.7675
23.8872 45.5522
23.9329 45.1346
23.9784 44.7979
24.0241 44.6518
24.0697 44.3601
24.1154 44.0515
24.1609 43.6101
24.2066 43.5958
24.2522 43.7147
24.2979 43.2385
24.3434 43.2156
24.3892 43.1204
24.4349 43.116
24.4805 42.9514
24.5262 43.0999
24.5718 42.8901
24.6175 42.8591
24.6631 42.6909
24.7089 42.5085
24.7545 42.3736
24.8002 42.1657
24.8458 42.2045
24.8916 42.0726
24.9372 42.2152
24.983 42.4406
25.0286 42.8225
25.0744 43.3656
25.12 43.8632
25.1658 44.3784
25.2114 44.5846
25.2572 44.6042
25.3029 44.7223
25.3487 44.7243
25.3943 44.3828
25.4402 43.249
25.4858 42.1702
25.5316 41.3334
25.5773 40.81
25.6231 40.7877
25.669 40.5709
25.7147 40.4429
25.7605 40.4175
25.8062 40.4591
25.8521 40.6172
25.8977 40.659
25.9436 40.9125
25.9893 41.1063
26.0352 41.5247
26.0809 41.5402
26.1268 41.6352
26.1725 41.2256
26.2184 40.6842
26.2641 40.2781
26.31 39.9969
26.3557 40.1904
26.4017 40.2088
26.4474 40.4465
26.4933 40.5935
26.5391 41.2574
26.585 41.784
26.6308 42.095
26.6767 42.1993
26.7225 41.8046
26.7684 41.2565
26.8142 40.7611
26.8601 40.3492
26.9059 39.8784
26.9519 39.3527
26.9979 39.0988
27.0437 38.7256
27.0896 38.6568
27.1354 38.6369
27.1814 38.5947
27.2272 38.5407
27.2732 38.4264
27.3191 38.1908
27.3651 38.5144
27.4109 38.3487
27.4569 38.4755
27.5027 38.4343
27.5488 38.4982
27.5946 38.2357
27.6407 38.0363
27.6865 37.9611
27.7326 37.8385
27.7784 37.9029
27.8245 37.7189
27.8703 37.909
27.9164 38.2268
27.9623 38.5009
28.0084 38.6432
28.0543 39.0257
28.1003 38.9722
28.1462 38.7687
28.1923 38.3928
28.2384 37.8344
28.2843 37.5942
28.3304 36.9623
28.3764 36.5445
28.4225 36.3337
28.4684 36.1446
28.5145 35.8458
28.5605 35.7281
28.6066 35.5856
28.6526 35.5063
28.6987 35.5715
28.7447 35.554
28.7908 35.4587
28.8368 35.366
28.8829 35.495
28.9289 35.1864
28.9751 35.0898
29.0211 34.8361
29.0673 34.6187
29.1133 34.4594
29.1595 34.349
29.2055 34.3327
29.2517 34.3147
29.2977 34.2891
29.3439 34.199
29.3899 34.1901
29.4361 34.0902
29.4824 33.8081
29.5284 33.6682
29.5746 33.3868
29.6207 33.091
29.6669 32.9987
29.713 32.8644
29.7593 32.8146
29.8053 32.8448
29.8516 32.7703
29.8977 32.7131
29.9439 32.6493
29.99 32.6164
30.0363 32.4157
30.0824 32.5097
30.1287 32.3486
30.1748 32.4594
30.2211 32.3348
30.2673 32.1588
30.3136 32.3336
30.3597 32.2304
30.406 32.1776
30.4522 31.8736
30.4985 32.0135
30.5447 32.0949
30.591 32.034
30.6372 32.142
30.6835 32.0258
30.7297 32.1993
30.7761 32.0428
30.8224 31.8928
30.8686 31.743
30.915 31.5122
30.9612 31.4345
31.0076 31.1817
31.0538 31.0938
31.1002 31.1046
31.1464 30.87
31.1928 30.8966
31.2391 30.8533
31.2855 30.8541
31.3317 30.811
31.3781 30.9388
31.4244 30.9342
31.4708 30.7983
31.5171 30.6666
31.5636 30.6707
31.6098 30.4399
31.6563 30.2651
31.7026 30.1529
31.7491 30.0984
31.7953 30.1462
31.8418 30.0922
31.8881 30.121
31.9346 30.0709
31.9809 29.9711
32.0275 29.8305
32.074 29.7598
32.1203 29.5791
32.1668 29.4963
32.2132 29.3785
32.2597 29.1905
32.306 29.0522
32.3526 28.9799
32.399 28.9193
32.4455 28.7173
32.4919 28.7157
32.5385 28.6309
32.5848 28.4897
32.6314 28.4985
32.6778 28.3535
32.7244 28.2586
32.7708 28.1525
32.8174 28.1145
32.8638 27.9596
32.9104 28.0988
32.9569 28.0849
33.0035 27.846
33.0499 27.79
33.0966 27.7969
33.143 27.7226
33.1897 27.7024
33.2361 27.4928
33.2828 27.5124
33.3293 27.3282
33.3759 27.3205
33.4226 27.2619
33.4691 26.9977
33.5158 26.9435
33.5623 26.8595
33.609 26.7171
33.6555 26.585
33.7022 26.6
33.7487 26.5027
33.7954 26.393
33.842 26.3298
33.8887 26.2645
33.9353 26.2157
33.982 26.105
34.0286 26.0392
34.0753 25.9172
34.1219 25.815
34.1687 25.7832
34.2152 25.7562
34.262 25.6161
34.3086 25.5248
34.3554 25.4753
34.402 25.2578
34.4488 25.2826
34.4954 25.202
34.5422 25.1413
34.5889 25.0169
34.6357 24.9223
34.6825 24.8864
34.7292 24.8364
34.776 24.6379
34.8227 24.6517
34.8695 24.5709
34.9162 24.5791
34.9631 24.4917
35.0098 24.4741
35.0566 24.342
35.1033 24.2266
35.1502 24.2649
35.1969 24.1949
35.2438 24.1409
35.2906 24.0489
35.3375 24.0289
35.3842 23.9866
35.4311 23.9367
35.4779 23.8897
35.5248 23.8243
35.5716 23.6533
35.6185 23.5837
35.6653 23.5366
35.7123 23.4781
35.759 23.3963
35.806 23.3949
35.8528 23.1229
35.8998 23.21
35.9468 23.0868
35.9936 23.0184
36.0406 22.9886
36.0874 22.8573
36.1345 22.8523
36.1813 22.781
36.2283 22.6507
36.2752 22.6279
36.3222 22.6748
36.3691 22.5965
36.4161 22.3396
36.463 22.3711
36.5101 22.4168
36.557 22.297
36.6041 22.1377
36.651 22.2025
36.6981 22.1367
36.745 21.9793
36.7921 22.0071
36.839 21.8589
36.8861 21.7646
36.9331 21.7203
36.9802 21.5946
37.0272 21.585
37.0743 21.3971
37.1213 21.404
37.1684 21.3578
37.2154 21.3296
37.2626 21.2065
37.3098 21.186
37.3568 21.105
37.404 21.0491
37.451 20.913
37.4982 20.9385
37.5452 20.8228
37.5924 20.7674
37.6395 20.8487
37.6867 20.7275
37.7337 20.6123
37.781 20.5423
37.8281 20.4342
37.8753 20.3365
37.9224 20.3428
37.9697 20.1523
38.0168 20.1223
38.064 20.1188
38.1111 20.0334
38.1584 19.9987
38.2056 19.9081
38.2529 19.9182
38.3 19.7949
38.3473 19.785
38.3945 19.6572
38.4418 19.6291
38.489 19.5736
38.5363 19.3844
38.5837 19.3915
38.6309 19.276
38.6782 19.2846
38.7254 19.2591
38.7728 19.1796
38.82 19.0396
38.8674 19.0127
38.9146 18.9984
38.9621 18.9366
39.0093 18.9131
39.0567 18.8342
39.104 18.726
39.1514 18.6689
39.1987 18.6515
39.2461 18.6476
39.2934 18.5303
39.3409 18.3858
39.3882 18.3785
39.4356 18.3475
39.483 18.277
39.5304 18.1727
39.5778 18.204
39.6253 18.1241
39.6726 18.0527
39.7201 18.0986
39.7675 18.0221
39.815 17.8792
39.8624 17.8379
39.9099 17.8047
39.9575 17.64
40.0049 17.6323
40.0525 17.607
40.0999 17.5363
40.1474 17.4944
40.1949 17.4658
40.2425 17.3593
40.2899 17.2877
40.3375 17.3233
40.385 17.1974
40.4326 17.1339
40.48 17.0475
40.5277 17.1076
40.5752 16.9558
40.6228 16.884
40.6703 16.8847
40.718 16.7974
40.7655 16.7641
40.8132 16.6513
40.8607 16.7129
40.9084 16.5972
40.9559 16.5911
41.0036 16.5461
41.0512 16.5161
41.0989 16.4599
41.1465 16.3978
41.1942 16.3368
41.242 16.2288
41.2896 16.177
41.3373 16.1294
41.3849 16.1227
41.4327 16.0799
41.4803 15.9179
41.5281 15.8855
41.5758 15.8979
41.6236 15.8089
41.6712 15.7531
41.7191 15.6827
41.7667 15.6533
41.8146 15.5752
41.8622 15.5664
41.9101 15.4881
41.9578 15.3867
42.0057 15.3925
42.0534 15.3517
42.1013 15.3423
42.149 15.2506
42.1969 15.1643
42.2446 15.1306
42.2925 15.1046
42.3403 14.9623
42.3882 15.0614
42.436 14.9353
42.4839 14.9289
42.5319 14.8794
42.5797 14.8108
42.6277 14.7301
42.6755 14.7235
42.7235 14.6274
42.7713 14.539
42.8193 14.5479
42.8671 14.5066
42.9152 14.4327
42.963 14.4353
43.0111 14.3055
43.0589 14.2738
43.107 14.276
43.1549 14.2412
43.2029 14.1759
43.2508 14.1322
43.2989 14.0913
43.3468 14.0258
43.3949 13.9832
43.4429 13.858
43.491 13.8456
43.5389 13.7523
43.5871 13.769
43.635 13.7066
43.6832 13.6606
43.7312 13.6085
43.7793 13.6073
43.8273 13.5717
43.8755 13.4719
43.9237 13.4273
43.9717 13.3648
44.0199 13.3467
44.068 13.3388
44.1162 13.2365
44.1642 13.2432
44.2125 13.1543
44.2606 13.089
44.3088 13.0479
44.3569 13.0421
44.4052 12.9937
44.4533 12.9398
44.5016 12.896
44.5497 12.8834
44.598 12.8313
44.6461 12.7562
44.6945 12.6796
44.7426 12.6451
44.791 12.6113
44.8391 12.5758
44.8875 12.5362
44.9357 12.4888
44.984 12.4814
45.0322 12.4177
45.0806 12.3554
45.1288 12.2868
45.1773 12.2405
45.2257 12.2264
45.2739 12.1748
45.3224 12.1573
45.3706 12.1307
45.4191 12.0491
45.4673 12.0186
45.5158 11.9828
45.5641 11.9219
45.6126 11.9036
45.6609 11.8485
45.7094 11.7884
45.7577 11.7197
45.8063 11.6689
45.8546 11.6855
45.9031 11.6372
45.9515 11.5633
46.0001 11.5859
46.0484 11.5059
46.097 11.4897
46.1454 11.4418
46.194 11.3981
46.2424 11.3215
46.291 11.3007
46.3395 11.2659
46.3881 11.2509
46.4365 11.1985
46.4852 11.1264
46.5337 11.1102
46.5823 11.0929
46.631 11.0058
46.6795 10.9654
46.7282 10.9619
46.7767 10.9082
46.8254 10.8188
46.8739 10.8321
46.9226 10.7433
46.9712 10.7559
47.0199 10.7207
47.0685 10.6888
47.1173 10.6073
47.1658 10.5975
47.2146 10.5393
47.2632 10.5225
47.312 10.4606
47.3606 10.4174
47.4095 10.3668
47.4581 10.3421
47.5069 10.3123
47.5556 10.2583
47.6044 10.2334
47.6531 10.1396
47.702 10.1463
47.7507 10.1301
47.7996 10.0713
47.8483 10.051
47.8972 10.0043
47.9461 9.97285
47.9948 9.91067
48.0438 9.88522
48.0925 9.85503
48.1415 9.83198
48.1902 9.77068
48.2392 9.76467
48.288 9.75046
48.337 9.66607
48.3858 9.60916
48.4348 9.64509
48.4837 9.6017
48.5327 9.54746
48.5815 9.5188
48.6306 9.47918
48.6795 9.44858
48.7285 9.3961
48.7774 9.37088
48.8265 9.35326
48.8754 9.31545
48.9245 9.27568
48.9734 9.2225
49.0226 9.19784
49.0715 9.17567
49.1206 9.13542
49.1696 9.07721
49.2188 9.02954
49.2679 9.04279
49.3169 8.97272
49.3661 8.94882
49.4151 8.9181
49.4643 8.88323
49.5134 8.86752
49.5626 8.81393
49.6117 8.79548
49.6609 8.79172
49.71 8.72749
49.7592 8.66306
49.8083 8.63427
49.8576 8.6246
49.9067 8.53717
49.956 8.55569
50.0052 8.47197
50.0545 8.47087
50.1036 8.44754
50.153 8.429
50.2022 8.36754
50.2515 8.33683
50.3007 8.32018
50.3501 8.2416
50.3993 8.2147
50.4487 8.18466
50.498 8.18156
50.5474 8.15318
50.5966 8.12036
50.6461 8.10983
50.6955 8.06955
50.7448 8.02555
50.7943 8.00639
50.8436 7.99664
50.8931 7.93674
50.9424 7.93218
50.9919 7.87467
51.0413 7.85362
51.0908 7.81198
51.1402 7.77354
51.1897 7.76234
51.2391 7.72418
51.2887 7.69733
51.3381 7.66436
51.3877 7.62368
51.4371 7.60805
51.4867 7.56372
51.5362 7.50519
51.5858 7.47569
51.6353 7.46946
51.6849 7.44333
51.7344 7.37501
51.7841 7.39967
51.8336 7.37594
51.8833 7.33251
51.9328 7.28073
51.9826 7.28063
52.0323 7.23396
52.0818 7.22105
52.1316 7.14276
52.1812 7.15131
52.231 7.12665
52.2806 7.09286
52.3304 7.05948
52.38 7.01257
52.4298 6.98856
52.4794 6.91923
52.5293 6.90596
52.5789 6.9249
52.6288 6.88384
52.6785 6.83754
52.7284 6.84626
52.7781 6.78341
52.828 6.79366
52.8777 6.72818
52.9276 6.71872
52.9774 6.66359
53.0273 6.67709
53.0771 6.63123
53.1271 6.61941
53.1769 6.58017
53.2269 6.54358
53.2767 6.49691
53.3267 6.4786
53.3765 6.46155
53.4266 6.41863
53.4766 6.39741
53.5265 6.354
53.5765 6.36337
53.6264 6.29165
53.6765 6.27434
53.7264 6.22127
53.7765 6.23001
53.8265 6.24067
53.8766 6.15967
53.9266 6.14475
53.9767 6.10144
54.0267 6.12209
54.0769 6.03932
54.1269 6.01963
54.1771 6.02029
54.2271 6.00018
54.2773 5.91807
54.3274 5.91284
54.3776 5.87255
54.4277 5.86185
54.478 5.80596
54.528 5.83208
54.5783 5.71191
54.6285 5.67147
54.6788 5.66477
54.7289 5.60418
54.7792 5.55907
54.8296 5.51918
54.8798 5.49736
54.9301 5.48082
54.9803 5.46617
55.0307 5.37618
55.0809 5.35145
55.1314 5.35982
55.1816 5.23618
55.232 5.21106
55.2823 5.21571
55.3328 5.17127
55.383 5.0877
55.4335 5.0614
55.4838 5.03983
55.5344 4.95863
55.5847 4.91566
55.6352 4.92031
55.6856 4.83759
55.7361 4.83164