File: XRD/Ni3Fe_FD0051.xy
TT I
1.27165 33.0656
1.31627 30.7525
1.36089 29.6857
1.40551 27.5959
1.45013 26.9821
1.49476 26.486
1.53938 25.055
1.584 24.2258
1.62863 23.4565
1.67325 22.7211
1.71787 23.2383
1.7625 21.8579
1.80712 21.5915
1.85174 21.0899
1.89636 21.3846
1.94099 21.4286
1.98562 20.4401
2.03025 20.404
2.07487 20.6233
2.11949 20.9457
2.16411 20.2621
2.20874 20.8588
2.25338 20.7808
2.298 21.0387
2.34263 21.3031
2.38725 21.509
2.43188 21.838
2.4765 21.6324
2.52115 21.6065
2.56577 22.5018
2.6104 23.5204
2.65503 23.7171
2.69965 25.7252
2.7443 27.2486
2.78893 30.0391
2.83356 33.207
2.87818 36.3123
2.92281 40.682
2.96744 46.7031
3.01209 55.0916
3.05672 63.5692
3.10135 73.0562
3.14599 77.1073
3.19062 74.8315
3.23527 66.7657
3.2799 56.6209
3.32454 46.6769
3.36917 39.5358
3.4138 34.3553
3.45844 31.3958
3.50309 29.5853
3.54773 27.9339
3.59237 26.657
3.637 26.6878
3.68164 26.1229
3.7263 25.9622
3.77094 25.7589
3.81558 25.855
3.86022 25.7466
3.90486 26.0918
3.9495 26.8893
3.99416 27.2104
4.0388 27.9718
4.08344 28.7219
4.12809 29.0622
4.17273 31.0698
4.21738 32.0864
4.26204 33.7439
4.30669 37.8744
4.35133 41.6561
4.39598 40.308
4.44063 37.9528
4.4853 37.4454
4.52995 37.8135
4.5746 39.4243
4.61925 41.0763
4.6639 42.1365
4.70855 44.5384
4.75322 47.1812
4.79788 50.6758
4.84253 54.4127
4.88719 60.5338
4.93184 68.3574
4.97652 81.9984
5.02118 104.049
5.06583 121.971
5.11049 141.418
5.15515 186.17
5.19981 310.206
5.24449 710.926
5.28916 1610.07
5.33382 4064.66
5.37848 3182.24
5.42315 823.524
5.46783 308.846
5.5125 196.481
5.55716 151.855
5.60183 126.238
5.6465 114.393
5.69117 109.661
5.73586 102.954
5.78053 99.9893
5.8252 101.227
5.86988 107.212
5.91455 118.858
5.95924 141.745
6.00392 196.931
6.0486 328.602
6.09328 563.785
6.13795 1038.54
6.18263 1129.89
6.22733 505.329
6.27201 222.902
6.3167 131.397
6.36138 92.342
6.40606 73.7818
6.45075 64.3327
6.49545 57.2922
6.54014 52.7982
6.58483 49.6564
6.62952 47.2319
6.67421 44.9405
6.71892 43.9421
6.76361 42.8462
6.8083 41.4233
6.853 40.8816
6.89769 41.168
6.94239 40.9168
6.98711 40.6801
7.03181 41.8373
7.07651 45.1672
7.12121 46.2738
7.16591 43.8353
7.21063 40.6708
7.25533 39.5832
7.30004 39.207
7.34475 39.3055
7.38945 39.2911
7.43416 39.6472
7.47889 42.496
7.5236 58.7198
7.56831 165.336
7.61303 173.316
7.65774 64.5884
7.70247 43.8041
7.74719 40.1021
7.79191 38.6221
7.83663 38.3199
7.88135 38.4564
7.92607 38.5873
7.97081 39.0674
8.01553 39.7047
8.06026 40.5824
8.10498 41.3719
8.14971 42.6718
8.19446 43.6253
8.23919 46.2545
8.28392 49.2181
8.32865 51.9363
8.37339 55.3528
8.41812 58.9966
8.46288 66.4633
8.50761 82.5183
8.55235 122.202
8.59709 184.401
8.64183 271.353
8.68658 568.793
8.73134 750.512
8.77609 380.154
8.82083 170.097
8.86558 105.527
8.91033 84.7058
8.9551 74.5246
8.99985 69.4732
9.04461 66.6244
9.08936 64.6877
9.13412 64.9694
9.17888 68.2345
9.22365 90.2479
9.26841 248.718
9.31318 330.344
9.35794 124.736
9.4027 70.6802
9.44749 61.8812
9.49226 58.6848
9.53703 57.3274
9.5818 57.1528
9.62657 56.6165
9.67134 57.2045
9.71614 58.23
9.76091 59.1126
9.80569 60.7097
9.85047 63.1895
9.89525 66.8433
9.94005 73.3375
9.98484 86.0295
10.0296 118.174
10.0744 164.995
10.1192 208.571
10.164 350.622
10.2088 683.022
10.2536 640.427
10.2984 287.029
10.3432 148.893
10.388 100.728
10.4328 85.442
10.4776 84.1168
10.5224 91.9639
10.5672 98.055
10.612 128.64
10.6568 222.304
10.7017 272.961
10.7465 202.069
10.7913 102.254
10.8361 64.9619
10.8809 55.8472
10.9257 51.5795
10.9706 49.3319
11.0154 47.5101
11.0602 45.8488
11.105 44.904
11.1499 43.7095
11.1947 43.5261
11.2395 43.274
11.2844 42.7776
11.3292 41.5666
11.374 40.5575
11.4189 40.2999
11.4637 39.8742
11.5086 39.1998
11.5534 39.0343
11.5983 39.1186
11.6431 39.0136
11.688 38.8138
11.7328 39.0715
11.7777 39.1066
11.8225 39.8811
11.8674 40.662
11.9122 44.237
11.9571 65.2508
12.002 114.803
12.0468 93.8669
12.0917 54.7128
12.1366 49.0567
12.1814 50.3463
12.2263 54.0953
12.2712 65.2262
12.3161 84.7394
12.3609 86.4685
12.4058 65.6975
12.4507 51.3739
12.4956 45.3248
12.5405 42.3166
12.5853 41.0203
12.6302 40.1601
12.6751 39.603
12.72 39.7466
12.7649 40.0842
12.8098 40.0744
12.8547 40.7104
12.8996 41.4289
12.9445 42.1263
12.9894 43.0523
13.0343 44.501
13.0792 47.7701
13.1242 57.4585
13.1691 68.0756
13.214 66.3787
13.2589 68.6142
13.3038 72.7926
13.3487 86.6667
13.3937 127.824
13.4386 188.817
13.4835 178.203
13.5285 116.856
13.5734 89.1068
13.6183 81.1963
13.6633 79.5696
13.7082 93.5393
13.7531 136.332
13.7981 184.749
13.843 146.821
13.888 88.571
13.9329 63.6927
13.9779 54.9131
14.0228 50.9124
14.0678 49.2139
14.1127 49.9436
14.1577 63.8266
14.2027 100.276
14.2476 96.5037
14.2926 58.6358
14.3376 46.7683
14.3825 43.8462
14.4275 42.762
14.4725 41.9756
14.5175 41.4908
14.5624 41.0992
14.6074 41.0851
14.6524 41.192
14.6974 41.3067
14.7424 41.8784
14.7874 42.8362
14.8324 44.8677
14.8774 48.6496
14.9224 51.4026
14.9674 53.09
15.0124 59.4125
15.0574 76.6115
15.1024 104.373
15.1474 108.55
15.1924 83.8745
15.2374 61.4816
15.2824 50.1229
15.3274 44.9621
15.3725 43.1952
15.4175 41.9304
15.4625 41.358
15.5076 40.9651
15.5526 40.5941
15.5976 40.7421
15.6426 40.5499
15.6877 41.3088
15.7327 42.8615
15.7778 45.7394
15.8228 48.0191
15.8679 49.5183
15.9129 52.9841
15.958 63.9807
16.003 85.5555
16.0481 105.613
16.0931 99.6382
16.1382 81.3702
16.1833 60.3131
16.2283 45.7445
16.2734 40.7329
16.3185 38.316
16.3636 37.121
16.4086 36.0306
16.4537 35.4586
16.4988 35.0203
16.5439 34.728
16.589 34.4168
16.6341 34.109
16.6792 33.6611
16.7243 33.9309
16.7694 33.7129
16.8145 33.6455
16.8596 33.9929
16.9047 34.5863
16.9498 37.2703
16.9949 42.548
17.04 42.4212
17.0851 37.181
17.1302 35.0006
17.1754 35.1571
17.2205 35.6945
17.2656 35.7633
17.3108 36.6882
17.3559 37.6705
17.401 40.75
17.4462 46.0925
17.4913 48.5822
17.5365 44.4407
17.5815 39.5133
17.6268 37.4975
17.6718 36.9042
17.7171 36.8991
17.7622 38.0713
17.8074 42.0109
17.8525 45.3064
17.8977 42.991
17.9428 41.0674
17.9881 41.9367
18.0331 43.3285
18.0784 43.8319
18.1237 45.7169
18.1688 50.6272
18.214 61.7828
18.2591 78.8402
18.3044 83.2732
18.3495 68.7197
18.3948 55.5393
18.4399 52.0993
18.4852 56.0361
18.5303 63.428
18.5756 63.1322
18.6207 56.565
18.666 49.4137
18.7112 43.1171
18.7565 39.2176
18.8016 38.0482
18.8469 37.2417
18.892 36.7431
18.9374 36.1319
18.9825 35.666
19.0278 35.4301
19.073 35.5562
19.1183 35.2837
19.1635 35.3308
19.2088 35.6149
19.254 36.4016
19.2993 36.9574
19.3447 40.5209
19.3898 47.3079
19.4352 49.6334
19.4804 45.8752
19.5257 44.8401
19.5709 44.7138
19.6163 41.7007
19.6615 37.8501
19.7068 35.5067
19.752 34.4413
19.7974 33.7634
19.8426 33.4986
19.888 33.1834
19.9332 33.4039
19.9786 33.5824
20.0238 33.7223
20.0692 33.8583
20.1144 34.3556
20.1598 35.4842
20.205 37.6977
20.2504 41.1938
20.2957 42.8168
20.3411 40.7732
20.3863 38.1076
20.4318 37.5724
20.477 39.5341
20.5224 40.7555
20.5677 39.0453
20.6131 35.7741
20.6586 33.3862
20.7038 32.5211
20.7493 31.9491
20.7945 32.8443
20.84 35.0124
20.8853 35.4171
20.9307 33.2808
20.976 31.3259
21.0215 30.4113
21.0668 30.3293
21.1122 30.4187
21.1575 30.2491
21.203 30.1212
21.2483 30.071
21.2938 30.3125
21.3391 30.5346
21.3846 31.1015
21.4299 32.0973
21.4754 32.2378
21.5207 31.9594
21.5662 31.6543
21.6116 31.0148
21.6571 30.5678
21.7024 30.608
21.7479 30.9534
21.7933 31.2844
21.8388 31.4849
21.8843 31.9321
21.9297 32.338
21.9752 33.4307
22.0206 35.7406
22.0661 38.5664
22.1115 41.2039
22.157 40.9134
22.2024 39.8215
22.248 38.8918
22.2933 37.5471
22.3389 36.4947
22.3843 34.92
22.4299 32.9609
22.4753 31.9062
22.5208 31.2332
22.5662 30.7706
22.6118 30.7824
22.6572 30.7058
22.7028 30.5858
22.7483 30.9139
22.7939 31.1005
22.8393 31.9482
22.8849 32.551
22.9303 32.4253
22.9759 31.8696
23.0214 31.8887
23.067 32.7717
23.1126 34.5744
23.1581 36.8067
23.2037 37.3792
23.2492 35.7818
23.2948 33.2057
23.3403 31.9888
23.3859 31.8506
23.4314 32.3763
23.477 33.5018
23.5225 34.2943
23.5682 33.5461
23.6137 32.7463
23.6593 32.4721
23.7048 33.5637
23.7505 35.7678
23.796 37.5991
23.8417 37.1936
23.8872 34.3601
23.9329 31.9436
23.9784 30.5817
24.0241 29.9489
24.0697 29.5538
24.1154 29.6265
24.1609 29.2993
24.2066 28.7387
24.2522 28.3597
24.2979 27.9791
24.3434 27.836
24.3892 27.6093
24.4349 27.5591
24.4805 27.4052
24.5262 27.3987
24.5718 27.2533
24.6175 27.3234
24.6631 27.6529
24.7089 28.2817
24.7545 28.6016
24.8002 28.1914
24.8458 27.5442
24.8916 26.9692
24.9372 27.0337
24.983 26.8934
25.0286 26.9079
25.0744 26.797
25.12 26.8147
25.1658 27.0587
25.2114 27.1589
25.2572 27.4181
25.3029 27.8552
25.3487 28.5861
25.3943 28.6734
25.4402 28.6227
25.4858 28.7234
25.5316 28.9775
25.5773 29.2858
25.6231 29.0851
25.669 27.8835
25.7147 27.1115
25.7605 26.5972
25.8062 26.4465
25.8521 26.6971
25.8977 26.9111
25.9436 26.8293
25.9893 26.2701
26.0352 26.0432
26.0809 25.8422
26.1268 25.8719
26.1725 25.9649
26.2184 26.2048
26.2641 26.6049
26.31 26.9215
26.3557 27.0469
26.4017 26.7544
26.4474 26.3957
26.4933 26.2156
26.5391 26.1734
26.585 25.8575
26.6308 25.8294
26.6767 25.8514
26.7225 26.0953
26.7684 26.5082
26.8142 26.9722
26.8601 27.5863
26.9059 27.767
26.9519 27.8146
26.9979 27.8909
27.0437 27.7287
27.0896 27.2123
27.1354 26.4125
27.1814 25.8329
27.2272 25.6065
27.2732 25.2765
27.3191 25.0149
27.3651 25.0349
27.4109 24.904
27.4569 24.819
27.5027 24.8883
27.5488 25.1253
27.5946 24.9959
27.6407 24.8681
27.6865 25.0208
27.7326 25.066
27.7784 25.1194
27.8245 24.917
27.8703 24.934
27.9164 24.7266
27.9623 24.5829
28.0084 24.6997
28.0543 24.9972
28.1003 25.3275
28.1462 25.4039
28.1923 25.3207
28.2384 25.4506
28.2843 25.7368
28.3304 25.8974
28.3764 25.6582
28.4225 25.2643
28.4684 25.2342
28.5145 24.6711
28.5605 24.4814
28.6066 24.2506
28.6526 24.0289
28.6987 23.8387
28.7447 23.4868
28.7908 23.2789
28.8368 23.1835
28.8829 23.0577
28.9289 22.9944
28.9751 22.9562
29.0211 22.8682
29.0673 22.8614
29.1133 22.9
29.1595 22.9883
29.2055 22.9015
29.2517 22.7179
29.2977 22.4405
29.3439 22.3249
29.3899 22.3094
29.4361 22.0848
29.4824 22.1783
29.5284 22.0937
29.5746 22.0501
29.6207 22.1372
29.6669 22.1366
29.713 22.0592
29.7593 21.7451
29.8053 21.7049
29.8516 21.525
29.8977 21.611
29.9439 21.4502
29.99 21.4156
30.0363 21.3486
30.0824 21.4552
30.1287 21.5297
30.1748 21.5569
30.2211 21.2827
30.2673 21.1696
30.3136 21.1349
30.3597 21.1674
30.406 21.0862
30.4522 21.1307
30.4985 21.2394
30.5447 21.1153
30.591 21.0345
30.6372 21.0134
30.6835 20.8009
30.7297 20.86
30.7761 20.8965
30.8224 20.8737
30.8686 21.0083
30.915 21.1265
30.9612 21.3409
31.0076 21.3606
31.0538 21.3691
31.1002 21.1689
31.1464 21.1615
31.1928 21.0774
31.2391 20.8782
31.2855 20.53
31.3317 20.5025
31.3781 20.4014
31.4244 20.3838
31.4708 20.2816
31.5171 20.3898
31.5636 20.3467
31.6098 20.3623
31.6563 20.3609
31.7026 20.4302
31.7491 20.4146
31.7953 20.3859
31.8418 20.3325
31.8881 20.1869
31.9346 20.0898
31.9809 19.9822
32.0275 19.8897
32.074 19.9739
32.1203 19.8598
32.1668 20.0248
32.2132 20.0374
32.2597 19.9166
32.306 19.8503
32.3526 19.6785
32.399 19.5673
32.4455 19.3768
32.4919 19.3069
32.5385 19.245
32.5848 19.1391
32.6314 19.0718
32.6778 18.9669
32.7244 18.8711
32.7708 18.8246
32.8174 18.761
32.8638 18.6606
32.9104 18.7532
32.9569 18.7797
33.0035 18.7017
33.0499 18.67
33.0966 18.6206
33.143 18.4959
33.1897 18.4481
33.2361 18.3476
33.2828 18.3498
33.3293 18.2254
33.3759 18.305
33.4226 18.3052
33.4691 18.343
33.5158 18.3261
33.5623 18.2837
33.609 18.1451
33.6555 18.0522
33.7022 17.9752
33.7487 17.8263
33.7954 17.8343
33.842 17.6462
33.8887 17.5862
33.9353 17.5955
33.982 17.5549
34.0286 17.515
34.0753 17.4641
34.1219 17.3813
34.1687 17.3484
34.2152 17.2961
34.262 17.2347
34.3086 17.1313
34.3554 17.1272
34.402 17.0077
34.4488 17.038
34.4954 16.9304
34.5422 16.9048
34.5889 16.7461
34.6357 16.851
34.6825 16.7551
34.7292 16.7647
34.776 16.605
34.8227 16.5621
34.8695 16.5523
34.9162 16.4947
34.9631 16.391
35.0098 16.3686
35.0566 16.3034
35.1033 16.2431
35.1502 16.2209
35.1969 16.2279
35.2438 16.2073
35.2906 16.2054
35.3375 16.1759
35.3842 16.1192
35.4311 16.0658
35.4779 16.0541
35.5248 16.0333
35.5716 15.9331
35.6185 15.9906
35.6653 16.0019
35.7123 16.0406
35.759 15.9873
35.806 15.9429
35.8528 15.8666
35.8998 15.8105
35.9468 15.7385
35.9936 15.6602
36.0406 15.5978
36.0874 15.539
36.1345 15.4925
36.1813 15.4277
36.2283 15.3915
36.2752 15.265
36.3222 15.3189
36.3691 15.2184
36.4161 15.1834
36.463 15.2747
36.5101 15.2827
36.557 15.2688
36.6041 15.1159
36.651 14.9896
36.6981 14.9709
36.745 14.9166
36.7921 14.9844
36.839 14.947
36.8861 14.8222
36.9331 14.8373
36.9802 14.7697
37.0272 14.7218
37.0743 14.5869
37.1213 14.5792
37.1684 14.5238
37.2154 14.4293
37.2626 14.4281
37.3098 14.4821
37.3568 14.3587
37.404 14.317
37.451 14.2495
37.4982 14.2938
37.5452 14.141
37.5924 14.0562
37.6395 14.1062
37.6867 14.0852
37.7337 13.9503
37.781 13.9826
37.8281 13.9434
37.8753 13.8973
37.9224 13.8321
37.9697 13.7411
38.0168 13.752
38.064 13.6852
38.1111 13.7285
38.1584 13.6003
38.2056 13.4992
38.2529 13.5151
38.3 13.536
38.3473 13.4704
38.3945 13.328
38.4418 13.3796
38.489 13.2751
38.5363 13.2145
38.5837 13.2017
38.6309 13.2069
38.6782 13.2445
38.7254 13.1247
38.7728 13.1033
38.82 12.9922
38.8674 13.0462
38.9146 12.9516
38.9621 12.9435
39.0093 12.8794
39.0567 12.9169
39.104 12.8402
39.1514 12.7366
39.1987 12.7456
39.2461 12.6888
39.2934 12.6489
39.3409 12.6305
39.3882 12.575
39.4356 12.541
39.483 12.465
39.5304 12.4456
39.5778 12.4389
39.6253 12.3816
39.6726 12.3456
39.7201 12.3294
39.7675 12.3262
39.815 12.224
39.8624 12.1705
39.9099 12.1845
39.9575 12.1625
40.0049 12.0988
40.0525 12.076
40.0999 12.0321
40.1474 12.0276
40.1949 11.949
40.2425 11.9316
40.2899 11.8987
40.3375 11.8732
40.385 11.8486
40.4326 11.7906
40.48 11.6991
40.5277 11.7314
40.5752 11.6808
40.6228 11.6763
40.6703 11.632
40.718 11.5488
40.7655 11.5363
40.8132 11.5266
40.8607 11.4932
40.9084 11.4691
40.9559 11.4746
41.0036 11.4145
41.0512 11.3745
41.0989 11.3503
41.1465 11.288
41.1942 11.236
41.242 11.1393
41.2896 11.15
41.3373 11.1245
41.3849 11.078
41.4327 11.0976
41.4803 11.0054
41.5281 10.99
41.5758 10.9296
41.6236 10.864
41.6712 10.8734
41.7191 10.8532
41.7667 10.8065
41.8146 10.7768
41.8622 10.7495
41.9101 10.7037
41.9578 10.6541
42.0057 10.6463
42.0534 10.6253
42.1013 10.5881
42.149 10.5665
42.1969 10.5056
42.2446 10.5266
42.2925 10.4353
42.3403 10.3742
42.3882 10.3527
42.436 10.356
42.4839 10.2588
42.5319 10.2509
42.5797 10.2378
42.6277 10.1898
42.6755 10.2254
42.7235 10.1339
42.7713 10.0995
42.8193 10.0678
42.8671 9.9919
42.9152 10.0213
42.963 9.98771
43.0111 9.96316
43.0589 9.89274
43.107 9.85961
43.1549 9.78804
43.2029 9.82284
43.2508 9.79525
43.2989 9.76603
43.3468 9.67202
43.3949 9.70025
43.4429 9.64912
43.491 9.62758
43.5389 9.55867
43.5871 9.53963
43.635 9.52419
43.6832 9.45811
43.7312 9.47614
43.7793 9.39627
43.8273 9.39103
43.8755 9.33327
43.9237 9.28689
43.9717 9.29127
44.0199 9.24782
44.068 9.23431
44.1162 9.23458
44.1642 9.20735
44.2125 9.18963
44.2606 9.10934
44.3088 9.12593
44.3569 9.06635
44.4052 9.0498
44.4533 8.97626
44.5016 8.94921
44.5497 8.91719
44.598 8.93212
44.6461 8.88044
44.6945 8.84862
44.7426 8.86314
44.791 8.83516
44.8391 8.76226
44.8875 8.71708
44.9357 8.72792
44.984 8.68812
45.0322 8.63405
45.0806 8.62471
45.1288 8.57001
45.1773 8.55718
45.2257 8.53217
45.2739 8.514
45.3224 8.49057
45.3706 8.45118
45.4191 8.37446
45.4673 8.3853
45.5158 8.35607
45.5641 8.30445
45.6126 8.31505
45.6609 8.2552
45.7094 8.22693
45.7577 8.20856
45.8063 8.17021
45.8546 8.16763
45.9031 8.10715
45.9515 8.12809
46.0001 8.07129
46.0484 8.05455
46.097 8.06269
46.1454 8.0188
46.194 7.97813
46.2424 7.91997
46.291 7.90333
46.3395 7.87297
46.3881 7.84566
46.4365 7.84868
46.4852 7.79964
46.5337 7.79447
46.5823 7.75051
46.631 7.72328
46.6795 7.67095
46.7282 7.67325
46.7767 7.59987
46.8254 7.60577
46.8739 7.56087
46.9226 7.5495
46.9712 7.52212
47.0199 7.44618
47.0685 7.43887
47.1173 7.44548
47.1658 7.42279
47.2146 7.3943
47.2632 7.37629
47.312 7.32949
47.3606 7.29988
47.4095 7.29759
47.4581 7.22142
47.5069 7.25265
47.5556 7.22086
47.6044 7.20842
47.6531 7.18754
47.702 7.10996
47.7507 7.13261
47.7996 7.08986
47.8483 7.07159
47.8972 7.02484
47.9461 6.98137
47.9948 6.97731
48.0438 6.97208
48.0925 6.91337
48.1415 6.92941
48.1902 6.87692
48.2392 6.88516
48.288 6.82837
48.337 6.79502
48.3858 6.77544
48.4348 6.78654
48.4837 6.75478
48.5327 6.74484
48.5815 6.70102
48.6306 6.67005
48.6795 6.63188
48.7285 6.6141
48.7774 6.60666
48.8265 6.60234
48.8754 6.52864
48.9245 6.53028
48.9734 6.51705
49.0226 6.50531
49.0715 6.46593
49.1206 6.43646
49.1696 6.4121
49.2188 6.42159
49.2679 6.37367
49.3169 6.30888
49.3661 6.3141
49.4151 6.28035
49.4643 6.2811
49.5134 6.25185
49.5626 6.23295
49.6117 6.20348
49.6609 6.16445
49.71 6.15887
49.7592 6.16522
49.8083 6.10154
49.8576 6.10952
49.9067 6.06268
49.956 6.07331
50.0052 6.01989
50.0545 6.01919
50.1036 5.97602
50.153 5.96403
50.2022 5.98706
50.2515 5.93051
50.3007 5.91319
50.3501 5.90033
50.3993 5.86756
50.4487 5.81651
50.498 5.81646
50.5474 5.80305
50.5966 5.7815
50.6461 5.74776
50.6955 5.73232
50.7448 5.73183
50.7943 5.69669
50.8436 5.68488
50.8931 5.65725
50.9424 5.62039
50.9919 5.63969
51.0413 5.6066
51.0908 5.56596
51.1402 5.56213
51.1897 5.51844
51.2391 5.53492
51.2887 5.46982
51.3381 5.43548
51.3877 5.42446
51.4371 5.42152
51.4867 5.39252
51.5362 5.38103
51.5858 5.35362
51.6353 5.31431
51.6849 5.32212
51.7344 5.30025
51.7841 5.30063
51.8336 5.27374
51.8833 5.2353
51.9328 5.20014
51.9826 5.166
52.0323 5.16211
52.0818 5.12527
52.1316 5.10903
52.1812 5.08964
52.231 5.08669
52.2806 5.06832
52.3304 5.01256
52.38 5.0183
52.4298 5.01726
52.4794 4.97663
52.5293 4.97726
52.5789 4.96462
52.6288 4.91833
52.6785 4.89844
52.7284 4.88913
52.7781 4.87194
52.828 4.86526
52.8777 4.83939
52.9276 4.80923
52.9774 4.78651
53.0273 4.77283
53.0771 4.73308
53.1271 4.75722
53.1769 4.71392
53.2269 4.68736
53.2767 4.68954
53.3267 4.6714
53.3765 4.67677
53.4266 4.6342
53.4766 4.59528
53.5265 4.54221
53.5765 4.58164
53.6264 4.53137
53.6765 4.52406
53.7264 4.4919
53.7765 4.4983
53.8265 4.48522
53.8766 4.41665
53.9266 4.42689
53.9767 4.3875
54.0267 4.38967
54.0769 4.33235
54.1269 4.34244
54.1771 4.29834
54.2271 4.31256
54.2773 4.25711
54.3274 4.23081
54.3776 4.2153
54.4277 4.17417
54.478 4.12139
54.528 4.10702
54.5783 4.02989
54.6285 4.04486
54.6788 3.95008
54.7289 3.95331
54.7792 3.97407
54.8296 3.9198
54.8798 3.82792
54.9301 3.84784
54.9803 3.82523
55.0307 3.82419
55.0809 3.81276
55.1314 3.78144
55.1816 3.69878
55.232 3.67997
55.2823 3.65689
55.3328 3.57533
55.383 3.53887
55.4335 3.52096
55.4838 3.44648
55.5344 3.41248
55.5847 3.42885
55.6352 3.38471
55.6856 3.43306
55.7361 3.36245