File: XRD/Ni3Fe_FD0978.xy
TT I
1.27165 7.46328
1.31627 6.96567
1.36089 6.29507
1.40551 6.64976
1.45013 6.46037
1.49476 5.58081
1.53938 5.65833
1.584 5.84093
1.62863 4.97832
1.67325 5.1217
1.71787 5.29499
1.7625 4.36077
1.80712 4.60563
1.85174 4.93719
1.89636 5.03661
1.94099 4.60162
1.98562 4.99044
2.03025 4.15715
2.07487 4.72423
2.11949 4.89535
2.16411 5.21671
2.20874 14.4828
2.25338 23.5599
2.298 6.41441
2.34263 6.11613
2.38725 5.85685
2.43188 6.5971
2.4765 7.33294
2.52115 7.10075
2.56577 7.48192
2.6104 8.12989
2.65503 8.02304
2.69965 8.83234
2.7443 8.83282
2.78893 8.72888
2.83356 8.93289
2.87818 8.45693
2.92281 9.52304
2.96744 9.37008
3.01209 10.5342
3.05672 10.9484
3.10135 12.4004
3.14599 13.3576
3.19062 14.5719
3.23527 15.3412
3.2799 16.0378
3.32454 16.6961
3.36917 17.708
3.4138 19.1822
3.45844 19.7584
3.50309 20.9122
3.54773 21.7154
3.59237 23.9683
3.637 92.1883
3.68164 60.2746
3.7263 25.9397
3.77094 26.3623
3.81558 26.5756
3.86022 27.482
3.90486 28.7894
3.9495 29.4919
3.99416 30.6274
4.0388 31.783
4.08344 32.9383
4.12809 33.9318
4.17273 36.4311
4.21738 42.9297
4.26204 251.69
4.30669 224.095
4.35133 48.0753
4.39598 43.8915
4.44063 53.8941
4.4853 65.9029
4.52995 49.6719
4.5746 50.494
4.61925 52.4567
4.6639 54.38
4.70855 56.6817
4.75322 59.4408
4.79788 62.32
4.84253 65.5747
4.88719 69.6191
4.93184 73.3436
4.97652 78.2844
5.02118 84.0812
5.06583 90.547
5.11049 100.377
5.15515 163.103
5.19981 272.617
5.24449 2298.9
5.28916 13419.6
5.33382 2770.38
5.37848 172.087
5.42315 124.032
5.46783 109.642
5.5125 102.605
5.55716 99.2719
5.60183 96.5623
5.6465 94.2987
5.69117 91.5903
5.73586 90.0837
5.78053 88.5006
5.8252 87.9876
5.86988 89.0814
5.91455 90.1515
5.95924 95.5406
6.00392 166.38
6.0486 790.637
6.09328 4588.99
6.13795 3202.45
6.18263 216.016
6.22733 89.3599
6.27201 80.8222
6.3167 100.434
6.36138 79.1429
6.40606 67.519
6.45075 65.8307
6.49545 64.7733
6.54014 62.8983
6.58483 61.5524
6.62952 61.7283
6.67421 93.4291
6.71892 144.248
6.76361 68.4605
6.8083 57.756
6.853 56.51
6.89769 55.8214
6.94239 55.7295
6.98711 54.73
7.03181 54.7157
7.07651 54.4042
7.12121 54.3208
7.16591 54.2811
7.21063 54.6641
7.25533 70.3518
7.30004 180.803
7.34475 92.3106
7.38945 56.2612
7.43416 53.6871
7.47889 53.4211
7.5236 53.493
7.56831 54.6035
7.61303 56.0462
7.65774 56.2366
7.70247 55.401
7.74719 55.3857
7.79191 55.8109
7.83663 55.7709
7.88135 56.9569
7.92607 57.8126
7.97081 58.4269
8.01553 59.4339
8.06026 60.9286
8.10498 62.6812
8.14971 72.2186
8.19446 70.9343
8.23919 68.3102
8.28392 70.7334
8.32865 72.2127
8.37339 76.454
8.41812 82.9169
8.46288 109.677
8.50761 140.568
8.55235 323.016
8.59709 1117.19
8.64183 2298.55
8.68658 932.5
8.73134 161.061
8.77609 96.121
8.82083 90.8996
8.86558 87.3619
8.91033 87.948
8.9551 90.1052
8.99985 83.6079
9.04461 81.7509
9.08936 81.2562
9.13412 80.1623
9.17888 80.0589
9.22365 80.9392
9.26841 80.2865
9.31318 80.6568
9.35794 80.8099
9.4027 81.4364
9.44749 81.9538
9.49226 82.6266
9.53703 83.5842
9.5818 85.1768
9.62657 89.5967
9.67134 96.8348
9.71614 91.6116
9.76091 91.7223
9.80569 94.2874
9.85047 97.5411
9.89525 120.657
9.94005 132.005
9.98484 152.851
10.0296 293.626
10.0744 754.33
10.1192 1771.38
10.164 1551.53
10.2088 369.229
10.2536 122.221
10.2984 110.398
10.3432 112.147
10.388 101.689
10.4328 109.814
10.4776 145.523
10.5224 267.111
10.5672 522.188
10.612 503.217
10.6568 198.674
10.7017 94.6892
10.7465 84.4804
10.7913 81.2099
10.8361 79.4372
10.8809 77.4933
10.9257 77.0941
10.9706 77.8105
11.0154 73.4825
11.0602 71.0766
11.105 70.4314
11.1499 75.1043
11.1947 82.1816
11.2395 73.204
11.2844 69.2161
11.3292 65.9631
11.374 64.6609
11.4189 64.2421
11.4637 63.5724
11.5086 64.0195
11.5534 67.2828
11.5983 64.0639
11.6431 62.4519
11.688 61.5119
11.7328 61.5967
11.7777 61.6133
11.8225 61.1643
11.8674 60.9917
11.9122 61.6453
11.9571 61.3536
12.002 62.0129
12.0468 64.6199
12.0917 74.6798
12.1366 97.5298
12.1814 153.857
12.2263 206.346
12.2712 163.213
12.3161 94.8156
12.3609 69.7907
12.4058 63.4053
12.4507 62.7687
12.4956 63.0055
12.5405 63.1543
12.5853 64.0862
12.6302 72.2278
12.6751 77.5277
12.72 68.807
12.7649 66.3392
12.8098 66.8749
12.8547 68.0905
12.8996 69.3207
12.9445 70.3027
12.9894 72.3187
13.0343 73.7856
13.0792 76.8324
13.1242 83.2474
13.1691 103.046
13.214 136.715
13.2589 230.771
13.3038 379.59
13.3487 429.701
13.3937 250.171
13.4386 120.546
13.4835 99.4156
13.5285 111.518
13.5734 148.013
13.6183 243.919
13.6633 359.4
13.7082 331.253
13.7531 177.285
13.7981 94.5469
13.843 80.0015
13.888 77.7082
13.9329 75.4526
13.9779 74.076
14.0228 72.7859
14.0678 71.414
14.1127 70.8958
14.1577 71.0014
14.2027 70.0194
14.2476 68.6822
14.2926 69.1538
14.3376 70.3329
14.3825 68.8926
14.4275 67.3905
14.4725 67.2973
14.5175 67.2428
14.5624 67.5428
14.6074 69.6123
14.6524 70.1584
14.6974 68.7802
14.7424 69.6286
14.7874 74.5335
14.8324 83.541
14.8774 104.512
14.9224 151.273
14.9674 213.457
15.0124 217.892
15.0574 148.563
15.1024 88.4842
15.1474 71.0603
15.1924 69.0273
15.2374 69.5525
15.2824 68.7567
15.3274 66.604
15.3725 65.4151
15.4175 64.9529
15.4625 64.654
15.5076 64.9983
15.5526 64.7466
15.5976 64.3457
15.6426 64.4132
15.6877 68.5723
15.7327 75.1232
15.7778 89.5643
15.8228 122.913
15.8679 172.849
15.9129 198.299
15.958 152.738
16.003 94.2676
16.0481 66.6705
16.0931 63.256
16.1382 61.3998
16.1833 59.6635
16.2283 57.9005
16.2734 57.1518
16.3185 57.577
16.3636 58.3791
16.4086 56.5914
16.4537 55.0728
16.4988 54.4068
16.5439 54.141
16.589 53.8998
16.6341 53.7452
16.6792 53.3922
16.7243 53.8556
16.7694 53.763
16.8145 53.8183
16.8596 54.1132
16.9047 55.6645
16.9498 55.9004
16.9949 54.6351
17.04 54.5746
17.0851 55.5111
17.1302 56.8866
17.1754 59.6867
17.2205 64.6485
17.2656 73.1574
17.3108 82.2428
17.3559 80.6083
17.401 68.3881
17.4462 60.3462
17.4913 57.7367
17.5365 57.7911
17.5815 57.9558
17.6268 58.1188
17.6718 58.9982
17.7171 59.4159
17.7622 59.767
17.8074 60.1418
17.8525 62.0514
17.8977 65.2918
17.9428 70.3663
17.9881 78.9844
18.0331 97.1231
18.0784 121.803
18.1237 139.041
18.1688 125.663
18.214 99.482
18.2591 83.5644
18.3044 89.0128
18.3495 100.217
18.3948 106.173
18.4399 94.5582
18.4852 75.688
18.5303 64.4069
18.5756 60.8529
18.6207 59.9767
18.666 59.0042
18.7112 58.474
18.7565 57.538
18.8016 57.3263
18.8469 56.8749
18.892 56.3256
18.9374 55.9713
18.9825 55.8373
19.0278 55.5105
19.073 55.6355
19.1183 56.0314
19.1635 56.5369
19.2088 57.8591
19.254 60.3216
19.2993 65.1824
19.3447 71.9793
19.3898 75.7302
19.4352 70.4915
19.4804 61.7461
19.5257 55.4942
19.5709 52.9899
19.6163 52.8417
19.6615 52.7683
19.7068 52.108
19.752 52.123
19.7974 52.3218
19.8426 53.0846
19.888 53.6346
19.9332 54.8536
19.9786 57.3099
20.0238 61.2426
20.0692 66.5513
20.1144 68.7976
20.1598 66.4653
20.205 61.9543
20.2504 60.99
20.2957 63.2978
20.3411 65.1367
20.3863 62.6524
20.4318 57.0562
20.477 52.5566
20.5224 50.4711
20.5677 49.9684
20.6131 49.3514
20.6586 48.4363
20.7038 48.5427
20.7493 48.0411
20.7945 47.984
20.84 47.8815
20.8853 47.6838
20.9307 47.4584
20.976 47.5914
21.0215 47.5732
21.0668 47.8668
21.1122 48.2422
21.1575 49.2407
21.203 50.0446
21.2483 50.5718
21.2938 50.0606
21.3391 48.8947
21.3846 48.0124
21.4299 47.4991
21.4754 47.309
21.5207 47.4033
21.5662 47.7141
21.6116 47.8738
21.6571 48.4671
21.7024 49.4001
21.7479 51.2625
21.7933 53.9036
21.8388 58.069
21.8843 62.1334
21.9297 63.7581
21.9752 61.8702
22.0206 58.2036
22.0661 55.6886
22.1115 55.3647
22.157 54.8358
22.2024 53.0851
22.248 50.4561
22.2933 48.9264
22.3389 48.1793
22.3843 48.0888
22.4299 48.0039
22.4753 47.9615
22.5208 47.6068
22.5662 47.6065
22.6118 47.5105
22.6572 47.6705
22.7028 47.9974
22.7483 48.5416
22.7939 49.1703
22.8393 50.5609
22.8849 52.9916
22.9303 55.4101
22.9759 56.7945
23.0214 56.2454
23.067 53.4503
23.1126 50.2092
23.1581 48.1796
23.2037 47.6111
23.2492 47.8497
23.2948 47.6835
23.3403 48.0674
23.3859 48.3696
23.4314 49.5371
23.477 51.4324
23.5225 54.286
23.5682 56.3627
23.6137 57.084
23.6593 54.5108
23.7048 50.3871
23.7505 47.3412
23.796 45.6764
23.8417 45.2613
23.8872 44.57
23.9329 44.3397
23.9784 43.9515
24.0241 43.6861
24.0697 43.6611
24.1154 43.1195
24.1609 43.0807
24.2066 43.0907
24.2522 42.7654
24.2979 42.5279
24.3434 42.4547
24.3892 42.3788
24.4349 42.3109
24.4805 42.1286
24.5262 42.2894
24.5718 42.027
24.6175 42.0512
24.6631 42.1186
24.7089 41.6888
24.7545 41.612
24.8002 41.3291
24.8458 41.3117
24.8916 41.3422
24.9372 41.2394
24.983 41.6069
25.0286 41.8709
25.0744 42.4866
25.12 42.8699
25.1658 43.5
25.2114 43.7864
25.2572 43.853
25.3029 44.1804
25.3487 44.3266
25.3943 43.8205
25.4402 42.5955
25.4858 41.6286
25.5316 40.5783
25.5773 40.0745
25.6231 40.1348
25.669 39.7286
25.7147 39.7132
25.7605 39.6103
25.8062 39.6628
25.8521 39.827
25.8977 39.8387
25.9436 40.0253
25.9893 40.2945
26.0352 40.7986
26.0809 40.7756
26.1268 40.9077
26.1725 40.5737
26.2184 39.8901
26.2641 39.4659
26.31 39.3629
26.3557 39.2685
26.4017 39.2955
26.4474 39.5085
26.4933 39.8719
26.5391 40.5271
26.585 41.0897
26.6308 41.3138
26.6767 41.3772
26.7225 41.1944
26.7684 40.5872
26.8142 40.1701
26.8601 39.6504
26.9059 39.2588
26.9519 38.7833
26.9979 38.356
27.0437 38.0621
27.0896 37.9698
27.1354 37.9703
27.1814 37.9393
27.2272 37.6448
27.2732 37.8056
27.3191 37.4645
27.3651 37.7453
27.4109 37.6202
27.4569 37.7969
27.5027 37.7383
27.5488 37.9208
27.5946 37.5532
27.6407 37.3155
27.6865 37.3613
27.7326 37.1592
27.7784 37.2477
27.8245 37.0051
27.8703 37.2316
27.9164 37.5061
27.9623 37.6938
28.0084 38.0686
28.0543 38.5008
28.1003 38.4096
28.1462 37.9491
28.1923 37.7728
28.2384 37.1804
28.2843 36.9207
28.3304 36.3938
28.3764 36.0349
28.4225 35.7055
28.4684 35.5688
28.5145 35.3083
28.5605 35.1369
28.6066 34.9508
28.6526 34.9142
28.6987 34.9237
28.7447 34.7838
28.7908 34.73
28.8368 34.9304
28.8829 34.7227
28.9289 34.6387
28.9751 34.3731
29.0211 34.187
29.0673 33.9738
29.1133 33.8986
29.1595 33.6996
29.2055 33.7108
29.2517 33.7056
29.2977 33.6154
29.3439 33.5947
29.3899 33.621
29.4361 33.5382
29.4824 33.3012
29.5284 33.0951
29.5746 32.6992
29.6207 32.4859
29.6669 32.392
29.713 32.3628
29.7593 32.3026
29.8053 32.2785
29.8516 32.1935
29.8977 32.1131
29.9439 31.9567
29.99 31.9858
30.0363 31.833
30.0824 31.8157
30.1287 31.8048
30.1748 31.8528
30.2211 31.8184
30.2673 31.6735
30.3136 31.7398
30.3597 31.6334
30.406 31.5937
30.4522 31.4247
30.4985 31.3336
30.5447 31.5405
30.591 31.5166
30.6372 31.4907
30.6835 31.5423
30.7297 31.5698
30.7761 31.5227
30.8224 31.3448
30.8686 31.2119
30.915 31.0909
30.9612 30.9122
31.0076 30.7629
31.0538 30.5919
31.1002 30.4874
31.1464 30.3746
31.1928 30.2377
31.2391 30.4659
31.2855 30.3357
31.3317 30.2834
31.3781 30.3599
31.4244 30.3005
31.4708 30.2344
31.5171 30.1387
31.5636 30.2774
31.6098 29.8762
31.6563 29.7359
31.7026 29.7087
31.7491 29.4586
31.7953 29.524
31.8418 29.5557
31.8881 29.6475
31.9346 29.5939
31.9809 29.5332
32.0275 29.322
32.074 29.2364
32.1203 29.147
32.1668 29.0295
32.2132 28.8172
32.2597 28.6749
32.306 28.6429
32.3526 28.4681
32.399 28.3247
32.4455 28.2884
32.4919 28.176
32.5385 28.1336
32.5848 27.95
32.6314 28.0068
32.6778 27.9863
32.7244 27.7332
32.7708 27.5621
32.8174 27.6357
32.8638 27.4629
32.9104 27.5796
32.9569 27.4742
33.0035 27.2455
33.0499 27.3562
33.0966 27.3036
33.143 27.2569
33.1897 27.1968
33.2361 27.0803
33.2828 27.0753
33.3293 26.8482
33.3759 26.9048
33.4226 26.7536
33.4691 26.579
33.5158 26.5965
33.5623 26.4852
33.609 26.2064
33.6555 26.2636
33.7022 26.1243
33.7487 26.079
33.7954 25.9933
33.842 25.9359
33.8887 25.8227
33.9353 25.8542
33.982 25.6907
34.0286 25.5787
34.0753 25.5182
34.1219 25.4389
34.1687 25.3508
34.2152 25.3613
34.262 25.1821
34.3086 25.1695
34.3554 25.0766
34.402 24.9331
34.4488 24.704
34.4954 24.7552
34.5422 24.726
34.5889 24.6323
34.6357 24.5261
34.6825 24.5215
34.7292 24.4223
34.776 24.2529
34.8227 24.2304
34.8695 24.1803
34.9162 24.1118
34.9631 24.044
35.0098 24.1287
35.0566 23.8465
35.1033 23.8425
35.1502 23.84
35.1969 23.7838
35.2438 23.7938
35.2906 23.6428
35.3375 23.6413
35.3842 23.6215
35.4311 23.5673
35.4779 23.5555
35.5248 23.4436
35.5716 23.3557
35.6185 23.3152
35.6653 23.1916
35.7123 23.1489
35.759 23.0911
35.806 23.0306
35.8528 22.8319
35.8998 22.7915
35.9468 22.6426
35.9936 22.6806
36.0406 22.6115
36.0874 22.477
36.1345 22.4943
36.1813 22.3909
36.2283 22.2999
36.2752 22.1649
36.3222 22.1794
36.3691 22.1851
36.4161 22.0365
36.463 22.0205
36.5101 21.9818
36.557 21.9767
36.6041 21.8145
36.651 21.7864
36.6981 21.719
36.745 21.6505
36.7921 21.4736
36.839 21.4741
36.8861 21.4113
36.9331 21.3504
36.9802 21.2704
37.0272 21.2281
37.0743 21.0801
37.1213 21.078
37.1684 21.0468
37.2154 21.0149
37.2626 20.8371
37.3098 20.7996
37.3568 20.6849
37.404 20.6767
37.451 20.5731
37.4982 20.54
37.5452 20.439
37.5924 20.3472
37.6395 20.4331
37.6867 20.3017
37.7337 20.2176
37.781 20.1323
37.8281 20.03
37.8753 19.9557
37.9224 19.9573
37.9697 19.9274
38.0168 19.865
38.064 19.7764
38.1111 19.7377
38.1584 19.6918
38.2056 19.5699
38.2529 19.5765
38.3 19.4666
38.3473 19.4827
38.3945 19.2824
38.4418 19.3497
38.489 19.2622
38.5363 19.1383
38.5837 19.1303
38.6309 19.079
38.6782 18.9396
38.7254 18.9535
38.7728 18.8257
38.82 18.6966
38.8674 18.7475
38.9146 18.6613
38.9621 18.5709
39.0093 18.5265
39.0567 18.4925
39.104 18.4581
39.1514 18.3677
39.1987 18.3658
39.2461 18.3347
39.2934 18.2559
39.3409 18.0984
39.3882 18.0639
39.4356 18.0228
39.483 17.9722
39.5304 17.9046
39.5778 17.8751
39.6253 17.8098
39.6726 17.7885
39.7201 17.7413
39.7675 17.7003
39.815 17.6745
39.8624 17.5172
39.9099 17.5557
39.9575 17.4023
40.0049 17.3727
40.0525 17.2971
40.0999 17.3167
40.1474 17.1556
40.1949 17.0983
40.2425 17.1269
40.2899 17.0199
40.3375 16.9885
40.385 16.9501
40.4326 16.9115
40.48 16.7417
40.5277 16.7995
40.5752 16.7679
40.6228 16.5853
40.6703 16.5985
40.718 16.552
40.7655 16.5425
40.8132 16.4546
40.8607 16.4219
40.9084 16.4091
40.9559 16.3043
41.0036 16.2728
41.0512 16.221
41.0989 16.1561
41.1465 16.0933
41.1942 16.0439
41.242 15.9884
41.2896 15.8939
41.3373 15.8523
41.3849 15.8075
41.4327 15.7614
41.4803 15.6901
41.5281 15.6714
41.5758 15.5921
41.6236 15.5376
41.6712 15.493
41.7191 15.4121
41.7667 15.362
41.8146 15.369
41.8622 15.2949
41.9101 15.3424
41.9578 15.1172
42.0057 15.1872
42.0534 15.067
42.1013 15.0274
42.149 15.0387
42.1969 14.9619
42.2446 14.8772
42.2925 14.8428
42.3403 14.7814
42.3882 14.802
42.436 14.7413
42.4839 14.6283
42.5319 14.5771
42.5797 14.5568
42.6277 14.5225
42.6755 14.4689
42.7235 14.3299
42.7713 14.3624
42.8193 14.3486
42.8671 14.2318
42.9152 14.1924
42.963 14.1764
43.0111 14.1287
43.0589 14.0403
43.107 13.9828
43.1549 13.9596
43.2029 13.8902
43.2508 13.8927
43.2989 13.7807
43.3468 13.7787
43.3949 13.7396
43.4429 13.6992
43.491 13.6173
43.5389 13.5682
43.5871 13.5338
43.635 13.4901
43.6832 13.4638
43.7312 13.3839
43.7793 13.361
43.8273 13.3538
43.8755 13.2853
43.9237 13.1763
43.9717 13.1466
44.0199 13.0978
44.068 13.0603
44.1162 13.022
44.1642 13.0018
44.2125 12.9679
44.2606 12.8802
44.3088 12.8534
44.3569 12.7929
44.4052 12.7607
44.4533 12.6868
44.5016 12.6274
44.5497 12.6872
44.598 12.5622
44.6461 12.5617
44.6945 12.5135
44.7426 12.478
44.791 12.3999
44.8391 12.3796
44.8875 12.3513
44.9357 12.2843
44.984 12.2985
45.0322 12.2063
45.0806 12.1392
45.1288 12.0922
45.1773 12.0597
45.2257 12.0018
45.2739 11.9775
45.3224 11.9369
45.3706 11.9021
45.4191 11.8552
45.4673 11.8407
45.5158 11.7717
45.5641 11.7202
45.6126 11.7042
45.6609 11.6671
45.7094 11.6288
45.7577 11.5305
45.8063 11.5242
45.8546 11.5073
45.9031 11.4234
45.9515 11.4043
46.0001 11.3928
46.0484 11.308
46.097 11.2688
46.1454 11.2399
46.194 11.1953
46.2424 11.2023
46.291 11.0932
46.3395 11.1027
46.3881 11.0044
46.4365 11.0007
46.4852 10.9864
46.5337 10.8944
46.5823 10.9289
46.631 10.8303
46.6795 10.8093
46.7282 10.7483
46.7767 10.7545
46.8254 10.6772
46.8739 10.6566
46.9226 10.5873
46.9712 10.5536
47.0199 10.515
47.0685 10.4825
47.1173 10.4849
47.1658 10.3887
47.2146 10.4085
47.2632 10.3161
47.312 10.3282
47.3606 10.2279
47.4095 10.2194
47.4581 10.2009
47.5069 10.1397
47.5556 10.1249
47.6044 10.0569
47.6531 10.0243
47.702 9.96225
47.7507 9.94789
47.7996 9.89315
47.8483 9.87786
47.8972 9.83875
47.9461 9.84461
47.9948 9.79798
48.0438 9.75218
48.0925 9.73586
48.1415 9.66524
48.1902 9.62162
48.2392 9.60678
48.288 9.56511
48.337 9.52627
48.3858 9.49224
48.4348 9.48823
48.4837 9.46948
48.5327 9.40029
48.5815 9.36575
48.6306 9.31886
48.6795 9.29886
48.7285 9.29242
48.7774 9.22312
48.8265 9.19276
48.8754 9.13967
48.9245 9.12604
48.9734 9.09366
49.0226 9.05061
49.0715 9.0305
49.1206 8.99189
49.1696 8.93649
49.2188 8.91235
49.2679 8.87678
49.3169 8.83524
49.3661 8.80049
49.4151 8.78066
49.4643 8.76177
49.5134 8.71227
49.5626 8.65174
49.6117 8.64875
49.6609 8.60779
49.71 8.55885
49.7592 8.52255
49.8083 8.46433
49.8576 8.50791
49.9067 8.44129
49.956 8.42762
50.0052 8.37533
50.0545 8.37423
50.1036 8.34698
50.153 8.29223
50.2022 8.26363
50.2515 8.23746
50.3007 8.15262
50.3501 8.16527
50.3993 8.14387
50.4487 8.10085
50.498 8.08676
50.5474 8.04145
50.5966 7.97951
50.6461 7.95923
50.6955 7.92994
50.7448 7.91353
50.7943 7.90208
50.8436 7.87984
50.8931 7.82575
50.9424 7.79764
50.9919 7.77045
51.0413 7.72706
51.0908 7.67001
51.1402 7.67005
51.1897 7.60987
51.2391 7.60726
51.2887 7.55777
51.3381 7.5561
51.3877 7.54003
51.4371 7.48166
51.4867 7.44086
51.5362 7.42482
51.5858 7.36057
51.6353 7.33593
51.6849 7.32579
51.7344 7.29228
51.7841 7.29892
51.8336 7.24041
51.8833 7.20454
51.9328 7.15299
51.9826 7.12647
52.0323 7.12964
52.0818 7.07983
52.1316 7.05972
52.1812 7.0235
52.231 6.98936
52.2806 6.94984
52.3304 6.97669
52.38 6.93653
52.4298 6.89272
52.4794 6.85381
52.5293 6.7857
52.5789 6.83337
52.6288 6.77336
52.6785 6.77106
52.7284 6.74148
52.7781 6.7343
52.828 6.68521
52.8777 6.62243
52.9276 6.6072
52.9774 6.59415
53.0273 6.58681
53.0771 6.54838
53.1271 6.52822
53.1769 6.45784
53.2269 6.42985
53.2767 6.43159
53.3267 6.3755
53.3765 6.37739
53.4266 6.32038
53.4766 6.31675
53.5265 6.24215
53.5765 6.26024
53.6264 6.2345
53.6765 6.192
53.7264 6.13774
53.7765 6.14192
53.8265 6.08394
53.8766 6.06711
53.9266 6.06666
53.9767 6.02392
54.0267 6.03677
54.0769 5.97748
54.1269 5.92385
54.1771 5.91796
54.2271 5.90158
54.2773 5.83162
54.3274 5.81248
54.3776 5.80007
54.4277 5.75136
54.478 5.70468
54.528 5.69828
54.5783 5.63983
54.6285 5.57262
54.6788 5.5807
54.7289 5.55394
54.7792 5.53229
54.8296 5.45669
54.8798 5.42954
54.9301 5.38908
54.9803 5.34301
55.0307 5.36377
55.0809 5.27527
55.1314 5.23984
55.1816 5.21281
55.232 5.09108
55.2823 5.1353
55.3328 5.01693
55.383 5.05268
55.4335 4.98405
55.4838 4.88289
55.5344 4.83806
55.5847 4.81283
55.6352 4.7749
55.6856 4.70778
55.7361 4.71983