File: XRD/Ni3Fe_FD0376.xy
TT I
1.27165 7.71433
1.31627 7.07301
1.36089 6.67768
1.40551 7.33001
1.45013 6.57575
1.49476 6.05097
1.53938 6.83979
1.584 5.30835
1.62863 5.10705
1.67325 5.07871
1.71787 4.81942
1.7625 5.05087
1.80712 4.74286
1.85174 5.13216
1.89636 4.95208
1.94099 5.03444
1.98562 4.74504
2.03025 4.89913
2.07487 4.5104
2.11949 4.75869
2.16411 4.4714
2.20874 12.4474
2.25338 18.4805
2.298 6.43782
2.34263 5.20209
2.38725 5.59223
2.43188 4.9826
2.4765 6.12729
2.52115 5.7275
2.56577 6.77017
2.6104 7.78156
2.65503 7.14843
2.69965 6.96856
2.7443 7.39816
2.78893 7.32099
2.83356 8.20516
2.87818 8.59087
2.92281 8.68355
2.96744 8.93476
3.01209 10.2498
3.05672 11.0661
3.10135 12.4377
3.14599 12.8105
3.19062 14.0715
3.23527 15.3286
3.2799 15.7378
3.32454 17.2624
3.36917 17.8515
3.4138 19.1763
3.45844 19.6572
3.50309 21.3701
3.54773 21.8508
3.59237 24.3079
3.637 77.7879
3.68164 51.1063
3.7263 26.7484
3.77094 26.3453
3.81558 26.9305
3.86022 28.1632
3.90486 29.1136
3.9495 30.3832
3.99416 31.2454
4.0388 32.62
4.08344 34.3494
4.12809 35.4135
4.17273 37.8668
4.21738 43.2451
4.26204 203.84
4.30669 176.683
4.35133 47.9376
4.39598 45.3129
4.44063 53.0738
4.4853 62.3474
4.52995 52.5617
4.5746 52.6835
4.61925 55.1154
4.6639 56.86
4.70855 59.6567
4.75322 62.6576
4.79788 65.5647
4.84253 68.9792
4.88719 74.0217
4.93184 77.8493
4.97652 83.9546
5.02118 90.0712
5.06583 99.4286
5.11049 112.903
5.15515 178.473
5.19981 495.984
5.24449 3359.01
5.28916 11181.2
5.33382 3575.35
5.37848 227.643
5.42315 139.374
5.46783 121.424
5.5125 110.99
5.55716 106.093
5.60183 102.393
5.6465 99.8397
5.69117 97.4711
5.73586 95.5726
5.78053 95.9885
5.8252 96.0171
5.86988 97.0523
5.91455 99.9109
5.95924 111.887
6.00392 269.069
6.0486 1175.16
6.09328 3984.15
6.13795 3451.64
6.18263 313.021
6.22733 100.743
6.27201 86.4733
6.3167 98.7325
6.36138 80.7222
6.40606 71.3561
6.45075 69.5507
6.49545 67.0041
6.54014 65.6213
6.58483 64.8295
6.62952 64.4034
6.67421 88.0008
6.71892 125.424
6.76361 67.7686
6.8083 60.0912
6.853 58.7805
6.89769 58.0363
6.94239 58.1021
6.98711 56.7883
7.03181 56.643
7.07651 56.6146
7.12121 56.0941
7.16591 56.7361
7.21063 56.7409
7.25533 68.49
7.30004 152.047
7.34475 83.9995
7.38945 56.955
7.43416 55.5754
7.47889 55.2714
7.5236 56.1871
7.56831 56.7521
7.61303 57.8255
7.65774 58.2119
7.70247 57.3878
7.74719 57.6726
7.79191 58.3317
7.83663 58.1759
7.88135 59.0214
7.92607 60.1767
7.97081 61.0657
8.01553 62.684
8.06026 63.9842
8.10498 65.5406
8.14971 73.6241
8.19446 72.8177
8.23919 71.6243
8.28392 73.7185
8.32865 76.2466
8.37339 80.9223
8.41812 88.3803
8.46288 114.866
8.50761 194.161
8.55235 459.16
8.59709 1173.99
8.64183 2056.09
8.68658 1172.96
8.73134 201.092
8.77609 104.794
8.82083 96.9373
8.86558 93.0221
8.91033 92.55
8.9551 92.5954
8.99985 87.6023
9.04461 86.0018
9.08936 85.1452
9.13412 84.1098
9.17888 84.0442
9.22365 84.6902
9.26841 84.5623
9.31318 85.4116
9.35794 85.5878
9.4027 85.8224
9.44749 86.626
9.49226 86.9895
9.53703 87.7597
9.5818 90.1785
9.62657 94.0373
9.67134 99.3551
9.71614 96.1716
9.76091 97.1252
9.80569 99.7916
9.85047 103.024
9.89525 123.454
9.94005 138.032
9.98484 205.175
10.0296 407.703
10.0744 847.57
10.1192 1576.77
10.164 1683.46
10.2088 518.743
10.2536 143.132
10.2984 116.764
10.3432 116.815
10.388 108.893
10.4328 128.421
10.4776 178.011
10.5224 293.972
10.5672 480.231
10.612 517.401
10.6568 228.13
10.7017 102.463
10.7465 89.9048
10.7913 86.0402
10.8361 83.2259
10.8809 81.2006
10.9257 80.251
10.9706 80.4796
11.0154 76.6975
11.0602 74.7153
11.105 73.6163
11.1499 76.737
11.1947 82.0728
11.2395 74.5214
11.2844 71.3399
11.3292 69.0347
11.374 67.7554
11.4189 67.4014
11.4637 66.6364
11.5086 66.8566
11.5534 69.0309
11.5983 66.6582
11.6431 65.4008
11.688 64.4173
11.7328 64.3488
11.7777 64.5859
11.8225 64.1042
11.8674 64.0169
11.9122 64.4742
11.9571 64.4179
12.002 65.7376
12.0468 71.3574
12.0917 84.7075
12.1366 108.072
12.1814 149.773
12.2263 196.788
12.2712 177.405
12.3161 105.85
12.3609 72.4139
12.4058 66.6635
12.4507 66.2763
12.4956 65.9393
12.5405 66.1715
12.5853 67.1054
12.6302 73.6184
12.6751 77.7234
12.72 71.0063
12.7649 69.7846
12.8098 70.2016
12.8547 71.6959
12.8996 72.9953
12.9445 74.4358
12.9894 76.0538
13.0343 78.1527
13.0792 81.9551
13.1242 94.013
13.1691 121.978
13.214 161.447
13.2589 243.351
13.3038 350.032
13.3487 415.477
13.3937 298.68
13.4386 142.353
13.4835 114.087
13.5285 131.978
13.5734 168.979
13.6183 243.712
13.6633 324.258
13.7082 340.3
13.7531 212.541
13.7981 107.822
13.843 84.9515
13.888 82.096
13.9329 79.0894
13.9779 78.0995
14.0228 76.6457
14.0678 75.1379
14.1127 74.6563
14.1577 74.3143
14.2027 73.3143
14.2476 72.3182
14.2926 72.5548
14.3376 73.3392
14.3825 72.0182
14.4275 70.7653
14.4725 70.6069
14.5175 70.9083
14.5624 70.8047
14.6074 72.9651
14.6524 73.5665
14.6974 72.4514
14.7424 74.8992
14.7874 83.3419
14.8324 95.5233
14.8774 117.211
14.9224 153.99
14.9674 196.035
15.0124 214.644
15.0574 161.006
15.1024 99.2404
15.1474 75.1548
15.1924 72.6906
15.2374 72.6058
15.2824 71.675
15.3274 69.8501
15.3725 68.686
15.4175 68.4186
15.4625 68.0238
15.5076 68.088
15.5526 68.2617
15.5976 67.7305
15.6426 69.6156
15.6877 76.2676
15.7327 85.4555
15.7778 100.497
15.8228 127.905
15.8679 163.345
15.9129 187.225
15.958 167.875
16.003 108.007
16.0481 72.3403
16.0931 66.3189
16.1382 64.2126
16.1833 62.3637
16.2283 60.5773
16.2734 60.0638
16.3185 60.1257
16.3636 60.4675
16.4086 59.14
16.4537 57.9044
16.4988 57.1735
16.5439 57.2048
16.589 56.6665
16.6341 56.4393
16.6792 56.1287
16.7243 56.4126
16.7694 56.4037
16.8145 56.3438
16.8596 56.6444
16.9047 58.1117
16.9498 58.0136
16.9949 57.2333
17.04 57.4304
17.0851 58.9908
17.1302 60.9468
17.1754 63.9136
17.2205 68.8533
17.2656 74.8769
17.3108 81.8267
17.3559 83.3857
17.401 74.4225
17.4462 64.9058
17.4913 61.0101
17.5365 60.8342
17.5815 60.8529
17.6268 61.2795
17.6718 62.1747
17.7171 62.346
17.7622 63.1487
17.8074 63.9303
17.8525 66.9071
17.8977 71.5574
17.9428 77.7455
17.9881 86.6801
18.0331 101.593
18.0784 118.525
18.1237 135.205
18.1688 136.713
18.214 113.072
18.2591 92.3791
18.3044 92.1269
18.3495 98.4757
18.3948 104.609
18.4399 99.4228
18.4852 82.3196
18.5303 68.9574
18.5756 64.0815
18.6207 62.9613
18.666 62.1898
18.7112 61.4301
18.7565 60.8292
18.8016 60.3347
18.8469 59.7767
18.892 59.2993
18.9374 59.0197
18.9825 58.5564
19.0278 58.6093
19.073 58.5683
19.1183 59.1534
19.1635 60.1439
19.2088 61.5816
19.254 63.9738
19.2993 67.9634
19.3447 72.4253
19.3898 75.8922
19.4352 74.5047
19.4804 66.7064
19.5257 59.2834
19.5709 55.9693
19.6163 55.4435
19.6615 55.2942
19.7068 54.753
19.752 54.8291
19.7974 55.1384
19.8426 56.4559
19.888 56.8675
19.9332 58.0883
19.9786 60.6205
20.0238 63.8057
20.0692 67.5766
20.1144 70.718
20.1598 70.6841
20.205 66.6444
20.2504 64.0993
20.2957 64.5894
20.3411 66.1643
20.3863 65.6966
20.4318 61.0204
20.477 55.9103
20.5224 53.2604
20.5677 52.2272
20.6131 51.7927
20.6586 51.2129
20.7038 51.0108
20.7493 50.426
20.7945 50.3531
20.84 50.2168
20.8853 50.1066
20.9307 49.9057
20.976 50.1424
21.0215 50.0967
21.0668 50.5122
21.1122 51.04
21.1575 51.3705
21.203 51.9669
21.2483 52.5724
21.2938 52.8464
21.3391 51.6888
21.3846 50.7687
21.4299 49.9001
21.4754 49.7008
21.5207 49.833
21.5662 50.1673
21.6116 50.8326
21.6571 51.6313
21.7024 52.5739
21.7479 54.424
21.7933 56.8629
21.8388 60.0739
21.8843 63.1273
21.9297 65.508
21.9752 65.3936
22.0206 62.3482
22.0661 58.4933
22.1115 57.1569
22.157 57.0582
22.2024 56.0075
22.248 53.4176
22.2933 51.8011
22.3389 50.4845
22.3843 50.5521
22.4299 50.3031
22.4753 50.1354
22.5208 50.0719
22.5662 49.8224
22.6118 50.309
22.6572 50.4286
22.7028 50.9793
22.7483 51.3098
22.7939 52.0077
22.8393 53.5836
22.8849 55.3849
22.9303 56.9545
22.9759 58.4372
23.0214 58.6161
23.067 56.7637
23.1126 53.3223
23.1581 50.944
23.2037 50.2055
23.2492 50.4647
23.2948 50.4684
23.3403 50.7743
23.3859 51.4222
23.4314 52.3475
23.477 53.961
23.5225 55.6624
23.5682 57.3703
23.6137 58.6825
23.6593 57.5103
23.7048 53.88
23.7505 50.3835
23.796 48.071
23.8417 47.3612
23.8872 46.8213
23.9329 46.5218
23.9784 46.1555
24.0241 46.0483
24.0697 45.8124
24.1154 45.4477
24.1609 45.1614
24.2066 45.223
24.2522 45.0303
24.2979 44.7047
24.3434 44.623
24.3892 44.365
24.4349 44.3077
24.4805 44.0944
24.5262 44.3693
24.5718 44.1474
24.6175 44.1847
24.6631 44.1078
24.7089 43.8652
24.7545 43.6744
24.8002 43.5293
24.8458 43.5059
24.8916 43.4002
24.9372 43.5315
24.983 43.7709
25.0286 44.2029
25.0744 44.5035
25.12 44.9534
25.1658 45.5628
25.2114 46.0006
25.2572 45.9032
25.3029 45.8816
25.3487 45.9307
25.3943 45.8002
25.4402 44.9439
25.4858 43.99
25.5316 42.9308
25.5773 42.1522
25.6231 42.0299
25.669 41.6203
25.7147 41.6371
25.7605 41.6367
25.8062 41.8084
25.8521 41.7588
25.8977 41.9187
25.9436 42.0454
25.9893 42.1272
26.0352 42.5059
26.0809 42.4692
26.1268 42.7768
26.1725 42.5199
26.2184 42.1827
26.2641 41.6207
26.31 41.3624
26.3557 41.432
26.4017 41.2101
26.4474 41.6215
26.4933 41.8906
26.5391 42.4115
26.585 42.712
26.6308 42.9435
26.6767 43.1535
26.7225 43.1929
26.7684 42.6819
26.8142 42.2625
26.8601 41.6253
26.9059 41.1778
26.9519 40.7713
26.9979 40.3921
27.0437 40.0303
27.0896 39.8025
27.1354 39.9504
27.1814 39.6953
27.2272 39.5596
27.2732 39.626
27.3191 39.3439
27.3651 39.5888
27.4109 39.3881
27.4569 39.5204
27.5027 39.6413
27.5488 39.5899
27.5946 39.3813
27.6407 39.3562
27.6865 39.076
27.7326 38.8861
27.7784 38.9714
27.8245 39.0068
27.8703 39.1
27.9164 39.3461
27.9623 39.3695
28.0084 39.5893
28.0543 40.077
28.1003 40.1211
28.1462 39.8985
28.1923 39.6341
28.2384 39.0221
28.2843 38.7655
28.3304 38.4082
28.3764 37.8134
28.4225 37.3279
28.4684 37.3312
28.5145 37.0475
28.5605 36.7235
28.6066 36.621
28.6526 36.6095
28.6987 36.5628
28.7447 36.4581
28.7908 36.4613
28.8368 36.3969
28.8829 36.3068
28.9289 36.2639
28.9751 36.1101
29.0211 36.0183
29.0673 35.6906
29.1133 35.5979
29.1595 35.4195
29.2055 35.297
29.2517 35.3935
29.2977 35.2083
29.3439 35.1316
29.3899 35.251
29.4361 34.9806
29.4824 35.0215
29.5284 34.7765
29.5746 34.406
29.6207 34.0312
29.6669 33.9931
29.713 33.8624
29.7593 33.8086
29.8053 33.7781
29.8516 33.7919
29.8977 33.7638
29.9439 33.5024
29.99 33.5125
30.0363 33.4272
30.0824 33.4515
30.1287 33.408
30.1748 33.3857
30.2211 33.3816
30.2673 33.1945
30.3136 33.3204
30.3597 33.1222
30.406 33.1543
30.4522 32.9549
30.4985 32.9094
30.5447 33.052
30.591 33.0013
30.6372 33.1278
30.6835 33.0607
30.7297 33.0206
30.7761 33.0186
30.8224 32.9175
30.8686 32.8055
30.915 32.4819
30.9612 32.3421
31.0076 32.2615
31.0538 32.048
31.1002 32.0058
31.1464 31.801
31.1928 31.8152
31.2391 31.8279
31.2855 31.7808
31.3317 31.8191
31.3781 31.75
31.4244 31.8146
31.4708 31.6436
31.5171 31.6376
31.5636 31.631
31.6098 31.3906
31.6563 31.2981
31.7026 31.1305
31.7491 31.0551
31.7953 30.9981
31.8418 30.9817
31.8881 30.9042
31.9346 30.951
31.9809 30.9205
32.0275 30.7496
32.074 30.6773
32.1203 30.4893
32.1668 30.3917
32.2132 30.1433
32.2597 30.0443
32.306 29.9265
32.3526 29.7323
32.399 29.7543
32.4455 29.6366
32.4919 29.5324
32.5385 29.5111
32.5848 29.1648
32.6314 29.2664
32.6778 29.2193
32.7244 29.0699
32.7708 28.94
32.8174 28.875
32.8638 28.7725
32.9104 28.8301
32.9569 28.7305
33.0035 28.6177
33.0499 28.6423
33.0966 28.6406
33.143 28.5397
33.1897 28.448
33.2361 28.3324
33.2828 28.397
33.3293 28.1845
33.3759 28.1644
33.4226 27.953
33.4691 27.8369
33.5158 27.7753
33.5623 27.6886
33.609 27.5846
33.6555 27.4478
33.7022 27.3388
33.7487 27.2594
33.7954 27.2736
33.842 27.1249
33.8887 27.0366
33.9353 26.9509
33.982 26.8802
34.0286 26.7578
34.0753 26.6693
34.1219 26.6326
34.1687 26.6295
34.2152 26.5298
34.262 26.3373
34.3086 26.2884
34.3554 26.2301
34.402 26.0877
34.4488 26.0794
34.4954 25.9297
34.5422 25.8717
34.5889 25.6899
34.6357 25.5847
34.6825 25.6513
34.7292 25.5311
34.776 25.4041
34.8227 25.3657
34.8695 25.3539
34.9162 25.27
34.9631 25.1307
35.0098 25.1457
35.0566 24.9704
35.1033 25.0184
35.1502 24.8986
35.1969 24.8347
35.2438 24.7854
35.2906 24.7215
35.3375 24.7667
35.3842 24.6276
35.4311 24.6565
35.4779 24.5593
35.5248 24.5234
35.5716 24.4501
35.6185 24.3607
35.6653 24.2921
35.7123 24.2343
35.759 24.1117
35.806 23.9396
35.8528 23.8773
35.8998 23.8337
35.9468 23.6773
35.9936 23.7457
36.0406 23.5741
36.0874 23.6343
36.1345 23.5447
36.1813 23.3981
36.2283 23.3703
36.2752 23.3031
36.3222 23.2925
36.3691 23.1854
36.4161 23.0361
36.463 23.0638
36.5101 23.0188
36.557 22.9784
36.6041 22.7934
36.651 22.8071
36.6981 22.6955
36.745 22.7147
36.7921 22.5775
36.839 22.4803
36.8861 22.4088
36.9331 22.4071
36.9802 22.2601
37.0272 22.2051
37.0743 22.0924
37.1213 22.1199
37.1684 21.9809
37.2154 21.941
37.2626 21.8371
37.3098 21.8726
37.3568 21.7232
37.404 21.6855
37.451 21.6108
37.4982 21.5492
37.5452 21.4221
37.5924 21.3214
37.6395 21.3832
37.6867 21.3282
37.7337 21.2069
37.781 21.0972
37.8281 20.9966
37.8753 20.9369
37.9224 20.9781
37.9697 20.8378
38.0168 20.7724
38.064 20.7426
38.1111 20.6832
38.1584 20.5884
38.2056 20.4648
38.2529 20.4807
38.3 20.3724
38.3473 20.3362
38.3945 20.2838
38.4418 20.1623
38.489 20.1566
38.5363 20.0627
38.5837 20.0294
38.6309 19.9279
38.6782 19.8741
38.7254 19.81
38.7728 19.7735
38.82 19.7208
38.8674 19.6483
38.9146 19.5357
38.9621 19.4469
39.0093 19.4704
39.0567 19.3634
39.104 19.323
39.1514 19.1674
39.1987 19.2257
39.2461 19.1584
39.2934 19.0498
39.3409 18.9695
39.3882 18.8859
39.4356 18.9059
39.483 18.8244
39.5304 18.7618
39.5778 18.7968
39.6253 18.6669
39.6726 18.5751
39.7201 18.5297
39.7675 18.4282
39.815 18.4639
39.8624 18.3861
39.9099 18.322
39.9575 18.2331
40.0049 18.1338
40.0525 18.126
40.0999 18.1022
40.1474 18.01
40.1949 18.0275
40.2425 17.8244
40.2899 17.8276
40.3375 17.8217
40.385 17.6603
40.4326 17.6877
40.48 17.5737
40.5277 17.5289
40.5752 17.5006
40.6228 17.4601
40.6703 17.3407
40.718 17.3044
40.7655 17.2768
40.8132 17.1732
40.8607 17.1399
40.9084 17.1218
40.9559 17.008
41.0036 17.0178
41.0512 16.9943
41.0989 16.9115
41.1465 16.8627
41.1942 16.8146
41.242 16.6905
41.2896 16.6744
41.3373 16.6449
41.3849 16.5794
41.4327 16.4969
41.4803 16.3988
41.5281 16.3498
41.5758 16.3526
41.6236 16.2604
41.6712 16.2472
41.7191 16.1652
41.7667 16.0926
41.8146 16.0251
41.8622 15.9941
41.9101 15.9674
41.9578 15.8654
42.0057 15.8338
42.0534 15.7964
42.1013 15.7039
42.149 15.6874
42.1969 15.6459
42.2446 15.5922
42.2925 15.5437
42.3403 15.4529
42.3882 15.4848
42.436 15.4229
42.4839 15.2824
42.5319 15.2949
42.5797 15.2134
42.6277 15.1531
42.6755 15.1099
42.7235 15.0124
42.7713 15.038
42.8193 14.9928
42.8671 14.8595
42.9152 14.8614
42.963 14.7681
43.0111 14.7796
43.0589 14.69
43.107 14.617
43.1549 14.5765
43.2029 14.54
43.2508 14.5465
43.2989 14.3931
43.3468 14.3825
43.3949 14.3699
43.4429 14.2993
43.491 14.2328
43.5389 14.218
43.5871 14.1301
43.635 14.1019
43.6832 14.0691
43.7312 13.9805
43.7793 13.9188
43.8273 13.9222
43.8755 13.8783
43.9237 13.8308
43.9717 13.819
44.0199 13.6847
44.068 13.7152
44.1162 13.5757
44.1642 13.5792
44.2125 13.5803
44.2606 13.46
44.3088 13.463
44.3569 13.3538
44.4052 13.3717
44.4533 13.2967
44.5016 13.2507
44.5497 13.212
44.598 13.1406
44.6461 13.086
44.6945 13.0968
44.7426 13.0469
44.791 13.0233
44.8391 12.9374
44.8875 12.8811
44.9357 12.8495
44.984 12.7772
45.0322 12.705
45.0806 12.693
45.1288 12.6857
45.1773 12.5848
45.2257 12.637
45.2739 12.5335
45.3224 12.5036
45.3706 12.4573
45.4191 12.3923
45.4673 12.3853
45.5158 12.3414
45.5641 12.2137
45.6126 12.2698
45.6609 12.1719
45.7094 12.1171
45.7577 12.0671
45.8063 12.0196
45.8546 12.0118
45.9031 11.9252
45.9515 11.8922
46.0001 11.9056
46.0484 11.8671
46.097 11.8063
46.1454 11.7683
46.194 11.7183
46.2424 11.6514
46.291 11.6621
46.3395 11.5885
46.3881 11.5024
46.4365 11.5306
46.4852 11.428
46.5337 11.426
46.5823 11.4086
46.631 11.3441
46.6795 11.2776
46.7282 11.2606
46.7767 11.223
46.8254 11.1818
46.8739 11.1295
46.9226 11.067
46.9712 11.0474
47.0199 11.0039
47.0685 10.9796
47.1173 10.8777
47.1658 10.8463
47.2146 10.8016
47.2632 10.78
47.312 10.7255
47.3606 10.7172
47.4095 10.6678
47.4581 10.5974
47.5069 10.5839
47.5556 10.5463
47.6044 10.5091
47.6531 10.4826
47.702 10.4068
47.7507 10.3862
47.7996 10.3757
47.8483 10.3182
47.8972 10.291
47.9461 10.2198
47.9948 10.2204
48.0438 10.1409
48.0925 10.1583
48.1415 10.1135
48.1902 10.0558
48.2392 10.0609
48.288 10.0139
48.337 9.97605
48.3858 9.93329
48.4348 9.92652
48.4837 9.86814
48.5327 9.81728
48.5815 9.79624
48.6306 9.78705
48.6795 9.70866
48.7285 9.64672
48.7774 9.6408
48.8265 9.59363
48.8754 9.58074
48.9245 9.51782
48.9734 9.50145
49.0226 9.49888
49.0715 9.43303
49.1206 9.37907
49.1696 9.35934
49.2188 9.342
49.2679 9.29967
49.3169 9.25614
49.3661 9.21877
49.4151 9.17768
49.4643 9.17978
49.5134 9.07176
49.5626 9.05993
49.6117 9.05172
49.6609 8.99864
49.71 8.97999
49.7592 8.94904
49.8083 8.89162
49.8576 8.84599
49.9067 8.81716
49.956 8.82109
50.0052 8.74443
50.0545 8.73964
50.1036 8.69962
50.153 8.67508
50.2022 8.6248
50.2515 8.57891
50.3007 8.53731
50.3501 8.52083
50.3993 8.49847
50.4487 8.48908
50.498 8.42015
50.5474 8.39785
50.5966 8.37626
50.6461 8.37207
50.6955 8.2947
50.7448 8.23589
50.7943 8.24907
50.8436 8.21299
50.8931 8.20319
50.9424 8.12188
50.9919 8.09352
51.0413 8.08862
51.0908 8.05258
51.1402 8.00517
51.1897 7.99541
51.2391 7.98474
51.2887 7.92758
51.3381 7.86913
51.3877 7.84594
51.4371 7.78904
51.4867 7.75899
51.5362 7.7865
51.5858 7.7208
51.6353 7.66494
51.6849 7.65816
51.7344 7.62186
51.7841 7.58197
51.8336 7.54597
51.8833 7.49527
51.9328 7.51327
51.9826 7.43829
52.0323 7.42692
52.0818 7.40495
52.1316 7.35819
52.1812 7.33876
52.231 7.33927
52.2806 7.28468
52.3304 7.27841
52.38 7.20011
52.4298 7.189
52.4794 7.14256
52.5293 7.11983
52.5789 7.11529
52.6288 7.05281
52.6785 6.99577
52.7284 7.04337
52.7781 7.00518
52.828 6.938
52.8777 6.88131
52.9276 6.88805
52.9774 6.91501
53.0273 6.8467
53.0771 6.81337
53.1271 6.80374
53.1769 6.7528
53.2269 6.7285
53.2767 6.68325
53.3267 6.68915
53.3765 6.66186
53.4266 6.65678
53.4766 6.55816
53.5265 6.53777
53.5765 6.53536
53.6264 6.48831
53.6765 6.48827
53.7264 6.40994
53.7765 6.46101
53.8265 6.37989
53.8766 6.34549
53.9266 6.32923
53.9767 6.30949
54.0267 6.29588
54.0769 6.25306
54.1269 6.23463
54.1771 6.18623
54.2271 6.1719
54.2773 6.07912
54.3274 6.06169
54.3776 6.06403
54.4277 6.00546
54.478 5.99549
54.528 5.96308
54.5783 5.85954
54.6285 5.85215
54.6788 5.84344
54.7289 5.81852
54.7792 5.76662
54.8296 5.72829
54.8798 5.65474
54.9301 5.59636
54.9803 5.59171
55.0307 5.5459
55.0809 5.52565
55.1314 5.57071
55.1816 5.41525
55.232 5.36782
55.2823 5.37011
55.3328 5.29332
55.383 5.18955
55.4335 5.21552
55.4838 5.13963
55.5344 5.09386
55.5847 5.0478
55.6352 4.99078
55.6856 4.96839
55.7361 4.95754