File: XRD/Ni3Fe_FD0980.xy
TT I
1.27165 6.92083
1.31627 6.58656
1.36089 7.31887
1.40551 5.76777
1.45013 6.24129
1.49476 5.878
1.53938 5.18583
1.584 4.88883
1.62863 5.33653
1.67325 4.15098
1.71787 4.82773
1.7625 4.55038
1.80712 4.41918
1.85174 4.94072
1.89636 4.79637
1.94099 4.91507
1.98562 4.73089
2.03025 4.82297
2.07487 5.39343
2.11949 5.45796
2.16411 4.95445
2.20874 14.5645
2.25338 24.1347
2.298 6.68855
2.34263 6.15297
2.38725 5.95413
2.43188 6.38901
2.4765 7.51536
2.52115 7.06435
2.56577 8.5148
2.6104 8.24904
2.65503 9.37174
2.69965 8.81324
2.7443 8.8801
2.78893 8.92003
2.83356 8.6134
2.87818 8.89077
2.92281 9.2698
2.96744 9.7483
3.01209 10.6193
3.05672 11.5523
3.10135 12.1016
3.14599 13.5656
3.19062 14.352
3.23527 15.3039
3.2799 15.5334
3.32454 16.8168
3.36917 17.4965
3.4138 19.0652
3.45844 19.7428
3.50309 20.9805
3.54773 21.9863
3.59237 24.1804
3.637 94.7327
3.68164 60.4874
3.7263 26.2033
3.77094 26.242
3.81558 26.5025
3.86022 27.4122
3.90486 28.8466
3.9495 29.5895
3.99416 30.7024
4.0388 32.0752
4.08344 33.1674
4.12809 34.4025
4.17273 36.8259
4.21738 42.9794
4.26204 255.235
4.30669 224.573
4.35133 48.6434
4.39598 43.7277
4.44063 53.6247
4.4853 65.7958
4.52995 49.9089
4.5746 50.2668
4.61925 52.6493
4.6639 54.4628
4.70855 57.0875
4.75322 59.6932
4.79788 62.4291
4.84253 65.6214
4.88719 69.6397
4.93184 73.4409
4.97652 78.5016
5.02118 84.6261
5.06583 91.014
5.11049 100.885
5.15515 164.606
5.19981 273.388
5.24449 2307.61
5.28916 13495.1
5.33382 2774.35
5.37848 172.72
5.42315 123.982
5.46783 110.336
5.5125 103.101
5.55716 99.4192
5.60183 96.4261
5.6465 94.4531
5.69117 92.3638
5.73586 90.0726
5.78053 88.932
5.8252 88.7649
5.86988 88.8253
5.91455 90.1134
5.95924 95.6048
6.00392 167.264
6.0486 780.206
6.09328 4584.67
6.13795 3230.23
6.18263 213.475
6.22733 88.7794
6.27201 81.1358
6.3167 100.849
6.36138 79.5518
6.40606 67.7682
6.45075 65.9536
6.49545 64.3433
6.54014 62.6681
6.58483 61.9144
6.62952 61.8428
6.67421 94.3321
6.71892 146.203
6.76361 68.4854
6.8083 57.7809
6.853 56.5259
6.89769 55.7439
6.94239 55.5831
6.98711 54.9302
7.03181 54.6579
7.07651 54.9827
7.12121 54.1229
7.16591 54.6682
7.21063 54.7011
7.25533 70.9465
7.30004 183.852
7.34475 92.348
7.38945 55.7655
7.43416 53.8862
7.47889 53.6046
7.5236 54.0851
7.56831 54.5971
7.61303 56.1962
7.65774 56.247
7.70247 55.2913
7.74719 55.2127
7.79191 55.8162
7.83663 55.8456
7.88135 56.8229
7.92607 57.5585
7.97081 58.5942
8.01553 59.8186
8.06026 60.7902
8.10498 62.6307
8.14971 72.4055
8.19446 71.0082
8.23919 68.0697
8.28392 70.305
8.32865 72.246
8.37339 76.2833
8.41812 83.3381
8.46288 110.992
8.50761 140.806
8.55235 325.198
8.59709 1126.48
8.64183 2297.85
8.68658 911.955
8.73134 158.01
8.77609 96.5632
8.82083 90.4071
8.86558 87.5972
8.91033 88.2306
8.9551 90.4348
8.99985 83.3234
9.04461 81.7038
9.08936 81.151
9.13412 80.0815
9.17888 80.5451
9.22365 81.2156
9.26841 80.4442
9.31318 81.0186
9.35794 80.9417
9.4027 81.2486
9.44749 82.2524
9.49226 83.131
9.53703 83.503
9.5818 85.5116
9.62657 90.4221
9.67134 96.9116
9.71614 92.1844
9.76091 91.5772
9.80569 94.089
9.85047 97.408
9.89525 121.786
9.94005 132.438
9.98484 153.306
10.0296 294.127
10.0744 754.357
10.1192 1774.21
10.164 1547.85
10.2088 363.395
10.2536 121.871
10.2984 110.566
10.3432 112.424
10.388 102.146
10.4328 109.908
10.4776 145.153
10.5224 268.531
10.5672 527.674
10.612 503.912
10.6568 195.573
10.7017 94.4792
10.7465 85.0153
10.7913 81.5145
10.8361 79.3836
10.8809 77.3564
10.9257 77.1201
10.9706 77.6052
11.0154 73.8259
11.0602 71.5366
11.105 70.5798
11.1499 75.131
11.1947 82.3538
11.2395 73.4445
11.2844 69.2052
11.3292 66.0444
11.374 65.067
11.4189 64.4986
11.4637 63.7823
11.5086 64.2756
11.5534 67.3469
11.5983 64.6956
11.6431 62.4806
11.688 61.5844
11.7328 61.4844
11.7777 61.6378
11.8225 61.2188
11.8674 61.0563
11.9122 61.3255
11.9571 61.6703
12.002 62.0422
12.0468 64.8866
12.0917 74.6981
12.1366 97.5664
12.1814 154.363
12.2263 206.976
12.2712 162.788
12.3161 94.9349
12.3609 69.1941
12.4058 63.354
12.4507 62.8407
12.4956 63.3099
12.5405 63.6113
12.5853 64.3467
12.6302 72.4254
12.6751 77.809
12.72 68.9542
12.7649 66.3471
12.8098 66.8772
12.8547 68.171
12.8996 69.4221
12.9445 70.5735
12.9894 72.3946
13.0343 73.919
13.0792 76.8193
13.1242 83.222
13.1691 102.957
13.214 136.817
13.2589 230.834
13.3038 379.66
13.3487 428.122
13.3937 247.143
13.4386 119.127
13.4835 99.4506
13.5285 111.456
13.5734 147.814
13.6183 243.721
13.6633 358.991
13.7082 331.063
13.7531 176.799
13.7981 94.6109
13.843 79.7937
13.888 77.5698
13.9329 75.4936
13.9779 74.2806
14.0228 72.764
14.0678 71.5299
14.1127 71.0306
14.1577 71.0034
14.2027 70.1543
14.2476 68.8829
14.2926 69.1464
14.3376 70.2773
14.3825 68.9447
14.4275 67.552
14.4725 66.9972
14.5175 67.153
14.5624 67.5245
14.6074 69.811
14.6524 70.33
14.6974 68.63
14.7424 69.8616
14.7874 74.3611
14.8324 83.5481
14.8774 104.609
14.9224 151.342
14.9674 214.014
15.0124 216.836
15.0574 146.995
15.1024 88.2046
15.1474 70.7651
15.1924 69.0041
15.2374 69.7641
15.2824 69.0087
15.3274 66.807
15.3725 65.3044
15.4175 65.0923
15.4625 64.7543
15.5076 64.8661
15.5526 64.8845
15.5976 64.11
15.6426 64.8243
15.6877 68.5591
15.7327 75.2543
15.7778 89.8869
15.8228 122.455
15.8679 172.728
15.9129 197.991
15.958 151.503
16.003 93.5891
16.0481 66.6296
16.0931 63.2291
16.1382 61.5764
16.1833 59.2234
16.2283 57.7845
16.2734 57.2922
16.3185 57.5862
16.3636 58.3636
16.4086 56.6876
16.4537 54.9293
16.4988 54.3773
16.5439 54.2402
16.589 54.0974
16.6341 53.9542
16.6792 53.6211
16.7243 53.7834
16.7694 54.0297
16.8145 53.661
16.8596 54.1988
16.9047 55.5921
16.9498 55.7208
16.9949 54.6815
17.04 54.4848
17.0851 55.34
17.1302 56.8806
17.1754 59.8574
17.2205 64.7612
17.2656 73.4172
17.3108 82.2966
17.3559 80.4503
17.401 68.691
17.4462 60.3952
17.4913 57.7109
17.5365 57.8559
17.5815 57.8613
17.6268 58.1918
17.6718 59.1563
17.7171 59.6416
17.7622 59.9508
17.8074 60.3556
17.8525 61.821
17.8977 65.5708
17.9428 70.3426
17.9881 79.0978
18.0331 97.3384
18.0784 121.848
18.1237 138.809
18.1688 125.315
18.214 98.6766
18.2591 83.2754
18.3044 88.8742
18.3495 99.936
18.3948 106.017
18.4399 94.1833
18.4852 75.5525
18.5303 64.5809
18.5756 60.9027
18.6207 60.1037
18.666 59.1456
18.7112 58.5593
18.7565 57.5313
18.8016 57.4473
18.8469 56.9829
18.892 56.52
18.9374 56.0973
18.9825 55.8745
19.0278 55.7617
19.073 55.6994
19.1183 56.034
19.1635 56.7725
19.2088 57.905
19.254 60.4209
19.2993 65.2792
19.3447 71.9621
19.3898 75.6523
19.4352 70.3749
19.4804 61.3632
19.5257 55.3591
19.5709 53.2645
19.6163 52.8454
19.6615 52.6709
19.7068 52.168
19.752 52.1058
19.7974 52.278
19.8426 53.2216
19.888 53.7277
19.9332 54.7573
19.9786 57.1113
20.0238 61.2566
20.0692 66.4343
20.1144 68.6864
20.1598 66.276
20.205 61.9144
20.2504 60.9584
20.2957 63.3458
20.3411 65.0548
20.3863 62.553
20.4318 56.866
20.477 52.5163
20.5224 50.7665
20.5677 50.0432
20.6131 49.3192
20.6586 48.7793
20.7038 48.5944
20.7493 48.0423
20.7945 48.021
20.84 47.9282
20.8853 47.6824
20.9307 47.5815
20.976 47.6717
21.0215 47.597
21.0668 47.9618
21.1122 48.3318
21.1575 49.1978
21.203 49.9222
21.2483 50.4456
21.2938 50.2853
21.3391 48.977
21.3846 47.9326
21.4299 47.3902
21.4754 47.4205
21.5207 47.5477
21.5662 47.8157
21.6116 48.0344
21.6571 48.6175
21.7024 49.4639
21.7479 51.0815
21.7933 54.055
21.8388 58.1163
21.8843 62.0227
21.9297 63.4614
21.9752 61.5349
22.0206 57.8866
22.0661 55.6618
22.1115 55.2501
22.157 55.0325
22.2024 53.1742
22.248 50.2235
22.2933 48.7958
22.3389 48.1248
22.3843 48.0309
22.4299 47.8693
22.4753 47.9755
22.5208 47.567
22.5662 47.5211
22.6118 47.7662
22.6572 47.7333
22.7028 48.0302
22.7483 48.4523
22.7939 49.1976
22.8393 50.8366
22.8849 53.1331
22.9303 55.5879
22.9759 56.9762
23.0214 56.0803
23.067 53.2702
23.1126 49.943
23.1581 48.1605
23.2037 47.806
23.2492 47.7619
23.2948 47.7588
23.3403 48.0248
23.3859 48.493
23.4314 49.4138
23.477 51.4719
23.5225 54.0422
23.5682 56.4712
23.6137 56.9718
23.6593 54.3544
23.7048 50.235
23.7505 47.3564
23.796 45.7443
23.8417 45.1055
23.8872 44.5024
23.9329 44.3841
23.9784 43.9725
24.0241 43.6452
24.0697 43.6601
24.1154 43.2785
24.1609 43.212
24.2066 42.9179
24.2522 42.8259
24.2979 42.5012
24.3434 42.4926
24.3892 42.3378
24.4349 42.2916
24.4805 42.1374
24.5262 42.2741
24.5718 42.2163
24.6175 42.0841
24.6631 41.8927
24.7089 41.7762
24.7545 41.6027
24.8002 41.3734
24.8458 41.3566
24.8916 41.1261
24.9372 41.1866
24.983 41.6046
25.0286 41.9455
25.0744 42.3911
25.12 42.7887
25.1658 43.4116
25.2114 43.7159
25.2572 43.8919
25.3029 44.0968
25.3487 44.2152
25.3943 43.6028
25.4402 42.6551
25.4858 41.5529
25.5316 40.6628
25.5773 40.0
25.6231 40.0438
25.669 39.6377
25.7147 39.7543
25.7605 39.6813
25.8062 39.715
25.8521 39.8367
25.8977 39.7943
25.9436 40.0445
25.9893 40.2614
26.0352 40.8509
26.0809 40.8572
26.1268 41.0135
26.1725 40.7213
26.2184 39.8598
26.2641 39.4784
26.31 39.2966
26.3557 39.3665
26.4017 39.1541
26.4474 39.5832
26.4933 39.9783
26.5391 40.348
26.585 40.8715
26.6308 41.4495
26.6767 41.3173
26.7225 41.0214
26.7684 40.6371
26.8142 39.9878
26.8601 39.6092
26.9059 39.2235
26.9519 38.6509
26.9979 38.4095
27.0437 38.0898
27.0896 37.9669
27.1354 37.9569
27.1814 37.8851
27.2272 37.6272
27.2732 37.783
27.3191 37.4147
27.3651 37.7424
27.4109 37.6654
27.4569 37.7395
27.5027 37.8055
27.5488 37.8472
27.5946 37.6806
27.6407 37.23
27.6865 37.4416
27.7326 37.0759
27.7784 37.117
27.8245 37.0588
27.8703 37.1379
27.9164 37.5073
27.9623 37.7807
28.0084 38.0151
28.0543 38.4033
28.1003 38.2391
28.1462 38.1335
28.1923 37.8115
28.2384 37.2461
28.2843 36.8501
28.3304 36.5137
28.3764 36.0052
28.4225 35.6763
28.4684 35.5209
28.5145 35.397
28.5605 35.0922
28.6066 34.9606
28.6526 34.9907
28.6987 34.8897
28.7447 34.9483
28.7908 34.8016
28.8368 34.8368
28.8829 34.7471
28.9289 34.6687
28.9751 34.5245
29.0211 34.2132
29.0673 34.004
29.1133 33.7796
29.1595 33.794
29.2055 33.641
29.2517 33.6714
29.2977 33.6286
29.3439 33.774
29.3899 33.6648
29.4361 33.4792
29.4824 33.36
29.5284 33.0298
29.5746 32.8544
29.6207 32.4383
29.6669 32.4559
29.713 32.3425
29.7593 32.3092
29.8053 32.2875
29.8516 32.1674
29.8977 32.2594
29.9439 31.9736
29.99 31.8765
30.0363 31.8467
30.0824 31.9037
30.1287 31.7169
30.1748 31.8595
30.2211 31.7614
30.2673 31.6687
30.3136 31.7414
30.3597 31.5356
30.406 31.4186
30.4522 31.5104
30.4985 31.4563
30.5447 31.5825
30.591 31.5576
30.6372 31.5843
30.6835 31.5826
30.7297 31.7234
30.7761 31.5458
30.8224 31.3466
30.8686 31.3232
30.915 31.0581
30.9612 30.8688
31.0076 30.7255
31.0538 30.5589
31.1002 30.4412
31.1464 30.3915
31.1928 30.3777
31.2391 30.3582
31.2855 30.3442
31.3317 30.1707
31.3781 30.404
31.4244 30.3469
31.4708 30.1549
31.5171 30.1718
31.5636 30.0829
31.6098 29.9436
31.6563 29.8209
31.7026 29.6669
31.7491 29.4813
31.7953 29.6297
31.8418 29.4951
31.8881 29.6301
31.9346 29.57
31.9809 29.4692
32.0275 29.3938
32.074 29.2818
32.1203 29.0055
32.1668 28.936
32.2132 28.8267
32.2597 28.714
32.306 28.6674
32.3526 28.3981
32.399 28.4203
32.4455 28.1246
32.4919 28.1663
32.5385 28.0825
32.5848 27.892
32.6314 28.0111
32.6778 27.8466
32.7244 27.7401
32.7708 27.6289
32.8174 27.6525
32.8638 27.4961
32.9104 27.4908
32.9569 27.4854
33.0035 27.2952
33.0499 27.3278
33.0966 27.2658
33.143 27.3016
33.1897 27.2121
33.2361 27.1509
33.2828 27.0125
33.3293 26.8421
33.3759 26.9202
33.4226 26.715
33.4691 26.6842
33.5158 26.5227
33.5623 26.4141
33.609 26.2379
33.6555 26.2092
33.7022 26.1394
33.7487 25.9709
33.7954 26.0302
33.842 25.8647
33.8887 25.7719
33.9353 25.8414
33.982 25.6676
34.0286 25.5633
34.0753 25.4992
34.1219 25.3999
34.1687 25.2968
34.2152 25.2788
34.262 25.1485
34.3086 25.1402
34.3554 25.0397
34.402 24.9382
34.4488 24.8757
34.4954 24.7633
34.5422 24.7456
34.5889 24.669
34.6357 24.5201
34.6825 24.5047
34.7292 24.4156
34.776 24.3494
34.8227 24.2486
34.8695 24.2049
34.9162 24.1166
34.9631 24.0603
35.0098 23.9853
35.0566 23.8854
35.1033 23.9266
35.1502 23.7938
35.1969 23.79
35.2438 23.6522
35.2906 23.6963
35.3375 23.6171
35.3842 23.5742
35.4311 23.5738
35.4779 23.4557
35.5248 23.5254
35.5716 23.4085
35.6185 23.2116
35.6653 23.1497
35.7123 23.1128
35.759 23.0919
35.806 22.9418
35.8528 22.8113
35.8998 22.8203
35.9468 22.7124
35.9936 22.6517
36.0406 22.6344
36.0874 22.5626
36.1345 22.4284
36.1813 22.4302
36.2283 22.3307
36.2752 22.1858
36.3222 22.2247
36.3691 22.1242
36.4161 22.0768
36.463 22.0219
36.5101 21.9694
36.557 21.885
36.6041 21.7584
36.651 21.7466
36.6981 21.7006
36.745 21.6571
36.7921 21.5668
36.839 21.3885
36.8861 21.4193
36.9331 21.3359
36.9802 21.3099
37.0272 21.2014
37.0743 21.1254
37.1213 21.1292
37.1684 21.0879
37.2154 20.9841
37.2626 20.8257
37.3098 20.7977
37.3568 20.6886
37.404 20.6997
37.451 20.6123
37.4982 20.5943
37.5452 20.428
37.5924 20.4711
37.6395 20.4919
37.6867 20.3477
37.7337 20.2441
37.781 20.1247
37.8281 20.1305
37.8753 20.025
37.9224 19.9509
37.9697 19.9092
38.0168 19.8336
38.064 19.7501
38.1111 19.6609
38.1584 19.6301
38.2056 19.6776
38.2529 19.5072
38.3 19.4555
38.3473 19.4781
38.3945 19.3164
38.4418 19.3463
38.489 19.2109
38.5363 19.1777
38.5837 19.1004
38.6309 19.0218
38.6782 18.9838
38.7254 18.865
38.7728 18.8803
38.82 18.7816
38.8674 18.7719
38.9146 18.671
38.9621 18.6116
39.0093 18.6019
39.0567 18.5101
39.104 18.4119
39.1514 18.3858
39.1987 18.3568
39.2461 18.255
39.2934 18.1935
39.3409 18.1982
39.3882 18.0496
39.4356 18.0354
39.483 17.9658
39.5304 17.9044
39.5778 17.8849
39.6253 17.8499
39.6726 17.7767
39.7201 17.7223
39.7675 17.6861
39.815 17.6438
39.8624 17.5121
39.9099 17.5263
39.9575 17.3516
40.0049 17.3849
40.0525 17.3186
40.0999 17.2378
40.1474 17.2641
40.1949 17.1508
40.2425 17.083
40.2899 17.0314
40.3375 16.9727
40.385 16.941
40.4326 16.9427
40.48 16.8894
40.5277 16.7874
40.5752 16.7243
40.6228 16.6183
40.6703 16.6203
40.718 16.5334
40.7655 16.4982
40.8132 16.4758
40.8607 16.4339
40.9084 16.3396
40.9559 16.3002
41.0036 16.2556
41.0512 16.2044
41.0989 16.1769
41.1465 16.1259
41.1942 16.081
41.242 15.9395
41.2896 15.9571
41.3373 15.8962
41.3849 15.7965
41.4327 15.7132
41.4803 15.7243
41.5281 15.6333
41.5758 15.6159
41.6236 15.5335
41.6712 15.5393
41.7191 15.4516
41.7667 15.3527
41.8146 15.3881
41.8622 15.3269
41.9101 15.2893
41.9578 15.1132
42.0057 15.077
42.0534 15.1114
42.1013 15.0586
42.149 15.0378
42.1969 14.9572
42.2446 14.8626
42.2925 14.8401
42.3403 14.812
42.3882 14.772
42.436 14.661
42.4839 14.6634
42.5319 14.5854
42.5797 14.5418
42.6277 14.4887
42.6755 14.4979
42.7235 14.3822
42.7713 14.3752
42.8193 14.2958
42.8671 14.2476
42.9152 14.1639
42.963 14.1771
43.0111 14.1179
43.0589 14.1122
43.107 14.0063
43.1549 14.0024
43.2029 13.8967
43.2508 13.9316
43.2989 13.8411
43.3468 13.7882
43.3949 13.7693
43.4429 13.7179
43.491 13.6483
43.5389 13.5862
43.5871 13.5231
43.635 13.5061
43.6832 13.4681
43.7312 13.3796
43.7793 13.3583
43.8273 13.3122
43.8755 13.285
43.9237 13.2138
43.9717 13.1679
44.0199 13.1114
44.068 13.1397
44.1162 13.0519
44.1642 13.0519
44.2125 12.9752
44.2606 12.8789
44.3088 12.8683
44.3569 12.8325
44.4052 12.7742
44.4533 12.7216
44.5016 12.6848
44.5497 12.6451
44.598 12.5937
44.6461 12.5504
44.6945 12.4762
44.7426 12.4777
44.791 12.3646
44.8391 12.3798
44.8875 12.3303
44.9357 12.3405
44.984 12.2309
45.0322 12.1677
45.0806 12.1549
45.1288 12.1163
45.1773 12.0486
45.2257 12.038
45.2739 11.9617
45.3224 11.9884
45.3706 11.9211
45.4191 11.8029
45.4673 11.8037
45.5158 11.7643
45.5641 11.6966
45.6126 11.7079
45.6609 11.6665
45.7094 11.6233
45.7577 11.5455
45.8063 11.5044
45.8546 11.5252
45.9031 11.4149
45.9515 11.3878
46.0001 11.3726
46.0484 11.2996
46.097 11.2854
46.1454 11.2872
46.194 11.197
46.2424 11.1618
46.291 11.12
46.3395 11.0411
46.3881 11.015
46.4365 11.0258
46.4852 10.9858
46.5337 10.9267
46.5823 10.9058
46.631 10.8695
46.6795 10.8128
46.7282 10.7643
46.7767 10.7575
46.8254 10.6824
46.8739 10.6653
46.9226 10.5994
46.9712 10.6
47.0199 10.5366
47.0685 10.4833
47.1173 10.4019
47.1658 10.413
47.2146 10.3739
47.2632 10.3478
47.312 10.2921
47.3606 10.2592
47.4095 10.2136
47.4581 10.1639
47.5069 10.1553
47.5556 10.117
47.6044 10.0488
47.6531 10.0344
47.702 9.96523
47.7507 9.94213
47.7996 9.92385
47.8483 9.88081
47.8972 9.8309
47.9461 9.81791
47.9948 9.75126
48.0438 9.75214
48.0925 9.72986
48.1415 9.64217
48.1902 9.59697
48.2392 9.62071
48.288 9.57481
48.337 9.52684
48.3858 9.46791
48.4348 9.45106
48.4837 9.47369
48.5327 9.4
48.5815 9.36225
48.6306 9.33878
48.6795 9.29699
48.7285 9.24625
48.7774 9.24028
48.8265 9.21666
48.8754 9.1364
48.9245 9.12533
48.9734 9.08134
49.0226 9.05899
49.0715 9.05007
49.1206 8.98098
49.1696 8.98091
49.2188 8.8962
49.2679 8.89046
49.3169 8.84058
49.3661 8.79257
49.4151 8.76761
49.4643 8.76862
49.5134 8.70756
49.5626 8.63504
49.6117 8.65318
49.6609 8.62241
49.71 8.54882
49.7592 8.56521
49.8083 8.49998
49.8576 8.50228
49.9067 8.422
49.956 8.43408
50.0052 8.39717
50.0545 8.35583
50.1036 8.30857
50.153 8.26596
50.2022 8.28621
50.2515 8.20603
50.3007 8.20365
50.3501 8.151
50.3993 8.15386
50.4487 8.08443
50.498 8.03746
50.5474 8.05596
50.5966 7.98721
50.6461 7.9543
50.6955 7.94931
50.7448 7.91543
50.7943 7.89304
50.8436 7.83445
50.8931 7.7925
50.9424 7.81357
50.9919 7.75302
51.0413 7.73765
51.0908 7.71744
51.1402 7.70268
51.1897 7.62611
51.2391 7.62206
51.2887 7.56076
51.3381 7.51993
51.3877 7.50835
51.4371 7.49121
51.4867 7.45951
51.5362 7.38661
51.5858 7.38307
51.6353 7.36666
51.6849 7.35559
51.7344 7.29717
51.7841 7.32443
51.8336 7.23545
51.8833 7.21136
51.9328 7.17668
51.9826 7.12738
52.0323 7.08951
52.0818 7.07733
52.1316 7.05681
52.1812 7.05828
52.231 6.99914
52.2806 6.9998
52.3304 6.94496
52.38 6.88145
52.4298 6.86303
52.4794 6.84637
52.5293 6.81779
52.5789 6.7966
52.6288 6.80695
52.6785 6.68978
52.7284 6.6809
52.7781 6.71512
52.828 6.67393
52.8777 6.5715
52.9276 6.61108
52.9774 6.59886
53.0273 6.55002
53.0771 6.54411
53.1271 6.53617
53.1769 6.49292
53.2269 6.40761
53.2767 6.42091
53.3267 6.38631
53.3765 6.36353
53.4266 6.29528
53.4766 6.30867
53.5265 6.25863
53.5765 6.27275
53.6264 6.22825
53.6765 6.21383
53.7264 6.19249
53.7765 6.11071
53.8265 6.13535
53.8766 6.06883
53.9266 6.0243
53.9767 6.07002
54.0267 6.04922
54.0769 5.99982
54.1269 5.92456
54.1771 5.91921
54.2271 5.93317
54.2773 5.87638
54.3274 5.85412
54.3776 5.87228
54.4277 5.82828
54.478 5.74472
54.528 5.72953
54.5783 5.64484
54.6285 5.62385
54.6788 5.58802
54.7289 5.51073
54.7792 5.53186
54.8296 5.4555
54.8798 5.39019
54.9301 5.37161
54.9803 5.37226
55.0307 5.33367
55.0809 5.28229
55.1314 5.27154
55.1816 5.15963
55.232 5.11552
55.2823 5.06944
55.3328 5.05619
55.383 5.02564
55.4335 5.03582
55.4838 4.86662
55.5344 4.85957
55.5847 4.85735
55.6352 4.77552
55.6856 4.81411
55.7361 4.73911