File: XRD/Ni3Fe_FD0460.xy
TT I
1.27165 7.13257
1.31627 6.81
1.36089 6.81906
1.40551 5.85899
1.45013 5.86847
1.49476 6.33889
1.53938 5.89155
1.584 5.14395
1.62863 5.17584
1.67325 5.47786
1.71787 4.96109
1.7625 4.59931
1.80712 4.94906
1.85174 4.64068
1.89636 4.51398
1.94099 5.03239
1.98562 4.88337
2.03025 4.4789
2.07487 4.30481
2.11949 4.6689
2.16411 5.08343
2.20874 10.2266
2.25338 14.6467
2.298 5.87057
2.34263 5.42146
2.38725 5.29769
2.43188 5.75057
2.4765 6.16027
2.52115 6.4195
2.56577 7.60829
2.6104 7.58129
2.65503 7.40604
2.69965 7.73092
2.7443 7.89147
2.78893 7.55041
2.83356 8.69234
2.87818 9.05068
2.92281 8.57404
2.96744 9.47503
3.01209 10.6631
3.05672 10.8847
3.10135 11.9416
3.14599 13.2208
3.19062 14.1815
3.23527 15.2315
3.2799 15.5364
3.32454 17.2297
3.36917 18.0498
3.4138 18.6474
3.45844 19.9006
3.50309 21.1671
3.54773 21.7792
3.59237 23.7549
3.637 61.8146
3.68164 42.9602
3.7263 25.3664
3.77094 26.2577
3.81558 26.6785
3.86022 27.5222
3.90486 29.0387
3.9495 29.7102
3.99416 30.8313
4.0388 32.327
4.08344 33.6691
4.12809 34.3401
4.17273 36.9923
4.21738 40.7767
4.26204 157.507
4.30669 133.289
4.35133 45.7053
4.39598 44.7881
4.44063 50.4539
4.4853 58.0767
4.52995 52.7681
4.5746 53.0907
4.61925 54.5155
4.6639 56.4443
4.70855 59.205
4.75322 61.93
4.79788 65.7003
4.84253 69.0908
4.88719 73.7696
4.93184 77.3579
4.97652 83.0137
5.02118 90.0491
5.06583 99.0299
5.11049 111.951
5.15515 167.5
5.19981 520.749
5.24449 3475.12
5.28916 11843.1
5.33382 2960.59
5.37848 204.57
5.42315 134.581
5.46783 118.638
5.5125 109.85
5.55716 105.247
5.60183 100.946
5.6465 98.4413
5.69117 96.6138
5.73586 95.1481
5.78053 95.4212
5.8252 95.1533
5.86988 97.2318
5.91455 98.9993
5.95924 111.78
6.00392 288.485
6.0486 1189.35
6.09328 4239.7
6.13795 3343.84
6.18263 261.481
6.22733 96.5133
6.27201 83.7582
6.3167 91.3924
6.36138 77.6026
6.40606 70.4889
6.45075 68.9745
6.49545 66.1842
6.54014 64.4219
6.58483 63.6123
6.62952 63.2756
6.67421 79.5119
6.71892 105.287
6.76361 64.4715
6.8083 59.3227
6.853 58.1675
6.89769 57.1115
6.94239 57.0444
6.98711 56.5186
7.03181 56.2056
7.07651 55.8489
7.12121 55.659
7.16591 56.0362
7.21063 55.6269
7.25533 63.7425
7.30004 120.385
7.34475 75.6217
7.38945 56.5112
7.43416 54.6633
7.47889 54.5515
7.5236 55.0263
7.56831 56.0058
7.61303 56.7761
7.65774 57.1033
7.70247 56.9424
7.74719 57.0665
7.79191 57.3565
7.83663 57.5649
7.88135 58.8594
7.92607 59.4056
7.97081 60.5804
8.01553 61.861
8.06026 63.1288
8.10498 64.894
8.14971 71.3781
8.19446 71.0706
8.23919 70.5841
8.28392 73.2957
8.32865 75.8763
8.37339 80.3947
8.41812 87.0682
8.46288 111.033
8.50761 207.728
8.55235 465.12
8.59709 1216.03
8.64183 2136.34
8.68658 1023.67
8.73134 170.791
8.77609 101.816
8.82083 94.5157
8.86558 91.8311
8.91033 91.222
8.9551 90.4854
8.99985 86.6588
9.04461 85.264
9.08936 84.9377
9.13412 83.7442
9.17888 83.2258
9.22365 83.9189
9.26841 83.6477
9.31318 84.9922
9.35794 85.1297
9.4027 85.3638
9.44749 85.6205
9.49226 86.1916
9.53703 87.2313
9.5818 89.4844
9.62657 93.0527
9.67134 96.7131
9.71614 94.9227
9.76091 95.8881
9.80569 99.0334
9.85047 102.268
9.89525 118.021
9.94005 135.378
9.98484 219.687
10.0296 410.037
10.0744 881.28
10.1192 1715.88
10.164 1628.49
10.2088 409.782
10.2536 130.226
10.2984 113.174
10.3432 112.601
10.388 108.266
10.4328 131.79
10.4776 178.799
10.5224 300.252
10.5672 493.22
10.612 491.33
10.6568 204.706
10.7017 97.2136
10.7465 88.2801
10.7913 84.7624
10.8361 82.2686
10.8809 80.0331
10.9257 78.7303
10.9706 78.883
11.0154 75.5914
11.0602 73.6031
11.105 72.8582
11.1499 74.5628
11.1947 78.1395
11.2395 72.7963
11.2844 70.1132
11.3292 68.0325
11.374 67.0468
11.4189 66.7959
11.4637 65.8709
11.5086 66.1186
11.5534 66.9545
11.5983 65.5445
11.6431 64.378
11.688 63.9188
11.7328 63.887
11.7777 63.5761
11.8225 63.2836
11.8674 63.2229
11.9122 63.9352
11.9571 64.2014
12.002 65.7294
12.0468 72.2426
12.0917 84.0014
12.1366 109.714
12.1814 156.241
12.2263 202.412
12.2712 170.183
12.3161 92.6746
12.3609 69.4411
12.4058 65.3524
12.4507 65.1735
12.4956 65.2346
12.5405 65.3838
12.5853 66.499
12.6302 70.5612
12.6751 74.1321
12.72 69.731
12.7649 68.9696
12.8098 69.6647
12.8547 70.8456
12.8996 72.3972
12.9445 73.8091
12.9894 75.8668
13.0343 77.3568
13.0792 81.8679
13.1242 96.7853
13.1691 122.315
13.214 163.154
13.2589 250.326
13.3038 366.603
13.3487 419.317
13.3937 260.355
13.4386 124.369
13.4835 113.647
13.5285 130.705
13.5734 171.239
13.6183 253.874
13.6633 339.797
13.7082 339.373
13.7531 187.332
13.7981 97.7152
13.843 83.2151
13.888 80.7324
13.9329 78.4923
13.9779 76.9916
14.0228 75.4822
14.0678 74.4923
14.1127 73.4257
14.1577 73.6699
14.2027 72.5382
14.2476 71.6664
14.2926 71.5326
14.3376 71.7446
14.3825 71.0778
14.4275 69.7361
14.4725 69.9134
14.5175 70.3992
14.5624 70.228
14.6074 71.5517
14.6524 72.1091
14.6974 71.7929
14.7424 75.6337
14.7874 83.8072
14.8324 95.1136
14.8774 117.965
14.9224 157.742
14.9674 202.858
15.0124 215.227
15.0574 147.933
15.1024 90.686
15.1474 73.1548
15.1924 71.3172
15.2374 71.1386
15.2824 70.3142
15.3274 68.8314
15.3725 68.0377
15.4175 67.271
15.4625 67.197
15.5076 67.2054
15.5526 67.1262
15.5976 67.2558
15.6426 69.932
15.6877 76.4666
15.7327 84.543
15.7778 100.946
15.8228 130.609
15.8679 168.622
15.9129 191.309
15.958 155.543
16.003 95.5254
16.0481 68.636
16.0931 64.4346
16.1382 62.8202
16.1833 61.3342
16.2283 59.9329
16.2734 59.2383
16.3185 59.2258
16.3636 59.2523
16.4086 58.1405
16.4537 57.107
16.4988 56.3771
16.5439 56.4474
16.589 56.0993
16.6341 55.8444
16.6792 55.3864
16.7243 55.6169
16.7694 55.578
16.8145 55.6683
16.8596 55.7488
16.9047 56.88
16.9498 56.9297
16.9949 56.4533
17.04 57.0391
17.0851 58.4726
17.1302 60.3614
17.1754 63.4894
17.2205 68.6223
17.2656 75.5335
17.3108 82.2596
17.3559 82.4337
17.401 71.6604
17.4462 62.7714
17.4913 60.1211
17.5365 60.224
17.5815 60.2158
17.6268 60.642
17.6718 61.3893
17.7171 61.6736
17.7622 62.2622
17.8074 63.4658
17.8525 67.2498
17.8977 71.2855
17.9428 76.9937
17.9881 86.3791
18.0331 102.819
18.0784 121.516
18.1237 139.95
18.1688 133.271
18.214 105.872
18.2591 88.7295
18.3044 91.8784
18.3495 100.382
18.3948 106.797
18.4399 97.1031
18.4852 77.883
18.5303 66.6935
18.5756 63.0708
18.6207 62.1238
18.666 61.4324
18.7112 60.6614
18.7565 59.9146
18.8016 59.6094
18.8469 58.8984
18.892 58.7085
18.9374 58.1318
18.9825 58.0821
19.0278 57.6386
19.073 58.2056
19.1183 58.4857
19.1635 59.3116
19.2088 60.9846
19.254 63.5338
19.2993 67.6947
19.3447 72.7745
19.3898 76.7178
19.4352 73.2326
19.4804 63.9085
19.5257 57.2952
19.5709 54.8942
19.6163 54.9151
19.6615 54.7045
19.7068 54.2722
19.752 54.2159
19.7974 54.6169
19.8426 55.4951
19.888 56.1664
19.9332 57.6193
19.9786 60.4033
20.0238 63.7548
20.0692 68.0309
20.1144 70.6273
20.1598 69.1602
20.205 64.4577
20.2504 63.0191
20.2957 64.4986
20.3411 66.0737
20.3863 64.7261
20.4318 58.735
20.477 54.1741
20.5224 52.1682
20.5677 51.6079
20.6131 50.8756
20.6586 50.5104
20.7038 50.3102
20.7493 49.9292
20.7945 49.7283
20.84 49.6682
20.8853 49.6059
20.9307 49.4998
20.976 49.5155
21.0215 49.5344
21.0668 49.9241
21.1122 50.3584
21.1575 50.9458
21.203 51.6518
21.2483 52.1114
21.2938 52.3382
21.3391 50.7904
21.3846 49.6162
21.4299 49.2119
21.4754 49.265
21.5207 49.3164
21.5662 49.7562
21.6116 50.4017
21.6571 51.0506
21.7024 52.0348
21.7479 53.824
21.7933 56.7966
21.8388 59.8628
21.8843 63.1861
21.9297 65.3972
21.9752 64.0356
22.0206 60.4522
22.0661 57.0783
22.1115 56.6118
22.157 56.5812
22.2024 55.1641
22.248 52.1713
22.2933 50.5959
22.3389 49.8494
22.3843 49.7512
22.4299 49.5823
22.4753 49.6808
22.5208 49.2504
22.5662 49.184
22.6118 49.6367
22.6572 49.7374
22.7028 50.1274
22.7483 50.7154
22.7939 51.568
22.8393 53.1001
22.8849 55.0068
22.9303 56.6942
22.9759 58.3182
23.0214 57.9404
23.067 55.1318
23.1126 51.8692
23.1581 49.9814
23.2037 49.7732
23.2492 49.9632
23.2948 49.8652
23.3403 50.1314
23.3859 50.8218
23.4314 51.9032
23.477 53.6866
23.5225 55.4922
23.5682 57.3161
23.6137 58.4799
23.6593 56.1348
23.7048 52.4978
23.7505 49.1999
23.796 47.385
23.8417 46.6033
23.8872 46.165
23.9329 45.7905
23.9784 45.5774
24.0241 45.3396
24.0697 45.0609
24.1154 44.8272
24.1609 44.604
24.2066 44.6188
24.2522 44.3641
24.2979 44.0581
24.3434 43.9823
24.3892 43.7758
24.4349 43.9328
24.4805 43.6639
24.5262 43.7045
24.5718 43.6462
24.6175 43.6425
24.6631 43.6289
24.7089 43.2179
24.7545 43.0332
24.8002 42.8148
24.8458 42.9635
24.8916 42.7539
24.9372 43.1094
24.983 43.1943
25.0286 43.6468
25.0744 44.0108
25.12 44.5135
25.1658 45.2172
25.2114 45.5819
25.2572 45.5391
25.3029 45.3169
25.3487 45.5996
25.3943 45.182
25.4402 44.1832
25.4858 43.1313
25.5316 42.1274
25.5773 41.5389
25.6231 41.5685
25.669 41.2001
25.7147 41.2509
25.7605 41.1839
25.8062 41.0571
25.8521 41.2703
25.8977 41.2664
25.9436 41.4541
25.9893 41.5912
26.0352 42.0811
26.0809 42.1346
26.1268 42.2962
26.1725 42.0547
26.2184 41.4246
26.2641 41.0007
26.31 40.7656
26.3557 40.7752
26.4017 40.8176
26.4474 41.2419
26.4933 41.4697
26.5391 41.8815
26.585 42.3659
26.6308 42.6069
26.6767 42.7987
26.7225 42.6351
26.7684 41.9866
26.8142 41.3824
26.8601 41.0108
26.9059 40.5857
26.9519 40.2351
26.9979 39.6848
27.0437 39.4508
27.0896 39.3749
27.1354 39.3848
27.1814 39.2887
27.2272 39.04
27.2732 39.2249
27.3191 39.0031
27.3651 39.105
27.4109 39.0303
27.4569 39.1798
27.5027 39.1667
27.5488 39.2202
27.5946 38.9951
27.6407 38.8423
27.6865 38.8058
27.7326 38.3731
27.7784 38.5857
27.8245 38.3772
27.8703 38.651
27.9164 38.9665
27.9623 38.9055
28.0084 39.3511
28.0543 39.6732
28.1003 39.6851
28.1462 39.3521
28.1923 38.9272
28.2384 38.4506
28.2843 38.1781
28.3304 37.7429
28.3764 37.3329
28.4225 37.0418
28.4684 36.8115
28.5145 36.4927
28.5605 36.5117
28.6066 36.1684
28.6526 36.2886
28.6987 36.1331
28.7447 36.0572
28.7908 36.0209
28.8368 35.9292
28.8829 35.8652
28.9289 35.8218
28.9751 35.731
29.0211 35.5643
29.0673 35.2853
29.1133 35.1497
29.1595 34.9373
29.2055 34.9332
29.2517 34.8908
29.2977 34.7915
29.3439 34.7644
29.3899 34.8422
29.4361 34.6259
29.4824 34.4993
29.5284 34.1987
29.5746 33.9274
29.6207 33.6702
29.6669 33.5423
29.713 33.4789
29.7593 33.3702
29.8053 33.455
29.8516 33.263
29.8977 33.278
29.9439 33.0587
29.99 33.1316
30.0363 33.01
30.0824 33.062
30.1287 32.8956
30.1748 32.9605
30.2211 32.9269
30.2673 32.7081
30.3136 32.9326
30.3597 32.8497
30.406 32.6551
30.4522 32.5356
30.4985 32.5584
30.5447 32.6418
30.591 32.6243
30.6372 32.6125
30.6835 32.6745
30.7297 32.7858
30.7761 32.6581
30.8224 32.5132
30.8686 32.2681
30.915 32.1488
30.9612 32.0627
31.0076 31.7149
31.0538 31.6782
31.1002 31.6415
31.1464 31.4509
31.1928 31.4317
31.2391 31.4452
31.2855 31.3953
31.3317 31.3083
31.3781 31.4847
31.4244 31.4182
31.4708 31.2803
31.5171 31.2984
31.5636 31.2659
31.6098 31.0668
31.6563 30.7404
31.7026 30.8263
31.7491 30.5708
31.7953 30.6548
31.8418 30.6805
31.8881 30.5186
31.9346 30.5725
31.9809 30.5588
32.0275 30.4119
32.074 30.2493
32.1203 30.0562
32.1668 29.9539
32.2132 29.8928
32.2597 29.7121
32.306 29.6182
32.3526 29.4225
32.399 29.3818
32.4455 29.1869
32.4919 29.1004
32.5385 29.0579
32.5848 28.8976
32.6314 28.9432
32.6778 28.8853
32.7244 28.6757
32.7708 28.5488
32.8174 28.5676
32.8638 28.4579
32.9104 28.4884
32.9569 28.4282
33.0035 28.2719
33.0499 28.2658
33.0966 28.302
33.143 28.1907
33.1897 28.2082
33.2361 28.0663
33.2828 27.9707
33.3293 27.8576
33.3759 27.8054
33.4226 27.6922
33.4691 27.4515
33.5158 27.4595
33.5623 27.3643
33.609 27.1908
33.6555 27.0852
33.7022 27.0266
33.7487 26.936
33.7954 26.8666
33.842 26.7573
33.8887 26.7458
33.9353 26.6764
33.982 26.5121
34.0286 26.4992
34.0753 26.3628
34.1219 26.2801
34.1687 26.2048
34.2152 26.2452
34.262 26.0838
34.3086 25.9089
34.3554 25.9364
34.402 25.7948
34.4488 25.6602
34.4954 25.6115
34.5422 25.6649
34.5889 25.4535
34.6357 25.3132
34.6825 25.3207
34.7292 25.1937
34.776 25.0903
34.8227 25.1211
34.8695 24.9877
34.9162 24.9394
34.9631 24.8352
35.0098 24.8095
35.0566 24.7629
35.1033 24.6292
35.1502 24.6706
35.1969 24.5417
35.2438 24.5166
35.2906 24.4871
35.3375 24.4037
35.3842 24.3405
35.4311 24.3875
35.4779 24.3505
35.5248 24.1785
35.5716 24.1459
35.6185 24.063
35.6653 23.9438
35.7123 23.9542
35.759 23.8063
35.806 23.7258
35.8528 23.5651
35.8998 23.5891
35.9468 23.5145
35.9936 23.526
36.0406 23.373
36.0874 23.3644
36.1345 23.2197
36.1813 23.1369
36.2283 23.0148
36.2752 22.9393
36.3222 23.0645
36.3691 22.9211
36.4161 22.7459
36.463 22.7879
36.5101 22.7749
36.557 22.7193
36.6041 22.4946
36.651 22.5708
36.6981 22.486
36.745 22.3454
36.7921 22.2054
36.839 22.1625
36.8861 22.0997
36.9331 22.0805
36.9802 22.0138
37.0272 21.9026
37.0743 21.855
37.1213 21.8001
37.1684 21.7057
37.2154 21.6381
37.2626 21.5169
37.3098 21.5325
37.3568 21.5066
37.404 21.4123
37.451 21.3191
37.4982 21.2627
37.5452 21.1322
37.5924 21.1076
37.6395 21.1244
37.6867 21.046
37.7337 20.942
37.781 20.8613
37.8281 20.7667
37.8753 20.7163
37.9224 20.6989
37.9697 20.5887
38.0168 20.5601
38.064 20.3875
38.1111 20.3798
38.1584 20.3342
38.2056 20.2911
38.2529 20.1981
38.3 20.2117
38.3473 20.097
38.3945 20.0007
38.4418 19.9613
38.489 19.8524
38.5363 19.8072
38.5837 19.6948
38.6309 19.7004
38.6782 19.613
38.7254 19.5732
38.7728 19.4716
38.82 19.3971
38.8674 19.3849
38.9146 19.3148
38.9621 19.2725
39.0093 19.1941
39.0567 19.1387
39.104 19.0479
39.1514 18.9592
39.1987 18.9289
39.2461 18.955
39.2934 18.8327
39.3409 18.7381
39.3882 18.6732
39.4356 18.6501
39.483 18.663
39.5304 18.5701
39.5778 18.5045
39.6253 18.4224
39.6726 18.3723
39.7201 18.3254
39.7675 18.2918
39.815 18.2
39.8624 18.1274
39.9099 18.0888
39.9575 18.0129
40.0049 18.0291
40.0525 17.9088
40.0999 17.8171
40.1474 17.8519
40.1949 17.7121
40.2425 17.6596
40.2899 17.595
40.3375 17.5912
40.385 17.4466
40.4326 17.4856
40.48 17.3703
40.5277 17.3854
40.5752 17.3131
40.6228 17.1814
40.6703 17.2507
40.718 17.0901
40.7655 17.0986
40.8132 17.0577
40.8607 17.0038
40.9084 16.9373
40.9559 16.8216
41.0036 16.8142
41.0512 16.7778
41.0989 16.6527
41.1465 16.5909
41.1942 16.6046
41.242 16.5152
41.2896 16.4302
41.3373 16.448
41.3849 16.3588
41.4327 16.3442
41.4803 16.223
41.5281 16.1756
41.5758 16.1239
41.6236 16.0795
41.6712 16.0149
41.7191 15.9631
41.7667 15.9618
41.8146 15.8836
41.8622 15.7539
41.9101 15.7296
41.9578 15.669
42.0057 15.6466
42.0534 15.5553
42.1013 15.5264
42.149 15.4725
42.1969 15.4244
42.2446 15.432
42.2925 15.3672
42.3403 15.2682
42.3882 15.2715
42.436 15.2114
42.4839 15.1475
42.5319 15.1056
42.5797 15.0702
42.6277 14.9675
42.6755 14.9271
42.7235 14.8701
42.7713 14.8508
42.8193 14.7473
42.8671 14.7395
42.9152 14.6729
42.963 14.6389
43.0111 14.5604
43.0589 14.517
43.107 14.499
43.1549 14.4543
43.2029 14.3993
43.2508 14.3533
43.2989 14.2549
43.3468 14.2294
43.3949 14.1653
43.4429 14.1681
43.491 14.0553
43.5389 14.0469
43.5871 14.0007
43.635 13.9737
43.6832 13.8477
43.7312 13.8541
43.7793 13.8002
43.8273 13.7285
43.8755 13.7239
43.9237 13.6052
43.9717 13.6011
44.0199 13.5728
44.068 13.5343
44.1162 13.4401
44.1642 13.4464
44.2125 13.3943
44.2606 13.3143
44.3088 13.2066
44.3569 13.258
44.4052 13.1902
44.4533 13.1245
44.5016 13.125
44.5497 13.0249
44.598 13.0113
44.6461 12.9007
44.6945 12.9324
44.7426 12.9095
44.791 12.82
44.8391 12.7936
44.8875 12.7532
44.9357 12.722
44.984 12.6677
45.0322 12.5812
45.0806 12.5175
45.1288 12.5179
45.1773 12.4256
45.2257 12.4282
45.2739 12.329
45.3224 12.3273
45.3706 12.286
45.4191 12.2726
45.4673 12.2565
45.5158 12.1768
45.5641 12.11
45.6126 12.0676
45.6609 12.0215
45.7094 11.9634
45.7577 11.935
45.8063 11.8782
45.8546 11.9075
45.9031 11.7868
45.9515 11.7786
46.0001 11.7167
46.0484 11.6974
46.097 11.6671
46.1454 11.608
46.194 11.5594
46.2424 11.5336
46.291 11.5127
46.3395 11.4075
46.3881 11.3514
46.4365 11.3651
46.4852 11.3145
46.5337 11.2802
46.5823 11.2607
46.631 11.1246
46.6795 11.1772
46.7282 11.0948
46.7767 11.0509
46.8254 11.0242
46.8739 10.9585
46.9226 10.9128
46.9712 10.8718
47.0199 10.8474
47.0685 10.8183
47.1173 10.7937
47.1658 10.7035
47.2146 10.7231
47.2632 10.6662
47.312 10.6517
47.3606 10.5658
47.4095 10.5363
47.4581 10.5162
47.5069 10.4895
47.5556 10.4398
47.6044 10.3514
47.6531 10.3735
47.702 10.3098
47.7507 10.2879
47.7996 10.2481
47.8483 10.1933
47.8972 10.1953
47.9461 10.1121
47.9948 10.0937
48.0438 10.0507
48.0925 9.99171
48.1415 9.96872
48.1902 9.93911
48.2392 9.94985
48.288 9.86502
48.337 9.82282
48.3858 9.79961
48.4348 9.75865
48.4837 9.78589
48.5327 9.68467
48.5815 9.64721
48.6306 9.66941
48.6795 9.60123
48.7285 9.53266
48.7774 9.52774
48.8265 9.48714
48.8754 9.42345
48.9245 9.40686
48.9734 9.38767
49.0226 9.37505
49.0715 9.31198
49.1206 9.25157
49.1696 9.22652
49.2188 9.2019
49.2679 9.14825
49.3169 9.11431
49.3661 9.08288
49.4151 9.07927
49.4643 9.03252
49.5134 8.98788
49.5626 8.93582
49.6117 8.92218
49.6609 8.89901
49.71 8.84137
49.7592 8.8318
49.8083 8.7765
49.8576 8.77961
49.9067 8.72228
49.956 8.68945
50.0052 8.66548
50.0545 8.61027
50.1036 8.58685
50.153 8.58932
50.2022 8.52578
50.2515 8.49687
50.3007 8.44811
50.3501 8.4094
50.3993 8.40691
50.4487 8.32141
50.498 8.34085
50.5474 8.30496
50.5966 8.26423
50.6461 8.2546
50.6955 8.20761
50.7448 8.14668
50.7943 8.13767
50.8436 8.14096
50.8931 8.06079
50.9424 8.03898
50.9919 7.98945
51.0413 7.99882
51.0908 7.94299
51.1402 7.87935
51.1897 7.91519
51.2391 7.85418
51.2887 7.8173
51.3381 7.82065
51.3877 7.76379
51.4371 7.73933
51.4867 7.70396
51.5362 7.6299
51.5858 7.62604
51.6353 7.6036
51.6849 7.58125
51.7344 7.55326
51.7841 7.52504
51.8336 7.47469
51.8833 7.43951
51.9328 7.38516
51.9826 7.37549
52.0323 7.36176
52.0818 7.32965
52.1316 7.27466
52.1812 7.24567
52.231 7.22829
52.2806 7.19935
52.3304 7.17943
52.38 7.09859
52.4298 7.09172
52.4794 7.07599
52.5293 7.06555
52.5789 7.02127
52.6288 7.00484
52.6785 6.96576
52.7284 6.89706
52.7781 6.90449
52.828 6.85468
52.8777 6.81009
52.9276 6.8569
52.9774 6.77876
53.0273 6.7503
53.0771 6.74889
53.1271 6.71631
53.1769 6.6622
53.2269 6.66876
53.2767 6.64109
53.3267 6.58762
53.3765 6.5394
53.4266 6.54479
53.4766 6.5439
53.5265 6.49731
53.5765 6.54618
53.6264 6.4167
53.6765 6.35214
53.7264 6.33177
53.7765 6.31305
53.8265 6.32775
53.8766 6.25447
53.9266 6.25268
53.9767 6.25797
54.0267 6.22871
54.0769 6.21424
54.1269 6.13408
54.1771 6.13966
54.2271 6.07945
54.2773 5.99196
54.3274 6.03439
54.3776 5.99931
54.4277 5.96061
54.478 5.89098
54.528 5.86578
54.5783 5.81464
54.6285 5.77797
54.6788 5.72961
54.7289 5.72995
54.7792 5.67422
54.8296 5.65917
54.8798 5.60974
54.9301 5.52968
54.9803 5.53126
55.0307 5.51819
55.0809 5.47314
55.1314 5.45894
55.1816 5.34988
55.232 5.32072
55.2823 5.30147
55.3328 5.26571
55.383 5.17606
55.4335 5.15946
55.4838 5.10224
55.5344 4.9973
55.5847 5.01421
55.6352 4.95791
55.6856 4.90555
55.7361 4.88602