File: XRD/Ni3Fe_FD0247.xy
TT I
1.27165 7.73184
1.31627 7.08029
1.36089 7.03425
1.40551 6.1444
1.45013 6.63269
1.49476 5.83164
1.53938 6.47769
1.584 6.23613
1.62863 5.59663
1.67325 5.32566
1.71787 5.5333
1.7625 5.31174
1.80712 4.98021
1.85174 5.08116
1.89636 4.6664
1.94099 5.4054
1.98562 4.96716
2.03025 4.81413
2.07487 4.235
2.11949 5.14628
2.16411 4.8742
2.20874 5.07117
2.25338 4.92345
2.298 4.94658
2.34263 4.30134
2.38725 4.71236
2.43188 4.90952
2.4765 5.19683
2.52115 5.07901
2.56577 5.59277
2.6104 6.3024
2.65503 6.25447
2.69965 6.19509
2.7443 6.70778
2.78893 6.79793
2.83356 7.14809
2.87818 7.85103
2.92281 8.43272
2.96744 8.81562
3.01209 10.4471
3.05672 11.2818
3.10135 12.2655
3.14599 12.7458
3.19062 14.5974
3.23527 14.9566
3.2799 15.7735
3.32454 16.1799
3.36917 17.5604
3.4138 19.1485
3.45844 19.5847
3.50309 20.6157
3.54773 21.6627
3.59237 22.4564
3.637 23.4399
3.68164 24.1144
3.7263 25.2326
3.77094 25.9371
3.81558 26.6369
3.86022 27.5824
3.90486 29.474
3.9495 29.9997
3.99416 31.1211
4.0388 32.4474
4.08344 33.84
4.12809 34.8864
4.17273 36.1664
4.21738 38.2309
4.26204 39.3981
4.30669 40.5086
4.35133 42.8776
4.39598 44.4302
4.44063 46.3355
4.4853 48.6435
4.52995 53.2584
4.5746 54.1093
4.61925 55.7143
4.6639 58.5019
4.70855 61.2825
4.75322 64.4318
4.79788 68.1226
4.84253 71.5212
4.88719 77.0421
4.93184 81.2072
4.97652 87.9983
5.02118 95.9115
5.06583 106.817
5.11049 123.546
5.15515 168.483
5.19981 894.344
5.24449 3960.57
5.28916 10609.9
5.33382 4009.46
5.37848 264.94
5.42315 151.517
5.46783 129.056
5.5125 118.041
5.55716 111.384
5.60183 106.647
5.6465 103.596
5.69117 102.026
5.73586 100.611
5.78053 101.953
5.8252 102.573
5.86988 104.514
5.91455 109.739
5.95924 132.611
6.00392 445.678
6.0486 1426.97
6.09328 3734.51
6.13795 3659.33
6.18263 345.223
6.22733 108.191
6.27201 88.5246
6.3167 80.6886
6.36138 75.5768
6.40606 73.0298
6.45075 70.8982
6.49545 68.1778
6.54014 66.2474
6.58483 65.2807
6.62952 64.4444
6.67421 62.3795
6.71892 61.6898
6.76361 60.9135
6.8083 60.2754
6.853 59.252
6.89769 58.2026
6.94239 57.9929
6.98711 57.5178
7.03181 57.1784
7.07651 56.6605
7.12121 56.3219
7.16591 57.0241
7.21063 56.0923
7.25533 55.6428
7.30004 55.6157
7.34475 55.9815
7.38945 55.7794
7.43416 55.4554
7.47889 55.1309
7.5236 56.2997
7.56831 56.766
7.61303 56.7502
7.65774 57.0216
7.70247 58.2407
7.74719 58.0891
7.79191 58.9601
7.83663 59.3741
7.88135 59.8769
7.92607 61.2519
7.97081 62.5337
8.01553 63.6739
8.06026 64.8283
8.10498 66.5754
8.14971 69.1833
8.19446 70.3728
8.23919 73.0205
8.28392 75.9321
8.32865 78.9556
8.37339 84.1884
8.41812 89.9119
8.46288 111.225
8.50761 291.743
8.55235 578.684
8.59709 1086.08
8.64183 2013.19
8.68658 1162.52
8.73134 212.705
8.77609 109.61
8.82083 100.141
8.86558 96.1838
8.91033 93.6893
8.9551 91.0272
8.99985 89.516
9.04461 88.2478
9.08936 87.7958
9.13412 86.9948
9.17888 86.7665
9.22365 86.3095
9.26841 86.7275
9.31318 88.0858
9.35794 88.327
9.4027 88.1853
9.44749 89.1932
9.49226 89.6724
9.53703 90.6738
9.5818 93.3071
9.62657 94.6711
9.67134 95.4214
9.71614 97.3598
9.76091 100.061
9.80569 103.749
9.85047 107.234
9.89525 112.403
9.94005 138.154
9.98484 304.541
10.0296 511.384
10.0744 812.715
10.1192 1476.91
10.164 1696.1
10.2088 533.392
10.2536 147.287
10.2984 116.844
10.3432 112.259
10.388 115.491
10.4328 158.651
10.4776 210.292
10.5224 284.759
10.5672 451.064
10.612 530.69
10.6568 248.345
10.7017 105.859
10.7465 91.644
10.7913 87.9114
10.8361 84.8955
10.8809 83.1564
10.9257 81.0297
10.9706 79.82
11.0154 77.4917
11.0602 75.8216
11.105 74.5524
11.1499 72.9917
11.1947 72.2323
11.2395 71.0414
11.2844 70.8676
11.3292 70.0905
11.374 68.7841
11.4189 68.4957
11.4637 67.6367
11.5086 67.0194
11.5534 66.6051
11.5983 66.523
11.6431 66.5189
11.688 65.4715
11.7328 65.4722
11.7777 65.1589
11.8225 65.2085
11.8674 65.1668
11.9122 65.6051
11.9571 66.0824
12.002 68.7224
12.0468 79.947
12.0917 93.6845
12.1366 109.519
12.1814 141.24
12.2263 195.731
12.2712 183.697
12.3161 102.769
12.3609 69.8767
12.4058 67.0867
12.4507 66.9311
12.4956 67.1088
12.5405 67.4554
12.5853 67.7884
12.6302 68.0789
12.6751 68.7893
12.72 69.6789
12.7649 70.8327
12.8098 71.7627
12.8547 72.9194
12.8996 74.7308
12.9445 76.2169
12.9894 78.2988
13.0343 80.7255
13.0792 86.5491
13.1242 111.47
13.1691 146.055
13.214 175.126
13.2589 232.296
13.3038 328.569
13.3487 422.738
13.3937 305.433
13.4386 147.665
13.4835 133.341
13.5285 151.949
13.5734 175.78
13.6183 228.445
13.6633 315.763
13.7082 360.849
13.7531 222.929
13.7981 109.311
13.843 86.6575
13.888 83.9032
13.9329 81.2031
13.9779 79.6216
14.0228 78.3696
14.0678 76.8065
14.1127 76.229
14.1577 75.157
14.2027 74.4424
14.2476 73.9503
14.2926 73.1644
14.3376 72.7685
14.3825 72.5229
14.4275 72.1591
14.4725 72.2455
14.5175 72.526
14.5624 72.3716
14.6074 72.6975
14.6524 73.5022
14.6974 74.7395
14.7424 81.475
14.7874 94.8644
14.8324 106.026
14.8774 120.116
14.9224 146.542
14.9674 189.543
15.0124 221.83
15.0574 167.484
15.1024 99.9853
15.1474 76.6457
15.1924 73.6116
15.2374 72.1225
15.2824 71.1401
15.3274 70.3596
15.3725 69.7931
15.4175 69.7923
15.4625 69.0813
15.5076 69.1735
15.5526 69.1144
15.5976 69.6975
15.6426 75.2699
15.6877 85.8118
15.7327 94.093
15.7778 103.82
15.8228 123.212
15.8679 154.105
15.9129 190.276
15.958 170.165
16.003 109.136
16.0481 71.8187
16.0931 65.693
16.1382 63.8039
16.1833 62.8354
16.2283 61.5467
16.2734 60.817
16.3185 59.9977
16.3636 59.3225
16.4086 58.8818
16.4537 58.5411
16.4988 57.9376
16.5439 57.7028
16.589 57.5433
16.6341 57.0927
16.6792 56.8086
16.7243 57.0876
16.7694 57.0003
16.8145 56.8707
16.8596 57.2608
16.9047 57.2704
16.9498 57.4311
16.9949 57.8007
17.04 59.3895
17.0851 61.6841
17.1302 63.6522
17.1754 65.3575
17.2205 68.9476
17.2656 74.3534
17.3108 82.4736
17.3559 85.2053
17.401 76.9538
17.4462 66.3706
17.4913 62.4335
17.5365 61.8739
17.5815 61.8311
17.6268 62.406
17.6718 62.9987
17.7171 63.572
17.7622 64.501
17.8074 66.7557
17.8525 71.9893
17.8977 77.7727
17.9428 82.624
17.9881 88.4622
18.0331 99.7695
18.0784 116.108
18.1237 139.598
18.1688 142.76
18.214 116.517
18.2591 93.0055
18.3044 90.5462
18.3495 97.5177
18.3948 106.723
18.4399 101.509
18.4852 83.0882
18.5303 69.6175
18.5756 65.2757
18.6207 64.086
18.666 63.0704
18.7112 62.4616
18.7565 61.6938
18.8016 61.4056
18.8469 60.7927
18.892 60.6073
18.9374 59.896
18.9825 59.5916
19.0278 59.4814
19.073 60.1352
19.1183 61.1195
19.1635 61.8633
19.2088 62.7907
19.254 64.6985
19.2993 67.3411
19.3447 71.4715
19.3898 76.5304
19.4352 76.2573
19.4804 67.8436
19.5257 59.9099
19.5709 56.9253
19.6163 56.2266
19.6615 56.1584
19.7068 55.8089
19.752 56.233
19.7974 57.1148
19.8426 57.9323
19.888 58.6779
19.9332 59.4698
19.9786 61.2479
20.0238 64.2238
20.0692 68.5304
20.1144 72.5956
20.1598 72.6738
20.205 67.6157
20.2504 64.1434
20.2957 64.771
20.3411 66.849
20.3863 67.1506
20.4318 62.0802
20.477 56.4896
20.5224 53.5299
20.5677 52.7865
20.6131 52.4721
20.6586 51.9569
20.7038 51.8213
20.7493 51.3744
20.7945 51.1757
20.84 51.1673
20.8853 51.0584
20.9307 51.2276
20.976 51.1907
21.0215 51.1722
21.0668 51.3664
21.1122 51.6777
21.1575 52.0827
21.203 52.6336
21.2483 53.2803
21.2938 53.9126
21.3391 52.75
21.3846 51.5666
21.4299 50.9899
21.4754 50.748
21.5207 51.1153
21.5662 51.811
21.6116 52.7486
21.6571 53.3672
21.7024 54.2165
21.7479 55.5277
21.7933 57.5759
21.8388 60.2568
21.8843 63.5873
21.9297 66.7457
21.9752 66.9505
22.0206 62.9642
22.0661 58.5938
22.1115 57.7775
22.157 58.1177
22.2024 57.2902
22.248 54.4391
22.2933 52.4563
22.3389 51.3936
22.3843 50.935
22.4299 50.925
22.4753 50.8609
22.5208 50.928
22.5662 50.7714
22.6118 51.2013
22.6572 51.921
22.7028 52.3797
22.7483 52.6414
22.7939 53.1114
22.8393 54.2496
22.8849 55.4242
22.9303 57.1561
22.9759 59.2591
23.0214 59.9259
23.067 57.7031
23.1126 54.1224
23.1581 51.6456
23.2037 51.2981
23.2492 51.8242
23.2948 51.9038
23.3403 52.0959
23.3859 52.3759
23.4314 53.1997
23.477 54.2983
23.5225 55.651
23.5682 57.6989
23.6137 59.7915
23.6593 58.3779
23.7048 54.7331
23.7505 51.0495
23.796 48.9626
23.8417 48.1003
23.8872 47.5876
23.9329 47.3008
23.9784 46.9189
24.0241 46.6511
24.0697 46.4998
24.1154 46.1722
24.1609 45.8787
24.2066 45.7766
24.2522 45.5958
24.2979 45.3726
24.3434 45.1572
24.3892 44.9678
24.4349 44.8988
24.4805 44.8363
24.5262 45.0646
24.5718 44.8627
24.6175 44.8124
24.6631 44.6821
24.7089 44.3695
24.7545 44.3634
24.8002 44.2519
24.8458 44.317
24.8916 44.1501
24.9372 44.3643
24.983 44.7892
25.0286 44.9305
25.0744 45.281
25.12 45.5404
25.1658 46.305
25.2114 46.5271
25.2572 46.4731
25.3029 46.3647
25.3487 46.4579
25.3943 46.5295
25.4402 45.6831
25.4858 44.6115
25.5316 43.3912
25.5773 42.8225
25.6231 42.7501
25.669 42.4987
25.7147 42.4826
25.7605 42.386
25.8062 42.3866
25.8521 42.2914
25.8977 42.4026
25.9436 42.667
25.9893 42.6169
26.0352 43.0244
26.0809 43.1973
26.1268 43.5142
26.1725 43.344
26.2184 42.8823
26.2641 42.3268
26.31 41.9905
26.3557 42.173
26.4017 42.1674
26.4474 42.2824
26.4933 42.4916
26.5391 42.9449
26.585 43.2606
26.6308 43.6075
26.6767 43.9465
26.7225 43.8388
26.7684 43.4007
26.8142 42.6146
26.8601 42.3089
26.9059 41.913
26.9519 41.4199
26.9979 41.0143
27.0437 40.6084
27.0896 40.5066
27.1354 40.5407
27.1814 40.4352
27.2272 40.3351
27.2732 40.2762
27.3191 40.1118
27.3651 40.1281
27.4109 40.1177
27.4569 40.0889
27.5027 40.3303
27.5488 40.3342
27.5946 40.2252
27.6407 40.0317
27.6865 39.9336
27.7326 39.6326
27.7784 39.6244
27.8245 39.66
27.8703 39.6801
27.9164 39.8328
27.9623 39.9905
28.0084 40.1286
28.0543 40.5593
28.1003 40.6301
28.1462 40.4221
28.1923 39.9886
28.2384 39.6721
28.2843 39.3198
28.3304 38.8961
28.3764 38.4313
28.4225 38.049
28.4684 37.8809
28.5145 37.4914
28.5605 37.457
28.6066 37.2754
28.6526 37.2325
28.6987 37.1857
28.7447 36.9885
28.7908 36.9877
28.8368 36.8389
28.8829 36.8595
28.9289 36.8318
28.9751 36.7766
29.0211 36.5176
29.0673 36.3708
29.1133 36.0698
29.1595 35.9447
29.2055 35.861
29.2517 35.7999
29.2977 35.6746
29.3439 35.6971
29.3899 35.6107
29.4361 35.6089
29.4824 35.5678
29.5284 35.2662
29.5746 34.8845
29.6207 34.5755
29.6669 34.4871
29.713 34.4209
29.7593 34.2549
29.8053 34.307
29.8516 34.3199
29.8977 34.11
29.9439 33.964
29.99 34.0838
30.0363 33.806
30.0824 33.8794
30.1287 33.766
30.1748 33.8436
30.2211 33.8384
30.2673 33.7841
30.3136 33.8703
30.3597 33.7426
30.406 33.758
30.4522 33.4563
30.4985 33.5365
30.5447 33.5395
30.591 33.465
30.6372 33.5518
30.6835 33.4205
30.7297 33.6487
30.7761 33.5991
30.8224 33.4511
30.8686 33.3969
30.915 33.0195
30.9612 32.9106
31.0076 32.7524
31.0538 32.5582
31.1002 32.474
31.1464 32.3643
31.1928 32.3808
31.2391 32.3718
31.2855 32.2553
31.3317 32.0796
31.3781 32.2076
31.4244 32.1322
31.4708 32.1453
31.5171 32.0811
31.5636 32.1866
31.6098 32.0628
31.6563 31.7539
31.7026 31.6266
31.7491 31.4335
31.7953 31.5534
31.8418 31.397
31.8881 31.5104
31.9346 31.4019
31.9809 31.3959
32.0275 31.1638
32.074 31.1553
32.1203 30.9637
32.1668 30.7582
32.2132 30.6607
32.2597 30.4997
32.306 30.4921
32.3526 30.2617
32.399 30.2078
32.4455 29.9917
32.4919 30.0096
32.5385 29.9414
32.5848 29.7286
32.6314 29.7492
32.6778 29.6965
32.7244 29.6282
32.7708 29.4331
32.8174 29.4393
32.8638 29.2665
32.9104 29.2828
32.9569 29.2215
33.0035 29.0554
33.0499 29.0562
33.0966 28.9741
33.143 28.9661
33.1897 28.8272
33.2361 28.7987
33.2828 28.8364
33.3293 28.6071
33.3759 28.5745
33.4226 28.434
33.4691 28.2955
33.5158 28.2304
33.5623 28.1152
33.609 27.9475
33.6555 27.7862
33.7022 27.7855
33.7487 27.657
33.7954 27.6668
33.842 27.5673
33.8887 27.4655
33.9353 27.4103
33.982 27.307
34.0286 27.1627
34.0753 27.1686
34.1219 27.0991
34.1687 26.9295
34.2152 26.9405
34.262 26.7463
34.3086 26.6549
34.3554 26.6729
34.402 26.5145
34.4488 26.3698
34.4954 26.3078
34.5422 26.2255
34.5889 26.1619
34.6357 26.0231
34.6825 25.9281
34.7292 25.8794
34.776 25.841
34.8227 25.7651
34.8695 25.6708
34.9162 25.625
34.9631 25.5697
35.0098 25.5353
35.0566 25.4313
35.1033 25.3127
35.1502 25.2962
35.1969 25.2657
35.2438 25.1791
35.2906 25.0976
35.3375 25.0402
35.3842 25.0611
35.4311 25.0138
35.4779 24.9304
35.5248 24.9062
35.5716 24.8177
35.6185 24.6472
35.6653 24.6352
35.7123 24.4917
35.759 24.474
35.806 24.3341
35.8528 24.1976
35.8998 24.2143
35.9468 24.1512
35.9936 24.1185
36.0406 23.9889
36.0874 24.0037
36.1345 23.8648
36.1813 23.8203
36.2283 23.6908
36.2752 23.598
36.3222 23.6023
36.3691 23.4816
36.4161 23.4272
36.463 23.3771
36.5101 23.4585
36.557 23.2791
36.6041 23.1423
36.651 23.1013
36.6981 23.0206
36.745 23.0284
36.7921 22.973
36.839 22.7376
36.8861 22.7612
36.9331 22.6632
36.9802 22.5807
37.0272 22.4295
37.0743 22.4218
37.1213 22.4494
37.1684 22.3796
37.2154 22.3
37.2626 22.2214
37.3098 22.0908
37.3568 22.059
37.404 22.0138
37.451 21.8961
37.4982 21.8661
37.5452 21.7294
37.5924 21.6684
37.6395 21.7561
37.6867 21.5408
37.7337 21.4851
37.781 21.4025
37.8281 21.4067
37.8753 21.2826
37.9224 21.2275
37.9697 21.181
38.0168 21.0209
38.064 20.9846
38.1111 20.9945
38.1584 20.8644
38.2056 20.8867
38.2529 20.8067
38.3 20.6934
38.3473 20.6514
38.3945 20.4946
38.4418 20.5494
38.489 20.4821
38.5363 20.2548
38.5837 20.3115
38.6309 20.2318
38.6782 20.072
38.7254 20.046
38.7728 20.0018
38.82 19.9396
38.8674 19.9114
38.9146 19.8821
38.9621 19.7505
39.0093 19.7169
39.0567 19.6695
39.104 19.608
39.1514 19.4847
39.1987 19.4705
39.2461 19.4556
39.2934 19.4033
39.3409 19.3157
39.3882 19.1886
39.4356 19.122
39.483 19.1107
39.5304 19.0884
39.5778 19.0831
39.6253 18.9577
39.6726 18.8413
39.7201 18.8535
39.7675 18.7071
39.815 18.6778
39.8624 18.6194
39.9099 18.5968
39.9575 18.5685
40.0049 18.4528
40.0525 18.2951
40.0999 18.3739
40.1474 18.311
40.1949 18.1676
40.2425 18.1411
40.2899 18.1239
40.3375 18.0338
40.385 17.959
40.4326 17.9606
40.48 17.8429
40.5277 17.7653
40.5752 17.7353
40.6228 17.6636
40.6703 17.6519
40.718 17.5117
40.7655 17.5676
40.8132 17.4014
40.8607 17.4432
40.9084 17.4414
40.9559 17.3458
41.0036 17.3275
41.0512 17.2234
41.0989 17.2027
41.1465 17.1166
41.1942 17.0378
41.242 16.9076
41.2896 16.9235
41.3373 16.8039
41.3849 16.7824
41.4327 16.7464
41.4803 16.6461
41.5281 16.6955
41.5758 16.6297
41.6236 16.5138
41.6712 16.4836
41.7191 16.4275
41.7667 16.3865
41.8146 16.3049
41.8622 16.2358
41.9101 16.2328
41.9578 16.0804
42.0057 16.0808
42.0534 16.0438
42.1013 15.9983
42.149 15.9552
42.1969 15.8309
42.2446 15.8063
42.2925 15.7507
42.3403 15.7528
42.3882 15.6871
42.436 15.6554
42.4839 15.5211
42.5319 15.4831
42.5797 15.4378
42.6277 15.3942
42.6755 15.3213
42.7235 15.2549
42.7713 15.2392
42.8193 15.2089
42.8671 15.1438
42.9152 15.1023
42.963 15.01
43.0111 14.9777
43.0589 14.9377
43.107 14.8782
43.1549 14.8288
43.2029 14.7468
43.2508 14.6866
43.2989 14.6404
43.3468 14.6212
43.3949 14.497
43.4429 14.5189
43.491 14.4324
43.5389 14.4055
43.5871 14.3593
43.635 14.2779
43.6832 14.2621
43.7312 14.189
43.7793 14.1555
43.8273 14.0993
43.8755 14.0434
43.9237 14.041
43.9717 13.9703
44.0199 13.9118
44.068 13.8698
44.1162 13.8196
44.1642 13.7729
44.2125 13.7216
44.2606 13.6636
44.3088 13.6266
44.3569 13.5838
44.4052 13.5374
44.4533 13.4754
44.5016 13.4403
44.5497 13.3928
44.598 13.3525
44.6461 13.3172
44.6945 13.2574
44.7426 13.2179
44.791 13.1403
44.8391 13.0786
44.8875 13.075
44.9357 13.0094
44.984 13.0164
45.0322 12.9259
45.0806 12.8546
45.1288 12.8994
45.1773 12.7288
45.2257 12.7439
45.2739 12.7119
45.3224 12.6437
45.3706 12.609
45.4191 12.5434
45.4673 12.5449
45.5158 12.5171
45.5641 12.4508
45.6126 12.3893
45.6609 12.3038
45.7094 12.304
45.7577 12.2722
45.8063 12.1635
45.8546 12.175
45.9031 12.1263
45.9515 12.0998
46.0001 12.0153
46.0484 12.0551
46.097 11.9717
46.1454 11.9166
46.194 11.8746
46.2424 11.7857
46.291 11.7927
46.3395 11.7199
46.3881 11.6726
46.4365 11.6631
46.4852 11.674
46.5337 11.5549
46.5823 11.5421
46.631 11.4497
46.6795 11.4105
46.7282 11.3786
46.7767 11.3193
46.8254 11.3313
46.8739 11.2819
46.9226 11.2374
46.9712 11.153
47.0199 11.1469
47.0685 11.1212
47.1173 11.0804
47.1658 11.0089
47.2146 11.0049
47.2632 10.904
47.312 10.8997
47.3606 10.8688
47.4095 10.7924
47.4581 10.7989
47.5069 10.7222
47.5556 10.6593
47.6044 10.6295
47.6531 10.6424
47.702 10.5695
47.7507 10.5486
47.7996 10.4784
47.8483 10.4725
47.8972 10.4517
47.9461 10.3979
47.9948 10.3637
48.0438 10.3195
48.0925 10.2991
48.1415 10.2287
48.1902 10.2192
48.2392 10.1907
48.288 10.1547
48.337 10.0666
48.3858 10.0181
48.4348 10.019
48.4837 10.0054
48.5327 10.0145
48.5815 9.941
48.6306 9.87567
48.6795 9.82458
48.7285 9.78427
48.7774 9.77033
48.8265 9.74869
48.8754 9.69754
48.9245 9.67867
48.9734 9.62952
49.0226 9.61808
49.0715 9.55455
49.1206 9.51431
49.1696 9.46314
49.2188 9.41737
49.2679 9.37992
49.3169 9.34336
49.3661 9.31865
49.4151 9.28658
49.4643 9.32245
49.5134 9.20148
49.5626 9.14752
49.6117 9.15301
49.6609 9.1005
49.71 9.10274
49.7592 9.06613
49.8083 9.02082
49.8576 8.97403
49.9067 8.92645
49.956 8.91213
50.0052 8.89419
50.0545 8.84225
50.1036 8.78389
50.153 8.82165
50.2022 8.74692
50.2515 8.70154
50.3007 8.65486
50.3501 8.61143
50.3993 8.62107
50.4487 8.54724
50.498 8.54926
50.5474 8.52967
50.5966 8.48659
50.6461 8.44746
50.6955 8.39356
50.7448 8.38215
50.7943 8.32275
50.8436 8.29594
50.8931 8.27179
50.9424 8.2569
50.9919 8.23
51.0413 8.17868
51.0908 8.12428
51.1402 8.12518
51.1897 8.09751
51.2391 8.04151
51.2887 8.01199
51.3381 7.97011
51.3877 7.93209
51.4371 7.93206
51.4867 7.88672
51.5362 7.83331
51.5858 7.82426
51.6353 7.77066
51.6849 7.76708
51.7344 7.71787
51.7841 7.71868
51.8336 7.63813
51.8833 7.6189
51.9328 7.58116
51.9826 7.56584
52.0323 7.53357
52.0818 7.47766
52.1316 7.45379
52.1812 7.47017
52.231 7.42146
52.2806 7.36981
52.3304 7.32473
52.38 7.30654
52.4298 7.29037
52.4794 7.24808
52.5293 7.19281
52.5789 7.18179
52.6288 7.22067
52.6785 7.13052
52.7284 7.15879
52.7781 7.1007
52.828 7.04974
52.8777 7.01144
52.9276 6.96996
52.9774 6.96904
53.0273 6.93477
53.0771 6.88972
53.1271 6.88655
53.1769 6.84674
53.2269 6.82041
53.2767 6.78624
53.3267 6.75953
53.3765 6.68883
53.4266 6.7231
53.4766 6.67873
53.5265 6.66025
53.5765 6.6004
53.6264 6.5721
53.6765 6.56718
53.7264 6.514
53.7765 6.49646
53.8265 6.4524
53.8766 6.40831
53.9266 6.38662
53.9767 6.33477
54.0267 6.34741
54.0769 6.31502
54.1269 6.25858
54.1771 6.22272
54.2271 6.24814
54.2773 6.13047
54.3274 6.15511
54.3776 6.13215
54.4277 6.12694
54.478 6.03917
54.528 6.0232
54.5783 5.97256
54.6285 5.91413
54.6788 5.85669
54.7289 5.90602
54.7792 5.7941
54.8296 5.72755
54.8798 5.72487
54.9301 5.69201
54.9803 5.64529
55.0307 5.65513
55.0809 5.58772
55.1314 5.54521
55.1816 5.44923
55.232 5.48071
55.2823 5.37802
55.3328 5.29297
55.383 5.24873
55.4335 5.263
55.4838 5.18019
55.5344 5.14869
55.5847 5.07678
55.6352 5.05966
55.6856 4.9957
55.7361 4.96915