File: XRD/Ni3Fe_FD0987.xy
TT I
1.27165 7.11165
1.31627 5.69266
1.36089 6.75391
1.40551 5.32188
1.45013 6.17652
1.49476 6.37828
1.53938 5.32716
1.584 5.42604
1.62863 4.70374
1.67325 4.58977
1.71787 4.60224
1.7625 4.78769
1.80712 5.04041
1.85174 4.67871
1.89636 4.98676
1.94099 5.20894
1.98562 4.52304
2.03025 4.51009
2.07487 4.69601
2.11949 5.42959
2.16411 5.184
2.20874 15.5496
2.25338 24.8581
2.298 6.78761
2.34263 5.19314
2.38725 6.65762
2.43188 6.73886
2.4765 7.33394
2.52115 7.61982
2.56577 8.20337
2.6104 8.2063
2.65503 8.41472
2.69965 7.92018
2.7443 8.47345
2.78893 8.94818
2.83356 8.37815
2.87818 8.95314
2.92281 9.04156
2.96744 9.93059
3.01209 10.1078
3.05672 11.4741
3.10135 12.222
3.14599 13.3442
3.19062 14.3407
3.23527 14.989
3.2799 15.9888
3.32454 17.2177
3.36917 17.905
3.4138 19.0802
3.45844 19.8504
3.50309 21.3515
3.54773 21.8379
3.59237 24.3526
3.637 99.5762
3.68164 62.8697
3.7263 26.0242
3.77094 26.1185
3.81558 26.6781
3.86022 27.2061
3.90486 29.1446
3.9495 29.6125
3.99416 30.8526
4.0388 31.8306
4.08344 33.317
4.12809 34.5798
4.17273 36.4605
4.21738 42.7093
4.26204 270.983
4.30669 239.807
4.35133 49.013
4.39598 44.0145
4.44063 54.4688
4.4853 67.3381
4.52995 48.8742
4.5746 50.3097
4.61925 52.1643
4.6639 54.1596
4.70855 57.0803
4.75322 60.2421
4.79788 62.0964
4.84253 65.2316
4.88719 69.8743
4.93184 73.5042
4.97652 78.292
5.02118 84.026
5.06583 90.8054
5.11049 101.071
5.15515 167.397
5.19981 270.596
5.24449 2252.14
5.28916 13482.4
5.33382 2766.42
5.37848 172.282
5.42315 123.222
5.46783 109.894
5.5125 103.225
5.55716 99.5385
5.60183 96.0448
5.6465 94.6886
5.69117 92.0286
5.73586 89.9946
5.78053 89.1448
5.8252 87.9787
5.86988 89.0442
5.91455 90.1924
5.95924 95.3878
6.00392 164.613
6.0486 775.302
6.09328 4594.61
6.13795 3284.82
6.18263 213.096
6.22733 89.5398
6.27201 80.7537
6.3167 103.108
6.36138 80.1344
6.40606 67.9367
6.45075 66.0021
6.49545 64.6804
6.54014 63.0516
6.58483 61.6963
6.62952 62.1579
6.67421 96.3077
6.71892 151.851
6.76361 69.3364
6.8083 58.0044
6.853 56.9355
6.89769 56.0649
6.94239 56.2572
6.98711 55.19
7.03181 54.7128
7.07651 55.0491
7.12121 54.4392
7.16591 54.5344
7.21063 55.3214
7.25533 72.0097
7.30004 192.87
7.34475 95.4503
7.38945 56.3932
7.43416 53.8351
7.47889 53.9712
7.5236 54.0916
7.56831 54.6269
7.61303 56.2326
7.65774 56.9834
7.70247 55.2941
7.74719 55.4533
7.79191 55.6671
7.83663 56.2543
7.88135 56.6575
7.92607 57.6763
7.97081 59.086
8.01553 59.9603
8.06026 61.1031
8.10498 62.5143
8.14971 72.7369
8.19446 71.7093
8.23919 68.3586
8.28392 70.3825
8.32865 72.1901
8.37339 75.9354
8.41812 83.2532
8.46288 112.336
8.50761 139.402
8.55235 319.162
8.59709 1117.97
8.64183 2345.13
8.68658 933.594
8.73134 159.294
8.77609 96.5413
8.82083 90.1753
8.86558 87.8456
8.91033 88.0999
8.9551 91.0033
8.99985 83.9117
9.04461 81.6556
9.08936 81.2628
9.13412 80.5798
9.17888 80.3861
9.22365 81.2536
9.26841 80.3812
9.31318 80.9443
9.35794 80.671
9.4027 81.4648
9.44749 82.2376
9.49226 82.494
9.53703 83.9533
9.5818 85.4674
9.62657 90.3883
9.67134 97.216
9.71614 91.813
9.76091 91.7989
9.80569 94.2404
9.85047 97.5263
9.89525 123.095
9.94005 134.354
9.98484 152.339
10.0296 289.722
10.0744 739.147
10.1192 1768.29
10.164 1567.63
10.2088 367.505
10.2536 122.728
10.2984 111.267
10.3432 113.151
10.388 102.118
10.4328 109.59
10.4776 143.713
10.5224 265.083
10.5672 536.905
10.612 509.51
10.6568 197.416
10.7017 94.4002
10.7465 85.1451
10.7913 81.7709
10.8361 79.448
10.8809 77.673
10.9257 77.2653
10.9706 77.6276
11.0154 73.7507
11.0602 71.4179
11.105 70.6697
11.1499 75.5733
11.1947 83.7159
11.2395 74.008
11.2844 69.2167
11.3292 66.0722
11.374 65.0324
11.4189 64.1711
11.4637 63.7538
11.5086 64.5133
11.5534 67.6739
11.5983 64.491
11.6431 62.5994
11.688 61.677
11.7328 61.8122
11.7777 61.541
11.8225 61.5851
11.8674 60.9925
11.9122 61.8296
11.9571 61.556
12.002 61.9899
12.0468 64.9271
12.0917 74.3529
12.1366 97.0753
12.1814 150.068
12.2263 204.517
12.2712 161.308
12.3161 94.7168
12.3609 69.7192
12.4058 63.2839
12.4507 62.9016
12.4956 62.9796
12.5405 63.3594
12.5853 64.2423
12.6302 72.7869
12.6751 78.5556
12.72 68.947
12.7649 66.2474
12.8098 66.8221
12.8547 68.2476
12.8996 69.3486
12.9445 70.5487
12.9894 72.1524
13.0343 73.6934
13.0792 76.6829
13.1242 83.0888
13.1691 102.844
13.214 135.767
13.2589 227.027
13.3038 377.749
13.3487 431.12
13.3937 251.559
13.4386 119.913
13.4835 99.0489
13.5285 111.651
13.5734 147.46
13.6183 241.506
13.6633 357.193
13.7082 337.295
13.7531 178.275
13.7981 94.3976
13.843 79.7472
13.888 77.6444
13.9329 75.2252
13.9779 74.1337
14.0228 72.7749
14.0678 71.2708
14.1127 71.2969
14.1577 71.1867
14.2027 70.0578
14.2476 68.8886
14.2926 69.2621
14.3376 70.4695
14.3825 68.9843
14.4275 67.3568
14.4725 67.1516
14.5175 67.3624
14.5624 67.747
14.6074 69.9147
14.6524 70.3967
14.6974 68.786
14.7424 69.7434
14.7874 74.278
14.8324 83.0
14.8774 103.609
14.9224 148.966
14.9674 213.154
15.0124 218.463
15.0574 147.581
15.1024 88.2904
15.1474 70.5777
15.1924 68.8269
15.2374 69.6375
15.2824 69.1231
15.3274 67.0768
15.3725 65.6298
15.4175 64.9033
15.4625 64.8201
15.5076 65.0951
15.5526 64.9465
15.5976 64.1668
15.6426 64.8257
15.6877 68.4316
15.7327 75.2852
15.7778 89.0308
15.8228 121.03
15.8679 172.35
15.9129 196.892
15.958 152.73
16.003 93.9147
16.0481 66.9165
16.0931 63.609
16.1382 61.6426
16.1833 59.5413
16.2283 57.9099
16.2734 57.1339
16.3185 57.777
16.3636 58.4677
16.4086 56.7582
16.4537 55.2035
16.4988 54.4264
16.5439 54.0646
16.589 53.9323
16.6341 53.561
16.6792 53.4788
16.7243 53.5145
16.7694 53.9641
16.8145 53.6271
16.8596 53.9838
16.9047 55.8935
16.9498 55.815
16.9949 54.6692
17.04 54.4806
17.0851 55.3917
17.1302 56.6727
17.1754 59.6567
17.2205 64.6833
17.2656 73.0014
17.3108 82.287
17.3559 80.12
17.401 68.6746
17.4462 60.4089
17.4913 57.7436
17.5365 57.8089
17.5815 57.9496
17.6268 58.3299
17.6718 58.9939
17.7171 59.6669
17.7622 59.7973
17.8074 60.1737
17.8525 61.8692
17.8977 65.212
17.9428 70.2182
17.9881 78.7182
18.0331 96.4544
18.0784 120.918
18.1237 138.223
18.1688 126.147
18.214 99.3773
18.2591 83.2535
18.3044 88.5103
18.3495 100.075
18.3948 106.541
18.4399 94.1343
18.4852 75.3714
18.5303 64.5485
18.5756 60.9236
18.6207 59.8243
18.666 59.0533
18.7112 58.459
18.7565 57.6803
18.8016 57.3967
18.8469 56.9281
18.892 56.5143
18.9374 56.0954
18.9825 55.8098
19.0278 55.9362
19.073 55.3962
19.1183 55.8705
19.1635 56.7152
19.2088 57.8279
19.254 60.3903
19.2993 65.1165
19.3447 71.8231
19.3898 75.273
19.4352 70.4474
19.4804 61.374
19.5257 55.3131
19.5709 52.9949
19.6163 52.8838
19.6615 52.6347
19.7068 52.0825
19.752 52.2441
19.7974 52.2567
19.8426 52.9988
19.888 53.5337
19.9332 54.5071
19.9786 57.0663
20.0238 61.0858
20.0692 66.3596
20.1144 68.9778
20.1598 66.3947
20.205 61.8385
20.2504 60.892
20.2957 62.9718
20.3411 64.972
20.3863 62.7188
20.4318 57.1136
20.477 52.5636
20.5224 50.5879
20.5677 49.9444
20.6131 49.3445
20.6586 48.5117
20.7038 48.4538
20.7493 48.0847
20.7945 47.9763
20.84 47.8876
20.8853 47.7749
20.9307 47.665
20.976 47.6895
21.0215 47.5025
21.0668 47.9095
21.1122 48.519
21.1575 48.9964
21.203 49.9339
21.2483 50.3291
21.2938 50.3099
21.3391 48.877
21.3846 47.8956
21.4299 47.3922
21.4754 47.3016
21.5207 47.2835
21.5662 47.6491
21.6116 47.8823
21.6571 48.4906
21.7024 49.4328
21.7479 51.072
21.7933 53.8088
21.8388 57.748
21.8843 61.8822
21.9297 63.4719
21.9752 61.5277
22.0206 58.0222
22.0661 55.4475
22.1115 55.1804
22.157 54.9477
22.2024 52.9302
22.248 50.4114
22.2933 48.82
22.3389 48.1389
22.3843 48.0738
22.4299 48.0407
22.4753 47.9756
22.5208 47.5195
22.5662 47.3476
22.6118 47.5127
22.6572 47.6821
22.7028 47.9412
22.7483 48.3923
22.7939 49.0324
22.8393 50.5323
22.8849 52.8299
22.9303 55.4227
22.9759 56.8263
23.0214 56.219
23.067 53.3075
23.1126 49.9272
23.1581 48.2296
23.2037 47.7543
23.2492 47.8229
23.2948 47.5937
23.3403 47.8501
23.3859 48.3468
23.4314 49.2448
23.477 51.4391
23.5225 53.981
23.5682 56.4169
23.6137 57.0247
23.6593 54.3988
23.7048 50.4942
23.7505 47.2724
23.796 45.726
23.8417 45.0347
23.8872 44.6451
23.9329 44.2661
23.9784 43.959
24.0241 43.6572
24.0697 43.6647
24.1154 43.338
24.1609 43.0313
24.2066 42.9831
24.2522 42.7638
24.2979 42.5186
24.3434 42.5924
24.3892 42.4016
24.4349 42.285
24.4805 42.0143
24.5262 42.2586
24.5718 42.1163
24.6175 42.0833
24.6631 42.0699
24.7089 41.684
24.7545 41.5923
24.8002 41.4038
24.8458 41.3416
24.8916 41.0935
24.9372 41.2934
24.983 41.5503
25.0286 41.9481
25.0744 42.4026
25.12 42.7295
25.1658 43.506
25.2114 43.7334
25.2572 43.8917
25.3029 44.0744
25.3487 44.297
25.3943 43.7232
25.4402 42.5965
25.4858 41.513
25.5316 40.6511
25.5773 39.9869
25.6231 40.0861
25.669 39.7109
25.7147 39.685
25.7605 39.6535
25.8062 39.6866
25.8521 39.773
25.8977 39.6565
25.9436 40.1447
25.9893 40.1248
26.0352 40.6219
26.0809 40.9942
26.1268 40.9695
26.1725 40.5983
26.2184 39.9587
26.2641 39.4429
26.31 39.1462
26.3557 39.2141
26.4017 39.2544
26.4474 39.5282
26.4933 39.8496
26.5391 40.3719
26.585 40.8455
26.6308 41.351
26.6767 41.3767
26.7225 41.1742
26.7684 40.6351
26.8142 40.1169
26.8601 39.6179
26.9059 39.2841
26.9519 38.7641
26.9979 38.4406
27.0437 38.0647
27.0896 37.9053
27.1354 37.8835
27.1814 37.8377
27.2272 37.6435
27.2732 37.7071
27.3191 37.6139
27.3651 37.6241
27.4109 37.6321
27.4569 37.6642
27.5027 37.8202
27.5488 37.7872
27.5946 37.55
27.6407 37.3898
27.6865 37.2787
27.7326 37.1093
27.7784 37.0175
27.8245 36.8531
27.8703 37.0677
27.9164 37.4619
27.9623 37.6863
28.0084 37.9889
28.0543 38.4827
28.1003 38.245
28.1462 38.0325
28.1923 37.7249
28.2384 37.3417
28.2843 36.7607
28.3304 36.4442
28.3764 36.0337
28.4225 35.5922
28.4684 35.5051
28.5145 35.2289
28.5605 35.1664
28.6066 34.9996
28.6526 34.9748
28.6987 34.9421
28.7447 34.7274
28.7908 34.7609
28.8368 34.8121
28.8829 34.7387
28.9289 34.7385
28.9751 34.4021
29.0211 34.236
29.0673 33.9611
29.1133 33.8694
29.1595 33.7936
29.2055 33.5976
29.2517 33.6292
29.2977 33.5888
29.3439 33.6128
29.3899 33.6285
29.4361 33.4279
29.4824 33.2905
29.5284 33.2055
29.5746 32.7493
29.6207 32.4934
29.6669 32.45
29.713 32.3375
29.7593 32.2054
29.8053 32.3444
29.8516 32.1173
29.8977 32.1159
29.9439 31.9173
29.99 31.8569
30.0363 31.9092
30.0824 31.822
30.1287 31.7109
30.1748 31.7953
30.2211 31.7746
30.2673 31.6919
30.3136 31.654
30.3597 31.5276
30.406 31.5318
30.4522 31.4962
30.4985 31.2857
30.5447 31.4335
30.591 31.4885
30.6372 31.5987
30.6835 31.5952
30.7297 31.6099
30.7761 31.5565
30.8224 31.4382
30.8686 31.1164
30.915 30.9914
30.9612 30.9104
31.0076 30.6564
31.0538 30.5608
31.1002 30.5606
31.1464 30.1473
31.1928 30.3298
31.2391 30.3451
31.2855 30.2346
31.3317 30.0889
31.3781 30.3784
31.4244 30.2856
31.4708 30.247
31.5171 30.2635
31.5636 30.1697
31.6098 29.901
31.6563 29.6866
31.7026 29.6231
31.7491 29.5036
31.7953 29.3927
31.8418 29.5969
31.8881 29.5842
31.9346 29.5884
31.9809 29.3824
32.0275 29.274
32.074 29.1463
32.1203 29.038
32.1668 28.9943
32.2132 28.8135
32.2597 28.7032
32.306 28.6706
32.3526 28.4281
32.399 28.2999
32.4455 28.2233
32.4919 28.175
32.5385 28.1323
32.5848 27.9311
32.6314 27.9241
32.6778 27.8753
32.7244 27.6697
32.7708 27.6786
32.8174 27.6187
32.8638 27.4065
32.9104 27.5145
32.9569 27.4631
33.0035 27.3652
33.0499 27.3207
33.0966 27.2495
33.143 27.3093
33.1897 27.1728
33.2361 27.0123
33.2828 27.0381
33.3293 26.739
33.3759 26.8189
33.4226 26.6422
33.4691 26.6274
33.5158 26.4674
33.5623 26.3729
33.609 26.2736
33.6555 26.1649
33.7022 26.0844
33.7487 25.9484
33.7954 25.9891
33.842 25.9485
33.8887 25.8157
33.9353 25.7928
33.982 25.618
34.0286 25.4945
34.0753 25.4144
34.1219 25.4314
34.1687 25.3213
34.2152 25.2412
34.262 25.22
34.3086 24.9486
34.3554 25.064
34.402 24.8857
34.4488 24.7828
34.4954 24.7618
34.5422 24.6479
34.5889 24.5516
34.6357 24.4716
34.6825 24.5106
34.7292 24.3195
34.776 24.303
34.8227 24.2434
34.8695 24.1693
34.9162 24.0286
34.9631 23.9699
35.0098 24.032
35.0566 23.9309
35.1033 23.8739
35.1502 23.7247
35.1969 23.7675
35.2438 23.6855
35.2906 23.5704
35.3375 23.5854
35.3842 23.5656
35.4311 23.5611
35.4779 23.4543
35.5248 23.4848
35.5716 23.2922
35.6185 23.2639
35.6653 23.1667
35.7123 23.0694
35.759 23.0998
35.806 22.8823
35.8528 22.7657
35.8998 22.7723
35.9468 22.6067
35.9936 22.6684
36.0406 22.5767
36.0874 22.6133
36.1345 22.4816
36.1813 22.4408
36.2283 22.2613
36.2752 22.2333
36.3222 22.343
36.3691 22.1141
36.4161 22.0091
36.463 22.0676
36.5101 22.0135
36.557 21.9632
36.6041 21.8053
36.651 21.7287
36.6981 21.6802
36.745 21.613
36.7921 21.6061
36.839 21.3842
36.8861 21.3628
36.9331 21.2037
36.9802 21.2901
37.0272 21.1234
37.0743 21.1001
37.1213 20.9828
37.1684 21.0328
37.2154 20.991
37.2626 20.8458
37.3098 20.7551
37.3568 20.7165
37.404 20.6986
37.451 20.6129
37.4982 20.5265
37.5452 20.478
37.5924 20.4422
37.6395 20.4788
37.6867 20.2538
37.7337 20.2641
37.781 20.134
37.8281 20.1264
37.8753 20.0478
37.9224 19.8956
37.9697 19.9376
38.0168 19.8708
38.064 19.7402
38.1111 19.7593
38.1584 19.6371
38.2056 19.6561
38.2529 19.6048
38.3 19.4872
38.3473 19.4264
38.3945 19.3129
38.4418 19.3128
38.489 19.2359
38.5363 19.1279
38.5837 19.1226
38.6309 19.1006
38.6782 18.9737
38.7254 18.8657
38.7728 18.8416
38.82 18.7586
38.8674 18.7077
38.9146 18.6155
38.9621 18.5996
39.0093 18.6124
39.0567 18.4358
39.104 18.3768
39.1514 18.3536
39.1987 18.3437
39.2461 18.2603
39.2934 18.2338
39.3409 18.1258
39.3882 18.0719
39.4356 18.0003
39.483 17.9903
39.5304 17.9892
39.5778 17.929
39.6253 17.8357
39.6726 17.7294
39.7201 17.7349
39.7675 17.6877
39.815 17.6422
39.8624 17.4986
39.9099 17.5204
39.9575 17.3645
40.0049 17.3583
40.0525 17.2572
40.0999 17.2775
40.1474 17.2044
40.1949 17.176
40.2425 17.0636
40.2899 17.0683
40.3375 16.9951
40.385 16.9466
40.4326 16.8642
40.48 16.7934
40.5277 16.7887
40.5752 16.6731
40.6228 16.6759
40.6703 16.6144
40.718 16.5755
40.7655 16.4791
40.8132 16.4548
40.8607 16.4363
40.9084 16.4337
40.9559 16.3139
41.0036 16.2514
41.0512 16.2109
41.0989 16.1666
41.1465 16.0773
41.1942 16.0362
41.242 15.9659
41.2896 15.9208
41.3373 15.8912
41.3849 15.8102
41.4327 15.7729
41.4803 15.7043
41.5281 15.6474
41.5758 15.5476
41.6236 15.4833
41.6712 15.5152
41.7191 15.4517
41.7667 15.3736
41.8146 15.4201
41.8622 15.2782
41.9101 15.2606
41.9578 15.1114
42.0057 15.1383
42.0534 15.0896
42.1013 15.047
42.149 14.9638
42.1969 14.9404
42.2446 14.8949
42.2925 14.9212
42.3403 14.8256
42.3882 14.7769
42.436 14.6797
42.4839 14.6682
42.5319 14.5873
42.5797 14.5514
42.6277 14.5087
42.6755 14.4412
42.7235 14.3206
42.7713 14.3523
42.8193 14.2198
42.8671 14.2495
42.9152 14.23
42.963 14.1576
43.0111 14.1571
43.0589 14.0234
43.107 13.9886
43.1549 13.9652
43.2029 13.9398
43.2508 13.941
43.2989 13.8101
43.3468 13.7203
43.3949 13.6733
43.4429 13.696
43.491 13.649
43.5389 13.5798
43.5871 13.5588
43.635 13.5368
43.6832 13.518
43.7312 13.3901
43.7793 13.3184
43.8273 13.3096
43.8755 13.2094
43.9237 13.2478
43.9717 13.172
44.0199 13.1407
44.068 13.1672
44.1162 13.041
44.1642 13.0175
44.2125 12.9237
44.2606 12.9044
44.3088 12.8672
44.3569 12.7964
44.4052 12.8029
44.4533 12.678
44.5016 12.6739
44.5497 12.6527
44.598 12.5468
44.6461 12.5524
44.6945 12.4812
44.7426 12.4835
44.791 12.3699
44.8391 12.3775
44.8875 12.3208
44.9357 12.2942
44.984 12.2271
45.0322 12.1904
45.0806 12.1115
45.1288 12.1443
45.1773 12.0371
45.2257 12.0034
45.2739 11.9716
45.3224 11.9678
45.3706 11.9248
45.4191 11.8493
45.4673 11.8402
45.5158 11.7711
45.5641 11.7168
45.6126 11.6885
45.6609 11.6425
45.7094 11.5937
45.7577 11.5619
45.8063 11.4723
45.8546 11.4882
45.9031 11.457
45.9515 11.3953
46.0001 11.3713
46.0484 11.3373
46.097 11.2871
46.1454 11.2592
46.194 11.2214
46.2424 11.1267
46.291 11.1184
46.3395 11.0403
46.3881 11.0302
46.4365 11.0171
46.4852 10.9505
46.5337 10.9179
46.5823 10.9317
46.631 10.8302
46.6795 10.7941
46.7282 10.77
46.7767 10.7205
46.8254 10.6611
46.8739 10.5881
46.9226 10.5977
46.9712 10.585
47.0199 10.5316
47.0685 10.499
47.1173 10.4176
47.1658 10.3857
47.2146 10.3678
47.2632 10.3305
47.312 10.2793
47.3606 10.2616
47.4095 10.2036
47.4581 10.1622
47.5069 10.1397
47.5556 10.0629
47.6044 10.0518
47.6531 10.0113
47.702 9.96209
47.7507 9.96445
47.7996 9.93432
47.8483 9.891
47.8972 9.8469
47.9461 9.84171
47.9948 9.76404
48.0438 9.7282
48.0925 9.71967
48.1415 9.67422
48.1902 9.65138
48.2392 9.60053
48.288 9.60365
48.337 9.543
48.3858 9.49029
48.4348 9.46522
48.4837 9.44238
48.5327 9.41037
48.5815 9.365
48.6306 9.33626
48.6795 9.28017
48.7285 9.27673
48.7774 9.22982
48.8265 9.20266
48.8754 9.18149
48.9245 9.10674
48.9734 9.0895
49.0226 9.0658
49.0715 8.99857
49.1206 8.97408
49.1696 8.92974
49.2188 8.88396
49.2679 8.86286
49.3169 8.84243
49.3661 8.74912
49.4151 8.78304
49.4643 8.75489
49.5134 8.7071
49.5626 8.66212
49.6117 8.65418
49.6609 8.59339
49.71 8.54582
49.7592 8.51423
49.8083 8.46819
49.8576 8.49825
49.9067 8.43251
49.956 8.41454
50.0052 8.37629
50.0545 8.3373
50.1036 8.29733
50.153 8.28442
50.2022 8.27019
50.2515 8.2275
50.3007 8.18823
50.3501 8.14436
50.3993 8.13748
50.4487 8.08031
50.498 8.05245
50.5474 8.04669
50.5966 8.01221
50.6461 7.99283
50.6955 7.94774
50.7448 7.93811
50.7943 7.90012
50.8436 7.84183
50.8931 7.82946
50.9424 7.7887
50.9919 7.74953
51.0413 7.75921
51.0908 7.67043
51.1402 7.63563
51.1897 7.63952
51.2391 7.60682
51.2887 7.56441
51.3381 7.53346
51.3877 7.49437
51.4371 7.49468
51.4867 7.43411
51.5362 7.41536
51.5858 7.36384
51.6353 7.36624
51.6849 7.31587
51.7344 7.28317
51.7841 7.27986
51.8336 7.2205
51.8833 7.25658
51.9328 7.19102
51.9826 7.13887
52.0323 7.11014
52.0818 7.07324
52.1316 7.04793
52.1812 7.01362
52.231 7.00326
52.2806 6.96607
52.3304 6.93821
52.38 6.91837
52.4298 6.90576
52.4794 6.85111
52.5293 6.83584
52.5789 6.77947
52.6288 6.80052
52.6785 6.74865
52.7284 6.73405
52.7781 6.70505
52.828 6.65925
52.8777 6.62045
52.9276 6.59258
52.9774 6.56037
53.0273 6.57346
53.0771 6.53433
53.1271 6.51847
53.1769 6.48911
53.2269 6.46001
53.2767 6.41382
53.3267 6.36635
53.3765 6.32362
53.4266 6.3273
53.4766 6.31297
53.5265 6.30015
53.5765 6.27654
53.6264 6.21269
53.6765 6.2188
53.7264 6.16483
53.7765 6.14602
53.8265 6.05771
53.8766 6.09596
53.9266 6.08754
53.9767 6.04888
54.0267 6.03082
54.0769 5.98402
54.1269 5.96746
54.1771 5.95457
54.2271 5.90779
54.2773 5.86329
54.3274 5.82268
54.3776 5.79357
54.4277 5.81554
54.478 5.73363
54.528 5.69367
54.5783 5.6475
54.6285 5.61936
54.6788 5.5919
54.7289 5.56303
54.7792 5.41578
54.8296 5.49372
54.8798 5.38551
54.9301 5.36904
54.9803 5.35237
55.0307 5.39188
55.0809 5.29172
55.1314 5.2608
55.1816 5.1818
55.232 5.11411
55.2823 5.12766
55.3328 5.04886
55.383 5.01919
55.4335 4.9849
55.4838 4.95386
55.5344 4.87324
55.5847 4.80605
55.6352 4.80788
55.6856 4.79696
55.7361 4.71068