File: XRD/Ni3Fe_FD0456.xy
TT I
1.27165 8.20961
1.31627 7.09565
1.36089 7.0389
1.40551 6.76412
1.45013 6.26366
1.49476 6.51564
1.53938 5.55262
1.584 5.87266
1.62863 5.31613
1.67325 4.91821
1.71787 5.91283
1.7625 5.06371
1.80712 4.44714
1.85174 5.40957
1.89636 4.10717
1.94099 4.89669
1.98562 5.14561
2.03025 4.48877
2.07487 3.82147
2.11949 4.95736
2.16411 4.76846
2.20874 10.2265
2.25338 15.1932
2.298 5.47178
2.34263 5.23949
2.38725 4.90856
2.43188 5.3979
2.4765 6.23751
2.52115 6.26881
2.56577 6.62722
2.6104 7.69614
2.65503 7.37954
2.69965 7.14049
2.7443 7.74024
2.78893 7.7106
2.83356 8.23478
2.87818 7.75253
2.92281 8.46741
2.96744 9.35574
3.01209 10.2744
3.05672 11.0479
3.10135 12.3986
3.14599 12.8984
3.19062 14.0996
3.23527 14.7413
3.2799 15.4602
3.32454 16.5816
3.36917 17.3407
3.4138 18.7899
3.45844 19.5653
3.50309 21.0151
3.54773 21.9069
3.59237 23.4191
3.637 63.9775
3.68164 43.6656
3.7263 25.6108
3.77094 25.9459
3.81558 26.5511
3.86022 27.4514
3.90486 28.7244
3.9495 29.9136
3.99416 30.5324
4.0388 32.5147
4.08344 33.6499
4.12809 34.8677
4.17273 36.6259
4.21738 40.8
4.26204 162.307
4.30669 139.018
4.35133 46.1095
4.39598 44.5747
4.44063 50.5856
4.4853 57.5333
4.52995 52.0523
4.5746 52.5802
4.61925 54.0984
4.6639 56.1717
4.70855 59.2634
4.75322 62.2364
4.79788 65.7876
4.84253 68.2754
4.88719 73.3117
4.93184 76.7076
4.97652 82.6446
5.02118 89.6893
5.06583 98.6796
5.11049 112.373
5.15515 168.218
5.19981 511.676
5.24449 3455.56
5.28916 11772.3
5.33382 3000.74
5.37848 204.56
5.42315 134.465
5.46783 117.589
5.5125 109.094
5.55716 104.312
5.60183 100.645
5.6465 98.4233
5.69117 96.5402
5.73586 94.6807
5.78053 94.8158
5.8252 94.5445
5.86988 96.3209
5.91455 98.9451
5.95924 111.431
6.00392 283.787
6.0486 1185.21
6.09328 4216.68
6.13795 3338.53
6.18263 264.135
6.22733 96.7253
6.27201 83.8932
6.3167 91.7706
6.36138 77.6174
6.40606 70.4872
6.45075 68.5812
6.49545 66.2084
6.54014 64.2152
6.58483 63.7856
6.62952 62.5864
6.67421 80.2819
6.71892 109.46
6.76361 65.0131
6.8083 58.6789
6.853 57.948
6.89769 57.5458
6.94239 56.6904
6.98711 55.9588
7.03181 56.2577
7.07651 55.7921
7.12121 55.6239
7.16591 55.8212
7.21063 55.4707
7.25533 63.8304
7.30004 124.541
7.34475 76.375
7.38945 56.3104
7.43416 54.7349
7.47889 54.8728
7.5236 55.2634
7.56831 55.9993
7.61303 56.9538
7.65774 56.9833
7.70247 56.7167
7.74719 56.7386
7.79191 57.5486
7.83663 57.6801
7.88135 58.3654
7.92607 59.5351
7.97081 60.8052
8.01553 61.769
8.06026 63.1993
8.10498 64.6556
8.14971 71.5922
8.19446 71.4984
8.23919 70.6325
8.28392 73.39
8.32865 75.9224
8.37339 80.1856
8.41812 86.5402
8.46288 110.856
8.50761 206.057
8.55235 461.656
8.59709 1226.24
8.64183 2150.29
8.68658 1004.54
8.73134 172.02
8.77609 101.607
8.82083 94.2742
8.86558 91.409
8.91033 90.9568
8.9551 90.5203
8.99985 86.4224
9.04461 84.6603
9.08936 84.6985
9.13412 83.5717
9.17888 83.5434
9.22365 83.8451
9.26841 83.3011
9.31318 84.5173
9.35794 84.9552
9.4027 84.9942
9.44749 85.5773
9.49226 85.9944
9.53703 87.2077
9.5818 89.2882
9.62657 93.0798
9.67134 97.0086
9.71614 94.8648
9.76091 96.0427
9.80569 98.8144
9.85047 101.817
9.89525 118.147
9.94005 135.229
9.98484 217.731
10.0296 408.303
10.0744 872.164
10.1192 1690.98
10.164 1630.08
10.2088 416.006
10.2536 130.091
10.2984 113.326
10.3432 112.451
10.388 108.056
10.4328 130.782
10.4776 178.128
10.5224 297.571
10.5672 491.38
10.612 497.633
10.6568 203.595
10.7017 97.8822
10.7465 88.2586
10.7913 84.2506
10.8361 82.1463
10.8809 80.0399
10.9257 78.6415
10.9706 78.6239
11.0154 75.6934
11.0602 73.6426
11.105 72.6391
11.1499 74.3072
11.1947 78.1954
11.2395 72.8247
11.2844 70.277
11.3292 68.0679
11.374 66.9357
11.4189 66.2339
11.4637 65.7882
11.5086 66.0081
11.5534 67.2063
11.5983 65.6489
11.6431 64.6114
11.688 63.9051
11.7328 63.9132
11.7777 63.681
11.8225 63.4888
11.8674 63.2243
11.9122 63.4595
11.9571 64.0065
12.002 65.4069
12.0468 72.0171
12.0917 83.9774
12.1366 109.028
12.1814 154.838
12.2263 203.77
12.2712 172.733
12.3161 93.1694
12.3609 69.3921
12.4058 65.2141
12.4507 64.8815
12.4956 65.4086
12.5405 65.2688
12.5853 66.2047
12.6302 70.9393
12.6751 74.2985
12.72 69.6112
12.7649 68.8007
12.8098 69.6165
12.8547 70.632
12.8996 72.4973
12.9445 73.6048
12.9894 75.3122
13.0343 77.5277
13.0792 81.5421
13.1242 95.9092
13.1691 122.026
13.214 162.429
13.2589 249.539
13.3038 363.788
13.3487 419.142
13.3937 265.798
13.4386 125.729
13.4835 113.394
13.5285 130.155
13.5734 170.184
13.6183 252.291
13.6633 338.885
13.7082 340.703
13.7531 189.689
13.7981 98.1963
13.843 83.2436
13.888 80.741
13.9329 78.3318
13.9779 77.008
14.0228 75.4931
14.0678 73.911
14.1127 73.7373
14.1577 73.337
14.2027 72.4386
14.2476 71.4907
14.2926 71.4068
14.3376 72.0311
14.3825 70.8917
14.4275 70.0181
14.4725 69.873
14.5175 70.0353
14.5624 70.2284
14.6074 71.383
14.6524 72.1231
14.6974 71.8805
14.7424 75.2449
14.7874 83.6216
14.8324 95.072
14.8774 117.702
14.9224 157.048
14.9674 203.112
15.0124 216.377
15.0574 148.972
15.1024 91.1877
15.1474 73.4135
15.1924 71.5464
15.2374 71.2195
15.2824 70.3018
15.3274 68.7049
15.3725 67.773
15.4175 67.5436
15.4625 66.9889
15.5076 66.972
15.5526 67.1801
15.5976 67.1689
15.6426 69.7327
15.6877 76.6533
15.7327 84.7318
15.7778 101.094
15.8228 130.636
15.8679 168.03
15.9129 191.395
15.958 156.645
16.003 97.133
16.0481 68.6997
16.0931 64.6566
16.1382 62.7939
16.1833 61.4154
16.2283 59.7449
16.2734 59.1222
16.3185 59.029
16.3636 59.1398
16.4086 58.0109
16.4537 57.0207
16.4988 56.531
16.5439 56.2252
16.589 56.0873
16.6341 55.5685
16.6792 55.6004
16.7243 55.7359
16.7694 55.7593
16.8145 55.6129
16.8596 55.9405
16.9047 56.9142
16.9498 57.064
16.9949 56.3283
17.04 57.1948
17.0851 58.7166
17.1302 60.5162
17.1754 63.4893
17.2205 68.5368
17.2656 75.0687
17.3108 81.9992
17.3559 82.7586
17.401 71.8979
17.4462 62.827
17.4913 60.0549
17.5365 60.2236
17.5815 60.1576
17.6268 60.53
17.6718 61.4659
17.7171 61.7901
17.7622 62.4315
17.8074 63.5845
17.8525 66.8088
17.8977 71.2257
17.9428 77.2137
17.9881 86.5316
18.0331 102.731
18.0784 121.329
18.1237 139.405
18.1688 133.311
18.214 105.854
18.2591 88.7122
18.3044 91.9289
18.3495 100.625
18.3948 106.938
18.4399 97.5465
18.4852 78.2317
18.5303 66.5921
18.5756 63.1334
18.6207 62.1783
18.666 61.5275
18.7112 60.7446
18.7565 59.9049
18.8016 59.6724
18.8469 58.853
18.892 58.6644
18.9374 58.2045
18.9825 58.2067
19.0278 57.7256
19.073 58.1945
19.1183 58.7591
19.1635 59.4214
19.2088 60.769
19.254 63.9363
19.2993 67.6999
19.3447 72.6998
19.3898 76.7532
19.4352 73.2383
19.4804 64.2757
19.5257 57.575
19.5709 54.8555
19.6163 54.6813
19.6615 54.63
19.7068 54.2916
19.752 54.1905
19.7974 54.7981
19.8426 55.5487
19.888 56.2402
19.9332 57.6437
19.9786 60.3743
20.0238 63.6657
20.0692 67.7243
20.1144 70.7939
20.1598 69.189
20.205 64.7997
20.2504 62.9597
20.2957 64.473
20.3411 66.2846
20.3863 64.693
20.4318 58.9845
20.477 54.3686
20.5224 52.1493
20.5677 51.5324
20.6131 50.9638
20.6586 50.4924
20.7038 50.1828
20.7493 49.8319
20.7945 49.9302
20.84 49.5252
20.8853 49.6112
20.9307 49.3947
20.976 49.6613
21.0215 49.3821
21.0668 49.8696
21.1122 50.3717
21.1575 50.8903
21.203 51.5219
21.2483 52.1817
21.2938 52.4177
21.3391 50.8552
21.3846 49.7458
21.4299 49.2549
21.4754 49.1662
21.5207 49.5683
21.5662 49.8552
21.6116 50.3421
21.6571 50.9394
21.7024 52.1182
21.7479 53.8509
21.7933 56.9571
21.8388 59.8457
21.8843 63.3548
21.9297 65.3889
21.9752 64.3294
22.0206 60.5699
22.0661 57.1288
22.1115 56.544
22.157 56.7334
22.2024 55.2922
22.248 52.3667
22.2933 50.6983
22.3389 49.874
22.3843 49.6527
22.4299 49.4608
22.4753 49.4409
22.5208 49.451
22.5662 49.3906
22.6118 49.6255
22.6572 49.9274
22.7028 50.3351
22.7483 50.6974
22.7939 51.633
22.8393 52.9496
22.8849 55.0349
22.9303 56.5232
22.9759 58.4696
23.0214 58.0956
23.067 55.4166
23.1126 51.8703
23.1581 50.0857
23.2037 49.6399
23.2492 49.7925
23.2948 49.8512
23.3403 50.1526
23.3859 50.8563
23.4314 52.1008
23.477 53.5763
23.5225 55.4283
23.5682 57.3556
23.6137 58.5044
23.6593 56.5462
23.7048 52.4737
23.7505 48.9933
23.796 47.1573
23.8417 46.6052
23.8872 46.3163
23.9329 45.9336
23.9784 45.5522
24.0241 45.3321
24.0697 44.9547
24.1154 44.792
24.1609 44.7374
24.2066 44.6205
24.2522 44.4335
24.2979 44.1705
24.3434 44.0247
24.3892 43.8537
24.4349 43.7318
24.4805 43.5094
24.5262 43.7449
24.5718 43.6568
24.6175 43.6917
24.6631 43.4489
24.7089 43.0759
24.7545 43.1537
24.8002 42.7899
24.8458 42.8369
24.8916 42.6697
24.9372 43.0349
24.983 43.2946
25.0286 43.749
25.0744 44.0035
25.12 44.3516
25.1658 45.2798
25.2114 45.2267
25.2572 45.51
25.3029 45.3922
25.3487 45.6454
25.3943 45.35
25.4402 44.1776
25.4858 43.1511
25.5316 42.2687
25.5773 41.5259
25.6231 41.5437
25.669 41.3918
25.7147 41.2515
25.7605 41.1055
25.8062 41.2083
25.8521 41.2734
25.8977 41.1471
25.9436 41.5117
25.9893 41.5284
26.0352 42.0602
26.0809 42.1696
26.1268 42.3921
26.1725 41.9478
26.2184 41.5514
26.2641 40.9452
26.31 40.8003
26.3557 40.8925
26.4017 40.9637
26.4474 41.2278
26.4933 41.4908
26.5391 41.8177
26.585 42.2664
26.6308 42.6357
26.6767 42.8233
26.7225 42.505
26.7684 42.1131
26.8142 41.5077
26.8601 41.094
26.9059 40.6965
26.9519 40.153
26.9979 39.8772
27.0437 39.6313
27.0896 39.235
27.1354 39.5365
27.1814 39.2295
27.2272 39.1405
27.2732 39.2985
27.3191 38.9099
27.3651 39.1267
27.4109 39.0259
27.4569 39.0556
27.5027 39.1784
27.5488 39.133
27.5946 39.0299
27.6407 38.8834
27.6865 38.7481
27.7326 38.4285
27.7784 38.6529
27.8245 38.485
27.8703 38.6981
27.9164 38.771
27.9623 39.007
28.0084 39.3385
28.0543 39.7554
28.1003 39.5477
28.1462 39.41
28.1923 39.0302
28.2384 38.4606
28.2843 38.2636
28.3304 37.7089
28.3764 37.3282
28.4225 36.9483
28.4684 36.8819
28.5145 36.64
28.5605 36.3803
28.6066 36.1758
28.6526 36.1907
28.6987 36.2186
28.7447 36.0367
28.7908 35.9368
28.8368 35.9459
28.8829 35.9514
28.9289 35.9104
28.9751 35.8325
29.0211 35.4556
29.0673 35.2089
29.1133 35.0151
29.1595 34.8751
29.2055 34.8396
29.2517 34.9235
29.2977 34.8079
29.3439 34.8988
29.3899 34.69
29.4361 34.7037
29.4824 34.5292
29.5284 34.2243
29.5746 33.9379
29.6207 33.6833
29.6669 33.6556
29.713 33.5049
29.7593 33.3382
29.8053 33.4731
29.8516 33.3576
29.8977 33.3316
29.9439 33.1215
29.99 33.1093
30.0363 32.9599
30.0824 33.0516
30.1287 32.9557
30.1748 33.0429
30.2211 32.8506
30.2673 32.7898
30.3136 32.9368
30.3597 32.788
30.406 32.6117
30.4522 32.6055
30.4985 32.6273
30.5447 32.6897
30.591 32.6035
30.6372 32.698
30.6835 32.7148
30.7297 32.6574
30.7761 32.5818
30.8224 32.4692
30.8686 32.3768
30.915 32.0602
30.9612 32.0123
31.0076 31.7752
31.0538 31.6859
31.1002 31.6116
31.1464 31.4721
31.1928 31.4653
31.2391 31.4598
31.2855 31.3337
31.3317 31.4824
31.3781 31.4631
31.4244 31.4287
31.4708 31.3753
31.5171 31.2491
31.5636 31.2587
31.6098 31.0794
31.6563 30.8793
31.7026 30.8044
31.7491 30.5016
31.7953 30.6017
31.8418 30.6587
31.8881 30.6395
31.9346 30.6109
31.9809 30.5772
32.0275 30.4065
32.074 30.2732
32.1203 30.0792
32.1668 30.0659
32.2132 29.9188
32.2597 29.6757
32.306 29.6357
32.3526 29.523
32.399 29.379
32.4455 29.2617
32.4919 29.1324
32.5385 29.0975
32.5848 29.0276
32.6314 28.9472
32.6778 28.8227
32.7244 28.7941
32.7708 28.5456
32.8174 28.637
32.8638 28.4248
32.9104 28.5077
32.9569 28.4877
33.0035 28.3327
33.0499 28.3374
33.0966 28.2147
33.143 28.2774
33.1897 28.1329
33.2361 28.0297
33.2828 28.0759
33.3293 27.8045
33.3759 27.793
33.4226 27.6488
33.4691 27.5735
33.5158 27.4367
33.5623 27.2567
33.609 27.1387
33.6555 27.0475
33.7022 27.034
33.7487 26.9585
33.7954 26.927
33.842 26.743
33.8887 26.7561
33.9353 26.6681
33.982 26.537
34.0286 26.5012
34.0753 26.3941
34.1219 26.2967
34.1687 26.3114
34.2152 26.1249
34.262 26.0519
34.3086 25.9463
34.3554 25.9892
34.402 25.8143
34.4488 25.6425
34.4954 25.6254
34.5422 25.6099
34.5889 25.4611
34.6357 25.3941
34.6825 25.3111
34.7292 25.2374
34.776 25.1252
34.8227 25.0652
34.8695 25.0478
34.9162 25.0085
34.9631 24.8687
35.0098 24.9104
35.0566 24.7456
35.1033 24.7466
35.1502 24.6712
35.1969 24.6082
35.2438 24.476
35.2906 24.4323
35.3375 24.4571
35.3842 24.3328
35.4311 24.34
35.4779 24.3414
35.5248 24.2594
35.5716 24.0973
35.6185 24.0589
35.6653 24.0098
35.7123 23.7976
35.759 23.8552
35.806 23.684
35.8528 23.6593
35.8998 23.5453
35.9468 23.5018
35.9936 23.4508
36.0406 23.3206
36.0874 23.356
36.1345 23.2575
36.1813 23.1742
36.2283 22.971
36.2752 23.0226
36.3222 22.9461
36.3691 23.0196
36.4161 22.7723
36.463 22.8701
36.5101 22.8162
36.557 22.6398
36.6041 22.439
36.651 22.5671
36.6981 22.4123
36.745 22.3772
36.7921 22.3845
36.839 22.2456
36.8861 22.1842
36.9331 22.0647
36.9802 22.0408
37.0272 21.9635
37.0743 21.8624
37.1213 21.8042
37.1684 21.7269
37.2154 21.6649
37.2626 21.545
37.3098 21.5305
37.3568 21.5024
37.404 21.4083
37.451 21.3303
37.4982 21.2333
37.5452 21.1005
37.5924 21.0666
37.6395 21.1152
37.6867 21.0191
37.7337 20.9746
37.781 20.8358
37.8281 20.7125
37.8753 20.6734
37.9224 20.6083
37.9697 20.6293
38.0168 20.5435
38.064 20.4858
38.1111 20.3701
38.1584 20.2614
38.2056 20.2023
38.2529 20.2612
38.3 20.0716
38.3473 20.1325
38.3945 19.9623
38.4418 20.006
38.489 19.9227
38.5363 19.7921
38.5837 19.7572
38.6309 19.6876
38.6782 19.6448
38.7254 19.5247
38.7728 19.5507
38.82 19.4063
38.8674 19.409
38.9146 19.3277
38.9621 19.2742
39.0093 19.2119
39.0567 19.1494
39.104 19.0416
39.1514 18.9468
39.1987 18.9682
39.2461 18.89
39.2934 18.8015
39.3409 18.7841
39.3882 18.6967
39.4356 18.6668
39.483 18.5514
39.5304 18.5276
39.5778 18.4232
39.6253 18.4292
39.6726 18.4051
39.7201 18.2844
39.7675 18.2564
39.815 18.1855
39.8624 18.1542
39.9099 18.0981
39.9575 18.0279
40.0049 17.9799
40.0525 17.8602
40.0999 17.883
40.1474 17.7994
40.1949 17.7235
40.2425 17.6386
40.2899 17.6255
40.3375 17.5499
40.385 17.5
40.4326 17.409
40.48 17.4291
40.5277 17.3566
40.5752 17.2863
40.6228 17.2073
40.6703 17.2039
40.718 17.1158
40.7655 17.0729
40.8132 16.9675
40.8607 16.9895
40.9084 16.889
40.9559 16.902
41.0036 16.8332
41.0512 16.7765
41.0989 16.7227
41.1465 16.6245
41.1942 16.5954
41.242 16.4728
41.2896 16.4555
41.3373 16.3465
41.3849 16.3833
41.4327 16.2978
41.4803 16.1898
41.5281 16.2143
41.5758 16.1651
41.6236 16.0554
41.6712 16.0058
41.7191 15.9228
41.7667 15.9072
41.8146 15.9379
41.8622 15.7763
41.9101 15.7658
41.9578 15.6662
42.0057 15.6676
42.0534 15.5681
42.1013 15.5343
42.149 15.459
42.1969 15.4594
42.2446 15.3826
42.2925 15.3567
42.3403 15.2853
42.3882 15.2563
42.436 15.2228
42.4839 15.1845
42.5319 15.1098
42.5797 15.0344
42.6277 14.9987
42.6755 14.9243
42.7235 14.8699
42.7713 14.8476
42.8193 14.783
42.8671 14.756
42.9152 14.6818
42.963 14.6604
43.0111 14.5898
43.0589 14.4565
43.107 14.4463
43.1549 14.4463
43.2029 14.3966
43.2508 14.3435
43.2989 14.2792
43.3468 14.2216
43.3949 14.1903
43.4429 14.0986
43.491 14.0725
43.5389 14.0125
43.5871 14.005
43.635 13.9281
43.6832 13.8753
43.7312 13.8019
43.7793 13.7522
43.8273 13.7731
43.8755 13.6935
43.9237 13.6318
43.9717 13.5977
44.0199 13.5384
44.068 13.552
44.1162 13.4096
44.1642 13.4426
44.2125 13.3894
44.2606 13.3607
44.3088 13.273
44.3569 13.2421
44.4052 13.2229
44.4533 13.1169
44.5016 13.1128
44.5497 13.1039
44.598 12.9948
44.6461 12.9378
44.6945 12.9662
44.7426 12.8748
44.791 12.8148
44.8391 12.7526
44.8875 12.752
44.9357 12.6914
44.984 12.6907
45.0322 12.5992
45.0806 12.58
45.1288 12.479
45.1773 12.4471
45.2257 12.4465
45.2739 12.4026
45.3224 12.3443
45.3706 12.2842
45.4191 12.2348
45.4673 12.1969
45.5158 12.1545
45.5641 12.1428
45.6126 12.0678
45.6609 12.0189
45.7094 11.9984
45.7577 11.8979
45.8063 11.8351
45.8546 11.8539
45.9031 11.8197
45.9515 11.7546
46.0001 11.7278
46.0484 11.6715
46.097 11.6402
46.1454 11.6029
46.194 11.607
46.2424 11.4913
46.291 11.4754
46.3395 11.4648
46.3881 11.3951
46.4365 11.3865
46.4852 11.2964
46.5337 11.2517
46.5823 11.233
46.631 11.2048
46.6795 11.1793
46.7282 11.1057
46.7767 11.0822
46.8254 11.0153
46.8739 10.9986
46.9226 10.9359
46.9712 10.8968
47.0199 10.866
47.0685 10.8095
47.1173 10.7595
47.1658 10.7252
47.2146 10.7236
47.2632 10.615
47.312 10.6329
47.3606 10.563
47.4095 10.5574
47.4581 10.4829
47.5069 10.4374
47.5556 10.4201
47.6044 10.404
47.6531 10.3899
47.702 10.3329
47.7507 10.2427
47.7996 10.2137
47.8483 10.205
47.8972 10.1451
47.9461 10.1051
47.9948 10.0784
48.0438 10.0416
48.0925 10.008
48.1415 10.0113
48.1902 9.92212
48.2392 9.88978
48.288 9.86571
48.337 9.83406
48.3858 9.82353
48.4348 9.78084
48.4837 9.76897
48.5327 9.71223
48.5815 9.65316
48.6306 9.63853
48.6795 9.59663
48.7285 9.56101
48.7774 9.54222
48.8265 9.4774
48.8754 9.45192
48.9245 9.43424
48.9734 9.3926
49.0226 9.3737
49.0715 9.27759
49.1206 9.25341
49.1696 9.23333
49.2188 9.22728
49.2679 9.16262
49.3169 9.12249
49.3661 9.0809
49.4151 9.06845
49.4643 9.06016
49.5134 8.98508
49.5626 8.95627
49.6117 8.93889
49.6609 8.86573
49.71 8.86136
49.7592 8.8293
49.8083 8.77424
49.8576 8.76167
49.9067 8.68127
49.956 8.68569
50.0052 8.63553
50.0545 8.64917
50.1036 8.60949
50.153 8.54529
50.2022 8.5024
50.2515 8.49535
50.3007 8.44001
50.3501 8.40076
50.3993 8.36575
50.4487 8.34799
50.498 8.34439
50.5474 8.28717
50.5966 8.24121
50.6461 8.20875
50.6955 8.16386
50.7448 8.16786
50.7943 8.1323
50.8436 8.10306
50.8931 8.08169
50.9424 8.05707
50.9919 8.02531
51.0413 7.97446
51.0908 7.98071
51.1402 7.91438
51.1897 7.87962
51.2391 7.84458
51.2887 7.79597
51.3381 7.77317
51.3877 7.77757
51.4371 7.71015
51.4867 7.67938
51.5362 7.66348
51.5858 7.65014
51.6353 7.57622
51.6849 7.55995
51.7344 7.55711
51.7841 7.49315
51.8336 7.47418
51.8833 7.44434
51.9328 7.3734
51.9826 7.36592
52.0323 7.32429
52.0818 7.31743
52.1316 7.21757
52.1812 7.27966
52.231 7.21747
52.2806 7.19459
52.3304 7.18066
52.38 7.09476
52.4298 7.14286
52.4794 7.06037
52.5293 7.02991
52.5789 7.01771
52.6288 7.00089
52.6785 6.93523
52.7284 6.92435
52.7781 6.90256
52.828 6.90015
52.8777 6.81156
52.9276 6.80643
52.9774 6.79356
53.0273 6.80356
53.0771 6.76434
53.1271 6.70208
53.1769 6.64579
53.2269 6.64668
53.2767 6.62033
53.3267 6.60371
53.3765 6.55885
53.4266 6.56179
53.4766 6.48883
53.5265 6.45974
53.5765 6.4534
53.6264 6.42451
53.6765 6.38902
53.7264 6.37273
53.7765 6.35518
53.8265 6.28614
53.8766 6.24443
53.9266 6.26733
53.9767 6.21938
54.0267 6.17685
54.0769 6.18843
54.1269 6.15564
54.1771 6.09249
54.2271 6.08625
54.2773 6.03453
54.3274 6.0338
54.3776 5.99478
54.4277 5.95666
54.478 5.94786
54.528 5.87935
54.5783 5.82823
54.6285 5.79049
54.6788 5.76954
54.7289 5.76834
54.7792 5.67165
54.8296 5.63871
54.8798 5.61003
54.9301 5.53578
54.9803 5.5211
55.0307 5.49619
55.0809 5.45363
55.1314 5.40922
55.1816 5.35482
55.232 5.31341
55.2823 5.34345
55.3328 5.18836
55.383 5.15673
55.4335 5.13322
55.4838 5.04984
55.5344 5.04686
55.5847 4.93255
55.6352 4.93467
55.6856 4.87782
55.7361 4.88645