File: XRD/Ni3Fe_FD0543.xy
TT I
1.27165 7.25088
1.31627 6.76766
1.36089 6.42496
1.40551 6.01237
1.45013 6.01842
1.49476 6.31756
1.53938 5.96458
1.584 5.50222
1.62863 5.35201
1.67325 5.58485
1.71787 4.99387
1.7625 5.11891
1.80712 4.67749
1.85174 4.5851
1.89636 4.98332
1.94099 5.01905
1.98562 4.31088
2.03025 4.70357
2.07487 4.63466
2.11949 4.6997
2.16411 5.17645
2.20874 15.5012
2.25338 26.7388
2.298 5.87707
2.34263 4.97483
2.38725 5.64312
2.43188 5.63477
2.4765 6.33026
2.52115 6.6972
2.56577 7.19191
2.6104 7.82171
2.65503 7.01578
2.69965 7.96124
2.7443 8.32964
2.78893 8.44551
2.83356 8.87283
2.87818 8.25065
2.92281 9.32525
2.96744 9.79951
3.01209 10.3952
3.05672 10.7463
3.10135 12.2322
3.14599 13.2942
3.19062 14.2096
3.23527 15.5279
3.2799 15.4996
3.32454 16.9989
3.36917 17.9922
3.4138 18.9587
3.45844 20.0807
3.50309 21.3412
3.54773 22.4157
3.59237 24.561
3.637 107.257
3.68164 66.7191
3.7263 26.5242
3.77094 26.6319
3.81558 27.2905
3.86022 27.904
3.90486 29.2642
3.9495 30.4115
3.99416 31.1109
4.0388 32.5192
4.08344 33.854
4.12809 35.2493
4.17273 37.2196
4.21738 44.2314
4.26204 287.724
4.30669 257.905
4.35133 50.3902
4.39598 45.4908
4.44063 56.6611
4.4853 70.0792
4.52995 50.7245
4.5746 51.7754
4.61925 53.6001
4.6639 56.2078
4.70855 58.1618
4.75322 61.4622
4.79788 63.5841
4.84253 67.9495
4.88719 71.4539
4.93184 75.3089
4.97652 81.1899
5.02118 87.4118
5.06583 94.6401
5.11049 107.637
5.15515 187.86
5.19981 365.478
5.24449 2774.85
5.28916 12223.8
5.33382 3242.32
5.37848 203.194
5.42315 131.681
5.46783 113.995
5.5125 106.459
5.55716 103.133
5.60183 99.2361
5.6465 97.3529
5.69117 94.5525
5.73586 92.5142
5.78053 91.6353
5.8252 91.3883
5.86988 92.9086
5.91455 94.988
5.95924 103.38
6.00392 207.348
6.0486 949.9
6.09328 4243.47
6.13795 3425.48
6.18263 264.092
6.22733 95.7234
6.27201 84.797
6.3167 109.079
6.36138 83.9141
6.40606 69.6706
6.45075 68.0996
6.49545 66.2034
6.54014 64.799
6.58483 64.0961
6.62952 63.3495
6.67421 101.508
6.71892 163.293
6.76361 71.1667
6.8083 59.4094
6.853 58.0181
6.89769 57.4333
6.94239 57.4023
6.98711 56.1228
7.03181 56.1982
7.07651 55.8515
7.12121 55.9741
7.16591 56.363
7.21063 56.1766
7.25533 73.7431
7.30004 207.136
7.34475 100.585
7.38945 57.4313
7.43416 55.0449
7.47889 55.1669
7.5236 55.5036
7.56831 56.1772
7.61303 58.1421
7.65774 58.6049
7.70247 56.7235
7.74719 56.6762
7.79191 57.4519
7.83663 57.3826
7.88135 58.1764
7.92607 59.1614
7.97081 60.5486
8.01553 61.4257
8.06026 62.9797
8.10498 64.5482
8.14971 75.5887
8.19446 74.2253
8.23919 70.2709
8.28392 72.5588
8.32865 74.6721
8.37339 78.7521
8.41812 86.5884
8.46288 119.748
8.50761 164.594
8.55235 377.714
8.59709 1130.68
8.64183 2212.74
8.68658 1001.51
8.73134 176.105
8.77609 101.009
8.82083 93.2124
8.86558 89.9999
8.91033 90.5946
8.9551 93.7072
8.99985 86.3836
9.04461 83.8289
9.08936 83.2402
9.13412 82.1809
9.17888 82.8629
9.22365 83.9072
9.26841 82.5726
9.31318 83.0087
9.35794 82.8
9.4027 83.1577
9.44749 84.4041
9.49226 85.0833
9.53703 85.6974
9.5818 87.7071
9.62657 92.8864
9.67134 101.321
9.71614 94.7315
9.76091 94.5139
9.80569 96.7002
9.85047 100.318
9.89525 129.329
9.94005 143.019
9.98484 173.562
10.0296 332.319
10.0744 768.296
10.1192 1715.79
10.164 1664.16
10.2088 412.835
10.2536 128.98
10.2984 115.637
10.3432 118.227
10.388 105.657
10.4328 117.455
10.4776 158.472
10.5224 272.907
10.5672 514.044
10.612 526.385
10.6568 207.97
10.7017 97.5413
10.7465 87.3207
10.7913 83.8842
10.8361 81.7631
10.8809 79.537
10.9257 79.4149
10.9706 80.3746
11.0154 75.6776
11.0602 73.4554
11.105 72.4632
11.1499 78.2716
11.1947 87.2613
11.2395 76.2617
11.2844 71.5944
11.3292 68.1204
11.374 66.6897
11.4189 66.0701
11.4637 65.4093
11.5086 66.2305
11.5534 70.1092
11.5983 66.4821
11.6431 64.3079
11.688 63.6427
11.7328 63.4967
11.7777 63.5638
11.8225 62.9425
11.8674 62.8202
11.9122 63.4354
11.9571 63.6005
12.002 64.1112
12.0468 67.9181
12.0917 78.9854
12.1366 101.798
12.1814 149.342
12.2263 206.033
12.2712 170.811
12.3161 98.7464
12.3609 72.1317
12.4058 65.6408
12.4507 64.7185
12.4956 65.2003
12.5405 65.3632
12.5853 65.9994
12.6302 75.8045
12.6751 82.189
12.72 71.2591
12.7649 68.4199
12.8098 69.0388
12.8547 70.6431
12.8996 71.1929
12.9445 72.7971
12.9894 74.6513
13.0343 76.2324
13.0792 79.4933
13.1242 87.9667
13.1691 111.364
13.214 146.901
13.2589 229.983
13.3038 363.641
13.3487 441.548
13.3937 277.022
13.4386 126.503
13.4835 105.583
13.5285 119.819
13.5734 155.536
13.6183 238.888
13.6633 348.51
13.7082 350.521
13.7531 195.484
13.7981 100.197
13.843 82.7918
13.888 80.2408
13.9329 77.4939
13.9779 76.5122
14.0228 75.0066
14.0678 73.6109
14.1127 73.085
14.1577 73.365
14.2027 72.4619
14.2476 71.1242
14.2926 71.3159
14.3376 73.0162
14.3825 71.228
14.4275 69.5529
14.4725 69.2345
14.5175 69.5904
14.5624 69.6695
14.6074 72.2141
14.6524 72.7924
14.6974 71.2163
14.7424 72.1132
14.7874 78.8147
14.8324 88.6654
14.8774 109.013
14.9224 149.88
14.9674 206.452
15.0124 224.351
15.0574 153.924
15.1024 92.7859
15.1474 73.1091
15.1924 71.2587
15.2374 72.4464
15.2824 71.4854
15.3274 68.9578
15.3725 67.6527
15.4175 67.0103
15.4625 66.8357
15.5076 66.9907
15.5526 67.0307
15.5976 66.3902
15.6426 67.2061
15.6877 72.3727
15.7327 79.8361
15.7778 94.2884
15.8228 123.069
15.8679 168.398
15.9129 198.028
15.958 160.168
16.003 98.9618
16.0481 69.0587
16.0931 65.887
16.1382 63.888
16.1833 61.3697
16.2283 59.7015
16.2734 58.8609
16.3185 59.6155
16.3636 60.553
16.4086 58.8799
16.4537 56.8107
16.4988 56.1253
16.5439 55.9331
16.589 55.7935
16.6341 55.4534
16.6792 55.1192
16.7243 55.5612
16.7694 55.7124
16.8145 55.5795
16.8596 55.9451
16.9047 57.4231
16.9498 58.0226
16.9949 56.4022
17.04 56.2211
17.0851 57.5604
17.1302 59.0009
17.1754 62.0622
17.2205 66.6713
17.2656 74.4712
17.3108 83.5441
17.3559 83.0208
17.401 72.513
17.4462 62.6396
17.4913 59.7531
17.5365 59.6721
17.5815 59.9868
17.6268 60.0417
17.6718 61.0244
17.7171 61.4656
17.7622 61.8763
17.8074 62.3545
17.8525 64.475
17.8977 68.3941
17.9428 73.992
17.9881 81.8638
18.0331 98.1859
18.0784 120.239
18.1237 141.422
18.1688 134.214
18.214 105.007
18.2591 86.5265
18.3044 90.2685
18.3495 100.959
18.3948 108.304
18.4399 98.6706
18.4852 79.4042
18.5303 66.8012
18.5756 62.7613
18.6207 61.8413
18.666 61.2082
18.7112 60.1656
18.7565 59.4396
18.8016 59.3058
18.8469 58.4744
18.892 58.2641
18.9374 57.7123
18.9825 57.5624
19.0278 57.5228
19.073 57.3528
19.1183 58.0568
19.1635 58.888
19.2088 60.221
19.254 62.1509
19.2993 66.5828
19.3447 73.164
19.3898 77.9239
19.4352 73.8703
19.4804 64.2744
19.5257 57.5361
19.5709 54.6231
19.6163 54.3749
19.6615 54.2741
19.7068 53.8068
19.752 53.7543
19.7974 54.0855
19.8426 54.9446
19.888 55.4657
19.9332 56.6899
19.9786 58.9983
20.0238 62.3247
20.0692 67.2014
20.1144 70.8915
20.1598 69.095
20.205 64.2468
20.2504 62.2219
20.2957 64.2375
20.3411 66.8075
20.3863 65.4687
20.4318 59.2107
20.477 54.3067
20.5224 52.3251
20.5677 51.5651
20.6131 50.709
20.6586 50.2308
20.7038 49.9623
20.7493 49.6638
20.7945 49.6323
20.84 49.1387
20.8853 49.199
20.9307 48.8617
20.976 49.0284
21.0215 49.032
21.0668 49.4365
21.1122 49.9933
21.1575 50.4863
21.203 51.3723
21.2483 51.9184
21.2938 51.9484
21.3391 50.4219
21.3846 49.5299
21.4299 48.9247
21.4754 48.751
21.5207 48.9292
21.5662 49.1429
21.6116 49.5742
21.6571 50.2578
21.7024 51.2918
21.7479 53.0082
21.7933 55.342
21.8388 58.7623
21.8843 63.0339
21.9297 65.6574
21.9752 64.3203
22.0206 60.3583
22.0661 57.0488
22.1115 56.5787
22.157 56.803
22.2024 55.0134
22.248 51.977
22.2933 50.2823
22.3389 49.6285
22.3843 49.5477
22.4299 49.4425
22.4753 49.4118
22.5208 49.1418
22.5662 48.9985
22.6118 49.0682
22.6572 49.4116
22.7028 49.6452
22.7483 50.0757
22.7939 50.7653
22.8393 52.2353
22.8849 54.1829
22.9303 56.5744
22.9759 58.4771
23.0214 58.3338
23.067 55.3609
23.1126 51.6529
23.1581 49.7881
23.2037 49.1355
23.2492 49.2571
23.2948 49.2686
23.3403 49.4955
23.3859 50.0851
23.4314 51.0272
23.477 52.8793
23.5225 55.0159
23.5682 57.5114
23.6137 58.8652
23.6593 56.5543
23.7048 52.2018
23.7505 48.7609
23.796 47.1922
23.8417 46.5449
23.8872 45.7971
23.9329 45.6819
23.9784 45.3574
24.0241 45.119
24.0697 44.9239
24.1154 44.6119
24.1609 44.5434
24.2066 44.2974
24.2522 44.1381
24.2979 43.8639
24.3434 43.8176
24.3892 43.505
24.4349 43.6129
24.4805 43.3447
24.5262 43.5229
24.5718 43.3246
24.6175 43.2993
24.6631 43.2229
24.7089 43.0104
24.7545 42.8071
24.8002 42.6052
24.8458 42.5571
24.8916 42.3651
24.9372 42.5252
24.983 42.9073
25.0286 43.0811
25.0744 43.6236
25.12 44.0996
25.1658 44.7757
25.2114 45.13
25.2572 45.1234
25.3029 45.227
25.3487 45.4809
25.3943 45.1012
25.4402 44.0133
25.4858 42.9488
25.5316 41.9616
25.5773 41.298
25.6231 41.3127
25.669 41.0339
25.7147 40.9566
25.7605 40.8088
25.8062 40.9238
25.8521 40.9836
25.8977 41.1224
25.9436 41.18
25.9893 41.3823
26.0352 41.9181
26.0809 41.9458
26.1268 42.1158
26.1725 41.7489
26.2184 41.3114
26.2641 40.6991
26.31 40.5188
26.3557 40.3626
26.4017 40.4835
26.4474 40.7957
26.4933 41.0809
26.5391 41.5606
26.585 42.1093
26.6308 42.3864
26.6767 42.6919
26.7225 42.4571
26.7684 41.9001
26.8142 41.2901
26.8601 41.0133
26.9059 40.4329
26.9519 39.8688
26.9979 39.5098
27.0437 39.2654
27.0896 39.0141
27.1354 39.1674
27.1814 38.9871
27.2272 38.8124
27.2732 38.9349
27.3191 38.684
27.3651 38.8255
27.4109 38.7879
27.4569 38.8873
27.5027 38.907
27.5488 38.9137
27.5946 38.8244
27.6407 38.3978
27.6865 38.4869
27.7326 38.1089
27.7784 38.2644
27.8245 38.1394
27.8703 38.3689
27.9164 38.5719
27.9623 38.6033
28.0084 39.018
28.0543 39.4302
28.1003 39.4333
28.1462 39.1927
28.1923 38.874
28.2384 38.4045
28.2843 37.995
28.3304 37.548
28.3764 37.0106
28.4225 36.7212
28.4684 36.6808
28.5145 36.2566
28.5605 36.2162
28.6066 36.0731
28.6526 35.8974
28.6987 35.9571
28.7447 35.7947
28.7908 35.8283
28.8368 35.7883
28.8829 35.7732
28.9289 35.6744
28.9751 35.4344
29.0211 35.3196
29.0673 35.0032
29.1133 34.8257
29.1595 34.7801
29.2055 34.6132
29.2517 34.7043
29.2977 34.6849
29.3439 34.6328
29.3899 34.6366
29.4361 34.4706
29.4824 34.2562
29.5284 34.1706
29.5746 33.7574
29.6207 33.5125
29.6669 33.385
29.713 33.2743
29.7593 33.249
29.8053 33.1919
29.8516 33.1473
29.8977 33.0683
29.9439 32.9423
29.99 32.8768
30.0363 32.7541
30.0824 32.757
30.1287 32.7138
30.1748 32.7543
30.2211 32.7347
30.2673 32.6155
30.3136 32.6716
30.3597 32.5467
30.406 32.5209
30.4522 32.4979
30.4985 32.3896
30.5447 32.4737
30.591 32.4037
30.6372 32.3826
30.6835 32.4571
30.7297 32.4744
30.7761 32.398
30.8224 32.2582
30.8686 32.1825
30.915 31.9849
30.9612 31.7986
31.0076 31.6115
31.0538 31.5446
31.1002 31.4892
31.1464 31.1953
31.1928 31.1751
31.2391 31.2695
31.2855 31.1328
31.3317 31.1099
31.3781 31.187
31.4244 31.2256
31.4708 31.1803
31.5171 31.0893
31.5636 31.0591
31.6098 30.7759
31.6563 30.6472
31.7026 30.5086
31.7491 30.4172
31.7953 30.4995
31.8418 30.4076
31.8881 30.4654
31.9346 30.3939
31.9809 30.348
32.0275 30.1884
32.074 30.0644
32.1203 29.9068
32.1668 29.8383
32.2132 29.6822
32.2597 29.5177
32.306 29.5193
32.3526 29.2928
32.399 29.2052
32.4455 29.0825
32.4919 28.9729
32.5385 28.9409
32.5848 28.7587
32.6314 28.7611
32.6778 28.6655
32.7244 28.5324
32.7708 28.436
32.8174 28.4735
32.8638 28.2523
32.9104 28.3635
32.9569 28.3249
33.0035 28.1463
33.0499 28.1451
33.0966 28.1122
33.143 27.9976
33.1897 27.8835
33.2361 27.8436
33.2828 27.8436
33.3293 27.6483
33.3759 27.6645
33.4226 27.506
33.4691 27.2584
33.5158 27.301
33.5623 27.1478
33.609 26.9601
33.6555 26.9303
33.7022 26.8388
33.7487 26.7893
33.7954 26.6762
33.842 26.6592
33.8887 26.5149
33.9353 26.4765
33.982 26.3858
34.0286 26.2525
34.0753 26.2834
34.1219 26.1295
34.1687 26.0656
34.2152 26.0425
34.262 25.8935
34.3086 25.86
34.3554 25.8369
34.402 25.6835
34.4488 25.5529
34.4954 25.5455
34.5422 25.361
34.5889 25.2804
34.6357 25.2637
34.6825 25.2093
34.7292 25.0723
34.776 25.0079
34.8227 24.885
34.8695 24.9038
34.9162 24.845
34.9631 24.7493
35.0098 24.8155
35.0566 24.5202
35.1033 24.538
35.1502 24.5666
35.1969 24.3783
35.2438 24.3749
35.2906 24.325
35.3375 24.3169
35.3842 24.2124
35.4311 24.2473
35.4779 24.1711
35.5248 24.075
35.5716 23.9858
35.6185 23.8939
35.6653 23.8443
35.7123 23.7926
35.759 23.7136
35.806 23.5425
35.8528 23.4296
35.8998 23.4461
35.9468 23.3308
35.9936 23.2727
36.0406 23.2641
36.0874 23.2146
36.1345 23.0836
36.1813 23.0424
36.2283 22.904
36.2752 22.8706
36.3222 22.8803
36.3691 22.7223
36.4161 22.6228
36.463 22.6621
36.5101 22.681
36.557 22.6015
36.6041 22.3749
36.651 22.4025
36.6981 22.3711
36.745 22.2855
36.7921 22.1557
36.839 22.0723
36.8861 22.0525
36.9331 21.8901
36.9802 21.8863
37.0272 21.7608
37.0743 21.6877
37.1213 21.6634
37.1684 21.5915
37.2154 21.5698
37.2626 21.4512
37.3098 21.3763
37.3568 21.3907
37.404 21.3312
37.451 21.1737
37.4982 21.1772
37.5452 21.0746
37.5924 20.9389
37.6395 21.0967
37.6867 20.9282
37.7337 20.8888
37.781 20.7389
37.8281 20.698
37.8753 20.6094
37.9224 20.5137
37.9697 20.4519
38.0168 20.376
38.064 20.3326
38.1111 20.3653
38.1584 20.2878
38.2056 20.2054
38.2529 20.109
38.3 20.0328
38.3473 20.0539
38.3945 19.8852
38.4418 19.8547
38.489 19.7796
38.5363 19.7641
38.5837 19.6311
38.6309 19.5987
38.6782 19.5779
38.7254 19.4555
38.7728 19.452
38.82 19.3594
38.8674 19.2894
38.9146 19.1883
38.9621 19.1766
39.0093 19.1382
39.0567 18.9805
39.104 19.0189
39.1514 18.9063
39.1987 18.8197
39.2461 18.8501
39.2934 18.7844
39.3409 18.6334
39.3882 18.549
39.4356 18.5465
39.483 18.4416
39.5304 18.4404
39.5778 18.4602
39.6253 18.2994
39.6726 18.3203
39.7201 18.2467
39.7675 18.1672
39.815 18.1461
39.8624 18.0758
39.9099 18.0125
39.9575 17.9202
40.0049 17.8661
40.0525 17.7781
40.0999 17.7221
40.1474 17.6932
40.1949 17.647
40.2425 17.5748
40.2899 17.5605
40.3375 17.5181
40.385 17.3765
40.4326 17.3538
40.48 17.2942
40.5277 17.2888
40.5752 17.2399
40.6228 17.0811
40.6703 17.0914
40.718 17.0657
40.7655 16.9903
40.8132 16.9229
40.8607 16.8625
40.9084 16.864
40.9559 16.8206
41.0036 16.7981
41.0512 16.6398
41.0989 16.6428
41.1465 16.5653
41.1942 16.5459
41.242 16.437
41.2896 16.4211
41.3373 16.3521
41.3849 16.3279
41.4327 16.219
41.4803 16.1652
41.5281 16.1453
41.5758 16.0107
41.6236 16.0064
41.6712 16.0028
41.7191 15.9079
41.7667 15.8317
41.8146 15.8697
41.8622 15.7189
41.9101 15.7494
41.9578 15.609
42.0057 15.5826
42.0534 15.5216
42.1013 15.509
42.149 15.426
42.1969 15.3973
42.2446 15.3346
42.2925 15.2696
42.3403 15.2504
42.3882 15.2013
42.436 15.1149
42.4839 15.1108
42.5319 15.0365
42.5797 14.9807
42.6277 14.9704
42.6755 14.9007
42.7235 14.8392
42.7713 14.7483
42.8193 14.7152
42.8671 14.6753
42.9152 14.6188
42.963 14.5756
43.0111 14.5415
43.0589 14.4727
43.107 14.4003
43.1549 14.3803
43.2029 14.2907
43.2508 14.3109
43.2989 14.1966
43.3468 14.1645
43.3949 14.124
43.4429 14.0727
43.491 14.0163
43.5389 13.9712
43.5871 13.9659
43.635 13.8738
43.6832 13.8714
43.7312 13.8038
43.7793 13.739
43.8273 13.6995
43.8755 13.6552
43.9237 13.6114
43.9717 13.5657
44.0199 13.5274
44.068 13.4727
44.1162 13.4356
44.1642 13.3989
44.2125 13.3485
44.2606 13.3168
44.3088 13.2288
44.3569 13.1571
44.4052 13.1796
44.4533 13.0737
44.5016 13.0437
44.5497 13.0033
44.598 12.9504
44.6461 12.8879
44.6945 12.8619
44.7426 12.8399
44.791 12.783
44.8391 12.754
44.8875 12.6867
44.9357 12.6757
44.984 12.5523
45.0322 12.5292
45.0806 12.4996
45.1288 12.4256
45.1773 12.4486
45.2257 12.3755
45.2739 12.3376
45.3224 12.2942
45.3706 12.2549
45.4191 12.1832
45.4673 12.1736
45.5158 12.1054
45.5641 12.035
45.6126 12.0207
45.6609 11.9619
45.7094 11.9279
45.7577 11.913
45.8063 11.8589
45.8546 11.7961
45.9031 11.752
45.9515 11.7228
46.0001 11.7259
46.0484 11.6678
46.097 11.6487
46.1454 11.5618
46.194 11.5407
46.2424 11.4694
46.291 11.4318
46.3395 11.4197
46.3881 11.3696
46.4365 11.3133
46.4852 11.2819
46.5337 11.2033
46.5823 11.2056
46.631 11.1562
46.6795 11.1272
46.7282 11.0842
46.7767 11.0331
46.8254 10.961
46.8739 10.9318
46.9226 10.9216
46.9712 10.8686
47.0199 10.8111
47.0685 10.8061
47.1173 10.7422
47.1658 10.7088
47.2146 10.6684
47.2632 10.6198
47.312 10.5883
47.3606 10.5453
47.4095 10.4975
47.4581 10.4833
47.5069 10.4494
47.5556 10.4087
47.6044 10.3502
47.6531 10.3239
47.702 10.257
47.7507 10.2313
47.7996 10.1826
47.8483 10.1466
47.8972 10.1318
47.9461 10.124
47.9948 10.0656
48.0438 9.99141
48.0925 9.9851
48.1415 9.94512
48.1902 9.94253
48.2392 9.85524
48.288 9.84486
48.337 9.77431
48.3858 9.77786
48.4348 9.74907
48.4837 9.73303
48.5327 9.63915
48.5815 9.63713
48.6306 9.60744
48.6795 9.57065
48.7285 9.52909
48.7774 9.49382
48.8265 9.48573
48.8754 9.42782
48.9245 9.41959
48.9734 9.31312
49.0226 9.3411
49.0715 9.27372
49.1206 9.22627
49.1696 9.19148
49.2188 9.18379
49.2679 9.15295
49.3169 9.07161
49.3661 9.05467
49.4151 9.04557
49.4643 9.02275
49.5134 9.00163
49.5626 8.91252
49.6117 8.91221
49.6609 8.87725
49.71 8.77992
49.7592 8.83305
49.8083 8.74812
49.8576 8.7041
49.9067 8.66699
49.956 8.63774
50.0052 8.64404
50.0545 8.61473
50.1036 8.58825
50.153 8.52556
50.2022 8.49153
50.2515 8.46034
50.3007 8.43699
50.3501 8.39043
50.3993 8.38851
50.4487 8.36447
50.498 8.30157
50.5474 8.26251
50.5966 8.2274
50.6461 8.20012
50.6955 8.15897
50.7448 8.15888
50.7943 8.12655
50.8436 8.08299
50.8931 8.03967
50.9424 8.0254
50.9919 7.96769
51.0413 7.97715
51.0908 7.93451
51.1402 7.90547
51.1897 7.84866
51.2391 7.82652
51.2887 7.77312
51.3381 7.75389
51.3877 7.71904
51.4371 7.71308
51.4867 7.64022
51.5362 7.65246
51.5858 7.57605
51.6353 7.55441
51.6849 7.50848
51.7344 7.51491
51.7841 7.51892
51.8336 7.43478
51.8833 7.42826
51.9328 7.36402
51.9826 7.35406
52.0323 7.33439
52.0818 7.28807
52.1316 7.28402
52.1812 7.22267
52.231 7.20467
52.2806 7.18671
52.3304 7.15908
52.38 7.12285
52.4298 7.10271
52.4794 7.04729
52.5293 7.0489
52.5789 7.01668
52.6288 6.9912
52.6785 6.94946
52.7284 6.90284
52.7781 6.89295
52.828 6.85394
52.8777 6.79347
52.9276 6.79939
52.9774 6.77787
53.0273 6.74479
53.0771 6.74434
53.1271 6.6957
53.1769 6.68123
53.2269 6.64804
53.2767 6.56504
53.3267 6.5962
53.3765 6.56971
53.4266 6.49017
53.4766 6.45781
53.5265 6.45294
53.5765 6.41338
53.6264 6.38634
53.6765 6.36468
53.7264 6.35144
53.7765 6.3433
53.8265 6.24643
53.8766 6.26588
53.9266 6.2166
53.9767 6.19472
54.0267 6.16809
54.0769 6.14796
54.1269 6.09496
54.1771 6.08533
54.2271 6.07568
54.2773 6.03494
54.3274 5.99134
54.3776 5.95461
54.4277 5.96165
54.478 5.92416
54.528 5.86538
54.5783 5.8225
54.6285 5.79433
54.6788 5.74249
54.7289 5.67885
54.7792 5.69523
54.8296 5.58675
54.8798 5.57029
54.9301 5.53855
54.9803 5.51628
55.0307 5.48838
55.0809 5.43449
55.1314 5.45724
55.1816 5.36425
55.232 5.33076
55.2823 5.28005
55.3328 5.18503
55.383 5.17413
55.4335 5.1634
55.4838 5.08448
55.5344 4.97868
55.5847 4.93354
55.6352 4.95504
55.6856 4.91718
55.7361 4.88963