File: XRD/Ni3Fe_FD0259.xy
TT I
1.27165 8.12826
1.31627 7.25175
1.36089 7.21124
1.40551 6.60747
1.45013 6.59002
1.49476 5.83446
1.53938 6.03132
1.584 5.5556
1.62863 5.09989
1.67325 5.28128
1.71787 5.22905
1.7625 5.12588
1.80712 4.97177
1.85174 5.14462
1.89636 5.24374
1.94099 5.48271
1.98562 5.19478
2.03025 4.91141
2.07487 4.77379
2.11949 4.67632
2.16411 5.3191
2.20874 9.2911
2.25338 12.7644
2.298 4.96608
2.34263 5.10257
2.38725 5.32619
2.43188 4.86356
2.4765 4.70682
2.52115 5.35887
2.56577 5.87747
2.6104 6.13215
2.65503 6.53299
2.69965 6.13274
2.7443 7.34009
2.78893 7.73657
2.83356 7.57339
2.87818 8.85819
2.92281 8.57539
2.96744 9.6165
3.01209 9.98084
3.05672 11.3189
3.10135 12.6208
3.14599 12.8235
3.19062 14.0731
3.23527 15.1436
3.2799 16.213
3.32454 17.0649
3.36917 17.7083
3.4138 18.6181
3.45844 20.2606
3.50309 21.4595
3.54773 21.7165
3.59237 23.8475
3.637 54.3912
3.68164 39.8833
3.7263 26.2159
3.77094 26.4593
3.81558 27.1726
3.86022 27.7482
3.90486 29.3179
3.9495 30.3434
3.99416 31.5606
4.0388 33.0768
4.08344 33.7322
4.12809 35.5312
4.17273 37.4381
4.21738 42.001
4.26204 134.164
4.30669 120.088
4.35133 47.1288
4.39598 45.2648
4.44063 50.7838
4.4853 56.6299
4.52995 53.2928
4.5746 54.0959
4.61925 55.6409
4.6639 57.7539
4.70855 60.9298
4.75322 64.2029
4.79788 67.9909
4.84253 71.1358
4.88719 76.3363
4.93184 80.0141
4.97652 87.0801
5.02118 94.9
5.06583 104.707
5.11049 119.862
5.15515 176.227
5.19981 580.879
5.24449 3815.97
5.28916 10658.8
5.33382 4216.19
5.37848 277.809
5.42315 151.962
5.46783 128.163
5.5125 116.626
5.55716 111.616
5.60183 105.766
5.6465 103.211
5.69117 101.415
5.73586 99.5826
5.78053 100.363
5.8252 100.348
5.86988 102.417
5.91455 105.982
5.95924 120.492
6.00392 300.804
6.0486 1331.17
6.09328 3650.29
6.13795 3756.78
6.18263 377.639
6.22733 109.566
6.27201 90.3863
6.3167 92.8366
6.36138 80.4589
6.40606 73.4514
6.45075 71.1028
6.49545 68.5757
6.54014 67.035
6.58483 65.559
6.62952 65.5273
6.67421 78.1954
6.71892 99.6614
6.76361 66.0893
6.8083 60.9027
6.853 59.8309
6.89769 58.7618
6.94239 58.8066
6.98711 57.6823
7.03181 57.2052
7.07651 57.2468
7.12121 57.046
7.16591 57.4883
7.21063 56.9526
7.25533 64.4081
7.30004 112.231
7.34475 73.5993
7.38945 57.712
7.43416 56.264
7.47889 56.3073
7.5236 56.7485
7.56831 56.9088
7.61303 58.0073
7.65774 58.3142
7.70247 58.5455
7.74719 58.4037
7.79191 59.4415
7.83663 59.1295
7.88135 60.2904
7.92607 60.9671
7.97081 62.541
8.01553 63.542
8.06026 64.994
8.10498 66.9601
8.14971 72.8019
8.19446 72.9018
8.23919 72.6636
8.28392 75.3864
8.32865 78.4052
8.37339 83.1244
8.41812 89.6735
8.46288 110.624
8.50761 203.973
8.55235 535.453
8.59709 1119.98
8.64183 1965.91
8.68658 1245.11
8.73134 233.097
8.77609 110.831
8.82083 99.618
8.86558 95.8061
8.91033 94.6044
8.9551 93.2187
8.99985 89.8083
9.04461 88.0296
9.08936 87.5853
9.13412 86.6377
9.17888 86.0039
9.22365 86.4286
9.26841 86.4742
9.31318 87.7751
9.35794 87.6779
9.4027 87.7682
9.44749 88.4977
9.49226 88.9467
9.53703 89.9375
9.5818 92.3248
9.62657 95.5498
9.67134 98.706
9.71614 97.6593
9.76091 99.6066
9.80569 102.647
9.85047 105.562
9.89525 119.89
9.94005 133.083
9.98484 217.41
10.0296 477.362
10.0744 833.76
10.1192 1445.6
10.164 1695.23
10.2088 598.029
10.2536 153.71
10.2984 119.613
10.3432 116.924
10.388 110.739
10.4328 133.708
10.4776 198.98
10.5224 289.927
10.5672 444.978
10.612 526.468
10.6568 271.854
10.7017 111.198
10.7465 92.0542
10.7913 87.6435
10.8361 85.3538
10.8809 83.0939
10.9257 81.1385
10.9706 80.9786
11.0154 77.9572
11.0602 76.2186
11.105 75.0302
11.1499 76.0482
11.1947 78.7572
11.2395 74.1378
11.2844 71.9293
11.3292 70.1453
11.374 69.335
11.4189 68.481
11.4637 67.7344
11.5086 67.3193
11.5534 68.4706
11.5983 67.2327
11.6431 66.3435
11.688 65.7658
11.7328 65.8127
11.7777 65.684
11.8225 65.3812
11.8674 65.2047
11.9122 65.7299
11.9571 65.9199
12.002 67.0874
12.0468 73.1164
12.0917 90.2678
12.1366 111.211
12.1814 143.656
12.2263 191.121
12.2712 186.416
12.3161 110.494
12.3609 73.2356
12.4058 67.5873
12.4507 67.4393
12.4956 67.3894
12.5405 67.2052
12.5853 67.9957
12.6302 71.6141
12.6751 74.6673
12.72 71.295
12.7649 70.6098
12.8098 71.4622
12.8547 73.0428
12.8996 74.3107
12.9445 75.6568
12.9894 77.4328
13.0343 79.625
13.0792 83.5276
13.1242 95.6639
13.1691 131.954
13.214 174.947
13.2589 236.13
13.3038 326.009
13.3487 411.964
13.3937 317.129
13.4386 150.893
13.4835 118.685
13.5285 144.49
13.5734 176.625
13.6183 232.934
13.6633 308.509
13.7082 356.209
13.7531 236.425
13.7981 115.786
13.843 87.2381
13.888 83.948
13.9329 81.0486
13.9779 79.6125
14.0228 78.1555
14.0678 76.4874
14.1127 76.0162
14.1577 75.5126
14.2027 74.5173
14.2476 73.9394
14.2926 73.4795
14.3376 73.8118
14.3825 73.0919
14.4275 72.0273
14.4725 72.2185
14.5175 72.0499
14.5624 72.378
14.6074 73.4773
14.6524 73.8686
14.6974 73.5872
14.7424 76.1997
14.7874 86.5715
14.8324 103.147
14.8774 120.369
14.9224 148.158
14.9674 186.673
15.0124 215.679
15.0574 174.677
15.1024 106.061
15.1474 77.8128
15.1924 73.9187
15.2374 73.2415
15.2824 72.0619
15.3274 70.6193
15.3725 70.0076
15.4175 69.5076
15.4625 68.993
15.5076 69.2467
15.5526 69.0955
15.5976 69.1971
15.6426 70.4851
15.6877 78.7586
15.7327 91.6813
15.7778 104.631
15.8228 124.645
15.8679 154.586
15.9129 185.126
15.958 172.736
16.003 115.795
16.0481 74.8697
16.0931 66.9103
16.1382 64.9169
16.1833 63.2654
16.2283 61.6071
16.2734 61.0971
16.3185 60.7452
16.3636 60.6064
16.4086 59.6037
16.4537 58.5705
16.4988 58.0083
16.5439 57.7802
16.589 57.5697
16.6341 57.2284
16.6792 57.0131
16.7243 57.1618
16.7694 57.1944
16.8145 57.0516
16.8596 57.4203
16.9047 58.1455
16.9498 58.174
16.9949 57.8789
17.04 58.2766
17.0851 60.1644
17.1302 62.8254
17.1754 65.5688
17.2205 69.0911
17.2656 74.2803
17.3108 81.5412
17.3559 84.7814
17.401 77.7152
17.4462 67.1779
17.4913 62.4526
17.5365 61.7104
17.5815 61.8885
17.6268 62.2684
17.6718 62.822
17.7171 63.412
17.7622 63.9434
17.8074 64.9374
17.8525 68.0996
17.8977 74.3412
17.9428 81.9028
17.9881 88.6546
18.0331 100.064
18.0784 114.693
18.1237 134.773
18.1688 141.519
18.214 120.655
18.2591 95.8543
18.3044 91.3589
18.3495 96.8641
18.3948 104.828
18.4399 101.709
18.4852 85.0108
18.5303 71.0728
18.5756 65.6362
18.6207 64.2075
18.666 63.3679
18.7112 62.4917
18.7565 61.8582
18.8016 61.358
18.8469 60.7062
18.892 60.4259
18.9374 59.8263
18.9825 59.712
19.0278 59.3901
19.073 59.4776
19.1183 60.1156
19.1635 61.4628
19.2088 63.2895
19.254 64.8383
19.2993 67.7998
19.3447 71.7833
19.3898 76.184
19.4352 76.0511
19.4804 68.7563
19.5257 60.9259
19.5709 57.0311
19.6163 56.4649
19.6615 56.1388
19.7068 55.8062
19.752 55.728
19.7974 56.0728
19.8426 57.0991
19.888 58.4903
19.9332 59.4912
19.9786 61.4544
20.0238 63.7744
20.0692 67.6535
20.1144 71.7585
20.1598 72.8343
20.205 68.3251
20.2504 65.0634
20.2957 64.7387
20.3411 66.4259
20.3863 66.918
20.4318 62.2715
20.477 57.0071
20.5224 54.006
20.5677 53.2094
20.6131 52.4409
20.6586 51.8746
20.7038 51.7559
20.7493 51.2473
20.7945 51.1806
20.84 50.9028
20.8853 50.9976
20.9307 50.9211
20.976 51.1225
21.0215 50.9263
21.0668 51.2307
21.1122 51.6934
21.1575 51.9828
21.203 52.6798
21.2483 53.08
21.2938 53.6683
21.3391 52.7205
21.3846 51.3851
21.4299 50.7764
21.4754 50.6467
21.5207 50.7601
21.5662 51.0993
21.6116 51.7336
21.6571 52.7972
21.7024 54.1534
21.7479 55.3275
21.7933 57.2708
21.8388 59.9801
21.8843 63.2123
21.9297 66.1407
21.9752 66.6803
22.0206 63.5498
22.0661 59.3193
22.1115 57.6822
22.157 57.9477
22.2024 57.3992
22.248 54.7768
22.2933 52.7338
22.3389 51.3491
22.3843 51.1239
22.4299 51.1523
22.4753 50.9
22.5208 50.8445
22.5662 50.6468
22.6118 50.9549
22.6572 51.1751
22.7028 51.8552
22.7483 52.5693
22.7939 53.0363
22.8393 54.1178
22.8849 55.565
22.9303 57.0131
22.9759 58.8103
23.0214 59.5295
23.067 58.0134
23.1126 54.6888
23.1581 52.0309
23.2037 51.0693
23.2492 51.1423
23.2948 51.4075
23.3403 52.0426
23.3859 52.4973
23.4314 53.2268
23.477 54.2869
23.5225 55.6506
23.5682 57.5295
23.6137 59.3465
23.6593 58.6241
23.7048 55.3483
23.7505 51.5711
23.796 49.1855
23.8417 48.2554
23.8872 47.5524
23.9329 47.3438
23.9784 46.7941
24.0241 46.671
24.0697 46.4341
24.1154 46.1097
24.1609 45.9629
24.2066 45.6915
24.2522 45.5016
24.2979 45.3539
24.3434 45.3263
24.3892 45.1219
24.4349 45.071
24.4805 44.878
24.5262 44.9498
24.5718 44.716
24.6175 44.7362
24.6631 44.6784
24.7089 44.4028
24.7545 44.1832
24.8002 44.1489
24.8458 44.0708
24.8916 44.0629
24.9372 44.2118
24.983 44.5041
25.0286 44.6977
25.0744 45.0727
25.12 45.6082
25.1658 46.1702
25.2114 46.3431
25.2572 46.6268
25.3029 46.3176
25.3487 46.4042
25.3943 46.4926
25.4402 45.7438
25.4858 44.8089
25.5316 43.5588
25.5773 42.8622
25.6231 42.625
25.669 42.2773
25.7147 42.3717
25.7605 42.2345
25.8062 42.3272
25.8521 42.5004
25.8977 42.3442
25.9436 42.5224
25.9893 42.4834
26.0352 42.9451
26.0809 42.9875
26.1268 43.3772
26.1725 43.2562
26.2184 42.8996
26.2641 42.2074
26.31 42.0946
26.3557 42.097
26.4017 42.0167
26.4474 42.4953
26.4933 42.4698
26.5391 42.8245
26.585 43.1924
26.6308 43.5982
26.6767 43.7687
26.7225 43.8576
26.7684 43.3478
26.8142 42.8201
26.8601 42.2685
26.9059 41.7717
26.9519 41.4197
26.9979 41.0459
27.0437 40.763
27.0896 40.4899
27.1354 40.3863
27.1814 40.3195
27.2272 40.2164
27.2732 40.2785
27.3191 40.0793
27.3651 40.1656
27.4109 39.9766
27.4569 40.1665
27.5027 40.2611
27.5488 40.2555
27.5946 40.1389
27.6407 39.954
27.6865 39.8732
27.7326 39.6102
27.7784 39.6732
27.8245 39.6091
27.8703 39.6198
27.9164 39.9235
27.9623 39.9486
28.0084 40.2294
28.0543 40.5736
28.1003 40.5998
28.1462 40.5335
28.1923 40.1935
28.2384 39.7296
28.2843 39.3394
28.3304 39.0019
28.3764 38.4828
28.4225 38.1391
28.4684 37.9962
28.5145 37.562
28.5605 37.4422
28.6066 37.3088
28.6526 37.105
28.6987 37.1343
28.7447 37.0647
28.7908 36.9839
28.8368 36.9231
28.8829 37.0041
28.9289 36.8716
28.9751 36.6726
29.0211 36.5003
29.0673 36.1908
29.1133 36.1628
29.1595 35.9574
29.2055 35.857
29.2517 35.8666
29.2977 35.7498
29.3439 35.7205
29.3899 35.6245
29.4361 35.6335
29.4824 35.5238
29.5284 35.3201
29.5746 34.9135
29.6207 34.6276
29.6669 34.4248
29.713 34.4276
29.7593 34.4536
29.8053 34.3428
29.8516 34.3189
29.8977 34.1797
29.9439 34.0049
29.99 34.06
30.0363 33.9026
30.0824 33.8974
30.1287 33.7179
30.1748 33.7725
30.2211 33.8113
30.2673 33.7502
30.3136 33.8269
30.3597 33.7597
30.406 33.6588
30.4522 33.523
30.4985 33.5006
30.5447 33.5805
30.591 33.4534
30.6372 33.5819
30.6835 33.52
30.7297 33.446
30.7761 33.4695
30.8224 33.449
30.8686 33.3105
30.915 32.983
30.9612 33.021
31.0076 32.7053
31.0538 32.6125
31.1002 32.475
31.1464 32.2488
31.1928 32.3157
31.2391 32.3045
31.2855 32.2863
31.3317 32.2485
31.3781 32.2633
31.4244 32.1082
31.4708 32.1223
31.5171 31.9841
31.5636 32.0557
31.6098 31.8698
31.6563 31.7475
31.7026 31.6857
31.7491 31.4804
31.7953 31.4428
31.8418 31.5483
31.8881 31.4318
31.9346 31.3325
31.9809 31.3051
32.0275 31.1718
32.074 31.0977
32.1203 30.9683
32.1668 30.8635
32.2132 30.7544
32.2597 30.5027
32.306 30.502
32.3526 30.2972
32.399 30.167
32.4455 30.0438
32.4919 29.9875
32.5385 29.9492
32.5848 29.66
32.6314 29.6889
32.6778 29.7108
32.7244 29.5682
32.7708 29.3985
32.8174 29.5092
32.8638 29.2555
32.9104 29.3334
32.9569 29.2237
33.0035 29.1171
33.0499 28.9322
33.0966 28.9168
33.143 29.0025
33.1897 28.8961
33.2361 28.792
33.2828 28.7161
33.3293 28.6365
33.3759 28.5137
33.4226 28.4784
33.4691 28.2516
33.5158 28.2278
33.5623 28.1243
33.609 27.8531
33.6555 27.8208
33.7022 27.7762
33.7487 27.6056
33.7954 27.611
33.842 27.5223
33.8887 27.463
33.9353 27.4101
33.982 27.2942
34.0286 27.1771
34.0753 27.1504
34.1219 27.0264
34.1687 26.9638
34.2152 26.8197
34.262 26.7541
34.3086 26.6311
34.3554 26.6868
34.402 26.5486
34.4488 26.456
34.4954 26.3975
34.5422 26.2579
34.5889 26.1546
34.6357 26.0633
34.6825 25.9948
34.7292 25.8659
34.776 25.843
34.8227 25.7887
34.8695 25.6884
34.9162 25.729
34.9631 25.534
35.0098 25.5504
35.0566 25.5107
35.1033 25.3469
35.1502 25.3015
35.1969 25.2384
35.2438 25.1204
35.2906 25.1043
35.3375 25.0431
35.3842 25.079
35.4311 25.0422
35.4779 24.9062
35.5248 24.9437
35.5716 24.859
35.6185 24.7373
35.6653 24.6665
35.7123 24.4894
35.759 24.5413
35.806 24.3369
35.8528 24.2794
35.8998 24.2688
35.9468 24.1649
35.9936 24.02
36.0406 23.9537
36.0874 24.0258
36.1345 23.8751
36.1813 23.7343
36.2283 23.7026
36.2752 23.578
36.3222 23.6826
36.3691 23.5301
36.4161 23.4105
36.463 23.3805
36.5101 23.459
36.557 23.3563
36.6041 23.1996
36.651 23.1083
36.6981 23.0699
36.745 23.0486
36.7921 22.8827
36.839 22.8492
36.8861 22.7151
36.9331 22.6147
36.9802 22.5687
37.0272 22.4599
37.0743 22.4419
37.1213 22.33
37.1684 22.3773
37.2154 22.2189
37.2626 22.2135
37.3098 22.1077
37.3568 22.0068
37.404 22.0405
37.451 21.8873
37.4982 21.8723
37.5452 21.7132
37.5924 21.7628
37.6395 21.6873
37.6867 21.6178
37.7337 21.4757
37.781 21.3886
37.8281 21.4655
37.8753 21.2528
37.9224 21.1883
37.9697 21.1231
38.0168 21.1208
38.064 21.0152
38.1111 20.9975
38.1584 20.9079
38.2056 20.8449
38.2529 20.7454
38.3 20.6545
38.3473 20.7
38.3945 20.5786
38.4418 20.4874
38.489 20.4791
38.5363 20.4067
38.5837 20.2708
38.6309 20.2452
38.6782 20.2207
38.7254 20.1349
38.7728 20.0557
38.82 19.9465
38.8674 19.888
38.9146 19.9153
38.9621 19.7719
39.0093 19.7323
39.0567 19.6848
39.104 19.5611
39.1514 19.4897
39.1987 19.5473
39.2461 19.4223
39.2934 19.334
39.3409 19.2283
39.3882 19.1774
39.4356 19.2015
39.483 19.1109
39.5304 19.0332
39.5778 19.0012
39.6253 18.9194
39.6726 18.8569
39.7201 18.8448
39.7675 18.7885
39.815 18.7571
39.8624 18.6155
39.9099 18.6117
39.9575 18.5724
40.0049 18.4742
40.0525 18.439
40.0999 18.3387
40.1474 18.2742
40.1949 18.2426
40.2425 18.1848
40.2899 18.1646
40.3375 18.0628
40.385 17.9688
40.4326 17.9508
40.48 17.8392
40.5277 17.8689
40.5752 17.8
40.6228 17.7437
40.6703 17.6289
40.718 17.5893
40.7655 17.6084
40.8132 17.4662
40.8607 17.4178
40.9084 17.393
40.9559 17.3564
41.0036 17.2831
41.0512 17.2902
41.0989 17.2015
41.1465 17.1319
41.1942 17.0908
41.242 16.9697
41.2896 16.9278
41.3373 16.9181
41.3849 16.8226
41.4327 16.7621
41.4803 16.6758
41.5281 16.6668
41.5758 16.5582
41.6236 16.5509
41.6712 16.4975
41.7191 16.4014
41.7667 16.325
41.8146 16.3021
41.8622 16.2525
41.9101 16.2087
41.9578 16.069
42.0057 16.0771
42.0534 15.9997
42.1013 15.9672
42.149 15.9072
42.1969 15.863
42.2446 15.8758
42.2925 15.7986
42.3403 15.7426
42.3882 15.6653
42.436 15.6276
42.4839 15.5758
42.5319 15.5201
42.5797 15.5322
42.6277 15.4693
42.6755 15.3145
42.7235 15.2749
42.7713 15.2392
42.8193 15.1998
42.8671 15.174
42.9152 15.1098
42.963 15.078
43.0111 14.9826
43.0589 14.9836
43.107 14.8623
43.1549 14.9252
43.2029 14.7597
43.2508 14.7076
43.2989 14.6775
43.3468 14.5526
43.3949 14.5053
43.4429 14.5274
43.491 14.4409
43.5389 14.4526
43.5871 14.3587
43.635 14.3047
43.6832 14.2504
43.7312 14.2212
43.7793 14.1459
43.8273 14.1456
43.8755 14.0678
43.9237 14.05
43.9717 14.0232
44.0199 13.9091
44.068 13.9169
44.1162 13.8517
44.1642 13.8428
44.2125 13.7773
44.2606 13.6812
44.3088 13.6983
44.3569 13.6604
44.4052 13.59
44.4533 13.4477
44.5016 13.424
44.5497 13.4388
44.598 13.3749
44.6461 13.3526
44.6945 13.2583
44.7426 13.24
44.791 13.1672
44.8391 13.1829
44.8875 13.0745
44.9357 13.0257
44.984 13.0006
45.0322 12.9275
45.0806 12.8848
45.1288 12.8159
45.1773 12.8153
45.2257 12.7444
45.2739 12.7517
45.3224 12.675
45.3706 12.6208
45.4191 12.5765
45.4673 12.5834
45.5158 12.5001
45.5641 12.4552
45.6126 12.3884
45.6609 12.3466
45.7094 12.2796
45.7577 12.2872
45.8063 12.17
45.8546 12.1629
45.9031 12.1625
45.9515 12.0935
46.0001 12.0567
46.0484 12.0301
46.097 11.9904
46.1454 11.9697
46.194 11.8873
46.2424 11.8217
46.291 11.7951
46.3395 11.7625
46.3881 11.7072
46.4365 11.6611
46.4852 11.6874
46.5337 11.5582
46.5823 11.5896
46.631 11.4752
46.6795 11.4387
46.7282 11.4598
46.7767 11.3737
46.8254 11.3216
46.8739 11.2975
46.9226 11.2076
46.9712 11.2007
47.0199 11.1416
47.0685 11.1293
47.1173 11.0763
47.1658 11.058
47.2146 10.9773
47.2632 10.9485
47.312 10.9545
47.3606 10.8686
47.4095 10.8045
47.4581 10.7818
47.5069 10.7168
47.5556 10.7126
47.6044 10.6331
47.6531 10.6107
47.702 10.5549
47.7507 10.5337
47.7996 10.4821
47.8483 10.4779
47.8972 10.4047
47.9461 10.3658
47.9948 10.3269
48.0438 10.31
48.0925 10.2773
48.1415 10.2948
48.1902 10.2017
48.2392 10.1823
48.288 10.155
48.337 10.0895
48.3858 10.066
48.4348 10.0157
48.4837 10.0161
48.5327 9.95399
48.5815 9.91429
48.6306 9.90479
48.6795 9.83899
48.7285 9.80763
48.7774 9.77883
48.8265 9.76202
48.8754 9.68868
48.9245 9.68191
48.9734 9.60295
49.0226 9.59593
49.0715 9.55222
49.1206 9.52983
49.1696 9.48971
49.2188 9.45847
49.2679 9.4187
49.3169 9.36
49.3661 9.31855
49.4151 9.28201
49.4643 9.32413
49.5134 9.21895
49.5626 9.18837
49.6117 9.19867
49.6609 9.11039
49.71 9.06317
49.7592 9.049
49.8083 9.00565
49.8576 9.02004
49.9067 8.91577
49.956 8.9192
50.0052 8.90073
50.0545 8.87445
50.1036 8.81013
50.153 8.78773
50.2022 8.7664
50.2515 8.68722
50.3007 8.67602
50.3501 8.61948
50.3993 8.60943
50.4487 8.55592
50.498 8.53925
50.5474 8.50367
50.5966 8.47446
50.6461 8.44
50.6955 8.38351
50.7448 8.37853
50.7943 8.34961
50.8436 8.31634
50.8931 8.27204
50.9424 8.24214
50.9919 8.23831
51.0413 8.245
51.0908 8.15399
51.1402 8.11924
51.1897 8.128
51.2391 8.08596
51.2887 8.05016
51.3381 7.95399
51.3877 7.97822
51.4371 7.9309
51.4867 7.86143
51.5362 7.84964
51.5858 7.86469
51.6353 7.79723
51.6849 7.74439
51.7344 7.75876
51.7841 7.72098
51.8336 7.69016
51.8833 7.64874
51.9328 7.59107
51.9826 7.53157
52.0323 7.51632
52.0818 7.53579
52.1316 7.42913
52.1812 7.47459
52.231 7.4024
52.2806 7.37179
52.3304 7.39069
52.38 7.31051
52.4298 7.30187
52.4794 7.27736
52.5293 7.24685
52.5789 7.20162
52.6288 7.15797
52.6785 7.15803
52.7284 7.10576
52.7781 7.06535
52.828 7.05701
52.8777 7.03225
52.9276 6.99676
52.9774 6.98633
53.0273 6.91759
53.0771 6.92079
53.1271 6.87375
53.1769 6.846
53.2269 6.83266
53.2767 6.76864
53.3267 6.78305
53.3765 6.72508
53.4266 6.71391
53.4766 6.66673
53.5265 6.63712
53.5765 6.6303
53.6264 6.5738
53.6765 6.55671
53.7264 6.56103
53.7765 6.54609
53.8265 6.44405
53.8766 6.44676
53.9266 6.4322
53.9767 6.38362
54.0267 6.41074
54.0769 6.28008
54.1269 6.30726
54.1771 6.18993
54.2271 6.20485
54.2773 6.20573
54.3274 6.20483
54.3776 6.11587
54.4277 6.08448
54.478 6.08751
54.528 6.03923
54.5783 5.95761
54.6285 5.89548
54.6788 5.88992
54.7289 5.89182
54.7792 5.80319
54.8296 5.7718
54.8798 5.66062
54.9301 5.67256
54.9803 5.66738
55.0307 5.67726
55.0809 5.5839
55.1314 5.55004
55.1816 5.45273
55.232 5.39808
55.2823 5.4381
55.3328 5.3267
55.383 5.26115
55.4335 5.21111
55.4838 5.16554
55.5344 5.14683
55.5847 5.11493
55.6352 5.08363
55.6856 5.0198
55.7361 5.03157