File: XRD/Ni3Fe_FD0661.xy
TT I
1.27165 7.18303
1.31627 6.68127
1.36089 6.79638
1.40551 6.17698
1.45013 6.37534
1.49476 6.38164
1.53938 5.88191
1.584 5.2898
1.62863 5.25901
1.67325 5.01529
1.71787 5.31324
1.7625 5.51474
1.80712 4.97479
1.85174 4.53298
1.89636 4.70428
1.94099 4.88004
1.98562 4.71766
2.03025 4.59706
2.07487 4.99672
2.11949 5.44653
2.16411 4.78961
2.20874 13.784
2.25338 22.4415
2.298 6.74096
2.34263 5.91213
2.38725 5.45246
2.43188 6.43397
2.4765 6.56133
2.52115 6.91364
2.56577 8.06477
2.6104 7.74477
2.65503 7.62182
2.69965 8.3365
2.7443 8.19615
2.78893 8.7392
2.83356 8.46866
2.87818 8.44255
2.92281 8.78765
2.96744 9.44327
3.01209 10.0535
3.05672 11.511
3.10135 12.4564
3.14599 12.8614
3.19062 14.3619
3.23527 14.9025
3.2799 15.6869
3.32454 16.7935
3.36917 18.1627
3.4138 18.9632
3.45844 19.5368
3.50309 20.8777
3.54773 21.275
3.59237 23.9709
3.637 92.4395
3.68164 59.0039
3.7263 26.5554
3.77094 26.5358
3.81558 27.4267
3.86022 27.4606
3.90486 28.9114
3.9495 29.4917
3.99416 30.8994
4.0388 32.1322
4.08344 33.3973
4.12809 34.2566
4.17273 37.2327
4.21738 42.3336
4.26204 249.744
4.30669 217.769
4.35133 48.3187
4.39598 44.2808
4.44063 54.1218
4.4853 65.4807
4.52995 50.0594
4.5746 51.3664
4.61925 53.0554
4.6639 55.4428
4.70855 57.6144
4.75322 60.1791
4.79788 63.511
4.84253 66.934
4.88719 70.9934
4.93184 74.6021
4.97652 80.9245
5.02118 86.741
5.06583 93.7741
5.11049 105.666
5.15515 174.422
5.19981 331.216
5.24449 2747.16
5.28916 12734.2
5.33382 2849.16
5.37848 185.375
5.42315 127.846
5.46783 112.814
5.5125 105.103
5.55716 101.359
5.60183 97.8273
5.6465 96.2281
5.69117 93.8959
5.73586 91.7225
5.78053 91.2272
5.8252 90.9858
5.86988 91.2488
5.91455 93.688
5.95924 102.21
6.00392 194.381
6.0486 943.158
6.09328 4570.41
6.13795 3262.06
6.18263 231.641
6.22733 92.2641
6.27201 82.8013
6.3167 101.775
6.36138 80.6623
6.40606 68.9004
6.45075 66.8804
6.49545 65.2599
6.54014 63.677
6.58483 62.8045
6.62952 62.3213
6.67421 93.5698
6.71892 145.002
6.76361 69.0263
6.8083 58.3881
6.853 57.6376
6.89769 56.8741
6.94239 56.5632
6.98711 55.964
7.03181 55.4382
7.07651 55.2418
7.12121 55.3862
7.16591 54.9231
7.21063 55.3215
7.25533 70.484
7.30004 179.383
7.34475 92.4053
7.38945 56.8032
7.43416 54.7504
7.47889 54.377
7.5236 54.5254
7.56831 55.4141
7.61303 56.9731
7.65774 57.348
7.70247 55.9834
7.74719 56.156
7.79191 56.7183
7.83663 56.6497
7.88135 57.6319
7.92607 58.7179
7.97081 59.7042
8.01553 60.6821
8.06026 61.8944
8.10498 64.0302
8.14971 73.1387
8.19446 72.4338
8.23919 69.535
8.28392 71.6964
8.32865 73.6828
8.37339 78.1096
8.41812 85.5731
8.46288 113.749
8.50761 158.8
8.55235 379.922
8.59709 1180.6
8.64183 2259.71
8.68658 937.872
8.73134 158.689
8.77609 99.2632
8.82083 92.1551
8.86558 88.9903
8.91033 89.2309
8.9551 91.0845
8.99985 84.9926
9.04461 83.057
9.08936 82.6379
9.13412 81.9608
9.17888 81.8306
9.22365 82.5806
9.26841 81.4117
9.31318 82.085
9.35794 82.2567
9.4027 82.8396
9.44749 83.5694
9.49226 83.934
9.53703 84.9472
9.5818 87.1155
9.62657 91.5497
9.67134 98.2896
9.71614 93.3031
9.76091 93.4514
9.80569 95.3115
9.85047 99.5469
9.89525 123.704
9.94005 135.894
9.98484 169.792
10.0296 335.426
10.0744 799.754
10.1192 1786.98
10.164 1603.54
10.2088 394.396
10.2536 124.504
10.2984 112.47
10.3432 114.378
10.388 104.046
10.4328 115.324
10.4776 156.543
10.5224 274.842
10.5672 515.536
10.612 509.315
10.6568 196.45
10.7017 95.081
10.7465 86.014
10.7913 82.9027
10.8361 80.8554
10.8809 78.5361
10.9257 78.2977
10.9706 78.7376
11.0154 74.8256
11.0602 72.4098
11.105 71.7314
11.1499 75.9273
11.1947 83.1234
11.2395 74.2709
11.2844 70.401
11.3292 67.0629
11.374 65.8756
11.4189 65.2539
11.4637 64.8227
11.5086 65.3773
11.5534 68.1606
11.5983 65.3565
11.6431 63.2553
11.688 62.9826
11.7328 62.8631
11.7777 62.7301
11.8225 62.3151
11.8674 62.1642
11.9122 62.6812
11.9571 62.6819
12.002 63.4816
12.0468 67.0447
12.0917 78.3632
12.1366 102.664
12.1814 153.214
12.2263 209.217
12.2712 165.23
12.3161 92.5765
12.3609 70.0444
12.4058 64.3277
12.4507 63.9922
12.4956 64.2842
12.5405 64.3463
12.5853 65.6909
12.6302 72.9056
12.6751 78.5594
12.72 69.7925
12.7649 67.7578
12.8098 68.0471
12.8547 69.2044
12.8996 70.5691
12.9445 72.0218
12.9894 73.878
13.0343 75.597
13.0792 78.5795
13.1242 86.7076
13.1691 110.561
13.214 147.152
13.2589 237.625
13.3038 381.933
13.3487 432.265
13.3937 258.632
13.4386 120.669
13.4835 103.523
13.5285 118.898
13.5734 156.499
13.6183 248.059
13.6633 356.867
13.7082 337.561
13.7531 178.806
13.7981 94.9043
13.843 81.095
13.888 79.1633
13.9329 76.8001
13.9779 75.7467
14.0228 74.2717
14.0678 72.7962
14.1127 72.4262
14.1577 72.2049
14.2027 71.2342
14.2476 70.2337
14.2926 70.3914
14.3376 71.5991
14.3825 70.1121
14.4275 68.6548
14.4725 68.4197
14.5175 68.5338
14.5624 68.7958
14.6074 70.7992
14.6524 71.2871
14.6974 70.4901
14.7424 71.4026
14.7874 77.862
14.8324 87.7207
14.8774 109.185
14.9224 153.51
14.9674 210.814
15.0124 220.116
15.0574 145.778
15.1024 88.6532
15.1474 71.7947
15.1924 70.1955
15.2374 70.9409
15.2824 70.1629
15.3274 67.8202
15.3725 66.8382
15.4175 66.205
15.4625 65.7249
15.5076 66.0487
15.5526 65.9192
15.5976 65.5676
15.6426 66.267
15.6877 71.1262
15.7327 78.9512
15.7778 93.5189
15.8228 125.292
15.8679 171.747
15.9129 197.056
15.958 156.503
16.003 95.5957
16.0481 67.2365
16.0931 64.6314
16.1382 62.6275
16.1833 60.6015
16.2283 58.7658
16.2734 58.1478
16.3185 58.4886
16.3636 59.3815
16.4086 57.8381
16.4537 56.2327
16.4988 55.5184
16.5439 55.2328
16.589 55.0375
16.6341 54.7308
16.6792 54.4194
16.7243 54.7522
16.7694 54.7465
16.8145 54.7349
16.8596 54.9765
16.9047 56.6742
16.9498 56.9129
16.9949 55.4501
17.04 55.6661
17.0851 56.8524
17.1302 58.3994
17.1754 61.3717
17.2205 66.4458
17.2656 74.2836
17.3108 83.4725
17.3559 82.4589
17.401 70.7321
17.4462 61.4649
17.4913 58.9181
17.5365 59.0255
17.5815 59.1686
17.6268 59.5231
17.6718 60.1611
17.7171 60.8796
17.7622 61.1024
17.8074 61.6577
17.8525 63.6925
17.8977 67.9151
17.9428 73.198
17.9881 81.6266
18.0331 99.4736
18.0784 123.518
18.1237 143.25
18.1688 131.84
18.214 102.476
18.2591 85.6461
18.3044 90.4573
18.3495 101.088
18.3948 106.994
18.4399 96.519
18.4852 77.0441
18.5303 65.5422
18.5756 62.0584
18.6207 60.9465
18.666 60.1777
18.7112 59.4273
18.7565 58.8456
18.8016 58.5874
18.8469 57.7941
18.892 57.5703
18.9374 56.8587
18.9825 56.8773
19.0278 56.8479
19.073 56.8269
19.1183 57.3309
19.1635 57.9723
19.2088 59.485
19.254 61.8715
19.2993 66.7251
19.3447 73.5558
19.3898 77.4236
19.4352 72.2736
19.4804 62.769
19.5257 56.3784
19.5709 53.936
19.6163 53.8702
19.6615 53.6524
19.7068 53.1218
19.752 53.2539
19.7974 53.3635
19.8426 54.224
19.888 55.1023
19.9332 56.0994
19.9786 58.5545
20.0238 62.1947
20.0692 67.546
20.1144 70.0609
20.1598 67.7406
20.205 63.0669
20.2504 61.8982
20.2957 63.9128
20.3411 65.9475
20.3863 63.863
20.4318 57.8001
20.477 53.4173
20.5224 51.5168
20.5677 51.0944
20.6131 50.3702
20.6586 49.5681
20.7038 49.4303
20.7493 49.1127
20.7945 48.9962
20.84 48.7549
20.8853 48.5395
20.9307 48.4914
20.976 48.5673
21.0215 48.493
21.0668 48.86
21.1122 49.4425
21.1575 49.9717
21.203 50.7474
21.2483 51.3745
21.2938 51.3527
21.3391 49.8967
21.3846 48.641
21.4299 48.2228
21.4754 48.3876
21.5207 48.3915
21.5662 48.683
21.6116 49.0108
21.6571 49.852
21.7024 50.6665
21.7479 52.5622
21.7933 55.2068
21.8388 59.0443
21.8843 63.1231
21.9297 65.1117
21.9752 63.3881
22.0206 59.2067
22.0661 56.4112
22.1115 55.9925
22.157 56.0346
22.2024 54.0149
22.248 51.2038
22.2933 49.7557
22.3389 49.026
22.3843 48.8518
22.4299 48.7232
22.4753 48.8637
22.5208 48.6426
22.5662 48.4559
22.6118 48.6822
22.6572 48.6565
22.7028 49.1067
22.7483 49.6109
22.7939 50.3727
22.8393 51.8922
22.8849 53.988
22.9303 56.4824
22.9759 58.0084
23.0214 57.452
23.067 54.5727
23.1126 50.9995
23.1581 49.1397
23.2037 48.6889
23.2492 48.7649
23.2948 48.8189
23.3403 48.9236
23.3859 49.6767
23.4314 50.69
23.477 52.5836
23.5225 54.8585
23.5682 57.245
23.6137 58.3578
23.6593 55.4995
23.7048 51.2852
23.7505 48.1715
23.796 46.5335
23.8417 45.9894
23.8872 45.5548
23.9329 45.1036
23.9784 44.8147
24.0241 44.5591
24.0697 44.269
24.1154 43.9815
24.1609 43.813
24.2066 43.772
24.2522 43.7905
24.2979 43.3296
24.3434 43.3778
24.3892 43.0794
24.4349 43.0096
24.4805 42.8372
24.5262 43.134
24.5718 42.996
24.6175 42.9132
24.6631 42.8041
24.7089 42.5355
24.7545 42.3439
24.8002 42.1968
24.8458 42.104
24.8916 41.9229
24.9372 42.0899
24.983 42.4452
25.0286 42.8761
25.0744 43.161
25.12 43.6098
25.1658 44.3656
25.2114 44.7346
25.2572 44.7097
25.3029 44.8445
25.3487 45.1355
25.3943 44.7434
25.4402 43.4646
25.4858 42.3792
25.5316 41.3539
25.5773 40.9098
25.6231 40.7897
25.669 40.4109
25.7147 40.3472
25.7605 40.4776
25.8062 40.5526
25.8521 40.5556
25.8977 40.4866
25.9436 40.7297
25.9893 40.8813
26.0352 41.5516
26.0809 41.706
26.1268 41.8763
26.1725 41.4024
26.2184 40.6287
26.2641 40.2529
26.31 40.0384
26.3557 40.0464
26.4017 40.0088
26.4474 40.4203
26.4933 40.6729
26.5391 41.2509
26.585 41.6456
26.6308 41.9939
26.6767 42.2683
26.7225 41.9032
26.7684 41.3747
26.8142 40.8478
26.8601 40.4937
26.9059 39.9877
26.9519 39.4431
26.9979 39.1524
27.0437 38.8841
27.0896 38.6877
27.1354 38.6301
27.1814 38.5786
27.2272 38.502
27.2732 38.5605
27.3191 38.2421
27.3651 38.4484
27.4109 38.3138
27.4569 38.5552
27.5027 38.5663
27.5488 38.6024
27.5946 38.3513
27.6407 38.0934
27.6865 37.9747
27.7326 37.7066
27.7784 37.8251
27.8245 37.7852
27.8703 37.8943
27.9164 38.135
27.9623 38.4416
28.0084 38.8353
28.0543 39.0357
28.1003 39.0311
28.1462 38.9051
28.1923 38.365
28.2384 38.0708
28.2843 37.5968
28.3304 37.1429
28.3764 36.6352
28.4225 36.4401
28.4684 36.2425
28.5145 35.8633
28.5605 35.8846
28.6066 35.582
28.6526 35.7107
28.6987 35.5963
28.7447 35.4702
28.7908 35.4373
28.8368 35.407
28.8829 35.4001
28.9289 35.4747
28.9751 35.1451
29.0211 34.8678
29.0673 34.6821
29.1133 34.4446
29.1595 34.375
29.2055 34.2814
29.2517 34.3977
29.2977 34.3627
29.3439 34.1841
29.3899 34.301
29.4361 34.1824
29.4824 33.9937
29.5284 33.6953
29.5746 33.3894
29.6207 33.102
29.6669 33.0548
29.713 32.9952
29.7593 32.7949
29.8053 32.8946
29.8516 32.7741
29.8977 32.7079
29.9439 32.5348
29.99 32.4554
30.0363 32.4583
30.0824 32.5411
30.1287 32.4405
30.1748 32.4694
30.2211 32.3555
30.2673 32.2043
30.3136 32.3152
30.3597 32.2315
30.406 32.0968
30.4522 32.0641
30.4985 32.0293
30.5447 32.1241
30.591 32.0877
30.6372 32.2004
30.6835 32.2466
30.7297 32.2119
30.7761 32.0892
30.8224 32.0024
30.8686 31.971
30.915 31.5963
30.9612 31.4801
31.0076 31.3883
31.0538 31.1983
31.1002 31.0616
31.1464 30.9948
31.1928 30.8859
31.2391 30.9964
31.2855 30.9123
31.3317 30.8002
31.3781 30.8487
31.4244 30.8332
31.4708 30.6925
31.5171 30.9259
31.5636 30.8087
31.6098 30.498
31.6563 30.4532
31.7026 30.248
31.7491 30.0778
31.7953 30.1947
31.8418 30.1863
31.8881 30.2054
31.9346 30.0768
31.9809 30.0668
32.0275 29.918
32.074 29.8023
32.1203 29.6199
32.1668 29.5253
32.2132 29.4121
32.2597 29.251
32.306 29.2099
32.3526 29.0236
32.399 28.8395
32.4455 28.7586
32.4919 28.683
32.5385 28.6391
32.5848 28.5137
32.6314 28.4407
32.6778 28.443
32.7244 28.2041
32.7708 28.1548
32.8174 28.1793
32.8638 27.9823
32.9104 28.0978
32.9569 27.9214
33.0035 27.8363
33.0499 27.834
33.0966 27.7857
33.143 27.8438
33.1897 27.7066
33.2361 27.6884
33.2828 27.5835
33.3293 27.4674
33.3759 27.3384
33.4226 27.1519
33.4691 27.176
33.5158 27.0209
33.5623 26.8956
33.609 26.6443
33.6555 26.6522
33.7022 26.5201
33.7487 26.5545
33.7954 26.4507
33.842 26.4119
33.8887 26.3543
33.9353 26.2019
33.982 26.1234
34.0286 26.0838
34.0753 25.9354
34.1219 25.8682
34.1687 25.9071
34.2152 25.757
34.262 25.688
34.3086 25.5558
34.3554 25.541
34.402 25.3446
34.4488 25.2339
34.4954 25.1957
34.5422 25.2242
34.5889 25.084
34.6357 24.9943
34.6825 24.9494
34.7292 24.8374
34.776 24.7209
34.8227 24.7069
34.8695 24.6023
34.9162 24.5864
34.9631 24.4524
35.0098 24.4761
35.0566 24.4102
35.1033 24.3026
35.1502 24.2757
35.1969 24.104
35.2438 24.1905
35.2906 24.109
35.3375 23.9993
35.3842 23.944
35.4311 23.9699
35.4779 24.0065
35.5248 23.8708
35.5716 23.7434
35.6185 23.6438
35.6653 23.5991
35.7123 23.5509
35.759 23.4852
35.806 23.3993
35.8528 23.2446
35.8998 23.1666
35.9468 23.1395
35.9936 23.1099
36.0406 23.0261
36.0874 23.0183
36.1345 22.8375
36.1813 22.8742
36.2283 22.7869
36.2752 22.5986
36.3222 22.6631
36.3691 22.5912
36.4161 22.3595
36.463 22.4613
36.5101 22.4455
36.557 22.3327
36.6041 22.232
36.651 22.1827
36.6981 22.0958
36.745 22.1499
36.7921 21.9405
36.839 21.8376
36.8861 21.8437
36.9331 21.7634
36.9802 21.6546
37.0272 21.6083
37.0743 21.5165
37.1213 21.4275
37.1684 21.4215
37.2154 21.3376
37.2626 21.2147
37.3098 21.1684
37.3568 21.125
37.404 21.0586
37.451 21.0048
37.4982 20.8994
37.5452 20.8172
37.5924 20.7706
37.6395 20.8344
37.6867 20.6974
37.7337 20.5846
37.781 20.5291
37.8281 20.4637
37.8753 20.4159
37.9224 20.2962
37.9697 20.2594
38.0168 20.2783
38.064 20.1495
38.1111 20.1737
38.1584 20.073
38.2056 20.0193
38.2529 19.9281
38.3 19.8511
38.3473 19.7948
38.3945 19.7305
38.4418 19.6929
38.489 19.6297
38.5363 19.5633
38.5837 19.474
38.6309 19.3937
38.6782 19.3174
38.7254 19.235
38.7728 19.2121
38.82 19.0797
38.8674 19.1211
38.9146 19.0514
38.9621 18.9477
39.0093 18.8605
39.0567 18.9498
39.104 18.8052
39.1514 18.7356
39.1987 18.7496
39.2461 18.6565
39.2934 18.5283
39.3409 18.453
39.3882 18.3536
39.4356 18.3505
39.483 18.3374
39.5304 18.2134
39.5778 18.2341
39.6253 18.1568
39.6726 18.084
39.7201 18.052
39.7675 17.9653
39.815 17.9321
39.8624 17.8171
39.9099 17.8815
39.9575 17.7165
40.0049 17.6657
40.0525 17.6364
40.0999 17.5622
40.1474 17.5276
40.1949 17.4594
40.2425 17.4013
40.2899 17.3837
40.3375 17.2955
40.385 17.2254
40.4326 17.2101
40.48 17.0811
40.5277 17.1331
40.5752 17.0447
40.6228 16.9566
40.6703 16.9415
40.718 16.8919
40.7655 16.8203
40.8132 16.7078
40.8607 16.7809
40.9084 16.6809
40.9559 16.5692
41.0036 16.5875
41.0512 16.4841
41.0989 16.4569
41.1465 16.411
41.1942 16.3338
41.242 16.2411
41.2896 16.1777
41.3373 16.1204
41.3849 16.1078
41.4327 16.0296
41.4803 15.9875
41.5281 15.9413
41.5758 15.8728
41.6236 15.8413
41.6712 15.7881
41.7191 15.7414
41.7667 15.7027
41.8146 15.6624
41.8622 15.58
41.9101 15.5582
41.9578 15.3934
42.0057 15.4522
42.0534 15.3986
42.1013 15.3397
42.149 15.338
42.1969 15.2116
42.2446 15.1701
42.2925 15.1134
42.3403 15.1254
42.3882 15.0625
42.436 15.0387
42.4839 14.9141
42.5319 14.871
42.5797 14.8243
42.6277 14.778
42.6755 14.6769
42.7235 14.5927
42.7713 14.5997
42.8193 14.5593
42.8671 14.488
42.9152 14.4642
42.963 14.4292
43.0111 14.3416
43.0589 14.3009
43.107 14.2332
43.1549 14.2287
43.2029 14.1708
43.2508 14.1633
43.2989 14.0732
43.3468 14.04
43.3949 13.9769
43.4429 13.9476
43.491 13.8898
43.5389 13.8781
43.5871 13.8305
43.635 13.768
43.6832 13.6753
43.7312 13.6275
43.7793 13.5488
43.8273 13.5541
43.8755 13.5425
43.9237 13.4687
43.9717 13.3933
44.0199 13.3684
44.068 13.3701
44.1162 13.2219
44.1642 13.2546
44.2125 13.2044
44.2606 13.1443
44.3088 13.0713
44.3569 13.0509
44.4052 13.0714
44.4533 12.9867
44.5016 12.8854
44.5497 12.8604
44.598 12.8025
44.6461 12.7675
44.6945 12.7549
44.7426 12.6816
44.791 12.6333
44.8391 12.6202
44.8875 12.5362
44.9357 12.5215
44.984 12.4559
45.0322 12.4554
45.0806 12.3778
45.1288 12.3117
45.1773 12.2966
45.2257 12.2325
45.2739 12.2074
45.3224 12.1881
45.3706 12.0971
45.4191 12.0508
45.4673 12.0799
45.5158 11.9906
45.5641 11.9309
45.6126 11.9065
45.6609 11.8623
45.7094 11.7877
45.7577 11.771
45.8063 11.6685
45.8546 11.643
45.9031 11.6771
45.9515 11.6273
46.0001 11.5706
46.0484 11.5489
46.097 11.4905
46.1454 11.4438
46.194 11.4185
46.2424 11.3969
46.291 11.3408
46.3395 11.3427
46.3881 11.2192
46.4365 11.1873
46.4852 11.1432
46.5337 11.1125
46.5823 11.0755
46.631 11.0612
46.6795 11.0081
46.7282 10.9714
46.7767 10.9705
46.8254 10.8471
46.8739 10.8311
46.9226 10.773
46.9712 10.7611
47.0199 10.7193
47.0685 10.6791
47.1173 10.6241
47.1658 10.607
47.2146 10.5582
47.2632 10.5088
47.312 10.4963
47.3606 10.4404
47.4095 10.3911
47.4581 10.4024
47.5069 10.3004
47.5556 10.2932
47.6044 10.2455
47.6531 10.1929
47.702 10.1665
47.7507 10.1328
47.7996 10.1114
47.8483 10.0604
47.8972 10.0022
47.9461 9.95006
47.9948 9.95705
48.0438 9.89632
48.0925 9.92078
48.1415 9.85075
48.1902 9.8046
48.2392 9.8065
48.288 9.7722
48.337 9.74706
48.3858 9.70715
48.4348 9.64852
48.4837 9.63004
48.5327 9.54514
48.5815 9.5447
48.6306 9.5209
48.6795 9.49876
48.7285 9.39381
48.7774 9.41373
48.8265 9.37307
48.8754 9.26949
48.9245 9.27915
48.9734 9.25403
49.0226 9.19108
49.0715 9.19103
49.1206 9.12293
49.1696 9.09623
49.2188 9.04636
49.2679 9.06407
49.3169 9.00111
49.3661 8.96326
49.4151 8.95513
49.4643 8.91466
49.5134 8.86093
49.5626 8.82193
49.6117 8.79226
49.6609 8.7987
49.71 8.71503
49.7592 8.67072
49.8083 8.66986
49.8576 8.63718
49.9067 8.59462
49.956 8.56207
50.0052 8.53022
50.0545 8.50036
50.1036 8.44714
50.153 8.42318
50.2022 8.40022
50.2515 8.37362
50.3007 8.30857
50.3501 8.27411
50.3993 8.27253
50.4487 8.24098
50.498 8.20158
50.5474 8.16539
50.5966 8.14386
50.6461 8.10951
50.6955 8.09148
50.7448 8.04846
50.7943 8.02435
50.8436 7.97609
50.8931 7.94109
50.9424 7.93736
50.9919 7.87614
51.0413 7.87708
51.0908 7.82368
51.1402 7.8075
51.1897 7.75989
51.2391 7.71892
51.2887 7.69697
51.3381 7.6723
51.3877 7.67166
51.4371 7.58647
51.4867 7.59123
51.5362 7.561
51.5858 7.52373
51.6353 7.48599
51.6849 7.45792
51.7344 7.42999
51.7841 7.43893
51.8336 7.36855
51.8833 7.34859
51.9328 7.31577
51.9826 7.26684
52.0323 7.20838
52.0818 7.23897
52.1316 7.16873
52.1812 7.16701
52.231 7.10139
52.2806 7.09052
52.3304 7.07753
52.38 7.0836
52.4298 7.03499
52.4794 6.98466
52.5293 6.93262
52.5789 6.9699
52.6288 6.88073
52.6785 6.86024
52.7284 6.82789
52.7781 6.84582
52.828 6.78602
52.8777 6.75393
52.9276 6.72228
52.9774 6.70289
53.0273 6.67042
53.0771 6.66351
53.1271 6.62818
53.1769 6.58366
53.2269 6.57684
53.2767 6.51926
53.3267 6.51101
53.3765 6.48923
53.4266 6.47033
53.4766 6.41931
53.5265 6.385
53.5765 6.37311
53.6264 6.32051
53.6765 6.30757
53.7264 6.31018
53.7765 6.284
53.8265 6.25235
53.8766 6.19966
53.9266 6.19096
53.9767 6.13318
54.0267 6.1526
54.0769 6.09159
54.1269 6.06074
54.1771 6.0273
54.2271 6.01764
54.2773 5.91946
54.3274 5.96603
54.3776 5.86958
54.4277 5.88091
54.478 5.80414
54.528 5.85463
54.5783 5.75912
54.6285 5.72298
54.6788 5.67768
54.7289 5.62953
54.7792 5.56777
54.8296 5.54611
54.8798 5.52901
54.9301 5.47044
54.9803 5.41904
55.0307 5.39597
55.0809 5.36864
55.1314 5.36685
55.1816 5.29252
55.232 5.28016
55.2823 5.23864
55.3328 5.14233
55.383 5.13418
55.4335 5.01431
55.4838 4.9631
55.5344 4.96488
55.5847 4.94192
55.6352 4.85918
55.6856 4.8164
55.7361 4.85999