File: XRD/Ni3Fe_FD0079.xy
TT I
1.27165 10.8945
1.31627 9.88004
1.36089 10.2041
1.40551 8.32926
1.45013 8.75511
1.49476 8.70545
1.53938 7.81011
1.584 8.11172
1.62863 7.31162
1.67325 6.77582
1.71787 6.78875
1.7625 6.68452
1.80712 6.23452
1.85174 6.37348
1.89636 7.01693
1.94099 6.28321
1.98562 6.86346
2.03025 6.84487
2.07487 6.6068
2.11949 6.48207
2.16411 6.49595
2.20874 6.03067
2.25338 5.43789
2.298 5.17441
2.34263 5.02347
2.38725 5.40527
2.43188 5.05776
2.4765 4.93157
2.52115 4.53142
2.56577 4.14621
2.6104 5.62059
2.65503 5.12594
2.69965 5.65723
2.7443 6.3525
2.78893 6.3555
2.83356 6.80984
2.87818 8.10862
2.92281 8.6025
2.96744 9.577
3.01209 10.5943
3.05672 11.7931
3.10135 13.1943
3.14599 13.5291
3.19062 14.3189
3.23527 15.3812
3.2799 16.2984
3.32454 16.9565
3.36917 17.5004
3.4138 18.8999
3.45844 19.1564
3.50309 20.4596
3.54773 20.7333
3.59237 21.8217
3.637 22.2051
3.68164 22.516
3.7263 24.2062
3.77094 24.3437
3.81558 24.8153
3.86022 25.9198
3.90486 27.6479
3.9495 27.8863
3.99416 28.5493
4.0388 29.6285
4.08344 30.8483
4.12809 31.9719
4.17273 33.2437
4.21738 34.475
4.26204 35.5704
4.30669 37.1081
4.35133 39.387
4.39598 40.1695
4.44063 42.1193
4.4853 43.6108
4.52995 45.8746
4.5746 47.8278
4.61925 50.1066
4.6639 52.5808
4.70855 55.9827
4.75322 58.4332
4.79788 61.9008
4.84253 65.6976
4.88719 70.9689
4.93184 77.1849
4.97652 86.6418
5.02118 99.4161
5.06583 114.668
5.11049 139.131
5.15515 201.904
5.19981 752.09
5.24449 3151.79
5.28916 4349.12
5.33382 8221.72
5.37848 1425.08
5.42315 277.041
5.46783 166.389
5.5125 136.096
5.55716 121.405
5.60183 111.982
5.6465 107.764
5.69117 104.802
5.73586 102.265
5.78053 102.357
5.8252 104.471
5.86988 110.0
5.91455 123.218
5.95924 158.171
6.00392 382.13
6.0486 1231.38
6.09328 1357.94
6.13795 3309.45
6.18263 1362.3
6.22733 211.15
6.27201 112.855
6.3167 88.4888
6.36138 77.3344
6.40606 70.4209
6.45075 66.7854
6.49545 63.9673
6.54014 61.5077
6.58483 59.3029
6.62952 58.0436
6.67421 56.3231
6.71892 55.5793
6.76361 54.3014
6.8083 53.4007
6.853 52.8682
6.89769 52.4617
6.94239 52.1596
6.98711 51.3119
7.03181 51.2397
7.07651 50.9344
7.12121 50.5023
7.16591 50.3521
7.21063 50.0088
7.25533 49.5721
7.30004 50.0513
7.34475 49.9397
7.38945 50.3938
7.43416 50.4389
7.47889 52.552
7.5236 75.357
7.56831 145.446
7.61303 84.9253
7.65774 54.8057
7.70247 52.7169
7.74719 52.0042
7.79191 52.4482
7.83663 52.8728
7.88135 53.4509
7.92607 54.3273
7.97081 55.4584
8.01553 56.5825
8.06026 57.6276
8.10498 58.6387
8.14971 60.784
8.19446 62.2821
8.23919 65.1447
8.28392 68.0964
8.32865 71.4181
8.37339 76.9835
8.41812 84.1279
8.46288 101.692
8.50761 198.86
8.55235 591.812
8.59709 530.625
8.64183 673.563
8.68658 1738.01
8.73134 844.127
8.77609 163.954
8.82083 107.47
8.86558 94.1716
8.91033 87.8551
8.9551 84.5243
8.99985 82.7197
9.04461 81.5434
9.08936 81.2154
9.13412 81.0369
9.17888 83.8875
9.22365 120.292
9.26841 231.948
9.31318 153.143
9.35794 88.5786
9.4027 81.5736
9.44749 80.9111
9.49226 80.984
9.53703 81.4443
9.5818 82.7655
9.62657 83.1202
9.67134 84.6417
9.71614 86.7115
9.76091 88.7819
9.80569 91.7272
9.85047 95.8885
9.89525 102.905
9.94005 118.867
9.98484 208.15
10.0296 543.674
10.0744 513.647
10.1192 420.446
10.164 1096.41
10.2088 1455.83
10.2536 418.471
10.2984 136.734
10.3432 112.471
10.388 106.051
10.4328 124.948
10.4776 215.629
10.5224 203.034
10.5672 168.097
10.612 319.276
10.6568 490.939
10.7017 238.059
10.7465 116.504
10.7913 85.8155
10.8361 78.795
10.8809 75.0908
10.9257 72.4834
10.9706 71.0627
11.0154 69.311
11.0602 67.6471
11.105 66.3769
11.1499 65.0987
11.1947 64.369
11.2395 63.4137
11.2844 62.4961
11.3292 61.8777
11.374 61.2414
11.4189 60.6374
11.4637 60.0997
11.5086 59.2187
11.5534 58.8727
11.5983 58.7095
11.6431 58.6766
11.688 58.6037
11.7328 58.1696
11.7777 58.0725
11.8225 58.5022
11.8674 59.4105
11.9122 65.0712
11.9571 90.097
12.002 92.8541
12.0468 75.5432
12.0917 89.5728
12.1366 96.0957
12.1814 83.3925
12.2263 90.1579
12.2712 150.306
12.3161 174.434
12.3609 94.7379
12.4058 65.1073
12.4507 60.9191
12.4956 60.2635
12.5405 59.6018
12.5853 59.8322
12.6302 59.9832
12.6751 60.5627
12.72 61.1543
12.7649 62.074
12.8098 62.7567
12.8547 63.7975
12.8996 65.2934
12.9445 66.6341
12.9894 68.7049
13.0343 70.8303
13.0792 78.1629
13.1242 91.6997
13.1691 136.339
13.214 177.179
13.2589 147.383
13.3038 131.795
13.3487 192.461
13.3937 366.88
13.4386 317.898
13.4835 153.877
13.5285 159.347
13.5734 166.709
13.6183 130.276
13.6633 127.045
13.7082 207.579
13.7531 343.675
13.7981 239.617
13.843 103.093
13.888 79.8616
13.9329 75.039
13.9779 73.043
14.0228 71.6036
14.0678 70.824
14.1127 73.9597
14.1577 91.5403
14.2027 92.7311
14.2476 75.9819
14.2926 67.6245
14.3376 66.1597
14.3825 65.1689
14.4275 64.8721
14.4725 64.5121
14.5175 64.5614
14.5624 64.5587
14.6074 64.6459
14.6524 65.1501
14.6974 66.0159
14.7424 68.1764
14.7874 78.5525
14.8324 104.408
14.8774 108.097
14.9224 92.2883
14.9674 89.8975
15.0124 117.888
15.0574 193.468
15.1024 188.254
15.1474 103.129
15.1924 73.5056
15.2374 67.045
15.2824 64.7239
15.3274 63.6266
15.3725 62.7204
15.4175 62.3651
15.4625 62.0056
15.5076 61.9943
15.5526 61.9988
15.5976 62.2248
15.6426 63.5579
15.6877 71.6177
15.7327 92.7369
15.7778 98.4679
15.8228 84.9448
15.8679 79.412
15.9129 91.3584
15.958 147.242
16.003 185.346
16.0481 127.123
16.0931 80.4558
16.1382 65.9733
16.1833 59.6883
16.2283 56.6541
16.2734 55.2824
16.3185 54.5132
16.3636 53.6118
16.4086 52.9176
16.4537 52.5413
16.4988 51.9944
16.5439 51.8398
16.589 51.5912
16.6341 51.1352
16.6792 50.9233
16.7243 51.1023
16.7694 50.9144
16.8145 50.9799
16.8596 51.3111
16.9047 52.7439
16.9498 55.025
16.9949 54.792
17.04 53.3653
17.0851 53.8626
17.1302 57.9681
17.1754 60.5269
17.2205 58.1475
17.2656 56.4799
17.3108 57.9424
17.3559 63.3454
17.401 76.4956
17.4462 77.4677
17.4913 63.3758
17.5365 56.5849
17.5815 55.4121
17.6268 55.5895
17.6718 55.9897
17.7171 56.577
17.7622 59.293
17.8074 61.1906
17.8525 62.0884
17.8977 69.0387
17.9428 80.1791
17.9881 80.0985
18.0331 73.154
18.0784 70.8337
18.1237 77.4366
18.1688 105.05
18.214 145.076
18.2591 132.645
18.3044 88.4195
18.3495 71.0362
18.3948 71.9782
18.4399 86.1899
18.4852 101.224
18.5303 88.7805
18.5756 68.763
18.6207 61.706
18.666 58.7772
18.7112 56.8819
18.7565 55.8653
18.8016 55.5185
18.8469 54.9721
18.892 54.4834
18.9374 54.0487
18.9825 53.5622
19.0278 53.6436
19.073 53.8267
19.1183 54.2969
19.1635 56.5213
19.2088 58.4616
19.254 57.4752
19.2993 57.148
19.3447 59.2165
19.3898 60.3494
19.4352 63.8147
19.4804 71.2329
19.5257 68.9575
19.5709 58.1532
19.6163 52.2674
19.6615 51.1228
19.7068 50.4394
19.752 50.3442
19.7974 50.4393
19.8426 51.3866
19.888 53.7214
19.9332 54.5923
19.9786 53.4557
20.0238 52.0256
20.0692 53.1851
20.1144 55.9645
20.1598 62.2511
20.205 67.9625
20.2504 65.3122
20.2957 57.0802
20.3411 52.973
20.3863 55.0885
20.4318 61.2065
20.477 61.7662
20.5224 54.6355
20.5677 49.2032
20.6131 47.6501
20.6586 47.0258
20.7038 46.7897
20.7493 47.0445
20.7945 47.6191
20.84 47.561
20.8853 46.7176
20.9307 45.8402
20.976 46.0274
21.0215 46.0282
21.0668 46.3986
21.1122 46.1318
21.1575 45.8542
21.203 45.5292
21.2483 45.6973
21.2938 46.5329
21.3391 47.7001
21.3846 48.5708
21.4299 47.3667
21.4754 46.2995
21.5207 45.9887
21.5662 46.1866
21.6116 46.4362
21.6571 48.1211
21.7024 49.9694
21.7479 50.031
21.7933 48.8163
21.8388 48.8132
21.8843 49.9325
21.9297 51.4447
21.9752 55.6221
22.0206 61.8316
22.0661 61.5092
22.1115 55.5227
22.157 51.373
22.2024 52.2398
22.248 53.8117
22.2933 52.5074
22.3389 48.9818
22.3843 46.8464
22.4299 46.0275
22.4753 45.9663
22.5208 45.7612
22.5662 45.7327
22.6118 45.8316
22.6572 46.1444
22.7028 47.2814
22.7483 48.7104
22.7939 48.7455
22.8393 47.9557
22.8849 47.465
22.9303 47.1465
22.9759 47.551
23.0214 49.0038
23.067 53.3593
23.1126 55.7287
23.1581 53.4042
23.2037 48.8698
23.2492 46.8461
23.2948 47.1014
23.3403 48.2634
23.3859 48.914
23.4314 48.5071
23.477 47.6356
23.5225 47.0166
23.5682 46.5791
23.6137 47.4935
23.6593 50.1501
23.7048 54.8767
23.7505 55.1383
23.796 50.3777
23.8417 45.6479
23.8872 43.7079
23.9329 43.1938
23.9784 42.856
24.0241 42.4232
24.0697 42.2497
24.1154 41.9186
24.1609 41.6013
24.2066 41.4049
24.2522 41.4368
24.2979 41.0502
24.3434 40.8971
24.3892 40.7139
24.4349 40.6216
24.4805 40.2932
24.5262 40.4352
24.5718 40.2143
24.6175 40.4642
24.6631 40.7705
24.7089 40.7807
24.7545 40.6949
24.8002 40.1995
24.8458 40.0925
24.8916 39.9216
24.9372 40.066
24.983 40.1067
25.0286 40.1639
25.0744 40.505
25.12 40.5541
25.1658 40.5142
25.2114 40.5791
25.2572 41.164
25.3029 41.8104
25.3487 41.4736
25.3943 40.9961
25.4402 41.4242
25.4858 42.5615
25.5316 42.2959
25.5773 40.5206
25.6231 39.236
25.669 38.585
25.7147 38.396
25.7605 38.3882
25.8062 38.6608
25.8521 38.8485
25.8977 38.5003
25.9436 38.367
25.9893 38.0689
26.0352 38.1104
26.0809 37.9179
26.1268 38.1685
26.1725 38.6402
26.2184 39.4528
26.2641 39.6934
26.31 39.2344
26.3557 38.7536
26.4017 38.3328
26.4474 38.2089
26.4933 38.0128
26.5391 38.088
26.585 38.1654
26.6308 38.0026
26.6767 37.9909
26.7225 38.8452
26.7684 39.7453
26.8142 40.0713
26.8601 39.3542
26.9059 38.6669
26.9519 38.3318
26.9979 38.5415
27.0437 37.6817
27.0896 37.0338
27.1354 36.8983
27.1814 36.6256
27.2272 36.6261
27.2732 36.5322
27.3191 36.1858
27.3651 36.3177
27.4109 36.1624
27.4569 36.1072
27.5027 36.0008
27.5488 36.1774
27.5946 36.0437
27.6407 36.2836
27.6865 36.5189
27.7326 36.4795
27.7784 36.4318
27.8245 36.0118
27.8703 35.9099
27.9164 35.9266
27.9623 35.8377
28.0084 35.8513
28.0543 35.7451
28.1003 35.7899
28.1462 36.3259
28.1923 36.7563
28.2384 36.9033
28.2843 36.3658
28.3304 35.7918
28.3764 35.7488
28.4225 35.4613
28.4684 35.0217
28.5145 34.3221
28.5605 34.1388
28.6066 33.9298
28.6526 33.8682
28.6987 33.6837
28.7447 33.516
28.7908 33.4005
28.8368 33.2883
28.8829 33.1205
28.9289 33.2074
28.9751 33.0742
29.0211 33.1114
29.0673 33.1603
29.1133 33.126
29.1595 32.8424
29.2055 32.4496
29.2517 32.2347
29.2977 32.1817
29.3439 31.9764
29.3899 32.0088
29.4361 31.8725
29.4824 31.8989
29.5284 32.0535
29.5746 32.0238
29.6207 31.7578
29.6669 31.4131
29.713 31.0925
29.7593 31.0348
29.8053 31.0596
29.8516 30.9427
29.8977 30.9036
29.9439 30.6972
29.99 30.7321
30.0363 30.6821
30.0824 30.6542
30.1287 30.4477
30.1748 30.387
30.2211 30.4225
30.2673 30.2957
30.3136 30.4877
30.3597 30.6754
30.406 30.586
30.4522 30.4089
30.4985 30.2392
30.5447 30.2745
30.591 30.0397
30.6372 30.0618
30.6835 29.926
30.7297 29.8776
30.7761 30.0312
30.8224 30.1653
30.8686 30.2866
30.915 30.1724
30.9612 30.1079
31.0076 29.8557
31.0538 29.6112
31.1002 29.574
31.1464 29.4366
31.1928 29.3191
31.2391 29.2636
31.2855 29.0471
31.3317 28.9548
31.3781 28.9843
31.4244 28.9252
31.4708 28.8497
31.5171 28.8446
31.5636 28.9823
31.6098 28.9344
31.6563 28.9933
31.7026 28.9119
31.7491 28.5894
31.7953 28.4816
31.8418 28.3353
31.8881 28.2866
31.9346 28.1994
31.9809 28.0536
32.0275 28.0344
32.074 28.1092
32.1203 28.1946
32.1668 28.1026
32.2132 27.901
32.2597 27.6863
32.306 27.7593
32.3526 27.4235
32.399 27.3364
32.4455 27.2094
32.4919 27.109
32.5385 27.0842
32.5848 26.8192
32.6314 26.9187
32.6778 26.7833
32.7244 26.692
32.7708 26.5761
32.8174 26.6531
32.8638 26.4138
32.9104 26.4499
32.9569 26.3281
33.0035 26.229
33.0499 26.2348
33.0966 26.1128
33.143 26.0212
33.1897 25.9172
33.2361 25.9005
33.2828 25.8637
33.3293 25.7483
33.3759 25.8767
33.4226 25.7559
33.4691 25.6608
33.5158 25.7121
33.5623 25.5609
33.609 25.2745
33.6555 25.1574
33.7022 24.9963
33.7487 24.9527
33.7954 24.8153
33.842 24.9024
33.8887 24.7774
33.9353 24.6542
33.982 24.5895
34.0286 24.5756
34.0753 24.5183
34.1219 24.4156
34.1687 24.326
34.2152 24.1926
34.262 24.0942
34.3086 24.0703
34.3554 23.9163
34.402 23.8275
34.4488 23.7733
34.4954 23.8617
34.5422 23.7849
34.5889 23.6471
34.6357 23.5839
34.6825 23.4783
34.7292 23.3192
34.776 23.2253
34.8227 23.306
34.8695 23.168
34.9162 23.0987
34.9631 23.0758
35.0098 22.9605
35.0566 22.9384
35.1033 22.8633
35.1502 22.8254
35.1969 22.7182
35.2438 22.7021
35.2906 22.6182
35.3375 22.5344
35.3842 22.4791
35.4311 22.4744
35.4779 22.4104
35.5248 22.4391
35.5716 22.3747
35.6185 22.3644
35.6653 22.3067
35.7123 22.2241
35.759 22.1292
35.806 22.0812
35.8528 21.8597
35.8998 21.8412
35.9468 21.7864
35.9936 21.7144
36.0406 21.6462
36.0874 21.6167
36.1345 21.5177
36.1813 21.3977
36.2283 21.4175
36.2752 21.3132
36.3222 21.2918
36.3691 21.3145
36.4161 21.1449
36.463 21.1429
36.5101 21.0687
36.557 20.9702
36.6041 20.9038
36.651 20.9082
36.6981 20.8277
36.745 20.7815
36.7921 20.7315
36.839 20.6054
36.8861 20.576
36.9331 20.5009
36.9802 20.4364
37.0272 20.3739
37.0743 20.171
37.1213 20.1588
37.1684 20.1215
37.2154 20.0835
37.2626 20.0076
37.3098 19.9055
37.3568 19.8754
37.404 19.8439
37.451 19.7367
37.4982 19.6966
37.5452 19.6659
37.5924 19.6164
37.6395 19.5985
37.6867 19.482
37.7337 19.442
37.781 19.365
37.8281 19.3256
37.8753 19.2329
37.9224 19.1364
37.9697 19.1344
38.0168 19.0515
38.064 18.9822
38.1111 18.9163
38.1584 18.8068
38.2056 18.7535
38.2529 18.7446
38.3 18.6297
38.3473 18.649
38.3945 18.5047
38.4418 18.4689
38.489 18.3863
38.5363 18.3442
38.5837 18.3205
38.6309 18.2744
38.6782 18.1785
38.7254 18.1363
38.7728 18.0824
38.82 17.979
38.8674 18.0245
38.9146 17.9289
38.9621 17.8604
39.0093 17.8177
39.0567 17.7516
39.104 17.6693
39.1514 17.6005
39.1987 17.6159
39.2461 17.5596
39.2934 17.4827
39.3409 17.3582
39.3882 17.284
39.4356 17.3124
39.483 17.2565
39.5304 17.2304
39.5778 17.1802
39.6253 17.0161
39.6726 17.0193
39.7201 17.0005
39.7675 16.8909
39.815 16.862
39.8624 16.8074
39.9099 16.8261
39.9575 16.7241
40.0049 16.6474
40.0525 16.6166
40.0999 16.5393
40.1474 16.4516
40.1949 16.452
40.2425 16.35
40.2899 16.3611
40.3375 16.3314
40.385 16.2444
40.4326 16.24
40.48 16.1325
40.5277 16.1381
40.5752 16.0585
40.6228 15.9832
40.6703 15.9555
40.718 15.9284
40.7655 15.8262
40.8132 15.7832
40.8607 15.793
40.9084 15.7816
40.9559 15.6794
41.0036 15.6431
41.0512 15.5957
41.0989 15.5752
41.1465 15.5082
41.1942 15.4542
41.242 15.3856
41.2896 15.2884
41.3373 15.2367
41.3849 15.2225
41.4327 15.1153
41.4803 15.0251
41.5281 15.0239
41.5758 14.9333
41.6236 14.9453
41.6712 14.9235
41.7191 14.8586
41.7667 14.7751
41.8146 14.7657
41.8622 14.7126
41.9101 14.6902
41.9578 14.5698
42.0057 14.5511
42.0534 14.453
42.1013 14.4634
42.149 14.4245
42.1969 14.3603
42.2446 14.3326
42.2925 14.2528
42.3403 14.2542
42.3882 14.1598
42.436 14.172
42.4839 14.0566
42.5319 14.0195
42.5797 13.9842
42.6277 13.9224
42.6755 13.9063
42.7235 13.7937
42.7713 13.8085
42.8193 13.7819
42.8671 13.7145
42.9152 13.6998
42.963 13.6077
43.0111 13.5458
43.0589 13.4888
43.107 13.4639
43.1549 13.4509
43.2029 13.3423
43.2508 13.3713
43.2989 13.3199
43.3468 13.261
43.3949 13.1863
43.4429 13.1577
43.491 13.0973
43.5389 13.0854
43.5871 13.0468
43.635 12.9814
43.6832 12.9421
43.7312 12.8618
43.7793 12.7886
43.8273 12.7883
43.8755 12.769
43.9237 12.6639
43.9717 12.7075
44.0199 12.613
44.068 12.614
44.1162 12.508
44.1642 12.5401
44.2125 12.5091
44.2606 12.3953
44.3088 12.3159
44.3569 12.3513
44.4052 12.3124
44.4533 12.2341
44.5016 12.1643
44.5497 12.14
44.598 12.0628
44.6461 12.0691
44.6945 12.0413
44.7426 11.9757
44.791 11.9273
44.8391 11.8701
44.8875 11.8486
44.9357 11.801
44.984 11.7853
45.0322 11.6948
45.0806 11.6624
45.1288 11.6735
45.1773 11.5943
45.2257 11.5652
45.2739 11.5372
45.3224 11.4641
45.3706 11.4469
45.4191 11.3733
45.4673 11.3792
45.5158 11.3626
45.5641 11.2878
45.6126 11.2294
45.6609 11.2129
45.7094 11.1504
45.7577 11.1322
45.8063 11.0998
45.8546 11.044
45.9031 10.9952
45.9515 10.9722
46.0001 10.8909
46.0484 10.8531
46.097 10.8091
46.1454 10.8193
46.194 10.7666
46.2424 10.6953
46.291 10.6776
46.3395 10.6291
46.3881 10.5879
46.4365 10.5953
46.4852 10.5295
46.5337 10.4888
46.5823 10.4686
46.631 10.4142
46.6795 10.3526
46.7282 10.3515
46.7767 10.327
46.8254 10.2554
46.8739 10.2013
46.9226 10.151
46.9712 10.1758
47.0199 10.1232
47.0685 10.0885
47.1173 10.0509
47.1658 10.0273
47.2146 9.98917
47.2632 9.89825
47.312 9.91213
47.3606 9.8577
47.4095 9.8312
47.4581 9.76778
47.5069 9.77275
47.5556 9.68721
47.6044 9.65238
47.6531 9.67424
47.702 9.60111
47.7507 9.56826
47.7996 9.51262
47.8483 9.53425
47.8972 9.45992
47.9461 9.46318
47.9948 9.3902
48.0438 9.38094
48.0925 9.36579
48.1415 9.30207
48.1902 9.26532
48.2392 9.24435
48.288 9.21718
48.337 9.1662
48.3858 9.13724
48.4348 9.10665
48.4837 9.08258
48.5327 9.0627
48.5815 9.03121
48.6306 8.98376
48.6795 8.95379
48.7285 8.89928
48.7774 8.88675
48.8265 8.8611
48.8754 8.81083
48.9245 8.8044
48.9734 8.7045
49.0226 8.76051
49.0715 8.6902
49.1206 8.62593
49.1696 8.60661
49.2188 8.59909
49.2679 8.58458
49.3169 8.55224
49.3661 8.47397
49.4151 8.47765
49.4643 8.44401
49.5134 8.43366
49.5626 8.37839
49.6117 8.34742
49.6609 8.32534
49.71 8.25714
49.7592 8.25168
49.8083 8.23057
49.8576 8.21928
49.9067 8.12826
49.956 8.13306
50.0052 8.07057
50.0545 8.0942
50.1036 7.9969
50.153 7.98908
50.2022 7.96189
50.2515 7.96284
50.3007 7.90663
50.3501 7.87155
50.3993 7.82799
50.4487 7.81833
50.498 7.79996
50.5474 7.78467
50.5966 7.70645
50.6461 7.67764
50.6955 7.68147
50.7448 7.65053
50.7943 7.6084
50.8436 7.60153
50.8931 7.55036
50.9424 7.5394
50.9919 7.48988
51.0413 7.46268
51.0908 7.41869
51.1402 7.41451
51.1897 7.3645
51.2391 7.37078
51.2887 7.30116
51.3381 7.27753
51.3877 7.25801
51.4371 7.22306
51.4867 7.19567
51.5362 7.18315
51.5858 7.12531
51.6353 7.09208
51.6849 7.07513
51.7344 7.06972
51.7841 7.03002
51.8336 6.97618
51.8833 6.9716
51.9328 6.92985
51.9826 6.88467
52.0323 6.86809
52.0818 6.86192
52.1316 6.78879
52.1812 6.78664
52.231 6.74946
52.2806 6.73763
52.3304 6.70639
52.38 6.72144
52.4298 6.62895
52.4794 6.60813
52.5293 6.59788
52.5789 6.55921
52.6288 6.56761
52.6785 6.49817
52.7284 6.47265
52.7781 6.47815
52.828 6.43111
52.8777 6.40868
52.9276 6.38824
52.9774 6.36771
53.0273 6.33066
53.0771 6.30844
53.1271 6.29535
53.1769 6.22376
53.2269 6.1916
53.2767 6.20688
53.3267 6.17581
53.3765 6.13305
53.4266 6.12564
53.4766 6.07745
53.5265 6.01548
53.5765 6.04597
53.6264 5.99885
53.6765 5.97098
53.7264 5.96654
53.7765 5.91964
53.8265 5.88303
53.8766 5.89341
53.9266 5.84539
53.9767 5.79402
54.0267 5.81195
54.0769 5.75511
54.1269 5.72824
54.1771 5.64411
54.2271 5.68512
54.2773 5.57787
54.3274 5.58175
54.3776 5.51038
54.4277 5.46627
54.478 5.46641
54.528 5.42375
54.5783 5.344
54.6285 5.28696
54.6788 5.33058
54.7289 5.24785
54.7792 5.21474
54.8296 5.13971
54.8798 5.08115
54.9301 5.02628
54.9803 5.06657
55.0307 5.00712
55.0809 4.92674
55.1314 4.94092
55.1816 4.86686
55.232 4.83342
55.2823 4.80981
55.3328 4.70521
55.383 4.65266
55.4335 4.62571
55.4838 4.60032
55.5344 4.58003
55.5847 4.50131
55.6352 4.46688
55.6856 4.48666
55.7361 4.43586