File: XRD/Ni3Fe_FD1084.xy
TT I
1.27165 7.16778
1.31627 6.37324
1.36089 6.02296
1.40551 6.09385
1.45013 5.48871
1.49476 5.67023
1.53938 5.53045
1.584 4.65042
1.62863 4.77262
1.67325 4.80033
1.71787 4.73652
1.7625 4.24057
1.80712 4.84762
1.85174 4.35556
1.89636 4.5583
1.94099 4.91855
1.98562 4.14039
2.03025 4.31832
2.07487 4.07255
2.11949 4.35719
2.16411 4.1908
2.20874 5.23884
2.25338 6.11902
2.298 5.7095
2.34263 5.10364
2.38725 5.39638
2.43188 5.84414
2.4765 7.04187
2.52115 7.18965
2.56577 7.83815
2.6104 8.3008
2.65503 9.0545
2.69965 8.13044
2.7443 8.63869
2.78893 8.84864
2.83356 8.88104
2.87818 8.53693
2.92281 9.08627
2.96744 9.65818
3.01209 10.574
3.05672 10.7487
3.10135 11.8782
3.14599 12.5913
3.19062 14.4052
3.23527 14.444
3.2799 15.403
3.32454 16.3536
3.36917 17.0949
3.4138 17.8053
3.45844 19.0389
3.50309 19.8704
3.54773 20.5167
3.59237 21.6523
3.637 27.2803
3.68164 26.6432
3.7263 24.1139
3.77094 24.5878
3.81558 24.8238
3.86022 26.3891
3.90486 27.4804
3.9495 28.4474
3.99416 29.2378
4.0388 30.8067
4.08344 31.4914
4.12809 32.4097
4.17273 33.8647
4.21738 35.2989
4.26204 52.1264
4.30669 56.2234
4.35133 40.5636
4.39598 41.0172
4.44063 43.4012
4.4853 46.068
4.52995 46.7145
4.5746 48.3521
4.61925 51.1968
4.6639 53.1689
4.70855 55.9136
4.75322 57.9963
4.79788 60.6313
4.84253 64.7195
4.88719 67.9065
4.93184 71.4658
4.97652 76.8871
5.02118 82.7836
5.06583 90.5509
5.11049 98.1364
5.15515 119.08
5.19981 233.136
5.24449 2553.98
5.28916 13780.3
5.33382 3313.66
5.37848 202.34
5.42315 123.374
5.46783 108.461
5.5125 101.271
5.55716 97.8575
5.60183 93.643
5.6465 91.43
5.69117 90.1459
5.73586 88.1918
5.78053 87.3127
5.8252 86.9545
5.86988 87.2121
5.91455 89.5243
5.95924 95.4708
6.00392 166.113
6.0486 899.389
6.09328 4467.89
6.13795 3685.65
6.18263 238.248
6.22733 86.9667
6.27201 75.9977
6.3167 73.3018
6.36138 68.8737
6.40606 65.3624
6.45075 63.6208
6.49545 61.9373
6.54014 60.4257
6.58483 59.1743
6.62952 58.01
6.67421 59.083
6.71892 64.3525
6.76361 56.6759
6.8083 54.5715
6.853 54.1579
6.89769 53.5721
6.94239 53.549
6.98711 52.6304
7.03181 52.0411
7.07651 51.9794
7.12121 51.6554
7.16591 51.6092
7.21063 51.1579
7.25533 51.6045
7.30004 61.9585
7.34475 55.8161
7.38945 51.614
7.43416 51.1456
7.47889 51.4547
7.5236 58.1533
7.56831 70.8437
7.61303 56.3038
7.65774 52.8834
7.70247 53.1332
7.74719 53.3925
7.79191 54.1187
7.83663 54.3797
7.88135 55.1627
7.92607 55.6505
7.97081 57.0306
8.01553 57.6594
8.06026 59.1048
8.10498 60.2992
8.14971 62.3747
8.19446 64.148
8.23919 65.5925
8.28392 68.7559
8.32865 70.7452
8.37339 74.3498
8.41812 78.0551
8.46288 87.0407
8.50761 130.096
8.55235 383.742
8.59709 1123.26
8.64183 2289.75
8.68658 1085.46
8.73134 172.537
8.77609 95.0559
8.82083 88.534
8.86558 85.711
8.91033 83.838
8.9551 82.2553
8.99985 81.1506
9.04461 80.5322
9.08936 79.5954
9.13412 79.3349
9.17888 79.6073
9.22365 90.2853
9.26841 109.601
9.31318 87.7277
9.35794 79.953
9.4027 80.0315
9.44749 80.8409
9.49226 81.359
9.53703 82.0443
9.5818 83.7871
9.62657 84.9001
9.67134 86.8334
9.71614 88.0793
9.76091 89.8457
9.80569 91.8756
9.85047 94.4694
9.89525 99.8868
9.94005 106.574
9.98484 148.281
10.0296 354.814
10.0744 787.318
10.1192 1767.92
10.164 1699.35
10.2088 437.969
10.2536 124.726
10.2984 103.342
10.3432 101.128
10.388 98.074
10.4328 108.683
10.4776 163.786
10.5224 276.461
10.5672 518.341
10.612 571.871
10.6568 228.247
10.7017 102.844
10.7465 85.9203
10.7913 80.1008
10.8361 77.9043
10.8809 75.7311
10.9257 73.461
10.9706 72.3172
11.0154 70.7827
11.0602 69.3375
11.105 68.4551
11.1499 67.3628
11.1947 67.4104
11.2395 65.8549
11.2844 64.9005
11.3292 63.9309
11.374 63.3604
11.4189 62.7415
11.4637 62.1406
11.5086 61.1446
11.5534 61.4719
11.5983 61.0571
11.6431 60.8665
11.688 60.3959
11.7328 60.1185
11.7777 60.1762
11.8225 60.161
11.8674 59.9284
11.9122 61.9326
11.9571 67.192
12.002 65.7951
12.0468 64.0934
12.0917 77.7038
12.1366 99.9626
12.1814 148.127
12.2263 203.032
12.2712 174.57
12.3161 96.2708
12.3609 64.8235
12.4058 61.4722
12.4507 61.48
12.4956 61.6846
12.5405 61.7091
12.5853 62.2482
12.6302 62.8694
12.6751 64.1971
12.72 64.2846
12.7649 64.5593
12.8098 65.3676
12.8547 66.7329
12.8996 68.1999
12.9445 69.4034
12.9894 71.5154
13.0343 73.0415
13.0792 76.8103
13.1242 82.614
13.1691 108.905
13.214 149.947
13.2589 232.828
13.3038 371.789
13.3487 450.393
13.3937 275.389
13.4386 125.182
13.4835 99.7063
13.5285 121.622
13.5734 158.937
13.6183 238.493
13.6633 357.539
13.7082 359.491
13.7531 203.046
13.7981 99.7287
13.843 79.9433
13.888 76.9751
13.9329 74.5669
13.9779 73.582
14.0228 72.177
14.0678 70.8853
14.1127 71.9196
14.1577 74.7103
14.2027 73.0876
14.2476 69.2036
14.2926 67.7929
14.3376 67.2542
14.3825 66.91
14.4275 66.61
14.4725 66.3048
14.5175 66.6721
14.5624 66.5138
14.6074 67.0519
14.6524 67.4122
14.6974 67.6443
14.7424 68.9547
14.7874 75.0854
14.8324 89.3162
14.8774 111.231
14.9224 149.795
14.9674 210.025
15.0124 226.733
15.0574 157.214
15.1024 93.2956
15.1474 70.9479
15.1924 68.0547
15.2374 66.8575
15.2824 66.0681
15.3274 64.9784
15.3725 64.6685
15.4175 64.1698
15.4625 64.0226
15.5076 63.6249
15.5526 63.5954
15.5976 63.7819
15.6426 64.086
15.6877 68.8751
15.7327 80.2358
15.7778 95.56
15.8228 124.087
15.8679 170.007
15.9129 202.791
15.958 167.77
16.003 103.686
16.0481 68.9942
16.0931 62.5357
16.1382 59.6808
16.1833 58.332
16.2283 57.0864
16.2734 56.4417
16.3185 55.7195
16.3636 55.0681
16.4086 54.5783
16.4537 54.2087
16.4988 53.5343
16.5439 53.6816
16.589 53.1814
16.6341 53.0221
16.6792 52.6754
16.7243 52.878
16.7694 52.8028
16.8145 52.5967
16.8596 53.0113
16.9047 53.6042
16.9498 54.3179
16.9949 54.0079
17.04 53.9647
17.0851 55.048
17.1302 57.4719
17.1754 60.3188
17.2205 65.194
17.2656 72.711
17.3108 82.0791
17.3559 82.8466
17.401 71.8128
17.4462 61.5239
17.4913 57.6802
17.5365 57.2565
17.5815 57.5645
17.6268 57.8133
17.6718 58.4185
17.7171 58.8833
17.7622 60.1312
17.8074 60.8722
17.8525 62.0322
17.8977 67.0232
17.9428 73.7235
17.9881 82.5433
18.0331 98.1298
18.0784 121.589
18.1237 142.455
18.1688 137.219
18.214 108.425
18.2591 87.9684
18.3044 89.2554
18.3495 99.708
18.3948 107.044
18.4399 98.0237
18.4852 78.5456
18.5303 65.6353
18.5756 61.4494
18.6207 60.127
18.666 58.9582
18.7112 58.2525
18.7565 57.4923
18.8016 57.2662
18.8469 56.5414
18.892 56.3792
18.9374 55.6943
18.9825 55.6258
19.0278 55.3206
19.073 55.3315
19.1183 55.4274
19.1635 56.3606
19.2088 58.381
19.254 61.009
19.2993 65.7883
19.3447 72.0447
19.3898 75.7873
19.4352 72.0726
19.4804 63.2196
19.5257 56.0679
19.5709 53.0339
19.6163 52.6176
19.6615 52.3692
19.7068 52.0356
19.752 51.9211
19.7974 52.1241
19.8426 52.9104
19.888 53.9011
19.9332 55.3822
19.9786 57.7883
20.0238 61.2793
20.0692 66.7113
20.1144 70.5611
20.1598 69.0038
20.205 63.8891
20.2504 61.8488
20.2957 63.4948
20.3411 65.4005
20.3863 64.0755
20.4318 58.1743
20.477 52.8866
20.5224 50.1311
20.5677 49.3984
20.6131 49.0648
20.6586 48.5936
20.7038 48.2741
20.7493 48.2023
20.7945 48.1454
20.84 47.8632
20.8853 47.596
20.9307 47.4372
20.976 47.4732
21.0215 47.4533
21.0668 47.8658
21.1122 48.2521
21.1575 48.9859
21.203 49.7365
21.2483 50.5518
21.2938 50.6792
21.3391 49.2258
21.3846 48.0261
21.4299 47.4099
21.4754 47.4427
21.5207 47.6356
21.5662 47.6255
21.6116 48.1051
21.6571 48.9073
21.7024 50.4359
21.7479 52.0651
21.7933 54.3859
21.8388 58.2508
21.8843 62.9742
21.9297 65.1909
21.9752 63.8632
22.0206 59.9245
22.0661 56.532
22.1115 55.8998
22.157 56.1486
22.2024 54.4003
22.248 51.1076
22.2933 49.0662
22.3389 48.2801
22.3843 47.8541
22.4299 47.668
22.4753 47.7115
22.5208 47.5749
22.5662 47.6909
22.6118 47.6749
22.6572 47.7612
22.7028 48.6432
22.7483 49.1811
22.7939 49.9988
22.8393 51.4066
22.8849 53.5472
22.9303 55.8299
22.9759 57.754
23.0214 57.2436
23.067 54.6543
23.1126 51.0103
23.1581 48.5535
23.2037 47.879
23.2492 47.7882
23.2948 48.0266
23.3403 48.7419
23.3859 49.5186
23.4314 50.6036
23.477 52.24
23.5225 54.5955
23.5682 57.305
23.6137 58.3632
23.6593 56.4176
23.7048 51.9979
23.7505 48.2572
23.796 46.1908
23.8417 45.2936
23.8872 44.6931
23.9329 44.4657
23.9784 44.0206
24.0241 43.7621
24.0697 43.691
24.1154 43.2195
24.1609 43.065
24.2066 42.8775
24.2522 42.7774
24.2979 42.5036
24.3434 42.3799
24.3892 42.2105
24.4349 42.2183
24.4805 42.0027
24.5262 42.2023
24.5718 42.3017
24.6175 42.1669
24.6631 42.0345
24.7089 41.6296
24.7545 41.6346
24.8002 41.3102
24.8458 41.2982
24.8916 41.2509
24.9372 41.5977
24.983 41.6624
25.0286 42.197
25.0744 42.6793
25.12 43.2046
25.1658 44.0153
25.2114 44.3013
25.2572 44.4986
25.3029 44.5705
25.3487 44.6631
25.3943 44.4738
25.4402 43.3085
25.4858 42.1478
25.5316 40.9265
25.5773 40.136
25.6231 40.0698
25.669 39.8604
25.7147 39.7988
25.7605 39.7251
25.8062 39.9039
25.8521 40.0196
25.8977 39.9104
25.9436 40.2147
25.9893 40.3577
26.0352 40.8824
26.0809 41.0614
26.1268 41.4355
26.1725 41.0144
26.2184 40.3259
26.2641 39.8108
26.31 39.4501
26.3557 39.6582
26.4017 39.575
26.4474 39.8804
26.4933 40.1566
26.5391 40.7268
26.585 41.2134
26.6308 41.7896
26.6767 41.9878
26.7225 41.8431
26.7684 41.2986
26.8142 40.6123
26.8601 40.1459
26.9059 39.7637
26.9519 39.1893
26.9979 38.7133
27.0437 38.4599
27.0896 38.199
27.1354 38.2485
27.1814 37.9334
27.2272 37.884
27.2732 37.9281
27.3191 37.8119
27.3651 37.9664
27.4109 37.8299
27.4569 38.0727
27.5027 38.0604
27.5488 38.1438
27.5946 37.9059
27.6407 37.8411
27.6865 37.5378
27.7326 37.3468
27.7784 37.4395
27.8245 37.3401
27.8703 37.5517
27.9164 37.8957
27.9623 38.1164
28.0084 38.3681
28.0543 38.8074
28.1003 38.8372
28.1462 38.595
28.1923 38.2817
28.2384 37.771
28.2843 37.4485
28.3304 36.8688
28.3764 36.2672
28.4225 35.8771
28.4684 35.8279
28.5145 35.338
28.5605 35.2596
28.6066 35.1466
28.6526 35.0425
28.6987 35.1396
28.7447 34.9802
28.7908 34.7923
28.8368 34.8973
28.8829 34.985
28.9289 35.0044
28.9751 34.7172
29.0211 34.5573
29.0673 34.2664
29.1133 34.0516
29.1595 33.9591
29.2055 33.871
29.2517 33.8059
29.2977 33.8834
29.3439 33.8735
29.3899 33.8697
29.4361 33.7071
29.4824 33.5562
29.5284 33.3199
29.5746 32.9156
29.6207 32.5241
29.6669 32.5491
29.713 32.4483
29.7593 32.4128
29.8053 32.2616
29.8516 32.2779
29.8977 32.2673
29.9439 32.0924
29.99 32.1585
30.0363 31.9801
30.0824 32.0345
30.1287 31.9735
30.1748 31.8813
30.2211 31.9213
30.2673 31.7971
30.3136 31.9761
30.3597 31.8282
30.406 31.7597
30.4522 31.6385
30.4985 31.5042
30.5447 31.796
30.591 31.7235
30.6372 31.8348
30.6835 31.8594
30.7297 31.9438
30.7761 31.8875
30.8224 31.7463
30.8686 31.4733
30.915 31.2449
30.9612 31.1005
31.0076 30.9868
31.0538 30.7863
31.1002 30.746
31.1464 30.562
31.1928 30.6529
31.2391 30.6798
31.2855 30.4862
31.3317 30.5009
31.3781 30.5632
31.4244 30.476
31.4708 30.5546
31.5171 30.505
31.5636 30.4828
31.6098 30.2172
31.6563 29.982
31.7026 29.8574
31.7491 29.8153
31.7953 29.8543
31.8418 29.7566
31.8881 29.7391
31.9346 29.7646
31.9809 29.6715
32.0275 29.5394
32.074 29.5903
32.1203 29.2682
32.1668 29.1016
32.2132 29.0668
32.2597 28.9685
32.306 28.8368
32.3526 28.5779
32.399 28.6075
32.4455 28.4001
32.4919 28.2946
32.5385 28.2539
32.5848 28.1252
32.6314 28.1749
32.6778 27.9947
32.7244 27.8449
32.7708 27.8135
32.8174 27.8693
32.8638 27.6447
32.9104 27.7621
32.9569 27.6479
33.0035 27.573
33.0499 27.545
33.0966 27.4203
33.143 27.4729
33.1897 27.3496
33.2361 27.2666
33.2828 27.274
33.3293 27.1701
33.3759 27.0717
33.4226 26.9318
33.4691 26.7877
33.5158 26.7229
33.5623 26.5876
33.609 26.3085
33.6555 26.319
33.7022 26.267
33.7487 26.1816
33.7954 26.2266
33.842 26.0178
33.8887 25.8741
33.9353 25.9847
33.982 25.7992
34.0286 25.664
34.0753 25.6311
34.1219 25.564
34.1687 25.4728
34.2152 25.3626
34.262 25.3457
34.3086 25.2608
34.3554 25.1975
34.402 25.0689
34.4488 24.984
34.4954 24.938
34.5422 24.7238
34.5889 24.6707
34.6357 24.6166
34.6825 24.4963
34.7292 24.516
34.776 24.367
34.8227 24.2993
34.8695 24.39
34.9162 24.229
34.9631 24.0889
35.0098 24.1892
35.0566 24.0261
35.1033 23.9016
35.1502 23.9277
35.1969 23.8765
35.2438 23.8419
35.2906 23.7861
35.3375 23.7784
35.3842 23.7577
35.4311 23.6925
35.4779 23.7683
35.5248 23.6025
35.5716 23.4814
35.6185 23.3858
35.6653 23.341
35.7123 23.2539
35.759 23.1544
35.806 23.1213
35.8528 22.9186
35.8998 22.8667
35.9468 22.8336
35.9936 22.7637
36.0406 22.814
36.0874 22.7244
36.1345 22.6914
36.1813 22.5486
36.2283 22.4667
36.2752 22.2925
36.3222 22.3404
36.3691 22.3386
36.4161 22.1938
36.463 22.2024
36.5101 22.1552
36.557 22.0802
36.6041 21.9202
36.651 21.9255
36.6981 21.8538
36.745 21.7976
36.7921 21.6725
36.839 21.6128
36.8861 21.5183
36.9331 21.4991
36.9802 21.3484
37.0272 21.3261
37.0743 21.2235
37.1213 21.1727
37.1684 21.1894
37.2154 21.0405
37.2626 20.9443
37.3098 20.9088
37.3568 20.8105
37.404 20.8078
37.451 20.7012
37.4982 20.6251
37.5452 20.5521
37.5924 20.4417
37.6395 20.5156
37.6867 20.4255
37.7337 20.3133
37.781 20.2959
37.8281 20.2029
37.8753 20.1581
37.9224 20.0144
37.9697 20.0172
38.0168 19.9694
38.064 19.8882
38.1111 19.8024
38.1584 19.7247
38.2056 19.6618
38.2529 19.6046
38.3 19.5887
38.3473 19.5472
38.3945 19.43
38.4418 19.3833
38.489 19.3873
38.5363 19.3126
38.5837 19.1808
38.6309 19.1506
38.6782 19.1194
38.7254 19.0121
38.7728 18.993
38.82 18.8815
38.8674 18.875
38.9146 18.775
38.9621 18.722
39.0093 18.7065
39.0567 18.6259
39.104 18.5171
39.1514 18.5109
39.1987 18.4056
39.2461 18.3762
39.2934 18.3279
39.3409 18.2149
39.3882 18.1381
39.4356 18.1048
39.483 18.0439
39.5304 18.0645
39.5778 18.011
39.6253 17.8877
39.6726 17.9007
39.7201 17.9189
39.7675 17.7866
39.815 17.7397
39.8624 17.6705
39.9099 17.6474
39.9575 17.5118
40.0049 17.5143
40.0525 17.4299
40.0999 17.3593
40.1474 17.2543
40.1949 17.2491
40.2425 17.1401
40.2899 17.1148
40.3375 17.0844
40.385 17.0597
40.4326 16.9498
40.48 16.863
40.5277 16.8546
40.5752 16.8335
40.6228 16.7247
40.6703 16.6893
40.718 16.7012
40.7655 16.5705
40.8132 16.5681
40.8607 16.4938
40.9084 16.4817
40.9559 16.438
41.0036 16.3589
41.0512 16.3258
41.0989 16.2681
41.1465 16.2182
41.1942 16.1104
41.242 16.0918
41.2896 16.011
41.3373 15.9306
41.3849 15.8773
41.4327 15.8384
41.4803 15.7431
41.5281 15.7321
41.5758 15.7043
41.6236 15.6525
41.6712 15.5997
41.7191 15.4863
41.7667 15.4997
41.8146 15.479
41.8622 15.3437
41.9101 15.3559
41.9578 15.2516
42.0057 15.2259
42.0534 15.1413
42.1013 15.151
42.149 15.0673
42.1969 15.0302
42.2446 14.9528
42.2925 14.9477
42.3403 14.8835
42.3882 14.8962
42.436 14.8152
42.4839 14.7266
42.5319 14.6902
42.5797 14.6571
42.6277 14.5736
42.6755 14.5243
42.7235 14.467
42.7713 14.4487
42.8193 14.4091
42.8671 14.3394
42.9152 14.314
42.963 14.233
43.0111 14.2275
43.0589 14.112
43.107 14.106
43.1549 14.0612
43.2029 14.0072
43.2508 13.9416
43.2989 13.8882
43.3468 13.7994
43.3949 13.8051
43.4429 13.7185
43.491 13.6718
43.5389 13.6346
43.5871 13.5814
43.635 13.5658
43.6832 13.4705
43.7312 13.4879
43.7793 13.3788
43.8273 13.3515
43.8755 13.3244
43.9237 13.3033
43.9717 13.3204
44.0199 13.1707
44.068 13.1578
44.1162 13.063
44.1642 13.0847
44.2125 13.0042
44.2606 12.9734
44.3088 12.8849
44.3569 12.8399
44.4052 12.8398
44.4533 12.7953
44.5016 12.775
44.5497 12.6892
44.598 12.6691
44.6461 12.5925
44.6945 12.5977
44.7426 12.502
44.791 12.4251
44.8391 12.4473
44.8875 12.3378
44.9357 12.3252
44.984 12.3035
45.0322 12.2424
45.0806 12.2031
45.1288 12.1829
45.1773 12.0857
45.2257 12.0664
45.2739 12.0528
45.3224 12.002
45.3706 11.9715
45.4191 11.8424
45.4673 11.8661
45.5158 11.8288
45.5641 11.7835
45.6126 11.7594
45.6609 11.7244
45.7094 11.6839
45.7577 11.6197
45.8063 11.5608
45.8546 11.59
45.9031 11.4959
45.9515 11.467
46.0001 11.4141
46.0484 11.3308
46.097 11.349
46.1454 11.3135
46.194 11.2436
46.2424 11.2118
46.291 11.1538
46.3395 11.1519
46.3881 11.0462
46.4365 11.0684
46.4852 11.0506
46.5337 10.977
46.5823 10.9227
46.631 10.856
46.6795 10.7941
46.7282 10.8243
46.7767 10.7734
46.8254 10.7157
46.8739 10.678
46.9226 10.649
46.9712 10.5893
47.0199 10.5774
47.0685 10.5376
47.1173 10.5086
47.1658 10.4675
47.2146 10.4097
47.2632 10.337
47.312 10.3753
47.3606 10.2684
47.4095 10.2643
47.4581 10.2382
47.5069 10.1897
47.5556 10.1356
47.6044 10.1129
47.6531 10.0999
47.702 9.99247
47.7507 9.99143
47.7996 9.97859
47.8483 9.90834
47.8972 9.89488
47.9461 9.89155
47.9948 9.81051
48.0438 9.76688
48.0925 9.75083
48.1415 9.69215
48.1902 9.69152
48.2392 9.66316
48.288 9.57314
48.337 9.58068
48.3858 9.54624
48.4348 9.50759
48.4837 9.5002
48.5327 9.43497
48.5815 9.38344
48.6306 9.37584
48.6795 9.3327
48.7285 9.3016
48.7774 9.28787
48.8265 9.26574
48.8754 9.2228
48.9245 9.16291
48.9734 9.1316
49.0226 9.10565
49.0715 9.03379
49.1206 9.02949
49.1696 8.98822
49.2188 8.99683
49.2679 8.9064
49.3169 8.88169
49.3661 8.80691
49.4151 8.7922
49.4643 8.81549
49.5134 8.73557
49.5626 8.73019
49.6117 8.69555
49.6609 8.62183
49.71 8.57328
49.7592 8.57029
49.8083 8.53531
49.8576 8.53561
49.9067 8.45556
49.956 8.42414
50.0052 8.43672
50.0545 8.39234
50.1036 8.33902
50.153 8.31881
50.2022 8.34907
50.2515 8.24006
50.3007 8.20745
50.3501 8.19331
50.3993 8.14152
50.4487 8.14375
50.498 8.10861
50.5474 8.07299
50.5966 8.01849
50.6461 7.98966
50.6955 7.9589
50.7448 7.97753
50.7943 7.9394
50.8436 7.87443
50.8931 7.88475
50.9424 7.80823
50.9919 7.76761
51.0413 7.77446
51.0908 7.73238
51.1402 7.7021
51.1897 7.65603
51.2391 7.62446
51.2887 7.59949
51.3381 7.55704
51.3877 7.56831
51.4371 7.49998
51.4867 7.45624
51.5362 7.42536
51.5858 7.45071
51.6353 7.35138
51.6849 7.34194
51.7344 7.29801
51.7841 7.34362
51.8336 7.24374
51.8833 7.25166
51.9328 7.20294
51.9826 7.15609
52.0323 7.11368
52.0818 7.12254
52.1316 7.05943
52.1812 7.05679
52.231 7.0347
52.2806 7.02995
52.3304 6.98265
52.38 6.88628
52.4298 6.93304
52.4794 6.90101
52.5293 6.86001
52.5789 6.82798
52.6288 6.81703
52.6785 6.76513
52.7284 6.74378
52.7781 6.74056
52.828 6.70386
52.8777 6.6542
52.9276 6.63442
52.9774 6.62411
53.0273 6.57422
53.0771 6.54196
53.1271 6.54533
53.1769 6.48375
53.2269 6.47244
53.2767 6.41999
53.3267 6.39841
53.3765 6.37812
53.4266 6.31723
53.4766 6.32684
53.5265 6.30232
53.5765 6.25613
53.6264 6.2361
53.6765 6.20147
53.7264 6.20524
53.7765 6.18674
53.8265 6.15051
53.8766 6.08167
53.9266 6.09121
53.9767 6.02919
54.0267 6.03353
54.0769 5.9928
54.1269 5.97839
54.1771 5.96115
54.2271 5.91834
54.2773 5.88928
54.3274 5.86508
54.3776 5.82499
54.4277 5.79982
54.478 5.71908
54.528 5.7278
54.5783 5.67466
54.6285 5.71789
54.6788 5.61018
54.7289 5.60877
54.7792 5.57691
54.8296 5.49755
54.8798 5.43515
54.9301 5.39087
54.9803 5.39881
55.0307 5.37083
55.0809 5.28914
55.1314 5.2905
55.1816 5.2438
55.232 5.16946
55.2823 5.15962
55.3328 5.08474
55.383 5.08093
55.4335 5.04802
55.4838 4.97013
55.5344 4.89519
55.5847 4.89749
55.6352 4.82892
55.6856 4.80007
55.7361 4.78472