File: XRD/Ni3Fe_FD0856.xy
TT I
1.27165 7.02714
1.31627 6.61997
1.36089 6.9273
1.40551 6.61572
1.45013 5.52939
1.49476 5.73464
1.53938 5.65017
1.584 5.20826
1.62863 5.56015
1.67325 4.88525
1.71787 5.38028
1.7625 5.09383
1.80712 5.06889
1.85174 4.94065
1.89636 4.62685
1.94099 4.90334
1.98562 4.3527
2.03025 5.0261
2.07487 4.68273
2.11949 5.12226
2.16411 5.30771
2.20874 14.0938
2.25338 22.5093
2.298 5.72044
2.34263 5.84628
2.38725 6.3734
2.43188 6.35785
2.4765 7.81902
2.52115 7.62258
2.56577 8.07516
2.6104 8.0954
2.65503 8.04698
2.69965 8.82233
2.7443 8.09489
2.78893 8.24195
2.83356 9.51209
2.87818 9.45958
2.92281 9.05674
2.96744 9.34676
3.01209 10.2402
3.05672 11.6962
3.10135 11.7662
3.14599 13.3089
3.19062 14.2288
3.23527 15.377
3.2799 15.9737
3.32454 16.8639
3.36917 17.6382
3.4138 18.85
3.45844 19.682
3.50309 21.2123
3.54773 21.7501
3.59237 23.7836
3.637 90.6907
3.68164 58.0828
3.7263 25.9187
3.77094 25.9245
3.81558 26.5597
3.86022 27.5918
3.90486 28.7601
3.9495 29.6887
3.99416 30.5846
4.0388 31.8323
4.08344 32.8163
4.12809 34.7728
4.17273 36.4256
4.21738 42.6788
4.26204 244.465
4.30669 215.933
4.35133 48.3778
4.39598 43.9268
4.44063 53.6507
4.4853 64.8219
4.52995 49.5134
4.5746 50.8766
4.61925 52.468
4.6639 54.8176
4.70855 57.3788
4.75322 60.3309
4.79788 63.0504
4.84253 66.1244
4.88719 70.268
4.93184 73.787
4.97652 78.6487
5.02118 85.2078
5.06583 92.1036
5.11049 102.148
5.15515 164.385
5.19981 295.796
5.24449 2484.64
5.28916 12489.2
5.33382 2733.76
5.37848 176.512
5.42315 125.252
5.46783 111.138
5.5125 103.992
5.55716 100.251
5.60183 97.0703
5.6465 94.9253
5.69117 92.7107
5.73586 90.3541
5.78053 90.5526
5.8252 89.2259
5.86988 89.8471
5.91455 91.3927
5.95924 97.7357
6.00392 176.062
6.0486 835.173
6.09328 4368.08
6.13795 3233.07
6.18263 223.356
6.22733 90.3989
6.27201 81.369
6.3167 100.628
6.36138 79.2792
6.40606 68.6508
6.45075 66.3057
6.49545 65.083
6.54014 62.939
6.58483 62.0348
6.62952 61.9032
6.67421 92.643
6.71892 140.197
6.76361 68.181
6.8083 57.8956
6.853 56.5276
6.89769 56.2981
6.94239 55.9961
6.98711 55.5314
7.03181 54.7989
7.07651 54.6402
7.12121 54.8033
7.16591 54.7843
7.21063 54.8922
7.25533 70.1284
7.30004 173.651
7.34475 89.8678
7.38945 56.3105
7.43416 54.1315
7.47889 54.0123
7.5236 54.2433
7.56831 54.7297
7.61303 56.3371
7.65774 56.6739
7.70247 55.6303
7.74719 55.6082
7.79191 56.2296
7.83663 56.3905
7.88135 57.2115
7.92607 57.9955
7.97081 59.0941
8.01553 60.5104
8.06026 61.3919
8.10498 63.1292
8.14971 71.9472
8.19446 71.5417
8.23919 68.3046
8.28392 70.9712
8.32865 72.8749
8.37339 76.6678
8.41812 83.485
8.46288 110.767
8.50761 146.942
8.55235 342.439
8.59709 1133.29
8.64183 2220.65
8.68658 930.63
8.73134 169.25
8.77609 97.5227
8.82083 90.9315
8.86558 88.3074
8.91033 88.505
8.9551 90.4633
8.99985 84.3029
9.04461 82.6169
9.08936 81.4227
9.13412 80.9164
9.17888 80.9368
9.22365 81.5908
9.26841 80.6808
9.31318 81.4091
9.35794 81.697
9.4027 81.8933
9.44749 82.608
9.49226 83.3333
9.53703 84.446
9.5818 86.2091
9.62657 90.5905
9.67134 96.9748
9.71614 92.1595
9.76091 92.73
9.80569 95.105
9.85047 97.98
9.89525 121.13
9.94005 132.736
9.98484 158.547
10.0296 307.963
10.0744 784.23
10.1192 1769.31
10.164 1572.52
10.2088 397.616
10.2536 124.665
10.2984 111.192
10.3432 112.809
10.388 102.597
10.4328 112.919
10.4776 150.5
10.5224 274.907
10.5672 526.335
10.612 502.902
10.6568 201.511
10.7017 95.7449
10.7465 85.3618
10.7913 81.8407
10.8361 80.1166
10.8809 78.1164
10.9257 77.2214
10.9706 78.0947
11.0154 73.8443
11.0602 72.0502
11.105 71.2596
11.1499 75.2893
11.1947 82.2159
11.2395 73.4287
11.2844 69.6199
11.3292 66.6612
11.374 65.4747
11.4189 64.7712
11.4637 64.3462
11.5086 64.5046
11.5534 67.3887
11.5983 64.7695
11.6431 63.0104
11.688 61.8947
11.7328 62.0792
11.7777 61.9952
11.8225 61.5705
11.8674 61.6208
11.9122 61.906
11.9571 62.0579
12.002 62.5161
12.0468 65.7593
12.0917 75.7726
12.1366 99.1693
12.1814 153.079
12.2263 210.901
12.2712 168.292
12.3161 95.1548
12.3609 69.5513
12.4058 63.9264
12.4507 63.5223
12.4956 63.4464
12.5405 63.445
12.5853 64.7255
12.6302 72.3894
12.6751 77.408
12.72 68.7312
12.7649 66.8395
12.8098 67.2222
12.8547 68.3053
12.8996 69.7451
12.9445 70.8683
12.9894 72.7917
13.0343 74.4197
13.0792 77.5073
13.1242 84.5717
13.1691 105.266
13.214 140.395
13.2589 233.191
13.3038 374.44
13.3487 423.254
13.3937 258.238
13.4386 121.723
13.4835 101.219
13.5285 114.567
13.5734 151.548
13.6183 248.686
13.6633 359.831
13.7082 335.998
13.7531 182.74
13.7981 96.1145
13.843 80.6628
13.888 78.4462
13.9329 75.9528
13.9779 74.8403
14.0228 73.4611
14.0678 72.0226
14.1127 71.6186
14.1577 71.405
14.2027 70.5577
14.2476 69.4245
14.2926 69.5606
14.3376 70.7798
14.3825 69.3826
14.4275 67.9946
14.4725 67.5884
14.5175 67.9623
14.5624 68.1231
14.6074 70.1716
14.6524 70.4943
14.6974 69.3556
14.7424 70.2722
14.7874 75.8359
14.8324 85.096
14.8774 106.797
14.9224 152.307
14.9674 212.214
15.0124 217.166
15.0574 147.552
15.1024 90.0212
15.1474 71.2596
15.1924 69.4047
15.2374 70.0038
15.2824 69.3946
15.3274 67.2282
15.3725 65.9525
15.4175 65.4094
15.4625 64.9668
15.5076 65.2181
15.5526 65.1901
15.5976 64.6989
15.6426 65.2239
15.6877 69.7579
15.7327 76.4184
15.7778 91.2554
15.8228 124.663
15.8679 171.196
15.9129 194.269
15.958 154.169
16.003 93.3981
16.0481 66.9312
16.0931 63.6121
16.1382 61.8053
16.1833 59.848
16.2283 58.2904
16.2734 57.5481
16.3185 57.9251
16.3636 58.6095
16.4086 57.0419
16.4537 55.3851
16.4988 54.7875
16.5439 54.7974
16.589 54.5964
16.6341 54.0046
16.6792 53.6906
16.7243 54.0571
16.7694 54.2678
16.8145 54.0744
16.8596 54.3556
16.9047 55.9389
16.9498 56.1557
16.9949 54.7348
17.04 54.955
17.0851 56.0195
17.1302 57.3658
17.1754 60.4443
17.2205 65.4827
17.2656 73.819
17.3108 83.1596
17.3559 81.5017
17.401 70.0466
17.4462 61.0268
17.4913 58.1086
17.5365 58.1054
17.5815 58.2664
17.6268 58.7145
17.6718 59.4846
17.7171 60.0704
17.7622 60.426
17.8074 60.9306
17.8525 62.5624
17.8977 66.1373
17.9428 71.3724
17.9881 80.2476
18.0331 98.2794
18.0784 121.204
18.1237 138.055
18.1688 127.56
18.214 100.621
18.2591 84.5988
18.3044 89.9214
18.3495 100.654
18.3948 104.665
18.4399 93.7944
18.4852 76.2851
18.5303 65.029
18.5756 61.3354
18.6207 60.2557
18.666 59.5339
18.7112 58.8292
18.7565 58.057
18.8016 57.783
18.8469 57.422
18.892 56.9825
18.9374 56.5103
18.9825 56.3647
19.0278 55.9643
19.073 56.0688
19.1183 56.4147
19.1635 57.1309
19.2088 58.2851
19.254 60.9221
19.2993 65.7125
19.3447 72.4463
19.3898 76.0742
19.4352 70.9329
19.4804 62.196
19.5257 56.0522
19.5709 53.4123
19.6163 52.9955
19.6615 53.0127
19.7068 52.5647
19.752 52.6957
19.7974 52.7812
19.8426 53.4833
19.888 54.1752
19.9332 55.2872
19.9786 57.7653
20.0238 61.4863
20.0692 66.4023
20.1144 68.8717
20.1598 66.9704
20.205 62.4986
20.2504 61.3708
20.2957 63.8837
20.3411 65.1553
20.3863 62.9341
20.4318 57.4981
20.477 53.0018
20.5224 50.998
20.5677 50.2948
20.6131 49.5103
20.6586 48.9888
20.7038 48.9945
20.7493 48.4293
20.7945 48.3641
20.84 48.0353
20.8853 48.0932
20.9307 47.8682
20.976 48.0879
21.0215 47.8855
21.0668 48.4205
21.1122 48.9042
21.1575 49.5643
21.203 50.4669
21.2483 50.7737
21.2938 50.8727
21.3391 49.4166
21.3846 48.2862
21.4299 47.7744
21.4754 47.757
21.5207 47.7399
21.5662 48.0665
21.6116 48.3383
21.6571 49.074
21.7024 49.8742
21.7479 51.7186
21.7933 54.4259
21.8388 58.2724
21.8843 62.289
21.9297 63.6132
21.9752 62.039
22.0206 58.6556
22.0661 56.0839
22.1115 55.5952
22.157 55.2824
22.2024 53.3163
22.248 50.7795
22.2933 49.0213
22.3389 48.2818
22.3843 48.4294
22.4299 48.3377
22.4753 48.362
22.5208 47.9854
22.5662 47.8392
22.6118 47.8935
22.6572 48.2137
22.7028 48.3125
22.7483 49.0331
22.7939 49.6392
22.8393 51.1725
22.8849 53.5572
22.9303 55.804
22.9759 57.2987
23.0214 56.6122
23.067 53.711
23.1126 50.5719
23.1581 48.5102
23.2037 48.2285
23.2492 48.1533
23.2948 47.9626
23.3403 48.4585
23.3859 48.9492
23.4314 50.1352
23.477 51.9235
23.5225 54.3883
23.5682 56.5202
23.6137 57.2289
23.6593 54.7962
23.7048 50.8512
23.7505 47.6825
23.796 45.985
23.8417 45.4502
23.8872 44.8392
23.9329 44.6424
23.9784 44.2998
24.0241 44.034
24.0697 43.8667
24.1154 43.5472
24.1609 43.3719
24.2066 43.3692
24.2522 43.1925
24.2979 42.8962
24.3434 42.6155
24.3892 42.6116
24.4349 42.6601
24.4805 42.4339
24.5262 42.5829
24.5718 42.4412
24.6175 42.4641
24.6631 42.3247
24.7089 42.0914
24.7545 41.9457
24.8002 41.7227
24.8458 41.6898
24.8916 41.5913
24.9372 41.6606
24.983 41.9858
25.0286 42.1434
25.0744 42.8261
25.12 43.1749
25.1658 43.7189
25.2114 44.0843
25.2572 44.343
25.3029 44.3992
25.3487 44.4524
25.3943 43.9658
25.4402 42.9059
25.4858 41.8766
25.5316 40.8707
25.5773 40.4198
25.6231 40.4008
25.669 39.9558
25.7147 39.9649
25.7605 39.9785
25.8062 39.9848
25.8521 40.0443
25.8977 40.0776
25.9436 40.2364
25.9893 40.5442
26.0352 40.8956
26.0809 41.1198
26.1268 41.2017
26.1725 40.7202
26.2184 40.3083
26.2641 39.8362
26.31 39.5678
26.3557 39.6041
26.4017 39.5768
26.4474 39.8227
26.4933 40.0554
26.5391 40.7186
26.585 41.1274
26.6308 41.6448
26.6767 41.6034
26.7225 41.3499
26.7684 40.8553
26.8142 40.3191
26.8601 39.8786
26.9059 39.4358
26.9519 38.8767
26.9979 38.5915
27.0437 38.3356
27.0896 38.1803
27.1354 38.2518
27.1814 38.1767
27.2272 38.008
27.2732 38.1459
27.3191 37.9194
27.3651 37.9216
27.4109 37.9173
27.4569 38.0152
27.5027 38.0844
27.5488 38.2243
27.5946 37.9331
27.6407 37.6788
27.6865 37.6199
27.7326 37.2198
27.7784 37.3682
27.8245 37.2551
27.8703 37.5307
27.9164 37.8674
27.9623 37.8929
28.0084 38.2223
28.0543 38.7582
28.1003 38.5736
28.1462 38.3872
28.1923 37.9604
28.2384 37.5092
28.2843 37.1506
28.3304 36.592
28.3764 36.2725
28.4225 35.987
28.4684 35.7362
28.5145 35.4904
28.5605 35.5083
28.6066 35.2477
28.6526 35.1035
28.6987 35.1796
28.7447 34.9679
28.7908 35.116
28.8368 34.9357
28.8829 34.9859
28.9289 34.8724
28.9751 34.7086
29.0211 34.3716
29.0673 34.2606
29.1133 34.2541
29.1595 33.9719
29.2055 33.8962
29.2517 33.8974
29.2977 33.9073
29.3439 33.8226
29.3899 33.7861
29.4361 33.7173
29.4824 33.5716
29.5284 33.3059
29.5746 33.0116
29.6207 32.7724
29.6669 32.6745
29.713 32.6215
29.7593 32.408
29.8053 32.4048
29.8516 32.2911
29.8977 32.4241
29.9439 32.1405
29.99 32.2254
30.0363 31.9671
30.0824 32.1132
30.1287 32.0256
30.1748 32.0749
30.2211 32.0259
30.2673 31.8714
30.3136 31.9787
30.3597 31.9009
30.406 31.7626
30.4522 31.6044
30.4985 31.5912
30.5447 31.6825
30.591 31.7021
30.6372 31.838
30.6835 31.7512
30.7297 31.8715
30.7761 31.7927
30.8224 31.5321
30.8686 31.3926
30.915 31.1854
30.9612 31.1437
31.0076 30.9485
31.0538 30.7636
31.1002 30.824
31.1464 30.623
31.1928 30.5387
31.2391 30.5184
31.2855 30.4766
31.3317 30.4424
31.3781 30.4818
31.4244 30.5172
31.4708 30.4629
31.5171 30.3405
31.5636 30.3188
31.6098 30.0373
31.6563 30.011
31.7026 29.8518
31.7491 29.6531
31.7953 29.7803
31.8418 29.7095
31.8881 29.8871
31.9346 29.6469
31.9809 29.7191
32.0275 29.5812
32.074 29.389
32.1203 29.2429
32.1668 29.229
32.2132 29.1843
32.2597 28.7813
32.306 28.8184
32.3526 28.5689
32.399 28.5184
32.4455 28.4414
32.4919 28.3509
32.5385 28.2319
32.5848 28.1862
32.6314 28.1265
32.6778 28.0341
32.7244 27.8967
32.7708 27.7937
32.8174 27.8585
32.8638 27.7061
32.9104 27.6427
32.9569 27.654
33.0035 27.5207
33.0499 27.4993
33.0966 27.5354
33.143 27.5114
33.1897 27.2956
33.2361 27.2992
33.2828 27.2797
33.3293 27.0467
33.3759 27.0624
33.4226 26.8302
33.4691 26.8448
33.5158 26.6717
33.5623 26.5384
33.609 26.3815
33.6555 26.3952
33.7022 26.2231
33.7487 26.1695
33.7954 26.1932
33.842 26.0959
33.8887 26.0109
33.9353 25.8909
33.982 25.7419
34.0286 25.7419
34.0753 25.6331
34.1219 25.6264
34.1687 25.5409
34.2152 25.4903
34.262 25.378
34.3086 25.3317
34.3554 25.2887
34.402 25.0953
34.4488 25.0731
34.4954 24.9069
34.5422 24.8211
34.5889 24.7232
34.6357 24.7034
34.6825 24.6445
34.7292 24.567
34.776 24.3443
34.8227 24.4019
34.8695 24.3528
34.9162 24.2541
34.9631 24.2044
35.0098 24.1761
35.0566 24.0904
35.1033 24.0416
35.1502 23.9972
35.1969 23.9214
35.2438 23.8716
35.2906 23.8388
35.3375 23.7851
35.3842 23.6381
35.4311 23.6779
35.4779 23.6697
35.5248 23.5538
35.5716 23.4285
35.6185 23.4113
35.6653 23.3425
35.7123 23.2468
35.759 23.124
35.806 23.0396
35.8528 22.9583
35.8998 23.0387
35.9468 22.8544
35.9936 22.8363
36.0406 22.6956
36.0874 22.7233
36.1345 22.5979
36.1813 22.5424
36.2283 22.4314
36.2752 22.3284
36.3222 22.387
36.3691 22.3127
36.4161 22.1491
36.463 22.1969
36.5101 22.2222
36.557 22.0562
36.6041 21.8934
36.651 21.9265
36.6981 21.826
36.745 21.7482
36.7921 21.6724
36.839 21.5946
36.8861 21.4969
36.9331 21.4846
36.9802 21.3869
37.0272 21.3599
37.0743 21.2377
37.1213 21.2508
37.1684 21.1797
37.2154 21.1333
37.2626 21.0172
37.3098 20.9289
37.3568 20.908
37.404 20.8975
37.451 20.7638
37.4982 20.7278
37.5452 20.6267
37.5924 20.5258
37.6395 20.5575
37.6867 20.4137
37.7337 20.2987
37.781 20.3298
37.8281 20.279
37.8753 20.0882
37.9224 20.0431
37.9697 19.9872
38.0168 20.0175
38.064 19.8734
38.1111 19.9081
38.1584 19.7664
38.2056 19.6651
38.2529 19.6842
38.3 19.5518
38.3473 19.5365
38.3945 19.4688
38.4418 19.4239
38.489 19.3471
38.5363 19.2831
38.5837 19.189
38.6309 19.1448
38.6782 19.0342
38.7254 19.0088
38.7728 18.9282
38.82 18.876
38.8674 18.8441
38.9146 18.83
38.9621 18.7671
39.0093 18.6208
39.0567 18.6391
39.104 18.6647
39.1514 18.5376
39.1987 18.4455
39.2461 18.4454
39.2934 18.346
39.3409 18.2816
39.3882 18.1939
39.4356 18.1372
39.483 18.0905
39.5304 17.9742
39.5778 17.9802
39.6253 17.9365
39.6726 17.853
39.7201 17.811
39.7675 17.8008
39.815 17.7256
39.8624 17.6377
39.9099 17.5856
39.9575 17.5393
40.0049 17.4504
40.0525 17.4002
40.0999 17.3529
40.1474 17.3222
40.1949 17.2875
40.2425 17.1846
40.2899 17.1393
40.3375 17.1298
40.385 17.0997
40.4326 17.0698
40.48 16.8799
40.5277 16.9651
40.5752 16.8311
40.6228 16.7107
40.6703 16.6836
40.718 16.7201
40.7655 16.6374
40.8132 16.54
40.8607 16.4894
40.9084 16.4823
40.9559 16.4096
41.0036 16.4207
41.0512 16.3078
41.0989 16.3047
41.1465 16.263
41.1942 16.1643
41.242 16.0076
41.2896 16.0795
41.3373 15.9588
41.3849 15.9274
41.4327 15.8904
41.4803 15.7875
41.5281 15.7724
41.5758 15.6755
41.6236 15.6853
41.6712 15.571
41.7191 15.533
41.7667 15.4736
41.8146 15.4872
41.8622 15.4076
41.9101 15.4058
41.9578 15.2594
42.0057 15.25
42.0534 15.1797
42.1013 15.1846
42.149 15.1001
42.1969 15.0128
42.2446 14.9355
42.2925 14.9446
42.3403 14.8811
42.3882 14.85
42.436 14.8201
42.4839 14.7072
42.5319 14.7442
42.5797 14.6503
42.6277 14.5703
42.6755 14.5545
42.7235 14.5063
42.7713 14.4801
42.8193 14.457
42.8671 14.3251
42.9152 14.3402
42.963 14.2192
43.0111 14.1843
43.0589 14.1719
43.107 14.1172
43.1549 14.0665
43.2029 14.0291
43.2508 13.952
43.2989 13.905
43.3468 13.8315
43.3949 13.8748
43.4429 13.7823
43.491 13.7068
43.5389 13.694
43.5871 13.6467
43.635 13.5542
43.6832 13.5463
43.7312 13.4731
43.7793 13.4525
43.8273 13.4539
43.8755 13.338
43.9237 13.3197
43.9717 13.2912
44.0199 13.197
44.068 13.2089
44.1162 13.1102
44.1642 13.1259
44.2125 13.0485
44.2606 12.9598
44.3088 12.9753
44.3569 12.8957
44.4052 12.8551
44.4533 12.8226
44.5016 12.7611
44.5497 12.7314
44.598 12.6756
44.6461 12.6168
44.6945 12.5444
44.7426 12.5159
44.791 12.4956
44.8391 12.4974
44.8875 12.3845
44.9357 12.3613
44.984 12.3296
45.0322 12.2692
45.0806 12.2363
45.1288 12.1753
45.1773 12.1974
45.2257 12.0955
45.2739 12.0596
45.3224 12.018
45.3706 12.0043
45.4191 11.9346
45.4673 11.9172
45.5158 11.8944
45.5641 11.8282
45.6126 11.7795
45.6609 11.7425
45.7094 11.6656
45.7577 11.6798
45.8063 11.5738
45.8546 11.5683
45.9031 11.4558
45.9515 11.4743
46.0001 11.4158
46.0484 11.4089
46.097 11.3923
46.1454 11.3759
46.194 11.2737
46.2424 11.2628
46.291 11.1724
46.3395 11.1172
46.3881 11.099
46.4365 11.0693
46.4852 11.0669
46.5337 10.9623
46.5823 11.0036
46.631 10.9168
46.6795 10.881
46.7282 10.8114
46.7767 10.7872
46.8254 10.7562
46.8739 10.7464
46.9226 10.6509
46.9712 10.6173
47.0199 10.6016
47.0685 10.5621
47.1173 10.5282
47.1658 10.4654
47.2146 10.4591
47.2632 10.3942
47.312 10.3793
47.3606 10.3169
47.4095 10.2663
47.4581 10.2724
47.5069 10.2159
47.5556 10.1475
47.6044 10.1351
47.6531 10.0789
47.702 10.0253
47.7507 10.0275
47.7996 9.9873
47.8483 9.92375
47.8972 9.89568
47.9461 9.86317
47.9948 9.82621
48.0438 9.81096
48.0925 9.80222
48.1415 9.71239
48.1902 9.67782
48.2392 9.69252
48.288 9.64141
48.337 9.60158
48.3858 9.57657
48.4348 9.52922
48.4837 9.51589
48.5327 9.48496
48.5815 9.41436
48.6306 9.36813
48.6795 9.35748
48.7285 9.3097
48.7774 9.3093
48.8265 9.24988
48.8754 9.22952
48.9245 9.18507
48.9734 9.10458
49.0226 9.1032
49.0715 9.04965
49.1206 9.01126
49.1696 8.98873
49.2188 8.98028
49.2679 8.94204
49.3169 8.91112
49.3661 8.85445
49.4151 8.83808
49.4643 8.79233
49.5134 8.73213
49.5626 8.67955
49.6117 8.68641
49.6609 8.68992
49.71 8.61555
49.7592 8.60902
49.8083 8.56566
49.8576 8.52641
49.9067 8.48829
49.956 8.48441
50.0052 8.42408
50.0545 8.39986
50.1036 8.37791
50.153 8.33318
50.2022 8.3153
50.2515 8.28569
50.3007 8.2198
50.3501 8.18895
50.3993 8.20053
50.4487 8.09901
50.498 8.12007
50.5474 8.07414
50.5966 8.07101
50.6461 8.03527
50.6955 7.96306
50.7448 7.95468
50.7943 7.94486
50.8436 7.88847
50.8931 7.86659
50.9424 7.82881
50.9919 7.77413
51.0413 7.80002
51.0908 7.75652
51.1402 7.75081
51.1897 7.6983
51.2391 7.67008
51.2887 7.62078
51.3381 7.586
51.3877 7.5719
51.4371 7.54511
51.4867 7.50255
51.5362 7.50334
51.5858 7.42827
51.6353 7.35197
51.6849 7.40141
51.7344 7.34451
51.7841 7.31759
51.8336 7.27519
51.8833 7.27044
51.9328 7.2065
51.9826 7.19987
52.0323 7.15466
52.0818 7.13655
52.1316 7.06031
52.1812 7.1111
52.231 7.02881
52.2806 6.98332
52.3304 7.00807
52.38 6.97537
52.4298 6.91584
52.4794 6.89116
52.5293 6.87455
52.5789 6.85038
52.6288 6.79108
52.6785 6.78088
52.7284 6.77238
52.7781 6.73758
52.828 6.7194
52.8777 6.69494
52.9276 6.65411
52.9774 6.582
53.0273 6.61506
53.0771 6.60784
53.1271 6.54852
53.1769 6.52051
53.2269 6.47431
53.2767 6.45167
53.3267 6.44569
53.3765 6.4316
53.4266 6.36889
53.4766 6.33145
53.5265 6.31052
53.5765 6.26394
53.6264 6.2534
53.6765 6.2478
53.7264 6.20656
53.7765 6.19382
53.8265 6.15958
53.8766 6.10581
53.9266 6.09883
53.9767 6.04546
54.0267 6.08109
54.0769 6.05473
54.1269 6.03029
54.1771 5.94392
54.2271 5.90872
54.2773 5.88961
54.3274 5.90453
54.3776 5.85133
54.4277 5.8169
54.478 5.75849
54.528 5.72718
54.5783 5.70771
54.6285 5.6544
54.6788 5.60873
54.7289 5.58754
54.7792 5.5485
54.8296 5.49019
54.8798 5.42251
54.9301 5.40527
54.9803 5.4328
55.0307 5.37177
55.0809 5.32404
55.1314 5.26827
55.1816 5.2323
55.232 5.15563
55.2823 5.13921
55.3328 5.08745
55.383 5.02087
55.4335 5.03417
55.4838 4.93894
55.5344 4.90006
55.5847 4.91079
55.6352 4.8554
55.6856 4.82291
55.7361 4.79378