File: XRD/Ni3Fe_FD0757.xy
TT I
1.27165 7.45503
1.31627 6.66146
1.36089 6.17491
1.40551 6.00178
1.45013 5.74852
1.49476 6.36982
1.53938 5.94281
1.584 5.35069
1.62863 5.47084
1.67325 5.15403
1.71787 5.13505
1.7625 4.85412
1.80712 5.14193
1.85174 4.54144
1.89636 4.92997
1.94099 4.6714
1.98562 5.18179
2.03025 3.98632
2.07487 4.33685
2.11949 5.06288
2.16411 5.06419
2.20874 15.8438
2.25338 25.8708
2.298 6.71308
2.34263 4.83162
2.38725 6.4683
2.43188 6.16951
2.4765 6.62566
2.52115 7.19388
2.56577 7.57088
2.6104 8.12931
2.65503 7.84483
2.69965 8.48843
2.7443 7.85952
2.78893 8.23193
2.83356 8.87299
2.87818 8.47456
2.92281 8.90451
2.96744 10.1455
3.01209 10.5296
3.05672 11.0941
3.10135 11.9967
3.14599 13.2928
3.19062 14.2934
3.23527 14.642
3.2799 15.5106
3.32454 16.7963
3.36917 17.8638
3.4138 18.9941
3.45844 19.7731
3.50309 21.1496
3.54773 21.749
3.59237 24.6394
3.637 104.847
3.68164 66.596
3.7263 26.861
3.77094 26.2429
3.81558 26.6582
3.86022 27.351
3.90486 29.213
3.9495 29.7536
3.99416 30.7251
4.0388 31.935
4.08344 33.5819
4.12809 34.7276
4.17273 36.9417
4.21738 43.5732
4.26204 280.829
4.30669 256.53
4.35133 49.625
4.39598 44.4112
4.44063 54.8964
4.4853 69.3716
4.52995 50.282
4.5746 50.7239
4.61925 52.5592
4.6639 54.7956
4.70855 57.2345
4.75322 59.8426
4.79788 63.2595
4.84253 66.6612
4.88719 70.3795
4.93184 73.9975
4.97652 79.4421
5.02118 84.8755
5.06583 91.9848
5.11049 102.561
5.15515 175.422
5.19981 303.565
5.24449 2462.09
5.28916 13032.8
5.33382 3058.95
5.37848 189.006
5.42315 127.765
5.46783 112.273
5.5125 105.101
5.55716 100.442
5.60183 97.4873
5.6465 96.1044
5.69117 93.0968
5.73586 91.0169
5.78053 89.8692
5.8252 89.7051
5.86988 89.6827
5.91455 91.6051
5.95924 98.1146
6.00392 178.269
6.0486 837.152
6.09328 4304.92
6.13795 3217.56
6.18263 244.156
6.22733 92.4058
6.27201 82.4329
6.3167 106.143
6.36138 82.3268
6.40606 68.7884
6.45075 67.004
6.49545 65.2428
6.54014 63.5268
6.58483 62.8975
6.62952 62.5717
6.67421 97.7683
6.71892 160.695
6.76361 70.9807
6.8083 58.0288
6.853 57.3108
6.89769 56.8787
6.94239 56.2959
6.98711 55.3868
7.03181 55.1704
7.07651 55.3862
7.12121 54.9606
7.16591 55.3992
7.21063 55.8178
7.25533 72.4355
7.30004 204.584
7.34475 100.301
7.38945 56.7896
7.43416 54.594
7.47889 54.117
7.5236 54.6557
7.56831 55.4209
7.61303 57.0646
7.65774 57.3675
7.70247 55.7437
7.74719 55.5669
7.79191 56.3758
7.83663 56.4727
7.88135 57.4617
7.92607 58.5162
7.97081 59.1487
8.01553 60.3482
8.06026 61.7781
8.10498 63.4536
8.14971 73.9798
8.19446 73.1302
8.23919 69.1013
8.28392 71.1204
8.32865 73.439
8.37339 76.8081
8.41812 84.1967
8.46288 115.649
8.50761 149.592
8.55235 345.308
8.59709 1097.67
8.64183 2169.96
8.68658 1052.94
8.73134 169.603
8.77609 98.8616
8.82083 91.8871
8.86558 88.6202
8.91033 89.3176
8.9551 92.205
8.99985 84.9881
9.04461 83.1069
9.08936 81.9608
9.13412 80.8327
9.17888 81.0657
9.22365 82.4255
9.26841 81.1706
9.31318 81.6155
9.35794 81.5557
9.4027 82.2142
9.44749 83.1567
9.49226 83.7546
9.53703 84.5542
9.5818 86.6086
9.62657 91.698
9.67134 99.3346
9.71614 92.9264
9.76091 92.9244
9.80569 95.5048
9.85047 98.7112
9.89525 125.372
9.94005 138.728
9.98484 159.375
10.0296 304.169
10.0744 750.751
10.1192 1747.24
10.164 1639.8
10.2088 411.329
10.2536 127.175
10.2984 112.998
10.3432 116.534
10.388 103.654
10.4328 112.693
10.4776 149.912
10.5224 268.294
10.5672 513.382
10.612 517.787
10.6568 213.138
10.7017 96.6138
10.7465 85.9969
10.7913 82.5643
10.8361 80.4702
10.8809 78.388
10.9257 78.0323
10.9706 78.9981
11.0154 74.5861
11.0602 72.2753
11.105 71.2639
11.1499 76.5241
11.1947 86.1491
11.2395 75.4171
11.2844 70.7734
11.3292 67.1423
11.374 65.4255
11.4189 65.1666
11.4637 64.7874
11.5086 65.0511
11.5534 68.7687
11.5983 65.6151
11.6431 63.1951
11.688 62.403
11.7328 62.4546
11.7777 62.5387
11.8225 62.1196
11.8674 62.1005
11.9122 62.2717
11.9571 62.4282
12.002 62.6893
12.0468 65.667
12.0917 76.0349
12.1366 98.6626
12.1814 147.437
12.2263 207.872
12.2712 173.535
12.3161 100.914
12.3609 71.5028
12.4058 64.4553
12.4507 63.8617
12.4956 63.6718
12.5405 64.0192
12.5853 64.9665
12.6302 73.7636
12.6751 80.8076
12.72 70.4307
12.7649 67.1616
12.8098 67.669
12.8547 69.116
12.8996 70.3767
12.9445 71.5047
12.9894 73.1364
13.0343 74.8264
13.0792 77.4457
13.1242 84.4841
13.1691 106.008
13.214 139.748
13.2589 226.045
13.3038 365.957
13.3487 432.057
13.3937 273.835
13.4386 127.667
13.4835 102.244
13.5285 114.177
13.5734 149.237
13.6183 238.094
13.6633 346.491
13.7082 347.149
13.7531 192.107
13.7981 98.5461
13.843 81.2611
13.888 78.8614
13.9329 76.33
13.9779 75.1968
14.0228 73.567
14.0678 72.2189
14.1127 72.0987
14.1577 72.1084
14.2027 71.144
14.2476 69.7762
14.2926 70.0268
14.3376 71.3404
14.3825 70.0316
14.4275 68.0986
14.4725 67.9489
14.5175 68.1658
14.5624 68.2464
14.6074 70.5183
14.6524 71.4588
14.6974 69.7366
14.7424 70.7565
14.7874 75.9996
14.8324 85.3554
14.8774 105.583
14.9224 147.242
14.9674 204.572
15.0124 223.397
15.0574 153.123
15.1024 92.7083
15.1474 71.7228
15.1924 69.9773
15.2374 70.758
15.2824 70.3911
15.3274 68.1582
15.3725 66.4724
15.4175 65.8328
15.4625 65.6084
15.5076 65.7994
15.5526 65.7997
15.5976 65.0782
15.6426 65.6083
15.6877 69.8384
15.7327 76.8767
15.7778 91.264
15.8228 121.204
15.8679 166.339
15.9129 194.275
15.958 158.79
16.003 99.6578
16.0481 68.5146
16.0931 64.6056
16.1382 62.8557
16.1833 60.4669
16.2283 58.8513
16.2734 57.972
16.3185 58.4019
16.3636 59.5007
16.4086 57.819
16.4537 55.9337
16.4988 55.05
16.5439 55.1396
16.589 54.7896
16.6341 54.6619
16.6792 54.2799
16.7243 54.4807
16.7694 54.7026
16.8145 54.3893
16.8596 55.1331
16.9047 56.7642
16.9498 56.9418
16.9949 55.436
17.04 55.1836
17.0851 56.1664
17.1302 57.7504
17.1754 60.6901
17.2205 65.6769
17.2656 73.5245
17.3108 82.8242
17.3559 82.8712
17.401 71.3194
17.4462 61.7637
17.4913 58.5008
17.5365 58.531
17.5815 58.6233
17.6268 59.0608
17.6718 59.9658
17.7171 60.3604
17.7622 60.7199
17.8074 61.3384
17.8525 62.7815
17.8977 66.5265
17.9428 71.7183
17.9881 80.0712
18.0331 96.5833
18.0784 119.473
18.1237 138.487
18.1688 131.581
18.214 103.899
18.2591 86.0129
18.3044 89.1017
18.3495 99.434
18.3948 106.318
18.4399 97.0757
18.4852 78.2273
18.5303 66.151
18.5756 61.7947
18.6207 60.7933
18.666 60.0751
18.7112 59.2425
18.7565 58.7673
18.8016 58.4017
18.8469 57.6597
18.892 57.447
18.9374 56.8263
18.9825 56.6335
19.0278 56.6321
19.073 56.5613
19.1183 56.6725
19.1635 57.6652
19.2088 58.8477
19.254 61.1557
19.2993 65.5094
19.3447 72.3346
19.3898 76.5441
19.4352 72.5979
19.4804 63.4741
19.5257 56.7033
19.5709 53.9343
19.6163 53.5082
19.6615 53.2964
19.7068 52.8234
19.752 52.7616
19.7974 53.046
19.8426 53.8452
19.888 54.409
19.9332 55.6475
19.9786 58.0143
20.0238 61.3261
20.0692 66.6208
20.1144 69.2884
20.1598 67.9864
20.205 63.046
20.2504 61.4421
20.2957 63.2881
20.3411 65.7603
20.3863 64.2077
20.4318 58.4798
20.477 53.6987
20.5224 51.6135
20.5677 50.7097
20.6131 49.9982
20.6586 49.4089
20.7038 49.258
20.7493 48.7962
20.7945 48.6168
20.84 48.4054
20.8853 48.4398
20.9307 48.2364
20.976 48.3587
21.0215 48.0459
21.0668 48.6694
21.1122 49.2032
21.1575 49.7013
21.203 50.482
21.2483 50.9562
21.2938 51.0814
21.3391 49.6836
21.3846 48.5924
21.4299 47.996
21.4754 47.9962
21.5207 48.1021
21.5662 48.3034
21.6116 48.7449
21.6571 49.2921
21.7024 50.1247
21.7479 51.981
21.7933 54.4874
21.8388 58.081
21.8843 62.036
21.9297 64.2639
21.9752 63.1647
22.0206 59.5772
22.0661 56.3379
22.1115 55.7466
22.157 55.673
22.2024 54.2811
22.248 51.2807
22.2933 49.7284
22.3389 48.8666
22.3843 48.7674
22.4299 48.7644
22.4753 48.5755
22.5208 48.4252
22.5662 48.0157
22.6118 48.2058
22.6572 48.4365
22.7028 48.9525
22.7483 49.2785
22.7939 49.9309
22.8393 51.1712
22.8849 53.3366
22.9303 55.7471
22.9759 57.6071
23.0214 57.3015
23.067 54.568
23.1126 50.9625
23.1581 48.9273
23.2037 48.43
23.2492 48.4614
23.2948 48.3418
23.3403 48.6446
23.3859 49.0392
23.4314 50.1037
23.477 51.9356
23.5225 54.2655
23.5682 56.5715
23.6137 57.7844
23.6593 55.6713
23.7048 51.6591
23.7505 48.2104
23.796 46.2727
23.8417 45.7536
23.8872 45.323
23.9329 44.9459
23.9784 44.5725
24.0241 44.3016
24.0697 44.2556
24.1154 43.9063
24.1609 43.535
24.2066 43.4815
24.2522 43.4484
24.2979 43.2424
24.3434 43.0003
24.3892 42.7779
24.4349 42.7878
24.4805 42.7391
24.5262 42.7651
24.5718 42.6554
24.6175 42.6278
24.6631 42.4629
24.7089 42.1808
24.7545 42.2745
24.8002 41.8607
24.8458 42.0095
24.8916 41.866
24.9372 41.9209
24.983 42.1481
25.0286 42.3877
25.0744 42.9115
25.12 43.3068
25.1658 44.0184
25.2114 44.2585
25.2572 44.5402
25.3029 44.6931
25.3487 44.835
25.3943 44.421
25.4402 43.4924
25.4858 42.3465
25.5316 41.2418
25.5773 40.6277
25.6231 40.6824
25.669 40.2387
25.7147 40.3125
25.7605 40.256
25.8062 40.2427
25.8521 40.409
25.8977 40.1387
25.9436 40.5829
25.9893 40.7472
26.0352 41.0695
26.0809 41.2874
26.1268 41.4866
26.1725 41.2485
26.2184 40.5342
26.2641 40.0043
26.31 39.7269
26.3557 39.9297
26.4017 39.9739
26.4474 40.0404
26.4933 40.4053
26.5391 40.8398
26.585 41.3697
26.6308 41.7498
26.6767 41.9065
26.7225 41.8156
26.7684 41.4221
26.8142 40.7161
26.8601 40.1803
26.9059 39.8328
26.9519 39.3141
26.9979 38.9627
27.0437 38.5308
27.0896 38.3661
27.1354 38.3696
27.1814 38.2778
27.2272 38.2178
27.2732 38.2806
27.3191 37.95
27.3651 38.1728
27.4109 38.1527
27.4569 38.2867
27.5027 38.3809
27.5488 38.4075
27.5946 38.1537
27.6407 37.9545
27.6865 37.8712
27.7326 37.6548
27.7784 37.629
27.8245 37.5308
27.8703 37.8307
27.9164 38.0556
27.9623 38.1208
28.0084 38.3759
28.0543 38.7815
28.1003 38.641
28.1462 38.6661
28.1923 38.2612
28.2384 37.7275
28.2843 37.4223
28.3304 37.02
28.3764 36.5981
28.4225 36.3696
28.4684 36.0088
28.5145 35.702
28.5605 35.588
28.6066 35.3803
28.6526 35.4006
28.6987 35.389
28.7447 35.2395
28.7908 35.2516
28.8368 35.3579
28.8829 35.3255
28.9289 35.1015
28.9751 35.1033
29.0211 34.6562
29.0673 34.4943
29.1133 34.4561
29.1595 34.2472
29.2055 34.0796
29.2517 34.142
29.2977 34.1144
29.3439 34.0876
29.3899 34.014
29.4361 33.9735
29.4824 33.8034
29.5284 33.701
29.5746 33.2825
29.6207 32.9875
29.6669 32.7775
29.713 32.7264
29.7593 32.7338
29.8053 32.5975
29.8516 32.657
29.8977 32.6291
29.9439 32.4511
29.99 32.4681
30.0363 32.1701
30.0824 32.3125
30.1287 32.2226
30.1748 32.1792
30.2211 32.2888
30.2673 32.061
30.3136 32.1058
30.3597 32.0235
30.406 32.0306
30.4522 31.8803
30.4985 31.8589
30.5447 31.9767
30.591 31.9123
30.6372 32.0503
30.6835 32.0373
30.7297 32.0595
30.7761 32.0114
30.8224 31.8165
30.8686 31.7234
30.915 31.4445
30.9612 31.3808
31.0076 31.1203
31.0538 31.2042
31.1002 31.0308
31.1464 30.7377
31.1928 30.7558
31.2391 30.7624
31.2855 30.6034
31.3317 30.7139
31.3781 30.7643
31.4244 30.7023
31.4708 30.6535
31.5171 30.5907
31.5636 30.6273
31.6098 30.2743
31.6563 30.1527
31.7026 30.0726
31.7491 29.9684
31.7953 30.0089
31.8418 29.8656
31.8881 29.9679
31.9346 29.9268
31.9809 29.8526
32.0275 29.8439
32.074 29.6828
32.1203 29.3632
32.1668 29.3746
32.2132 29.2682
32.2597 29.12
32.306 29.0383
32.3526 28.8802
32.399 28.8061
32.4455 28.5696
32.4919 28.5707
32.5385 28.4953
32.5848 28.2681
32.6314 28.3351
32.6778 28.2285
32.7244 28.0356
32.7708 28.0275
32.8174 27.9792
32.8638 27.8657
32.9104 27.906
32.9569 27.9795
33.0035 27.6798
33.0499 27.6704
33.0966 27.6809
33.143 27.6186
33.1897 27.4859
33.2361 27.4766
33.2828 27.3856
33.3293 27.2666
33.3759 27.2154
33.4226 27.0575
33.4691 26.9443
33.5158 26.8154
33.5623 26.7453
33.609 26.5848
33.6555 26.5272
33.7022 26.4474
33.7487 26.3649
33.7954 26.372
33.842 26.1663
33.8887 26.2194
33.9353 26.0993
33.982 26.0072
34.0286 25.8708
34.0753 25.8455
34.1219 25.812
34.1687 25.8037
34.2152 25.6561
34.262 25.517
34.3086 25.4377
34.3554 25.425
34.402 25.1983
34.4488 25.1591
34.4954 25.0852
34.5422 25.0129
34.5889 24.8769
34.6357 24.9148
34.6825 24.7975
34.7292 24.6928
34.776 24.7253
34.8227 24.5586
34.8695 24.4366
34.9162 24.4684
34.9631 24.3415
35.0098 24.3649
35.0566 24.2029
35.1033 24.1311
35.1502 24.0473
35.1969 24.0857
35.2438 24.0701
35.2906 23.9271
35.3375 23.9088
35.3842 23.86
35.4311 23.8595
35.4779 23.8533
35.5248 23.7551
35.5716 23.634
35.6185 23.6417
35.6653 23.4656
35.7123 23.3924
35.759 23.3235
35.806 23.2504
35.8528 23.1888
35.8998 23.0932
35.9468 23.0424
35.9936 22.9295
36.0406 22.8722
36.0874 22.9504
36.1345 22.8087
36.1813 22.7243
36.2283 22.5981
36.2752 22.5131
36.3222 22.5513
36.3691 22.5016
36.4161 22.3265
36.463 22.2175
36.5101 22.2355
36.557 22.2131
36.6041 22.1102
36.651 22.0639
36.6981 21.9238
36.745 21.8977
36.7921 21.8447
36.839 21.7343
36.8861 21.6759
36.9331 21.5623
36.9802 21.5375
37.0272 21.4888
37.0743 21.4083
37.1213 21.3871
37.1684 21.3007
37.2154 21.2615
37.2626 21.1049
37.3098 21.0791
37.3568 21.0736
37.404 21.0537
37.451 20.9404
37.4982 20.847
37.5452 20.6696
37.5924 20.6574
37.6395 20.6944
37.6867 20.5176
37.7337 20.477
37.781 20.3917
37.8281 20.4192
37.8753 20.2728
37.9224 20.2092
37.9697 20.214
38.0168 20.1195
38.064 20.0477
38.1111 19.983
38.1584 19.8963
38.2056 19.8173
38.2529 19.7886
38.3 19.7394
38.3473 19.6997
38.3945 19.5278
38.4418 19.5803
38.489 19.472
38.5363 19.4019
38.5837 19.3993
38.6309 19.3299
38.6782 19.2303
38.7254 19.1497
38.7728 19.2042
38.82 19.0828
38.8674 18.9698
38.9146 18.9706
38.9621 18.8548
39.0093 18.825
39.0567 18.7424
39.104 18.7081
39.1514 18.5888
39.1987 18.6527
39.2461 18.4976
39.2934 18.4725
39.3409 18.3451
39.3882 18.3226
39.4356 18.2769
39.483 18.2124
39.5304 18.1738
39.5778 18.1433
39.6253 18.0732
39.6726 18.0071
39.7201 17.9676
39.7675 17.8908
39.815 17.8199
39.8624 17.7417
39.9099 17.7368
39.9575 17.6203
40.0049 17.6313
40.0525 17.5174
40.0999 17.535
40.1474 17.4224
40.1949 17.3507
40.2425 17.355
40.2899 17.2624
40.3375 17.2485
40.385 17.1737
40.4326 17.1125
40.48 17.0096
40.5277 17.0356
40.5752 16.9266
40.6228 16.8983
40.6703 16.8192
40.718 16.7292
40.7655 16.7055
40.8132 16.6705
40.8607 16.639
40.9084 16.556
40.9559 16.4921
41.0036 16.4606
41.0512 16.4521
41.0989 16.4347
41.1465 16.3226
41.1942 16.281
41.242 16.1325
41.2896 16.1512
41.3373 16.0415
41.3849 16.0348
41.4327 15.9198
41.4803 15.9258
41.5281 15.875
41.5758 15.7898
41.6236 15.7608
41.6712 15.7014
41.7191 15.6733
41.7667 15.6147
41.8146 15.5693
41.8622 15.4795
41.9101 15.4341
41.9578 15.3989
42.0057 15.3904
42.0534 15.3329
42.1013 15.251
42.149 15.1805
42.1969 15.1489
42.2446 15.0815
42.2925 15.0515
42.3403 14.9869
42.3882 14.9758
42.436 14.8815
42.4839 14.8472
42.5319 14.8464
42.5797 14.7745
42.6277 14.7527
42.6755 14.6394
42.7235 14.5806
42.7713 14.5584
42.8193 14.5255
42.8671 14.3898
42.9152 14.4344
42.963 14.3538
43.0111 14.2248
43.0589 14.2804
43.107 14.1911
43.1549 14.1737
43.2029 14.0724
43.2508 14.0834
43.2989 13.998
43.3468 13.9753
43.3949 13.935
43.4429 13.8754
43.491 13.8388
43.5389 13.7885
43.5871 13.7156
43.635 13.6542
43.6832 13.6416
43.7312 13.5677
43.7793 13.5345
43.8273 13.4954
43.8755 13.4225
43.9237 13.3688
43.9717 13.3293
44.0199 13.2927
44.068 13.2602
44.1162 13.176
44.1642 13.1627
44.2125 13.1048
44.2606 13.0339
44.3088 12.9939
44.3569 12.9648
44.4052 12.9558
44.4533 12.9084
44.5016 12.8009
44.5497 12.7904
44.598 12.7809
44.6461 12.7203
44.6945 12.6391
44.7426 12.6519
44.791 12.5742
44.8391 12.508
44.8875 12.4792
44.9357 12.4681
44.984 12.4145
45.0322 12.3745
45.0806 12.3241
45.1288 12.3039
45.1773 12.2477
45.2257 12.1722
45.2739 12.0981
45.3224 12.1078
45.3706 12.0509
45.4191 12.0263
45.4673 12.0015
45.5158 11.9477
45.5641 11.9102
45.6126 11.8441
45.6609 11.7779
45.7094 11.7378
45.7577 11.7432
45.8063 11.6524
45.8546 11.6238
45.9031 11.5911
45.9515 11.4839
46.0001 11.5297
46.0484 11.4641
46.097 11.4304
46.1454 11.4127
46.194 11.3641
46.2424 11.3088
46.291 11.2922
46.3395 11.2603
46.3881 11.1947
46.4365 11.1588
46.4852 11.1201
46.5337 11.0612
46.5823 11.0063
46.631 10.9817
46.6795 10.9622
46.7282 10.897
46.7767 10.8653
46.8254 10.8107
46.8739 10.7984
46.9226 10.7092
46.9712 10.7121
47.0199 10.6948
47.0685 10.6305
47.1173 10.5374
47.1658 10.5416
47.2146 10.5294
47.2632 10.462
47.312 10.4705
47.3606 10.4263
47.4095 10.3667
47.4581 10.3189
47.5069 10.2561
47.5556 10.2562
47.6044 10.2059
47.6531 10.1493
47.702 10.1335
47.7507 10.0685
47.7996 10.0497
47.8483 10.0308
47.8972 9.93477
47.9461 9.9896
47.9948 9.87675
48.0438 9.87411
48.0925 9.85816
48.1415 9.81935
48.1902 9.75993
48.2392 9.76263
48.288 9.74608
48.337 9.65882
48.3858 9.62872
48.4348 9.59801
48.4837 9.59063
48.5327 9.53664
48.5815 9.48406
48.6306 9.45142
48.6795 9.45961
48.7285 9.35296
48.7774 9.35707
48.8265 9.36421
48.8754 9.28898
48.9245 9.2679
48.9734 9.21379
49.0226 9.19668
49.0715 9.14131
49.1206 9.08105
49.1696 9.08042
49.2188 9.01692
49.2679 9.00105
49.3169 8.95644
49.3661 8.94634
49.4151 8.85192
49.4643 8.86052
49.5134 8.85757
49.5626 8.79336
49.6117 8.7334
49.6609 8.73349
49.71 8.68147
49.7592 8.68931
49.8083 8.62279
49.8576 8.60391
49.9067 8.56398
49.956 8.53533
50.0052 8.50562
50.0545 8.47344
50.1036 8.44117
50.153 8.42296
50.2022 8.37662
50.2515 8.33582
50.3007 8.30615
50.3501 8.22362
50.3993 8.2158
50.4487 8.20118
50.498 8.16776
50.5474 8.13342
50.5966 8.08521
50.6461 8.06847
50.6955 8.07367
50.7448 7.99761
50.7943 7.99632
50.8436 7.94931
50.8931 7.95684
50.9424 7.87638
50.9919 7.85685
51.0413 7.83388
51.0908 7.79088
51.1402 7.77042
51.1897 7.7556
51.2391 7.71099
51.2887 7.66655
51.3381 7.62075
51.3877 7.62782
51.4371 7.58446
51.4867 7.52597
51.5362 7.55075
51.5858 7.50657
51.6353 7.38661
51.6849 7.43916
51.7344 7.41096
51.7841 7.36268
51.8336 7.32418
51.8833 7.31927
51.9328 7.25274
51.9826 7.19959
52.0323 7.22599
52.0818 7.14376
52.1316 7.09176
52.1812 7.18604
52.231 7.12828
52.2806 7.06954
52.3304 7.03905
52.38 7.03651
52.4298 6.94363
52.4794 6.97488
52.5293 6.90584
52.5789 6.89593
52.6288 6.8822
52.6785 6.83782
52.7284 6.8246
52.7781 6.77553
52.828 6.76451
52.8777 6.73114
52.9276 6.69723
52.9774 6.63858
53.0273 6.64623
53.0771 6.62405
53.1271 6.60514
53.1769 6.55835
53.2269 6.54016
53.2767 6.50877
53.3267 6.42277
53.3765 6.48095
53.4266 6.39926
53.4766 6.40933
53.5265 6.3997
53.5765 6.35634
53.6264 6.29688
53.6765 6.26802
53.7264 6.29041
53.7765 6.22155
53.8265 6.20483
53.8766 6.18069
53.9266 6.15656
53.9767 6.10987
54.0267 6.12595
54.0769 6.07474
54.1269 6.03295
54.1771 5.97401
54.2271 6.00071
54.2773 5.97668
54.3274 5.87415
54.3776 5.9232
54.4277 5.85204
54.478 5.79179
54.528 5.75571
54.5783 5.71852
54.6285 5.68745
54.6788 5.65774
54.7289 5.62238
54.7792 5.56531
54.8296 5.50339
54.8798 5.52401
54.9301 5.45878
54.9803 5.40197
55.0307 5.40418
55.0809 5.32931
55.1314 5.32243
55.1816 5.2647
55.232 5.27071
55.2823 5.21107
55.3328 5.1685
55.383 5.06328
55.4335 5.02552
55.4838 4.97108
55.5344 4.9757
55.5847 4.90855
55.6352 4.96045
55.6856 4.8591
55.7361 4.78566