File: XRD/Ni3Fe_FD0162.xy
TT I
1.27165 8.15346
1.31627 7.15112
1.36089 7.47885
1.40551 6.60361
1.45013 6.88886
1.49476 6.51777
1.53938 6.41851
1.584 6.05798
1.62863 6.03634
1.67325 5.86729
1.71787 5.71051
1.7625 5.05285
1.80712 4.93287
1.85174 6.21918
1.89636 4.77722
1.94099 5.21535
1.98562 5.47744
2.03025 5.02896
2.07487 4.92293
2.11949 4.38286
2.16411 4.45327
2.20874 4.83215
2.25338 4.16291
2.298 4.77648
2.34263 4.12857
2.38725 4.21549
2.43188 4.08424
2.4765 4.76345
2.52115 4.45816
2.56577 4.80835
2.6104 5.23128
2.65503 5.12004
2.69965 6.01856
2.7443 6.21365
2.78893 6.47398
2.83356 7.56867
2.87818 8.36649
2.92281 8.88466
2.96744 9.5383
3.01209 10.2161
3.05672 11.0971
3.10135 11.9988
3.14599 12.9226
3.19062 14.0099
3.23527 15.0022
3.2799 16.0818
3.32454 16.524
3.36917 17.7284
3.4138 18.7448
3.45844 19.8
3.50309 20.8526
3.54773 21.0773
3.59237 22.1028
3.637 22.9783
3.68164 23.3214
3.7263 24.4175
3.77094 25.1448
3.81558 26.0392
3.86022 26.4156
3.90486 27.6962
3.9495 28.7301
3.99416 29.3804
4.0388 30.8893
4.08344 31.7878
4.12809 33.0048
4.17273 34.3408
4.21738 35.5913
4.26204 36.4906
4.30669 37.6288
4.35133 39.5529
4.39598 41.0354
4.44063 43.4201
4.4853 45.2544
4.52995 47.3534
4.5746 49.5747
4.61925 51.4891
4.6639 54.2703
4.70855 56.637
4.75322 59.4628
4.79788 62.5169
4.84253 66.0905
4.88719 70.4413
4.93184 75.6308
4.97652 81.956
5.02118 90.3144
5.06583 101.116
5.11049 116.221
5.15515 152.682
5.19981 532.93
5.24449 3773.12
5.28916 8437.71
5.33382 6239.94
5.37848 427.563
5.42315 161.187
5.46783 127.287
5.5125 113.826
5.55716 107.331
5.60183 101.657
5.6465 98.3447
5.69117 97.119
5.73586 95.5504
5.78053 95.3792
5.8252 95.3191
5.86988 98.3488
5.91455 105.087
5.95924 123.209
6.00392 282.534
6.0486 1370.29
6.09328 2774.14
6.13795 4050.89
6.18263 697.284
6.22733 121.777
6.27201 89.0079
6.3167 78.335
6.36138 72.7575
6.40606 68.455
6.45075 66.3556
6.49545 64.406
6.54014 62.3494
6.58483 61.0656
6.62952 59.99
6.67421 58.3244
6.71892 57.4833
6.76361 56.6764
6.8083 55.5796
6.853 54.9353
6.89769 54.5827
6.94239 54.1409
6.98711 53.5539
7.03181 53.4384
7.07651 52.9518
7.12121 52.4116
7.16591 52.5137
7.21063 52.2735
7.25533 52.1298
7.30004 52.2907
7.34475 52.1055
7.38945 52.194
7.43416 51.9714
7.47889 51.9738
7.5236 55.8234
7.56831 62.8002
7.61303 55.1105
7.65774 53.5944
7.70247 54.2245
7.74719 54.3243
7.79191 54.6604
7.83663 55.3003
7.88135 56.0549
7.92607 57.282
7.97081 58.3603
8.01553 59.1767
8.06026 60.8467
8.10498 62.0705
8.14971 63.4969
8.19446 65.3315
8.23919 68.0635
8.28392 70.7072
8.32865 73.3752
8.37339 77.9498
8.41812 83.3061
8.46288 95.3346
8.50761 170.767
8.55235 597.501
8.59709 900.464
8.64183 1513.61
8.68658 1628.65
8.73134 389.697
8.77609 115.584
8.82083 97.0141
8.86558 91.1706
8.91033 88.3087
8.9551 85.456
8.99985 83.8821
9.04461 83.0273
9.08936 82.5128
9.13412 81.5782
9.17888 81.7
9.22365 86.7184
9.26841 95.8918
9.31318 86.1468
9.35794 82.4845
9.4027 82.2733
9.44749 83.0441
9.49226 83.3552
9.53703 84.854
9.5818 86.0132
9.62657 87.173
9.67134 88.5593
9.71614 90.9219
9.76091 92.8857
9.80569 95.7151
9.85047 98.5788
9.89525 103.967
9.94005 114.001
9.98484 183.534
10.0296 541.155
10.0744 742.568
10.1192 1052.73
10.164 1693.12
10.2088 977.514
10.2536 212.163
10.2984 116.218
10.3432 107.75
10.388 104.528
10.4328 120.613
10.4776 213.279
10.5224 263.581
10.5672 337.089
10.612 499.198
10.6568 378.86
10.7017 139.329
10.7465 90.5961
10.7913 83.8024
10.8361 80.4619
10.8809 78.3233
10.9257 75.9855
10.9706 74.44
11.0154 72.8685
11.0602 71.1687
11.105 70.386
11.1499 68.6162
11.1947 68.0065
11.2395 66.7777
11.2844 66.3201
11.3292 65.3746
11.374 65.01
11.4189 64.26
11.4637 63.501
11.5086 62.7672
11.5534 62.3012
11.5983 62.184
11.6431 62.2316
11.688 61.5193
11.7328 61.7096
11.7777 61.3387
11.8225 61.5039
11.8674 61.1136
11.9122 62.5423
11.9571 65.6436
12.002 65.0635
12.0468 67.4886
12.0917 90.1292
12.1366 108.157
12.1814 119.3
12.2263 152.665
12.2712 192.876
12.3161 139.039
12.3609 74.9725
12.4058 64.1243
12.4507 63.1567
12.4956 63.1762
12.5405 63.3572
12.5853 63.6133
12.6302 63.879
12.6751 64.537
12.72 65.1977
12.7649 66.3921
12.8098 67.0892
12.8547 68.4557
12.8996 69.9026
12.9445 71.1811
12.9894 73.1861
13.0343 75.3511
13.0792 79.2932
13.1242 86.2455
13.1691 132.24
13.214 186.284
13.2589 207.541
13.3038 250.061
13.3487 353.398
13.3937 381.144
13.4386 208.069
13.4835 118.506
13.5285 153.61
13.5734 182.318
13.6183 195.024
13.6633 242.534
13.7082 334.117
13.7531 307.106
13.7981 154.196
13.843 88.7174
13.888 80.8092
13.9329 77.4909
13.9779 76.1089
14.0228 74.6009
14.0678 73.1427
14.1127 72.9287
14.1577 74.013
14.2027 72.6067
14.2476 70.4783
14.2926 69.6251
14.3376 69.0868
14.3825 68.7885
14.4275 68.439
14.4725 68.2604
14.5175 68.4633
14.5624 68.2836
14.6074 68.7865
14.6524 69.1247
14.6974 69.9534
14.7424 71.3127
14.7874 80.4227
14.8324 106.476
14.8774 121.534
14.9224 128.235
14.9674 151.038
15.0124 194.412
15.0574 205.236
15.1024 138.045
15.1474 82.1708
15.1924 71.3122
15.2374 69.2374
15.2824 67.7657
15.3274 67.1266
15.3725 66.5621
15.4175 66.2362
15.4625 65.7142
15.5076 65.5001
15.5526 65.4248
15.5976 65.7195
15.6426 66.7207
15.6877 73.5604
15.7327 94.8302
15.7778 107.535
15.8228 112.055
15.8679 126.308
15.9129 157.342
15.958 187.014
16.003 150.603
16.0481 88.0479
16.0931 66.26
16.1382 61.8078
16.1833 60.3514
16.2283 58.764
16.2734 58.0649
16.3185 57.4543
16.3636 56.6924
16.4086 56.1655
16.4537 55.7612
16.4988 55.1674
16.5439 54.9742
16.589 54.9448
16.6341 54.5692
16.6792 54.2303
16.7243 54.2985
16.7694 54.3125
16.8145 54.1066
16.8596 54.4156
16.9047 54.8277
16.9498 54.9421
16.9949 54.9111
17.04 55.4065
17.0851 56.974
17.1302 61.0444
17.1754 64.6269
17.2205 65.4827
17.2656 67.5252
17.3108 73.1066
17.3559 80.0073
17.401 81.0175
17.4462 71.2262
17.4913 61.6415
17.5365 59.2377
17.5815 58.9761
17.6268 59.44
17.6718 59.9864
17.7171 60.3159
17.7622 61.3618
17.8074 62.4034
17.8525 63.6208
17.8977 71.816
17.9428 83.7099
17.9881 88.5083
18.0331 91.8029
18.0784 99.252
18.1237 116.048
18.1688 141.669
18.214 142.396
18.2591 110.754
18.3044 88.9052
18.3495 87.3925
18.3948 95.8157
18.4399 103.754
18.4852 95.2986
18.5303 76.0839
18.5756 65.1843
18.6207 62.5825
18.666 61.0454
18.7112 60.219
18.7565 59.2648
18.8016 58.8734
18.8469 58.3702
18.892 58.1282
18.9374 57.4796
18.9825 57.1697
19.0278 56.8944
19.073 56.9396
19.1183 57.1926
19.1635 59.7281
19.2088 61.9559
19.254 62.6574
19.2993 63.4441
19.3447 65.6424
19.3898 69.5034
19.4352 74.2062
19.4804 72.5498
19.5257 63.681
19.5709 56.4172
19.6163 54.3421
19.6615 54.0142
19.7068 53.6869
19.752 53.3962
19.7974 53.6565
19.8426 54.648
19.888 56.8197
19.9332 58.2166
19.9786 58.9821
20.0238 59.5182
20.0692 62.3214
20.1144 67.2971
20.1598 73.0064
20.205 71.1309
20.2504 65.3995
20.2957 61.2614
20.3411 62.1824
20.3863 65.1897
20.4318 64.7232
20.477 59.3363
20.5224 53.4646
20.5677 51.1922
20.6131 50.4807
20.6586 49.876
20.7038 49.6923
20.7493 49.188
20.7945 49.1918
20.84 49.2114
20.8853 48.7774
20.9307 48.7592
20.976 48.9207
21.0215 49.3097
21.0668 49.6738
21.1122 49.7382
21.1575 49.6462
21.203 49.7161
21.2483 50.5527
21.2938 51.5433
21.3391 51.5342
21.3846 50.7063
21.4299 49.5285
21.4754 48.7727
21.5207 48.8289
21.5662 49.1097
21.6116 49.4612
21.6571 51.4001
21.7024 53.3193
21.7479 54.3065
21.7933 54.7187
21.8388 56.1679
21.8843 58.9355
21.9297 62.5259
21.9752 66.2641
22.0206 65.9742
22.0661 60.9699
22.1115 56.5019
22.157 55.881
22.2024 56.6079
22.248 55.2198
22.2933 52.5916
22.3389 50.2479
22.3843 49.2912
22.4299 49.0745
22.4753 49.0805
22.5208 48.8866
22.5662 48.9438
22.6118 49.0368
22.6572 49.3017
22.7028 50.3121
22.7483 51.4673
22.7939 52.0126
22.8393 52.3528
22.8849 52.9133
22.9303 53.605
22.9759 55.3683
23.0214 57.5831
23.067 58.6726
23.1126 56.0938
23.1581 52.3614
23.2037 50.1079
23.2492 49.4581
23.2948 49.8917
23.3403 51.1095
23.3859 51.8737
23.4314 51.819
23.477 52.2606
23.5225 52.6659
23.5682 54.0037
23.6137 56.181
23.6593 58.0327
23.7048 57.3368
23.7505 53.296
23.796 49.2971
23.8417 47.0787
23.8872 46.2352
23.9329 45.8101
23.9784 45.438
24.0241 45.1413
24.0697 44.9212
24.1154 44.55
24.1609 44.3544
24.2066 44.0278
24.2522 44.006
24.2979 43.7451
24.3434 43.6505
24.3892 43.4736
24.4349 43.5177
24.4805 43.1662
24.5262 43.1345
24.5718 43.1113
24.6175 43.2487
24.6631 43.1481
24.7089 43.159
24.7545 42.876
24.8002 42.6818
24.8458 42.7452
24.8916 42.5162
24.9372 42.8773
24.983 42.9318
25.0286 43.1682
25.0744 43.6302
25.12 43.9952
25.1658 44.4411
25.2114 44.895
25.2572 45.2212
25.3029 45.1674
25.3487 45.0606
25.3943 45.1068
25.4402 45.1317
25.4858 44.5997
25.5316 43.2799
25.5773 41.912
25.6231 41.3667
25.669 41.0387
25.7147 40.9623
25.7605 40.8033
25.8062 40.9804
25.8521 41.2387
25.8977 41.2788
25.9436 41.2404
25.9893 41.1136
26.0352 41.44
26.0809 41.3451
26.1268 41.7596
26.1725 42.1634
26.2184 42.2178
26.2641 41.5869
26.31 40.9983
26.3557 41.0103
26.4017 40.8509
26.4474 41.104
26.4933 41.1522
26.5391 41.5412
26.585 41.6126
26.6308 41.9984
26.6767 42.2433
26.7225 42.9235
26.7684 42.9352
26.8142 42.3333
26.8601 41.3756
26.9059 41.0422
26.9519 40.5602
26.9979 40.2251
27.0437 39.6909
27.0896 39.4097
27.1354 39.1638
27.1814 39.132
27.2272 39.0089
27.2732 39.0645
27.3191 38.8287
27.3651 38.8977
27.4109 38.7179
27.4569 38.8066
27.5027 38.905
27.5488 38.9487
27.5946 38.8362
27.6407 38.8863
27.6865 38.8365
27.7326 38.6205
27.7784 38.7295
27.8245 38.4454
27.8703 38.5404
27.9164 38.7344
27.9623 38.6531
28.0084 38.8486
28.0543 39.1682
28.1003 39.4937
28.1462 39.5816
28.1923 39.6192
28.2384 39.0183
28.2843 38.5873
28.3304 38.0658
28.3764 37.7606
28.4225 37.2853
28.4684 36.9397
28.5145 36.4871
28.5605 36.4689
28.6066 36.2322
28.6526 36.2189
28.6987 35.9102
28.7447 35.8716
28.7908 35.6939
28.8368 35.7705
28.8829 35.6076
28.9289 35.6958
28.9751 35.5935
29.0211 35.5675
29.0673 35.3746
29.1133 35.1578
29.1595 34.9175
29.2055 34.7443
29.2517 34.7119
29.2977 34.5753
29.3439 34.4845
29.3899 34.4935
29.4361 34.4532
29.4824 34.35
29.5284 34.3719
29.5746 34.1066
29.6207 33.6905
29.6669 33.404
29.713 33.3361
29.7593 33.2024
29.8053 33.2633
29.8516 33.0599
29.8977 33.1667
29.9439 33.0821
29.99 32.9032
30.0363 32.7163
30.0824 32.8262
30.1287 32.7283
30.1748 32.6739
30.2211 32.7405
30.2673 32.5852
30.3136 32.7489
30.3597 32.7339
30.406 32.6818
30.4522 32.4525
30.4985 32.4462
30.5447 32.4764
30.591 32.3749
30.6372 32.5051
30.6835 32.3948
30.7297 32.5654
30.7761 32.581
30.8224 32.5594
30.8686 32.4883
30.915 32.183
30.9612 32.013
31.0076 31.9102
31.0538 31.7526
31.1002 31.6309
31.1464 31.3991
31.1928 31.4917
31.2391 31.3045
31.2855 31.326
31.3317 31.2014
31.3781 31.2732
31.4244 31.1809
31.4708 31.2212
31.5171 31.0861
31.5636 31.2358
31.6098 31.1727
31.6563 31.0425
31.7026 30.9302
31.7491 30.5904
31.7953 30.5284
31.8418 30.5169
31.8881 30.444
31.9346 30.3927
31.9809 30.3981
32.0275 30.3088
32.074 30.2284
32.1203 30.1668
32.1668 30.0612
32.2132 29.8794
32.2597 29.6909
32.306 29.5875
32.3526 29.4631
32.399 29.3925
32.4455 29.1825
32.4919 29.0379
32.5385 29.0512
32.5848 28.8835
32.6314 28.9312
32.6778 28.8082
32.7244 28.6415
32.7708 28.5045
32.8174 28.5046
32.8638 28.3193
32.9104 28.4702
32.9569 28.3682
33.0035 28.1642
33.0499 28.1169
33.0966 28.1482
33.143 28.1158
33.1897 28.0681
33.2361 27.9805
33.2828 27.8889
33.3293 27.815
33.3759 27.7596
33.4226 27.6686
33.4691 27.5899
33.5158 27.4479
33.5623 27.2804
33.609 27.0386
33.6555 27.0068
33.7022 26.904
33.7487 26.7791
33.7954 26.8102
33.842 26.6704
33.8887 26.6973
33.9353 26.593
33.982 26.4067
34.0286 26.4369
34.0753 26.3004
34.1219 26.2913
34.1687 26.015
34.2152 25.9691
34.262 25.9673
34.3086 25.8521
34.3554 25.8124
34.402 25.6345
34.4488 25.6052
34.4954 25.5992
34.5422 25.5458
34.5889 25.4026
34.6357 25.2737
34.6825 25.2051
34.7292 25.1541
34.776 25.0201
34.8227 24.9761
34.8695 24.9309
34.9162 24.7941
34.9631 24.682
35.0098 24.7076
35.0566 24.6517
35.1033 24.5636
35.1502 24.485
35.1969 24.4861
35.2438 24.4527
35.2906 24.363
35.3375 24.3481
35.3842 24.1954
35.4311 24.2963
35.4779 24.1716
35.5248 24.206
35.5716 24.0781
35.6185 24.0579
35.6653 23.9482
35.7123 23.8798
35.759 23.8051
35.806 23.6398
35.8528 23.4477
35.8998 23.4491
35.9468 23.4071
35.9936 23.2961
36.0406 23.219
36.0874 23.2417
36.1345 23.1442
36.1813 23.0905
36.2283 23.0417
36.2752 22.9332
36.3222 22.9232
36.3691 22.833
36.4161 22.6659
36.463 22.7251
36.5101 22.6602
36.557 22.5815
36.6041 22.4574
36.651 22.4569
36.6981 22.4728
36.745 22.3708
36.7921 22.1938
36.839 22.1036
36.8861 21.957
36.9331 21.9906
36.9802 21.9749
37.0272 21.8368
37.0743 21.7658
37.1213 21.712
37.1684 21.7059
37.2154 21.6174
37.2626 21.4499
37.3098 21.4575
37.3568 21.3843
37.404 21.372
37.451 21.1937
37.4982 21.2148
37.5452 21.0962
37.5924 21.0388
37.6395 21.1079
37.6867 20.9334
37.7337 20.8988
37.781 20.7599
37.8281 20.7208
37.8753 20.5826
37.9224 20.5564
37.9697 20.4988
38.0168 20.4878
38.064 20.4014
38.1111 20.3029
38.1584 20.2549
38.2056 20.2255
38.2529 20.1649
38.3 20.0378
38.3473 20.0557
38.3945 19.9142
38.4418 19.8889
38.489 19.8321
38.5363 19.7792
38.5837 19.6666
38.6309 19.5929
38.6782 19.5259
38.7254 19.4535
38.7728 19.4096
38.82 19.3596
38.8674 19.3044
38.9146 19.2227
38.9621 19.1574
39.0093 19.1452
39.0567 19.0809
39.104 18.9627
39.1514 18.8836
39.1987 18.8691
39.2461 18.8533
39.2934 18.7541
39.3409 18.6415
39.3882 18.6237
39.4356 18.5795
39.483 18.4921
39.5304 18.4401
39.5778 18.4327
39.6253 18.3126
39.6726 18.3601
39.7201 18.2218
39.7675 18.131
39.815 18.1656
39.8624 18.0501
39.9099 18.0308
39.9575 17.9556
40.0049 17.9684
40.0525 17.8355
40.0999 17.8305
40.1474 17.7808
40.1949 17.7022
40.2425 17.5939
40.2899 17.4952
40.3375 17.4912
40.385 17.4676
40.4326 17.4131
40.48 17.3268
40.5277 17.2692
40.5752 17.1889
40.6228 17.1627
40.6703 17.1267
40.718 17.0135
40.7655 16.9871
40.8132 16.9782
40.8607 16.8629
40.9084 16.8978
40.9559 16.8265
41.0036 16.7994
41.0512 16.7085
41.0989 16.6208
41.1465 16.5757
41.1942 16.502
41.242 16.488
41.2896 16.3965
41.3373 16.4296
41.3849 16.3197
41.4327 16.2004
41.4803 16.1762
41.5281 16.1292
41.5758 16.0739
41.6236 15.9932
41.6712 15.9689
41.7191 15.8787
41.7667 15.82
41.8146 15.857
41.8622 15.749
41.9101 15.7107
41.9578 15.6389
42.0057 15.5946
42.0534 15.5439
42.1013 15.4906
42.149 15.446
42.1969 15.3524
42.2446 15.3525
42.2925 15.2841
42.3403 15.2758
42.3882 15.2022
42.436 15.1762
42.4839 15.0702
42.5319 15.0355
42.5797 14.9723
42.6277 14.9388
42.6755 14.9038
42.7235 14.724
42.7713 14.8051
42.8193 14.7278
42.8671 14.6793
42.9152 14.6354
42.963 14.5667
43.0111 14.5206
43.0589 14.4806
43.107 14.4318
43.1549 14.3736
43.2029 14.3134
43.2508 14.2966
43.2989 14.2337
43.3468 14.1897
43.3949 14.176
43.4429 14.1027
43.491 14.0194
43.5389 13.9728
43.5871 13.9787
43.635 13.8561
43.6832 13.8944
43.7312 13.782
43.7793 13.7528
43.8273 13.7225
43.8755 13.6732
43.9237 13.601
43.9717 13.6313
44.0199 13.527
44.068 13.4774
44.1162 13.415
44.1642 13.3883
44.2125 13.3531
44.2606 13.2765
44.3088 13.2285
44.3569 13.186
44.4052 13.1895
44.4533 13.1205
44.5016 13.0102
44.5497 12.9966
44.598 12.9057
44.6461 12.8871
44.6945 12.8868
44.7426 12.8271
44.791 12.759
44.8391 12.7206
44.8875 12.6907
44.9357 12.5943
44.984 12.5835
45.0322 12.5087
45.0806 12.5219
45.1288 12.4835
45.1773 12.4321
45.2257 12.3638
45.2739 12.3587
45.3224 12.2626
45.3706 12.271
45.4191 12.1915
45.4673 12.148
45.5158 12.1107
45.5641 12.0899
45.6126 12.0014
45.6609 11.9752
45.7094 11.9343
45.7577 11.8676
45.8063 11.8312
45.8546 11.8281
45.9031 11.7631
45.9515 11.7282
46.0001 11.6884
46.0484 11.6831
46.097 11.5864
46.1454 11.5478
46.194 11.5299
46.2424 11.4792
46.291 11.4635
46.3395 11.3828
46.3881 11.3556
46.4365 11.3672
46.4852 11.2979
46.5337 11.2492
46.5823 11.2067
46.631 11.1134
46.6795 11.0957
46.7282 11.0336
46.7767 10.9945
46.8254 10.9814
46.8739 10.9541
46.9226 10.9027
46.9712 10.8517
47.0199 10.8012
47.0685 10.7884
47.1173 10.7483
47.1658 10.7204
47.2146 10.6361
47.2632 10.6063
47.312 10.5535
47.3606 10.5442
47.4095 10.479
47.4581 10.4764
47.5069 10.4279
47.5556 10.375
47.6044 10.3622
47.6531 10.3002
47.702 10.2731
47.7507 10.2534
47.7996 10.1713
47.8483 10.165
47.8972 10.1224
47.9461 10.1041
47.9948 10.0305
48.0438 10.0002
48.0925 9.96106
48.1415 9.97489
48.1902 9.8856
48.2392 9.85612
48.288 9.84805
48.337 9.83002
48.3858 9.75477
48.4348 9.72326
48.4837 9.73415
48.5327 9.7004
48.5815 9.59925
48.6306 9.61673
48.6795 9.56331
48.7285 9.53209
48.7774 9.49497
48.8265 9.4774
48.8754 9.43168
48.9245 9.40299
48.9734 9.34948
49.0226 9.35549
49.0715 9.25244
49.1206 9.25624
49.1696 9.21764
49.2188 9.16473
49.2679 9.1172
49.3169 9.09919
49.3661 9.07148
49.4151 9.06262
49.4643 9.04047
49.5134 8.98021
49.5626 8.89457
49.6117 8.8837
49.6609 8.85223
49.71 8.83241
49.7592 8.78563
49.8083 8.74308
49.8576 8.71726
49.9067 8.68955
49.956 8.68887
50.0052 8.66303
50.0545 8.61322
50.1036 8.57168
50.153 8.50711
50.2022 8.50176
50.2515 8.43398
50.3007 8.43185
50.3501 8.3832
50.3993 8.37139
50.4487 8.31889
50.498 8.33865
50.5474 8.2674
50.5966 8.24598
50.6461 8.1787
50.6955 8.14801
50.7448 8.12973
50.7943 8.11358
50.8436 8.08762
50.8931 8.05004
50.9424 8.04202
50.9919 7.95704
51.0413 7.95984
51.0908 7.91672
51.1402 7.88633
51.1897 7.85408
51.2391 7.80468
51.2887 7.79668
51.3381 7.73923
51.3877 7.74096
51.4371 7.67718
51.4867 7.66345
51.5362 7.63551
51.5858 7.61753
51.6353 7.57189
51.6849 7.57135
51.7344 7.51792
51.7841 7.49429
51.8336 7.48198
51.8833 7.394
51.9328 7.37038
51.9826 7.30583
52.0323 7.35033
52.0818 7.31722
52.1316 7.21264
52.1812 7.23131
52.231 7.2065
52.2806 7.18957
52.3304 7.14165
52.38 7.14482
52.4298 7.09228
52.4794 7.03806
52.5293 7.03484
52.5789 6.99872
52.6288 6.97514
52.6785 6.93389
52.7284 6.93847
52.7781 6.87315
52.828 6.84267
52.8777 6.76809
52.9276 6.83167
52.9774 6.75224
53.0273 6.7631
53.0771 6.73002
53.1271 6.72983
53.1769 6.66807
53.2269 6.64762
53.2767 6.60598
53.3267 6.58004
53.3765 6.53216
53.4266 6.51955
53.4766 6.46075
53.5265 6.48522
53.5765 6.44039
53.6264 6.39094
53.6765 6.38109
53.7264 6.36804
53.7765 6.32639
53.8265 6.27801
53.8766 6.27168
53.9266 6.23957
53.9767 6.16825
54.0267 6.1751
54.0769 6.16087
54.1269 6.10348
54.1771 6.08033
54.2271 6.03872
54.2773 5.9757
54.3274 6.01599
54.3776 5.96585
54.4277 5.88753
54.478 5.8489
54.528 5.82463
54.5783 5.78731
54.6285 5.75086
54.6788 5.70362
54.7289 5.66516
54.7792 5.61721
54.8296 5.57393
54.8798 5.48779
54.9301 5.49196
54.9803 5.43423
55.0307 5.3896
55.0809 5.32626
55.1314 5.35818
55.1816 5.26675
55.232 5.20793
55.2823 5.15581
55.3328 5.10716
55.383 5.03459
55.4335 5.02593
55.4838 4.9503
55.5344 4.94688
55.5847 4.82111
55.6352 4.84759
55.6856 4.81188
55.7361 4.81165