File: XRD/Ni3Fe_FD0872.xy
TT I
1.27165 6.97211
1.31627 6.8291
1.36089 6.37445
1.40551 6.47779
1.45013 5.80611
1.49476 5.9118
1.53938 5.97046
1.584 4.8309
1.62863 5.1753
1.67325 4.66122
1.71787 4.78384
1.7625 4.71833
1.80712 4.8129
1.85174 4.94139
1.89636 4.73504
1.94099 5.42982
1.98562 5.25049
2.03025 4.29859
2.07487 4.73014
2.11949 5.33606
2.16411 4.81366
2.20874 15.5092
2.25338 25.659
2.298 5.95855
2.34263 5.41206
2.38725 6.32797
2.43188 6.76185
2.4765 7.82198
2.52115 7.60364
2.56577 7.78858
2.6104 8.33649
2.65503 8.20249
2.69965 8.28542
2.7443 8.60038
2.78893 8.59727
2.83356 8.61416
2.87818 8.83105
2.92281 9.57007
2.96744 9.84443
3.01209 10.3398
3.05672 11.9026
3.10135 12.7915
3.14599 13.2382
3.19062 14.0916
3.23527 15.5375
3.2799 15.9181
3.32454 16.9012
3.36917 17.9683
3.4138 19.0193
3.45844 19.6836
3.50309 21.0846
3.54773 21.8786
3.59237 24.3975
3.637 102.717
3.68164 64.9035
3.7263 26.418
3.77094 26.55
3.81558 26.7166
3.86022 27.1418
3.90486 28.8276
3.9495 29.6395
3.99416 30.6888
4.0388 31.8619
4.08344 33.3784
4.12809 34.9411
4.17273 36.8903
4.21738 43.4895
4.26204 276.078
4.30669 247.086
4.35133 49.2892
4.39598 44.377
4.44063 54.3517
4.4853 67.0907
4.52995 49.7736
4.5746 50.321
4.61925 52.5114
4.6639 54.6006
4.70855 57.2609
4.75322 60.1359
4.79788 62.8713
4.84253 66.383
4.88719 69.7766
4.93184 73.871
4.97652 78.6743
5.02118 84.2622
5.06583 91.2349
5.11049 101.509
5.15515 171.58
5.19981 290.127
5.24449 2402.21
5.28916 12817.3
5.33382 2906.05
5.37848 179.007
5.42315 125.445
5.46783 111.071
5.5125 103.587
5.55716 100.153
5.60183 96.9478
5.6465 95.4389
5.69117 92.6141
5.73586 90.4706
5.78053 89.8584
5.8252 88.6303
5.86988 89.6615
5.91455 91.2395
5.95924 96.9455
6.00392 170.425
6.0486 800.319
6.09328 4348.03
6.13795 3199.71
6.18263 228.234
6.22733 90.8949
6.27201 81.6381
6.3167 105.054
6.36138 80.9063
6.40606 68.2615
6.45075 66.5405
6.49545 65.0664
6.54014 63.3447
6.58483 62.0442
6.62952 62.4756
6.67421 97.5743
6.71892 155.755
6.76361 70.3073
6.8083 58.2876
6.853 56.9171
6.89769 55.9406
6.94239 56.461
6.98711 55.349
7.03181 55.0761
7.07651 54.6599
7.12121 54.6785
7.16591 55.1748
7.21063 54.9892
7.25533 72.279
7.30004 195.881
7.34475 96.9891
7.38945 56.4404
7.43416 54.2731
7.47889 54.0655
7.5236 54.462
7.56831 54.5891
7.61303 56.9387
7.65774 57.077
7.70247 55.7103
7.74719 55.5617
7.79191 56.0289
7.83663 56.316
7.88135 57.1195
7.92607 57.9561
7.97081 58.7089
8.01553 59.4489
8.06026 61.6849
8.10498 62.9559
8.14971 73.5905
8.19446 72.0521
8.23919 68.5709
8.28392 70.5245
8.32865 72.55
8.37339 76.8564
8.41812 83.5737
8.46288 113.895
8.50761 144.675
8.55235 328.665
8.59709 1112.3
8.64183 2269.5
8.68658 967.158
8.73134 171.024
8.77609 97.4677
8.82083 91.1135
8.86558 88.0927
8.91033 88.6467
8.9551 91.1879
8.99985 84.072
9.04461 82.3164
9.08936 81.5133
9.13412 80.9185
9.17888 81.234
9.22365 81.853
9.26841 80.8281
9.31318 80.9582
9.35794 80.7933
9.4027 81.4291
9.44749 82.9166
9.49226 83.1286
9.53703 84.3246
9.5818 85.652
9.62657 91.0584
9.67134 98.625
9.71614 92.333
9.76091 92.3274
9.80569 94.8531
9.85047 97.9408
9.89525 124.118
9.94005 136.481
9.98484 155.756
10.0296 296.155
10.0744 744.653
10.1192 1761.92
10.164 1598.99
10.2088 403.881
10.2536 124.426
10.2984 111.763
10.3432 114.764
10.388 102.796
10.4328 111.39
10.4776 146.617
10.5224 266.254
10.5672 527.619
10.612 500.008
10.6568 200.407
10.7017 95.8263
10.7465 85.2678
10.7913 82.0834
10.8361 80.1446
10.8809 77.8822
10.9257 77.9394
10.9706 78.5874
11.0154 73.919
11.0602 71.828
11.105 70.7074
11.1499 75.9993
11.1947 84.7374
11.2395 74.5431
11.2844 70.1042
11.3292 66.3659
11.374 65.2989
11.4189 64.8948
11.4637 64.1715
11.5086 64.669
11.5534 67.9711
11.5983 64.8401
11.6431 62.6191
11.688 61.7565
11.7328 62.1599
11.7777 62.0258
11.8225 61.7108
11.8674 61.2484
11.9122 61.7883
11.9571 62.162
12.002 62.2161
12.0468 65.1897
12.0917 75.1194
12.1366 97.4213
12.1814 150.173
12.2263 208.743
12.2712 168.434
12.3161 98.1863
12.3609 70.4914
12.4058 63.8962
12.4507 63.4466
12.4956 63.6063
12.5405 63.6448
12.5853 64.5829
12.6302 73.2339
12.6751 79.7814
12.72 69.7172
12.7649 66.9971
12.8098 67.3482
12.8547 68.3581
12.8996 69.8947
12.9445 70.905
12.9894 72.455
13.0343 74.2576
13.0792 77.0693
13.1242 84.0066
13.1691 104.206
13.214 137.238
13.2589 225.172
13.3038 367.39
13.3487 429.853
13.3937 262.966
13.4386 123.363
13.4835 100.134
13.5285 112.69
13.5734 148.013
13.6183 240.672
13.6633 351.858
13.7082 343.168
13.7531 184.341
13.7981 95.6184
13.843 80.6772
13.888 78.3034
13.9329 75.8376
13.9779 74.6545
14.0228 73.3618
14.0678 71.7861
14.1127 71.5088
14.1577 71.6629
14.2027 70.6061
14.2476 69.3039
14.2926 69.4961
14.3376 70.7216
14.3825 69.3513
14.4275 67.7252
14.4725 67.4104
14.5175 67.681
14.5624 67.9702
14.6074 70.3111
14.6524 70.8472
14.6974 69.2879
14.7424 70.103
14.7874 75.2741
14.8324 84.0406
14.8774 104.464
14.9224 148.274
14.9674 207.823
15.0124 216.157
15.0574 145.721
15.1024 89.5209
15.1474 71.464
15.1924 69.2588
15.2374 70.2368
15.2824 69.7584
15.3274 67.5245
15.3725 65.8302
15.4175 65.3075
15.4625 64.9149
15.5076 65.3231
15.5526 65.3994
15.5976 64.4787
15.6426 65.3141
15.6877 69.2967
15.7327 75.6456
15.7778 89.8474
15.8228 121.851
15.8679 169.139
15.9129 196.31
15.958 157.296
16.003 94.0953
16.0481 66.9802
16.0931 64.0321
16.1382 62.234
16.1833 59.897
16.2283 58.0475
16.2734 57.5711
16.3185 58.0137
16.3636 58.9749
16.4086 57.3469
16.4537 55.7711
16.4988 54.7014
16.5439 54.6382
16.589 54.4463
16.6341 54.0206
16.6792 53.7537
16.7243 53.9229
16.7694 54.3506
16.8145 54.0707
16.8596 54.5577
16.9047 56.2587
16.9498 56.4305
16.9949 55.0294
17.04 54.8167
17.0851 55.6722
17.1302 57.0135
17.1754 60.1167
17.2205 65.2986
17.2656 73.0474
17.3108 82.6732
17.3559 81.3636
17.401 69.8633
17.4462 60.6181
17.4913 58.1873
17.5365 58.3278
17.5815 58.2017
17.6268 58.4716
17.6718 59.4813
17.7171 59.8045
17.7622 60.2393
17.8074 60.7059
17.8525 62.2261
17.8977 66.196
17.9428 70.923
17.9881 79.0366
18.0331 96.6899
18.0784 120.876
18.1237 138.611
18.1688 128.451
18.214 101.241
18.2591 84.1092
18.3044 88.8514
18.3495 99.4312
18.3948 104.978
18.4399 94.9117
18.4852 76.569
18.5303 65.1678
18.5756 61.3793
18.6207 60.2694
18.666 59.5964
18.7112 58.8754
18.7565 58.0676
18.8016 57.9137
18.8469 57.029
18.892 56.9157
18.9374 56.4612
18.9825 56.1225
19.0278 56.2296
19.073 56.1399
19.1183 56.2906
19.1635 57.1707
19.2088 58.1917
19.254 60.5829
19.2993 65.2705
19.3447 72.0886
19.3898 76.3553
19.4352 71.6676
19.4804 62.2454
19.5257 55.9305
19.5709 53.6502
19.6163 53.1718
19.6615 52.7157
19.7068 52.4362
19.752 52.4501
19.7974 52.5973
19.8426 53.3361
19.888 54.1625
19.9332 55.1609
19.9786 57.3773
20.0238 61.0066
20.0692 66.3754
20.1144 69.0857
20.1598 67.1458
20.205 62.365
20.2504 61.1967
20.2957 63.3631
20.3411 65.2795
20.3863 63.7874
20.4318 57.6535
20.477 52.9804
20.5224 50.9758
20.5677 50.3714
20.6131 49.7226
20.6586 48.9588
20.7038 48.834
20.7493 48.3137
20.7945 48.3661
20.84 48.0457
20.8853 48.1098
20.9307 48.0194
20.976 47.9602
21.0215 47.8171
21.0668 48.3477
21.1122 48.7463
21.1575 49.2762
21.203 50.2099
21.2483 50.7844
21.2938 50.9036
21.3391 49.4279
21.3846 48.2134
21.4299 47.7484
21.4754 47.7804
21.5207 47.8241
21.5662 48.0428
21.6116 48.3382
21.6571 48.8043
21.7024 49.7434
21.7479 51.4702
21.7933 54.0764
21.8388 58.0156
21.8843 62.1079
21.9297 64.039
21.9752 62.5027
22.0206 58.7625
22.0661 55.8997
22.1115 55.3916
22.157 55.352
22.2024 53.4174
22.248 50.78
22.2933 49.2076
22.3389 48.4386
22.3843 48.4201
22.4299 48.3052
22.4753 48.3173
22.5208 47.8507
22.5662 47.8415
22.6118 47.7563
22.6572 48.011
22.7028 48.4054
22.7483 48.8201
22.7939 49.438
22.8393 50.8433
22.8849 53.1409
22.9303 55.557
22.9759 57.3594
23.0214 56.8705
23.067 53.7638
23.1126 50.47
23.1581 48.6079
23.2037 48.0176
23.2492 48.0451
23.2948 48.0145
23.3403 48.3103
23.3859 48.7522
23.4314 49.8052
23.477 51.7654
23.5225 54.0889
23.5682 56.5595
23.6137 57.2508
23.6593 54.8985
23.7048 50.937
23.7505 47.7471
23.796 46.1367
23.8417 45.5012
23.8872 44.94
23.9329 44.6279
23.9784 44.2786
24.0241 44.1798
24.0697 43.9117
24.1154 43.4836
24.1609 43.3922
24.2066 43.147
24.2522 43.2173
24.2979 42.8147
24.3434 42.6664
24.3892 42.5981
24.4349 42.4229
24.4805 42.3139
24.5262 42.5466
24.5718 42.3652
24.6175 42.2466
24.6631 42.2841
24.7089 42.0089
24.7545 41.7474
24.8002 41.6888
24.8458 41.685
24.8916 41.4231
24.9372 41.6485
24.983 41.839
25.0286 42.1539
25.0744 42.6482
25.12 42.9813
25.1658 43.6997
25.2114 44.0001
25.2572 44.107
25.3029 44.3187
25.3487 44.3974
25.3943 44.0412
25.4402 42.8817
25.4858 41.8529
25.5316 40.9853
25.5773 40.5257
25.6231 40.312
25.669 40.0027
25.7147 39.9515
25.7605 39.8066
25.8062 39.9121
25.8521 40.0884
25.8977 39.8626
25.9436 40.3315
25.9893 40.4551
26.0352 40.8831
26.0809 41.0168
26.1268 41.001
26.1725 40.7186
26.2184 40.3289
26.2641 39.7351
26.31 39.6544
26.3557 39.579
26.4017 39.5169
26.4474 39.7597
26.4933 40.236
26.5391 40.7664
26.585 41.1322
26.6308 41.5688
26.6767 41.5939
26.7225 41.326
26.7684 40.9549
26.8142 40.2426
26.8601 39.88
26.9059 39.5697
26.9519 39.1362
26.9979 38.6925
27.0437 38.2348
27.0896 38.2296
27.1354 38.1922
27.1814 38.008
27.2272 37.9046
27.2732 37.9536
27.3191 37.8779
27.3651 37.9887
27.4109 37.8138
27.4569 37.9404
27.5027 38.0954
27.5488 38.0601
27.5946 37.9709
27.6407 37.5848
27.6865 37.4864
27.7326 37.3061
27.7784 37.3255
27.8245 37.2057
27.8703 37.3902
27.9164 37.7065
27.9623 37.8451
28.0084 38.2243
28.0543 38.5886
28.1003 38.5438
28.1462 38.3591
28.1923 38.0014
28.2384 37.5067
28.2843 37.1723
28.3304 36.6508
28.3764 36.216
28.4225 35.8125
28.4684 35.821
28.5145 35.4875
28.5605 35.3554
28.6066 35.3145
28.6526 35.1737
28.6987 35.1279
28.7447 35.0798
28.7908 34.9299
28.8368 34.9345
28.8829 34.982
28.9289 34.8575
28.9751 34.7456
29.0211 34.485
29.0673 34.2152
29.1133 34.0065
29.1595 33.7996
29.2055 33.8474
29.2517 33.8881
29.2977 33.9123
29.3439 33.8703
29.3899 33.8451
29.4361 33.669
29.4824 33.4664
29.5284 33.3376
29.5746 33.0808
29.6207 32.7491
29.6669 32.6572
29.713 32.5157
29.7593 32.3824
29.8053 32.4699
29.8516 32.4106
29.8977 32.3765
29.9439 32.0889
29.99 32.1505
30.0363 32.0265
30.0824 32.1972
30.1287 31.9971
30.1748 32.0151
30.2211 32.0539
30.2673 31.7791
30.3136 32.0056
30.3597 31.769
30.406 31.7817
30.4522 31.6059
30.4985 31.5938
30.5447 31.7423
30.591 31.7575
30.6372 31.8257
30.6835 31.8428
30.7297 31.9684
30.7761 31.7622
30.8224 31.6468
30.8686 31.4954
30.915 31.087
30.9612 31.1412
31.0076 30.9848
31.0538 30.7067
31.1002 30.7074
31.1464 30.4946
31.1928 30.5662
31.2391 30.5534
31.2855 30.5318
31.3317 30.4241
31.3781 30.5648
31.4244 30.5251
31.4708 30.3969
31.5171 30.385
31.5636 30.3454
31.6098 30.1508
31.6563 30.0241
31.7026 29.8484
31.7491 29.7033
31.7953 29.8648
31.8418 29.8195
31.8881 29.7493
31.9346 29.6938
31.9809 29.6566
32.0275 29.4989
32.074 29.3522
32.1203 29.2901
32.1668 29.0769
32.2132 29.0118
32.2597 28.9022
32.306 28.8614
32.3526 28.6689
32.399 28.5849
32.4455 28.3596
32.4919 28.267
32.5385 28.3068
32.5848 28.1325
32.6314 28.022
32.6778 28.0776
32.7244 27.9211
32.7708 27.7928
32.8174 27.7821
32.8638 27.7059
32.9104 27.7236
32.9569 27.7101
33.0035 27.4588
33.0499 27.4501
33.0966 27.4476
33.143 27.4872
33.1897 27.3311
33.2361 27.215
33.2828 27.2692
33.3293 27.0597
33.3759 27.0981
33.4226 26.8432
33.4691 26.7666
33.5158 26.7094
33.5623 26.5312
33.609 26.3656
33.6555 26.2776
33.7022 26.2667
33.7487 26.2147
33.7954 26.1358
33.842 26.1088
33.8887 26.0096
33.9353 25.9596
33.982 25.8259
34.0286 25.7332
34.0753 25.6997
34.1219 25.6143
34.1687 25.5078
34.2152 25.5203
34.262 25.2702
34.3086 25.2713
34.3554 25.1394
34.402 25.1541
34.4488 24.8969
34.4954 24.9431
34.5422 24.8026
34.5889 24.6932
34.6357 24.613
34.6825 24.659
34.7292 24.5712
34.776 24.3989
34.8227 24.4483
34.8695 24.2671
34.9162 24.2493
34.9631 24.1672
35.0098 24.175
35.0566 24.0313
35.1033 23.9257
35.1502 23.9413
35.1969 23.8681
35.2438 23.859
35.2906 23.8949
35.3375 23.7857
35.3842 23.648
35.4311 23.7082
35.4779 23.6575
35.5248 23.5318
35.5716 23.4811
35.6185 23.4013
35.6653 23.2899
35.7123 23.2599
35.759 23.1698
35.806 23.0968
35.8528 22.9337
35.8998 22.9238
35.9468 22.7674
35.9936 22.8376
36.0406 22.7121
36.0874 22.7172
36.1345 22.566
36.1813 22.6012
36.2283 22.4786
36.2752 22.3712
36.3222 22.4397
36.3691 22.2897
36.4161 22.1783
36.463 22.1468
36.5101 22.1353
36.557 22.1678
36.6041 21.9017
36.651 21.9463
36.6981 21.8142
36.745 21.7317
36.7921 21.7207
36.839 21.6036
36.8861 21.5358
36.9331 21.4758
36.9802 21.3663
37.0272 21.3226
37.0743 21.2786
37.1213 21.1584
37.1684 21.0993
37.2154 21.0965
37.2626 21.0322
37.3098 20.9299
37.3568 20.8394
37.404 20.8866
37.451 20.8021
37.4982 20.643
37.5452 20.6549
37.5924 20.4537
37.6395 20.5452
37.6867 20.4353
37.7337 20.3367
37.781 20.337
37.8281 20.3625
37.8753 20.1873
37.9224 20.0263
37.9697 19.9618
38.0168 19.9202
38.064 19.8848
38.1111 19.8564
38.1584 19.7873
38.2056 19.7061
38.2529 19.6254
38.3 19.5853
38.3473 19.5709
38.3945 19.4186
38.4418 19.4557
38.489 19.3631
38.5363 19.2075
38.5837 19.2173
38.6309 19.1201
38.6782 19.0985
38.7254 19.0391
38.7728 18.9718
38.82 18.8698
38.8674 18.8746
38.9146 18.8392
38.9621 18.7121
39.0093 18.6795
39.0567 18.5738
39.104 18.5203
39.1514 18.3971
39.1987 18.4823
39.2461 18.4433
39.2934 18.3146
39.3409 18.2435
39.3882 18.2161
39.4356 18.2009
39.483 18.0881
39.5304 17.9737
39.5778 17.9645
39.6253 17.857
39.6726 17.8552
39.7201 17.8102
39.7675 17.7691
39.815 17.7014
39.8624 17.6365
39.9099 17.6211
39.9575 17.5142
40.0049 17.4497
40.0525 17.4074
40.0999 17.3478
40.1474 17.3123
40.1949 17.1965
40.2425 17.1808
40.2899 17.1309
40.3375 17.1031
40.385 17.0405
40.4326 16.9815
40.48 16.9229
40.5277 16.8609
40.5752 16.8228
40.6228 16.7435
40.6703 16.6823
40.718 16.6301
40.7655 16.5814
40.8132 16.6025
40.8607 16.5292
40.9084 16.4762
40.9559 16.418
41.0036 16.3466
41.0512 16.3712
41.0989 16.2091
41.1465 16.2199
41.1942 16.1813
41.242 16.0054
41.2896 16.0471
41.3373 15.9563
41.3849 15.894
41.4327 15.9178
41.4803 15.7811
41.5281 15.765
41.5758 15.7012
41.6236 15.5697
41.6712 15.5627
41.7191 15.4581
41.7667 15.5016
41.8146 15.5121
41.8622 15.3901
41.9101 15.3419
41.9578 15.2518
42.0057 15.2654
42.0534 15.2304
42.1013 15.1586
42.149 15.0944
42.1969 15.0312
42.2446 14.9672
42.2925 14.9315
42.3403 14.8959
42.3882 14.8866
42.436 14.7823
42.4839 14.7062
42.5319 14.6776
42.5797 14.6178
42.6277 14.5544
42.6755 14.5776
42.7235 14.4503
42.7713 14.4155
42.8193 14.3453
42.8671 14.345
42.9152 14.2809
42.963 14.2691
43.0111 14.242
43.0589 14.1989
43.107 14.0365
43.1549 14.0523
43.2029 13.9901
43.2508 13.9813
43.2989 13.9233
43.3468 13.8684
43.3949 13.8382
43.4429 13.8011
43.491 13.6708
43.5389 13.6679
43.5871 13.6226
43.635 13.5737
43.6832 13.5514
43.7312 13.4913
43.7793 13.457
43.8273 13.3655
43.8755 13.3132
43.9237 13.2801
43.9717 13.2095
44.0199 13.2347
44.068 13.163
44.1162 13.0912
44.1642 13.1078
44.2125 13.057
44.2606 12.9772
44.3088 12.9173
44.3569 12.8928
44.4052 12.8401
44.4533 12.7936
44.5016 12.7507
44.5497 12.714
44.598 12.635
44.6461 12.6502
44.6945 12.5293
44.7426 12.5734
44.791 12.4938
44.8391 12.4414
44.8875 12.4287
44.9357 12.3592
44.984 12.2797
45.0322 12.258
45.0806 12.2166
45.1288 12.2255
45.1773 12.1037
45.2257 12.084
45.2739 12.0241
45.3224 12.0163
45.3706 12.009
45.4191 11.9015
45.4673 11.8637
45.5158 11.8783
45.5641 11.8001
45.6126 11.7494
45.6609 11.6729
45.7094 11.6543
45.7577 11.6554
45.8063 11.5667
45.8546 11.5673
45.9031 11.4838
45.9515 11.5009
46.0001 11.4526
46.0484 11.3612
46.097 11.3531
46.1454 11.3193
46.194 11.269
46.2424 11.2095
46.291 11.1361
46.3395 11.1218
46.3881 11.071
46.4365 11.0475
46.4852 11.0273
46.5337 10.9571
46.5823 10.9634
46.631 10.8756
46.6795 10.8932
46.7282 10.8105
46.7767 10.8028
46.8254 10.7028
46.8739 10.6828
46.9226 10.6457
46.9712 10.6162
47.0199 10.5897
47.0685 10.5089
47.1173 10.457
47.1658 10.474
47.2146 10.4359
47.2632 10.362
47.312 10.3626
47.3606 10.3024
47.4095 10.2708
47.4581 10.2727
47.5069 10.2049
47.5556 10.1865
47.6044 10.1281
47.6531 10.0748
47.702 10.0121
47.7507 9.99419
47.7996 9.96492
47.8483 9.93816
47.8972 9.90652
47.9461 9.85557
47.9948 9.79713
48.0438 9.76439
48.0925 9.82422
48.1415 9.7647
48.1902 9.66971
48.2392 9.62708
48.288 9.608
48.337 9.59735
48.3858 9.5656
48.4348 9.5118
48.4837 9.45929
48.5327 9.46572
48.5815 9.42472
48.6306 9.37209
48.6795 9.34528
48.7285 9.31524
48.7774 9.29615
48.8265 9.24707
48.8754 9.18513
48.9245 9.19655
48.9734 9.12511
49.0226 9.1315
49.0715 9.09486
49.1206 9.03823
49.1696 9.00385
49.2188 8.94948
49.2679 8.93851
49.3169 8.87751
49.3661 8.82877
49.4151 8.8741
49.4643 8.80479
49.5134 8.7379
49.5626 8.73772
49.6117 8.67599
49.6609 8.65472
49.71 8.59702
49.7592 8.57843
49.8083 8.54172
49.8576 8.50806
49.9067 8.50453
49.956 8.47989
50.0052 8.45374
50.0545 8.3826
50.1036 8.37118
50.153 8.33987
50.2022 8.33741
50.2515 8.24285
50.3007 8.25402
50.3501 8.22027
50.3993 8.14328
50.4487 8.13416
50.498 8.11878
50.5474 8.09403
50.5966 8.03791
50.6461 8.04438
50.6955 8.00059
50.7448 7.96903
50.7943 7.92243
50.8436 7.88991
50.8931 7.88012
50.9424 7.86275
50.9919 7.81201
51.0413 7.81008
51.0908 7.72476
51.1402 7.69065
51.1897 7.68285
51.2391 7.63478
51.2887 7.61087
51.3381 7.57609
51.3877 7.53584
51.4371 7.52646
51.4867 7.5024
51.5362 7.49091
51.5858 7.43886
51.6353 7.38301
51.6849 7.38322
51.7344 7.32356
51.7841 7.32599
51.8336 7.30797
51.8833 7.22511
51.9328 7.19837
51.9826 7.16396
52.0323 7.17006
52.0818 7.16239
52.1316 7.1165
52.1812 7.08607
52.231 7.0277
52.2806 7.00081
52.3304 7.00378
52.38 6.95937
52.4298 6.91568
52.4794 6.91417
52.5293 6.84001
52.5789 6.8793
52.6288 6.81243
52.6785 6.78757
52.7284 6.76347
52.7781 6.69951
52.828 6.6814
52.8777 6.68279
52.9276 6.63423
52.9774 6.6508
53.0273 6.6033
53.0771 6.54745
53.1271 6.55959
53.1769 6.49036
53.2269 6.52603
53.2767 6.45029
53.3267 6.44653
53.3765 6.40852
53.4266 6.353
53.4766 6.34551
53.5265 6.30568
53.5765 6.28
53.6264 6.21764
53.6765 6.2469
53.7264 6.21414
53.7765 6.16817
53.8265 6.13559
53.8766 6.11001
53.9266 6.11356
53.9767 6.04889
54.0267 6.07554
54.0769 6.06151
54.1269 5.9712
54.1771 5.95151
54.2271 5.89365
54.2773 5.89355
54.3274 5.89471
54.3776 5.84447
54.4277 5.80866
54.478 5.78582
54.528 5.76799
54.5783 5.69278
54.6285 5.64753
54.6788 5.60818
54.7289 5.5556
54.7792 5.54277
54.8296 5.47627
54.8798 5.48689
54.9301 5.4382
54.9803 5.41617
55.0307 5.35764
55.0809 5.29639
55.1314 5.27105
55.1816 5.25188
55.232 5.20068
55.2823 5.16165
55.3328 5.07492
55.383 5.0403
55.4335 5.02257
55.4838 4.95895
55.5344 4.88064
55.5847 4.84525
55.6352 4.86132
55.6856 4.84858
55.7361 4.77284