File: XRD/Ni3Fe_FD0811.xy
TT I
1.27165 7.14786
1.31627 6.69862
1.36089 6.81845
1.40551 6.35477
1.45013 5.63707
1.49476 6.21311
1.53938 5.01903
1.584 5.55086
1.62863 5.13474
1.67325 4.49522
1.71787 4.73973
1.7625 4.66195
1.80712 4.74893
1.85174 4.12891
1.89636 4.95317
1.94099 4.79437
1.98562 4.71751
2.03025 4.34575
2.07487 4.22879
2.11949 4.60966
2.16411 5.02554
2.20874 8.51841
2.25338 11.7204
2.298 6.15973
2.34263 4.83205
2.38725 5.97697
2.43188 5.80441
2.4765 6.80416
2.52115 7.09639
2.56577 7.99965
2.6104 8.548
2.65503 8.18545
2.69965 8.22717
2.7443 8.03707
2.78893 8.86974
2.83356 8.71907
2.87818 8.57564
2.92281 9.23254
2.96744 9.46852
3.01209 10.3938
3.05672 11.3019
3.10135 12.1148
3.14599 12.985
3.19062 13.9918
3.23527 14.8433
3.2799 15.8081
3.32454 16.4742
3.36917 17.7292
3.4138 18.7751
3.45844 19.6683
3.50309 20.2953
3.54773 21.3711
3.59237 22.9176
3.637 51.1977
3.68164 37.7412
3.7263 24.9869
3.77094 25.2777
3.81558 26.3136
3.86022 26.98
3.90486 28.2402
3.9495 29.2581
3.99416 30.3936
4.0388 31.6612
4.08344 32.8255
4.12809 34.0842
4.17273 35.55
4.21738 39.5787
4.26204 126.575
4.30669 111.328
4.35133 44.5556
4.39598 42.9213
4.44063 48.2578
4.4853 54.566
4.52995 55.6933
4.5746 56.7638
4.61925 53.4598
4.6639 55.1446
4.70855 57.6934
4.75322 61.4556
4.79788 67.8018
4.84253 67.8266
4.88719 73.995
4.93184 75.8985
4.97652 80.4354
5.02118 86.6056
5.06583 94.6346
5.11049 105.961
5.15515 156.337
5.19981 399.339
5.24449 2851.64
5.28916 12390.5
5.33382 2506.25
5.37848 189.546
5.42315 129.103
5.46783 117.441
5.5125 110.902
5.55716 101.277
5.60183 97.574
5.6465 95.8864
5.69117 93.7292
5.73586 91.9952
5.78053 96.9921
5.8252 97.2303
5.86988 99.6709
5.91455 95.0373
5.95924 103.606
6.00392 239.97
6.0486 970.117
6.09328 4577.35
6.13795 3009.79
6.18263 204.008
6.22733 89.0731
6.27201 79.6946
6.3167 84.6775
6.36138 74.2406
6.40606 69.0411
6.45075 68.7972
6.49545 64.9316
6.54014 62.6604
6.58483 62.5742
6.62952 62.8341
6.67421 74.0943
6.71892 91.7792
6.76361 62.0658
6.8083 58.9087
6.853 58.8551
6.89769 56.2704
6.94239 55.6927
6.98711 55.2896
7.03181 55.5766
7.07651 54.5149
7.12121 54.617
7.16591 55.1986
7.21063 54.924
7.25533 60.9211
7.30004 104.45
7.34475 69.0127
7.38945 54.506
7.43416 53.1671
7.47889 53.6398
7.5236 53.9762
7.56831 54.6557
7.61303 55.1561
7.65774 55.5536
7.70247 56.2355
7.74719 56.1127
7.79191 56.0661
7.83663 56.3839
7.88135 57.4177
7.92607 58.0668
7.97081 59.025
8.01553 60.3439
8.06026 62.1399
8.10498 63.3877
8.14971 70.4333
8.19446 70.1819
8.23919 69.1249
8.28392 71.4776
8.32865 73.4015
8.37339 77.8812
8.41812 83.4905
8.46288 103.388
8.50761 177.643
8.55235 385.096
8.59709 1219.38
8.64183 2174.05
8.68658 849.446
8.73134 146.875
8.77609 96.8312
8.82083 91.5145
8.86558 91.7435
8.91033 90.6766
8.9551 88.9648
8.99985 84.7559
9.04461 83.2864
9.08936 83.6071
9.13412 81.5096
9.17888 81.6278
9.22365 81.6532
9.26841 81.5984
9.31318 84.2738
9.35794 85.2676
9.4027 84.9535
9.44749 84.3867
9.49226 84.4139
9.53703 85.3614
9.5818 88.587
9.62657 93.7688
9.67134 95.0498
9.71614 92.35
9.76091 94.2935
9.80569 98.2643
9.85047 100.612
9.89525 112.028
9.94005 127.171
9.98484 190.275
10.0296 344.925
10.0744 835.784
10.1192 1808.99
10.164 1501.83
10.2088 347.175
10.2536 120.245
10.2984 108.75
10.3432 107.546
10.388 104.247
10.4328 121.776
10.4776 161.883
10.5224 294.818
10.5672 537.333
10.612 482.968
10.6568 182.582
10.7017 93.7454
10.7465 85.5641
10.7913 82.099
10.8361 80.1577
10.8809 78.0369
10.9257 77.2081
10.9706 77.3536
11.0154 74.7646
11.0602 72.3397
11.105 70.698
11.1499 71.7918
11.1947 74.0479
11.2395 70.0169
11.2844 68.3495
11.3292 66.0707
11.374 65.2963
11.4189 64.941
11.4637 64.1203
11.5086 64.0743
11.5534 65.188
11.5983 63.7606
11.6431 63.0676
11.688 61.9907
11.7328 62.4136
11.7777 62.0667
11.8225 62.2852
11.8674 61.8496
11.9122 62.1274
11.9571 62.6084
12.002 63.8488
12.0468 67.9443
12.0917 77.9855
12.1366 103.028
12.1814 160.259
12.2263 216.918
12.2712 164.865
12.3161 87.1626
12.3609 66.3898
12.4058 63.3884
12.4507 63.4551
12.4956 64.1704
12.5405 63.9323
12.5853 64.7104
12.6302 67.8849
12.6751 70.6312
12.72 67.4296
12.7649 67.0302
12.8098 67.782
12.8547 69.1794
12.8996 70.8293
12.9445 72.1674
12.9894 73.9825
13.0343 75.5246
13.0792 79.8236
13.1242 91.7283
13.1691 111.261
13.214 148.979
13.2589 249.12
13.3038 390.857
13.3487 413.053
13.3937 234.746
13.4386 117.806
13.4835 106.081
13.5285 119.807
13.5734 160.945
13.6183 258.66
13.6633 365.271
13.7082 328.88
13.7531 168.533
13.7981 92.4888
13.843 80.7433
13.888 78.6013
13.9329 76.3673
13.9779 75.1757
14.0228 73.9319
14.0678 72.2283
14.1127 71.9849
14.1577 71.0705
14.2027 70.5926
14.2476 69.823
14.2926 69.2601
14.3376 69.6765
14.3825 69.2877
14.4275 68.3254
14.4725 68.2188
14.5175 68.2196
14.5624 68.4934
14.6074 69.3978
14.6524 69.891
14.6974 70.0619
14.7424 73.3481
14.7874 79.2728
14.8324 88.8916
14.8774 111.524
14.9224 159.904
14.9674 219.278
15.0124 219.278
15.0574 139.268
15.1024 85.3333
15.1474 71.2388
15.1924 69.5855
15.2374 69.0732
15.2824 68.1608
15.3274 66.7875
15.3725 65.9021
15.4175 65.5511
15.4625 65.3329
15.5076 65.1532
15.5526 65.2117
15.5976 65.1701
15.6426 67.592
15.6877 72.5488
15.7327 79.4261
15.7778 95.249
15.8228 130.244
15.8679 180.138
15.9129 198.232
15.958 146.215
16.003 88.568
16.0481 65.5548
16.0931 62.3152
16.1382 60.9974
16.1833 59.5523
16.2283 57.8849
16.2734 57.4963
16.3185 57.218
16.3636 57.2515
16.4086 56.2896
16.4537 55.4313
16.4988 54.8172
16.5439 54.7675
16.589 54.4911
16.6341 54.3109
16.6792 53.9376
16.7243 54.2381
16.7694 54.1843
16.8145 54.0819
16.8596 54.5689
16.9047 55.1469
16.9498 55.142
16.9949 54.839
17.04 55.4822
17.0851 56.5329
17.1302 58.2427
17.1754 61.4683
17.2205 66.8969
17.2656 75.203
17.3108 83.4063
17.3559 80.4136
17.401 68.1817
17.4462 60.5557
17.4913 58.5497
17.5365 58.4786
17.5815 58.7885
17.6268 59.0049
17.6718 59.6581
17.7171 59.9656
17.7622 60.8825
17.8074 61.8927
17.8525 64.6833
17.8977 67.9715
17.9428 73.0703
17.9881 82.832
18.0331 101.985
18.0784 125.738
18.1237 141.663
18.1688 126.818
18.214 98.7055
18.2591 84.8434
18.3044 91.1294
18.3495 101.854
18.3948 105.146
18.4399 92.139
18.4852 74.0036
18.5303 64.264
18.5756 61.2812
18.6207 60.4841
18.666 59.4722
18.7112 58.9453
18.7565 58.3688
18.8016 57.9751
18.8469 57.4303
18.892 57.2667
18.9374 56.5285
18.9825 56.2561
19.0278 56.1887
19.073 56.2932
19.1183 56.7399
19.1635 57.1628
19.2088 58.8153
19.254 61.713
19.2993 66.5649
19.3447 72.2681
19.3898 75.4421
19.4352 69.8501
19.4804 60.8301
19.5257 55.4845
19.5709 53.4961
19.6163 53.1285
19.6615 53.0424
19.7068 52.7401
19.752 52.8157
19.7974 53.0967
19.8426 53.796
19.888 54.4155
19.9332 55.6314
19.9786 58.7083
20.0238 62.7164
20.0692 67.8881
20.1144 69.7015
20.1598 66.9775
20.205 62.1948
20.2504 61.7222
20.2957 64.1499
20.3411 65.1894
20.3863 62.5618
20.4318 56.754
20.477 52.3681
20.5224 50.5932
20.5677 49.9723
20.6131 49.6171
20.6586 48.9446
20.7038 48.7401
20.7493 48.5513
20.7945 48.401
20.84 48.448
20.8853 48.1648
20.9307 48.0818
20.976 48.2965
21.0215 48.0738
21.0668 48.4151
21.1122 49.0322
21.1575 49.704
21.203 50.3946
21.2483 51.01
21.2938 50.775
21.3391 49.292
21.3846 48.4444
21.4299 47.8745
21.4754 48.0938
21.5207 48.1141
21.5662 48.3702
21.6116 48.8724
21.6571 49.5993
21.7024 50.4568
21.7479 52.2932
21.7933 55.4087
21.8388 59.1911
21.8843 62.8138
21.9297 64.1067
21.9752 62.0715
22.0206 57.9972
22.0661 55.7213
22.1115 55.7669
22.157 55.36
22.2024 53.1633
22.248 50.5979
22.2933 49.1322
22.3389 48.4931
22.3843 48.2962
22.4299 48.2769
22.4753 48.3037
22.5208 48.1389
22.5662 48.108
22.6118 48.2914
22.6572 48.6839
22.7028 48.6996
22.7483 49.2024
22.7939 49.936
22.8393 51.7664
22.8849 54.0308
22.9303 56.1814
22.9759 57.3053
23.0214 56.5744
23.067 53.2143
23.1126 50.1146
23.1581 48.497
23.2037 48.2761
23.2492 48.2075
23.2948 48.3566
23.3403 48.6573
23.3859 49.2777
23.4314 50.4926
23.477 52.5712
23.5225 54.7253
23.5682 57.1397
23.6137 57.3917
23.6593 54.3509
23.7048 50.3799
23.7505 47.2741
23.796 45.9415
23.8417 45.4308
23.8872 44.966
23.9329 44.656
23.9784 44.3404
24.0241 44.1706
24.0697 43.8944
24.1154 43.6577
24.1609 43.5344
24.2066 43.2429
24.2522 43.1587
24.2979 42.8958
24.3434 42.939
24.3892 42.7049
24.4349 42.697
24.4805 42.4493
24.5262 42.7646
24.5718 42.6092
24.6175 42.533
24.6631 42.4077
24.7089 42.005
24.7545 41.9326
24.8002 41.6644
24.8458 41.7904
24.8916 41.56
24.9372 41.7614
24.983 42.2925
25.0286 42.5074
25.0744 43.0628
25.12 43.4656
25.1658 44.0389
25.2114 44.2182
25.2572 44.3544
25.3029 44.5127
25.3487 44.6636
25.3943 44.026
25.4402 42.8356
25.4858 41.6757
25.5316 41.0073
25.5773 40.3168
25.6231 40.4163
25.669 40.2108
25.7147 40.108
25.7605 39.8886
25.8062 40.0843
25.8521 40.1794
25.8977 40.2738
25.9436 40.4836
25.9893 40.5753
26.0352 41.2206
26.0809 41.3226
26.1268 41.3178
26.1725 40.7444
26.2184 40.2434
26.2641 39.9058
26.31 39.7461
26.3557 39.7228
26.4017 39.5993
26.4474 40.0937
26.4933 40.3679
26.5391 40.9607
26.585 41.3695
26.6308 41.6072
26.6767 41.6524
26.7225 41.5068
26.7684 40.7558
26.8142 40.3323
26.8601 39.9493
26.9059 39.5651
26.9519 39.0695
26.9979 38.7695
27.0437 38.5305
27.0896 38.3274
27.1354 38.3126
27.1814 38.1891
27.2272 38.1556
27.2732 38.1645
27.3191 37.8154
27.3651 38.1107
27.4109 37.9744
27.4569 38.1683
27.5027 38.1688
27.5488 38.3288
27.5946 38.06
27.6407 37.7375
27.6865 37.7106
27.7326 37.4348
27.7784 37.5186
27.8245 37.567
27.8703 37.6136
27.9164 38.0603
27.9623 38.0835
28.0084 38.4532
28.0543 38.7783
28.1003 38.5838
28.1462 38.4452
28.1923 38.1034
28.2384 37.5925
28.2843 37.0273
28.3304 36.7139
28.3764 36.3094
28.4225 36.0143
28.4684 35.8997
28.5145 35.5887
28.5605 35.4697
28.6066 35.284
28.6526 35.1849
28.6987 35.2705
28.7447 35.0098
28.7908 35.0399
28.8368 34.9682
28.8829 34.9771
28.9289 34.9741
28.9751 34.7755
29.0211 34.4497
29.0673 34.2109
29.1133 34.1167
29.1595 34.0843
29.2055 33.9396
29.2517 33.9107
29.2977 34.0153
29.3439 33.9555
29.3899 33.9438
29.4361 33.6886
29.4824 33.6043
29.5284 33.3462
29.5746 33.0516
29.6207 32.5754
29.6669 32.7288
29.713 32.699
29.7593 32.4251
29.8053 32.4787
29.8516 32.4518
29.8977 32.3748
29.9439 32.3071
29.99 32.2304
30.0363 32.2303
30.0824 32.118
30.1287 31.9726
30.1748 32.0829
30.2211 32.1314
30.2673 31.9536
30.3136 31.9949
30.3597 31.8214
30.406 31.7809
30.4522 31.7245
30.4985 31.7239
30.5447 31.8027
30.591 31.8477
30.6372 31.9693
30.6835 31.8606
30.7297 31.9109
30.7761 31.7905
30.8224 31.5497
30.8686 31.4934
30.915 31.2404
30.9612 31.1496
31.0076 31.0175
31.0538 30.8777
31.1002 30.7575
31.1464 30.6685
31.1928 30.5769
31.2391 30.6596
31.2855 30.569
31.3317 30.6109
31.3781 30.5974
31.4244 30.7084
31.4708 30.574
31.5171 30.5261
31.5636 30.431
31.6098 30.1085
31.6563 30.0308
31.7026 29.9433
31.7491 29.8509
31.7953 29.8694
31.8418 29.8722
31.8881 29.8155
31.9346 29.9095
31.9809 29.7357
32.0275 29.5482
32.074 29.5039
32.1203 29.3369
32.1668 29.1295
32.2132 29.1022
32.2597 28.9612
32.306 28.9116
32.3526 28.6837
32.399 28.6245
32.4455 28.4562
32.4919 28.3705
32.5385 28.3787
32.5848 28.2827
32.6314 28.256
32.6778 28.0987
32.7244 28.0215
32.7708 27.8282
32.8174 27.9053
32.8638 27.6411
32.9104 27.8762
32.9569 27.7296
33.0035 27.6063
33.0499 27.5619
33.0966 27.4871
33.143 27.5256
33.1897 27.3727
33.2361 27.3304
33.2828 27.3309
33.3293 27.1247
33.3759 27.0671
33.4226 26.9119
33.4691 26.8532
33.5158 26.7687
33.5623 26.6296
33.609 26.4306
33.6555 26.4029
33.7022 26.3194
33.7487 26.217
33.7954 26.239
33.842 26.1428
33.8887 26.0471
33.9353 25.9881
33.982 25.9091
34.0286 25.7341
34.0753 25.7202
34.1219 25.6122
34.1687 25.6029
34.2152 25.4594
34.262 25.2818
34.3086 25.3466
34.3554 25.2838
34.402 25.1676
34.4488 24.9868
34.4954 24.9906
34.5422 24.9499
34.5889 24.7208
34.6357 24.7055
34.6825 24.6164
34.7292 24.6151
34.776 24.4478
34.8227 24.3804
34.8695 24.3483
34.9162 24.2583
34.9631 24.2182
35.0098 24.2609
35.0566 24.1056
35.1033 24.0688
35.1502 23.9844
35.1969 23.9839
35.2438 24.0054
35.2906 23.8144
35.3375 23.8371
35.3842 23.7672
35.4311 23.7238
35.4779 23.7174
35.5248 23.6172
35.5716 23.5729
35.6185 23.4435
35.6653 23.3935
35.7123 23.2488
35.759 23.2565
35.806 23.0573
35.8528 22.9488
35.8998 22.9815
35.9468 22.8795
35.9936 22.8359
36.0406 22.7726
36.0874 22.7071
36.1345 22.6327
36.1813 22.6208
36.2283 22.4276
36.2752 22.4091
36.3222 22.473
36.3691 22.3696
36.4161 22.1614
36.463 22.2329
36.5101 22.1718
36.557 22.0717
36.6041 21.9352
36.651 21.955
36.6981 21.8828
36.745 21.7272
36.7921 21.7655
36.839 21.569
36.8861 21.5576
36.9331 21.4751
36.9802 21.4554
37.0272 21.3598
37.0743 21.2054
37.1213 21.3366
37.1684 21.1353
37.2154 21.155
37.2626 21.0656
37.3098 20.9631
37.3568 20.8903
37.404 20.9013
37.451 20.7739
37.4982 20.716
37.5452 20.6256
37.5924 20.5385
37.6395 20.6106
37.6867 20.4401
37.7337 20.3432
37.781 20.2905
37.8281 20.2623
37.8753 20.1715
37.9224 20.0944
37.9697 20.0147
38.0168 19.9937
38.064 19.8795
38.1111 19.9392
38.1584 19.8259
38.2056 19.6906
38.2529 19.7226
38.3 19.5739
38.3473 19.6301
38.3945 19.4818
38.4418 19.4701
38.489 19.3739
38.5363 19.301
38.5837 19.2269
38.6309 19.1708
38.6782 19.0692
38.7254 19.0404
38.7728 18.9862
38.82 18.9434
38.8674 18.8061
38.9146 18.8465
38.9621 18.7556
39.0093 18.6896
39.0567 18.6918
39.104 18.6102
39.1514 18.5482
39.1987 18.4967
39.2461 18.4482
39.2934 18.3652
39.3409 18.2551
39.3882 18.2435
39.4356 18.1638
39.483 18.1316
39.5304 18.0306
39.5778 18.0179
39.6253 17.9873
39.6726 17.8781
39.7201 17.8049
39.7675 17.7296
39.815 17.6869
39.8624 17.6937
39.9099 17.6615
39.9575 17.5133
40.0049 17.491
40.0525 17.3894
40.0999 17.414
40.1474 17.3259
40.1949 17.2396
40.2425 17.2015
40.2899 17.1014
40.3375 17.0978
40.385 17.0931
40.4326 17.0183
40.48 16.9112
40.5277 16.9171
40.5752 16.8405
40.6228 16.7571
40.6703 16.769
40.718 16.6927
40.7655 16.6266
40.8132 16.5343
40.8607 16.5472
40.9084 16.5156
40.9559 16.4128
41.0036 16.3977
41.0512 16.383
41.0989 16.2605
41.1465 16.2066
41.1942 16.1441
41.242 16.1083
41.2896 16.0361
41.3373 16.0037
41.3849 15.9688
41.4327 15.8582
41.4803 15.8396
41.5281 15.7846
41.5758 15.7374
41.6236 15.6444
41.6712 15.6336
41.7191 15.5278
41.7667 15.5304
41.8146 15.5045
41.8622 15.4475
41.9101 15.3706
41.9578 15.3056
42.0057 15.2539
42.0534 15.2163
42.1013 15.218
42.149 15.1169
42.1969 15.0752
42.2446 15.024
42.2925 15.0233
42.3403 14.9055
42.3882 14.9159
42.436 14.8076
42.4839 14.758
42.5319 14.7545
42.5797 14.6716
42.6277 14.6106
42.6755 14.5907
42.7235 14.4767
42.7713 14.4714
42.8193 14.4057
42.8671 14.367
42.9152 14.3685
42.963 14.2854
43.0111 14.2286
43.0589 14.1386
43.107 14.0767
43.1549 14.047
43.2029 13.9905
43.2508 13.9515
43.2989 13.8773
43.3468 13.8326
43.3949 13.8517
43.4429 13.8051
43.491 13.6987
43.5389 13.6812
43.5871 13.6408
43.635 13.6107
43.6832 13.5078
43.7312 13.5024
43.7793 13.485
43.8273 13.4158
43.8755 13.3761
43.9237 13.2868
43.9717 13.3206
44.0199 13.1945
44.068 13.1994
44.1162 13.1121
44.1642 13.069
44.2125 13.087
44.2606 12.982
44.3088 12.949
44.3569 12.8871
44.4052 12.8487
44.4533 12.813
44.5016 12.7848
44.5497 12.7562
44.598 12.688
44.6461 12.6714
44.6945 12.5872
44.7426 12.5825
44.791 12.5126
44.8391 12.4697
44.8875 12.4157
44.9357 12.4327
44.984 12.3219
45.0322 12.2447
45.0806 12.2414
45.1288 12.1951
45.1773 12.126
45.2257 12.0885
45.2739 12.1027
45.3224 12.0241
45.3706 11.9702
45.4191 11.9099
45.4673 11.9084
45.5158 11.8711
45.5641 11.7663
45.6126 11.7963
45.6609 11.7052
45.7094 11.6597
45.7577 11.606
45.8063 11.5769
45.8546 11.5646
45.9031 11.5232
45.9515 11.4817
46.0001 11.4294
46.0484 11.4396
46.097 11.3817
46.1454 11.3225
46.194 11.2713
46.2424 11.2108
46.291 11.1866
46.3395 11.1543
46.3881 11.1126
46.4365 11.0566
46.4852 11.023
46.5337 11.0106
46.5823 10.9698
46.631 10.8897
46.6795 10.9085
46.7282 10.835
46.7767 10.7918
46.8254 10.7711
46.8739 10.7058
46.9226 10.65
46.9712 10.6077
47.0199 10.6151
47.0685 10.5541
47.1173 10.4996
47.1658 10.474
47.2146 10.4527
47.2632 10.3937
47.312 10.3711
47.3606 10.3171
47.4095 10.261
47.4581 10.2482
47.5069 10.2307
47.5556 10.1698
47.6044 10.1234
47.6531 10.0896
47.702 10.0281
47.7507 10.0438
47.7996 9.987
47.8483 9.91269
47.8972 9.90785
47.9461 9.86481
47.9948 9.82524
48.0438 9.78883
48.0925 9.79014
48.1415 9.72075
48.1902 9.6793
48.2392 9.71487
48.288 9.62285
48.337 9.595
48.3858 9.5688
48.4348 9.51776
48.4837 9.52124
48.5327 9.47248
48.5815 9.44404
48.6306 9.42165
48.6795 9.33462
48.7285 9.31638
48.7774 9.28546
48.8265 9.23166
48.8754 9.21791
48.9245 9.19279
48.9734 9.12653
49.0226 9.14737
49.0715 9.09499
49.1206 9.0211
49.1696 8.99169
49.2188 8.96628
49.2679 8.96702
49.3169 8.89799
49.3661 8.86348
49.4151 8.81174
49.4643 8.79737
49.5134 8.78185
49.5626 8.68425
49.6117 8.7251
49.6609 8.65742
49.71 8.5848
49.7592 8.61462
49.8083 8.56431
49.8576 8.53031
49.9067 8.50131
49.956 8.4471
50.0052 8.42059
50.0545 8.42184
50.1036 8.35242
50.153 8.30917
50.2022 8.3515
50.2515 8.24244
50.3007 8.2123
50.3501 8.19078
50.3993 8.19292
50.4487 8.15182
50.498 8.16256
50.5474 8.08282
50.5966 8.04264
50.6461 8.0241
50.6955 7.99856
50.7448 7.96297
50.7943 7.93056
50.8436 7.91784
50.8931 7.88628
50.9424 7.84132
50.9919 7.83269
51.0413 7.78709
51.0908 7.77855
51.1402 7.76984
51.1897 7.68492
51.2391 7.63649
51.2887 7.65234
51.3381 7.5846
51.3877 7.57724
51.4371 7.50624
51.4867 7.51577
51.5362 7.47949
51.5858 7.42014
51.6353 7.38601
51.6849 7.3652
51.7344 7.32873
51.7841 7.32049
51.8336 7.27766
51.8833 7.25626
51.9328 7.18581
51.9826 7.15004
52.0323 7.16265
52.0818 7.1719
52.1316 7.07486
52.1812 7.07676
52.231 7.01361
52.2806 7.0247
52.3304 7.00927
52.38 6.94281
52.4298 6.91177
52.4794 6.93064
52.5293 6.87017
52.5789 6.83941
52.6288 6.85498
52.6785 6.79568
52.7284 6.79209
52.7781 6.76591
52.828 6.73921
52.8777 6.69333
52.9276 6.62054
52.9774 6.6444
53.0273 6.59674
53.0771 6.60061
53.1271 6.57491
53.1769 6.52304
53.2269 6.49962
53.2767 6.47924
53.3267 6.45234
53.3765 6.38557
53.4266 6.38356
53.4766 6.34746
53.5265 6.28899
53.5765 6.25388
53.6264 6.27769
53.6765 6.22941
53.7264 6.21185
53.7765 6.23487
53.8265 6.14379
53.8766 6.15133
53.9266 6.12178
53.9767 6.02768
54.0267 6.05391
54.0769 5.98312
54.1269 5.98589
54.1771 5.95666
54.2271 5.92012
54.2773 5.86696
54.3274 5.85273
54.3776 5.84497
54.4277 5.80728
54.478 5.8411
54.528 5.77821
54.5783 5.71804
54.6285 5.6681
54.6788 5.63593
54.7289 5.55342
54.7792 5.56237
54.8296 5.45886
54.8798 5.42854
54.9301 5.35323
54.9803 5.34741
55.0307 5.33426
55.0809 5.3708
55.1314 5.29113
55.1816 5.25688
55.232 5.17261
55.2823 5.19432
55.3328 5.12858
55.383 5.02825
55.4335 5.01592
55.4838 4.9636
55.5344 4.89642
55.5847 4.88802
55.6352 4.83904
55.6856 4.78477
55.7361 4.72617