File: XRD/Ni3Fe_FD0395.xy
TT I
1.27165 7.50937
1.31627 6.92927
1.36089 6.60066
1.40551 6.36033
1.45013 6.26935
1.49476 6.77953
1.53938 6.13364
1.584 5.53977
1.62863 5.27607
1.67325 5.65542
1.71787 5.34271
1.7625 5.1509
1.80712 5.22886
1.85174 5.46685
1.89636 5.09835
1.94099 4.86666
1.98562 4.95813
2.03025 5.10628
2.07487 4.32868
2.11949 4.98442
2.16411 4.84503
2.20874 14.9037
2.25338 24.8524
2.298 6.27359
2.34263 5.17263
2.38725 5.58438
2.43188 5.43055
2.4765 6.03502
2.52115 6.40196
2.56577 6.71541
2.6104 7.59356
2.65503 7.37945
2.69965 7.56031
2.7443 8.03657
2.78893 7.18952
2.83356 8.41061
2.87818 8.66756
2.92281 8.40453
2.96744 9.57191
3.01209 10.5969
3.05672 11.1661
3.10135 12.3181
3.14599 12.8697
3.19062 14.3803
3.23527 14.7712
3.2799 15.5512
3.32454 17.3144
3.36917 18.0117
3.4138 19.3811
3.45844 19.7655
3.50309 21.8726
3.54773 22.2802
3.59237 24.8481
3.637 100.722
3.68164 63.1701
3.7263 26.5886
3.77094 26.8197
3.81558 27.1426
3.86022 28.5046
3.90486 29.5048
3.9495 30.6707
3.99416 31.3381
4.0388 32.5932
4.08344 34.1576
4.12809 35.5805
4.17273 37.6304
4.21738 44.9264
4.26204 266.465
4.30669 237.604
4.35133 50.4124
4.39598 45.7538
4.44063 55.6288
4.4853 68.5982
4.52995 52.1129
4.5746 52.2124
4.61925 54.169
4.6639 56.0536
4.70855 59.3777
4.75322 62.2873
4.79788 65.2201
4.84253 68.6502
4.88719 73.1332
4.93184 77.4024
4.97652 82.4354
5.02118 89.3978
5.06583 97.6594
5.11049 111.112
5.15515 192.112
5.19981 443.107
5.24449 3085.82
5.28916 11703.4
5.33382 3642.62
5.37848 225.17
5.42315 138.341
5.46783 120.084
5.5125 110.475
5.55716 105.392
5.60183 101.428
5.6465 99.8331
5.69117 96.8956
5.73586 94.4805
5.78053 95.1674
5.8252 94.3411
5.86988 95.5961
5.91455 98.246
5.95924 107.889
6.00392 238.658
6.0486 1068.34
6.09328 4025.26
6.13795 3495.22
6.18263 310.83
6.22733 101.17
6.27201 86.8413
6.3167 107.634
6.36138 84.2852
6.40606 71.5413
6.45075 69.1489
6.49545 66.9705
6.54014 65.5902
6.58483 64.7172
6.62952 64.2382
6.67421 97.7007
6.71892 154.353
6.76361 71.5928
6.8083 60.183
6.853 58.7467
6.89769 58.3797
6.94239 57.6313
6.98711 57.2839
7.03181 56.9013
7.07651 56.5106
7.12121 56.4826
7.16591 56.5663
7.21063 57.1812
7.25533 72.5157
7.30004 194.435
7.34475 97.4799
7.38945 57.9618
7.43416 55.9516
7.47889 55.3839
7.5236 56.159
7.56831 56.1157
7.61303 58.4557
7.65774 59.2166
7.70247 57.6509
7.74719 57.4765
7.79191 58.0277
7.83663 58.4428
7.88135 59.3144
7.92607 60.0802
7.97081 61.0787
8.01553 62.2375
8.06026 63.6766
8.10498 65.3872
8.14971 75.6202
8.19446 74.4548
8.23919 71.2447
8.28392 73.6572
8.32865 75.7743
8.37339 80.3034
8.41812 87.4869
8.46288 120.065
8.50761 180.029
8.55235 425.769
8.59709 1104.85
8.64183 2133.92
8.68658 1147.27
8.73134 200.985
8.77609 104.445
8.82083 96.1971
8.86558 92.2802
8.91033 92.5684
8.9551 94.6506
8.99985 87.5344
9.04461 85.3688
9.08936 84.8061
9.13412 83.7983
9.17888 84.0699
9.22365 84.4972
9.26841 83.7262
9.31318 84.7232
9.35794 84.7915
9.4027 85.0633
9.44749 85.5739
9.49226 86.3262
9.53703 87.5855
9.5818 89.3187
9.62657 94.6185
9.67134 101.92
9.71614 96.2334
9.76091 96.0342
9.80569 98.8719
9.85047 102.177
9.89525 128.193
9.94005 143.563
9.98484 189.564
10.0296 374.465
10.0744 786.178
10.1192 1598.22
10.164 1738.82
10.2088 512.031
10.2536 142.99
10.2984 118.218
10.3432 119.722
10.388 108.26
10.4328 123.603
10.4776 168.964
10.5224 273.934
10.5672 476.764
10.612 528.306
10.6568 232.316
10.7017 102.639
10.7465 89.7004
10.7913 85.445
10.8361 83.0745
10.8809 80.6526
10.9257 80.4681
10.9706 81.3548
11.0154 77.0135
11.0602 74.4192
11.105 73.791
11.1499 77.9653
11.1947 87.0903
11.2395 76.7228
11.2844 72.3985
11.3292 68.7145
11.374 67.749
11.4189 67.1087
11.4637 66.1924
11.5086 67.1524
11.5534 70.2922
11.5983 67.2752
11.6431 64.9931
11.688 64.5167
11.7328 64.5419
11.7777 64.5769
11.8225 64.3151
11.8674 63.7305
11.9122 64.1029
11.9571 64.6753
12.002 65.2369
12.0468 69.9687
12.0917 82.7867
12.1366 104.7
12.1814 147.493
12.2263 196.259
12.2712 180.149
12.3161 107.728
12.3609 74.0185
12.4058 66.5043
12.4507 65.8114
12.4956 66.1193
12.5405 65.95
12.5853 67.1267
12.6302 75.7429
12.6751 82.2071
12.72 72.4381
12.7649 69.2215
12.8098 69.8606
12.8547 71.1989
12.8996 72.7753
12.9445 73.6032
12.9894 75.7585
13.0343 77.28
13.0792 80.8759
13.1242 91.1666
13.1691 118.05
13.214 154.358
13.2589 231.791
13.3038 346.507
13.3487 429.635
13.3937 299.875
13.4386 139.075
13.4835 111.094
13.5285 126.856
13.5734 161.187
13.6183 234.82
13.6633 328.199
13.7082 353.954
13.7531 216.229
13.7981 106.895
13.843 84.7734
13.888 81.9325
13.9329 79.1627
13.9779 77.8087
14.0228 76.177
14.0678 74.8033
14.1127 74.319
14.1577 74.4733
14.2027 73.273
14.2476 72.217
14.2926 72.3632
14.3376 73.6958
14.3825 72.2963
14.4275 70.6388
14.4725 70.2611
14.5175 70.5741
14.5624 71.0498
14.6074 73.2115
14.6524 73.7776
14.6974 72.0439
14.7424 73.8646
14.7874 81.1776
14.8324 92.987
14.8774 112.123
14.9224 148.597
14.9674 198.144
15.0124 220.647
15.0574 166.387
15.1024 100.949
15.1474 75.1643
15.1924 72.3958
15.2374 73.1359
15.2824 72.484
15.3274 69.8236
15.3725 68.5316
15.4175 67.8827
15.4625 67.6174
15.5076 67.9059
15.5526 67.6784
15.5976 67.5332
15.6426 68.3543
15.6877 74.4013
15.7327 83.0072
15.7778 96.6622
15.8228 123.148
15.8679 162.597
15.9129 193.505
15.958 171.402
16.003 108.621
16.0481 71.9671
16.0931 66.707
16.1382 64.7939
16.1833 62.1283
16.2283 60.4758
16.2734 59.8327
16.3185 60.2742
16.3636 60.8918
16.4086 59.3421
16.4537 57.8415
16.4988 56.8367
16.5439 57.0247
16.589 56.5469
16.6341 56.1834
16.6792 55.9323
16.7243 56.3911
16.7694 56.5488
16.8145 56.1492
16.8596 56.7451
16.9047 58.6365
16.9498 58.8285
16.9949 57.312
17.04 57.2398
17.0851 58.5965
17.1302 60.3529
17.1754 63.4321
17.2205 67.8463
17.2656 73.9059
17.3108 82.2508
17.3559 84.1662
17.401 74.7818
17.4462 64.5495
17.4913 60.9489
17.5365 60.6471
17.5815 60.657
17.6268 61.0245
17.6718 61.9583
17.7171 62.485
17.7622 62.9678
17.8074 63.3517
17.8525 65.8786
17.8977 70.4485
17.9428 76.5406
17.9881 83.9647
18.0331 98.6483
18.0784 117.416
18.1237 137.74
18.1688 138.671
18.214 112.456
18.2591 90.9308
18.3044 90.6453
18.3495 98.8986
18.3948 107.148
18.4399 101.05
18.4852 82.3416
18.5303 68.7377
18.5756 64.0055
18.6207 62.9159
18.666 62.0071
18.7112 60.9531
18.7565 60.5712
18.8016 60.1831
18.8469 59.5226
18.892 59.3887
18.9374 58.7954
18.9825 58.4068
19.0278 58.2674
19.073 58.3824
19.1183 59.0546
19.1635 59.8688
19.2088 61.2102
19.254 63.1267
19.2993 66.8764
19.3447 72.3328
19.3898 76.999
19.4352 75.138
19.4804 66.7493
19.5257 59.0977
19.5709 55.7866
19.6163 55.2391
19.6615 54.9613
19.7068 54.5275
19.752 54.5933
19.7974 55.0103
19.8426 55.8373
19.888 56.655
19.9332 57.6976
19.9786 59.7649
20.0238 62.9807
20.0692 67.3728
20.1144 70.5956
20.1598 70.5393
20.205 66.0896
20.2504 63.7472
20.2957 64.3427
20.3411 66.223
20.3863 66.0301
20.4318 61.1568
20.477 55.8831
20.5224 53.2447
20.5677 52.5267
20.6131 51.7582
20.6586 50.9445
20.7038 50.8313
20.7493 50.477
20.7945 50.2345
20.84 50.0965
20.8853 49.9533
20.9307 49.794
20.976 49.9892
21.0215 49.8341
21.0668 50.2239
21.1122 50.592
21.1575 51.4406
21.203 51.8567
21.2483 52.4143
21.2938 52.9981
21.3391 51.7194
21.3846 50.4899
21.4299 49.8926
21.4754 49.4708
21.5207 49.7604
21.5662 50.0481
21.6116 50.5297
21.6571 51.1642
21.7024 52.2716
21.7479 53.9346
21.7933 56.2848
21.8388 59.53
21.8843 63.2453
21.9297 65.5747
21.9752 65.6926
22.0206 62.0743
22.0661 58.2566
22.1115 57.1223
22.157 57.2906
22.2024 56.1184
22.248 53.3734
22.2933 51.474
22.3389 50.412
22.3843 50.2958
22.4299 50.134
22.4753 50.2587
22.5208 49.7286
22.5662 49.7822
22.6118 49.9184
22.6572 50.0787
22.7028 50.5592
22.7483 51.1529
22.7939 51.6162
22.8393 52.9417
22.8849 54.9704
22.9303 56.6835
22.9759 58.5542
23.0214 59.036
23.067 56.5125
23.1126 53.1311
23.1581 50.9119
23.2037 50.2475
23.2492 50.1965
23.2948 50.0762
23.3403 50.4597
23.3859 51.0664
23.4314 52.0028
23.477 53.4484
23.5225 55.3488
23.5682 57.3777
23.6137 59.028
23.6593 57.5373
23.7048 53.9732
23.7505 50.1968
23.796 47.9673
23.8417 47.2844
23.8872 46.8922
23.9329 46.3468
23.9784 46.1069
24.0241 45.8936
24.0697 45.7
24.1154 45.3493
24.1609 45.0399
24.2066 45.0216
24.2522 44.8544
24.2979 44.5305
24.3434 44.3736
24.3892 44.2995
24.4349 44.2205
24.4805 43.8544
24.5262 44.1701
24.5718 43.8475
24.6175 44.0518
24.6631 43.997
24.7089 43.6863
24.7545 43.5622
24.8002 43.418
24.8458 43.4161
24.8916 43.0553
24.9372 43.2375
24.983 43.557
25.0286 43.8324
25.0744 44.3012
25.12 44.5741
25.1658 45.312
25.2114 45.8042
25.2572 45.728
25.3029 45.7712
25.3487 45.9361
25.3943 45.7994
25.4402 44.9957
25.4858 43.7909
25.5316 42.7938
25.5773 41.9831
25.6231 41.9869
25.669 41.5228
25.7147 41.5404
25.7605 41.5431
25.8062 41.5458
25.8521 41.7735
25.8977 41.522
25.9436 41.9661
25.9893 41.8769
26.0352 42.4209
26.0809 42.5219
26.1268 42.6323
26.1725 42.4885
26.2184 41.9382
26.2641 41.4745
26.31 41.3166
26.3557 41.2742
26.4017 41.1553
26.4474 41.3807
26.4933 41.751
26.5391 42.1912
26.585 42.5201
26.6308 43.0808
26.6767 43.1261
26.7225 43.1395
26.7684 42.6593
26.8142 41.9647
26.8601 41.4648
26.9059 41.2115
26.9519 40.5657
26.9979 40.2424
27.0437 39.8584
27.0896 39.8269
27.1354 39.7805
27.1814 39.5668
27.2272 39.5313
27.2732 39.5717
27.3191 39.2917
27.3651 39.5824
27.4109 39.3016
27.4569 39.3855
27.5027 39.4445
27.5488 39.5966
27.5946 39.3386
27.6407 39.0678
27.6865 39.0999
27.7326 38.7755
27.7784 38.7441
27.8245 38.8158
27.8703 38.9744
27.9164 39.2944
27.9623 39.2666
28.0084 39.4985
28.0543 39.8089
28.1003 39.954
28.1462 39.7913
28.1923 39.4677
28.2384 39.0586
28.2843 38.7692
28.3304 38.225
28.3764 37.7099
28.4225 37.3951
28.4684 37.2298
28.5145 36.895
28.5605 36.8413
28.6066 36.6927
28.6526 36.5428
28.6987 36.5512
28.7447 36.4132
28.7908 36.1907
28.8368 36.3542
28.8829 36.2527
28.9289 36.2439
28.9751 36.0478
29.0211 35.8392
29.0673 35.4979
29.1133 35.5077
29.1595 35.2649
29.2055 35.1278
29.2517 35.1421
29.2977 35.1475
29.3439 35.0108
29.3899 35.1116
29.4361 35.0856
29.4824 34.834
29.5284 34.7679
29.5746 34.259
29.6207 33.9766
29.6669 33.9583
29.713 33.7701
29.7593 33.771
29.8053 33.7232
29.8516 33.5704
29.8977 33.6332
29.9439 33.4637
29.99 33.4487
30.0363 33.2884
30.0824 33.3531
30.1287 33.2145
30.1748 33.2497
30.2211 33.3168
30.2673 33.1406
30.3136 33.2033
30.3597 33.1136
30.406 33.0799
30.4522 32.8254
30.4985 32.8227
30.5447 32.9296
30.591 32.9403
30.6372 32.9349
30.6835 32.9534
30.7297 32.9809
30.7761 32.9186
30.8224 32.7863
30.8686 32.7265
30.915 32.4578
30.9612 32.2765
31.0076 32.0747
31.0538 31.9427
31.1002 31.8709
31.1464 31.7908
31.1928 31.7122
31.2391 31.6845
31.2855 31.5346
31.3317 31.6156
31.3781 31.7004
31.4244 31.6358
31.4708 31.4839
31.5171 31.5539
31.5636 31.5512
31.6098 31.3362
31.6563 31.2049
31.7026 30.9955
31.7491 30.8956
31.7953 31.0039
31.8418 30.9037
31.8881 30.9217
31.9346 30.8389
31.9809 30.7947
32.0275 30.6714
32.074 30.6994
32.1203 30.3944
32.1668 30.3159
32.2132 30.1181
32.2597 30.0212
32.306 29.8367
32.3526 29.7058
32.399 29.6075
32.4455 29.4867
32.4919 29.4552
32.5385 29.3416
32.5848 29.2575
32.6314 29.1757
32.6778 29.2345
32.7244 28.9296
32.7708 28.8664
32.8174 28.9261
32.8638 28.7522
32.9104 28.7306
32.9569 28.7295
33.0035 28.5997
33.0499 28.6826
33.0966 28.4873
33.143 28.4223
33.1897 28.4215
33.2361 28.3547
33.2828 28.3357
33.3293 28.0908
33.3759 27.9991
33.4226 27.9799
33.4691 27.8423
33.5158 27.6916
33.5623 27.5749
33.609 27.44
33.6555 27.3932
33.7022 27.1915
33.7487 27.1501
33.7954 27.1829
33.842 27.0997
33.8887 26.9428
33.9353 26.9154
33.982 26.8844
34.0286 26.7227
34.0753 26.6566
34.1219 26.4708
34.1687 26.4687
34.2152 26.3814
34.262 26.2682
34.3086 26.2441
34.3554 26.1618
34.402 26.0482
34.4488 25.9191
34.4954 25.8487
34.5422 25.7988
34.5889 25.73
34.6357 25.615
34.6825 25.5666
34.7292 25.5302
34.776 25.4529
34.8227 25.3195
34.8695 25.212
34.9162 25.1575
34.9631 25.1478
35.0098 25.0806
35.0566 25.0128
35.1033 24.8941
35.1502 24.9145
35.1969 24.803
35.2438 24.7419
35.2906 24.699
35.3375 24.6327
35.3842 24.6408
35.4311 24.5283
35.4779 24.5787
35.5248 24.4609
35.5716 24.4648
35.6185 24.217
35.6653 24.162
35.7123 24.0817
35.759 24.0354
35.806 23.8959
35.8528 23.8976
35.8998 23.7339
35.9468 23.6979
35.9936 23.6829
36.0406 23.5727
36.0874 23.5574
36.1345 23.3762
36.1813 23.3478
36.2283 23.3107
36.2752 23.1704
36.3222 23.1838
36.3691 23.2315
36.4161 23.008
36.463 23.0138
36.5101 22.9362
36.557 22.8597
36.6041 22.7584
36.651 22.7616
36.6981 22.6563
36.745 22.5377
36.7921 22.4966
36.839 22.3483
36.8861 22.4144
36.9331 22.254
36.9802 22.2213
37.0272 22.0838
37.0743 22.0405
37.1213 22.0374
37.1684 21.9138
37.2154 21.8661
37.2626 21.8132
37.3098 21.7128
37.3568 21.6931
37.404 21.6429
37.451 21.5368
37.4982 21.4411
37.5452 21.3758
37.5924 21.2446
37.6395 21.335
37.6867 21.1963
37.7337 21.1308
37.781 21.0305
37.8281 20.9725
37.8753 20.9212
37.9224 20.8257
37.9697 20.7422
38.0168 20.6762
38.064 20.6699
38.1111 20.622
38.1584 20.5263
38.2056 20.5291
38.2529 20.4244
38.3 20.4022
38.3473 20.3204
38.3945 20.207
38.4418 20.1722
38.489 20.0963
38.5363 20.0073
38.5837 19.9523
38.6309 19.8613
38.6782 19.8177
38.7254 19.7757
38.7728 19.7248
38.82 19.5952
38.8674 19.5414
38.9146 19.5015
38.9621 19.4649
39.0093 19.382
39.0567 19.3543
39.104 19.2796
39.1514 19.169
39.1987 19.0644
39.2461 19.1389
39.2934 19.046
39.3409 18.9356
39.3882 18.8903
39.4356 18.8795
39.483 18.7773
39.5304 18.7289
39.5778 18.6882
39.6253 18.6406
39.6726 18.5651
39.7201 18.4319
39.7675 18.4402
39.815 18.3312
39.8624 18.3422
39.9099 18.2566
39.9575 18.1972
40.0049 18.1878
40.0525 18.0388
40.0999 18.0491
40.1474 17.9069
40.1949 17.869
40.2425 17.8327
40.2899 17.7703
40.3375 17.7658
40.385 17.6672
40.4326 17.5631
40.48 17.5853
40.5277 17.5352
40.5752 17.4464
40.6228 17.3598
40.6703 17.2674
40.718 17.302
40.7655 17.279
40.8132 17.1812
40.8607 17.1435
40.9084 17.139
40.9559 17.0032
41.0036 17.0132
41.0512 16.9311
41.0989 16.8446
41.1465 16.8091
41.1942 16.7313
41.242 16.6899
41.2896 16.5892
41.3373 16.5362
41.3849 16.5279
41.4327 16.514
41.4803 16.3651
41.5281 16.3213
41.5758 16.3483
41.6236 16.197
41.6712 16.1885
41.7191 16.1258
41.7667 16.0729
41.8146 15.9956
41.8622 15.9897
41.9101 15.9555
41.9578 15.8799
42.0057 15.8135
42.0534 15.7791
42.1013 15.7254
42.149 15.636
42.1969 15.6339
42.2446 15.5612
42.2925 15.5058
42.3403 15.3947
42.3882 15.5082
42.436 15.3321
42.4839 15.2989
42.5319 15.2298
42.5797 15.2173
42.6277 15.1025
42.6755 15.1068
42.7235 15.0034
42.7713 15.0051
42.8193 14.9532
42.8671 14.8512
42.9152 14.8326
42.963 14.7698
43.0111 14.7087
43.0589 14.669
43.107 14.6103
43.1549 14.6011
43.2029 14.5611
43.2508 14.4918
43.2989 14.4295
43.3468 14.395
43.3949 14.34
43.4429 14.2781
43.491 14.2619
43.5389 14.1541
43.5871 14.1368
43.635 14.0882
43.6832 14.0409
43.7312 14.001
43.7793 13.9066
43.8273 13.8775
43.8755 13.8248
43.9237 13.7847
43.9717 13.7366
44.0199 13.6944
44.068 13.6875
44.1162 13.6134
44.1642 13.6045
44.2125 13.5025
44.2606 13.4897
44.3088 13.3982
44.3569 13.3703
44.4052 13.3165
44.4533 13.2384
44.5016 13.2543
44.5497 13.1728
44.598 13.1471
44.6461 13.1018
44.6945 13.0408
44.7426 13.0287
44.791 12.9352
44.8391 12.9102
44.8875 12.8467
44.9357 12.8301
44.984 12.7428
45.0322 12.7308
45.0806 12.6955
45.1288 12.6486
45.1773 12.5558
45.2257 12.5547
45.2739 12.4865
45.3224 12.4684
45.3706 12.4213
45.4191 12.3713
45.4673 12.3793
45.5158 12.2733
45.5641 12.2577
45.6126 12.2087
45.6609 12.1477
45.7094 12.0816
45.7577 12.0818
45.8063 12.0023
45.8546 12.0137
45.9031 11.9232
45.9515 11.9226
46.0001 11.8543
46.0484 11.8463
46.097 11.8011
46.1454 11.7373
46.194 11.6916
46.2424 11.6654
46.291 11.5995
46.3395 11.5843
46.3881 11.5406
46.4365 11.4987
46.4852 11.4893
46.5337 11.3898
46.5823 11.3553
46.631 11.3031
46.6795 11.2535
46.7282 11.2087
46.7767 11.189
46.8254 11.1164
46.8739 11.0978
46.9226 11.0465
46.9712 11.0055
47.0199 10.9567
47.0685 10.9497
47.1173 10.8729
47.1658 10.8691
47.2146 10.8199
47.2632 10.7895
47.312 10.7445
47.3606 10.6878
47.4095 10.6282
47.4581 10.6789
47.5069 10.5686
47.5556 10.5503
47.6044 10.4597
47.6531 10.4782
47.702 10.4143
47.7507 10.4187
47.7996 10.348
47.8483 10.3024
47.8972 10.2743
47.9461 10.2219
47.9948 10.2186
48.0438 10.1384
48.0925 10.1237
48.1415 10.1064
48.1902 10.0634
48.2392 10.0324
48.288 9.98567
48.337 9.94069
48.3858 9.89233
48.4348 9.86711
48.4837 9.84595
48.5327 9.81526
48.5815 9.74832
48.6306 9.76636
48.6795 9.67576
48.7285 9.63341
48.7774 9.61644
48.8265 9.59258
48.8754 9.55177
48.9245 9.52516
48.9734 9.40775
49.0226 9.46808
49.0715 9.41835
49.1206 9.38092
49.1696 9.31782
49.2188 9.31571
49.2679 9.27449
49.3169 9.1874
49.3661 9.18102
49.4151 9.16222
49.4643 9.10802
49.5134 9.07804
49.5626 9.04049
49.6117 9.02195
49.6609 9.03777
49.71 8.91797
49.7592 8.91865
49.8083 8.89345
49.8576 8.88533
49.9067 8.82341
49.956 8.77697
50.0052 8.74184
50.0545 8.708
50.1036 8.6605
50.153 8.62671
50.2022 8.62852
50.2515 8.55369
50.3007 8.54752
50.3501 8.49748
50.3993 8.47016
50.4487 8.46369
50.498 8.43278
50.5474 8.39884
50.5966 8.32499
50.6461 8.30896
50.6955 8.31109
50.7448 8.24058
50.7943 8.25269
50.8436 8.19213
50.8931 8.1402
50.9424 8.17844
50.9919 8.089
51.0413 8.07162
51.0908 8.02932
51.1402 7.98615
51.1897 7.98037
51.2391 7.9347
51.2887 7.90573
51.3381 7.81951
51.3877 7.83872
51.4371 7.7717
51.4867 7.74888
51.5362 7.75222
51.5858 7.66786
51.6353 7.6333
51.6849 7.63959
51.7344 7.59386
51.7841 7.58513
51.8336 7.5353
51.8833 7.51701
51.9328 7.4897
51.9826 7.43374
52.0323 7.41758
52.0818 7.36759
52.1316 7.34766
52.1812 7.3657
52.231 7.28446
52.2806 7.24021
52.3304 7.23451
52.38 7.23896
52.4298 7.16092
52.4794 7.13805
52.5293 7.10802
52.5789 7.10551
52.6288 7.07644
52.6785 7.02869
52.7284 7.01654
52.7781 6.98123
52.828 6.93793
52.8777 6.89052
52.9276 6.88
52.9774 6.85066
53.0273 6.84536
53.0771 6.82214
53.1271 6.79022
53.1769 6.73215
53.2269 6.71325
53.2767 6.6577
53.3267 6.66753
53.3765 6.62696
53.4266 6.62981
53.4766 6.52207
53.5265 6.55037
53.5765 6.50831
53.6264 6.49797
53.6765 6.44077
53.7264 6.43716
53.7765 6.41549
53.8265 6.35533
53.8766 6.35586
53.9266 6.3212
53.9767 6.25638
54.0267 6.26783
54.0769 6.24516
54.1269 6.19493
54.1771 6.16504
54.2271 6.16345
54.2773 6.12247
54.3274 6.06981
54.3776 6.04935
54.4277 6.03234
54.478 5.9849
54.528 5.95995
54.5783 5.89803
54.6285 5.82687
54.6788 5.79169
54.7289 5.75114
54.7792 5.7622
54.8296 5.70917
54.8798 5.68914
54.9301 5.60006
54.9803 5.59195
55.0307 5.5924
55.0809 5.53026
55.1314 5.51436
55.1816 5.40685
55.232 5.40492
55.2823 5.32217
55.3328 5.29543
55.383 5.22092
55.4335 5.23677
55.4838 5.13244
55.5344 5.11859
55.5847 5.00235
55.6352 4.97961
55.6856 4.99193
55.7361 4.94741