File: XRD/Ni3Fe_FD0081.xy
TT I
1.27165 10.1429
1.31627 9.28395
1.36089 8.77696
1.40551 8.38621
1.45013 7.71494
1.49476 8.07361
1.53938 7.92944
1.584 6.86704
1.62863 7.36475
1.67325 6.58499
1.71787 7.10527
1.7625 6.23643
1.80712 6.66596
1.85174 6.71526
1.89636 6.17451
1.94099 6.63488
1.98562 6.61429
2.03025 6.02549
2.07487 5.92813
2.11949 6.22227
2.16411 6.06529
2.20874 5.79761
2.25338 4.82288
2.298 5.01626
2.34263 5.01469
2.38725 4.52108
2.43188 4.31275
2.4765 5.09531
2.52115 4.22387
2.56577 4.99468
2.6104 4.92819
2.65503 5.25966
2.69965 5.1782
2.7443 5.86053
2.78893 6.30151
2.83356 7.2987
2.87818 7.78522
2.92281 8.45509
2.96744 9.13256
3.01209 10.6793
3.05672 10.9119
3.10135 12.8627
3.14599 13.4002
3.19062 14.5747
3.23527 14.9334
3.2799 16.0137
3.32454 16.2993
3.36917 17.6212
3.4138 18.3744
3.45844 19.2095
3.50309 20.3006
3.54773 20.5128
3.59237 21.154
3.637 22.3609
3.68164 23.1721
3.7263 23.586
3.77094 24.7557
3.81558 24.8318
3.86022 26.2149
3.90486 27.4087
3.9495 28.2641
3.99416 29.1265
4.0388 30.0526
4.08344 31.2668
4.12809 32.1032
4.17273 33.0706
4.21738 34.3415
4.26204 35.4796
4.30669 37.3749
4.35133 38.8475
4.39598 40.5699
4.44063 41.994
4.4853 43.8086
4.52995 46.4666
4.5746 47.7499
4.61925 50.5296
4.6639 53.4093
4.70855 56.1395
4.75322 59.3294
4.79788 62.322
4.84253 65.9614
4.88719 70.9527
4.93184 77.4816
4.97652 86.4681
5.02118 99.0319
5.06583 113.195
5.11049 137.479
5.15515 197.922
5.19981 753.333
5.24449 3357.57
5.28916 4653.97
5.33382 8207.82
5.37848 1295.01
5.42315 259.577
5.46783 162.011
5.5125 132.877
5.55716 120.854
5.60183 111.097
5.6465 106.8
5.69117 104.872
5.73586 102.25
5.78053 102.312
5.8252 103.914
5.86988 109.223
5.91455 122.272
5.95924 156.103
6.00392 382.177
6.0486 1309.48
6.09328 1474.09
6.13795 3433.27
6.18263 1330.9
6.22733 202.688
6.27201 110.627
6.3167 87.6133
6.36138 76.5426
6.40606 70.4472
6.45075 67.3151
6.49545 64.3675
6.54014 62.0649
6.58483 59.9304
6.62952 58.6012
6.67421 57.2537
6.71892 56.0081
6.76361 55.3166
6.8083 54.1394
6.853 53.1269
6.89769 53.2135
6.94239 52.2722
6.98711 51.753
7.03181 51.2308
7.07651 51.4312
7.12121 50.8606
7.16591 50.4665
7.21063 50.3954
7.25533 50.3367
7.30004 49.7723
7.34475 50.3913
7.38945 51.0524
7.43416 50.6494
7.47889 52.4769
7.5236 70.9788
7.56831 129.011
7.61303 78.4627
7.65774 54.9921
7.70247 52.8657
7.74719 52.5139
7.79191 53.0597
7.83663 53.2614
7.88135 54.2824
7.92607 55.0965
7.97081 56.1516
8.01553 56.8499
8.06026 58.6772
8.10498 59.9451
8.14971 61.71
8.19446 63.3779
8.23919 65.8625
8.28392 69.0013
8.32865 72.0765
8.37339 77.5562
8.41812 84.4472
8.46288 101.839
8.50761 200.177
8.55235 621.948
8.59709 576.571
8.64183 735.772
8.68658 1785.06
8.73134 813.576
8.77609 159.843
8.82083 107.211
8.86558 94.8535
8.91033 88.7616
8.9551 85.49
8.99985 82.9473
9.04461 82.3187
9.08936 81.5607
9.13412 81.4561
9.17888 83.6337
9.22365 113.165
9.26841 205.889
9.31318 139.155
9.35794 87.3347
9.4027 81.9455
9.44749 81.4064
9.49226 81.4124
9.53703 82.4797
9.5818 83.4853
9.62657 84.4358
9.67134 85.7856
9.71614 87.7006
9.76091 89.9725
9.80569 93.17
9.85047 96.8056
9.89525 104.115
9.94005 119.309
9.98484 208.937
10.0296 570.243
10.0744 553.457
10.1192 467.631
10.164 1153.56
10.2088 1468.88
10.2536 404.308
10.2984 135.534
10.3432 112.828
10.388 106.777
10.4328 126.023
10.4776 223.663
10.5224 213.818
10.5672 181.106
10.612 336.004
10.6568 494.923
10.7017 228.585
10.7465 112.819
10.7913 85.8785
10.8361 79.8365
10.8809 76.0868
10.9257 73.688
10.9706 72.4525
11.0154 70.159
11.0602 68.7543
11.105 67.5142
11.1499 65.772
11.1947 64.8038
11.2395 64.2081
11.2844 63.862
11.3292 62.7548
11.374 61.8838
11.4189 61.7292
11.4637 60.8579
11.5086 60.2167
11.5534 59.7452
11.5983 59.3675
11.6431 60.0053
11.688 59.4078
11.7328 59.2684
11.7777 58.8695
11.8225 58.9606
11.8674 59.6899
11.9122 64.8302
11.9571 85.8241
12.002 87.6653
12.0468 74.3499
12.0917 91.7536
12.1366 99.6831
12.1814 87.3531
12.2263 95.1111
12.2712 155.306
12.3161 175.567
12.3609 93.9161
12.4058 65.4379
12.4507 61.9321
12.4956 60.7742
12.5405 60.5155
12.5853 60.947
12.6302 60.9816
12.6751 61.3959
12.72 62.1689
12.7649 63.1245
12.8098 63.7301
12.8547 65.1124
12.8996 66.3845
12.9445 67.8503
12.9894 69.8953
13.0343 72.1763
13.0792 78.8825
13.1242 91.2888
13.1691 138.791
13.214 185.312
13.2589 155.524
13.3038 141.864
13.3487 205.628
13.3937 377.147
13.4386 317.408
13.4835 153.115
13.5285 163.481
13.5734 173.925
13.6183 137.7
13.6633 136.16
13.7082 219.066
13.7531 349.848
13.7981 237.653
13.843 103.275
13.888 80.8401
13.9329 76.025
13.9779 73.9791
14.0228 72.4282
14.0678 71.2941
14.1127 73.714
14.1577 88.2657
14.2027 89.1033
14.2476 74.9464
14.2926 68.1224
14.3376 66.6762
14.3825 66.3253
14.4275 65.6168
14.4725 65.3942
14.5175 65.505
14.5624 65.3987
14.6074 65.6244
14.6524 66.0593
14.6974 67.1767
14.7424 69.2069
14.7874 79.6558
14.8324 107.529
14.8774 112.765
14.9224 96.835
14.9674 95.2683
15.0124 124.043
15.0574 199.273
15.1024 189.833
15.1474 102.823
15.1924 73.7419
15.2374 67.9815
15.2824 65.6876
15.3274 64.3356
15.3725 63.7682
15.4175 63.4002
15.4625 63.1045
15.5076 62.6611
15.5526 62.6318
15.5976 63.2546
15.6426 64.5791
15.6877 72.711
15.7327 95.3645
15.7778 102.44
15.8228 88.6935
15.8679 84.1021
15.9129 96.6456
15.958 152.633
16.003 187.36
16.0481 125.856
16.0931 78.7981
16.1382 65.7143
16.1833 60.0255
16.2283 57.5358
16.2734 55.9939
16.3185 55.4621
16.3636 54.4664
16.4086 53.644
16.4537 53.436
16.4988 52.7452
16.5439 52.7582
16.589 52.416
16.6341 52.0878
16.6792 51.8082
16.7243 51.9362
16.7694 51.7736
16.8145 51.8625
16.8596 52.1159
16.9047 53.3664
16.9498 55.3758
16.9949 55.09
17.04 53.7794
17.0851 54.8407
17.1302 59.0477
17.1754 61.7998
17.2205 59.6272
17.2656 58.0999
17.3108 59.5469
17.3559 65.3141
17.401 78.2066
17.4462 77.8716
17.4913 64.1558
17.5365 57.5125
17.5815 56.6019
17.6268 56.7223
17.6718 56.9841
17.7171 57.634
17.7622 59.9313
17.8074 61.5765
17.8525 62.821
17.8977 70.3063
17.9428 82.7471
17.9881 83.0773
18.0331 75.8293
18.0784 73.9319
18.1237 81.1919
18.1688 109.646
18.214 148.747
18.2591 133.356
18.3044 89.5489
18.3495 73.1136
18.3948 74.3218
18.4399 88.9171
18.4852 102.573
18.5303 89.7174
18.5756 69.5386
18.6207 62.1909
18.666 59.4937
18.7112 57.9448
18.7565 56.8441
18.8016 56.4908
18.8469 55.7059
18.892 55.4899
18.9374 54.9892
18.9825 54.6072
19.0278 54.4605
19.073 54.6034
19.1183 55.2054
19.1635 57.8218
19.2088 59.5414
19.254 58.8352
19.2993 58.3766
19.3447 59.6073
19.3898 61.2647
19.4352 65.251
19.4804 72.3856
19.5257 69.6552
19.5709 58.7122
19.6163 53.1626
19.6615 52.0934
19.7068 51.2465
19.752 51.0231
19.7974 51.1756
19.8426 52.5625
19.888 54.9266
19.9332 55.8425
19.9786 54.7736
20.0238 53.4629
20.0692 54.598
20.1144 58.0337
20.1598 63.9503
20.205 69.3997
20.2504 66.3901
20.2957 58.0816
20.3411 54.1548
20.3863 56.6591
20.4318 62.6641
20.477 62.5756
20.5224 55.3086
20.5677 50.056
20.6131 48.5303
20.6586 47.7526
20.7038 47.6586
20.7493 47.6455
20.7945 48.3998
20.84 48.209
20.8853 47.2958
20.9307 46.6976
20.976 46.6376
21.0215 46.9838
21.0668 47.3575
21.1122 47.0782
21.1575 46.6623
21.203 46.5975
21.2483 46.7386
21.2938 47.5179
21.3391 48.6614
21.3846 49.5032
21.4299 48.2938
21.4754 47.1371
21.5207 46.789
21.5662 46.7961
21.6116 47.3242
21.6571 49.1676
21.7024 51.1256
21.7479 51.3807
21.7933 50.1756
21.8388 49.9383
21.8843 51.3332
21.9297 53.1897
21.9752 57.2916
22.0206 63.2248
22.0661 62.6435
22.1115 56.1217
22.157 52.2891
22.2024 53.2593
22.248 54.576
22.2933 53.3584
22.3389 49.714
22.3843 47.7203
22.4299 46.8123
22.4753 46.6662
22.5208 46.716
22.5662 46.5204
22.6118 46.8849
22.6572 47.0437
22.7028 48.2733
22.7483 49.8073
22.7939 49.7212
22.8393 49.1255
22.8849 48.4482
22.9303 48.1225
22.9759 48.7084
23.0214 50.4364
23.067 54.638
23.1126 56.9457
23.1581 54.1541
23.2037 49.5173
23.2492 47.6241
23.2948 47.889
23.3403 49.2139
23.3859 50.1412
23.4314 49.6094
23.477 48.6267
23.5225 47.7312
23.5682 47.6684
23.6137 48.6303
23.6593 51.5415
23.7048 56.0066
23.7505 56.191
23.796 51.047
23.8417 46.1726
23.8872 44.5533
23.9329 43.9951
23.9784 43.4696
24.0241 43.2799
24.0697 43.1002
24.1154 42.7194
24.1609 42.4579
24.2066 42.2499
24.2522 42.3382
24.2979 41.7853
24.3434 41.7517
24.3892 41.5464
24.4349 41.3761
24.4805 41.118
24.5262 41.2475
24.5718 40.9914
24.6175 41.1385
24.6631 41.2524
24.7089 41.3867
24.7545 41.3447
24.8002 40.8309
24.8458 40.7013
24.8916 40.779
24.9372 40.8823
24.983 40.9108
25.0286 40.9449
25.0744 41.2434
25.12 41.5578
25.1658 41.4764
25.2114 41.3308
25.2572 41.9699
25.3029 42.6139
25.3487 42.4248
25.3943 41.7687
25.4402 42.2924
25.4858 43.5604
25.5316 42.8694
25.5773 41.1505
25.6231 39.958
25.669 39.2164
25.7147 39.0622
25.7605 39.0679
25.8062 39.4475
25.8521 39.6052
25.8977 39.4936
25.9436 39.1227
25.9893 38.8214
26.0352 39.044
26.0809 38.7402
26.1268 38.9472
26.1725 39.4479
26.2184 40.2953
26.2641 40.2671
26.31 39.922
26.3557 39.5613
26.4017 39.167
26.4474 38.9606
26.4933 38.8858
26.5391 38.8356
26.585 38.9126
26.6308 39.0201
26.6767 39.0571
26.7225 39.7742
26.7684 40.7006
26.8142 40.9401
26.8601 40.1456
26.9059 39.367
26.9519 39.1413
26.9979 39.1307
27.0437 38.3639
27.0896 37.7424
27.1354 37.4943
27.1814 37.4177
27.2272 37.3347
27.2732 37.3336
27.3191 37.0184
27.3651 37.0166
27.4109 36.8315
27.4569 36.9511
27.5027 36.6901
27.5488 36.8598
27.5946 36.7056
27.6407 37.0612
27.6865 37.2823
27.7326 37.2713
27.7784 37.1319
27.8245 36.7262
27.8703 36.6747
27.9164 36.6423
27.9623 36.5211
28.0084 36.5008
28.0543 36.6541
28.1003 36.3994
28.1462 36.9286
28.1923 37.5385
28.2384 37.4326
28.2843 37.0614
28.3304 36.4841
28.3764 36.308
28.4225 36.0119
28.4684 35.6231
28.5145 35.0181
28.5605 34.7111
28.6066 34.6045
28.6526 34.5008
28.6987 34.4743
28.7447 34.0536
28.7908 33.9104
28.8368 33.8325
28.8829 33.7539
28.9289 33.8084
28.9751 33.6786
29.0211 33.8387
29.0673 33.7814
29.1133 33.6614
29.1595 33.4813
29.2055 33.0598
29.2517 32.7992
29.2977 32.7546
29.3439 32.7097
29.3899 32.5166
29.4361 32.3764
29.4824 32.5742
29.5284 32.6591
29.5746 32.6381
29.6207 32.2485
29.6669 31.9748
29.713 31.7694
29.7593 31.5428
29.8053 31.5277
29.8516 31.5714
29.8977 31.4668
29.9439 31.3605
29.99 31.3391
30.0363 31.1631
30.0824 31.2618
30.1287 30.9636
30.1748 31.0187
30.2211 30.9484
30.2673 30.8457
30.3136 31.054
30.3597 31.0637
30.406 31.1941
30.4522 31.0595
30.4985 30.8304
30.5447 30.8716
30.591 30.5858
30.6372 30.5829
30.6835 30.481
30.7297 30.5195
30.7761 30.6
30.8224 30.7575
30.8686 30.894
30.915 30.8175
30.9612 30.5725
31.0076 30.4755
31.0538 30.2498
31.1002 30.2147
31.1464 29.9632
31.1928 29.7777
31.2391 29.8098
31.2855 29.5432
31.3317 29.5536
31.3781 29.5819
31.4244 29.4299
31.4708 29.4012
31.5171 29.4172
31.5636 29.5303
31.6098 29.5674
31.6563 29.472
31.7026 29.5146
31.7491 29.2119
31.7953 28.9901
31.8418 28.8478
31.8881 28.8612
31.9346 28.7608
31.9809 28.7818
32.0275 28.6494
32.074 28.7034
32.1203 28.6372
32.1668 28.6582
32.2132 28.4417
32.2597 28.317
32.306 28.274
32.3526 27.9566
32.399 27.9005
32.4455 27.7747
32.4919 27.6099
32.5385 27.5825
32.5848 27.3467
32.6314 27.3831
32.6778 27.2764
32.7244 27.1746
32.7708 27.0502
32.8174 27.0529
32.8638 27.0006
32.9104 27.0272
32.9569 26.8666
33.0035 26.7069
33.0499 26.7082
33.0966 26.5865
33.143 26.523
33.1897 26.4296
33.2361 26.4365
33.2828 26.456
33.3293 26.4198
33.3759 26.3498
33.4226 26.297
33.4691 26.2237
33.5158 26.1451
33.5623 25.9829
33.609 25.7686
33.6555 25.6238
33.7022 25.4921
33.7487 25.4652
33.7954 25.4207
33.842 25.2734
33.8887 25.2282
33.9353 25.1448
33.982 25.2145
34.0286 25.0614
34.0753 25.0384
34.1219 24.9324
34.1687 24.7938
34.2152 24.6866
34.262 24.6174
34.3086 24.4464
34.3554 24.355
34.402 24.3558
34.4488 24.2484
34.4954 24.3129
34.5422 24.1914
34.5889 24.092
34.6357 23.9831
34.6825 23.9327
34.7292 23.9219
34.776 23.7057
34.8227 23.6139
34.8695 23.5901
34.9162 23.6175
34.9631 23.4949
35.0098 23.4927
35.0566 23.3128
35.1033 23.3019
35.1502 23.2418
35.1969 23.2039
35.2438 23.1241
35.2906 23.0578
35.3375 22.9641
35.3842 22.985
35.4311 22.9415
35.4779 22.8897
35.5248 22.8411
35.5716 22.8124
35.6185 22.7381
35.6653 22.7636
35.7123 22.6599
35.759 22.6136
35.806 22.4528
35.8528 22.349
35.8998 22.2923
35.9468 22.1639
35.9936 22.2047
36.0406 22.0355
36.0874 22.0464
36.1345 21.904
36.1813 21.9242
36.2283 21.8
36.2752 21.7489
36.3222 21.7538
36.3691 21.6625
36.4161 21.5939
36.463 21.5446
36.5101 21.5198
36.557 21.4048
36.6041 21.2882
36.651 21.3486
36.6981 21.2662
36.745 21.1746
36.7921 21.1451
36.839 21.0287
36.8861 20.9939
36.9331 20.883
36.9802 20.8025
37.0272 20.7263
37.0743 20.655
37.1213 20.5354
37.1684 20.5901
37.2154 20.4746
37.2626 20.3945
37.3098 20.3497
37.3568 20.2735
37.404 20.2609
37.451 20.1523
37.4982 20.0976
37.5452 19.9344
37.5924 20.0093
37.6395 19.9633
37.6867 19.9103
37.7337 19.8455
37.781 19.702
37.8281 19.6803
37.8753 19.5776
37.9224 19.4969
37.9697 19.4384
38.0168 19.351
38.064 19.3228
38.1111 19.2941
38.1584 19.3073
38.2056 19.1463
38.2529 19.17
38.3 18.9827
38.3473 19.0177
38.3945 18.9272
38.4418 18.8046
38.489 18.8195
38.5363 18.7025
38.5837 18.6651
38.6309 18.5306
38.6782 18.474
38.7254 18.4757
38.7728 18.4675
38.82 18.3355
38.8674 18.3458
38.9146 18.2617
38.9621 18.2283
39.0093 18.1893
39.0567 18.0756
39.104 18.0303
39.1514 17.9919
39.1987 17.9607
39.2461 17.8723
39.2934 17.8431
39.3409 17.7174
39.3882 17.6133
39.4356 17.6325
39.483 17.5094
39.5304 17.5905
39.5778 17.5091
39.6253 17.4845
39.6726 17.3514
39.7201 17.3309
39.7675 17.216
39.815 17.2253
39.8624 17.146
39.9099 17.1498
39.9575 17.0038
40.0049 16.9574
40.0525 16.8979
40.0999 16.915
40.1474 16.9043
40.1949 16.7391
40.2425 16.6985
40.2899 16.7118
40.3375 16.7104
40.385 16.569
40.4326 16.494
40.48 16.4311
40.5277 16.4278
40.5752 16.353
40.6228 16.2543
40.6703 16.1909
40.718 16.2124
40.7655 16.1353
40.8132 16.0705
40.8607 16.1008
40.9084 16.0434
40.9559 15.9458
41.0036 15.9399
41.0512 15.8933
41.0989 15.8125
41.1465 15.7381
41.1942 15.7669
41.242 15.6074
41.2896 15.6215
41.3373 15.5548
41.3849 15.4953
41.4327 15.4218
41.4803 15.3234
41.5281 15.3196
41.5758 15.2737
41.6236 15.217
41.6712 15.1472
41.7191 15.1585
41.7667 15.1004
41.8146 15.0585
41.8622 15.015
41.9101 14.9628
41.9578 14.8867
42.0057 14.8473
42.0534 14.7788
42.1013 14.6755
42.149 14.692
42.1969 14.6047
42.2446 14.5522
42.2925 14.5066
42.3403 14.5287
42.3882 14.4408
42.436 14.3962
42.4839 14.3493
42.5319 14.2967
42.5797 14.2544
42.6277 14.2157
42.6755 14.122
42.7235 14.0687
42.7713 14.0824
42.8193 14.0333
42.8671 13.9845
42.9152 13.9302
42.963 13.8257
43.0111 13.8307
43.0589 13.7681
43.107 13.6839
43.1549 13.7094
43.2029 13.614
43.2508 13.5956
43.2989 13.5259
43.3468 13.4802
43.3949 13.4844
43.4429 13.3871
43.491 13.3689
43.5389 13.3105
43.5871 13.2916
43.635 13.2166
43.6832 13.1784
43.7312 13.0974
43.7793 13.0553
43.8273 13.0337
43.8755 13.0012
43.9237 12.9005
43.9717 12.8618
44.0199 12.8616
44.068 12.8246
44.1162 12.7829
44.1642 12.7593
44.2125 12.6857
44.2606 12.6436
44.3088 12.5931
44.3569 12.5087
44.4052 12.4877
44.4533 12.436
44.5016 12.3952
44.5497 12.3825
44.598 12.3833
44.6461 12.2999
44.6945 12.2515
44.7426 12.2
44.791 12.1357
44.8391 12.1517
44.8875 12.0768
44.9357 12.0532
44.984 12.0136
45.0322 11.9334
45.0806 11.9126
45.1288 11.8769
45.1773 11.8217
45.2257 11.7775
45.2739 11.6962
45.3224 11.7194
45.3706 11.6383
45.4191 11.6132
45.4673 11.5776
45.5158 11.5265
45.5641 11.4778
45.6126 11.4191
45.6609 11.4048
45.7094 11.3593
45.7577 11.3387
45.8063 11.2526
45.8546 11.3001
45.9031 11.2302
45.9515 11.1713
46.0001 11.1186
46.0484 11.1054
46.097 11.0631
46.1454 11.0103
46.194 10.9628
46.2424 10.9405
46.291 10.9091
46.3395 10.8529
46.3881 10.7854
46.4365 10.7831
46.4852 10.7424
46.5337 10.7114
46.5823 10.68
46.631 10.6363
46.6795 10.5894
46.7282 10.5562
46.7767 10.5215
46.8254 10.4495
46.8739 10.4377
46.9226 10.4352
46.9712 10.3397
47.0199 10.2932
47.0685 10.2314
47.1173 10.2432
47.1658 10.1506
47.2146 10.1714
47.2632 10.1119
47.312 10.091
47.3606 10.0472
47.4095 10.0007
47.4581 9.95019
47.5069 9.91984
47.5556 9.85791
47.6044 9.87707
47.6531 9.86819
47.702 9.79885
47.7507 9.72046
47.7996 9.73662
47.8483 9.69264
47.8972 9.62375
47.9461 9.65536
47.9948 9.57218
48.0438 9.53845
48.0925 9.51301
48.1415 9.50209
48.1902 9.45523
48.2392 9.43673
48.288 9.37131
48.337 9.34811
48.3858 9.273
48.4348 9.30393
48.4837 9.26836
48.5327 9.22469
48.5815 9.15895
48.6306 9.14767
48.6795 9.12783
48.7285 9.08692
48.7774 9.02393
48.8265 9.02634
48.8754 8.96172
48.9245 8.94753
48.9734 8.89593
49.0226 8.91857
49.0715 8.84195
49.1206 8.83381
49.1696 8.78011
49.2188 8.74281
49.2679 8.70812
49.3169 8.71618
49.3661 8.63536
49.4151 8.61827
49.4643 8.56988
49.5134 8.52661
49.5626 8.47395
49.6117 8.46339
49.6609 8.47984
49.71 8.40656
49.7592 8.39026
49.8083 8.35681
49.8576 8.34864
49.9067 8.28408
49.956 8.31363
50.0052 8.24684
50.0545 8.22432
50.1036 8.16637
50.153 8.17553
50.2022 8.11887
50.2515 8.07656
50.3007 8.05117
50.3501 8.03634
50.3993 7.96732
50.4487 7.94715
50.498 7.94638
50.5474 7.93844
50.5966 7.86616
50.6461 7.84329
50.6955 7.81742
50.7448 7.78932
50.7943 7.75468
50.8436 7.70303
50.8931 7.68495
50.9424 7.67436
50.9919 7.6286
51.0413 7.6051
51.0908 7.5878
51.1402 7.51377
51.1897 7.51608
51.2391 7.5073
51.2887 7.43516
51.3381 7.44654
51.3877 7.39753
51.4371 7.34382
51.4867 7.32394
51.5362 7.31484
51.5858 7.31687
51.6353 7.22216
51.6849 7.18402
51.7344 7.14266
51.7841 7.16327
51.8336 7.09749
51.8833 7.11861
51.9328 7.05573
51.9826 7.01285
52.0323 6.98211
52.0818 6.94578
52.1316 6.93608
52.1812 6.93391
52.231 6.85735
52.2806 6.84282
52.3304 6.79979
52.38 6.78303
52.4298 6.80372
52.4794 6.73584
52.5293 6.72438
52.5789 6.69487
52.6288 6.60942
52.6785 6.63509
52.7284 6.56098
52.7781 6.56584
52.828 6.52506
52.8777 6.47342
52.9276 6.5087
52.9774 6.46023
53.0273 6.4307
53.0771 6.40575
53.1271 6.37357
53.1769 6.34032
53.2269 6.32989
53.2767 6.31911
53.3267 6.26648
53.3765 6.24317
53.4266 6.22468
53.4766 6.17036
53.5265 6.18156
53.5765 6.13073
53.6264 6.11445
53.6765 6.05474
53.7264 6.06295
53.7765 6.03472
53.8265 6.00462
53.8766 5.97466
53.9266 5.95637
53.9767 5.94047
54.0267 5.88661
54.0769 5.84387
54.1269 5.82185
54.1771 5.7485
54.2271 5.80206
54.2773 5.69892
54.3274 5.69314
54.3776 5.63426
54.4277 5.58666
54.478 5.54508
54.528 5.51711
54.5783 5.43311
54.6285 5.42202
54.6788 5.39725
54.7289 5.34243
54.7792 5.30523
54.8296 5.22646
54.8798 5.20028
54.9301 5.11968
54.9803 5.11852
55.0307 5.11858
55.0809 5.06047
55.1314 5.0231
55.1816 4.92912
55.232 4.91832
55.2823 4.87786
55.3328 4.7773
55.383 4.75203
55.4335 4.72854
55.4838 4.65564
55.5344 4.62905
55.5847 4.58088
55.6352 4.56799
55.6856 4.51001
55.7361 4.53552