File: XRD/Ni3Fe_FD0138.xy
TT I
1.27165 8.17669
1.31627 7.24794
1.36089 6.75481
1.40551 7.25737
1.45013 5.77088
1.49476 6.48188
1.53938 5.88426
1.584 5.92083
1.62863 5.84302
1.67325 5.69793
1.71787 5.41085
1.7625 5.18061
1.80712 5.41496
1.85174 5.0092
1.89636 5.3617
1.94099 5.3932
1.98562 4.79559
2.03025 4.91808
2.07487 4.61952
2.11949 5.18959
2.16411 4.76439
2.20874 4.77352
2.25338 5.04054
2.298 4.41957
2.34263 4.10937
2.38725 4.05874
2.43188 3.97356
2.4765 4.33685
2.52115 4.23949
2.56577 4.11147
2.6104 4.58799
2.65503 4.99067
2.69965 5.73393
2.7443 5.7326
2.78893 6.64082
2.83356 7.27606
2.87818 7.86738
2.92281 8.56308
2.96744 9.5083
3.01209 10.4553
3.05672 11.7042
3.10135 12.0397
3.14599 13.3221
3.19062 14.1319
3.23527 15.005
3.2799 15.7124
3.32454 16.6747
3.36917 16.9474
3.4138 18.7718
3.45844 19.8485
3.50309 20.686
3.54773 20.615
3.59237 21.4635
3.637 22.4308
3.68164 22.9662
3.7263 24.071
3.77094 24.5053
3.81558 25.4988
3.86022 26.2681
3.90486 27.577
3.9495 28.3136
3.99416 29.6194
4.0388 30.5718
4.08344 31.7675
4.12809 32.6645
4.17273 33.7136
4.21738 35.4385
4.26204 36.5233
4.30669 37.6548
4.35133 39.5544
4.39598 40.6399
4.44063 43.2198
4.4853 44.685
4.52995 47.1415
4.5746 49.3842
4.61925 51.6342
4.6639 53.3551
4.70855 55.9119
4.75322 59.0999
4.79788 61.9287
4.84253 65.5851
4.88719 69.8561
4.93184 75.2206
4.97652 82.2486
5.02118 90.8636
5.06583 101.627
5.11049 117.199
5.15515 156.617
5.19981 567.921
5.24449 3777.78
5.28916 8042.36
5.33382 6352.23
5.37848 471.919
5.42315 165.732
5.46783 128.433
5.5125 113.749
5.55716 107.535
5.60183 101.963
5.6465 98.6796
5.69117 97.4922
5.73586 95.2476
5.78053 95.1159
5.8252 95.5678
5.86988 98.9578
5.91455 105.785
5.95924 125.025
6.00392 294.689
6.0486 1392.29
6.09328 2652.38
6.13795 3958.5
6.18263 717.91
6.22733 125.115
6.27201 89.1865
6.3167 78.6216
6.36138 72.8174
6.40606 68.5535
6.45075 66.3224
6.49545 64.2963
6.54014 62.0853
6.58483 60.7101
6.62952 59.7342
6.67421 57.906
6.71892 57.3043
6.76361 56.2127
6.8083 55.5546
6.853 54.82
6.89769 54.4474
6.94239 53.872
6.98711 53.0056
7.03181 52.8601
7.07651 52.3893
7.12121 52.3058
7.16591 52.5026
7.21063 51.6255
7.25533 51.833
7.30004 51.6457
7.34475 51.9063
7.38945 51.985
7.43416 51.5879
7.47889 51.5549
7.5236 56.0164
7.56831 64.5878
7.61303 55.0993
7.65774 53.2778
7.70247 53.7467
7.74719 53.7894
7.79191 54.6912
7.83663 55.1559
7.88135 55.8761
7.92607 56.8644
7.97081 57.8659
8.01553 58.8546
8.06026 60.2482
8.10498 61.572
8.14971 63.3543
8.19446 65.2493
8.23919 67.4706
8.28392 70.5663
8.32865 72.9374
8.37339 77.6056
8.41812 83.2668
8.46288 95.1507
8.50761 174.999
8.55235 609.689
8.59709 864.327
8.64183 1436.27
8.68658 1660.03
8.73134 425.716
8.77609 117.357
8.82083 97.3193
8.86558 90.9695
8.91033 87.6704
8.9551 84.8281
8.99985 83.4365
9.04461 82.7983
9.08936 82.0759
9.13412 81.1206
9.17888 81.2478
9.22365 87.2885
9.26841 99.1678
9.31318 86.7516
9.35794 82.3025
9.4027 81.7212
9.44749 82.5851
9.49226 82.8901
9.53703 83.9817
9.5818 85.6739
9.62657 86.7701
9.67134 87.9011
9.71614 90.4125
9.76091 92.4095
9.80569 95.3773
9.85047 98.4359
9.89525 104.01
9.94005 114.077
9.98484 187.158
10.0296 550.442
10.0744 723.645
10.1192 993.928
10.164 1633.87
10.2088 998.871
10.2536 222.317
10.2984 116.713
10.3432 107.852
10.388 104.204
10.4328 121.354
10.4776 216.688
10.5224 259.009
10.5672 320.992
10.612 489.939
10.6568 381.562
10.7017 137.383
10.7465 90.7073
10.7913 83.5277
10.8361 80.1332
10.8809 77.4419
10.9257 75.5224
10.9706 73.9201
11.0154 72.3717
11.0602 71.0538
11.105 69.8245
11.1499 67.8904
11.1947 67.4386
11.2395 66.3201
11.2844 65.7114
11.3292 65.159
11.374 64.2141
11.4189 63.9263
11.4637 62.9781
11.5086 62.1247
11.5534 62.011
11.5983 61.7581
11.6431 61.8644
11.688 61.2586
11.7328 61.089
11.7777 60.9008
11.8225 60.7666
11.8674 61.0201
11.9122 62.4
11.9571 65.7533
12.002 65.6805
12.0468 67.5749
12.0917 90.7555
12.1366 107.341
12.1814 115.427
12.2263 147.005
12.2712 191.607
12.3161 140.912
12.3609 75.3619
12.4058 63.8803
12.4507 62.9876
12.4956 62.3744
12.5405 62.7048
12.5853 63.3782
12.6302 63.3828
12.6751 64.1831
12.72 64.8505
12.7649 65.9661
12.8098 66.5064
12.8547 67.863
12.8996 69.3604
12.9445 70.9955
12.9894 72.7038
13.0343 74.8916
13.0792 78.9687
13.1242 86.3208
13.1691 133.452
13.214 187.379
13.2589 200.988
13.3038 237.948
13.3487 341.438
13.3937 383.817
13.4386 216.837
13.4835 120.698
13.5285 155.384
13.5734 181.789
13.6183 188.339
13.6633 230.247
13.7082 322.661
13.7531 307.307
13.7981 157.616
13.843 88.322
13.888 80.5385
13.9329 77.1533
13.9779 75.8164
14.0228 73.8887
14.0678 72.4183
14.1127 72.6028
14.1577 74.0755
14.2027 72.2688
14.2476 70.2802
14.2926 69.1433
14.3376 68.6896
14.3825 67.9891
14.4275 67.6586
14.4725 68.0309
14.5175 67.8893
14.5624 67.8
14.6074 68.2724
14.6524 68.6416
14.6974 69.6157
14.7424 71.1294
14.7874 80.8081
14.8324 107.233
14.8774 120.275
14.9224 124.507
14.9674 144.419
15.0124 186.661
15.0574 204.576
15.1024 140.092
15.1474 82.1257
15.1924 71.0712
15.2374 68.8199
15.2824 67.5495
15.3274 66.774
15.3725 66.1244
15.4175 65.9274
15.4625 65.3513
15.5076 64.9966
15.5526 64.998
15.5976 65.3463
15.6426 66.3026
15.6877 73.5783
15.7327 95.1189
15.7778 107.138
15.8228 109.028
15.8679 121.432
15.9129 150.299
15.958 183.005
16.003 153.252
16.0481 89.3591
16.0931 66.1421
16.1382 61.666
16.1833 60.129
16.2283 58.6802
16.2734 57.7029
16.3185 56.7787
16.3636 56.2325
16.4086 55.6678
16.4537 55.222
16.4988 54.7669
16.5439 54.6109
16.589 54.2478
16.6341 54.0711
16.6792 53.956
16.7243 54.0334
16.7694 53.9146
16.8145 53.7976
16.8596 53.9564
16.9047 54.1602
16.9498 54.7908
16.9949 54.8861
17.04 55.103
17.0851 56.3725
17.1302 60.7562
17.1754 64.0345
17.2205 64.581
17.2656 66.3339
17.3108 71.4469
17.3559 78.0089
17.401 80.9203
17.4462 71.5752
17.4913 61.4199
17.5365 58.6797
17.5815 58.7459
17.6268 58.8269
17.6718 59.4713
17.7171 60.0555
17.7622 60.9821
17.8074 62.038
17.8525 63.588
17.8977 71.8058
17.9428 83.5964
17.9881 88.2302
18.0331 89.7394
18.0784 96.1807
18.1237 112.544
18.1688 139.067
18.214 142.507
18.2591 111.705
18.3044 87.5994
18.3495 85.1716
18.3948 93.4608
18.4399 102.087
18.4852 95.22
18.5303 76.3246
18.5756 64.6786
18.6207 61.8492
18.666 60.6285
18.7112 59.6079
18.7565 58.8645
18.8016 58.487
18.8469 57.9048
18.892 57.54
18.9374 57.0258
18.9825 56.702
19.0278 56.3382
19.073 56.3455
19.1183 57.0763
19.1635 59.3282
19.2088 61.6098
19.254 62.0113
19.2993 62.5171
19.3447 64.4278
19.3898 68.3464
19.4352 73.0105
19.4804 72.4422
19.5257 64.1286
19.5709 56.4685
19.6163 53.9365
19.6615 53.5988
19.7068 53.098
19.752 53.06
19.7974 53.2226
19.8426 54.561
19.888 56.5989
19.9332 57.9863
19.9786 58.265
20.0238 58.7771
20.0692 61.3219
20.1144 66.3475
20.1598 71.9776
20.205 70.6462
20.2504 64.8107
20.2957 60.5137
20.3411 60.8922
20.3863 63.8776
20.4318 64.0884
20.477 59.2131
20.5224 53.0411
20.5677 50.8072
20.6131 50.0659
20.6586 49.5019
20.7038 49.4542
20.7493 48.8784
20.7945 48.9585
20.84 48.7341
20.8853 48.7137
20.9307 48.4301
20.976 48.7186
21.0215 48.7926
21.0668 49.269
21.1122 49.231
21.1575 49.1806
21.203 49.3853
21.2483 50.0255
21.2938 51.1112
21.3391 51.1682
21.3846 50.3463
21.4299 49.2445
21.4754 48.5254
21.5207 48.6071
21.5662 48.7445
21.6116 49.2235
21.6571 50.9935
21.7024 53.0343
21.7479 53.7103
21.7933 54.1213
21.8388 55.2417
21.8843 57.9695
21.9297 61.5131
21.9752 65.0429
22.0206 65.2587
22.0661 60.3215
22.1115 56.074
22.157 55.1829
22.2024 56.0576
22.248 54.8851
22.2933 52.1758
22.3389 49.7491
22.3843 49.0335
22.4299 48.5914
22.4753 48.6866
22.5208 48.6261
22.5662 48.5407
22.6118 48.7246
22.6572 48.7533
22.7028 50.1258
22.7483 51.3066
22.7939 51.6665
22.8393 51.7695
22.8849 52.2072
22.9303 52.8948
22.9759 54.5627
23.0214 56.5923
23.067 57.8774
23.1126 55.884
23.1581 52.0844
23.2037 49.7759
23.2492 49.0437
23.2948 49.4942
23.3403 50.8575
23.3859 51.5367
23.4314 51.4934
23.477 51.5159
23.5225 51.8832
23.5682 53.12
23.6137 55.3091
23.6593 57.3127
23.7048 56.9471
23.7505 53.3053
23.796 49.0283
23.8417 46.741
23.8872 45.7435
23.9329 45.438
23.9784 45.1643
24.0241 44.8832
24.0697 44.5946
24.1154 44.2096
24.1609 44.0751
24.2066 43.8103
24.2522 43.5544
24.2979 43.4369
24.3434 43.2303
24.3892 43.0796
24.4349 43.0306
24.4805 42.7337
24.5262 42.9383
24.5718 42.7106
24.6175 42.7566
24.6631 42.9037
24.7089 42.6501
24.7545 42.5041
24.8002 42.1722
24.8458 42.2238
24.8916 42.3549
24.9372 42.4517
24.983 42.6523
25.0286 42.7995
25.0744 43.238
25.12 43.6188
25.1658 44.0287
25.2114 44.3438
25.2572 44.6868
25.3029 44.6749
25.3487 44.5494
25.3943 44.5589
25.4402 44.8516
25.4858 44.2527
25.5316 42.9959
25.5773 41.5765
25.6231 41.1376
25.669 40.7587
25.7147 40.6989
25.7605 40.5702
25.8062 40.675
25.8521 40.9598
25.8977 40.8167
25.9436 40.8829
25.9893 40.8287
26.0352 40.9651
26.0809 40.9915
26.1268 41.4628
26.1725 41.7605
26.2184 41.7589
26.2641 41.3343
26.31 40.6989
26.3557 40.7065
26.4017 40.7552
26.4474 40.7173
26.4933 40.766
26.5391 40.9102
26.585 41.0929
26.6308 41.4835
26.6767 41.7729
26.7225 42.2729
26.7684 42.575
26.8142 41.8761
26.8601 41.1907
26.9059 40.6365
26.9519 40.3851
26.9979 39.8682
27.0437 39.4201
27.0896 38.988
27.1354 38.9213
27.1814 38.7999
27.2272 38.8786
27.2732 38.848
27.3191 38.4015
27.3651 38.6516
27.4109 38.4136
27.4569 38.3662
27.5027 38.6063
27.5488 38.6459
27.5946 38.6137
27.6407 38.6112
27.6865 38.57
27.7326 38.4286
27.7784 38.3498
27.8245 38.2509
27.8703 38.1587
27.9164 38.3663
27.9623 38.3653
28.0084 38.4883
28.0543 38.7212
28.1003 38.9883
28.1462 39.1403
28.1923 39.1723
28.2384 38.5449
28.2843 38.245
28.3304 37.8528
28.3764 37.4892
28.4225 37.0545
28.4684 36.6388
28.5145 36.1648
28.5605 35.9876
28.6066 35.7808
28.6526 35.8402
28.6987 35.7997
28.7447 35.597
28.7908 35.4638
28.8368 35.4116
28.8829 35.4009
28.9289 35.2979
28.9751 35.3679
29.0211 35.0656
29.0673 35.0899
29.1133 34.7875
29.1595 34.6702
29.2055 34.4227
29.2517 34.4068
29.2977 34.346
29.3439 34.1928
29.3899 34.1581
29.4361 34.0745
29.4824 34.2232
29.5284 34.161
29.5746 33.6902
29.6207 33.4229
29.6669 33.1855
29.713 32.9392
29.7593 32.8278
29.8053 32.9752
29.8516 32.8082
29.8977 32.7651
29.9439 32.7105
29.99 32.6829
30.0363 32.5402
30.0824 32.5363
30.1287 32.4213
30.1748 32.4336
30.2211 32.4091
30.2673 32.3006
30.3136 32.5018
30.3597 32.5498
30.406 32.4427
30.4522 32.3038
30.4985 32.2022
30.5447 32.2488
30.591 32.1195
30.6372 32.1404
30.6835 32.1003
30.7297 32.2763
30.7761 32.1907
30.8224 32.2812
30.8686 32.22
30.915 31.9079
30.9612 31.8034
31.0076 31.5694
31.0538 31.3988
31.1002 31.2526
31.1464 31.1202
31.1928 31.0805
31.2391 31.1881
31.2855 30.9938
31.3317 30.9254
31.3781 30.9601
31.4244 30.8833
31.4708 30.7799
31.5171 30.9438
31.5636 30.9386
31.6098 30.804
31.6563 30.7723
31.7026 30.5375
31.7491 30.3607
31.7953 30.3182
31.8418 30.2783
31.8881 30.1053
31.9346 30.1662
31.9809 30.177
32.0275 30.0088
32.074 30.0375
32.1203 29.9169
32.1668 29.793
32.2132 29.4996
32.2597 29.4452
32.306 29.3524
32.3526 29.1512
32.399 29.0409
32.4455 28.8634
32.4919 28.7737
32.5385 28.7601
32.5848 28.6133
32.6314 28.464
32.6778 28.5233
32.7244 28.3341
32.7708 28.2104
32.8174 28.2376
32.8638 28.0964
32.9104 28.1372
32.9569 28.0675
33.0035 27.8983
33.0499 28.0144
33.0966 27.8516
33.143 27.8546
33.1897 27.6863
33.2361 27.7189
33.2828 27.6313
33.3293 27.5323
33.3759 27.5714
33.4226 27.495
33.4691 27.3079
33.5158 27.2577
33.5623 27.0804
33.609 26.9245
33.6555 26.7502
33.7022 26.596
33.7487 26.5946
33.7954 26.5525
33.842 26.3721
33.8887 26.3604
33.9353 26.3962
33.982 26.2316
34.0286 26.193
34.0753 26.0983
34.1219 26.0353
34.1687 25.8967
34.2152 25.816
34.262 25.6546
34.3086 25.5956
34.3554 25.6418
34.402 25.4622
34.4488 25.3608
34.4954 25.3193
34.5422 25.2476
34.5889 25.13
34.6357 25.0351
34.6825 24.9579
34.7292 24.8446
34.776 24.8262
34.8227 24.7196
34.8695 24.6862
34.9162 24.6229
34.9631 24.6196
35.0098 24.624
35.0566 24.4472
35.1033 24.3338
35.1502 24.3319
35.1969 24.329
35.2438 24.2137
35.2906 24.1663
35.3375 24.0695
35.3842 23.9808
35.4311 23.9976
35.4779 23.9657
35.5248 23.9467
35.5716 23.9433
35.6185 23.7428
35.6653 23.7738
35.7123 23.6752
35.759 23.5624
35.806 23.4714
35.8528 23.393
35.8998 23.33
35.9468 23.1892
35.9936 23.1339
36.0406 23.0869
36.0874 23.0265
36.1345 22.9976
36.1813 22.8663
36.2283 22.7431
36.2752 22.7119
36.3222 22.712
36.3691 22.6189
36.4161 22.5448
36.463 22.5198
36.5101 22.4659
36.557 22.4307
36.6041 22.2653
36.651 22.2489
36.6981 22.1614
36.745 22.0914
36.7921 22.1047
36.839 21.9768
36.8861 21.9366
36.9331 21.76
36.9802 21.7338
37.0272 21.6742
37.0743 21.6436
37.1213 21.5072
37.1684 21.4832
37.2154 21.4677
37.2626 21.356
37.3098 21.2691
37.3568 21.2333
37.404 21.2413
37.451 21.0426
37.4982 20.965
37.5452 20.8737
37.5924 20.8514
37.6395 20.9127
37.6867 20.7608
37.7337 20.6385
37.781 20.5859
37.8281 20.4963
37.8753 20.4604
37.9224 20.3353
37.9697 20.2572
38.0168 20.2348
38.064 20.1212
38.1111 20.0961
38.1584 20.0333
38.2056 19.9957
38.2529 19.9289
38.3 19.8857
38.3473 19.9023
38.3945 19.7654
38.4418 19.6661
38.489 19.6361
38.5363 19.5694
38.5837 19.4579
38.6309 19.426
38.6782 19.3282
38.7254 19.316
38.7728 19.2324
38.82 19.1665
38.8674 19.1719
38.9146 19.1311
38.9621 18.9895
39.0093 18.9258
39.0567 18.893
39.104 18.8414
39.1514 18.7221
39.1987 18.7288
39.2461 18.6323
39.2934 18.6124
39.3409 18.4857
39.3882 18.4627
39.4356 18.4182
39.483 18.4037
39.5304 18.3099
39.5778 18.2492
39.6253 18.2602
39.6726 18.0844
39.7201 18.0973
39.7675 18.0446
39.815 17.9426
39.8624 17.9117
39.9099 17.8729
39.9575 17.7639
40.0049 17.7604
40.0525 17.6667
40.0999 17.5989
40.1474 17.5994
40.1949 17.4708
40.2425 17.373
40.2899 17.412
40.3375 17.3785
40.385 17.2804
40.4326 17.2434
40.48 17.1232
40.5277 17.1232
40.5752 17.0815
40.6228 17.0015
40.6703 16.9724
40.718 16.9285
40.7655 16.8887
40.8132 16.7699
40.8607 16.7565
40.9084 16.6706
40.9559 16.6514
41.0036 16.6156
41.0512 16.5403
41.0989 16.5499
41.1465 16.4075
41.1942 16.3995
41.242 16.2616
41.2896 16.2192
41.3373 16.2434
41.3849 16.1242
41.4327 16.0874
41.4803 16.0209
41.5281 15.9831
41.5758 15.9586
41.6236 15.8475
41.6712 15.7903
41.7191 15.7625
41.7667 15.703
41.8146 15.7321
41.8622 15.6616
41.9101 15.5666
41.9578 15.4622
42.0057 15.43
42.0534 15.4541
42.1013 15.3576
42.149 15.2938
42.1969 15.2665
42.2446 15.1596
42.2925 15.1949
42.3403 15.0867
42.3882 15.0383
42.436 15.0403
42.4839 14.9206
42.5319 14.8563
42.5797 14.8944
42.6277 14.7846
42.6755 14.7483
42.7235 14.663
42.7713 14.6666
42.8193 14.6135
42.8671 14.5725
42.9152 14.5253
42.963 14.4046
43.0111 14.3895
43.0589 14.3748
43.107 14.3121
43.1549 14.2116
43.2029 14.2268
43.2508 14.17
43.2989 14.0692
43.3468 14.0634
43.3949 14.0476
43.4429 13.9891
43.491 13.9121
43.5389 13.8498
43.5871 13.7892
43.635 13.7881
43.6832 13.7585
43.7312 13.6565
43.7793 13.6416
43.8273 13.5896
43.8755 13.5365
43.9237 13.4889
43.9717 13.4518
44.0199 13.3864
44.068 13.3549
44.1162 13.3009
44.1642 13.2534
44.2125 13.2792
44.2606 13.176
44.3088 13.1031
44.3569 13.0809
44.4052 13.0268
44.4533 12.9676
44.5016 12.9242
44.5497 12.8745
44.598 12.8332
44.6461 12.7861
44.6945 12.7375
44.7426 12.6715
44.791 12.6378
44.8391 12.617
44.8875 12.5689
44.9357 12.5647
44.984 12.4862
45.0322 12.4333
45.0806 12.3615
45.1288 12.3654
45.1773 12.3076
45.2257 12.2844
45.2739 12.2132
45.3224 12.2149
45.3706 12.1196
45.4191 12.1042
45.4673 12.0157
45.5158 12.0236
45.5641 11.9463
45.6126 11.9504
45.6609 11.889
45.7094 11.8085
45.7577 11.7878
45.8063 11.7766
45.8546 11.7143
45.9031 11.6385
45.9515 11.6497
46.0001 11.5799
46.0484 11.5239
46.097 11.4886
46.1454 11.4833
46.194 11.4388
46.2424 11.3646
46.291 11.3313
46.3395 11.3218
46.3881 11.1863
46.4365 11.2289
46.4852 11.1469
46.5337 11.1012
46.5823 11.1065
46.631 11.0595
46.6795 10.9916
46.7282 10.9645
46.7767 10.9057
46.8254 10.87
46.8739 10.8683
46.9226 10.7586
46.9712 10.7562
47.0199 10.7217
47.0685 10.6931
47.1173 10.6603
47.1658 10.6088
47.2146 10.5577
47.2632 10.5259
47.312 10.5023
47.3606 10.4573
47.4095 10.4274
47.4581 10.3578
47.5069 10.3226
47.5556 10.2977
47.6044 10.267
47.6531 10.1801
47.702 10.1889
47.7507 10.163
47.7996 10.1337
47.8483 10.0733
47.8972 10.0522
47.9461 10.0078
47.9948 9.93582
48.0438 9.9654
48.0925 9.896
48.1415 9.88256
48.1902 9.81579
48.2392 9.7634
48.288 9.75288
48.337 9.71647
48.3858 9.67568
48.4348 9.65624
48.4837 9.63822
48.5327 9.56756
48.5815 9.53101
48.6306 9.53203
48.6795 9.47053
48.7285 9.47572
48.7774 9.39851
48.8265 9.36485
48.8754 9.33035
48.9245 9.28278
48.9734 9.2566
49.0226 9.24338
49.0715 9.22369
49.1206 9.1619
49.1696 9.12191
49.2188 9.08204
49.2679 9.0655
49.3169 9.0109
49.3661 9.00652
49.4151 8.93086
49.4643 8.92904
49.5134 8.87937
49.5626 8.83618
49.6117 8.83215
49.6609 8.80755
49.71 8.76289
49.7592 8.70293
49.8083 8.69641
49.8576 8.65724
49.9067 8.61278
49.956 8.56406
50.0052 8.55254
50.0545 8.55895
50.1036 8.49643
50.153 8.46834
50.2022 8.43243
50.2515 8.36933
50.3007 8.33031
50.3501 8.34497
50.3993 8.27277
50.4487 8.23429
50.498 8.25619
50.5474 8.18704
50.5966 8.17692
50.6461 8.12328
50.6955 8.10506
50.7448 8.05795
50.7943 8.05362
50.8436 8.021
50.8931 8.00156
50.9424 7.92318
50.9919 7.88999
51.0413 7.89248
51.0908 7.87444
51.1402 7.80843
51.1897 7.81184
51.2391 7.7645
51.2887 7.7316
51.3381 7.67639
51.3877 7.67777
51.4371 7.62579
51.4867 7.59364
51.5362 7.54377
51.5858 7.54585
51.6353 7.50811
51.6849 7.47407
51.7344 7.42491
51.7841 7.42879
51.8336 7.40259
51.8833 7.36941
51.9328 7.30467
51.9826 7.25914
52.0323 7.26091
52.0818 7.22661
52.1316 7.17481
52.1812 7.20342
52.231 7.11735
52.2806 7.12641
52.3304 7.06959
52.38 7.01702
52.4298 7.02766
52.4794 6.98816
52.5293 6.9862
52.5789 6.93873
52.6288 6.91222
52.6785 6.84573
52.7284 6.84756
52.7781 6.85289
52.828 6.82367
52.8777 6.77986
52.9276 6.75809
52.9774 6.74502
53.0273 6.70253
53.0771 6.60271
53.1271 6.64058
53.1769 6.61886
53.2269 6.59383
53.2767 6.57452
53.3267 6.53754
53.3765 6.52465
53.4266 6.4702
53.4766 6.41213
53.5265 6.40492
53.5765 6.38971
53.6264 6.32204
53.6765 6.31954
53.7264 6.29562
53.7765 6.22877
53.8265 6.23544
53.8766 6.20381
53.9266 6.18891
53.9767 6.149
54.0267 6.14891
54.0769 6.13857
54.1269 6.05863
54.1771 6.04747
54.2271 6.01845
54.2773 5.99484
54.3274 5.95354
54.3776 5.81165
54.4277 5.79633
54.478 5.81538
54.528 5.79193
54.5783 5.74542
54.6285 5.67728
54.6788 5.66861
54.7289 5.57472
54.7792 5.52448
54.8296 5.54165
54.8798 5.48473
54.9301 5.4003
54.9803 5.37488
55.0307 5.42734
55.0809 5.28277
55.1314 5.21589
55.1816 5.17199
55.232 5.1563
55.2823 5.04747
55.3328 5.02612
55.383 5.00632
55.4335 4.95895
55.4838 4.90307
55.5344 4.86844
55.5847 4.85946
55.6352 4.80164
55.6856 4.74277
55.7361 4.77233