File: XRD/Ni3Fe_FD0118.xy
TT I
1.27165 7.82461
1.31627 7.35164
1.36089 6.9954
1.40551 6.89815
1.45013 6.57813
1.49476 7.05782
1.53938 6.12501
1.584 6.12557
1.62863 5.80232
1.67325 5.24753
1.71787 5.36005
1.7625 5.49526
1.80712 5.45771
1.85174 5.1649
1.89636 5.54438
1.94099 5.39406
1.98562 5.29753
2.03025 4.94692
2.07487 5.3775
2.11949 5.01141
2.16411 4.42319
2.20874 4.39652
2.25338 4.30957
2.298 4.31951
2.34263 3.97141
2.38725 4.77738
2.43188 3.68313
2.4765 4.50962
2.52115 3.6159
2.56577 4.12157
2.6104 5.13218
2.65503 4.48207
2.69965 5.72872
2.7443 5.50833
2.78893 6.4429
2.83356 7.32647
2.87818 7.96599
2.92281 7.63551
2.96744 9.57769
3.01209 10.2424
3.05672 10.8839
3.10135 12.3186
3.14599 13.0372
3.19062 13.8287
3.23527 15.4801
3.2799 15.6387
3.32454 16.365
3.36917 17.2394
3.4138 18.1892
3.45844 18.8623
3.50309 20.3558
3.54773 20.8247
3.59237 21.3642
3.637 22.1961
3.68164 23.069
3.7263 24.2998
3.77094 24.7499
3.81558 25.4405
3.86022 26.5845
3.90486 27.2168
3.9495 28.282
3.99416 29.1954
4.0388 30.3549
4.08344 31.3854
4.12809 32.6046
4.17273 33.8758
4.21738 35.1709
4.26204 36.0806
4.30669 37.1457
4.35133 39.5191
4.39598 40.9468
4.44063 42.5558
4.4853 44.4253
4.52995 46.9578
4.5746 48.6355
4.61925 50.2532
4.6639 53.0169
4.70855 56.1179
4.75322 59.0272
4.79788 62.0483
4.84253 65.8542
4.88719 69.7169
4.93184 74.9381
4.97652 82.2453
5.02118 90.8545
5.06583 102.057
5.11049 119.593
5.15515 160.493
5.19981 596.393
5.24449 3773.68
5.28916 7594.66
5.33382 6782.67
5.37848 550.417
5.42315 173.48
5.46783 130.886
5.5125 115.449
5.55716 108.753
5.60183 101.977
5.6465 99.4508
5.69117 97.7909
5.73586 95.3478
5.78053 95.718
5.8252 95.7567
5.86988 99.4892
5.91455 107.085
5.95924 128.416
6.00392 306.72
6.0486 1405.33
6.09328 2447.3
6.13795 3875.72
6.18263 786.284
6.22733 131.383
6.27201 91.2789
6.3167 79.2914
6.36138 73.0011
6.40606 68.6263
6.45075 66.2422
6.49545 64.1618
6.54014 61.7889
6.58483 60.5418
6.62952 59.4618
6.67421 57.631
6.71892 56.8951
6.76361 56.2728
6.8083 55.2022
6.853 54.3315
6.89769 53.9492
6.94239 53.4603
6.98711 53.0833
7.03181 52.7354
7.07651 52.3273
7.12121 51.8437
7.16591 51.7469
7.21063 51.2998
7.25533 51.3016
7.30004 51.1087
7.34475 51.2103
7.38945 51.8231
7.43416 51.1156
7.47889 51.2637
7.5236 56.5632
7.56831 67.3076
7.61303 56.225
7.65774 53.1689
7.70247 53.4092
7.74719 53.6576
7.79191 54.0067
7.83663 54.5529
7.88135 55.4337
7.92607 56.1744
7.97081 57.3699
8.01553 58.4095
8.06026 59.8829
8.10498 61.1984
8.14971 63.0691
8.19446 64.4805
8.23919 67.147
8.28392 69.9434
8.32865 72.7497
8.37339 77.7118
8.41812 83.4221
8.46288 95.7981
8.50761 177.553
8.55235 619.792
8.59709 820.645
8.64183 1328.04
8.68658 1696.28
8.73134 475.951
8.77609 121.563
8.82083 98.1455
8.86558 91.1289
8.91033 87.4851
8.9551 84.552
8.99985 83.5188
9.04461 82.4162
9.08936 81.4329
9.13412 80.4883
9.17888 80.5774
9.22365 88.3299
9.26841 104.262
9.31318 88.7855
9.35794 81.9951
9.4027 81.232
9.44749 81.8688
9.49226 82.3094
9.53703 83.3258
9.5818 84.9734
9.62657 86.2576
9.67134 87.7178
9.71614 89.5784
9.76091 91.8714
9.80569 94.7426
9.85047 97.846
9.89525 103.777
9.94005 113.976
9.98484 189.713
10.0296 563.212
10.0744 704.219
10.1192 906.189
10.164 1578.98
10.2088 1092.84
10.2536 240.099
10.2984 118.182
10.3432 107.889
10.388 104.447
10.4328 121.453
10.4776 218.959
10.5224 253.21
10.5672 296.708
10.612 464.45
10.6568 401.879
10.7017 146.011
10.7465 91.9687
10.7913 83.105
10.8361 79.8984
10.8809 77.2809
10.9257 75.27
10.9706 73.567
11.0154 71.7633
11.0602 70.292
11.105 69.5633
11.1499 67.9635
11.1947 66.7495
11.2395 65.9855
11.2844 65.3642
11.3292 64.5687
11.374 63.7833
11.4189 63.3997
11.4637 62.6397
11.5086 62.1487
11.5534 61.7881
11.5983 61.3238
11.6431 61.1533
11.688 60.9178
11.7328 60.5967
11.7777 60.4017
11.8225 60.527
11.8674 60.5599
11.9122 62.1346
11.9571 66.7529
12.002 66.4773
12.0468 67.6591
12.0917 91.1305
12.1366 106.981
12.1814 110.47
12.2263 137.91
12.2712 188.196
12.3161 148.126
12.3609 77.5224
12.4058 63.9817
12.4507 62.7481
12.4956 62.2863
12.5405 62.3381
12.5853 62.8672
12.6302 63.1694
12.6751 63.8701
12.72 64.4517
12.7649 65.455
12.8098 66.26
12.8547 67.4995
12.8996 68.8177
12.9445 70.1357
12.9894 72.2308
13.0343 74.155
13.0792 78.7868
13.1242 86.3086
13.1691 134.483
13.214 189.906
13.2589 194.184
13.3038 222.301
13.3487 322.955
13.3937 390.755
13.4386 231.217
13.4835 123.547
13.5285 157.147
13.5734 182.707
13.6183 180.488
13.6633 215.59
13.7082 310.422
13.7531 319.21
13.7981 171.081
13.843 89.5871
13.888 80.4505
13.9329 76.69
13.9779 75.5298
14.0228 73.6036
14.0678 72.3177
14.1127 72.3725
14.1577 74.4648
14.2027 72.9634
14.2476 70.0962
14.2926 68.5722
14.3376 68.1238
14.3825 67.8992
14.4275 67.4167
14.4725 67.3491
14.5175 67.6171
14.5624 67.5345
14.6074 68.0715
14.6524 68.1947
14.6974 68.9499
14.7424 70.6383
14.7874 80.419
14.8324 107.792
14.8774 120.369
14.9224 120.084
14.9674 136.213
15.0124 178.563
15.0574 205.725
15.1024 148.311
15.1474 84.1009
15.1924 71.249
15.2374 68.5801
15.2824 67.0664
15.3274 66.2675
15.3725 65.5948
15.4175 65.2764
15.4625 65.0304
15.5076 64.6867
15.5526 64.7756
15.5976 64.9189
15.6426 65.9775
15.6877 73.2314
15.7327 95.8553
15.7778 107.232
15.8228 105.886
15.8679 115.298
15.9129 142.65
15.958 181.728
16.003 159.22
16.0481 93.31
16.0931 67.0686
16.1382 61.6055
16.1833 59.9882
16.2283 58.2856
16.2734 57.6204
16.3185 56.6437
16.3636 55.9854
16.4086 55.2462
16.4537 55.1033
16.4988 54.4225
16.5439 54.4373
16.589 54.1759
16.6341 53.7389
16.6792 53.529
16.7243 53.4125
16.7694 53.528
16.8145 53.5612
16.8596 53.5895
16.9047 53.8795
16.9498 54.6932
16.9949 54.525
17.04 54.7094
17.0851 56.0705
17.1302 60.4355
17.1754 64.0491
17.2205 63.8898
17.2656 64.8822
17.3108 69.6382
17.3559 76.8734
17.401 81.1264
17.4462 72.6537
17.4913 61.747
17.5365 58.4921
17.5815 58.5374
17.6268 58.7897
17.6718 59.1276
17.7171 59.7244
17.7622 60.6728
17.8074 61.6637
17.8525 63.3856
17.8977 71.6052
17.9428 84.012
17.9881 87.7606
18.0331 87.7449
18.0784 92.5614
18.1237 107.65
18.1688 135.235
18.214 144.663
18.2591 114.984
18.3044 87.5898
18.3495 83.3277
18.3948 90.8952
18.4399 101.12
18.4852 96.978
18.5303 78.0361
18.5756 65.1249
18.6207 61.8967
18.666 60.4433
18.7112 59.2272
18.7565 58.5385
18.8016 58.1499
18.8469 57.6132
18.892 57.1661
18.9374 56.6521
18.9825 56.4016
19.0278 56.1288
19.073 56.1037
19.1183 56.9568
19.1635 59.2993
19.2088 61.2566
19.254 61.5856
19.2993 61.5701
19.3447 63.2939
19.3898 66.9247
19.4352 72.2715
19.4804 72.9898
19.5257 65.012
19.5709 56.4817
19.6163 53.7842
19.6615 53.2067
19.7068 52.7781
19.752 52.8013
19.7974 52.9073
19.8426 53.9758
19.888 56.3861
19.9332 57.9326
19.9786 57.7492
20.0238 57.9848
20.0692 60.2665
20.1144 65.1484
20.1598 70.8482
20.205 70.881
20.2504 65.4534
20.2957 60.1469
20.3411 59.9496
20.3863 63.335
20.4318 64.2333
20.477 59.7266
20.5224 53.4559
20.5677 50.7044
20.6131 49.898
20.6586 49.2285
20.7038 48.86
20.7493 48.787
20.7945 48.7546
20.84 48.4916
20.8853 48.5219
20.9307 48.1418
20.976 48.2936
21.0215 48.5395
21.0668 48.7695
21.1122 48.9209
21.1575 48.8026
21.203 49.01
21.2483 49.4655
21.2938 50.5519
21.3391 50.8154
21.3846 50.2735
21.4299 48.8865
21.4754 48.1723
21.5207 48.2524
21.5662 48.4963
21.6116 48.7868
21.6571 50.7765
21.7024 52.7676
21.7479 53.5586
21.7933 53.4894
21.8388 54.4798
21.8843 57.0829
21.9297 60.453
21.9752 64.3914
22.0206 65.4822
22.0661 60.8714
22.1115 55.8082
22.157 54.5843
22.2024 55.7747
22.248 54.9712
22.2933 52.438
22.3389 49.7222
22.3843 48.7793
22.4299 48.3194
22.4753 48.3165
22.5208 48.2402
22.5662 48.1892
22.6118 48.39
22.6572 48.5676
22.7028 49.731
22.7483 50.9357
22.7939 51.455
22.8393 51.425
22.8849 51.5567
22.9303 52.1741
22.9759 53.6994
23.0214 55.9839
23.067 57.7677
23.1126 56.2754
23.1581 52.6242
23.2037 49.7262
23.2492 48.8025
23.2948 49.2392
23.3403 50.586
23.3859 51.449
23.4314 51.3101
23.477 50.928
23.5225 51.2274
23.5682 52.1415
23.6137 54.2895
23.6593 56.6673
23.7048 57.1939
23.7505 53.8384
23.796 49.166
23.8417 46.6419
23.8872 45.5032
23.9329 45.236
23.9784 44.8165
24.0241 44.5089
24.0697 44.2624
24.1154 43.853
24.1609 43.6651
24.2066 43.4411
24.2522 43.3151
24.2979 43.2193
24.3434 43.1725
24.3892 42.9876
24.4349 42.7777
24.4805 42.4405
24.5262 42.7644
24.5718 42.497
24.6175 42.5582
24.6631 42.7757
24.7089 42.5421
24.7545 42.3024
24.8002 42.1086
24.8458 42.0329
24.8916 42.0115
24.9372 42.4187
24.983 42.4876
25.0286 42.4958
25.0744 43.0479
25.12 43.2322
25.1658 43.7155
25.2114 44.069
25.2572 44.3585
25.3029 44.4687
25.3487 44.0804
25.3943 44.1963
25.4402 44.3767
25.4858 44.4055
25.5316 43.0448
25.5773 41.4306
25.6231 41.0056
25.669 40.4756
25.7147 40.413
25.7605 40.3499
25.8062 40.6122
25.8521 40.8276
25.8977 40.5734
25.9436 40.6867
25.9893 40.5477
26.0352 40.7569
26.0809 40.6789
26.1268 41.1668
26.1725 41.506
26.2184 41.5971
26.2641 41.403
26.31 40.6228
26.3557 40.3695
26.4017 40.3837
26.4474 40.6353
26.4933 40.487
26.5391 40.7312
26.585 40.8357
26.6308 41.0874
26.6767 41.3012
26.7225 41.9974
26.7684 42.2062
26.8142 41.6394
26.8601 41.0025
26.9059 40.5555
26.9519 40.1588
26.9979 39.8293
27.0437 39.252
27.0896 38.7071
27.1354 38.7056
27.1814 38.7619
27.2272 38.5326
27.2732 38.5708
27.3191 38.3867
27.3651 38.3949
27.4109 38.2059
27.4569 38.3319
27.5027 38.1124
27.5488 38.302
27.5946 38.3347
27.6407 38.473
27.6865 38.4252
27.7326 38.375
27.7784 38.1952
27.8245 37.9908
27.8703 37.9009
27.9164 38.1279
27.9623 38.0107
28.0084 38.1341
28.0543 38.3409
28.1003 38.5146
28.1462 38.8017
28.1923 39.0306
28.2384 38.5275
28.2843 38.1619
28.3304 37.7418
28.3764 37.243
28.4225 36.8669
28.4684 36.5381
28.5145 36.0042
28.5605 35.9131
28.6066 35.7028
28.6526 35.6241
28.6987 35.523
28.7447 35.3576
28.7908 35.1744
28.8368 35.128
28.8829 35.0438
28.9289 35.1566
28.9751 35.0169
29.0211 35.0045
29.0673 34.8704
29.1133 34.7649
29.1595 34.4919
29.2055 34.2665
29.2517 34.0753
29.2977 33.9251
29.3439 33.8955
29.3899 33.7996
29.4361 33.77
29.4824 33.8226
29.5284 33.8153
29.5746 33.6799
29.6207 33.3022
29.6669 33.0746
29.713 32.8255
29.7593 32.7333
29.8053 32.7686
29.8516 32.7819
29.8977 32.6848
29.9439 32.4337
29.99 32.4561
30.0363 32.2113
30.0824 32.3548
30.1287 32.0749
30.1748 32.1489
30.2211 32.2052
30.2673 32.118
30.3136 32.3371
30.3597 32.3185
30.406 32.3086
30.4522 32.1324
30.4985 31.9509
30.5447 32.0033
30.591 31.8775
30.6372 31.7996
30.6835 31.904
30.7297 31.9112
30.7761 32.0745
30.8224 32.0908
30.8686 32.1206
30.915 31.7834
30.9612 31.6454
31.0076 31.3016
31.0538 31.2009
31.1002 31.1369
31.1464 30.9815
31.1928 30.8899
31.2391 30.9505
31.2855 30.7731
31.3317 30.6386
31.3781 30.783
31.4244 30.6158
31.4708 30.6781
31.5171 30.656
31.5636 30.8238
31.6098 30.7056
31.6563 30.6656
31.7026 30.4243
31.7491 30.2427
31.7953 30.0602
31.8418 29.9577
31.8881 29.9235
31.9346 29.877
31.9809 29.8083
32.0275 29.762
32.074 29.955
32.1203 29.687
32.1668 29.4725
32.2132 29.4186
32.2597 29.3298
32.306 29.1646
32.3526 28.946
32.399 28.8502
32.4455 28.6693
32.4919 28.6085
32.5385 28.6496
32.5848 28.348
32.6314 28.4133
32.6778 28.3157
32.7244 28.2672
32.7708 28.0504
32.8174 28.1113
32.8638 27.9535
32.9104 28.0337
32.9569 27.9644
33.0035 27.7215
33.0499 27.7482
33.0966 27.7061
33.143 27.6112
33.1897 27.5628
33.2361 27.4571
33.2828 27.5083
33.3293 27.3933
33.3759 27.3762
33.4226 27.2385
33.4691 27.1236
33.5158 27.0855
33.5623 26.9004
33.609 26.7149
33.6555 26.6947
33.7022 26.4636
33.7487 26.4416
33.7954 26.3969
33.842 26.1764
33.8887 26.225
33.9353 26.1715
33.982 26.0884
34.0286 26.04
34.0753 25.9378
34.1219 25.8905
34.1687 25.7465
34.2152 25.6073
34.262 25.5695
34.3086 25.3793
34.3554 25.4326
34.402 25.3593
34.4488 25.2198
34.4954 25.1335
34.5422 25.17
34.5889 24.9951
34.6357 24.8585
34.6825 24.7968
34.7292 24.8368
34.776 24.6466
34.8227 24.606
34.8695 24.4959
34.9162 24.4086
34.9631 24.347
35.0098 24.3775
35.0566 24.2748
35.1033 24.1995
35.1502 24.1895
35.1969 24.1244
35.2438 24.1081
35.2906 23.9761
35.3375 23.8947
35.3842 23.8523
35.4311 23.8847
35.4779 23.8931
35.5248 23.6764
35.5716 23.7321
35.6185 23.6745
35.6653 23.5547
35.7123 23.464
35.759 23.4641
35.806 23.355
35.8528 23.2098
35.8998 23.1154
35.9468 23.0573
35.9936 23.0679
36.0406 22.9621
36.0874 22.9971
36.1345 22.8629
36.1813 22.7619
36.2283 22.6493
36.2752 22.5527
36.3222 22.6581
36.3691 22.5154
36.4161 22.4103
36.463 22.3455
36.5101 22.3761
36.557 22.2125
36.6041 22.0715
36.651 22.1458
36.6981 22.0619
36.745 22.0308
36.7921 21.9478
36.839 21.8433
36.8861 21.7282
36.9331 21.6888
36.9802 21.6015
37.0272 21.5497
37.0743 21.4649
37.1213 21.4252
37.1684 21.3633
37.2154 21.2691
37.2626 21.1751
37.3098 21.1673
37.3568 21.0948
37.404 21.0607
37.451 20.9216
37.4982 20.948
37.5452 20.7514
37.5924 20.7092
37.6395 20.6938
37.6867 20.6169
37.7337 20.5413
37.781 20.4586
37.8281 20.4327
37.8753 20.3715
37.9224 20.2903
37.9697 20.2113
38.0168 20.1236
38.064 20.0711
38.1111 20.0331
38.1584 19.9565
38.2056 19.9102
38.2529 19.8674
38.3 19.7606
38.3473 19.7142
38.3945 19.6094
38.4418 19.552
38.489 19.5665
38.5363 19.456
38.5837 19.3497
38.6309 19.3455
38.6782 19.159
38.7254 19.1867
38.7728 19.1128
38.82 19.0357
38.8674 18.9837
38.9146 18.9612
38.9621 18.9104
39.0093 18.8288
39.0567 18.7654
39.104 18.766
39.1514 18.5775
39.1987 18.5861
39.2461 18.5712
39.2934 18.5092
39.3409 18.4215
39.3882 18.3445
39.4356 18.3186
39.483 18.2328
39.5304 18.1408
39.5778 18.1567
39.6253 18.0665
39.6726 17.9831
39.7201 18.0412
39.7675 17.9145
39.815 17.9221
39.8624 17.7819
39.9099 17.7414
39.9575 17.7189
40.0049 17.6591
40.0525 17.6121
40.0999 17.5051
40.1474 17.4961
40.1949 17.3677
40.2425 17.3145
40.2899 17.2548
40.3375 17.253
40.385 17.2273
40.4326 17.1127
40.48 17.0053
40.5277 17.0717
40.5752 16.9834
40.6228 16.8851
40.6703 16.8835
40.718 16.7743
40.7655 16.76
40.8132 16.7194
40.8607 16.6332
40.9084 16.6185
40.9559 16.5096
41.0036 16.4982
41.0512 16.4661
41.0989 16.4236
41.1465 16.339
41.1942 16.2893
41.242 16.1859
41.2896 16.2087
41.3373 16.1225
41.3849 16.0568
41.4327 15.9996
41.4803 15.936
41.5281 15.9018
41.5758 15.8447
41.6236 15.8026
41.6712 15.7391
41.7191 15.6921
41.7667 15.6272
41.8146 15.5819
41.8622 15.5032
41.9101 15.4991
41.9578 15.4419
42.0057 15.3151
42.0534 15.2944
42.1013 15.2191
42.149 15.2034
42.1969 15.1216
42.2446 15.1762
42.2925 15.0541
42.3403 15.0119
42.3882 14.9777
42.436 14.9514
42.4839 14.8067
42.5319 14.84
42.5797 14.7439
42.6277 14.6628
42.6755 14.7123
42.7235 14.593
42.7713 14.5835
42.8193 14.5238
42.8671 14.469
42.9152 14.407
42.963 14.3268
43.0111 14.2533
43.0589 14.2723
43.107 14.1877
43.1549 14.1594
43.2029 14.1292
43.2508 14.0414
43.2989 14.0094
43.3468 13.946
43.3949 13.9235
43.4429 13.862
43.491 13.8652
43.5389 13.7927
43.5871 13.758
43.635 13.6721
43.6832 13.665
43.7312 13.6142
43.7793 13.5248
43.8273 13.5418
43.8755 13.4707
43.9237 13.4511
43.9717 13.3343
44.0199 13.3064
44.068 13.2757
44.1162 13.2314
44.1642 13.1995
44.2125 13.1312
44.2606 13.0666
44.3088 13.0535
44.3569 12.9682
44.4052 12.9671
44.4533 12.8835
44.5016 12.8517
44.5497 12.765
44.598 12.7652
44.6461 12.6981
44.6945 12.7066
44.7426 12.6489
44.791 12.5584
44.8391 12.5514
44.8875 12.5
44.9357 12.4367
44.984 12.4059
45.0322 12.4019
45.0806 12.3016
45.1288 12.3164
45.1773 12.1947
45.2257 12.2037
45.2739 12.1452
45.3224 12.1253
45.3706 12.0936
45.4191 11.991
45.4673 11.9969
45.5158 11.9562
45.5641 11.8505
45.6126 11.8688
45.6609 11.8243
45.7094 11.7734
45.7577 11.7288
45.8063 11.695
45.8546 11.6546
45.9031 11.5759
45.9515 11.5442
46.0001 11.4885
46.0484 11.4863
46.097 11.4039
46.1454 11.3905
46.194 11.3437
46.2424 11.3295
46.291 11.2777
46.3395 11.2511
46.3881 11.1787
46.4365 11.1924
46.4852 11.116
46.5337 11.0512
46.5823 11.0365
46.631 10.9834
46.6795 10.9396
46.7282 10.8838
46.7767 10.8717
46.8254 10.7945
46.8739 10.7866
46.9226 10.7724
46.9712 10.687
47.0199 10.661
47.0685 10.6457
47.1173 10.574
47.1658 10.5416
47.2146 10.5094
47.2632 10.4371
47.312 10.4378
47.3606 10.3801
47.4095 10.3528
47.4581 10.3243
47.5069 10.2907
47.5556 10.2366
47.6044 10.2026
47.6531 10.1456
47.702 10.1104
47.7507 10.0665
47.7996 10.0524
47.8483 10.0424
47.8972 10.037
47.9461 9.94114
47.9948 9.86787
48.0438 9.89354
48.0925 9.88537
48.1415 9.82571
48.1902 9.74805
48.2392 9.75534
48.288 9.70719
48.337 9.67864
48.3858 9.63266
48.4348 9.57744
48.4837 9.57705
48.5327 9.53132
48.5815 9.50028
48.6306 9.47506
48.6795 9.47365
48.7285 9.38629
48.7774 9.35398
48.8265 9.33989
48.8754 9.2644
48.9245 9.2514
48.9734 9.21982
49.0226 9.19702
49.0715 9.12388
49.1206 9.12908
49.1696 9.07659
49.2188 9.04664
49.2679 9.02477
49.3169 8.95933
49.3661 8.9031
49.4151 8.89654
49.4643 8.87427
49.5134 8.83672
49.5626 8.77597
49.6117 8.79402
49.6609 8.75787
49.71 8.6921
49.7592 8.63342
49.8083 8.62176
49.8576 8.62586
49.9067 8.55542
49.956 8.53983
50.0052 8.49803
50.0545 8.48235
50.1036 8.40978
50.153 8.4359
50.2022 8.37281
50.2515 8.36339
50.3007 8.28858
50.3501 8.30571
50.3993 8.29528
50.4487 8.23602
50.498 8.17102
50.5474 8.15266
50.5966 8.1213
50.6461 8.11669
50.6955 8.05319
50.7448 8.01432
50.7943 8.01839
50.8436 7.99639
50.8931 7.94573
50.9424 7.94532
50.9919 7.85599
51.0413 7.8376
51.0908 7.82423
51.1402 7.78837
51.1897 7.75556
51.2391 7.69726
51.2887 7.71346
51.3381 7.65393
51.3877 7.62384
51.4371 7.59425
51.4867 7.55776
51.5362 7.57779
51.5858 7.52072
51.6353 7.45942
51.6849 7.45071
51.7344 7.38422
51.7841 7.38636
51.8336 7.3492
51.8833 7.31779
51.9328 7.29581
51.9826 7.23134
52.0323 7.2223
52.0818 7.18845
52.1316 7.13692
52.1812 7.12436
52.231 7.1043
52.2806 7.08631
52.3304 7.06899
52.38 6.97954
52.4298 7.03074
52.4794 6.95381
52.5293 6.93469
52.5789 6.92666
52.6288 6.84195
52.6785 6.83612
52.7284 6.85658
52.7781 6.76301
52.828 6.76684
52.8777 6.68267
52.9276 6.69505
52.9774 6.6761
53.0273 6.66084
53.0771 6.62955
53.1271 6.64611
53.1769 6.56431
53.2269 6.51981
53.2767 6.50328
53.3267 6.45002
53.3765 6.4571
53.4266 6.43194
53.4766 6.36616
53.5265 6.35984
53.5765 6.35488
53.6264 6.3015
53.6765 6.3162
53.7264 6.26155
53.7765 6.23821
53.8265 6.15481
53.8766 6.16696
53.9266 6.17822
53.9767 6.11509
54.0267 6.07063
54.0769 6.04568
54.1269 6.03102
54.1771 5.94219
54.2271 5.94104
54.2773 5.93215
54.3274 5.87497
54.3776 5.86561
54.4277 5.83324
54.478 5.78123
54.528 5.71832
54.5783 5.68049
54.6285 5.61931
54.6788 5.60975
54.7289 5.5707
54.7792 5.49016
54.8296 5.45874
54.8798 5.40959
54.9301 5.39626
54.9803 5.35334
55.0307 5.38301
55.0809 5.24093
55.1314 5.26421
55.1816 5.16551
55.232 5.0766
55.2823 5.04646
55.3328 5.04215
55.383 4.96454
55.4335 4.96866
55.4838 4.88645
55.5344 4.82338
55.5847 4.81869
55.6352 4.7496
55.6856 4.74647
55.7361 4.71526