File: XRD/Ni3Fe_FD0346.xy
TT I
1.27165 7.65277
1.31627 6.69604
1.36089 6.59711
1.40551 6.02541
1.45013 6.45155
1.49476 6.60971
1.53938 6.57575
1.584 5.67431
1.62863 5.41785
1.67325 5.05371
1.71787 5.41752
1.7625 4.75826
1.80712 4.76904
1.85174 4.66241
1.89636 5.26891
1.94099 5.52578
1.98562 4.56685
2.03025 4.81497
2.07487 4.59054
2.11949 5.07216
2.16411 5.04209
2.20874 10.1097
2.25338 14.6997
2.298 4.83522
2.34263 5.067
2.38725 5.23893
2.43188 5.06204
2.4765 6.42172
2.52115 5.84737
2.56577 6.43894
2.6104 6.75814
2.65503 6.64891
2.69965 7.532
2.7443 6.99314
2.78893 7.54997
2.83356 8.17447
2.87818 8.50527
2.92281 9.40997
2.96744 9.62073
3.01209 10.0644
3.05672 11.335
3.10135 11.9734
3.14599 12.7046
3.19062 14.0232
3.23527 14.5292
3.2799 15.6406
3.32454 16.9107
3.36917 18.0215
3.4138 19.5191
3.45844 19.8272
3.50309 20.6443
3.54773 21.8451
3.59237 23.0964
3.637 63.0871
3.68164 43.0896
3.7263 25.9924
3.77094 26.5071
3.81558 27.2605
3.86022 27.7244
3.90486 29.2038
3.9495 30.661
3.99416 31.1302
4.0388 32.7785
4.08344 34.3694
4.12809 35.2986
4.17273 36.9204
4.21738 41.9096
4.26204 157.406
4.30669 136.444
4.35133 46.502
4.39598 44.7954
4.44063 51.0689
4.4853 58.3321
4.52995 52.7041
4.5746 53.1907
4.61925 54.8465
4.6639 56.8317
4.70855 59.9367
4.75322 63.1247
4.79788 66.4739
4.84253 69.6309
4.88719 74.4127
4.93184 78.3078
4.97652 83.9985
5.02118 91.9634
5.06583 101.181
5.11049 115.913
5.15515 175.109
5.19981 599.523
5.24449 3683.94
5.28916 11479.8
5.33382 3493.7
5.37848 224.794
5.42315 140.046
5.46783 121.758
5.5125 111.657
5.55716 106.76
5.60183 102.101
5.6465 100.148
5.69117 98.4176
5.73586 96.8585
5.78053 97.4183
5.8252 97.1238
5.86988 98.26
5.91455 101.866
5.95924 115.901
6.00392 319.644
6.0486 1281.17
6.09328 4026.69
6.13795 3372.71
6.18263 278.291
6.22733 99.9276
6.27201 85.8422
6.3167 93.2617
6.36138 78.8114
6.40606 71.1164
6.45075 69.3501
6.49545 67.3758
6.54014 65.339
6.58483 64.6173
6.62952 63.8643
6.67421 80.2976
6.71892 107.097
6.76361 65.4425
6.8083 60.0019
6.853 58.9574
6.89769 57.9068
6.94239 57.9384
6.98711 57.6378
7.03181 56.8434
7.07651 56.0897
7.12121 56.3469
7.16591 56.6446
7.21063 56.4078
7.25533 64.9819
7.30004 123.846
7.34475 76.1165
7.38945 56.7387
7.43416 55.2768
7.47889 55.5305
7.5236 55.8511
7.56831 56.3032
7.61303 57.5598
7.65774 57.5394
7.70247 57.3659
7.74719 57.534
7.79191 58.0837
7.83663 58.4804
7.88135 59.4758
7.92607 60.0842
7.97081 61.5937
8.01553 62.4891
8.06026 63.9809
8.10498 65.3029
8.14971 72.2041
8.19446 72.1006
8.23919 71.309
8.28392 74.3433
8.32865 77.2298
8.37339 81.5485
8.41812 88.613
8.46288 113.779
8.50761 223.96
8.55235 499.355
8.59709 1181.16
8.64183 2095.51
8.68658 1056.24
8.73134 182.764
8.77609 104.574
8.82083 96.1919
8.86558 92.7462
8.91033 92.0902
8.9551 91.4836
8.99985 87.7429
9.04461 86.3853
9.08936 85.6008
9.13412 84.4292
9.17888 84.6015
9.22365 84.9498
9.26841 84.351
9.31318 85.9435
9.35794 86.3005
9.4027 86.0943
9.44749 87.0088
9.49226 87.2667
9.53703 88.8602
9.5818 90.4016
9.62657 93.7511
9.67134 97.8686
9.71614 96.3656
9.76091 97.2134
9.80569 100.587
9.85047 103.817
9.89525 119.944
9.94005 138.109
9.98484 233.533
10.0296 439.689
10.0744 870.796
10.1192 1603.52
10.164 1647.86
10.2088 472.805
10.2536 135.488
10.2984 115.317
10.3432 114.794
10.388 110.236
10.4328 136.95
10.4776 188.283
10.5224 298.5
10.5672 487.053
10.612 526.708
10.6568 216.204
10.7017 100.56
10.7465 89.3234
10.7913 85.7733
10.8361 83.6136
10.8809 81.0697
10.9257 79.8331
10.9706 80.0733
11.0154 76.5786
11.0602 74.7901
11.105 73.643
11.1499 75.3008
11.1947 79.0831
11.2395 73.2582
11.2844 70.9605
11.3292 68.9939
11.374 67.7068
11.4189 67.4352
11.4637 66.4462
11.5086 66.2784
11.5534 68.4202
11.5983 66.4147
11.6431 65.1819
11.688 64.7125
11.7328 64.6212
11.7777 64.5596
11.8225 64.5181
11.8674 64.1883
11.9122 64.648
11.9571 64.7385
12.002 66.3472
12.0468 73.9482
12.0917 86.9089
12.1366 110.134
12.1814 150.921
12.2263 197.143
12.2712 172.721
12.3161 96.4071
12.3609 70.5633
12.4058 66.0612
12.4507 66.033
12.4956 66.0623
12.5405 66.3622
12.5853 66.9278
12.6302 71.9562
12.6751 75.0743
12.72 70.4048
12.7649 69.7234
12.8098 70.5347
12.8547 71.7323
12.8996 73.3315
12.9445 74.5163
12.9894 76.7483
13.0343 78.6968
13.0792 82.7931
13.1242 99.232
13.1691 127.603
13.214 168.229
13.2589 246.752
13.3038 352.656
13.3487 420.635
13.3937 278.564
13.4386 132.799
13.4835 117.905
13.5285 136.783
13.5734 174.386
13.6183 244.19
13.6633 332.524
13.7082 343.726
13.7531 200.945
13.7981 102.232
13.843 84.4513
13.888 82.016
13.9329 79.4713
13.9779 78.0519
14.0228 76.9148
14.0678 75.3187
14.1127 74.6824
14.1577 74.2402
14.2027 73.4121
14.2476 72.5017
14.2926 72.3173
14.3376 72.815
14.3825 72.1009
14.4275 70.7951
14.4725 70.8112
14.5175 71.0378
14.5624 71.0056
14.6074 72.4579
14.6524 73.1633
14.6974 73.0605
14.7424 76.4695
14.7874 85.9369
14.8324 98.0306
14.8774 119.961
14.9224 154.91
14.9674 199.74
15.0124 217.432
15.0574 154.177
15.1024 94.7817
15.1474 74.5631
15.1924 72.4617
15.2374 72.0431
15.2824 71.3544
15.3274 69.8794
15.3725 68.7327
15.4175 68.2979
15.4625 67.952
15.5076 68.0051
15.5526 68.4693
15.5976 68.1565
15.6426 70.9154
15.6877 78.7996
15.7327 87.4266
15.7778 102.871
15.8228 128.835
15.8679 162.681
15.9129 190.322
15.958 163.026
16.003 102.312
16.0481 69.9921
16.0931 65.6044
16.1382 63.7235
16.1833 62.1513
16.2283 60.6767
16.2734 60.0324
16.3185 59.8311
16.3636 59.7762
16.4086 58.7141
16.4537 57.7249
16.4988 57.1901
16.5439 57.2231
16.589 56.7448
16.6341 56.4096
16.6792 55.9816
16.7243 56.323
16.7694 56.4162
16.8145 56.3393
16.8596 56.4989
16.9047 57.6134
16.9498 57.9192
16.9949 57.3204
17.04 57.9064
17.0851 59.4327
17.1302 61.5271
17.1754 64.4022
17.2205 69.2653
17.2656 74.9795
17.3108 82.7712
17.3559 84.4671
17.401 73.57
17.4462 64.1362
17.4913 60.9211
17.5365 60.913
17.5815 61.2245
17.6268 61.3209
17.6718 61.9284
17.7171 62.6692
17.7622 63.1675
17.8074 64.3255
17.8525 68.6328
17.8977 73.1897
17.9428 78.98
17.9881 88.0647
18.0331 102.342
18.0784 120.06
18.1237 139.848
18.1688 136.723
18.214 110.405
18.2591 91.301
18.3044 91.6277
18.3495 99.2798
18.3948 106.156
18.4399 98.8024
18.4852 80.0267
18.5303 67.8431
18.5756 64.0105
18.6207 63.0178
18.666 62.1565
18.7112 61.4694
18.7565 60.7071
18.8016 60.3196
18.8469 59.8402
18.892 59.4782
18.9374 58.8797
18.9825 58.7409
19.0278 58.7025
19.073 59.0063
19.1183 59.5161
19.1635 60.4875
19.2088 61.8375
19.254 64.5772
19.2993 67.7816
19.3447 72.5913
19.3898 76.7795
19.4352 74.3211
19.4804 65.6205
19.5257 58.5144
19.5709 55.7068
19.6163 55.6292
19.6615 55.4242
19.7068 55.0562
19.752 54.8998
19.7974 55.4978
19.8426 56.5053
19.888 57.1073
19.9332 58.4035
19.9786 60.8489
20.0238 64.0204
20.0692 67.8685
20.1144 71.3806
20.1598 70.9381
20.205 66.0807
20.2504 63.6744
20.2957 64.6282
20.3411 66.4581
20.3863 65.5298
20.4318 60.0947
20.477 55.1398
20.5224 52.9269
20.5677 52.3265
20.6131 51.8946
20.6586 51.1689
20.7038 50.868
20.7493 50.7018
20.7945 50.4437
20.84 50.3319
20.8853 50.3176
20.9307 50.1808
20.976 50.2153
21.0215 50.2502
21.0668 50.454
21.1122 50.9315
21.1575 51.3391
21.203 52.0444
21.2483 52.5993
21.2938 53.1479
21.3391 51.5097
21.3846 50.4567
21.4299 49.9717
21.4754 49.8136
21.5207 50.0249
21.5662 50.5545
21.6116 51.1788
21.6571 51.8626
21.7024 53.0563
21.7479 54.8281
21.7933 57.3285
21.8388 60.0444
21.8843 63.5904
21.9297 65.9802
21.9752 65.4392
22.0206 61.5789
22.0661 57.8765
22.1115 57.1526
22.157 57.2734
22.2024 55.9503
22.248 53.0931
22.2933 51.291
22.3389 50.5168
22.3843 50.3994
22.4299 50.2151
22.4753 50.2932
22.5208 50.0087
22.5662 49.9912
22.6118 50.403
22.6572 50.6606
22.7028 50.9997
22.7483 51.6087
22.7939 52.2508
22.8393 53.8318
22.8849 55.2986
22.9303 56.9662
22.9759 59.0503
23.0214 58.9496
23.067 56.2203
23.1126 52.6922
23.1581 50.612
23.2037 50.4004
23.2492 50.543
23.2948 50.6839
23.3403 50.9437
23.3859 51.6082
23.4314 52.6683
23.477 54.1229
23.5225 55.5829
23.5682 57.6563
23.6137 59.2678
23.6593 57.2667
23.7048 53.3949
23.7505 49.7963
23.796 47.9605
23.8417 47.4625
23.8872 46.8865
23.9329 46.4638
23.9784 46.1874
24.0241 46.0024
24.0697 45.5907
24.1154 45.2315
24.1609 45.3194
24.2066 45.1977
24.2522 44.9453
24.2979 44.6546
24.3434 44.5433
24.3892 44.4608
24.4349 44.3512
24.4805 44.2374
24.5262 44.2709
24.5718 44.1664
24.6175 44.1199
24.6631 43.9894
24.7089 43.7181
24.7545 43.5709
24.8002 43.4894
24.8458 43.5154
24.8916 43.3361
24.9372 43.6516
24.983 44.0324
25.0286 44.5186
25.0744 44.6124
25.12 45.0341
25.1658 45.665
25.2114 45.8687
25.2572 45.8659
25.3029 45.8547
25.3487 45.9788
25.3943 45.9806
25.4402 44.9176
25.4858 43.7641
25.5316 42.6026
25.5773 42.1074
25.6231 42.0812
25.669 41.8662
25.7147 41.7854
25.7605 41.7408
25.8062 41.7462
25.8521 41.8109
25.8977 41.8635
25.9436 42.0473
25.9893 42.1588
26.0352 42.5094
26.0809 42.6056
26.1268 42.8255
26.1725 42.709
26.2184 42.0312
26.2641 41.4928
26.31 41.3668
26.3557 41.2697
26.4017 41.2408
26.4474 41.7129
26.4933 42.0154
26.5391 42.3101
26.585 42.7292
26.6308 43.0924
26.6767 43.2655
26.7225 43.0616
26.7684 42.5571
26.8142 41.9278
26.8601 41.6088
26.9059 41.1584
26.9519 40.6483
26.9979 40.4285
27.0437 40.0648
27.0896 39.9161
27.1354 39.9244
27.1814 39.7396
27.2272 39.6222
27.2732 39.778
27.3191 39.5735
27.3651 39.6659
27.4109 39.4265
27.4569 39.532
27.5027 39.6723
27.5488 39.8358
27.5946 39.4532
27.6407 39.3376
27.6865 39.244
27.7326 39.1608
27.7784 39.1423
27.8245 39.079
27.8703 39.1808
27.9164 39.3696
27.9623 39.4073
28.0084 39.777
28.0543 40.1657
28.1003 39.9471
28.1462 39.9286
28.1923 39.4543
28.2384 38.9951
28.2843 38.7571
28.3304 38.3565
28.3764 37.8427
28.4225 37.5244
28.4684 37.2607
28.5145 36.9964
28.5605 36.8578
28.6066 36.6672
28.6526 36.695
28.6987 36.5516
28.7447 36.5359
28.7908 36.429
28.8368 36.3403
28.8829 36.3354
28.9289 36.3907
28.9751 36.173
29.0211 35.8552
29.0673 35.6805
29.1133 35.6041
29.1595 35.4166
29.2055 35.2985
29.2517 35.2833
29.2977 35.2748
29.3439 35.121
29.3899 35.2
29.4361 35.0826
29.4824 34.9117
29.5284 34.7323
29.5746 34.2985
29.6207 34.1352
29.6669 34.0525
29.713 33.8962
29.7593 33.9086
29.8053 33.8786
29.8516 33.6318
29.8977 33.7384
29.9439 33.5372
29.99 33.5679
30.0363 33.3635
30.0824 33.4678
30.1287 33.2526
30.1748 33.2679
30.2211 33.2775
30.2673 33.2391
30.3136 33.2236
30.3597 33.1647
30.406 33.1279
30.4522 32.9458
30.4985 32.9738
30.5447 33.1535
30.591 32.9594
30.6372 33.0985
30.6835 33.0705
30.7297 33.0619
30.7761 33.0336
30.8224 32.8813
30.8686 32.7789
30.915 32.5138
30.9612 32.4076
31.0076 32.2287
31.0538 32.0092
31.1002 31.9231
31.1464 31.8793
31.1928 31.9126
31.2391 31.8409
31.2855 31.7307
31.3317 31.666
31.3781 31.7499
31.4244 31.7087
31.4708 31.5769
31.5171 31.6701
31.5636 31.6605
31.6098 31.4037
31.6563 31.289
31.7026 31.0892
31.7491 30.9734
31.7953 30.9365
31.8418 30.9701
31.8881 31.0786
31.9346 30.977
31.9809 30.9024
32.0275 30.8355
32.074 30.6895
32.1203 30.4856
32.1668 30.3767
32.2132 30.1134
32.2597 30.0283
32.306 29.9661
32.3526 29.7321
32.399 29.7662
32.4455 29.6429
32.4919 29.5879
32.5385 29.4229
32.5848 29.278
32.6314 29.2566
32.6778 29.1545
32.7244 29.1385
32.7708 29.0363
32.8174 28.9025
32.8638 28.8549
32.9104 28.8919
32.9569 28.8157
33.0035 28.6576
33.0499 28.5955
33.0966 28.5987
33.143 28.4945
33.1897 28.4341
33.2361 28.3559
33.2828 28.2921
33.3293 28.1952
33.3759 28.1897
33.4226 28.0618
33.4691 27.878
33.5158 27.8302
33.5623 27.6536
33.609 27.5142
33.6555 27.3658
33.7022 27.4104
33.7487 27.2471
33.7954 27.3486
33.842 27.084
33.8887 27.0198
33.9353 26.9706
33.982 26.8313
34.0286 26.8282
34.0753 26.6527
34.1219 26.609
34.1687 26.608
34.2152 26.4746
34.262 26.3531
34.3086 26.3017
34.3554 26.3149
34.402 26.1161
34.4488 26.01
34.4954 25.9826
34.5422 25.7784
34.5889 25.7376
34.6357 25.678
34.6825 25.5967
34.7292 25.5644
34.776 25.4788
34.8227 25.4641
34.8695 25.3472
34.9162 25.2506
34.9631 25.1341
35.0098 25.1571
35.0566 24.9399
35.1033 24.9533
35.1502 25.0185
35.1969 24.8544
35.2438 24.7678
35.2906 24.6993
35.3375 24.6651
35.3842 24.6421
35.4311 24.6397
35.4779 24.6022
35.5248 24.5957
35.5716 24.4665
35.6185 24.3015
35.6653 24.1849
35.7123 24.2128
35.759 24.1329
35.806 23.9453
35.8528 23.8527
35.8998 23.9063
35.9468 23.7832
35.9936 23.7171
36.0406 23.6074
36.0874 23.5599
36.1345 23.5064
36.1813 23.4108
36.2283 23.327
36.2752 23.2975
36.3222 23.2549
36.3691 23.1617
36.4161 23.0122
36.463 23.0686
36.5101 23.0923
36.557 22.8866
36.6041 22.8187
36.651 22.7418
36.6981 22.7231
36.745 22.6259
36.7921 22.5737
36.839 22.4728
36.8861 22.4233
36.9331 22.3072
36.9802 22.2141
37.0272 22.1623
37.0743 22.135
37.1213 22.029
37.1684 22.0305
37.2154 21.9564
37.2626 21.888
37.3098 21.7619
37.3568 21.7249
37.404 21.6712
37.451 21.5583
37.4982 21.519
37.5452 21.4409
37.5924 21.3182
37.6395 21.3883
37.6867 21.2821
37.7337 21.1862
37.781 21.0442
37.8281 21.0416
37.8753 20.8826
37.9224 20.8905
37.9697 20.7797
38.0168 20.7978
38.064 20.6064
38.1111 20.6357
38.1584 20.5989
38.2056 20.4599
38.2529 20.4257
38.3 20.3781
38.3473 20.3537
38.3945 20.2153
38.4418 20.2228
38.489 20.1208
38.5363 20.0531
38.5837 19.9599
38.6309 19.9325
38.6782 19.8355
38.7254 19.7803
38.7728 19.7052
38.82 19.6685
38.8674 19.6169
38.9146 19.5265
38.9621 19.486
39.0093 19.4281
39.0567 19.3613
39.104 19.2721
39.1514 19.1974
39.1987 19.2174
39.2461 19.2242
39.2934 19.0579
39.3409 18.9457
39.3882 18.9342
39.4356 18.8547
39.483 18.8192
39.5304 18.7401
39.5778 18.69
39.6253 18.6738
39.6726 18.6227
39.7201 18.6132
39.7675 18.4975
39.815 18.4392
39.8624 18.3376
39.9099 18.3608
39.9575 18.2191
40.0049 18.2375
40.0525 18.1228
40.0999 18.0705
40.1474 18.0093
40.1949 17.9368
40.2425 17.8745
40.2899 17.8051
40.3375 17.8306
40.385 17.6656
40.4326 17.6865
40.48 17.6488
40.5277 17.5521
40.5752 17.4785
40.6228 17.4101
40.6703 17.4216
40.718 17.28
40.7655 17.3054
40.8132 17.2273
40.8607 17.1717
40.9084 17.0818
40.9559 17.0268
41.0036 16.9826
41.0512 16.9013
41.0989 16.9372
41.1465 16.8579
41.1942 16.7253
41.242 16.6941
41.2896 16.6597
41.3373 16.6462
41.3849 16.6041
41.4327 16.5079
41.4803 16.4602
41.5281 16.4293
41.5758 16.303
41.6236 16.2298
41.6712 16.2794
41.7191 16.1432
41.7667 16.1883
41.8146 16.0878
41.8622 16.0544
41.9101 15.9554
41.9578 15.9074
42.0057 15.8111
42.0534 15.7907
42.1013 15.7502
42.149 15.6731
42.1969 15.6581
42.2446 15.5818
42.2925 15.5218
42.3403 15.4363
42.3882 15.3943
42.436 15.3896
42.4839 15.3364
42.5319 15.3518
42.5797 15.1772
42.6277 15.1587
42.6755 15.0863
42.7235 15.0406
42.7713 14.9826
42.8193 14.9836
42.8671 14.8809
42.9152 14.9122
42.963 14.8155
43.0111 14.7359
43.0589 14.6925
43.107 14.6485
43.1549 14.5972
43.2029 14.5525
43.2508 14.5274
43.2989 14.4502
43.3468 14.4109
43.3949 14.3516
43.4429 14.3234
43.491 14.2514
43.5389 14.1764
43.5871 14.1154
43.635 14.1373
43.6832 14.0729
43.7312 13.9807
43.7793 13.9648
43.8273 13.9343
43.8755 13.8419
43.9237 13.7884
43.9717 13.8045
44.0199 13.6918
44.068 13.7209
44.1162 13.5976
44.1642 13.592
44.2125 13.5059
44.2606 13.543
44.3088 13.4573
44.3569 13.3972
44.4052 13.4123
44.4533 13.2741
44.5016 13.2676
44.5497 13.2035
44.598 13.1492
44.6461 13.1154
44.6945 13.0616
44.7426 13.034
44.791 12.9404
44.8391 12.9301
44.8875 12.9206
44.9357 12.851
44.984 12.8439
45.0322 12.7465
45.0806 12.7154
45.1288 12.6626
45.1773 12.6373
45.2257 12.546
45.2739 12.5264
45.3224 12.4974
45.3706 12.451
45.4191 12.3403
45.4673 12.3657
45.5158 12.304
45.5641 12.2845
45.6126 12.2127
45.6609 12.1416
45.7094 12.1377
45.7577 12.0843
45.8063 12.0258
45.8546 11.9819
45.9031 11.9345
45.9515 11.9053
46.0001 11.8826
46.0484 11.8453
46.097 11.8084
46.1454 11.7513
46.194 11.7362
46.2424 11.6651
46.291 11.6161
46.3395 11.5502
46.3881 11.5121
46.4365 11.4997
46.4852 11.4562
46.5337 11.4495
46.5823 11.407
46.631 11.3017
46.6795 11.2599
46.7282 11.2385
46.7767 11.2058
46.8254 11.1735
46.8739 11.0892
46.9226 11.0251
46.9712 11.0386
47.0199 11.001
47.0685 10.9181
47.1173 10.9017
47.1658 10.8454
47.2146 10.8272
47.2632 10.7679
47.312 10.7442
47.3606 10.7043
47.4095 10.7364
47.4581 10.6754
47.5069 10.608
47.5556 10.5201
47.6044 10.4346
47.6531 10.489
47.702 10.4164
47.7507 10.4103
47.7996 10.3117
47.8483 10.3434
47.8972 10.2963
47.9461 10.2661
47.9948 10.186
48.0438 10.1755
48.0925 10.134
48.1415 10.0926
48.1902 10.0222
48.2392 10.0352
48.288 10.0257
48.337 9.96105
48.3858 9.92025
48.4348 9.90051
48.4837 9.85901
48.5327 9.81621
48.5815 9.78674
48.6306 9.69967
48.6795 9.70555
48.7285 9.65028
48.7774 9.64466
48.8265 9.62817
48.8754 9.54811
48.9245 9.51465
48.9734 9.47463
49.0226 9.46858
49.0715 9.43104
49.1206 9.38064
49.1696 9.34455
49.2188 9.29764
49.2679 9.27914
49.3169 9.23449
49.3661 9.21018
49.4151 9.17602
49.4643 9.16492
49.5134 9.1156
49.5626 9.0474
49.6117 8.99652
49.6609 9.01037
49.71 8.93383
49.7592 8.9379
49.8083 8.89271
49.8576 8.86114
49.9067 8.76915
49.956 8.81164
50.0052 8.76077
50.0545 8.74033
50.1036 8.66228
50.153 8.62903
50.2022 8.64369
50.2515 8.59354
50.3007 8.52939
50.3501 8.53725
50.3993 8.47563
50.4487 8.44088
50.498 8.43208
50.5474 8.35831
50.5966 8.35273
50.6461 8.36449
50.6955 8.30157
50.7448 8.27788
50.7943 8.2034
50.8436 8.18397
50.8931 8.12451
50.9424 8.1202
50.9919 8.08504
51.0413 8.09404
51.0908 8.04887
51.1402 8.00538
51.1897 7.96024
51.2391 7.92985
51.2887 7.89089
51.3381 7.85098
51.3877 7.84617
51.4371 7.84009
51.4867 7.76303
51.5362 7.75658
51.5858 7.71725
51.6353 7.66026
51.6849 7.67238
51.7344 7.60394
51.7841 7.59686
51.8336 7.54626
51.8833 7.53057
51.9328 7.4867
51.9826 7.46337
52.0323 7.43543
52.0818 7.39374
52.1316 7.38085
52.1812 7.33327
52.231 7.27555
52.2806 7.28684
52.3304 7.25141
52.38 7.21652
52.4298 7.17875
52.4794 7.15073
52.5293 7.15052
52.5789 7.09301
52.6288 7.05564
52.6785 7.05262
52.7284 6.97871
52.7781 6.97992
52.828 6.98205
52.8777 6.93912
52.9276 6.87396
52.9774 6.88737
53.0273 6.83666
53.0771 6.81568
53.1271 6.81609
53.1769 6.75626
53.2269 6.70098
53.2767 6.68542
53.3267 6.62466
53.3765 6.61894
53.4266 6.60329
53.4766 6.5476
53.5265 6.52743
53.5765 6.51311
53.6264 6.49513
53.6765 6.46743
53.7264 6.44028
53.7765 6.42502
53.8265 6.4057
53.8766 6.31781
53.9266 6.31787
53.9767 6.28501
54.0267 6.28326
54.0769 6.25215
54.1269 6.20987
54.1771 6.18227
54.2271 6.19194
54.2773 6.0941
54.3274 6.1181
54.3776 6.02993
54.4277 6.02066
54.478 5.9764
54.528 5.92342
54.5783 5.87867
54.6285 5.80962
54.6788 5.86245
54.7289 5.78293
54.7792 5.73289
54.8296 5.66105
54.8798 5.64065
54.9301 5.55134
54.9803 5.58067
55.0307 5.59749
55.0809 5.50846
55.1314 5.52518
55.1816 5.43644
55.232 5.33804
55.2823 5.37046
55.3328 5.26809
55.383 5.1955
55.4335 5.19209
55.4838 5.16377
55.5344 5.13614
55.5847 5.08112
55.6352 5.04693
55.6856 4.94224
55.7361 4.9502