File: XRD/Ni3Fe_FD0022.xy
TT I
1.27165 34.0486
1.31627 33.5807
1.36089 32.157
1.40551 30.5595
1.45013 29.5367
1.49476 28.3673
1.53938 28.2687
1.584 27.1172
1.62863 26.7499
1.67325 25.6593
1.71787 25.0739
1.7625 24.6124
1.80712 23.3903
1.85174 24.5801
1.89636 24.501
1.94099 24.2028
1.98562 23.6215
2.03025 24.3343
2.07487 23.7452
2.11949 24.3129
2.16411 24.6064
2.20874 25.8343
2.25338 26.0756
2.298 26.1357
2.34263 25.1025
2.38725 25.5423
2.43188 25.298
2.4765 25.1347
2.52115 24.9646
2.56577 25.8462
2.6104 27.0655
2.65503 26.9094
2.69965 28.8697
2.7443 30.4334
2.78893 32.421
2.83356 35.3003
2.87818 39.2243
2.92281 43.6577
2.96744 48.0367
3.01209 56.845
3.05672 65.8958
3.10135 75.926
3.14599 82.0667
3.19062 82.7018
3.23527 76.4583
3.2799 65.7249
3.32454 55.3941
3.36917 46.9037
3.4138 41.7644
3.45844 38.7145
3.50309 37.5416
3.54773 37.6526
3.59237 38.7796
3.637 40.5232
3.68164 41.2317
3.7263 41.2099
3.77094 39.8026
3.81558 38.5197
3.86022 37.8111
3.90486 38.5786
3.9495 38.4908
3.99416 40.4176
4.0388 43.2811
4.08344 46.5611
4.12809 51.1366
4.17273 58.2895
4.21738 69.2301
4.26204 79.639
4.30669 85.9579
4.35133 83.7812
4.39598 74.5309
4.44063 66.2817
4.4853 60.9961
4.52995 56.5526
4.5746 51.7014
4.61925 49.1577
4.6639 47.2277
4.70855 47.1247
4.75322 48.2524
4.79788 50.1015
4.84253 53.3801
4.88719 57.0789
4.93184 62.9081
4.97652 71.3307
5.02118 86.473
5.06583 109.605
5.11049 133.657
5.15515 175.858
5.19981 269.179
5.24449 546.031
5.28916 1140.49
5.33382 3107.57
5.37848 3824.24
5.42315 1210.01
5.46783 375.787
5.5125 215.462
5.55716 156.345
5.60183 126.093
5.6465 112.466
5.69117 106.069
5.73586 100.295
5.78053 96.2621
5.8252 95.9716
5.86988 101.302
5.91455 110.486
5.95924 128.265
6.00392 169.972
6.0486 265.846
6.09328 450.913
6.13795 801.439
6.18263 1306.52
6.22733 786.452
6.27201 318.631
6.3167 167.621
6.36138 109.951
6.40606 84.6041
6.45075 72.7003
6.49545 64.472
6.54014 59.4397
6.58483 56.705
6.62952 55.7886
6.67421 55.4332
6.71892 56.0943
6.76361 55.8078
6.8083 53.9105
6.853 51.5106
6.89769 48.9793
6.94239 47.3868
6.98711 45.6446
7.03181 45.1911
7.07651 45.2138
7.12121 46.2727
7.16591 48.3405
7.21063 50.8664
7.25533 55.8275
7.30004 65.0743
7.34475 71.8993
7.38945 70.1111
7.43416 62.5506
7.47889 56.753
7.5236 57.9156
7.56831 95.9951
7.61303 154.909
7.65774 79.6784
7.70247 46.6709
7.74719 40.879
7.79191 38.8965
7.83663 37.8608
7.88135 37.7352
7.92607 37.6278
7.97081 38.148
8.01553 38.6069
8.06026 39.3374
8.10498 40.1512
8.14971 41.1256
8.19446 42.7001
8.23919 44.1622
8.28392 46.5448
8.32865 48.0051
8.37339 51.668
8.41812 56.256
8.46288 64.0125
8.50761 76.6395
8.55235 102.465
8.59709 156.199
8.64183 213.472
8.68658 373.957
8.73134 740.125
8.77609 670.187
8.82083 289.05
8.86558 138.386
8.91033 95.4252
8.9551 77.7495
8.99985 69.8784
9.04461 64.3578
9.08936 60.8329
9.13412 58.742
9.17888 59.3643
9.22365 66.7677
9.26841 120.803
9.31318 249.036
9.35794 158.876
9.4027 71.0951
9.44749 56.3992
9.49226 52.832
9.53703 51.2634
9.5818 51.4907
9.62657 51.5789
9.67134 52.423
9.71614 53.7778
9.76091 55.2658
9.80569 56.9839
9.85047 59.8046
9.89525 63.6665
9.94005 69.3891
9.98484 78.3339
10.0296 98.1998
10.0744 137.001
10.1192 179.782
10.164 240.178
10.2088 478.745
10.2536 818.369
10.2984 587.52
10.3432 256.927
10.388 133.212
10.4328 95.9604
10.4776 83.4762
10.5224 85.1538
10.5672 90.8696
10.612 99.6865
10.6568 150.536
10.7017 268.187
10.7465 273.322
10.7913 150.398
10.8361 75.9262
10.8809 55.6952
10.9257 48.9832
10.9706 46.0101
11.0154 44.2494
11.0602 43.0968
11.105 42.3706
11.1499 41.9759
11.1947 41.6375
11.2395 41.6582
11.2844 41.1996
11.3292 40.5461
11.374 39.6785
11.4189 39.3562
11.4637 38.179
11.5086 37.589
11.5534 37.4184
11.5983 37.2821
11.6431 37.6463
11.688 37.1971
11.7328 36.9056
11.7777 36.774
11.8225 36.8246
11.8674 37.3451
11.9122 39.1314
11.9571 45.4606
12.002 71.565
12.0468 91.5281
12.0917 63.1166
12.1366 47.1015
12.1814 46.7011
12.2263 48.953
12.2712 54.9734
12.3161 70.3007
12.3609 94.0727
12.4058 92.518
12.4507 66.6497
12.4956 51.559
12.5405 44.7892
12.5853 42.0491
12.6302 40.5329
12.6751 40.4864
12.72 40.7652
12.7649 40.8849
12.8098 40.304
12.8547 39.8587
12.8996 39.9595
12.9445 39.8123
12.9894 40.0349
13.0343 40.6431
13.0792 42.5779
13.1242 46.1847
13.1691 56.2626
13.214 62.0771
13.2589 63.302
13.3038 67.9338
13.3487 73.7203
13.3937 93.6601
13.4386 145.471
13.4835 220.055
13.5285 202.408
13.5734 129.093
13.6183 92.91
13.6633 81.3643
13.7082 81.148
13.7531 98.7464
13.7981 155.528
13.843 214.568
13.888 166.085
13.9329 92.4644
13.9779 62.3218
14.0228 51.3349
14.0678 46.6376
14.1127 45.3654
14.1577 47.5871
14.2027 64.4804
14.2476 86.5815
14.2926 70.886
14.3376 47.778
14.3825 40.9508
14.4275 39.2224
14.4725 38.3491
14.5175 37.9729
14.5624 37.7322
14.6074 37.354
14.6524 37.6292
14.6974 37.7423
14.7424 38.4687
14.7874 38.5908
14.8324 40.3638
14.8774 42.8065
14.9224 46.903
14.9674 49.2924
15.0124 51.5917
15.0574 59.9226
15.1024 80.4102
15.1474 117.458
15.1924 128.568
15.2374 93.4077
15.2824 63.372
15.3274 49.4977
15.3725 43.5752
15.4175 41.2158
15.4625 39.544
15.5076 38.8527
15.5526 38.4271
15.5976 38.1797
15.6426 38.0238
15.6877 38.4276
15.7327 39.1869
15.7778 40.9109
15.8228 44.3673
15.8679 46.6769
15.9129 48.3738
15.958 53.4665
16.003 66.1988
16.0481 95.4772
16.0931 126.47
16.1382 119.319
16.1833 87.1034
16.2283 58.9905
16.2734 45.334
16.3185 39.8572
16.3636 37.1157
16.4086 35.2528
16.4537 34.4553
16.4988 33.7044
16.5439 33.2706
16.589 32.618
16.6341 32.0933
16.6792 31.8911
16.7243 31.8679
16.7694 31.5954
16.8145 31.4795
16.8596 31.7079
16.9047 31.9985
16.9498 32.7282
16.9949 35.8508
17.04 39.4876
17.0851 38.6113
17.1302 34.5517
17.1754 33.0566
17.2205 33.4368
17.2656 33.9236
17.3108 34.4777
17.3559 34.5488
17.401 36.3096
17.4462 39.7889
17.4913 46.821
17.5365 52.148
17.5815 48.1456
17.6268 40.7315
17.6718 36.6467
17.7171 35.2088
17.7622 35.1531
17.8074 36.3859
17.8525 39.7422
17.8977 42.0182
17.9428 40.2965
17.9881 39.0099
18.0331 40.6536
18.0784 41.9926
18.1237 42.8778
18.1688 44.9494
18.214 50.9872
18.2591 64.1162
18.3044 88.9318
18.3495 103.701
18.3948 87.8833
18.4399 65.5244
18.4852 56.2667
18.5303 59.2796
18.5756 70.0842
18.6207 75.4101
18.666 65.3609
18.7112 52.067
18.7565 42.8128
18.8016 38.2453
18.8469 36.2066
18.892 35.0549
18.9374 34.2414
18.9825 33.7689
19.0278 33.4483
19.073 33.271
19.1183 33.0369
19.1635 33.0092
19.2088 33.4618
19.254 33.861
19.2993 34.7282
19.3447 36.0015
19.3898 39.3509
19.4352 45.2335
19.4804 47.6644
19.5257 45.5492
19.5709 46.615
19.6163 49.6443
19.6615 46.9659
19.7068 40.2093
19.752 35.8272
19.7974 33.5678
19.8426 32.6839
19.888 31.932
19.9332 31.5938
19.9786 31.8362
20.0238 32.1859
20.0692 32.2186
20.1144 32.451
20.1598 33.1676
20.205 34.264
20.2504 37.3232
20.2957 42.2182
20.3411 46.924
20.3863 46.3177
20.4318 41.5373
20.477 38.9924
20.5224 40.6598
20.5677 44.5659
20.6131 44.3165
20.6586 39.0961
20.7038 34.5334
20.7493 32.0476
20.7945 31.267
20.84 31.7182
20.8853 33.3114
20.9307 33.5095
20.976 31.9117
21.0215 29.6996
21.0668 28.971
21.1122 28.7638
21.1575 28.6484
21.203 28.6844
21.2483 28.5464
21.2938 28.7074
21.3391 28.5385
21.3846 28.9643
21.4299 29.8526
21.4754 31.4506
21.5207 32.5589
21.5662 32.1261
21.6116 30.9367
21.6571 30.0259
21.7024 29.4421
21.7479 29.5773
21.7933 29.9491
21.8388 30.3461
21.8843 30.87
21.9297 30.9976
21.9752 31.9699
22.0206 33.4828
22.0661 35.9135
22.1115 40.5075
22.157 46.3453
22.2024 49.1078
22.248 46.3357
22.2933 42.652
22.3389 40.3453
22.3843 39.869
22.4299 38.5141
22.4753 35.6094
22.5208 32.9738
22.5662 31.1984
22.6118 30.4637
22.6572 29.9833
22.7028 29.6759
22.7483 29.5611
22.7939 29.6413
22.8393 30.3973
22.8849 31.3609
22.9303 31.9775
22.9759 31.7815
23.0214 31.0924
23.067 31.2931
23.1126 32.3618
23.1581 34.6867
23.2037 38.5528
23.2492 42.5297
23.2948 41.8076
23.3403 37.5269
23.3859 33.7856
23.4314 32.3736
23.477 32.3414
23.5225 33.5207
23.5682 34.1596
23.6137 33.7991
23.6593 32.5919
23.7048 32.5987
23.7505 33.9872
23.796 37.0356
23.8417 41.9328
23.8872 44.4686
23.9329 41.7193
23.9784 36.2373
24.0241 32.3108
24.0697 30.1988
24.1154 29.2274
24.1609 29.0348
24.2066 28.5057
24.2522 27.8968
24.2979 27.3918
24.3434 27.0593
24.3892 26.7242
24.4349 26.6062
24.4805 26.3933
24.5262 26.4399
24.5718 26.2007
24.6175 26.1608
24.6631 26.2141
24.7089 26.5484
24.7545 27.3291
24.8002 27.7016
24.8458 27.8105
24.8916 27.1165
24.9372 26.6037
24.983 26.3244
25.0286 26.0818
25.0744 26.0501
25.12 26.0876
25.1658 26.0642
25.2114 26.2301
25.2572 26.6404
25.3029 26.9519
25.3487 27.6009
25.3943 28.4135
25.4402 29.555
25.4858 30.2278
25.5316 30.0754
25.5773 30.3483
25.6231 31.6563
25.669 31.9815
25.7147 31.0767
25.7605 28.9654
25.8062 27.2105
25.8521 26.58
25.8977 26.3543
25.9436 26.5646
25.9893 26.5826
26.0352 26.4232
26.0809 25.6635
26.1268 25.5078
26.1725 25.4979
26.2184 25.6514
26.2641 25.9511
26.31 26.467
26.3557 27.4214
26.4017 28.4424
26.4474 28.6586
26.4933 27.9144
26.5391 26.9944
26.585 26.3815
26.6308 25.9872
26.6767 25.8387
26.7225 25.823
26.7684 26.2759
26.8142 26.498
26.8601 27.3159
26.9059 28.4197
26.9519 30.0355
26.9979 30.7183
27.0437 30.4453
27.0896 29.7688
27.1354 29.1761
27.1814 28.0803
27.2272 27.0024
27.2732 25.8847
27.3191 25.1477
27.3651 24.949
27.4109 24.6447
27.4569 24.4994
27.5027 24.5488
27.5488 24.4187
27.5946 24.6125
27.6407 24.6561
27.6865 24.7167
27.7326 24.6662
27.7784 24.8136
27.8245 25.2725
27.8703 25.6517
27.9164 25.6852
27.9623 25.188
28.0084 24.8396
28.0543 24.9069
28.1003 25.105
28.1462 25.4771
28.1923 25.7131
28.2384 25.9446
28.2843 26.1137
28.3304 26.8993
28.3764 28.1625
28.4225 28.6133
28.4684 28.0798
28.5145 27.2225
28.5605 26.9051
28.6066 26.3808
28.6526 25.7567
28.6987 24.9696
28.7447 24.24
28.7908 23.6999
28.8368 23.2757
28.8829 22.9732
28.9289 22.8571
28.9751 22.6728
29.0211 22.6125
29.0673 22.6208
29.1133 22.7357
29.1595 22.8894
29.2055 23.0699
29.2517 23.344
29.2977 23.32
29.3439 22.8076
29.3899 22.4306
29.4361 22.0465
29.4824 22.0652
29.5284 21.9265
29.5746 21.9235
29.6207 22.0024
29.6669 22.2258
29.713 22.5265
29.7593 22.7527
29.8053 22.6199
29.8516 22.2133
29.8977 21.8292
29.9439 21.5543
29.99 21.2633
30.0363 21.0616
30.0824 21.1473
30.1287 21.2011
30.1748 21.3365
30.2211 21.4186
30.2673 21.3933
30.3136 21.2672
30.3597 21.0221
30.406 20.9441
30.4522 21.0343
30.4985 21.1509
30.5447 21.3394
30.591 21.4294
30.6372 21.4547
30.6835 21.1925
30.7297 21.1192
30.7761 20.9512
30.8224 20.9484
30.8686 21.0167
30.915 21.1064
30.9612 21.5846
31.0076 21.9049
31.0538 22.4722
31.1002 22.877
31.1464 22.5898
31.1928 22.3833
31.2391 22.1867
31.2855 21.7705
31.3317 21.279
31.3781 21.0729
31.4244 20.6562
31.4708 20.5276
31.5171 20.3548
31.5636 20.4045
31.6098 20.4278
31.6563 20.4613
31.7026 20.6446
31.7491 20.7513
31.7953 21.0763
31.8418 21.3674
31.8881 21.5183
31.9346 21.3192
31.9809 20.7544
32.0275 20.4322
32.074 20.3002
32.1203 20.2446
32.1668 20.4088
32.2132 20.4244
32.2597 20.622
32.306 20.8562
32.3526 20.9366
32.399 20.7995
32.4455 20.4567
32.4919 20.2688
32.5385 19.9814
32.5848 19.7477
32.6314 19.5429
32.6778 19.2718
32.7244 19.1583
32.7708 18.9255
32.8174 18.9121
32.8638 18.7654
32.9104 18.7312
32.9569 18.7212
33.0035 18.7731
33.0499 18.7663
33.0966 18.8003
33.143 18.7176
33.1897 18.6373
33.2361 18.5442
33.2828 18.4559
33.3293 18.3921
33.3759 18.5077
33.4226 18.5004
33.4691 18.5982
33.5158 18.8407
33.5623 18.9704
33.609 18.9073
33.6555 18.9964
33.7022 19.0183
33.7487 18.8075
33.7954 18.5094
33.842 18.1745
33.8887 17.9366
33.9353 17.8316
33.982 17.724
34.0286 17.7067
34.0753 17.6947
34.1219 17.6167
34.1687 17.6277
34.2152 17.5063
34.262 17.6085
34.3086 17.5762
34.3554 17.5111
34.402 17.3519
34.4488 17.2263
34.4954 17.1168
34.5422 17.1055
34.5889 17.0294
34.6357 17.0518
34.6825 17.1066
34.7292 17.0144
34.776 17.0497
34.8227 16.9847
34.8695 16.8053
34.9162 16.7363
34.9631 16.5766
35.0098 16.5107
35.0566 16.4669
35.1033 16.3581
35.1502 16.3404
35.1969 16.3812
35.2438 16.3507
35.2906 16.3013
35.3375 16.307
35.3842 16.2285
35.4311 16.3404
35.4779 16.2598
35.5248 16.2442
35.5716 16.1784
35.6185 16.2067
35.6653 16.2364
35.7123 16.3192
35.759 16.4571
35.806 16.5201
35.8528 16.555
35.8998 16.7436
35.9468 16.6028
35.9936 16.5765
36.0406 16.3473
36.0874 16.1829
36.1345 16.009
36.1813 15.8421
36.2283 15.7382
36.2752 15.6818
36.3222 15.6792
36.3691 15.5666
36.4161 15.5135
36.463 15.5424
36.5101 15.5457
36.557 15.6082
36.6041 15.5546
36.651 15.5509
36.6981 15.5023
36.745 15.3572
36.7921 15.2256
36.839 15.2403
36.8861 15.1727
36.9331 15.305
36.9802 15.2233
37.0272 15.2249
37.0743 15.2394
37.1213 15.1737
37.1684 15.0219
37.2154 14.9256
37.2626 14.8236
37.3098 14.7102
37.3568 14.6228
37.404 14.6168
37.451 14.6015
37.4982 14.5689
37.5452 14.504
37.5924 14.3851
37.6395 14.4036
37.6867 14.3714
37.7337 14.3387
37.781 14.2246
37.8281 14.1852
37.8753 14.0856
37.9224 14.0665
37.9697 14.0524
38.0168 14.0558
38.064 14.1062
38.1111 14.0699
38.1584 13.9791
38.2056 13.9521
38.2529 13.8356
38.3 13.7879
38.3473 13.7184
38.3945 13.6246
38.4418 13.6293
38.489 13.5884
38.5363 13.4976
38.5837 13.5397
38.6309 13.4487
38.6782 13.4239
38.7254 13.379
38.7728 13.4666
38.82 13.3278
38.8674 13.3558
38.9146 13.2114
38.9621 13.2098
39.0093 13.1809
39.0567 13.21
39.104 13.1993
39.1514 13.1303
39.1987 13.1062
39.2461 13.0644
39.2934 12.9627
39.3409 12.8896
39.3882 12.8087
39.4356 12.7681
39.483 12.7578
39.5304 12.6468
39.5778 12.6536
39.6253 12.579
39.6726 12.5803
39.7201 12.5445
39.7675 12.5187
39.815 12.5103
39.8624 12.461
39.9099 12.4606
39.9575 12.3655
40.0049 12.3426
40.0525 12.3675
40.0999 12.2948
40.1474 12.3007
40.1949 12.281
40.2425 12.2628
40.2899 12.2627
40.3375 12.1878
40.385 12.2098
40.4326 12.1237
40.48 12.0202
40.5277 12.0212
40.5752 11.9905
40.6228 11.9174
40.6703 11.9068
40.718 11.8813
40.7655 11.8635
40.8132 11.8421
40.8607 11.8125
40.9084 11.7312
40.9559 11.7381
41.0036 11.6673
41.0512 11.6477
41.0989 11.6788
41.1465 11.6569
41.1942 11.6112
41.242 11.5733
41.2896 11.507
41.3373 11.4502
41.3849 11.4527
41.4327 11.452
41.4803 11.3541
41.5281 11.2593
41.5758 11.2567
41.6236 11.1769
41.6712 11.1423
41.7191 11.1509
41.7667 11.123
41.8146 11.0628
41.8622 11.0522
41.9101 10.9808
41.9578 10.9369
42.0057 10.907
42.0534 10.8883
42.1013 10.9811
42.149 10.8498
42.1969 10.8176
42.2446 10.8449
42.2925 10.8335
42.3403 10.754
42.3882 10.7072
42.436 10.6458
42.4839 10.5539
42.5319 10.5588
42.5797 10.4593
42.6277 10.4756
42.6755 10.4031
42.7235 10.3402
42.7713 10.367
42.8193 10.3534
42.8671 10.2909
42.9152 10.2049
42.963 10.2181
43.0111 10.214
43.0589 10.1042
43.107 10.1034
43.1549 10.0946
43.2029 10.0428
43.2508 10.0322
43.2989 9.94803
43.3468 9.9226
43.3949 9.86384
43.4429 9.86121
43.491 9.85787
43.5389 9.81247
43.5871 9.74315
43.635 9.72734
43.6832 9.73686
43.7312 9.66983
43.7793 9.60012
43.8273 9.62759
43.8755 9.61703
43.9237 9.51664
43.9717 9.53358
44.0199 9.53865
44.068 9.47445
44.1162 9.43434
44.1642 9.44476
44.2125 9.40889
44.2606 9.3648
44.3088 9.31443
44.3569 9.31476
44.4052 9.25073
44.4533 9.17495
44.5016 9.16821
44.5497 9.15597
44.598 9.16927
44.6461 9.12745
44.6945 9.0842
44.7426 9.07968
44.791 9.04395
44.8391 9.012
44.8875 8.94314
44.9357 8.91315
44.984 8.91213
45.0322 8.86429
45.0806 8.85112
45.1288 8.83234
45.1773 8.78019
45.2257 8.79804
45.2739 8.73639
45.3224 8.70103
45.3706 8.68923
45.4191 8.60394
45.4673 8.62133
45.5158 8.60633
45.5641 8.54562
45.6126 8.48019
45.6609 8.47149
45.7094 8.44811
45.7577 8.46202
45.8063 8.45384
45.8546 8.34184
45.9031 8.33064
45.9515 8.34375
46.0001 8.29108
46.0484 8.28919
46.097 8.27941
46.1454 8.23487
46.194 8.22147
46.2424 8.16758
46.291 8.16201
46.3395 8.11204
46.3881 8.08474
46.4365 8.03139
46.4852 8.03023
46.5337 8.01351
46.5823 7.95717
46.631 7.92316
46.6795 7.88754
46.7282 7.91074
46.7767 7.84699
46.8254 7.80964
46.8739 7.7773
46.9226 7.72225
46.9712 7.73644
47.0199 7.68232
47.0685 7.69993
47.1173 7.61783
47.1658 7.63469
47.2146 7.58893
47.2632 7.54824
47.312 7.51812
47.3606 7.47132
47.4095 7.4634
47.4581 7.4705
47.5069 7.38674
47.5556 7.44252
47.6044 7.37041
47.6531 7.33676
47.702 7.31014
47.7507 7.31148
47.7996 7.26411
47.8483 7.25445
47.8972 7.2566
47.9461 7.19817
47.9948 7.14856
48.0438 7.1558
48.0925 7.10901
48.1415 7.12065
48.1902 7.04909
48.2392 7.09205
48.288 7.04732
48.337 7.01603
48.3858 6.97407
48.4348 6.96298
48.4837 6.95123
48.5327 6.89037
48.5815 6.8582
48.6306 6.84341
48.6795 6.80762
48.7285 6.75824
48.7774 6.76773
48.8265 6.77048
48.8754 6.73013
48.9245 6.66172
48.9734 6.70109
49.0226 6.69373
49.0715 6.62274
49.1206 6.63722
49.1696 6.5502
49.2188 6.55504
49.2679 6.55172
49.3169 6.48894
49.3661 6.46898
49.4151 6.45369
49.4643 6.44303
49.5134 6.43329
49.5626 6.39468
49.6117 6.38094
49.6609 6.3617
49.71 6.32665
49.7592 6.32929
49.8083 6.26848
49.8576 6.27392
49.9067 6.24811
49.956 6.19416
50.0052 6.23647
50.0545 6.15932
50.1036 6.15336
50.153 6.12063
50.2022 6.13663
50.2515 6.08483
50.3007 6.06626
50.3501 6.02668
50.3993 6.05741
50.4487 6.01577
50.498 5.98297
50.5474 5.95685
50.5966 5.96598
50.6461 5.90625
50.6955 5.91049
50.7448 5.86643
50.7943 5.87644
50.8436 5.85228
50.8931 5.79524
50.9424 5.77545
50.9919 5.78019
51.0413 5.74623
51.0908 5.73739
51.1402 5.71637
51.1897 5.69223
51.2391 5.67505
51.2887 5.65169
51.3381 5.60712
51.3877 5.60565
51.4371 5.55033
51.4867 5.53809
51.5362 5.52482
51.5858 5.4695
51.6353 5.476
51.6849 5.46796
51.7344 5.43492
51.7841 5.40979
51.8336 5.40728
51.8833 5.3876
51.9328 5.3939
51.9826 5.35909
52.0323 5.32646
52.0818 5.29166
52.1316 5.25188
52.1812 5.2566
52.231 5.25997
52.2806 5.19795
52.3304 5.21562
52.38 5.15893
52.4298 5.14279
52.4794 5.12773
52.5293 5.10697
52.5789 5.10009
52.6288 5.05961
52.6785 5.02398
52.7284 5.00917
52.7781 5.01939
52.828 4.99237
52.8777 4.97817
52.9276 4.94799
52.9774 4.91943
53.0273 4.93475
53.0771 4.85403
53.1271 4.88474
53.1769 4.88402
53.2269 4.82937
53.2767 4.82882
53.3267 4.81484
53.3765 4.77959
53.4266 4.7755
53.4766 4.70601
53.5265 4.67307
53.5765 4.71497
53.6264 4.67963
53.6765 4.65756
53.7264 4.63134
53.7765 4.62454
53.8265 4.58242
53.8766 4.54986
53.9266 4.55265
53.9767 4.51199
54.0267 4.50081
54.0769 4.43972
54.1269 4.45958
54.1771 4.4405
54.2271 4.42904
54.2773 4.38546
54.3274 4.34251
54.3776 4.35879
54.4277 4.30183
54.478 4.25796
54.528 4.23526
54.5783 4.21796
54.6285 4.12037
54.6788 4.11379
54.7289 4.1131
54.7792 4.08039
54.8296 4.03714
54.8798 4.02203
54.9301 3.97666
54.9803 3.98525
55.0307 3.9855
55.0809 3.92252
55.1314 3.873
55.1816 3.80506
55.232 3.79494
55.2823 3.74997
55.3328 3.72953
55.383 3.69191
55.4335 3.64533
55.4838 3.64599
55.5344 3.57994
55.5847 3.52075
55.6352 3.54746
55.6856 3.52159
55.7361 3.53905