File: XRD/Ni3Fe_FD0191.xy
TT I
1.27165 8.03013
1.31627 7.09787
1.36089 7.31219
1.40551 6.36172
1.45013 6.48488
1.49476 6.90964
1.53938 6.3826
1.584 5.81542
1.62863 5.62775
1.67325 6.05672
1.71787 5.65453
1.7625 5.12376
1.80712 5.53374
1.85174 4.92695
1.89636 5.11478
1.94099 4.78307
1.98562 5.74725
2.03025 4.47374
2.07487 4.58505
2.11949 4.83274
2.16411 4.75742
2.20874 4.59414
2.25338 4.49022
2.298 4.98746
2.34263 4.84479
2.38725 4.88563
2.43188 4.06331
2.4765 5.53666
2.52115 4.96938
2.56577 5.29169
2.6104 5.85667
2.65503 5.3008
2.69965 5.71751
2.7443 6.64942
2.78893 6.88666
2.83356 7.15622
2.87818 8.62901
2.92281 9.10491
2.96744 10.0681
3.01209 10.6137
3.05672 11.5014
3.10135 13.1219
3.14599 13.0931
3.19062 14.875
3.23527 15.5035
3.2799 16.3893
3.32454 16.9458
3.36917 18.038
3.4138 19.2476
3.45844 19.9127
3.50309 21.1252
3.54773 21.4346
3.59237 22.2767
3.637 23.222
3.68164 24.1191
3.7263 24.9001
3.77094 25.54
3.81558 26.4931
3.86022 27.2625
3.90486 28.6834
3.9495 29.6096
3.99416 30.5707
4.0388 31.9265
4.08344 33.2972
4.12809 34.2178
4.17273 35.8445
4.21738 36.7223
4.26204 38.2999
4.30669 39.439
4.35133 41.535
4.39598 43.285
4.44063 44.838
4.4853 47.4064
4.52995 49.4405
4.5746 51.604
4.61925 54.6152
4.6639 56.4462
4.70855 59.6297
4.75322 62.7565
4.79788 66.4294
4.84253 69.7452
4.88719 74.4907
4.93184 79.5023
4.97652 86.9393
5.02118 95.6037
5.06583 105.546
5.11049 121.117
5.15515 159.568
5.19981 614.57
5.24449 3961.19
5.28916 9268.07
5.33382 5271.12
5.37848 352.148
5.42315 159.934
5.46783 129.891
5.5125 117.646
5.55716 111.168
5.60183 105.771
5.6465 102.777
5.69117 101.681
5.73586 99.4725
5.78053 99.1415
5.8252 99.7307
5.86988 102.089
5.91455 109.128
5.95924 127.91
6.00392 320.363
6.0486 1453.58
6.09328 3126.86
6.13795 3834.31
6.18263 518.079
6.22733 116.277
6.27201 89.8617
6.3167 80.4809
6.36138 75.2571
6.40606 71.1661
6.45075 69.121
6.49545 67.0906
6.54014 65.0155
6.58483 63.5549
6.62952 62.5935
6.67421 61.0407
6.71892 60.0696
6.76361 59.3685
6.8083 58.1919
6.853 57.6965
6.89769 57.2258
6.94239 56.7661
6.98711 55.8939
7.03181 55.7213
7.07651 55.5986
7.12121 55.0475
7.16591 54.8477
7.21063 54.5107
7.25533 54.613
7.30004 54.1736
7.34475 54.3044
7.38945 54.8747
7.43416 54.1426
7.47889 54.3703
7.5236 58.0479
7.56831 62.7595
7.61303 56.7768
7.65774 56.0645
7.70247 56.6286
7.74719 56.6763
7.79191 57.5615
7.83663 57.5328
7.88135 58.9255
7.92607 59.5991
7.97081 60.6847
8.01553 62.0614
8.06026 63.5706
8.10498 65.0468
8.14971 66.8437
8.19446 68.4025
8.23919 71.3833
8.28392 74.1385
8.32865 77.3337
8.37339 81.8856
8.41812 87.6015
8.46288 100.908
8.50761 200.043
8.55235 622.86
8.59709 966.254
8.64183 1686.31
8.68658 1467.03
8.73134 307.915
8.77609 114.631
8.82083 99.4823
8.86558 94.0862
8.91033 91.5629
8.9551 88.9909
8.99985 87.0194
9.04461 87.3181
9.08936 85.8463
9.13412 84.9559
9.17888 85.2789
9.22365 90.5508
9.26841 96.2554
9.31318 88.4443
9.35794 85.7228
9.4027 86.4788
9.44749 86.8974
9.49226 87.3784
9.53703 88.6352
9.5818 90.408
9.62657 91.3971
9.67134 92.9026
9.71614 94.9211
9.76091 97.8154
9.80569 100.254
9.85047 103.72
9.89525 109.186
9.94005 120.039
9.98484 214.979
10.0296 561.333
10.0744 772.025
10.1192 1201.89
10.164 1697.04
10.2088 774.699
10.2536 177.2
10.2984 118.107
10.3432 111.333
10.388 109.011
10.4328 133.231
10.4776 222.589
10.5224 274.306
10.5672 379.355
10.612 515.118
10.6568 319.793
10.7017 121.96
10.7465 92.5608
10.7913 86.7032
10.8361 83.7853
10.8809 81.2994
10.9257 78.9655
10.9706 77.7386
11.0154 76.0762
11.0602 74.3887
11.105 73.3878
11.1499 72.1141
11.1947 70.7668
11.2395 69.6694
11.2844 69.0082
11.3292 68.1098
11.374 67.6055
11.4189 66.7779
11.4637 66.2953
11.5086 65.4758
11.5534 65.0241
11.5983 64.9583
11.6431 64.7218
11.688 64.2929
11.7328 64.1718
11.7777 64.2637
11.8225 63.7811
11.8674 63.8994
11.9122 64.9894
11.9571 67.4663
12.002 67.0024
12.0468 71.8095
12.0917 94.7236
12.1366 110.514
12.1814 127.705
12.2263 168.166
12.2712 191.054
12.3161 121.255
12.3609 72.6687
12.4058 66.1577
12.4507 66.0094
12.4956 65.8364
12.5405 65.613
12.5853 66.4426
12.6302 66.6083
12.6751 67.2059
12.72 68.1934
12.7649 69.0139
12.8098 69.7646
12.8547 71.2814
12.8996 72.7321
12.9445 74.4344
12.9894 76.5794
13.0343 78.3883
13.0792 82.8548
13.1242 92.2118
13.1691 142.772
13.214 188.197
13.2589 216.521
13.3038 274.882
13.3487 379.258
13.3937 348.215
13.4386 174.418
13.4835 120.759
13.5285 158.786
13.5734 182.378
13.6183 207.212
13.6633 265.426
13.7082 342.671
13.7531 267.325
13.7981 131.029
13.843 87.8114
13.888 83.2442
13.9329 80.2844
13.9779 78.6933
14.0228 76.9255
14.0678 75.5575
14.1127 75.9153
14.1577 75.7626
14.2027 74.7339
14.2476 72.9184
14.2926 72.0756
14.3376 71.7807
14.3825 71.3497
14.4275 71.0527
14.4725 70.841
14.5175 71.0465
14.5624 70.9258
14.6074 71.2423
14.6524 71.882
14.6974 72.468
14.7424 74.3381
14.7874 86.6802
14.8324 109.835
14.8774 122.13
14.9224 135.111
14.9674 162.874
15.0124 203.836
15.0574 190.745
15.1024 120.288
15.1474 79.3367
15.1924 73.111
15.2374 71.2973
15.2824 70.2917
15.3274 69.3066
15.3725 68.7993
15.4175 68.3944
15.4625 68.0978
15.5076 67.9133
15.5526 67.7462
15.5976 68.0795
15.6426 69.2857
15.6877 78.6403
15.7327 97.6014
15.7778 107.556
15.8228 115.945
15.8679 135.55
15.9129 168.73
15.958 179.969
16.003 131.602
16.0481 79.9493
16.0931 66.1527
16.1382 63.4058
16.1833 62.1499
16.2283 60.8039
16.2734 60.058
16.3185 59.4246
16.3636 58.6001
16.4086 57.8727
16.4537 57.4649
16.4988 57.0424
16.5439 56.9459
16.589 56.6039
16.6341 56.4955
16.6792 55.8715
16.7243 56.2327
16.7694 56.1456
16.8145 56.0386
16.8596 56.2412
16.9047 56.6028
16.9498 56.8422
16.9949 56.96
17.04 57.2734
17.0851 59.293
17.1302 63.2487
17.1754 65.7466
17.2205 67.3249
17.2656 70.4436
17.3108 76.8218
17.3559 82.7239
17.401 79.5605
17.4462 69.0506
17.4913 62.1385
17.5365 61.0047
17.5815 61.0212
17.6268 61.3578
17.6718 61.8121
17.7171 62.2522
17.7622 63.3409
17.8074 64.2628
17.8525 66.6946
17.8977 75.7745
17.9428 85.203
17.9881 89.2817
18.0331 94.7787
18.0784 104.425
18.1237 123.193
18.1688 142.88
18.214 131.566
18.2591 101.574
18.3044 88.4011
18.3495 90.7694
18.3948 99.9495
18.4399 103.256
18.4852 89.9244
18.5303 73.7277
18.5756 65.5241
18.6207 63.5241
18.666 62.4899
18.7112 61.7674
18.7565 60.8963
18.8016 60.4399
18.8469 60.0373
18.892 59.6453
18.9374 59.2369
18.9825 58.5655
19.0278 58.4414
19.073 58.6876
19.1183 59.4109
19.1635 61.4677
19.2088 62.9318
19.254 63.8964
19.2993 65.3323
19.3447 68.0926
19.3898 72.2761
19.4352 74.9523
19.4804 70.5359
19.5257 62.1531
19.5709 56.9435
19.6163 55.7539
19.6615 55.3495
19.7068 55.1043
19.752 54.8887
19.7974 55.2549
19.8426 56.715
19.888 58.3266
19.9332 59.5649
19.9786 60.3293
20.0238 61.279
20.0692 64.9771
20.1144 69.4924
20.1598 72.9981
20.205 69.5227
20.2504 64.6639
20.2957 62.4628
20.3411 63.9523
20.3863 66.0554
20.4318 63.7595
20.477 57.783
20.5224 53.7063
20.5677 52.3591
20.6131 51.8262
20.6586 51.2281
20.7038 51.075
20.7493 50.6818
20.7945 50.5644
20.84 50.2662
20.8853 50.3249
20.9307 50.0788
20.976 50.4154
21.0215 50.3197
21.0668 50.7449
21.1122 51.0543
21.1575 50.9616
21.203 51.3522
21.2483 51.8684
21.2938 52.9313
21.3391 52.411
21.3846 51.067
21.4299 50.3746
21.4754 49.9177
21.5207 50.1308
21.5662 50.2676
21.6116 50.8899
21.6571 52.7158
21.7024 54.1667
21.7479 55.0649
21.7933 55.912
21.8388 57.7294
21.8843 60.9348
21.9297 63.9484
21.9752 66.2477
22.0206 64.3987
22.0661 59.4465
22.1115 56.864
22.157 56.7492
22.2024 57.1849
22.248 54.91
22.2933 52.3966
22.3389 51.0547
22.3843 50.4201
22.4299 49.9228
22.4753 50.2182
22.5208 50.0703
22.5662 49.9318
22.6118 50.1569
22.6572 50.5567
22.7028 51.7908
22.7483 52.6118
22.7939 52.894
22.8393 53.2719
22.8849 54.15
22.9303 55.0168
22.9759 56.7722
23.0214 58.4952
23.067 58.2297
23.1126 55.1989
23.1581 52.1569
23.2037 50.655
23.2492 50.5639
23.2948 51.0941
23.3403 52.1164
23.3859 52.5102
23.4314 52.6434
23.477 53.1539
23.5225 53.9158
23.5682 55.178
23.6137 57.3416
23.6593 58.2379
23.7048 56.3832
23.7505 52.326
23.796 49.0073
23.8417 47.6884
23.8872 47.0497
23.9329 46.7503
23.9784 46.3996
24.0241 46.0824
24.0697 45.9164
24.1154 45.4314
24.1609 45.2529
24.2066 45.1387
24.2522 44.9504
24.2979 44.7873
24.3434 44.6692
24.3892 44.3844
24.4349 44.6413
24.4805 44.169
24.5262 44.3166
24.5718 43.9879
24.6175 44.1124
24.6631 44.1166
24.7089 43.9951
24.7545 43.5373
24.8002 43.5509
24.8458 43.6639
24.8916 43.6122
24.9372 43.6752
24.983 44.1158
25.0286 44.2862
25.0744 44.5371
25.12 44.9419
25.1658 45.2886
25.2114 45.609
25.2572 45.8831
25.3029 45.6021
25.3487 45.6964
25.3943 45.7133
25.4402 45.5842
25.4858 44.695
25.5316 43.2972
25.5773 42.4741
25.6231 42.2406
25.669 41.7665
25.7147 41.7844
25.7605 41.7619
25.8062 41.9007
25.8521 42.0542
25.8977 41.9295
25.9436 41.9863
25.9893 41.8514
26.0352 42.2942
26.0809 42.2402
26.1268 42.7019
26.1725 42.8114
26.2184 42.4925
26.2641 41.973
26.31 41.6582
26.3557 41.788
26.4017 41.6787
26.4474 41.7777
26.4933 41.8569
26.5391 42.1302
26.585 42.3124
26.6308 42.7348
26.6767 42.9581
26.7225 43.3598
26.7684 43.1243
26.8142 42.3683
26.8601 41.8644
26.9059 41.4808
26.9519 40.9909
26.9979 40.701
27.0437 40.2589
27.0896 40.0655
27.1354 40.0781
27.1814 39.8272
27.2272 39.6793
27.2732 39.9266
27.3191 39.5432
27.3651 39.6875
27.4109 39.5928
27.4569 39.5749
27.5027 39.5932
27.5488 39.5141
27.5946 39.5418
27.6407 39.6126
27.6865 39.573
27.7326 39.2584
27.7784 39.3436
27.8245 39.1233
27.8703 39.1823
27.9164 39.3978
27.9623 39.3813
28.0084 39.6231
28.0543 39.7963
28.1003 39.864
28.1462 39.9884
28.1923 39.8089
28.2384 39.2837
28.2843 38.9394
28.3304 38.5086
28.3764 38.1502
28.4225 37.7601
28.4684 37.304
28.5145 37.0476
28.5605 37.0335
28.6066 36.7635
28.6526 36.7344
28.6987 36.6402
28.7447 36.5941
28.7908 36.4206
28.8368 36.2515
28.8829 36.3906
28.9289 36.1661
28.9751 36.1502
29.0211 36.1
29.0673 35.8845
29.1133 35.7377
29.1595 35.6146
29.2055 35.3672
29.2517 35.2757
29.2977 35.229
29.3439 35.1908
29.3899 35.1015
29.4361 35.0197
29.4824 34.9441
29.5284 34.9343
29.5746 34.5269
29.6207 34.2869
29.6669 34.1311
29.713 33.8732
29.7593 33.8472
29.8053 33.7355
29.8516 33.6765
29.8977 33.7179
29.9439 33.5233
29.99 33.5891
30.0363 33.483
30.0824 33.4483
30.1287 33.288
30.1748 33.3541
30.2211 33.2454
30.2673 33.1429
30.3136 33.399
30.3597 33.2992
30.406 33.2508
30.4522 33.1142
30.4985 32.9721
30.5447 33.0249
30.591 32.9283
30.6372 33.0378
30.6835 32.9167
30.7297 33.0696
30.7761 33.0405
30.8224 33.0091
30.8686 32.9681
30.915 32.644
30.9612 32.4738
31.0076 32.2835
31.0538 32.1728
31.1002 32.1901
31.1464 32.0044
31.1928 31.8724
31.2391 31.974
31.2855 31.8169
31.3317 31.7783
31.3781 31.6745
31.4244 31.7234
31.4708 31.5055
31.5171 31.5888
31.5636 31.6957
31.6098 31.436
31.6563 31.3639
31.7026 31.208
31.7491 31.1256
31.7953 31.0888
31.8418 30.8905
31.8881 31.0015
31.9346 30.966
31.9809 30.9121
32.0275 30.8171
32.074 30.7812
32.1203 30.5588
32.1668 30.3775
32.2132 30.2845
32.2597 30.1834
32.306 30.1047
32.3526 29.8683
32.399 29.8302
32.4455 29.6858
32.4919 29.5745
32.5385 29.464
32.5848 29.321
32.6314 29.3346
32.6778 29.1714
32.7244 29.0842
32.7708 29.07
32.8174 28.9786
32.8638 28.8035
32.9104 28.9955
32.9569 28.8834
33.0035 28.7733
33.0499 28.6434
33.0966 28.5215
33.143 28.5284
33.1897 28.4596
33.2361 28.3721
33.2828 28.3779
33.3293 28.2019
33.3759 28.1671
33.4226 28.139
33.4691 27.9705
33.5158 27.8026
33.5623 27.6456
33.609 27.6102
33.6555 27.4369
33.7022 27.4004
33.7487 27.2523
33.7954 27.2685
33.842 27.1039
33.8887 27.0424
33.9353 27.0387
33.982 26.9066
34.0286 26.8413
34.0753 26.8118
34.1219 26.6696
34.1687 26.5267
34.2152 26.4313
34.262 26.4216
34.3086 26.2802
34.3554 26.194
34.402 26.1574
34.4488 26.0221
34.4954 26.0651
34.5422 25.8598
34.5889 25.7517
34.6357 25.7386
34.6825 25.6392
34.7292 25.5334
34.776 25.4945
34.8227 25.3758
34.8695 25.3574
34.9162 25.2752
34.9631 25.196
35.0098 25.1996
35.0566 25.1314
35.1033 25.0117
35.1502 25.0139
35.1969 24.992
35.2438 24.8283
35.2906 24.7199
35.3375 24.6877
35.3842 24.68
35.4311 24.6415
35.4779 24.5116
35.5248 24.6113
35.5716 24.4551
35.6185 24.3222
35.6653 24.2359
35.7123 24.2036
35.759 24.1208
35.806 24.0743
35.8528 23.9542
35.8998 23.9021
35.9468 23.7723
35.9936 23.7949
36.0406 23.6428
36.0874 23.601
36.1345 23.5056
36.1813 23.4707
36.2283 23.3807
36.2752 23.2712
36.3222 23.3071
36.3691 23.2197
36.4161 23.0187
36.463 23.1098
36.5101 23.0253
36.557 23.0026
36.6041 22.7642
36.651 22.7689
36.6981 22.7787
36.745 22.7076
36.7921 22.6394
36.839 22.446
36.8861 22.4528
36.9331 22.3567
36.9802 22.3013
37.0272 22.2217
37.0743 22.0769
37.1213 22.1145
37.1684 22.0569
37.2154 21.9719
37.2626 21.8782
37.3098 21.7262
37.3568 21.7721
37.404 21.737
37.451 21.5417
37.4982 21.5466
37.5452 21.4966
37.5924 21.437
37.6395 21.3868
37.6867 21.3154
37.7337 21.2418
37.781 21.1434
37.8281 21.0947
37.8753 20.984
37.9224 20.9096
37.9697 20.8669
38.0168 20.8151
38.064 20.7141
38.1111 20.6281
38.1584 20.5794
38.2056 20.4952
38.2529 20.5021
38.3 20.3655
38.3473 20.3594
38.3945 20.2438
38.4418 20.229
38.489 20.1774
38.5363 20.0196
38.5837 19.9734
38.6309 19.9767
38.6782 19.8729
38.7254 19.7529
38.7728 19.7702
38.82 19.6637
38.8674 19.6559
38.9146 19.5968
38.9621 19.5264
39.0093 19.5183
39.0567 19.4783
39.104 19.3978
39.1514 19.2147
39.1987 19.2316
39.2461 19.1885
39.2934 19.1265
39.3409 18.9662
39.3882 18.8822
39.4356 18.8795
39.483 18.8094
39.5304 18.7759
39.5778 18.7472
39.6253 18.7292
39.6726 18.5738
39.7201 18.5475
39.7675 18.5062
39.815 18.421
39.8624 18.3174
39.9099 18.3109
39.9575 18.2811
40.0049 18.188
40.0525 18.1309
40.0999 18.0872
40.1474 18.0461
40.1949 17.9395
40.2425 17.8469
40.2899 17.7951
40.3375 17.8364
40.385 17.7265
40.4326 17.6828
40.48 17.6121
40.5277 17.575
40.5752 17.4985
40.6228 17.391
40.6703 17.3818
40.718 17.3894
40.7655 17.2939
40.8132 17.1784
40.8607 17.2542
40.9084 17.1486
40.9559 17.035
41.0036 17.0106
41.0512 16.936
41.0989 16.9184
41.1465 16.8247
41.1942 16.7729
41.242 16.7109
41.2896 16.6523
41.3373 16.6485
41.3849 16.5926
41.4327 16.4297
41.4803 16.4314
41.5281 16.4334
41.5758 16.3286
41.6236 16.2762
41.6712 16.1639
41.7191 16.2347
41.7667 16.1212
41.8146 16.1
41.8622 15.9992
41.9101 15.9829
41.9578 15.8571
42.0057 15.8258
42.0534 15.7595
42.1013 15.749
42.149 15.6529
42.1969 15.6192
42.2446 15.6201
42.2925 15.5081
42.3403 15.4988
42.3882 15.4497
42.436 15.4165
42.4839 15.3107
42.5319 15.2866
42.5797 15.2612
42.6277 15.2148
42.6755 15.1231
42.7235 15.0427
42.7713 15.0196
42.8193 14.9562
42.8671 14.9349
42.9152 14.8276
42.963 14.8017
43.0111 14.7462
43.0589 14.6879
43.107 14.6878
43.1549 14.6482
43.2029 14.573
43.2508 14.5016
43.2989 14.4337
43.3468 14.3783
43.3949 14.3818
43.4429 14.3182
43.491 14.2427
43.5389 14.22
43.5871 14.1593
43.635 14.1348
43.6832 14.1095
43.7312 14.0062
43.7793 14.0164
43.8273 13.9354
43.8755 13.8492
43.9237 13.8096
43.9717 13.7776
44.0199 13.7421
44.068 13.6967
44.1162 13.6599
44.1642 13.5808
44.2125 13.581
44.2606 13.4904
44.3088 13.4092
44.3569 13.3987
44.4052 13.3084
44.4533 13.2863
44.5016 13.2516
44.5497 13.2061
44.598 13.1661
44.6461 13.1151
44.6945 13.0684
44.7426 13.0248
44.791 12.9616
44.8391 12.9532
44.8875 12.8887
44.9357 12.8442
44.984 12.8251
45.0322 12.7538
45.0806 12.6807
45.1288 12.6781
45.1773 12.6114
45.2257 12.608
45.2739 12.5165
45.3224 12.4993
45.3706 12.4297
45.4191 12.4006
45.4673 12.3289
45.5158 12.3344
45.5641 12.2536
45.6126 12.2364
45.6609 12.1417
45.7094 12.109
45.7577 12.094
45.8063 12.0009
45.8546 11.966
45.9031 11.9347
45.9515 11.9284
46.0001 11.8685
46.0484 11.882
46.097 11.7769
46.1454 11.7632
46.194 11.7428
46.2424 11.6554
46.291 11.5909
46.3395 11.5795
46.3881 11.5373
46.4365 11.5086
46.4852 11.4478
46.5337 11.3968
46.5823 11.3761
46.631 11.3035
46.6795 11.2743
46.7282 11.1943
46.7767 11.1807
46.8254 11.1737
46.8739 11.1294
46.9226 11.0809
46.9712 11.0418
47.0199 10.976
47.0685 10.9865
47.1173 10.9423
47.1658 10.8968
47.2146 10.8491
47.2632 10.8199
47.312 10.7656
47.3606 10.7164
47.4095 10.6665
47.4581 10.6743
47.5069 10.5826
47.5556 10.538
47.6044 10.4847
47.6531 10.4827
47.702 10.4224
47.7507 10.382
47.7996 10.3643
47.8483 10.3669
47.8972 10.327
47.9461 10.2666
47.9948 10.1949
48.0438 10.1793
48.0925 10.1913
48.1415 10.1461
48.1902 10.0803
48.2392 10.0168
48.288 10.0191
48.337 10.0007
48.3858 9.91136
48.4348 9.9261
48.4837 9.86663
48.5327 9.84385
48.5815 9.78064
48.6306 9.7655
48.6795 9.74732
48.7285 9.66666
48.7774 9.64927
48.8265 9.59961
48.8754 9.60578
48.9245 9.51757
48.9734 9.4757
49.0226 9.47915
49.0715 9.42894
49.1206 9.36897
49.1696 9.32803
49.2188 9.30521
49.2679 9.25036
49.3169 9.26514
49.3661 9.20571
49.4151 9.18831
49.4643 9.13621
49.5134 9.11031
49.5626 9.0678
49.6117 9.05371
49.6609 9.02496
49.71 8.96151
49.7592 8.93518
49.8083 8.89118
49.8576 8.86758
49.9067 8.81076
49.956 8.8005
50.0052 8.75988
50.0545 8.75258
50.1036 8.67844
50.153 8.682
50.2022 8.63342
50.2515 8.59391
50.3007 8.52319
50.3501 8.52099
50.3993 8.51248
50.4487 8.43277
50.498 8.42561
50.5474 8.41383
50.5966 8.36829
50.6461 8.34296
50.6955 8.32468
50.7448 8.29885
50.7943 8.25308
50.8436 8.17376
50.8931 8.1623
50.9424 8.15662
50.9919 8.11829
51.0413 8.09433
51.0908 8.05528
51.1402 8.04019
51.1897 7.98826
51.2391 7.95972
51.2887 7.91195
51.3381 7.88818
51.3877 7.86014
51.4371 7.83641
51.4867 7.77405
51.5362 7.7804
51.5858 7.74179
51.6353 7.71606
51.6849 7.66438
51.7344 7.63953
51.7841 7.55745
51.8336 7.59596
51.8833 7.53375
51.9328 7.49077
51.9826 7.48479
52.0323 7.46546
52.0818 7.40863
52.1316 7.37204
52.1812 7.33826
52.231 7.32312
52.2806 7.26612
52.3304 7.24476
52.38 7.20078
52.4298 7.20739
52.4794 7.20247
52.5293 7.13296
52.5789 7.1094
52.6288 7.09822
52.6785 7.05293
52.7284 7.00643
52.7781 7.005
52.828 6.98036
52.8777 6.89458
52.9276 6.94648
52.9774 6.90153
53.0273 6.83253
53.0771 6.83546
53.1271 6.81891
53.1769 6.78243
53.2269 6.74381
53.2767 6.67171
53.3267 6.69658
53.3765 6.67879
53.4266 6.63225
53.4766 6.57248
53.5265 6.56898
53.5765 6.52303
53.6264 6.53311
53.6765 6.49797
53.7264 6.46474
53.7765 6.46221
53.8265 6.42111
53.8766 6.35588
53.9266 6.33232
53.9767 6.33048
54.0267 6.28945
54.0769 6.21975
54.1269 6.2196
54.1771 6.14434
54.2271 6.14806
54.2773 6.08449
54.3274 6.06542
54.3776 6.00555
54.4277 6.02853
54.478 5.96604
54.528 5.90797
54.5783 5.84002
54.6285 5.81547
54.6788 5.75667
54.7289 5.70534
54.7792 5.71958
54.8296 5.66866
54.8798 5.63107
54.9301 5.59168
54.9803 5.51928
55.0307 5.53391
55.0809 5.46872
55.1314 5.46134
55.1816 5.3556
55.232 5.29757
55.2823 5.26506
55.3328 5.15935
55.383 5.12799
55.4335 5.13042
55.4838 5.07
55.5344 5.03929
55.5847 4.96227
55.6352 4.9547
55.6856 4.95704
55.7361 4.88153