File: XRD/Ni3Fe_FD0056.xy
TT I
1.27165 32.6872
1.31627 31.0226
1.36089 29.5898
1.40551 27.184
1.45013 26.7468
1.49476 25.4209
1.53938 25.2836
1.584 23.3214
1.62863 22.7161
1.67325 22.0502
1.71787 21.767
1.7625 21.1668
1.80712 20.7762
1.85174 21.0409
1.89636 21.2558
1.94099 20.9669
1.98562 20.4691
2.03025 20.3716
2.07487 20.0816
2.11949 20.7197
2.16411 20.8379
2.20874 19.8358
2.25338 20.717
2.298 21.0409
2.34263 20.555
2.38725 21.4527
2.43188 21.9795
2.4765 21.8173
2.52115 21.3796
2.56577 22.8398
2.6104 23.4729
2.65503 24.1687
2.69965 25.4958
2.7443 27.2615
2.78893 29.459
2.83356 32.6311
2.87818 36.1963
2.92281 41.0292
2.96744 47.0903
3.01209 55.3379
3.05672 64.0292
3.10135 73.5632
3.14599 76.4316
3.19062 74.2622
3.23527 65.5851
3.2799 55.0905
3.32454 45.7432
3.36917 39.2279
3.4138 34.4448
3.45844 31.4477
3.50309 28.9542
3.54773 27.3319
3.59237 27.2672
3.637 25.9887
3.68164 25.6944
3.7263 26.377
3.77094 25.6587
3.81558 26.232
3.86022 25.9745
3.90486 26.8024
3.9495 27.0678
3.99416 27.2744
4.0388 28.2375
4.08344 28.4587
4.12809 29.3632
4.17273 30.666
4.21738 32.4536
4.26204 34.1243
4.30669 37.2835
4.35133 41.3045
4.39598 40.2156
4.44063 37.6887
4.4853 37.5068
4.52995 38.4049
4.5746 39.9169
4.61925 41.6338
4.6639 43.1857
4.70855 45.5448
4.75322 48.016
4.79788 51.1232
4.84253 55.2714
4.88719 61.3694
4.93184 69.5304
4.97652 83.5385
5.02118 105.241
5.06583 123.088
5.11049 142.932
5.15515 190.341
5.19981 321.779
5.24449 747.39
5.28916 1707.38
5.33382 4154.76
5.37848 3001.55
5.42315 757.454
5.46783 294.893
5.5125 192.236
5.55716 149.677
5.60183 125.951
5.6465 115.593
5.69117 110.258
5.73586 103.421
5.78053 101.29
5.8252 102.019
5.86988 108.01
5.91455 120.395
5.95924 143.932
6.00392 202.638
6.0486 343.041
6.09328 587.188
6.13795 1072.95
6.18263 1076.21
6.22733 468.213
6.27201 211.108
6.3167 127.121
6.36138 91.3746
6.40606 73.367
6.45075 64.0061
6.49545 57.3837
6.54014 53.4096
6.58483 50.2276
6.62952 47.7095
6.67421 45.6157
6.71892 44.1028
6.76361 43.0381
6.8083 42.242
6.853 41.5904
6.89769 41.5783
6.94239 41.5184
6.98711 41.5284
7.03181 42.6007
7.07651 44.9911
7.12121 46.1639
7.16591 43.2738
7.21063 40.6821
7.25533 39.9105
7.30004 39.6769
7.34475 39.6247
7.38945 39.6527
7.43416 40.3191
7.47889 42.8528
7.5236 62.0262
7.56831 175.169
7.61303 165.275
7.65774 61.6762
7.70247 43.9977
7.74719 40.2926
7.79191 39.5529
7.83663 38.7082
7.88135 39.3811
7.92607 39.3938
7.97081 39.9058
8.01553 40.6039
8.06026 41.2102
8.10498 42.1877
8.14971 43.343
8.19446 44.8481
8.23919 46.8273
8.28392 50.0346
8.32865 53.0342
8.37339 56.3382
8.41812 60.1535
8.46288 68.6051
8.50761 85.5194
8.55235 128.225
8.59709 190.105
8.64183 285.104
8.68658 600.44
8.73134 719.027
8.77609 340.828
8.82083 158.39
8.86558 102.452
8.91033 83.607
8.9551 74.3671
8.99985 70.0929
9.04461 66.9847
9.08936 65.6703
9.13412 65.5656
9.17888 70.1669
9.22365 96.2211
9.26841 268.717
9.31318 316.688
9.35794 115.239
9.4027 70.0317
9.44749 62.6158
9.49226 59.4457
9.53703 58.2824
9.5818 57.9567
9.62657 58.0445
9.67134 58.1662
9.71614 59.476
9.76091 60.1934
9.80569 62.1923
9.85047 64.6685
9.89525 68.3641
9.94005 74.9146
9.98484 88.7288
10.0296 124.076
10.0744 169.973
10.1192 215.442
10.164 377.039
10.2088 697.494
10.2536 583.461
10.2984 254.588
10.3432 139.44
10.388 97.8805
10.4328 84.9733
10.4776 85.6514
10.5224 93.0348
10.5672 100.124
10.612 135.634
10.6568 231.822
10.7017 263.437
10.7465 188.257
10.7913 95.2953
10.8361 64.0768
10.8809 55.6055
10.9257 52.3117
10.9706 50.2502
11.0154 47.9086
11.0602 46.6689
11.105 45.5652
11.1499 44.5106
11.1947 44.311
11.2395 44.0406
11.2844 43.5412
11.3292 42.1274
11.374 41.5688
11.4189 40.99
11.4637 40.3948
11.5086 40.0542
11.5534 39.9968
11.5983 39.785
11.6431 39.7552
11.688 39.4841
11.7328 39.8704
11.7777 40.0047
11.8225 40.401
11.8674 41.619
11.9122 45.621
11.9571 70.0059
12.002 116.574
12.0468 88.0685
12.0917 53.7867
12.1366 49.6995
12.1814 50.8233
12.2263 55.3444
12.2712 67.4006
12.3161 85.8726
12.3609 82.8479
12.4058 62.5269
12.4507 50.4466
12.4956 45.1853
12.5405 42.7405
12.5853 41.392
12.6302 40.4472
12.6751 40.3323
12.72 40.315
12.7649 40.571
12.8098 41.1163
12.8547 41.4439
12.8996 42.0714
12.9445 42.9043
12.9894 43.7945
13.0343 45.4883
13.0792 49.041
13.1242 59.2929
13.1691 68.5213
13.214 66.9636
13.2589 69.6049
13.3038 73.8966
13.3487 90.0822
13.3937 135.143
13.4386 189.416
13.4835 164.402
13.5285 108.351
13.5734 86.7396
13.6183 79.803
13.6633 79.9101
13.7082 97.4549
13.7531 143.082
13.7981 180.921
13.843 132.219
13.888 81.8
13.9329 62.0367
13.9779 54.4273
14.0228 51.1436
14.0678 49.8677
14.1127 51.2736
14.1577 67.512
14.2027 102.699
14.2476 91.0089
14.2926 56.2422
14.3376 46.9331
14.3825 44.5322
14.4275 43.3088
14.4725 42.5559
14.5175 42.5161
14.5624 42.0739
14.6074 41.9469
14.6524 41.8806
14.6974 42.1766
14.7424 42.7768
14.7874 43.5534
14.8324 46.1955
14.8774 49.5315
14.9224 51.8774
14.9674 53.7248
15.0124 61.0296
15.0574 79.7731
15.1024 105.572
15.1474 102.459
15.1924 77.4018
15.2374 58.6966
15.2824 48.9394
15.3274 44.8407
15.3725 43.1042
15.4175 42.2321
15.4625 41.7913
15.5076 41.5835
15.5526 41.3468
15.5976 41.1598
15.6426 41.2763
15.6877 41.8176
15.7327 43.6694
15.7778 46.4298
15.8228 48.491
15.8679 49.936
15.9129 54.1055
15.958 66.3372
16.003 88.143
16.0481 102.582
16.0931 93.28
16.1382 76.3153
16.1833 56.6601
16.2283 44.4739
16.2734 40.6545
16.3185 38.6269
16.3636 37.4641
16.4086 36.5818
16.4537 35.7288
16.4988 35.1559
16.5439 35.2195
16.589 34.7312
16.6341 34.522
16.6792 34.2543
16.7243 34.3397
16.7694 34.2366
16.8145 34.1186
16.8596 34.5117
16.9047 35.1943
16.9498 38.1794
16.9949 42.9759
17.04 41.6678
17.0851 36.8424
17.1302 35.5559
17.1754 35.7045
17.2205 36.2061
17.2656 36.1591
17.3108 36.9783
17.3559 38.4891
17.401 41.6779
17.4462 46.5493
17.4913 47.6159
17.5365 43.2893
17.5815 39.1915
17.6268 37.6561
17.6718 37.0442
17.7171 37.2802
17.7622 38.7748
17.8074 42.8478
17.8525 45.0688
17.8977 42.5331
17.9428 41.7323
17.9881 42.4429
18.0331 43.4478
18.0784 44.0177
18.1237 46.4462
18.1688 51.7836
18.214 64.0594
18.2591 79.3229
18.3044 78.7037
18.3495 63.6789
18.3948 53.3789
18.4399 51.8886
18.4852 56.6771
18.5303 63.207
18.5756 60.6264
18.6207 53.8543
18.666 47.7508
18.7112 42.2662
18.7565 39.3003
18.8016 38.1503
18.8469 37.4287
18.892 36.9091
18.9374 36.4892
18.9825 36.0299
19.0278 35.7673
19.073 35.8483
19.1183 35.6732
19.1635 35.8051
19.2088 36.2141
19.254 36.7093
19.2993 37.7047
19.3447 41.5058
19.3898 47.6184
19.4352 48.5913
19.4804 44.9842
19.5257 44.7996
19.5709 43.7279
19.6163 40.2277
19.6615 37.0172
19.7068 35.3964
19.752 34.461
19.7974 33.9414
19.8426 33.678
19.888 33.5317
19.9332 33.5961
19.9786 33.9298
20.0238 33.89
20.0692 34.1499
20.1144 34.594
20.1598 36.0752
20.205 38.1526
20.2504 41.3504
20.2957 42.2166
20.3411 39.4963
20.3863 37.6068
20.4318 37.7446
20.477 39.7354
20.5224 40.1345
20.5677 37.8426
20.6131 34.9894
20.6586 33.0411
20.7038 32.6623
20.7493 32.0659
20.7945 33.1997
20.84 35.2204
20.8853 35.1704
20.9307 32.8633
20.976 31.2911
21.0215 30.6482
21.0668 30.6539
21.1122 30.7237
21.1575 30.3461
21.203 30.366
21.2483 30.4354
21.2938 30.6797
21.3391 30.9384
21.3846 31.3902
21.4299 32.3114
21.4754 32.1896
21.5207 31.9678
21.5662 31.608
21.6116 30.969
21.6571 30.7174
21.7024 30.9146
21.7479 31.3047
21.7933 31.4954
21.8388 31.5602
21.8843 31.9535
21.9297 32.6069
21.9752 33.8141
22.0206 35.9319
22.0661 38.847
22.1115 40.4682
22.157 39.7355
22.2024 38.7815
22.248 37.8145
22.2933 36.9063
22.3389 35.8691
22.3843 34.2001
22.4299 32.47
22.4753 31.768
22.5208 31.3034
22.5662 30.8998
22.6118 30.947
22.6572 30.6837
22.7028 30.8489
22.7483 31.026
22.7939 31.3021
22.8393 32.34
22.8849 32.6449
22.9303 32.1789
22.9759 31.9043
23.0214 31.9717
23.067 33.038
23.1126 34.8759
23.1581 36.6337
23.2037 36.732
23.2492 34.6354
23.2948 32.7064
23.3403 31.9097
23.3859 31.8545
23.4314 32.3231
23.477 33.3679
23.5225 33.9038
23.5682 33.0927
23.6137 32.4583
23.6593 32.5779
23.7048 33.7886
23.7505 35.848
23.796 37.0442
23.8417 35.8973
23.8872 33.2222
23.9329 31.4902
23.9784 30.2693
24.0241 29.7841
24.0697 29.6875
24.1154 29.5367
24.1609 29.2065
24.2066 28.735
24.2522 28.4698
24.2979 28.0448
24.3434 27.8947
24.3892 27.7824
24.4349 27.7095
24.4805 27.5878
24.5262 27.65
24.5718 27.3971
24.6175 27.4727
24.6631 27.9839
24.7089 28.2498
24.7545 28.5441
24.8002 28.0498
24.8458 27.5757
24.8916 27.0179
24.9372 27.0268
24.983 27.0318
25.0286 27.005
25.0744 27.0646
25.12 26.9148
25.1658 27.1332
25.2114 27.2744
25.2572 27.4177
25.3029 28.0242
25.3487 28.4671
25.3943 28.5819
25.4402 28.2748
25.4858 28.5237
25.5316 28.8803
25.5773 28.9345
25.6231 28.5476
25.669 27.4342
25.7147 26.8564
25.7605 26.459
25.8062 26.5433
25.8521 26.6845
25.8977 26.8106
25.9436 26.6506
25.9893 26.1896
26.0352 26.1222
26.0809 25.8618
26.1268 25.9501
26.1725 26.0824
26.2184 26.3794
26.2641 26.5803
26.31 26.913
26.3557 26.8636
26.4017 26.5332
26.4474 26.4195
26.4933 26.0436
26.5391 25.9476
26.585 25.9859
26.6308 25.88
26.6767 25.8415
26.7225 26.0336
26.7684 26.5057
26.8142 26.9636
26.8601 27.4928
26.9059 27.5359
26.9519 27.4489
26.9979 27.4807
27.0437 27.3317
27.0896 26.8241
27.1354 26.2655
27.1814 25.6464
27.2272 25.3995
27.2732 25.2775
27.3191 25.0425
27.3651 25.1158
27.4109 24.8515
27.4569 24.91
27.5027 24.9507
27.5488 24.9566
27.5946 24.9817
27.6407 24.9415
27.6865 24.8847
27.7326 25.0453
27.7784 25.1087
27.8245 24.9079
27.8703 24.7889
27.9164 24.6483
27.9623 24.5957
28.0084 24.7982
28.0543 25.0445
28.1003 25.184
28.1462 25.2163
28.1923 25.1401
28.2384 25.3985
28.2843 25.562
28.3304 25.5247
28.3764 25.208
28.4225 24.9947
28.4684 24.9428
28.5145 24.5145
28.5605 24.2428
28.6066 24.0067
28.6526 23.8267
28.6987 23.6288
28.7447 23.5039
28.7908 23.2105
28.8368 23.2038
28.8829 23.0518
28.9289 22.8566
28.9751 22.9046
29.0211 22.8222
29.0673 22.9644
29.1133 23.0059
29.1595 22.9929
29.2055 22.89
29.2517 22.6367
29.2977 22.4685
29.3439 22.1889
29.3899 22.236
29.4361 22.163
29.4824 22.1561
29.5284 22.0519
29.5746 22.0814
29.6207 22.0341
29.6669 22.085
29.713 21.9452
29.7593 21.7663
29.8053 21.6866
29.8516 21.5396
29.8977 21.5117
29.9439 21.2607
29.99 21.3789
30.0363 21.3171
30.0824 21.4665
30.1287 21.4308
30.1748 21.3915
30.2211 21.393
30.2673 20.996
30.3136 21.0758
30.3597 21.1092
30.406 21.1745
30.4522 21.0876
30.4985 21.1313
30.5447 21.0424
30.591 20.8305
30.6372 20.8846
30.6835 20.8516
30.7297 20.8438
30.7761 20.907
30.8224 20.9273
30.8686 21.0451
30.915 21.0414
30.9612 21.2088
31.0076 21.2354
31.0538 21.132
31.1002 21.0577
31.1464 20.8891
31.1928 20.7737
31.2391 20.7286
31.2855 20.4144
31.3317 20.397
31.3781 20.3784
31.4244 20.3549
31.4708 20.1831
31.5171 20.2139
31.5636 20.2788
31.6098 20.2235
31.6563 20.311
31.7026 20.3065
31.7491 20.316
31.7953 20.2946
31.8418 20.1632
31.8881 20.0918
31.9346 19.9003
31.9809 19.7948
32.0275 19.822
32.074 19.8067
32.1203 19.8726
32.1668 19.8171
32.2132 19.8228
32.2597 19.7851
32.306 19.7341
32.3526 19.5902
32.399 19.5153
32.4455 19.342
32.4919 19.2819
32.5385 19.1781
32.5848 19.0811
32.6314 19.0843
32.6778 18.927
32.7244 18.857
32.7708 18.6806
32.8174 18.7749
32.8638 18.6221
32.9104 18.6839
32.9569 18.7263
33.0035 18.6556
33.0499 18.614
33.0966 18.4744
33.143 18.4363
33.1897 18.4058
33.2361 18.3271
33.2828 18.361
33.3293 18.2681
33.3759 18.2457
33.4226 18.2252
33.4691 18.2446
33.5158 18.2286
33.5623 18.1339
33.609 18.0609
33.6555 18.009
33.7022 17.8856
33.7487 17.7522
33.7954 17.6311
33.842 17.6502
33.8887 17.6115
33.9353 17.5515
33.982 17.467
34.0286 17.4631
34.0753 17.3577
34.1219 17.4005
34.1687 17.3156
34.2152 17.3409
34.262 17.2258
34.3086 17.1072
34.3554 17.0823
34.402 16.9381
34.4488 16.8861
34.4954 16.9532
34.5422 16.8562
34.5889 16.7822
34.6357 16.7189
34.6825 16.7005
34.7292 16.6172
34.776 16.5548
34.8227 16.5417
34.8695 16.5054
34.9162 16.4979
34.9631 16.3933
35.0098 16.4253
35.0566 16.2291
35.1033 16.3033
35.1502 16.2627
35.1969 16.1689
35.2438 16.1611
35.2906 16.112
35.3375 16.0293
35.3842 15.9933
35.4311 15.9871
35.4779 15.9935
35.5248 15.9485
35.5716 15.9495
35.6185 15.8705
35.6653 15.9357
35.7123 15.904
35.759 15.9277
35.806 15.8313
35.8528 15.6805
35.8998 15.7726
35.9468 15.597
35.9936 15.5992
36.0406 15.4886
36.0874 15.4538
36.1345 15.3996
36.1813 15.3562
36.2283 15.2041
36.2752 15.2412
36.3222 15.2368
36.3691 15.1894
36.4161 15.0944
36.463 15.1927
36.5101 15.1769
36.557 15.1341
36.6041 14.9603
36.651 14.9423
36.6981 14.9091
36.745 14.9077
36.7921 14.8078
36.839 14.8366
36.8861 14.735
36.9331 14.7463
36.9802 14.6859
37.0272 14.6194
37.0743 14.5235
37.1213 14.4903
37.1684 14.476
37.2154 14.3861
37.2626 14.3189
37.3098 14.2905
37.3568 14.3095
37.404 14.2843
37.451 14.2084
37.4982 14.1782
37.5452 14.0857
37.5924 14.0898
37.6395 14.0418
37.6867 14.0465
37.7337 14.0105
37.781 13.8404
37.8281 13.8807
37.8753 13.8029
37.9224 13.8239
37.9697 13.7124
38.0168 13.7389
38.064 13.6095
38.1111 13.6056
38.1584 13.5519
38.2056 13.5117
38.2529 13.4323
38.3 13.5033
38.3473 13.4335
38.3945 13.3375
38.4418 13.2427
38.489 13.2998
38.5363 13.1815
38.5837 13.1918
38.6309 13.1756
38.6782 13.1258
38.7254 13.0209
38.7728 13.0275
38.82 12.9316
38.8674 12.9401
38.9146 12.9066
38.9621 12.8364
39.0093 12.8467
39.0567 12.8406
39.104 12.7199
39.1514 12.7071
39.1987 12.6761
39.2461 12.6598
39.2934 12.6125
39.3409 12.5557
39.3882 12.5029
39.4356 12.4504
39.483 12.4348
39.5304 12.4286
39.5778 12.3599
39.6253 12.3228
39.6726 12.2806
39.7201 12.2754
39.7675 12.2268
39.815 12.1943
39.8624 12.1749
39.9099 12.1451
39.9575 12.0947
40.0049 12.0747
40.0525 12.0282
40.0999 11.9968
40.1474 11.9536
40.1949 11.915
40.2425 11.8467
40.2899 11.8793
40.3375 11.8272
40.385 11.8037
40.4326 11.7241
40.48 11.6571
40.5277 11.6965
40.5752 11.6381
40.6228 11.5855
40.6703 11.5413
40.718 11.5623
40.7655 11.5623
40.8132 11.443
40.8607 11.4759
40.9084 11.3783
40.9559 11.3919
41.0036 11.3453
41.0512 11.3065
41.0989 11.2993
41.1465 11.1594
41.1942 11.2056
41.242 11.1541
41.2896 11.141
41.3373 11.0552
41.3849 11.0586
41.4327 11.02
41.4803 11.0057
41.5281 10.9562
41.5758 10.8739
41.6236 10.8247
41.6712 10.845
41.7191 10.7942
41.7667 10.7549
41.8146 10.7517
41.8622 10.7252
41.9101 10.654
41.9578 10.6276
42.0057 10.6551
42.0534 10.5687
42.1013 10.545
42.149 10.523
42.1969 10.4784
42.2446 10.431
42.2925 10.3987
42.3403 10.352
42.3882 10.3655
42.436 10.3687
42.4839 10.2586
42.5319 10.188
42.5797 10.1858
42.6277 10.1496
42.6755 10.1243
42.7235 10.0845
42.7713 10.0701
42.8193 10.0218
42.8671 9.97583
42.9152 9.99141
42.963 9.91808
43.0111 9.89916
43.0589 9.86657
43.107 9.80473
43.1549 9.78381
43.2029 9.73724
43.2508 9.75336
43.2989 9.69146
43.3468 9.66098
43.3949 9.6184
43.4429 9.56677
43.491 9.52018
43.5389 9.57538
43.5871 9.45978
43.635 9.46517
43.6832 9.42928
43.7312 9.41472
43.7793 9.34804
43.8273 9.3672
43.8755 9.29208
43.9237 9.29228
43.9717 9.26385
44.0199 9.25727
44.068 9.2298
44.1162 9.17346
44.1642 9.15379
44.2125 9.13939
44.2606 9.10394
44.3088 9.04549
44.3569 9.0488
44.4052 8.99314
44.4533 8.95674
44.5016 8.9197
44.5497 8.91213
44.598 8.87381
44.6461 8.85034
44.6945 8.80408
44.7426 8.75622
44.791 8.75528
44.8391 8.74501
44.8875 8.68219
44.9357 8.6938
44.984 8.68115
45.0322 8.58536
45.0806 8.60562
45.1288 8.5144
45.1773 8.48227
45.2257 8.52044
45.2739 8.49217
45.3224 8.43997
45.3706 8.38917
45.4191 8.33413
45.4673 8.37059
45.5158 8.33658
45.5641 8.2698
45.6126 8.27052
45.6609 8.26797
45.7094 8.22008
45.7577 8.1201
45.8063 8.15271
45.8546 8.13057
45.9031 8.08238
45.9515 8.06911
46.0001 8.02179
46.0484 7.99609
46.097 8.00562
46.1454 7.93162
46.194 7.94607
46.2424 7.9105
46.291 7.85235
46.3395 7.84602
46.3881 7.82801
46.4365 7.8286
46.4852 7.79639
46.5337 7.73724
46.5823 7.74825
46.631 7.71824
46.6795 7.6698
46.7282 7.67577
46.7767 7.58616
46.8254 7.57664
46.8739 7.53061
46.9226 7.52903
46.9712 7.49363
47.0199 7.46381
47.0685 7.4651
47.1173 7.38778
47.1658 7.39024
47.2146 7.35081
47.2632 7.31796
47.312 7.30394
47.3606 7.27503
47.4095 7.23646
47.4581 7.22932
47.5069 7.2134
47.5556 7.18654
47.6044 7.18162
47.6531 7.11806
47.702 7.09046
47.7507 7.08533
47.7996 7.01907
47.8483 7.01877
47.8972 7.00259
47.9461 6.9524
47.9948 6.93215
48.0438 6.94298
48.0925 6.92119
48.1415 6.90704
48.1902 6.87199
48.2392 6.87376
48.288 6.81967
48.337 6.79829
48.3858 6.74453
48.4348 6.72944
48.4837 6.75469
48.5327 6.73053
48.5815 6.66761
48.6306 6.67322
48.6795 6.59562
48.7285 6.59874
48.7774 6.59118
48.8265 6.55247
48.8754 6.519
48.9245 6.51976
48.9734 6.48436
49.0226 6.50006
49.0715 6.4349
49.1206 6.41177
49.1696 6.38591
49.2188 6.36585
49.2679 6.36709
49.3169 6.29261
49.3661 6.29703
49.4151 6.27238
49.4643 6.25572
49.5134 6.20628
49.5626 6.16343
49.6117 6.1773
49.6609 6.16472
49.71 6.1318
49.7592 6.15145
49.8083 6.0636
49.8576 6.07737
49.9067 6.05815
49.956 6.035
50.0052 5.99791
50.0545 5.9879
50.1036 5.93653
50.153 5.97123
50.2022 5.94056
50.2515 5.91746
50.3007 5.85526
50.3501 5.84754
50.3993 5.84199
50.4487 5.83776
50.498 5.77936
50.5474 5.78323
50.5966 5.74557
50.6461 5.70694
50.6955 5.74586
50.7448 5.68389
50.7943 5.67905
50.8436 5.66449
50.8931 5.59473
50.9424 5.60694
50.9919 5.59409
51.0413 5.54343
51.0908 5.55234
51.1402 5.51296
51.1897 5.5196
51.2391 5.49651
51.2887 5.44471
51.3381 5.42904
51.3877 5.41633
51.4371 5.39187
51.4867 5.37277
51.5362 5.35661
51.5858 5.31358
51.6353 5.31197
51.6849 5.30563
51.7344 5.30695
51.7841 5.28544
51.8336 5.22896
51.8833 5.21669
51.9328 5.16671
51.9826 5.14058
52.0323 5.15781
52.0818 5.17312
52.1316 5.10905
52.1812 5.09223
52.231 5.04822
52.2806 5.06528
52.3304 4.99411
52.38 5.00106
52.4298 4.9929
52.4794 4.93648
52.5293 4.9173
52.5789 4.91964
52.6288 4.93218
52.6785 4.88492
52.7284 4.8808
52.7781 4.84225
52.828 4.82976
52.8777 4.81708
52.9276 4.8177
52.9774 4.78119
53.0273 4.77525
53.0771 4.71789
53.1271 4.69996
53.1769 4.70078
53.2269 4.67369
53.2767 4.64757
53.3267 4.62031
53.3765 4.62985
53.4266 4.58628
53.4766 4.58601
53.5265 4.54633
53.5765 4.57329
53.6264 4.5337
53.6765 4.48416
53.7264 4.46405
53.7765 4.47305
53.8265 4.44221
53.8766 4.44293
53.9266 4.43745
53.9767 4.36595
54.0267 4.3826
54.0769 4.3248
54.1269 4.29434
54.1771 4.28279
54.2271 4.28636
54.2773 4.23443
54.3274 4.23922
54.3776 4.17268
54.4277 4.15747
54.478 4.16587
54.528 4.06538
54.5783 4.04286
54.6285 3.98015
54.6788 3.94271
54.7289 3.96243
54.7792 3.96345
54.8296 3.89821
54.8798 3.86121
54.9301 3.88824
54.9803 3.7861
55.0307 3.81878
55.0809 3.75967
55.1314 3.73828
55.1816 3.67327
55.232 3.65869
55.2823 3.63851
55.3328 3.5592
55.383 3.52198
55.4335 3.54264
55.4838 3.44681
55.5344 3.46145
55.5847 3.38562
55.6352 3.44225
55.6856 3.40641
55.7361 3.35785