File: XRD/Ni3Fe_FD0250.xy
TT I
1.27165 8.17155
1.31627 7.17427
1.36089 6.60456
1.40551 6.32987
1.45013 6.11977
1.49476 6.28767
1.53938 6.32168
1.584 6.0937
1.62863 5.27308
1.67325 5.18926
1.71787 5.61309
1.7625 4.85268
1.80712 4.98553
1.85174 5.53561
1.89636 5.25124
1.94099 5.45488
1.98562 4.61051
2.03025 4.19512
2.07487 4.76267
2.11949 4.50014
2.16411 4.86607
2.20874 4.40244
2.25338 4.37427
2.298 4.33192
2.34263 4.89212
2.38725 4.30354
2.43188 5.05487
2.4765 4.69028
2.52115 5.21298
2.56577 5.69106
2.6104 6.03301
2.65503 6.45478
2.69965 7.21219
2.7443 6.74279
2.78893 7.26241
2.83356 7.51382
2.87818 7.84393
2.92281 8.82645
2.96744 9.03235
3.01209 10.1252
3.05672 10.926
3.10135 12.571
3.14599 12.9519
3.19062 14.4286
3.23527 15.1126
3.2799 15.9876
3.32454 17.0773
3.36917 17.4507
3.4138 18.6969
3.45844 19.4974
3.50309 20.9621
3.54773 21.6437
3.59237 22.4243
3.637 23.3333
3.68164 23.8067
3.7263 25.1657
3.77094 26.0169
3.81558 26.9323
3.86022 27.9774
3.90486 29.1853
3.9495 30.2344
3.99416 30.9316
4.0388 32.6564
4.08344 33.8358
4.12809 34.9679
4.17273 36.4885
4.21738 38.0052
4.26204 39.3467
4.30669 40.7675
4.35133 42.8329
4.39598 44.347
4.44063 46.0953
4.4853 48.3993
4.52995 52.8652
4.5746 53.9964
4.61925 56.2519
4.6639 58.4851
4.70855 60.9107
4.75322 64.8181
4.79788 68.0798
4.84253 71.467
4.88719 77.2873
4.93184 81.0737
4.97652 88.1217
5.02118 96.5912
5.06583 106.702
5.11049 123.436
5.15515 169.717
5.19981 896.214
5.24449 3984.36
5.28916 10607.4
5.33382 3929.14
5.37848 262.05
5.42315 151.986
5.46783 129.559
5.5125 117.942
5.55716 111.605
5.60183 106.301
5.6465 104.096
5.69117 102.768
5.73586 100.88
5.78053 102.605
5.8252 102.889
5.86988 104.964
5.91455 109.522
5.95924 132.385
6.00392 446.638
6.0486 1429.93
6.09328 3753.65
6.13795 3615.27
6.18263 338.82
6.22733 107.304
6.27201 88.5089
6.3167 80.5069
6.36138 76.1279
6.40606 72.7577
6.45075 70.9146
6.49545 68.277
6.54014 66.7497
6.58483 65.5278
6.62952 64.363
6.67421 62.5387
6.71892 61.4365
6.76361 60.7836
6.8083 60.1839
6.853 59.5698
6.89769 58.6584
6.94239 57.9088
6.98711 57.6527
7.03181 57.1302
7.07651 56.5343
7.12121 55.9069
7.16591 56.8867
7.21063 56.0595
7.25533 55.9774
7.30004 55.582
7.34475 55.9759
7.38945 55.8396
7.43416 55.5463
7.47889 55.1622
7.5236 55.8437
7.56831 57.1508
7.61303 57.1382
7.65774 57.307
7.70247 58.23
7.74719 58.1548
7.79191 59.1386
7.83663 59.2242
7.88135 60.3029
7.92607 61.048
7.97081 62.3462
8.01553 63.8248
8.06026 65.4002
8.10498 66.8055
8.14971 69.1914
8.19446 70.665
8.23919 73.0987
8.28392 75.9927
8.32865 79.0301
8.37339 84.2467
8.41812 90.4249
8.46288 111.909
8.50761 292.953
8.55235 580.169
8.59709 1094.23
8.64183 2004.21
8.68658 1147.33
8.73134 205.213
8.77609 109.367
8.82083 100.086
8.86558 95.7969
8.91033 93.3054
8.9551 90.8832
8.99985 89.4233
9.04461 88.707
9.08936 87.9487
9.13412 87.0771
9.17888 86.5943
9.22365 86.1995
9.26841 86.3585
9.31318 88.029
9.35794 88.8798
9.4027 88.2517
9.44749 89.0246
9.49226 89.7377
9.53703 90.7137
9.5818 92.9874
9.62657 94.5686
9.67134 95.6298
9.71614 97.6827
9.76091 100.143
9.80569 103.425
9.85047 106.54
9.89525 112.208
9.94005 138.69
9.98484 304.279
10.0296 513.459
10.0744 817.839
10.1192 1493.25
10.164 1688.32
10.2088 515.574
10.2536 146.039
10.2984 117.015
10.3432 112.696
10.388 115.63
10.4328 159.099
10.4776 210.432
10.5224 286.2
10.5672 456.068
10.612 523.907
10.6568 242.746
10.7017 105.751
10.7465 91.8969
10.7913 87.5535
10.8361 84.9874
10.8809 82.8268
10.9257 80.3129
10.9706 79.5602
11.0154 77.5971
11.0602 76.089
11.105 74.8922
11.1499 73.3075
11.1947 72.1394
11.2395 71.1835
11.2844 70.7141
11.3292 69.5527
11.374 69.035
11.4189 68.6486
11.4637 67.7637
11.5086 67.0407
11.5534 66.5486
11.5983 66.3081
11.6431 66.1114
11.688 65.5878
11.7328 65.3995
11.7777 65.6843
11.8225 65.1622
11.8674 65.2697
11.9122 65.9015
11.9571 66.3682
12.002 68.6701
12.0468 79.9982
12.0917 94.1164
12.1366 109.739
12.1814 142.117
12.2263 197.179
12.2712 182.393
12.3161 101.968
12.3609 69.6851
12.4058 67.2177
12.4507 67.1645
12.4956 67.3339
12.5405 67.3251
12.5853 67.9596
12.6302 68.3607
12.6751 68.9686
12.72 69.6492
12.7649 70.8008
12.8098 71.9563
12.8547 73.254
12.8996 74.882
12.9445 76.6174
12.9894 78.3768
13.0343 80.7842
13.0792 86.971
13.1242 111.449
13.1691 145.538
13.214 175.213
13.2589 233.09
13.3038 329.606
13.3487 421.571
13.3937 300.903
13.4386 145.983
13.4835 132.921
13.5285 151.898
13.5734 176.181
13.6183 229.349
13.6633 318.182
13.7082 358.82
13.7531 221.659
13.7981 108.963
13.843 86.6283
13.888 83.7399
13.9329 81.3399
13.9779 79.8555
14.0228 78.0754
14.0678 76.9583
14.1127 76.1682
14.1577 75.1769
14.2027 74.7284
14.2476 73.918
14.2926 73.236
14.3376 72.9147
14.3825 72.8503
14.4275 72.2069
14.4725 72.4096
14.5175 72.477
14.5624 72.4846
14.6074 72.8876
14.6524 73.6377
14.6974 74.4804
14.7424 81.7036
14.7874 94.736
14.8324 105.941
14.8774 120.276
14.9224 147.248
14.9674 190.321
15.0124 221.58
15.0574 166.537
15.1024 99.0204
15.1474 76.6686
15.1924 73.4699
15.2374 72.2612
15.2824 71.041
15.3274 70.314
15.3725 69.8256
15.4175 69.9194
15.4625 69.3516
15.5076 69.0273
15.5526 69.0682
15.5976 69.7546
15.6426 75.2001
15.6877 85.8084
15.7327 94.2427
15.7778 104.068
15.8228 123.546
15.8679 154.713
15.9129 189.612
15.958 168.917
16.003 107.198
16.0481 71.8229
16.0931 65.4276
16.1382 63.542
16.1833 62.8815
16.2283 61.5146
16.2734 60.9357
16.3185 60.1435
16.3636 59.4814
16.4086 58.8612
16.4537 58.4139
16.4988 57.9673
16.5439 57.8534
16.589 57.6209
16.6341 57.484
16.6792 56.7939
16.7243 56.8905
16.7694 57.021
16.8145 56.9561
16.8596 57.2029
16.9047 57.5034
16.9498 57.5818
16.9949 57.695
17.04 59.2543
17.0851 61.7608
17.1302 63.5607
17.1754 65.7248
17.2205 69.1524
17.2656 74.2368
17.3108 82.7592
17.3559 85.4743
17.401 76.8255
17.4462 66.3064
17.4913 62.1858
17.5365 61.9593
17.5815 62.1426
17.6268 62.4786
17.6718 63.0889
17.7171 63.6334
17.7622 64.487
17.8074 66.5473
17.8525 72.2421
17.8977 77.7673
17.9428 82.6729
17.9881 88.3582
18.0331 99.8923
18.0784 116.359
18.1237 139.411
18.1688 141.717
18.214 115.836
18.2591 92.6879
18.3044 90.5365
18.3495 97.4856
18.3948 106.543
18.4399 101.037
18.4852 82.6095
18.5303 69.4927
18.5756 65.1877
18.6207 64.2272
18.666 63.2447
18.7112 62.2851
18.7565 61.8754
18.8016 61.6848
18.8469 60.8787
18.892 60.3734
18.9374 60.0769
18.9825 59.6218
19.0278 59.542
19.073 60.3768
19.1183 61.1939
19.1635 61.8634
19.2088 62.8422
19.254 64.6987
19.2993 67.4338
19.3447 71.6204
19.3898 76.7304
19.4352 75.8683
19.4804 67.69
19.5257 60.0287
19.5709 56.7334
19.6163 56.3997
19.6615 56.1034
19.7068 55.8998
19.752 56.1272
19.7974 56.894
19.8426 58.0558
19.888 58.545
19.9332 59.356
19.9786 61.4347
20.0238 64.393
20.0692 68.7458
20.1144 72.4291
20.1598 72.4212
20.205 67.6966
20.2504 64.2122
20.2957 64.6748
20.3411 66.7018
20.3863 66.8928
20.4318 61.7901
20.477 56.4168
20.5224 53.5524
20.5677 52.8824
20.6131 52.4612
20.6586 51.9258
20.7038 51.772
20.7493 51.1474
20.7945 51.184
20.84 51.1211
20.8853 50.9595
20.9307 51.2067
20.976 51.1001
21.0215 51.0647
21.0668 51.2869
21.1122 51.6758
21.1575 52.0522
21.203 52.4959
21.2483 53.2472
21.2938 53.8942
21.3391 52.7419
21.3846 51.5481
21.4299 50.7259
21.4754 50.8525
21.5207 51.0822
21.5662 51.8357
21.6116 52.5899
21.6571 53.4797
21.7024 54.1334
21.7479 55.3908
21.7933 57.6921
21.8388 60.3492
21.8843 63.6333
21.9297 66.6367
21.9752 66.7964
22.0206 62.7351
22.0661 58.447
22.1115 57.6669
22.157 58.1822
22.2024 57.208
22.248 54.3623
22.2933 52.2907
22.3389 51.274
22.3843 51.1788
22.4299 50.8862
22.4753 50.8865
22.5208 50.8036
22.5662 50.867
22.6118 51.405
22.6572 51.8715
22.7028 52.4576
22.7483 52.7091
22.7939 53.1224
22.8393 54.1895
22.8849 55.4964
22.9303 57.0684
22.9759 59.2502
23.0214 59.7248
23.067 57.6677
23.1126 54.0582
23.1581 51.7893
23.2037 51.269
23.2492 51.5398
23.2948 51.9515
23.3403 52.086
23.3859 52.6185
23.4314 53.166
23.477 54.1536
23.5225 55.6937
23.5682 57.7344
23.6137 59.6571
23.6593 58.3802
23.7048 54.7176
23.7505 50.8206
23.796 48.8539
23.8417 48.4073
23.8872 47.7008
23.9329 47.2356
23.9784 47.0254
24.0241 46.7301
24.0697 46.3826
24.1154 46.1112
24.1609 45.9834
24.2066 45.648
24.2522 45.7164
24.2979 45.5052
24.3434 45.1942
24.3892 45.0245
24.4349 45.0517
24.4805 44.8002
24.5262 44.9002
24.5718 44.8511
24.6175 44.8211
24.6631 44.8363
24.7089 44.3265
24.7545 44.3609
24.8002 44.3184
24.8458 44.3029
24.8916 44.1802
24.9372 44.2027
24.983 44.6956
25.0286 45.0009
25.0744 45.1957
25.12 45.5269
25.1658 46.1011
25.2114 46.4413
25.2572 46.3637
25.3029 46.3352
25.3487 46.5953
25.3943 46.4201
25.4402 45.6309
25.4858 44.502
25.5316 43.407
25.5773 42.7514
25.6231 42.7383
25.669 42.5077
25.7147 42.46
25.7605 42.2637
25.8062 42.4095
25.8521 42.4529
25.8977 42.4478
25.9436 42.5785
25.9893 42.6041
26.0352 42.9923
26.0809 43.0488
26.1268 43.5435
26.1725 43.1885
26.2184 42.7389
26.2641 42.4216
26.31 42.0898
26.3557 41.9911
26.4017 42.0526
26.4474 42.1577
26.4933 42.4673
26.5391 42.8706
26.585 43.1262
26.6308 43.7435
26.6767 43.8643
26.7225 43.8749
26.7684 43.2421
26.8142 42.6631
26.8601 42.2372
26.9059 41.8661
26.9519 41.2839
26.9979 41.0486
27.0437 40.6883
27.0896 40.5013
27.1354 40.5827
27.1814 40.4229
27.2272 40.2402
27.2732 40.2993
27.3191 40.0816
27.3651 40.1904
27.4109 39.9866
27.4569 40.173
27.5027 40.1573
27.5488 40.1927
27.5946 40.1477
27.6407 40.109
27.6865 39.86
27.7326 39.6383
27.7784 39.6019
27.8245 39.5692
27.8703 39.7866
27.9164 39.8637
27.9623 40.0026
28.0084 40.2686
28.0543 40.5448
28.1003 40.6156
28.1462 40.3313
28.1923 40.1143
28.2384 39.745
28.2843 39.2402
28.3304 38.8198
28.3764 38.388
28.4225 38.0281
28.4684 37.8014
28.5145 37.4596
28.5605 37.4083
28.6066 37.2828
28.6526 37.2725
28.6987 37.0654
28.7447 37.021
28.7908 36.8628
28.8368 36.83
28.8829 36.9139
28.9289 36.8571
28.9751 36.682
29.0211 36.4569
29.0673 36.1736
29.1133 36.1472
29.1595 35.9978
29.2055 35.7386
29.2517 35.7715
29.2977 35.6877
29.3439 35.7055
29.3899 35.7359
29.4361 35.6769
29.4824 35.5038
29.5284 35.1671
29.5746 34.9536
29.6207 34.6788
29.6669 34.5206
29.713 34.3816
29.7593 34.2363
29.8053 34.3446
29.8516 34.1682
29.8977 34.1589
29.9439 33.9391
29.99 33.9497
30.0363 33.739
30.0824 33.9738
30.1287 33.8619
30.1748 33.8023
30.2211 33.7788
30.2673 33.7113
30.3136 33.7766
30.3597 33.7657
30.406 33.7066
30.4522 33.4789
30.4985 33.4145
30.5447 33.5803
30.591 33.3473
30.6372 33.4809
30.6835 33.6088
30.7297 33.5897
30.7761 33.471
30.8224 33.4283
30.8686 33.1966
30.915 33.0125
30.9612 33.0179
31.0076 32.6558
31.0538 32.5073
31.1002 32.5393
31.1464 32.4549
31.1928 32.2407
31.2391 32.2519
31.2855 32.2733
31.3317 32.0835
31.3781 32.2185
31.4244 32.1626
31.4708 32.1466
31.5171 32.1654
31.5636 32.0623
31.6098 31.8824
31.6563 31.7272
31.7026 31.5388
31.7491 31.4926
31.7953 31.402
31.8418 31.3239
31.8881 31.5045
31.9346 31.33
31.9809 31.3368
32.0275 31.1832
32.074 31.1385
32.1203 30.9443
32.1668 30.8336
32.2132 30.7278
32.2597 30.4973
32.306 30.485
32.3526 30.2931
32.399 30.162
32.4455 29.9363
32.4919 29.9891
32.5385 29.9346
32.5848 29.785
32.6314 29.7875
32.6778 29.6607
32.7244 29.5637
32.7708 29.3882
32.8174 29.3573
32.8638 29.1951
32.9104 29.3338
32.9569 29.2637
33.0035 29.1041
33.0499 29.0968
33.0966 28.9147
33.143 28.8899
33.1897 28.8024
33.2361 28.7458
33.2828 28.7445
33.3293 28.607
33.3759 28.5328
33.4226 28.3641
33.4691 28.2382
33.5158 28.225
33.5623 28.1422
33.609 27.8976
33.6555 27.8794
33.7022 27.7119
33.7487 27.6481
33.7954 27.6639
33.842 27.4456
33.8887 27.4352
33.9353 27.4016
33.982 27.3682
34.0286 27.1867
34.0753 27.1272
34.1219 26.9728
34.1687 26.8648
34.2152 26.8346
34.262 26.7297
34.3086 26.6287
34.3554 26.6733
34.402 26.4895
34.4488 26.4409
34.4954 26.3196
34.5422 26.3832
34.5889 26.0951
34.6357 26.0753
34.6825 25.9039
34.7292 25.873
34.776 25.7873
34.8227 25.7277
34.8695 25.7045
34.9162 25.6218
34.9631 25.52
35.0098 25.449
35.0566 25.4457
35.1033 25.2833
35.1502 25.2705
35.1969 25.2866
35.2438 25.1868
35.2906 25.1054
35.3375 25.0069
35.3842 24.98
35.4311 25.0276
35.4779 24.8861
35.5248 24.8469
35.5716 24.8279
35.6185 24.6957
35.6653 24.6124
35.7123 24.5013
35.759 24.4854
35.806 24.3273
35.8528 24.193
35.8998 24.1623
35.9468 24.1565
35.9936 24.055
36.0406 24.0062
36.0874 23.9151
36.1345 23.8222
36.1813 23.7911
36.2283 23.6466
36.2752 23.6266
36.3222 23.6352
36.3691 23.5459
36.4161 23.3766
36.463 23.33
36.5101 23.3363
36.557 23.2462
36.6041 23.0861
36.651 23.1263
36.6981 23.0731
36.745 22.947
36.7921 22.9113
36.839 22.7524
36.8861 22.7118
36.9331 22.7276
36.9802 22.6421
37.0272 22.5572
37.0743 22.4627
37.1213 22.3987
37.1684 22.3139
37.2154 22.2757
37.2626 22.1945
37.3098 22.1452
37.3568 22.0661
37.404 22.0335
37.451 21.9252
37.4982 21.8583
37.5452 21.7451
37.5924 21.7339
37.6395 21.667
37.6867 21.6454
37.7337 21.5011
37.781 21.4317
37.8281 21.3816
37.8753 21.2782
37.9224 21.1915
37.9697 21.1253
38.0168 21.1193
38.064 21.0081
38.1111 20.979
38.1584 20.87
38.2056 20.8599
38.2529 20.7091
38.3 20.6937
38.3473 20.6358
38.3945 20.5036
38.4418 20.5092
38.489 20.4229
38.5363 20.3682
38.5837 20.2697
38.6309 20.2501
38.6782 20.1349
38.7254 20.0835
38.7728 19.9762
38.82 19.9521
38.8674 19.8564
38.9146 19.8197
38.9621 19.6882
39.0093 19.7369
39.0567 19.6524
39.104 19.6239
39.1514 19.5119
39.1987 19.4792
39.2461 19.4314
39.2934 19.3605
39.3409 19.2726
39.3882 19.2672
39.4356 19.1173
39.483 19.0416
39.5304 19.0207
39.5778 18.9957
39.6253 18.8806
39.6726 18.804
39.7201 18.8171
39.7675 18.7503
39.815 18.6466
39.8624 18.6301
39.9099 18.5722
39.9575 18.4518
40.0049 18.4422
40.0525 18.3809
40.0999 18.3169
40.1474 18.2444
40.1949 18.197
40.2425 18.1607
40.2899 18.1229
40.3375 18.0702
40.385 17.9403
40.4326 17.918
40.48 17.8468
40.5277 17.7753
40.5752 17.7267
40.6228 17.6999
40.6703 17.6609
40.718 17.5872
40.7655 17.5183
40.8132 17.4583
40.8607 17.4328
40.9084 17.3366
40.9559 17.299
41.0036 17.2989
41.0512 17.148
41.0989 17.1436
41.1465 17.0289
41.1942 17.0274
41.242 16.9281
41.2896 16.8671
41.3373 16.8302
41.3849 16.8262
41.4327 16.7345
41.4803 16.7
41.5281 16.6218
41.5758 16.5577
41.6236 16.4983
41.6712 16.4688
41.7191 16.4032
41.7667 16.3617
41.8146 16.2707
41.8622 16.164
41.9101 16.1859
41.9578 16.0881
42.0057 16.0401
42.0534 15.9823
42.1013 15.957
42.149 15.8887
42.1969 15.8294
42.2446 15.7972
42.2925 15.7543
42.3403 15.7238
42.3882 15.6337
42.436 15.5853
42.4839 15.4745
42.5319 15.4879
42.5797 15.4071
42.6277 15.4039
42.6755 15.3101
42.7235 15.216
42.7713 15.2332
42.8193 15.1184
42.8671 15.119
42.9152 15.0687
42.963 15.05
43.0111 14.9399
43.0589 14.9312
43.107 14.8598
43.1549 14.8057
43.2029 14.7567
43.2508 14.7194
43.2989 14.6972
43.3468 14.5853
43.3949 14.5759
43.4429 14.5157
43.491 14.4345
43.5389 14.3791
43.5871 14.3257
43.635 14.2732
43.6832 14.2607
43.7312 14.2014
43.7793 14.1212
43.8273 14.1319
43.8755 14.0339
43.9237 13.9711
43.9717 13.9631
44.0199 13.8896
44.068 13.8891
44.1162 13.8417
44.1642 13.7513
44.2125 13.7574
44.2606 13.6558
44.3088 13.6025
44.3569 13.578
44.4052 13.5413
44.4533 13.5262
44.5016 13.4019
44.5497 13.3578
44.598 13.3389
44.6461 13.266
44.6945 13.2374
44.7426 13.2053
44.791 13.1906
44.8391 13.1417
44.8875 13.0594
44.9357 13.0488
44.984 13.0098
45.0322 12.9233
45.0806 12.8855
45.1288 12.8374
45.1773 12.7545
45.2257 12.7391
45.2739 12.701
45.3224 12.6804
45.3706 12.6067
45.4191 12.553
45.4673 12.5022
45.5158 12.4939
45.5641 12.4266
45.6126 12.3761
45.6609 12.3932
45.7094 12.2942
45.7577 12.2232
45.8063 12.1809
45.8546 12.1608
45.9031 12.0759
45.9515 12.0856
46.0001 12.0217
46.0484 12.006
46.097 11.9211
46.1454 11.9176
46.194 11.8728
46.2424 11.852
46.291 11.7989
46.3395 11.7414
46.3881 11.661
46.4365 11.6275
46.4852 11.5667
46.5337 11.5476
46.5823 11.5647
46.631 11.4419
46.6795 11.4443
46.7282 11.434
46.7767 11.3451
46.8254 11.2817
46.8739 11.2506
46.9226 11.2059
46.9712 11.1705
47.0199 11.1536
47.0685 11.0815
47.1173 11.0089
47.1658 11.0159
47.2146 10.9914
47.2632 10.9131
47.312 10.9301
47.3606 10.8614
47.4095 10.8455
47.4581 10.7381
47.5069 10.6988
47.5556 10.7062
47.6044 10.6601
47.6531 10.6189
47.702 10.558
47.7507 10.5015
47.7996 10.5043
47.8483 10.4264
47.8972 10.4331
47.9461 10.3863
47.9948 10.3705
48.0438 10.2925
48.0925 10.2758
48.1415 10.2359
48.1902 10.192
48.2392 10.144
48.288 10.1222
48.337 10.1194
48.3858 10.0519
48.4348 9.99385
48.4837 9.98742
48.5327 9.9261
48.5815 9.88229
48.6306 9.8693
48.6795 9.82649
48.7285 9.80327
48.7774 9.75111
48.8265 9.7244
48.8754 9.65905
48.9245 9.67608
48.9734 9.61402
49.0226 9.60415
49.0715 9.53738
49.1206 9.50523
49.1696 9.46622
49.2188 9.46704
49.2679 9.43022
49.3169 9.34625
49.3661 9.32518
49.4151 9.28609
49.4643 9.26699
49.5134 9.1962
49.5626 9.16116
49.6117 9.183
49.6609 9.14692
49.71 9.05738
49.7592 9.04636
49.8083 9.01414
49.8576 8.97404
49.9067 8.91961
49.956 8.91374
50.0052 8.87439
50.0545 8.85486
50.1036 8.8048
50.153 8.76391
50.2022 8.72797
50.2515 8.6711
50.3007 8.6493
50.3501 8.61239
50.3993 8.61851
50.4487 8.58732
50.498 8.54202
50.5474 8.50829
50.5966 8.4652
50.6461 8.44222
50.6955 8.41481
50.7448 8.39721
50.7943 8.33715
50.8436 8.28703
50.8931 8.25389
50.9424 8.24749
50.9919 8.22442
51.0413 8.20444
51.0908 8.14478
51.1402 8.07674
51.1897 8.07057
51.2391 8.05887
51.2887 7.98516
51.3381 7.95968
51.3877 7.95679
51.4371 7.90332
51.4867 7.86418
51.5362 7.83294
51.5858 7.86133
51.6353 7.76623
51.6849 7.72466
51.7344 7.70671
51.7841 7.70108
51.8336 7.66785
51.8833 7.65343
51.9328 7.59119
51.9826 7.54215
52.0323 7.53001
52.0818 7.50504
52.1316 7.41449
52.1812 7.43833
52.231 7.39076
52.2806 7.37351
52.3304 7.30829
52.38 7.29166
52.4298 7.25103
52.4794 7.29229
52.5293 7.24156
52.5789 7.17095
52.6288 7.15346
52.6785 7.11486
52.7284 7.11757
52.7781 7.08469
52.828 7.02347
52.8777 7.00326
52.9276 6.98102
52.9774 7.00827
53.0273 6.95493
53.0771 6.88901
53.1271 6.89555
53.1769 6.82492
53.2269 6.84765
53.2767 6.79026
53.3267 6.76619
53.3765 6.71258
53.4266 6.68248
53.4766 6.64838
53.5265 6.62239
53.5765 6.65098
53.6264 6.59574
53.6765 6.5901
53.7264 6.51434
53.7765 6.4827
53.8265 6.54269
53.8766 6.43179
53.9266 6.44596
53.9767 6.38795
54.0267 6.36043
54.0769 6.33534
54.1269 6.29608
54.1771 6.23733
54.2271 6.22373
54.2773 6.1512
54.3274 6.17855
54.3776 6.09711
54.4277 6.13312
54.478 6.06689
54.528 5.99932
54.5783 5.96443
54.6285 5.90264
54.6788 5.85938
54.7289 5.85921
54.7792 5.82611
54.8296 5.77594
54.8798 5.71096
54.9301 5.68862
54.9803 5.6251
55.0307 5.58988
55.0809 5.55386
55.1314 5.55893
55.1816 5.44299
55.232 5.43859
55.2823 5.33438
55.3328 5.33836
55.383 5.24744
55.4335 5.20097
55.4838 5.1656
55.5344 5.12721
55.5847 5.07156
55.6352 5.05601
55.6856 4.99883
55.7361 5.0188