File: XRD/Ni3Fe_FD0886.xy
TT I
1.27165 7.23943
1.31627 6.33569
1.36089 6.56135
1.40551 5.1983
1.45013 5.75959
1.49476 6.00925
1.53938 6.12609
1.584 5.09932
1.62863 5.05101
1.67325 5.38161
1.71787 5.21039
1.7625 4.84441
1.80712 4.95458
1.85174 4.55489
1.89636 4.67861
1.94099 5.18174
1.98562 5.0857
2.03025 4.67914
2.07487 4.60791
2.11949 4.86036
2.16411 5.10098
2.20874 17.2333
2.25338 29.0471
2.298 6.45957
2.34263 5.5797
2.38725 5.94762
2.43188 6.65012
2.4765 7.30015
2.52115 7.16368
2.56577 8.25266
2.6104 8.72661
2.65503 8.60775
2.69965 8.14644
2.7443 8.81647
2.78893 8.4638
2.83356 9.19469
2.87818 9.31381
2.92281 8.91544
2.96744 10.1049
3.01209 10.5421
3.05672 11.1904
3.10135 12.4413
3.14599 12.9903
3.19062 14.4654
3.23527 15.3992
3.2799 15.9551
3.32454 17.3483
3.36917 18.0349
3.4138 18.9129
3.45844 19.8914
3.50309 20.7262
3.54773 21.7262
3.59237 24.2528
3.637 111.941
3.68164 69.9932
3.7263 26.5534
3.77094 26.2217
3.81558 26.7774
3.86022 27.1776
3.90486 28.9261
3.9495 29.7692
3.99416 31.011
4.0388 32.252
4.08344 33.6362
4.12809 34.9776
4.17273 36.8721
4.21738 43.8953
4.26204 305.511
4.30669 273.993
4.35133 50.0292
4.39598 44.5923
4.44063 55.8928
4.4853 70.89
4.52995 50.1561
4.5746 50.7291
4.61925 52.8595
4.6639 54.505
4.70855 57.3318
4.75322 60.2428
4.79788 62.9012
4.84253 66.2905
4.88719 70.0378
4.93184 73.3774
4.97652 78.9963
5.02118 84.1831
5.06583 91.5428
5.11049 101.598
5.15515 176.344
5.19981 287.532
5.24449 2307.96
5.28916 12979.7
5.33382 2961.85
5.37848 181.065
5.42315 125.563
5.46783 111.189
5.5125 103.927
5.55716 100.007
5.60183 96.97
5.6465 95.7968
5.69117 92.62
5.73586 90.11
5.78053 89.4603
5.8252 88.8078
5.86988 88.7428
5.91455 90.5227
5.95924 96.5044
6.00392 166.303
6.0486 789.93
6.09328 4261.8
6.13795 3301.6
6.18263 243.338
6.22733 91.4952
6.27201 82.1358
6.3167 108.765
6.36138 82.3927
6.40606 68.2502
6.45075 66.9001
6.49545 64.8963
6.54014 63.2758
6.58483 62.69
6.62952 62.4196
6.67421 101.574
6.71892 167.051
6.76361 71.3651
6.8083 58.4324
6.853 56.978
6.89769 56.6888
6.94239 56.1572
6.98711 55.4688
7.03181 55.0386
7.07651 55.1116
7.12121 54.8683
7.16591 55.1488
7.21063 55.6686
7.25533 73.9376
7.30004 214.862
7.34475 102.279
7.38945 57.0197
7.43416 54.4648
7.47889 54.1618
7.5236 54.3363
7.56831 55.0639
7.61303 57.1214
7.65774 57.863
7.70247 55.5751
7.74719 55.4807
7.79191 56.1027
7.83663 56.5135
7.88135 57.2427
7.92607 58.133
7.97081 59.2837
8.01553 60.0973
8.06026 61.5971
8.10498 63.1969
8.14971 74.4992
8.19446 73.122
8.23919 68.5192
8.28392 70.4593
8.32865 72.9343
8.37339 76.5296
8.41812 83.9106
8.46288 116.889
8.50761 142.803
8.55235 321.331
8.59709 1078.19
8.64183 2235.66
8.68658 1013.54
8.73134 175.059
8.77609 97.7581
8.82083 91.0964
8.86558 88.0949
8.91033 88.7606
8.9551 92.327
8.99985 84.2354
9.04461 82.4828
9.08936 81.936
9.13412 80.7759
9.17888 80.7171
9.22365 81.919
9.26841 80.7329
9.31318 81.1638
9.35794 81.2752
9.4027 81.655
9.44749 82.8419
9.49226 83.1898
9.53703 84.1804
9.5818 85.8243
9.62657 91.3992
9.67134 99.3916
9.71614 92.9456
9.76091 92.021
9.80569 94.7244
9.85047 97.8433
9.89525 127.275
9.94005 139.622
9.98484 153.891
10.0296 290.251
10.0744 723.848
10.1192 1721.34
10.164 1649.25
10.2088 412.957
10.2536 125.058
10.2984 112.968
10.3432 116.098
10.388 103.2
10.4328 111.085
10.4776 145.886
10.5224 260.137
10.5672 507.141
10.612 512.938
10.6568 202.476
10.7017 96.0371
10.7465 85.3785
10.7913 81.8659
10.8361 79.93
10.8809 77.9848
10.9257 77.9019
10.9706 79.0451
11.0154 74.34
11.0602 72.18
11.105 71.1546
11.1499 76.9143
11.1947 86.5666
11.2395 75.5607
11.2844 70.4793
11.3292 66.5942
11.374 65.5202
11.4189 64.7981
11.4637 64.2783
11.5086 64.9329
11.5534 68.7097
11.5983 65.5049
11.6431 63.0055
11.688 62.25
11.7328 61.996
11.7777 61.9823
11.8225 61.7266
11.8674 61.6518
11.9122 62.1985
11.9571 62.0763
12.002 62.6165
12.0468 65.3745
12.0917 75.1625
12.1366 96.4362
12.1814 149.156
12.2263 208.278
12.2712 170.081
12.3161 98.4266
12.3609 71.4609
12.4058 64.1861
12.4507 63.5666
12.4956 63.6642
12.5405 63.4729
12.5853 64.8722
12.6302 74.6989
12.6751 81.8568
12.72 70.4374
12.7649 66.7014
12.8098 67.7208
12.8547 68.4892
12.8996 69.712
12.9445 70.801
12.9894 72.5906
13.0343 74.3845
13.0792 77.1572
13.1242 83.6063
13.1691 103.677
13.214 136.242
13.2589 219.777
13.3038 369.155
13.3487 435.612
13.3937 266.278
13.4386 124.066
13.4835 100.375
13.5285 111.681
13.5734 146.303
13.6183 238.416
13.6633 349.748
13.7082 349.05
13.7531 186.016
13.7981 96.4004
13.843 80.4698
13.888 78.4329
13.9329 75.9226
13.9779 74.573
14.0228 73.3301
14.0678 71.9816
14.1127 71.6465
14.1577 71.5386
14.2027 70.7202
14.2476 69.2549
14.2926 69.6756
14.3376 71.2448
14.3825 69.686
14.4275 67.742
14.4725 67.527
14.5175 67.9828
14.5624 68.0503
14.6074 70.5672
14.6524 71.2594
14.6974 69.4319
14.7424 69.7944
14.7874 75.211
14.8324 83.7926
14.8774 103.572
14.9224 147.245
14.9674 209.139
15.0124 219.634
15.0574 150.36
15.1024 90.2111
15.1474 71.5558
15.1924 69.5762
15.2374 70.9261
15.2824 69.9555
15.3274 67.4686
15.3725 65.7838
15.4175 65.6178
15.4625 64.9693
15.5076 65.6041
15.5526 65.4449
15.5976 64.6163
15.6426 65.0292
15.6877 69.105
15.7327 75.1736
15.7778 89.0388
15.8228 119.532
15.8679 166.523
15.9129 195.27
15.958 157.167
16.003 95.6199
16.0481 67.4623
16.0931 64.321
16.1382 62.5519
16.1833 60.0478
16.2283 58.2405
16.2734 57.8274
16.3185 58.3072
16.3636 59.4365
16.4086 57.5676
16.4537 55.5422
16.4988 54.7494
16.5439 54.7208
16.589 54.2534
16.6341 54.2035
16.6792 53.7726
16.7243 54.2378
16.7694 54.3659
16.8145 54.1139
16.8596 54.684
16.9047 56.4815
16.9498 56.796
16.9949 55.1765
17.04 54.9545
17.0851 55.9476
17.1302 57.1475
17.1754 59.9801
17.2205 64.5901
17.2656 72.6994
17.3108 83.0432
17.3559 81.7939
17.401 70.0555
17.4462 60.9928
17.4913 58.2245
17.5365 58.2474
17.5815 58.1004
17.6268 58.4579
17.6718 59.5099
17.7171 60.018
17.7622 60.0301
17.8074 60.6724
17.8525 62.292
17.8977 65.7319
17.9428 70.4478
17.9881 78.2675
18.0331 95.4542
18.0784 119.293
18.1237 137.62
18.1688 130.045
18.214 102.378
18.2591 84.2658
18.3044 87.8303
18.3495 98.8024
18.3948 105.318
18.4399 95.522
18.4852 76.8863
18.5303 64.9908
18.5756 61.3871
18.6207 60.4018
18.666 59.559
18.7112 58.93
18.7565 58.1253
18.8016 57.6613
18.8469 57.2368
18.892 56.875
18.9374 56.5634
18.9825 56.2073
19.0278 56.078
19.073 55.9309
19.1183 56.6138
19.1635 57.1365
19.2088 58.3957
19.254 60.421
19.2993 65.0569
19.3447 71.8287
19.3898 76.5003
19.4352 72.0634
19.4804 62.6679
19.5257 56.2043
19.5709 53.4
19.6163 53.182
19.6615 53.0506
19.7068 52.5442
19.752 52.5205
19.7974 52.7759
19.8426 53.4882
19.888 54.1664
19.9332 55.0985
19.9786 57.2609
20.0238 60.787
20.0692 66.0687
20.1144 69.2129
20.1598 67.1572
20.205 62.4262
20.2504 61.1635
20.2957 63.1797
20.3411 65.2841
20.3863 63.731
20.4318 58.0927
20.477 53.1543
20.5224 51.17
20.5677 50.3896
20.6131 49.678
20.6586 48.9449
20.7038 48.8982
20.7493 48.3945
20.7945 48.2776
20.84 48.0659
20.8853 48.1249
20.9307 47.8007
20.976 48.0072
21.0215 47.9846
21.0668 48.1733
21.1122 48.598
21.1575 49.291
21.203 50.0571
21.2483 50.6607
21.2938 50.7966
21.3391 49.203
21.3846 48.3277
21.4299 47.66
21.4754 47.675
21.5207 47.7669
21.5662 48.0493
21.6116 48.2177
21.6571 48.7748
21.7024 49.6447
21.7479 51.3919
21.7933 54.0113
21.8388 57.7551
21.8843 61.7917
21.9297 64.0437
21.9752 62.4384
22.0206 58.7737
22.0661 55.9331
22.1115 55.5856
22.157 55.4715
22.2024 53.7157
22.248 50.8278
22.2933 49.1433
22.3389 48.5429
22.3843 48.4853
22.4299 48.3893
22.4753 48.375
22.5208 47.9649
22.5662 47.7219
22.6118 48.0101
22.6572 47.976
22.7028 48.2656
22.7483 48.6912
22.7939 49.3568
22.8393 50.8699
22.8849 53.0137
22.9303 55.3405
22.9759 57.1381
23.0214 56.8798
23.067 53.944
23.1126 50.3821
23.1581 48.5949
23.2037 48.1608
23.2492 47.9981
23.2948 47.9306
23.3403 48.0963
23.3859 48.6553
23.4314 49.6005
23.477 51.5876
23.5225 53.8851
23.5682 56.3329
23.6137 57.422
23.6593 55.2609
23.7048 51.025
23.7505 47.8815
23.796 46.0707
23.8417 45.391
23.8872 44.9157
23.9329 44.7445
23.9784 44.3744
24.0241 44.1039
24.0697 43.9283
24.1154 43.5751
24.1609 43.375
24.2066 43.389
24.2522 43.2136
24.2979 42.8672
24.3434 42.7394
24.3892 42.4486
24.4349 42.4705
24.4805 42.2925
24.5262 42.4843
24.5718 42.4073
24.6175 42.4241
24.6631 42.0859
24.7089 42.0203
24.7545 42.0132
24.8002 41.6093
24.8458 41.5739
24.8916 41.3618
24.9372 41.6292
24.983 41.7575
25.0286 42.2012
25.0744 42.6783
25.12 43.106
25.1658 43.6433
25.2114 44.1301
25.2572 44.0624
25.3029 44.2182
25.3487 44.4098
25.3943 44.05
25.4402 42.9171
25.4858 41.8617
25.5316 40.8728
25.5773 40.385
25.6231 40.3585
25.669 39.9941
25.7147 39.9166
25.7605 40.1068
25.8062 39.8452
25.8521 40.0914
25.8977 40.0313
25.9436 40.1903
25.9893 40.3615
26.0352 40.9285
26.0809 40.9582
26.1268 41.2032
26.1725 40.8234
26.2184 40.2294
26.2641 39.75
26.31 39.4455
26.3557 39.6709
26.4017 39.511
26.4474 39.8422
26.4933 40.0382
26.5391 40.5681
26.585 41.0652
26.6308 41.636
26.6767 41.5726
26.7225 41.499
26.7684 40.9588
26.8142 40.3633
26.8601 39.918
26.9059 39.4344
26.9519 39.0559
26.9979 38.7216
27.0437 38.4137
27.0896 38.199
27.1354 38.2275
27.1814 38.0897
27.2272 37.8671
27.2732 37.9855
27.3191 37.7419
27.3651 38.0301
27.4109 37.8524
27.4569 37.9632
27.5027 37.9961
27.5488 38.1261
27.5946 37.8217
27.6407 37.5566
27.6865 37.6157
27.7326 37.4181
27.7784 37.2871
27.8245 37.355
27.8703 37.4208
27.9164 37.7625
27.9623 37.8257
28.0084 38.1836
28.0543 38.6399
28.1003 38.4844
28.1462 38.32
28.1923 37.9247
28.2384 37.5298
28.2843 37.1482
28.3304 36.8378
28.3764 36.1899
28.4225 35.9441
28.4684 35.7656
28.5145 35.3661
28.5605 35.4009
28.6066 35.2755
28.6526 35.1441
28.6987 35.1195
28.7447 34.9957
28.7908 34.9474
28.8368 35.0567
28.8829 34.9123
28.9289 34.9472
28.9751 34.7913
29.0211 34.5124
29.0673 34.298
29.1133 34.1405
29.1595 33.9116
29.2055 33.9038
29.2517 33.8253
29.2977 33.9988
29.3439 33.8899
29.3899 33.858
29.4361 33.807
29.4824 33.484
29.5284 33.2437
29.5746 33.0249
29.6207 32.643
29.6669 32.744
29.713 32.5756
29.7593 32.4291
29.8053 32.4773
29.8516 32.3105
29.8977 32.389
29.9439 32.2124
29.99 32.176
30.0363 32.0371
30.0824 32.1692
30.1287 32.0815
30.1748 31.9324
30.2211 32.006
30.2673 31.9826
30.3136 31.9213
30.3597 31.8389
30.406 31.7667
30.4522 31.584
30.4985 31.4797
30.5447 31.7516
30.591 31.7113
30.6372 31.7273
30.6835 31.6749
30.7297 31.819
30.7761 31.7138
30.8224 31.6868
30.8686 31.502
30.915 31.2338
30.9612 31.0599
31.0076 30.9533
31.0538 30.8572
31.1002 30.7156
31.1464 30.491
31.1928 30.5736
31.2391 30.5958
31.2855 30.4246
31.3317 30.4758
31.3781 30.4902
31.4244 30.507
31.4708 30.4463
31.5171 30.389
31.5636 30.3515
31.6098 30.1372
31.6563 29.8701
31.7026 29.831
31.7491 29.6781
31.7953 29.8041
31.8418 29.8062
31.8881 29.8245
31.9346 29.731
31.9809 29.6948
32.0275 29.4987
32.074 29.547
32.1203 29.2755
32.1668 29.2265
32.2132 28.9938
32.2597 28.8456
32.306 28.8345
32.3526 28.4944
32.399 28.5338
32.4455 28.3667
32.4919 28.3708
32.5385 28.1848
32.5848 28.0724
32.6314 28.0956
32.6778 28.034
32.7244 27.9912
32.7708 27.7864
32.8174 27.7986
32.8638 27.6121
32.9104 27.6171
32.9569 27.7261
33.0035 27.5563
33.0499 27.4846
33.0966 27.439
33.143 27.5007
33.1897 27.3582
33.2361 27.2846
33.2828 27.2543
33.3293 27.0025
33.3759 27.0858
33.4226 26.8795
33.4691 26.6925
33.5158 26.701
33.5623 26.5593
33.609 26.3834
33.6555 26.3199
33.7022 26.3743
33.7487 26.1882
33.7954 26.0386
33.842 26.03
33.8887 26.0255
33.9353 25.9634
33.982 25.8533
34.0286 25.7004
34.0753 25.656
34.1219 25.5931
34.1687 25.4781
34.2152 25.3436
34.262 25.3493
34.3086 25.1858
34.3554 25.1973
34.402 25.1
34.4488 25.0332
34.4954 24.9709
34.5422 24.777
34.5889 24.6676
34.6357 24.7257
34.6825 24.6239
34.7292 24.5263
34.776 24.3981
34.8227 24.3659
34.8695 24.366
34.9162 24.2385
34.9631 24.2384
35.0098 24.2694
35.0566 24.1034
35.1033 23.9933
35.1502 23.9325
35.1969 23.8815
35.2438 23.8811
35.2906 23.7778
35.3375 23.7868
35.3842 23.6632
35.4311 23.6728
35.4779 23.6154
35.5248 23.6303
35.5716 23.4895
35.6185 23.3894
35.6653 23.3797
35.7123 23.3175
35.759 23.2215
35.806 23.0838
35.8528 22.9742
35.8998 22.9327
35.9468 22.7914
35.9936 22.8451
36.0406 22.7253
36.0874 22.6641
36.1345 22.6137
36.1813 22.5102
36.2283 22.4686
36.2752 22.311
36.3222 22.4214
36.3691 22.2865
36.4161 22.1593
36.463 22.1284
36.5101 22.0461
36.557 22.0608
36.6041 21.8661
36.651 21.893
36.6981 21.8098
36.745 21.8458
36.7921 21.6578
36.839 21.6072
36.8861 21.5528
36.9331 21.4782
36.9802 21.4226
37.0272 21.2673
37.0743 21.2183
37.1213 21.223
37.1684 21.1789
37.2154 21.0554
37.2626 21.0452
37.3098 20.9061
37.3568 20.8848
37.404 20.8923
37.451 20.7618
37.4982 20.6261
37.5452 20.6104
37.5924 20.5683
37.6395 20.5843
37.6867 20.4628
37.7337 20.3641
37.781 20.2974
37.8281 20.1815
37.8753 20.1528
37.9224 20.1625
37.9697 19.9853
38.0168 20.0195
38.064 19.9153
38.1111 19.8652
38.1584 19.8265
38.2056 19.7164
38.2529 19.6814
38.3 19.5833
38.3473 19.6466
38.3945 19.4608
38.4418 19.4392
38.489 19.3706
38.5363 19.2761
38.5837 19.271
38.6309 19.1701
38.6782 19.0856
38.7254 19.07
38.7728 19.0005
38.82 18.9534
38.8674 18.9233
38.9146 18.8916
38.9621 18.7368
39.0093 18.6694
39.0567 18.6307
39.104 18.5516
39.1514 18.4347
39.1987 18.5148
39.2461 18.4271
39.2934 18.3491
39.3409 18.2627
39.3882 18.1619
39.4356 18.1982
39.483 18.0984
39.5304 17.9966
39.5778 18.0114
39.6253 17.9421
39.6726 17.9627
39.7201 17.8808
39.7675 17.7409
39.815 17.6663
39.8624 17.6401
39.9099 17.647
39.9575 17.5045
40.0049 17.5509
40.0525 17.3991
40.0999 17.4124
40.1474 17.314
40.1949 17.171
40.2425 17.1797
40.2899 17.1155
40.3375 17.1328
40.385 17.0211
40.4326 16.9961
40.48 16.912
40.5277 16.9253
40.5752 16.8381
40.6228 16.7324
40.6703 16.7477
40.718 16.6971
40.7655 16.6789
40.8132 16.5374
40.8607 16.5643
40.9084 16.4996
40.9559 16.439
41.0036 16.3932
41.0512 16.3138
41.0989 16.3123
41.1465 16.1883
41.1942 16.1932
41.242 16.0407
41.2896 15.9875
41.3373 16.0239
41.3849 15.9764
41.4327 15.8847
41.4803 15.8014
41.5281 15.7539
41.5758 15.7398
41.6236 15.6515
41.6712 15.6186
41.7191 15.5736
41.7667 15.5473
41.8146 15.4891
41.8622 15.4259
41.9101 15.332
41.9578 15.2964
42.0057 15.2438
42.0534 15.2576
42.1013 15.1953
42.149 15.1044
42.1969 15.0434
42.2446 15.0046
42.2925 14.9478
42.3403 14.9074
42.3882 14.86
42.436 14.8111
42.4839 14.7295
42.5319 14.7021
42.5797 14.6849
42.6277 14.5966
42.6755 14.5324
42.7235 14.4702
42.7713 14.4513
42.8193 14.3932
42.8671 14.3641
42.9152 14.2829
42.963 14.2525
43.0111 14.2497
43.0589 14.1945
43.107 14.0688
43.1549 14.0676
43.2029 14.0281
43.2508 13.9421
43.2989 13.9311
43.3468 13.8785
43.3949 13.8634
43.4429 13.7778
43.491 13.7361
43.5389 13.6605
43.5871 13.677
43.635 13.5716
43.6832 13.5724
43.7312 13.4918
43.7793 13.4591
43.8273 13.4274
43.8755 13.3803
43.9237 13.3482
43.9717 13.2833
44.0199 13.2343
44.068 13.1582
44.1162 13.1088
44.1642 13.1063
44.2125 13.0035
44.2606 12.9891
44.3088 12.9305
44.3569 12.862
44.4052 12.87
44.4533 12.7727
44.5016 12.7564
44.5497 12.7516
44.598 12.661
44.6461 12.6573
44.6945 12.5627
44.7426 12.5745
44.791 12.4793
44.8391 12.4451
44.8875 12.4088
44.9357 12.3447
44.984 12.3438
45.0322 12.235
45.0806 12.2591
45.1288 12.1915
45.1773 12.0904
45.2257 12.0938
45.2739 12.0752
45.3224 11.9979
45.3706 11.9956
45.4191 11.9192
45.4673 11.8961
45.5158 11.8397
45.5641 11.8239
45.6126 11.7653
45.6609 11.6905
45.7094 11.6543
45.7577 11.6661
45.8063 11.5985
45.8546 11.538
45.9031 11.5444
45.9515 11.5158
46.0001 11.3985
46.0484 11.4108
46.097 11.3959
46.1454 11.3371
46.194 11.2675
46.2424 11.1969
46.291 11.2093
46.3395 11.1759
46.3881 11.0875
46.4365 11.093
46.4852 11.0431
46.5337 10.9858
46.5823 10.9267
46.631 10.9187
46.6795 10.903
46.7282 10.8583
46.7767 10.7932
46.8254 10.7287
46.8739 10.6916
46.9226 10.6562
46.9712 10.6039
47.0199 10.6056
47.0685 10.5388
47.1173 10.5138
47.1658 10.4875
47.2146 10.4068
47.2632 10.3878
47.312 10.3663
47.3606 10.3304
47.4095 10.2478
47.4581 10.2517
47.5069 10.2143
47.5556 10.1543
47.6044 10.0819
47.6531 10.0773
47.702 10.0239
47.7507 10.0392
47.7996 9.97968
47.8483 9.95696
47.8972 9.88967
47.9461 9.89869
47.9948 9.8048
48.0438 9.81369
48.0925 9.76704
48.1415 9.721
48.1902 9.68693
48.2392 9.67144
48.288 9.63682
48.337 9.62341
48.3858 9.58418
48.4348 9.52699
48.4837 9.52027
48.5327 9.46614
48.5815 9.41982
48.6306 9.38682
48.6795 9.33994
48.7285 9.31398
48.7774 9.28382
48.8265 9.27608
48.8754 9.19892
48.9245 9.18185
48.9734 9.13603
49.0226 9.14436
49.0715 9.05993
49.1206 9.03354
49.1696 8.9955
49.2188 8.98327
49.2679 8.96353
49.3169 8.88715
49.3661 8.89597
49.4151 8.8363
49.4643 8.7971
49.5134 8.78964
49.5626 8.71255
49.6117 8.71992
49.6609 8.66215
49.71 8.6131
49.7592 8.60768
49.8083 8.55306
49.8576 8.55975
49.9067 8.48728
49.956 8.48301
50.0052 8.44066
50.0545 8.38599
50.1036 8.36192
50.153 8.3886
50.2022 8.33944
50.2515 8.26056
50.3007 8.23168
50.3501 8.19504
50.3993 8.20286
50.4487 8.16935
50.498 8.12107
50.5474 8.11239
50.5966 8.0575
50.6461 8.01378
50.6955 7.98618
50.7448 7.95866
50.7943 7.93233
50.8436 7.90284
50.8931 7.87387
50.9424 7.82328
50.9919 7.8248
51.0413 7.8226
51.0908 7.74413
51.1402 7.72675
51.1897 7.67934
51.2391 7.69165
51.2887 7.62576
51.3381 7.63242
51.3877 7.57135
51.4371 7.52601
51.4867 7.49704
51.5362 7.48802
51.5858 7.47375
51.6353 7.38918
51.6849 7.38526
51.7344 7.35864
51.7841 7.33326
51.8336 7.27963
51.8833 7.22417
51.9328 7.21346
51.9826 7.19375
52.0323 7.15826
52.0818 7.14116
52.1316 7.10876
52.1812 7.0936
52.231 7.05941
52.2806 7.02052
52.3304 7.04635
52.38 6.97482
52.4298 6.94326
52.4794 6.88911
52.5293 6.87176
52.5789 6.88128
52.6288 6.78876
52.6785 6.75014
52.7284 6.76874
52.7781 6.76062
52.828 6.66491
52.8777 6.68007
52.9276 6.67522
52.9774 6.64838
53.0273 6.60569
53.0771 6.59061
53.1271 6.55199
53.1769 6.5058
53.2269 6.4819
53.2767 6.46946
53.3267 6.44657
53.3765 6.43181
53.4266 6.39136
53.4766 6.32348
53.5265 6.28519
53.5765 6.32758
53.6264 6.23711
53.6765 6.23908
53.7264 6.22884
53.7765 6.17675
53.8265 6.16864
53.8766 6.15016
53.9266 6.07955
53.9767 6.06917
54.0267 6.02319
54.0769 6.0544
54.1269 6.00429
54.1771 5.95992
54.2271 5.9274
54.2773 5.89175
54.3274 5.8349
54.3776 5.87176
54.4277 5.8253
54.478 5.73689
54.528 5.75041
54.5783 5.73086
54.6285 5.67158
54.6788 5.64047
54.7289 5.61005
54.7792 5.51372
54.8296 5.47045
54.8798 5.43175
54.9301 5.37336
54.9803 5.37075
55.0307 5.3429
55.0809 5.33642
55.1314 5.32914
55.1816 5.26121
55.232 5.20857
55.2823 5.18304
55.3328 5.13673
55.383 5.05752
55.4335 4.97167
55.4838 4.90352
55.5344 4.88953
55.5847 4.90212
55.6352 4.86719
55.6856 4.76433
55.7361 4.7809