File: XRD/Ni3Fe_FD0831.xy
TT I
1.27165 7.17425
1.31627 6.32215
1.36089 6.75485
1.40551 5.56783
1.45013 6.14893
1.49476 5.9486
1.53938 5.36739
1.584 4.56182
1.62863 5.39006
1.67325 5.12477
1.71787 5.72161
1.7625 5.10524
1.80712 5.00584
1.85174 4.51809
1.89636 4.75078
1.94099 4.63015
1.98562 4.39826
2.03025 4.65798
2.07487 4.60698
2.11949 4.55258
2.16411 4.67134
2.20874 7.79902
2.25338 10.1154
2.298 5.85495
2.34263 5.29937
2.38725 5.91305
2.43188 5.92487
2.4765 6.70122
2.52115 7.4195
2.56577 8.1782
2.6104 8.36528
2.65503 7.81066
2.69965 9.19341
2.7443 8.51446
2.78893 7.7813
2.83356 8.11654
2.87818 8.92903
2.92281 8.6176
2.96744 9.77627
3.01209 10.2702
3.05672 11.4615
3.10135 12.044
3.14599 13.0771
3.19062 14.2545
3.23527 15.1482
3.2799 15.7339
3.32454 16.3028
3.36917 17.4259
3.4138 18.2431
3.45844 19.6789
3.50309 20.5568
3.54773 20.8189
3.59237 22.8935
3.637 44.0357
3.68164 33.6162
3.7263 24.8517
3.77094 25.6555
3.81558 26.6784
3.86022 26.8614
3.90486 28.7212
3.9495 29.3535
3.99416 30.301
4.0388 31.5447
4.08344 32.7101
4.12809 34.3625
4.17273 35.5377
4.21738 38.7762
4.26204 104.818
4.30669 91.1252
4.35133 43.864
4.39598 42.7798
4.44063 47.638
4.4853 52.4369
4.52995 58.6692
4.5746 58.6992
4.61925 53.9389
4.6639 55.2736
4.70855 57.4284
4.75322 61.6079
4.79788 69.1242
4.84253 68.5825
4.88719 75.9669
4.93184 76.7706
4.97652 80.4551
5.02118 86.7641
5.06583 94.1626
5.11049 105.383
5.15515 153.925
5.19981 385.409
5.24449 2843.53
5.28916 12302.0
5.33382 2525.27
5.37848 195.807
5.42315 130.3
5.46783 120.71
5.5125 114.263
5.55716 102.105
5.60183 97.3379
5.6465 95.7534
5.69117 94.1283
5.73586 92.749
5.78053 99.305
5.8252 99.6882
5.86988 102.589
5.91455 94.865
5.95924 103.063
6.00392 232.147
6.0486 963.946
6.09328 4515.37
6.13795 3028.52
6.18263 196.047
6.22733 89.098
6.27201 78.8699
6.3167 81.6556
6.36138 72.9224
6.40606 69.937
6.45075 69.9784
6.49545 64.8946
6.54014 62.676
6.58483 62.4261
6.62952 62.9893
6.67421 70.4897
6.71892 82.4252
6.76361 60.8328
6.8083 59.3177
6.853 60.3817
6.89769 56.3945
6.94239 55.6415
6.98711 55.1983
7.03181 55.4873
7.07651 54.5064
7.12121 54.3262
7.16591 55.9678
7.21063 55.0946
7.25533 59.3788
7.30004 89.0097
7.34475 64.1761
7.38945 54.091
7.43416 52.9702
7.47889 53.2273
7.5236 53.7589
7.56831 54.3814
7.61303 54.8642
7.65774 55.6772
7.70247 56.6905
7.74719 56.0323
7.79191 56.019
7.83663 56.179
7.88135 57.1182
7.92607 58.0079
7.97081 59.0057
8.01553 60.172
8.06026 61.9761
8.10498 63.4953
8.14971 70.7451
8.19446 70.5694
8.23919 69.1388
8.28392 71.3409
8.32865 73.5476
8.37339 77.8676
8.41812 83.1055
8.46288 99.9888
8.50761 173.116
8.55235 384.54
8.59709 1215.08
8.64183 2178.39
8.68658 846.998
8.73134 149.037
8.77609 97.0162
8.82083 91.946
8.86558 93.0658
8.91033 92.6249
8.9551 89.2359
8.99985 84.6552
9.04461 83.6916
9.08936 84.1514
9.13412 82.4399
9.17888 81.6072
9.22365 81.5477
9.26841 81.3096
9.31318 85.1067
9.35794 87.5519
9.4027 86.2782
9.44749 85.0044
9.49226 84.3971
9.53703 85.4027
9.5818 89.3806
9.62657 95.061
9.67134 94.939
9.71614 92.3093
9.76091 94.6401
9.80569 99.0891
9.85047 101.453
9.89525 109.668
9.94005 123.006
9.98484 186.148
10.0296 344.754
10.0744 838.769
10.1192 1803.53
10.164 1509.77
10.2088 355.041
10.2536 120.254
10.2984 108.152
10.3432 106.428
10.388 103.82
10.4328 120.115
10.4776 162.486
10.5224 297.42
10.5672 535.372
10.612 496.142
10.6568 185.466
10.7017 93.767
10.7465 85.949
10.7913 82.2611
10.8361 80.5664
10.8809 78.4277
10.9257 77.2656
10.9706 77.5379
11.0154 74.9413
11.0602 72.1813
11.105 70.8458
11.1499 71.4193
11.1947 72.9653
11.2395 69.1307
11.2844 67.8038
11.3292 66.1855
11.374 65.6353
11.4189 65.0396
11.4637 64.4238
11.5086 63.715
11.5534 64.5802
11.5983 63.4449
11.6431 62.851
11.688 62.1525
11.7328 62.3671
11.7777 62.0578
11.8225 62.0909
11.8674 61.8477
11.9122 61.9963
11.9571 62.4138
12.002 63.6937
12.0468 68.2522
12.0917 78.0773
12.1366 103.894
12.1814 161.854
12.2263 216.454
12.2712 163.62
12.3161 86.2702
12.3609 65.8547
12.4058 63.5097
12.4507 63.4331
12.4956 64.3564
12.5405 64.5416
12.5853 64.7139
12.6302 67.1559
12.6751 69.2155
12.72 67.3669
12.7649 67.4209
12.8098 67.6902
12.8547 69.2296
12.8996 71.1034
12.9445 72.5094
12.9894 74.1922
13.0343 75.5173
13.0792 79.4704
13.1242 91.2434
13.1691 111.049
13.214 149.734
13.2589 249.748
13.3038 388.403
13.3487 413.711
13.3937 236.5
13.4386 117.253
13.4835 105.248
13.5285 120.361
13.5734 161.791
13.6183 258.556
13.6633 365.499
13.7082 330.273
13.7531 171.154
13.7981 93.8324
13.843 80.9149
13.888 79.0959
13.9329 76.5823
13.9779 75.3193
14.0228 73.5258
14.0678 72.3531
14.1127 71.8266
14.1577 71.0839
14.2027 70.7504
14.2476 69.8225
14.2926 69.5558
14.3376 69.4621
14.3825 69.0473
14.4275 68.3372
14.4725 68.3473
14.5175 68.4703
14.5624 68.4675
14.6074 69.0823
14.6524 69.7778
14.6974 69.989
14.7424 73.0039
14.7874 78.8561
14.8324 88.7615
14.8774 112.097
14.9224 159.956
14.9674 216.805
15.0124 218.487
15.0574 141.907
15.1024 86.367
15.1474 71.2444
15.1924 69.5915
15.2374 68.6198
15.2824 68.0307
15.3274 66.7568
15.3725 66.2175
15.4175 65.6529
15.4625 65.4169
15.5076 65.1467
15.5526 65.2382
15.5976 65.3201
15.6426 67.3406
15.6877 72.2066
15.7327 79.5871
15.7778 96.1039
15.8228 130.269
15.8679 178.137
15.9129 197.001
15.958 148.264
16.003 89.6638
16.0481 65.813
16.0931 62.26
16.1382 60.5976
16.1833 59.7028
16.2283 58.1712
16.2734 57.5416
16.3185 57.1981
16.3636 57.1183
16.4086 56.1067
16.4537 55.2076
16.4988 54.7827
16.5439 54.7611
16.589 54.5308
16.6341 54.4554
16.6792 54.0315
16.7243 54.2477
16.7694 54.2078
16.8145 54.1367
16.8596 54.2796
16.9047 54.9611
16.9498 55.0156
16.9949 54.7428
17.04 55.3286
17.0851 56.722
17.1302 58.155
17.1754 61.0519
17.2205 66.8754
17.2656 74.9907
17.3108 83.4856
17.3559 81.3933
17.401 68.9437
17.4462 60.6829
17.4913 58.7631
17.5365 58.5696
17.5815 58.7144
17.6268 59.1696
17.6718 59.8088
17.7171 60.0028
17.7622 60.8067
17.8074 61.9457
17.8525 64.596
17.8977 67.9377
17.9428 73.3015
17.9881 83.0549
18.0331 101.979
18.0784 125.387
18.1237 141.041
18.1688 127.0
18.214 99.0011
18.2591 84.8093
18.3044 91.1388
18.3495 101.45
18.3948 104.767
18.4399 91.9478
18.4852 74.1597
18.5303 64.3863
18.5756 61.32
18.6207 60.2682
18.666 59.8957
18.7112 59.1173
18.7565 58.3542
18.8016 58.128
18.8469 57.5237
18.892 56.9704
18.9374 56.6922
18.9825 56.1998
19.0278 56.3317
19.073 56.3981
19.1183 56.6753
19.1635 57.2573
19.2088 58.7325
19.254 61.8845
19.2993 66.7429
19.3447 72.3847
19.3898 75.109
19.4352 69.6499
19.4804 61.0384
19.5257 55.3249
19.5709 53.5407
19.6163 53.3542
19.6615 53.2471
19.7068 52.7201
19.752 52.6991
19.7974 53.0562
19.8426 53.8061
19.888 54.2593
19.9332 55.724
19.9786 58.4892
20.0238 62.8815
20.0692 67.6589
20.1144 69.5506
20.1598 66.8708
20.205 62.3016
20.2504 61.7276
20.2957 63.9793
20.3411 65.269
20.3863 62.7441
20.4318 56.8497
20.477 52.3228
20.5224 50.6573
20.5677 50.0913
20.6131 49.5403
20.6586 49.1666
20.7038 49.0044
20.7493 48.3779
20.7945 48.5755
20.84 48.2445
20.8853 48.2922
20.9307 48.1441
20.976 48.2649
21.0215 48.0495
21.0668 48.6476
21.1122 48.99
21.1575 49.6231
21.203 50.5144
21.2483 51.0232
21.2938 50.8189
21.3391 49.4038
21.3846 48.3666
21.4299 47.8653
21.4754 47.9792
21.5207 48.1363
21.5662 48.4965
21.6116 48.8727
21.6571 49.5347
21.7024 50.4257
21.7479 52.3935
21.7933 55.3359
21.8388 59.1498
21.8843 62.9332
21.9297 64.1116
21.9752 61.676
22.0206 57.9281
22.0661 55.8512
22.1115 55.6672
22.157 55.3205
22.2024 53.3376
22.248 50.5038
22.2933 48.9763
22.3389 48.4954
22.3843 48.402
22.4299 48.2131
22.4753 48.1224
22.5208 48.0702
22.5662 48.1211
22.6118 48.2672
22.6572 48.2798
22.7028 48.8111
22.7483 49.2293
22.7939 49.9251
22.8393 51.7004
22.8849 53.7171
22.9303 56.0534
22.9759 57.3963
23.0214 56.3963
23.067 53.3368
23.1126 50.1464
23.1581 48.418
23.2037 48.2549
23.2492 48.3283
23.2948 48.3965
23.3403 48.7167
23.3859 49.3433
23.4314 50.4996
23.477 52.397
23.5225 54.8841
23.5682 56.9684
23.6137 57.1915
23.6593 54.3615
23.7048 50.1508
23.7505 47.3646
23.796 45.9328
23.8417 45.3836
23.8872 45.0006
23.9329 44.7181
23.9784 44.3998
24.0241 44.213
24.0697 44.1059
24.1154 43.6901
24.1609 43.4799
24.2066 43.252
24.2522 43.2152
24.2979 42.8493
24.3434 42.8099
24.3892 42.7622
24.4349 42.7393
24.4805 42.4835
24.5262 42.6962
24.5718 42.6121
24.6175 42.4638
24.6631 42.3399
24.7089 41.961
24.7545 41.9949
24.8002 41.7806
24.8458 41.7957
24.8916 41.7202
24.9372 41.8801
24.983 42.0837
25.0286 42.4658
25.0744 42.9358
25.12 43.4331
25.1658 44.0318
25.2114 44.2056
25.2572 44.1959
25.3029 44.4793
25.3487 44.3566
25.3943 43.8725
25.4402 42.7901
25.4858 41.7649
25.5316 40.8021
25.5773 40.557
25.6231 40.4492
25.669 40.0918
25.7147 39.9944
25.7605 39.9839
25.8062 39.988
25.8521 40.2446
25.8977 40.1153
25.9436 40.4641
25.9893 40.6317
26.0352 41.0996
26.0809 41.2285
26.1268 41.2503
26.1725 40.8709
26.2184 40.2588
26.2641 39.8436
26.31 39.6505
26.3557 39.773
26.4017 39.6319
26.4474 39.9402
26.4933 40.2343
26.5391 40.8732
26.585 41.3424
26.6308 41.7015
26.6767 41.7703
26.7225 41.5059
26.7684 40.8483
26.8142 40.3073
26.8601 39.9944
26.9059 39.5001
26.9519 38.936
26.9979 38.7723
27.0437 38.4261
27.0896 38.2804
27.1354 38.3839
27.1814 38.1365
27.2272 37.9834
27.2732 38.0587
27.3191 37.9171
27.3651 38.0256
27.4109 38.1099
27.4569 38.1549
27.5027 38.1714
27.5488 38.1331
27.5946 38.0578
27.6407 37.7757
27.6865 37.6385
27.7326 37.4997
27.7784 37.3782
27.8245 37.3665
27.8703 37.6724
27.9164 37.9121
27.9623 38.1519
28.0084 38.3304
28.0543 38.7459
28.1003 38.6553
28.1462 38.2848
28.1923 38.0309
28.2384 37.5929
28.2843 37.1441
28.3304 36.6747
28.3764 36.3056
28.4225 35.9626
28.4684 35.8447
28.5145 35.4748
28.5605 35.5782
28.6066 35.2689
28.6526 35.2532
28.6987 35.3664
28.7447 35.1617
28.7908 35.0263
28.8368 35.0219
28.8829 35.0696
28.9289 34.8408
28.9751 34.7461
29.0211 34.5379
29.0673 34.2903
29.1133 34.2241
29.1595 34.0458
29.2055 33.9959
29.2517 33.9554
29.2977 33.9863
29.3439 33.9027
29.3899 33.9385
29.4361 33.7064
29.4824 33.5627
29.5284 33.4109
29.5746 33.0707
29.6207 32.6905
29.6669 32.7629
29.713 32.6517
29.7593 32.5588
29.8053 32.501
29.8516 32.4418
29.8977 32.4998
29.9439 32.3221
29.99 32.2268
30.0363 32.0824
30.0824 32.2411
30.1287 32.0937
30.1748 32.0607
30.2211 31.9858
30.2673 31.952
30.3136 32.0082
30.3597 31.8582
30.406 31.8628
30.4522 31.7488
30.4985 31.6301
30.5447 31.7758
30.591 31.8366
30.6372 31.8363
30.6835 31.8165
30.7297 31.9345
30.7761 31.7902
30.8224 31.6539
30.8686 31.4994
30.915 31.276
30.9612 31.1784
31.0076 31.0282
31.0538 30.8264
31.1002 30.7753
31.1464 30.5515
31.1928 30.6588
31.2391 30.5783
31.2855 30.4928
31.3317 30.472
31.3781 30.6518
31.4244 30.611
31.4708 30.5296
31.5171 30.4442
31.5636 30.4137
31.6098 30.3013
31.6563 30.0186
31.7026 29.8072
31.7491 29.7493
31.7953 29.8869
31.8418 29.9236
31.8881 29.7794
31.9346 29.6611
31.9809 29.729
32.0275 29.554
32.074 29.4557
32.1203 29.2721
32.1668 29.1966
32.2132 29.0063
32.2597 28.8888
32.306 28.8745
32.3526 28.6463
32.399 28.5626
32.4455 28.4555
32.4919 28.4144
32.5385 28.3459
32.5848 28.2333
32.6314 28.1712
32.6778 28.1036
32.7244 27.9641
32.7708 27.8638
32.8174 27.8739
32.8638 27.6863
32.9104 27.7443
32.9569 27.7179
33.0035 27.5999
33.0499 27.5603
33.0966 27.5111
33.143 27.5517
33.1897 27.3801
33.2361 27.2735
33.2828 27.2307
33.3293 27.0784
33.3759 27.0006
33.4226 26.9507
33.4691 26.8641
33.5158 26.7586
33.5623 26.5399
33.609 26.4668
33.6555 26.4303
33.7022 26.3855
33.7487 26.2334
33.7954 26.157
33.842 26.1088
33.8887 26.0122
33.9353 25.9908
33.982 25.9084
34.0286 25.7247
34.0753 25.6975
34.1219 25.5888
34.1687 25.5133
34.2152 25.5414
34.262 25.3941
34.3086 25.3269
34.3554 25.2686
34.402 25.1353
34.4488 25.0056
34.4954 24.9491
34.5422 24.8591
34.5889 24.7571
34.6357 24.7764
34.6825 24.648
34.7292 24.5674
34.776 24.5427
34.8227 24.4445
34.8695 24.3528
34.9162 24.3489
34.9631 24.2231
35.0098 24.2074
35.0566 24.1075
35.1033 23.9879
35.1502 23.9912
35.1969 23.9771
35.2438 23.9648
35.2906 23.8317
35.3375 23.7264
35.3842 23.7758
35.4311 23.6886
35.4779 23.6847
35.5248 23.5421
35.5716 23.4688
35.6185 23.3456
35.6653 23.4242
35.7123 23.2715
35.759 23.2392
35.806 23.0892
35.8528 23.0442
35.8998 22.9994
35.9468 22.8906
35.9936 22.8659
36.0406 22.7633
36.0874 22.789
36.1345 22.6525
36.1813 22.5133
36.2283 22.4305
36.2752 22.4169
36.3222 22.3992
36.3691 22.3521
36.4161 22.2232
36.463 22.2275
36.5101 22.2127
36.557 22.1092
36.6041 21.948
36.651 21.9069
36.6981 21.8619
36.745 21.7445
36.7921 21.7601
36.839 21.5747
36.8861 21.5818
36.9331 21.5074
36.9802 21.4285
37.0272 21.3255
37.0743 21.1753
37.1213 21.3175
37.1684 21.199
37.2154 21.1223
37.2626 20.9923
37.3098 20.979
37.3568 20.9316
37.404 20.872
37.451 20.7433
37.4982 20.6943
37.5452 20.6018
37.5924 20.5712
37.6395 20.5894
37.6867 20.4756
37.7337 20.4161
37.781 20.3012
37.8281 20.2603
37.8753 20.1981
37.9224 19.9913
37.9697 20.0606
38.0168 19.9525
38.064 19.9079
38.1111 19.8588
38.1584 19.8195
38.2056 19.712
38.2529 19.711
38.3 19.5551
38.3473 19.6407
38.3945 19.4616
38.4418 19.487
38.489 19.4002
38.5363 19.2978
38.5837 19.215
38.6309 19.1652
38.6782 19.113
38.7254 19.0812
38.7728 18.9637
38.82 18.9062
38.8674 18.9568
38.9146 18.7921
38.9621 18.7709
39.0093 18.7033
39.0567 18.659
39.104 18.5398
39.1514 18.4783
39.1987 18.4794
39.2461 18.4271
39.2934 18.4252
39.3409 18.2735
39.3882 18.1338
39.4356 18.1606
39.483 18.0624
39.5304 18.0824
39.5778 18.0057
39.6253 17.9569
39.6726 17.8863
39.7201 17.8397
39.7675 17.7699
39.815 17.7273
39.8624 17.6678
39.9099 17.5986
39.9575 17.5658
40.0049 17.4365
40.0525 17.4407
40.0999 17.3796
40.1474 17.3148
40.1949 17.2392
40.2425 17.183
40.2899 17.1395
40.3375 17.1164
40.385 17.0489
40.4326 16.9563
40.48 16.908
40.5277 16.9298
40.5752 16.8087
40.6228 16.7498
40.6703 16.729
40.718 16.6961
40.7655 16.633
40.8132 16.582
40.8607 16.5444
40.9084 16.5078
40.9559 16.3791
41.0036 16.377
41.0512 16.3006
41.0989 16.2409
41.1465 16.2164
41.1942 16.1973
41.242 16.0972
41.2896 16.0307
41.3373 15.9419
41.3849 16.026
41.4327 15.8494
41.4803 15.8091
41.5281 15.8198
41.5758 15.6303
41.6236 15.6611
41.6712 15.5903
41.7191 15.566
41.7667 15.4932
41.8146 15.5345
41.8622 15.385
41.9101 15.3743
41.9578 15.2747
42.0057 15.2822
42.0534 15.1779
42.1013 15.1722
42.149 15.0875
42.1969 14.9906
42.2446 14.9705
42.2925 14.9022
42.3403 14.9231
42.3882 14.8872
42.436 14.8455
42.4839 14.7414
42.5319 14.6766
42.5797 14.6327
42.6277 14.5807
42.6755 14.5714
42.7235 14.5214
42.7713 14.4479
42.8193 14.403
42.8671 14.3342
42.9152 14.3246
42.963 14.2503
43.0111 14.1583
43.0589 14.1783
43.107 14.1056
43.1549 14.082
43.2029 13.9749
43.2508 13.9901
43.2989 13.9365
43.3468 13.8957
43.3949 13.846
43.4429 13.765
43.491 13.7066
43.5389 13.6516
43.5871 13.6129
43.635 13.5516
43.6832 13.5386
43.7312 13.4695
43.7793 13.4175
43.8273 13.3716
43.8755 13.315
43.9237 13.2868
43.9717 13.2702
44.0199 13.2147
44.068 13.1605
44.1162 13.1121
44.1642 13.1158
44.2125 13.058
44.2606 12.9564
44.3088 12.9186
44.3569 12.8776
44.4052 12.8742
44.4533 12.8485
44.5016 12.7374
44.5497 12.7298
44.598 12.6572
44.6461 12.6251
44.6945 12.5936
44.7426 12.5649
44.791 12.4662
44.8391 12.42
44.8875 12.3906
44.9357 12.3748
44.984 12.3461
45.0322 12.2827
45.0806 12.2603
45.1288 12.1824
45.1773 12.1734
45.2257 12.144
45.2739 12.0706
45.3224 12.0138
45.3706 11.9753
45.4191 11.9223
45.4673 11.8873
45.5158 11.8474
45.5641 11.8361
45.6126 11.7805
45.6609 11.7114
45.7094 11.6793
45.7577 11.6354
45.8063 11.5124
45.8546 11.5434
45.9031 11.5078
45.9515 11.4405
46.0001 11.4433
46.0484 11.3692
46.097 11.3737
46.1454 11.3251
46.194 11.3096
46.2424 11.2126
46.291 11.2343
46.3395 11.1409
46.3881 11.098
46.4365 11.0693
46.4852 11.0236
46.5337 10.9743
46.5823 10.9934
46.631 10.89
46.6795 10.875
46.7282 10.8363
46.7767 10.7818
46.8254 10.7001
46.8739 10.7376
46.9226 10.6227
46.9712 10.6259
47.0199 10.5673
47.0685 10.5074
47.1173 10.51
47.1658 10.4415
47.2146 10.4302
47.2632 10.3876
47.312 10.3544
47.3606 10.2879
47.4095 10.2376
47.4581 10.2238
47.5069 10.1934
47.5556 10.1336
47.6044 10.1299
47.6531 10.1378
47.702 10.0178
47.7507 10.0405
47.7996 9.97492
47.8483 9.94645
47.8972 9.89708
47.9461 9.85771
47.9948 9.84923
48.0438 9.79233
48.0925 9.76125
48.1415 9.75176
48.1902 9.68258
48.2392 9.68823
48.288 9.58535
48.337 9.5942
48.3858 9.57699
48.4348 9.5165
48.4837 9.52718
48.5327 9.47692
48.5815 9.39001
48.6306 9.38395
48.6795 9.35004
48.7285 9.32125
48.7774 9.29159
48.8265 9.26221
48.8754 9.18853
48.9245 9.19158
48.9734 9.13227
49.0226 9.10374
49.0715 9.08117
49.1206 9.02789
49.1696 8.98968
49.2188 8.96728
49.2679 8.95797
49.3169 8.88381
49.3661 8.8252
49.4151 8.83811
49.4643 8.82435
49.5134 8.75001
49.5626 8.71233
49.6117 8.70321
49.6609 8.67293
49.71 8.60253
49.7592 8.58366
49.8083 8.55399
49.8576 8.55834
49.9067 8.47827
49.956 8.47517
50.0052 8.44672
50.0545 8.38934
50.1036 8.34148
50.153 8.33597
50.2022 8.28775
50.2515 8.24834
50.3007 8.2359
50.3501 8.20748
50.3993 8.16822
50.4487 8.13313
50.498 8.12056
50.5474 8.09967
50.5966 8.0887
50.6461 8.00255
50.6955 7.97732
50.7448 7.96505
50.7943 7.91181
50.8436 7.90586
50.8931 7.84891
50.9424 7.85305
50.9919 7.8243
51.0413 7.76709
51.0908 7.74083
51.1402 7.68686
51.1897 7.68804
51.2391 7.64258
51.2887 7.57112
51.3381 7.59695
51.3877 7.57374
51.4371 7.51072
51.4867 7.4848
51.5362 7.47753
51.5858 7.42923
51.6353 7.39634
51.6849 7.37398
51.7344 7.31043
51.7841 7.32928
51.8336 7.24906
51.8833 7.25886
51.9328 7.24195
51.9826 7.15122
52.0323 7.19817
52.0818 7.10317
52.1316 7.08699
52.1812 7.07959
52.231 7.03367
52.2806 6.99741
52.3304 6.99213
52.38 6.96339
52.4298 6.92469
52.4794 6.88613
52.5293 6.86956
52.5789 6.83231
52.6288 6.80838
52.6785 6.75843
52.7284 6.76778
52.7781 6.74632
52.828 6.7151
52.8777 6.66261
52.9276 6.62245
52.9774 6.6334
53.0273 6.62225
53.0771 6.56309
53.1271 6.53973
53.1769 6.5037
53.2269 6.48617
53.2767 6.40904
53.3267 6.44977
53.3765 6.40901
53.4266 6.35796
53.4766 6.31789
53.5265 6.32
53.5765 6.27185
53.6264 6.25688
53.6765 6.22525
53.7264 6.17895
53.7765 6.15751
53.8265 6.11263
53.8766 6.09177
53.9266 6.08833
53.9767 6.0632
54.0267 6.03054
54.0769 6.02073
54.1269 6.00478
54.1771 5.94502
54.2271 5.95928
54.2773 5.87444
54.3274 5.88971
54.3776 5.83004
54.4277 5.83152
54.478 5.7736
54.528 5.75372
54.5783 5.70693
54.6285 5.65526
54.6788 5.57096
54.7289 5.55731
54.7792 5.50139
54.8296 5.46603
54.8798 5.44115
54.9301 5.43095
54.9803 5.39696
55.0307 5.34779
55.0809 5.3196
55.1314 5.23874
55.1816 5.22858
55.232 5.18925
55.2823 5.15789
55.3328 5.07514
55.383 5.0499
55.4335 4.9529
55.4838 4.92563
55.5344 4.91073
55.5847 4.84792
55.6352 4.86018
55.6856 4.82571
55.7361 4.81097