File: XRD/Ni3Fe_FD0736.xy
TT I
1.27165 7.09752
1.31627 6.75267
1.36089 6.9417
1.40551 6.07977
1.45013 5.65841
1.49476 6.38756
1.53938 5.85203
1.584 5.3031
1.62863 5.66749
1.67325 5.40012
1.71787 5.28653
1.7625 4.48979
1.80712 4.60169
1.85174 4.72282
1.89636 4.81496
1.94099 4.73208
1.98562 4.76885
2.03025 4.4676
2.07487 4.83207
2.11949 5.08877
2.16411 5.35759
2.20874 13.8913
2.25338 21.8045
2.298 6.04858
2.34263 5.18971
2.38725 5.54315
2.43188 6.32173
2.4765 6.59811
2.52115 6.69212
2.56577 7.61302
2.6104 8.73536
2.65503 6.78412
2.69965 7.85696
2.7443 8.62365
2.78893 8.9117
2.83356 8.3952
2.87818 8.68459
2.92281 9.35302
2.96744 9.49655
3.01209 10.3332
3.05672 10.8012
3.10135 12.4793
3.14599 12.6831
3.19062 13.8971
3.23527 15.0219
3.2799 15.8479
3.32454 16.7572
3.36917 18.0004
3.4138 18.8431
3.45844 19.672
3.50309 20.6857
3.54773 21.6145
3.59237 23.5701
3.637 90.022
3.68164 56.7907
3.7263 26.1033
3.77094 26.0444
3.81558 27.3199
3.86022 27.4413
3.90486 28.7511
3.9495 29.6182
3.99416 30.5862
4.0388 32.2261
4.08344 33.4387
4.12809 34.7709
4.17273 36.6343
4.21738 43.0951
4.26204 237.515
4.30669 210.33
4.35133 48.5833
4.39598 44.6056
4.44063 53.4193
4.4853 64.3436
4.52995 50.3282
4.5746 51.0095
4.61925 53.4409
4.6639 55.215
4.70855 57.6164
4.75322 60.3427
4.79788 63.8435
4.84253 66.3807
4.88719 70.8878
4.93184 74.4561
4.97652 80.0305
5.02118 86.1862
5.06583 93.6128
5.11049 104.49
5.15515 167.41
5.19981 321.567
5.24449 2766.03
5.28916 12660.9
5.33382 2878.47
5.37848 184.491
5.42315 127.381
5.46783 112.915
5.5125 105.07
5.55716 101.969
5.60183 97.9681
5.6465 96.2529
5.69117 94.4017
5.73586 91.6092
5.78053 91.1364
5.8252 90.3465
5.86988 91.2348
5.91455 93.0522
5.95924 99.8372
6.00392 190.338
6.0486 904.885
6.09328 4625.65
6.13795 3231.62
6.18263 239.353
6.22733 92.1857
6.27201 82.3558
6.3167 100.178
6.36138 79.7319
6.40606 68.9159
6.45075 67.0686
6.49545 65.4811
6.54014 63.7324
6.58483 62.8567
6.62952 62.8122
6.67421 92.8538
6.71892 140.163
6.76361 68.3516
6.8083 58.7642
6.853 57.0529
6.89769 56.9553
6.94239 56.3056
6.98711 55.725
7.03181 55.2587
7.07651 54.9953
7.12121 55.3269
7.16591 55.0628
7.21063 55.543
7.25533 69.8065
7.30004 173.573
7.34475 89.1614
7.38945 56.3528
7.43416 54.2884
7.47889 54.4386
7.5236 54.738
7.56831 55.0524
7.61303 56.9878
7.65774 56.9551
7.70247 56.1854
7.74719 56.1803
7.79191 56.6842
7.83663 56.6658
7.88135 57.8402
7.92607 58.6468
7.97081 59.7921
8.01553 60.6865
8.06026 62.3889
8.10498 63.6683
8.14971 72.6151
8.19446 71.7142
8.23919 69.2241
8.28392 71.5589
8.32865 73.6227
8.37339 77.7736
8.41812 84.5202
8.46288 111.846
8.50761 154.358
8.55235 367.13
8.59709 1158.79
8.64183 2174.16
8.68658 988.25
8.73134 163.613
8.77609 98.8312
8.82083 91.9934
8.86558 89.2528
8.91033 89.2709
8.9551 91.1369
8.99985 85.0748
9.04461 83.0519
9.08936 82.5689
9.13412 81.9264
9.17888 81.6258
9.22365 82.559
9.26841 81.5325
9.31318 82.5428
9.35794 82.1788
9.4027 82.8367
9.44749 83.3015
9.49226 84.2063
9.53703 84.9126
9.5818 86.7402
9.62657 91.4676
9.67134 97.8615
9.71614 93.4795
9.76091 93.3921
9.80569 95.8922
9.85047 99.3694
9.89525 122.468
9.94005 133.635
9.98484 165.913
10.0296 325.426
10.0744 797.647
10.1192 1767.88
10.164 1629.96
10.2088 410.497
10.2536 126.334
10.2984 112.692
10.3432 113.626
10.388 103.834
10.4328 115.092
10.4776 155.272
10.5224 278.546
10.5672 515.093
10.612 508.398
10.6568 206.609
10.7017 96.7589
10.7465 86.0578
10.7913 82.8602
10.8361 80.9391
10.8809 78.9335
10.9257 78.1686
10.9706 78.0557
11.0154 74.4183
11.0602 72.6851
11.105 71.6138
11.1499 75.7815
11.1947 82.6379
11.2395 73.7244
11.2844 70.2125
11.3292 66.8187
11.374 65.8929
11.4189 65.0335
11.4637 64.6679
11.5086 65.1408
11.5534 68.066
11.5983 65.1689
11.6431 63.6171
11.688 62.7947
11.7328 62.668
11.7777 62.6754
11.8225 62.239
11.8674 62.0892
11.9122 62.3541
11.9571 62.6669
12.002 63.4183
12.0468 66.8094
12.0917 77.3633
12.1366 101.505
12.1814 153.162
12.2263 200.386
12.2712 164.188
12.3161 98.9478
12.3609 70.2149
12.4058 64.2322
12.4507 64.0773
12.4956 63.7525
12.5405 64.213
12.5853 65.2903
12.6302 72.6783
12.6751 77.6745
12.72 69.645
12.7649 67.5916
12.8098 68.0797
12.8547 69.4228
12.8996 70.5155
12.9445 71.8975
12.9894 73.6465
13.0343 75.4288
13.0792 78.4138
13.1242 86.0747
13.1691 108.253
13.214 145.462
13.2589 237.436
13.3038 372.554
13.3487 416.973
13.3937 265.45
13.4386 126.755
13.4835 103.28
13.5285 117.209
13.5734 155.585
13.6183 248.568
13.6633 349.268
13.7082 334.712
13.7531 185.761
13.7981 97.5025
13.843 81.4552
13.888 79.1528
13.9329 76.6939
13.9779 75.623
14.0228 74.1343
14.0678 72.7553
14.1127 72.1907
14.1577 72.1648
14.2027 71.1301
14.2476 70.0974
14.2926 70.1772
14.3376 71.1963
14.3825 70.0329
14.4275 68.482
14.4725 68.3586
14.5175 68.726
14.5624 68.618
14.6074 70.9239
14.6524 71.4308
14.6974 69.8544
14.7424 71.1174
14.7874 77.1415
14.8324 87.2442
14.8774 109.277
14.9224 153.016
14.9674 206.677
15.0124 214.794
15.0574 149.383
15.1024 91.257
15.1474 72.0107
15.1924 70.1073
15.2374 70.8941
15.2824 69.9824
15.3274 67.8085
15.3725 66.5126
15.4175 66.0745
15.4625 65.5906
15.5076 65.959
15.5526 65.823
15.5976 65.3209
15.6426 66.1235
15.6877 70.9661
15.7327 78.3292
15.7778 93.5099
15.8228 126.53
15.8679 172.279
15.9129 194.997
15.958 155.806
16.003 98.2831
16.0481 68.3338
16.0931 64.6232
16.1382 62.4838
16.1833 60.3182
16.2283 58.8528
16.2734 58.2022
16.3185 58.69
16.3636 59.0138
16.4086 57.5971
16.4537 56.1062
16.4988 55.4408
16.5439 55.1291
16.589 55.0708
16.6341 54.6028
16.6792 54.0958
16.7243 54.7622
16.7694 54.8285
16.8145 54.7416
16.8596 55.1916
16.9047 56.3024
16.9498 56.6704
16.9949 55.4317
17.04 55.4483
17.0851 56.6826
17.1302 58.1278
17.1754 61.2002
17.2205 66.685
17.2656 74.3313
17.3108 82.6722
17.3559 81.9205
17.401 70.5224
17.4462 62.0674
17.4913 59.0417
17.5365 58.9136
17.5815 58.8184
17.6268 59.0847
17.6718 60.1947
17.7171 60.5719
17.7622 61.0204
17.8074 61.5045
17.8525 63.5608
17.8977 67.3933
17.9428 72.7285
17.9881 81.6692
18.0331 99.6727
18.0784 122.175
18.1237 138.238
18.1688 129.986
18.214 102.811
18.2591 86.6605
18.3044 90.5618
18.3495 100.389
18.3948 105.099
18.4399 95.3401
18.4852 77.1729
18.5303 65.6572
18.5756 61.8429
18.6207 61.1441
18.666 60.0934
18.7112 59.3347
18.7565 58.6165
18.8016 58.2639
18.8469 57.6255
18.892 57.5702
18.9374 56.9381
18.9825 56.7103
19.0278 56.5504
19.073 56.7219
19.1183 57.0321
19.1635 57.846
19.2088 59.1638
19.254 61.7456
19.2993 66.3747
19.3447 72.5173
19.3898 75.8003
19.4352 71.364
19.4804 63.0983
19.5257 56.5016
19.5709 53.9261
19.6163 53.6056
19.6615 53.4692
19.7068 53.0171
19.752 53.0586
19.7974 53.2238
19.8426 54.089
19.888 54.781
19.9332 55.817
19.9786 58.3772
20.0238 62.3308
20.0692 67.1702
20.1144 69.3354
20.1598 67.5882
20.205 63.1356
20.2504 62.0172
20.2957 63.7307
20.3411 65.6254
20.3863 63.4801
20.4318 58.2148
20.477 53.6032
20.5224 51.5156
20.5677 50.7657
20.6131 50.0569
20.6586 49.5649
20.7038 49.5209
20.7493 48.9567
20.7945 48.7922
20.84 48.5397
20.8853 48.4852
20.9307 48.4076
20.976 48.4463
21.0215 48.4963
21.0668 48.7893
21.1122 49.2236
21.1575 49.8763
21.203 50.7502
21.2483 51.3099
21.2938 51.1859
21.3391 49.8861
21.3846 48.6026
21.4299 48.3418
21.4754 48.1896
21.5207 48.2736
21.5662 48.5659
21.6116 48.9064
21.6571 49.559
21.7024 50.3891
21.7479 52.2801
21.7933 55.1556
21.8388 58.6873
21.8843 62.2966
21.9297 64.2262
21.9752 62.9703
22.0206 59.2822
22.0661 56.5105
22.1115 55.8338
22.157 55.5513
22.2024 53.9848
22.248 51.2143
22.2933 49.7143
22.3389 48.8598
22.3843 48.7837
22.4299 48.8319
22.4753 48.6198
22.5208 48.4734
22.5662 48.1444
22.6118 48.2774
22.6572 48.6118
22.7028 48.8447
22.7483 49.4973
22.7939 50.1168
22.8393 51.7339
22.8849 53.925
22.9303 55.8984
22.9759 57.4953
23.0214 56.8608
23.067 54.2628
23.1126 51.0205
23.1581 49.1295
23.2037 48.6163
23.2492 48.5226
23.2948 48.5587
23.3403 48.9311
23.3859 49.4024
23.4314 50.5734
23.477 52.5249
23.5225 54.8931
23.5682 56.8421
23.6137 57.6199
23.6593 55.2579
23.7048 51.5584
23.7505 48.2454
23.796 46.5424
23.8417 45.8299
23.8872 45.4691
23.9329 45.1146
23.9784 44.5452
24.0241 44.3664
24.0697 44.27
24.1154 43.932
24.1609 43.7545
24.2066 43.6619
24.2522 43.4754
24.2979 43.2313
24.3434 43.1133
24.3892 42.88
24.4349 43.015
24.4805 42.7601
24.5262 43.0058
24.5718 42.7752
24.6175 42.7261
24.6631 42.8603
24.7089 42.3732
24.7545 42.2778
24.8002 42.1003
24.8458 41.9397
24.8916 41.9337
24.9372 42.0176
24.983 42.3064
25.0286 42.6787
25.0744 43.0876
25.12 43.397
25.1658 44.2699
25.2114 44.2968
25.2572 44.6221
25.3029 44.7726
25.3487 44.7975
25.3943 44.3165
25.4402 43.3735
25.4858 42.38
25.5316 41.4283
25.5773 40.8077
25.6231 40.7346
25.669 40.4748
25.7147 40.4428
25.7605 40.2824
25.8062 40.2818
25.8521 40.4086
25.8977 40.4262
25.9436 40.6849
25.9893 40.8464
26.0352 41.3887
26.0809 41.3664
26.1268 41.402
26.1725 41.2327
26.2184 40.6164
26.2641 40.2958
26.31 39.9298
26.3557 40.0444
26.4017 40.0201
26.4474 40.0772
26.4933 40.5613
26.5391 41.1593
26.585 41.6456
26.6308 41.8102
26.6767 41.9499
26.7225 41.8543
26.7684 41.2269
26.8142 40.629
26.8601 40.2193
26.9059 39.8204
26.9519 39.1925
26.9979 39.0277
27.0437 38.6924
27.0896 38.5208
27.1354 38.5213
27.1814 38.324
27.2272 38.3702
27.2732 38.422
27.3191 38.1738
27.3651 38.2619
27.4109 38.1681
27.4569 38.2965
27.5027 38.4243
27.5488 38.3657
27.5946 38.1502
27.6407 37.8865
27.6865 37.8791
27.7326 37.7505
27.7784 37.6338
27.8245 37.7432
27.8703 37.8988
27.9164 38.1247
27.9623 38.2896
28.0084 38.6445
28.0543 38.9355
28.1003 38.8638
28.1462 38.6422
28.1923 38.4157
28.2384 37.8561
28.2843 37.5364
28.3304 37.0981
28.3764 36.5604
28.4225 36.2996
28.4684 36.1764
28.5145 35.7083
28.5605 35.778
28.6066 35.5447
28.6526 35.3957
28.6987 35.4668
28.7447 35.3381
28.7908 35.3044
28.8368 35.2726
28.8829 35.307
28.9289 35.2868
28.9751 35.068
29.0211 34.8269
29.0673 34.5243
29.1133 34.5531
29.1595 34.286
29.2055 34.1893
29.2517 34.1902
29.2977 34.1234
29.3439 34.1133
29.3899 34.0674
29.4361 34.05
29.4824 33.7955
29.5284 33.7014
29.5746 33.3958
29.6207 33.0871
29.6669 32.917
29.713 32.888
29.7593 32.7385
29.8053 32.7848
29.8516 32.5822
29.8977 32.6292
29.9439 32.5432
29.99 32.5427
30.0363 32.2835
30.0824 32.3849
30.1287 32.191
30.1748 32.3451
30.2211 32.3277
30.2673 32.1811
30.3136 32.2084
30.3597 32.0503
30.406 32.1056
30.4522 31.9765
30.4985 31.8996
30.5447 32.0429
30.591 32.0088
30.6372 32.0848
30.6835 32.0606
30.7297 32.0521
30.7761 31.9345
30.8224 31.9586
30.8686 31.7685
30.915 31.4845
30.9612 31.2899
31.0076 31.1584
31.0538 31.0995
31.1002 30.9977
31.1464 30.9349
31.1928 30.8158
31.2391 30.7981
31.2855 30.7853
31.3317 30.829
31.3781 30.9567
31.4244 30.8425
31.4708 30.7146
31.5171 30.619
31.5636 30.6373
31.6098 30.4089
31.6563 30.2157
31.7026 30.1778
31.7491 30.0675
31.7953 30.1678
31.8418 30.1197
31.8881 30.0273
31.9346 30.05
31.9809 29.9757
32.0275 29.7959
32.074 29.6088
32.1203 29.5113
32.1668 29.4166
32.2132 29.2205
32.2597 29.1679
32.306 29.0653
32.3526 28.8809
32.399 28.8189
32.4455 28.741
32.4919 28.5733
32.5385 28.5319
32.5848 28.4215
32.6314 28.4067
32.6778 28.376
32.7244 28.2556
32.7708 28.1325
32.8174 28.1196
32.8638 27.9704
32.9104 27.9921
32.9569 27.9506
33.0035 27.7857
33.0499 27.7858
33.0966 27.6962
33.143 27.6064
33.1897 27.5976
33.2361 27.5185
33.2828 27.5189
33.3293 27.3637
33.3759 27.3084
33.4226 27.0999
33.4691 26.9745
33.5158 26.9485
33.5623 26.8669
33.609 26.629
33.6555 26.6066
33.7022 26.418
33.7487 26.4089
33.7954 26.3889
33.842 26.301
33.8887 26.225
33.9353 26.1617
33.982 26.0372
34.0286 25.9617
34.0753 25.798
34.1219 25.8323
34.1687 25.6246
34.2152 25.6945
34.262 25.6061
34.3086 25.482
34.3554 25.3905
34.402 25.3204
34.4488 25.213
34.4954 25.1734
34.5422 25.1256
34.5889 24.9789
34.6357 24.859
34.6825 24.8296
34.7292 24.7804
34.776 24.6801
34.8227 24.5344
34.8695 24.6133
34.9162 24.4938
34.9631 24.3632
35.0098 24.4606
35.0566 24.3279
35.1033 24.1882
35.1502 24.1086
35.1969 24.116
35.2438 24.163
35.2906 23.9472
35.3375 23.9979
35.3842 23.9266
35.4311 23.8845
35.4779 23.7974
35.5248 23.8068
35.5716 23.624
35.6185 23.7082
35.6653 23.517
35.7123 23.4232
35.759 23.4005
35.806 23.2029
35.8528 23.161
35.8998 23.1366
35.9468 22.931
35.9936 23.0066
36.0406 22.9627
36.0874 22.9456
36.1345 22.8188
36.1813 22.7043
36.2283 22.6308
36.2752 22.5264
36.3222 22.5532
36.3691 22.5089
36.4161 22.3115
36.463 22.353
36.5101 22.3595
36.557 22.263
36.6041 22.1116
36.651 22.0845
36.6981 22.0991
36.745 21.9561
36.7921 21.8341
36.839 21.7755
36.8861 21.7526
36.9331 21.7178
36.9802 21.6269
37.0272 21.5282
37.0743 21.3875
37.1213 21.3508
37.1684 21.3186
37.2154 21.2629
37.2626 21.1954
37.3098 21.1978
37.3568 21.0367
37.404 21.0299
37.451 20.9438
37.4982 20.8845
37.5452 20.7083
37.5924 20.7085
37.6395 20.7416
37.6867 20.6483
37.7337 20.5015
37.781 20.4433
37.8281 20.3563
37.8753 20.321
37.9224 20.2901
37.9697 20.1778
38.0168 20.12
38.064 20.0899
38.1111 20.0373
38.1584 20.005
38.2056 19.9164
38.2529 19.842
38.3 19.7872
38.3473 19.7798
38.3945 19.6435
38.4418 19.6114
38.489 19.5717
38.5363 19.4281
38.5837 19.343
38.6309 19.3559
38.6782 19.2685
38.7254 19.1687
38.7728 19.1687
38.82 19.1078
38.8674 19.0699
38.9146 18.9292
38.9621 18.8839
39.0093 18.8952
39.0567 18.7821
39.104 18.7288
39.1514 18.6061
39.1987 18.6592
39.2461 18.5938
39.2934 18.5346
39.3409 18.4056
39.3882 18.3756
39.4356 18.2876
39.483 18.2786
39.5304 18.1794
39.5778 18.1823
39.6253 18.0905
39.6726 18.0169
39.7201 17.9682
39.7675 17.9423
39.815 17.8577
39.8624 17.8335
39.9099 17.761
39.9575 17.6907
40.0049 17.6136
40.0525 17.561
40.0999 17.5382
40.1474 17.4576
40.1949 17.3786
40.2425 17.3273
40.2899 17.3095
40.3375 17.242
40.385 17.2268
40.4326 17.1239
40.48 17.0796
40.5277 16.9889
40.5752 16.9939
40.6228 16.9292
40.6703 16.8027
40.718 16.8077
40.7655 16.7395
40.8132 16.6752
40.8607 16.6815
40.9084 16.6041
40.9559 16.5953
41.0036 16.4918
41.0512 16.4554
41.0989 16.4408
41.1465 16.3807
41.1942 16.255
41.242 16.2108
41.2896 16.1324
41.3373 16.0703
41.3849 16.0113
41.4327 16.0314
41.4803 15.9247
41.5281 15.8901
41.5758 15.8526
41.6236 15.7767
41.6712 15.7025
41.7191 15.6851
41.7667 15.6384
41.8146 15.6181
41.8622 15.468
41.9101 15.4891
41.9578 15.4448
42.0057 15.3675
42.0534 15.3757
42.1013 15.2673
42.149 15.242
42.1969 15.1832
42.2446 15.1177
42.2925 15.0669
42.3403 15.026
42.3882 14.9707
42.436 14.9145
42.4839 14.8372
42.5319 14.8414
42.5797 14.7621
42.6277 14.7243
42.6755 14.7097
42.7235 14.5534
42.7713 14.557
42.8193 14.5543
42.8671 14.4606
42.9152 14.3865
42.963 14.3699
43.0111 14.3219
43.0589 14.3237
43.107 14.2495
43.1549 14.1746
43.2029 14.0937
43.2508 14.0783
43.2989 13.9928
43.3468 13.9321
43.3949 13.9257
43.4429 13.8806
43.491 13.8585
43.5389 13.7885
43.5871 13.7467
43.635 13.691
43.6832 13.6771
43.7312 13.6088
43.7793 13.5131
43.8273 13.5235
43.8755 13.4294
43.9237 13.3966
43.9717 13.3351
44.0199 13.3204
44.068 13.2682
44.1162 13.2545
44.1642 13.207
44.2125 13.1195
44.2606 13.0461
44.3088 13.0552
44.3569 13.0358
44.4052 12.9877
44.4533 12.9574
44.5016 12.8439
44.5497 12.842
44.598 12.7905
44.6461 12.7331
44.6945 12.6615
44.7426 12.6558
44.791 12.5761
44.8391 12.5629
44.8875 12.5085
44.9357 12.4587
44.984 12.416
45.0322 12.4218
45.0806 12.3243
45.1288 12.3016
45.1773 12.1904
45.2257 12.2015
45.2739 12.1255
45.3224 12.1092
45.3706 12.0923
45.4191 11.99
45.4673 11.9663
45.5158 11.9376
45.5641 11.9255
45.6126 11.8733
45.6609 11.7904
45.7094 11.7638
45.7577 11.7089
45.8063 11.7304
45.8546 11.6454
45.9031 11.6339
45.9515 11.5834
46.0001 11.5239
46.0484 11.4738
46.097 11.4458
46.1454 11.4376
46.194 11.3684
46.2424 11.3045
46.291 11.3341
46.3395 11.2677
46.3881 11.2188
46.4365 11.1814
46.4852 11.129
46.5337 11.0724
46.5823 11.0283
46.631 10.9913
46.6795 10.9707
46.7282 10.9061
46.7767 10.9042
46.8254 10.8295
46.8739 10.8071
46.9226 10.7394
46.9712 10.6715
47.0199 10.7071
47.0685 10.6884
47.1173 10.5832
47.1658 10.5327
47.2146 10.5223
47.2632 10.4859
47.312 10.4392
47.3606 10.3898
47.4095 10.4106
47.4581 10.353
47.5069 10.2757
47.5556 10.2748
47.6044 10.1864
47.6531 10.1903
47.702 10.1291
47.7507 10.1304
47.7996 10.0811
47.8483 10.0445
47.8972 9.98924
47.9461 9.95636
47.9948 9.88056
48.0438 9.90958
48.0925 9.89075
48.1415 9.79515
48.1902 9.75441
48.2392 9.77874
48.288 9.71031
48.337 9.66344
48.3858 9.62188
48.4348 9.63526
48.4837 9.59145
48.5327 9.51648
48.5815 9.52467
48.6306 9.48661
48.6795 9.45276
48.7285 9.40677
48.7774 9.33563
48.8265 9.32517
48.8754 9.2666
48.9245 9.25361
48.9734 9.20189
49.0226 9.20677
49.0715 9.16169
49.1206 9.10508
49.1696 9.06469
49.2188 9.05503
49.2679 9.0045
49.3169 8.97199
49.3661 8.96655
49.4151 8.93663
49.4643 8.87847
49.5134 8.8848
49.5626 8.80751
49.6117 8.77744
49.6609 8.75814
49.71 8.68968
49.7592 8.65314
49.8083 8.64813
49.8576 8.62236
49.9067 8.53878
49.956 8.5545
50.0052 8.47615
50.0545 8.47887
50.1036 8.44277
50.153 8.40383
50.2022 8.36542
50.2515 8.35144
50.3007 8.28869
50.3501 8.28615
50.3993 8.25736
50.4487 8.24642
50.498 8.20105
50.5474 8.13291
50.5966 8.12577
50.6461 8.12008
50.6955 8.05105
50.7448 8.03632
50.7943 8.03452
50.8436 7.98048
50.8931 7.94185
50.9424 7.93616
50.9919 7.86761
51.0413 7.86412
51.0908 7.81462
51.1402 7.78597
51.1897 7.74688
51.2391 7.75921
51.2887 7.67595
51.3381 7.67393
51.3877 7.63094
51.4371 7.60077
51.4867 7.53442
51.5362 7.56695
51.5858 7.52598
51.6353 7.4826
51.6849 7.42718
51.7344 7.42026
51.7841 7.33866
51.8336 7.3424
51.8833 7.30939
51.9328 7.25046
51.9826 7.23302
52.0323 7.228
52.0818 7.21117
52.1316 7.13868
52.1812 7.13095
52.231 7.12892
52.2806 7.07778
52.3304 7.04723
52.38 7.02275
52.4298 7.01676
52.4794 6.93989
52.5293 6.91276
52.5789 6.91129
52.6288 6.89136
52.6785 6.85707
52.7284 6.81516
52.7781 6.76715
52.828 6.78543
52.8777 6.70711
52.9276 6.68457
52.9774 6.67454
53.0273 6.6801
53.0771 6.59343
53.1271 6.61893
53.1769 6.53901
53.2269 6.54918
53.2767 6.49473
53.3267 6.46737
53.3765 6.4686
53.4266 6.43049
53.4766 6.41089
53.5265 6.35756
53.5765 6.36823
53.6264 6.3068
53.6765 6.27026
53.7264 6.2666
53.7765 6.24418
53.8265 6.2336
53.8766 6.13037
53.9266 6.14863
53.9767 6.12682
54.0267 6.13432
54.0769 6.07789
54.1269 6.06136
54.1771 5.97603
54.2271 6.00791
54.2773 5.92515
54.3274 5.9522
54.3776 5.86028
54.4277 5.84867
54.478 5.81527
54.528 5.76921
54.5783 5.77405
54.6285 5.7562
54.6788 5.68813
54.7289 5.61168
54.7792 5.60332
54.8296 5.51173
54.8798 5.47433
54.9301 5.45644
54.9803 5.46689
55.0307 5.42573
55.0809 5.35499
55.1314 5.34088
55.1816 5.2833
55.232 5.21597
55.2823 5.24226
55.3328 5.10468
55.383 5.11893
55.4335 5.07271
55.4838 4.96055
55.5344 4.96624
55.5847 4.93641
55.6352 4.84256
55.6856 4.84408
55.7361 4.82868