File: XRD/Ni3Fe_FD0830.xy
TT I
1.27165 7.12372
1.31627 6.48353
1.36089 7.07537
1.40551 5.52005
1.45013 6.2847
1.49476 5.4278
1.53938 5.76511
1.584 5.6709
1.62863 5.1497
1.67325 5.07993
1.71787 5.33
1.7625 5.04819
1.80712 4.9312
1.85174 4.67989
1.89636 4.85374
1.94099 4.92517
1.98562 5.0096
2.03025 4.27152
2.07487 4.45007
2.11949 4.71754
2.16411 4.78342
2.20874 8.02929
2.25338 10.272
2.298 5.73972
2.34263 5.92954
2.38725 5.93952
2.43188 6.29293
2.4765 7.2843
2.52115 7.21804
2.56577 7.74354
2.6104 8.79134
2.65503 8.16151
2.69965 8.26768
2.7443 7.80556
2.78893 7.98914
2.83356 8.50747
2.87818 8.78944
2.92281 9.41894
2.96744 9.19493
3.01209 10.5744
3.05672 10.8115
3.10135 11.987
3.14599 13.6
3.19062 14.4487
3.23527 14.6782
3.2799 15.7373
3.32454 16.961
3.36917 17.4434
3.4138 18.7973
3.45844 19.4966
3.50309 20.6535
3.54773 21.2681
3.59237 22.8934
3.637 44.4688
3.68164 33.6931
3.7263 25.2708
3.77094 25.3214
3.81558 26.6828
3.86022 27.0817
3.90486 28.3847
3.9495 29.0077
3.99416 30.2429
4.0388 31.4462
4.08344 32.9743
4.12809 34.3011
4.17273 35.4188
4.21738 38.6662
4.26204 105.554
4.30669 91.6424
4.35133 43.5477
4.39598 43.1107
4.44063 47.6513
4.4853 52.9984
4.52995 58.6155
4.5746 59.5548
4.61925 53.547
4.6639 55.3896
4.70855 58.2569
4.75322 61.5169
4.79788 69.3968
4.84253 68.8403
4.88719 75.7916
4.93184 76.9184
4.97652 80.6712
5.02118 86.7073
5.06583 94.5504
5.11049 106.04
5.15515 155.255
5.19981 409.38
5.24449 2884.89
5.28916 12274.4
5.33382 2479.5
5.37848 194.464
5.42315 130.542
5.46783 120.706
5.5125 114.057
5.55716 102.197
5.60183 97.2113
5.6465 95.7668
5.69117 93.3787
5.73586 92.4051
5.78053 99.1271
5.8252 100.009
5.86988 102.64
5.91455 94.9971
5.95924 103.963
6.00392 244.445
6.0486 977.527
6.09328 4530.23
6.13795 2959.29
6.18263 192.705
6.22733 88.5416
6.27201 79.3568
6.3167 81.8858
6.36138 73.3775
6.40606 69.8924
6.45075 70.4694
6.49545 64.7161
6.54014 63.0377
6.58483 62.3951
6.62952 62.3422
6.67421 70.1425
6.71892 83.1
6.76361 60.741
6.8083 59.2363
6.853 60.126
6.89769 56.6035
6.94239 55.3004
6.98711 54.887
7.03181 55.7825
7.07651 54.6395
7.12121 54.4079
7.16591 55.8635
7.21063 55.1373
7.25533 59.9079
7.30004 89.2642
7.34475 64.2756
7.38945 54.039
7.43416 52.9568
7.47889 53.3725
7.5236 53.8636
7.56831 54.4209
7.61303 55.0098
7.65774 55.6734
7.70247 57.1324
7.74719 56.2321
7.79191 56.4173
7.83663 55.9557
7.88135 56.9621
7.92607 58.1172
7.97081 59.2407
8.01553 60.6465
8.06026 62.3012
8.10498 63.8883
8.14971 70.6177
8.19446 70.8702
8.23919 68.7196
8.28392 71.2448
8.32865 73.7006
8.37339 78.1573
8.41812 83.0852
8.46288 101.399
8.50761 180.152
8.55235 388.672
8.59709 1224.07
8.64183 2168.19
8.68658 824.439
8.73134 145.934
8.77609 96.4611
8.82083 92.1739
8.86558 93.0476
8.91033 92.6334
8.9551 89.2552
8.99985 85.1067
9.04461 83.4743
9.08936 84.6505
9.13412 82.7604
9.17888 81.7427
9.22365 81.7363
9.26841 81.8012
9.31318 84.8437
9.35794 87.2493
9.4027 86.2968
9.44749 85.0605
9.49226 84.7751
9.53703 85.5067
9.5818 89.415
9.62657 95.1987
9.67134 94.7877
9.71614 92.4051
9.76091 94.8534
9.80569 99.9495
9.85047 101.23
9.89525 110.544
9.94005 126.135
9.98484 192.459
10.0296 348.005
10.0744 845.985
10.1192 1817.62
10.164 1493.6
10.2088 343.859
10.2536 119.565
10.2984 108.144
10.3432 106.836
10.388 104.575
10.4328 122.163
10.4776 162.819
10.5224 299.259
10.5672 540.212
10.612 490.472
10.6568 179.595
10.7017 93.2418
10.7465 85.615
10.7913 82.5058
10.8361 80.4933
10.8809 78.4006
10.9257 77.2102
10.9706 77.5531
11.0154 75.0996
11.0602 72.5005
11.105 71.1967
11.1499 71.3387
11.1947 72.5299
11.2395 69.2021
11.2844 67.6667
11.3292 66.4802
11.374 65.6033
11.4189 64.7718
11.4637 64.1856
11.5086 64.0696
11.5534 64.5785
11.5983 63.3633
11.6431 62.8685
11.688 62.3937
11.7328 62.1647
11.7777 62.0566
11.8225 62.3098
11.8674 62.1181
11.9122 62.2619
11.9571 62.8655
12.002 64.2464
12.0468 68.5466
12.0917 78.3028
12.1366 104.151
12.1814 162.69
12.2263 216.906
12.2712 160.198
12.3161 84.9361
12.3609 65.7812
12.4058 63.3626
12.4507 63.7631
12.4956 64.6532
12.5405 64.703
12.5853 64.7266
12.6302 67.1403
12.6751 69.4441
12.72 67.0928
12.7649 67.3026
12.8098 67.9064
12.8547 69.4228
12.8996 70.9526
12.9445 72.6915
12.9894 74.3254
13.0343 75.4788
13.0792 80.3636
13.1242 92.6383
13.1691 111.238
13.214 150.55
13.2589 251.367
13.3038 391.474
13.3487 411.183
13.3937 230.538
13.4386 116.22
13.4835 105.989
13.5285 120.265
13.5734 162.912
13.6183 260.716
13.6633 369.671
13.7082 325.807
13.7531 166.312
13.7981 93.0041
13.843 80.6964
13.888 78.9027
13.9329 76.7246
13.9779 75.3849
14.0228 73.5803
14.0678 72.6205
14.1127 71.7009
14.1577 71.0967
14.2027 70.7088
14.2476 69.8193
14.2926 69.5319
14.3376 69.3654
14.3825 68.8366
14.4275 68.2458
14.4725 68.2624
14.5175 68.1857
14.5624 68.3591
14.6074 69.1498
14.6524 69.9409
14.6974 70.1255
14.7424 73.7439
14.7874 79.3395
14.8324 88.9711
14.8774 112.642
14.9224 160.636
14.9674 218.109
15.0124 216.785
15.0574 138.706
15.1024 85.0923
15.1474 71.4439
15.1924 69.5822
15.2374 68.6323
15.2824 67.8737
15.3274 66.9317
15.3725 66.1414
15.4175 65.8245
15.4625 64.9966
15.5076 65.1989
15.5526 65.3278
15.5976 65.3274
15.6426 67.9189
15.6877 72.6549
15.7327 79.6176
15.7778 96.0378
15.8228 131.251
15.8679 179.813
15.9129 196.75
15.958 145.695
16.003 88.1077
16.0481 65.3739
16.0931 62.2653
16.1382 60.7136
16.1833 59.6267
16.2283 58.0296
16.2734 57.651
16.3185 57.089
16.3636 57.0023
16.4086 55.9707
16.4537 55.387
16.4988 54.9834
16.5439 54.8369
16.589 54.499
16.6341 54.3116
16.6792 54.0363
16.7243 54.0803
16.7694 54.1959
16.8145 53.9584
16.8596 54.3846
16.9047 54.8991
16.9498 55.0621
16.9949 54.9331
17.04 55.6394
17.0851 56.8716
17.1302 58.2191
17.1754 61.168
17.2205 67.0989
17.2656 75.1908
17.3108 83.2826
17.3559 80.6679
17.401 68.1482
17.4462 60.5862
17.4913 58.7409
17.5365 58.6896
17.5815 58.7168
17.6268 59.0867
17.6718 59.7687
17.7171 60.1865
17.7622 60.8444
17.8074 62.2174
17.8525 64.8238
17.8977 67.8713
17.9428 73.3776
17.9881 83.0191
18.0331 102.342
18.0784 126.242
18.1237 141.819
18.1688 126.366
18.214 98.3107
18.2591 84.56
18.3044 91.3698
18.3495 101.911
18.3948 104.76
18.4399 91.0069
18.4852 73.6211
18.5303 64.3311
18.5756 61.4674
18.6207 60.4658
18.666 59.6129
18.7112 58.9629
18.7565 58.3742
18.8016 58.0783
18.8469 57.6031
18.892 57.2287
18.9374 56.8842
18.9825 56.5555
19.0278 56.3469
19.073 56.3282
19.1183 56.6962
19.1635 57.0578
19.2088 58.8499
19.254 61.7503
19.2993 66.7407
19.3447 72.4904
19.3898 75.1138
19.4352 69.4727
19.4804 60.6137
19.5257 55.3623
19.5709 53.458
19.6163 53.2652
19.6615 53.05
19.7068 52.9362
19.752 52.9862
19.7974 53.2602
19.8426 53.8409
19.888 54.4627
19.9332 55.7513
19.9786 58.5783
20.0238 62.7467
20.0692 67.9513
20.1144 69.7296
20.1598 66.6289
20.205 62.1465
20.2504 61.8089
20.2957 64.0138
20.3411 65.2632
20.3863 62.5132
20.4318 56.497
20.477 52.1128
20.5224 50.4307
20.5677 49.8756
20.6131 49.5897
20.6586 49.0804
20.7038 48.7825
20.7493 48.4974
20.7945 48.4326
20.84 48.3638
20.8853 48.3931
20.9307 48.2065
20.976 48.2499
21.0215 48.0922
21.0668 48.6157
21.1122 48.975
21.1575 49.7582
21.203 50.6337
21.2483 51.0306
21.2938 50.7966
21.3391 49.1993
21.3846 48.286
21.4299 47.8623
21.4754 47.7668
21.5207 48.1475
21.5662 48.4887
21.6116 48.9729
21.6571 49.4354
21.7024 50.3908
21.7479 52.5401
21.7933 55.3796
21.8388 59.3901
21.8843 62.7907
21.9297 63.7287
21.9752 61.2976
22.0206 57.761
22.0661 55.6641
22.1115 55.7363
22.157 55.2124
22.2024 53.0671
22.248 50.3285
22.2933 49.0285
22.3389 48.469
22.3843 48.2356
22.4299 48.1196
22.4753 48.1508
22.5208 48.0736
22.5662 48.0966
22.6118 48.2526
22.6572 48.597
22.7028 48.7839
22.7483 49.097
22.7939 49.9482
22.8393 51.5837
22.8849 54.0537
22.9303 56.1179
22.9759 57.3129
23.0214 56.3591
23.067 53.2288
23.1126 50.0837
23.1581 48.4997
23.2037 48.2123
23.2492 48.4274
23.2948 48.398
23.3403 48.635
23.3859 49.2134
23.4314 50.5213
23.477 52.6117
23.5225 54.8306
23.5682 56.8489
23.6137 57.1988
23.6593 54.072
23.7048 50.1677
23.7505 47.29
23.796 46.07
23.8417 45.5557
23.8872 44.9464
23.9329 44.702
23.9784 44.4428
24.0241 44.2497
24.0697 43.8464
24.1154 43.4796
24.1609 43.3888
24.2066 43.2731
24.2522 43.2276
24.2979 43.0436
24.3434 42.8682
24.3892 42.6216
24.4349 42.5725
24.4805 42.4734
24.5262 42.8897
24.5718 42.4805
24.6175 42.4652
24.6631 42.3071
24.7089 41.9268
24.7545 41.8417
24.8002 41.7511
24.8458 41.8233
24.8916 41.6122
24.9372 41.8614
24.983 42.2959
25.0286 42.546
25.0744 42.8817
25.12 43.4334
25.1658 44.0356
25.2114 44.2491
25.2572 44.2973
25.3029 44.4298
25.3487 44.6867
25.3943 43.9691
25.4402 42.7013
25.4858 41.8081
25.5316 40.8654
25.5773 40.3172
25.6231 40.421
25.669 40.1334
25.7147 40.131
25.7605 40.0004
25.8062 40.0805
25.8521 40.121
25.8977 40.2938
25.9436 40.5002
25.9893 40.6279
26.0352 41.1654
26.0809 41.3973
26.1268 41.2079
26.1725 40.8615
26.2184 40.1128
26.2641 39.8668
26.31 39.6366
26.3557 39.7202
26.4017 39.741
26.4474 40.0396
26.4933 40.2913
26.5391 41.0177
26.585 41.3225
26.6308 41.8026
26.6767 41.6321
26.7225 41.4437
26.7684 40.7827
26.8142 40.3647
26.8601 40.0337
26.9059 39.4527
26.9519 38.9729
26.9979 38.7549
27.0437 38.4401
27.0896 38.3214
27.1354 38.3672
27.1814 38.2245
27.2272 38.0725
27.2732 38.0863
27.3191 37.8663
27.3651 38.11
27.4109 38.0524
27.4569 38.1342
27.5027 38.1732
27.5488 38.1515
27.5946 37.8625
27.6407 37.6552
27.6865 37.5031
27.7326 37.4354
27.7784 37.4905
27.8245 37.4772
27.8703 37.6932
27.9164 37.9799
27.9623 38.054
28.0084 38.5177
28.0543 38.6449
28.1003 38.576
28.1462 38.3326
28.1923 37.9212
28.2384 37.4542
28.2843 37.0629
28.3304 36.6629
28.3764 36.2337
28.4225 35.9028
28.4684 35.7499
28.5145 35.6508
28.5605 35.4408
28.6066 35.3475
28.6526 35.1614
28.6987 35.2581
28.7447 35.1075
28.7908 34.9634
28.8368 35.2167
28.8829 35.0719
28.9289 34.8182
28.9751 34.6793
29.0211 34.4632
29.0673 34.2521
29.1133 34.1424
29.1595 34.075
29.2055 34.0132
29.2517 33.9875
29.2977 33.9395
29.3439 33.8629
29.3899 33.8461
29.4361 33.7774
29.4824 33.5036
29.5284 33.2736
29.5746 32.9889
29.6207 32.7146
29.6669 32.7346
29.713 32.6696
29.7593 32.4366
29.8053 32.5091
29.8516 32.462
29.8977 32.4412
29.9439 32.2852
29.99 32.1941
30.0363 32.0433
30.0824 32.14
30.1287 32.0562
30.1748 32.0487
30.2211 32.0638
30.2673 31.879
30.3136 32.0856
30.3597 31.8707
30.406 31.8412
30.4522 31.6999
30.4985 31.6813
30.5447 31.8864
30.591 31.8074
30.6372 31.9483
30.6835 31.7333
30.7297 31.8911
30.7761 31.7144
30.8224 31.6206
30.8686 31.3522
30.915 31.2922
30.9612 31.1377
31.0076 30.9778
31.0538 30.8627
31.1002 30.8011
31.1464 30.5183
31.1928 30.573
31.2391 30.5829
31.2855 30.5694
31.3317 30.5082
31.3781 30.616
31.4244 30.6007
31.4708 30.5161
31.5171 30.3731
31.5636 30.3761
31.6098 30.086
31.6563 29.9972
31.7026 29.833
31.7491 29.8152
31.7953 29.8636
31.8418 29.7775
31.8881 29.85
31.9346 29.7164
31.9809 29.7177
32.0275 29.6055
32.074 29.3862
32.1203 29.3324
32.1668 29.1425
32.2132 29.085
32.2597 28.8578
32.306 28.8249
32.3526 28.5993
32.399 28.5792
32.4455 28.3701
32.4919 28.3486
32.5385 28.2788
32.5848 28.1544
32.6314 28.2059
32.6778 28.0804
32.7244 27.9324
32.7708 27.8032
32.8174 27.8609
32.8638 27.6445
32.9104 27.7792
32.9569 27.6465
33.0035 27.5095
33.0499 27.53
33.0966 27.423
33.143 27.4839
33.1897 27.3675
33.2361 27.3439
33.2828 27.2553
33.3293 27.059
33.3759 27.0439
33.4226 26.886
33.4691 26.7542
33.5158 26.7483
33.5623 26.5902
33.609 26.3877
33.6555 26.3741
33.7022 26.2863
33.7487 26.271
33.7954 26.1992
33.842 26.0835
33.8887 26.0471
33.9353 25.9945
33.982 25.843
34.0286 25.7815
34.0753 25.6517
34.1219 25.6507
34.1687 25.5832
34.2152 25.4732
34.262 25.3332
34.3086 25.2987
34.3554 25.2342
34.402 25.1228
34.4488 25.0582
34.4954 24.9992
34.5422 24.8766
34.5889 24.8165
34.6357 24.6341
34.6825 24.5694
34.7292 24.587
34.776 24.3999
34.8227 24.4163
34.8695 24.3544
34.9162 24.2387
34.9631 24.1755
35.0098 24.2821
35.0566 24.0798
35.1033 23.9703
35.1502 23.9436
35.1969 23.8833
35.2438 23.9284
35.2906 23.8356
35.3375 23.7334
35.3842 23.6994
35.4311 23.7748
35.4779 23.6587
35.5248 23.5794
35.5716 23.5074
35.6185 23.4156
35.6653 23.2651
35.7123 23.3563
35.759 23.2722
35.806 23.0904
35.8528 23.0033
35.8998 22.9309
35.9468 22.8183
35.9936 22.8633
36.0406 22.7454
36.0874 22.7271
36.1345 22.6561
36.1813 22.6118
36.2283 22.4676
36.2752 22.3422
36.3222 22.4069
36.3691 22.323
36.4161 22.1941
36.463 22.1309
36.5101 22.2135
36.557 22.1376
36.6041 21.9709
36.651 21.9478
36.6981 21.8273
36.745 21.7985
36.7921 21.7447
36.839 21.6343
36.8861 21.5605
36.9331 21.3965
36.9802 21.4384
37.0272 21.3647
37.0743 21.2504
37.1213 21.204
37.1684 21.1475
37.2154 21.0981
37.2626 21.0212
37.3098 20.9118
37.3568 20.8212
37.404 20.8659
37.451 20.7805
37.4982 20.7013
37.5452 20.5795
37.5924 20.5092
37.6395 20.5668
37.6867 20.4898
37.7337 20.3567
37.781 20.3571
37.8281 20.2326
37.8753 20.1696
37.9224 20.1184
37.9697 20.0419
38.0168 19.9952
38.064 19.9637
38.1111 19.8793
38.1584 19.7589
38.2056 19.6624
38.2529 19.7185
38.3 19.5746
38.3473 19.5927
38.3945 19.4867
38.4418 19.4061
38.489 19.3487
38.5363 19.3425
38.5837 19.1718
38.6309 19.1495
38.6782 19.0681
38.7254 19.071
38.7728 18.9847
38.82 18.879
38.8674 18.855
38.9146 18.8475
38.9621 18.7683
39.0093 18.7358
39.0567 18.666
39.104 18.5952
39.1514 18.4971
39.1987 18.5092
39.2461 18.3679
39.2934 18.3223
39.3409 18.3038
39.3882 18.2128
39.4356 18.1582
39.483 18.0609
39.5304 18.0814
39.5778 18.0054
39.6253 18.0002
39.6726 17.8785
39.7201 17.7786
39.7675 17.7825
39.815 17.7557
39.8624 17.6199
39.9099 17.6821
39.9575 17.5188
40.0049 17.5126
40.0525 17.4511
40.0999 17.3799
40.1474 17.3166
40.1949 17.267
40.2425 17.2452
40.2899 17.139
40.3375 17.1229
40.385 17.0673
40.4326 16.9634
40.48 16.9298
40.5277 16.9014
40.5752 16.8987
40.6228 16.7919
40.6703 16.689
40.718 16.6215
40.7655 16.6447
40.8132 16.617
40.8607 16.5483
40.9084 16.437
40.9559 16.4177
41.0036 16.4268
41.0512 16.2979
41.0989 16.2614
41.1465 16.2661
41.1942 16.1619
41.242 16.101
41.2896 16.0317
41.3373 15.953
41.3849 15.9094
41.4327 15.8486
41.4803 15.7749
41.5281 15.7618
41.5758 15.7557
41.6236 15.67
41.6712 15.5908
41.7191 15.5663
41.7667 15.476
41.8146 15.4973
41.8622 15.3877
41.9101 15.3308
41.9578 15.2558
42.0057 15.2618
42.0534 15.1848
42.1013 15.1392
42.149 15.1047
42.1969 14.9859
42.2446 14.9904
42.2925 14.9385
42.3403 14.867
42.3882 14.8336
42.436 14.8371
42.4839 14.7161
42.5319 14.6957
42.5797 14.6583
42.6277 14.6011
42.6755 14.5579
42.7235 14.4529
42.7713 14.4881
42.8193 14.384
42.8671 14.3715
42.9152 14.3162
42.963 14.2595
43.0111 14.1837
43.0589 14.1965
43.107 14.0966
43.1549 14.0556
43.2029 14.0157
43.2508 13.981
43.2989 13.8891
43.3468 13.8378
43.3949 13.878
43.4429 13.7084
43.491 13.6911
43.5389 13.6662
43.5871 13.6404
43.635 13.5362
43.6832 13.5278
43.7312 13.4942
43.7793 13.4383
43.8273 13.4285
43.8755 13.3156
43.9237 13.2603
43.9717 13.2419
44.0199 13.2136
44.068 13.1831
44.1162 13.0904
44.1642 13.0919
44.2125 13.0663
44.2606 12.9943
44.3088 12.9234
44.3569 12.895
44.4052 12.858
44.4533 12.8294
44.5016 12.7489
44.5497 12.695
44.598 12.6801
44.6461 12.564
44.6945 12.5823
44.7426 12.551
44.791 12.4947
44.8391 12.4623
44.8875 12.4191
44.9357 12.3615
44.984 12.2806
45.0322 12.2582
45.0806 12.248
45.1288 12.2076
45.1773 12.1321
45.2257 12.0889
45.2739 12.0212
45.3224 12.0145
45.3706 12.0276
45.4191 11.92
45.4673 11.9123
45.5158 11.8681
45.5641 11.7897
45.6126 11.7648
45.6609 11.7201
45.7094 11.7087
45.7577 11.6041
45.8063 11.5822
45.8546 11.5706
45.9031 11.4717
45.9515 11.5005
46.0001 11.4543
46.0484 11.4329
46.097 11.384
46.1454 11.318
46.194 11.2696
46.2424 11.2369
46.291 11.2055
46.3395 11.1654
46.3881 11.0672
46.4365 11.0701
46.4852 11.0219
46.5337 10.9841
46.5823 10.9875
46.631 10.9496
46.6795 10.8731
46.7282 10.8933
46.7767 10.7793
46.8254 10.7263
46.8739 10.681
46.9226 10.6595
46.9712 10.6127
47.0199 10.5761
47.0685 10.5038
47.1173 10.5016
47.1658 10.4649
47.2146 10.4461
47.2632 10.3565
47.312 10.3552
47.3606 10.3304
47.4095 10.269
47.4581 10.2449
47.5069 10.2293
47.5556 10.1294
47.6044 10.1125
47.6531 10.1104
47.702 10.0407
47.7507 10.0128
47.7996 9.96359
47.8483 9.93804
47.8972 9.93376
47.9461 9.86712
47.9948 9.81927
48.0438 9.82344
48.0925 9.78814
48.1415 9.75374
48.1902 9.67365
48.2392 9.67864
48.288 9.63914
48.337 9.59272
48.3858 9.52798
48.4348 9.56259
48.4837 9.50687
48.5327 9.49693
48.5815 9.44016
48.6306 9.40167
48.6795 9.38704
48.7285 9.31321
48.7774 9.29105
48.8265 9.27069
48.8754 9.2078
48.9245 9.17495
48.9734 9.17846
49.0226 9.13816
49.0715 9.06244
49.1206 9.04329
49.1696 8.99705
49.2188 8.97139
49.2679 8.918
49.3169 8.87051
49.3661 8.87002
49.4151 8.83749
49.4643 8.82253
49.5134 8.77181
49.5626 8.71147
49.6117 8.6867
49.6609 8.67884
49.71 8.62769
49.7592 8.60213
49.8083 8.53583
49.8576 8.5209
49.9067 8.51532
49.956 8.45759
50.0052 8.42443
50.0545 8.35376
50.1036 8.35127
50.153 8.35338
50.2022 8.28227
50.2515 8.27383
50.3007 8.2242
50.3501 8.22555
50.3993 8.19534
50.4487 8.1439
50.498 8.12331
50.5474 8.07735
50.5966 8.04612
50.6461 8.04664
50.6955 7.99434
50.7448 7.98097
50.7943 7.92415
50.8436 7.89081
50.8931 7.87627
50.9424 7.83009
50.9919 7.81158
51.0413 7.77008
51.0908 7.75762
51.1402 7.70226
51.1897 7.68426
51.2391 7.64633
51.2887 7.61139
51.3381 7.58063
51.3877 7.5682
51.4371 7.52313
51.4867 7.45513
51.5362 7.45944
51.5858 7.40197
51.6353 7.41748
51.6849 7.35568
51.7344 7.39338
51.7841 7.31699
51.8336 7.27063
51.8833 7.24457
51.9328 7.2126
51.9826 7.15684
52.0323 7.164
52.0818 7.11535
52.1316 7.11578
52.1812 7.11853
52.231 7.01918
52.2806 7.02728
52.3304 7.00223
52.38 6.93883
52.4298 6.93138
52.4794 6.87174
52.5293 6.85832
52.5789 6.84016
52.6288 6.813
52.6785 6.75095
52.7284 6.75384
52.7781 6.75316
52.828 6.68478
52.8777 6.64582
52.9276 6.65543
52.9774 6.64051
53.0273 6.5923
53.0771 6.56038
53.1271 6.5522
53.1769 6.46383
53.2269 6.47816
53.2767 6.48056
53.3267 6.44944
53.3765 6.40025
53.4266 6.38072
53.4766 6.31851
53.5265 6.31294
53.5765 6.29457
53.6264 6.27474
53.6765 6.25859
53.7264 6.18459
53.7765 6.19962
53.8265 6.16158
53.8766 6.12541
53.9266 6.07994
53.9767 6.07773
54.0267 6.06108
54.0769 6.0026
54.1269 5.98213
54.1771 5.94483
54.2271 5.94572
54.2773 5.90013
54.3274 5.83019
54.3776 5.8756
54.4277 5.80195
54.478 5.80551
54.528 5.73426
54.5783 5.69503
54.6285 5.66261
54.6788 5.60504
54.7289 5.54415
54.7792 5.54285
54.8296 5.51066
54.8798 5.43673
54.9301 5.412
54.9803 5.34796
55.0307 5.35392
55.0809 5.26965
55.1314 5.33045
55.1816 5.22635
55.232 5.16413
55.2823 5.1191
55.3328 5.06133
55.383 5.04031
55.4335 4.99772
55.4838 4.937
55.5344 4.88652
55.5847 4.85818
55.6352 4.87665
55.6856 4.837
55.7361 4.79437