File: XRD/Ni3Fe_FD0280.xy
TT I
1.27165 7.36611
1.31627 6.81625
1.36089 7.35098
1.40551 7.02862
1.45013 6.22953
1.49476 6.40338
1.53938 6.34972
1.584 5.74155
1.62863 6.27977
1.67325 5.65078
1.71787 4.60202
1.7625 5.09887
1.80712 4.99852
1.85174 4.86374
1.89636 5.26223
1.94099 5.12693
1.98562 5.51151
2.03025 4.78733
2.07487 5.02088
2.11949 4.51312
2.16411 5.01263
2.20874 14.7275
2.25338 24.4553
2.298 5.99607
2.34263 4.6641
2.38725 4.81807
2.43188 4.78044
2.4765 5.46253
2.52115 6.13263
2.56577 6.41165
2.6104 6.89354
2.65503 6.17153
2.69965 6.86675
2.7443 7.32322
2.78893 7.54708
2.83356 7.63749
2.87818 8.19007
2.92281 9.02914
2.96744 9.70486
3.01209 10.3221
3.05672 11.0732
3.10135 12.4347
3.14599 12.9806
3.19062 13.9162
3.23527 15.2763
3.2799 16.2542
3.32454 17.4318
3.36917 18.1641
3.4138 18.9943
3.45844 19.997
3.50309 21.655
3.54773 22.2009
3.59237 24.4234
3.637 98.3685
3.68164 63.2712
3.7263 26.4957
3.77094 26.5649
3.81558 27.2391
3.86022 28.1553
3.90486 29.0618
3.9495 30.8046
3.99416 31.7487
4.0388 33.1906
4.08344 34.4355
4.12809 36.0504
4.17273 38.4104
4.21738 44.9973
4.26204 265.125
4.30669 237.118
4.35133 51.1121
4.39598 46.1381
4.44063 55.4352
4.4853 68.8236
4.52995 54.0286
4.5746 53.5414
4.61925 55.1092
4.6639 57.2224
4.70855 60.1617
4.75322 63.5093
4.79788 66.8621
4.84253 69.8568
4.88719 74.4826
4.93184 78.6003
4.97652 84.6545
5.02118 91.7979
5.06583 100.836
5.11049 116.7
5.15515 200.877
5.19981 518.508
5.24449 3258.27
5.28916 10891.9
5.33382 4158.74
5.37848 265.125
5.42315 148.043
5.46783 125.049
5.5125 114.646
5.55716 108.787
5.60183 103.951
5.6465 102.32
5.69117 99.6896
5.73586 97.5601
5.78053 98.6342
5.8252 98.0306
5.86988 99.0985
5.91455 102.053
5.95924 114.315
6.00392 268.192
6.0486 1127.65
6.09328 3678.3
6.13795 3691.25
6.18263 371.626
6.22733 107.657
6.27201 90.1679
6.3167 109.341
6.36138 85.839
6.40606 72.8569
6.45075 70.5181
6.49545 68.4629
6.54014 66.376
6.58483 65.6352
6.62952 65.5293
6.67421 97.6295
6.71892 155.077
6.76361 72.7802
6.8083 61.3862
6.853 59.7286
6.89769 59.057
6.94239 58.6651
6.98711 58.2402
7.03181 57.7608
7.07651 57.1244
7.12121 57.2143
7.16591 57.9438
7.21063 58.0182
7.25533 73.3747
7.30004 193.514
7.34475 98.4825
7.38945 58.9871
7.43416 56.5319
7.47889 56.7535
7.5236 56.8034
7.56831 57.4346
7.61303 59.4085
7.65774 60.126
7.70247 59.0328
7.74719 58.1637
7.79191 59.0455
7.83663 59.0225
7.88135 60.0868
7.92607 60.899
7.97081 61.8706
8.01553 63.3715
8.06026 64.3444
8.10498 66.4628
8.14971 77.437
8.19446 75.7478
8.23919 72.2977
8.28392 74.7156
8.32865 77.268
8.37339 81.9477
8.41812 89.7518
8.46288 123.337
8.50761 194.819
8.55235 462.957
8.59709 1056.35
8.64183 2051.62
8.68658 1285.12
8.73134 233.766
8.77609 109.202
8.82083 99.0565
8.86558 94.742
8.91033 94.1884
8.9551 96.5009
8.99985 89.236
9.04461 87.3136
9.08936 86.4269
9.13412 85.5287
9.17888 85.3351
9.22365 86.307
9.26841 85.1186
9.31318 86.4757
9.35794 86.6356
9.4027 86.3859
9.44749 87.325
9.49226 88.076
9.53703 89.2515
9.5818 91.4979
9.62657 96.1621
9.67134 103.515
9.71614 98.0709
9.76091 97.9391
9.80569 101.037
9.85047 104.643
9.89525 130.323
9.94005 146.631
9.98484 203.431
10.0296 408.164
10.0744 749.435
10.1192 1488.93
10.164 1750.01
10.2088 591.134
10.2536 152.594
10.2984 121.801
10.3432 122.183
10.388 111.032
10.4328 128.94
10.4776 179.286
10.5224 265.493
10.5672 454.521
10.612 541.19
10.6568 259.74
10.7017 108.193
10.7465 91.5338
10.7913 87.3278
10.8361 84.7862
10.8809 82.609
10.9257 82.0206
10.9706 82.8994
11.0154 78.2751
11.0602 75.6665
11.105 74.8555
11.1499 79.3048
11.1947 87.872
11.2395 78.028
11.2844 73.4198
11.3292 69.6859
11.374 68.7369
11.4189 68.1531
11.4637 67.3086
11.5086 68.103
11.5534 71.477
11.5983 68.3337
11.6431 66.1552
11.688 65.5154
11.7328 65.5488
11.7777 65.4877
11.8225 65.2333
11.8674 64.8757
11.9122 65.4453
11.9571 65.2469
12.002 66.4341
12.0468 71.8656
12.0917 86.0549
12.1366 104.822
12.1814 140.338
12.2263 196.315
12.2712 191.466
12.3161 115.537
12.3609 76.2114
12.4058 67.5696
12.4507 67.2297
12.4956 67.4935
12.5405 67.2863
12.5853 67.951
12.6302 76.2237
12.6751 83.1708
12.72 73.1652
12.7649 70.7924
12.8098 70.9227
12.8547 72.5007
12.8996 74.1975
12.9445 75.0875
12.9894 77.258
13.0343 78.5167
13.0792 82.3594
13.1242 93.5072
13.1691 124.55
13.214 159.307
13.2589 220.449
13.3038 327.555
13.3487 434.575
13.3937 320.459
13.4386 150.625
13.4835 115.292
13.5285 134.031
13.5734 162.082
13.6183 222.386
13.6633 317.745
13.7082 362.812
13.7531 238.091
13.7981 113.6
13.843 86.8004
13.888 83.1311
13.9329 80.5662
13.9779 78.9478
14.0228 77.2919
14.0678 75.9942
14.1127 75.5955
14.1577 75.7233
14.2027 74.6092
14.2476 73.5006
14.2926 73.5859
14.3376 74.7642
14.3825 73.174
14.4275 71.6527
14.4725 71.4686
14.5175 71.7392
14.5624 71.8401
14.6074 74.0507
14.6524 74.7175
14.6974 73.2461
14.7424 75.1001
14.7874 83.9298
14.8324 96.8146
14.8774 112.97
14.9224 142.515
14.9674 190.348
15.0124 221.948
15.0574 174.729
15.1024 106.425
15.1474 77.1009
15.1924 73.888
15.2374 74.3857
15.2824 73.3731
15.3274 71.0724
15.3725 69.8186
15.4175 69.3387
15.4625 68.6126
15.5076 69.0172
15.5526 69.1289
15.5976 68.5028
15.6426 70.0663
15.6877 76.525
15.7327 86.4932
15.7778 97.8961
15.8228 119.298
15.8679 155.327
15.9129 191.463
15.958 177.312
16.003 116.34
16.0481 74.7627
16.0931 68.3416
16.1382 65.6734
16.1833 63.4353
16.2283 61.6158
16.2734 60.9975
16.3185 61.065
16.3636 62.1664
16.4086 60.4273
16.4537 58.5176
16.4988 57.9067
16.5439 57.9164
16.589 57.4602
16.6341 57.2867
16.6792 56.7124
16.7243 57.3274
16.7694 57.3051
16.8145 57.1842
16.8596 57.5887
16.9047 59.0584
16.9498 59.5132
16.9949 58.1299
17.04 58.2426
17.0851 59.4643
17.1302 61.7592
17.1754 64.4087
17.2205 67.7066
17.2656 73.717
17.3108 82.0283
17.3559 85.4084
17.401 77.6941
17.4462 66.8408
17.4913 61.9067
17.5365 61.7135
17.5815 61.7426
17.6268 61.996
17.6718 62.7786
17.7171 63.3244
17.7622 63.8171
17.8074 64.5064
17.8525 67.2242
17.8977 72.4042
17.9428 78.5412
17.9881 84.8927
18.0331 96.5242
18.0784 114.699
18.1237 136.868
18.1688 141.794
18.214 117.943
18.2591 93.2893
18.3044 90.1445
18.3495 98.1137
18.3948 108.16
18.4399 104.736
18.4852 86.1651
18.5303 70.8143
18.5756 65.2199
18.6207 64.0791
18.666 63.2062
18.7112 62.5016
18.7565 61.5173
18.8016 61.0937
18.8469 60.6331
18.892 60.223
18.9374 59.7035
18.9825 59.5131
19.0278 59.1557
19.073 59.4649
19.1183 60.0673
19.1635 61.2246
19.2088 62.2701
19.254 63.8274
19.2993 66.9553
19.3447 72.5722
19.3898 77.9906
19.4352 77.0354
19.4804 69.0902
19.5257 60.6653
19.5709 56.8632
19.6163 56.2469
19.6615 56.022
19.7068 55.5074
19.752 55.5935
19.7974 55.8382
19.8426 56.7928
19.888 57.7324
19.9332 58.5211
19.9786 60.4472
20.0238 63.0539
20.0692 67.564
20.1144 71.4246
20.1598 72.3169
20.205 67.4413
20.2504 64.3611
20.2957 64.6467
20.3411 67.0754
20.3863 67.3514
20.4318 62.6748
20.477 57.1283
20.5224 54.2662
20.5677 53.1456
20.6131 52.6161
20.6586 51.9613
20.7038 51.6941
20.7493 51.2499
20.7945 51.0992
20.84 50.952
20.8853 50.7741
20.9307 50.4459
20.976 50.624
21.0215 50.62
21.0668 51.0615
21.1122 51.2461
21.1575 51.9183
21.203 52.5015
21.2483 53.3078
21.2938 53.5641
21.3391 52.5404
21.3846 51.3129
21.4299 50.5091
21.4754 50.517
21.5207 50.4642
21.5662 50.946
21.6116 51.2919
21.6571 52.1634
21.7024 53.2189
21.7479 54.4822
21.7933 56.6549
21.8388 59.3862
21.8843 63.2346
21.9297 66.5593
21.9752 66.9392
22.0206 63.3766
22.0661 59.2661
22.1115 57.8498
22.157 58.0992
22.2024 57.37
22.248 54.4723
22.2933 52.3695
22.3389 51.2953
22.3843 51.1841
22.4299 51.0157
22.4753 51.0912
22.5208 50.6844
22.5662 50.5541
22.6118 50.8511
22.6572 50.8218
22.7028 51.4896
22.7483 52.0109
22.7939 52.4086
22.8393 53.4786
22.8849 55.1849
22.9303 56.9186
22.9759 59.1362
23.0214 59.9632
23.067 58.0287
23.1126 54.2513
23.1581 51.7106
23.2037 51.1064
23.2492 50.9723
23.2948 51.1065
23.3403 51.4444
23.3859 51.8721
23.4314 52.4238
23.477 53.6604
23.5225 55.4606
23.5682 57.8453
23.6137 59.7443
23.6593 58.7712
23.7048 55.1091
23.7505 51.3468
23.796 48.8458
23.8417 48.0055
23.8872 47.5076
23.9329 47.2778
23.9784 46.8411
24.0241 46.5685
24.0697 46.2306
24.1154 46.0356
24.1609 45.8322
24.2066 45.6803
24.2522 45.5834
24.2979 45.2435
24.3434 45.2996
24.3892 45.064
24.4349 44.8101
24.4805 44.6231
24.5262 44.851
24.5718 44.6603
24.6175 44.5806
24.6631 44.6691
24.7089 44.3572
24.7545 44.2085
24.8002 44.0246
24.8458 44.0776
24.8916 43.8537
24.9372 43.9831
24.983 44.3152
25.0286 44.4169
25.0744 44.7886
25.12 45.1534
25.1658 45.7891
25.2114 46.2922
25.2572 46.3785
25.3029 46.4364
25.3487 46.4645
25.3943 46.7178
25.4402 45.7403
25.4858 44.7857
25.5316 43.5118
25.5773 42.76
25.6231 42.6045
25.669 42.2175
25.7147 42.1453
25.7605 42.1098
25.8062 42.1923
25.8521 42.4539
25.8977 42.2801
25.9436 42.3879
25.9893 42.4912
26.0352 42.9684
26.0809 42.8471
26.1268 43.2851
26.1725 43.0531
26.2184 42.7945
26.2641 42.0458
26.31 41.7973
26.3557 41.8652
26.4017 41.815
26.4474 42.0658
26.4933 42.348
26.5391 42.7154
26.585 42.9656
26.6308 43.4019
26.6767 43.6947
26.7225 43.8186
26.7684 43.2823
26.8142 42.7577
26.8601 42.1206
26.9059 41.7167
26.9519 41.4304
26.9979 40.9342
27.0437 40.5366
27.0896 40.2681
27.1354 40.2322
27.1814 40.2179
27.2272 40.0899
27.2732 39.9739
27.3191 39.9757
27.3651 40.0357
27.4109 39.934
27.4569 39.9434
27.5027 39.994
27.5488 40.1218
27.5946 40.0052
27.6407 39.8666
27.6865 39.7805
27.7326 39.4078
27.7784 39.3948
27.8245 39.5112
27.8703 39.6103
27.9164 39.7849
27.9623 39.6973
28.0084 40.1413
28.0543 40.42
28.1003 40.516
28.1462 40.5046
28.1923 40.136
28.2384 39.6467
28.2843 39.4195
28.3304 38.8957
28.3764 38.4559
28.4225 38.0774
28.4684 37.7227
28.5145 37.384
28.5605 37.3347
28.6066 37.0788
28.6526 37.0682
28.6987 36.9773
28.7447 36.956
28.7908 36.7596
28.8368 36.8303
28.8829 36.884
28.9289 36.6883
28.9751 36.6966
29.0211 36.5698
29.0673 36.2018
29.1133 35.9768
29.1595 35.8534
29.2055 35.6665
29.2517 35.7332
29.2977 35.6205
29.3439 35.6613
29.3899 35.7161
29.4361 35.4948
29.4824 35.4148
29.5284 35.1829
29.5746 34.7381
29.6207 34.5771
29.6669 34.3971
29.713 34.2971
29.7593 34.3152
29.8053 34.3119
29.8516 34.1178
29.8977 34.1605
29.9439 34.0284
29.99 33.9793
30.0363 33.7553
30.0824 33.8538
30.1287 33.7192
30.1748 33.7324
30.2211 33.691
30.2673 33.5882
30.3136 33.8075
30.3597 33.5743
30.406 33.4784
30.4522 33.3199
30.4985 33.3104
30.5447 33.433
30.591 33.3115
30.6372 33.4664
30.6835 33.3213
30.7297 33.4716
30.7761 33.4328
30.8224 33.3833
30.8686 33.1815
30.915 32.9358
30.9612 32.806
31.0076 32.6179
31.0538 32.4769
31.1002 32.4275
31.1464 32.266
31.1928 32.2436
31.2391 32.1916
31.2855 32.0373
31.3317 32.0855
31.3781 32.1607
31.4244 32.1255
31.4708 31.9728
31.5171 32.0934
31.5636 32.0368
31.6098 31.7692
31.6563 31.6346
31.7026 31.4854
31.7491 31.3944
31.7953 31.4104
31.8418 31.3385
31.8881 31.3664
31.9346 31.3569
31.9809 31.2102
32.0275 31.1332
32.074 31.0577
32.1203 30.8977
32.1668 30.8196
32.2132 30.5197
32.2597 30.4355
32.306 30.3506
32.3526 30.1817
32.399 30.132
32.4455 29.9788
32.4919 29.8813
32.5385 29.8659
32.5848 29.6023
32.6314 29.7159
32.6778 29.6005
32.7244 29.477
32.7708 29.3578
32.8174 29.2418
32.8638 29.1521
32.9104 29.2302
32.9569 29.2075
33.0035 29.0084
33.0499 28.986
33.0966 28.9087
33.143 28.8336
33.1897 28.8657
33.2361 28.7899
33.2828 28.8361
33.3293 28.5342
33.3759 28.4927
33.4226 28.3734
33.4691 28.2868
33.5158 28.1038
33.5623 28.0788
33.609 27.8482
33.6555 27.8258
33.7022 27.6886
33.7487 27.6421
33.7954 27.5771
33.842 27.5003
33.8887 27.4437
33.9353 27.3492
33.982 27.2918
34.0286 27.1854
34.0753 26.991
34.1219 26.9575
34.1687 26.8777
34.2152 26.8384
34.262 26.6996
34.3086 26.6907
34.3554 26.5443
34.402 26.3854
34.4488 26.4228
34.4954 26.2702
34.5422 26.1351
34.5889 26.14
34.6357 26.0147
34.6825 25.9742
34.7292 25.8892
34.776 25.7841
34.8227 25.6996
34.8695 25.5388
34.9162 25.5848
34.9631 25.4465
35.0098 25.5171
35.0566 25.3814
35.1033 25.3256
35.1502 25.2662
35.1969 25.1849
35.2438 25.17
35.2906 24.9923
35.3375 25.0952
35.3842 24.9571
35.4311 24.8894
35.4779 24.848
35.5248 24.8261
35.5716 24.7936
35.6185 24.6892
35.6653 24.5471
35.7123 24.4773
35.759 24.3649
35.806 24.2611
35.8528 24.1628
35.8998 24.164
35.9468 24.0298
35.9936 24.0496
36.0406 23.9173
36.0874 23.9715
36.1345 23.8368
36.1813 23.7596
36.2283 23.6415
36.2752 23.5412
36.3222 23.5863
36.3691 23.4435
36.4161 23.3369
36.463 23.3119
36.5101 23.3551
36.557 23.2232
36.6041 23.0417
36.651 23.1058
36.6981 23.0541
36.745 22.9552
36.7921 22.8479
36.839 22.7596
36.8861 22.682
36.9331 22.6523
36.9802 22.549
37.0272 22.4861
37.0743 22.3903
37.1213 22.4292
37.1684 22.278
37.2154 22.2021
37.2626 22.0586
37.3098 22.0716
37.3568 22.0301
37.404 22.0092
37.451 21.9073
37.4982 21.7932
37.5452 21.6951
37.5924 21.6605
37.6395 21.6923
37.6867 21.6183
37.7337 21.5081
37.781 21.4319
37.8281 21.3953
37.8753 21.2185
37.9224 21.1962
37.9697 21.0726
38.0168 20.9888
38.064 20.9864
38.1111 20.9932
38.1584 20.8586
38.2056 20.7613
38.2529 20.71
38.3 20.6803
38.3473 20.6416
38.3945 20.4723
38.4418 20.4566
38.489 20.432
38.5363 20.332
38.5837 20.2911
38.6309 20.2249
38.6782 20.1172
38.7254 20.0759
38.7728 20.0743
38.82 19.8999
38.8674 19.8695
38.9146 19.8114
38.9621 19.798
39.0093 19.6691
39.0567 19.7181
39.104 19.5721
39.1514 19.502
39.1987 19.4842
39.2461 19.3573
39.2934 19.3379
39.3409 19.2054
39.3882 19.1962
39.4356 19.1337
39.483 19.0318
39.5304 19.0119
39.5778 18.9625
39.6253 18.8926
39.6726 18.8427
39.7201 18.8615
39.7675 18.8138
39.815 18.7079
39.8624 18.5582
39.9099 18.5653
39.9575 18.4681
40.0049 18.4839
40.0525 18.3118
40.0999 18.3091
40.1474 18.2777
40.1949 18.2041
40.2425 18.1132
40.2899 18.1369
40.3375 18.0921
40.385 17.9231
40.4326 17.879
40.48 17.8167
40.5277 17.8181
40.5752 17.7502
40.6228 17.688
40.6703 17.642
40.718 17.5661
40.7655 17.4942
40.8132 17.447
40.8607 17.4051
40.9084 17.3667
40.9559 17.2641
41.0036 17.2824
41.0512 17.1501
41.0989 17.1263
41.1465 17.0754
41.1942 17.0181
41.242 16.9085
41.2896 16.9105
41.3373 16.8379
41.3849 16.7794
41.4327 16.7666
41.4803 16.5934
41.5281 16.6422
41.5758 16.5431
41.6236 16.4967
41.6712 16.4075
41.7191 16.394
41.7667 16.3201
41.8146 16.3235
41.8622 16.1844
41.9101 16.215
41.9578 16.0413
42.0057 16.0824
42.0534 16.0362
42.1013 15.9929
42.149 15.9039
42.1969 15.8871
42.2446 15.8102
42.2925 15.7689
42.3403 15.6839
42.3882 15.6348
42.436 15.5936
42.4839 15.5085
42.5319 15.4789
42.5797 15.4148
42.6277 15.3885
42.6755 15.3271
42.7235 15.2829
42.7713 15.2649
42.8193 15.113
42.8671 15.0601
42.9152 15.0776
42.963 15.0282
43.0111 14.9448
43.0589 14.9354
43.107 14.8417
43.1549 14.7815
43.2029 14.733
43.2508 14.6263
43.2989 14.6585
43.3468 14.5915
43.3949 14.5108
43.4429 14.5175
43.491 14.4893
43.5389 14.3484
43.5871 14.3479
43.635 14.2865
43.6832 14.2413
43.7312 14.1963
43.7793 14.134
43.8273 14.1125
43.8755 14.0259
43.9237 14.0301
43.9717 13.941
44.0199 13.8895
44.068 13.8581
44.1162 13.7629
44.1642 13.785
44.2125 13.7047
44.2606 13.6911
44.3088 13.6081
44.3569 13.5828
44.4052 13.5438
44.4533 13.506
44.5016 13.3607
44.5497 13.4066
44.598 13.3915
44.6461 13.2896
44.6945 13.235
44.7426 13.2193
44.791 13.1551
44.8391 13.1724
44.8875 13.05
44.9357 13.0481
44.984 12.9689
45.0322 12.9015
45.0806 12.8552
45.1288 12.8539
45.1773 12.7754
45.2257 12.7761
45.2739 12.6853
45.3224 12.6819
45.3706 12.6332
45.4191 12.5258
45.4673 12.5061
45.5158 12.5137
45.5641 12.4187
45.6126 12.3745
45.6609 12.3071
45.7094 12.2815
45.7577 12.2369
45.8063 12.222
45.8546 12.1825
45.9031 12.1103
45.9515 12.0924
46.0001 12.0656
46.0484 11.9888
46.097 11.9861
46.1454 11.9248
46.194 11.8644
46.2424 11.8108
46.291 11.7651
46.3395 11.7284
46.3881 11.6676
46.4365 11.6584
46.4852 11.6205
46.5337 11.5611
46.5823 11.5331
46.631 11.4468
46.6795 11.4705
46.7282 11.3791
46.7767 11.355
46.8254 11.2681
46.8739 11.2413
46.9226 11.2152
46.9712 11.1958
47.0199 11.1432
47.0685 11.1099
47.1173 11.0446
47.1658 11.0408
47.2146 10.9679
47.2632 10.8801
47.312 10.8886
47.3606 10.8747
47.4095 10.7971
47.4581 10.7462
47.5069 10.7358
47.5556 10.6559
47.6044 10.6521
47.6531 10.622
47.702 10.5148
47.7507 10.5313
47.7996 10.512
47.8483 10.4532
47.8972 10.4013
47.9461 10.3845
47.9948 10.3351
48.0438 10.3206
48.0925 10.2851
48.1415 10.2437
48.1902 10.1557
48.2392 10.1862
48.288 10.1355
48.337 10.0754
48.3858 10.0395
48.4348 9.96758
48.4837 9.97037
48.5327 9.97009
48.5815 9.92209
48.6306 9.90008
48.6795 9.84711
48.7285 9.78453
48.7774 9.77015
48.8265 9.74589
48.8754 9.65314
48.9245 9.63838
48.9734 9.61201
49.0226 9.56832
49.0715 9.54463
49.1206 9.46659
49.1696 9.47326
49.2188 9.43444
49.2679 9.41804
49.3169 9.37912
49.3661 9.31636
49.4151 9.2873
49.4643 9.2594
49.5134 9.24846
49.5626 9.1749
49.6117 9.13109
49.6609 9.13368
49.71 9.0297
49.7592 9.05864
49.8083 9.00148
49.8576 8.99089
49.9067 8.94844
49.956 8.94129
50.0052 8.89118
50.0545 8.86629
50.1036 8.8374
50.153 8.77801
50.2022 8.71733
50.2515 8.66784
50.3007 8.68073
50.3501 8.59486
50.3993 8.6319
50.4487 8.56303
50.498 8.55075
50.5474 8.50404
50.5966 8.47874
50.6461 8.4451
50.6955 8.43196
50.7448 8.41837
50.7943 8.3459
50.8436 8.31989
50.8931 8.30929
50.9424 8.26613
50.9919 8.18558
51.0413 8.17967
51.0908 8.15676
51.1402 8.14088
51.1897 8.10066
51.2391 8.06931
51.2887 8.013
51.3381 8.011
51.3877 7.99011
51.4371 7.93835
51.4867 7.90335
51.5362 7.85496
51.5858 7.83379
51.6353 7.77077
51.6849 7.73558
51.7344 7.6925
51.7841 7.68633
51.8336 7.67751
51.8833 7.63019
51.9328 7.58237
51.9826 7.55395
52.0323 7.54939
52.0818 7.47855
52.1316 7.44785
52.1812 7.44714
52.231 7.41428
52.2806 7.39664
52.3304 7.36187
52.38 7.32738
52.4298 7.26634
52.4794 7.25817
52.5293 7.20296
52.5789 7.19025
52.6288 7.17634
52.6785 7.14285
52.7284 7.10157
52.7781 7.08148
52.828 7.02511
52.8777 7.0384
52.9276 6.9962
52.9774 6.93786
53.0273 6.906
53.0771 6.91927
53.1271 6.92469
53.1769 6.8309
53.2269 6.80269
53.2767 6.78162
53.3267 6.73152
53.3765 6.74672
53.4266 6.70996
53.4766 6.65887
53.5265 6.62978
53.5765 6.57637
53.6264 6.55594
53.6765 6.57997
53.7264 6.52432
53.7765 6.51104
53.8265 6.50926
53.8766 6.43851
53.9266 6.43899
53.9767 6.39601
54.0267 6.37022
54.0769 6.30046
54.1269 6.31026
54.1771 6.23418
54.2271 6.26001
54.2773 6.20987
54.3274 6.18109
54.3776 6.11366
54.4277 6.13075
54.478 6.05986
54.528 6.05214
54.5783 6.00992
54.6285 5.91589
54.6788 5.88778
54.7289 5.86984
54.7792 5.78336
54.8296 5.77095
54.8798 5.71792
54.9301 5.67568
54.9803 5.64062
55.0307 5.71206
55.0809 5.57328
55.1314 5.47354
55.1816 5.47297
55.232 5.43478
55.2823 5.37898
55.3328 5.35043
55.383 5.25562
55.4335 5.27892
55.4838 5.17222
55.5344 5.1274
55.5847 5.11689
55.6352 5.06486
55.6856 5.07693
55.7361 5.03819