File: XRD/Ni3Fe_FD0973.xy
TT I
1.27165 6.9759
1.31627 6.20035
1.36089 6.68914
1.40551 6.10522
1.45013 5.75556
1.49476 5.8999
1.53938 5.20982
1.584 4.8419
1.62863 5.4532
1.67325 4.80939
1.71787 4.84761
1.7625 4.92001
1.80712 4.83805
1.85174 4.85403
1.89636 4.90561
1.94099 4.96072
1.98562 4.86633
2.03025 4.5088
2.07487 4.04405
2.11949 5.34558
2.16411 5.10736
2.20874 13.6949
2.25338 22.0876
2.298 6.26837
2.34263 5.51713
2.38725 6.6549
2.43188 5.64588
2.4765 7.25484
2.52115 7.8369
2.56577 7.6428
2.6104 8.16463
2.65503 7.93816
2.69965 9.37653
2.7443 8.69172
2.78893 8.02192
2.83356 9.06197
2.87818 8.74215
2.92281 8.93835
2.96744 9.78166
3.01209 10.8219
3.05672 11.4445
3.10135 12.2544
3.14599 13.7685
3.19062 14.6889
3.23527 15.135
3.2799 15.2009
3.32454 16.6841
3.36917 18.1437
3.4138 19.1659
3.45844 19.4081
3.50309 20.9671
3.54773 21.7822
3.59237 23.8402
3.637 88.8662
3.68164 57.9275
3.7263 26.3009
3.77094 25.8516
3.81558 26.7032
3.86022 27.6223
3.90486 28.4296
3.9495 29.7672
3.99416 30.6371
4.0388 31.7319
4.08344 32.9944
4.12809 34.5195
4.17273 36.8951
4.21738 42.7915
4.26204 241.934
4.30669 211.84
4.35133 47.8951
4.39598 43.9426
4.44063 53.4116
4.4853 64.2632
4.52995 49.4417
4.5746 50.316
4.61925 52.6271
4.6639 54.6225
4.70855 57.0112
4.75322 59.9359
4.79788 62.9512
4.84253 66.273
4.88719 69.7179
4.93184 73.5769
4.97652 78.9352
5.02118 84.2807
5.06583 91.6216
5.11049 100.801
5.15515 163.0
5.19981 277.313
5.24449 2371.29
5.28916 13479.3
5.33382 2808.82
5.37848 171.849
5.42315 123.593
5.46783 109.958
5.5125 103.347
5.55716 99.3177
5.60183 96.0772
5.6465 94.7607
5.69117 91.9217
5.73586 89.7745
5.78053 89.248
5.8252 88.5099
5.86988 89.3008
5.91455 90.8271
5.95924 96.3153
6.00392 170.56
6.0486 801.479
6.09328 4606.69
6.13795 3156.05
6.18263 213.45
6.22733 89.1488
6.27201 80.7741
6.3167 99.0123
6.36138 78.5501
6.40606 68.1535
6.45075 66.0893
6.49545 64.5632
6.54014 62.9774
6.58483 61.9772
6.62952 61.9132
6.67421 92.6602
6.71892 138.658
6.76361 67.603
6.8083 57.5017
6.853 56.4175
6.89769 56.2093
6.94239 55.8356
6.98711 55.0355
7.03181 54.6093
7.07651 54.3114
7.12121 54.293
7.16591 54.6791
7.21063 54.8844
7.25533 70.3691
7.30004 173.492
7.34475 89.1546
7.38945 55.9517
7.43416 53.5187
7.47889 53.6556
7.5236 53.9968
7.56831 54.9026
7.61303 56.5005
7.65774 56.443
7.70247 55.2598
7.74719 55.2629
7.79191 55.4571
7.83663 56.0932
7.88135 56.8355
7.92607 57.8128
7.97081 58.6156
8.01553 59.8787
8.06026 60.9125
8.10498 62.8544
8.14971 71.851
8.19446 71.0197
8.23919 68.1298
8.28392 70.529
8.32865 72.4986
8.37339 76.3364
8.41812 83.0908
8.46288 109.471
8.50761 142.586
8.55235 330.408
8.59709 1138.12
8.64183 2279.29
8.68658 922.577
8.73134 158.223
8.77609 96.2458
8.82083 90.2827
8.86558 87.8658
8.91033 88.1307
8.9551 89.7866
8.99985 83.5164
9.04461 82.012
9.08936 81.231
9.13412 80.3001
9.17888 80.2066
9.22365 81.1481
9.26841 80.338
9.31318 81.0028
9.35794 81.2065
9.4027 81.4402
9.44749 82.3859
9.49226 82.9872
9.53703 83.9885
9.5818 85.4189
9.62657 90.2253
9.67134 96.1517
9.71614 91.2637
9.76091 91.8951
9.80569 94.4359
9.85047 97.7216
9.89525 120.287
9.94005 130.83
9.98484 155.405
10.0296 297.904
10.0744 767.421
10.1192 1782.09
10.164 1514.28
10.2088 355.523
10.2536 121.314
10.2984 110.697
10.3432 111.439
10.388 101.952
10.4328 110.351
10.4776 147.267
10.5224 272.896
10.5672 527.632
10.612 498.628
10.6568 194.45
10.7017 94.2466
10.7465 84.8519
10.7913 81.3644
10.8361 79.5181
10.8809 77.5791
10.9257 76.8683
10.9706 77.3849
11.0154 73.5726
11.0602 71.3754
11.105 70.6925
11.1499 74.9188
11.1947 81.6282
11.2395 72.7904
11.2844 69.0168
11.3292 65.9452
11.374 64.9425
11.4189 64.3149
11.4637 63.6382
11.5086 64.2783
11.5534 66.8444
11.5983 64.3227
11.6431 62.478
11.688 61.6812
11.7328 61.6934
11.7777 61.6348
11.8225 61.4137
11.8674 61.2413
11.9122 61.0977
11.9571 61.6649
12.002 62.3769
12.0468 65.1414
12.0917 75.1167
12.1366 98.3765
12.1814 153.588
12.2263 205.389
12.2712 161.24
12.3161 95.5286
12.3609 68.9518
12.4058 63.2139
12.4507 62.8895
12.4956 63.1622
12.5405 63.3006
12.5853 64.2707
12.6302 71.7471
12.6751 76.5029
12.72 68.4187
12.7649 66.7235
12.8098 66.9484
12.8547 68.1705
12.8996 69.459
12.9445 70.4983
12.9894 72.1544
13.0343 73.9826
13.0792 76.7571
13.1242 83.4441
13.1691 103.815
13.214 138.241
13.2589 233.003
13.3038 380.349
13.3487 425.815
13.3937 245.143
13.4386 118.744
13.4835 99.7258
13.5285 112.237
13.5734 149.376
13.6183 247.292
13.6633 359.541
13.7082 327.088
13.7531 175.46
13.7981 94.4225
13.843 79.8779
13.888 77.8374
13.9329 75.568
13.9779 74.3009
14.0228 72.8923
14.0678 71.294
14.1127 71.1169
14.1577 70.6071
14.2027 69.8996
14.2476 68.7939
14.2926 69.0486
14.3376 70.0408
14.3825 68.7707
14.4275 67.3854
14.4725 67.1616
14.5175 67.5766
14.5624 67.4858
14.6074 69.848
14.6524 69.9666
14.6974 68.6602
14.7424 69.6971
14.7874 74.8922
14.8324 83.9693
14.8774 105.691
14.9224 151.699
14.9674 213.078
15.0124 217.425
15.0574 145.486
15.1024 87.5964
15.1474 70.86
15.1924 68.8399
15.2374 69.3528
15.2824 68.7413
15.3274 66.566
15.3725 65.1616
15.4175 64.831
15.4625 64.5932
15.5076 64.9689
15.5526 64.6835
15.5976 64.3441
15.6426 64.7468
15.6877 68.9772
15.7327 75.646
15.7778 90.7103
15.8228 124.344
15.8679 174.916
15.9129 197.299
15.958 149.911
16.003 93.6035
16.0481 66.8845
16.0931 63.198
16.1382 60.9181
16.1833 59.3475
16.2283 57.8529
16.2734 57.1341
16.3185 57.5316
16.3636 58.0362
16.4086 56.6263
16.4537 55.0708
16.4988 54.2469
16.5439 54.4572
16.589 54.0797
16.6341 53.6255
16.6792 53.4147
16.7243 53.6756
16.7694 54.0424
16.8145 53.7126
16.8596 53.9762
16.9047 55.453
16.9498 55.6605
16.9949 54.6518
17.04 54.4125
17.0851 55.5047
17.1302 56.9135
17.1754 59.6996
17.2205 64.9733
17.2656 73.6396
17.3108 82.1291
17.3559 80.0568
17.401 68.6697
17.4462 60.6681
17.4913 58.1223
17.5365 57.7904
17.5815 57.9066
17.6268 58.1788
17.6718 59.1307
17.7171 59.459
17.7622 59.7838
17.8074 60.2263
17.8525 62.1042
17.8977 65.6941
17.9428 70.5927
17.9881 79.5196
18.0331 98.2096
18.0784 122.778
18.1237 137.503
18.1688 124.192
18.214 98.4175
18.2591 83.5138
18.3044 89.5284
18.3495 100.27
18.3948 105.863
18.4399 93.4676
18.4852 75.0058
18.5303 64.5121
18.5756 60.8663
18.6207 59.9618
18.666 59.1402
18.7112 58.4717
18.7565 57.6814
18.8016 57.4892
18.8469 56.8642
18.892 56.5712
18.9374 56.007
18.9825 55.8306
19.0278 55.6362
19.073 55.5624
19.1183 55.8833
19.1635 56.5178
19.2088 57.8958
19.254 60.6971
19.2993 65.5005
19.3447 71.9279
19.3898 75.0827
19.4352 69.7182
19.4804 61.1835
19.5257 55.3371
19.5709 53.0203
19.6163 52.6847
19.6615 52.742
19.7068 52.2277
19.752 52.0774
19.7974 52.3755
19.8426 53.0684
19.888 53.6976
19.9332 54.834
19.9786 57.4883
20.0238 61.3688
20.0692 66.788
20.1144 68.6698
20.1598 66.074
20.205 61.9709
20.2504 61.0753
20.2957 63.2838
20.3411 65.0239
20.3863 62.3149
20.4318 56.8957
20.477 52.3434
20.5224 50.4431
20.5677 49.9051
20.6131 49.3973
20.6586 48.5537
20.7038 48.5839
20.7493 48.1037
20.7945 47.9468
20.84 47.862
20.8853 47.6517
20.9307 47.6382
20.976 47.6532
21.0215 47.3902
21.0668 47.8773
21.1122 48.4035
21.1575 49.1413
21.203 50.0277
21.2483 50.6286
21.2938 50.0872
21.3391 48.8765
21.3846 47.9475
21.4299 47.5001
21.4754 47.2704
21.5207 47.4066
21.5662 47.7227
21.6116 47.8568
21.6571 48.5173
21.7024 49.3903
21.7479 51.319
21.7933 54.2406
21.8388 58.096
21.8843 62.0196
21.9297 63.3666
21.9752 61.5099
22.0206 57.9317
22.0661 55.4696
22.1115 54.9793
22.157 54.8171
22.2024 52.8934
22.248 50.3265
22.2933 48.9454
22.3389 48.013
22.3843 47.9257
22.4299 47.884
22.4753 47.9076
22.5208 47.603
22.5662 47.5199
22.6118 47.6272
22.6572 47.6789
22.7028 48.0705
22.7483 48.3987
22.7939 49.2538
22.8393 50.7397
22.8849 53.1938
22.9303 55.4273
22.9759 57.016
23.0214 56.1038
23.067 53.2773
23.1126 49.7785
23.1581 48.1653
23.2037 47.7117
23.2492 47.766
23.2948 47.7432
23.3403 47.7239
23.3859 48.4597
23.4314 49.5507
23.477 51.6242
23.5225 54.1249
23.5682 56.4386
23.6137 56.7913
23.6593 54.1251
23.7048 50.373
23.7505 47.2621
23.796 45.8295
23.8417 45.0679
23.8872 44.6541
23.9329 44.2088
23.9784 43.9021
24.0241 43.739
24.0697 43.5915
24.1154 43.1961
24.1609 43.2006
24.2066 43.0901
24.2522 42.7801
24.2979 42.628
24.3434 42.4355
24.3892 42.2926
24.4349 42.3733
24.4805 42.1235
24.5262 42.1894
24.5718 42.1972
24.6175 42.1107
24.6631 41.8766
24.7089 41.651
24.7545 41.5713
24.8002 41.3721
24.8458 41.2552
24.8916 41.0218
24.9372 41.3483
24.983 41.5939
25.0286 41.9872
25.0744 42.5126
25.12 42.9304
25.1658 43.4946
25.2114 43.6758
25.2572 44.0214
25.3029 44.1891
25.3487 44.2524
25.3943 43.7287
25.4402 42.4546
25.4858 41.4722
25.5316 40.6168
25.5773 40.1119
25.6231 40.0902
25.669 39.7705
25.7147 39.7924
25.7605 39.6087
25.8062 39.7552
25.8521 39.8349
25.8977 39.841
25.9436 40.0167
25.9893 40.2008
26.0352 40.6971
26.0809 40.7492
26.1268 40.9797
26.1725 40.4341
26.2184 39.9512
26.2641 39.347
26.31 39.3229
26.3557 39.2722
26.4017 39.2589
26.4474 39.552
26.4933 39.9225
26.5391 40.4137
26.585 40.9819
26.6308 41.4038
26.6767 41.3479
26.7225 41.2043
26.7684 40.512
26.8142 40.0026
26.8601 39.6306
26.9059 39.2036
26.9519 38.8153
26.9979 38.3657
27.0437 38.1504
27.0896 37.9753
27.1354 37.8965
27.1814 37.8366
27.2272 37.6489
27.2732 37.7628
27.3191 37.5614
27.3651 37.7267
27.4109 37.5689
27.4569 37.7181
27.5027 37.7703
27.5488 37.8629
27.5946 37.6729
27.6407 37.3687
27.6865 37.267
27.7326 37.1012
27.7784 37.1338
27.8245 37.1485
27.8703 37.0493
27.9164 37.5777
27.9623 37.6664
28.0084 37.9689
28.0543 38.4241
28.1003 38.2841
28.1462 38.1149
28.1923 37.7493
28.2384 37.1332
28.2843 36.8895
28.3304 36.4089
28.3764 35.991
28.4225 35.7445
28.4684 35.4406
28.5145 35.2238
28.5605 35.1819
28.6066 34.9845
28.6526 34.9673
28.6987 34.9578
28.7447 34.7984
28.7908 34.8174
28.8368 34.7821
28.8829 34.7264
28.9289 34.6796
28.9751 34.4593
29.0211 34.2319
29.0673 33.941
29.1133 33.8618
29.1595 33.648
29.2055 33.693
29.2517 33.7399
29.2977 33.6453
29.3439 33.701
29.3899 33.6047
29.4361 33.5136
29.4824 33.2295
29.5284 33.0456
29.5746 32.7353
29.6207 32.6013
29.6669 32.4891
29.713 32.3489
29.7593 32.3131
29.8053 32.2276
29.8516 32.1982
29.8977 32.1391
29.9439 31.9228
29.99 31.9353
30.0363 31.7561
30.0824 31.895
30.1287 31.733
30.1748 31.781
30.2211 31.8043
30.2673 31.6942
30.3136 31.6492
30.3597 31.595
30.406 31.5381
30.4522 31.4365
30.4985 31.3946
30.5447 31.484
30.591 31.5216
30.6372 31.615
30.6835 31.5064
30.7297 31.571
30.7761 31.5765
30.8224 31.3434
30.8686 31.253
30.915 30.9579
30.9612 30.9535
31.0076 30.6256
31.0538 30.5115
31.1002 30.4904
31.1464 30.4094
31.1928 30.2862
31.2391 30.3293
31.2855 30.2924
31.3317 30.2734
31.3781 30.4194
31.4244 30.2783
31.4708 30.2284
31.5171 30.181
31.5636 30.1648
31.6098 29.8849
31.6563 29.8194
31.7026 29.605
31.7491 29.5464
31.7953 29.6682
31.8418 29.6191
31.8881 29.5803
31.9346 29.5265
31.9809 29.5033
32.0275 29.3294
32.074 29.1769
32.1203 28.9684
32.1668 28.9596
32.2132 28.81
32.2597 28.6809
32.306 28.632
32.3526 28.3741
32.399 28.2823
32.4455 28.2219
32.4919 28.0709
32.5385 28.0499
32.5848 27.9548
32.6314 27.9534
32.6778 27.8681
32.7244 27.7131
32.7708 27.6369
32.8174 27.6187
32.8638 27.5134
32.9104 27.537
32.9569 27.5349
33.0035 27.3357
33.0499 27.3333
33.0966 27.2119
33.143 27.2886
33.1897 27.0736
33.2361 27.0638
33.2828 27.0453
33.3293 26.8186
33.3759 26.8183
33.4226 26.7184
33.4691 26.61
33.5158 26.5556
33.5623 26.3965
33.609 26.1813
33.6555 26.1859
33.7022 26.0459
33.7487 25.9068
33.7954 25.9751
33.842 25.8907
33.8887 25.8013
33.9353 25.7832
33.982 25.6439
34.0286 25.533
34.0753 25.5385
34.1219 25.3506
34.1687 25.3563
34.2152 25.2392
34.262 25.2153
34.3086 25.1298
34.3554 25.0192
34.402 24.8892
34.4488 24.8597
34.4954 24.7504
34.5422 24.6508
34.5889 24.5073
34.6357 24.5184
34.6825 24.4636
34.7292 24.3953
34.776 24.3037
34.8227 24.2044
34.8695 24.1402
34.9162 24.0921
34.9631 24.0301
35.0098 23.9647
35.0566 23.8763
35.1033 23.7554
35.1502 23.8902
35.1969 23.7747
35.2438 23.6997
35.2906 23.6649
35.3375 23.5284
35.3842 23.5107
35.4311 23.5167
35.4779 23.4861
35.5248 23.4236
35.5716 23.3687
35.6185 23.2755
35.6653 23.1422
35.7123 23.1128
35.759 22.9908
35.806 22.9457
35.8528 22.7839
35.8998 22.6927
35.9468 22.6677
35.9936 22.7183
36.0406 22.606
36.0874 22.6014
36.1345 22.4234
36.1813 22.3503
36.2283 22.321
36.2752 22.2268
36.3222 22.2344
36.3691 22.1417
36.4161 22.046
36.463 22.0486
36.5101 22.014
36.557 21.862
36.6041 21.7524
36.651 21.7856
36.6981 21.7003
36.745 21.6615
36.7921 21.626
36.839 21.4558
36.8861 21.3546
36.9331 21.3349
36.9802 21.257
37.0272 21.2023
37.0743 21.0582
37.1213 21.0841
37.1684 20.9388
37.2154 20.9518
37.2626 20.818
37.3098 20.8919
37.3568 20.8039
37.404 20.7075
37.451 20.6423
37.4982 20.6171
37.5452 20.4817
37.5924 20.3737
37.6395 20.4565
37.6867 20.321
37.7337 20.2272
37.781 20.177
37.8281 20.1273
37.8753 20.0551
37.9224 19.9433
37.9697 19.8684
38.0168 19.8645
38.064 19.727
38.1111 19.732
38.1584 19.5862
38.2056 19.5828
38.2529 19.5254
38.3 19.4642
38.3473 19.456
38.3945 19.3575
38.4418 19.3434
38.489 19.2593
38.5363 19.1219
38.5837 19.1454
38.6309 19.0303
38.6782 18.9493
38.7254 18.885
38.7728 18.8914
38.82 18.7265
38.8674 18.7504
38.9146 18.5878
38.9621 18.5795
39.0093 18.5425
39.0567 18.6201
39.104 18.4443
39.1514 18.3283
39.1987 18.2891
39.2461 18.3056
39.2934 18.2224
39.3409 18.1895
39.3882 18.0725
39.4356 17.9874
39.483 17.9571
39.5304 17.9158
39.5778 17.9454
39.6253 17.7466
39.6726 17.6917
39.7201 17.72
39.7675 17.6561
39.815 17.6515
39.8624 17.5223
39.9099 17.5154
39.9575 17.4382
40.0049 17.3903
40.0525 17.286
40.0999 17.2894
40.1474 17.2448
40.1949 17.1222
40.2425 17.0666
40.2899 17.0401
40.3375 17.0078
40.385 16.8679
40.4326 16.8323
40.48 16.7848
40.5277 16.7845
40.5752 16.7498
40.6228 16.625
40.6703 16.607
40.718 16.5635
40.7655 16.5035
40.8132 16.4567
40.8607 16.4318
40.9084 16.3441
40.9559 16.3121
41.0036 16.2669
41.0512 16.2022
41.0989 16.157
41.1465 16.0644
41.1942 16.0153
41.242 15.8906
41.2896 15.8503
41.3373 15.8973
41.3849 15.794
41.4327 15.7276
41.4803 15.7159
41.5281 15.6459
41.5758 15.5759
41.6236 15.4986
41.6712 15.439
41.7191 15.4381
41.7667 15.3943
41.8146 15.357
41.8622 15.3144
41.9101 15.3008
41.9578 15.1616
42.0057 15.167
42.0534 15.1188
42.1013 15.1081
42.149 14.9475
42.1969 15.0076
42.2446 14.8872
42.2925 14.8744
42.3403 14.778
42.3882 14.7599
42.436 14.7392
42.4839 14.661
42.5319 14.59
42.5797 14.5297
42.6277 14.53
42.6755 14.4715
42.7235 14.3808
42.7713 14.3692
42.8193 14.2734
42.8671 14.208
42.9152 14.2528
42.963 14.1704
43.0111 14.1032
43.0589 14.0464
43.107 13.9862
43.1549 13.9747
43.2029 13.8898
43.2508 13.8576
43.2989 13.8276
43.3468 13.8031
43.3949 13.7412
43.4429 13.7072
43.491 13.594
43.5389 13.5877
43.5871 13.5816
43.635 13.5215
43.6832 13.5107
43.7312 13.4108
43.7793 13.3095
43.8273 13.2875
43.8755 13.1971
43.9237 13.217
43.9717 13.1679
44.0199 13.1635
44.068 13.0569
44.1162 12.97
44.1642 12.9708
44.2125 12.9351
44.2606 12.9176
44.3088 12.84
44.3569 12.8328
44.4052 12.7818
44.4533 12.7008
44.5016 12.7019
44.5497 12.6639
44.598 12.5836
44.6461 12.5405
44.6945 12.4997
44.7426 12.4233
44.791 12.4222
44.8391 12.3505
44.8875 12.3828
44.9357 12.3314
44.984 12.2019
45.0322 12.1802
45.0806 12.1643
45.1288 12.1055
45.1773 12.0389
45.2257 12.0008
45.2739 11.9674
45.3224 11.9417
45.3706 11.8755
45.4191 11.8728
45.4673 11.8048
45.5158 11.7797
45.5641 11.7168
45.6126 11.6796
45.6609 11.6035
45.7094 11.5875
45.7577 11.5243
45.8063 11.4876
45.8546 11.4811
45.9031 11.4434
45.9515 11.4092
46.0001 11.3058
46.0484 11.3574
46.097 11.333
46.1454 11.2378
46.194 11.1902
46.2424 11.1453
46.291 11.1195
46.3395 11.0908
46.3881 11.027
46.4365 10.9885
46.4852 11.0
46.5337 10.9071
46.5823 10.8624
46.631 10.8102
46.6795 10.7946
46.7282 10.7595
46.7767 10.7142
46.8254 10.6864
46.8739 10.6327
46.9226 10.5998
46.9712 10.5715
47.0199 10.4927
47.0685 10.4949
47.1173 10.4078
47.1658 10.4023
47.2146 10.3644
47.2632 10.3068
47.312 10.2929
47.3606 10.2595
47.4095 10.21
47.4581 10.1564
47.5069 10.098
47.5556 10.0721
47.6044 10.0641
47.6531 10.0204
47.702 9.94908
47.7507 9.94317
47.7996 9.91081
47.8483 9.89871
47.8972 9.82958
47.9461 9.78502
47.9948 9.74141
48.0438 9.73575
48.0925 9.7182
48.1415 9.66929
48.1902 9.62654
48.2392 9.65344
48.288 9.54635
48.337 9.52841
48.3858 9.46317
48.4348 9.43804
48.4837 9.43642
48.5327 9.40229
48.5815 9.38623
48.6306 9.32638
48.6795 9.30431
48.7285 9.26981
48.7774 9.25056
48.8265 9.16737
48.8754 9.16344
48.9245 9.15013
48.9734 9.07995
49.0226 9.03657
49.0715 9.03109
49.1206 8.96033
49.1696 8.953
49.2188 8.93209
49.2679 8.88051
49.3169 8.84134
49.3661 8.77653
49.4151 8.77848
49.4643 8.74698
49.5134 8.70844
49.5626 8.65858
49.6117 8.66778
49.6609 8.59686
49.71 8.55381
49.7592 8.4947
49.8083 8.49052
49.8576 8.50665
49.9067 8.45075
49.956 8.42032
50.0052 8.37621
50.0545 8.34491
50.1036 8.32413
50.153 8.27638
50.2022 8.24459
50.2515 8.20269
50.3007 8.16223
50.3501 8.17076
50.3993 8.16096
50.4487 8.08936
50.498 8.07525
50.5474 8.03534
50.5966 8.0238
50.6461 7.99528
50.6955 7.95146
50.7448 7.91642
50.7943 7.84754
50.8436 7.8314
50.8931 7.80874
50.9424 7.78925
50.9919 7.77188
51.0413 7.72865
51.0908 7.71893
51.1402 7.67753
51.1897 7.62584
51.2391 7.62278
51.2887 7.5773
51.3381 7.55697
51.3877 7.49509
51.4371 7.46326
51.4867 7.43264
51.5362 7.42608
51.5858 7.38599
51.6353 7.32431
51.6849 7.31279
51.7344 7.29016
51.7841 7.28336
51.8336 7.22415
51.8833 7.21397
51.9328 7.1601
51.9826 7.12064
52.0323 7.14969
52.0818 7.10132
52.1316 7.03012
52.1812 7.04513
52.231 7.02645
52.2806 6.94483
52.3304 6.94783
52.38 6.91723
52.4298 6.9136
52.4794 6.82479
52.5293 6.79393
52.5789 6.83405
52.6288 6.76782
52.6785 6.74015
52.7284 6.73716
52.7781 6.67448
52.828 6.65886
52.8777 6.62109
52.9276 6.62286
52.9774 6.6115
53.0273 6.57366
53.0771 6.52836
53.1271 6.52681
53.1769 6.46295
53.2269 6.44835
53.2767 6.37055
53.3267 6.42966
53.3765 6.37337
53.4266 6.35113
53.4766 6.28818
53.5265 6.26811
53.5765 6.24744
53.6264 6.20355
53.6765 6.18344
53.7264 6.13316
53.7765 6.15572
53.8265 6.10817
53.8766 6.07932
53.9266 6.04708
53.9767 6.06621
54.0267 6.0149
54.0769 5.94825
54.1269 5.9727
54.1771 5.97119
54.2271 5.93902
54.2773 5.84562
54.3274 5.83041
54.3776 5.80765
54.4277 5.80611
54.478 5.71947
54.528 5.69608
54.5783 5.68744
54.6285 5.63019
54.6788 5.59383
54.7289 5.53561
54.7792 5.52574
54.8296 5.44987
54.8798 5.41215
54.9301 5.37713
54.9803 5.33327
55.0307 5.34148
55.0809 5.29979
55.1314 5.25197
55.1816 5.17311
55.232 5.17303
55.2823 5.08916
55.3328 5.07533
55.383 4.98113
55.4335 4.93684
55.4838 4.91836
55.5344 4.87671
55.5847 4.83611
55.6352 4.84766
55.6856 4.76834
55.7361 4.65683