File: XRD/Ni3Fe_FD0279.xy
TT I
1.27165 7.58129
1.31627 6.93299
1.36089 7.2277
1.40551 6.25767
1.45013 5.61434
1.49476 6.17142
1.53938 5.94833
1.584 5.65466
1.62863 5.8142
1.67325 5.28462
1.71787 5.10748
1.7625 5.21136
1.80712 5.12303
1.85174 4.81668
1.89636 5.10839
1.94099 5.54848
1.98562 4.89421
2.03025 4.77417
2.07487 4.74509
2.11949 5.10539
2.16411 5.09162
2.20874 14.8336
2.25338 23.2624
2.298 5.26525
2.34263 4.98947
2.38725 5.05558
2.43188 4.81664
2.4765 5.97786
2.52115 6.16476
2.56577 6.05403
2.6104 6.65386
2.65503 6.94857
2.69965 6.94725
2.7443 7.68174
2.78893 7.43169
2.83356 7.65799
2.87818 8.2981
2.92281 8.7617
2.96744 9.479
3.01209 10.1448
3.05672 11.8478
3.10135 12.4377
3.14599 13.0722
3.19062 14.3298
3.23527 15.5103
3.2799 16.4034
3.32454 17.0134
3.36917 18.2824
3.4138 19.2257
3.45844 20.1577
3.50309 20.9651
3.54773 22.4987
3.59237 24.9359
3.637 96.7702
3.68164 62.2177
3.7263 26.6921
3.77094 26.713
3.81558 27.1252
3.86022 28.0667
3.90486 29.6958
3.9495 30.4452
3.99416 31.8201
4.0388 32.7913
4.08344 34.6638
4.12809 35.9396
4.17273 38.2001
4.21738 44.9333
4.26204 260.799
4.30669 234.134
4.35133 50.6734
4.39598 46.5163
4.44063 55.5614
4.4853 67.8168
4.52995 53.7086
4.5746 53.4245
4.61925 54.782
4.6639 57.2705
4.70855 60.1225
4.75322 63.5562
4.79788 66.5881
4.84253 69.5262
4.88719 74.8055
4.93184 78.5568
4.97652 84.417
5.02118 92.2512
5.06583 101.466
5.11049 116.271
5.15515 198.891
5.19981 521.657
5.24449 3297.54
5.28916 10892.6
5.33382 4208.61
5.37848 266.495
5.42315 148.197
5.46783 125.141
5.5125 114.399
5.55716 108.671
5.60183 104.437
5.6465 102.119
5.69117 99.95
5.73586 97.1362
5.78053 98.183
5.8252 98.0895
5.86988 99.1817
5.91455 102.32
5.95924 114.843
6.00392 269.582
6.0486 1138.21
6.09328 3683.66
6.13795 3695.57
6.18263 371.479
6.22733 107.376
6.27201 90.7283
6.3167 108.179
6.36138 85.4917
6.40606 72.7398
6.45075 70.8028
6.49545 68.2983
6.54014 66.7532
6.58483 65.7129
6.62952 65.4486
6.67421 96.8897
6.71892 152.407
6.76361 72.212
6.8083 61.2928
6.853 60.4211
6.89769 59.2867
6.94239 58.9214
6.98711 58.0236
7.03181 58.1629
7.07651 57.8584
7.12121 57.5626
7.16591 57.7015
7.21063 57.7596
7.25533 72.9303
7.30004 190.155
7.34475 98.0698
7.38945 58.9834
7.43416 56.6834
7.47889 56.6227
7.5236 56.8058
7.56831 57.9447
7.61303 59.2785
7.65774 60.0831
7.70247 58.5225
7.74719 58.6371
7.79191 58.8661
7.83663 59.0586
7.88135 59.838
7.92607 61.2233
7.97081 62.189
8.01553 62.8907
8.06026 64.8483
8.10498 66.4748
8.14971 76.5682
8.19446 76.325
8.23919 72.5743
8.28392 74.9366
8.32865 77.3486
8.37339 82.079
8.41812 89.8519
8.46288 123.125
8.50761 195.513
8.55235 464.77
8.59709 1059.06
8.64183 2049.03
8.68658 1280.63
8.73134 232.667
8.77609 109.101
8.82083 98.6878
8.86558 94.6592
8.91033 94.6134
8.9551 96.2278
8.99985 89.5962
9.04461 87.4333
9.08936 86.3663
9.13412 85.3512
9.17888 85.7329
9.22365 86.2686
9.26841 85.539
9.31318 86.2555
9.35794 86.5656
9.4027 86.8571
9.44749 87.9481
9.49226 88.0074
9.53703 88.9711
9.5818 91.0801
9.62657 96.7218
9.67134 103.246
9.71614 97.8077
9.76091 98.2076
9.80569 101.177
9.85047 104.959
9.89525 129.853
9.94005 146.705
9.98484 204.016
10.0296 410.482
10.0744 754.687
10.1192 1492.17
10.164 1749.55
10.2088 587.809
10.2536 153.397
10.2984 121.927
10.3432 122.167
10.388 110.988
10.4328 128.781
10.4776 179.901
10.5224 267.742
10.5672 457.014
10.612 538.796
10.6568 257.781
10.7017 108.094
10.7465 91.3332
10.7913 87.1785
10.8361 84.7502
10.8809 82.2474
10.9257 81.8705
10.9706 82.8294
11.0154 78.092
11.0602 76.2559
11.105 75.1742
11.1499 79.4414
11.1947 87.6292
11.2395 77.7724
11.2844 73.6855
11.3292 70.0843
11.374 68.9697
11.4189 68.188
11.4637 67.4393
11.5086 68.0056
11.5534 71.2476
11.5983 68.302
11.6431 65.9585
11.688 65.567
11.7328 65.3317
11.7777 65.3603
11.8225 64.9526
11.8674 64.976
11.9122 65.1509
11.9571 65.3224
12.002 66.2472
12.0468 71.9678
12.0917 85.9972
12.1366 105.167
12.1814 140.51
12.2263 195.301
12.2712 192.23
12.3161 116.344
12.3609 75.7088
12.4058 67.7873
12.4507 67.0946
12.4956 67.2353
12.5405 67.1823
12.5853 68.2028
12.6302 76.1709
12.6751 82.6135
12.72 73.3258
12.7649 70.6598
12.8098 71.3307
12.8547 72.4868
12.8996 73.8905
12.9445 75.281
12.9894 77.0785
13.0343 78.8318
13.0792 82.4167
13.1242 93.7607
13.1691 124.102
13.214 159.871
13.2589 221.284
13.3038 328.308
13.3487 432.316
13.3937 323.517
13.4386 151.391
13.4835 115.793
13.5285 134.268
13.5734 162.49
13.6183 223.065
13.6633 318.109
13.7082 362.695
13.7531 238.398
13.7981 114.468
13.843 86.5016
13.888 83.5892
13.9329 80.6474
13.9779 79.3607
14.0228 77.3879
14.0678 76.1037
14.1127 75.8288
14.1577 75.6269
14.2027 74.5481
14.2476 73.3978
14.2926 73.6828
14.3376 74.5899
14.3825 73.1779
14.4275 71.7285
14.4725 71.6863
14.5175 71.6916
14.5624 71.9315
14.6074 74.1113
14.6524 74.9436
14.6974 73.6756
14.7424 75.5576
14.7874 84.1327
14.8324 97.1319
14.8774 112.999
14.9224 142.612
14.9674 190.604
15.0124 220.862
15.0574 174.398
15.1024 105.699
15.1474 77.4299
15.1924 73.8522
15.2374 74.486
15.2824 73.4475
15.3274 70.9849
15.3725 69.7182
15.4175 69.1084
15.4625 68.9785
15.5076 69.1245
15.5526 69.0341
15.5976 68.5259
15.6426 69.832
15.6877 76.7572
15.7327 87.058
15.7778 98.3158
15.8228 119.493
15.8679 155.307
15.9129 190.852
15.958 177.717
16.003 115.897
16.0481 74.9554
16.0931 68.3503
16.1382 65.8248
16.1833 63.2827
16.2283 61.5412
16.2734 60.9677
16.3185 61.4851
16.3636 61.9486
16.4086 60.3781
16.4537 58.7673
16.4988 57.8463
16.5439 57.8455
16.589 57.6192
16.6341 57.0833
16.6792 56.8467
16.7243 57.2504
16.7694 57.1574
16.8145 57.2065
16.8596 57.5402
16.9047 59.1951
16.9498 59.5807
16.9949 58.0048
17.04 58.2613
17.0851 59.7427
17.1302 61.7294
17.1754 64.6044
17.2205 67.9656
17.2656 73.8154
17.3108 81.8843
17.3559 85.5467
17.401 77.7374
17.4462 66.7023
17.4913 61.9901
17.5365 61.6261
17.5815 61.7887
17.6268 62.0603
17.6718 62.6592
17.7171 63.4285
17.7622 63.7624
17.8074 64.369
17.8525 67.2479
17.8977 72.5713
17.9428 78.6795
17.9881 84.7617
18.0331 96.6595
18.0784 114.673
18.1237 136.704
18.1688 141.715
18.214 118.214
18.2591 93.5136
18.3044 89.969
18.3495 98.1815
18.3948 107.957
18.4399 104.447
18.4852 86.2713
18.5303 70.963
18.5756 65.3064
18.6207 64.0863
18.666 63.2007
18.7112 62.3276
18.7565 61.5907
18.8016 61.1905
18.8469 60.6446
18.892 60.1959
18.9374 59.6214
18.9825 59.3843
19.0278 59.375
19.073 59.4743
19.1183 60.2269
19.1635 61.2276
19.2088 62.3929
19.254 63.9677
19.2993 66.7342
19.3447 72.4281
19.3898 77.7459
19.4352 77.3307
19.4804 68.8861
19.5257 60.9202
19.5709 56.8635
19.6163 56.3033
19.6615 56.0751
19.7068 55.4619
19.752 55.5611
19.7974 55.8199
19.8426 56.9765
19.888 57.7999
19.9332 58.7148
19.9786 60.5648
20.0238 63.1247
20.0692 67.633
20.1144 71.6429
20.1598 72.2781
20.205 67.7652
20.2504 64.2096
20.2957 64.6501
20.3411 67.0937
20.3863 67.7389
20.4318 62.5895
20.477 57.1075
20.5224 54.3062
20.5677 53.3988
20.6131 52.4369
20.6586 51.8915
20.7038 51.7941
20.7493 51.1075
20.7945 51.1096
20.84 51.0622
20.8853 50.8504
20.9307 50.599
20.976 50.8879
21.0215 50.7597
21.0668 51.2273
21.1122 51.3489
21.1575 52.0175
21.203 52.6064
21.2483 53.3318
21.2938 53.7111
21.3391 52.6118
21.3846 51.2819
21.4299 50.5129
21.4754 50.4176
21.5207 50.5984
21.5662 50.896
21.6116 51.3134
21.6571 52.3858
21.7024 53.2932
21.7479 54.6483
21.7933 56.6565
21.8388 59.5795
21.8843 63.3839
21.9297 66.6934
21.9752 67.0246
22.0206 63.3636
22.0661 59.0246
22.1115 57.761
22.157 57.8951
22.2024 57.4479
22.248 54.6688
22.2933 52.4027
22.3389 51.439
22.3843 51.2676
22.4299 51.0758
22.4753 51.0623
22.5208 50.8927
22.5662 50.4445
22.6118 50.8251
22.6572 51.0765
22.7028 51.4412
22.7483 51.973
22.7939 52.4687
22.8393 53.5893
22.8849 55.2206
22.9303 56.9055
22.9759 59.1839
23.0214 59.8967
23.067 57.8655
23.1126 54.3741
23.1581 51.8111
23.2037 50.8684
23.2492 50.9161
23.2948 51.0221
23.3403 51.4211
23.3859 52.0359
23.4314 52.394
23.477 53.6408
23.5225 55.5972
23.5682 57.6126
23.6137 59.5608
23.6593 58.8025
23.7048 55.1672
23.7505 51.4023
23.796 49.0681
23.8417 47.9984
23.8872 47.494
23.9329 47.0646
23.9784 46.8782
24.0241 46.5961
24.0697 46.3059
24.1154 45.9627
24.1609 45.9455
24.2066 45.7547
24.2522 45.5765
24.2979 45.2511
24.3434 45.1802
24.3892 45.0296
24.4349 44.8078
24.4805 44.6472
24.5262 44.8935
24.5718 44.8302
24.6175 44.7023
24.6631 44.8227
24.7089 44.3372
24.7545 44.2331
24.8002 44.0987
24.8458 44.0732
24.8916 43.7449
24.9372 43.9804
24.983 44.3233
25.0286 44.4966
25.0744 44.757
25.12 45.2999
25.1658 45.9267
25.2114 46.2543
25.2572 46.47
25.3029 46.4464
25.3487 46.6716
25.3943 46.5087
25.4402 45.6984
25.4858 44.6914
25.5316 43.5181
25.5773 42.7338
25.6231 42.5798
25.669 42.206
25.7147 42.2485
25.7605 42.1713
25.8062 42.3173
25.8521 42.4403
25.8977 42.3417
25.9436 42.5111
25.9893 42.4669
26.0352 42.9511
26.0809 42.9361
26.1268 43.3519
26.1725 43.293
26.2184 42.798
26.2641 42.2394
26.31 41.8493
26.3557 41.863
26.4017 41.765
26.4474 41.9928
26.4933 42.1515
26.5391 42.5856
26.585 43.052
26.6308 43.3687
26.6767 43.6889
26.7225 43.8042
26.7684 43.2857
26.8142 42.6615
26.8601 42.1738
26.9059 41.7693
26.9519 41.2088
26.9979 40.8463
27.0437 40.6598
27.0896 40.4967
27.1354 40.4685
27.1814 40.295
27.2272 40.1745
27.2732 40.1755
27.3191 39.9487
27.3651 40.079
27.4109 39.9303
27.4569 39.9697
27.5027 40.068
27.5488 40.1161
27.5946 40.0406
27.6407 39.7519
27.6865 39.7723
27.7326 39.4094
27.7784 39.4444
27.8245 39.1762
27.8703 39.4603
27.9164 39.8015
27.9623 39.7751
28.0084 40.1699
28.0543 40.4982
28.1003 40.5217
28.1462 40.471
28.1923 40.111
28.2384 39.5043
28.2843 39.3146
28.3304 38.8821
28.3764 38.3229
28.4225 38.0802
28.4684 37.7586
28.5145 37.4593
28.5605 37.3042
28.6066 37.1867
28.6526 37.0815
28.6987 37.0713
28.7447 36.9717
28.7908 36.9409
28.8368 36.8499
28.8829 36.763
28.9289 36.8061
28.9751 36.5549
29.0211 36.367
29.0673 36.3444
29.1133 35.9997
29.1595 35.8538
29.2055 35.7239
29.2517 35.7793
29.2977 35.6392
29.3439 35.5249
29.3899 35.6493
29.4361 35.5449
29.4824 35.394
29.5284 35.2819
29.5746 34.9154
29.6207 34.5354
29.6669 34.4754
29.713 34.3687
29.7593 34.1849
29.8053 34.2353
29.8516 34.2048
29.8977 34.2138
29.9439 33.9693
29.99 33.9611
30.0363 33.7538
30.0824 33.8866
30.1287 33.8081
30.1748 33.8615
30.2211 33.6771
30.2673 33.6569
30.3136 33.6929
30.3597 33.6771
30.406 33.569
30.4522 33.3473
30.4985 33.3738
30.5447 33.4819
30.591 33.4754
30.6372 33.4835
30.6835 33.332
30.7297 33.4723
30.7761 33.4412
30.8224 33.2751
30.8686 33.2924
30.915 32.9816
30.9612 32.9199
31.0076 32.6287
31.0538 32.4973
31.1002 32.4833
31.1464 32.1803
31.1928 32.222
31.2391 32.2835
31.2855 32.2361
31.3317 32.0771
31.3781 32.1177
31.4244 32.0646
31.4708 32.0482
31.5171 32.036
31.5636 31.9847
31.6098 31.8763
31.6563 31.6382
31.7026 31.5533
31.7491 31.3509
31.7953 31.3771
31.8418 31.3084
31.8881 31.3156
31.9346 31.3092
31.9809 31.3107
32.0275 31.1643
32.074 31.1432
32.1203 30.8835
32.1668 30.7744
32.2132 30.6704
32.2597 30.5305
32.306 30.4911
32.3526 30.2561
32.399 30.2123
32.4455 30.04
32.4919 29.9716
32.5385 29.9491
32.5848 29.7358
32.6314 29.7225
32.6778 29.6377
32.7244 29.4258
32.7708 29.3884
32.8174 29.3932
32.8638 29.1709
32.9104 29.1772
32.9569 29.2225
33.0035 29.1124
33.0499 28.9599
33.0966 28.959
33.143 28.8705
33.1897 28.829
33.2361 28.7438
33.2828 28.7594
33.3293 28.5025
33.3759 28.5853
33.4226 28.3736
33.4691 28.2094
33.5158 28.2491
33.5623 28.0011
33.609 27.9047
33.6555 27.7693
33.7022 27.7292
33.7487 27.5825
33.7954 27.654
33.842 27.4642
33.8887 27.4086
33.9353 27.443
33.982 27.1753
34.0286 27.1559
34.0753 27.0993
34.1219 27.0141
34.1687 26.9057
34.2152 26.7836
34.262 26.6837
34.3086 26.6744
34.3554 26.5336
34.402 26.4337
34.4488 26.4227
34.4954 26.3127
34.5422 26.1831
34.5889 26.1189
34.6357 26.0651
34.6825 25.956
34.7292 25.8628
34.776 25.7417
34.8227 25.7607
34.8695 25.626
34.9162 25.5875
34.9631 25.4546
35.0098 25.4462
35.0566 25.3297
35.1033 25.2601
35.1502 25.3077
35.1969 25.233
35.2438 25.1516
35.2906 25.1009
35.3375 25.0252
35.3842 24.9948
35.4311 25.0466
35.4779 24.9809
35.5248 24.8736
35.5716 24.773
35.6185 24.6274
35.6653 24.5644
35.7123 24.587
35.759 24.5079
35.806 24.3669
35.8528 24.1928
35.8998 24.1228
35.9468 23.9946
35.9936 23.9934
36.0406 23.8877
36.0874 23.9555
36.1345 23.8742
36.1813 23.8089
36.2283 23.7114
36.2752 23.595
36.3222 23.5803
36.3691 23.4797
36.4161 23.381
36.463 23.3594
36.5101 23.4045
36.557 23.2808
36.6041 23.1516
36.651 23.1077
36.6981 23.0238
36.745 23.0073
36.7921 22.9553
36.839 22.7277
36.8861 22.7164
36.9331 22.6644
36.9802 22.5935
37.0272 22.4956
37.0743 22.4166
37.1213 22.3751
37.1684 22.313
37.2154 22.2536
37.2626 22.1503
37.3098 22.0673
37.3568 21.9683
37.404 21.9527
37.451 21.8587
37.4982 21.779
37.5452 21.7226
37.5924 21.6359
37.6395 21.7636
37.6867 21.6022
37.7337 21.417
37.781 21.378
37.8281 21.3506
37.8753 21.2055
37.9224 21.1637
37.9697 21.1634
38.0168 21.0128
38.064 20.9441
38.1111 20.9032
38.1584 20.8568
38.2056 20.7978
38.2529 20.7587
38.3 20.6244
38.3473 20.6354
38.3945 20.5774
38.4418 20.4971
38.489 20.4698
38.5363 20.3423
38.5837 20.2927
38.6309 20.2085
38.6782 20.153
38.7254 20.0386
38.7728 20.003
38.82 19.9244
38.8674 19.9352
38.9146 19.8738
38.9621 19.7423
39.0093 19.7194
39.0567 19.6315
39.104 19.5699
39.1514 19.5048
39.1987 19.4558
39.2461 19.355
39.2934 19.3534
39.3409 19.2397
39.3882 19.1982
39.4356 19.1269
39.483 19.1012
39.5304 18.9836
39.5778 18.9836
39.6253 18.9159
39.6726 18.8731
39.7201 18.8379
39.7675 18.7997
39.815 18.6638
39.8624 18.6205
39.9099 18.592
39.9575 18.4617
40.0049 18.4365
40.0525 18.3547
40.0999 18.3009
40.1474 18.3078
40.1949 18.1919
40.2425 18.1269
40.2899 18.1109
40.3375 18.0217
40.385 17.9519
40.4326 17.8974
40.48 17.8003
40.5277 17.832
40.5752 17.7774
40.6228 17.6726
40.6703 17.6402
40.718 17.5385
40.7655 17.4748
40.8132 17.4687
40.8607 17.449
40.9084 17.3423
40.9559 17.2515
41.0036 17.2919
41.0512 17.2036
41.0989 17.1414
41.1465 17.0924
41.1942 17.0207
41.242 16.9118
41.2896 16.9296
41.3373 16.8413
41.3849 16.8136
41.4327 16.7198
41.4803 16.6834
41.5281 16.6644
41.5758 16.5892
41.6236 16.481
41.6712 16.4537
41.7191 16.3755
41.7667 16.3168
41.8146 16.2589
41.8622 16.2172
41.9101 16.1958
41.9578 16.1324
42.0057 16.0728
42.0534 16.0327
42.1013 15.9695
42.149 15.9198
42.1969 15.8669
42.2446 15.7436
42.2925 15.782
42.3403 15.7315
42.3882 15.6548
42.436 15.5663
42.4839 15.5224
42.5319 15.5203
42.5797 15.4741
42.6277 15.3617
42.6755 15.3203
42.7235 15.205
42.7713 15.2216
42.8193 15.1465
42.8671 15.129
42.9152 15.067
42.963 14.9992
43.0111 14.9673
43.0589 14.8712
43.107 14.8597
43.1549 14.8042
43.2029 14.7443
43.2508 14.7611
43.2989 14.6815
43.3468 14.6
43.3949 14.5522
43.4429 14.5124
43.491 14.4688
43.5389 14.4068
43.5871 14.3737
43.635 14.2921
43.6832 14.2539
43.7312 14.1895
43.7793 14.1254
43.8273 14.0741
43.8755 14.0608
43.9237 14.0259
43.9717 13.9867
44.0199 13.8992
44.068 13.866
44.1162 13.8124
44.1642 13.7628
44.2125 13.7491
44.2606 13.6949
44.3088 13.6546
44.3569 13.5923
44.4052 13.5702
44.4533 13.4865
44.5016 13.3799
44.5497 13.4036
44.598 13.3158
44.6461 13.2854
44.6945 13.2083
44.7426 13.2552
44.791 13.1554
44.8391 13.1207
44.8875 13.0566
44.9357 13.0183
44.984 12.9496
45.0322 12.9556
45.0806 12.8619
45.1288 12.8252
45.1773 12.7839
45.2257 12.7147
45.2739 12.71
45.3224 12.6739
45.3706 12.5884
45.4191 12.5794
45.4673 12.4853
45.5158 12.4387
45.5641 12.4178
45.6126 12.3623
45.6609 12.3207
45.7094 12.2727
45.7577 12.2492
45.8063 12.1964
45.8546 12.1289
45.9031 12.1046
45.9515 12.0801
46.0001 12.0355
46.0484 12.0532
46.097 11.9645
46.1454 11.9243
46.194 11.868
46.2424 11.8335
46.291 11.7315
46.3395 11.7423
46.3881 11.6802
46.4365 11.6888
46.4852 11.619
46.5337 11.5485
46.5823 11.5325
46.631 11.4833
46.6795 11.4434
46.7282 11.4038
46.7767 11.3637
46.8254 11.3129
46.8739 11.2772
46.9226 11.1832
46.9712 11.1676
47.0199 11.1367
47.0685 11.1492
47.1173 11.0368
47.1658 10.9973
47.2146 10.9822
47.2632 10.9119
47.312 10.8921
47.3606 10.8388
47.4095 10.7875
47.4581 10.7634
47.5069 10.7054
47.5556 10.6918
47.6044 10.6243
47.6531 10.5936
47.702 10.5654
47.7507 10.5252
47.7996 10.4761
47.8483 10.5003
47.8972 10.4385
47.9461 10.384
47.9948 10.3373
48.0438 10.2958
48.0925 10.3046
48.1415 10.2562
48.1902 10.1719
48.2392 10.1827
48.288 10.1543
48.337 10.1102
48.3858 10.0434
48.4348 10.0088
48.4837 9.99782
48.5327 9.95731
48.5815 9.93097
48.6306 9.94484
48.6795 9.88859
48.7285 9.77873
48.7774 9.73806
48.8265 9.76985
48.8754 9.66359
48.9245 9.66688
48.9734 9.59548
49.0226 9.60613
49.0715 9.52382
49.1206 9.50447
49.1696 9.4902
49.2188 9.42694
49.2679 9.38466
49.3169 9.33082
49.3661 9.3394
49.4151 9.33149
49.4643 9.27898
49.5134 9.21242
49.5626 9.20549
49.6117 9.16726
49.6609 9.15023
49.71 9.08804
49.7592 9.01343
49.8083 8.98152
49.8576 9.04532
49.9067 8.94788
49.956 8.89618
50.0052 8.87607
50.0545 8.86745
50.1036 8.80915
50.153 8.80848
50.2022 8.75461
50.2515 8.74317
50.3007 8.68168
50.3501 8.634
50.3993 8.5918
50.4487 8.57932
50.498 8.54099
50.5474 8.53846
50.5966 8.46191
50.6461 8.45895
50.6955 8.40955
50.7448 8.40478
50.7943 8.3926
50.8436 8.32652
50.8931 8.2845
50.9424 8.22808
50.9919 8.2362
51.0413 8.19302
51.0908 8.16072
51.1402 8.12993
51.1897 8.11571
51.2391 8.09344
51.2887 8.00494
51.3381 8.01787
51.3877 8.00614
51.4371 7.93066
51.4867 7.90617
51.5362 7.8759
51.5858 7.84364
51.6353 7.78299
51.6849 7.72889
51.7344 7.7335
51.7841 7.72189
51.8336 7.68005
51.8833 7.62174
51.9328 7.60022
51.9826 7.58138
52.0323 7.56274
52.0818 7.48345
52.1316 7.40846
52.1812 7.43104
52.231 7.43847
52.2806 7.37585
52.3304 7.3324
52.38 7.31394
52.4298 7.30368
52.4794 7.26878
52.5293 7.22781
52.5789 7.2287
52.6288 7.16018
52.6785 7.1329
52.7284 7.09795
52.7781 7.09282
52.828 7.04637
52.8777 7.02354
52.9276 6.97014
52.9774 6.94309
53.0273 6.92668
53.0771 6.93034
53.1271 6.90978
53.1769 6.82951
53.2269 6.82774
53.2767 6.76628
53.3267 6.73651
53.3765 6.7452
53.4266 6.73513
53.4766 6.67283
53.5265 6.62314
53.5765 6.60565
53.6264 6.59776
53.6765 6.52699
53.7264 6.58609
53.7765 6.53531
53.8265 6.49888
53.8766 6.3919
53.9266 6.44582
53.9767 6.40245
54.0267 6.42523
54.0769 6.32423
54.1269 6.29084
54.1771 6.26033
54.2271 6.2624
54.2773 6.17802
54.3274 6.17028
54.3776 6.09019
54.4277 6.12557
54.478 6.09471
54.528 6.05157
54.5783 5.95256
54.6285 5.94092
54.6788 5.92842
54.7289 5.89855
54.7792 5.84196
54.8296 5.7698
54.8798 5.72567
54.9301 5.72338
54.9803 5.66072
55.0307 5.67879
55.0809 5.61576
55.1314 5.57806
55.1816 5.47945
55.232 5.43034
55.2823 5.44731
55.3328 5.38421
55.383 5.22988
55.4335 5.25879
55.4838 5.19809
55.5344 5.17116
55.5847 5.12573
55.6352 5.05932
55.6856 5.06162
55.7361 4.95558