File: XRD/Ni3Fe_FD0232.xy
TT I
1.27165 7.93612
1.31627 6.97919
1.36089 6.96585
1.40551 6.49948
1.45013 6.32258
1.49476 6.18093
1.53938 5.99349
1.584 5.49599
1.62863 6.04287
1.67325 5.84588
1.71787 5.64299
1.7625 5.00068
1.80712 5.21737
1.85174 4.24616
1.89636 5.11745
1.94099 4.9567
1.98562 5.2523
2.03025 4.86808
2.07487 4.69568
2.11949 4.89987
2.16411 4.86837
2.20874 4.77427
2.25338 4.43873
2.298 4.86431
2.34263 4.66265
2.38725 4.54177
2.43188 5.25652
2.4765 5.69365
2.52115 4.92565
2.56577 5.46151
2.6104 6.50875
2.65503 5.71962
2.69965 6.72793
2.7443 6.73508
2.78893 6.91614
2.83356 8.34992
2.87818 8.64499
2.92281 8.94224
2.96744 8.72234
3.01209 10.5128
3.05672 11.363
3.10135 12.0569
3.14599 12.7106
3.19062 13.5252
3.23527 15.1928
3.2799 15.9245
3.32454 16.434
3.36917 17.7218
3.4138 19.0163
3.45844 19.3846
3.50309 20.5823
3.54773 22.0426
3.59237 22.6527
3.637 23.6678
3.68164 24.0778
3.7263 24.985
3.77094 25.6661
3.81558 26.9211
3.86022 27.9961
3.90486 29.3501
3.9495 30.2821
3.99416 30.8652
4.0388 32.4992
4.08344 34.004
4.12809 34.9086
4.17273 36.6578
4.21738 38.3699
4.26204 39.229
4.30669 40.6012
4.35133 42.8184
4.39598 44.2546
4.44063 46.244
4.4853 48.3458
4.52995 52.5596
4.5746 54.6267
4.61925 55.7728
4.6639 58.6367
4.70855 61.3556
4.75322 64.1992
4.79788 68.4223
4.84253 71.5648
4.88719 76.778
4.93184 81.2122
4.97652 88.698
5.02118 96.1973
5.06583 107.189
5.11049 123.841
5.15515 169.264
5.19981 886.626
5.24449 3974.67
5.28916 10791.4
5.33382 4202.54
5.37848 276.438
5.42315 153.195
5.46783 129.487
5.5125 118.526
5.55716 112.706
5.60183 106.899
5.6465 104.661
5.69117 102.876
5.73586 101.189
5.78053 101.415
5.8252 102.381
5.86988 105.235
5.91455 110.152
5.95924 133.674
6.00392 448.114
6.0486 1421.95
6.09328 3673.62
6.13795 3697.59
6.18263 363.433
6.22733 109.235
6.27201 89.2807
6.3167 80.9806
6.36138 76.3434
6.40606 72.7645
6.45075 71.1015
6.49545 68.6613
6.54014 66.3318
6.58483 65.3715
6.62952 64.1303
6.67421 62.6847
6.71892 61.9418
6.76361 60.5134
6.8083 59.8774
6.853 59.4633
6.89769 58.4947
6.94239 58.3217
6.98711 57.3023
7.03181 57.2594
7.07651 56.7761
7.12121 56.6837
7.16591 56.6341
7.21063 56.0449
7.25533 55.6765
7.30004 55.7337
7.34475 55.973
7.38945 56.2374
7.43416 55.6287
7.47889 55.8101
7.5236 56.1892
7.56831 57.1894
7.61303 57.3005
7.65774 57.5325
7.70247 58.218
7.74719 57.9887
7.79191 58.9004
7.83663 59.1957
7.88135 60.3084
7.92607 61.4618
7.97081 62.1799
8.01553 63.7941
8.06026 65.2483
8.10498 66.6423
8.14971 69.0846
8.19446 70.6769
8.23919 73.0353
8.28392 76.3708
8.32865 78.9968
8.37339 84.6763
8.41812 90.4877
8.46288 111.325
8.50761 290.788
8.55235 585.587
8.59709 1070.06
8.64183 1978.01
8.68658 1203.43
8.73134 214.95
8.77609 110.621
8.82083 100.359
8.86558 95.9572
8.91033 93.6322
8.9551 90.7679
8.99985 89.2117
9.04461 88.3619
9.08936 88.0327
9.13412 86.6758
9.17888 86.4914
9.22365 86.9805
9.26841 87.0814
9.31318 88.287
9.35794 88.1836
9.4027 88.7657
9.44749 89.1375
9.49226 89.3057
9.53703 91.0827
9.5818 92.796
9.62657 94.3857
9.67134 95.611
9.71614 97.6282
9.76091 100.084
9.80569 103.189
9.85047 106.555
9.89525 112.734
9.94005 137.464
9.98484 303.873
10.0296 518.096
10.0744 807.96
10.1192 1453.29
10.164 1687.73
10.2088 556.679
10.2536 149.202
10.2984 117.587
10.3432 113.088
10.388 115.58
10.4328 159.38
10.4776 212.222
10.5224 282.721
10.5672 447.454
10.612 533.255
10.6568 250.189
10.7017 108.227
10.7465 92.2292
10.7913 88.347
10.8361 85.2527
10.8809 82.8292
10.9257 80.9931
10.9706 79.6237
11.0154 77.6115
11.0602 76.2331
11.105 74.9836
11.1499 73.4485
11.1947 72.5402
11.2395 71.2882
11.2844 70.7544
11.3292 69.6984
11.374 69.2765
11.4189 68.8569
11.4637 67.7321
11.5086 67.0471
11.5534 66.6917
11.5983 66.6255
11.6431 66.4761
11.688 65.5855
11.7328 65.727
11.7777 65.5584
11.8225 65.2093
11.8674 65.5399
11.9122 65.8203
11.9571 66.2388
12.002 68.772
12.0468 79.8704
12.0917 94.1707
12.1366 109.052
12.1814 141.62
12.2263 194.473
12.2712 183.626
12.3161 103.577
12.3609 70.0165
12.4058 67.3324
12.4507 67.303
12.4956 67.5333
12.5405 67.2553
12.5853 67.891
12.6302 68.2276
12.6751 68.9229
12.72 69.7324
12.7649 70.8355
12.8098 71.7275
12.8547 73.1639
12.8996 74.6603
12.9445 76.5952
12.9894 78.4454
13.0343 80.689
13.0792 86.3859
13.1242 111.217
13.1691 147.446
13.214 174.629
13.2589 229.815
13.3038 322.972
13.3487 421.799
13.3937 311.122
13.4386 149.856
13.4835 133.684
13.5285 153.184
13.5734 174.86
13.6183 227.16
13.6633 310.371
13.7082 356.372
13.7531 227.774
13.7981 111.054
13.843 87.1738
13.888 84.0014
13.9329 81.1706
13.9779 80.2383
14.0228 78.3837
14.0678 77.0384
14.1127 76.0636
14.1577 74.9709
14.2027 74.5503
14.2476 74.0002
14.2926 73.3341
14.3376 72.9894
14.3825 72.6584
14.4275 72.2031
14.4725 72.3178
14.5175 72.5692
14.5624 72.4735
14.6074 73.1298
14.6524 73.6663
14.6974 74.5465
14.7424 81.2275
14.7874 94.9936
14.8324 106.207
14.8774 119.886
14.9224 145.908
14.9674 187.395
15.0124 222.395
15.0574 170.263
15.1024 101.322
15.1474 76.9945
15.1924 73.7696
15.2374 72.2656
15.2824 71.4455
15.3274 70.5766
15.3725 70.2426
15.4175 70.0471
15.4625 69.4231
15.5076 69.1901
15.5526 69.2611
15.5976 69.986
15.6426 74.9501
15.6877 86.1555
15.7327 94.6377
15.7778 103.608
15.8228 122.547
15.8679 153.291
15.9129 189.618
15.958 174.881
16.003 111.005
16.0481 72.8471
16.0931 65.6492
16.1382 63.7935
16.1833 62.9771
16.2283 61.6914
16.2734 60.8834
16.3185 60.2835
16.3636 59.6929
16.4086 58.8324
16.4537 58.6009
16.4988 58.116
16.5439 57.9832
16.589 57.4711
16.6341 57.4019
16.6792 57.1194
16.7243 57.1706
16.7694 57.3441
16.8145 57.2371
16.8596 57.4174
16.9047 57.4695
16.9498 57.6116
16.9949 57.8469
17.04 59.4685
17.0851 61.9121
17.1302 63.6516
17.1754 65.6725
17.2205 69.0038
17.2656 73.991
17.3108 82.2328
17.3559 86.0581
17.401 77.2866
17.4462 66.92
17.4913 62.2365
17.5365 61.8958
17.5815 61.9903
17.6268 62.7146
17.6718 63.3057
17.7171 63.6254
17.7622 64.4895
17.8074 66.5369
17.8525 72.2536
17.8977 78.2034
17.9428 82.6851
17.9881 88.1072
18.0331 99.2815
18.0784 115.03
18.1237 138.947
18.1688 144.706
18.214 118.317
18.2591 93.527
18.3044 90.3906
18.3495 97.2537
18.3948 106.329
18.4399 102.098
18.4852 83.5598
18.5303 70.0346
18.5756 65.6544
18.6207 64.3839
18.666 63.3614
18.7112 62.5757
18.7565 61.8233
18.8016 61.6193
18.8469 61.0201
18.892 60.6945
18.9374 60.1444
18.9825 59.7194
19.0278 59.4831
19.073 60.318
19.1183 61.3749
19.1635 62.1234
19.2088 62.7322
19.254 64.7797
19.2993 67.2678
19.3447 71.4879
19.3898 76.3486
19.4352 75.9572
19.4804 68.2022
19.5257 60.6393
19.5709 57.1484
19.6163 56.5943
19.6615 56.4292
19.7068 55.7519
19.752 56.1708
19.7974 56.9844
19.8426 58.1104
19.888 58.8268
19.9332 59.5834
19.9786 61.5948
20.0238 64.0881
20.0692 68.495
20.1144 72.7029
20.1598 73.2414
20.205 67.7691
20.2504 64.2201
20.2957 64.4968
20.3411 66.8649
20.3863 67.3605
20.4318 62.338
20.477 56.7451
20.5224 53.7031
20.5677 52.9295
20.6131 52.4125
20.6586 51.9984
20.7038 52.0341
20.7493 51.2477
20.7945 51.365
20.84 51.2312
20.8853 51.0998
20.9307 51.2724
20.976 51.3641
21.0215 51.2165
21.0668 51.406
21.1122 51.6366
21.1575 52.1987
21.203 52.5391
21.2483 53.4896
21.2938 53.9159
21.3391 52.945
21.3846 51.6268
21.4299 50.7497
21.4754 50.786
21.5207 51.0406
21.5662 51.8596
21.6116 52.6976
21.6571 53.4936
21.7024 54.2971
21.7479 55.7079
21.7933 57.4
21.8388 60.3651
21.8843 63.5381
21.9297 66.7942
21.9752 66.9163
22.0206 63.2916
22.0661 58.8164
22.1115 57.9221
22.157 58.3944
22.2024 57.4077
22.248 54.5372
22.2933 52.5009
22.3389 51.4355
22.3843 51.2217
22.4299 50.9198
22.4753 50.9935
22.5208 50.9141
22.5662 50.7457
22.6118 51.3707
22.6572 51.8724
22.7028 52.3936
22.7483 52.6324
22.7939 53.2312
22.8393 54.3126
22.8849 55.556
22.9303 57.1377
22.9759 59.217
23.0214 59.8806
23.067 58.0211
23.1126 54.4654
23.1581 51.9057
23.2037 51.4838
23.2492 51.9177
23.2948 52.0063
23.3403 52.29
23.3859 52.7747
23.4314 53.238
23.477 54.1963
23.5225 55.7327
23.5682 57.7236
23.6137 59.6628
23.6593 58.8602
23.7048 55.1563
23.7505 51.1515
23.796 48.8907
23.8417 48.3419
23.8872 47.6973
23.9329 47.4522
23.9784 46.9231
24.0241 46.9169
24.0697 46.5081
24.1154 46.2318
24.1609 46.01
24.2066 45.838
24.2522 45.7747
24.2979 45.4759
24.3434 45.3255
24.3892 45.0087
24.4349 44.9576
24.4805 44.9266
24.5262 44.9549
24.5718 44.9747
24.6175 44.8558
24.6631 44.9307
24.7089 44.4043
24.7545 44.4989
24.8002 44.36
24.8458 44.2865
24.8916 44.0917
24.9372 44.2813
24.983 44.7308
25.0286 45.1667
25.0744 45.3629
25.12 45.6814
25.1658 46.2652
25.2114 46.4851
25.2572 46.6028
25.3029 46.3611
25.3487 46.4163
25.3943 46.5894
25.4402 45.8356
25.4858 44.7177
25.5316 43.5071
25.5773 42.8359
25.6231 42.7112
25.669 42.4866
25.7147 42.632
25.7605 42.3535
25.8062 42.4335
25.8521 42.5705
25.8977 42.5486
25.9436 42.6901
25.9893 42.6693
26.0352 43.0553
26.0809 43.1482
26.1268 43.5316
26.1725 43.3662
26.2184 42.9648
26.2641 42.5744
26.31 42.1949
26.3557 42.2667
26.4017 42.2084
26.4474 42.354
26.4933 42.5066
26.5391 42.9848
26.585 43.0851
26.6308 43.5999
26.6767 43.8373
26.7225 43.8955
26.7684 43.4287
26.8142 42.5806
26.8601 42.3475
26.9059 42.108
26.9519 41.4777
26.9979 41.1436
27.0437 40.7742
27.0896 40.64
27.1354 40.6352
27.1814 40.6064
27.2272 40.3462
27.2732 40.4704
27.3191 40.1429
27.3651 40.2194
27.4109 40.107
27.4569 40.3335
27.5027 40.2227
27.5488 40.3744
27.5946 40.2796
27.6407 40.0889
27.6865 39.9833
27.7326 39.8094
27.7784 39.7751
27.8245 39.707
27.8703 39.7782
27.9164 39.9869
27.9623 40.0279
28.0084 40.2197
28.0543 40.6713
28.1003 40.6517
28.1462 40.6347
28.1923 40.1134
28.2384 39.7206
28.2843 39.3617
28.3304 38.9949
28.3764 38.4217
28.4225 38.0837
28.4684 37.9036
28.5145 37.5975
28.5605 37.5736
28.6066 37.2701
28.6526 37.1812
28.6987 37.1108
28.7447 37.0091
28.7908 37.0143
28.8368 36.9627
28.8829 36.9009
28.9289 37.0328
28.9751 36.8568
29.0211 36.6361
29.0673 36.3916
29.1133 36.0865
29.1595 35.999
29.2055 35.8488
29.2517 35.9613
29.2977 35.8175
29.3439 35.7355
29.3899 35.699
29.4361 35.6778
29.4824 35.5391
29.5284 35.349
29.5746 34.9282
29.6207 34.663
29.6669 34.5386
29.713 34.4559
29.7593 34.3517
29.8053 34.3681
29.8516 34.2406
29.8977 34.2176
29.9439 34.106
29.99 34.0312
30.0363 34.003
30.0824 33.9043
30.1287 33.939
30.1748 33.8589
30.2211 33.9345
30.2673 33.8476
30.3136 33.8771
30.3597 33.7872
30.406 33.7504
30.4522 33.5903
30.4985 33.5448
30.5447 33.719
30.591 33.4157
30.6372 33.6525
30.6835 33.6063
30.7297 33.5845
30.7761 33.6225
30.8224 33.5094
30.8686 33.4075
30.915 33.147
30.9612 33.0055
31.0076 32.8116
31.0538 32.7154
31.1002 32.5607
31.1464 32.3979
31.1928 32.3802
31.2391 32.5014
31.2855 32.2361
31.3317 32.1823
31.3781 32.2618
31.4244 32.1907
31.4708 32.1712
31.5171 32.2336
31.5636 32.2089
31.6098 32.0343
31.6563 31.8635
31.7026 31.7008
31.7491 31.5589
31.7953 31.5902
31.8418 31.4947
31.8881 31.4276
31.9346 31.4595
31.9809 31.4328
32.0275 31.2681
32.074 31.2596
32.1203 30.9587
32.1668 30.9048
32.2132 30.7416
32.2597 30.5242
32.306 30.4694
32.3526 30.3264
32.399 30.2812
32.4455 30.1536
32.4919 30.0572
32.5385 30.0451
32.5848 29.8721
32.6314 29.8112
32.6778 29.7255
32.7244 29.5001
32.7708 29.4317
32.8174 29.5013
32.8638 29.2191
32.9104 29.4338
32.9569 29.3675
33.0035 29.1689
33.0499 29.0864
33.0966 29.0269
33.143 29.0432
33.1897 28.9605
33.2361 28.8543
33.2828 28.8454
33.3293 28.6139
33.3759 28.6029
33.4226 28.4069
33.4691 28.4263
33.5158 28.3116
33.5623 28.1545
33.609 27.9476
33.6555 27.8402
33.7022 27.8432
33.7487 27.7019
33.7954 27.7313
33.842 27.6769
33.8887 27.5314
33.9353 27.5205
33.982 27.3872
34.0286 27.3204
34.0753 27.0764
34.1219 27.2206
34.1687 27.0441
34.2152 26.9316
34.262 26.8619
34.3086 26.7174
34.3554 26.6578
34.402 26.6588
34.4488 26.4414
34.4954 26.4445
34.5422 26.2828
34.5889 26.175
34.6357 26.1735
34.6825 26.0521
34.7292 25.9647
34.776 25.8885
34.8227 25.7918
34.8695 25.6979
34.9162 25.6881
34.9631 25.553
35.0098 25.6078
35.0566 25.4216
35.1033 25.384
35.1502 25.3979
35.1969 25.3151
35.2438 25.3157
35.2906 25.1867
35.3375 25.0948
35.3842 25.0725
35.4311 25.0244
35.4779 24.9984
35.5248 24.9079
35.5716 24.8347
35.6185 24.7329
35.6653 24.7767
35.7123 24.587
35.759 24.4624
35.806 24.4032
35.8528 24.344
35.8998 24.2221
35.9468 24.1725
35.9936 24.2239
36.0406 24.0145
36.0874 23.9944
36.1345 23.9682
36.1813 23.7984
36.2283 23.7476
36.2752 23.6255
36.3222 23.7309
36.3691 23.6088
36.4161 23.4876
36.463 23.4601
36.5101 23.4931
36.557 23.3405
36.6041 23.1903
36.651 23.2412
36.6981 23.1679
36.745 23.1247
36.7921 22.9359
36.839 22.8957
36.8861 22.7744
36.9331 22.8119
36.9802 22.6421
37.0272 22.5619
37.0743 22.4347
37.1213 22.4645
37.1684 22.3908
37.2154 22.3633
37.2626 22.1683
37.3098 22.1824
37.3568 22.0669
37.404 22.0869
37.451 21.8894
37.4982 21.9531
37.5452 21.7657
37.5924 21.6846
37.6395 21.7603
37.6867 21.6014
37.7337 21.5003
37.781 21.4203
37.8281 21.3625
37.8753 21.3176
37.9224 21.2217
37.9697 21.1431
38.0168 21.0991
38.064 21.0556
38.1111 21.0385
38.1584 20.9432
38.2056 20.8863
38.2529 20.8225
38.3 20.7278
38.3473 20.695
38.3945 20.5979
38.4418 20.5149
38.489 20.569
38.5363 20.3811
38.5837 20.3524
38.6309 20.2795
38.6782 20.1567
38.7254 20.1237
38.7728 20.0844
38.82 19.9554
38.8674 20.0182
38.9146 19.9078
38.9621 19.8411
39.0093 19.8133
39.0567 19.7145
39.104 19.6635
39.1514 19.5319
39.1987 19.5669
39.2461 19.5434
39.2934 19.4126
39.3409 19.3164
39.3882 19.2401
39.4356 19.2302
39.483 19.2288
39.5304 19.0202
39.5778 19.0402
39.6253 18.9625
39.6726 18.9083
39.7201 18.8888
39.7675 18.839
39.815 18.7317
39.8624 18.7035
39.9099 18.6115
39.9575 18.5245
40.0049 18.5056
40.0525 18.4134
40.0999 18.3838
40.1474 18.3768
40.1949 18.2507
40.2425 18.2277
40.2899 18.1643
40.3375 18.1042
40.385 18.0686
40.4326 17.9858
40.48 17.9167
40.5277 17.8267
40.5752 17.807
40.6228 17.7403
40.6703 17.6916
40.718 17.6613
40.7655 17.5783
40.8132 17.48
40.8607 17.4746
40.9084 17.4262
40.9559 17.3083
41.0036 17.3545
41.0512 17.2541
41.0989 17.2202
41.1465 17.1581
41.1942 17.0936
41.242 17.0076
41.2896 16.9378
41.3373 16.8265
41.3849 16.8121
41.4327 16.7777
41.4803 16.6926
41.5281 16.6338
41.5758 16.5737
41.6236 16.5445
41.6712 16.4253
41.7191 16.4174
41.7667 16.3773
41.8146 16.3341
41.8622 16.2899
41.9101 16.2409
41.9578 16.1627
42.0057 16.1101
42.0534 16.0642
42.1013 16.0039
42.149 15.9314
42.1969 15.862
42.2446 15.8452
42.2925 15.8412
42.3403 15.7636
42.3882 15.7321
42.436 15.6311
42.4839 15.5884
42.5319 15.5897
42.5797 15.4466
42.6277 15.4229
42.6755 15.3517
42.7235 15.3286
42.7713 15.2418
42.8193 15.1832
42.8671 15.1592
42.9152 15.0904
42.963 15.041
43.0111 15.0214
43.0589 14.9404
43.107 14.9189
43.1549 14.8935
43.2029 14.8203
43.2508 14.7166
43.2989 14.6902
43.3468 14.6429
43.3949 14.5789
43.4429 14.5373
43.491 14.4847
43.5389 14.4523
43.5871 14.392
43.635 14.3403
43.6832 14.3047
43.7312 14.2807
43.7793 14.1543
43.8273 14.1687
43.8755 14.1095
43.9237 14.044
43.9717 14.0459
44.0199 13.9549
44.068 13.9146
44.1162 13.8438
44.1642 13.8155
44.2125 13.7979
44.2606 13.7325
44.3088 13.6806
44.3569 13.6353
44.4052 13.5932
44.4533 13.541
44.5016 13.4261
44.5497 13.4362
44.598 13.3641
44.6461 13.3151
44.6945 13.2996
44.7426 13.2336
44.791 13.18
44.8391 13.1714
44.8875 13.0522
44.9357 13.0666
44.984 12.9848
45.0322 12.9252
45.0806 12.8958
45.1288 12.8762
45.1773 12.8074
45.2257 12.7978
45.2739 12.7252
45.3224 12.7102
45.3706 12.6371
45.4191 12.5748
45.4673 12.5518
45.5158 12.5798
45.5641 12.4355
45.6126 12.4343
45.6609 12.3564
45.7094 12.3324
45.7577 12.2385
45.8063 12.2494
45.8546 12.209
45.9031 12.1397
45.9515 12.1613
46.0001 12.0382
46.0484 12.0199
46.097 12.0215
46.1454 11.9326
46.194 11.9228
46.2424 11.8554
46.291 11.8195
46.3395 11.7412
46.3881 11.7423
46.4365 11.7045
46.4852 11.6583
46.5337 11.6095
46.5823 11.5586
46.631 11.5234
46.6795 11.4607
46.7282 11.4593
46.7767 11.3667
46.8254 11.3294
46.8739 11.2953
46.9226 11.1741
46.9712 11.1895
47.0199 11.166
47.0685 11.1376
47.1173 11.0874
47.1658 11.0017
47.2146 11.0515
47.2632 10.9854
47.312 10.907
47.3606 10.8375
47.4095 10.8184
47.4581 10.8328
47.5069 10.7516
47.5556 10.718
47.6044 10.6555
47.6531 10.6125
47.702 10.5702
47.7507 10.563
47.7996 10.5203
47.8483 10.5137
47.8972 10.4593
47.9461 10.4185
47.9948 10.3332
48.0438 10.3146
48.0925 10.3279
48.1415 10.2665
48.1902 10.2315
48.2392 10.2247
48.288 10.1396
48.337 10.1283
48.3858 10.0524
48.4348 10.0589
48.4837 10.0913
48.5327 9.97266
48.5815 9.93058
48.6306 9.90062
48.6795 9.8593
48.7285 9.8324
48.7774 9.8202
48.8265 9.75008
48.8754 9.72314
48.9245 9.72295
48.9734 9.67201
49.0226 9.62038
49.0715 9.58303
49.1206 9.51346
49.1696 9.4767
49.2188 9.44358
49.2679 9.4255
49.3169 9.37484
49.3661 9.31713
49.4151 9.30968
49.4643 9.29979
49.5134 9.24521
49.5626 9.20125
49.6117 9.19322
49.6609 9.09939
49.71 9.08549
49.7592 9.07817
49.8083 9.03251
49.8576 9.00458
49.9067 8.92338
49.956 8.92521
50.0052 8.90825
50.0545 8.86098
50.1036 8.84739
50.153 8.78663
50.2022 8.74743
50.2515 8.70046
50.3007 8.6948
50.3501 8.65598
50.3993 8.61551
50.4487 8.59575
50.498 8.56492
50.5474 8.53996
50.5966 8.51024
50.6461 8.44362
50.6955 8.45584
50.7448 8.37136
50.7943 8.36043
50.8436 8.3434
50.8931 8.29549
50.9424 8.27409
50.9919 8.18868
51.0413 8.2187
51.0908 8.1459
51.1402 8.13693
51.1897 8.13678
51.2391 8.08486
51.2887 8.03712
51.3381 8.02272
51.3877 7.96452
51.4371 7.90633
51.4867 7.91265
51.5362 7.87724
51.5858 7.80625
51.6353 7.78347
51.6849 7.77882
51.7344 7.7824
51.7841 7.72261
51.8336 7.71309
51.8833 7.69579
51.9328 7.63057
51.9826 7.53356
52.0323 7.55532
52.0818 7.56937
52.1316 7.4527
52.1812 7.45249
52.231 7.4033
52.2806 7.42923
52.3304 7.33043
52.38 7.33483
52.4298 7.30704
52.4794 7.27258
52.5293 7.22967
52.5789 7.20559
52.6288 7.16417
52.6785 7.13966
52.7284 7.13075
52.7781 7.11113
52.828 7.04257
52.8777 7.03077
52.9276 6.99683
52.9774 6.97624
53.0273 6.98223
53.0771 6.94932
53.1271 6.93175
53.1769 6.8231
53.2269 6.83317
53.2767 6.84591
53.3267 6.78449
53.3765 6.71817
53.4266 6.72735
53.4766 6.64892
53.5265 6.66421
53.5765 6.60945
53.6264 6.56441
53.6765 6.58416
53.7264 6.55815
53.7765 6.50147
53.8265 6.47825
53.8766 6.47332
53.9266 6.43074
53.9767 6.37046
54.0267 6.32816
54.0769 6.35575
54.1269 6.34362
54.1771 6.32035
54.2271 6.23896
54.2773 6.16984
54.3274 6.17742
54.3776 6.12441
54.4277 6.12237
54.478 6.034
54.528 5.96419
54.5783 5.93828
54.6285 5.91572
54.6788 5.89033
54.7289 5.85746
54.7792 5.81504
54.8296 5.76497
54.8798 5.73245
54.9301 5.67354
54.9803 5.69205
55.0307 5.66347
55.0809 5.58248
55.1314 5.54252
55.1816 5.44561
55.232 5.43984
55.2823 5.36196
55.3328 5.33529
55.383 5.27224
55.4335 5.2124
55.4838 5.14761
55.5344 5.13008
55.5847 5.06458
55.6352 5.07582
55.6856 5.02233
55.7361 5.01292