File: XRD/Ni3Fe_FD0735.xy
TT I
1.27165 7.45874
1.31627 6.61262
1.36089 7.01475
1.40551 6.60987
1.45013 5.41604
1.49476 6.44898
1.53938 5.80248
1.584 5.04204
1.62863 5.57411
1.67325 5.35426
1.71787 4.97405
1.7625 4.93003
1.80712 4.33952
1.85174 5.02026
1.89636 4.23851
1.94099 5.00858
1.98562 5.17306
2.03025 4.71892
2.07487 4.68398
2.11949 4.83656
2.16411 5.22368
2.20874 13.8205
2.25338 21.1001
2.298 6.2119
2.34263 5.32407
2.38725 6.14556
2.43188 6.10927
2.4765 6.95207
2.52115 6.31844
2.56577 7.28005
2.6104 8.57476
2.65503 7.20844
2.69965 8.52106
2.7443 8.50155
2.78893 8.58505
2.83356 8.42496
2.87818 8.73872
2.92281 8.80772
2.96744 9.46174
3.01209 10.2975
3.05672 11.013
3.10135 12.6509
3.14599 13.2517
3.19062 14.3919
3.23527 15.0733
3.2799 15.5158
3.32454 16.5594
3.36917 17.9954
3.4138 18.9434
3.45844 19.4939
3.50309 20.815
3.54773 22.1031
3.59237 24.3785
3.637 89.7461
3.68164 56.7748
3.7263 26.1893
3.77094 26.2222
3.81558 26.7802
3.86022 27.2146
3.90486 29.0842
3.9495 29.9243
3.99416 30.8578
4.0388 32.3165
4.08344 33.6235
4.12809 34.9105
4.17273 36.539
4.21738 42.9822
4.26204 237.237
4.30669 207.326
4.35133 48.3904
4.39598 44.6562
4.44063 53.524
4.4853 64.6477
4.52995 50.3716
4.5746 50.9345
4.61925 52.8337
4.6639 55.387
4.70855 57.6033
4.75322 60.3628
4.79788 63.2598
4.84253 67.0829
4.88719 71.3291
4.93184 74.6502
4.97652 80.5048
5.02118 86.9601
5.06583 93.8328
5.11049 104.583
5.15515 167.539
5.19981 322.817
5.24449 2759.76
5.28916 12692.7
5.33382 2846.41
5.37848 183.922
5.42315 127.803
5.46783 113.207
5.5125 106.247
5.55716 101.263
5.60183 98.3935
5.6465 96.6067
5.69117 93.8171
5.73586 91.8932
5.78053 91.1694
5.8252 90.1266
5.86988 91.0848
5.91455 93.0726
5.95924 100.114
6.00392 192.274
6.0486 911.474
6.09328 4550.75
6.13795 3205.34
6.18263 237.575
6.22733 92.096
6.27201 82.4973
6.3167 100.379
6.36138 79.6282
6.40606 69.0956
6.45075 67.3823
6.49545 65.281
6.54014 63.8114
6.58483 62.8932
6.62952 62.549
6.67421 92.9085
6.71892 138.493
6.76361 67.9189
6.8083 58.1685
6.853 57.5886
6.89769 57.2829
6.94239 56.7017
6.98711 55.5395
7.03181 55.2387
7.07651 55.0089
7.12121 55.2761
7.16591 54.7425
7.21063 55.5474
7.25533 70.4098
7.30004 172.016
7.34475 88.7704
7.38945 56.3821
7.43416 54.7704
7.47889 54.2697
7.5236 54.9074
7.56831 55.0266
7.61303 56.8327
7.65774 56.9946
7.70247 55.7483
7.74719 56.1072
7.79191 56.5522
7.83663 56.7071
7.88135 57.6798
7.92607 58.5877
7.97081 59.6635
8.01553 60.8551
8.06026 62.5643
8.10498 63.5465
8.14971 72.399
8.19446 71.7253
8.23919 69.5361
8.28392 71.4863
8.32865 74.0313
8.37339 77.9504
8.41812 84.8675
8.46288 111.369
8.50761 155.62
8.55235 366.444
8.59709 1174.45
8.64183 2188.42
8.68658 966.726
8.73134 162.587
8.77609 98.8701
8.82083 92.3451
8.86558 89.0552
8.91033 89.1384
8.9551 90.8023
8.99985 84.8747
9.04461 83.1818
9.08936 82.3542
9.13412 81.5844
9.17888 81.9548
9.22365 82.4541
9.26841 81.792
9.31318 82.3465
9.35794 82.4816
9.4027 82.5804
9.44749 84.0473
9.49226 83.9106
9.53703 85.0386
9.5818 86.6793
9.62657 91.3229
9.67134 97.8536
9.71614 92.9694
9.76091 93.6934
9.80569 95.9899
9.85047 98.9784
9.89525 122.8
9.94005 133.1
9.98484 167.276
10.0296 327.546
10.0744 808.968
10.1192 1782.25
10.164 1620.01
10.2088 407.858
10.2536 126.202
10.2984 112.817
10.3432 113.439
10.388 103.866
10.4328 115.027
10.4776 156.255
10.5224 280.705
10.5672 516.727
10.612 508.102
10.6568 205.322
10.7017 96.5272
10.7465 86.4103
10.7913 82.8203
10.8361 80.6959
10.8809 78.8243
10.9257 78.093
10.9706 78.7536
11.0154 74.5621
11.0602 72.7776
11.105 71.9204
11.1499 75.6974
11.1947 82.2779
11.2395 73.8423
11.2844 70.0147
11.3292 66.9966
11.374 65.9993
11.4189 65.4591
11.4637 64.7292
11.5086 65.5607
11.5534 67.7398
11.5983 65.2402
11.6431 63.761
11.688 62.6878
11.7328 62.6111
11.7777 62.738
11.8225 62.2119
11.8674 62.3846
11.9122 62.4993
11.9571 62.5368
12.002 63.2868
12.0468 66.5792
12.0917 77.4848
12.1366 102.06
12.1814 154.282
12.2263 202.739
12.2712 164.543
12.3161 98.533
12.3609 70.2351
12.4058 64.3028
12.4507 63.9936
12.4956 64.1344
12.5405 64.3343
12.5853 65.5056
12.6302 73.0415
12.6751 77.4593
12.72 69.5851
12.7649 67.7159
12.8098 68.1333
12.8547 69.4085
12.8996 70.671
12.9445 71.8527
12.9894 73.7184
13.0343 75.3289
13.0792 78.278
13.1242 86.3068
13.1691 108.729
13.214 145.87
13.2589 237.633
13.3038 372.841
13.3487 416.275
13.3937 263.528
13.4386 126.041
13.4835 103.65
13.5285 117.337
13.5734 155.812
13.6183 248.181
13.6633 348.585
13.7082 332.328
13.7531 184.368
13.7981 97.6312
13.843 81.6429
13.888 79.151
13.9329 76.9179
13.9779 75.9114
14.0228 74.0229
14.0678 72.7322
14.1127 72.3797
14.1577 72.1121
14.2027 71.4085
14.2476 69.9708
14.2926 70.3464
14.3376 70.913
14.3825 69.5984
14.4275 68.5082
14.4725 68.4545
14.5175 68.6139
14.5624 68.6127
14.6074 70.8612
14.6524 71.2765
14.6974 70.0077
14.7424 70.9305
14.7874 77.5981
14.8324 87.239
14.8774 109.438
14.9224 153.352
14.9674 207.538
15.0124 213.825
15.0574 148.348
15.1024 91.2749
15.1474 72.147
15.1924 70.354
15.2374 70.8072
15.2824 69.8875
15.3274 67.7305
15.3725 66.5585
15.4175 66.3779
15.4625 65.8095
15.5076 65.9097
15.5526 65.7537
15.5976 65.4767
15.6426 66.3285
15.6877 71.0164
15.7327 78.2569
15.7778 93.713
15.8228 126.964
15.8679 171.704
15.9129 194.512
15.958 155.797
16.003 97.6274
16.0481 68.2578
16.0931 64.2828
16.1382 62.2384
16.1833 60.3568
16.2283 58.7888
16.2734 58.107
16.3185 58.4216
16.3636 59.1058
16.4086 57.4975
16.4537 56.1089
16.4988 55.3262
16.5439 55.4204
16.589 55.0304
16.6341 54.6867
16.6792 54.2667
16.7243 54.6475
16.7694 54.7288
16.8145 54.5146
16.8596 55.1303
16.9047 56.6017
16.9498 56.7964
16.9949 55.3808
17.04 55.6956
17.0851 56.7017
17.1302 58.1005
17.1754 61.0156
17.2205 66.3967
17.2656 74.5556
17.3108 82.5987
17.3559 81.9583
17.401 70.407
17.4462 62.0325
17.4913 59.0439
17.5365 58.8633
17.5815 58.9603
17.6268 59.3404
17.6718 60.1198
17.7171 60.8207
17.7622 61.1738
17.8074 61.8012
17.8525 63.7632
17.8977 67.2062
17.9428 72.5575
17.9881 81.5249
18.0331 99.8651
18.0784 121.984
18.1237 138.6
18.1688 129.889
18.214 102.575
18.2591 86.3619
18.3044 90.7963
18.3495 100.484
18.3948 104.952
18.4399 95.3274
18.4852 77.0681
18.5303 65.7984
18.5756 62.0859
18.6207 60.9793
18.666 60.1558
18.7112 59.5379
18.7565 58.9684
18.8016 58.3257
18.8469 57.8844
18.892 57.5444
18.9374 56.9741
18.9825 56.8671
19.0278 56.8258
19.073 56.7
19.1183 57.2888
19.1635 57.807
19.2088 59.1563
19.254 61.9318
19.2993 66.6478
19.3447 72.6648
19.3898 75.5822
19.4352 71.4093
19.4804 62.9798
19.5257 56.7866
19.5709 53.9395
19.6163 53.6766
19.6615 53.5656
19.7068 53.3062
19.752 53.1072
19.7974 53.2132
19.8426 54.3166
19.888 54.7244
19.9332 56.0501
19.9786 58.4439
20.0238 62.2138
20.0692 67.0685
20.1144 69.2535
20.1598 67.3443
20.205 63.1826
20.2504 62.1297
20.2957 63.8849
20.3411 65.8136
20.3863 63.3439
20.4318 58.2493
20.477 53.5584
20.5224 51.5302
20.5677 50.8044
20.6131 50.0235
20.6586 49.4776
20.7038 49.4481
20.7493 48.9301
20.7945 48.6743
20.84 48.7401
20.8853 48.4287
20.9307 48.4422
20.976 48.5149
21.0215 48.3514
21.0668 48.6678
21.1122 49.292
21.1575 49.921
21.203 50.8865
21.2483 51.1355
21.2938 51.2583
21.3391 49.682
21.3846 48.8566
21.4299 48.094
21.4754 48.2842
21.5207 48.2673
21.5662 48.4269
21.6116 48.9044
21.6571 49.5535
21.7024 50.2346
21.7479 52.2908
21.7933 55.0703
21.8388 58.7994
21.8843 62.236
21.9297 64.2835
21.9752 62.7949
22.0206 59.2608
22.0661 56.2682
22.1115 56.0058
22.157 55.4098
22.2024 54.0488
22.248 51.1913
22.2933 49.6172
22.3389 49.0236
22.3843 48.8664
22.4299 48.677
22.4753 48.7615
22.5208 48.47
22.5662 48.258
22.6118 48.4166
22.6572 48.5963
22.7028 48.9788
22.7483 49.4217
22.7939 50.1287
22.8393 51.7278
22.8849 54.0278
22.9303 56.0932
22.9759 57.5506
23.0214 57.0839
23.067 54.2381
23.1126 51.0729
23.1581 48.9603
23.2037 48.6651
23.2492 48.4996
23.2948 48.5583
23.3403 48.939
23.3859 49.5998
23.4314 50.4937
23.477 52.5313
23.5225 55.017
23.5682 56.8936
23.6137 57.6571
23.6593 55.3245
23.7048 51.502
23.7505 48.1613
23.796 46.4546
23.8417 45.9015
23.8872 45.2301
23.9329 45.135
23.9784 44.7082
24.0241 44.5908
24.0697 44.3258
24.1154 44.0516
24.1609 43.7498
24.2066 43.7411
24.2522 43.4304
24.2979 43.3105
24.3434 43.1392
24.3892 43.0873
24.4349 42.943
24.4805 42.8598
24.5262 43.0118
24.5718 42.7262
24.6175 42.8873
24.6631 42.6539
24.7089 42.3474
24.7545 42.1915
24.8002 42.0824
24.8458 42.2176
24.8916 41.9783
24.9372 42.0096
24.983 42.4389
25.0286 42.7733
25.0744 43.325
25.12 43.6264
25.1658 44.1897
25.2114 44.4748
25.2572 44.7798
25.3029 44.8282
25.3487 44.6826
25.3943 44.3591
25.4402 43.3319
25.4858 42.3646
25.5316 41.2469
25.5773 40.7202
25.6231 40.8201
25.669 40.4407
25.7147 40.4461
25.7605 40.2164
25.8062 40.324
25.8521 40.492
25.8977 40.4252
25.9436 40.7443
25.9893 40.9277
26.0352 41.2825
26.0809 41.3552
26.1268 41.3449
26.1725 41.0917
26.2184 40.5985
26.2641 40.0703
26.31 39.9723
26.3557 40.0218
26.4017 40.0478
26.4474 40.3016
26.4933 40.5233
26.5391 41.1624
26.585 41.6466
26.6308 41.9409
26.6767 41.9787
26.7225 41.7189
26.7684 41.1864
26.8142 40.7088
26.8601 40.3449
26.9059 39.8873
26.9519 39.2947
26.9979 39.1329
27.0437 38.7318
27.0896 38.5326
27.1354 38.6323
27.1814 38.4621
27.2272 38.4248
27.2732 38.4088
27.3191 38.2507
27.3651 38.3941
27.4109 38.2739
27.4569 38.3313
27.5027 38.4056
27.5488 38.4413
27.5946 38.1865
27.6407 37.894
27.6865 37.9899
27.7326 37.7385
27.7784 37.7046
27.8245 37.6663
27.8703 37.9343
27.9164 38.1989
27.9623 38.167
28.0084 38.5977
28.0543 38.8974
28.1003 38.8921
28.1462 38.7043
28.1923 38.4449
28.2384 37.8335
28.2843 37.6354
28.3304 37.0175
28.3764 36.542
28.4225 36.3173
28.4684 36.1233
28.5145 35.8142
28.5605 35.7838
28.6066 35.5645
28.6526 35.5052
28.6987 35.5301
28.7447 35.3836
28.7908 35.2824
28.8368 35.3424
28.8829 35.2242
28.9289 35.1294
28.9751 35.0807
29.0211 34.7892
29.0673 34.5282
29.1133 34.4823
29.1595 34.282
29.2055 34.1302
29.2517 34.2357
29.2977 34.1676
29.3439 34.2182
29.3899 34.1478
29.4361 33.995
29.4824 33.8708
29.5284 33.6408
29.5746 33.3082
29.6207 33.0878
29.6669 32.9819
29.713 32.9195
29.7593 32.764
29.8053 32.7572
29.8516 32.7009
29.8977 32.6026
29.9439 32.6113
29.99 32.5519
30.0363 32.412
30.0824 32.3117
30.1287 32.4081
30.1748 32.3373
30.2211 32.4003
30.2673 32.0803
30.3136 32.1873
30.3597 32.1978
30.406 32.0137
30.4522 31.9289
30.4985 32.0103
30.5447 32.1257
30.591 32.0288
30.6372 32.0098
30.6835 31.9814
30.7297 32.0048
30.7761 32.0636
30.8224 31.9365
30.8686 31.8221
30.915 31.5008
30.9612 31.3603
31.0076 31.1403
31.0538 31.0615
31.1002 31.0482
31.1464 30.8957
31.1928 30.8666
31.2391 30.7995
31.2855 30.8178
31.3317 30.7674
31.3781 30.7929
31.4244 30.8224
31.4708 30.6189
31.5171 30.5766
31.5636 30.63
31.6098 30.4567
31.6563 30.1767
31.7026 30.272
31.7491 30.0135
31.7953 30.1027
31.8418 30.0147
31.8881 30.0666
31.9346 29.9584
31.9809 29.8366
32.0275 29.8062
32.074 29.6141
32.1203 29.5589
32.1668 29.4719
32.2132 29.2909
32.2597 29.1566
32.306 29.0857
32.3526 28.9007
32.399 28.8616
32.4455 28.6954
32.4919 28.5332
32.5385 28.5893
32.5848 28.461
32.6314 28.4338
32.6778 28.3272
32.7244 28.2122
32.7708 28.0278
32.8174 28.1222
32.8638 27.9066
32.9104 27.9385
32.9569 27.866
33.0035 27.801
33.0499 27.6782
33.0966 27.7929
33.143 27.6948
33.1897 27.5771
33.2361 27.5755
33.2828 27.4995
33.3293 27.3174
33.3759 27.3076
33.4226 27.0988
33.4691 27.0721
33.5158 26.9633
33.5623 26.8417
33.609 26.6828
33.6555 26.661
33.7022 26.5373
33.7487 26.4187
33.7954 26.4197
33.842 26.2227
33.8887 26.2021
33.9353 26.2329
33.982 26.0231
34.0286 25.9318
34.0753 25.9365
34.1219 25.8214
34.1687 25.7279
34.2152 25.6708
34.262 25.4825
34.3086 25.5096
34.3554 25.4867
34.402 25.315
34.4488 25.1989
34.4954 25.2727
34.5422 25.0445
34.5889 24.9248
34.6357 24.8736
34.6825 24.8262
34.7292 24.7557
34.776 24.6899
34.8227 24.5984
34.8695 24.6109
34.9162 24.566
34.9631 24.3945
35.0098 24.3931
35.0566 24.2783
35.1033 24.1683
35.1502 24.1815
35.1969 24.1094
35.2438 24.1522
35.2906 24.0346
35.3375 23.9414
35.3842 23.9683
35.4311 23.9029
35.4779 23.8595
35.5248 23.8298
35.5716 23.6416
35.6185 23.5909
35.6653 23.5077
35.7123 23.4805
35.759 23.3948
35.806 23.273
35.8528 23.1427
35.8998 23.159
35.9468 23.0157
35.9936 23.0052
36.0406 23.0111
36.0874 22.9876
36.1345 22.8146
36.1813 22.7417
36.2283 22.6202
36.2752 22.5673
36.3222 22.6135
36.3691 22.5014
36.4161 22.4073
36.463 22.3423
36.5101 22.3759
36.557 22.2931
36.6041 22.1405
36.651 22.1276
36.6981 22.0626
36.745 22.0222
36.7921 21.8403
36.839 21.7656
36.8861 21.7313
36.9331 21.6201
36.9802 21.5774
37.0272 21.5236
37.0743 21.4626
37.1213 21.3594
37.1684 21.3406
37.2154 21.2378
37.2626 21.1662
37.3098 21.1842
37.3568 21.131
37.404 20.9954
37.451 20.9153
37.4982 20.8683
37.5452 20.7914
37.5924 20.6723
37.6395 20.7651
37.6867 20.7334
37.7337 20.5654
37.781 20.4546
37.8281 20.3851
37.8753 20.3381
37.9224 20.3704
37.9697 20.2256
38.0168 20.2085
38.064 20.0994
38.1111 20.0886
38.1584 19.8993
38.2056 19.8618
38.2529 19.842
38.3 19.7154
38.3473 19.7768
38.3945 19.5906
38.4418 19.6194
38.489 19.5927
38.5363 19.4293
38.5837 19.3526
38.6309 19.4417
38.6782 19.2558
38.7254 19.1628
38.7728 19.1794
38.82 19.0814
38.8674 19.0657
38.9146 19.003
38.9621 18.9015
39.0093 18.8332
39.0567 18.7217
39.104 18.7585
39.1514 18.6557
39.1987 18.5784
39.2461 18.6017
39.2934 18.5056
39.3409 18.3424
39.3882 18.3433
39.4356 18.3354
39.483 18.3068
39.5304 18.1702
39.5778 18.1502
39.6253 18.0745
39.6726 18.0203
39.7201 18.0632
39.7675 17.9201
39.815 17.8596
39.8624 17.7804
39.9099 17.7869
39.9575 17.6547
40.0049 17.6293
40.0525 17.591
40.0999 17.5917
40.1474 17.4663
40.1949 17.3766
40.2425 17.3555
40.2899 17.2905
40.3375 17.2908
40.385 17.131
40.4326 17.1369
40.48 17.0367
40.5277 17.0538
40.5752 17.0181
40.6228 16.9197
40.6703 16.8641
40.718 16.8178
40.7655 16.7732
40.8132 16.6703
40.8607 16.6468
40.9084 16.6097
40.9559 16.5228
41.0036 16.4924
41.0512 16.4954
41.0989 16.4441
41.1465 16.3164
41.1942 16.2981
41.242 16.2393
41.2896 16.2142
41.3373 16.151
41.3849 16.0318
41.4327 16.0141
41.4803 15.8944
41.5281 15.8173
41.5758 15.8629
41.6236 15.7581
41.6712 15.7091
41.7191 15.6311
41.7667 15.6507
41.8146 15.6431
41.8622 15.5316
41.9101 15.4831
41.9578 15.3805
42.0057 15.361
42.0534 15.2822
42.1013 15.3319
42.149 15.2575
42.1969 15.2417
42.2446 15.1346
42.2925 15.0625
42.3403 15.0737
42.3882 15.0232
42.436 14.9346
42.4839 14.8675
42.5319 14.8548
42.5797 14.777
42.6277 14.7099
42.6755 14.7306
42.7235 14.5985
42.7713 14.5863
42.8193 14.5463
42.8671 14.4463
42.9152 14.4354
42.963 14.3718
43.0111 14.2988
43.0589 14.2785
43.107 14.1889
43.1549 14.2301
43.2029 14.1041
43.2508 14.0754
43.2989 14.0433
43.3468 13.935
43.3949 13.9051
43.4429 13.8916
43.491 13.7877
43.5389 13.7827
43.5871 13.7237
43.635 13.7183
43.6832 13.6576
43.7312 13.5593
43.7793 13.5274
43.8273 13.5195
43.8755 13.5185
43.9237 13.4478
43.9717 13.3332
44.0199 13.2815
44.068 13.3148
44.1162 13.2275
44.1642 13.1985
44.2125 13.1519
44.2606 13.1236
44.3088 13.0294
44.3569 12.9902
44.4052 12.9331
44.4533 12.9268
44.5016 12.8559
44.5497 12.8404
44.598 12.805
44.6461 12.7772
44.6945 12.7027
44.7426 12.6861
44.791 12.5497
44.8391 12.5682
44.8875 12.4997
44.9357 12.4867
44.984 12.4348
45.0322 12.4342
45.0806 12.3209
45.1288 12.2846
45.1773 12.2487
45.2257 12.2371
45.2739 12.1482
45.3224 12.1428
45.3706 12.0811
45.4191 12.0564
45.4673 12.0101
45.5158 11.9254
45.5641 11.8403
45.6126 11.8192
45.6609 11.7921
45.7094 11.7779
45.7577 11.7437
45.8063 11.6458
45.8546 11.6683
45.9031 11.6005
45.9515 11.6011
46.0001 11.4914
46.0484 11.481
46.097 11.4499
46.1454 11.4269
46.194 11.4022
46.2424 11.3379
46.291 11.3185
46.3395 11.2302
46.3881 11.178
46.4365 11.149
46.4852 11.1573
46.5337 11.0841
46.5823 11.078
46.631 10.9946
46.6795 10.9632
46.7282 10.9416
46.7767 10.8757
46.8254 10.8575
46.8739 10.7689
46.9226 10.7456
46.9712 10.7696
47.0199 10.6827
47.0685 10.6255
47.1173 10.593
47.1658 10.5454
47.2146 10.5501
47.2632 10.4911
47.312 10.4466
47.3606 10.4206
47.4095 10.3609
47.4581 10.3238
47.5069 10.3007
47.5556 10.2142
47.6044 10.2078
47.6531 10.1907
47.702 10.1512
47.7507 10.0955
47.7996 10.0504
47.8483 10.0139
47.8972 10.0059
47.9461 9.96324
47.9948 9.9019
48.0438 9.8774
48.0925 9.86872
48.1415 9.82711
48.1902 9.78826
48.2392 9.76925
48.288 9.72838
48.337 9.71533
48.3858 9.64067
48.4348 9.57702
48.4837 9.63266
48.5327 9.56062
48.5815 9.51827
48.6306 9.49646
48.6795 9.41963
48.7285 9.40091
48.7774 9.36182
48.8265 9.30924
48.8754 9.28709
48.9245 9.26162
48.9734 9.21033
49.0226 9.2128
49.0715 9.14307
49.1206 9.11155
49.1696 9.06855
49.2188 9.05674
49.2679 9.02388
49.3169 8.98607
49.3661 8.91128
49.4151 8.93422
49.4643 8.84667
49.5134 8.81671
49.5626 8.79074
49.6117 8.77649
49.6609 8.7738
49.71 8.66256
49.7592 8.66833
49.8083 8.63282
49.8576 8.63513
49.9067 8.57481
49.956 8.53709
50.0052 8.51056
50.0545 8.50378
50.1036 8.44414
50.153 8.39067
50.2022 8.37576
50.2515 8.33737
50.3007 8.26422
50.3501 8.28545
50.3993 8.27988
50.4487 8.18996
50.498 8.19614
50.5474 8.14816
50.5966 8.13057
50.6461 8.08578
50.6955 8.09642
50.7448 8.04366
50.7943 7.98241
50.8436 7.98758
50.8931 7.96398
50.9424 7.88235
50.9919 7.85545
51.0413 7.84845
51.0908 7.8169
51.1402 7.78581
51.1897 7.73377
51.2391 7.73264
51.2887 7.70744
51.3381 7.6825
51.3877 7.63355
51.4371 7.57176
51.4867 7.54162
51.5362 7.52904
51.5858 7.48142
51.6353 7.48238
51.6849 7.44276
51.7344 7.43408
51.7841 7.43592
51.8336 7.37676
51.8833 7.34406
51.9328 7.30042
51.9826 7.25607
52.0323 7.21765
52.0818 7.19069
52.1316 7.1368
52.1812 7.14486
52.231 7.09671
52.2806 7.06052
52.3304 7.03662
52.38 7.00628
52.4298 7.00489
52.4794 6.9543
52.5293 6.92141
52.5789 6.89343
52.6288 6.88388
52.6785 6.83151
52.7284 6.82966
52.7781 6.83297
52.828 6.7672
52.8777 6.72379
52.9276 6.70467
52.9774 6.62498
53.0273 6.66378
53.0771 6.64436
53.1271 6.62778
53.1769 6.55835
53.2269 6.5062
53.2767 6.5029
53.3267 6.48798
53.3765 6.43134
53.4266 6.398
53.4766 6.41529
53.5265 6.37357
53.5765 6.29706
53.6264 6.28459
53.6765 6.26635
53.7264 6.2747
53.7765 6.22384
53.8265 6.23676
53.8766 6.17832
53.9266 6.15693
53.9767 6.12001
54.0267 6.08708
54.0769 6.09797
54.1269 6.00773
54.1771 5.98504
54.2271 5.9867
54.2773 5.98177
54.3274 5.90348
54.3776 5.90639
54.4277 5.86947
54.478 5.83977
54.528 5.76946
54.5783 5.7688
54.6285 5.72704
54.6788 5.67715
54.7289 5.64495
54.7792 5.63708
54.8296 5.57434
54.8798 5.46195
54.9301 5.4329
54.9803 5.396
55.0307 5.44424
55.0809 5.33845
55.1314 5.34608
55.1816 5.30198
55.232 5.23656
55.2823 5.18894
55.3328 5.12612
55.383 5.07612
55.4335 5.06463
55.4838 4.98722
55.5344 4.95945
55.5847 4.88197
55.6352 4.9562
55.6856 4.84449
55.7361 4.81738