File: XRD/Ni3Fe_FD0011.xy
TT I
1.27165 36.5069
1.31627 36.5304
1.36089 35.2147
1.40551 33.315
1.45013 32.0979
1.49476 31.6931
1.53938 30.2005
1.584 29.1404
1.62863 28.4681
1.67325 27.9135
1.71787 27.8393
1.7625 27.0315
1.80712 26.414
1.85174 25.6918
1.89636 25.7674
1.94099 25.769
1.98562 26.0711
2.03025 25.7156
2.07487 25.6805
2.11949 26.1274
2.16411 26.0367
2.20874 26.9536
2.25338 26.3914
2.298 26.7046
2.34263 26.6931
2.38725 26.0929
2.43188 25.7823
2.4765 26.3868
2.52115 27.1599
2.56577 27.2923
2.6104 27.959
2.65503 29.2787
2.69965 29.9535
2.7443 31.7841
2.78893 34.0733
2.83356 36.6207
2.87818 40.6883
2.92281 44.1913
2.96744 49.6862
3.01209 57.3671
3.05672 66.1398
3.10135 76.7295
3.14599 84.0966
3.19062 85.7672
3.23527 81.2733
3.2799 70.6853
3.32454 59.4534
3.36917 51.0141
3.4138 45.2255
3.45844 41.6703
3.50309 40.2484
3.54773 39.5731
3.59237 39.4811
3.637 40.7762
3.68164 41.2067
3.7263 41.887
3.77094 41.9983
3.81558 41.5811
3.86022 41.6125
3.90486 42.6645
3.9495 43.7937
3.99416 45.0224
4.0388 48.191
4.08344 51.2069
4.12809 54.3906
4.17273 60.0619
4.21738 66.3169
4.26204 72.7799
4.30669 78.0565
4.35133 80.3249
4.39598 76.5581
4.44063 72.5416
4.4853 68.933
4.52995 64.637
4.5746 61.0678
4.61925 57.7017
4.6639 55.5432
4.70855 55.0802
4.75322 55.8177
4.79788 57.001
4.84253 60.4003
4.88719 64.398
4.93184 70.0804
4.97652 78.1075
5.02118 91.7791
5.06583 115.08
5.11049 136.147
5.15515 172.969
5.19981 254.728
5.24449 493.129
5.28916 1014.72
5.33382 2667.84
5.37848 4059.47
5.42315 1475.26
5.46783 421.555
5.5125 229.8
5.55716 163.469
5.60183 129.178
5.6465 113.391
5.69117 105.645
5.73586 100.259
5.78053 95.7721
5.8252 94.3893
5.86988 99.2579
5.91455 108.038
5.95924 123.852
6.00392 159.584
6.0486 242.777
6.09328 409.157
6.13795 698.9
6.18263 1251.83
6.22733 888.859
6.27201 361.25
6.3167 183.148
6.36138 114.837
6.40606 86.8895
6.45075 73.5108
6.49545 64.9626
6.54014 59.4405
6.58483 56.5687
6.62952 54.7982
6.67421 53.615
6.71892 53.5226
6.76361 53.0963
6.8083 52.391
6.853 51.1712
6.89769 50.5394
6.94239 49.3334
6.98711 48.4289
7.03181 48.5058
7.07651 48.8691
7.12121 50.0293
7.16591 51.5685
7.21063 54.1804
7.25533 57.248
7.30004 63.7184
7.34475 70.0033
7.38945 72.1062
7.43416 67.6277
7.47889 63.4826
7.5236 64.0221
7.56831 92.9945
7.61303 168.163
7.65774 99.6369
7.70247 52.1443
7.74719 44.4073
7.79191 41.8288
7.83663 40.3113
7.88135 39.6511
7.92607 39.5391
7.97081 39.6688
8.01553 39.7544
8.06026 40.2286
8.10498 40.8631
8.14971 41.7773
8.19446 42.8664
8.23919 44.4927
8.28392 46.2805
8.32865 48.0115
8.37339 51.4301
8.41812 55.4468
8.46288 61.9432
8.50761 72.7151
8.55235 93.6463
8.59709 142.957
8.64183 198.971
8.68658 312.038
8.73134 638.496
8.77609 750.042
8.82083 362.176
8.86558 160.952
8.91033 103.76
8.9551 81.1318
8.99985 71.3455
9.04461 65.0209
9.08936 61.5043
9.13412 59.2021
9.17888 59.5452
9.22365 65.0914
9.26841 104.035
9.31318 242.592
9.35794 198.968
9.4027 79.4226
9.44749 56.8468
9.49226 51.9014
9.53703 50.1391
9.5818 49.8599
9.62657 49.5806
9.67134 50.437
9.71614 51.2282
9.76091 52.538
9.80569 54.0185
9.85047 55.9047
9.89525 59.2824
9.94005 64.4214
9.98484 72.401
10.0296 88.1603
10.0744 122.54
10.1192 169.213
10.164 213.132
10.2088 382.671
10.2536 745.938
10.2984 705.435
10.3432 329.394
10.388 152.828
10.4328 101.759
10.4776 84.2154
10.5224 82.5301
10.5672 88.8833
10.612 94.3872
10.6568 127.357
10.7017 234.443
10.7465 298.148
10.7913 188.876
10.8361 89.1066
10.8809 57.8737
10.9257 49.3935
10.9706 45.7454
11.0154 44.0645
11.0602 42.433
11.105 41.9359
11.1499 40.8897
11.1947 40.5765
11.2395 40.6571
11.2844 40.4206
11.3292 39.7871
11.374 39.6378
11.4189 39.3543
11.4637 38.6811
11.5086 38.2321
11.5534 37.7583
11.5983 37.5995
11.6431 37.6721
11.688 37.4792
11.7328 37.3445
11.7777 37.2549
11.8225 37.1789
11.8674 37.7182
11.9122 39.4464
11.9571 43.7058
12.002 64.9486
12.0468 96.1907
12.0917 74.8071
12.1366 49.3031
12.1814 46.1856
12.2263 47.9237
12.2712 51.9284
12.3161 63.5194
12.3609 86.8234
12.4058 98.163
12.4507 75.6669
12.4956 55.3833
12.5405 46.3646
12.5853 42.4676
12.6302 40.2493
12.6751 39.595
12.72 39.4065
12.7649 39.7037
12.8098 39.7147
12.8547 39.5968
12.8996 39.3186
12.9445 39.3243
12.9894 39.4678
13.0343 39.9735
13.0792 41.3636
13.1242 44.0022
13.1691 53.2084
13.214 61.7766
13.2589 61.8704
13.3038 66.0207
13.3487 70.6818
13.3937 83.3345
13.4386 121.168
13.4835 198.373
13.5285 226.92
13.5734 156.57
13.6183 102.358
13.6633 84.8355
13.7082 79.5984
13.7531 88.7594
13.7981 129.968
13.843 204.254
13.888 200.395
13.9329 116.674
13.9779 70.3934
14.0228 53.7169
14.0678 46.8206
14.1127 44.2965
14.1577 45.3829
14.2027 57.8411
14.2476 85.0898
14.2926 82.9627
14.3376 52.8655
14.3825 40.8412
14.4275 37.978
14.4725 37.0099
14.5175 36.6664
14.5624 36.0901
14.6074 35.969
14.6524 36.2131
14.6974 36.1738
14.7424 36.7486
14.7874 37.348
14.8324 38.3128
14.8774 40.4664
14.9224 44.6706
14.9674 48.0384
15.0124 50.0467
15.0574 55.1559
15.1024 69.9071
15.1474 103.341
15.1924 133.438
15.2374 113.593
15.2824 75.2117
15.3274 53.6087
15.3725 44.825
15.4175 41.3218
15.4625 39.1987
15.5076 38.3728
15.5526 37.7413
15.5976 37.2317
15.6426 36.9699
15.6877 37.2215
15.7327 37.934
15.7778 39.4614
15.8228 42.6942
15.8679 45.8825
15.9129 47.3543
15.958 50.6539
16.003 59.8215
16.0481 82.3719
16.0931 119.44
16.1382 134.05
16.1833 107.088
16.2283 71.2892
16.2734 49.5919
16.3185 40.8006
16.3636 37.1139
16.4086 34.9135
16.4537 33.7089
16.4988 32.9224
16.5439 32.4735
16.589 31.8071
16.6341 31.5217
16.6792 31.0475
16.7243 30.9033
16.7694 30.7245
16.8145 30.7429
16.8596 30.6832
16.9047 31.1617
16.9498 31.6262
16.9949 33.8579
17.04 38.549
17.0851 39.893
17.1302 35.6492
17.1754 32.7744
17.2205 32.4778
17.2656 32.9625
17.3108 33.537
17.3559 33.7951
17.401 34.7896
17.4462 37.4745
17.4913 43.0015
17.5365 50.8888
17.5815 51.721
17.6268 44.1349
17.6718 37.7144
17.7171 34.854
17.7622 34.3597
17.8074 34.7425
17.8525 37.8463
17.8977 41.7592
17.9428 41.1324
17.9881 38.346
18.0331 39.0775
18.0784 40.8869
18.1237 42.2273
18.1688 43.0737
18.214 47.2342
18.2591 56.7658
18.3044 78.2334
18.3495 103.66
18.3948 104.227
18.4399 78.8737
18.4852 60.39
18.5303 57.462
18.5756 65.2982
18.6207 77.7175
18.666 75.2545
18.7112 60.4802
18.7565 46.9089
18.8016 39.4857
18.8469 36.1076
18.892 34.606
18.9374 33.6682
18.9825 33.3013
19.0278 32.5977
19.073 32.3745
19.1183 32.2757
19.1635 32.148
19.2088 32.2408
19.254 32.9206
19.2993 33.6514
19.3447 34.7538
19.3898 37.4851
19.4352 43.6718
19.4804 48.9243
19.5257 47.5533
19.5709 45.6642
19.6163 49.3985
19.6615 50.4225
19.7068 44.4961
19.752 37.8256
19.7974 34.2795
19.8426 32.5493
19.888 31.6029
19.9332 31.0721
19.9786 31.1123
20.0238 31.358
20.0692 31.8109
20.1144 31.704
20.1598 32.1647
20.205 33.0574
20.2504 35.2755
20.2957 39.5658
20.3411 45.3389
20.3863 48.8854
20.4318 45.198
20.477 40.319
20.5224 39.4926
20.5677 43.113
20.6131 46.237
20.6586 43.0271
20.7038 37.0205
20.7493 32.6758
20.7945 31.0769
20.84 30.9124
20.8853 32.5496
20.9307 34.0504
20.976 32.8939
21.0215 30.0497
21.0668 28.5282
21.1122 27.9654
21.1575 28.0355
21.203 27.7766
21.2483 27.8578
21.2938 27.9413
21.3391 27.8148
21.3846 27.9725
21.4299 28.6431
21.4754 30.1074
21.5207 31.9011
21.5662 32.6208
21.6116 31.5768
21.6571 30.0795
21.7024 29.321
21.7479 28.9452
21.7933 29.1625
21.8388 29.776
21.8843 30.2504
21.9297 30.2508
21.9752 31.0219
22.0206 32.3331
22.0661 34.4611
22.1115 38.2403
22.157 44.3732
22.2024 50.517
22.248 51.2713
22.2933 47.1306
22.3389 42.9257
22.3843 41.0134
22.4299 40.4113
22.4753 38.3138
22.5208 34.4601
22.5662 31.9019
22.6118 30.4778
22.6572 29.5998
22.7028 29.3125
22.7483 29.0607
22.7939 29.0478
22.8393 29.4733
22.8849 30.5359
22.9303 31.5067
22.9759 31.9783
23.0214 31.1045
23.067 30.641
23.1126 31.3238
23.1581 32.9329
23.2037 36.3732
23.2492 41.6104
23.2948 44.5796
23.3403 41.8194
23.3859 36.7277
23.4314 33.3092
23.477 32.3466
23.5225 33.0472
23.5682 34.4262
23.6137 34.9552
23.6593 33.5512
23.7048 32.5037
23.7505 33.0388
23.796 35.2025
23.8417 39.8442
23.8872 45.3838
23.9329 46.6666
23.9784 41.6638
24.0241 35.2027
24.0697 31.4662
24.1154 29.6288
24.1609 28.8618
24.2066 28.4429
24.2522 28.0507
24.2979 27.1677
24.3434 26.5001
24.3892 26.1872
24.4349 26.1389
24.4805 25.848
24.5262 25.7373
24.5718 25.6404
24.6175 25.6578
24.6631 25.735
24.7089 25.8454
24.7545 26.5521
24.8002 27.4634
24.8458 27.8226
24.8916 27.1009
24.9372 26.4573
24.983 26.1257
25.0286 25.694
25.0744 25.5857
25.12 25.5418
25.1658 25.5646
25.2114 25.6692
25.2572 25.9402
25.3029 26.365
25.3487 27.0602
25.3943 27.9548
25.4402 29.2323
25.4858 30.3788
25.5316 30.7172
25.5773 30.6331
25.6231 31.4661
25.669 32.7307
25.7147 33.1027
25.7605 31.1113
25.8062 28.6453
25.8521 27.0327
25.8977 26.3975
25.9436 26.6238
25.9893 26.6238
26.0352 26.5163
26.0809 25.7667
26.1268 25.3489
26.1725 25.069
26.2184 25.1496
26.2641 25.2528
26.31 25.9409
26.3557 26.8476
26.4017 28.0639
26.4474 29.2102
26.4933 29.0192
26.5391 27.9706
26.585 26.8863
26.6308 26.0465
26.6767 25.7175
26.7225 25.5938
26.7684 25.7403
26.8142 26.0333
26.8601 26.6647
26.9059 27.7615
26.9519 29.6179
26.9979 31.5448
27.0437 32.1297
27.0896 31.4437
27.1354 30.7465
27.1814 29.5512
27.2272 28.0866
27.2732 26.8802
27.3191 25.5744
27.3651 24.8284
27.4109 24.493
27.4569 24.25
27.5027 24.2095
27.5488 24.1287
27.5946 24.1587
27.6407 24.2208
27.6865 24.3514
27.7326 24.304
27.7784 24.3955
27.8245 24.7735
27.8703 25.3536
27.9164 25.8706
27.9623 25.6147
28.0084 25.1217
28.0543 24.8927
28.1003 24.8406
28.1462 25.4343
28.1923 25.9745
28.2384 26.0778
28.2843 26.0935
28.3304 26.5977
28.3764 27.8645
28.4225 29.387
28.4684 29.7205
28.5145 28.8288
28.5605 28.0068
28.6066 27.6013
28.6526 27.0758
28.6987 26.1355
28.7447 25.0441
28.7908 24.0653
28.8368 23.4378
28.8829 23.0043
28.9289 22.7141
28.9751 22.4488
29.0211 22.3948
29.0673 22.2658
29.1133 22.3227
29.1595 22.4178
29.2055 22.6409
29.2517 23.1297
29.2977 23.4267
29.3439 23.1419
29.3899 22.5505
29.4361 22.1619
29.4824 21.825
29.5284 21.7667
29.5746 21.6619
29.6207 21.6597
29.6669 21.9368
29.713 22.1974
29.7593 22.6374
29.8053 23.0269
29.8516 22.7903
29.8977 22.2812
29.9439 21.6453
29.99 21.2758
30.0363 21.0544
30.0824 20.9331
30.1287 21.0286
30.1748 20.9664
30.2211 21.3239
30.2673 21.3651
30.3136 21.2984
30.3597 21.0255
30.406 20.8656
30.4522 20.7088
30.4985 20.8725
30.5447 21.0718
30.591 21.2468
30.6372 21.5568
30.6835 21.4802
30.7297 21.2886
30.7761 21.1178
30.8224 20.9189
30.8686 20.9627
30.915 20.9481
30.9612 21.3847
31.0076 21.6694
31.0538 22.379
31.1002 23.1307
31.1464 23.455
31.1928 23.3889
31.2391 23.1182
31.2855 22.5828
31.3317 21.9078
31.3781 21.3519
31.4244 20.9035
31.4708 20.6408
31.5171 20.4552
31.5636 20.3264
31.6098 20.3323
31.6563 20.372
31.7026 20.6012
31.7491 20.8171
31.7953 21.0135
31.8418 21.4083
31.8881 21.777
31.9346 21.9289
31.9809 21.4736
32.0275 20.9457
32.074 20.5373
32.1203 20.3085
32.1668 20.4921
32.2132 20.4797
32.2597 20.6712
32.306 20.9377
32.3526 21.268
32.399 21.4045
32.4455 21.1464
32.4919 20.8381
32.5385 20.4627
32.5848 19.9955
32.6314 19.7775
32.6778 19.4439
32.7244 19.2769
32.7708 19.0047
32.8174 18.8271
32.8638 18.6635
32.9104 18.7269
32.9569 18.6025
33.0035 18.5873
33.0499 18.6476
33.0966 18.7843
33.143 18.8483
33.1897 18.6822
33.2361 18.5209
33.2828 18.44
33.3293 18.3535
33.3759 18.3322
33.4226 18.3484
33.4691 18.4725
33.5158 18.7338
33.5623 19.0229
33.609 19.1792
33.6555 19.2936
33.7022 19.4168
33.7487 19.2964
33.7954 19.1202
33.842 18.73
33.8887 18.2727
33.9353 18.0432
33.982 17.8056
34.0286 17.8015
34.0753 17.7853
34.1219 17.6504
34.1687 17.5979
34.2152 17.5857
34.262 17.573
34.3086 17.6615
34.3554 17.7665
34.402 17.5701
34.4488 17.4725
34.4954 17.2588
34.5422 17.1284
34.5889 17.005
34.6357 16.9463
34.6825 16.9946
34.7292 17.0691
34.776 17.1737
34.8227 17.0751
34.8695 17.0178
34.9162 16.8063
34.9631 16.6212
35.0098 16.5376
35.0566 16.3914
35.1033 16.3367
35.1502 16.2586
35.1969 16.2713
35.2438 16.3019
35.2906 16.2369
35.3375 16.3009
35.3842 16.2648
35.4311 16.3148
35.4779 16.2871
35.5248 16.3148
35.5716 16.247
35.6185 16.2297
35.6653 16.2846
35.7123 16.3249
35.759 16.5328
35.806 16.6474
35.8528 16.8129
35.8998 17.0037
35.9468 17.0527
35.9936 17.0941
36.0406 16.8918
36.0874 16.6796
36.1345 16.3781
36.1813 16.1933
36.2283 15.8998
36.2752 15.7772
36.3222 15.7721
36.3691 15.6942
36.4161 15.5536
36.463 15.6238
36.5101 15.6488
36.557 15.5901
36.6041 15.6866
36.651 15.8096
36.6981 15.755
36.745 15.5147
36.7921 15.4499
36.839 15.308
36.8861 15.2714
36.9331 15.2648
36.9802 15.3697
37.0272 15.3695
37.0743 15.3869
37.1213 15.4213
37.1684 15.2572
37.2154 15.1833
37.2626 14.9864
37.3098 14.8774
37.3568 14.7525
37.404 14.6938
37.451 14.6333
37.4982 14.5788
37.5452 14.4838
37.5924 14.4336
37.6395 14.468
37.6867 14.373
37.7337 14.3985
37.781 14.3265
37.8281 14.3107
37.8753 14.1921
37.9224 14.0608
37.9697 14.0823
38.0168 14.081
38.064 14.061
38.1111 14.0902
38.1584 14.1092
38.2056 14.06
38.2529 13.9527
38.3 14.0202
38.3473 13.8871
38.3945 13.729
38.4418 13.6669
38.489 13.5974
38.5363 13.4833
38.5837 13.4757
38.6309 13.5238
38.6782 13.5096
38.7254 13.5356
38.7728 13.4836
38.82 13.5117
38.8674 13.4969
38.9146 13.4423
38.9621 13.3367
39.0093 13.2868
39.0567 13.214
39.104 13.2732
39.1514 13.2783
39.1987 13.337
39.2461 13.2998
39.2934 13.1049
39.3409 13.0216
39.3882 12.9085
39.4356 12.8726
39.483 12.7764
39.5304 12.7531
39.5778 12.7087
39.6253 12.6389
39.6726 12.5629
39.7201 12.5832
39.7675 12.5565
39.815 12.554
39.8624 12.4596
39.9099 12.5067
39.9575 12.4291
40.0049 12.4535
40.0525 12.3273
40.0999 12.3586
40.1474 12.3108
40.1949 12.3046
40.2425 12.3659
40.2899 12.4028
40.3375 12.3183
40.385 12.3696
40.4326 12.2876
40.48 12.2491
40.5277 12.1893
40.5752 12.0426
40.6228 12.0089
40.6703 12.0426
40.718 11.9858
40.7655 11.8779
40.8132 11.8873
40.8607 11.8554
40.9084 11.9095
40.9559 11.8135
41.0036 11.8205
41.0512 11.7279
41.0989 11.7491
41.1465 11.7187
41.1942 11.7049
41.242 11.7334
41.2896 11.7007
41.3373 11.7269
41.3849 11.6336
41.4327 11.5053
41.4803 11.438
41.5281 11.3868
41.5758 11.2832
41.6236 11.2134
41.6712 11.2227
41.7191 11.2226
41.7667 11.1697
41.8146 11.1815
41.8622 11.112
41.9101 11.0524
41.9578 11.05
42.0057 10.9918
42.0534 11.0058
42.1013 11.0168
42.149 10.9629
42.1969 10.9509
42.2446 10.9793
42.2925 10.9787
42.3403 10.9493
42.3882 10.8506
42.436 10.8025
42.4839 10.7276
42.5319 10.6258
42.5797 10.5834
42.6277 10.5306
42.6755 10.5382
42.7235 10.44
42.7713 10.4245
42.8193 10.3769
42.8671 10.3083
42.9152 10.3035
42.963 10.2521
43.0111 10.2618
43.0589 10.2232
43.107 10.1518
43.1549 10.1178
43.2029 10.0816
43.2508 10.0633
43.2989 10.0369
43.3468 9.95408
43.3949 9.93132
43.4429 9.91677
43.491 9.84878
43.5389 9.80513
43.5871 9.82824
43.635 9.77756
43.6832 9.74227
43.7312 9.69674
43.7793 9.69004
43.8273 9.62781
43.8755 9.5745
43.9237 9.57591
43.9717 9.60885
44.0199 9.49916
44.068 9.54968
44.1162 9.50229
44.1642 9.52309
44.2125 9.50886
44.2606 9.47979
44.3088 9.48023
44.3569 9.38923
44.4052 9.34828
44.4533 9.30905
44.5016 9.25587
44.5497 9.23456
44.598 9.18713
44.6461 9.16893
44.6945 9.13208
44.7426 9.13979
44.791 9.13797
44.8391 9.08032
44.8875 9.06164
44.9357 9.0768
44.984 8.96654
45.0322 8.93606
45.0806 8.93685
45.1288 8.95209
45.1773 8.86529
45.2257 8.90857
45.2739 8.82899
45.3224 8.78679
45.3706 8.75489
45.4191 8.68654
45.4673 8.62925
45.5158 8.66489
45.5641 8.57996
45.6126 8.57559
45.6609 8.5003
45.7094 8.51256
45.7577 8.49994
45.8063 8.45264
45.8546 8.43779
45.9031 8.45918
45.9515 8.41511
46.0001 8.36437
46.0484 8.36429
46.097 8.3227
46.1454 8.30903
46.194 8.26962
46.2424 8.23165
46.291 8.20044
46.3395 8.16117
46.3881 8.10324
46.4365 8.12483
46.4852 8.07943
46.5337 8.03273
46.5823 8.06503
46.631 8.02355
46.6795 7.98715
46.7282 7.96829
46.7767 7.94798
46.8254 7.86111
46.8739 7.8693
46.9226 7.86367
46.9712 7.82356
47.0199 7.75827
47.0685 7.77982
47.1173 7.73419
47.1658 7.71901
47.2146 7.69021
47.2632 7.62017
47.312 7.59681
47.3606 7.52952
47.4095 7.547
47.4581 7.4982
47.5069 7.50068
47.5556 7.46177
47.6044 7.41578
47.6531 7.40789
47.702 7.35389
47.7507 7.3776
47.7996 7.3329
47.8483 7.32212
47.8972 7.2641
47.9461 7.28013
47.9948 7.25731
48.0438 7.20873
48.0925 7.19863
48.1415 7.16223
48.1902 7.13582
48.2392 7.13256
48.288 7.10095
48.337 7.05999
48.3858 6.95723
48.4348 6.99529
48.4837 7.00794
48.5327 6.98353
48.5815 6.90347
48.6306 6.92543
48.6795 6.88143
48.7285 6.86781
48.7774 6.8005
48.8265 6.84124
48.8754 6.78709
48.9245 6.75646
48.9734 6.73099
49.0226 6.75486
49.0715 6.71433
49.1206 6.63868
49.1696 6.6096
49.2188 6.63035
49.2679 6.56824
49.3169 6.54704
49.3661 6.53945
49.4151 6.5255
49.4643 6.52067
49.5134 6.49708
49.5626 6.48597
49.6117 6.43904
49.6609 6.40996
49.71 6.38564
49.7592 6.39181
49.8083 6.35146
49.8576 6.32103
49.9067 6.27924
49.956 6.26504
50.0052 6.26954
50.0545 6.21992
50.1036 6.22528
50.153 6.19508
50.2022 6.16577
50.2515 6.16438
50.3007 6.1105
50.3501 6.11515
50.3993 6.09288
50.4487 6.07619
50.498 6.02913
50.5474 5.99213
50.5966 5.99127
50.6461 5.96617
50.6955 5.96883
50.7448 5.92059
50.7943 5.92513
50.8436 5.91
50.8931 5.83761
50.9424 5.84034
50.9919 5.82957
51.0413 5.7767
51.0908 5.80154
51.1402 5.76943
51.1897 5.71404
51.2391 5.75656
51.2887 5.6927
51.3381 5.68815
51.3877 5.65978
51.4371 5.60981
51.4867 5.57828
51.5362 5.61691
51.5858 5.53164
51.6353 5.5397
51.6849 5.50571
51.7344 5.53486
51.7841 5.48182
51.8336 5.44314
51.8833 5.39701
51.9328 5.44198
51.9826 5.36163
52.0323 5.36452
52.0818 5.33325
52.1316 5.30629
52.1812 5.29033
52.231 5.26567
52.2806 5.25741
52.3304 5.22394
52.38 5.20796
52.4298 5.18999
52.4794 5.1962
52.5293 5.16198
52.5789 5.12716
52.6288 5.09317
52.6785 5.08089
52.7284 5.06892
52.7781 5.05391
52.828 5.04688
52.8777 5.01804
52.9276 4.98852
52.9774 5.00114
53.0273 4.98694
53.0771 4.90843
53.1271 4.92774
53.1769 4.91122
53.2269 4.85725
53.2767 4.86158
53.3267 4.81061
53.3765 4.81415
53.4266 4.75476
53.4766 4.751
53.5265 4.77264
53.5765 4.73653
53.6264 4.67266
53.6765 4.67851
53.7264 4.64446
53.7765 4.66703
53.8265 4.62825
53.8766 4.60124
53.9266 4.59229
53.9767 4.5616
54.0267 4.58562
54.0769 4.5268
54.1269 4.48851
54.1771 4.45968
54.2271 4.45792
54.2773 4.42445
54.3274 4.42282
54.3776 4.33354
54.4277 4.32701
54.478 4.27446
54.528 4.24181
54.5783 4.24951
54.6285 4.16746
54.6788 4.20984
54.7289 4.16213
54.7792 4.1094
54.8296 4.09992
54.8798 4.03557
54.9301 3.99065
54.9803 3.99501
55.0307 3.95391
55.0809 3.95777
55.1314 3.8827
55.1816 3.87472
55.232 3.81944
55.2823 3.79662
55.3328 3.68449
55.383 3.72098
55.4335 3.65426
55.4838 3.64139
55.5344 3.6366
55.5847 3.57314
55.6352 3.58402
55.6856 3.55693
55.7361 3.55636