File: XRD/Ni3Fe_FD0594.xy
TT I
1.27165 7.57202
1.31627 6.87801
1.36089 6.38394
1.40551 6.22208
1.45013 6.29183
1.49476 5.69973
1.53938 6.26245
1.584 5.02139
1.62863 5.31392
1.67325 5.19672
1.71787 4.8488
1.7625 5.38595
1.80712 5.2354
1.85174 4.21131
1.89636 5.0243
1.94099 4.94968
1.98562 4.92005
2.03025 4.403
2.07487 4.20761
2.11949 4.7665
2.16411 4.66123
2.20874 7.95103
2.25338 11.7234
2.298 5.24226
2.34263 5.1617
2.38725 5.62349
2.43188 5.89367
2.4765 6.55067
2.52115 6.22511
2.56577 6.87777
2.6104 8.27906
2.65503 7.40523
2.69965 7.2676
2.7443 8.00762
2.78893 8.20996
2.83356 8.21202
2.87818 8.83339
2.92281 8.40617
2.96744 9.28648
3.01209 10.09
3.05672 11.2193
3.10135 12.4288
3.14599 13.6491
3.19062 13.8627
3.23527 14.9087
3.2799 16.1128
3.32454 16.4267
3.36917 17.5614
3.4138 18.8846
3.45844 19.0643
3.50309 20.6529
3.54773 21.6023
3.59237 23.0109
3.637 49.8361
3.68164 37.3273
3.7263 25.548
3.77094 25.9642
3.81558 27.1759
3.86022 27.3722
3.90486 28.953
3.9495 29.9291
3.99416 30.6631
4.0388 31.518
4.08344 33.2095
4.12809 34.1247
4.17273 35.6966
4.21738 39.6474
4.26204 125.086
4.30669 107.922
4.35133 44.7006
4.39598 44.1277
4.44063 49.1511
4.4853 55.0098
4.52995 55.0487
4.5746 56.2485
4.61925 54.3167
4.6639 56.4744
4.70855 58.2961
4.75322 61.8999
4.79788 67.8234
4.84253 68.9049
4.88719 74.7062
4.93184 77.3844
4.97652 82.1866
5.02118 88.8059
5.06583 97.3263
5.11049 109.647
5.15515 160.524
5.19981 480.977
5.24449 3239.73
5.28916 12291.4
5.33382 2736.11
5.37848 202.885
5.42315 132.616
5.46783 119.358
5.5125 111.621
5.55716 103.518
5.60183 99.5149
5.6465 97.1857
5.69117 95.4318
5.73586 93.6675
5.78053 97.7902
5.8252 97.2441
5.86988 100.263
5.91455 97.5111
5.95924 109.189
6.00392 276.601
6.0486 1105.27
6.09328 4369.77
6.13795 3298.21
6.18263 236.385
6.22733 93.1479
6.27201 81.6837
6.3167 86.1731
6.36138 75.3649
6.40606 70.0285
6.45075 69.4268
6.49545 65.6612
6.54014 63.7045
6.58483 63.0382
6.62952 63.0884
6.67421 74.2586
6.71892 93.6808
6.76361 62.851
6.8083 59.3154
6.853 59.5472
6.89769 57.1412
6.94239 56.5764
6.98711 55.9178
7.03181 55.9561
7.07651 55.1595
7.12121 55.037
7.16591 55.9955
7.21063 55.4685
7.25533 61.0968
7.30004 102.244
7.34475 68.9506
7.38945 55.363
7.43416 53.8605
7.47889 54.0478
7.5236 54.512
7.56831 55.7821
7.61303 56.0925
7.65774 56.2155
7.70247 56.5922
7.74719 56.7252
7.79191 56.7974
7.83663 57.1479
7.88135 58.142
7.92607 58.5498
7.97081 60.0279
8.01553 61.2812
8.06026 63.2229
8.10498 64.4162
8.14971 70.7959
8.19446 70.525
8.23919 70.216
8.28392 72.7273
8.32865 74.7077
8.37339 79.2928
8.41812 85.134
8.46288 107.174
8.50761 198.156
8.55235 437.578
8.59709 1262.79
8.64183 2193.5
8.68658 918.894
8.73134 156.83
8.77609 99.6532
8.82083 93.379
8.86558 92.6662
8.91033 91.8881
8.9551 89.7327
8.99985 86.0027
9.04461 84.9277
9.08936 84.9247
9.13412 83.5645
9.17888 82.5348
9.22365 82.7193
9.26841 82.6714
9.31318 85.1434
9.35794 86.0705
9.4027 86.0308
9.44749 85.7863
9.49226 85.7993
9.53703 86.6436
9.5818 89.7852
9.62657 93.3536
9.67134 95.7747
9.71614 93.7776
9.76091 95.7114
9.80569 99.6995
9.85047 102.464
9.89525 113.687
9.94005 132.217
9.98484 211.48
10.0296 382.417
10.0744 876.759
10.1192 1731.26
10.164 1506.33
10.2088 364.026
10.2536 124.644
10.2984 111.033
10.3432 110.062
10.388 106.979
10.4328 127.985
10.4776 171.751
10.5224 301.441
10.5672 512.862
10.612 478.743
10.6568 187.842
10.7017 95.1301
10.7465 87.278
10.7913 83.7604
10.8361 81.7515
10.8809 79.4948
10.9257 78.1235
10.9706 78.3595
11.0154 75.7146
11.0602 72.9359
11.105 72.0417
11.1499 72.6281
11.1947 74.749
11.2395 70.8197
11.2844 69.4293
11.3292 67.3281
11.374 66.4387
11.4189 65.8326
11.4637 65.1366
11.5086 65.2508
11.5534 66.2902
11.5983 64.6657
11.6431 64.0942
11.688 63.2723
11.7328 63.2331
11.7777 62.98
11.8225 62.9137
11.8674 63.1491
11.9122 62.9856
11.9571 63.4589
12.002 65.3745
12.0468 70.8304
12.0917 81.5779
12.1366 106.876
12.1814 157.209
12.2263 202.93
12.2712 161.173
12.3161 90.007
12.3609 67.5792
12.4058 64.3851
12.4507 64.4446
12.4956 65.1792
12.5405 65.2938
12.5853 65.6059
12.6302 68.7942
12.6751 71.3985
12.72 68.584
12.7649 68.1339
12.8098 68.979
12.8547 70.2633
12.8996 72.0137
12.9445 73.5797
12.9894 75.26
13.0343 76.9287
13.0792 81.9125
13.1242 96.0622
13.1691 117.893
13.214 158.951
13.2589 253.433
13.3038 377.06
13.3487 419.261
13.3937 249.838
13.4386 121.472
13.4835 111.448
13.5285 126.95
13.5734 169.116
13.6183 256.187
13.6633 350.206
13.7082 330.774
13.7531 179.659
13.7981 96.5899
13.843 82.104
13.888 80.1956
13.9329 77.9604
13.9779 76.3807
14.0228 74.7594
14.0678 73.6123
14.1127 72.8292
14.1577 72.4808
14.2027 71.8059
14.2476 71.1261
14.2926 70.7303
14.3376 70.9162
14.3825 70.4322
14.4275 69.3404
14.4725 69.1135
14.5175 69.6805
14.5624 69.6452
14.6074 70.6088
14.6524 71.2336
14.6974 71.4909
14.7424 75.1795
14.7874 82.1026
14.8324 92.7421
14.8774 116.768
14.9224 159.669
14.9674 210.877
15.0124 211.931
15.0574 143.35
15.1024 88.3688
15.1474 72.6728
15.1924 70.5967
15.2374 70.1163
15.2824 69.1889
15.3274 68.0499
15.3725 67.225
15.4175 66.9601
15.4625 66.652
15.5076 66.4938
15.5526 66.355
15.5976 66.6731
15.6426 69.3965
15.6877 75.0281
15.7327 82.8142
15.7778 99.6945
15.8228 131.838
15.8679 174.114
15.9129 192.647
15.958 149.83
16.003 92.6784
16.0481 66.9528
16.0931 63.722
16.1382 61.9791
16.1833 60.5874
16.2283 59.2729
16.2734 58.4904
16.3185 58.4287
16.3636 58.0847
16.4086 57.1246
16.4537 56.3653
16.4988 55.8792
16.5439 55.8427
16.589 55.6075
16.6341 55.1707
16.6792 54.8509
16.7243 55.1909
16.7694 55.2588
16.8145 55.1812
16.8596 55.4797
16.9047 56.0496
16.9498 56.0623
16.9949 55.799
17.04 56.5316
17.0851 57.9289
17.1302 59.5353
17.1754 62.7699
17.2205 68.0524
17.2656 75.4982
17.3108 82.9906
17.3559 82.2854
17.401 70.9372
17.4462 62.3311
17.4913 59.7958
17.5365 59.7212
17.5815 59.6526
17.6268 59.9417
17.6718 60.8157
17.7171 61.2779
17.7622 62.1687
17.8074 63.3912
17.8525 66.4594
17.8977 70.0363
17.9428 75.8666
17.9881 85.7626
18.0331 103.436
18.0784 124.233
18.1237 140.936
18.1688 131.383
18.214 102.223
18.2591 87.1858
18.3044 92.193
18.3495 101.149
18.3948 106.041
18.4399 95.0773
18.4852 76.4822
18.5303 65.9189
18.5756 62.3914
18.6207 61.6368
18.666 60.5603
18.7112 60.0958
18.7565 59.418
18.8016 58.8792
18.8469 58.4734
18.892 58.2215
18.9374 57.8039
18.9825 57.1397
19.0278 57.2467
19.073 57.6832
19.1183 57.7613
19.1635 58.4944
19.2088 60.0914
19.254 62.9607
19.2993 67.323
19.3447 72.773
19.3898 76.1283
19.4352 71.7978
19.4804 62.9558
19.5257 56.6777
19.5709 54.5933
19.6163 54.401
19.6615 54.2783
19.7068 53.6974
19.752 53.6054
19.7974 54.322
19.8426 55.1009
19.888 55.7193
19.9332 56.9989
19.9786 59.6988
20.0238 63.5665
20.0692 68.058
20.1144 70.3346
20.1598 68.0548
20.205 63.6842
20.2504 62.6885
20.2957 64.2634
20.3411 65.8965
20.3863 63.8314
20.4318 58.2312
20.477 53.3398
20.5224 51.6015
20.5677 50.864
20.6131 50.608
20.6586 50.0758
20.7038 49.8717
20.7493 49.1564
20.7945 49.324
20.84 49.1031
20.8853 49.0482
20.9307 49.1388
20.976 49.2341
21.0215 49.0598
21.0668 49.3608
21.1122 49.9652
21.1575 50.6372
21.203 51.0888
21.2483 51.7307
21.2938 51.8144
21.3391 50.1955
21.3846 49.1512
21.4299 48.8803
21.4754 48.7597
21.5207 49.0659
21.5662 49.5654
21.6116 49.858
21.6571 50.61
21.7024 51.6549
21.7479 53.4526
21.7933 56.4343
21.8388 59.8149
21.8843 63.1901
21.9297 65.0581
21.9752 63.3329
22.0206 59.5497
22.0661 56.6107
22.1115 56.3471
22.157 56.3925
22.2024 54.4596
22.248 51.4878
22.2933 49.9474
22.3389 49.3295
22.3843 49.1579
22.4299 48.9912
22.4753 49.0209
22.5208 49.0048
22.5662 48.913
22.6118 49.2473
22.6572 49.402
22.7028 49.8253
22.7483 50.3405
22.7939 50.8915
22.8393 52.5803
22.8849 54.4904
22.9303 56.5975
22.9759 58.1628
23.0214 57.4308
23.067 54.4106
23.1126 51.2238
23.1581 49.5238
23.2037 49.3246
23.2492 49.2912
23.2948 49.3903
23.3403 49.5998
23.3859 50.416
23.4314 51.4336
23.477 53.4661
23.5225 55.3865
23.5682 57.3376
23.6137 58.0873
23.6593 55.4357
23.7048 51.5013
23.7505 48.3265
23.796 46.8211
23.8417 46.3062
23.8872 45.8313
23.9329 45.5832
23.9784 45.0798
24.0241 44.931
24.0697 44.7167
24.1154 44.2754
24.1609 44.204
24.2066 43.9614
24.2522 43.9103
24.2979 43.7752
24.3434 43.567
24.3892 43.392
24.4349 43.3929
24.4805 43.1245
24.5262 43.4407
24.5718 43.233
24.6175 43.2262
24.6631 43.0361
24.7089 42.7831
24.7545 42.577
24.8002 42.5572
24.8458 42.5089
24.8916 42.2806
24.9372 42.635
24.983 42.9122
25.0286 43.2268
25.0744 43.6795
25.12 44.2015
25.1658 44.8
25.2114 44.8408
25.2572 45.1183
25.3029 45.1829
25.3487 45.1892
25.3943 44.8479
25.4402 43.657
25.4858 42.5011
25.5316 41.6383
25.5773 41.158
25.6231 41.1182
25.669 40.9422
25.7147 40.7936
25.7605 40.5804
25.8062 40.7965
25.8521 40.9554
25.8977 40.823
25.9436 41.3226
25.9893 41.3023
26.0352 41.7643
26.0809 41.715
26.1268 41.9796
26.1725 41.5711
26.2184 41.0723
26.2641 40.5395
26.31 40.3216
26.3557 40.3352
26.4017 40.4884
26.4474 40.7866
26.4933 40.9461
26.5391 41.669
26.585 41.9731
26.6308 42.4491
26.6767 42.4338
26.7225 42.1747
26.7684 41.6392
26.8142 40.9761
26.8601 40.6452
26.9059 40.2995
26.9519 39.7022
26.9979 39.4713
27.0437 39.1871
27.0896 39.0636
27.1354 39.175
27.1814 38.8385
27.2272 38.6451
27.2732 38.7653
27.3191 38.6297
27.3651 38.7771
27.4109 38.6659
27.4569 38.7905
27.5027 38.8419
27.5488 38.8929
27.5946 38.5709
27.6407 38.3194
27.6865 38.3906
27.7326 38.1194
27.7784 38.2998
27.8245 38.0582
27.8703 38.3714
27.9164 38.5555
27.9623 38.6532
28.0084 39.0369
28.0543 39.3417
28.1003 39.2619
28.1462 39.0531
28.1923 38.6629
28.2384 38.1388
28.2843 37.8216
28.3304 37.3824
28.3764 36.987
28.4225 36.6768
28.4684 36.4398
28.5145 36.2654
28.5605 36.1059
28.6066 35.9276
28.6526 35.8509
28.6987 35.8585
28.7447 35.8124
28.7908 35.5489
28.8368 35.6263
28.8829 35.6365
28.9289 35.5242
28.9751 35.387
29.0211 35.2333
29.0673 34.8048
29.1133 34.8098
29.1595 34.6148
29.2055 34.6125
29.2517 34.5168
29.2977 34.5974
29.3439 34.4943
29.3899 34.3912
29.4361 34.4165
29.4824 34.1479
29.5284 33.9408
29.5746 33.6711
29.6207 33.237
29.6669 33.2165
29.713 33.2459
29.7593 33.0951
29.8053 33.0924
29.8516 33.0432
29.8977 32.8972
29.9439 32.7603
29.99 32.7975
30.0363 32.7168
30.0824 32.733
30.1287 32.6146
30.1748 32.6256
30.2211 32.7444
30.2673 32.4875
30.3136 32.5237
30.3597 32.489
30.406 32.3781
30.4522 32.3107
30.4985 32.2451
30.5447 32.4375
30.591 32.383
30.6372 32.3844
30.6835 32.3899
30.7297 32.4119
30.7761 32.3275
30.8224 32.1545
30.8686 32.0952
30.915 31.8244
30.9612 31.7632
31.0076 31.421
31.0538 31.3874
31.1002 31.3595
31.1464 31.1018
31.1928 31.1628
31.2391 31.2574
31.2855 31.0738
31.3317 31.1069
31.3781 31.129
31.4244 31.2059
31.4708 31.0945
31.5171 31.1096
31.5636 30.9754
31.6098 30.7088
31.6563 30.5619
31.7026 30.4609
31.7491 30.3384
31.7953 30.4045
31.8418 30.4162
31.8881 30.3921
31.9346 30.3234
31.9809 30.2033
32.0275 30.0545
32.074 30.0228
32.1203 29.7664
32.1668 29.715
32.2132 29.6104
32.2597 29.4605
32.306 29.4353
32.3526 29.1114
32.399 29.1798
32.4455 28.9092
32.4919 28.9165
32.5385 28.9396
32.5848 28.6625
32.6314 28.6143
32.6778 28.6437
32.7244 28.5075
32.7708 28.3174
32.8174 28.4172
32.8638 28.1732
32.9104 28.2204
32.9569 28.1739
33.0035 28.0925
33.0499 28.0133
33.0966 27.9314
33.143 27.9493
33.1897 27.8228
33.2361 27.842
33.2828 27.7385
33.3293 27.4729
33.3759 27.5593
33.4226 27.3948
33.4691 27.3931
33.5158 27.2036
33.5623 27.0571
33.609 27.0042
33.6555 26.8527
33.7022 26.7598
33.7487 26.6928
33.7954 26.6213
33.842 26.5068
33.8887 26.5514
33.9353 26.4583
33.982 26.2363
34.0286 26.3
34.0753 26.1222
34.1219 26.0341
34.1687 25.9945
34.2152 25.9823
34.262 25.8519
34.3086 25.7666
34.3554 25.6397
34.402 25.5236
34.4488 25.4646
34.4954 25.4011
34.5422 25.2973
34.5889 25.268
34.6357 25.1
34.6825 25.0877
34.7292 25.0656
34.776 24.9333
34.8227 24.8295
34.8695 24.7829
34.9162 24.7319
34.9631 24.6346
35.0098 24.6248
35.0566 24.5153
35.1033 24.4378
35.1502 24.3891
35.1969 24.3598
35.2438 24.2701
35.2906 24.1666
35.3375 24.2732
35.3842 24.1653
35.4311 24.1625
35.4779 24.0839
35.5248 24.1358
35.5716 23.9937
35.6185 23.8533
35.6653 23.7905
35.7123 23.6742
35.759 23.5609
35.806 23.5109
35.8528 23.3606
35.8998 23.3403
35.9468 23.3567
35.9936 23.2831
36.0406 23.1175
36.0874 23.1227
36.1345 22.995
36.1813 23.0562
36.2283 22.8761
36.2752 22.7924
36.3222 22.8345
36.3691 22.6457
36.4161 22.601
36.463 22.5923
36.5101 22.5512
36.557 22.5211
36.6041 22.3247
36.651 22.3236
36.6981 22.2526
36.745 22.1348
36.7921 22.0861
36.839 22.0083
36.8861 22.0001
36.9331 21.8431
36.9802 21.7912
37.0272 21.7355
37.0743 21.6296
37.1213 21.5884
37.1684 21.5481
37.2154 21.4435
37.2626 21.3904
37.3098 21.2864
37.3568 21.2527
37.404 21.2848
37.451 21.1448
37.4982 21.0982
37.5452 20.9713
37.5924 20.9556
37.6395 20.9485
37.6867 20.8282
37.7337 20.684
37.781 20.6371
37.8281 20.6113
37.8753 20.5055
37.9224 20.4579
37.9697 20.3973
38.0168 20.3037
38.064 20.2449
38.1111 20.1469
38.1584 20.0908
38.2056 20.0835
38.2529 20.0742
38.3 19.8879
38.3473 19.9427
38.3945 19.7644
38.4418 19.8414
38.489 19.7035
38.5363 19.6082
38.5837 19.5585
38.6309 19.509
38.6782 19.348
38.7254 19.333
38.7728 19.3452
38.82 19.2628
38.8674 19.2282
38.9146 19.0705
38.9621 19.0414
39.0093 19.0212
39.0567 18.9425
39.104 18.9446
39.1514 18.8379
39.1987 18.8234
39.2461 18.7241
39.2934 18.6498
39.3409 18.5562
39.3882 18.4899
39.4356 18.4766
39.483 18.3936
39.5304 18.3701
39.5778 18.31
39.6253 18.2301
39.6726 18.3024
39.7201 18.1642
39.7675 18.117
39.815 18.0237
39.8624 18.0074
39.9099 17.8843
39.9575 17.7883
40.0049 17.8687
40.0525 17.7342
40.0999 17.643
40.1474 17.6353
40.1949 17.5297
40.2425 17.4109
40.2899 17.4862
40.3375 17.3711
40.385 17.3644
40.4326 17.29
40.48 17.1982
40.5277 17.1859
40.5752 17.0996
40.6228 17.0567
40.6703 17.0369
40.718 16.9105
40.7655 16.9286
40.8132 16.8199
40.8607 16.7814
40.9084 16.7147
40.9559 16.6696
41.0036 16.7163
41.0512 16.6091
41.0989 16.5187
41.1465 16.495
41.1942 16.4276
41.242 16.288
41.2896 16.2981
41.3373 16.2692
41.3849 16.2026
41.4327 16.1351
41.4803 16.0747
41.5281 16.0701
41.5758 15.9931
41.6236 15.9646
41.6712 15.8845
41.7191 15.8244
41.7667 15.7695
41.8146 15.714
41.8622 15.68
41.9101 15.6426
41.9578 15.5503
42.0057 15.4792
42.0534 15.3697
42.1013 15.4242
42.149 15.3187
42.1969 15.2537
42.2446 15.2861
42.2925 15.2146
42.3403 15.1248
42.3882 15.137
42.436 15.0732
42.4839 14.9754
42.5319 14.975
42.5797 14.9147
42.6277 14.8277
42.6755 14.7348
42.7235 14.7227
42.7713 14.6835
42.8193 14.6502
42.8671 14.6533
42.9152 14.5674
42.963 14.4772
43.0111 14.4415
43.0589 14.3798
43.107 14.3452
43.1549 14.2796
43.2029 14.2263
43.2508 14.1845
43.2989 14.1093
43.3468 14.0657
43.3949 14.0551
43.4429 14.0218
43.491 13.9359
43.5389 13.9183
43.5871 13.838
43.635 13.8191
43.6832 13.7497
43.7312 13.6534
43.7793 13.6854
43.8273 13.5567
43.8755 13.5872
43.9237 13.4647
43.9717 13.5193
44.0199 13.421
44.068 13.3854
44.1162 13.3676
44.1642 13.3213
44.2125 13.2082
44.2606 13.1752
44.3088 13.1188
44.3569 13.0809
44.4052 13.0877
44.4533 12.9802
44.5016 12.938
44.5497 12.92
44.598 12.8672
44.6461 12.8504
44.6945 12.7717
44.7426 12.7205
44.791 12.6807
44.8391 12.6572
44.8875 12.6053
44.9357 12.5628
44.984 12.5228
45.0322 12.4896
45.0806 12.4254
45.1288 12.4025
45.1773 12.3363
45.2257 12.315
45.2739 12.2591
45.3224 12.2517
45.3706 12.1954
45.4191 12.1608
45.4673 12.0829
45.5158 12.0915
45.5641 12.0193
45.6126 11.9619
45.6609 11.9116
45.7094 11.8473
45.7577 11.8124
45.8063 11.7386
45.8546 11.7601
45.9031 11.7046
45.9515 11.6534
46.0001 11.6452
46.0484 11.5854
46.097 11.5666
46.1454 11.5071
46.194 11.4368
46.2424 11.4195
46.291 11.3712
46.3395 11.3315
46.3881 11.2485
46.4365 11.2424
46.4852 11.2106
46.5337 11.1647
46.5823 11.1512
46.631 11.0401
46.6795 11.053
46.7282 10.9905
46.7767 10.9591
46.8254 10.9238
46.8739 10.8958
46.9226 10.8282
46.9712 10.7916
47.0199 10.741
47.0685 10.715
47.1173 10.6561
47.1658 10.6407
47.2146 10.6467
47.2632 10.5621
47.312 10.5417
47.3606 10.491
47.4095 10.4715
47.4581 10.3757
47.5069 10.3679
47.5556 10.3563
47.6044 10.2655
47.6531 10.2734
47.702 10.1764
47.7507 10.22
47.7996 10.1176
47.8483 10.1237
47.8972 10.0991
47.9461 10.0035
47.9948 10.0114
48.0438 9.95995
48.0925 9.92666
48.1415 9.89127
48.1902 9.8519
48.2392 9.84089
48.288 9.77788
48.337 9.78638
48.3858 9.70937
48.4348 9.7142
48.4837 9.69085
48.5327 9.63218
48.5815 9.56982
48.6306 9.5661
48.6795 9.51499
48.7285 9.47054
48.7774 9.45113
48.8265 9.42129
48.8754 9.35264
48.9245 9.31817
48.9734 9.26877
49.0226 9.28632
49.0715 9.22178
49.1206 9.13264
49.1696 9.16738
49.2188 9.12039
49.2679 9.06705
49.3169 9.02809
49.3661 8.97995
49.4151 8.94164
49.4643 8.95622
49.5134 8.90143
49.5626 8.85477
49.6117 8.83201
49.6609 8.81095
49.71 8.76839
49.7592 8.74864
49.8083 8.68379
49.8576 8.6688
49.9067 8.66414
49.956 8.62662
50.0052 8.56834
50.0545 8.55654
50.1036 8.51592
50.153 8.48836
50.2022 8.46957
50.2515 8.40659
50.3007 8.38978
50.3501 8.32293
50.3993 8.31442
50.4487 8.29743
50.498 8.26352
50.5474 8.23931
50.5966 8.20727
50.6461 8.17808
50.6955 8.13519
50.7448 8.07316
50.7943 8.06066
50.8436 8.02852
50.8931 7.9755
50.9424 7.97842
50.9919 7.95848
51.0413 7.86729
51.0908 7.88013
51.1402 7.84622
51.1897 7.83152
51.2391 7.76837
51.2887 7.71981
51.3381 7.69848
51.3877 7.69229
51.4371 7.65674
51.4867 7.60577
51.5362 7.58095
51.5858 7.57227
51.6353 7.48943
51.6849 7.5023
51.7344 7.47698
51.7841 7.44196
51.8336 7.38588
51.8833 7.39771
51.9328 7.35416
51.9826 7.28068
52.0323 7.26223
52.0818 7.21539
52.1316 7.20937
52.1812 7.19001
52.231 7.15695
52.2806 7.12202
52.3304 7.12598
52.38 7.06997
52.4298 7.03126
52.4794 7.01029
52.5293 6.98548
52.5789 6.94865
52.6288 6.90985
52.6785 6.86433
52.7284 6.85444
52.7781 6.82523
52.828 6.83492
52.8777 6.78304
52.9276 6.74837
52.9774 6.7516
53.0273 6.7457
53.0771 6.67119
53.1271 6.61563
53.1769 6.60629
53.2269 6.57456
53.2767 6.49045
53.3267 6.51976
53.3765 6.51037
53.4266 6.53398
53.4766 6.45295
53.5265 6.46412
53.5765 6.3929
53.6264 6.37026
53.6765 6.32365
53.7264 6.31028
53.7765 6.29216
53.8265 6.22961
53.8766 6.25667
53.9266 6.18996
53.9767 6.17281
54.0267 6.13262
54.0769 6.10857
54.1269 6.09058
54.1771 6.06634
54.2271 6.07094
54.2773 5.98385
54.3274 5.98368
54.3776 5.91996
54.4277 5.92383
54.478 5.84294
54.528 5.85484
54.5783 5.74913
54.6285 5.75564
54.6788 5.74026
54.7289 5.67316
54.7792 5.66608
54.8296 5.57281
54.8798 5.52277
54.9301 5.51713
54.9803 5.46811
55.0307 5.4564
55.0809 5.38669
55.1314 5.38431
55.1816 5.31284
55.232 5.28341
55.2823 5.27605
55.3328 5.18731
55.383 5.11065
55.4335 5.09291
55.4838 4.95033
55.5344 4.97411
55.5847 4.93808
55.6352 4.91285
55.6856 4.89299
55.7361 4.82738