File: XRD/Ni3Fe_FD0568.xy
TT I
1.27165 7.43885
1.31627 6.95444
1.36089 7.02078
1.40551 5.3523
1.45013 6.14954
1.49476 6.47024
1.53938 5.99335
1.584 5.18091
1.62863 5.40001
1.67325 5.03496
1.71787 5.12695
1.7625 4.74899
1.80712 4.72497
1.85174 4.55382
1.89636 4.36018
1.94099 4.87767
1.98562 4.44551
2.03025 4.65015
2.07487 4.77166
2.11949 4.99173
2.16411 4.60079
2.20874 10.6454
2.25338 14.8784
2.298 6.09509
2.34263 5.34096
2.38725 5.63649
2.43188 6.39082
2.4765 6.34756
2.52115 6.28527
2.56577 7.41456
2.6104 7.68888
2.65503 7.13772
2.69965 7.35961
2.7443 7.82622
2.78893 7.94894
2.83356 8.37881
2.87818 8.28581
2.92281 8.78583
2.96744 9.60512
3.01209 10.1911
3.05672 11.1491
3.10135 12.4426
3.14599 12.6923
3.19062 14.4716
3.23527 14.7735
3.2799 15.7306
3.32454 16.307
3.36917 17.4962
3.4138 18.9263
3.45844 19.8068
3.50309 20.7526
3.54773 21.6088
3.59237 23.3683
3.637 63.8914
3.68164 43.7999
3.7263 25.8551
3.77094 26.1101
3.81558 26.557
3.86022 27.6777
3.90486 29.0166
3.9495 29.7614
3.99416 30.9244
4.0388 31.8494
4.08344 33.1679
4.12809 34.1122
4.17273 36.3156
4.21738 41.364
4.26204 164.487
4.30669 139.772
4.35133 45.9174
4.39598 43.9318
4.44063 50.9531
4.4853 57.8613
4.52995 51.3664
4.5746 52.3109
4.61925 53.5076
4.6639 55.6546
4.70855 58.7612
4.75322 61.3588
4.79788 65.2544
4.84253 67.9939
4.88719 72.9799
4.93184 76.7029
4.97652 82.1132
5.02118 88.8492
5.06583 96.8144
5.11049 108.403
5.15515 164.052
5.19981 446.793
5.24449 3185.42
5.28916 12271.1
5.33382 2901.49
5.37848 198.613
5.42315 130.626
5.46783 116.176
5.5125 108.471
5.55716 102.665
5.60183 99.0016
5.6465 97.2082
5.69117 95.3482
5.73586 93.6243
5.78053 94.0288
5.8252 94.1154
5.86988 94.984
5.91455 97.5865
5.95924 107.626
6.00392 259.82
6.0486 1102.33
6.09328 4446.36
6.13795 3391.96
6.18263 248.88
6.22733 93.827
6.27201 82.3883
6.3167 91.3148
6.36138 77.2405
6.40606 69.2296
6.45075 68.0955
6.49545 65.6415
6.54014 64.0144
6.58483 63.0217
6.62952 62.4227
6.67421 80.5305
6.71892 109.71
6.76361 64.7869
6.8083 58.7798
6.853 58.0017
6.89769 56.5545
6.94239 56.4206
6.98711 56.0034
7.03181 55.9404
7.07651 55.4941
7.12121 55.0739
7.16591 55.3654
7.21063 55.4859
7.25533 64.229
7.30004 128.912
7.34475 77.0622
7.38945 55.7382
7.43416 54.8496
7.47889 54.3388
7.5236 54.6648
7.56831 55.4108
7.61303 56.502
7.65774 56.4949
7.70247 56.5101
7.74719 56.2619
7.79191 56.917
7.83663 56.8905
7.88135 58.0093
7.92607 58.7492
7.97081 60.133
8.01553 61.1867
8.06026 62.6192
8.10498 63.9357
8.14971 71.0358
8.19446 70.5509
8.23919 69.5557
8.28392 72.175
8.32865 74.8057
8.37339 79.4038
8.41812 85.6154
8.46288 108.8
8.50761 190.364
8.55235 436.672
8.59709 1237.08
8.64183 2190.91
8.68658 947.706
8.73134 162.019
8.77609 100.306
8.82083 93.2917
8.86558 90.7395
8.91033 90.3096
8.9551 89.7042
8.99985 85.3565
9.04461 84.1798
9.08936 83.8942
9.13412 82.9488
9.17888 82.711
9.22365 83.246
9.26841 82.4162
9.31318 83.579
9.35794 84.1981
9.4027 84.3337
9.44749 84.5221
9.49226 85.0876
9.53703 86.3426
9.5818 88.5893
9.62657 92.1884
9.67134 96.3602
9.71614 93.8926
9.76091 94.5645
9.80569 97.7906
9.85047 100.966
9.89525 117.113
9.94005 132.616
9.98484 204.2
10.0296 379.026
10.0744 853.187
10.1192 1710.89
10.164 1536.65
10.2088 377.228
10.2536 125.371
10.2984 111.733
10.3432 111.377
10.388 106.492
10.4328 126.11
10.4776 170.544
10.5224 296.812
10.5672 522.624
10.612 501.609
10.6568 192.954
10.7017 95.6684
10.7465 86.9464
10.7913 83.6624
10.8361 81.0893
10.8809 79.3402
10.9257 78.4353
10.9706 77.9454
11.0154 75.2179
11.0602 73.1352
11.105 72.2074
11.1499 73.5571
11.1947 77.9191
11.2395 72.1865
11.2844 69.4536
11.3292 67.238
11.374 66.6985
11.4189 66.0417
11.4637 65.2339
11.5086 65.3026
11.5534 66.6966
11.5983 65.279
11.6431 63.7684
11.688 63.3085
11.7328 63.4305
11.7777 63.2044
11.8225 62.7728
11.8674 62.7078
11.9122 63.0325
11.9571 63.6021
12.002 64.8866
12.0468 70.3287
12.0917 81.8687
12.1366 105.877
12.1814 155.692
12.2263 201.655
12.2712 161.953
12.3161 90.7024
12.3609 68.4643
12.4058 64.7799
12.4507 64.7587
12.4956 64.822
12.5405 65.046
12.5853 65.6271
12.6302 70.2536
12.6751 74.0074
12.72 69.1991
12.7649 68.1676
12.8098 68.9652
12.8547 69.9849
12.8996 71.5848
12.9445 73.1901
12.9894 74.5786
13.0343 76.825
13.0792 80.757
13.1242 93.4175
13.1691 117.476
13.214 157.437
13.2589 250.234
13.3038 375.111
13.3487 425.879
13.3937 255.523
13.4386 122.348
13.4835 109.952
13.5285 126.211
13.5734 166.313
13.6183 254.81
13.6633 348.448
13.7082 335.973
13.7531 180.624
13.7981 96.4335
13.843 82.0412
13.888 80.2717
13.9329 77.4342
13.9779 76.1343
14.0228 74.9934
14.0678 73.446
14.1127 72.8794
14.1577 72.617
14.2027 71.8953
14.2476 70.7987
14.2926 70.6779
14.3376 71.2464
14.3825 70.3079
14.4275 69.3834
14.4725 69.3856
14.5175 69.6992
14.5624 69.472
14.6074 70.6221
14.6524 71.4752
14.6974 71.2197
14.7424 74.3015
14.7874 82.1958
14.8324 92.3003
14.8774 115.617
14.9224 157.716
14.9674 208.585
15.0124 217.392
15.0574 144.633
15.1024 89.4877
15.1474 72.3047
15.1924 70.496
15.2374 70.6958
15.2824 69.8686
15.3274 68.3289
15.3725 67.2788
15.4175 66.822
15.4625 66.3312
15.5076 66.6455
15.5526 66.6608
15.5976 66.3388
15.6426 68.5811
15.6877 74.7192
15.7327 82.4559
15.7778 98.9709
15.8228 130.659
15.8679 172.16
15.9129 194.615
15.958 152.681
16.003 94.9458
16.0481 67.49
16.0931 64.0261
16.1382 62.2719
16.1833 60.7567
16.2283 59.082
16.2734 58.5922
16.3185 58.5083
16.3636 58.6254
16.4086 57.6011
16.4537 56.3771
16.4988 55.8202
16.5439 55.8923
16.589 55.5751
16.6341 55.3469
16.6792 54.7408
16.7243 55.3073
16.7694 55.228
16.8145 55.1378
16.8596 55.3779
16.9047 56.5744
16.9498 56.5728
16.9949 55.8656
17.04 56.5654
17.0851 57.7538
17.1302 59.4145
17.1754 62.5767
17.2205 67.8252
17.2656 75.2422
17.3108 82.3379
17.3559 81.5105
17.401 70.8507
17.4462 62.071
17.4913 59.5151
17.5365 59.6179
17.5815 59.5676
17.6268 59.7711
17.6718 60.8606
17.7171 61.0923
17.7622 61.9123
17.8074 62.8674
17.8525 66.1282
17.8977 69.8312
17.9428 75.4643
17.9881 84.7428
18.0331 102.606
18.0784 123.227
18.1237 141.526
18.1688 132.921
18.214 103.246
18.2591 87.5524
18.3044 92.0155
18.3495 101.13
18.3948 106.221
18.4399 95.6254
18.4852 77.1901
18.5303 66.0204
18.5756 62.489
18.6207 61.6188
18.666 60.7515
18.7112 59.9807
18.7565 59.2848
18.8016 59.0225
18.8469 58.3973
18.892 58.0243
18.9374 57.6904
18.9825 57.364
19.0278 57.1406
19.073 57.4195
19.1183 58.0605
19.1635 58.7279
19.2088 60.177
19.254 62.9259
19.2993 67.4761
19.3447 73.0468
19.3898 76.2917
19.4352 72.0816
19.4804 63.3766
19.5257 56.6745
19.5709 54.4444
19.6163 54.2452
19.6615 54.0707
19.7068 53.6196
19.752 53.7191
19.7974 54.2776
19.8426 54.9812
19.888 55.5345
19.9332 56.8391
19.9786 59.6594
20.0238 63.4397
20.0692 67.8372
20.1144 70.2971
20.1598 68.5915
20.205 64.0242
20.2504 62.4242
20.2957 64.3237
20.3411 65.8717
20.3863 64.0322
20.4318 58.2175
20.477 53.6753
20.5224 51.8107
20.5677 50.8633
20.6131 50.5399
20.6586 49.912
20.7038 49.8678
20.7493 49.697
20.7945 49.4576
20.84 49.2447
20.8853 49.0338
20.9307 49.0281
20.976 49.1344
21.0215 48.9324
21.0668 49.3876
21.1122 49.8304
21.1575 50.5753
21.203 51.0678
21.2483 51.7604
21.2938 51.6475
21.3391 50.3483
21.3846 49.3639
21.4299 48.6462
21.4754 48.6162
21.5207 49.0786
21.5662 49.3651
21.6116 49.8261
21.6571 50.3751
21.7024 51.4436
21.7479 53.5687
21.7933 56.2394
21.8388 59.5332
21.8843 63.3166
21.9297 65.2819
21.9752 63.3648
22.0206 59.758
22.0661 56.8693
22.1115 56.2802
22.157 56.1916
22.2024 54.4644
22.248 51.8018
22.2933 50.1123
22.3389 49.4637
22.3843 49.2742
22.4299 49.2117
22.4753 49.024
22.5208 48.9396
22.5662 48.8731
22.6118 49.1744
22.6572 49.3375
22.7028 49.674
22.7483 50.0872
22.7939 50.9558
22.8393 52.5878
22.8849 54.6355
22.9303 56.5934
22.9759 58.1701
23.0214 57.5297
23.067 54.5648
23.1126 51.0997
23.1581 49.334
23.2037 49.1636
23.2492 49.4988
23.2948 49.2958
23.3403 49.5044
23.3859 50.1556
23.4314 51.4346
23.477 53.1362
23.5225 55.3138
23.5682 57.3399
23.6137 58.3177
23.6593 55.8686
23.7048 51.5657
23.7505 48.3608
23.796 46.8543
23.8417 46.2527
23.8872 45.7882
23.9329 45.4359
23.9784 45.0908
24.0241 44.8732
24.0697 44.6149
24.1154 44.3122
24.1609 44.2196
24.2066 44.1037
24.2522 43.928
24.2979 43.6118
24.3434 43.6216
24.3892 43.4557
24.4349 43.4309
24.4805 43.1014
24.5262 43.4442
24.5718 43.0883
24.6175 43.1747
24.6631 43.0472
24.7089 42.712
24.7545 42.6766
24.8002 42.5227
24.8458 42.506
24.8916 42.4089
24.9372 42.4969
24.983 42.9673
25.0286 43.194
25.0744 43.7372
25.12 44.101
25.1658 44.6772
25.2114 45.0094
25.2572 45.1614
25.3029 45.2025
25.3487 45.2931
25.3943 44.833
25.4402 43.6708
25.4858 42.6594
25.5316 41.6974
25.5773 41.2334
25.6231 41.0699
25.669 40.7904
25.7147 40.853
25.7605 40.7245
25.8062 40.7413
25.8521 40.8358
25.8977 40.9601
25.9436 41.1713
25.9893 41.2423
26.0352 41.8097
26.0809 41.7704
26.1268 42.1046
26.1725 41.5375
26.2184 40.9457
26.2641 40.6014
26.31 40.2399
26.3557 40.4318
26.4017 40.4194
26.4474 40.6623
26.4933 41.0222
26.5391 41.7049
26.585 41.9825
26.6308 42.4326
26.6767 42.5333
26.7225 42.1734
26.7684 41.5741
26.8142 41.0199
26.8601 40.669
26.9059 40.2114
26.9519 39.7597
26.9979 39.3749
27.0437 39.03
27.0896 38.8764
27.1354 39.139
27.1814 38.9519
27.2272 38.7962
27.2732 38.8439
27.3191 38.5275
27.3651 38.6076
27.4109 38.6503
27.4569 38.7187
27.5027 38.8388
27.5488 38.8768
27.5946 38.6667
27.6407 38.5538
27.6865 38.3735
27.7326 38.1494
27.7784 38.1441
27.8245 38.0151
27.8703 38.3174
27.9164 38.6944
27.9623 38.678
28.0084 39.1424
28.0543 39.3933
28.1003 39.172
28.1462 39.0195
28.1923 38.7192
28.2384 38.1024
28.2843 37.7701
28.3304 37.3049
28.3764 36.9205
28.4225 36.6185
28.4684 36.4626
28.5145 36.2959
28.5605 36.0156
28.6066 35.8444
28.6526 35.8588
28.6987 35.7889
28.7447 35.7279
28.7908 35.687
28.8368 35.6702
28.8829 35.6062
28.9289 35.6032
28.9751 35.3916
29.0211 35.1395
29.0673 34.8765
29.1133 34.7636
29.1595 34.5831
29.2055 34.592
29.2517 34.5494
29.2977 34.5072
29.3439 34.4843
29.3899 34.4588
29.4361 34.3393
29.4824 34.1546
29.5284 33.9367
29.5746 33.5752
29.6207 33.3149
29.6669 33.2796
29.713 33.1886
29.7593 33.1691
29.8053 33.1515
29.8516 33.0076
29.8977 32.8844
29.9439 32.8055
29.99 32.8912
30.0363 32.6951
30.0824 32.6309
30.1287 32.6233
30.1748 32.7063
30.2211 32.6048
30.2673 32.4884
30.3136 32.5591
30.3597 32.3972
30.406 32.3807
30.4522 32.2636
30.4985 32.1542
30.5447 32.454
30.591 32.3089
30.6372 32.373
30.6835 32.3559
30.7297 32.46
30.7761 32.3756
30.8224 32.176
30.8686 32.0831
30.915 31.7792
30.9612 31.6952
31.0076 31.4085
31.0538 31.4138
31.1002 31.3367
31.1464 31.1096
31.1928 31.16
31.2391 31.1462
31.2855 31.0572
31.3317 31.0417
31.3781 31.1498
31.4244 31.005
31.4708 31.0675
31.5171 30.9995
31.5636 30.9275
31.6098 30.7781
31.6563 30.5911
31.7026 30.4792
31.7491 30.3068
31.7953 30.3658
31.8418 30.3251
31.8881 30.2435
31.9346 30.2994
31.9809 30.2252
32.0275 30.126
32.074 29.9798
32.1203 29.8216
32.1668 29.6443
32.2132 29.6302
32.2597 29.3843
32.306 29.3992
32.3526 29.1714
32.399 29.0891
32.4455 29.0092
32.4919 28.9122
32.5385 28.7945
32.5848 28.6628
32.6314 28.6768
32.6778 28.6198
32.7244 28.4359
32.7708 28.3403
32.8174 28.3333
32.8638 28.2695
32.9104 28.2077
32.9569 28.2221
33.0035 28.0191
33.0499 28.0399
33.0966 28.0598
33.143 27.9377
33.1897 27.8861
33.2361 27.7062
33.2828 27.8029
33.3293 27.5906
33.3759 27.5653
33.4226 27.484
33.4691 27.2464
33.5158 27.1798
33.5623 27.1485
33.609 26.8893
33.6555 26.8864
33.7022 26.751
33.7487 26.6946
33.7954 26.6594
33.842 26.6286
33.8887 26.4648
33.9353 26.3568
33.982 26.2769
34.0286 26.1727
34.0753 26.1247
34.1219 25.9847
34.1687 25.9732
34.2152 26.0167
34.262 25.7865
34.3086 25.7208
34.3554 25.7229
34.402 25.5393
34.4488 25.4814
34.4954 25.4105
34.5422 25.291
34.5889 25.2289
34.6357 25.0929
34.6825 25.0984
34.7292 25.0133
34.776 24.8595
34.8227 24.8576
34.8695 24.7961
34.9162 24.8062
34.9631 24.6082
35.0098 24.6471
35.0566 24.4997
35.1033 24.4013
35.1502 24.4156
35.1969 24.3541
35.2438 24.3219
35.2906 24.2786
35.3375 24.2322
35.3842 24.0606
35.4311 24.0861
35.4779 24.091
35.5248 23.965
35.5716 23.9949
35.6185 23.8455
35.6653 23.7376
35.7123 23.7394
35.759 23.6255
35.806 23.5809
35.8528 23.3681
35.8998 23.3601
35.9468 23.2345
35.9936 23.2361
36.0406 23.1477
36.0874 23.0748
36.1345 23.0286
36.1813 22.9837
36.2283 22.9242
36.2752 22.8055
36.3222 22.7805
36.3691 22.709
36.4161 22.6089
36.463 22.6377
36.5101 22.6125
36.557 22.5513
36.6041 22.3733
36.651 22.3213
36.6981 22.2321
36.745 22.1416
36.7921 22.1277
36.839 22.0238
36.8861 21.9774
36.9331 21.8673
36.9802 21.8011
37.0272 21.7765
37.0743 21.662
37.1213 21.5765
37.1684 21.61
37.2154 21.4905
37.2626 21.4408
37.3098 21.3132
37.3568 21.2827
37.404 21.2777
37.451 21.1733
37.4982 21.0982
37.5452 20.9729
37.5924 20.951
37.6395 20.9086
37.6867 20.9199
37.7337 20.7052
37.781 20.5707
37.8281 20.5734
37.8753 20.4376
37.9224 20.4488
37.9697 20.3832
38.0168 20.2938
38.064 20.251
38.1111 20.1726
38.1584 20.1421
38.2056 20.1324
38.2529 20.0498
38.3 19.9896
38.3473 19.9187
38.3945 19.8877
38.4418 19.8131
38.489 19.7261
38.5363 19.6195
38.5837 19.6161
38.6309 19.5084
38.6782 19.4495
38.7254 19.4201
38.7728 19.3148
38.82 19.2243
38.8674 19.207
38.9146 19.1537
38.9621 19.1068
39.0093 19.0632
39.0567 19.0018
39.104 18.9119
39.1514 18.8358
39.1987 18.7729
39.2461 18.7458
39.2934 18.6342
39.3409 18.5605
39.3882 18.4981
39.4356 18.4651
39.483 18.4556
39.5304 18.4092
39.5778 18.3729
39.6253 18.1955
39.6726 18.1357
39.7201 18.1329
39.7675 18.1713
39.815 18.0393
39.8624 17.9372
39.9099 17.9661
39.9575 17.8551
40.0049 17.7527
40.0525 17.7208
40.0999 17.7204
40.1474 17.6484
40.1949 17.6141
40.2425 17.5029
40.2899 17.528
40.3375 17.4193
40.385 17.3197
40.4326 17.2973
40.48 17.1875
40.5277 17.1863
40.5752 17.1541
40.6228 17.0311
40.6703 16.991
40.718 16.9722
40.7655 16.9417
40.8132 16.8645
40.8607 16.821
40.9084 16.786
40.9559 16.7172
41.0036 16.6669
41.0512 16.6823
41.0989 16.5875
41.1465 16.482
41.1942 16.449
41.242 16.3994
41.2896 16.3675
41.3373 16.2308
41.3849 16.1823
41.4327 16.1257
41.4803 16.0883
41.5281 16.1036
41.5758 15.9891
41.6236 15.9072
41.6712 15.8535
41.7191 15.84
41.7667 15.7733
41.8146 15.7339
41.8622 15.6837
41.9101 15.6626
41.9578 15.5356
42.0057 15.4696
42.0534 15.4527
42.1013 15.3848
42.149 15.3788
42.1969 15.3308
42.2446 15.2943
42.2925 15.185
42.3403 15.2208
42.3882 15.084
42.436 15.0448
42.4839 15.0266
42.5319 15.0252
42.5797 14.8719
42.6277 14.8842
42.6755 14.7898
42.7235 14.7498
42.7713 14.6995
42.8193 14.6442
42.8671 14.576
42.9152 14.6003
42.963 14.4884
43.0111 14.4675
43.0589 14.4426
43.107 14.2812
43.1549 14.3219
43.2029 14.2535
43.2508 14.2257
43.2989 14.1424
43.3468 14.1043
43.3949 14.0781
43.4429 13.9627
43.491 13.9999
43.5389 13.9441
43.5871 13.8735
43.635 13.7836
43.6832 13.8064
43.7312 13.7016
43.7793 13.6201
43.8273 13.6289
43.8755 13.5392
43.9237 13.5468
43.9717 13.4683
44.0199 13.4369
44.068 13.3515
44.1162 13.3231
44.1642 13.3058
44.2125 13.2263
44.2606 13.2327
44.3088 13.1559
44.3569 13.1313
44.4052 13.1175
44.4533 13.0384
44.5016 12.9639
44.5497 12.9104
44.598 12.9152
44.6461 12.8571
44.6945 12.7565
44.7426 12.7695
44.791 12.6561
44.8391 12.6563
44.8875 12.5722
44.9357 12.5981
44.984 12.5238
45.0322 12.4497
45.0806 12.4331
45.1288 12.3971
45.1773 12.3332
45.2257 12.2929
45.2739 12.2441
45.3224 12.2497
45.3706 12.1793
45.4191 12.1398
45.4673 12.087
45.5158 12.0641
45.5641 11.9905
45.6126 11.9625
45.6609 11.9182
45.7094 11.8725
45.7577 11.8553
45.8063 11.7542
45.8546 11.785
45.9031 11.6995
45.9515 11.6716
46.0001 11.6527
46.0484 11.545
46.097 11.5763
46.1454 11.5392
46.194 11.4909
46.2424 11.4371
46.291 11.3578
46.3395 11.3382
46.3881 11.3104
46.4365 11.2619
46.4852 11.2046
46.5337 11.1723
46.5823 11.1137
46.631 11.0799
46.6795 11.0374
46.7282 11.0114
46.7767 11.0003
46.8254 10.9499
46.8739 10.9373
46.9226 10.8382
46.9712 10.8194
47.0199 10.7337
47.0685 10.7469
47.1173 10.6928
47.1658 10.6501
47.2146 10.6327
47.2632 10.5975
47.312 10.5784
47.3606 10.4982
47.4095 10.4086
47.4581 10.4261
47.5069 10.3689
47.5556 10.3268
47.6044 10.2815
47.6531 10.2644
47.702 10.1788
47.7507 10.1498
47.7996 10.142
47.8483 10.1177
47.8972 10.1101
47.9461 10.0431
47.9948 9.99252
48.0438 9.97367
48.0925 9.93782
48.1415 9.86514
48.1902 9.8298
48.2392 9.87106
48.288 9.77254
48.337 9.79285
48.3858 9.71515
48.4348 9.70959
48.4837 9.705
48.5327 9.56406
48.5815 9.58001
48.6306 9.53076
48.6795 9.50353
48.7285 9.46918
48.7774 9.46585
48.8265 9.4165
48.8754 9.34048
48.9245 9.34435
48.9734 9.30134
49.0226 9.27021
49.0715 9.24256
49.1206 9.19207
49.1696 9.17216
49.2188 9.12175
49.2679 9.0792
49.3169 9.03405
49.3661 9.01485
49.4151 8.96548
49.4643 8.96954
49.5134 8.92144
49.5626 8.8342
49.6117 8.86015
49.6609 8.82048
49.71 8.78789
49.7592 8.77616
49.8083 8.69519
49.8576 8.71497
49.9067 8.66556
49.956 8.61901
50.0052 8.61062
50.0545 8.54869
50.1036 8.50879
50.153 8.47303
50.2022 8.42288
50.2515 8.41947
50.3007 8.33052
50.3501 8.33266
50.3993 8.31093
50.4487 8.29976
50.498 8.23578
50.5474 8.24252
50.5966 8.16625
50.6461 8.17111
50.6955 8.16977
50.7448 8.13411
50.7943 8.0631
50.8436 8.05088
50.8931 7.99615
50.9424 8.00213
50.9919 7.9323
51.0413 7.89744
51.0908 7.89425
51.1402 7.86067
51.1897 7.78666
51.2391 7.76164
51.2887 7.74234
51.3381 7.70394
51.3877 7.6882
51.4371 7.66967
51.4867 7.60773
51.5362 7.57806
51.5858 7.56067
51.6353 7.51618
51.6849 7.49614
51.7344 7.46209
51.7841 7.47359
51.8336 7.37968
51.8833 7.40515
51.9328 7.33043
51.9826 7.29066
52.0323 7.29229
52.0818 7.27314
52.1316 7.16746
52.1812 7.21857
52.231 7.145
52.2806 7.13316
52.3304 7.09549
52.38 7.0636
52.4298 7.05574
52.4794 7.03353
52.5293 6.98952
52.5789 6.97701
52.6288 6.94777
52.6785 6.88202
52.7284 6.90739
52.7781 6.83889
52.828 6.80472
52.8777 6.76317
52.9276 6.7563
52.9774 6.72665
53.0273 6.72789
53.0771 6.66433
53.1271 6.66425
53.1769 6.60424
53.2269 6.61396
53.2767 6.52984
53.3267 6.54097
53.3765 6.51955
53.4266 6.45405
53.4766 6.44058
53.5265 6.44462
53.5765 6.41068
53.6264 6.38181
53.6765 6.36528
53.7264 6.32409
53.7765 6.26337
53.8265 6.27852
53.8766 6.22412
53.9266 6.18615
53.9767 6.17063
54.0267 6.18071
54.0769 6.13893
54.1269 6.10009
54.1771 6.06817
54.2271 6.04101
54.2773 5.98741
54.3274 5.99774
54.3776 5.91793
54.4277 5.96478
54.478 5.85653
54.528 5.81903
54.5783 5.80157
54.6285 5.76845
54.6788 5.73977
54.7289 5.69949
54.7792 5.62521
54.8296 5.62743
54.8798 5.53862
54.9301 5.53802
54.9803 5.50707
55.0307 5.50998
55.0809 5.35097
55.1314 5.39809
55.1816 5.38941
55.232 5.30708
55.2823 5.18709
55.3328 5.16405
55.383 5.15273
55.4335 5.06368
55.4838 5.01101
55.5344 5.01322
55.5847 4.94493
55.6352 4.91779
55.6856 4.8676
55.7361 4.85909