File: XRD/Ni3Fe_FD0996.xy
TT I
1.27165 7.03534
1.31627 6.85053
1.36089 6.78954
1.40551 5.65811
1.45013 5.76091
1.49476 5.78377
1.53938 5.59847
1.584 5.5758
1.62863 5.1686
1.67325 5.30176
1.71787 4.6727
1.7625 4.44491
1.80712 4.80008
1.85174 4.57617
1.89636 5.46994
1.94099 4.44063
1.98562 4.51559
2.03025 5.22481
2.07487 4.68674
2.11949 4.69184
2.16411 4.3895
2.20874 16.026
2.25338 26.7968
2.298 6.26966
2.34263 5.99612
2.38725 5.826
2.43188 6.80424
2.4765 7.20957
2.52115 6.62682
2.56577 8.18047
2.6104 9.25789
2.65503 8.55737
2.69965 8.65725
2.7443 8.50228
2.78893 8.6527
2.83356 8.75008
2.87818 9.60749
2.92281 9.53227
2.96744 9.69424
3.01209 10.3436
3.05672 11.5552
3.10135 11.9852
3.14599 13.8997
3.19062 15.0451
3.23527 14.97
3.2799 16.208
3.32454 16.9795
3.36917 17.7805
3.4138 18.8857
3.45844 19.5819
3.50309 21.2135
3.54773 22.0384
3.59237 24.253
3.637 105.187
3.68164 66.335
3.7263 26.5344
3.77094 26.2674
3.81558 26.677
3.86022 27.4153
3.90486 28.6729
3.9495 29.8378
3.99416 30.6846
4.0388 32.1561
4.08344 33.4367
4.12809 34.7077
4.17273 36.5538
4.21738 43.7419
4.26204 286.839
4.30669 255.778
4.35133 49.6539
4.39598 44.4428
4.44063 55.0298
4.4853 68.9713
4.52995 50.0243
4.5746 50.3773
4.61925 52.3216
4.6639 54.1789
4.70855 57.3751
4.75322 59.3678
4.79788 62.4121
4.84253 65.7123
4.88719 69.6394
4.93184 72.9007
4.97652 78.3879
5.02118 83.5909
5.06583 90.5659
5.11049 100.397
5.15515 170.678
5.19981 267.737
5.24449 2185.04
5.28916 13416.8
5.33382 2765.53
5.37848 173.327
5.42315 123.267
5.46783 109.855
5.5125 102.518
5.55716 99.3794
5.60183 96.0227
5.6465 94.2823
5.69117 91.8876
5.73586 89.4511
5.78053 88.5136
5.8252 88.0704
5.86988 88.3431
5.91455 89.6905
5.95924 94.619
6.00392 161.137
6.0486 751.149
6.09328 4539.47
6.13795 3247.03
6.18263 214.944
6.22733 89.2632
6.27201 81.6055
6.3167 105.776
6.36138 81.005
6.40606 67.8187
6.45075 66.3681
6.49545 64.0113
6.54014 62.6919
6.58483 62.1428
6.62952 62.0561
6.67421 98.9569
6.71892 159.63
6.76361 70.349
6.8083 58.0322
6.853 56.8795
6.89769 56.5941
6.94239 55.8153
6.98711 55.257
7.03181 54.5224
7.07651 54.5405
7.12121 54.4899
7.16591 54.7517
7.21063 55.1082
7.25533 72.4317
7.30004 200.651
7.34475 99.3977
7.38945 56.3885
7.43416 54.1621
7.47889 53.9942
7.5236 53.8951
7.56831 54.5002
7.61303 56.869
7.65774 57.0938
7.70247 55.7095
7.74719 55.1083
7.79191 55.7954
7.83663 55.8969
7.88135 56.5693
7.92607 57.7
7.97081 58.5574
8.01553 59.9078
8.06026 60.9446
8.10498 62.799
8.14971 73.5266
8.19446 72.3404
8.23919 67.8007
8.28392 70.1903
8.32865 72.1476
8.37339 76.412
8.41812 82.9262
8.46288 114.127
8.50761 138.549
8.55235 310.782
8.59709 1101.44
8.64183 2377.55
8.68658 961.141
8.73134 162.245
8.77609 96.149
8.82083 90.4901
8.86558 87.8322
8.91033 88.4612
8.9551 91.321
8.99985 84.1747
9.04461 81.7234
9.08936 81.2395
9.13412 80.3472
9.17888 81.0079
9.22365 81.3081
9.26841 80.3725
9.31318 80.7795
9.35794 80.8615
9.4027 81.0906
9.44749 81.9439
9.49226 82.3951
9.53703 83.4795
9.5818 85.5801
9.62657 90.7284
9.67134 98.3278
9.71614 92.2484
9.76091 91.6131
9.80569 93.8584
9.85047 97.2006
9.89525 124.451
9.94005 136.591
9.98484 150.453
10.0296 282.069
10.0744 726.638
10.1192 1774.74
10.164 1585.22
10.2088 370.078
10.2536 123.076
10.2984 111.621
10.3432 114.03
10.388 102.193
10.4328 108.779
10.4776 142.828
10.5224 261.342
10.5672 530.497
10.612 512.141
10.6568 196.968
10.7017 94.5537
10.7465 84.6046
10.7913 81.6427
10.8361 79.3149
10.8809 77.4337
10.9257 77.1259
10.9706 78.1678
11.0154 73.793
11.0602 71.2578
11.105 70.6852
11.1499 76.0885
11.1947 85.2001
11.2395 74.4446
11.2844 69.5922
11.3292 66.1114
11.374 65.0069
11.4189 64.3375
11.4637 63.5349
11.5086 64.4424
11.5534 68.2261
11.5983 64.9381
11.6431 62.6179
11.688 61.9607
11.7328 61.5829
11.7777 61.6942
11.8225 61.1522
11.8674 61.1992
11.9122 61.661
11.9571 61.6767
12.002 62.0587
12.0468 64.7286
12.0917 74.2637
12.1366 96.7426
12.1814 148.506
12.2263 205.413
12.2712 161.547
12.3161 94.5274
12.3609 70.2925
12.4058 63.6847
12.4507 63.073
12.4956 63.0286
12.5405 63.3636
12.5853 64.5222
12.6302 73.364
12.6751 79.8442
12.72 69.7982
12.7649 66.4093
12.8098 66.9808
12.8547 68.037
12.8996 69.3912
12.9445 70.6027
12.9894 72.3121
13.0343 73.5768
13.0792 76.3463
13.1242 82.7514
13.1691 102.148
13.214 134.115
13.2589 221.879
13.3038 375.1
13.3487 436.645
13.3937 255.178
13.4386 120.947
13.4835 98.7779
13.5285 110.451
13.5734 144.651
13.6183 235.508
13.6633 355.663
13.7082 338.725
13.7531 179.874
13.7981 94.6953
13.843 80.0766
13.888 77.6169
13.9329 75.2747
13.9779 74.0153
14.0228 72.717
14.0678 71.2416
14.1127 70.865
14.1577 71.0622
14.2027 70.2466
14.2476 69.0158
14.2926 69.2066
14.3376 70.6005
14.3825 68.9454
14.4275 67.2972
14.4725 67.1661
14.5175 67.131
14.5624 67.6857
14.6074 70.2268
14.6524 70.3801
14.6974 68.7752
14.7424 69.5622
14.7874 74.3172
14.8324 82.649
14.8774 102.544
14.9224 146.556
14.9674 210.8
15.0124 218.863
15.0574 150.573
15.1024 88.9923
15.1474 70.7879
15.1924 68.9454
15.2374 70.0033
15.2824 69.4146
15.3274 67.0241
15.3725 65.6794
15.4175 64.9584
15.4625 64.578
15.5076 64.8061
15.5526 64.6925
15.5976 64.4398
15.6426 64.5542
15.6877 68.2115
15.7327 74.4317
15.7778 88.1328
15.8228 118.993
15.8679 170.257
15.9129 196.069
15.958 153.64
16.003 94.3012
16.0481 67.03
16.0931 63.8081
16.1382 61.9575
16.1833 59.595
16.2283 57.8393
16.2734 57.2583
16.3185 57.6625
16.3636 58.5546
16.4086 57.0615
16.4537 55.1332
16.4988 54.296
16.5439 54.2765
16.589 53.9365
16.6341 53.731
16.6792 53.456
16.7243 53.7449
16.7694 53.9034
16.8145 53.4749
16.8596 54.2153
16.9047 55.9787
16.9498 56.0767
16.9949 54.3622
17.04 54.4788
17.0851 55.52
17.1302 56.659
17.1754 59.5563
17.2205 64.2874
17.2656 72.463
17.3108 81.6018
17.3559 80.509
17.401 69.0038
17.4462 60.4549
17.4913 57.6616
17.5365 57.7829
17.5815 57.7858
17.6268 58.0001
17.6718 59.1287
17.7171 59.5476
17.7622 59.9385
17.8074 60.2438
17.8525 61.781
17.8977 65.1451
17.9428 70.0271
17.9881 78.3806
18.0331 95.6406
18.0784 120.102
18.1237 138.735
18.1688 127.501
18.214 99.5906
18.2591 83.2316
18.3044 87.9077
18.3495 99.5593
18.3948 106.278
18.4399 94.5997
18.4852 75.7779
18.5303 64.7904
18.5756 60.9043
18.6207 59.9533
18.666 59.0381
18.7112 58.4642
18.7565 57.5073
18.8016 57.2507
18.8469 56.773
18.892 56.5721
18.9374 56.0392
18.9825 55.6882
19.0278 55.6577
19.073 55.5817
19.1183 55.9174
19.1635 56.655
19.2088 57.8219
19.254 59.912
19.2993 64.5894
19.3447 71.4534
19.3898 75.3917
19.4352 70.7707
19.4804 61.5532
19.5257 55.24
19.5709 53.0146
19.6163 52.8217
19.6615 52.5279
19.7068 52.1194
19.752 52.2122
19.7974 52.3441
19.8426 53.1278
19.888 53.5473
19.9332 54.5916
19.9786 57.0717
20.0238 60.7446
20.0692 66.3473
20.1144 69.1479
20.1598 66.6289
20.205 61.8983
20.2504 60.6059
20.2957 62.8775
20.3411 65.1522
20.3863 63.0075
20.4318 57.0331
20.477 52.5237
20.5224 50.698
20.5677 49.9
20.6131 49.2624
20.6586 48.4775
20.7038 48.4939
20.7493 48.366
20.7945 47.9468
20.84 47.8169
20.8853 47.6142
20.9307 47.4359
20.976 47.5909
21.0215 47.5706
21.0668 47.7924
21.1122 48.5705
21.1575 48.9087
21.203 49.9324
21.2483 50.5274
21.2938 50.3237
21.3391 48.9211
21.3846 47.8716
21.4299 47.4818
21.4754 47.3832
21.5207 47.4151
21.5662 47.643
21.6116 48.0892
21.6571 48.3707
21.7024 49.326
21.7479 50.9885
21.7933 53.6668
21.8388 57.6099
21.8843 61.9411
21.9297 63.4136
21.9752 61.7388
22.0206 58.179
22.0661 55.4922
22.1115 55.0824
22.157 55.0033
22.2024 53.0626
22.248 50.4494
22.2933 48.9133
22.3389 48.1622
22.3843 48.0186
22.4299 47.9476
22.4753 48.0452
22.5208 47.6802
22.5662 47.3175
22.6118 47.5478
22.6572 47.7229
22.7028 48.1171
22.7483 48.5176
22.7939 49.1535
22.8393 50.4357
22.8849 52.7793
22.9303 55.1984
22.9759 57.2184
23.0214 56.4329
23.067 53.2119
23.1126 49.8968
23.1581 48.0744
23.2037 47.7846
23.2492 47.6823
23.2948 47.5582
23.3403 47.8618
23.3859 48.3505
23.4314 49.388
23.477 51.2511
23.5225 53.8818
23.5682 56.3238
23.6137 57.2449
23.6593 54.4808
23.7048 50.3564
23.7505 47.3125
23.796 45.7176
23.8417 45.0929
23.8872 44.6977
23.9329 44.2852
23.9784 43.9027
24.0241 43.8444
24.0697 43.6048
24.1154 43.199
24.1609 43.0041
24.2066 42.9538
24.2522 42.7414
24.2979 42.6876
24.3434 42.3421
24.3892 42.2706
24.4349 42.0895
24.4805 42.0237
24.5262 42.2347
24.5718 42.1894
24.6175 42.0496
24.6631 41.8992
24.7089 41.6238
24.7545 41.5299
24.8002 41.4269
24.8458 41.3724
24.8916 41.1563
24.9372 41.2829
24.983 41.5365
25.0286 41.8098
25.0744 42.3839
25.12 42.8502
25.1658 43.4729
25.2114 43.5929
25.2572 43.9162
25.3029 44.0747
25.3487 44.2538
25.3943 43.8065
25.4402 42.5487
25.4858 41.653
25.5316 40.6607
25.5773 40.0986
25.6231 39.9568
25.669 39.6808
25.7147 39.6229
25.7605 39.5769
25.8062 39.7866
25.8521 39.7169
25.8977 39.7396
25.9436 39.9697
25.9893 40.176
26.0352 40.6788
26.0809 40.73
26.1268 40.9615
26.1725 40.5971
26.2184 39.8536
26.2641 39.5795
26.31 39.441
26.3557 39.3333
26.4017 39.226
26.4474 39.5199
26.4933 39.8012
26.5391 40.3733
26.585 40.9205
26.6308 41.2462
26.6767 41.3413
26.7225 41.2308
26.7684 40.5933
26.8142 40.0525
26.8601 39.738
26.9059 39.2423
26.9519 38.7127
26.9979 38.3934
27.0437 37.9766
27.0896 37.8658
27.1354 37.9499
27.1814 37.6949
27.2272 37.7848
27.2732 37.8339
27.3191 37.506
27.3651 37.6178
27.4109 37.6816
27.4569 37.6989
27.5027 37.8303
27.5488 37.7538
27.5946 37.5619
27.6407 37.3531
27.6865 37.3088
27.7326 37.0178
27.7784 37.1091
27.8245 37.1225
27.8703 37.1305
27.9164 37.4839
27.9623 37.7207
28.0084 37.8981
28.0543 38.4727
28.1003 38.3031
28.1462 38.0019
28.1923 37.8119
28.2384 37.2307
28.2843 37.0236
28.3304 36.5082
28.3764 36.0533
28.4225 35.7443
28.4684 35.6182
28.5145 35.203
28.5605 35.1425
28.6066 34.982
28.6526 34.9372
28.6987 34.9496
28.7447 34.8527
28.7908 34.6644
28.8368 34.7643
28.8829 34.6887
28.9289 34.6972
28.9751 34.4933
29.0211 34.2845
29.0673 33.9783
29.1133 33.8741
29.1595 33.6307
29.2055 33.655
29.2517 33.6088
29.2977 33.5954
29.3439 33.5953
29.3899 33.5938
29.4361 33.5555
29.4824 33.355
29.5284 33.1596
29.5746 32.8048
29.6207 32.411
29.6669 32.4285
29.713 32.2925
29.7593 32.2133
29.8053 32.2738
29.8516 32.1922
29.8977 32.0635
29.9439 32.0253
29.99 31.8534
30.0363 31.7431
30.0824 31.9548
30.1287 31.7902
30.1748 31.8892
30.2211 31.9343
30.2673 31.591
30.3136 31.7411
30.3597 31.7146
30.406 31.5669
30.4522 31.4329
30.4985 31.3491
30.5447 31.5245
30.591 31.5771
30.6372 31.5011
30.6835 31.5313
30.7297 31.6087
30.7761 31.5902
30.8224 31.2611
30.8686 31.1248
30.915 31.0092
30.9612 30.8625
31.0076 30.6857
31.0538 30.4817
31.1002 30.5584
31.1464 30.2904
31.1928 30.3417
31.2391 30.3968
31.2855 30.1391
31.3317 30.216
31.3781 30.2596
31.4244 30.3587
31.4708 30.1792
31.5171 30.2162
31.5636 30.1223
31.6098 29.8642
31.6563 29.7606
31.7026 29.591
31.7491 29.4981
31.7953 29.6314
31.8418 29.5786
31.8881 29.6523
31.9346 29.5463
31.9809 29.3695
32.0275 29.3533
32.074 29.2831
32.1203 29.0658
32.1668 29.0008
32.2132 28.8589
32.2597 28.6727
32.306 28.6105
32.3526 28.42
32.399 28.3945
32.4455 28.1668
32.4919 28.0945
32.5385 28.1971
32.5848 27.9137
32.6314 27.9154
32.6778 27.8288
32.7244 27.8437
32.7708 27.5783
32.8174 27.6247
32.8638 27.4344
32.9104 27.4993
32.9569 27.4188
33.0035 27.4154
33.0499 27.3182
33.0966 27.297
33.143 27.2557
33.1897 27.1724
33.2361 26.965
33.2828 27.0239
33.3293 26.9182
33.3759 26.8309
33.4226 26.6943
33.4691 26.5699
33.5158 26.5478
33.5623 26.4057
33.609 26.2745
33.6555 26.1106
33.7022 26.0794
33.7487 26.0912
33.7954 25.9794
33.842 25.8648
33.8887 25.8736
33.9353 25.7042
33.982 25.6363
34.0286 25.6509
34.0753 25.4587
34.1219 25.3952
34.1687 25.341
34.2152 25.2698
34.262 25.1931
34.3086 25.0594
34.3554 25.0193
34.402 24.9465
34.4488 24.7673
34.4954 24.717
34.5422 24.6096
34.5889 24.5805
34.6357 24.5318
34.6825 24.4257
34.7292 24.4196
34.776 24.2304
34.8227 24.2586
34.8695 24.2307
34.9162 24.1514
34.9631 23.9755
35.0098 24.0351
35.0566 23.8866
35.1033 23.8192
35.1502 23.7459
35.1969 23.6884
35.2438 23.7369
35.2906 23.6855
35.3375 23.691
35.3842 23.5563
35.4311 23.5648
35.4779 23.5423
35.5248 23.5175
35.5716 23.3511
35.6185 23.2483
35.6653 23.2447
35.7123 23.0776
35.759 23.0566
35.806 22.9116
35.8528 22.7955
35.8998 22.8622
35.9468 22.72
35.9936 22.6306
36.0406 22.5355
36.0874 22.5222
36.1345 22.4189
36.1813 22.4068
36.2283 22.2867
36.2752 22.147
36.3222 22.159
36.3691 22.2034
36.4161 22.0008
36.463 22.0385
36.5101 22.0453
36.557 21.8791
36.6041 21.7637
36.651 21.781
36.6981 21.7
36.745 21.7021
36.7921 21.604
36.839 21.4416
36.8861 21.3506
36.9331 21.2685
36.9802 21.2317
37.0272 21.1394
37.0743 21.071
37.1213 21.0601
37.1684 21.0389
37.2154 20.9402
37.2626 20.8737
37.3098 20.8572
37.3568 20.7351
37.404 20.6963
37.451 20.5491
37.4982 20.5176
37.5452 20.4978
37.5924 20.4311
37.6395 20.437
37.6867 20.3388
37.7337 20.2095
37.781 20.1761
37.8281 20.0444
37.8753 20.0093
37.9224 19.9144
37.9697 19.9537
38.0168 19.8131
38.064 19.7441
38.1111 19.7649
38.1584 19.6817
38.2056 19.6127
38.2529 19.5201
38.3 19.4996
38.3473 19.4135
38.3945 19.2887
38.4418 19.2765
38.489 19.345
38.5363 19.117
38.5837 19.0701
38.6309 19.0301
38.6782 18.9808
38.7254 18.8812
38.7728 18.8736
38.82 18.736
38.8674 18.7849
38.9146 18.6451
38.9621 18.5909
39.0093 18.6193
39.0567 18.4799
39.104 18.3561
39.1514 18.4054
39.1987 18.3508
39.2461 18.2507
39.2934 18.1834
39.3409 18.129
39.3882 18.0633
39.4356 18.0553
39.483 18.0044
39.5304 17.9393
39.5778 17.8527
39.6253 17.83
39.6726 17.7648
39.7201 17.7634
39.7675 17.6454
39.815 17.6374
39.8624 17.5423
39.9099 17.5337
39.9575 17.3704
40.0049 17.3237
40.0525 17.2684
40.0999 17.2736
40.1474 17.2119
40.1949 17.1034
40.2425 17.0649
40.2899 17.0416
40.3375 16.9478
40.385 16.8992
40.4326 16.8255
40.48 16.8019
40.5277 16.7968
40.5752 16.7132
40.6228 16.6846
40.6703 16.6044
40.718 16.5443
40.7655 16.5025
40.8132 16.5216
40.8607 16.3914
40.9084 16.3623
40.9559 16.3267
41.0036 16.2996
41.0512 16.2304
41.0989 16.2044
41.1465 16.104
41.1942 16.1046
41.242 15.9298
41.2896 15.9128
41.3373 15.8845
41.3849 15.8524
41.4327 15.7422
41.4803 15.6241
41.5281 15.659
41.5758 15.5817
41.6236 15.5574
41.6712 15.4773
41.7191 15.4694
41.7667 15.4124
41.8146 15.3971
41.8622 15.3234
41.9101 15.2568
41.9578 15.172
42.0057 15.1016
42.0534 15.0956
42.1013 15.0624
42.149 15.0202
42.1969 14.9601
42.2446 14.921
42.2925 14.8316
42.3403 14.825
42.3882 14.7985
42.436 14.7467
42.4839 14.6135
42.5319 14.5719
42.5797 14.549
42.6277 14.5083
42.6755 14.4659
42.7235 14.4074
42.7713 14.3902
42.8193 14.3237
42.8671 14.2645
42.9152 14.2265
42.963 14.1461
43.0111 14.1449
43.0589 14.1137
43.107 14.0008
43.1549 13.9721
43.2029 13.9014
43.2508 13.8822
43.2989 13.7857
43.3468 13.7767
43.3949 13.7136
43.4429 13.6864
43.491 13.6699
43.5389 13.575
43.5871 13.4985
43.635 13.4578
43.6832 13.4756
43.7312 13.3569
43.7793 13.3425
43.8273 13.3242
43.8755 13.2707
43.9237 13.2215
43.9717 13.1604
44.0199 13.1279
44.068 13.039
44.1162 13.0333
44.1642 12.9547
44.2125 12.967
44.2606 12.8973
44.3088 12.8871
44.3569 12.8542
44.4052 12.7946
44.4533 12.7066
44.5016 12.6562
44.5497 12.6262
44.598 12.5903
44.6461 12.5518
44.6945 12.4921
44.7426 12.426
44.791 12.3895
44.8391 12.3943
44.8875 12.3599
44.9357 12.3261
44.984 12.2359
45.0322 12.2042
45.0806 12.1693
45.1288 12.0872
45.1773 12.0813
45.2257 11.9779
45.2739 11.9486
45.3224 11.9277
45.3706 11.9463
45.4191 11.8562
45.4673 11.8054
45.5158 11.7686
45.5641 11.6637
45.6126 11.6868
45.6609 11.6372
45.7094 11.6023
45.7577 11.5836
45.8063 11.4715
45.8546 11.5047
45.9031 11.3811
45.9515 11.4268
46.0001 11.3672
46.0484 11.334
46.097 11.2865
46.1454 11.2392
46.194 11.2461
46.2424 11.1357
46.291 11.1078
46.3395 11.0642
46.3881 11.0083
46.4365 11.004
46.4852 10.9724
46.5337 10.8924
46.5823 10.8976
46.631 10.7903
46.6795 10.7896
46.7282 10.7701
46.7767 10.7614
46.8254 10.6444
46.8739 10.6293
46.9226 10.6285
46.9712 10.5483
47.0199 10.5038
47.0685 10.444
47.1173 10.4329
47.1658 10.4158
47.2146 10.381
47.2632 10.281
47.312 10.2889
47.3606 10.2395
47.4095 10.202
47.4581 10.1896
47.5069 10.1208
47.5556 10.086
47.6044 10.083
47.6531 10.0124
47.702 9.9492
47.7507 9.97181
47.7996 9.90972
47.8483 9.93122
47.8972 9.89288
47.9461 9.82961
47.9948 9.75892
48.0438 9.76788
48.0925 9.68546
48.1415 9.72107
48.1902 9.63433
48.2392 9.62166
48.288 9.58978
48.337 9.50637
48.3858 9.50464
48.4348 9.43962
48.4837 9.42483
48.5327 9.38466
48.5815 9.37986
48.6306 9.34092
48.6795 9.29525
48.7285 9.26809
48.7774 9.20585
48.8265 9.18284
48.8754 9.148
48.9245 9.08525
48.9734 9.09696
49.0226 9.06029
49.0715 8.98309
49.1206 8.98181
49.1696 8.9925
49.2188 8.90932
49.2679 8.88236
49.3169 8.83758
49.3661 8.78618
49.4151 8.78129
49.4643 8.74451
49.5134 8.70034
49.5626 8.64251
49.6117 8.65619
49.6609 8.63635
49.71 8.55072
49.7592 8.56472
49.8083 8.50376
49.8576 8.48964
49.9067 8.45118
49.956 8.42546
50.0052 8.38089
50.0545 8.34891
50.1036 8.30918
50.153 8.26678
50.2022 8.26565
50.2515 8.21155
50.3007 8.16618
50.3501 8.13538
50.3993 8.10534
50.4487 8.0839
50.498 8.06573
50.5474 8.01407
50.5966 7.96809
50.6461 7.97873
50.6955 7.9925
50.7448 7.91957
50.7943 7.89026
50.8436 7.83719
50.8931 7.80763
50.9424 7.79262
50.9919 7.77137
51.0413 7.72129
51.0908 7.68808
51.1402 7.6611
51.1897 7.60939
51.2391 7.61702
51.2887 7.56866
51.3381 7.5174
51.3877 7.52363
51.4371 7.46706
51.4867 7.43659
51.5362 7.44798
51.5858 7.40488
51.6353 7.32919
51.6849 7.34092
51.7344 7.28484
51.7841 7.27958
51.8336 7.2339
51.8833 7.21533
51.9328 7.1509
51.9826 7.1143
52.0323 7.1274
52.0818 7.09486
52.1316 7.06609
52.1812 7.04987
52.231 7.01103
52.2806 6.96169
52.3304 6.95029
52.38 6.92231
52.4298 6.90472
52.4794 6.82563
52.5293 6.83575
52.5789 6.79842
52.6288 6.76886
52.6785 6.76598
52.7284 6.70454
52.7781 6.69226
52.828 6.66604
52.8777 6.6511
52.9276 6.61111
52.9774 6.59089
53.0273 6.5872
53.0771 6.50633
53.1271 6.49671
53.1769 6.46754
53.2269 6.45094
53.2767 6.37177
53.3267 6.41346
53.3765 6.32703
53.4266 6.33712
53.4766 6.30367
53.5265 6.2825
53.5765 6.21944
53.6264 6.25874
53.6765 6.19112
53.7264 6.19907
53.7765 6.13523
53.8265 6.10781
53.8766 6.08186
53.9266 6.05479
53.9767 6.07844
54.0267 6.07553
54.0769 5.97173
54.1269 6.00079
54.1771 5.86579
54.2271 5.89976
54.2773 5.86415
54.3274 5.8515
54.3776 5.79571
54.4277 5.79277
54.478 5.74805
54.528 5.73147
54.5783 5.68235
54.6285 5.63348
54.6788 5.58085
54.7289 5.57584
54.7792 5.5036
54.8296 5.45316
54.8798 5.45715
54.9301 5.3969
54.9803 5.34161
55.0307 5.3302
55.0809 5.28317
55.1314 5.2531
55.1816 5.18968
55.232 5.14296
55.2823 5.13217
55.3328 5.0537
55.383 5.00295
55.4335 5.00037
55.4838 4.9501
55.5344 4.89211
55.5847 4.82373
55.6352 4.8317
55.6856 4.73203
55.7361 4.76227