File: XRD/Ni3Fe_FD0950.xy
TT I
1.27165 7.34424
1.31627 6.71297
1.36089 6.49066
1.40551 6.42079
1.45013 6.59315
1.49476 6.45657
1.53938 6.09279
1.584 5.73874
1.62863 5.73413
1.67325 4.84386
1.71787 4.82113
1.7625 4.78375
1.80712 4.84998
1.85174 4.45534
1.89636 4.24537
1.94099 5.0987
1.98562 4.34299
2.03025 4.13588
2.07487 4.40718
2.11949 4.59375
2.16411 4.74401
2.20874 9.37681
2.25338 13.7348
2.298 6.42267
2.34263 5.64816
2.38725 6.01134
2.43188 5.18771
2.4765 6.87828
2.52115 7.85069
2.56577 7.69359
2.6104 8.78044
2.65503 8.30045
2.69965 8.70896
2.7443 8.59221
2.78893 8.72042
2.83356 8.82154
2.87818 8.927
2.92281 8.75484
2.96744 9.97727
3.01209 10.5085
3.05672 11.4724
3.10135 12.419
3.14599 13.5453
3.19062 14.8259
3.23527 15.5625
3.2799 15.9209
3.32454 16.2924
3.36917 17.2289
3.4138 18.831
3.45844 19.0255
3.50309 20.2622
3.54773 21.0383
3.59237 23.3968
3.637 56.1871
3.68164 40.7709
3.7263 25.5479
3.77094 25.9303
3.81558 26.2128
3.86022 26.982
3.90486 29.0514
3.9495 29.4911
3.99416 30.6561
4.0388 31.4749
4.08344 33.2115
4.12809 33.6951
4.17273 35.5713
4.21738 40.0497
4.26204 141.601
4.30669 122.472
4.35133 45.8454
4.39598 44.0989
4.44063 49.3599
4.4853 55.435
4.52995 54.7299
4.5746 55.5275
4.61925 53.1031
4.6639 54.7889
4.70855 57.4204
4.75322 60.5773
4.79788 66.597
4.84253 67.5244
4.88719 73.7236
4.93184 75.9188
4.97652 79.2048
5.02118 86.3577
5.06583 94.1647
5.11049 103.471
5.15515 153.77
5.19981 315.587
5.24449 2678.15
5.28916 13452.1
5.33382 2784.97
5.37848 187.03
5.42315 128.105
5.46783 116.577
5.5125 109.72
5.55716 101.025
5.60183 96.6805
5.6465 94.8217
5.69117 92.9718
5.73586 91.3979
5.78053 95.3483
5.8252 94.6902
5.86988 97.4536
5.91455 92.8534
5.95924 99.4088
6.00392 198.229
6.0486 885.145
6.09328 4496.47
6.13795 3078.27
6.18263 213.007
6.22733 88.654
6.27201 79.3167
6.3167 85.7558
6.36138 74.4557
6.40606 68.591
6.45075 68.5742
6.49545 64.8029
6.54014 62.4386
6.58483 61.8757
6.62952 62.3472
6.67421 76.5865
6.71892 97.5048
6.76361 62.4577
6.8083 58.1813
6.853 58.5825
6.89769 55.8958
6.94239 55.9494
6.98711 54.9909
7.03181 55.1531
7.07651 54.2364
7.12121 54.9806
7.16591 55.8852
7.21063 55.1116
7.25533 62.4283
7.30004 113.159
7.34475 71.0051
7.38945 54.369
7.43416 53.5544
7.47889 53.1138
7.5236 53.6517
7.56831 54.2974
7.61303 55.3602
7.65774 55.7386
7.70247 56.1512
7.74719 55.5028
7.79191 55.8646
7.83663 55.7999
7.88135 57.0572
7.92607 57.5823
7.97081 58.7714
8.01553 60.1213
8.06026 62.0247
8.10498 63.371
8.14971 70.1886
8.19446 69.6907
8.23919 68.6114
8.28392 70.7253
8.32865 73.032
8.37339 77.4697
8.41812 82.689
8.46288 99.9985
8.50761 153.966
8.55235 359.102
8.59709 1170.74
8.64183 2176.17
8.68658 914.381
8.73134 154.254
8.77609 96.6751
8.82083 91.1177
8.86558 90.6855
8.91033 90.8247
8.9551 88.5995
8.99985 83.9074
9.04461 82.9
9.08936 82.9091
9.13412 81.8431
9.17888 80.9292
9.22365 81.2521
9.26841 81.0194
9.31318 83.1743
9.35794 85.0367
9.4027 84.2293
9.44749 83.6313
9.49226 83.617
9.53703 84.3004
9.5818 87.7348
9.62657 92.436
9.67134 94.5455
9.71614 91.7075
9.76091 93.2235
9.80569 97.3474
9.85047 99.6262
9.89525 112.247
9.94005 121.96
9.98484 169.728
10.0296 325.286
10.0744 811.153
10.1192 1759.78
10.164 1510.08
10.2088 374.572
10.2536 122.662
10.2984 108.603
10.3432 107.575
10.388 101.998
10.4328 115.078
10.4776 156.036
10.5224 284.73
10.5672 530.605
10.612 486.104
10.6568 186.169
10.7017 93.7327
10.7465 84.8933
10.7913 81.9185
10.8361 79.6321
10.8809 77.5612
10.9257 76.6464
10.9706 76.817
11.0154 74.3483
11.0602 71.9586
11.105 70.4588
11.1499 71.8709
11.1947 74.907
11.2395 69.9833
11.2844 68.366
11.3292 65.8207
11.374 65.1692
11.4189 64.923
11.4637 63.9379
11.5086 63.6779
11.5534 64.984
11.5983 63.44
11.6431 62.2561
11.688 61.6817
11.7328 61.8941
11.7777 61.6403
11.8225 61.5913
11.8674 61.2737
11.9122 61.4754
11.9571 62.071
12.002 62.8238
12.0468 66.339
12.0917 76.7674
12.1366 101.857
12.1814 156.751
12.2263 206.227
12.2712 156.432
12.3161 90.5944
12.3609 66.7984
12.4058 63.1368
12.4507 63.273
12.4956 63.784
12.5405 63.8032
12.5853 64.3138
12.6302 68.242
12.6751 70.6324
12.72 66.973
12.7649 66.5397
12.8098 67.4696
12.8547 68.6304
12.8996 70.1902
12.9445 71.3962
12.9894 73.2291
13.0343 74.7782
13.0792 77.8687
13.1242 87.2622
13.1691 107.293
13.214 144.387
13.2589 242.715
13.3038 382.622
13.3487 418.922
13.3937 244.229
13.4386 119.172
13.4835 102.671
13.5285 116.51
13.5734 156.32
13.6183 256.008
13.6633 360.724
13.7082 324.906
13.7531 179.023
13.7981 94.7004
13.843 80.506
13.888 78.3772
13.9329 76.2459
13.9779 74.4368
14.0228 73.4522
14.0678 71.7922
14.1127 71.505
14.1577 70.9286
14.2027 69.9669
14.2476 69.0825
14.2926 69.1499
14.3376 69.4196
14.3825 68.419
14.4275 67.8378
14.4725 67.5318
14.5175 67.9089
14.5624 67.8485
14.6074 68.8996
14.6524 69.4788
14.6974 69.1566
14.7424 71.1474
14.7874 76.9961
14.8324 86.9108
14.8774 110.218
14.9224 157.275
14.9674 212.932
15.0124 214.372
15.0574 143.863
15.1024 87.975
15.1474 71.0923
15.1924 69.1031
15.2374 68.7485
15.2824 67.9635
15.3274 66.4275
15.3725 65.9218
15.4175 65.2962
15.4625 64.7565
15.5076 64.9548
15.5526 64.7979
15.5976 64.6191
15.6426 65.7547
15.6877 70.5532
15.7327 78.0503
15.7778 93.8886
15.8228 127.873
15.8679 174.571
15.9129 193.028
15.958 149.68
16.003 92.9463
16.0481 66.1504
16.0931 62.3166
16.1382 60.5127
16.1833 59.0579
16.2283 57.7169
16.2734 57.0794
16.3185 57.091
16.3636 57.1088
16.4086 55.8853
16.4537 55.1302
16.4988 54.4461
16.5439 54.2771
16.589 54.2662
16.6341 53.9611
16.6792 53.6094
16.7243 53.6939
16.7694 53.9755
16.8145 53.8268
16.8596 54.0903
16.9047 54.8236
16.9498 55.0218
16.9949 54.3934
17.04 54.8366
17.0851 56.0886
17.1302 57.5014
17.1754 60.3286
17.2205 65.8315
17.2656 74.4471
17.3108 82.3217
17.3559 79.9459
17.401 68.7858
17.4462 61.0305
17.4913 58.2375
17.5365 58.0562
17.5815 58.1565
17.6268 58.4951
17.6718 59.2635
17.7171 59.6228
17.7622 60.1693
17.8074 60.7713
17.8525 63.4233
17.8977 66.8038
17.9428 71.9878
17.9881 81.4771
18.0331 100.194
18.0784 123.135
18.1237 136.755
18.1688 125.868
18.214 100.632
18.2591 85.2745
18.3044 90.479
18.3495 100.256
18.3948 103.865
18.4399 92.3401
18.4852 74.7085
18.5303 64.5175
18.5756 60.8492
18.6207 60.1972
18.666 59.5001
18.7112 58.6327
18.7565 57.8318
18.8016 57.6636
18.8469 56.9978
18.892 56.7427
18.9374 56.0682
18.9825 56.0523
19.0278 55.8577
19.073 55.8038
19.1183 56.2789
19.1635 56.739
19.2088 58.1624
19.254 61.0865
19.2993 65.8799
19.3447 71.466
19.3898 74.2147
19.4352 69.4455
19.4804 61.0787
19.5257 55.5744
19.5709 53.2459
19.6163 52.9196
19.6615 52.8073
19.7068 52.4626
19.752 52.2868
19.7974 52.8065
19.8426 53.1504
19.888 53.8843
19.9332 55.1713
19.9786 58.0202
20.0238 62.1582
20.0692 66.5553
20.1144 68.7126
20.1598 66.9196
20.205 62.4714
20.2504 61.7516
20.2957 63.7601
20.3411 64.6967
20.3863 62.5857
20.4318 56.9589
20.477 52.4064
20.5224 50.3221
20.5677 49.8963
20.6131 49.4258
20.6586 48.9223
20.7038 48.7021
20.7493 48.2249
20.7945 48.1321
20.84 47.9755
20.8853 47.9752
20.9307 47.7734
20.976 47.989
21.0215 47.7645
21.0668 48.097
21.1122 48.7591
21.1575 49.2557
21.203 50.1677
21.2483 50.6289
21.2938 50.6077
21.3391 49.1043
21.3846 48.0781
21.4299 47.7646
21.4754 47.5142
21.5207 47.7476
21.5662 47.9568
21.6116 48.4755
21.6571 49.0284
21.7024 49.8516
21.7479 51.8034
21.7933 54.7012
21.8388 58.5682
21.8843 62.3107
21.9297 63.3878
21.9752 61.6618
22.0206 58.1405
22.0661 55.6837
22.1115 55.3734
22.157 54.822
22.2024 53.0385
22.248 50.4099
22.2933 49.0117
22.3389 48.1424
22.3843 48.0869
22.4299 47.7946
22.4753 47.8568
22.5208 47.7748
22.5662 47.6302
22.6118 47.8405
22.6572 48.0312
22.7028 48.4416
22.7483 48.8166
22.7939 49.568
22.8393 51.1494
22.8849 53.4108
22.9303 55.5977
22.9759 56.9182
23.0214 55.9618
23.067 53.2322
23.1126 50.1323
23.1581 48.4183
23.2037 47.8844
23.2492 47.9566
23.2948 47.8614
23.3403 48.3163
23.3859 49.0594
23.4314 50.0955
23.477 51.9544
23.5225 54.4857
23.5682 56.5823
23.6137 56.9344
23.6593 54.4932
23.7048 50.4581
23.7505 47.3728
23.796 45.7914
23.8417 45.191
23.8872 44.7217
23.9329 44.4382
23.9784 43.9639
24.0241 43.9192
24.0697 43.6349
24.1154 43.3316
24.1609 43.1168
24.2066 43.1692
24.2522 42.9885
24.2979 42.6436
24.3434 42.7312
24.3892 42.4247
24.4349 42.4279
24.4805 42.2251
24.5262 42.3666
24.5718 42.1729
24.6175 42.2169
24.6631 42.003
24.7089 41.7374
24.7545 41.7194
24.8002 41.5964
24.8458 41.6259
24.8916 41.374
24.9372 41.5774
24.983 41.9004
25.0286 42.308
25.0744 42.6871
25.12 43.2111
25.1658 43.7624
25.2114 43.9666
25.2572 44.1794
25.3029 44.1493
25.3487 44.2421
25.3943 43.6659
25.4402 42.6518
25.4858 41.641
25.5316 40.6778
25.5773 40.0927
25.6231 40.2934
25.669 39.8876
25.7147 39.8507
25.7605 39.7058
25.8062 39.6673
25.8521 39.8892
25.8977 39.8879
25.9436 40.0744
25.9893 40.4759
26.0352 40.8779
26.0809 40.8842
26.1268 40.997
26.1725 40.6227
26.2184 40.0866
26.2641 39.6942
26.31 39.3682
26.3557 39.4249
26.4017 39.276
26.4474 39.8002
26.4933 40.0774
26.5391 40.5425
26.585 41.0526
26.6308 41.3605
26.6767 41.5499
26.7225 41.1968
26.7684 40.7305
26.8142 40.1515
26.8601 39.8538
26.9059 39.2868
26.9519 38.8141
26.9979 38.448
27.0437 38.3389
27.0896 38.0679
27.1354 38.1348
27.1814 37.8688
27.2272 37.8056
27.2732 37.8997
27.3191 37.5973
27.3651 37.8618
27.4109 37.8347
27.4569 37.917
27.5027 37.8513
27.5488 37.982
27.5946 37.881
27.6407 37.5156
27.6865 37.4422
27.7326 37.312
27.7784 37.194
27.8245 37.1452
27.8703 37.3909
27.9164 37.625
27.9623 37.84
28.0084 38.1481
28.0543 38.5156
28.1003 38.2314
28.1462 38.2206
28.1923 37.8412
28.2384 37.2883
28.2843 37.0047
28.3304 36.6198
28.3764 36.0064
28.4225 35.7593
28.4684 35.5872
28.5145 35.3161
28.5605 35.2698
28.6066 35.0003
28.6526 34.948
28.6987 34.9414
28.7447 34.7967
28.7908 34.8108
28.8368 34.8732
28.8829 34.8876
28.9289 34.6611
28.9751 34.6397
29.0211 34.3192
29.0673 34.1202
29.1133 33.9362
29.1595 33.9075
29.2055 33.7668
29.2517 33.7362
29.2977 33.819
29.3439 33.5971
29.3899 33.7393
29.4361 33.4678
29.4824 33.4828
29.5284 33.1842
29.5746 32.8778
29.6207 32.571
29.6669 32.5497
29.713 32.4267
29.7593 32.3068
29.8053 32.4283
29.8516 32.2473
29.8977 32.2514
29.9439 32.0674
29.99 32.0563
30.0363 31.8816
30.0824 31.9464
30.1287 31.8982
30.1748 31.9209
30.2211 31.9014
30.2673 31.641
30.3136 31.7569
30.3597 31.6404
30.406 31.599
30.4522 31.5707
30.4985 31.4008
30.5447 31.5839
30.591 31.4911
30.6372 31.7401
30.6835 31.668
30.7297 31.6746
30.7761 31.7554
30.8224 31.4129
30.8686 31.3614
30.915 31.0225
30.9612 30.9866
31.0076 30.7543
31.0538 30.7822
31.1002 30.582
31.1464 30.391
31.1928 30.443
31.2391 30.4055
31.2855 30.3571
31.3317 30.3004
31.3781 30.5329
31.4244 30.3873
31.4708 30.2481
31.5171 30.3452
31.5636 30.2713
31.6098 30.0103
31.6563 29.8295
31.7026 29.7242
31.7491 29.6492
31.7953 29.7286
31.8418 29.7013
31.8881 29.7156
31.9346 29.646
31.9809 29.5419
32.0275 29.475
32.074 29.3339
32.1203 29.1266
32.1668 28.9897
32.2132 28.8542
32.2597 28.6903
32.306 28.7085
32.3526 28.5503
32.399 28.4727
32.4455 28.3306
32.4919 28.2385
32.5385 28.1426
32.5848 27.9834
32.6314 27.9499
32.6778 27.9611
32.7244 27.8071
32.7708 27.7448
32.8174 27.7044
32.8638 27.53
32.9104 27.6396
32.9569 27.5964
33.0035 27.4297
33.0499 27.4277
33.0966 27.3571
33.143 27.4039
33.1897 27.2508
33.2361 27.1245
33.2828 27.1774
33.3293 27.0098
33.3759 26.9034
33.4226 26.7576
33.4691 26.6508
33.5158 26.5602
33.5623 26.511
33.609 26.3342
33.6555 26.2311
33.7022 26.124
33.7487 26.1079
33.7954 26.037
33.842 25.8867
33.8887 25.9101
33.9353 25.8529
33.982 25.8267
34.0286 25.5884
34.0753 25.5608
34.1219 25.4438
34.1687 25.4146
34.2152 25.3473
34.262 25.2936
34.3086 25.1836
34.3554 25.154
34.402 24.98
34.4488 24.9063
34.4954 24.8565
34.5422 24.683
34.5889 24.6295
34.6357 24.5021
34.6825 24.4866
34.7292 24.3449
34.776 24.3441
34.8227 24.2599
34.8695 24.2991
34.9162 24.1578
34.9631 24.0893
35.0098 24.1094
35.0566 23.8981
35.1033 23.9411
35.1502 23.8178
35.1969 23.7669
35.2438 23.7149
35.2906 23.7157
35.3375 23.6791
35.3842 23.6001
35.4311 23.6728
35.4779 23.5137
35.5248 23.4755
35.5716 23.3975
35.6185 23.3456
35.6653 23.2244
35.7123 23.152
35.759 23.0897
35.806 22.8793
35.8528 22.8215
35.8998 22.8525
35.9468 22.7659
35.9936 22.7243
36.0406 22.704
36.0874 22.6819
36.1345 22.4917
36.1813 22.4534
36.2283 22.2729
36.2752 22.2734
36.3222 22.2882
36.3691 22.1917
36.4161 22.0595
36.463 22.0832
36.5101 22.0566
36.557 22.028
36.6041 21.8362
36.651 21.8507
36.6981 21.7016
36.745 21.6889
36.7921 21.6358
36.839 21.4967
36.8861 21.5035
36.9331 21.361
36.9802 21.2938
37.0272 21.2418
37.0743 21.1383
37.1213 21.0987
37.1684 21.0494
37.2154 20.9789
37.2626 20.91
37.3098 20.8449
37.3568 20.7333
37.404 20.709
37.451 20.6357
37.4982 20.635
37.5452 20.5162
37.5924 20.4804
37.6395 20.5198
37.6867 20.3282
37.7337 20.2862
37.781 20.1696
37.8281 20.1775
37.8753 20.046
37.9224 20.0859
37.9697 19.9748
38.0168 19.8327
38.064 19.8015
38.1111 19.7844
38.1584 19.6594
38.2056 19.5889
38.2529 19.5479
38.3 19.5142
38.3473 19.4409
38.3945 19.3225
38.4418 19.2921
38.489 19.2619
38.5363 19.1501
38.5837 19.0707
38.6309 19.0581
38.6782 18.9792
38.7254 18.9392
38.7728 18.9251
38.82 18.8904
38.8674 18.854
38.9146 18.7385
38.9621 18.6131
39.0093 18.5701
39.0567 18.5472
39.104 18.4742
39.1514 18.4054
39.1987 18.4176
39.2461 18.335
39.2934 18.2392
39.3409 18.1955
39.3882 18.0888
39.4356 18.0821
39.483 17.9804
39.5304 17.9342
39.5778 17.9189
39.6253 17.8224
39.6726 17.8086
39.7201 17.7914
39.7675 17.697
39.815 17.6798
39.8624 17.5804
39.9099 17.5311
39.9575 17.412
40.0049 17.3876
40.0525 17.3441
40.0999 17.3142
40.1474 17.2897
40.1949 17.1668
40.2425 17.0645
40.2899 17.0404
40.3375 17.0435
40.385 16.9568
40.4326 16.915
40.48 16.8639
40.5277 16.8175
40.5752 16.7304
40.6228 16.6532
40.6703 16.682
40.718 16.5924
40.7655 16.5537
40.8132 16.482
40.8607 16.4936
40.9084 16.4205
40.9559 16.3426
41.0036 16.2672
41.0512 16.2453
41.0989 16.2333
41.1465 16.1464
41.1942 16.0803
41.242 15.9569
41.2896 15.9734
41.3373 15.8993
41.3849 15.7989
41.4327 15.8126
41.4803 15.7044
41.5281 15.7022
41.5758 15.6251
41.6236 15.5975
41.6712 15.5586
41.7191 15.4585
41.7667 15.4899
41.8146 15.4117
41.8622 15.2991
41.9101 15.3153
41.9578 15.1729
42.0057 15.1789
42.0534 15.1091
42.1013 15.0591
42.149 15.0088
42.1969 14.9935
42.2446 14.9216
42.2925 14.8721
42.3403 14.8518
42.3882 14.8362
42.436 14.7972
42.4839 14.6935
42.5319 14.6837
42.5797 14.578
42.6277 14.5371
42.6755 14.4666
42.7235 14.4099
42.7713 14.389
42.8193 14.3159
42.8671 14.2017
42.9152 14.2256
42.963 14.1755
43.0111 14.1293
43.0589 14.0826
43.107 14.0763
43.1549 13.9497
43.2029 13.9651
43.2508 13.9388
43.2989 13.8556
43.3468 13.7861
43.3949 13.7381
43.4429 13.6947
43.491 13.6774
43.5389 13.5909
43.5871 13.5448
43.635 13.4844
43.6832 13.4498
43.7312 13.3778
43.7793 13.3722
43.8273 13.34
43.8755 13.2397
43.9237 13.2685
43.9717 13.2242
44.0199 13.109
44.068 13.1639
44.1162 13.0294
44.1642 13.0413
44.2125 12.9503
44.2606 12.9152
44.3088 12.8434
44.3569 12.8338
44.4052 12.8264
44.4533 12.7202
44.5016 12.6837
44.5497 12.638
44.598 12.587
44.6461 12.5315
44.6945 12.5002
44.7426 12.5097
44.791 12.3684
44.8391 12.4087
44.8875 12.4002
44.9357 12.3087
44.984 12.308
45.0322 12.1851
45.0806 12.1996
45.1288 12.0982
45.1773 12.0862
45.2257 12.0497
45.2739 11.9967
45.3224 11.9107
45.3706 11.9249
45.4191 11.8537
45.4673 11.87
45.5158 11.7736
45.5641 11.7311
45.6126 11.6613
45.6609 11.646
45.7094 11.6151
45.7577 11.615
45.8063 11.5492
45.8546 11.5083
45.9031 11.4766
45.9515 11.4472
46.0001 11.3984
46.0484 11.3259
46.097 11.2935
46.1454 11.2726
46.194 11.2239
46.2424 11.1359
46.291 11.1173
46.3395 11.1004
46.3881 11.0765
46.4365 10.9963
46.4852 10.9954
46.5337 10.9401
46.5823 10.9274
46.631 10.8252
46.6795 10.8049
46.7282 10.7731
46.7767 10.7713
46.8254 10.7051
46.8739 10.6566
46.9226 10.5786
46.9712 10.5943
47.0199 10.5269
47.0685 10.4864
47.1173 10.4458
47.1658 10.4085
47.2146 10.3716
47.2632 10.3501
47.312 10.3112
47.3606 10.2634
47.4095 10.2597
47.4581 10.2026
47.5069 10.1561
47.5556 10.1205
47.6044 10.0357
47.6531 10.0165
47.702 10.0014
47.7507 9.97703
47.7996 9.95629
47.8483 9.88971
47.8972 9.87548
47.9461 9.81617
47.9948 9.76756
48.0438 9.70765
48.0925 9.7345
48.1415 9.67555
48.1902 9.63386
48.2392 9.64539
48.288 9.6089
48.337 9.52647
48.3858 9.50794
48.4348 9.48993
48.4837 9.46348
48.5327 9.44457
48.5815 9.33519
48.6306 9.34192
48.6795 9.32587
48.7285 9.26274
48.7774 9.27008
48.8265 9.22333
48.8754 9.16291
48.9245 9.14748
48.9734 9.10379
49.0226 9.09984
49.0715 9.01164
49.1206 8.94527
49.1696 8.95274
49.2188 8.95846
49.2679 8.8786
49.3169 8.86863
49.3661 8.83538
49.4151 8.78155
49.4643 8.76516
49.5134 8.70767
49.5626 8.67606
49.6117 8.6794
49.6609 8.65971
49.71 8.55876
49.7592 8.54844
49.8083 8.5164
49.8576 8.48517
49.9067 8.44926
49.956 8.44856
50.0052 8.37552
50.0545 8.35373
50.1036 8.32911
50.153 8.30282
50.2022 8.24405
50.2515 8.2354
50.3007 8.16002
50.3501 8.16407
50.3993 8.13521
50.4487 8.13299
50.498 8.06514
50.5474 8.03962
50.5966 8.00896
50.6461 7.97843
50.6955 7.95399
50.7448 7.92715
50.7943 7.86554
50.8436 7.82849
50.8931 7.8601
50.9424 7.80647
50.9919 7.72651
51.0413 7.77354
51.0908 7.70028
51.1402 7.66475
51.1897 7.64792
51.2391 7.60853
51.2887 7.60228
51.3381 7.5407
51.3877 7.50364
51.4371 7.46607
51.4867 7.43052
51.5362 7.43416
51.5858 7.38984
51.6353 7.36209
51.6849 7.32488
51.7344 7.28236
51.7841 7.29857
51.8336 7.23725
51.8833 7.23523
51.9328 7.13737
51.9826 7.13972
52.0323 7.16394
52.0818 7.06464
52.1316 7.05783
52.1812 7.06403
52.231 7.03785
52.2806 6.98982
52.3304 7.01105
52.38 6.92748
52.4298 6.90512
52.4794 6.84152
52.5293 6.82376
52.5789 6.77355
52.6288 6.78183
52.6785 6.70663
52.7284 6.73921
52.7781 6.65195
52.828 6.69988
52.8777 6.61509
52.9276 6.60852
52.9774 6.591
53.0273 6.57808
53.0771 6.54326
53.1271 6.51637
53.1769 6.44707
53.2269 6.43857
53.2767 6.42373
53.3267 6.38573
53.3765 6.38125
53.4266 6.36249
53.4766 6.32605
53.5265 6.26607
53.5765 6.26626
53.6264 6.23559
53.6765 6.22096
53.7264 6.20457
53.7765 6.16488
53.8265 6.1345
53.8766 6.06687
53.9266 6.08829
53.9767 6.04242
54.0267 6.05287
54.0769 5.98213
54.1269 5.9754
54.1771 5.95462
54.2271 5.92902
54.2773 5.84247
54.3274 5.85699
54.3776 5.83021
54.4277 5.74408
54.478 5.75424
54.528 5.69394
54.5783 5.68255
54.6285 5.63671
54.6788 5.61375
54.7289 5.57653
54.7792 5.50182
54.8296 5.41706
54.8798 5.4294
54.9301 5.39428
54.9803 5.37518
55.0307 5.32435
55.0809 5.27813
55.1314 5.25187
55.1816 5.15979
55.232 5.16334
55.2823 5.12191
55.3328 5.05477
55.383 4.9971
55.4335 4.99394
55.4838 4.8894
55.5344 4.87775
55.5847 4.83236
55.6352 4.86617
55.6856 4.81918
55.7361 4.79345