File: XRD/Ni3Fe_FD0493.xy
TT I
1.27165 7.39594
1.31627 6.51871
1.36089 6.96189
1.40551 6.98486
1.45013 5.81073
1.49476 6.18909
1.53938 5.57363
1.584 5.53044
1.62863 5.39798
1.67325 5.0817
1.71787 4.94211
1.7625 4.49915
1.80712 5.03076
1.85174 4.39486
1.89636 4.32366
1.94099 4.78831
1.98562 4.69283
2.03025 4.3266
2.07487 4.7102
2.11949 4.98252
2.16411 4.89618
2.20874 12.5746
2.25338 18.7131
2.298 5.02851
2.34263 5.5992
2.38725 5.85289
2.43188 5.60269
2.4765 6.82347
2.52115 6.21266
2.56577 7.78844
2.6104 7.66881
2.65503 7.01414
2.69965 7.21917
2.7443 8.13181
2.78893 8.00956
2.83356 8.51623
2.87818 8.18171
2.92281 8.52134
2.96744 9.15087
3.01209 10.2042
3.05672 10.8608
3.10135 11.9095
3.14599 13.2321
3.19062 14.0066
3.23527 14.9128
3.2799 15.9882
3.32454 16.524
3.36917 17.8011
3.4138 18.8238
3.45844 19.696
3.50309 21.1541
3.54773 21.968
3.59237 23.859
3.637 79.8453
3.68164 51.6793
3.7263 26.3265
3.77094 26.422
3.81558 26.9222
3.86022 27.8311
3.90486 28.9895
3.9495 30.1242
3.99416 30.8942
4.0388 32.4368
4.08344 33.7527
4.12809 35.3453
4.17273 37.4115
4.21738 42.978
4.26204 206.569
4.30669 178.244
4.35133 48.2382
4.39598 44.6438
4.44063 52.4957
4.4853 62.5402
4.52995 51.0453
4.5746 51.7091
4.61925 53.7477
4.6639 56.1626
4.70855 59.1146
4.75322 61.9422
4.79788 64.7231
4.84253 68.1699
4.88719 72.9363
4.93184 76.3548
4.97652 82.4481
5.02118 89.1837
5.06583 96.879
5.11049 109.529
5.15515 172.629
5.19981 423.216
5.24449 3183.89
5.28916 11932.0
5.33382 3214.82
5.37848 206.23
5.42315 134.15
5.46783 117.816
5.5125 109.167
5.55716 104.565
5.60183 100.465
5.6465 98.5809
5.69117 96.2152
5.73586 94.1662
5.78053 93.7661
5.8252 93.7045
5.86988 94.6216
5.91455 97.3858
5.95924 106.847
6.00392 236.698
6.0486 1081.09
6.09328 4208.93
6.13795 3532.95
6.18263 281.589
6.22733 97.1983
6.27201 84.4611
6.3167 98.6838
6.36138 80.0615
6.40606 70.4213
6.45075 68.4373
6.49545 66.3836
6.54014 64.6875
6.58483 63.9241
6.62952 63.5962
6.67421 88.7613
6.71892 127.882
6.76361 67.7564
6.8083 59.3453
6.853 58.1202
6.89769 57.4579
6.94239 57.1583
6.98711 56.4999
7.03181 56.0283
7.07651 56.3685
7.12121 55.8139
7.16591 55.9157
7.21063 55.7775
7.25533 68.3918
7.30004 152.907
7.34475 84.5872
7.38945 56.8067
7.43416 55.442
7.47889 55.1687
7.5236 55.327
7.56831 55.8441
7.61303 57.14
7.65774 57.6405
7.70247 56.8564
7.74719 56.8209
7.79191 57.2951
7.83663 57.5597
7.88135 58.5702
7.92607 59.6203
7.97081 60.6336
8.01553 61.439
8.06026 63.1424
8.10498 64.8238
8.14971 72.8442
8.19446 72.3753
8.23919 70.3088
8.28392 73.0092
8.32865 75.5665
8.37339 79.3717
8.41812 86.4397
8.46288 112.4
8.50761 180.287
8.55235 427.086
8.59709 1208.97
8.64183 2141.54
8.68658 1066.95
8.73134 181.896
8.77609 102.314
8.82083 94.7391
8.86558 91.1946
8.91033 91.3138
8.9551 91.856
8.99985 86.591
9.04461 84.6659
9.08936 84.0708
9.13412 83.0564
9.17888 83.3544
9.22365 83.9455
9.26841 82.7392
9.31318 83.7794
9.35794 83.8644
9.4027 84.4949
9.44749 85.2108
9.49226 85.9118
9.53703 86.8298
9.5818 88.9009
9.62657 92.8773
9.67134 98.3979
9.71614 94.8972
9.76091 95.6316
9.80569 97.9915
9.85047 101.516
9.89525 121.593
9.94005 134.791
9.98484 192.961
10.0296 376.13
10.0744 848.992
10.1192 1649.99
10.164 1652.29
10.2088 461.443
10.2536 135.891
10.2984 115.187
10.3432 115.087
10.388 106.229
10.4328 123.077
10.4776 168.718
10.5224 292.219
10.5672 504.952
10.612 513.372
10.6568 222.993
10.7017 99.6292
10.7465 88.0893
10.7913 84.7364
10.8361 82.0991
10.8809 79.9316
10.9257 79.5549
10.9706 79.6007
11.0154 75.9938
11.0602 73.4096
11.105 73.2406
11.1499 75.7585
11.1947 81.6942
11.2395 74.1575
11.2844 70.8559
11.3292 68.0686
11.374 67.3461
11.4189 66.7358
11.4637 65.9222
11.5086 65.904
11.5534 68.5656
11.5983 65.9962
11.6431 64.2495
11.688 63.5709
11.7328 63.6726
11.7777 63.7576
11.8225 63.2381
11.8674 63.2192
11.9122 63.7227
11.9571 64.0228
12.002 64.7854
12.0468 69.7398
12.0917 81.9793
12.1366 106.785
12.1814 155.657
12.2263 200.032
12.2712 169.571
12.3161 99.9227
12.3609 71.0394
12.4058 65.6808
12.4507 65.0021
12.4956 65.2153
12.5405 65.7388
12.5853 66.4242
12.6302 72.8063
12.6751 77.2695
12.72 70.2724
12.7649 69.0633
12.8098 69.432
12.8547 70.494
12.8996 72.1555
12.9445 73.3126
12.9894 75.0023
13.0343 77.0549
13.0792 80.1257
13.1242 91.2228
13.1691 116.694
13.214 155.746
13.2589 244.935
13.3038 361.489
13.3487 418.755
13.3937 278.322
13.4386 131.492
13.4835 109.853
13.5285 125.968
13.5734 165.551
13.6183 250.125
13.6633 332.064
13.7082 341.077
13.7531 203.709
13.7981 103.364
13.843 83.2539
13.888 80.8006
13.9329 78.3848
13.9779 76.8934
14.0228 75.3513
14.0678 74.0749
14.1127 73.7436
14.1577 73.4002
14.2027 72.5727
14.2476 71.5774
14.2926 71.686
14.3376 72.2526
14.3825 70.7587
14.4275 69.7867
14.4725 69.5756
14.5175 69.8171
14.5624 69.9208
14.6074 71.6636
14.6524 72.3609
14.6974 71.6855
14.7424 73.438
14.7874 81.4211
14.8324 92.2539
14.8774 114.333
14.9224 155.308
14.9674 199.1
15.0124 212.838
15.0574 156.737
15.1024 96.4641
15.1474 73.8924
15.1924 71.5388
15.2374 71.9653
15.2824 70.848
15.3274 68.8652
15.3725 67.8448
15.4175 67.5979
15.4625 67.152
15.5076 67.3764
15.5526 67.2648
15.5976 66.8238
15.6426 68.3166
15.6877 74.206
15.7327 82.584
15.7778 98.5113
15.8228 129.727
15.8679 166.945
15.9129 187.691
15.958 158.984
16.003 102.216
16.0481 70.1697
16.0931 65.5231
16.1382 63.1919
16.1833 61.4257
16.2283 59.8918
16.2734 59.3166
16.3185 59.3022
16.3636 59.8287
16.4086 58.2254
16.4537 56.8742
16.4988 56.088
16.5439 56.3754
16.589 55.9988
16.6341 55.6827
16.6792 55.1513
16.7243 55.7823
16.7694 55.8236
16.8145 55.6624
16.8596 56.075
16.9047 57.2018
16.9498 57.4487
16.9949 56.5524
17.04 56.4837
17.0851 58.1574
17.1302 59.9355
17.1754 62.9386
17.2205 68.1248
17.2656 74.8246
17.3108 81.336
17.3559 82.0268
17.401 72.799
17.4462 63.8169
17.4913 60.3169
17.5365 60.0717
17.5815 60.4347
17.6268 60.4484
17.6718 61.1436
17.7171 61.7223
17.7622 62.1994
17.8074 63.0725
17.8525 65.7092
17.8977 70.1359
17.9428 75.7996
17.9881 84.843
18.0331 101.675
18.0784 120.223
18.1237 136.235
18.1688 133.103
18.214 108.337
18.2591 90.2406
18.3044 91.8232
18.3495 99.6508
18.3948 104.997
18.4399 98.2378
18.4852 80.7524
18.5303 67.8388
18.5756 63.2089
18.6207 62.3573
18.666 61.3278
18.7112 60.6683
18.7565 59.9613
18.8016 59.5373
18.8469 58.8125
18.892 58.55
18.9374 58.158
18.9825 58.1356
19.0278 57.7279
19.073 57.896
19.1183 58.4238
19.1635 59.3375
19.2088 60.6327
19.254 63.19
19.2993 67.5797
19.3447 72.5621
19.3898 75.5714
19.4352 72.9017
19.4804 65.0413
19.5257 58.0714
19.5709 55.2173
19.6163 54.6696
19.6615 54.4873
19.7068 53.9987
19.752 53.9243
19.7974 54.433
19.8426 55.4757
19.888 56.0464
19.9332 57.2548
19.9786 60.0401
20.0238 63.2322
20.0692 67.3675
20.1144 69.9467
20.1598 69.3634
20.205 65.3378
20.2504 63.2755
20.2957 64.4055
20.3411 65.6311
20.3863 64.8756
20.4318 59.8689
20.477 54.9237
20.5224 52.426
20.5677 51.7525
20.6131 51.1068
20.6586 50.3097
20.7038 50.3489
20.7493 49.874
20.7945 49.7569
20.84 49.5869
20.8853 49.429
20.9307 49.4277
20.976 49.4947
21.0215 49.3058
21.0668 49.9666
21.1122 50.3171
21.1575 50.9291
21.203 51.4418
21.2483 51.9212
21.2938 52.3379
21.3391 50.9081
21.3846 49.722
21.4299 49.2168
21.4754 49.0109
21.5207 49.1734
21.5662 49.529
21.6116 49.972
21.6571 50.7311
21.7024 51.7589
21.7479 53.4849
21.7933 56.4608
21.8388 59.7613
21.8843 62.7217
21.9297 64.7912
21.9752 64.2063
22.0206 61.2647
22.0661 57.8065
22.1115 56.6398
22.157 56.4369
22.2024 55.2973
22.248 52.4519
22.2933 50.818
22.3389 49.9204
22.3843 49.8016
22.4299 49.4265
22.4753 49.5973
22.5208 49.2803
22.5662 49.171
22.6118 49.5728
22.6572 49.6615
22.7028 50.1069
22.7483 50.6035
22.7939 51.251
22.8393 52.8507
22.8849 54.7566
22.9303 56.6272
22.9759 57.8384
23.0214 57.7679
23.067 55.5527
23.1126 52.1045
23.1581 50.1664
23.2037 49.5861
23.2492 49.663
23.2948 49.6668
23.3403 49.9128
23.3859 50.5632
23.4314 51.6009
23.477 53.4337
23.5225 55.3138
23.5682 56.9988
23.6137 57.9461
23.6593 56.4389
23.7048 52.8513
23.7505 49.448
23.796 47.5342
23.8417 46.7482
23.8872 46.3425
23.9329 45.8501
23.9784 45.5049
24.0241 45.2724
24.0697 45.0923
24.1154 44.801
24.1609 44.6691
24.2066 44.4131
24.2522 44.3421
24.2979 44.1455
24.3434 43.9388
24.3892 43.8649
24.4349 43.7337
24.4805 43.6013
24.5262 43.5958
24.5718 43.4836
24.6175 43.5674
24.6631 43.4604
24.7089 43.3288
24.7545 43.0485
24.8002 42.8847
24.8458 42.9504
24.8916 42.81
24.9372 43.05
24.983 43.2253
25.0286 43.53
25.0744 43.9077
25.12 44.3872
25.1658 45.0417
25.2114 45.2986
25.2572 45.2681
25.3029 45.3367
25.3487 45.4315
25.3943 45.0957
25.4402 44.1734
25.4858 43.325
25.5316 42.2403
25.5773 41.5411
25.6231 41.6136
25.669 41.1143
25.7147 41.3071
25.7605 40.9903
25.8062 41.0892
25.8521 41.2189
25.8977 41.3228
25.9436 41.4468
25.9893 41.619
26.0352 42.0117
26.0809 41.9455
26.1268 42.2172
26.1725 42.0069
26.2184 41.5624
26.2641 40.8973
26.31 40.7842
26.3557 40.7541
26.4017 40.8291
26.4474 41.0884
26.4933 41.4226
26.5391 41.937
26.585 42.3075
26.6308 42.5067
26.6767 42.7582
26.7225 42.7025
26.7684 42.2495
26.8142 41.4796
26.8601 40.9677
26.9059 40.667
26.9519 40.235
26.9979 39.8021
27.0437 39.5586
27.0896 39.3056
27.1354 39.331
27.1814 39.241
27.2272 39.1985
27.2732 39.2962
27.3191 38.976
27.3651 39.0605
27.4109 38.9144
27.4569 39.0289
27.5027 39.0664
27.5488 39.2136
27.5946 38.9126
27.6407 38.714
27.6865 38.6828
27.7326 38.3564
27.7784 38.4876
27.8245 38.3784
27.8703 38.4292
27.9164 38.7102
27.9623 39.0198
28.0084 39.1507
28.0543 39.5565
28.1003 39.4717
28.1462 39.423
28.1923 39.1009
28.2384 38.5432
28.2843 38.2385
28.3304 37.7376
28.3764 37.3721
28.4225 37.0166
28.4684 36.8598
28.5145 36.5742
28.5605 36.3641
28.6066 36.2077
28.6526 36.1724
28.6987 36.1795
28.7447 36.1287
28.7908 35.9171
28.8368 36.0055
28.8829 35.9327
28.9289 35.8939
28.9751 35.5945
29.0211 35.4797
29.0673 35.2327
29.1133 35.0762
29.1595 34.968
29.2055 34.9216
29.2517 34.8407
29.2977 34.9438
29.3439 34.8479
29.3899 34.7045
29.4361 34.6722
29.4824 34.5186
29.5284 34.2404
29.5746 33.9809
29.6207 33.566
29.6669 33.549
29.713 33.4457
29.7593 33.3485
29.8053 33.3757
29.8516 33.2753
29.8977 33.3382
29.9439 33.046
29.99 33.1876
30.0363 32.9249
30.0824 32.9408
30.1287 32.9904
30.1748 33.0056
30.2211 32.9155
30.2673 32.6572
30.3136 32.8726
30.3597 32.7802
30.406 32.6845
30.4522 32.5506
30.4985 32.5512
30.5447 32.7451
30.591 32.6792
30.6372 32.6261
30.6835 32.7256
30.7297 32.6403
30.7761 32.5874
30.8224 32.5084
30.8686 32.3704
30.915 32.1519
30.9612 31.9932
31.0076 31.817
31.0538 31.6458
31.1002 31.5015
31.1464 31.4095
31.1928 31.3686
31.2391 31.3745
31.2855 31.4009
31.3317 31.2467
31.3781 31.4153
31.4244 31.4064
31.4708 31.2564
31.5171 31.2164
31.5636 31.1902
31.6098 30.909
31.6563 30.9097
31.7026 30.7731
31.7491 30.6417
31.7953 30.603
31.8418 30.6106
31.8881 30.5493
31.9346 30.4745
31.9809 30.4875
32.0275 30.3583
32.074 30.2029
32.1203 29.9784
32.1668 30.0704
32.2132 29.8493
32.2597 29.6868
32.306 29.5925
32.3526 29.5165
32.399 29.3867
32.4455 29.213
32.4919 29.112
32.5385 29.1058
32.5848 28.9117
32.6314 28.9966
32.6778 28.8612
32.7244 28.6602
32.7708 28.5442
32.8174 28.6065
32.8638 28.3892
32.9104 28.4278
32.9569 28.4218
33.0035 28.2605
33.0499 28.2773
33.0966 28.2549
33.143 28.2425
33.1897 28.0422
33.2361 28.1005
33.2828 27.9655
33.3293 27.8198
33.3759 27.8126
33.4226 27.6605
33.4691 27.5927
33.5158 27.3997
33.5623 27.2516
33.609 27.0938
33.6555 27.0524
33.7022 27.0975
33.7487 26.8473
33.7954 26.9631
33.842 26.8225
33.8887 26.5904
33.9353 26.6404
33.982 26.515
34.0286 26.475
34.0753 26.3192
34.1219 26.3652
34.1687 26.1625
34.2152 26.2588
34.262 25.9709
34.3086 25.9764
34.3554 25.9231
34.402 25.7763
34.4488 25.7081
34.4954 25.6175
34.5422 25.5457
34.5889 25.4229
34.6357 25.2749
34.6825 25.256
34.7292 25.2578
34.776 25.1014
34.8227 25.0347
34.8695 24.9626
34.9162 24.9728
34.9631 24.8777
35.0098 24.8605
35.0566 24.6568
35.1033 24.6068
35.1502 24.5857
35.1969 24.4789
35.2438 24.4664
35.2906 24.4974
35.3375 24.4186
35.3842 24.2405
35.4311 24.3034
35.4779 24.258
35.5248 24.2526
35.5716 24.1578
35.6185 23.9646
35.6653 23.9787
35.7123 23.8508
35.759 23.8262
35.806 23.6984
35.8528 23.5932
35.8998 23.5861
35.9468 23.5067
35.9936 23.3683
36.0406 23.2877
36.0874 23.3917
36.1345 23.2259
36.1813 23.2287
36.2283 23.0208
36.2752 23.0009
36.3222 23.0195
36.3691 22.8356
36.4161 22.7226
36.463 22.7888
36.5101 22.7444
36.557 22.7183
36.6041 22.4065
36.651 22.5012
36.6981 22.4321
36.745 22.4033
36.7921 22.3116
36.839 22.1849
36.8861 22.1017
36.9331 22.1012
36.9802 22.0328
37.0272 21.8967
37.0743 21.8524
37.1213 21.7818
37.1684 21.726
37.2154 21.5838
37.2626 21.583
37.3098 21.5154
37.3568 21.5064
37.404 21.2849
37.451 21.2361
37.4982 21.2307
37.5452 21.1322
37.5924 21.0407
37.6395 21.089
37.6867 21.0197
37.7337 20.9273
37.781 20.8149
37.8281 20.8441
37.8753 20.7103
37.9224 20.6447
37.9697 20.6159
38.0168 20.5239
38.064 20.4831
38.1111 20.358
38.1584 20.3492
38.2056 20.2989
38.2529 20.208
38.3 20.0961
38.3473 20.1138
38.3945 19.9203
38.4418 19.9472
38.489 19.89
38.5363 19.8444
38.5837 19.7495
38.6309 19.6775
38.6782 19.6482
38.7254 19.622
38.7728 19.4959
38.82 19.4414
38.8674 19.3624
38.9146 19.3214
38.9621 19.2118
39.0093 19.1196
39.0567 19.15
39.104 19.0706
39.1514 18.9872
39.1987 19.0248
39.2461 18.9086
39.2934 18.8154
39.3409 18.7417
39.3882 18.7728
39.4356 18.6529
39.483 18.6175
39.5304 18.5267
39.5778 18.4414
39.6253 18.3874
39.6726 18.3596
39.7201 18.3013
39.7675 18.3068
39.815 18.1852
39.8624 18.1507
39.9099 18.0561
39.9575 18.0139
40.0049 17.9621
40.0525 17.86
40.0999 17.8831
40.1474 17.8413
40.1949 17.7062
40.2425 17.6547
40.2899 17.627
40.3375 17.5688
40.385 17.5352
40.4326 17.4543
40.48 17.456
40.5277 17.3669
40.5752 17.2762
40.6228 17.161
40.6703 17.1995
40.718 17.0918
40.7655 17.0711
40.8132 16.9915
40.8607 17.0252
40.9084 16.9462
40.9559 16.8485
41.0036 16.8433
41.0512 16.7492
41.0989 16.6991
41.1465 16.6347
41.1942 16.5793
41.242 16.4646
41.2896 16.4235
41.3373 16.4751
41.3849 16.3257
41.4327 16.254
41.4803 16.2247
41.5281 16.2053
41.5758 16.1355
41.6236 16.0597
41.6712 16.039
41.7191 15.9637
41.7667 15.8928
41.8146 15.9099
41.8622 15.7778
41.9101 15.77
41.9578 15.6989
42.0057 15.6743
42.0534 15.6127
42.1013 15.545
42.149 15.4189
42.1969 15.4554
42.2446 15.4055
42.2925 15.3394
42.3403 15.2396
42.3882 15.2677
42.436 15.1969
42.4839 15.1135
42.5319 15.0934
42.5797 15.0481
42.6277 14.9759
42.6755 14.9374
42.7235 14.909
42.7713 14.8723
42.8193 14.7844
42.8671 14.6692
42.9152 14.7003
42.963 14.5787
43.0111 14.5568
43.0589 14.4788
43.107 14.4728
43.1549 14.4516
43.2029 14.366
43.2508 14.3366
43.2989 14.2322
43.3468 14.2486
43.3949 14.1714
43.4429 14.1612
43.491 14.0602
43.5389 14.044
43.5871 14.0239
43.635 13.9155
43.6832 13.88
43.7312 13.8349
43.7793 13.7882
43.8273 13.7532
43.8755 13.7101
43.9237 13.6582
43.9717 13.6435
44.0199 13.5861
44.068 13.5632
44.1162 13.4551
44.1642 13.4554
44.2125 13.3855
44.2606 13.3599
44.3088 13.2715
44.3569 13.233
44.4052 13.1732
44.4533 13.2024
44.5016 13.0856
44.5497 13.031
44.598 13.0185
44.6461 12.9946
44.6945 12.8853
44.7426 12.8483
44.791 12.7587
44.8391 12.8176
44.8875 12.7324
44.9357 12.6985
44.984 12.6428
45.0322 12.6421
45.0806 12.5478
45.1288 12.5776
45.1773 12.4401
45.2257 12.417
45.2739 12.3886
45.3224 12.3477
45.3706 12.2822
45.4191 12.2011
45.4673 12.2148
45.5158 12.1926
45.5641 12.1152
45.6126 12.0905
45.6609 11.9869
45.7094 11.9584
45.7577 11.9569
45.8063 11.8611
45.8546 11.8572
45.9031 11.8257
45.9515 11.7701
46.0001 11.7576
46.0484 11.7402
46.097 11.6294
46.1454 11.6104
46.194 11.6133
46.2424 11.5427
46.291 11.4939
46.3395 11.4589
46.3881 11.3943
46.4365 11.3965
46.4852 11.3209
46.5337 11.2755
46.5823 11.2292
46.631 11.1616
46.6795 11.1715
46.7282 11.1437
46.7767 11.0549
46.8254 10.9537
46.8739 10.9792
46.9226 10.9297
46.9712 10.8782
47.0199 10.867
47.0685 10.7971
47.1173 10.7594
47.1658 10.7743
47.2146 10.7265
47.2632 10.6352
47.312 10.6102
47.3606 10.5586
47.4095 10.533
47.4581 10.5115
47.5069 10.4724
47.5556 10.4367
47.6044 10.3892
47.6531 10.3441
47.702 10.2507
47.7507 10.2769
47.7996 10.2294
47.8483 10.2147
47.8972 10.1451
47.9461 10.1336
47.9948 10.0572
48.0438 10.0639
48.0925 10.0299
48.1415 9.9943
48.1902 9.93422
48.2392 9.95352
48.288 9.89886
48.337 9.85747
48.3858 9.82422
48.4348 9.76438
48.4837 9.75075
48.5327 9.68037
48.5815 9.6669
48.6306 9.64602
48.6795 9.59804
48.7285 9.531
48.7774 9.52246
48.8265 9.48849
48.8754 9.43771
48.9245 9.39877
48.9734 9.39429
49.0226 9.36345
49.0715 9.29583
49.1206 9.2628
49.1696 9.21798
49.2188 9.21
49.2679 9.17044
49.3169 9.11683
49.3661 9.08252
49.4151 9.06127
49.4643 9.06161
49.5134 9.01026
49.5626 8.95562
49.6117 8.92844
49.6609 8.88616
49.71 8.83773
49.7592 8.8225
49.8083 8.73246
49.8576 8.80631
49.9067 8.67701
49.956 8.70923
50.0052 8.65996
50.0545 8.63299
50.1036 8.60099
50.153 8.52656
50.2022 8.52472
50.2515 8.4922
50.3007 8.42368
50.3501 8.41692
50.3993 8.39845
50.4487 8.36398
50.498 8.31789
50.5474 8.31147
50.5966 8.26319
50.6461 8.25251
50.6955 8.20058
50.7448 8.14355
50.7943 8.12933
50.8436 8.09126
50.8931 8.07031
50.9424 8.01342
50.9919 7.99847
51.0413 7.9756
51.0908 7.93737
51.1402 7.9144
51.1897 7.89583
51.2391 7.83273
51.2887 7.80145
51.3381 7.81198
51.3877 7.7512
51.4371 7.72529
51.4867 7.70438
51.5362 7.65535
51.5858 7.64704
51.6353 7.58434
51.6849 7.58239
51.7344 7.52474
51.7841 7.55537
51.8336 7.46832
51.8833 7.4396
51.9328 7.36348
51.9826 7.34723
52.0323 7.35533
52.0818 7.34853
52.1316 7.27916
52.1812 7.26934
52.231 7.21989
52.2806 7.14509
52.3304 7.17314
52.38 7.13613
52.4298 7.12003
52.4794 7.09461
52.5293 7.05397
52.5789 7.00238
52.6288 7.02766
52.6785 6.95943
52.7284 6.9724
52.7781 6.93867
52.828 6.89701
52.8777 6.85964
52.9276 6.85734
52.9774 6.77579
53.0273 6.74413
53.0771 6.7081
53.1271 6.72358
53.1769 6.66958
53.2269 6.65382
53.2767 6.65281
53.3267 6.59178
53.3765 6.63798
53.4266 6.51984
53.4766 6.47958
53.5265 6.46719
53.5765 6.48335
53.6264 6.43539
53.6765 6.37336
53.7264 6.38821
53.7765 6.32411
53.8265 6.33778
53.8766 6.24972
53.9266 6.22471
53.9767 6.25344
54.0267 6.21404
54.0769 6.23117
54.1269 6.12886
54.1771 6.12188
54.2271 6.10671
54.2773 6.0508
54.3274 6.0653
54.3776 5.98791
54.4277 5.94187
54.478 5.95234
54.528 5.90382
54.5783 5.83952
54.6285 5.78797
54.6788 5.76735
54.7289 5.69909
54.7792 5.69745
54.8296 5.63054
54.8798 5.56274
54.9301 5.52236
54.9803 5.53241
55.0307 5.55156
55.0809 5.42886
55.1314 5.47322
55.1816 5.28635
55.232 5.32042
55.2823 5.32488
55.3328 5.21476
55.383 5.13434
55.4335 5.13093
55.4838 5.0681
55.5344 5.02223
55.5847 5.0322
55.6352 4.97762
55.6856 4.92232
55.7361 4.86121