File: XRD/Ni3Fe_FD0237.xy
TT I
1.27165 8.12587
1.31627 6.80356
1.36089 7.48937
1.40551 6.45186
1.45013 6.60889
1.49476 6.42167
1.53938 6.31452
1.584 5.93995
1.62863 5.64004
1.67325 5.66563
1.71787 5.59576
1.7625 5.47622
1.80712 5.22828
1.85174 5.62047
1.89636 4.81447
1.94099 4.84318
1.98562 4.55413
2.03025 4.71639
2.07487 4.2144
2.11949 4.84521
2.16411 5.16853
2.20874 4.54489
2.25338 4.38195
2.298 4.45112
2.34263 4.37912
2.38725 4.72514
2.43188 4.97233
2.4765 5.35767
2.52115 5.24981
2.56577 5.93506
2.6104 6.19394
2.65503 6.08066
2.69965 6.07466
2.7443 7.07896
2.78893 7.27458
2.83356 7.52595
2.87818 7.9985
2.92281 8.46791
2.96744 9.11018
3.01209 10.1903
3.05672 10.6402
3.10135 11.9321
3.14599 12.5924
3.19062 14.5051
3.23527 15.0037
3.2799 15.7686
3.32454 17.0139
3.36917 17.7556
3.4138 19.3269
3.45844 19.6161
3.50309 20.7113
3.54773 21.3429
3.59237 22.5002
3.637 22.7668
3.68164 23.8106
3.7263 25.4153
3.77094 26.3743
3.81558 26.7305
3.86022 27.7178
3.90486 29.1623
3.9495 30.1496
3.99416 30.9228
4.0388 32.4756
4.08344 34.3051
4.12809 34.8077
4.17273 36.1856
4.21738 38.2748
4.26204 38.9736
4.30669 40.5107
4.35133 42.7503
4.39598 44.3745
4.44063 46.3412
4.4853 48.6359
4.52995 52.8058
4.5746 54.0271
4.61925 55.9528
4.6639 58.1603
4.70855 61.15
4.75322 64.4889
4.79788 68.2557
4.84253 72.0078
4.88719 77.0121
4.93184 81.7954
4.97652 88.8172
5.02118 96.2385
5.06583 107.334
5.11049 123.629
5.15515 168.998
5.19981 894.45
5.24449 3994.57
5.28916 10728.6
5.33382 4068.61
5.37848 269.692
5.42315 152.998
5.46783 129.353
5.5125 118.44
5.55716 112.308
5.60183 107.136
5.6465 104.679
5.69117 102.806
5.73586 100.81
5.78053 102.145
5.8252 102.335
5.86988 105.129
5.91455 109.938
5.95924 133.415
6.00392 450.473
6.0486 1428.9
6.09328 3687.14
6.13795 3635.46
6.18263 348.484
6.22733 108.976
6.27201 88.9719
6.3167 80.7463
6.36138 76.0314
6.40606 73.0545
6.45075 71.3468
6.49545 68.3659
6.54014 66.7064
6.58483 65.327
6.62952 64.3484
6.67421 62.6283
6.71892 61.7187
6.76361 61.0291
6.8083 60.1683
6.853 59.5044
6.89769 58.7848
6.94239 58.406
6.98711 57.5647
7.03181 57.2249
7.07651 57.0244
7.12121 56.5445
7.16591 56.6998
7.21063 56.0171
7.25533 55.861
7.30004 55.8678
7.34475 55.5617
7.38945 55.8632
7.43416 55.6063
7.47889 55.4808
7.5236 56.1018
7.56831 57.3032
7.61303 56.9925
7.65774 56.9438
7.70247 58.4161
7.74719 58.0879
7.79191 58.9836
7.83663 59.5024
7.88135 60.2406
7.92607 61.3952
7.97081 62.5667
8.01553 63.8071
8.06026 65.3544
8.10498 66.674
8.14971 69.2565
8.19446 70.6748
8.23919 73.0218
8.28392 76.3045
8.32865 78.9239
8.37339 84.3943
8.41812 90.792
8.46288 111.687
8.50761 293.896
8.55235 584.797
8.59709 1081.04
8.64183 1986.57
8.68658 1196.41
8.73134 215.274
8.77609 111.377
8.82083 99.9932
8.86558 96.2994
8.91033 93.4973
8.9551 91.0315
8.99985 89.3574
9.04461 88.4989
9.08936 88.147
9.13412 86.4562
9.17888 87.0571
9.22365 86.4636
9.26841 86.9684
9.31318 88.2678
9.35794 88.5956
9.4027 88.5427
9.44749 88.9605
9.49226 89.5904
9.53703 90.92
9.5818 92.8339
9.62657 94.2915
9.67134 95.3705
9.71614 97.3329
9.76091 100.268
9.80569 103.787
9.85047 106.946
9.89525 112.255
9.94005 138.121
9.98484 305.424
10.0296 516.741
10.0744 812.374
10.1192 1463.71
10.164 1680.04
10.2088 542.055
10.2536 146.763
10.2984 117.518
10.3432 112.589
10.388 115.163
10.4328 159.677
10.4776 211.961
10.5224 283.791
10.5672 455.733
10.612 530.68
10.6568 255.046
10.7017 107.536
10.7465 92.6437
10.7913 88.1798
10.8361 85.3818
10.8809 82.8861
10.9257 80.699
10.9706 79.494
11.0154 77.736
11.0602 76.3784
11.105 75.0251
11.1499 73.3759
11.1947 72.4507
11.2395 71.3373
11.2844 70.8696
11.3292 69.9117
11.374 69.1483
11.4189 68.7381
11.4637 67.8444
11.5086 66.8915
11.5534 66.5374
11.5983 66.4708
11.6431 66.3698
11.688 65.7752
11.7328 65.7982
11.7777 65.8509
11.8225 65.3629
11.8674 65.4171
11.9122 65.9184
11.9571 66.6371
12.002 68.9381
12.0468 80.1095
12.0917 94.2575
12.1366 109.363
12.1814 142.243
12.2263 194.316
12.2712 179.195
12.3161 102.354
12.3609 69.7071
12.4058 67.1646
12.4507 67.2165
12.4956 67.4559
12.5405 67.3802
12.5853 68.1881
12.6302 68.1766
12.6751 69.0631
12.72 69.85
12.7649 70.8587
12.8098 71.7773
12.8547 73.5238
12.8996 74.8496
12.9445 76.4382
12.9894 78.7247
13.0343 80.8713
13.0792 86.6835
13.1242 111.737
13.1691 146.862
13.214 174.713
13.2589 231.513
13.3038 326.615
13.3487 419.104
13.3937 306.187
13.4386 148.481
13.4835 133.807
13.5285 152.896
13.5734 175.399
13.6183 227.834
13.6633 311.731
13.7082 352.672
13.7531 220.807
13.7981 109.447
13.843 87.1054
13.888 84.0714
13.9329 81.4764
13.9779 79.9715
14.0228 78.3713
14.0678 76.9354
14.1127 76.3179
14.1577 75.5408
14.2027 74.6444
14.2476 74.1095
14.2926 73.2839
14.3376 73.0424
14.3825 72.8438
14.4275 72.4703
14.4725 72.3997
14.5175 72.7815
14.5624 72.3064
14.6074 72.885
14.6524 73.4656
14.6974 74.6419
14.7424 81.3842
14.7874 95.2778
14.8324 106.484
14.8774 120.161
14.9224 146.482
14.9674 188.682
15.0124 222.741
15.0574 169.274
15.1024 100.37
15.1474 76.8142
15.1924 73.8773
15.2374 72.4983
15.2824 71.4043
15.3274 70.6035
15.3725 69.8887
15.4175 69.8264
15.4625 69.3327
15.5076 69.121
15.5526 69.3848
15.5976 69.9138
15.6426 75.1822
15.6877 86.2803
15.7327 94.7028
15.7778 103.801
15.8228 122.545
15.8679 153.651
15.9129 190.509
15.958 173.364
16.003 111.176
16.0481 72.8487
16.0931 65.786
16.1382 63.6645
16.1833 62.9803
16.2283 61.3371
16.2734 60.7258
16.3185 60.0449
16.3636 59.5658
16.4086 58.9939
16.4537 58.5053
16.4988 58.0016
16.5439 57.9597
16.589 57.8381
16.6341 57.4047
16.6792 57.0168
16.7243 57.0387
16.7694 57.254
16.8145 57.1109
16.8596 57.3796
16.9047 57.3439
16.9498 57.7194
16.9949 57.8434
17.04 59.6647
17.0851 61.7405
17.1302 63.7763
17.1754 65.8017
17.2205 69.1124
17.2656 74.0393
17.3108 82.4839
17.3559 86.1718
17.401 76.4614
17.4462 66.3847
17.4913 62.3898
17.5365 62.0213
17.5815 62.2502
17.6268 62.6101
17.6718 63.1321
17.7171 63.6324
17.7622 64.5443
17.8074 66.4474
17.8525 72.4796
17.8977 78.1321
17.9428 82.7048
17.9881 88.2917
18.0331 99.4302
18.0784 115.941
18.1237 139.339
18.1688 144.64
18.214 117.786
18.2591 93.2327
18.3044 90.2418
18.3495 97.3188
18.3948 106.469
18.4399 101.432
18.4852 82.9036
18.5303 69.8466
18.5756 65.303
18.6207 64.4945
18.666 63.4904
18.7112 62.663
18.7565 61.8234
18.8016 61.6708
18.8469 60.9786
18.892 60.8666
18.9374 60.0335
18.9825 59.8236
19.0278 59.6337
19.073 60.3808
19.1183 61.3713
19.1635 62.1319
19.2088 62.942
19.254 64.8976
19.2993 67.5963
19.3447 71.3234
19.3898 76.383
19.4352 76.1127
19.4804 68.0161
19.5257 60.2729
19.5709 57.1469
19.6163 56.5464
19.6615 56.2779
19.7068 56.0658
19.752 56.0075
19.7974 57.1752
19.8426 58.1822
19.888 58.5768
19.9332 59.647
19.9786 61.379
20.0238 64.1012
20.0692 68.6541
20.1144 72.6727
20.1598 73.1422
20.205 67.4619
20.2504 64.2135
20.2957 64.5518
20.3411 66.7506
20.3863 67.1243
20.4318 62.1319
20.477 56.5115
20.5224 53.5787
20.5677 53.0122
20.6131 52.4784
20.6586 51.9885
20.7038 51.8041
20.7493 51.3177
20.7945 51.2606
20.84 51.341
20.8853 51.1372
20.9307 51.2194
20.976 51.2939
21.0215 51.1479
21.0668 51.4587
21.1122 51.7457
21.1575 52.1812
21.203 52.5274
21.2483 53.561
21.2938 53.7795
21.3391 52.6536
21.3846 51.4657
21.4299 50.7985
21.4754 50.8696
21.5207 51.1519
21.5662 51.8107
21.6116 52.8191
21.6571 53.4872
21.7024 54.3512
21.7479 55.589
21.7933 57.5222
21.8388 60.0817
21.8843 63.6022
21.9297 66.7821
21.9752 66.8646
22.0206 62.8557
22.0661 58.6947
22.1115 57.6359
22.157 58.2855
22.2024 57.4144
22.248 54.5818
22.2933 52.4416
22.3389 51.5502
22.3843 51.1002
22.4299 50.8261
22.4753 51.07
22.5208 50.9118
22.5662 50.9674
22.6118 51.3118
22.6572 51.8625
22.7028 52.2693
22.7483 52.7193
22.7939 53.1599
22.8393 54.104
22.8849 55.5651
22.9303 57.2218
22.9759 59.2936
23.0214 59.9972
23.067 57.7588
23.1126 54.1776
23.1581 51.8225
23.2037 51.319
23.2492 51.8958
23.2948 51.9782
23.3403 52.1295
23.3859 52.5376
23.4314 53.2443
23.477 54.3784
23.5225 55.6944
23.5682 57.7421
23.6137 59.6355
23.6593 58.4995
23.7048 54.9945
23.7505 51.0725
23.796 48.9951
23.8417 48.2607
23.8872 47.6431
23.9329 47.467
23.9784 47.1138
24.0241 46.7751
24.0697 46.5773
24.1154 46.0561
24.1609 45.9979
24.2066 46.0138
24.2522 45.6942
24.2979 45.5275
24.3434 45.2349
24.3892 45.1923
24.4349 45.0031
24.4805 44.9457
24.5262 45.0479
24.5718 44.7425
24.6175 44.9659
24.6631 44.8517
24.7089 44.4711
24.7545 44.515
24.8002 44.2272
24.8458 44.454
24.8916 44.2654
24.9372 44.3561
24.983 44.8523
25.0286 45.0651
25.0744 45.1323
25.12 45.4607
25.1658 46.086
25.2114 46.6213
25.2572 46.4937
25.3029 46.3553
25.3487 46.5594
25.3943 46.7162
25.4402 45.8787
25.4858 44.7199
25.5316 43.3893
25.5773 42.9677
25.6231 42.713
25.669 42.3674
25.7147 42.5068
25.7605 42.4777
25.8062 42.4483
25.8521 42.4003
25.8977 42.3871
25.9436 42.6365
25.9893 42.6575
26.0352 43.092
26.0809 43.1941
26.1268 43.5513
26.1725 43.4418
26.2184 42.8223
26.2641 42.4548
26.31 42.1126
26.3557 42.1698
26.4017 42.1582
26.4474 42.3349
26.4933 42.5875
26.5391 42.7841
26.585 43.2612
26.6308 43.6424
26.6767 43.978
26.7225 43.8954
26.7684 43.3467
26.8142 42.6469
26.8601 42.2705
26.9059 41.9401
26.9519 41.4467
26.9979 40.9559
27.0437 40.7345
27.0896 40.5975
27.1354 40.6353
27.1814 40.4343
27.2272 40.4539
27.2732 40.225
27.3191 40.0797
27.3651 40.2521
27.4109 40.0662
27.4569 40.0878
27.5027 40.2751
27.5488 40.2595
27.5946 40.2842
27.6407 40.1678
27.6865 39.9882
27.7326 39.7975
27.7784 39.7784
27.8245 39.6049
27.8703 39.6741
27.9164 39.8672
27.9623 39.9508
28.0084 40.2161
28.0543 40.7208
28.1003 40.5929
28.1462 40.4108
28.1923 40.1463
28.2384 39.6173
28.2843 39.3237
28.3304 38.7939
28.3764 38.498
28.4225 37.9976
28.4684 38.0095
28.5145 37.5822
28.5605 37.5983
28.6066 37.2543
28.6526 37.1118
28.6987 37.2324
28.7447 37.1014
28.7908 36.9868
28.8368 36.9464
28.8829 36.9439
28.9289 36.9287
28.9751 36.7357
29.0211 36.5138
29.0673 36.2835
29.1133 36.1521
29.1595 35.9938
29.2055 35.9309
29.2517 35.7394
29.2977 35.8404
29.3439 35.7696
29.3899 35.7147
29.4361 35.5953
29.4824 35.4714
29.5284 35.3026
29.5746 34.9684
29.6207 34.6936
29.6669 34.6001
29.713 34.4348
29.7593 34.3769
29.8053 34.31
29.8516 34.2591
29.8977 34.3044
29.9439 34.0982
29.99 34.0049
30.0363 33.8473
30.0824 33.9377
30.1287 33.8759
30.1748 33.7798
30.2211 33.8195
30.2673 33.7857
30.3136 33.8963
30.3597 33.759
30.406 33.6902
30.4522 33.4865
30.4985 33.4776
30.5447 33.5004
30.591 33.5701
30.6372 33.5724
30.6835 33.5682
30.7297 33.6526
30.7761 33.6604
30.8224 33.4719
30.8686 33.3134
30.915 33.04
30.9612 32.9479
31.0076 32.7165
31.0538 32.6121
31.1002 32.6356
31.1464 32.3753
31.1928 32.3591
31.2391 32.4142
31.2855 32.2513
31.3317 32.185
31.3781 32.2876
31.4244 32.2943
31.4708 32.2207
31.5171 32.1667
31.5636 32.2052
31.6098 31.8893
31.6563 31.748
31.7026 31.5953
31.7491 31.4753
31.7953 31.578
31.8418 31.5759
31.8881 31.4223
31.9346 31.5013
31.9809 31.3993
32.0275 31.2773
32.074 31.1575
32.1203 30.9643
32.1668 30.8734
32.2132 30.7722
32.2597 30.522
32.306 30.5297
32.3526 30.3543
32.399 30.1974
32.4455 30.1691
32.4919 29.896
32.5385 29.8701
32.5848 29.7122
32.6314 29.7644
32.6778 29.8031
32.7244 29.5788
32.7708 29.4559
32.8174 29.454
32.8638 29.2693
32.9104 29.3418
32.9569 29.2352
33.0035 29.0911
33.0499 29.0511
33.0966 29.0876
33.143 29.0747
33.1897 28.9423
33.2361 28.8329
33.2828 28.7741
33.3293 28.5879
33.3759 28.6071
33.4226 28.5284
33.4691 28.3647
33.5158 28.3005
33.5623 28.1544
33.609 27.9541
33.6555 27.8294
33.7022 27.7889
33.7487 27.6588
33.7954 27.6724
33.842 27.4986
33.8887 27.506
33.9353 27.4647
33.982 27.3402
34.0286 27.2194
34.0753 27.2228
34.1219 27.066
34.1687 27.0194
34.2152 26.9388
34.262 26.7714
34.3086 26.653
34.3554 26.7144
34.402 26.4996
34.4488 26.4787
34.4954 26.4124
34.5422 26.2399
34.5889 26.1301
34.6357 26.0491
34.6825 26.067
34.7292 25.8879
34.776 25.8617
34.8227 25.6973
34.8695 25.7444
34.9162 25.7106
34.9631 25.5575
35.0098 25.5575
35.0566 25.4834
35.1033 25.3612
35.1502 25.36
35.1969 25.2743
35.2438 25.2635
35.2906 25.1468
35.3375 25.1151
35.3842 25.0204
35.4311 25.03
35.4779 24.9634
35.5248 24.7982
35.5716 24.7927
35.6185 24.6768
35.6653 24.7562
35.7123 24.587
35.759 24.5242
35.806 24.3973
35.8528 24.2924
35.8998 24.2614
35.9468 24.1557
35.9936 24.0906
36.0406 23.9995
36.0874 24.0647
36.1345 23.8776
36.1813 23.8348
36.2283 23.7272
36.2752 23.6582
36.3222 23.6882
36.3691 23.5605
36.4161 23.389
36.463 23.4398
36.5101 23.4971
36.557 23.3123
36.6041 23.141
36.651 23.2094
36.6981 23.0426
36.745 22.9663
36.7921 22.9543
36.839 22.7982
36.8861 22.7946
36.9331 22.819
36.9802 22.5827
37.0272 22.5648
37.0743 22.4741
37.1213 22.451
37.1684 22.4293
37.2154 22.296
37.2626 22.2298
37.3098 22.1197
37.3568 22.0778
37.404 22.0709
37.451 21.8991
37.4982 21.8899
37.5452 21.8324
37.5924 21.7318
37.6395 21.7968
37.6867 21.6448
37.7337 21.5591
37.781 21.4812
37.8281 21.4255
37.8753 21.2337
37.9224 21.2635
37.9697 21.1739
38.0168 21.0743
38.064 21.1048
38.1111 20.9612
38.1584 20.9229
38.2056 20.8018
38.2529 20.7751
38.3 20.7055
38.3473 20.7042
38.3945 20.5323
38.4418 20.559
38.489 20.4912
38.5363 20.4579
38.5837 20.3625
38.6309 20.2601
38.6782 20.2305
38.7254 20.0959
38.7728 20.0836
38.82 19.9795
38.8674 20.0047
38.9146 19.9062
38.9621 19.8184
39.0093 19.7563
39.0567 19.7049
39.104 19.5912
39.1514 19.503
39.1987 19.4577
39.2461 19.4676
39.2934 19.3995
39.3409 19.2847
39.3882 19.2216
39.4356 19.2076
39.483 19.1783
39.5304 19.0466
39.5778 19.0316
39.6253 18.9903
39.6726 18.9226
39.7201 18.8104
39.7675 18.7878
39.815 18.7174
39.8624 18.6712
39.9099 18.6541
39.9575 18.5528
40.0049 18.5144
40.0525 18.4318
40.0999 18.3704
40.1474 18.3339
40.1949 18.2576
40.2425 18.1672
40.2899 18.1818
40.3375 18.1212
40.385 17.951
40.4326 17.9422
40.48 17.9
40.5277 17.9249
40.5752 17.7559
40.6228 17.6846
40.6703 17.6896
40.718 17.5942
40.7655 17.5544
40.8132 17.5595
40.8607 17.4697
40.9084 17.4052
40.9559 17.3405
41.0036 17.3219
41.0512 17.1849
41.0989 17.1629
41.1465 17.0823
41.1942 17.0961
41.242 16.9989
41.2896 16.9455
41.3373 16.8147
41.3849 16.8298
41.4327 16.7463
41.4803 16.7362
41.5281 16.6645
41.5758 16.5748
41.6236 16.5268
41.6712 16.4385
41.7191 16.3997
41.7667 16.3636
41.8146 16.3556
41.8622 16.2954
41.9101 16.2792
41.9578 16.1872
42.0057 16.0896
42.0534 16.0137
42.1013 15.9931
42.149 15.966
42.1969 15.8978
42.2446 15.8218
42.2925 15.7287
42.3403 15.7808
42.3882 15.6923
42.436 15.6989
42.4839 15.5008
42.5319 15.4683
42.5797 15.4853
42.6277 15.4436
42.6755 15.3692
42.7235 15.315
42.7713 15.3408
42.8193 15.2321
42.8671 15.1398
42.9152 15.0946
42.963 15.0679
43.0111 15.0049
43.0589 14.9344
43.107 14.9086
43.1549 14.8492
43.2029 14.7868
43.2508 14.7329
43.2989 14.7284
43.3468 14.6507
43.3949 14.6065
43.4429 14.5451
43.491 14.4543
43.5389 14.4669
43.5871 14.3487
43.635 14.3089
43.6832 14.2749
43.7312 14.1631
43.7793 14.1983
43.8273 14.1463
43.8755 14.0359
43.9237 14.0426
43.9717 14.0255
44.0199 13.9249
44.068 13.9515
44.1162 13.8575
44.1642 13.8327
44.2125 13.7811
44.2606 13.7028
44.3088 13.6251
44.3569 13.6067
44.4052 13.6053
44.4533 13.4653
44.5016 13.4509
44.5497 13.423
44.598 13.3691
44.6461 13.3472
44.6945 13.3115
44.7426 13.2523
44.791 13.1829
44.8391 13.1344
44.8875 13.0799
44.9357 13.0537
44.984 12.9555
45.0322 12.9458
45.0806 12.9043
45.1288 12.8666
45.1773 12.8206
45.2257 12.7629
45.2739 12.7387
45.3224 12.6742
45.3706 12.6425
45.4191 12.5594
45.4673 12.5661
45.5158 12.4729
45.5641 12.4562
45.6126 12.4017
45.6609 12.3563
45.7094 12.2979
45.7577 12.253
45.8063 12.2127
45.8546 12.1565
45.9031 12.1574
45.9515 12.1077
46.0001 11.988
46.0484 12.0192
46.097 11.9971
46.1454 11.9301
46.194 11.9179
46.2424 11.8641
46.291 11.7943
46.3395 11.7059
46.3881 11.7213
46.4365 11.6837
46.4852 11.6071
46.5337 11.6163
46.5823 11.5877
46.631 11.4745
46.6795 11.4458
46.7282 11.4449
46.7767 11.3777
46.8254 11.2594
46.8739 11.2882
46.9226 11.2424
46.9712 11.1603
47.0199 11.1602
47.0685 11.0895
47.1173 11.0648
47.1658 11.069
47.2146 10.9958
47.2632 10.945
47.312 10.936
47.3606 10.8937
47.4095 10.856
47.4581 10.7982
47.5069 10.7304
47.5556 10.7155
47.6044 10.66
47.6531 10.6364
47.702 10.5794
47.7507 10.5496
47.7996 10.5256
47.8483 10.4919
47.8972 10.4563
47.9461 10.4144
47.9948 10.3691
48.0438 10.3023
48.0925 10.3173
48.1415 10.2595
48.1902 10.1932
48.2392 10.1966
48.288 10.1741
48.337 10.1248
48.3858 10.0739
48.4348 10.0571
48.4837 10.0541
48.5327 9.96686
48.5815 9.89138
48.6306 9.91423
48.6795 9.88439
48.7285 9.83619
48.7774 9.78786
48.8265 9.77815
48.8754 9.69382
48.9245 9.69725
48.9734 9.65123
49.0226 9.60309
49.0715 9.54112
49.1206 9.5318
49.1696 9.50218
49.2188 9.46046
49.2679 9.43353
49.3169 9.38353
49.3661 9.32518
49.4151 9.32156
49.4643 9.29866
49.5134 9.21511
49.5626 9.17829
49.6117 9.15005
49.6609 9.13648
49.71 9.08413
49.7592 9.06739
49.8083 9.03845
49.8576 9.00788
49.9067 8.93922
49.956 8.91429
50.0052 8.90462
50.0545 8.90863
50.1036 8.79423
50.153 8.7901
50.2022 8.75074
50.2515 8.72521
50.3007 8.67359
50.3501 8.65841
50.3993 8.6582
50.4487 8.58155
50.498 8.51753
50.5474 8.55203
50.5966 8.46237
50.6461 8.4328
50.6955 8.45992
50.7448 8.38494
50.7943 8.3452
50.8436 8.31644
50.8931 8.2545
50.9424 8.2924
50.9919 8.21058
51.0413 8.19748
51.0908 8.18628
51.1402 8.12805
51.1897 8.09826
51.2391 8.06708
51.2887 8.04687
51.3381 7.96298
51.3877 7.95591
51.4371 7.90024
51.4867 7.87692
51.5362 7.88419
51.5858 7.82821
51.6353 7.80033
51.6849 7.75983
51.7344 7.7442
51.7841 7.71387
51.8336 7.66666
51.8833 7.62566
51.9328 7.6035
51.9826 7.53453
52.0323 7.52049
52.0818 7.50627
52.1316 7.45627
52.1812 7.43641
52.231 7.42121
52.2806 7.39937
52.3304 7.36996
52.38 7.32521
52.4298 7.28493
52.4794 7.25566
52.5293 7.23239
52.5789 7.20219
52.6288 7.17027
52.6785 7.15761
52.7284 7.11446
52.7781 7.11572
52.828 7.04896
52.8777 7.03794
52.9276 7.0007
52.9774 6.9874
53.0273 6.92956
53.0771 6.89127
53.1271 6.89522
53.1769 6.837
53.2269 6.79533
53.2767 6.79508
53.3267 6.80162
53.3765 6.74629
53.4266 6.71529
53.4766 6.64706
53.5265 6.64231
53.5765 6.6438
53.6264 6.59877
53.6765 6.5884
53.7264 6.5444
53.7765 6.52611
53.8265 6.45831
53.8766 6.41837
53.9266 6.4291
53.9767 6.34733
54.0267 6.37716
54.0769 6.32056
54.1269 6.28857
54.1771 6.25023
54.2271 6.25512
54.2773 6.19566
54.3274 6.14034
54.3776 6.11029
54.4277 6.07547
54.478 6.02517
54.528 6.0045
54.5783 5.94682
54.6285 5.89054
54.6788 5.93774
54.7289 5.87289
54.7792 5.79206
54.8296 5.74821
54.8798 5.71404
54.9301 5.65894
54.9803 5.6605
55.0307 5.63676
55.0809 5.53769
55.1314 5.54157
55.1816 5.46505
55.232 5.40424
55.2823 5.4054
55.3328 5.34512
55.383 5.25363
55.4335 5.18118
55.4838 5.15261
55.5344 5.1336
55.5847 5.0874
55.6352 5.04491
55.6856 5.01926
55.7361 5.02035