File: XRD/Ni3Fe_FD0064.xy
TT I
1.27165 32.588
1.31627 29.7659
1.36089 28.3295
1.40551 26.4489
1.45013 25.0702
1.49476 24.301
1.53938 24.5481
1.584 23.062
1.62863 21.4025
1.67325 20.7104
1.71787 21.3982
1.7625 20.0058
1.80712 19.8842
1.85174 19.7891
1.89636 19.4335
1.94099 19.5181
1.98562 19.6686
2.03025 19.283
2.07487 19.1483
2.11949 19.8582
2.16411 19.3335
2.20874 19.4085
2.25338 19.0274
2.298 20.0353
2.34263 18.7662
2.38725 19.5461
2.43188 20.4891
2.4765 20.8249
2.52115 21.061
2.56577 21.4344
2.6104 22.691
2.65503 23.428
2.69965 25.2712
2.7443 26.0856
2.78893 28.9177
2.83356 31.5277
2.87818 34.6592
2.92281 39.5833
2.96744 45.6054
3.01209 54.2317
3.05672 61.9979
3.10135 71.5647
3.14599 73.1405
3.19062 69.6719
3.23527 61.3254
3.2799 50.5236
3.32454 42.2418
3.36917 36.2875
3.4138 32.4218
3.45844 29.6102
3.50309 28.5264
3.54773 27.0713
3.59237 25.815
3.637 25.7557
3.68164 25.299
3.7263 25.1239
3.77094 25.2507
3.81558 25.5563
3.86022 25.7572
3.90486 26.4487
3.9495 26.9528
3.99416 27.295
4.0388 28.1413
4.08344 28.9261
4.12809 29.5922
4.17273 30.3605
4.21738 31.7873
4.26204 33.8547
4.30669 37.4091
4.35133 40.5368
4.39598 39.4147
4.44063 38.0263
4.4853 37.9749
4.52995 39.1994
4.5746 40.6198
4.61925 42.1312
4.6639 44.3089
4.70855 46.3372
4.75322 49.4844
4.79788 52.7127
4.84253 56.9791
4.88719 62.8534
4.93184 71.2968
4.97652 85.2311
5.02118 106.002
5.06583 123.397
5.11049 145.995
5.15515 197.959
5.19981 351.964
5.24449 852.656
5.28916 1926.76
5.33382 4294.54
5.37848 2647.85
5.42315 640.713
5.46783 271.007
5.5125 183.419
5.55716 146.468
5.60183 125.478
5.6465 115.297
5.69117 110.385
5.73586 103.975
5.78053 102.359
5.8252 103.406
5.86988 110.032
5.91455 123.525
5.95924 148.922
6.00392 217.275
6.0486 380.964
6.09328 642.202
6.13795 1146.2
6.18263 990.186
6.22733 407.949
6.27201 190.985
6.3167 119.455
6.36138 87.9833
6.40606 71.4708
6.45075 63.7745
6.49545 58.1048
6.54014 53.681
6.58483 50.5407
6.62952 48.4412
6.67421 46.4847
6.71892 45.1311
6.76361 44.0007
6.8083 43.0406
6.853 42.6204
6.89769 42.0679
6.94239 41.9918
6.98711 42.0943
7.03181 43.2659
7.07651 45.0399
7.12121 45.5357
7.16591 43.2083
7.21063 40.904
7.25533 40.6725
7.30004 40.4224
7.34475 40.257
7.38945 40.5696
7.43416 41.2514
7.47889 44.345
7.5236 68.3524
7.56831 187.91
7.61303 144.16
7.65774 56.8111
7.70247 43.7082
7.74719 41.165
7.79191 40.0205
7.83663 40.1226
7.88135 40.2088
7.92607 40.3872
7.97081 40.646
8.01553 41.5461
8.06026 42.2357
8.10498 43.3546
8.14971 44.6614
8.19446 45.7082
8.23919 48.3618
8.28392 51.4528
8.32865 54.4706
8.37339 57.5683
8.41812 62.3984
8.46288 71.4585
8.50761 92.671
8.55235 146.514
8.59709 207.469
8.64183 319.542
8.68658 656.661
8.73134 656.251
8.77609 280.986
8.82083 139.599
8.86558 97.0996
8.91033 81.6229
8.9551 74.1147
8.99985 70.4374
9.04461 68.004
9.08936 66.9105
9.13412 67.1841
9.17888 72.0495
9.22365 107.173
9.26841 295.684
9.31318 278.666
9.35794 99.4346
9.4027 69.132
9.44749 63.3319
9.49226 60.6625
9.53703 60.0264
9.5818 59.9167
9.62657 59.8054
9.67134 60.2484
9.71614 61.2793
9.76091 62.4052
9.80569 64.3324
9.85047 67.0269
9.89525 71.4052
9.94005 79.1125
9.98484 95.8744
10.0296 140.276
10.0744 183.979
10.1192 233.168
10.164 432.309
10.2088 709.387
10.2536 488.074
10.2984 208.097
10.3432 124.202
10.388 93.7676
10.4328 84.4772
10.4776 89.883
10.5224 97.3769
10.5672 104.583
10.612 150.876
10.6568 246.692
10.7017 243.338
10.7465 162.449
10.7913 84.1345
10.8361 62.6046
10.8809 56.0991
10.9257 52.6663
10.9706 51.2075
11.0154 49.3576
11.0602 47.5451
11.105 46.9666
11.1499 45.8527
11.1947 45.6653
11.2395 45.1114
11.2844 44.2017
11.3292 43.2556
11.374 42.5578
11.4189 42.2715
11.4637 41.6958
11.5086 41.201
11.5534 40.8507
11.5983 41.0949
11.6431 41.0963
11.688 40.9687
11.7328 41.2297
11.7777 41.322
11.8225 41.6558
11.8674 42.8329
11.9122 48.1282
11.9571 78.5413
12.002 114.342
12.0468 76.6957
12.0917 52.716
12.1366 50.8959
12.1814 52.4224
12.2263 57.5674
12.2712 71.9476
12.3161 87.4336
12.3609 76.4847
12.4058 57.9688
12.4507 48.8144
12.4956 45.2036
12.5405 42.8633
12.5853 42.0741
12.6302 41.5172
12.6751 41.4386
12.72 41.4878
12.7649 41.7378
12.8098 41.9699
12.8547 42.6507
12.8996 43.3629
12.9445 44.2281
12.9894 45.246
13.0343 46.9152
13.0792 51.3308
13.1242 62.9369
13.1691 69.4022
13.214 69.3571
13.2589 71.8795
13.3038 76.8959
13.3487 97.5363
13.3937 149.127
13.4386 186.239
13.4835 142.217
13.5285 96.8963
13.5734 84.343
13.6183 79.3463
13.6633 81.9197
13.7082 104.94
13.7531 154.543
13.7981 168.598
13.843 110.326
13.888 72.731
13.9329 59.3016
13.9779 53.8678
14.0228 51.5691
14.0678 50.5541
14.1127 53.3026
14.1577 73.9889
14.2027 102.131
14.2476 79.3025
14.2926 52.6601
14.3376 47.0409
14.3825 45.2341
14.4275 44.1893
14.4725 43.941
14.5175 43.365
14.5624 43.1613
14.6074 42.8981
14.6524 43.3175
14.6974 43.3927
14.7424 43.9558
14.7874 44.8677
14.8324 48.4705
14.8774 51.7347
14.9224 53.4034
14.9674 55.6995
15.0124 64.6977
15.0574 86.4311
15.1024 105.996
15.1474 91.7023
15.1924 68.5869
15.2374 54.3967
15.2824 47.7575
15.3274 44.6831
15.3725 43.4422
15.4175 42.9056
15.4625 42.3661
15.5076 42.0241
15.5526 42.1676
15.5976 42.0442
15.6426 42.3206
15.6877 43.0583
15.7327 45.344
15.7778 48.0274
15.8228 49.3233
15.8679 50.9979
15.9129 56.1493
15.958 70.8838
16.003 91.9923
16.0481 96.1088
16.0931 82.7645
16.1382 67.4428
16.1833 51.2935
16.2283 42.9945
16.2734 40.0976
16.3185 38.5665
16.3636 37.6717
16.4086 36.7131
16.4537 36.3562
16.4988 35.9168
16.5439 35.6377
16.589 35.4667
16.6341 35.2948
16.6792 34.8539
16.7243 34.9838
16.7694 34.9511
16.8145 34.8388
16.8596 35.1679
16.9047 36.0831
16.9498 39.6715
16.9949 43.0534
17.04 40.1829
17.0851 36.565
17.1302 36.0833
17.1754 36.4567
17.2205 36.6706
17.2656 36.8445
17.3108 37.9044
17.3559 39.4393
17.401 43.3098
17.4462 47.0933
17.4913 45.849
17.5365 41.4458
17.5815 38.4919
17.6268 37.7693
17.6718 37.5791
17.7171 37.8872
17.7622 39.9542
17.8074 43.9287
17.8525 44.4732
17.8977 41.94
17.9428 42.3046
17.9881 43.2428
18.0331 44.0565
18.0784 44.5864
18.1237 47.604
18.1688 54.2898
18.214 67.9305
18.2591 78.1087
18.3044 70.2531
18.3495 56.6656
18.3948 50.9183
18.4399 51.7469
18.4852 57.6767
18.5303 60.8908
18.5756 55.9229
18.6207 50.0885
18.666 45.1007
18.7112 41.0106
18.7565 39.016
18.8016 38.2786
18.8469 37.5245
18.892 37.2233
18.9374 36.8796
18.9825 36.5646
19.0278 36.2667
19.073 36.365
19.1183 36.1143
19.1635 36.1477
19.2088 36.7797
19.254 37.1858
19.2993 38.4571
19.3447 42.8263
19.3898 47.4127
19.4352 46.3223
19.4804 43.9992
19.5257 44.2264
19.5709 42.0396
19.6163 38.5727
19.6615 36.4778
19.7068 35.1256
19.752 34.3609
19.7974 34.3243
19.8426 33.999
19.888 33.8479
19.9332 34.1736
19.9786 34.2711
20.0238 34.1857
20.0692 34.5065
20.1144 35.0898
20.1598 36.8885
20.205 39.1137
20.2504 41.6287
20.2957 40.6347
20.3411 38.0535
20.3863 37.0409
20.4318 37.8935
20.477 39.2849
20.5224 38.9246
20.5677 36.0319
20.6131 34.0113
20.6586 32.9638
20.7038 32.4765
20.7493 32.3663
20.7945 33.7607
20.84 34.9915
20.8853 34.2703
20.9307 32.2928
20.976 31.2556
21.0215 30.8255
21.0668 30.9045
21.1122 30.973
21.1575 30.7469
21.203 30.6078
21.2483 30.7231
21.2938 31.1285
21.3391 31.4041
21.3846 32.0468
21.4299 32.1791
21.4754 32.1565
21.5207 31.867
21.5662 31.5028
21.6116 31.0138
21.6571 30.9408
21.7024 31.1782
21.7479 31.455
21.7933 31.6377
21.8388 31.8449
21.8843 32.3303
21.9297 32.9364
21.9752 34.2872
22.0206 36.6665
22.0661 38.7372
22.1115 38.9932
22.157 37.8254
22.2024 37.2505
22.248 36.5878
22.2933 35.8364
22.3389 34.7031
22.3843 33.0982
22.4299 31.9518
22.4753 31.5132
22.5208 31.1633
22.5662 30.9978
22.6118 31.0114
22.6572 30.9476
22.7028 30.8887
22.7483 31.0677
22.7939 31.7457
22.8393 32.3938
22.8849 32.3688
22.9303 31.8759
22.9759 31.7721
23.0214 32.1408
23.067 33.3669
23.1126 35.0491
23.1581 35.9825
23.2037 34.9321
23.2492 33.3521
23.2948 32.1485
23.3403 31.713
23.3859 31.7439
23.4314 32.5086
23.477 33.3167
23.5225 33.2386
23.5682 32.3254
23.6137 32.0924
23.6593 32.6307
23.7048 34.0309
23.7505 35.7343
23.796 35.7519
23.8417 33.8568
23.8872 31.8034
23.9329 30.5852
23.9784 29.8713
24.0241 29.7018
24.0697 29.6408
24.1154 29.4361
24.1609 28.9863
24.2066 28.6505
24.2522 28.4065
24.2979 28.17
24.3434 27.9975
24.3892 27.8433
24.4349 27.891
24.4805 27.6885
24.5262 27.5627
24.5718 27.5404
24.6175 27.7799
24.6631 28.0536
24.7089 28.3978
24.7545 28.1946
24.8002 27.8117
24.8458 27.433
24.8916 27.2472
24.9372 27.0273
24.983 27.0543
25.0286 27.1157
25.0744 27.0756
25.12 27.0193
25.1658 27.1994
25.2114 27.3266
25.2572 27.5437
25.3029 28.0232
25.3487 28.2357
25.3943 28.1978
25.4402 27.9814
25.4858 28.3665
25.5316 28.3913
25.5773 28.2976
25.6231 27.571
25.669 26.9751
25.7147 26.7514
25.7605 26.399
25.8062 26.3889
25.8521 26.748
25.8977 26.5611
25.9436 26.4471
25.9893 26.0666
26.0352 26.0594
26.0809 25.966
26.1268 25.9486
26.1725 26.1577
26.2184 26.3306
26.2641 26.65
26.31 26.7354
26.3557 26.5094
26.4017 26.1658
26.4474 26.0233
26.4933 25.9079
26.5391 25.8356
26.585 25.722
26.6308 25.8622
26.6767 25.8474
26.7225 26.0611
26.7684 26.4941
26.8142 26.8827
26.8601 27.0114
26.9059 26.9754
26.9519 26.7753
26.9979 27.0022
27.0437 26.5758
27.0896 26.085
27.1354 25.7152
27.1814 25.468
27.2272 25.2576
27.2732 25.1111
27.3191 24.9949
27.3651 24.8816
27.4109 24.7636
27.4569 24.8033
27.5027 24.8828
27.5488 24.8858
27.5946 24.7495
27.6407 24.8388
27.6865 24.8157
27.7326 24.7842
27.7784 24.9171
27.8245 24.6875
27.8703 24.5692
27.9164 24.6015
27.9623 24.3802
28.0084 24.6687
28.0543 24.9377
28.1003 24.8521
28.1462 24.782
28.1923 24.8968
28.2384 25.0229
28.2843 25.1399
28.3304 24.9633
28.3764 24.7134
28.4225 24.686
28.4684 24.3047
28.5145 24.1838
28.5605 23.9297
28.6066 23.6663
28.6526 23.5619
28.6987 23.3654
28.7447 23.1893
28.7908 23.0649
28.8368 22.9734
28.8829 22.8315
28.9289 22.7911
28.9751 22.7726
29.0211 22.6676
29.0673 22.7499
29.1133 22.9115
29.1595 22.8029
29.2055 22.5494
29.2517 22.4412
29.2977 22.3046
29.3439 22.1533
29.3899 22.0489
29.4361 22.077
29.4824 22.0677
29.5284 22.0834
29.5746 21.936
29.6207 21.8927
29.6669 21.8607
29.713 21.7257
29.7593 21.5748
29.8053 21.557
29.8516 21.4516
29.8977 21.4528
29.9439 21.3429
29.99 21.2654
30.0363 21.1936
30.0824 21.3598
30.1287 21.2779
30.1748 21.0829
30.2211 21.0014
30.2673 21.0201
30.3136 20.9996
30.3597 21.0995
30.406 21.0633
30.4522 21.0803
30.4985 20.8819
30.5447 20.9374
30.591 20.7939
30.6372 20.8127
30.6835 20.6959
30.7297 20.7008
30.7761 20.7292
30.8224 20.786
30.8686 20.8903
30.915 20.8921
30.9612 20.9675
31.0076 20.9185
31.0538 20.8703
31.1002 20.7149
31.1464 20.6005
31.1928 20.4983
31.2391 20.3204
31.2855 20.2987
31.3317 20.1648
31.3781 20.2212
31.4244 20.0904
31.4708 20.1035
31.5171 20.1375
31.5636 20.1389
31.6098 20.1138
31.6563 20.0866
31.7026 20.0608
31.7491 20.0105
31.7953 20.0418
31.8418 19.8431
31.8881 19.7699
31.9346 19.7408
31.9809 19.7126
32.0275 19.5995
32.074 19.6821
32.1203 19.6372
32.1668 19.6504
32.2132 19.6756
32.2597 19.516
32.306 19.4663
32.3526 19.2839
32.399 19.2621
32.4455 19.1156
32.4919 19.0339
32.5385 18.9762
32.5848 18.8581
32.6314 18.8648
32.6778 18.8057
32.7244 18.7141
32.7708 18.6402
32.8174 18.5876
32.8638 18.5599
32.9104 18.5383
32.9569 18.5748
33.0035 18.5048
33.0499 18.4861
33.0966 18.3148
33.143 18.249
33.1897 18.2826
33.2361 18.1728
33.2828 18.2079
33.3293 18.0871
33.3759 18.1066
33.4226 18.0551
33.4691 18.0929
33.5158 18.0145
33.5623 18.0023
33.609 17.8921
33.6555 17.784
33.7022 17.6968
33.7487 17.5779
33.7954 17.5465
33.842 17.4214
33.8887 17.4902
33.9353 17.4401
33.982 17.3398
34.0286 17.3134
34.0753 17.2864
34.1219 17.2792
34.1687 17.2703
34.2152 17.1259
34.262 17.0095
34.3086 16.9566
34.3554 16.917
34.402 16.8248
34.4488 16.8542
34.4954 16.7549
34.5422 16.7252
34.5889 16.639
34.6357 16.6671
34.6825 16.613
34.7292 16.5781
34.776 16.4606
34.8227 16.4435
34.8695 16.4305
34.9162 16.3341
34.9631 16.2746
35.0098 16.218
35.0566 16.181
35.1033 16.1404
35.1502 16.1696
35.1969 16.0703
35.2438 16.0291
35.2906 16.0344
35.3375 15.9949
35.3842 15.8454
35.4311 15.904
35.4779 15.8778
35.5248 15.7985
35.5716 15.7776
35.6185 15.8394
35.6653 15.7795
35.7123 15.6719
35.759 15.6858
35.806 15.6419
35.8528 15.5592
35.8998 15.5095
35.9468 15.4836
35.9936 15.4018
36.0406 15.3862
36.0874 15.3322
36.1345 15.2943
36.1813 15.2834
36.2283 15.2015
36.2752 15.1624
36.3222 15.1351
36.3691 15.1116
36.4161 15.0197
36.463 15.0346
36.5101 15.0658
36.557 14.9418
36.6041 14.7865
36.651 14.8103
36.6981 14.7558
36.745 14.7513
36.7921 14.7094
36.839 14.6414
36.8861 14.6079
36.9331 14.5204
36.9802 14.5796
37.0272 14.4445
37.0743 14.382
37.1213 14.3947
37.1684 14.3688
37.2154 14.2619
37.2626 14.2574
37.3098 14.2282
37.3568 14.1363
37.404 14.1659
37.451 14.0223
37.4982 13.9948
37.5452 14.0028
37.5924 13.9512
37.6395 13.905
37.6867 13.9132
37.7337 13.8057
37.781 13.7419
37.8281 13.7145
37.8753 13.6968
37.9224 13.6821
37.9697 13.6148
38.0168 13.605
38.064 13.5745
38.1111 13.501
38.1584 13.4392
38.2056 13.4402
38.2529 13.3106
38.3 13.3134
38.3473 13.2885
38.3945 13.1903
38.4418 13.1487
38.489 13.1931
38.5363 13.1267
38.5837 13.0595
38.6309 12.9716
38.6782 12.9934
38.7254 12.9302
38.7728 12.9038
38.82 12.9302
38.8674 12.8227
38.9146 12.8081
38.9621 12.7624
39.0093 12.7528
39.0567 12.7466
39.104 12.6372
39.1514 12.5759
39.1987 12.5786
39.2461 12.5224
39.2934 12.5102
39.3409 12.4931
39.3882 12.3821
39.4356 12.3691
39.483 12.3349
39.5304 12.3107
39.5778 12.2806
39.6253 12.2597
39.6726 12.2258
39.7201 12.1978
39.7675 12.0922
39.815 12.0909
39.8624 12.0813
39.9099 12.018
39.9575 11.9959
40.0049 11.9489
40.0525 11.8791
40.0999 11.8836
40.1474 11.8463
40.1949 11.8103
40.2425 11.7407
40.2899 11.7535
40.3375 11.7604
40.385 11.6689
40.4326 11.6366
40.48 11.604
40.5277 11.5865
40.5752 11.5197
40.6228 11.4501
40.6703 11.4902
40.718 11.4302
40.7655 11.4038
40.8132 11.3545
40.8607 11.3202
40.9084 11.3214
40.9559 11.2582
41.0036 11.2234
41.0512 11.2109
41.0989 11.1989
41.1465 11.1368
41.1942 11.1178
41.242 11.0504
41.2896 10.9515
41.3373 10.9477
41.3849 10.9692
41.4327 10.866
41.4803 10.8254
41.5281 10.8213
41.5758 10.7786
41.6236 10.7748
41.6712 10.7688
41.7191 10.6859
41.7667 10.6336
41.8146 10.639
41.8622 10.5614
41.9101 10.5888
41.9578 10.5291
42.0057 10.4907
42.0534 10.4514
42.1013 10.4292
42.149 10.4067
42.1969 10.3068
42.2446 10.3311
42.2925 10.3344
42.3403 10.2453
42.3882 10.2203
42.436 10.2144
42.4839 10.1197
42.5319 10.1233
42.5797 10.0995
42.6277 10.0914
42.6755 10.0609
42.7235 9.9528
42.7713 9.98134
42.8193 9.94514
42.8671 9.88321
42.9152 9.87792
42.963 9.84648
43.0111 9.81262
43.0589 9.73725
43.107 9.7387
43.1549 9.69023
43.2029 9.66511
43.2508 9.64925
43.2989 9.62148
43.3468 9.52451
43.3949 9.55361
43.4429 9.55937
43.491 9.47563
43.5389 9.41937
43.5871 9.44302
43.635 9.35934
43.6832 9.38672
43.7312 9.30751
43.7793 9.29439
43.8273 9.30411
43.8755 9.26759
43.9237 9.23396
43.9717 9.16708
44.0199 9.12986
44.068 9.13351
44.1162 9.06553
44.1642 9.07986
44.2125 8.99303
44.2606 8.97374
44.3088 8.93807
44.3569 8.94676
44.4052 8.90769
44.4533 8.85245
44.5016 8.86633
44.5497 8.81874
44.598 8.77512
44.6461 8.74153
44.6945 8.72213
44.7426 8.70662
44.791 8.68501
44.8391 8.6857
44.8875 8.57473
44.9357 8.5638
44.984 8.55577
45.0322 8.50727
45.0806 8.49598
45.1288 8.49506
45.1773 8.45171
45.2257 8.39568
45.2739 8.3418
45.3224 8.31896
45.3706 8.35308
45.4191 8.26721
45.4673 8.22577
45.5158 8.26893
45.5641 8.17381
45.6126 8.17743
45.6609 8.14881
45.7094 8.10884
45.7577 8.12474
45.8063 8.05993
45.8546 8.04513
45.9031 7.99284
45.9515 7.97681
46.0001 7.93658
46.0484 7.93626
46.097 7.9295
46.1454 7.89674
46.194 7.86924
46.2424 7.82676
46.291 7.79489
46.3395 7.77054
46.3881 7.7569
46.4365 7.76233
46.4852 7.69715
46.5337 7.64248
46.5823 7.66327
46.631 7.57559
46.6795 7.57055
46.7282 7.54791
46.7767 7.49491
46.8254 7.47863
46.8739 7.41744
46.9226 7.44116
46.9712 7.42222
47.0199 7.36272
47.0685 7.34387
47.1173 7.34325
47.1658 7.33408
47.2146 7.31066
47.2632 7.25683
47.312 7.21015
47.3606 7.22711
47.4095 7.15465
47.4581 7.17788
47.5069 7.16847
47.5556 7.10779
47.6044 7.08404
47.6531 7.03544
47.702 6.99921
47.7507 7.00774
47.7996 6.95263
47.8483 7.00224
47.8972 6.9321
47.9461 6.90772
47.9948 6.8476
48.0438 6.8459
48.0925 6.87553
48.1415 6.80704
48.1902 6.81832
48.2392 6.7815
48.288 6.74858
48.337 6.69759
48.3858 6.64769
48.4348 6.65299
48.4837 6.63599
48.5327 6.64083
48.5815 6.61615
48.6306 6.5945
48.6795 6.5896
48.7285 6.52631
48.7774 6.52146
48.8265 6.48831
48.8754 6.44906
48.9245 6.45116
48.9734 6.39841
49.0226 6.39728
49.0715 6.37294
49.1206 6.32846
49.1696 6.3151
49.2188 6.29468
49.2679 6.28263
49.3169 6.24371
49.3661 6.20874
49.4151 6.17918
49.4643 6.20306
49.5134 6.18059
49.5626 6.11762
49.6117 6.10097
49.6609 6.10089
49.71 6.07179
49.7592 6.04276
49.8083 6.04981
49.8576 6.02728
49.9067 5.98818
49.956 5.96129
50.0052 5.93763
50.0545 5.93736
50.1036 5.89836
50.153 5.89564
50.2022 5.8672
50.2515 5.8196
50.3007 5.78859
50.3501 5.78904
50.3993 5.77538
50.4487 5.74662
50.498 5.75519
50.5474 5.73218
50.5966 5.67925
50.6461 5.63556
50.6955 5.67532
50.7448 5.62675
50.7943 5.62275
50.8436 5.58887
50.8931 5.54697
50.9424 5.55066
50.9919 5.51481
51.0413 5.52563
51.0908 5.48757
51.1402 5.44922
51.1897 5.4407
51.2391 5.42564
51.2887 5.42201
51.3381 5.37221
51.3877 5.3695
51.4371 5.33928
51.4867 5.31206
51.5362 5.30422
51.5858 5.27726
51.6353 5.21287
51.6849 5.19382
51.7344 5.19275
51.7841 5.19107
51.8336 5.16989
51.8833 5.16102
51.9328 5.14957
51.9826 5.10616
52.0323 5.10676
52.0818 5.06255
52.1316 5.05415
52.1812 5.03225
52.231 5.02339
52.2806 4.99672
52.3304 4.98328
52.38 4.93451
52.4298 4.94768
52.4794 4.9026
52.5293 4.88474
52.5789 4.8728
52.6288 4.8565
52.6785 4.82862
52.7284 4.78753
52.7781 4.79675
52.828 4.76555
52.8777 4.75972
52.9276 4.75724
52.9774 4.68667
53.0273 4.72622
53.0771 4.67042
53.1271 4.6946
53.1769 4.64026
53.2269 4.64104
53.2767 4.61813
53.3267 4.6017
53.3765 4.5813
53.4266 4.5638
53.4766 4.50798
53.5265 4.47872
53.5765 4.53609
53.6264 4.46607
53.6765 4.44076
53.7264 4.40472
53.7765 4.43747
53.8265 4.40751
53.8766 4.3839
53.9266 4.34569
53.9767 4.31218
54.0267 4.31393
54.0769 4.28369
54.1269 4.23501
54.1771 4.20513
54.2271 4.23556
54.2773 4.17867
54.3274 4.14248
54.3776 4.12601
54.4277 4.12215
54.478 4.08514
54.528 4.05468
54.5783 3.99004
54.6285 3.98406
54.6788 3.93779
54.7289 3.9065
54.7792 3.89397
54.8296 3.8432
54.8798 3.80345
54.9301 3.80973
54.9803 3.74036
55.0307 3.76338
55.0809 3.67673
55.1314 3.7044
55.1816 3.65719
55.232 3.59634
55.2823 3.61889
55.3328 3.56513
55.383 3.49047
55.4335 3.44241
55.4838 3.38354
55.5344 3.38405
55.5847 3.38742
55.6352 3.34264
55.6856 3.34219
55.7361 3.27144