File: XRD/Ni3Fe_FD0221.xy
TT I
1.27165 8.05128
1.31627 7.43772
1.36089 7.23694
1.40551 7.02968
1.45013 6.75948
1.49476 6.91281
1.53938 5.88101
1.584 5.97314
1.62863 5.98368
1.67325 5.53209
1.71787 5.24688
1.7625 5.82643
1.80712 5.71192
1.85174 5.18665
1.89636 4.96901
1.94099 5.32495
1.98562 4.98977
2.03025 5.19358
2.07487 4.73848
2.11949 4.91094
2.16411 4.53924
2.20874 4.89761
2.25338 3.79464
2.298 4.31818
2.34263 4.7098
2.38725 4.57514
2.43188 4.65613
2.4765 5.27614
2.52115 4.63099
2.56577 5.4844
2.6104 5.59596
2.65503 5.7509
2.69965 5.90327
2.7443 7.08364
2.78893 6.23153
2.83356 7.17035
2.87818 8.15792
2.92281 8.39863
2.96744 9.55029
3.01209 10.1305
3.05672 10.8088
3.10135 12.4802
3.14599 13.5312
3.19062 13.9701
3.23527 14.9706
3.2799 16.1087
3.32454 16.848
3.36917 17.9339
3.4138 18.768
3.45844 19.7003
3.50309 21.1398
3.54773 21.4543
3.59237 22.6463
3.637 22.8803
3.68164 24.0928
3.7263 25.2884
3.77094 25.6989
3.81558 26.7927
3.86022 27.6797
3.90486 29.0238
3.9495 29.895
3.99416 31.116
4.0388 32.7683
4.08344 34.1724
4.12809 35.1494
4.17273 36.7064
4.21738 38.2347
4.26204 39.1977
4.30669 39.8536
4.35133 42.6878
4.39598 44.162
4.44063 47.0319
4.4853 48.4386
4.52995 52.3301
4.5746 54.2665
4.61925 55.634
4.6639 58.2359
4.70855 61.1014
4.75322 65.1028
4.79788 67.9109
4.84253 71.8053
4.88719 77.0515
4.93184 81.6613
4.97652 88.693
5.02118 96.7467
5.06583 107.706
5.11049 124.419
5.15515 169.059
5.19981 891.942
5.24449 3976.5
5.28916 10609.7
5.33382 4263.49
5.37848 275.751
5.42315 154.8
5.46783 129.435
5.5125 118.724
5.55716 112.302
5.60183 107.035
5.6465 104.364
5.69117 103.23
5.73586 101.133
5.78053 101.843
5.8252 102.406
5.86988 104.383
5.91455 111.02
5.95924 133.774
6.00392 447.885
6.0486 1420.99
6.09328 3586.49
6.13795 3692.33
6.18263 381.763
6.22733 110.382
6.27201 89.4465
6.3167 81.3438
6.36138 76.6177
6.40606 73.2737
6.45075 71.0048
6.49545 68.9906
6.54014 67.2932
6.58483 65.7523
6.62952 64.0999
6.67421 62.6453
6.71892 61.7244
6.76361 60.9261
6.8083 59.9307
6.853 59.3131
6.89769 58.6686
6.94239 58.125
6.98711 57.4163
7.03181 57.2848
7.07651 57.0788
7.12121 56.5035
7.16591 56.565
7.21063 55.8879
7.25533 55.8935
7.30004 55.6833
7.34475 55.7897
7.38945 56.0869
7.43416 55.6539
7.47889 55.4124
7.5236 56.3546
7.56831 56.8299
7.61303 57.085
7.65774 57.2756
7.70247 58.0617
7.74719 58.2835
7.79191 59.1262
7.83663 59.2838
7.88135 59.9761
7.92607 61.5161
7.97081 62.6613
8.01553 63.6277
8.06026 65.4787
8.10498 66.6957
8.14971 68.9113
8.19446 70.6835
8.23919 73.2566
8.28392 76.301
8.32865 79.1365
8.37339 84.8234
8.41812 90.4366
8.46288 110.507
8.50761 291.345
8.55235 589.192
8.59709 1057.38
8.64183 1959.39
8.68658 1218.88
8.73134 223.062
8.77609 111.265
8.82083 100.285
8.86558 96.1949
8.91033 93.5968
8.9551 90.83
8.99985 89.5825
9.04461 88.619
9.08936 87.9575
9.13412 87.2909
9.17888 86.7688
9.22365 86.7623
9.26841 87.157
9.31318 87.9891
9.35794 88.0718
9.4027 88.4649
9.44749 89.3677
9.49226 89.7319
9.53703 90.9106
9.5818 92.9687
9.62657 94.4344
9.67134 95.7945
9.71614 97.5577
9.76091 100.385
9.80569 103.187
9.85047 106.692
9.89525 113.093
9.94005 135.951
9.98484 303.822
10.0296 521.757
10.0744 796.266
10.1192 1449.36
10.164 1726.61
10.2088 576.089
10.2536 151.047
10.2984 118.24
10.3432 113.388
10.388 115.168
10.4328 159.098
10.4776 212.844
10.5224 280.593
10.5672 436.451
10.612 536.222
10.6568 258.4
10.7017 108.822
10.7465 92.4992
10.7913 88.198
10.8361 85.9041
10.8809 83.4365
10.9257 81.2564
10.9706 79.6047
11.0154 77.5565
11.0602 76.3737
11.105 74.8252
11.1499 73.3286
11.1947 72.3757
11.2395 71.5545
11.2844 70.5997
11.3292 69.9701
11.374 69.4896
11.4189 68.6464
11.4637 67.8663
11.5086 66.9628
11.5534 67.0188
11.5983 66.3394
11.6431 66.7051
11.688 65.6762
11.7328 65.7526
11.7777 65.4803
11.8225 65.2296
11.8674 65.5962
11.9122 65.7781
11.9571 66.274
12.002 68.5229
12.0468 80.0461
12.0917 94.6531
12.1366 108.835
12.1814 139.863
12.2263 191.213
12.2712 187.44
12.3161 104.073
12.3609 70.5834
12.4058 67.4209
12.4507 67.2821
12.4956 67.5365
12.5405 67.3762
12.5853 67.9463
12.6302 68.392
12.6751 68.808
12.72 69.7432
12.7649 70.8493
12.8098 71.8589
12.8547 73.1459
12.8996 75.0533
12.9445 76.5782
12.9894 78.7589
13.0343 80.7188
13.0792 86.5192
13.1242 110.748
13.1691 147.981
13.214 174.734
13.2589 227.858
13.3038 318.168
13.3487 418.383
13.3937 310.673
13.4386 150.809
13.4835 134.268
13.5285 153.895
13.5734 174.371
13.6183 224.744
13.6633 307.283
13.7082 356.628
13.7531 231.765
13.7981 112.565
13.843 87.362
13.888 84.2118
13.9329 81.5826
13.9779 80.1345
14.0228 78.9181
14.0678 77.0735
14.1127 76.3315
14.1577 75.3885
14.2027 74.8276
14.2476 74.1306
14.2926 73.4418
14.3376 73.1923
14.3825 72.9634
14.4275 72.4038
14.4725 72.6303
14.5175 72.5793
14.5624 72.5713
14.6074 72.9621
14.6524 73.5828
14.6974 74.5969
14.7424 80.9145
14.7874 95.4432
14.8324 106.802
14.8774 119.71
14.9224 144.299
14.9674 185.258
15.0124 222.207
15.0574 173.423
15.1024 103.32
15.1474 77.0862
15.1924 74.2377
15.2374 72.5251
15.2824 71.6126
15.3274 70.6857
15.3725 70.404
15.4175 70.005
15.4625 69.4855
15.5076 69.3402
15.5526 69.2792
15.5976 69.8884
15.6426 74.9377
15.6877 86.4672
15.7327 95.2829
15.7778 103.478
15.8228 121.492
15.8679 151.603
15.9129 188.596
15.958 177.804
16.003 113.962
16.0481 73.5646
16.0931 65.947
16.1382 63.9654
16.1833 63.2574
16.2283 61.7143
16.2734 61.0038
16.3185 60.3278
16.3636 59.6127
16.4086 58.9372
16.4537 58.3926
16.4988 58.1332
16.5439 58.0853
16.589 57.6284
16.6341 57.5934
16.6792 57.1485
16.7243 57.3149
16.7694 57.1342
16.8145 57.224
16.8596 57.38
16.9047 57.473
16.9498 57.9138
16.9949 58.0102
17.04 59.3086
17.0851 62.1524
17.1302 63.957
17.1754 65.7861
17.2205 68.6735
17.2656 73.8567
17.3108 81.9161
17.3559 85.6425
17.401 77.5038
17.4462 66.8453
17.4913 62.5752
17.5365 62.2509
17.5815 61.9686
17.6268 62.7257
17.6718 63.2041
17.7171 63.7338
17.7622 64.5111
17.8074 66.5042
17.8525 72.3523
17.8977 78.3313
17.9428 82.7806
17.9881 88.0385
18.0331 99.1858
18.0784 114.748
18.1237 139.251
18.1688 145.036
18.214 119.453
18.2591 93.9053
18.3044 90.3181
18.3495 96.7308
18.3948 106.566
18.4399 102.905
18.4852 84.4431
18.5303 70.4977
18.5756 65.595
18.6207 64.4603
18.666 63.5599
18.7112 62.8537
18.7565 62.0297
18.8016 61.6685
18.8469 61.1525
18.892 60.7186
18.9374 60.3256
18.9825 59.8033
19.0278 59.9267
19.073 60.365
19.1183 61.4767
19.1635 62.1197
19.2088 63.0207
19.254 64.5725
19.2993 67.5213
19.3447 71.1581
19.3898 76.1985
19.4352 76.2787
19.4804 68.7958
19.5257 60.6223
19.5709 57.0496
19.6163 56.5853
19.6615 56.5515
19.7068 55.8894
19.752 56.2859
19.7974 57.1311
19.8426 58.1885
19.888 58.9352
19.9332 59.6432
19.9786 61.436
20.0238 64.0684
20.0692 68.4006
20.1144 72.6209
20.1598 72.9036
20.205 67.9817
20.2504 64.4484
20.2957 64.3887
20.3411 66.9349
20.3863 67.639
20.4318 62.5975
20.477 56.999
20.5224 53.9089
20.5677 53.0618
20.6131 52.4662
20.6586 52.0773
20.7038 51.8849
20.7493 51.4218
20.7945 51.3216
20.84 51.3323
20.8853 51.1618
20.9307 51.0869
20.976 51.4131
21.0215 51.2742
21.0668 51.4809
21.1122 51.8687
21.1575 52.1628
21.203 52.5826
21.2483 53.4083
21.2938 53.9696
21.3391 52.8528
21.3846 51.739
21.4299 50.8696
21.4754 50.9507
21.5207 51.2268
21.5662 51.8687
21.6116 52.8923
21.6571 53.6255
21.7024 54.3784
21.7479 55.5225
21.7933 57.4818
21.8388 60.0804
21.8843 63.5427
21.9297 66.8246
21.9752 66.9983
22.0206 63.436
22.0661 58.9522
22.1115 57.727
22.157 58.4253
22.2024 57.5106
22.248 54.8968
22.2933 52.6921
22.3389 51.5137
22.3843 51.3135
22.4299 50.8612
22.4753 50.9392
22.5208 50.9264
22.5662 50.8801
22.6118 51.5022
22.6572 52.0741
22.7028 52.5893
22.7483 52.9283
22.7939 53.2668
22.8393 54.2842
22.8849 55.5382
22.9303 56.9001
22.9759 59.1714
23.0214 60.0317
23.067 58.1943
23.1126 54.5959
23.1581 52.088
23.2037 51.4977
23.2492 51.8886
23.2948 52.161
23.3403 52.4982
23.3859 52.6529
23.4314 53.2454
23.477 54.2341
23.5225 55.6237
23.5682 57.6571
23.6137 59.8014
23.6593 59.0385
23.7048 55.5036
23.7505 51.3873
23.796 49.2749
23.8417 48.3968
23.8872 47.7079
23.9329 47.4184
23.9784 47.2053
24.0241 46.7884
24.0697 46.5778
24.1154 46.3212
24.1609 46.1628
24.2066 45.9742
24.2522 45.8801
24.2979 45.5025
24.3434 45.4422
24.3892 45.0867
24.4349 45.0592
24.4805 44.945
24.5262 45.1257
24.5718 45.0834
24.6175 44.9924
24.6631 44.8522
24.7089 44.5093
24.7545 44.4652
24.8002 44.3589
24.8458 44.4859
24.8916 44.3036
24.9372 44.4403
24.983 44.879
25.0286 45.1273
25.0744 45.4194
25.12 45.6511
25.1658 46.297
25.2114 46.5765
25.2572 46.5586
25.3029 46.4933
25.3487 46.6858
25.3943 46.7892
25.4402 46.0208
25.4858 44.8656
25.5316 43.854
25.5773 42.9474
25.6231 42.8736
25.669 42.6299
25.7147 42.6256
25.7605 42.4092
25.8062 42.5015
25.8521 42.7115
25.8977 42.4935
25.9436 42.8358
25.9893 42.6872
26.0352 43.184
26.0809 43.2033
26.1268 43.6851
26.1725 43.667
26.2184 43.1338
26.2641 42.4329
26.31 42.2353
26.3557 42.2493
26.4017 42.1064
26.4474 42.4464
26.4933 42.5545
26.5391 42.9319
26.585 43.2154
26.6308 43.6228
26.6767 43.9285
26.7225 43.9719
26.7684 43.4105
26.8142 42.769
26.8601 42.2972
26.9059 42.066
26.9519 41.5634
26.9979 41.2092
27.0437 40.799
27.0896 40.5468
27.1354 40.6748
27.1814 40.6465
27.2272 40.5246
27.2732 40.4095
27.3191 40.2573
27.3651 40.3053
27.4109 40.1773
27.4569 40.3526
27.5027 40.299
27.5488 40.3858
27.5946 40.3195
27.6407 40.1798
27.6865 40.0463
27.7326 39.9194
27.7784 39.8507
27.8245 39.7699
27.8703 39.8575
27.9164 39.928
27.9623 39.9681
28.0084 40.1942
28.0543 40.6746
28.1003 40.6279
28.1462 40.5416
28.1923 40.3475
28.2384 39.8302
28.2843 39.4145
28.3304 39.0161
28.3764 38.4671
28.4225 38.0442
28.4684 37.9874
28.5145 37.7471
28.5605 37.6719
28.6066 37.4039
28.6526 37.3808
28.6987 37.3071
28.7447 37.2209
28.7908 36.9439
28.8368 36.9933
28.8829 36.9361
28.9289 37.039
28.9751 36.9691
29.0211 36.6213
29.0673 36.3569
29.1133 36.1683
29.1595 35.9213
29.2055 36.0844
29.2517 35.819
29.2977 35.822
29.3439 35.7478
29.3899 35.7385
29.4361 35.5883
29.4824 35.4961
29.5284 35.4812
29.5746 35.014
29.6207 34.6298
29.6669 34.6863
29.713 34.6042
29.7593 34.5179
29.8053 34.4143
29.8516 34.4092
29.8977 34.3238
29.9439 34.1571
29.99 34.0456
30.0363 34.0379
30.0824 34.092
30.1287 33.9074
30.1748 33.9225
30.2211 33.9282
30.2673 33.9288
30.3136 33.9481
30.3597 33.8681
30.406 33.7981
30.4522 33.5438
30.4985 33.587
30.5447 33.6555
30.591 33.6286
30.6372 33.6542
30.6835 33.5928
30.7297 33.5701
30.7761 33.5772
30.8224 33.5191
30.8686 33.4417
30.915 33.0997
30.9612 33.029
31.0076 32.7747
31.0538 32.5948
31.1002 32.6533
31.1464 32.4619
31.1928 32.3504
31.2391 32.4426
31.2855 32.3195
31.3317 32.2497
31.3781 32.3494
31.4244 32.3414
31.4708 32.2945
31.5171 32.2208
31.5636 32.2177
31.6098 31.9163
31.6563 31.7775
31.7026 31.6748
31.7491 31.5598
31.7953 31.5557
31.8418 31.533
31.8881 31.4648
31.9346 31.4969
31.9809 31.4059
32.0275 31.3008
32.074 31.2736
32.1203 31.0711
32.1668 30.9219
32.2132 30.7628
32.2597 30.6609
32.306 30.6402
32.3526 30.3733
32.399 30.301
32.4455 30.1689
32.4919 30.039
32.5385 29.9909
32.5848 29.8661
32.6314 29.8601
32.6778 29.762
32.7244 29.6523
32.7708 29.5784
32.8174 29.5629
32.8638 29.2927
32.9104 29.459
32.9569 29.3989
33.0035 29.2143
33.0499 29.0579
33.0966 29.1527
33.143 29.0528
33.1897 29.0101
33.2361 28.8342
33.2828 28.8957
33.3293 28.6544
33.3759 28.6412
33.4226 28.5734
33.4691 28.4254
33.5158 28.2285
33.5623 28.2139
33.609 27.9265
33.6555 27.9626
33.7022 27.837
33.7487 27.7231
33.7954 27.767
33.842 27.6693
33.8887 27.5167
33.9353 27.4568
33.982 27.39
34.0286 27.359
34.0753 27.1666
34.1219 27.058
34.1687 27.121
34.2152 26.9901
34.262 26.9644
34.3086 26.8742
34.3554 26.6987
34.402 26.5907
34.4488 26.4932
34.4954 26.4445
34.5422 26.3857
34.5889 26.2387
34.6357 26.1773
34.6825 26.1241
34.7292 25.9847
34.776 25.833
34.8227 25.8543
34.8695 25.8476
34.9162 25.7913
34.9631 25.6414
35.0098 25.655
35.0566 25.5008
35.1033 25.388
35.1502 25.423
35.1969 25.3193
35.2438 25.2958
35.2906 25.1938
35.3375 25.1239
35.3842 25.025
35.4311 25.0571
35.4779 25.0071
35.5248 25.0361
35.5716 24.8535
35.6185 24.8571
35.6653 24.6737
35.7123 24.5778
35.759 24.6189
35.806 24.4319
35.8528 24.2851
35.8998 24.3278
35.9468 24.2651
35.9936 24.1617
36.0406 24.1174
36.0874 24.0846
36.1345 23.9442
36.1813 23.9072
36.2283 23.8146
36.2752 23.6838
36.3222 23.7004
36.3691 23.6066
36.4161 23.4992
36.463 23.5088
36.5101 23.4679
36.557 23.3656
36.6041 23.2094
36.651 23.2388
36.6981 23.1482
36.745 23.078
36.7921 23.073
36.839 22.988
36.8861 22.8969
36.9331 22.8074
36.9802 22.6652
37.0272 22.5265
37.0743 22.5011
37.1213 22.4999
37.1684 22.3794
37.2154 22.3256
37.2626 22.2803
37.3098 22.1967
37.3568 22.1326
37.404 22.0845
37.451 21.9682
37.4982 21.9609
37.5452 21.8055
37.5924 21.7321
37.6395 21.7055
37.6867 21.6634
37.7337 21.594
37.781 21.4568
37.8281 21.4289
37.8753 21.3687
37.9224 21.2847
37.9697 21.2667
38.0168 21.1606
38.064 21.1159
38.1111 21.0581
38.1584 20.926
38.2056 20.8804
38.2529 20.8663
38.3 20.7226
38.3473 20.7099
38.3945 20.5739
38.4418 20.6119
38.489 20.583
38.5363 20.4487
38.5837 20.3045
38.6309 20.3231
38.6782 20.2845
38.7254 20.2087
38.7728 20.1278
38.82 20.0607
38.8674 19.9609
38.9146 19.8805
38.9621 19.8061
39.0093 19.8052
39.0567 19.7043
39.104 19.6959
39.1514 19.5738
39.1987 19.5857
39.2461 19.4772
39.2934 19.4844
39.3409 19.4215
39.3882 19.2736
39.4356 19.2508
39.483 19.1114
39.5304 19.1185
39.5778 19.0995
39.6253 18.9245
39.6726 18.9844
39.7201 18.8723
39.7675 18.7882
39.815 18.786
39.8624 18.6553
39.9099 18.653
39.9575 18.5144
40.0049 18.5457
40.0525 18.3869
40.0999 18.4052
40.1474 18.3471
40.1949 18.2627
40.2425 18.2372
40.2899 18.1962
40.3375 18.1591
40.385 18.0489
40.4326 18.0032
40.48 17.9739
40.5277 17.9253
40.5752 17.8473
40.6228 17.7497
40.6703 17.6969
40.718 17.6338
40.7655 17.6327
40.8132 17.5353
40.8607 17.5273
40.9084 17.456
40.9559 17.4147
41.0036 17.3513
41.0512 17.2776
41.0989 17.2168
41.1465 17.1874
41.1942 17.0936
41.242 16.9593
41.2896 16.9727
41.3373 16.8569
41.3849 16.9309
41.4327 16.8107
41.4803 16.7271
41.5281 16.704
41.5758 16.6236
41.6236 16.5686
41.6712 16.4835
41.7191 16.4631
41.7667 16.4402
41.8146 16.3698
41.8622 16.283
41.9101 16.2865
41.9578 16.1655
42.0057 16.1389
42.0534 16.1134
42.1013 16.0858
42.149 15.9464
42.1969 15.8656
42.2446 15.9014
42.2925 15.8767
42.3403 15.8182
42.3882 15.7465
42.436 15.6664
42.4839 15.6427
42.5319 15.6054
42.5797 15.4594
42.6277 15.4601
42.6755 15.3815
42.7235 15.3448
42.7713 15.2911
42.8193 15.2432
42.8671 15.2243
42.9152 15.1386
42.963 15.0655
43.0111 15.0544
43.0589 14.9843
43.107 14.9406
43.1549 14.8726
43.2029 14.8231
43.2508 14.7536
43.2989 14.7497
43.3468 14.674
43.3949 14.6076
43.4429 14.5669
43.491 14.5521
43.5389 14.4842
43.5871 14.4679
43.635 14.3209
43.6832 14.3444
43.7312 14.2076
43.7793 14.2329
43.8273 14.1987
43.8755 14.1589
43.9237 14.0464
43.9717 14.0634
44.0199 13.9673
44.068 13.9128
44.1162 13.8697
44.1642 13.8278
44.2125 13.8212
44.2606 13.7926
44.3088 13.6644
44.3569 13.6249
44.4052 13.5632
44.4533 13.5344
44.5016 13.4786
44.5497 13.4491
44.598 13.4039
44.6461 13.3515
44.6945 13.3272
44.7426 13.2298
44.791 13.1855
44.8391 13.2299
44.8875 13.12
44.9357 13.0978
44.984 13.025
45.0322 12.9816
45.0806 12.9293
45.1288 12.8746
45.1773 12.8522
45.2257 12.8002
45.2739 12.7569
45.3224 12.7479
45.3706 12.6559
45.4191 12.6242
45.4673 12.5876
45.5158 12.516
45.5641 12.4878
45.6126 12.443
45.6609 12.3917
45.7094 12.3472
45.7577 12.3045
45.8063 12.2581
45.8546 12.2433
45.9031 12.1702
45.9515 12.1193
46.0001 12.0966
46.0484 12.0705
46.097 11.9722
46.1454 11.9926
46.194 11.9148
46.2424 11.8855
46.291 11.8448
46.3395 11.789
46.3881 11.7368
46.4365 11.7144
46.4852 11.6659
46.5337 11.6532
46.5823 11.5555
46.631 11.4836
46.6795 11.4998
46.7282 11.4686
46.7767 11.4343
46.8254 11.3117
46.8739 11.3476
46.9226 11.2704
46.9712 11.1907
47.0199 11.1628
47.0685 11.1473
47.1173 11.1179
47.1658 11.0908
47.2146 11.0212
47.2632 10.987
47.312 10.9841
47.3606 10.877
47.4095 10.8665
47.4581 10.8159
47.5069 10.7679
47.5556 10.7047
47.6044 10.7222
47.6531 10.715
47.702 10.6213
47.7507 10.5485
47.7996 10.5734
47.8483 10.5061
47.8972 10.463
47.9461 10.4404
47.9948 10.4057
48.0438 10.3512
48.0925 10.3046
48.1415 10.2895
48.1902 10.2479
48.2392 10.2314
48.288 10.1602
48.337 10.1331
48.3858 10.1043
48.4348 10.0629
48.4837 10.047
48.5327 9.97912
48.5815 9.9451
48.6306 9.90366
48.6795 9.90271
48.7285 9.87142
48.7774 9.81186
48.8265 9.78136
48.8754 9.7512
48.9245 9.70808
48.9734 9.67407
49.0226 9.64061
49.0715 9.5769
49.1206 9.52596
49.1696 9.50783
49.2188 9.51227
49.2679 9.44288
49.3169 9.4024
49.3661 9.34192
49.4151 9.33441
49.4643 9.30276
49.5134 9.24359
49.5626 9.19305
49.6117 9.16538
49.6609 9.1409
49.71 9.08962
49.7592 9.06959
49.8083 9.02204
49.8576 9.02298
49.9067 8.97151
49.956 8.91532
50.0052 8.91985
50.0545 8.86821
50.1036 8.82546
50.153 8.7868
50.2022 8.77339
50.2515 8.7367
50.3007 8.71189
50.3501 8.66556
50.3993 8.65158
50.4487 8.6095
50.498 8.59812
50.5474 8.54284
50.5966 8.52257
50.6461 8.52398
50.6955 8.46751
50.7448 8.41605
50.7943 8.37403
50.8436 8.33267
50.8931 8.32575
50.9424 8.25789
50.9919 8.22543
51.0413 8.22017
51.0908 8.19788
51.1402 8.15316
51.1897 8.09626
51.2391 8.07628
51.2887 8.01557
51.3381 7.96215
51.3877 7.99693
51.4371 7.91434
51.4867 7.90818
51.5362 7.91416
51.5858 7.83507
51.6353 7.80925
51.6849 7.7989
51.7344 7.75571
51.7841 7.72907
51.8336 7.68797
51.8833 7.64838
51.9328 7.61631
51.9826 7.56025
52.0323 7.51803
52.0818 7.52435
52.1316 7.49709
52.1812 7.48516
52.231 7.43617
52.2806 7.34723
52.3304 7.36789
52.38 7.34663
52.4298 7.29459
52.4794 7.24323
52.5293 7.21551
52.5789 7.22227
52.6288 7.20943
52.6785 7.1512
52.7284 7.11196
52.7781 7.11367
52.828 7.06918
52.8777 7.03382
52.9276 6.99745
52.9774 7.03183
53.0273 6.97017
53.0771 6.94341
53.1271 6.92345
53.1769 6.86306
53.2269 6.83567
53.2767 6.77982
53.3267 6.7499
53.3765 6.7475
53.4266 6.70654
53.4766 6.70867
53.5265 6.6671
53.5765 6.61137
53.6264 6.61025
53.6765 6.57564
53.7264 6.54855
53.7765 6.51399
53.8265 6.51943
53.8766 6.48728
53.9266 6.44575
53.9767 6.41842
54.0267 6.40722
54.0769 6.34821
54.1269 6.31799
54.1771 6.24947
54.2271 6.23234
54.2773 6.16496
54.3274 6.16255
54.3776 6.11375
54.4277 6.07526
54.478 6.08251
54.528 6.00302
54.5783 5.95935
54.6285 5.93642
54.6788 5.86638
54.7289 5.81292
54.7792 5.82505
54.8296 5.72589
54.8798 5.70059
54.9301 5.71087
54.9803 5.61834
55.0307 5.63979
55.0809 5.57504
55.1314 5.52671
55.1816 5.47722
55.232 5.45323
55.2823 5.34134
55.3328 5.29409
55.383 5.30831
55.4335 5.19911
55.4838 5.15509
55.5344 5.10846
55.5847 5.111
55.6352 5.02423
55.6856 5.04646
55.7361 5.05035