File: XRD/Ni3Fe_FD0737.xy
TT I
1.27165 7.75009
1.31627 6.50335
1.36089 6.38565
1.40551 5.36645
1.45013 6.25571
1.49476 5.96774
1.53938 5.66461
1.584 5.5799
1.62863 5.50137
1.67325 5.15929
1.71787 5.02815
1.7625 4.4595
1.80712 4.68016
1.85174 4.78957
1.89636 4.76495
1.94099 5.16845
1.98562 4.61506
2.03025 5.14473
2.07487 3.88778
2.11949 5.27461
2.16411 5.10164
2.20874 13.7493
2.25338 22.0498
2.298 5.94934
2.34263 5.19897
2.38725 5.68677
2.43188 6.18636
2.4765 6.4453
2.52115 7.54042
2.56577 8.29673
2.6104 7.79741
2.65503 8.04723
2.69965 8.60477
2.7443 8.46775
2.78893 7.87557
2.83356 7.90602
2.87818 8.14211
2.92281 8.65123
2.96744 9.25714
3.01209 9.73836
3.05672 10.7299
3.10135 12.084
3.14599 13.4028
3.19062 13.8694
3.23527 15.1151
3.2799 15.6896
3.32454 16.921
3.36917 17.8401
3.4138 19.1741
3.45844 19.5077
3.50309 20.7967
3.54773 21.371
3.59237 23.9791
3.637 90.7419
3.68164 57.9511
3.7263 26.2113
3.77094 26.1464
3.81558 26.99
3.86022 27.2452
3.90486 29.0842
3.9495 29.9254
3.99416 30.9969
4.0388 32.4555
4.08344 33.74
4.12809 34.8595
4.17273 36.5466
4.21738 42.5179
4.26204 241.265
4.30669 213.332
4.35133 48.41
4.39598 44.2453
4.44063 53.925
4.4853 64.9485
4.52995 50.1867
4.5746 50.8171
4.61925 53.0534
4.6639 55.4704
4.70855 58.0324
4.75322 60.8485
4.79788 63.4695
4.84253 66.6832
4.88719 70.691
4.93184 74.6925
4.97652 80.3296
5.02118 85.8871
5.06583 92.8531
5.11049 103.615
5.15515 168.659
5.19981 321.29
5.24449 2751.88
5.28916 12671.3
5.33382 2870.59
5.37848 184.373
5.42315 127.956
5.46783 112.41
5.5125 104.737
5.55716 101.826
5.60183 97.9896
5.6465 96.6676
5.69117 93.303
5.73586 91.8382
5.78053 91.1922
5.8252 90.4622
5.86988 90.5851
5.91455 92.842
5.95924 99.5525
6.00392 190.323
6.0486 903.697
6.09328 4615.27
6.13795 3252.36
6.18263 238.852
6.22733 92.7062
6.27201 82.6156
6.3167 100.334
6.36138 79.7425
6.40606 69.0388
6.45075 67.3406
6.49545 64.9725
6.54014 63.4316
6.58483 62.5559
6.62952 62.7498
6.67421 93.6793
6.71892 140.749
6.76361 68.4271
6.8083 58.3912
6.853 57.2929
6.89769 56.7686
6.94239 56.3858
6.98711 55.5484
7.03181 55.4701
7.07651 55.4807
7.12121 54.7378
7.16591 55.1776
7.21063 55.2844
7.25533 69.8167
7.30004 175.005
7.34475 89.7103
7.38945 56.5208
7.43416 54.3085
7.47889 54.039
7.5236 54.7354
7.56831 55.1324
7.61303 57.0059
7.65774 57.3316
7.70247 55.9023
7.74719 55.9673
7.79191 56.294
7.83663 56.9332
7.88135 57.5602
7.92607 58.3206
7.97081 59.8545
8.01553 60.3918
8.06026 61.9227
8.10498 63.6477
8.14971 72.6578
8.19446 72.0035
8.23919 69.137
8.28392 71.3159
8.32865 73.2942
8.37339 77.7154
8.41812 84.7721
8.46288 111.502
8.50761 154.635
8.55235 366.818
8.59709 1155.41
8.64183 2161.85
8.68658 982.407
8.73134 163.083
8.77609 98.8638
8.82083 91.9758
8.86558 88.8704
8.91033 89.2538
8.9551 91.3565
8.99985 84.6181
9.04461 83.3019
9.08936 82.6514
9.13412 80.8029
9.17888 81.6574
9.22365 82.4561
9.26841 81.7159
9.31318 81.8894
9.35794 82.3022
9.4027 82.6547
9.44749 83.5512
9.49226 84.1838
9.53703 84.901
9.5818 86.8916
9.62657 91.6312
9.67134 97.8686
9.71614 93.0509
9.76091 92.9635
9.80569 95.4198
9.85047 99.4292
9.89525 122.669
9.94005 133.598
9.98484 165.794
10.0296 325.934
10.0744 796.004
10.1192 1758.5
10.164 1626.1
10.2088 409.927
10.2536 126.095
10.2984 112.192
10.3432 114.013
10.388 104.025
10.4328 114.815
10.4776 154.668
10.5224 278.842
10.5672 513.869
10.612 508.863
10.6568 207.478
10.7017 96.6772
10.7465 86.1819
10.7913 82.6284
10.8361 80.9607
10.8809 78.6345
10.9257 78.1843
10.9706 78.3215
11.0154 74.2164
11.0602 72.256
11.105 71.4501
11.1499 75.7699
11.1947 82.6434
11.2395 73.8929
11.2844 70.1084
11.3292 66.8945
11.374 65.8684
11.4189 65.4288
11.4637 64.8456
11.5086 65.1603
11.5534 67.9886
11.5983 65.2469
11.6431 63.5609
11.688 62.4718
11.7328 62.7427
11.7777 62.5895
11.8225 61.9264
11.8674 61.8854
11.9122 62.6072
11.9571 62.5675
12.002 63.1188
12.0468 66.5641
12.0917 77.0486
12.1366 101.087
12.1814 152.441
12.2263 201.2
12.2712 164.674
12.3161 98.7301
12.3609 70.2395
12.4058 64.1606
12.4507 63.8823
12.4956 63.8511
12.5405 64.2139
12.5853 65.2478
12.6302 73.1852
12.6751 78.1336
12.72 69.7186
12.7649 67.529
12.8098 68.0059
12.8547 69.3199
12.8996 70.3211
12.9445 71.7674
12.9894 73.5909
13.0343 75.3034
13.0792 78.3408
13.1242 86.0075
13.1691 108.333
13.214 145.325
13.2589 237.063
13.3038 371.796
13.3487 416.992
13.3937 265.323
13.4386 126.327
13.4835 103.082
13.5285 117.147
13.5734 155.492
13.6183 248.573
13.6633 348.898
13.7082 334.538
13.7531 185.334
13.7981 97.6585
13.843 81.5835
13.888 79.356
13.9329 76.546
13.9779 75.5229
14.0228 74.1187
14.0678 72.9063
14.1127 72.2118
14.1577 72.0095
14.2027 71.3096
14.2476 70.1008
14.2926 70.3423
14.3376 71.1681
14.3825 69.9839
14.4275 68.6134
14.4725 68.4531
14.5175 68.3874
14.5624 68.8061
14.6074 70.7474
14.6524 71.4999
14.6974 70.1358
14.7424 71.0321
14.7874 77.1064
14.8324 87.0477
14.8774 108.947
14.9224 152.35
14.9674 206.741
15.0124 214.395
15.0574 149.639
15.1024 91.2107
15.1474 71.9855
15.1924 70.2206
15.2374 70.7064
15.2824 69.9016
15.3274 67.6075
15.3725 66.5214
15.4175 65.9743
15.4625 66.0502
15.5076 65.9856
15.5526 65.7761
15.5976 65.4388
15.6426 65.834
15.6877 70.8491
15.7327 78.1098
15.7778 93.5471
15.8228 126.289
15.8679 171.916
15.9129 194.529
15.958 155.992
16.003 97.934
16.0481 68.2199
16.0931 64.4696
16.1382 62.2988
16.1833 60.6209
16.2283 58.7966
16.2734 58.1951
16.3185 58.3542
16.3636 59.1486
16.4086 57.5022
16.4537 56.0543
16.4988 55.4554
16.5439 55.1676
16.589 54.7743
16.6341 54.6683
16.6792 54.2698
16.7243 54.529
16.7694 54.5914
16.8145 54.5817
16.8596 54.995
16.9047 56.5508
16.9498 56.612
16.9949 55.545
17.04 55.5219
17.0851 56.6653
17.1302 58.0501
17.1754 61.1809
17.2205 66.4142
17.2656 74.4455
17.3108 82.4935
17.3559 82.2411
17.401 70.5247
17.4462 61.8159
17.4913 58.9356
17.5365 58.922
17.5815 58.8158
17.6268 59.4545
17.6718 60.0829
17.7171 60.6475
17.7622 60.847
17.8074 61.4224
17.8525 63.3601
17.8977 67.4525
17.9428 72.7372
17.9881 81.4576
18.0331 99.5521
18.0784 122.461
18.1237 138.23
18.1688 129.733
18.214 102.576
18.2591 86.5261
18.3044 90.4013
18.3495 100.216
18.3948 105.22
18.4399 95.4005
18.4852 77.117
18.5303 65.7807
18.5756 61.9443
18.6207 60.9401
18.666 59.9405
18.7112 59.4044
18.7565 58.7009
18.8016 58.4709
18.8469 57.7599
18.892 57.3746
18.9374 56.9795
18.9825 56.7958
19.0278 56.5006
19.073 56.8021
19.1183 57.069
19.1635 57.654
19.2088 58.8402
19.254 61.7065
19.2993 66.4303
19.3447 72.3861
19.3898 75.7766
19.4352 71.4178
19.4804 63.1691
19.5257 56.7188
19.5709 53.9505
19.6163 53.7833
19.6615 53.656
19.7068 53.1144
19.752 53.1515
19.7974 53.3969
19.8426 53.9406
19.888 54.6898
19.9332 55.8283
19.9786 58.4757
20.0238 62.3214
20.0692 67.3348
20.1144 69.4041
20.1598 67.4552
20.205 63.1504
20.2504 62.0567
20.2957 63.9307
20.3411 65.5423
20.3863 63.4997
20.4318 58.1697
20.477 53.5377
20.5224 51.4052
20.5677 50.8611
20.6131 50.1229
20.6586 49.6261
20.7038 49.327
20.7493 48.8325
20.7945 48.6586
20.84 48.5332
20.8853 48.5757
20.9307 48.3814
20.976 48.5068
21.0215 48.4473
21.0668 48.7656
21.1122 49.2456
21.1575 49.9054
21.203 50.6046
21.2483 51.3109
21.2938 51.1542
21.3391 49.8369
21.3846 48.7862
21.4299 48.2393
21.4754 48.1166
21.5207 48.3039
21.5662 48.4253
21.6116 48.8942
21.6571 49.6662
21.7024 50.4649
21.7479 52.364
21.7933 55.1831
21.8388 58.6722
21.8843 62.4079
21.9297 64.2688
21.9752 62.8565
22.0206 59.3528
22.0661 56.5871
22.1115 55.8156
22.157 55.7354
22.2024 53.9623
22.248 51.2476
22.2933 49.777
22.3389 48.7208
22.3843 48.7861
22.4299 48.5937
22.4753 48.7066
22.5208 48.3431
22.5662 48.1995
22.6118 48.6077
22.6572 48.7775
22.7028 48.754
22.7483 49.3202
22.7939 50.0342
22.8393 51.6224
22.8849 53.7256
22.9303 55.9136
22.9759 57.6551
23.0214 56.7918
23.067 54.321
23.1126 51.0561
23.1581 48.9546
23.2037 48.4124
23.2492 48.5343
23.2948 48.504
23.3403 48.741
23.3859 49.2953
23.4314 50.3309
23.477 52.373
23.5225 54.8572
23.5682 56.8818
23.6137 57.5157
23.6593 55.2329
23.7048 51.4791
23.7505 48.215
23.796 46.4273
23.8417 45.7839
23.8872 45.4962
23.9329 45.0576
23.9784 44.7212
24.0241 44.4413
24.0697 44.2946
24.1154 44.0102
24.1609 43.7559
24.2066 43.6428
24.2522 43.517
24.2979 43.2581
24.3434 43.1525
24.3892 42.9006
24.4349 43.0423
24.4805 42.6659
24.5262 42.9153
24.5718 42.7279
24.6175 42.7213
24.6631 42.7728
24.7089 42.3327
24.7545 42.2505
24.8002 42.1146
24.8458 42.0162
24.8916 41.7799
24.9372 41.8865
24.983 42.2017
25.0286 42.6076
25.0744 43.096
25.12 43.7039
25.1658 43.9574
25.2114 44.487
25.2572 44.5633
25.3029 44.7279
25.3487 44.7737
25.3943 44.3503
25.4402 43.1384
25.4858 42.2784
25.5316 41.2553
25.5773 40.7836
25.6231 40.824
25.669 40.4109
25.7147 40.3029
25.7605 40.2735
25.8062 40.2176
25.8521 40.3595
25.8977 40.4565
25.9436 40.6958
25.9893 40.8403
26.0352 41.2969
26.0809 41.3473
26.1268 41.5906
26.1725 41.1652
26.2184 40.6179
26.2641 40.0074
26.31 39.9797
26.3557 40.0803
26.4017 39.8953
26.4474 40.3845
26.4933 40.5416
26.5391 41.1842
26.585 41.4254
26.6308 41.944
26.6767 41.955
26.7225 41.819
26.7684 41.291
26.8142 40.5585
26.8601 40.2278
26.9059 39.8475
26.9519 39.3863
26.9979 39.1014
27.0437 38.6938
27.0896 38.4939
27.1354 38.5478
27.1814 38.3821
27.2272 38.2958
27.2732 38.4116
27.3191 38.1803
27.3651 38.375
27.4109 38.1319
27.4569 38.3726
27.5027 38.4174
27.5488 38.3335
27.5946 38.2316
27.6407 37.9151
27.6865 37.81
27.7326 37.5874
27.7784 37.6545
27.8245 37.5236
27.8703 37.8622
27.9164 38.1802
27.9623 38.1762
28.0084 38.6185
28.0543 38.8926
28.1003 38.7765
28.1462 38.6286
28.1923 38.2136
28.2384 37.8866
28.2843 37.5049
28.3304 36.9767
28.3764 36.5957
28.4225 36.2455
28.4684 36.0904
28.5145 35.7935
28.5605 35.6084
28.6066 35.5601
28.6526 35.5211
28.6987 35.4609
28.7447 35.5458
28.7908 35.3525
28.8368 35.3397
28.8829 35.3139
28.9289 35.122
28.9751 34.9942
29.0211 34.8482
29.0673 34.5565
29.1133 34.5626
29.1595 34.3179
29.2055 34.1237
29.2517 34.2006
29.2977 34.1079
29.3439 34.2125
29.3899 33.9207
29.4361 33.9839
29.4824 33.7875
29.5284 33.6059
29.5746 33.2716
29.6207 32.9575
29.6669 32.8853
29.713 32.9392
29.7593 32.7185
29.8053 32.8842
29.8516 32.6818
29.8977 32.6215
29.9439 32.3643
29.99 32.3986
30.0363 32.361
30.0824 32.4108
30.1287 32.3412
30.1748 32.2279
30.2211 32.3411
30.2673 32.186
30.3136 32.1433
30.3597 32.0423
30.406 32.04
30.4522 31.888
30.4985 31.9094
30.5447 32.0786
30.591 31.9294
30.6372 32.153
30.6835 32.1218
30.7297 32.1199
30.7761 32.0379
30.8224 31.8188
30.8686 31.7574
30.915 31.4785
30.9612 31.4434
31.0076 31.1825
31.0538 31.1231
31.1002 30.996
31.1464 30.7761
31.1928 30.8195
31.2391 30.8706
31.2855 30.7938
31.3317 30.7478
31.3781 30.7931
31.4244 30.6869
31.4708 30.6929
31.5171 30.6595
31.5636 30.6959
31.6098 30.4297
31.6563 30.3125
31.7026 30.0883
31.7491 29.9713
31.7953 30.138
31.8418 30.1375
31.8881 30.1125
31.9346 29.9316
31.9809 29.934
32.0275 29.6626
32.074 29.7101
32.1203 29.4328
32.1668 29.4651
32.2132 29.1676
32.2597 29.0993
32.306 29.0886
32.3526 28.8368
32.399 28.7935
32.4455 28.6722
32.4919 28.611
32.5385 28.5264
32.5848 28.335
32.6314 28.2855
32.6778 28.2575
32.7244 28.1936
32.7708 28.0874
32.8174 28.0665
32.8638 27.8534
32.9104 27.9574
32.9569 27.9538
33.0035 27.8009
33.0499 27.7508
33.0966 27.7686
33.143 27.6969
33.1897 27.581
33.2361 27.4745
33.2828 27.4769
33.3293 27.3302
33.3759 27.3351
33.4226 27.0927
33.4691 27.0136
33.5158 26.8714
33.5623 26.7614
33.609 26.6021
33.6555 26.5688
33.7022 26.5317
33.7487 26.436
33.7954 26.3067
33.842 26.2229
33.8887 26.1671
33.9353 26.1468
33.982 25.987
34.0286 25.9132
34.0753 25.8367
34.1219 25.7851
34.1687 25.6736
34.2152 25.6759
34.262 25.5382
34.3086 25.4486
34.3554 25.5101
34.402 25.2763
34.4488 25.1923
34.4954 25.1708
34.5422 25.0421
34.5889 24.9037
34.6357 24.7942
34.6825 24.8347
34.7292 24.7414
34.776 24.6363
34.8227 24.6397
34.8695 24.4719
34.9162 24.508
34.9631 24.3617
35.0098 24.4284
35.0566 24.2076
35.1033 24.1733
35.1502 24.1824
35.1969 24.0394
35.2438 24.0981
35.2906 24.0354
35.3375 23.8849
35.3842 23.8428
35.4311 23.8769
35.4779 23.8461
35.5248 23.7432
35.5716 23.5989
35.6185 23.568
35.6653 23.4634
35.7123 23.3577
35.759 23.3862
35.806 23.257
35.8528 23.1064
35.8998 23.1206
35.9468 22.983
35.9936 22.9388
36.0406 22.8709
36.0874 22.9222
36.1345 22.7945
36.1813 22.6628
36.2283 22.7025
36.2752 22.5914
36.3222 22.5777
36.3691 22.4758
36.4161 22.4117
36.463 22.3763
36.5101 22.3541
36.557 22.2927
36.6041 22.0907
36.651 22.0672
36.6981 22.0517
36.745 21.9948
36.7921 21.8751
36.839 21.8114
36.8861 21.779
36.9331 21.5935
36.9802 21.6174
37.0272 21.5489
37.0743 21.4162
37.1213 21.4181
37.1684 21.3288
37.2154 21.1723
37.2626 21.2679
37.3098 21.1291
37.3568 21.0663
37.404 21.0546
37.451 20.8257
37.4982 20.8741
37.5452 20.7838
37.5924 20.715
37.6395 20.7821
37.6867 20.6104
37.7337 20.5725
37.781 20.4779
37.8281 20.4171
37.8753 20.3424
37.9224 20.2622
37.9697 20.2002
38.0168 20.1507
38.064 20.1066
38.1111 20.0306
38.1584 19.9685
38.2056 19.8785
38.2529 19.7842
38.3 19.7489
38.3473 19.7152
38.3945 19.6628
38.4418 19.5922
38.489 19.5439
38.5363 19.4293
38.5837 19.401
38.6309 19.3273
38.6782 19.2773
38.7254 19.2168
38.7728 19.178
38.82 19.0644
38.8674 19.0189
38.9146 18.9444
38.9621 18.9319
39.0093 18.8549
39.0567 18.7606
39.104 18.7213
39.1514 18.6357
39.1987 18.5956
39.2461 18.5315
39.2934 18.539
39.3409 18.4168
39.3882 18.3332
39.4356 18.3735
39.483 18.2326
39.5304 18.1754
39.5778 18.2349
39.6253 18.0359
39.6726 18.0177
39.7201 17.9484
39.7675 17.9743
39.815 17.7928
39.8624 17.7707
39.9099 17.7236
39.9575 17.69
40.0049 17.6062
40.0525 17.5495
40.0999 17.4713
40.1474 17.4483
40.1949 17.4314
40.2425 17.3833
40.2899 17.2965
40.3375 17.2304
40.385 17.1182
40.4326 17.1477
40.48 17.0372
40.5277 17.0294
40.5752 16.9611
40.6228 16.9167
40.6703 16.8706
40.718 16.8168
40.7655 16.7522
40.8132 16.7223
40.8607 16.68
40.9084 16.5917
40.9559 16.5548
41.0036 16.5361
41.0512 16.4432
41.0989 16.3782
41.1465 16.3252
41.1942 16.3286
41.242 16.1453
41.2896 16.1745
41.3373 16.1135
41.3849 16.034
41.4327 15.9554
41.4803 15.8671
41.5281 15.8745
41.5758 15.8466
41.6236 15.7537
41.6712 15.7547
41.7191 15.6977
41.7667 15.6761
41.8146 15.5753
41.8622 15.5844
41.9101 15.5225
41.9578 15.4452
42.0057 15.3686
42.0534 15.3598
42.1013 15.3194
42.149 15.1977
42.1969 15.1476
42.2446 15.123
42.2925 15.0512
42.3403 15.0038
42.3882 14.9749
42.436 14.9412
42.4839 14.8794
42.5319 14.8416
42.5797 14.7617
42.6277 14.7116
42.6755 14.7161
42.7235 14.594
42.7713 14.5458
42.8193 14.5443
42.8671 14.4822
42.9152 14.4281
42.963 14.3717
43.0111 14.2999
43.0589 14.2643
43.107 14.1961
43.1549 14.1878
43.2029 14.0821
43.2508 14.112
43.2989 14.0436
43.3468 13.9832
43.3949 13.9395
43.4429 13.8702
43.491 13.8223
43.5389 13.7852
43.5871 13.7123
43.635 13.7507
43.6832 13.6934
43.7312 13.5909
43.7793 13.5641
43.8273 13.5375
43.8755 13.4456
43.9237 13.4321
43.9717 13.37
44.0199 13.3197
44.068 13.2318
44.1162 13.2351
44.1642 13.2182
44.2125 13.1385
44.2606 13.0974
44.3088 13.0272
44.3569 12.9968
44.4052 12.9661
44.4533 12.9235
44.5016 12.8666
44.5497 12.7929
44.598 12.8149
44.6461 12.7553
44.6945 12.667
44.7426 12.6647
44.791 12.5598
44.8391 12.58
44.8875 12.4876
44.9357 12.4757
44.984 12.3967
45.0322 12.3087
45.0806 12.3302
45.1288 12.2629
45.1773 12.2107
45.2257 12.2427
45.2739 12.1592
45.3224 12.1074
45.3706 12.0931
45.4191 11.9855
45.4673 11.9926
45.5158 11.9395
45.5641 11.9232
45.6126 11.8685
45.6609 11.7938
45.7094 11.7764
45.7577 11.7504
45.8063 11.6789
45.8546 11.6509
45.9031 11.6085
45.9515 11.5608
46.0001 11.5095
46.0484 11.4841
46.097 11.4227
46.1454 11.4001
46.194 11.3582
46.2424 11.3085
46.291 11.2614
46.3395 11.2215
46.3881 11.1835
46.4365 11.2085
46.4852 11.1348
46.5337 11.0617
46.5823 11.0382
46.631 10.944
46.6795 10.9867
46.7282 10.9171
46.7767 10.8496
46.8254 10.7991
46.8739 10.8368
46.9226 10.746
46.9712 10.7564
47.0199 10.6125
47.0685 10.6547
47.1173 10.5586
47.1658 10.5259
47.2146 10.528
47.2632 10.444
47.312 10.4568
47.3606 10.3754
47.4095 10.3554
47.4581 10.3453
47.5069 10.3001
47.5556 10.2301
47.6044 10.2112
47.6531 10.1871
47.702 10.1349
47.7507 10.1217
47.7996 10.053
47.8483 10.0203
47.8972 10.022
47.9461 9.95215
47.9948 9.90956
48.0438 9.85188
48.0925 9.86726
48.1415 9.78672
48.1902 9.78737
48.2392 9.72213
48.288 9.72951
48.337 9.69623
48.3858 9.6052
48.4348 9.61858
48.4837 9.58622
48.5327 9.55579
48.5815 9.51254
48.6306 9.47061
48.6795 9.41854
48.7285 9.37355
48.7774 9.33065
48.8265 9.34378
48.8754 9.26612
48.9245 9.26976
48.9734 9.22166
49.0226 9.18269
49.0715 9.11821
49.1206 9.11623
49.1696 9.09853
49.2188 9.05735
49.2679 9.00933
49.3169 8.93905
49.3661 8.92992
49.4151 8.90631
49.4643 8.85854
49.5134 8.84054
49.5626 8.78897
49.6117 8.77123
49.6609 8.73344
49.71 8.65219
49.7592 8.64758
49.8083 8.63146
49.8576 8.61298
49.9067 8.56533
49.956 8.56256
50.0052 8.50237
50.0545 8.4583
50.1036 8.40925
50.153 8.40516
50.2022 8.35848
50.2515 8.31846
50.3007 8.2787
50.3501 8.28283
50.3993 8.21908
50.4487 8.18878
50.498 8.1657
50.5474 8.13188
50.5966 8.13737
50.6461 8.10109
50.6955 8.06824
50.7448 8.0512
50.7943 8.01502
50.8436 7.98188
50.8931 7.9419
50.9424 7.92496
50.9919 7.8802
51.0413 7.83803
51.0908 7.82409
51.1402 7.78719
51.1897 7.75205
51.2391 7.744
51.2887 7.70093
51.3381 7.63535
51.3877 7.63644
51.4371 7.59674
51.4867 7.53506
51.5362 7.55582
51.5858 7.49899
51.6353 7.42346
51.6849 7.43406
51.7344 7.42668
51.7841 7.38357
51.8336 7.35354
51.8833 7.28822
51.9328 7.26553
51.9826 7.24079
52.0323 7.20949
52.0818 7.19195
52.1316 7.19859
52.1812 7.12126
52.231 7.12148
52.2806 7.06328
52.3304 7.03608
52.38 7.03283
52.4298 6.99049
52.4794 6.9727
52.5293 6.9222
52.5789 6.92927
52.6288 6.89413
52.6785 6.83755
52.7284 6.8078
52.7781 6.81681
52.828 6.79626
52.8777 6.73705
52.9276 6.65335
52.9774 6.68673
53.0273 6.65762
53.0771 6.60812
53.1271 6.60624
53.1769 6.56096
53.2269 6.51961
53.2767 6.53451
53.3267 6.46845
53.3765 6.43608
53.4266 6.42555
53.4766 6.40716
53.5265 6.36106
53.5765 6.36234
53.6264 6.32667
53.6765 6.279
53.7264 6.23149
53.7765 6.21261
53.8265 6.19789
53.8766 6.18882
53.9266 6.15511
53.9767 6.11553
54.0267 6.08882
54.0769 6.0679
54.1269 6.02474
54.1771 6.00357
54.2271 5.9847
54.2773 5.93831
54.3274 5.90927
54.3776 5.88532
54.4277 5.87969
54.478 5.81154
54.528 5.79038
54.5783 5.73648
54.6285 5.70009
54.6788 5.68494
54.7289 5.61488
54.7792 5.57692
54.8296 5.5023
54.8798 5.47062
54.9301 5.4504
54.9803 5.46496
55.0307 5.39238
55.0809 5.34471
55.1314 5.34175
55.1816 5.21932
55.232 5.22638
55.2823 5.16636
55.3328 5.17985
55.383 5.08754
55.4335 5.05694
55.4838 4.98783
55.5344 4.96519
55.5847 4.94282
55.6352 4.88203
55.6856 4.85846
55.7361 4.80958