File: XRD/Ni3Fe_FD0351.xy
TT I
1.27165 7.2677
1.31627 7.02989
1.36089 6.87865
1.40551 6.23393
1.45013 6.0115
1.49476 7.52495
1.53938 5.81928
1.584 5.71752
1.62863 4.98079
1.67325 5.4194
1.71787 5.46655
1.7625 4.74547
1.80712 4.86008
1.85174 5.20204
1.89636 4.70978
1.94099 4.53397
1.98562 4.76815
2.03025 4.1094
2.07487 3.8575
2.11949 4.98508
2.16411 4.94148
2.20874 10.1533
2.25338 12.7943
2.298 5.30099
2.34263 5.52615
2.38725 5.14778
2.43188 5.15403
2.4765 6.20795
2.52115 5.1612
2.56577 6.67171
2.6104 7.50768
2.65503 7.08438
2.69965 7.35796
2.7443 7.58613
2.78893 7.89983
2.83356 7.91092
2.87818 8.63416
2.92281 8.73155
2.96744 9.70804
3.01209 10.401
3.05672 11.2186
3.10135 12.1645
3.14599 12.8243
3.19062 13.6206
3.23527 14.8826
3.2799 15.5512
3.32454 16.7624
3.36917 18.1024
3.4138 18.8041
3.45844 19.6763
3.50309 21.2394
3.54773 21.9417
3.59237 23.4648
3.637 59.2949
3.68164 41.3547
3.7263 25.867
3.77094 25.8522
3.81558 26.8354
3.86022 27.3754
3.90486 29.3488
3.9495 30.2729
3.99416 31.0627
4.0388 32.6973
4.08344 33.9071
4.12809 35.0394
4.17273 37.0544
4.21738 41.0071
4.26204 148.732
4.30669 128.461
4.35133 46.513
4.39598 44.7916
4.44063 50.3188
4.4853 56.6674
4.52995 52.4098
4.5746 53.2342
4.61925 54.389
4.6639 56.8651
4.70855 60.0364
4.75322 63.5341
4.79788 66.5796
4.84253 69.5846
4.88719 74.5819
4.93184 78.878
4.97652 84.8406
5.02118 92.2107
5.06583 100.772
5.11049 116.018
5.15515 173.56
5.19981 608.606
5.24449 3694.19
5.28916 11470.4
5.33382 3394.03
5.37848 223.919
5.42315 139.828
5.46783 121.199
5.5125 112.062
5.55716 106.801
5.60183 102.289
5.6465 100.296
5.69117 98.6979
5.73586 96.9101
5.78053 97.2602
5.8252 97.442
5.86988 98.4935
5.91455 101.85
5.95924 116.967
6.00392 324.417
6.0486 1287.21
6.09328 4016.92
6.13795 3355.96
6.18263 278.679
6.22733 100.284
6.27201 86.1289
6.3167 91.6437
6.36138 78.5258
6.40606 71.5534
6.45075 69.2031
6.49545 67.551
6.54014 65.2666
6.58483 64.2453
6.62952 64.0302
6.67421 78.5975
6.71892 103.454
6.76361 65.0898
6.8083 60.1574
6.853 58.5209
6.89769 58.1958
6.94239 57.6216
6.98711 56.7546
7.03181 56.8305
7.07651 56.2945
7.12121 56.0389
7.16591 56.5828
7.21063 56.4585
7.25533 64.0494
7.30004 118.984
7.34475 74.3006
7.38945 57.0464
7.43416 55.4595
7.47889 55.3017
7.5236 55.6081
7.56831 56.2812
7.61303 57.6481
7.65774 57.4782
7.70247 57.5703
7.74719 57.3751
7.79191 58.2205
7.83663 58.431
7.88135 59.275
7.92607 60.2087
7.97081 61.4955
8.01553 62.7668
8.06026 64.2637
8.10498 65.7206
8.14971 71.8225
8.19446 71.9813
8.23919 71.6897
8.28392 74.4328
8.32865 77.3215
8.37339 81.3858
8.41812 88.6869
8.46288 113.001
8.50761 226.185
8.55235 502.277
8.59709 1191.11
8.64183 2086.83
8.68658 1040.23
8.73134 181.726
8.77609 104.216
8.82083 96.647
8.86558 93.0481
8.91033 91.6626
8.9551 91.4653
8.99985 87.4307
9.04461 86.2082
9.08936 86.0044
9.13412 84.5055
9.17888 84.6218
9.22365 85.0118
9.26841 84.937
9.31318 85.6329
9.35794 86.0168
9.4027 86.2624
9.44749 86.9543
9.49226 87.5419
9.53703 88.6617
9.5818 90.8631
9.62657 94.1488
9.67134 97.6766
9.71614 96.3469
9.76091 97.3032
9.80569 100.492
9.85047 104.156
9.89525 119.008
9.94005 138.266
9.98484 237.212
10.0296 443.229
10.0744 872.466
10.1192 1596.34
10.164 1631.36
10.2088 460.579
10.2536 134.713
10.2984 115.437
10.3432 114.005
10.388 110.389
10.4328 137.085
10.4776 188.318
10.5224 299.463
10.5672 485.815
10.612 518.445
10.6568 213.268
10.7017 100.07
10.7465 89.6951
10.7913 85.8456
10.8361 83.3303
10.8809 81.0355
10.9257 79.6942
10.9706 79.9975
11.0154 76.5199
11.0602 74.6097
11.105 73.4573
11.1499 75.0338
11.1947 78.3864
11.2395 73.2368
11.2844 70.753
11.3292 68.7735
11.374 67.9032
11.4189 67.4784
11.4637 66.559
11.5086 66.6147
11.5534 67.7721
11.5983 66.2535
11.6431 65.0253
11.688 64.6266
11.7328 64.6375
11.7777 64.5657
11.8225 64.0201
11.8674 64.0805
11.9122 64.5029
11.9571 64.7742
12.002 66.2449
12.0468 74.0067
12.0917 87.1216
12.1366 110.396
12.1814 150.757
12.2263 199.506
12.2712 171.278
12.3161 96.3285
12.3609 70.1
12.4058 66.3264
12.4507 66.0853
12.4956 66.1357
12.5405 66.3733
12.5853 67.0045
12.6302 71.0048
12.6751 74.5526
12.72 70.5466
12.7649 69.8436
12.8098 70.4672
12.8547 71.8649
12.8996 73.368
12.9445 74.8377
12.9894 76.5952
13.0343 78.8315
13.0792 83.1966
13.1242 99.7168
13.1691 128.029
13.214 168.996
13.2589 247.612
13.3038 353.463
13.3487 419.342
13.3937 275.838
13.4386 132.207
13.4835 118.509
13.5285 137.043
13.5734 174.996
13.6183 245.399
13.6633 333.983
13.7082 346.137
13.7531 200.398
13.7981 102.103
13.843 84.6238
13.888 82.026
13.9329 79.4958
13.9779 78.2206
14.0228 76.5217
14.0678 75.1489
14.1127 74.672
14.1577 74.0962
14.2027 73.4724
14.2476 72.517
14.2926 72.3536
14.3376 72.8889
14.3825 71.8329
14.4275 71.0886
14.4725 70.9421
14.5175 70.747
14.5624 71.0937
14.6074 72.5042
14.6524 72.9396
14.6974 73.0042
14.7424 76.984
14.7874 86.7125
14.8324 98.594
14.8774 120.277
14.9224 155.074
14.9674 199.968
15.0124 217.412
15.0574 153.593
15.1024 94.1052
15.1474 74.5126
15.1924 72.5105
15.2374 71.8749
15.2824 71.1286
15.3274 69.798
15.3725 68.7223
15.4175 68.2355
15.4625 68.0242
15.5076 68.0023
15.5526 68.1254
15.5976 68.1526
15.6426 71.6102
15.6877 78.8573
15.7327 87.7197
15.7778 103.387
15.8228 129.49
15.8679 163.931
15.9129 189.707
15.958 161.648
16.003 101.281
16.0481 69.8423
16.0931 65.3272
16.1382 63.6584
16.1833 62.1486
16.2283 60.7439
16.2734 59.8718
16.3185 59.7248
16.3636 59.7559
16.4086 58.3841
16.4537 57.5906
16.4988 57.2467
16.5439 57.0252
16.589 56.7327
16.6341 56.4886
16.6792 56.0121
16.7243 56.4695
16.7694 56.3094
16.8145 56.1796
16.8596 56.6175
16.9047 57.4041
16.9498 57.7368
16.9949 57.0875
17.04 57.805
17.0851 59.4882
17.1302 61.6594
17.1754 64.6015
17.2205 69.1848
17.2656 75.1212
17.3108 82.6974
17.3559 84.2179
17.401 73.3378
17.4462 64.0605
17.4913 60.9293
17.5365 60.707
17.5815 60.9279
17.6268 61.4878
17.6718 62.1698
17.7171 62.6918
17.7622 63.4326
17.8074 64.4532
17.8525 68.4684
17.8977 73.1561
17.9428 79.0507
17.9881 88.0018
18.0331 102.323
18.0784 119.648
18.1237 140.126
18.1688 136.668
18.214 110.258
18.2591 90.9742
18.3044 91.8166
18.3495 99.0986
18.3948 105.98
18.4399 98.2408
18.4852 79.2924
18.5303 67.7266
18.5756 64.1863
18.6207 63.0048
18.666 62.1202
18.7112 61.5472
18.7565 60.4553
18.8016 60.4406
18.8469 59.6962
18.892 59.389
18.9374 58.9239
18.9825 58.7628
19.0278 58.4811
19.073 58.9725
19.1183 59.3691
19.1635 60.1981
19.2088 61.9988
19.254 64.3583
19.2993 67.9463
19.3447 72.3778
19.3898 76.7872
19.4352 74.0849
19.4804 65.4252
19.5257 58.5004
19.5709 55.787
19.6163 55.5363
19.6615 55.2963
19.7068 54.9308
19.752 54.9915
19.7974 55.4962
19.8426 56.271
19.888 57.1899
19.9332 58.5532
19.9786 60.9626
20.0238 63.7881
20.0692 68.1166
20.1144 71.3433
20.1598 70.8542
20.205 65.9916
20.2504 63.5859
20.2957 64.2811
20.3411 66.6236
20.3863 65.6288
20.4318 60.2302
20.477 55.1013
20.5224 52.7987
20.5677 52.1971
20.6131 51.5293
20.6586 51.0155
20.7038 50.9869
20.7493 50.5599
20.7945 50.4064
20.84 50.3627
20.8853 50.2276
20.9307 50.1768
20.976 50.142
21.0215 50.251
21.0668 50.5855
21.1122 51.1701
21.1575 51.4055
21.203 51.9443
21.2483 53.0018
21.2938 53.2377
21.3391 51.6577
21.3846 50.357
21.4299 50.0265
21.4754 49.9567
21.5207 50.1695
21.5662 50.7326
21.6116 51.2066
21.6571 51.7936
21.7024 52.7879
21.7479 54.7124
21.7933 57.2487
21.8388 60.0526
21.8843 63.4157
21.9297 66.1521
21.9752 65.2676
22.0206 61.4111
22.0661 57.8251
22.1115 57.0878
22.157 57.3418
22.2024 55.8608
22.248 53.1013
22.2933 51.1139
22.3389 50.3831
22.3843 50.2308
22.4299 50.0926
22.4753 50.2058
22.5208 49.9743
22.5662 50.014
22.6118 50.2016
22.6572 50.4839
22.7028 51.1295
22.7483 51.532
22.7939 52.3053
22.8393 53.7262
22.8849 55.4362
22.9303 57.0258
22.9759 58.8371
23.0214 58.7751
23.067 56.1908
23.1126 52.6309
23.1581 50.6469
23.2037 50.2679
23.2492 50.4862
23.2948 50.5345
23.3403 50.7254
23.3859 51.4767
23.4314 52.4785
23.477 54.2027
23.5225 55.7792
23.5682 57.5505
23.6137 59.0392
23.6593 57.1431
23.7048 53.2769
23.7505 49.5814
23.796 47.9415
23.8417 47.2728
23.8872 46.8607
23.9329 46.5914
23.9784 46.1739
24.0241 45.8518
24.0697 45.7553
24.1154 45.3332
24.1609 45.2421
24.2066 45.0225
24.2522 44.9503
24.2979 44.7699
24.3434 44.6278
24.3892 44.3841
24.4349 44.469
24.4805 44.0948
24.5262 44.1851
24.5718 44.2396
24.6175 44.1164
24.6631 43.9828
24.7089 43.7208
24.7545 43.5331
24.8002 43.4707
24.8458 43.4661
24.8916 43.397
24.9372 43.5563
24.983 43.8025
25.0286 44.2356
25.0744 44.5089
25.12 44.9637
25.1658 45.6158
25.2114 45.9452
25.2572 45.9229
25.3029 45.8202
25.3487 46.0647
25.3943 45.7677
25.4402 44.8147
25.4858 43.8648
25.5316 42.6624
25.5773 42.1606
25.6231 42.21
25.669 41.6554
25.7147 41.8031
25.7605 41.6704
25.8062 41.6641
25.8521 41.8239
25.8977 41.8183
25.9436 42.0877
25.9893 42.0999
26.0352 42.5091
26.0809 42.5457
26.1268 42.827
26.1725 42.4803
26.2184 42.0226
26.2641 41.6059
26.31 41.2406
26.3557 41.3423
26.4017 41.3512
26.4474 41.7519
26.4933 41.9808
26.5391 42.3977
26.585 42.5326
26.6308 43.1622
26.6767 43.3784
26.7225 43.1192
26.7684 42.5281
26.8142 41.9759
26.8601 41.5453
26.9059 41.2042
26.9519 40.6224
26.9979 40.3893
27.0437 40.0886
27.0896 39.8241
27.1354 39.7813
27.1814 39.807
27.2272 39.6778
27.2732 39.5929
27.3191 39.492
27.3651 39.5644
27.4109 39.4648
27.4569 39.6347
27.5027 39.6735
27.5488 39.6767
27.5946 39.554
27.6407 39.3541
27.6865 39.1823
27.7326 39.0058
27.7784 38.9792
27.8245 38.9233
27.8703 39.2237
27.9164 39.4687
27.9623 39.5293
28.0084 39.7208
28.0543 40.1493
28.1003 40.1446
28.1462 39.8099
28.1923 39.4541
28.2384 39.0507
28.2843 38.6061
28.3304 38.1952
28.3764 37.8168
28.4225 37.3833
28.4684 37.2539
28.5145 36.9833
28.5605 36.8962
28.6066 36.6744
28.6526 36.6473
28.6987 36.5268
28.7447 36.4501
28.7908 36.3012
28.8368 36.2944
28.8829 36.3858
28.9289 36.2793
28.9751 36.1745
29.0211 35.8596
29.0673 35.6859
29.1133 35.5018
29.1595 35.4499
29.2055 35.2979
29.2517 35.3347
29.2977 35.2447
29.3439 35.1054
29.3899 35.1105
29.4361 35.0595
29.4824 34.8559
29.5284 34.6879
29.5746 34.3095
29.6207 34.1035
29.6669 33.9866
29.713 33.8823
29.7593 33.798
29.8053 33.8756
29.8516 33.7229
29.8977 33.7267
29.9439 33.4928
29.99 33.4359
30.0363 33.2907
30.0824 33.4169
30.1287 33.3082
30.1748 33.2874
30.2211 33.2755
30.2673 33.1145
30.3136 33.2348
30.3597 33.1893
30.406 33.1011
30.4522 32.9857
30.4985 32.975
30.5447 33.0216
30.591 33.096
30.6372 33.0312
30.6835 33.0553
30.7297 33.049
30.7761 32.9163
30.8224 32.8552
30.8686 32.7182
30.915 32.4492
30.9612 32.36
31.0076 32.225
31.0538 32.1171
31.1002 31.9647
31.1464 31.8805
31.1928 31.733
31.2391 31.8663
31.2855 31.6191
31.3317 31.7484
31.3781 31.6514
31.4244 31.6534
31.4708 31.7262
31.5171 31.6001
31.5636 31.5728
31.6098 31.3067
31.6563 31.1583
31.7026 31.0745
31.7491 30.9805
31.7953 30.9739
31.8418 30.9738
31.8881 31.0575
31.9346 30.9016
31.9809 30.8428
32.0275 30.7032
32.074 30.5918
32.1203 30.4864
32.1668 30.3254
32.2132 30.2394
32.2597 30.13
32.306 29.9745
32.3526 29.7864
32.399 29.706
32.4455 29.587
32.4919 29.4541
32.5385 29.4716
32.5848 29.2662
32.6314 29.2872
32.6778 29.264
32.7244 29.0572
32.7708 28.9156
32.8174 28.9456
32.8638 28.8038
32.9104 28.7668
32.9569 28.7294
33.0035 28.6001
33.0499 28.6524
33.0966 28.5685
33.143 28.4928
33.1897 28.4327
33.2361 28.3599
33.2828 28.323
33.3293 28.1218
33.3759 28.1167
33.4226 28.0152
33.4691 27.8274
33.5158 27.7632
33.5623 27.6676
33.609 27.4833
33.6555 27.5277
33.7022 27.3341
33.7487 27.2125
33.7954 27.1797
33.842 27.0486
33.8887 26.987
33.9353 26.9349
33.982 26.8558
34.0286 26.7843
34.0753 26.7036
34.1219 26.6295
34.1687 26.5268
34.2152 26.4856
34.262 26.3343
34.3086 26.2548
34.3554 26.1295
34.402 26.0278
34.4488 25.9566
34.4954 25.9397
34.5422 25.8824
34.5889 25.8076
34.6357 25.5816
34.6825 25.5909
34.7292 25.4681
34.776 25.352
34.8227 25.4036
34.8695 25.2809
34.9162 25.2401
34.9631 25.2196
35.0098 25.1448
35.0566 25.0313
35.1033 24.9873
35.1502 24.9898
35.1969 24.8409
35.2438 24.829
35.2906 24.7339
35.3375 24.7062
35.3842 24.6799
35.4311 24.7186
35.4779 24.571
35.5248 24.5234
35.5716 24.3591
35.6185 24.2938
35.6653 24.2624
35.7123 24.0862
35.759 24.1102
35.806 24.0054
35.8528 23.8919
35.8998 23.8459
35.9468 23.7362
35.9936 23.74
36.0406 23.6319
36.0874 23.6057
36.1345 23.5652
36.1813 23.4019
36.2283 23.3638
36.2752 23.2195
36.3222 23.2174
36.3691 23.1818
36.4161 23.0131
36.463 23.0522
36.5101 22.9852
36.557 23.0039
36.6041 22.8271
36.651 22.816
36.6981 22.7041
36.745 22.6604
36.7921 22.6173
36.839 22.4664
36.8861 22.4358
36.9331 22.2793
36.9802 22.2097
37.0272 22.1167
37.0743 22.0949
37.1213 22.0637
37.1684 21.9585
37.2154 21.8555
37.2626 21.8174
37.3098 21.8087
37.3568 21.7549
37.404 21.751
37.451 21.5729
37.4982 21.5126
37.5452 21.3984
37.5924 21.3086
37.6395 21.3522
37.6867 21.2389
37.7337 21.1828
37.781 21.0384
37.8281 21.0188
37.8753 20.9248
37.9224 20.9116
37.9697 20.7636
38.0168 20.7041
38.064 20.6694
38.1111 20.667
38.1584 20.5202
38.2056 20.4943
38.2529 20.5214
38.3 20.2856
38.3473 20.2924
38.3945 20.2709
38.4418 20.1761
38.489 20.1132
38.5363 19.9908
38.5837 19.9181
38.6309 19.9008
38.6782 19.8791
38.7254 19.7379
38.7728 19.7246
38.82 19.6128
38.8674 19.6396
38.9146 19.5175
38.9621 19.4534
39.0093 19.43
39.0567 19.3736
39.104 19.2574
39.1514 19.1726
39.1987 19.1662
39.2461 19.1745
39.2934 19.102
39.3409 18.9675
39.3882 18.9642
39.4356 18.8196
39.483 18.7728
39.5304 18.6734
39.5778 18.7136
39.6253 18.6721
39.6726 18.6039
39.7201 18.5628
39.7675 18.5064
39.815 18.4035
39.8624 18.3083
39.9099 18.2933
39.9575 18.1976
40.0049 18.202
40.0525 18.0784
40.0999 18.0811
40.1474 18.0059
40.1949 17.8587
40.2425 17.8353
40.2899 17.8286
40.3375 17.8209
40.385 17.7345
40.4326 17.7389
40.48 17.5624
40.5277 17.4879
40.5752 17.4603
40.6228 17.4342
40.6703 17.3357
40.718 17.2865
40.7655 17.2425
40.8132 17.2074
40.8607 17.1994
40.9084 17.1557
40.9559 17.0965
41.0036 17.0027
41.0512 16.9537
41.0989 16.8779
41.1465 16.7931
41.1942 16.8436
41.242 16.6909
41.2896 16.6859
41.3373 16.6113
41.3849 16.5276
41.4327 16.4884
41.4803 16.447
41.5281 16.4046
41.5758 16.3039
41.6236 16.2606
41.6712 16.2305
41.7191 16.1329
41.7667 16.1336
41.8146 16.0586
41.8622 16.0146
41.9101 15.9705
41.9578 15.8422
42.0057 15.8307
42.0534 15.7842
42.1013 15.7301
42.149 15.6746
42.1969 15.6188
42.2446 15.5807
42.2925 15.4742
42.3403 15.4482
42.3882 15.4583
42.436 15.3694
42.4839 15.2952
42.5319 15.3032
42.5797 15.202
42.6277 15.135
42.6755 15.1133
42.7235 15.0411
42.7713 15.0405
42.8193 14.9036
42.8671 14.9501
42.9152 14.8389
42.963 14.7638
43.0111 14.6945
43.0589 14.7099
43.107 14.6466
43.1549 14.5417
43.2029 14.5308
43.2508 14.4997
43.2989 14.397
43.3468 14.3973
43.3949 14.3392
43.4429 14.2821
43.491 14.2803
43.5389 14.2143
43.5871 14.1419
43.635 14.0868
43.6832 14.0827
43.7312 13.946
43.7793 13.9505
43.8273 13.9101
43.8755 13.8628
43.9237 13.8151
43.9717 13.7886
44.0199 13.6756
44.068 13.6965
44.1162 13.6098
44.1642 13.5553
44.2125 13.5386
44.2606 13.4998
44.3088 13.4696
44.3569 13.3802
44.4052 13.3503
44.4533 13.2921
44.5016 13.238
44.5497 13.1827
44.598 13.1748
44.6461 13.0939
44.6945 13.0809
44.7426 13.0098
44.791 12.9548
44.8391 12.9074
44.8875 12.8806
44.9357 12.8309
44.984 12.7909
45.0322 12.7125
45.0806 12.6955
45.1288 12.666
45.1773 12.5691
45.2257 12.539
45.2739 12.5051
45.3224 12.4733
45.3706 12.4299
45.4191 12.3332
45.4673 12.3486
45.5158 12.2808
45.5641 12.2289
45.6126 12.2199
45.6609 12.1889
45.7094 12.1012
45.7577 12.076
45.8063 12.0079
45.8546 11.9717
45.9031 11.9606
45.9515 11.9338
46.0001 11.8374
46.0484 11.8349
46.097 11.7949
46.1454 11.7638
46.194 11.6836
46.2424 11.6539
46.291 11.5555
46.3395 11.5899
46.3881 11.5164
46.4365 11.4882
46.4852 11.447
46.5337 11.4195
46.5823 11.3862
46.631 11.2867
46.6795 11.2782
46.7282 11.2165
46.7767 11.1889
46.8254 11.1299
46.8739 11.0942
46.9226 11.0422
46.9712 11.0342
47.0199 10.9679
47.0685 10.9491
47.1173 10.9005
47.1658 10.8795
47.2146 10.8388
47.2632 10.7942
47.312 10.7635
47.3606 10.7003
47.4095 10.6464
47.4581 10.6411
47.5069 10.5973
47.5556 10.5541
47.6044 10.4802
47.6531 10.4563
47.702 10.4075
47.7507 10.3987
47.7996 10.2853
47.8483 10.305
47.8972 10.2523
47.9461 10.2316
47.9948 10.1785
48.0438 10.1489
48.0925 10.1512
48.1415 10.0706
48.1902 10.0826
48.2392 10.0307
48.288 9.98875
48.337 9.94386
48.3858 9.89384
48.4348 9.89445
48.4837 9.87249
48.5327 9.82349
48.5815 9.74318
48.6306 9.71027
48.6795 9.73941
48.7285 9.66497
48.7774 9.62841
48.8265 9.57337
48.8754 9.5272
48.9245 9.54938
48.9734 9.50818
49.0226 9.4845
49.0715 9.41382
49.1206 9.33626
49.1696 9.30461
49.2188 9.31321
49.2679 9.24561
49.3169 9.23704
49.3661 9.18817
49.4151 9.14538
49.4643 9.13275
49.5134 9.07022
49.5626 9.04955
49.6117 8.99892
49.6609 8.97638
49.71 8.9542
49.7592 8.94578
49.8083 8.8635
49.8576 8.85721
49.9067 8.81296
49.956 8.80797
50.0052 8.73755
50.0545 8.75632
50.1036 8.70113
50.153 8.654
50.2022 8.63592
50.2515 8.53646
50.3007 8.53516
50.3501 8.50276
50.3993 8.48602
50.4487 8.46578
50.498 8.4059
50.5474 8.40117
50.5966 8.3631
50.6461 8.3237
50.6955 8.32884
50.7448 8.27022
50.7943 8.22393
50.8436 8.19685
50.8931 8.15567
50.9424 8.1504
50.9919 8.07881
51.0413 8.09136
51.0908 8.06798
51.1402 8.01003
51.1897 7.98191
51.2391 7.93931
51.2887 7.90464
51.3381 7.84081
51.3877 7.85775
51.4371 7.77128
51.4867 7.77001
51.5362 7.74982
51.5858 7.72426
51.6353 7.66811
51.6849 7.66274
51.7344 7.60242
51.7841 7.61026
51.8336 7.54229
51.8833 7.5289
51.9328 7.50385
51.9826 7.42127
52.0323 7.40418
52.0818 7.37364
52.1316 7.32721
52.1812 7.34493
52.231 7.29692
52.2806 7.27447
52.3304 7.25374
52.38 7.21673
52.4298 7.1742
52.4794 7.15642
52.5293 7.12991
52.5789 7.09124
52.6288 7.07346
52.6785 7.04146
52.7284 7.01869
52.7781 7.00009
52.828 6.95513
52.8777 6.87177
52.9276 6.88115
52.9774 6.88041
53.0273 6.8233
53.0771 6.78558
53.1271 6.77383
53.1769 6.74703
53.2269 6.71933
53.2767 6.71304
53.3267 6.66928
53.3765 6.62236
53.4266 6.61294
53.4766 6.61676
53.5265 6.517
53.5765 6.49665
53.6264 6.50667
53.6765 6.45498
53.7264 6.40988
53.7765 6.40868
53.8265 6.33252
53.8766 6.31923
53.9266 6.31963
53.9767 6.28909
54.0267 6.25777
54.0769 6.2464
54.1269 6.21734
54.1771 6.19996
54.2271 6.14554
54.2773 6.05361
54.3274 6.07803
54.3776 5.97499
54.4277 6.01979
54.478 6.0002
54.528 5.92458
54.5783 5.94142
54.6285 5.86959
54.6788 5.81594
54.7289 5.76782
54.7792 5.69908
54.8296 5.70335
54.8798 5.66827
54.9301 5.58565
54.9803 5.57642
55.0307 5.57395
55.0809 5.58889
55.1314 5.50127
55.1816 5.46393
55.232 5.40498
55.2823 5.33878
55.3328 5.22543
55.383 5.20103
55.4335 5.16069
55.4838 5.14462
55.5344 5.07412
55.5847 5.05545
55.6352 5.04598
55.6856 5.00064
55.7361 4.91176