File: XRD/Ni3Fe_FD0255.xy
TT I
1.27165 8.35955
1.31627 7.22279
1.36089 7.29153
1.40551 6.36999
1.45013 6.39051
1.49476 6.41596
1.53938 6.35482
1.584 5.93106
1.62863 5.71948
1.67325 5.1963
1.71787 5.54013
1.7625 5.13488
1.80712 4.95137
1.85174 5.11142
1.89636 5.16375
1.94099 5.06237
1.98562 4.54151
2.03025 4.55664
2.07487 4.67661
2.11949 4.24874
2.16411 4.49958
2.20874 5.89915
2.25338 6.78228
2.298 5.20142
2.34263 4.242
2.38725 5.48584
2.43188 5.19606
2.4765 4.7739
2.52115 4.94835
2.56577 5.34642
2.6104 6.47129
2.65503 6.09175
2.69965 6.69735
2.7443 7.319
2.78893 6.72638
2.83356 7.73078
2.87818 8.34786
2.92281 8.76193
2.96744 9.33204
3.01209 10.1768
3.05672 10.9825
3.10135 12.1971
3.14599 13.0266
3.19062 14.2537
3.23527 15.3602
3.2799 15.8443
3.32454 16.6647
3.36917 17.6132
3.4138 18.5111
3.45844 19.6308
3.50309 21.4686
3.54773 21.7545
3.59237 22.8267
3.637 30.8884
3.68164 28.377
3.7263 25.4205
3.77094 26.2454
3.81558 26.9089
3.86022 27.5302
3.90486 29.1536
3.9495 30.5869
3.99416 31.58
4.0388 32.754
4.08344 34.2988
4.12809 35.1165
4.17273 36.566
4.21738 39.6125
4.26204 64.5683
4.30669 63.3765
4.35133 44.9853
4.39598 45.3555
4.44063 47.7957
4.4853 50.7597
4.52995 53.1513
4.5746 54.1324
4.61925 55.5624
4.6639 57.823
4.70855 61.1837
4.75322 64.4715
4.79788 68.1965
4.84253 71.3194
4.88719 76.7846
4.93184 80.7038
4.97652 87.2245
5.02118 95.8638
5.06583 106.787
5.11049 120.768
5.15515 163.598
5.19981 633.438
5.24449 3999.13
5.28916 10339.3
5.33382 4291.16
5.37848 278.234
5.42315 152.802
5.46783 129.297
5.5125 117.488
5.55716 111.464
5.60183 105.74
5.6465 103.985
5.69117 102.333
5.73586 99.9869
5.78053 101.085
5.8252 101.575
5.86988 103.745
5.91455 107.18
5.95924 123.627
6.00392 329.531
6.0486 1423.75
6.09328 3626.3
6.13795 3741.95
6.18263 380.347
6.22733 109.444
6.27201 88.8646
6.3167 83.6808
6.36138 77.1868
6.40606 73.3947
6.45075 71.0206
6.49545 68.1812
6.54014 65.9999
6.58483 65.0559
6.62952 64.0176
6.67421 66.377
6.71892 71.7807
6.76361 62.0301
6.8083 60.1672
6.853 59.0097
6.89769 58.5905
6.94239 58.1299
6.98711 57.4058
7.03181 57.146
7.07651 56.7873
7.12121 57.0715
7.16591 57.7788
7.21063 56.1554
7.25533 58.3793
7.30004 70.4925
7.34475 61.4331
7.38945 56.6948
7.43416 55.787
7.47889 55.4054
7.5236 55.8374
7.56831 56.5161
7.61303 57.0824
7.65774 57.2986
7.70247 58.185
7.74719 57.7169
7.79191 58.8049
7.83663 58.8687
7.88135 60.0541
7.92607 61.0728
7.97081 62.2923
8.01553 63.5044
8.06026 65.1163
8.10498 66.4312
8.14971 69.9874
8.19446 71.1149
8.23919 72.8103
8.28392 75.9342
8.32865 78.3858
8.37339 83.7112
8.41812 89.3848
8.46288 104.964
8.50761 216.678
8.55235 579.088
8.59709 1108.92
8.64183 1908.88
8.68658 1264.08
8.73134 236.384
8.77609 110.639
8.82083 100.0
8.86558 96.3414
8.91033 93.7547
8.9551 90.8649
8.99985 89.4586
9.04461 88.0824
9.08936 87.6106
9.13412 86.5919
9.17888 86.3117
9.22365 86.2242
9.26841 86.1405
9.31318 87.6028
9.35794 88.0712
9.4027 87.9784
9.44749 88.2802
9.49226 89.2882
9.53703 90.268
9.5818 92.7992
9.62657 94.6184
9.67134 96.1123
9.71614 97.1258
9.76091 99.355
9.80569 102.59
9.85047 105.836
9.89525 112.843
9.94005 127.131
9.98484 230.261
10.0296 516.278
10.0744 849.153
10.1192 1417.18
10.164 1738.32
10.2088 610.675
10.2536 155.622
10.2984 118.055
10.3432 113.802
10.388 111.348
10.4328 137.981
10.4776 210.154
10.5224 294.837
10.5672 436.236
10.612 521.932
10.6568 263.492
10.7017 109.885
10.7465 91.9806
10.7913 87.8519
10.8361 85.0364
10.8809 83.0231
10.9257 80.6417
10.9706 80.0438
11.0154 77.8925
11.0602 76.2433
11.105 74.6335
11.1499 73.7733
11.1947 73.6887
11.2395 71.707
11.2844 70.818
11.3292 69.9693
11.374 68.7795
11.4189 68.1715
11.4637 67.5386
11.5086 67.1195
11.5534 66.9144
11.5983 66.3244
11.6431 66.2718
11.688 65.4919
11.7328 65.4345
11.7777 65.2239
11.8225 65.0752
11.8674 65.0522
11.9122 65.2924
11.9571 65.7378
12.002 66.7419
12.0468 74.0954
12.0917 92.1937
12.1366 112.855
12.1814 142.053
12.2263 187.91
12.2712 187.628
12.3161 111.341
12.3609 71.3706
12.4058 67.4054
12.4507 67.0634
12.4956 67.079
12.5405 67.6323
12.5853 67.8134
12.6302 68.7404
12.6751 70.2144
12.72 69.6709
12.7649 70.5207
12.8098 71.2944
12.8547 72.8725
12.8996 74.5933
12.9445 75.8837
12.9894 77.9412
13.0343 80.1266
13.0792 83.8537
13.1242 97.9009
13.1691 137.061
13.214 182.301
13.2589 237.396
13.3038 317.762
13.3487 406.976
13.3937 319.325
13.4386 153.482
13.4835 121.233
13.5285 150.889
13.5734 183.467
13.6183 231.657
13.6633 305.217
13.7082 355.97
13.7531 238.587
13.7981 116.867
13.843 87.3341
13.888 84.0475
13.9329 81.0368
13.9779 79.6542
14.0228 78.11
14.0678 76.7374
14.1127 75.9581
14.1577 75.1783
14.2027 74.7534
14.2476 73.8166
14.2926 73.1638
14.3376 73.1674
14.3825 72.5841
14.4275 71.9956
14.4725 71.9421
14.5175 71.9513
14.5624 72.2135
14.6074 72.7768
14.6524 73.4498
14.6974 73.9332
14.7424 77.0986
14.7874 88.1526
14.8324 105.982
14.8774 123.787
14.9224 147.916
14.9674 183.305
15.0124 215.974
15.0574 174.844
15.1024 106.041
15.1474 77.8067
15.1924 73.8711
15.2374 72.4537
15.2824 71.4783
15.3274 70.5001
15.3725 70.2212
15.4175 69.3853
15.4625 69.1187
15.5076 68.7198
15.5526 69.0454
15.5976 69.1592
15.6426 71.3271
15.6877 80.3201
15.7327 94.099
15.7778 107.504
15.8228 125.087
15.8679 151.186
15.9129 182.363
15.958 174.48
16.003 118.013
16.0481 74.9293
16.0931 66.2658
16.1382 63.9919
16.1833 63.036
16.2283 61.6079
16.2734 60.929
16.3185 60.3859
16.3636 59.5448
16.4086 58.9067
16.4537 58.5008
16.4988 57.6614
16.5439 57.7871
16.589 57.6957
16.6341 57.2928
16.6792 56.8363
16.7243 57.1343
16.7694 56.9865
16.8145 57.0071
16.8596 57.0932
16.9047 57.2944
16.9498 57.6357
16.9949 57.5913
17.04 58.2948
17.0851 60.3171
17.1302 63.1142
17.1754 66.3071
17.2205 69.697
17.2656 74.0272
17.3108 80.889
17.3559 84.5332
17.401 77.7579
17.4462 67.0685
17.4913 62.5403
17.5365 61.9772
17.5815 61.8735
17.6268 62.2424
17.6718 62.8371
17.7171 63.3387
17.7622 64.1746
17.8074 65.3875
17.8525 68.6451
17.8977 75.4194
17.9428 83.6486
17.9881 90.1929
18.0331 100.137
18.0784 113.68
18.1237 133.492
18.1688 142.011
18.214 121.485
18.2591 97.074
18.3044 91.3614
18.3495 96.2414
18.3948 104.083
18.4399 101.913
18.4852 85.2876
18.5303 70.9751
18.5756 65.7076
18.6207 64.1905
18.666 63.2435
18.7112 62.4484
18.7565 61.8081
18.8016 61.3846
18.8469 60.8707
18.892 60.4991
18.9374 59.9775
18.9825 59.5786
19.0278 59.4916
19.073 59.6612
19.1183 60.3916
19.1635 61.7052
19.2088 63.5481
19.254 64.995
19.2993 67.3574
19.3447 70.924
19.3898 75.3765
19.4352 75.9699
19.4804 69.0857
19.5257 60.8612
19.5709 57.1168
19.6163 56.4204
19.6615 56.1829
19.7068 55.6284
19.752 55.6948
19.7974 56.2483
19.8426 57.4103
19.888 58.6149
19.9332 59.9231
19.9786 61.4984
20.0238 63.6191
20.0692 67.4335
20.1144 71.6312
20.1598 73.0462
20.205 68.7507
20.2504 65.0716
20.2957 64.347
20.3411 66.298
20.3863 67.1525
20.4318 62.7795
20.477 57.074
20.5224 53.7097
20.5677 52.9913
20.6131 52.4613
20.6586 51.8836
20.7038 51.8695
20.7493 51.296
20.7945 51.1589
20.84 51.0525
20.8853 50.7341
20.9307 50.7933
20.976 51.2625
21.0215 50.9774
21.0668 51.4157
21.1122 51.8224
21.1575 52.0164
21.203 52.4727
21.2483 52.99
21.2938 53.551
21.3391 52.8551
21.3846 51.5282
21.4299 50.9342
21.4754 50.7105
21.5207 50.9811
21.5662 51.2433
21.6116 51.8191
21.6571 53.0099
21.7024 54.4511
21.7479 55.7295
21.7933 57.3508
21.8388 59.8114
21.8843 63.1529
21.9297 65.9491
21.9752 67.0547
22.0206 63.6013
22.0661 59.2059
22.1115 57.6593
22.157 57.8596
22.2024 57.047
22.248 54.708
22.2933 52.5675
22.3389 51.35
22.3843 51.0854
22.4299 50.6924
22.4753 50.7063
22.5208 50.6987
22.5662 50.7928
22.6118 50.9718
22.6572 51.3265
22.7028 52.0787
22.7483 52.7187
22.7939 53.236
22.8393 54.0851
22.8849 55.6611
22.9303 56.9896
22.9759 58.68
23.0214 59.6544
23.067 57.9816
23.1126 54.7889
23.1581 51.9741
23.2037 51.0369
23.2492 51.1538
23.2948 51.5341
23.3403 52.1293
23.3859 52.7063
23.4314 53.4504
23.477 54.3213
23.5225 55.588
23.5682 57.0547
23.6137 59.0841
23.6593 58.5613
23.7048 55.536
23.7505 51.5922
23.796 49.1322
23.8417 48.1823
23.8872 47.628
23.9329 47.3909
23.9784 46.8796
24.0241 46.6902
24.0697 46.4632
24.1154 45.9662
24.1609 45.9461
24.2066 45.6744
24.2522 45.5842
24.2979 45.3152
24.3434 45.284
24.3892 45.0246
24.4349 44.9699
24.4805 44.7648
24.5262 44.9775
24.5718 44.7727
24.6175 44.81
24.6631 44.5967
24.7089 44.4875
24.7545 44.2531
24.8002 44.0915
24.8458 44.1198
24.8916 44.0425
24.9372 44.2152
24.983 44.4372
25.0286 44.8791
25.0744 45.1822
25.12 45.5123
25.1658 46.0383
25.2114 46.4254
25.2572 46.5927
25.3029 46.2886
25.3487 46.389
25.3943 46.5317
25.4402 45.8199
25.4858 44.7463
25.5316 43.5221
25.5773 42.751
25.6231 42.6924
25.669 42.2785
25.7147 42.42
25.7605 42.2874
25.8062 42.3782
25.8521 42.4999
25.8977 42.4768
25.9436 42.5576
25.9893 42.5527
26.0352 42.959
26.0809 42.9444
26.1268 43.3567
26.1725 43.2842
26.2184 42.8974
26.2641 42.3227
26.31 42.0123
26.3557 42.0781
26.4017 41.9885
26.4474 42.4288
26.4933 42.511
26.5391 42.7429
26.585 43.1306
26.6308 43.4644
26.6767 43.7569
26.7225 43.9012
26.7684 43.4738
26.8142 42.6322
26.8601 42.1756
26.9059 41.8813
26.9519 41.3741
26.9979 40.9663
27.0437 40.6936
27.0896 40.5029
27.1354 40.5642
27.1814 40.391
27.2272 40.299
27.2732 40.2041
27.3191 40.087
27.3651 40.127
27.4109 40.1924
27.4569 40.0921
27.5027 40.1106
27.5488 40.1727
27.5946 40.0975
27.6407 40.0239
27.6865 39.8386
27.7326 39.6659
27.7784 39.6593
27.8245 39.6457
27.8703 39.7075
27.9164 39.9173
27.9623 39.8987
28.0084 40.1706
28.0543 40.529
28.1003 40.5206
28.1462 40.5314
28.1923 40.2393
28.2384 39.5683
28.2843 39.3317
28.3304 38.8452
28.3764 38.3693
28.4225 38.0635
28.4684 37.9082
28.5145 37.5827
28.5605 37.4358
28.6066 37.1901
28.6526 37.1476
28.6987 37.1223
28.7447 36.958
28.7908 36.8572
28.8368 36.8475
28.8829 36.934
28.9289 36.8413
28.9751 36.5617
29.0211 36.4501
29.0673 36.1694
29.1133 36.0595
29.1595 35.8564
29.2055 35.8035
29.2517 35.6674
29.2977 35.6663
29.3439 35.6085
29.3899 35.5616
29.4361 35.5621
29.4824 35.4055
29.5284 35.1972
29.5746 34.8578
29.6207 34.581
29.6669 34.5
29.713 34.4463
29.7593 34.2846
29.8053 34.41
29.8516 34.1707
29.8977 34.1715
29.9439 34.0285
29.99 34.0342
30.0363 33.8189
30.0824 33.9193
30.1287 33.8287
30.1748 33.7313
30.2211 33.6275
30.2673 33.7167
30.3136 33.7329
30.3597 33.5876
30.406 33.7061
30.4522 33.5096
30.4985 33.5168
30.5447 33.5387
30.591 33.399
30.6372 33.49
30.6835 33.4237
30.7297 33.5085
30.7761 33.4362
30.8224 33.3716
30.8686 33.2071
30.915 33.0508
30.9612 32.9091
31.0076 32.7748
31.0538 32.5547
31.1002 32.4505
31.1464 32.3584
31.1928 32.3138
31.2391 32.233
31.2855 32.0995
31.3317 32.0595
31.3781 32.1864
31.4244 32.184
31.4708 32.0101
31.5171 32.0697
31.5636 32.1638
31.6098 31.9765
31.6563 31.7838
31.7026 31.5911
31.7491 31.4734
31.7953 31.5076
31.8418 31.3912
31.8881 31.4092
31.9346 31.2807
31.9809 31.3422
32.0275 31.1451
32.074 31.2366
32.1203 30.9737
32.1668 30.8414
32.2132 30.6584
32.2597 30.4949
32.306 30.5124
32.3526 30.2019
32.399 30.2157
32.4455 30.0063
32.4919 29.8996
32.5385 29.917
32.5848 29.7892
32.6314 29.7417
32.6778 29.7617
32.7244 29.5158
32.7708 29.4312
32.8174 29.4728
32.8638 29.1675
32.9104 29.3457
32.9569 29.1735
33.0035 29.0595
33.0499 29.1238
33.0966 29.0368
33.143 28.9785
33.1897 28.8105
33.2361 28.81
33.2828 28.6651
33.3293 28.6183
33.3759 28.594
33.4226 28.4053
33.4691 28.3053
33.5158 28.1369
33.5623 28.0439
33.609 27.8699
33.6555 27.8455
33.7022 27.7433
33.7487 27.5862
33.7954 27.5429
33.842 27.5406
33.8887 27.4956
33.9353 27.3849
33.982 27.3061
34.0286 27.2368
34.0753 27.1284
34.1219 27.0522
34.1687 26.9555
34.2152 26.8757
34.262 26.7793
34.3086 26.6458
34.3554 26.6465
34.402 26.415
34.4488 26.3654
34.4954 26.4081
34.5422 26.2665
34.5889 26.1434
34.6357 26.0717
34.6825 26.0241
34.7292 25.9248
34.776 25.8195
34.8227 25.732
34.8695 25.6475
34.9162 25.6453
34.9631 25.4693
35.0098 25.5407
35.0566 25.4762
35.1033 25.336
35.1502 25.2929
35.1969 25.1697
35.2438 25.2184
35.2906 25.0797
35.3375 25.0939
35.3842 24.9361
35.4311 25.0409
35.4779 24.882
35.5248 24.8758
35.5716 24.8313
35.6185 24.6776
35.6653 24.6605
35.7123 24.5266
35.759 24.4956
35.806 24.3947
35.8528 24.2304
35.8998 24.1839
35.9468 24.0548
35.9936 24.0821
36.0406 23.95
36.0874 23.9451
36.1345 23.8809
36.1813 23.77
36.2283 23.65
36.2752 23.6392
36.3222 23.5923
36.3691 23.4723
36.4161 23.3195
36.463 23.3706
36.5101 23.4531
36.557 23.3207
36.6041 23.0826
36.651 23.1215
36.6981 23.0828
36.745 22.9899
36.7921 22.9292
36.839 22.7848
36.8861 22.689
36.9331 22.6519
36.9802 22.6556
37.0272 22.5078
37.0743 22.3836
37.1213 22.3603
37.1684 22.3916
37.2154 22.2804
37.2626 22.1716
37.3098 22.0748
37.3568 22.0509
37.404 22.0503
37.451 21.9141
37.4982 21.8506
37.5452 21.7303
37.5924 21.6475
37.6395 21.795
37.6867 21.6616
37.7337 21.478
37.781 21.3773
37.8281 21.3678
37.8753 21.287
37.9224 21.2334
37.9697 21.08
38.0168 21.0139
38.064 21.0396
38.1111 20.9527
38.1584 20.8248
38.2056 20.8106
38.2529 20.789
38.3 20.6979
38.3473 20.6091
38.3945 20.5133
38.4418 20.4543
38.489 20.4198
38.5363 20.3772
38.5837 20.2433
38.6309 20.2492
38.6782 20.1236
38.7254 20.0763
38.7728 19.9881
38.82 19.967
38.8674 19.8962
38.9146 19.8553
38.9621 19.8185
39.0093 19.7489
39.0567 19.6333
39.104 19.5892
39.1514 19.5038
39.1987 19.4592
39.2461 19.4198
39.2934 19.3894
39.3409 19.2669
39.3882 19.1764
39.4356 19.0822
39.483 19.0276
39.5304 19.0427
39.5778 18.9472
39.6253 18.9463
39.6726 18.8643
39.7201 18.8089
39.7675 18.7894
39.815 18.7031
39.8624 18.5592
39.9099 18.5668
39.9575 18.5005
40.0049 18.4747
40.0525 18.3833
40.0999 18.3823
40.1474 18.3157
40.1949 18.2268
40.2425 18.1297
40.2899 18.1047
40.3375 18.0436
40.385 17.982
40.4326 17.9201
40.48 17.8264
40.5277 17.8872
40.5752 17.7502
40.6228 17.6957
40.6703 17.5674
40.718 17.5384
40.7655 17.5295
40.8132 17.4717
40.8607 17.3831
40.9084 17.407
40.9559 17.3193
41.0036 17.2299
41.0512 17.1821
41.0989 17.1277
41.1465 17.0693
41.1942 17.0106
41.242 16.9267
41.2896 16.8634
41.3373 16.8821
41.3849 16.8233
41.4327 16.7228
41.4803 16.6706
41.5281 16.6658
41.5758 16.5565
41.6236 16.4862
41.6712 16.4727
41.7191 16.3822
41.7667 16.3437
41.8146 16.3299
41.8622 16.1982
41.9101 16.1941
41.9578 16.0396
42.0057 16.0793
42.0534 16.0145
42.1013 15.9219
42.149 15.9129
42.1969 15.8489
42.2446 15.7846
42.2925 15.856
42.3403 15.702
42.3882 15.6215
42.436 15.5797
42.4839 15.4749
42.5319 15.4987
42.5797 15.4508
42.6277 15.3682
42.6755 15.3568
42.7235 15.3125
42.7713 15.2243
42.8193 15.2355
42.8671 15.0987
42.9152 15.1211
42.963 14.9794
43.0111 14.915
43.0589 14.9349
43.107 14.8178
43.1549 14.8261
43.2029 14.7336
43.2508 14.7522
43.2989 14.608
43.3468 14.6019
43.3949 14.6138
43.4429 14.4593
43.491 14.4349
43.5389 14.3863
43.5871 14.4109
43.635 14.3139
43.6832 14.2683
43.7312 14.2019
43.7793 14.1155
43.8273 14.0972
43.8755 14.0504
43.9237 14.0221
43.9717 13.9944
44.0199 13.9308
44.068 13.8581
44.1162 13.7876
44.1642 13.8153
44.2125 13.7389
44.2606 13.7192
44.3088 13.6248
44.3569 13.5984
44.4052 13.5333
44.4533 13.4423
44.5016 13.4036
44.5497 13.3826
44.598 13.3991
44.6461 13.2607
44.6945 13.2331
44.7426 13.1936
44.791 13.1546
44.8391 13.1092
44.8875 13.066
44.9357 13.043
44.984 12.9945
45.0322 12.9209
45.0806 12.8883
45.1288 12.8115
45.1773 12.7898
45.2257 12.7525
45.2739 12.7235
45.3224 12.6693
45.3706 12.64
45.4191 12.5722
45.4673 12.5201
45.5158 12.4972
45.5641 12.4388
45.6126 12.3298
45.6609 12.3315
45.7094 12.2778
45.7577 12.2924
45.8063 12.1664
45.8546 12.1579
45.9031 12.1296
45.9515 12.098
46.0001 12.0228
46.0484 12.0151
46.097 11.9515
46.1454 11.9611
46.194 11.8751
46.2424 11.8122
46.291 11.7859
46.3395 11.746
46.3881 11.621
46.4365 11.6717
46.4852 11.6136
46.5337 11.57
46.5823 11.5514
46.631 11.4781
46.6795 11.4271
46.7282 11.3921
46.7767 11.3448
46.8254 11.2744
46.8739 11.2403
46.9226 11.2256
46.9712 11.203
47.0199 11.1208
47.0685 11.079
47.1173 11.0588
47.1658 11.0051
47.2146 10.9903
47.2632 10.91
47.312 10.9076
47.3606 10.8414
47.4095 10.8065
47.4581 10.8183
47.5069 10.7216
47.5556 10.6528
47.6044 10.6349
47.6531 10.599
47.702 10.5627
47.7507 10.5353
47.7996 10.4999
47.8483 10.4844
47.8972 10.4105
47.9461 10.4075
47.9948 10.3548
48.0438 10.3304
48.0925 10.3272
48.1415 10.2588
48.1902 10.2184
48.2392 10.1972
48.288 10.1334
48.337 10.0936
48.3858 10.0656
48.4348 10.0193
48.4837 10.0148
48.5327 9.98136
48.5815 9.93825
48.6306 9.86178
48.6795 9.86264
48.7285 9.79137
48.7774 9.79048
48.8265 9.76209
48.8754 9.66975
48.9245 9.65877
48.9734 9.63197
49.0226 9.62065
49.0715 9.4943
49.1206 9.47954
49.1696 9.46
49.2188 9.47075
49.2679 9.41771
49.3169 9.37693
49.3661 9.28359
49.4151 9.29269
49.4643 9.28222
49.5134 9.2127
49.5626 9.18573
49.6117 9.16017
49.6609 9.14599
49.71 9.06593
49.7592 9.05273
49.8083 9.00872
49.8576 8.99936
49.9067 8.93373
49.956 8.92244
50.0052 8.85514
50.0545 8.83826
50.1036 8.78327
50.153 8.76698
50.2022 8.74097
50.2515 8.72015
50.3007 8.64365
50.3501 8.6449
50.3993 8.59557
50.4487 8.55597
50.498 8.55462
50.5474 8.49329
50.5966 8.46289
50.6461 8.45729
50.6955 8.45549
50.7448 8.41317
50.7943 8.35677
50.8436 8.3066
50.8931 8.25517
50.9424 8.26536
50.9919 8.23306
51.0413 8.21802
51.0908 8.12663
51.1402 8.12589
51.1897 8.09874
51.2391 8.0534
51.2887 8.01863
51.3381 7.97718
51.3877 7.95558
51.4371 7.91813
51.4867 7.85508
51.5362 7.86064
51.5858 7.82722
51.6353 7.80942
51.6849 7.71514
51.7344 7.73938
51.7841 7.70549
51.8336 7.64068
51.8833 7.60162
51.9328 7.5821
51.9826 7.54577
52.0323 7.55353
52.0818 7.50946
52.1316 7.46624
52.1812 7.44395
52.231 7.40437
52.2806 7.42503
52.3304 7.34049
52.38 7.3211
52.4298 7.28379
52.4794 7.27449
52.5293 7.23399
52.5789 7.21737
52.6288 7.1722
52.6785 7.11272
52.7284 7.12056
52.7781 7.06585
52.828 7.05196
52.8777 7.0069
52.9276 6.99639
52.9774 6.98419
53.0273 6.93907
53.0771 6.87566
53.1271 6.87502
53.1769 6.8155
53.2269 6.80727
53.2767 6.78712
53.3267 6.76044
53.3765 6.74509
53.4266 6.6967
53.4766 6.66626
53.5265 6.62123
53.5765 6.57966
53.6264 6.58427
53.6765 6.48773
53.7264 6.50602
53.7765 6.5126
53.8265 6.47795
53.8766 6.3994
53.9266 6.42699
53.9767 6.3622
54.0267 6.35256
54.0769 6.30258
54.1269 6.31855
54.1771 6.24984
54.2271 6.21167
54.2773 6.1935
54.3274 6.15999
54.3776 6.12504
54.4277 6.08809
54.478 6.04235
54.528 6.02628
54.5783 5.98555
54.6285 5.90234
54.6788 5.8804
54.7289 5.86808
54.7792 5.80965
54.8296 5.73205
54.8798 5.69121
54.9301 5.70976
54.9803 5.63167
55.0307 5.63075
55.0809 5.57197
55.1314 5.55911
55.1816 5.48543
55.232 5.43083
55.2823 5.3725
55.3328 5.31399
55.383 5.30444
55.4335 5.2265
55.4838 5.13812
55.5344 5.10307
55.5847 5.09744
55.6352 5.04762
55.6856 4.99071
55.7361 4.99295