File: XRD/Ni3Fe_FD0238.xy
TT I
1.27165 7.86654
1.31627 7.08842
1.36089 7.48877
1.40551 6.23055
1.45013 6.11175
1.49476 7.2125
1.53938 6.37605
1.584 5.83591
1.62863 5.59181
1.67325 5.98282
1.71787 5.86702
1.7625 5.44899
1.80712 5.40499
1.85174 5.28862
1.89636 5.39049
1.94099 4.63894
1.98562 4.85897
2.03025 4.97477
2.07487 4.65278
2.11949 4.68056
2.16411 4.37165
2.20874 5.11513
2.25338 4.45243
2.298 4.59631
2.34263 4.90848
2.38725 5.23461
2.43188 5.54106
2.4765 5.56864
2.52115 5.05521
2.56577 5.1839
2.6104 6.11993
2.65503 5.91192
2.69965 6.92465
2.7443 6.99181
2.78893 7.09179
2.83356 8.0638
2.87818 8.0689
2.92281 8.35339
2.96744 9.21188
3.01209 10.1592
3.05672 11.3237
3.10135 12.2402
3.14599 13.4034
3.19062 13.9729
3.23527 14.6888
3.2799 16.0728
3.32454 16.7017
3.36917 17.5539
3.4138 18.4707
3.45844 19.6516
3.50309 21.0238
3.54773 21.6467
3.59237 22.3815
3.637 22.9692
3.68164 24.0033
3.7263 24.8059
3.77094 26.26
3.81558 26.7089
3.86022 27.4676
3.90486 29.3152
3.9495 29.7753
3.99416 31.1498
4.0388 32.6609
4.08344 34.0615
4.12809 34.7089
4.17273 36.4381
4.21738 38.2353
4.26204 39.1383
4.30669 40.7814
4.35133 42.5713
4.39598 44.1651
4.44063 46.6993
4.4853 48.7503
4.52995 53.1658
4.5746 54.4373
4.61925 55.88
4.6639 58.0349
4.70855 61.4605
4.75322 64.7495
4.79788 68.4075
4.84253 71.4869
4.88719 76.7647
4.93184 81.4267
4.97652 88.3709
5.02118 96.5166
5.06583 106.791
5.11049 123.704
5.15515 169.292
5.19981 890.512
5.24449 3979.02
5.28916 10622.1
5.33382 4061.9
5.37848 270.771
5.42315 152.774
5.46783 129.264
5.5125 118.206
5.55716 111.695
5.60183 106.759
5.6465 104.124
5.69117 102.596
5.73586 100.666
5.78053 101.956
5.8252 102.155
5.86988 104.685
5.91455 110.215
5.95924 133.067
6.00392 449.009
6.0486 1427.81
6.09328 3666.06
6.13795 3656.72
6.18263 350.518
6.22733 108.34
6.27201 88.6678
6.3167 80.8098
6.36138 76.1181
6.40606 72.9836
6.45075 71.1716
6.49545 68.9649
6.54014 66.4588
6.58483 64.9548
6.62952 64.5377
6.67421 62.2085
6.71892 61.4779
6.76361 60.7411
6.8083 59.9684
6.853 59.4341
6.89769 58.7363
6.94239 58.2371
6.98711 57.418
7.03181 57.1136
7.07651 56.8723
7.12121 56.174
7.16591 56.5349
7.21063 55.7185
7.25533 55.6368
7.30004 55.7403
7.34475 56.0266
7.38945 56.3698
7.43416 55.4589
7.47889 55.6318
7.5236 56.1646
7.56831 56.9859
7.61303 57.1384
7.65774 57.5245
7.70247 58.1739
7.74719 58.5714
7.79191 58.9934
7.83663 59.1313
7.88135 60.3578
7.92607 61.3585
7.97081 62.2369
8.01553 63.8091
8.06026 65.2867
8.10498 66.8129
8.14971 69.1033
8.19446 70.783
8.23919 73.3089
8.28392 76.0448
8.32865 79.1492
8.37339 84.2016
8.41812 90.3857
8.46288 111.287
8.50761 293.119
8.55235 582.287
8.59709 1081.22
8.64183 1981.53
8.68658 1204.56
8.73134 215.434
8.77609 110.783
8.82083 100.068
8.86558 96.1586
8.91033 93.3597
8.9551 90.8492
8.99985 89.1658
9.04461 88.8127
9.08936 87.8701
9.13412 87.1461
9.17888 86.4467
9.22365 86.3542
9.26841 87.1193
9.31318 88.2446
9.35794 88.4368
9.4027 88.3591
9.44749 89.2088
9.49226 89.6021
9.53703 90.3375
9.5818 93.0547
9.62657 94.6753
9.67134 95.869
9.71614 97.9358
9.76091 100.23
9.80569 103.678
9.85047 106.931
9.89525 112.866
9.94005 138.111
9.98484 304.854
10.0296 515.801
10.0744 808.934
10.1192 1461.54
10.164 1680.9
10.2088 541.31
10.2536 146.713
10.2984 117.354
10.3432 112.775
10.388 115.648
10.4328 159.757
10.4776 211.372
10.5224 284.08
10.5672 454.805
10.612 529.403
10.6568 253.074
10.7017 107.672
10.7465 92.2841
10.7913 87.9838
10.8361 85.1714
10.8809 83.0304
10.9257 80.7236
10.9706 79.4568
11.0154 77.249
11.0602 76.2034
11.105 74.5894
11.1499 73.3143
11.1947 72.2947
11.2395 71.0553
11.2844 70.881
11.3292 69.7709
11.374 68.7531
11.4189 68.5329
11.4637 67.7986
11.5086 67.0524
11.5534 66.614
11.5983 66.4286
11.6431 66.5086
11.688 65.8747
11.7328 65.868
11.7777 65.4629
11.8225 65.2439
11.8674 65.2853
11.9122 65.6705
11.9571 66.2278
12.002 68.6494
12.0468 79.7761
12.0917 94.0928
12.1366 109.154
12.1814 142.021
12.2263 193.599
12.2712 180.855
12.3161 102.69
12.3609 70.0153
12.4058 67.16
12.4507 67.0965
12.4956 67.3849
12.5405 67.4894
12.5853 67.98
12.6302 68.175
12.6751 68.7883
12.72 69.6743
12.7649 70.6626
12.8098 71.5811
12.8547 73.1012
12.8996 74.777
12.9445 76.4738
12.9894 78.4217
13.0343 80.7514
13.0792 86.4567
13.1242 111.599
13.1691 146.862
13.214 174.891
13.2589 231.467
13.3038 325.856
13.3487 418.852
13.3937 306.609
13.4386 149.194
13.4835 133.268
13.5285 152.451
13.5734 175.151
13.6183 228.14
13.6633 312.305
13.7082 353.567
13.7531 222.464
13.7981 109.684
13.843 86.967
13.888 83.965
13.9329 81.3158
13.9779 80.2355
14.0228 78.2887
14.0678 76.6221
14.1127 75.9652
14.1577 75.306
14.2027 74.6032
14.2476 73.9365
14.2926 73.4761
14.3376 73.0539
14.3825 72.6576
14.4275 72.298
14.4725 72.1914
14.5175 72.4254
14.5624 72.6667
14.6074 72.8853
14.6524 73.6612
14.6974 74.6072
14.7424 81.2828
14.7874 95.1456
14.8324 106.517
14.8774 120.023
14.9224 146.552
14.9674 188.058
15.0124 222.919
15.0574 169.623
15.1024 100.487
15.1474 76.8019
15.1924 73.9851
15.2374 72.1383
15.2824 71.3772
15.3274 70.4705
15.3725 70.1364
15.4175 69.8438
15.4625 69.3678
15.5076 69.1328
15.5526 69.294
15.5976 69.7699
15.6426 75.2844
15.6877 86.2344
15.7327 94.6415
15.7778 103.78
15.8228 122.558
15.8679 153.718
15.9129 190.612
15.958 173.499
16.003 111.185
16.0481 72.6418
16.0931 65.6193
16.1382 63.7526
16.1833 62.9939
16.2283 61.5018
16.2734 61.0193
16.3185 60.1894
16.3636 59.3876
16.4086 58.8622
16.4537 58.4985
16.4988 58.0083
16.5439 57.9506
16.589 57.5069
16.6341 57.5388
16.6792 57.1048
16.7243 57.1708
16.7694 57.2369
16.8145 57.2434
16.8596 57.3638
16.9047 57.4155
16.9498 57.7922
16.9949 57.9609
17.04 59.3846
17.0851 61.8485
17.1302 63.7893
17.1754 65.4617
17.2205 68.978
17.2656 74.0173
17.3108 82.4554
17.3559 86.2373
17.401 76.4123
17.4462 66.296
17.4913 62.3548
17.5365 62.1532
17.5815 62.1784
17.6268 62.4998
17.6718 63.0847
17.7171 63.5697
17.7622 64.4859
17.8074 66.5754
17.8525 72.4225
17.8977 78.0173
17.9428 82.6212
17.9881 88.3252
18.0331 99.5223
18.0784 115.929
18.1237 139.16
18.1688 144.537
18.214 117.573
18.2591 93.2041
18.3044 90.5781
18.3495 97.0283
18.3948 106.36
18.4399 101.225
18.4852 83.1094
18.5303 70.0472
18.5756 65.275
18.6207 64.5483
18.666 63.4385
18.7112 62.4414
18.7565 61.8015
18.8016 61.6973
18.8469 60.8108
18.892 60.64
18.9374 60.1264
18.9825 59.8001
19.0278 59.5404
19.073 60.3156
19.1183 61.2965
19.1635 61.942
19.2088 62.8246
19.254 64.6282
19.2993 67.4938
19.3447 71.5159
19.3898 76.3064
19.4352 75.8746
19.4804 68.1287
19.5257 60.3451
19.5709 56.9656
19.6163 56.5639
19.6615 56.4012
19.7068 55.9192
19.752 56.0768
19.7974 56.9602
19.8426 58.3035
19.888 58.7373
19.9332 59.5505
19.9786 61.4244
20.0238 64.2177
20.0692 68.5208
20.1144 72.6936
20.1598 72.9508
20.205 67.8143
20.2504 64.3195
20.2957 64.3756
20.3411 66.6185
20.3863 67.0573
20.4318 62.1901
20.477 56.4731
20.5224 53.7351
20.5677 52.9227
20.6131 52.7196
20.6586 51.9982
20.7038 51.8254
20.7493 51.333
20.7945 51.357
20.84 51.0244
20.8853 51.0171
20.9307 51.1792
20.976 51.3258
21.0215 51.0264
21.0668 51.4518
21.1122 51.7912
21.1575 52.2358
21.203 52.6682
21.2483 53.4134
21.2938 53.8685
21.3391 52.6699
21.3846 51.5086
21.4299 50.751
21.4754 50.8114
21.5207 51.2352
21.5662 51.9374
21.6116 52.7013
21.6571 53.5558
21.7024 54.2848
21.7479 55.4336
21.7933 57.5846
21.8388 60.1879
21.8843 63.6303
21.9297 66.6349
21.9752 66.713
22.0206 62.9911
22.0661 58.7045
22.1115 57.6071
22.157 58.4515
22.2024 57.3395
22.248 54.5378
22.2933 52.3493
22.3389 51.375
22.3843 51.07
22.4299 50.771
22.4753 50.9641
22.5208 50.8814
22.5662 50.8511
22.6118 51.3392
22.6572 51.9706
22.7028 52.4031
22.7483 52.684
22.7939 53.0707
22.8393 54.1532
22.8849 55.4845
22.9303 57.2254
22.9759 59.4204
23.0214 60.0086
23.067 57.8681
23.1126 54.2928
23.1581 51.8771
23.2037 51.3291
23.2492 51.7323
23.2948 51.8936
23.3403 52.219
23.3859 52.6839
23.4314 53.1225
23.477 54.2443
23.5225 55.6361
23.5682 57.6512
23.6137 59.62
23.6593 58.4878
23.7048 54.972
23.7505 51.0398
23.796 48.9297
23.8417 48.2168
23.8872 47.7465
23.9329 47.274
23.9784 47.0968
24.0241 46.777
24.0697 46.4586
24.1154 46.0314
24.1609 46.0683
24.2066 45.8167
24.2522 45.7704
24.2979 45.5702
24.3434 45.3737
24.3892 45.2068
24.4349 45.0238
24.4805 44.7592
24.5262 45.0226
24.5718 44.9065
24.6175 44.8237
24.6631 44.7342
24.7089 44.4759
24.7545 44.3695
24.8002 44.3329
24.8458 44.4766
24.8916 44.1339
24.9372 44.3391
24.983 44.6896
25.0286 44.965
25.0744 45.3372
25.12 45.5526
25.1658 46.1874
25.2114 46.5203
25.2572 46.5407
25.3029 46.4198
25.3487 46.5193
25.3943 46.6425
25.4402 45.891
25.4858 44.7502
25.5316 43.5936
25.5773 42.8122
25.6231 42.6904
25.669 42.5246
25.7147 42.4737
25.7605 42.4728
25.8062 42.4621
25.8521 42.6716
25.8977 42.3445
25.9436 42.7328
25.9893 42.6438
26.0352 43.1142
26.0809 43.1958
26.1268 43.4976
26.1725 43.4994
26.2184 43.025
26.2641 42.3691
26.31 42.2188
26.3557 42.1974
26.4017 42.1148
26.4474 42.3631
26.4933 42.5308
26.5391 42.8687
26.585 43.0498
26.6308 43.7317
26.6767 43.823
26.7225 43.8485
26.7684 43.4358
26.8142 42.7379
26.8601 42.1815
26.9059 41.9498
26.9519 41.4031
26.9979 41.1101
27.0437 40.6912
27.0896 40.6243
27.1354 40.5869
27.1814 40.4738
27.2272 40.4035
27.2732 40.3399
27.3191 40.1563
27.3651 40.4088
27.4109 40.1228
27.4569 40.2443
27.5027 40.2267
27.5488 40.3037
27.5946 40.2021
27.6407 40.0034
27.6865 39.9267
27.7326 39.669
27.7784 39.6768
27.8245 39.5764
27.8703 39.7808
27.9164 39.9666
27.9623 40.0138
28.0084 40.2929
28.0543 40.5786
28.1003 40.6816
28.1462 40.4813
28.1923 40.153
28.2384 39.6852
28.2843 39.4824
28.3304 38.9278
28.3764 38.3976
28.4225 38.0366
28.4684 37.8506
28.5145 37.693
28.5605 37.4639
28.6066 37.3387
28.6526 37.2792
28.6987 37.1918
28.7447 36.9516
28.7908 36.9968
28.8368 36.9179
28.8829 36.9924
28.9289 36.8963
28.9751 36.7846
29.0211 36.5928
29.0673 36.2344
29.1133 36.1067
29.1595 36.1457
29.2055 35.9586
29.2517 35.778
29.2977 35.7546
29.3439 35.7311
29.3899 35.8099
29.4361 35.6844
29.4824 35.5307
29.5284 35.448
29.5746 34.9616
29.6207 34.5763
29.6669 34.6105
29.713 34.6089
29.7593 34.2503
29.8053 34.3961
29.8516 34.2179
29.8977 34.3486
29.9439 34.1177
29.99 34.0207
30.0363 33.8445
30.0824 33.8697
30.1287 33.7932
30.1748 33.9675
30.2211 33.9454
30.2673 33.7237
30.3136 33.9499
30.3597 33.7504
30.406 33.6045
30.4522 33.5
30.4985 33.5061
30.5447 33.6647
30.591 33.5119
30.6372 33.6268
30.6835 33.5443
30.7297 33.6476
30.7761 33.6439
30.8224 33.4313
30.8686 33.3543
30.915 33.0928
30.9612 33.0579
31.0076 32.8028
31.0538 32.5986
31.1002 32.5131
31.1464 32.3748
31.1928 32.3633
31.2391 32.3461
31.2855 32.3003
31.3317 32.2368
31.3781 32.3159
31.4244 32.2579
31.4708 32.1894
31.5171 32.3149
31.5636 32.1577
31.6098 32.0771
31.6563 31.7529
31.7026 31.6609
31.7491 31.4721
31.7953 31.5448
31.8418 31.4749
31.8881 31.5105
31.9346 31.3463
31.9809 31.4275
32.0275 31.3389
32.074 31.1662
32.1203 31.0007
32.1668 30.9824
32.2132 30.7723
32.2597 30.625
32.306 30.5145
32.3526 30.3613
32.399 30.2291
32.4455 30.0706
32.4919 29.9634
32.5385 29.9225
32.5848 29.7972
32.6314 29.798
32.6778 29.6819
32.7244 29.5516
32.7708 29.4541
32.8174 29.4559
32.8638 29.3512
32.9104 29.323
32.9569 29.2882
33.0035 29.0963
33.0499 29.0994
33.0966 29.089
33.143 28.9851
33.1897 28.8746
33.2361 28.8622
33.2828 28.7646
33.3293 28.617
33.3759 28.6133
33.4226 28.5421
33.4691 28.294
33.5158 28.2591
33.5623 28.0927
33.609 27.9893
33.6555 27.8583
33.7022 27.8643
33.7487 27.7629
33.7954 27.7413
33.842 27.5501
33.8887 27.5198
33.9353 27.4696
33.982 27.34
34.0286 27.2717
34.0753 27.111
34.1219 27.006
34.1687 27.0172
34.2152 26.9179
34.262 26.7351
34.3086 26.6419
34.3554 26.7319
34.402 26.5258
34.4488 26.4544
34.4954 26.38
34.5422 26.2203
34.5889 26.1225
34.6357 26.1454
34.6825 26.0039
34.7292 25.9205
34.776 25.7794
34.8227 25.7957
34.8695 25.7281
34.9162 25.641
34.9631 25.6121
35.0098 25.5294
35.0566 25.4723
35.1033 25.2887
35.1502 25.3562
35.1969 25.3253
35.2438 25.2745
35.2906 25.0755
35.3375 25.0836
35.3842 25.0194
35.4311 24.978
35.4779 25.0339
35.5248 24.9957
35.5716 24.8478
35.6185 24.7921
35.6653 24.6922
35.7123 24.6046
35.759 24.528
35.806 24.3957
35.8528 24.2553
35.8998 24.2331
35.9468 24.1241
35.9936 24.1544
36.0406 24.0731
36.0874 23.9541
36.1345 24.0446
36.1813 23.8549
36.2283 23.7155
36.2752 23.6232
36.3222 23.6417
36.3691 23.5282
36.4161 23.3732
36.463 23.4324
36.5101 23.4001
36.557 23.2762
36.6041 23.1711
36.651 23.1766
36.6981 23.1619
36.745 23.0305
36.7921 22.9944
36.839 22.8463
36.8861 22.7269
36.9331 22.6618
36.9802 22.6068
37.0272 22.5999
37.0743 22.4806
37.1213 22.3994
37.1684 22.3688
37.2154 22.3555
37.2626 22.2289
37.3098 22.1331
37.3568 22.0256
37.404 22.0161
37.451 21.9063
37.4982 21.9088
37.5452 21.7847
37.5924 21.6969
37.6395 21.8272
37.6867 21.6134
37.7337 21.4553
37.781 21.4349
37.8281 21.4286
37.8753 21.284
37.9224 21.2441
37.9697 21.147
38.0168 21.1374
38.064 21.0586
38.1111 20.9432
38.1584 20.937
38.2056 20.8529
38.2529 20.7406
38.3 20.7495
38.3473 20.6499
38.3945 20.5328
38.4418 20.5204
38.489 20.4594
38.5363 20.377
38.5837 20.3198
38.6309 20.3124
38.6782 20.1332
38.7254 20.1118
38.7728 20.087
38.82 19.9563
38.8674 19.902
38.9146 19.8712
38.9621 19.7686
39.0093 19.7114
39.0567 19.6788
39.104 19.634
39.1514 19.5001
39.1987 19.5256
39.2461 19.4738
39.2934 19.368
39.3409 19.3363
39.3882 19.2367
39.4356 19.181
39.483 19.1289
39.5304 19.1335
39.5778 19.031
39.6253 18.9574
39.6726 18.8667
39.7201 18.8489
39.7675 18.7822
39.815 18.7238
39.8624 18.6611
39.9099 18.5882
39.9575 18.4773
40.0049 18.4284
40.0525 18.4544
40.0999 18.3344
40.1474 18.2759
40.1949 18.241
40.2425 18.1459
40.2899 18.118
40.3375 18.0655
40.385 18.0123
40.4326 18.0119
40.48 17.8387
40.5277 17.8561
40.5752 17.7691
40.6228 17.6598
40.6703 17.6922
40.718 17.6714
40.7655 17.5311
40.8132 17.4852
40.8607 17.4375
40.9084 17.394
40.9559 17.3822
41.0036 17.3089
41.0512 17.3005
41.0989 17.1437
41.1465 17.1146
41.1942 17.0306
41.242 16.9887
41.2896 16.9368
41.3373 16.8765
41.3849 16.768
41.4327 16.7665
41.4803 16.6907
41.5281 16.661
41.5758 16.5843
41.6236 16.5455
41.6712 16.4535
41.7191 16.4274
41.7667 16.3653
41.8146 16.3853
41.8622 16.2463
41.9101 16.1973
41.9578 16.0989
42.0057 16.109
42.0534 16.0491
42.1013 15.9693
42.149 15.9214
42.1969 15.9105
42.2446 15.8405
42.2925 15.7729
42.3403 15.7179
42.3882 15.6875
42.436 15.6056
42.4839 15.5744
42.5319 15.5635
42.5797 15.4682
42.6277 15.3847
42.6755 15.3471
42.7235 15.2745
42.7713 15.2996
42.8193 15.2265
42.8671 15.1723
42.9152 15.0821
42.963 15.0408
43.0111 15.01
43.0589 14.961
43.107 14.8323
43.1549 14.8145
43.2029 14.8124
43.2508 14.7878
43.2989 14.6555
43.3468 14.6694
43.3949 14.6126
43.4429 14.5436
43.491 14.4513
43.5389 14.4576
43.5871 14.4353
43.635 14.3252
43.6832 14.2892
43.7312 14.1895
43.7793 14.1892
43.8273 14.1814
43.8755 14.1454
43.9237 14.0613
43.9717 14.0197
44.0199 13.94
44.068 13.9341
44.1162 13.8272
44.1642 13.8288
44.2125 13.7961
44.2606 13.7312
44.3088 13.637
44.3569 13.6046
44.4052 13.5624
44.4533 13.483
44.5016 13.4484
44.5497 13.4596
44.598 13.3717
44.6461 13.3171
44.6945 13.2922
44.7426 13.1848
44.791 13.154
44.8391 13.1631
44.8875 13.094
44.9357 13.0487
44.984 12.9631
45.0322 12.9186
45.0806 12.902
45.1288 12.8648
45.1773 12.8283
45.2257 12.7566
45.2739 12.7383
45.3224 12.6874
45.3706 12.651
45.4191 12.5988
45.4673 12.531
45.5158 12.5048
45.5641 12.4557
45.6126 12.3957
45.6609 12.3537
45.7094 12.3379
45.7577 12.2691
45.8063 12.1783
45.8546 12.1614
45.9031 12.1314
45.9515 12.1128
46.0001 12.0723
46.0484 12.0216
46.097 12.0053
46.1454 11.9061
46.194 11.9336
46.2424 11.8021
46.291 11.7809
46.3395 11.7505
46.3881 11.696
46.4365 11.7027
46.4852 11.6246
46.5337 11.5527
46.5823 11.5853
46.631 11.5084
46.6795 11.4546
46.7282 11.4418
46.7767 11.4127
46.8254 11.3151
46.8739 11.2998
46.9226 11.1995
46.9712 11.1947
47.0199 11.1603
47.0685 11.1216
47.1173 11.0898
47.1658 11.0204
47.2146 10.9735
47.2632 10.9292
47.312 10.9107
47.3606 10.8319
47.4095 10.8349
47.4581 10.8035
47.5069 10.7123
47.5556 10.7398
47.6044 10.6896
47.6531 10.6121
47.702 10.5299
47.7507 10.5913
47.7996 10.5418
47.8483 10.4651
47.8972 10.4309
47.9461 10.3977
47.9948 10.3849
48.0438 10.2822
48.0925 10.272
48.1415 10.2279
48.1902 10.2207
48.2392 10.2
48.288 10.1427
48.337 10.1405
48.3858 10.0182
48.4348 10.049
48.4837 9.99752
48.5327 9.9699
48.5815 9.93901
48.6306 9.897
48.6795 9.88525
48.7285 9.75376
48.7774 9.79067
48.8265 9.73733
48.8754 9.70763
48.9245 9.64548
48.9734 9.64451
49.0226 9.63637
49.0715 9.56416
49.1206 9.47905
49.1696 9.46306
49.2188 9.4742
49.2679 9.41167
49.3169 9.34623
49.3661 9.3297
49.4151 9.28785
49.4643 9.27264
49.5134 9.25773
49.5626 9.14922
49.6117 9.16521
49.6609 9.13608
49.71 9.07401
49.7592 9.06736
49.8083 9.03441
49.8576 9.00862
49.9067 8.94309
49.956 8.94093
50.0052 8.867
50.0545 8.86221
50.1036 8.78027
50.153 8.77419
50.2022 8.75417
50.2515 8.72726
50.3007 8.65111
50.3501 8.62347
50.3993 8.62662
50.4487 8.58359
50.498 8.5329
50.5474 8.50306
50.5966 8.45578
50.6461 8.43893
50.6955 8.43092
50.7448 8.38781
50.7943 8.37339
50.8436 8.36047
50.8931 8.28915
50.9424 8.24737
50.9919 8.23426
51.0413 8.1977
51.0908 8.1477
51.1402 8.13418
51.1897 8.09223
51.2391 8.0569
51.2887 8.0371
51.3381 7.99183
51.3877 7.97029
51.4371 7.91502
51.4867 7.8727
51.5362 7.859
51.5858 7.82306
51.6353 7.79738
51.6849 7.7357
51.7344 7.70543
51.7841 7.69698
51.8336 7.65758
51.8833 7.6288
51.9328 7.59481
51.9826 7.55267
52.0323 7.52568
52.0818 7.49394
52.1316 7.46971
52.1812 7.46104
52.231 7.41125
52.2806 7.37676
52.3304 7.37695
52.38 7.32492
52.4298 7.29727
52.4794 7.24588
52.5293 7.2466
52.5789 7.22307
52.6288 7.19219
52.6785 7.16252
52.7284 7.09933
52.7781 7.07188
52.828 7.04964
52.8777 6.9992
52.9276 6.97892
52.9774 6.98186
53.0273 6.9695
53.0771 6.87938
53.1271 6.89239
53.1769 6.85799
53.2269 6.82142
53.2767 6.77679
53.3267 6.78454
53.3765 6.74485
53.4266 6.70077
53.4766 6.60933
53.5265 6.60518
53.5765 6.6284
53.6264 6.62863
53.6765 6.56604
53.7264 6.54258
53.7765 6.51386
53.8265 6.42555
53.8766 6.40485
53.9266 6.41572
53.9767 6.39468
54.0267 6.39011
54.0769 6.35012
54.1269 6.27206
54.1771 6.28745
54.2271 6.24559
54.2773 6.14708
54.3274 6.18265
54.3776 6.11369
54.4277 6.1057
54.478 6.10632
54.528 6.00237
54.5783 5.99705
54.6285 5.9307
54.6788 5.91821
54.7289 5.82653
54.7792 5.84744
54.8296 5.77089
54.8798 5.70768
54.9301 5.67508
54.9803 5.64573
55.0307 5.65388
55.0809 5.52732
55.1314 5.53352
55.1816 5.4461
55.232 5.43288
55.2823 5.37131
55.3328 5.33024
55.383 5.27355
55.4335 5.26386
55.4838 5.16035
55.5344 5.10642
55.5847 5.10366
55.6352 5.08656
55.6856 4.96942
55.7361 5.02585