File: XRD/Ni3Fe_FD0690.xy
TT I
1.27165 7.54492
1.31627 6.44938
1.36089 6.35423
1.40551 6.35971
1.45013 5.93994
1.49476 6.62372
1.53938 5.5904
1.584 5.53342
1.62863 5.30228
1.67325 5.522
1.71787 4.53677
1.7625 4.93952
1.80712 4.30239
1.85174 4.26189
1.89636 4.82325
1.94099 4.55212
1.98562 4.80914
2.03025 4.43066
2.07487 4.4707
2.11949 4.89603
2.16411 4.68366
2.20874 9.27278
2.25338 13.9676
2.298 5.70409
2.34263 5.32928
2.38725 5.60758
2.43188 6.42593
2.4765 6.37918
2.52115 7.46186
2.56577 6.92515
2.6104 8.17721
2.65503 8.02138
2.69965 7.88933
2.7443 7.82524
2.78893 7.93134
2.83356 8.47959
2.87818 9.14911
2.92281 8.91675
2.96744 9.82412
3.01209 10.0858
3.05672 11.0873
3.10135 12.5716
3.14599 12.9252
3.19062 14.3718
3.23527 14.8005
3.2799 15.6401
3.32454 16.8256
3.36917 17.5619
3.4138 18.8983
3.45844 19.1486
3.50309 20.544
3.54773 21.3143
3.59237 22.834
3.637 58.9735
3.68164 41.002
3.7263 25.31
3.77094 26.0366
3.81558 26.4585
3.86022 27.3786
3.90486 28.7778
3.9495 29.1922
3.99416 30.5844
4.0388 31.6995
4.08344 33.1566
4.12809 34.4325
4.17273 35.5818
4.21738 39.8863
4.26204 144.858
4.30669 126.09
4.35133 45.1754
4.39598 43.5821
4.44063 50.2453
4.4853 56.4528
4.52995 53.6312
4.5746 54.4737
4.61925 53.4784
4.6639 55.6426
4.70855 57.8466
4.75322 61.536
4.79788 67.1248
4.84253 67.9225
4.88719 73.6281
4.93184 76.6889
4.97652 81.3994
5.02118 87.8125
5.06583 95.7057
5.11049 106.982
5.15515 159.395
5.19981 423.847
5.24449 3049.71
5.28916 12629.7
5.33382 2743.8
5.37848 191.684
5.42315 130.146
5.46783 116.776
5.5125 109.562
5.55716 102.191
5.60183 98.4267
5.6465 96.767
5.69117 94.4026
5.73586 92.7199
5.78053 95.8729
5.8252 95.4825
5.86988 97.2946
5.91455 95.901
5.95924 105.675
6.00392 246.897
6.0486 1021.07
6.09328 4564.03
6.13795 3095.4
6.18263 217.565
6.22733 90.87
6.27201 81.1666
6.3167 88.2738
6.36138 75.9628
6.40606 69.6859
6.45075 68.4642
6.49545 65.1246
6.54014 63.3579
6.58483 62.6452
6.62952 62.9326
6.67421 77.1515
6.71892 101.892
6.76361 63.4816
6.8083 58.9236
6.853 58.5254
6.89769 56.3492
6.94239 56.2703
6.98711 55.361
7.03181 55.7826
7.07651 55.0261
7.12121 54.9388
7.16591 55.78
7.21063 54.9858
7.25533 62.7851
7.30004 116.234
7.34475 72.3377
7.38945 55.3231
7.43416 53.8741
7.47889 54.0689
7.5236 54.1011
7.56831 55.0728
7.61303 55.809
7.65774 56.5088
7.70247 56.1067
7.74719 55.934
7.79191 56.4276
7.83663 56.755
7.88135 57.564
7.92607 58.6633
7.97081 59.318
8.01553 60.648
8.06026 62.4687
8.10498 63.8843
8.14971 70.923
8.19446 70.8484
8.23919 69.6477
8.28392 71.8351
8.32865 74.2911
8.37339 78.6758
8.41812 84.4937
8.46288 106.401
8.50761 186.187
8.55235 412.631
8.59709 1228.76
8.64183 2205.45
8.68658 868.702
8.73134 154.108
8.77609 98.2941
8.82083 92.6127
8.86558 91.3198
8.91033 90.9113
8.9551 89.5804
8.99985 84.9547
9.04461 83.7384
9.08936 83.5276
9.13412 82.532
9.17888 82.1262
9.22365 82.2716
9.26841 82.1576
9.31318 83.9327
9.35794 85.0215
9.4027 84.63
9.44749 84.7272
9.49226 84.9193
9.53703 85.8183
9.5818 88.5616
9.62657 93.2229
9.67134 95.6404
9.71614 92.8034
9.76091 94.7825
9.80569 98.4794
9.85047 101.095
9.89525 114.572
9.94005 130.619
9.98484 198.987
10.0296 367.374
10.0744 855.055
10.1192 1790.86
10.164 1554.78
10.2088 358.835
10.2536 122.691
10.2984 110.319
10.3432 109.814
10.388 105.453
10.4328 124.113
10.4776 167.725
10.5224 294.754
10.5672 514.465
10.612 494.593
10.6568 193.714
10.7017 94.5778
10.7465 86.3832
10.7913 83.4074
10.8361 80.8303
10.8809 78.499
10.9257 78.0632
10.9706 77.816
11.0154 75.117
11.0602 72.6544
11.105 71.537
11.1499 72.8561
11.1947 75.9276
11.2395 71.2979
11.2844 68.5994
11.3292 66.8922
11.374 65.844
11.4189 65.579
11.4637 64.8146
11.5086 64.8219
11.5534 66.4092
11.5983 64.4247
11.6431 63.2849
11.688 62.7677
11.7328 62.8348
11.7777 62.8664
11.8225 62.5529
11.8674 62.6085
11.9122 62.8732
11.9571 63.0391
12.002 64.5342
12.0468 69.7209
12.0917 79.7061
12.1366 104.779
12.1814 155.491
12.2263 205.429
12.2712 157.984
12.3161 88.7624
12.3609 67.6216
12.4058 64.2379
12.4507 64.0781
12.4956 64.4932
12.5405 64.7335
12.5853 65.2054
12.6302 69.3283
12.6751 72.2039
12.72 68.4412
12.7649 67.6407
12.8098 68.3363
12.8547 69.6571
12.8996 71.2592
12.9445 72.7269
12.9894 74.708
13.0343 76.2157
13.0792 80.201
13.1242 92.9982
13.1691 114.616
13.214 154.01
13.2589 250.679
13.3038 382.701
13.3487 419.63
13.3937 246.154
13.4386 120.232
13.4835 108.578
13.5285 123.339
13.5734 164.425
13.6183 256.214
13.6633 356.215
13.7082 327.49
13.7531 171.311
13.7981 93.6951
13.843 81.4314
13.888 79.4126
13.9329 77.0927
13.9779 76.06
14.0228 74.2289
14.0678 73.0221
14.1127 72.6301
14.1577 72.1062
14.2027 71.1284
14.2476 70.3411
14.2926 70.2895
14.3376 70.4317
14.3825 69.7537
14.4275 68.75
14.4725 68.8204
14.5175 68.8622
14.5624 69.0723
14.6074 70.0611
14.6524 70.9484
14.6974 70.4423
14.7424 73.9805
14.7874 80.575
14.8324 90.8642
14.8774 113.864
14.9224 159.463
14.9674 211.965
15.0124 216.234
15.0574 140.368
15.1024 86.7442
15.1474 71.6593
15.1924 70.0881
15.2374 69.9349
15.2824 69.0943
15.3274 67.579
15.3725 66.5919
15.4175 66.612
15.4625 66.0768
15.5076 65.8923
15.5526 65.814
15.5976 66.1745
15.6426 68.0911
15.6877 73.96
15.7327 81.2635
15.7778 97.1376
15.8228 130.313
15.8679 175.37
15.9129 195.282
15.958 150.484
16.003 91.2286
16.0481 66.6013
16.0931 63.4442
16.1382 61.6629
16.1833 60.3601
16.2283 58.6992
16.2734 58.3022
16.3185 57.9602
16.3636 58.0958
16.4086 57.0205
16.4537 55.9611
16.4988 55.3076
16.5439 55.2711
16.589 55.1271
16.6341 54.5968
16.6792 54.4335
16.7243 54.6665
16.7694 54.5981
16.8145 54.8156
16.8596 55.0737
16.9047 55.7315
16.9498 56.0986
16.9949 55.4673
17.04 55.948
17.0851 57.3298
17.1302 58.7794
17.1754 61.7376
17.2205 67.2769
17.2656 75.4551
17.3108 83.3024
17.3559 81.2972
17.401 69.9021
17.4462 61.5412
17.4913 59.1094
17.5365 59.2092
17.5815 59.2827
17.6268 59.6971
17.6718 60.5339
17.7171 60.8218
17.7622 61.2996
17.8074 62.3934
17.8525 65.5532
17.8977 69.1118
17.9428 74.4968
17.9881 84.0112
18.0331 102.464
18.0784 124.959
18.1237 142.643
18.1688 130.668
18.214 100.966
18.2591 86.1529
18.3044 91.7498
18.3495 101.486
18.3948 106.187
18.4399 94.3419
18.4852 75.2544
18.5303 65.211
18.5756 61.9668
18.6207 61.1634
18.666 60.2281
18.7112 59.4941
18.7565 58.9156
18.8016 58.5114
18.8469 58.0514
18.892 57.7387
18.9374 57.0807
18.9825 57.0644
19.0278 56.7843
19.073 57.0561
19.1183 57.2295
19.1635 58.0638
19.2088 59.6571
19.254 62.7836
19.2993 67.5217
19.3447 73.2856
19.3898 76.3219
19.4352 71.3413
19.4804 62.0996
19.5257 55.9491
19.5709 54.0555
19.6163 53.8557
19.6615 53.7788
19.7068 53.1788
19.752 53.2345
19.7974 53.8567
19.8426 54.5586
19.888 54.9856
19.9332 56.2658
19.9786 59.2092
20.0238 63.1144
20.0692 67.7828
20.1144 69.8248
20.1598 67.8926
20.205 63.2679
20.2504 62.2453
20.2957 64.2463
20.3411 65.4071
20.3863 63.0347
20.4318 57.5942
20.477 53.1123
20.5224 51.117
20.5677 50.5941
20.6131 50.0451
20.6586 49.701
20.7038 49.5007
20.7493 49.0921
20.7945 48.8709
20.84 48.8221
20.8853 48.7307
20.9307 48.6161
20.976 48.7658
21.0215 48.6781
21.0668 48.9644
21.1122 49.491
21.1575 50.1304
21.203 50.9111
21.2483 51.4656
21.2938 51.4175
21.3391 49.8853
21.3846 48.945
21.4299 48.3168
21.4754 48.5545
21.5207 48.6549
21.5662 48.9557
21.6116 49.3933
21.6571 50.0672
21.7024 50.9363
21.7479 52.9858
21.7933 55.9056
21.8388 59.6404
21.8843 63.0449
21.9297 64.8066
21.9752 62.8448
22.0206 58.9672
22.0661 56.3223
22.1115 56.0643
22.157 55.8896
22.2024 53.9582
22.248 51.1289
22.2933 49.5945
22.3389 48.8092
22.3843 48.7518
22.4299 48.6917
22.4753 48.7409
22.5208 48.6485
22.5662 48.475
22.6118 48.7726
22.6572 48.9398
22.7028 49.3683
22.7483 49.6338
22.7939 50.6978
22.8393 52.3093
22.8849 54.605
22.9303 56.4644
22.9759 58.1097
23.0214 57.0191
23.067 53.9143
23.1126 50.6525
23.1581 48.9996
23.2037 48.7508
23.2492 48.9785
23.2948 48.9495
23.3403 49.1108
23.3859 49.9527
23.4314 50.9701
23.477 52.987
23.5225 55.3327
23.5682 57.1487
23.6137 57.8074
23.6593 54.9316
23.7048 50.9938
23.7505 47.8494
23.796 46.4251
23.8417 45.8847
23.8872 45.3924
23.9329 45.0794
23.9784 44.8116
24.0241 44.6421
24.0697 44.3732
24.1154 44.1038
24.1609 43.9538
24.2066 43.9102
24.2522 43.7163
24.2979 43.3195
24.3434 43.2385
24.3892 43.0577
24.4349 43.1461
24.4805 42.8117
24.5262 43.079
24.5718 42.7729
24.6175 42.9422
24.6631 42.6189
24.7089 42.3598
24.7545 42.3362
24.8002 42.2935
24.8458 42.1491
24.8916 41.9865
24.9372 42.2237
24.983 42.6295
25.0286 42.9067
25.0744 43.3072
25.12 43.8828
25.1658 44.378
25.2114 44.7212
25.2572 44.8111
25.3029 44.7908
25.3487 45.0708
25.3943 44.4513
25.4402 43.2677
25.4858 42.2677
25.5316 41.261
25.5773 40.7803
25.6231 40.8306
25.669 40.5506
25.7147 40.4555
25.7605 40.5127
25.8062 40.4897
25.8521 40.6141
25.8977 40.6297
25.9436 40.7459
25.9893 41.0488
26.0352 41.572
26.0809 41.6094
26.1268 41.54
26.1725 41.2162
26.2184 40.787
26.2641 40.2281
26.31 39.8899
26.3557 40.0679
26.4017 40.088
26.4474 40.3384
26.4933 40.673
26.5391 41.1993
26.585 41.7561
26.6308 42.2022
26.6767 42.2707
26.7225 41.8844
26.7684 41.2936
26.8142 40.7754
26.8601 40.302
26.9059 39.8707
26.9519 39.4598
26.9979 39.097
27.0437 38.7986
27.0896 38.7287
27.1354 38.633
27.1814 38.5359
27.2272 38.4981
27.2732 38.4483
27.3191 38.2565
27.3651 38.4
27.4109 38.4098
27.4569 38.5248
27.5027 38.6162
27.5488 38.4741
27.5946 38.3142
27.6407 38.1026
27.6865 37.8969
27.7326 37.8928
27.7784 37.9275
27.8245 37.8297
27.8703 38.089
27.9164 38.312
27.9623 38.4845
28.0084 38.7888
28.0543 39.1348
28.1003 39.0388
28.1462 38.7761
28.1923 38.2925
28.2384 37.8264
28.2843 37.683
28.3304 36.9748
28.3764 36.6408
28.4225 36.2397
28.4684 36.2352
28.5145 35.8959
28.5605 35.8019
28.6066 35.5998
28.6526 35.4552
28.6987 35.4796
28.7447 35.4392
28.7908 35.3824
28.8368 35.188
28.8829 35.3966
28.9289 35.3238
28.9751 35.0745
29.0211 34.7247
29.0673 34.5671
29.1133 34.566
29.1595 34.4814
29.2055 34.3732
29.2517 34.3467
29.2977 34.3545
29.3439 34.1782
29.3899 34.2714
29.4361 34.0412
29.4824 33.8362
29.5284 33.66
29.5746 33.2834
29.6207 33.0518
29.6669 33.1099
29.713 32.922
29.7593 32.7556
29.8053 32.7515
29.8516 32.7504
29.8977 32.7122
29.9439 32.6086
29.99 32.5766
30.0363 32.5157
30.0824 32.5163
30.1287 32.5121
30.1748 32.4114
30.2211 32.356
30.2673 32.2446
30.3136 32.3357
30.3597 32.3276
30.406 32.1398
30.4522 31.958
30.4985 31.9884
30.5447 32.1974
30.591 32.1526
30.6372 32.2603
30.6835 32.1892
30.7297 32.2616
30.7761 32.1728
30.8224 31.9571
30.8686 31.8276
30.915 31.5467
30.9612 31.4616
31.0076 31.2312
31.0538 31.1454
31.1002 31.0917
31.1464 30.942
31.1928 30.9286
31.2391 30.9721
31.2855 30.8797
31.3317 30.8169
31.3781 30.9138
31.4244 31.0011
31.4708 30.8229
31.5171 30.6986
31.5636 30.702
31.6098 30.423
31.6563 30.2964
31.7026 30.202
31.7491 30.0373
31.7953 30.2377
31.8418 30.1919
31.8881 30.2111
31.9346 30.0758
31.9809 29.9577
32.0275 29.8235
32.074 29.7725
32.1203 29.5321
32.1668 29.4946
32.2132 29.3843
32.2597 29.2821
32.306 29.1486
32.3526 28.9512
32.399 28.8971
32.4455 28.7112
32.4919 28.6546
32.5385 28.6033
32.5848 28.3658
32.6314 28.5284
32.6778 28.3275
32.7244 28.2712
32.7708 28.1245
32.8174 28.1174
32.8638 27.9717
32.9104 28.0965
32.9569 27.9667
33.0035 27.8914
33.0499 27.8845
33.0966 27.8038
33.143 27.7765
33.1897 27.7126
33.2361 27.647
33.2828 27.5065
33.3293 27.3847
33.3759 27.3129
33.4226 27.2729
33.4691 27.0287
33.5158 27.0273
33.5623 26.8548
33.609 26.7472
33.6555 26.6668
33.7022 26.5548
33.7487 26.4736
33.7954 26.4777
33.842 26.2908
33.8887 26.2122
33.9353 26.2024
33.982 26.0684
34.0286 26.0353
34.0753 26.0233
34.1219 25.7446
34.1687 25.8221
34.2152 25.8098
34.262 25.5525
34.3086 25.5566
34.3554 25.4896
34.402 25.3322
34.4488 25.2969
34.4954 25.1824
34.5422 25.1503
34.5889 24.9698
34.6357 24.8658
34.6825 24.879
34.7292 24.7439
34.776 24.756
34.8227 24.6733
34.8695 24.5957
34.9162 24.5707
34.9631 24.3213
35.0098 24.4015
35.0566 24.3454
35.1033 24.2492
35.1502 24.2656
35.1969 24.1368
35.2438 24.157
35.2906 24.0058
35.3375 23.9863
35.3842 24.0463
35.4311 23.9896
35.4779 23.8971
35.5248 23.856
35.5716 23.8391
35.6185 23.7176
35.6653 23.5063
35.7123 23.3943
35.759 23.3523
35.806 23.31
35.8528 23.2596
35.8998 23.2754
35.9468 23.1033
35.9936 23.1132
36.0406 22.9535
36.0874 22.9776
36.1345 22.8232
36.1813 22.7858
36.2283 22.7011
36.2752 22.6375
36.3222 22.6797
36.3691 22.4813
36.4161 22.3954
36.463 22.387
36.5101 22.3702
36.557 22.2468
36.6041 22.1342
36.651 22.1569
36.6981 22.1061
36.745 22.0859
36.7921 21.9224
36.839 21.8669
36.8861 21.7795
36.9331 21.6527
36.9802 21.6586
37.0272 21.5218
37.0743 21.4335
37.1213 21.4541
37.1684 21.3948
37.2154 21.3383
37.2626 21.1779
37.3098 21.1968
37.3568 21.0994
37.404 21.0908
37.451 20.9938
37.4982 20.8808
37.5452 20.7599
37.5924 20.6803
37.6395 20.7699
37.6867 20.6658
37.7337 20.5599
37.781 20.529
37.8281 20.4057
37.8753 20.3834
37.9224 20.2565
37.9697 20.2371
38.0168 20.1562
38.064 20.1369
38.1111 20.1106
38.1584 19.9971
38.2056 19.9071
38.2529 19.8703
38.3 19.7813
38.3473 19.7433
38.3945 19.6469
38.4418 19.6535
38.489 19.6114
38.5363 19.4286
38.5837 19.3879
38.6309 19.4237
38.6782 19.3592
38.7254 19.1795
38.7728 19.1449
38.82 19.1135
38.8674 19.0898
38.9146 19.03
38.9621 18.9339
39.0093 18.9147
39.0567 18.851
39.104 18.7885
39.1514 18.6916
39.1987 18.6528
39.2461 18.6248
39.2934 18.4719
39.3409 18.4467
39.3882 18.3403
39.4356 18.3619
39.483 18.2976
39.5304 18.2392
39.5778 18.238
39.6253 18.0847
39.6726 18.0376
39.7201 18.0721
39.7675 18.0061
39.815 17.9115
39.8624 17.7773
39.9099 17.8042
39.9575 17.7534
40.0049 17.6935
40.0525 17.6224
40.0999 17.554
40.1474 17.4883
40.1949 17.4642
40.2425 17.3838
40.2899 17.4094
40.3375 17.2735
40.385 17.2742
40.4326 17.1674
40.48 17.0885
40.5277 17.1204
40.5752 17.0096
40.6228 16.9081
40.6703 16.9045
40.718 16.8598
40.7655 16.8148
40.8132 16.753
40.8607 16.7356
40.9084 16.6753
40.9559 16.5681
41.0036 16.5507
41.0512 16.4647
41.0989 16.4636
41.1465 16.3946
41.1942 16.3083
41.242 16.2465
41.2896 16.1917
41.3373 16.1551
41.3849 16.1355
41.4327 16.0291
41.4803 15.9492
41.5281 15.9477
41.5758 15.8589
41.6236 15.8777
41.6712 15.764
41.7191 15.7363
41.7667 15.6372
41.8146 15.6542
41.8622 15.6028
41.9101 15.4496
41.9578 15.4214
42.0057 15.4585
42.0534 15.4007
42.1013 15.2965
42.149 15.2394
42.1969 15.1328
42.2446 15.1372
42.2925 15.1212
42.3403 15.0319
42.3882 14.9904
42.436 14.9846
42.4839 14.8715
42.5319 14.8861
42.5797 14.8433
42.6277 14.7542
42.6755 14.709
42.7235 14.6124
42.7713 14.5902
42.8193 14.5746
42.8671 14.4942
42.9152 14.4174
42.963 14.41
43.0111 14.2747
43.0589 14.3023
43.107 14.2736
43.1549 14.1967
43.2029 14.1189
43.2508 14.1305
43.2989 14.0411
43.3468 13.9586
43.3949 14.0343
43.4429 13.9424
43.491 13.8622
43.5389 13.7991
43.5871 13.7885
43.635 13.7436
43.6832 13.6861
43.7312 13.5951
43.7793 13.5273
43.8273 13.5059
43.8755 13.4174
43.9237 13.4617
43.9717 13.4615
44.0199 13.3595
44.068 13.3299
44.1162 13.2504
44.1642 13.2941
44.2125 13.2394
44.2606 13.1083
44.3088 13.0561
44.3569 13.0205
44.4052 12.9684
44.4533 12.911
44.5016 12.8788
44.5497 12.8462
44.598 12.8276
44.6461 12.7565
44.6945 12.6754
44.7426 12.6188
44.791 12.6343
44.8391 12.5899
44.8875 12.5009
44.9357 12.5098
44.984 12.4772
45.0322 12.4015
45.0806 12.3371
45.1288 12.2921
45.1773 12.2827
45.2257 12.2555
45.2739 12.1482
45.3224 12.1468
45.3706 12.1175
45.4191 12.0666
45.4673 12.0446
45.5158 11.9756
45.5641 11.9144
45.6126 11.8788
45.6609 11.7992
45.7094 11.787
45.7577 11.7594
45.8063 11.6947
45.8546 11.6646
45.9031 11.6448
45.9515 11.617
46.0001 11.5843
46.0484 11.4937
46.097 11.442
46.1454 11.4901
46.194 11.4005
46.2424 11.3391
46.291 11.2898
46.3395 11.2876
46.3881 11.1871
46.4365 11.1924
46.4852 11.1438
46.5337 11.1099
46.5823 11.0997
46.631 11.0115
46.6795 11.0003
46.7282 10.9274
46.7767 10.9193
46.8254 10.8597
46.8739 10.8056
46.9226 10.7845
46.9712 10.7546
47.0199 10.6906
47.0685 10.6665
47.1173 10.5671
47.1658 10.5588
47.2146 10.5397
47.2632 10.4894
47.312 10.4636
47.3606 10.3765
47.4095 10.3498
47.4581 10.3357
47.5069 10.2761
47.5556 10.2579
47.6044 10.2336
47.6531 10.2053
47.702 10.1381
47.7507 10.1066
47.7996 10.0664
47.8483 10.0369
47.8972 10.0256
47.9461 10.0017
47.9948 9.90566
48.0438 9.88527
48.0925 9.87088
48.1415 9.8257
48.1902 9.78772
48.2392 9.77721
48.288 9.71267
48.337 9.66756
48.3858 9.61279
48.4348 9.63546
48.4837 9.6019
48.5327 9.56147
48.5815 9.51809
48.6306 9.50075
48.6795 9.43555
48.7285 9.42505
48.7774 9.39144
48.8265 9.35013
48.8754 9.30926
48.9245 9.22456
48.9734 9.22168
49.0226 9.20491
49.0715 9.16934
49.1206 9.14749
49.1696 9.0713
49.2188 9.05996
49.2679 9.00147
49.3169 8.98548
49.3661 8.94135
49.4151 8.93472
49.4643 8.88977
49.5134 8.87639
49.5626 8.78147
49.6117 8.76184
49.6609 8.74691
49.71 8.69518
49.7592 8.68025
49.8083 8.64584
49.8576 8.62913
49.9067 8.61299
49.956 8.52815
50.0052 8.5302
50.0545 8.51676
50.1036 8.46053
50.153 8.40351
50.2022 8.40096
50.2515 8.30889
50.3007 8.28676
50.3501 8.29432
50.3993 8.26817
50.4487 8.1948
50.498 8.2239
50.5474 8.16572
50.5966 8.1296
50.6461 8.14206
50.6955 8.08901
50.7448 8.04991
50.7943 8.02749
50.8436 7.97092
50.8931 7.9251
50.9424 7.91125
50.9919 7.87877
51.0413 7.88286
51.0908 7.8055
51.1402 7.80262
51.1897 7.75342
51.2391 7.7562
51.2887 7.6822
51.3381 7.65373
51.3877 7.66043
51.4371 7.61696
51.4867 7.53155
51.5362 7.55016
51.5858 7.47966
51.6353 7.48736
51.6849 7.42861
51.7344 7.42695
51.7841 7.4147
51.8336 7.34781
51.8833 7.32794
51.9328 7.28786
51.9826 7.27195
52.0323 7.25558
52.0818 7.19167
52.1316 7.12871
52.1812 7.12354
52.231 7.12215
52.2806 7.05606
52.3304 7.06698
52.38 7.03222
52.4298 6.98441
52.4794 6.97741
52.5293 6.94167
52.5789 6.88031
52.6288 6.86611
52.6785 6.80279
52.7284 6.82929
52.7781 6.78085
52.828 6.76079
52.8777 6.71043
52.9276 6.73215
52.9774 6.71335
53.0273 6.65377
53.0771 6.61603
53.1271 6.58082
53.1769 6.54769
53.2269 6.56714
53.2767 6.48591
53.3267 6.47533
53.3765 6.44346
53.4266 6.42155
53.4766 6.37432
53.5265 6.38242
53.5765 6.34633
53.6264 6.3198
53.6765 6.2523
53.7264 6.27487
53.7765 6.22929
53.8265 6.18119
53.8766 6.17314
53.9266 6.15972
53.9767 6.11871
54.0267 6.09079
54.0769 6.03023
54.1269 6.03087
54.1771 5.99397
54.2271 6.01302
54.2773 5.92846
54.3274 5.94964
54.3776 5.89333
54.4277 5.85424
54.478 5.82567
54.528 5.81115
54.5783 5.77159
54.6285 5.7016
54.6788 5.65366
54.7289 5.63837
54.7792 5.58835
54.8296 5.56613
54.8798 5.50295
54.9301 5.48373
54.9803 5.45981
55.0307 5.39675
55.0809 5.37542
55.1314 5.33919
55.1816 5.33064
55.232 5.26467
55.2823 5.19737
55.3328 5.14394
55.383 5.08882
55.4335 5.07692
55.4838 4.96837
55.5344 4.9454
55.5847 4.88906
55.6352 4.92198
55.6856 4.86278
55.7361 4.83005