File: XRD/Ni3Fe_FD0845.xy
TT I
1.27165 7.05701
1.31627 6.01356
1.36089 6.13067
1.40551 5.62305
1.45013 5.88624
1.49476 5.94482
1.53938 5.42853
1.584 5.28816
1.62863 5.66227
1.67325 5.24202
1.71787 5.44234
1.7625 4.94069
1.80712 5.31214
1.85174 4.60476
1.89636 4.53939
1.94099 5.02751
1.98562 4.78551
2.03025 4.15239
2.07487 4.79766
2.11949 4.97049
2.16411 5.32949
2.20874 12.6695
2.25338 20.5703
2.298 6.07539
2.34263 5.56567
2.38725 6.33359
2.43188 6.12582
2.4765 6.72856
2.52115 7.10032
2.56577 8.22287
2.6104 8.43049
2.65503 7.98638
2.69965 9.11124
2.7443 8.29037
2.78893 8.48425
2.83356 7.71648
2.87818 9.50771
2.92281 8.77953
2.96744 9.34886
3.01209 10.3781
3.05672 11.3247
3.10135 12.5706
3.14599 13.0996
3.19062 13.8623
3.23527 15.4579
3.2799 15.6953
3.32454 17.0881
3.36917 17.5129
3.4138 19.0229
3.45844 19.4535
3.50309 20.8483
3.54773 21.5369
3.59237 23.6454
3.637 81.4883
3.68164 53.7519
3.7263 26.2707
3.77094 25.7708
3.81558 26.6051
3.86022 27.9628
3.90486 28.8191
3.9495 29.3049
3.99416 30.5905
4.0388 31.7959
4.08344 33.4588
4.12809 34.8796
4.17273 36.5037
4.21738 42.0656
4.26204 218.777
4.30669 187.574
4.35133 47.1184
4.39598 43.5851
4.44063 52.3428
4.4853 62.2853
4.52995 50.0354
4.5746 51.2871
4.61925 53.0307
4.6639 54.6715
4.70855 58.3042
4.75322 60.2693
4.79788 63.5028
4.84253 66.5389
4.88719 70.4659
4.93184 74.233
4.97652 79.8576
5.02118 85.6339
5.06583 93.0629
5.11049 103.022
5.15515 161.161
5.19981 310.034
5.24449 2615.05
5.28916 12250.3
5.33382 2706.09
5.37848 177.106
5.42315 125.247
5.46783 111.262
5.5125 104.576
5.55716 101.308
5.60183 97.0137
5.6465 95.1806
5.69117 92.6943
5.73586 91.2601
5.78053 91.0331
5.8252 90.0934
5.86988 90.5152
5.91455 91.8679
5.95924 98.641
6.00392 184.938
6.0486 886.687
6.09328 4368.18
6.13795 3146.52
6.18263 227.185
6.22733 89.887
6.27201 81.2946
6.3167 96.7324
6.36138 78.1574
6.40606 67.9121
6.45075 66.6167
6.49545 64.8587
6.54014 63.2903
6.58483 61.9648
6.62952 62.1585
6.67421 88.8833
6.71892 128.464
6.76361 66.5606
6.8083 57.9497
6.853 56.8788
6.89769 56.199
6.94239 55.8266
6.98711 55.3265
7.03181 54.9832
7.07651 54.9734
7.12121 54.6761
7.16591 54.4465
7.21063 54.9233
7.25533 68.5778
7.30004 157.83
7.34475 84.5764
7.38945 55.5968
7.43416 54.1327
7.47889 53.961
7.5236 54.0107
7.56831 54.7339
7.61303 56.3194
7.65774 56.3788
7.70247 55.4785
7.74719 55.5819
7.79191 56.0597
7.83663 56.0499
7.88135 57.1807
7.92607 58.1579
7.97081 59.1115
8.01553 59.8948
8.06026 61.441
8.10498 63.2205
8.14971 71.4061
8.19446 70.6202
8.23919 68.3373
8.28392 70.9803
8.32865 73.2886
8.37339 77.2215
8.41812 83.4569
8.46288 108.322
8.50761 150.934
8.55235 355.615
8.59709 1172.17
8.64183 2214.06
8.68658 931.716
8.73134 159.629
8.77609 97.3906
8.82083 90.9448
8.86558 88.7812
8.91033 88.7628
8.9551 89.6663
8.99985 84.6433
9.04461 83.052
9.08936 81.8853
9.13412 81.1623
9.17888 81.1723
9.22365 81.7292
9.26841 80.9241
9.31318 81.8139
9.35794 81.7279
9.4027 82.3396
9.44749 82.6464
9.49226 83.7222
9.53703 84.5309
9.5818 86.1447
9.62657 90.4386
9.67134 96.2458
9.71614 92.3004
9.76091 92.9175
9.80569 95.4674
9.85047 98.6547
9.89525 119.425
9.94005 129.478
9.98484 162.711
10.0296 319.856
10.0744 800.779
10.1192 1767.54
10.164 1577.25
10.2088 401.837
10.2536 124.332
10.2984 110.603
10.3432 111.738
10.388 102.575
10.4328 114.009
10.4776 154.662
10.5224 281.018
10.5672 530.043
10.612 505.574
10.6568 202.136
10.7017 95.6638
10.7465 85.8144
10.7913 82.2167
10.8361 80.1506
10.8809 77.9248
10.9257 77.3012
10.9706 77.6474
11.0154 73.9859
11.0602 71.9089
11.105 70.8475
11.1499 75.0167
11.1947 80.6304
11.2395 72.8043
11.2844 69.4016
11.3292 65.9666
11.374 65.1776
11.4189 65.0045
11.4637 64.1012
11.5086 64.7704
11.5534 66.9286
11.5983 64.5004
11.6431 62.9007
11.688 62.1252
11.7328 62.2266
11.7777 62.2221
11.8225 61.8911
11.8674 61.6064
11.9122 62.1171
11.9571 62.0451
12.002 62.5038
12.0468 66.1794
12.0917 76.3943
12.1366 100.319
12.1814 155.929
12.2263 208.785
12.2712 169.289
12.3161 94.5923
12.3609 69.3025
12.4058 63.739
12.4507 63.2717
12.4956 63.6493
12.5405 63.9434
12.5853 64.5684
12.6302 71.3364
12.6751 75.4459
12.72 68.742
12.7649 66.8784
12.8098 67.4029
12.8547 68.8417
12.8996 70.0533
12.9445 71.2441
12.9894 73.0689
13.0343 74.3676
13.0792 77.7578
13.1242 85.1782
13.1691 106.864
13.214 143.702
13.2589 240.257
13.3038 379.121
13.3487 413.037
13.3937 253.583
13.4386 121.498
13.4835 102.289
13.5285 116.044
13.5734 155.366
13.6183 251.845
13.6633 357.549
13.7082 329.998
13.7531 179.371
13.7981 95.8543
13.843 80.6171
13.888 78.259
13.9329 75.9905
13.9779 74.816
14.0228 73.3373
14.0678 72.2616
14.1127 71.9883
14.1577 71.4976
14.2027 70.5615
14.2476 69.6911
14.2926 69.7496
14.3376 70.6444
14.3825 69.4379
14.4275 67.9938
14.4725 67.7923
14.5175 68.0324
14.5624 68.1561
14.6074 69.9277
14.6524 70.6477
14.6974 69.3922
14.7424 70.8424
14.7874 76.2901
14.8324 86.182
14.8774 108.535
14.9224 155.203
14.9674 215.58
15.0124 217.764
15.0574 147.079
15.1024 90.132
15.1474 71.5615
15.1924 69.5672
15.2374 69.9231
15.2824 69.0103
15.3274 67.2091
15.3725 66.1325
15.4175 65.5654
15.4625 65.0638
15.5076 65.4239
15.5526 65.312
15.5976 64.8408
15.6426 65.5413
15.6877 70.0342
15.7327 77.3875
15.7778 93.0251
15.8228 126.061
15.8679 171.632
15.9129 191.003
15.958 151.415
16.003 94.0863
16.0481 67.2606
16.0931 63.364
16.1382 61.6507
16.1833 59.9197
16.2283 58.4158
16.2734 57.7479
16.3185 57.6894
16.3636 58.3942
16.4086 56.8495
16.4537 55.5428
16.4988 54.9735
16.5439 54.8773
16.589 54.2675
16.6341 54.3417
16.6792 53.7305
16.7243 54.1285
16.7694 54.3098
16.8145 54.1785
16.8596 54.4452
16.9047 55.7883
16.9498 55.7924
16.9949 54.9038
17.04 55.1158
17.0851 56.0474
17.1302 57.7888
17.1754 60.7627
17.2205 66.0296
17.2656 74.903
17.3108 82.8218
17.3559 81.2113
17.401 69.6912
17.4462 61.4165
17.4913 58.4557
17.5365 58.4549
17.5815 58.3519
17.6268 58.8081
17.6718 59.5675
17.7171 59.9663
17.7622 60.467
17.8074 61.0594
17.8525 63.0425
17.8977 66.7224
17.9428 71.8939
17.9881 81.2909
18.0331 99.7959
18.0784 122.031
18.1237 137.587
18.1688 127.446
18.214 101.408
18.2591 85.4921
18.3044 90.7536
18.3495 100.796
18.3948 104.129
18.4399 93.252
18.4852 76.0742
18.5303 64.9383
18.5756 61.3515
18.6207 60.5888
18.666 59.824
18.7112 59.0308
18.7565 58.2734
18.8016 57.9262
18.8469 57.4314
18.892 56.9954
18.9374 56.5266
18.9825 56.2941
19.0278 56.1563
19.073 56.1836
19.1183 56.464
19.1635 57.2235
19.2088 58.7828
19.254 61.2572
19.2993 66.1771
19.3447 72.512
19.3898 75.6619
19.4352 70.6936
19.4804 62.2209
19.5257 55.9535
19.5709 53.5911
19.6163 53.301
19.6615 52.8681
19.7068 52.6004
19.752 52.6058
19.7974 52.8915
19.8426 53.7012
19.888 54.4071
19.9332 55.5555
19.9786 57.9274
20.0238 61.8386
20.0692 67.0167
20.1144 69.2384
20.1598 67.3086
20.205 62.8056
20.2504 61.8972
20.2957 63.969
20.3411 65.0583
20.3863 62.9806
20.4318 57.321
20.477 53.0372
20.5224 50.9974
20.5677 50.4033
20.6131 49.604
20.6586 49.0643
20.7038 49.2052
20.7493 48.6798
20.7945 48.4679
20.84 48.307
20.8853 48.2876
20.9307 47.8968
20.976 48.174
21.0215 48.1553
21.0668 48.4074
21.1122 48.8694
21.1575 49.579
21.203 50.3272
21.2483 51.0003
21.2938 50.8128
21.3391 49.407
21.3846 48.3145
21.4299 47.87
21.4754 47.8368
21.5207 47.8803
21.5662 48.2382
21.6116 48.5849
21.6571 49.098
21.7024 50.0723
21.7479 51.9355
21.7933 54.7527
21.8388 58.4621
21.8843 62.1538
21.9297 63.5971
21.9752 62.099
22.0206 58.6374
22.0661 55.9312
22.1115 55.4547
22.157 55.1344
22.2024 53.4748
22.248 50.7907
22.2933 49.246
22.3389 48.4478
22.3843 48.2958
22.4299 48.3995
22.4753 48.3961
22.5208 48.057
22.5662 47.8598
22.6118 47.9463
22.6572 48.2111
22.7028 48.7015
22.7483 49.0388
22.7939 49.9679
22.8393 51.2273
22.8849 53.8439
22.9303 55.8934
22.9759 57.3076
23.0214 56.7474
23.067 53.7988
23.1126 50.3058
23.1581 48.5282
23.2037 48.1216
23.2492 48.1482
23.2948 48.0931
23.3403 48.5022
23.3859 48.9893
23.4314 50.2373
23.477 52.1543
23.5225 54.4837
23.5682 56.4629
23.6137 56.9827
23.6593 54.7627
23.7048 50.8174
23.7505 47.6453
23.796 46.1203
23.8417 45.5422
23.8872 44.9439
23.9329 44.7198
23.9784 44.3391
24.0241 44.0841
24.0697 43.9674
24.1154 43.4806
24.1609 43.4813
24.2066 43.3991
24.2522 43.1636
24.2979 42.8679
24.3434 42.724
24.3892 42.6264
24.4349 42.6639
24.4805 42.4785
24.5262 42.6581
24.5718 42.4229
24.6175 42.3856
24.6631 42.3298
24.7089 41.9079
24.7545 41.8099
24.8002 41.6922
24.8458 41.7733
24.8916 41.5399
24.9372 41.6924
24.983 42.0639
25.0286 42.3706
25.0744 42.8192
25.12 43.2947
25.1658 43.8493
25.2114 44.1376
25.2572 44.3304
25.3029 44.5209
25.3487 44.5256
25.3943 44.0546
25.4402 42.9692
25.4858 41.7841
25.5316 40.958
25.5773 40.453
25.6231 40.477
25.669 40.1521
25.7147 40.1295
25.7605 39.8677
25.8062 40.067
25.8521 40.1785
25.8977 40.0712
25.9436 40.2097
25.9893 40.6488
26.0352 40.9704
26.0809 41.1852
26.1268 41.2754
26.1725 40.845
26.2184 40.2588
26.2641 39.7813
26.31 39.7849
26.3557 39.8088
26.4017 39.481
26.4474 40.0232
26.4933 40.1943
26.5391 40.85
26.585 41.2306
26.6308 41.5932
26.6767 41.7538
26.7225 41.4974
26.7684 41.0446
26.8142 40.4258
26.8601 40.0012
26.9059 39.4662
26.9519 39.0922
26.9979 38.6695
27.0437 38.3688
27.0896 38.278
27.1354 38.2739
27.1814 38.1877
27.2272 38.0475
27.2732 38.1595
27.3191 37.9166
27.3651 38.075
27.4109 37.867
27.4569 38.1303
27.5027 38.0497
27.5488 38.173
27.5946 37.8539
27.6407 37.7321
27.6865 37.6624
27.7326 37.3833
27.7784 37.4529
27.8245 37.3758
27.8703 37.4637
27.9164 37.8469
27.9623 38.0417
28.0084 38.258
28.0543 38.8225
28.1003 38.5131
28.1462 38.2458
28.1923 37.9651
28.2384 37.5041
28.2843 37.2726
28.3304 36.6734
28.3764 36.4268
28.4225 35.9399
28.4684 35.9244
28.5145 35.6663
28.5605 35.5673
28.6066 35.1306
28.6526 35.3156
28.6987 35.1616
28.7447 35.0753
28.7908 35.0404
28.8368 35.0258
28.8829 35.03
28.9289 34.8455
28.9751 34.6844
29.0211 34.5948
29.0673 34.1667
29.1133 34.0961
29.1595 34.0597
29.2055 33.8592
29.2517 33.9425
29.2977 34.012
29.3439 33.8343
29.3899 33.9037
29.4361 33.7957
29.4824 33.5314
29.5284 33.2042
29.5746 33.0945
29.6207 32.8704
29.6669 32.7117
29.713 32.5062
29.7593 32.5912
29.8053 32.4525
29.8516 32.3343
29.8977 32.4658
29.9439 32.1689
29.99 32.2435
30.0363 32.0635
30.0824 32.1416
30.1287 32.0236
30.1748 32.0486
30.2211 32.1582
30.2673 31.9306
30.3136 31.8597
30.3597 31.9811
30.406 31.7179
30.4522 31.7929
30.4985 31.681
30.5447 31.7453
30.591 31.8368
30.6372 31.9636
30.6835 31.8836
30.7297 31.8374
30.7761 31.7987
30.8224 31.6364
30.8686 31.4782
30.915 31.2141
30.9612 31.1712
31.0076 31.0334
31.0538 30.8043
31.1002 30.7669
31.1464 30.5241
31.1928 30.6653
31.2391 30.629
31.2855 30.4118
31.3317 30.4977
31.3781 30.6379
31.4244 30.5549
31.4708 30.4359
31.5171 30.5516
31.5636 30.4389
31.6098 30.0898
31.6563 29.9914
31.7026 29.8867
31.7491 29.7117
31.7953 29.8125
31.8418 29.7831
31.8881 29.7395
31.9346 29.7142
31.9809 29.7451
32.0275 29.6285
32.074 29.5151
32.1203 29.2944
32.1668 29.1924
32.2132 29.1046
32.2597 28.9471
32.306 28.8587
32.3526 28.6391
32.399 28.5673
32.4455 28.5312
32.4919 28.3713
32.5385 28.3504
32.5848 28.1845
32.6314 28.2323
32.6778 28.0709
32.7244 27.9954
32.7708 27.8442
32.8174 27.8566
32.8638 27.6119
32.9104 27.6511
32.9569 27.6714
33.0035 27.5653
33.0499 27.5271
33.0966 27.5086
33.143 27.4404
33.1897 27.384
33.2361 27.2681
33.2828 27.2287
33.3293 27.0849
33.3759 27.1366
33.4226 26.8321
33.4691 26.8702
33.5158 26.7592
33.5623 26.5516
33.609 26.4342
33.6555 26.3714
33.7022 26.3158
33.7487 26.2496
33.7954 26.179
33.842 26.1302
33.8887 26.012
33.9353 25.9909
33.982 25.9342
34.0286 25.6701
34.0753 25.6836
34.1219 25.6347
34.1687 25.5481
34.2152 25.4514
34.262 25.296
34.3086 25.2239
34.3554 25.2312
34.402 25.0808
34.4488 25.054
34.4954 24.9303
34.5422 24.8268
34.5889 24.7256
34.6357 24.7771
34.6825 24.5695
34.7292 24.5226
34.776 24.403
34.8227 24.3649
34.8695 24.4153
34.9162 24.3176
34.9631 24.1075
35.0098 24.2126
35.0566 24.0756
35.1033 24.0119
35.1502 23.9866
35.1969 23.8954
35.2438 23.8688
35.2906 23.8223
35.3375 23.7807
35.3842 23.7636
35.4311 23.746
35.4779 23.6672
35.5248 23.5911
35.5716 23.5578
35.6185 23.4418
35.6653 23.4035
35.7123 23.1659
35.759 23.206
35.806 23.0913
35.8528 22.9571
35.8998 22.9577
35.9468 22.8842
35.9936 22.8463
36.0406 22.7743
36.0874 22.7425
36.1345 22.5902
36.1813 22.5592
36.2283 22.4417
36.2752 22.3534
36.3222 22.4375
36.3691 22.3098
36.4161 22.1475
36.463 22.1805
36.5101 22.1697
36.557 22.1119
36.6041 21.9486
36.651 21.9269
36.6981 21.8133
36.745 21.8146
36.7921 21.7469
36.839 21.6292
36.8861 21.5351
36.9331 21.5393
36.9802 21.4424
37.0272 21.373
37.0743 21.189
37.1213 21.2787
37.1684 21.1102
37.2154 21.1052
37.2626 21.0433
37.3098 20.9921
37.3568 20.9066
37.404 20.8502
37.451 20.6942
37.4982 20.7111
37.5452 20.5819
37.5924 20.6093
37.6395 20.5816
37.6867 20.4415
37.7337 20.3464
37.781 20.3129
37.8281 20.2491
37.8753 20.1376
37.9224 20.0645
37.9697 20.0805
38.0168 19.9618
38.064 19.8835
38.1111 19.9112
38.1584 19.7252
38.2056 19.7031
38.2529 19.6997
38.3 19.5645
38.3473 19.6259
38.3945 19.469
38.4418 19.3925
38.489 19.3692
38.5363 19.2317
38.5837 19.2827
38.6309 19.1479
38.6782 19.1837
38.7254 18.996
38.7728 19.0058
38.82 18.8643
38.8674 18.9441
38.9146 18.7529
38.9621 18.7147
39.0093 18.7238
39.0567 18.6774
39.104 18.6229
39.1514 18.4986
39.1987 18.4612
39.2461 18.4945
39.2934 18.3505
39.3409 18.2549
39.3882 18.215
39.4356 18.1862
39.483 18.1393
39.5304 18.0666
39.5778 18.0653
39.6253 17.9885
39.6726 17.7921
39.7201 17.8169
39.7675 17.8257
39.815 17.7019
39.8624 17.6352
39.9099 17.6512
39.9575 17.5979
40.0049 17.5219
40.0525 17.3919
40.0999 17.4446
40.1474 17.3439
40.1949 17.2704
40.2425 17.2085
40.2899 17.1538
40.3375 17.0833
40.385 17.0903
40.4326 16.9964
40.48 16.9019
40.5277 16.9166
40.5752 16.8698
40.6228 16.7831
40.6703 16.7532
40.718 16.6639
40.7655 16.666
40.8132 16.5167
40.8607 16.5667
40.9084 16.4465
40.9559 16.4448
41.0036 16.3341
41.0512 16.3002
41.0989 16.309
41.1465 16.2345
41.1942 16.1677
41.242 16.099
41.2896 16.038
41.3373 15.9611
41.3849 15.9428
41.4327 15.8354
41.4803 15.8467
41.5281 15.7356
41.5758 15.7024
41.6236 15.6612
41.6712 15.5559
41.7191 15.5624
41.7667 15.5443
41.8146 15.4801
41.8622 15.4055
41.9101 15.3794
41.9578 15.2537
42.0057 15.2886
42.0534 15.2471
42.1013 15.1862
42.149 15.135
42.1969 15.0035
42.2446 15.0118
42.2925 14.9642
42.3403 14.9174
42.3882 14.8564
42.436 14.8536
42.4839 14.7304
42.5319 14.711
42.5797 14.6895
42.6277 14.6162
42.6755 14.5445
42.7235 14.4735
42.7713 14.4776
42.8193 14.4115
42.8671 14.3744
42.9152 14.3148
42.963 14.265
43.0111 14.208
43.0589 14.1811
43.107 14.0948
43.1549 14.131
43.2029 14.0241
43.2508 13.9683
43.2989 13.9158
43.3468 13.8553
43.3949 13.8743
43.4429 13.7778
43.491 13.7199
43.5389 13.6948
43.5871 13.6329
43.635 13.5881
43.6832 13.5542
43.7312 13.5049
43.7793 13.3979
43.8273 13.4165
43.8755 13.3444
43.9237 13.3175
43.9717 13.2717
44.0199 13.2177
44.068 13.1796
44.1162 13.0799
44.1642 13.0927
44.2125 13.0314
44.2606 13.0054
44.3088 12.9567
44.3569 12.8801
44.4052 12.8825
44.4533 12.7963
44.5016 12.7153
44.5497 12.7359
44.598 12.6982
44.6461 12.628
44.6945 12.6303
44.7426 12.5548
44.791 12.4868
44.8391 12.4675
44.8875 12.4244
44.9357 12.3566
44.984 12.3538
45.0322 12.2697
45.0806 12.2529
45.1288 12.2089
45.1773 12.1514
45.2257 12.099
45.2739 12.0071
45.3224 12.0126
45.3706 11.9764
45.4191 11.926
45.4673 11.8975
45.5158 11.873
45.5641 11.7867
45.6126 11.7655
45.6609 11.74
45.7094 11.6787
45.7577 11.6916
45.8063 11.5461
45.8546 11.6025
45.9031 11.5272
45.9515 11.4792
46.0001 11.4541
46.0484 11.4021
46.097 11.3435
46.1454 11.3084
46.194 11.2627
46.2424 11.2579
46.291 11.1945
46.3395 11.138
46.3881 11.098
46.4365 11.0984
46.4852 11.022
46.5337 10.993
46.5823 10.9539
46.631 10.9337
46.6795 10.897
46.7282 10.844
46.7767 10.7849
46.8254 10.7327
46.8739 10.7134
46.9226 10.6809
46.9712 10.6307
47.0199 10.5948
47.0685 10.5626
47.1173 10.5212
47.1658 10.4526
47.2146 10.4321
47.2632 10.3489
47.312 10.3379
47.3606 10.2998
47.4095 10.2602
47.4581 10.2439
47.5069 10.2045
47.5556 10.1382
47.6044 10.1319
47.6531 10.071
47.702 10.0466
47.7507 10.0092
47.7996 9.97988
47.8483 9.99549
47.8972 9.93416
47.9461 9.87026
47.9948 9.82755
48.0438 9.80055
48.0925 9.78547
48.1415 9.75569
48.1902 9.64279
48.2392 9.68046
48.288 9.60654
48.337 9.61422
48.3858 9.57308
48.4348 9.53278
48.4837 9.51735
48.5327 9.45962
48.5815 9.41188
48.6306 9.41005
48.6795 9.37744
48.7285 9.32794
48.7774 9.27662
48.8265 9.27178
48.8754 9.23167
48.9245 9.19742
48.9734 9.1361
49.0226 9.08376
49.0715 9.0959
49.1206 9.03252
49.1696 9.00842
49.2188 8.97395
49.2679 8.91296
49.3169 8.91065
49.3661 8.83396
49.4151 8.86413
49.4643 8.81307
49.5134 8.77274
49.5626 8.74391
49.6117 8.69147
49.6609 8.66008
49.71 8.60242
49.7592 8.60225
49.8083 8.56103
49.8576 8.50976
49.9067 8.51412
49.956 8.48089
50.0052 8.42064
50.0545 8.42937
50.1036 8.36504
50.153 8.34985
50.2022 8.30115
50.2515 8.2673
50.3007 8.23507
50.3501 8.19776
50.3993 8.18155
50.4487 8.16802
50.498 8.11637
50.5474 8.10283
50.5966 8.0086
50.6461 8.04644
50.6955 7.98774
50.7448 7.9554
50.7943 7.92413
50.8436 7.90336
50.8931 7.88427
50.9424 7.83207
50.9919 7.83261
51.0413 7.76736
51.0908 7.77402
51.1402 7.71346
51.1897 7.70599
51.2391 7.64434
51.2887 7.61171
51.3381 7.57422
51.3877 7.56469
51.4371 7.52193
51.4867 7.52323
51.5362 7.44019
51.5858 7.4671
51.6353 7.40342
51.6849 7.3886
51.7344 7.36948
51.7841 7.33423
51.8336 7.28156
51.8833 7.24905
51.9328 7.20421
51.9826 7.1995
52.0323 7.15818
52.0818 7.12259
52.1316 7.09832
52.1812 7.05832
52.231 7.05414
52.2806 7.02834
52.3304 6.98484
52.38 6.98759
52.4298 6.94404
52.4794 6.89065
52.5293 6.88173
52.5789 6.86027
52.6288 6.81406
52.6785 6.75903
52.7284 6.77663
52.7781 6.72397
52.828 6.68597
52.8777 6.70456
52.9276 6.61614
52.9774 6.65458
53.0273 6.61866
53.0771 6.55196
53.1271 6.56833
53.1769 6.49784
53.2269 6.51319
53.2767 6.4501
53.3267 6.44754
53.3765 6.41789
53.4266 6.37675
53.4766 6.35417
53.5265 6.33267
53.5765 6.29549
53.6264 6.2537
53.6765 6.23465
53.7264 6.22297
53.7765 6.18975
53.8265 6.16238
53.8766 6.11047
53.9266 6.13547
53.9767 6.08557
54.0267 6.1026
54.0769 6.05068
54.1269 5.95106
54.1771 6.00258
54.2271 5.90948
54.2773 5.88885
54.3274 5.87307
54.3776 5.8873
54.4277 5.78369
54.478 5.77045
54.528 5.75256
54.5783 5.70458
54.6285 5.64078
54.6788 5.62243
54.7289 5.60529
54.7792 5.53157
54.8296 5.46966
54.8798 5.44236
54.9301 5.4012
54.9803 5.39664
55.0307 5.37502
55.0809 5.3397
55.1314 5.29771
55.1816 5.25175
55.232 5.21095
55.2823 5.18024
55.3328 5.11254
55.383 5.02726
55.4335 5.01091
55.4838 4.98363
55.5344 4.93274
55.5847 4.88219
55.6352 4.8565
55.6856 4.80329
55.7361 4.78242