File: XRD/Ni3Fe_FD0905.xy
TT I
1.27165 7.1166
1.31627 6.28004
1.36089 6.09098
1.40551 6.8564
1.45013 6.54049
1.49476 6.20421
1.53938 5.96045
1.584 4.84832
1.62863 5.23105
1.67325 5.08871
1.71787 5.14168
1.7625 5.03116
1.80712 4.92755
1.85174 4.21123
1.89636 4.31429
1.94099 5.43741
1.98562 5.31693
2.03025 4.96848
2.07487 4.27847
2.11949 4.95579
2.16411 4.97533
2.20874 11.7752
2.25338 15.7077
2.298 5.69893
2.34263 5.34555
2.38725 6.00231
2.43188 6.09089
2.4765 7.26484
2.52115 7.37442
2.56577 8.5356
2.6104 8.23116
2.65503 7.79756
2.69965 8.77123
2.7443 8.45668
2.78893 8.63107
2.83356 8.44986
2.87818 9.35492
2.92281 10.0698
2.96744 10.0226
3.01209 10.8044
3.05672 11.3673
3.10135 12.5049
3.14599 13.3937
3.19062 14.2743
3.23527 15.0697
3.2799 16.0421
3.32454 16.7598
3.36917 17.466
3.4138 18.9503
3.45844 19.1138
3.50309 20.7978
3.54773 21.0716
3.59237 22.9447
3.637 66.0844
3.68164 45.0922
3.7263 25.2882
3.77094 25.7937
3.81558 26.2306
3.86022 27.2695
3.90486 28.214
3.9495 29.4743
3.99416 30.7008
4.0388 31.7927
4.08344 33.1018
4.12809 34.2401
4.17273 36.1613
4.21738 39.9137
4.26204 167.667
4.30669 146.442
4.35133 45.7155
4.39598 43.9102
4.44063 50.7519
4.4853 57.7893
4.52995 51.2874
4.5746 52.824
4.61925 53.0657
4.6639 54.6821
4.70855 57.3259
4.75322 60.2323
4.79788 64.0633
4.84253 66.9625
4.88719 71.9559
4.93184 74.5164
4.97652 79.407
5.02118 85.8581
5.06583 92.7661
5.11049 103.763
5.15515 155.518
5.19981 337.126
5.24449 2681.74
5.28916 13693.9
5.33382 2573.28
5.37848 174.124
5.42315 124.309
5.46783 112.477
5.5125 105.859
5.55716 99.812
5.60183 96.622
5.6465 94.681
5.69117 92.676
5.73586 90.8409
5.78053 92.2173
5.8252 91.5843
5.86988 92.9962
5.91455 92.4092
5.95924 100.467
6.00392 206.253
6.0486 913.778
6.09328 4562.56
6.13795 3034.48
6.18263 197.06
6.22733 88.2021
6.27201 79.5404
6.3167 89.1413
6.36138 75.4962
6.40606 67.9447
6.45075 66.6787
6.49545 64.3375
6.54014 62.3082
6.58483 61.8819
6.62952 61.4418
6.67421 80.9097
6.71892 109.099
6.76361 63.6654
6.8083 57.5708
6.853 57.2346
6.89769 55.6142
6.94239 55.4898
6.98711 54.8797
7.03181 54.7626
7.07651 54.0939
7.12121 54.0495
7.16591 54.9266
7.21063 54.483
7.25533 63.9627
7.30004 127.063
7.34475 75.9812
7.38945 54.8347
7.43416 53.4593
7.47889 53.0631
7.5236 53.6186
7.56831 54.3928
7.61303 55.3779
7.65774 55.8433
7.70247 55.4474
7.74719 55.3112
7.79191 55.6972
7.83663 55.6559
7.88135 57.113
7.92607 57.8285
7.97081 58.6403
8.01553 60.0273
8.06026 61.0811
8.10498 62.7122
8.14971 70.026
8.19446 69.9515
8.23919 68.2895
8.28392 70.516
8.32865 72.7815
8.37339 76.8501
8.41812 82.995
8.46288 105.004
8.50761 163.849
8.55235 363.273
8.59709 1190.13
8.64183 2293.02
8.68658 867.58
8.73134 145.267
8.77609 96.1248
8.82083 90.4972
8.86558 88.8111
8.91033 88.4508
8.9551 88.0264
8.99985 83.7982
9.04461 82.0459
9.08936 81.9868
9.13412 80.6313
9.17888 81.0349
9.22365 81.3172
9.26841 80.8086
9.31318 82.3181
9.35794 82.9212
9.4027 82.7302
9.44749 82.8843
9.49226 83.6363
9.53703 84.0252
9.5818 86.5551
9.62657 90.5572
9.67134 94.6268
9.71614 91.2839
9.76091 92.5606
9.80569 96.026
9.85047 98.542
9.89525 114.603
9.94005 127.738
9.98484 176.166
10.0296 326.391
10.0744 812.531
10.1192 1846.68
10.164 1485.54
10.2088 330.238
10.2536 118.105
10.2984 108.285
10.3432 108.668
10.388 102.56
10.4328 117.328
10.4776 156.436
10.5224 286.348
10.5672 541.741
10.612 490.86
10.6568 182.021
10.7017 92.3146
10.7465 84.1262
10.7913 81.6611
10.8361 79.7162
10.8809 77.5247
10.9257 76.7
10.9706 76.878
11.0154 73.6968
11.0602 71.4956
11.105 70.3351
11.1499 72.8175
11.1947 76.495
11.2395 70.6963
11.2844 68.2529
11.3292 65.8506
11.374 64.8381
11.4189 64.4705
11.4637 63.7292
11.5086 63.8807
11.5534 65.5531
11.5983 63.4623
11.6431 62.3425
11.688 61.7626
11.7328 61.5299
11.7777 61.3373
11.8225 61.1546
11.8674 61.2178
11.9122 61.5585
11.9571 61.9812
12.002 62.8556
12.0468 66.9466
12.0917 76.706
12.1366 101.182
12.1814 156.552
12.2263 217.952
12.2712 155.059
12.3161 86.2516
12.3609 66.8833
12.4058 62.9556
12.4507 63.0441
12.4956 63.2849
12.5405 63.1766
12.5853 64.2506
12.6302 68.9885
12.6751 72.2049
12.72 67.4109
12.7649 66.3828
12.8098 66.9735
12.8547 68.5012
12.8996 69.8314
12.9445 70.8437
12.9894 73.1348
13.0343 74.7062
13.0792 77.9146
13.1242 88.0573
13.1691 108.893
13.214 144.29
13.2589 242.025
13.3038 390.448
13.3487 426.871
13.3937 231.635
13.4386 113.718
13.4835 103.183
13.5285 117.137
13.5734 155.528
13.6183 257.071
13.6633 374.033
13.7082 332.9
13.7531 167.412
13.7981 91.5648
13.843 79.8251
13.888 77.9116
13.9329 75.8592
13.9779 74.4043
14.0228 72.902
14.0678 71.7415
14.1127 71.2637
14.1577 70.628
14.2027 69.7926
14.2476 69.0664
14.2926 68.9977
14.3376 69.5015
14.3825 68.7674
14.4275 67.4971
14.4725 67.6273
14.5175 67.9167
14.5624 67.9169
14.6074 69.1637
14.6524 69.6461
14.6974 69.2328
14.7424 71.2361
14.7874 77.6781
14.8324 86.8082
14.8774 109.381
14.9224 157.202
14.9674 218.434
15.0124 214.471
15.0574 137.921
15.1024 83.6733
15.1474 70.4656
15.1924 68.6332
15.2374 68.6982
15.2824 68.246
15.3274 66.5482
15.3725 65.668
15.4175 65.2878
15.4625 64.9117
15.5076 64.8234
15.5526 64.8554
15.5976 64.8468
15.6426 66.0497
15.6877 71.214
15.7327 77.9922
15.7778 93.0162
15.8228 127.994
15.8679 176.244
15.9129 194.107
15.958 146.731
16.003 88.8566
16.0481 64.9894
16.0931 62.4226
16.1382 60.7504
16.1833 59.0703
16.2283 57.7121
16.2734 57.2385
16.3185 57.2257
16.3636 57.4105
16.4086 55.9798
16.4537 54.9076
16.4988 54.4482
16.5439 54.359
16.589 54.1531
16.6341 53.8395
16.6792 53.3051
16.7243 53.7826
16.7694 53.7539
16.8145 53.7237
16.8596 54.1257
16.9047 55.0143
16.9498 55.216
16.9949 54.5027
17.04 54.9997
17.0851 56.0447
17.1302 57.5749
17.1754 60.4917
17.2205 65.7115
17.2656 74.5842
17.3108 83.4042
17.3559 80.3519
17.401 67.5891
17.4462 60.0512
17.4913 57.8818
17.5365 57.9547
17.5815 58.2077
17.6268 58.4242
17.6718 59.1388
17.7171 59.4741
17.7622 60.0446
17.8074 61.1694
17.8525 63.646
17.8977 66.9126
17.9428 72.0411
17.9881 81.199
18.0331 99.8921
18.0784 124.736
18.1237 139.394
18.1688 125.515
18.214 96.5405
18.2591 83.3208
18.3044 90.4486
18.3495 102.358
18.3948 106.173
18.4399 91.4139
18.4852 73.134
18.5303 63.7982
18.5756 60.9396
18.6207 59.9737
18.666 59.3253
18.7112 58.7575
18.7565 57.6701
18.8016 57.7137
18.8469 57.0004
18.892 56.8264
18.9374 56.0363
18.9825 55.9154
19.0278 55.8228
19.073 55.9698
19.1183 56.3159
19.1635 56.7104
19.2088 58.2691
19.254 61.1246
19.2993 66.1907
19.3447 72.1502
19.3898 75.0757
19.4352 69.1358
19.4804 60.4312
19.5257 54.9292
19.5709 53.1012
19.6163 52.948
19.6615 52.8032
19.7068 52.4444
19.752 52.1454
19.7974 52.5856
19.8426 53.395
19.888 53.9025
19.9332 55.1865
19.9786 57.9383
20.0238 62.311
20.0692 67.3393
20.1144 69.3859
20.1598 66.1755
20.205 61.5246
20.2504 61.3862
20.2957 63.9714
20.3411 65.5539
20.3863 62.6929
20.4318 56.229
20.477 51.9732
20.5224 50.3467
20.5677 49.7982
20.6131 49.4247
20.6586 48.7959
20.7038 48.4185
20.7493 48.2698
20.7945 48.037
20.84 47.93
20.8853 47.9882
20.9307 47.6053
20.976 47.8075
21.0215 47.8062
21.0668 48.1271
21.1122 48.7296
21.1575 49.3456
21.203 50.1575
21.2483 50.7742
21.2938 50.5591
21.3391 48.9708
21.3846 47.8402
21.4299 47.4919
21.4754 47.4754
21.5207 47.7249
21.5662 47.8986
21.6116 48.4441
21.6571 49.0267
21.7024 50.0608
21.7479 51.8068
21.7933 54.779
21.8388 58.8561
21.8843 62.9835
21.9297 64.012
21.9752 61.4703
22.0206 57.6231
22.0661 55.3608
22.1115 55.5793
22.157 55.0674
22.2024 52.7141
22.248 49.9396
22.2933 48.6712
22.3389 48.1841
22.3843 48.0663
22.4299 47.8811
22.4753 47.8327
22.5208 47.6652
22.5662 47.5568
22.6118 47.8251
22.6572 48.1567
22.7028 48.3962
22.7483 48.7529
22.7939 49.6495
22.8393 51.1988
22.8849 53.5763
22.9303 55.8391
22.9759 57.4199
23.0214 56.161
23.067 52.9017
23.1126 49.5706
23.1581 48.1742
23.2037 47.8337
23.2492 47.8999
23.2948 48.0452
23.3403 48.2902
23.3859 48.8134
23.4314 50.0609
23.477 52.071
23.5225 54.5284
23.5682 56.8685
23.6137 57.3048
23.6593 54.2505
23.7048 49.9672
23.7505 46.9941
23.796 45.7446
23.8417 45.0955
23.8872 44.7781
23.9329 44.4604
23.9784 44.098
24.0241 43.9102
24.0697 43.6009
24.1154 43.2823
24.1609 43.1496
24.2066 42.8755
24.2522 42.8591
24.2979 42.7994
24.3434 42.4763
24.3892 42.3451
24.4349 42.3744
24.4805 42.1619
24.5262 42.4058
24.5718 42.2836
24.6175 42.0402
24.6631 41.9769
24.7089 41.7662
24.7545 41.6804
24.8002 41.5591
24.8458 41.4947
24.8916 41.3312
24.9372 41.5672
24.983 41.9475
25.0286 42.0691
25.0744 42.7146
25.12 43.2189
25.1658 43.8018
25.2114 43.8536
25.2572 44.0618
25.3029 44.268
25.3487 44.3408
25.3943 43.6726
25.4402 42.3904
25.4858 41.3513
25.5316 40.5484
25.5773 40.0425
25.6231 40.1327
25.669 39.8173
25.7147 39.8549
25.7605 39.6851
25.8062 39.7539
25.8521 39.9219
25.8977 39.8192
25.9436 40.2776
25.9893 40.2782
26.0352 40.9057
26.0809 40.9734
26.1268 41.0007
26.1725 40.5909
26.2184 39.9348
26.2641 39.5708
26.31 39.4494
26.3557 39.3904
26.4017 39.4689
26.4474 39.744
26.4933 39.9829
26.5391 40.617
26.585 41.1548
26.6308 41.5128
26.6767 41.5456
26.7225 41.2253
26.7684 40.495
26.8142 39.9745
26.8601 39.8396
26.9059 39.2307
26.9519 38.7124
26.9979 38.3839
27.0437 38.2033
27.0896 38.0045
27.1354 38.0197
27.1814 38.0874
27.2272 37.9456
27.2732 37.9862
27.3191 37.6693
27.3651 37.8729
27.4109 37.7632
27.4569 37.9598
27.5027 37.9369
27.5488 37.8695
27.5946 37.6799
27.6407 37.4835
27.6865 37.4588
27.7326 37.224
27.7784 37.1565
27.8245 37.2311
27.8703 37.41
27.9164 37.6786
27.9623 37.772
28.0084 38.251
28.0543 38.598
28.1003 38.4675
28.1462 38.0886
28.1923 37.8106
28.2384 37.3393
28.2843 36.9233
28.3304 36.5023
28.3764 36.03
28.4225 35.7536
28.4684 35.6354
28.5145 35.363
28.5605 35.2601
28.6066 35.0742
28.6526 35.0938
28.6987 35.0158
28.7447 34.978
28.7908 34.8484
28.8368 34.9485
28.8829 34.8502
28.9289 34.8055
28.9751 34.5208
29.0211 34.3727
29.0673 34.0866
29.1133 34.0384
29.1595 34.0093
29.2055 33.6659
29.2517 33.7449
29.2977 33.76
29.3439 33.689
29.3899 33.7496
29.4361 33.5577
29.4824 33.3908
29.5284 33.1572
29.5746 32.7818
29.6207 32.4804
29.6669 32.5486
29.713 32.3225
29.7593 32.3524
29.8053 32.2775
29.8516 32.187
29.8977 32.2556
29.9439 31.9314
29.99 32.0253
30.0363 31.8558
30.0824 31.9518
30.1287 31.8759
30.1748 31.989
30.2211 31.9161
30.2673 31.7764
30.3136 31.7842
30.3597 31.6015
30.406 31.653
30.4522 31.4942
30.4985 31.3916
30.5447 31.6252
30.591 31.6389
30.6372 31.6625
30.6835 31.6781
30.7297 31.6883
30.7761 31.6278
30.8224 31.4232
30.8686 31.3373
30.915 30.927
30.9612 31.04
31.0076 30.7995
31.0538 30.6348
31.1002 30.571
31.1464 30.4434
31.1928 30.4826
31.2391 30.484
31.2855 30.3477
31.3317 30.3635
31.3781 30.4281
31.4244 30.3544
31.4708 30.3501
31.5171 30.3409
31.5636 30.2598
31.6098 30.0766
31.6563 29.778
31.7026 29.6032
31.7491 29.6026
31.7953 29.7391
31.8418 29.7075
31.8881 29.6919
31.9346 29.6405
31.9809 29.5523
32.0275 29.3606
32.074 29.3432
32.1203 29.0479
32.1668 29.0417
32.2132 28.7981
32.2597 28.7755
32.306 28.7783
32.3526 28.4655
32.399 28.4287
32.4455 28.2582
32.4919 28.2046
32.5385 28.1727
32.5848 28.0145
32.6314 28.0386
32.6778 27.9186
32.7244 27.8378
32.7708 27.6611
32.8174 27.6974
32.8638 27.5187
32.9104 27.6089
32.9569 27.4921
33.0035 27.2999
33.0499 27.387
33.0966 27.3611
33.143 27.2922
33.1897 27.1701
33.2361 27.2115
33.2828 27.1284
33.3293 26.8874
33.3759 26.9283
33.4226 26.8319
33.4691 26.6618
33.5158 26.5522
33.5623 26.553
33.609 26.2696
33.6555 26.2036
33.7022 26.1281
33.7487 26.1028
33.7954 26.1256
33.842 26.0126
33.8887 25.8294
33.9353 25.7768
33.982 25.6383
34.0286 25.6306
34.0753 25.5047
34.1219 25.3905
34.1687 25.3204
34.2152 25.3119
34.262 25.1694
34.3086 25.0908
34.3554 25.1278
34.402 25.0266
34.4488 24.8526
34.4954 24.7639
34.5422 24.8159
34.5889 24.686
34.6357 24.583
34.6825 24.5139
34.7292 24.4833
34.776 24.285
34.8227 24.2829
34.8695 24.2266
34.9162 24.1522
34.9631 24.1469
35.0098 24.1289
35.0566 23.9956
35.1033 23.8328
35.1502 23.8117
35.1969 23.7484
35.2438 23.7961
35.2906 23.712
35.3375 23.6924
35.3842 23.6027
35.4311 23.5188
35.4779 23.5296
35.5248 23.479
35.5716 23.4115
35.6185 23.3186
35.6653 23.1152
35.7123 23.1623
35.759 23.0911
35.806 22.9632
35.8528 22.8435
35.8998 22.8971
35.9468 22.7365
35.9936 22.6603
36.0406 22.6302
36.0874 22.6175
36.1345 22.5138
36.1813 22.4028
36.2283 22.2986
36.2752 22.3029
36.3222 22.2427
36.3691 22.2167
36.4161 22.1295
36.463 22.0326
36.5101 22.0225
36.557 21.9317
36.6041 21.8692
36.651 21.8227
36.6981 21.7229
36.745 21.6987
36.7921 21.6375
36.839 21.4523
36.8861 21.4231
36.9331 21.3822
36.9802 21.3013
37.0272 21.1802
37.0743 21.1458
37.1213 21.1194
37.1684 21.0688
37.2154 21.01
37.2626 20.9327
37.3098 20.8727
37.3568 20.7878
37.404 20.7474
37.451 20.5875
37.4982 20.5595
37.5452 20.4321
37.5924 20.4909
37.6395 20.4243
37.6867 20.3973
37.7337 20.2529
37.781 20.1493
37.8281 20.1143
37.8753 20.0118
37.9224 20.0395
37.9697 19.8941
38.0168 19.8527
38.064 19.8021
38.1111 19.7356
38.1584 19.7483
38.2056 19.6146
38.2529 19.547
38.3 19.524
38.3473 19.484
38.3945 19.3019
38.4418 19.3925
38.489 19.2667
38.5363 19.1775
38.5837 19.1418
38.6309 19.0563
38.6782 19.0321
38.7254 18.8976
38.7728 18.8351
38.82 18.7704
38.8674 18.7724
38.9146 18.6559
38.9621 18.6476
39.0093 18.5804
39.0567 18.5432
39.104 18.4503
39.1514 18.3938
39.1987 18.3285
39.2461 18.3007
39.2934 18.2382
39.3409 18.0992
39.3882 18.1394
39.4356 18.0679
39.483 17.972
39.5304 17.9236
39.5778 17.9314
39.6253 17.8124
39.6726 17.8177
39.7201 17.7092
39.7675 17.6635
39.815 17.6312
39.8624 17.5339
39.9099 17.4472
39.9575 17.4063
40.0049 17.3857
40.0525 17.3177
40.0999 17.2668
40.1474 17.2101
40.1949 17.1473
40.2425 17.1006
40.2899 17.0951
40.3375 17.083
40.385 16.9327
40.4326 16.8935
40.48 16.8695
40.5277 16.8125
40.5752 16.7521
40.6228 16.6205
40.6703 16.6328
40.718 16.5688
40.7655 16.5485
40.8132 16.5159
40.8607 16.4745
40.9084 16.3937
40.9559 16.2848
41.0036 16.308
41.0512 16.2026
41.0989 16.187
41.1465 16.1266
41.1942 16.1164
41.242 15.9576
41.2896 15.9191
41.3373 15.877
41.3849 15.8316
41.4327 15.8242
41.4803 15.7246
41.5281 15.6874
41.5758 15.633
41.6236 15.5388
41.6712 15.5256
41.7191 15.5041
41.7667 15.4182
41.8146 15.3802
41.8622 15.2969
41.9101 15.2785
41.9578 15.2096
42.0057 15.1727
42.0534 15.1098
42.1013 15.0843
42.149 15.0278
42.1969 14.9318
42.2446 14.9007
42.2925 14.8662
42.3403 14.8753
42.3882 14.7842
42.436 14.772
42.4839 14.6882
42.5319 14.6094
42.5797 14.5482
42.6277 14.574
42.6755 14.434
42.7235 14.4005
42.7713 14.4011
42.8193 14.3434
42.8671 14.2401
42.9152 14.2905
42.963 14.1543
43.0111 14.1249
43.0589 14.1187
43.107 14.0122
43.1549 14.0214
43.2029 13.956
43.2508 13.9514
43.2989 13.8637
43.3468 13.8303
43.3949 13.7507
43.4429 13.6896
43.491 13.6649
43.5389 13.6455
43.5871 13.6138
43.635 13.5038
43.6832 13.4329
43.7312 13.4396
43.7793 13.2881
43.8273 13.3405
43.8755 13.3098
43.9237 13.218
43.9717 13.1871
44.0199 13.1529
44.068 13.1205
44.1162 13.0588
44.1642 13.0337
44.2125 12.9968
44.2606 12.913
44.3088 12.8651
44.3569 12.8239
44.4052 12.8388
44.4533 12.6925
44.5016 12.6782
44.5497 12.6807
44.598 12.5946
44.6461 12.5809
44.6945 12.4909
44.7426 12.4785
44.791 12.4325
44.8391 12.4135
44.8875 12.3646
44.9357 12.2751
44.984 12.2904
45.0322 12.2092
45.0806 12.1798
45.1288 12.1435
45.1773 12.0632
45.2257 12.0166
45.2739 11.9786
45.3224 11.9234
45.3706 11.9307
45.4191 11.8641
45.4673 11.8447
45.5158 11.7728
45.5641 11.7274
45.6126 11.6892
45.6609 11.6634
45.7094 11.5846
45.7577 11.5405
45.8063 11.4946
45.8546 11.4954
45.9031 11.4023
45.9515 11.421
46.0001 11.3819
46.0484 11.3442
46.097 11.2988
46.1454 11.2749
46.194 11.1895
46.2424 11.1653
46.291 11.153
46.3395 11.0652
46.3881 11.0586
46.4365 11.0468
46.4852 10.9701
46.5337 10.9095
46.5823 10.9202
46.631 10.8561
46.6795 10.8423
46.7282 10.8075
46.7767 10.7525
46.8254 10.7094
46.8739 10.6397
46.9226 10.6414
46.9712 10.6059
47.0199 10.5523
47.0685 10.4389
47.1173 10.4217
47.1658 10.3971
47.2146 10.4108
47.2632 10.3386
47.312 10.3038
47.3606 10.2647
47.4095 10.2073
47.4581 10.1858
47.5069 10.1229
47.5556 10.1099
47.6044 10.0861
47.6531 10.05
47.702 9.96991
47.7507 9.95362
47.7996 9.95505
47.8483 9.87211
47.8972 9.84947
47.9461 9.81102
47.9948 9.74803
48.0438 9.73885
48.0925 9.72512
48.1415 9.67842
48.1902 9.65901
48.2392 9.68537
48.288 9.62051
48.337 9.51709
48.3858 9.51244
48.4348 9.47891
48.4837 9.47194
48.5327 9.38502
48.5815 9.365
48.6306 9.36421
48.6795 9.32999
48.7285 9.2322
48.7774 9.2711
48.8265 9.22375
48.8754 9.18614
48.9245 9.109
48.9734 9.08758
49.0226 9.10469
49.0715 9.038
49.1206 9.01625
49.1696 8.96448
49.2188 8.95258
49.2679 8.89795
49.3169 8.82465
49.3661 8.8576
49.4151 8.81156
49.4643 8.76386
49.5134 8.72747
49.5626 8.66057
49.6117 8.63308
49.6609 8.61913
49.71 8.60344
49.7592 8.5659
49.8083 8.52872
49.8576 8.5035
49.9067 8.47542
49.956 8.43054
50.0052 8.35936
50.0545 8.34408
50.1036 8.32467
50.153 8.32642
50.2022 8.26713
50.2515 8.23762
50.3007 8.17114
50.3501 8.17952
50.3993 8.13697
50.4487 8.07881
50.498 8.08055
50.5474 8.04552
50.5966 7.97376
50.6461 7.97689
50.6955 7.93844
50.7448 7.90902
50.7943 7.9118
50.8436 7.87663
50.8931 7.82154
50.9424 7.80176
50.9919 7.764
51.0413 7.74167
51.0908 7.71951
51.1402 7.65175
51.1897 7.63718
51.2391 7.60476
51.2887 7.57491
51.3381 7.51074
51.3877 7.54039
51.4371 7.47096
51.4867 7.47955
51.5362 7.4003
51.5858 7.40387
51.6353 7.36663
51.6849 7.34521
51.7344 7.30513
51.7841 7.29628
51.8336 7.28354
51.8833 7.20062
51.9328 7.17747
51.9826 7.14924
52.0323 7.14219
52.0818 7.07879
52.1316 7.08986
52.1812 7.06576
52.231 7.00196
52.2806 6.94825
52.3304 6.95207
52.38 6.94144
52.4298 6.92732
52.4794 6.86564
52.5293 6.81158
52.5789 6.80568
52.6288 6.79463
52.6785 6.76382
52.7284 6.75741
52.7781 6.70305
52.828 6.67024
52.8777 6.64014
52.9276 6.62464
52.9774 6.58956
53.0273 6.5769
53.0771 6.54211
53.1271 6.50254
53.1769 6.4933
53.2269 6.4635
53.2767 6.4241
53.3267 6.39336
53.3765 6.37436
53.4266 6.4009
53.4766 6.3082
53.5265 6.30822
53.5765 6.26595
53.6264 6.21696
53.6765 6.18773
53.7264 6.16318
53.7765 6.14887
53.8265 6.11676
53.8766 6.0778
53.9266 6.10229
53.9767 6.0209
54.0267 6.04686
54.0769 6.00939
54.1269 6.00596
54.1771 5.88429
54.2271 5.92692
54.2773 5.8932
54.3274 5.8786
54.3776 5.81628
54.4277 5.76132
54.478 5.79296
54.528 5.7172
54.5783 5.65992
54.6285 5.66495
54.6788 5.60966
54.7289 5.55186
54.7792 5.522
54.8296 5.4534
54.8798 5.41641
54.9301 5.37949
54.9803 5.34977
55.0307 5.33697
55.0809 5.32019
55.1314 5.24919
55.1816 5.21399
55.232 5.13999
55.2823 5.11573
55.3328 5.05663
55.383 5.01169
55.4335 5.02317
55.4838 4.89593
55.5344 4.87472
55.5847 4.83741
55.6352 4.80422
55.6856 4.79674
55.7361 4.70811