File: XRD/Ni3Fe_FD0653.xy
TT I
1.27165 7.08606
1.31627 6.52092
1.36089 7.16379
1.40551 5.47717
1.45013 6.81064
1.49476 6.26769
1.53938 6.03521
1.584 5.68046
1.62863 4.80089
1.67325 5.36424
1.71787 5.33095
1.7625 4.95762
1.80712 5.12974
1.85174 5.27429
1.89636 4.91714
1.94099 5.31011
1.98562 5.16917
2.03025 4.49875
2.07487 4.92257
2.11949 5.08436
2.16411 5.02056
2.20874 17.2472
2.25338 30.2821
2.298 6.66402
2.34263 5.4012
2.38725 5.46956
2.43188 5.91334
2.4765 6.67413
2.52115 7.40933
2.56577 7.98708
2.6104 7.47321
2.65503 7.33109
2.69965 8.27197
2.7443 8.50282
2.78893 8.22435
2.83356 8.6144
2.87818 8.34145
2.92281 8.789
2.96744 9.92602
3.01209 10.3028
3.05672 11.0745
3.10135 12.3726
3.14599 12.7826
3.19062 13.8058
3.23527 14.9678
3.2799 15.9949
3.32454 17.0664
3.36917 17.723
3.4138 19.1162
3.45844 19.7138
3.50309 21.0167
3.54773 22.2195
3.59237 24.6068
3.637 117.198
3.68164 73.2006
3.7263 26.6064
3.77094 26.6074
3.81558 27.1685
3.86022 27.7261
3.90486 28.9714
3.9495 30.0747
3.99416 31.4281
4.0388 32.7752
4.08344 33.983
4.12809 35.5879
4.17273 37.843
4.21738 45.025
4.26204 325.202
4.30669 289.357
4.35133 51.089
4.39598 45.4564
4.44063 57.1722
4.4853 72.862
4.52995 50.8464
4.5746 51.0893
4.61925 53.3982
4.6639 55.4126
4.70855 57.9307
4.75322 60.7303
4.79788 64.1683
4.84253 66.9653
4.88719 70.963
4.93184 74.6341
4.97652 79.5532
5.02118 86.2066
5.06583 93.6146
5.11049 104.155
5.15515 187.74
5.19981 328.999
5.24449 2591.01
5.28916 12537.1
5.33382 3222.8
5.37848 196.789
5.42315 130.84
5.46783 114.299
5.5125 106.35
5.55716 102.472
5.60183 98.5538
5.6465 97.0119
5.69117 93.9627
5.73586 92.0126
5.78053 90.9711
5.8252 90.7205
5.86988 91.0565
5.91455 93.31
5.95924 100.221
6.00392 186.649
6.0486 887.042
6.09328 4268.05
6.13795 3504.27
6.18263 266.074
6.22733 95.1019
6.27201 84.622
6.3167 112.59
6.36138 84.8223
6.40606 69.5445
6.45075 67.7212
6.49545 65.7271
6.54014 64.2129
6.58483 63.887
6.62952 63.778
6.67421 105.33
6.71892 177.363
6.76361 73.0585
6.8083 59.3857
6.853 58.3625
6.89769 57.3836
6.94239 57.352
6.98711 56.4917
7.03181 55.9096
7.07651 56.0226
7.12121 55.8579
7.16591 56.1601
7.21063 56.7661
7.25533 75.5892
7.30004 228.176
7.34475 107.4
7.38945 57.9089
7.43416 55.4546
7.47889 55.0969
7.5236 55.5771
7.56831 55.9195
7.61303 57.841
7.65774 58.7731
7.70247 56.5738
7.74719 56.2798
7.79191 57.0328
7.83663 57.1021
7.88135 58.1903
7.92607 58.9727
7.97081 60.1815
8.01553 61.2439
8.06026 62.3835
8.10498 64.328
8.14971 76.5637
8.19446 74.5195
8.23919 69.54
8.28392 71.9874
8.32865 74.0469
8.37339 77.9407
8.41812 85.8552
8.46288 121.275
8.50761 156.748
8.55235 357.846
8.59709 1075.53
8.64183 2165.24
8.68658 1045.45
8.73134 178.133
8.77609 100.404
8.82083 92.978
8.86558 89.6431
8.91033 90.3379
8.9551 94.1157
8.99985 86.1407
9.04461 83.4161
9.08936 82.4478
9.13412 81.7032
9.17888 82.3745
9.22365 83.7078
9.26841 82.2076
9.31318 82.4927
9.35794 82.6187
9.4027 82.799
9.44749 83.7133
9.49226 84.3078
9.53703 85.1484
9.5818 87.1492
9.62657 92.3258
9.67134 101.791
9.71614 94.1852
9.76091 93.9558
9.80569 95.9512
9.85047 100.067
9.89525 130.714
9.94005 145.298
9.98484 166.22
10.0296 315.974
10.0744 739.403
10.1192 1688.27
10.164 1707.82
10.2088 452.425
10.2536 132.614
10.2984 115.531
10.3432 119.754
10.388 105.316
10.4328 114.65
10.4776 152.699
10.5224 262.247
10.5672 485.251
10.612 525.461
10.6568 217.575
10.7017 98.8753
10.7465 87.1563
10.7913 83.7142
10.8361 81.1342
10.8809 79.3924
10.9257 78.9454
10.9706 80.4435
11.0154 75.3651
11.0602 73.3333
11.105 72.1067
11.1499 78.4123
11.1947 89.2763
11.2395 77.1751
11.2844 71.9066
11.3292 67.912
11.374 66.4861
11.4189 66.2632
11.4637 65.4146
11.5086 66.1953
11.5534 70.6912
11.5983 66.7717
11.6431 64.2046
11.688 63.3954
11.7328 63.3273
11.7777 63.3304
11.8225 62.6251
11.8674 62.3414
11.9122 63.0078
11.9571 63.0428
12.002 63.7483
12.0468 67.1674
12.0917 77.9232
12.1366 100.782
12.1814 146.076
12.2263 204.396
12.2712 176.46
12.3161 104.553
12.3609 73.3066
12.4058 65.3454
12.4507 64.6142
12.4956 64.7795
12.5405 64.634
12.5853 65.8825
12.6302 76.3042
12.6751 84.1424
12.72 71.6208
12.7649 68.068
12.8098 68.574
12.8547 69.5717
12.8996 70.9056
12.9445 72.2913
12.9894 73.9435
13.0343 75.7224
13.0792 78.7103
13.1242 86.2859
13.1691 108.805
13.214 143.014
13.2589 223.722
13.3038 354.637
13.3487 440.064
13.3937 286.644
13.4386 130.955
13.4835 104.174
13.5285 117.016
13.5734 151.442
13.6183 232.713
13.6633 338.14
13.7082 351.672
13.7531 197.852
13.7981 100.358
13.843 81.9091
13.888 80.0205
13.9329 77.1403
13.9779 76.1522
14.0228 74.576
14.0678 73.0874
14.1127 72.8306
14.1577 73.161
14.2027 71.9299
14.2476 70.5404
14.2926 70.943
14.3376 72.73
14.3825 70.8278
14.4275 68.9505
14.4725 68.6572
14.5175 68.9307
14.5624 69.2084
14.6074 71.9323
14.6524 72.6107
14.6974 70.76
14.7424 71.4679
14.7874 77.5771
14.8324 86.7387
14.8774 105.914
14.9224 145.886
14.9674 199.252
15.0124 219.408
15.0574 155.927
15.1024 94.0684
15.1474 72.943
15.1924 70.8642
15.2374 72.2175
15.2824 71.5279
15.3274 68.6769
15.3725 66.999
15.4175 66.6088
15.4625 66.2405
15.5076 66.6968
15.5526 66.562
15.5976 65.626
15.6426 66.4096
15.6877 71.2134
15.7327 77.8326
15.7778 91.9191
15.8228 120.983
15.8679 162.9
15.9129 195.242
15.958 164.685
16.003 102.992
16.0481 69.7655
16.0931 66.2869
16.1382 63.6816
16.1833 61.1679
16.2283 59.0956
16.2734 58.771
16.3185 59.27
16.3636 60.5947
16.4086 58.6832
16.4537 56.4054
16.4988 55.8369
16.5439 55.7752
16.589 55.5531
16.6341 55.2431
16.6792 54.5411
16.7243 54.9798
16.7694 55.3209
16.8145 55.0677
16.8596 55.6229
16.9047 57.7048
16.9498 58.0626
16.9949 56.2503
17.04 55.8271
17.0851 56.9028
17.1302 58.7463
17.1754 61.3283
17.2205 65.8714
17.2656 73.2199
17.3108 82.2093
17.3559 83.8239
17.401 72.7216
17.4462 62.9063
17.4913 59.2517
17.5365 59.2791
17.5815 59.3898
17.6268 59.6817
17.6718 60.4812
17.7171 61.2013
17.7622 61.1352
17.8074 61.7386
17.8525 63.5955
17.8977 67.489
17.9428 72.6419
17.9881 80.765
18.0331 95.9419
18.0784 117.581
18.1237 138.66
18.1688 135.019
18.214 106.246
18.2591 86.6484
18.3044 88.9895
18.3495 98.7323
18.3948 106.332
18.4399 99.3644
18.4852 79.8423
18.5303 67.1339
18.5756 62.4421
18.6207 61.3414
18.666 60.6017
18.7112 59.9583
18.7565 59.1898
18.8016 58.7035
18.8469 58.279
18.892 57.8316
18.9374 57.4453
18.9825 57.1939
19.0278 57.2564
19.073 56.9763
19.1183 57.6105
19.1635 58.4429
19.2088 59.6155
19.254 61.7012
19.2993 65.9194
19.3447 72.1856
19.3898 77.3251
19.4352 74.08
19.4804 64.732
19.5257 57.2457
19.5709 54.5142
19.6163 54.0268
19.6615 53.7647
19.7068 53.493
19.752 53.4455
19.7974 53.6537
19.8426 54.6091
19.888 55.2727
19.9332 56.176
19.9786 58.2351
20.0238 61.5894
20.0692 66.4265
20.1144 69.785
20.1598 69.1381
20.205 64.0297
20.2504 62.1107
20.2957 63.5056
20.3411 65.9417
20.3863 64.9339
20.4318 59.3238
20.477 54.2914
20.5224 52.1193
20.5677 51.4361
20.6131 50.6536
20.6586 49.8599
20.7038 49.829
20.7493 49.3332
20.7945 49.0614
20.84 48.9696
20.8853 48.7929
20.9307 48.7946
20.976 48.8379
21.0215 48.5754
21.0668 49.106
21.1122 49.4286
21.1575 50.2597
21.203 50.6836
21.2483 51.5787
21.2938 51.6853
21.3391 50.4357
21.3846 49.1384
21.4299 48.6413
21.4754 48.507
21.5207 48.6096
21.5662 48.8176
21.6116 49.0724
21.6571 49.6469
21.7024 50.8904
21.7479 52.3702
21.7933 54.747
21.8388 58.2696
21.8843 62.2134
21.9297 64.6366
21.9752 64.1819
22.0206 60.2748
22.0661 56.9275
22.1115 56.3
22.157 56.3891
22.2024 54.7916
22.248 51.9304
22.2933 50.3551
22.3389 49.2682
22.3843 49.2883
22.4299 49.3061
22.4753 49.1827
22.5208 48.8954
22.5662 48.5583
22.6118 48.7636
22.6572 48.9129
22.7028 49.1789
22.7483 49.7325
22.7939 50.3386
22.8393 51.7326
22.8849 53.644
22.9303 55.8911
22.9759 57.6448
23.0214 58.0481
23.067 55.4002
23.1126 51.8122
23.1581 49.5942
23.2037 48.949
23.2492 48.937
23.2948 48.8621
23.3403 49.1381
23.3859 49.4708
23.4314 50.6274
23.477 52.4413
23.5225 54.4817
23.5682 56.6419
23.6137 58.1173
23.6593 56.4294
23.7048 52.5119
23.7505 48.852
23.796 46.822
23.8417 46.0359
23.8872 45.8377
23.9329 45.498
23.9784 45.1771
24.0241 44.8517
24.0697 44.8182
24.1154 44.2952
24.1609 44.3159
24.2066 44.084
24.2522 43.8013
24.2979 43.5523
24.3434 43.537
24.3892 43.4301
24.4349 43.2851
24.4805 43.1099
24.5262 43.1876
24.5718 43.0558
24.6175 43.0004
24.6631 43.0842
24.7089 42.7045
24.7545 42.6098
24.8002 42.3851
24.8458 42.3994
24.8916 42.1146
24.9372 42.3928
24.983 42.6249
25.0286 42.7936
25.0744 43.3663
25.12 43.8487
25.1658 44.2233
25.2114 44.7448
25.2572 44.8313
25.3029 44.9029
25.3487 45.0753
25.3943 44.8363
25.4402 43.8027
25.4858 42.8196
25.5316 41.6919
25.5773 41.0827
25.6231 41.0949
25.669 40.7615
25.7147 40.6817
25.7605 40.5909
25.8062 40.6991
25.8521 40.7099
25.8977 40.6173
25.9436 40.8883
25.9893 40.928
26.0352 41.5717
26.0809 41.6884
26.1268 41.7797
26.1725 41.6244
26.2184 41.0892
26.2641 40.6393
26.31 40.2672
26.3557 40.3799
26.4017 40.1725
26.4474 40.5025
26.4933 40.7799
26.5391 41.2258
26.585 41.7952
26.6308 42.0568
26.6767 42.3658
26.7225 42.1259
26.7684 41.6426
26.8142 41.1103
26.8601 40.6073
26.9059 40.266
26.9519 39.7293
26.9979 39.371
27.0437 39.1796
27.0896 38.8457
27.1354 38.7704
27.1814 38.7417
27.2272 38.6824
27.2732 38.7744
27.3191 38.4774
27.3651 38.594
27.4109 38.3853
27.4569 38.6667
27.5027 38.5379
27.5488 38.7661
27.5946 38.5847
27.6407 38.1916
27.6865 38.2895
27.7326 38.0431
27.7784 37.9452
27.8245 37.8558
27.8703 38.0646
27.9164 38.4474
27.9623 38.5368
28.0084 38.7861
28.0543 39.1694
28.1003 39.0834
28.1462 39.004
28.1923 38.6091
28.2384 38.1277
28.2843 37.8287
28.3304 37.4716
28.3764 37.0082
28.4225 36.6663
28.4684 36.4049
28.5145 36.1305
28.5605 36.0178
28.6066 35.8428
28.6526 35.6248
28.6987 35.6853
28.7447 35.5883
28.7908 35.6741
28.8368 35.6415
28.8829 35.5959
28.9289 35.5835
28.9751 35.2827
29.0211 35.132
29.0673 34.8954
29.1133 34.6739
29.1595 34.6407
29.2055 34.4444
29.2517 34.6267
29.2977 34.4601
29.3439 34.3758
29.3899 34.4591
29.4361 34.2609
29.4824 34.1895
29.5284 34.0263
29.5746 33.6442
29.6207 33.287
29.6669 33.31
29.713 33.0972
29.7593 32.9806
29.8053 33.1017
29.8516 32.9253
29.8977 32.9744
29.9439 32.6631
29.99 32.8093
30.0363 32.5632
30.0824 32.6786
30.1287 32.5404
30.1748 32.6301
30.2211 32.6007
30.2673 32.3826
30.3136 32.3935
30.3597 32.4131
30.406 32.3481
30.4522 32.2753
30.4985 32.1793
30.5447 32.288
30.591 32.3134
30.6372 32.2844
30.6835 32.2331
30.7297 32.4248
30.7761 32.3398
30.8224 32.0694
30.8686 32.0132
30.915 31.7601
30.9612 31.576
31.0076 31.417
31.0538 31.299
31.1002 31.3261
31.1464 31.022
31.1928 31.0581
31.2391 31.1027
31.2855 30.9513
31.3317 31.0216
31.3781 31.0289
31.4244 30.9891
31.4708 30.9678
31.5171 30.8529
31.5636 30.9327
31.6098 30.6812
31.6563 30.4923
31.7026 30.3357
31.7491 30.1926
31.7953 30.2495
31.8418 30.2872
31.8881 30.2075
31.9346 30.2743
31.9809 30.2319
32.0275 30.0376
32.074 29.9467
32.1203 29.6782
32.1668 29.7354
32.2132 29.5425
32.2597 29.4335
32.306 29.2625
32.3526 29.1037
32.399 29.037
32.4455 28.8427
32.4919 28.7481
32.5385 28.8245
32.5848 28.5872
32.6314 28.5955
32.6778 28.5978
32.7244 28.4033
32.7708 28.2096
32.8174 28.2096
32.8638 28.2083
32.9104 28.1656
32.9569 28.1974
33.0035 28.0326
33.0499 27.9963
33.0966 27.9205
33.143 27.9049
33.1897 27.7435
33.2361 27.8048
33.2828 27.6914
33.3293 27.5776
33.3759 27.5307
33.4226 27.3957
33.4691 27.2398
33.5158 27.1929
33.5623 26.989
33.609 26.8832
33.6555 26.8055
33.7022 26.7882
33.7487 26.6235
33.7954 26.5313
33.842 26.4846
33.8887 26.4614
33.9353 26.3753
33.982 26.3173
34.0286 26.2061
34.0753 26.143
34.1219 26.0221
34.1687 25.9738
34.2152 25.8908
34.262 25.7302
34.3086 25.7349
34.3554 25.6182
34.402 25.4908
34.4488 25.3665
34.4954 25.4055
34.5422 25.3201
34.5889 25.1385
34.6357 25.0598
34.6825 25.0519
34.7292 24.9472
34.776 24.8724
34.8227 24.8276
34.8695 24.7742
34.9162 24.6757
34.9631 24.6226
35.0098 24.5597
35.0566 24.4842
35.1033 24.452
35.1502 24.3734
35.1969 24.2818
35.2438 24.2864
35.2906 24.2082
35.3375 24.1965
35.3842 24.0607
35.4311 24.108
35.4779 24.0321
35.5248 23.9748
35.5716 23.9575
35.6185 23.7908
35.6653 23.7543
35.7123 23.7205
35.759 23.6274
35.806 23.4403
35.8528 23.2983
35.8998 23.3701
35.9468 23.2046
35.9936 23.1985
36.0406 23.0385
36.0874 23.1009
36.1345 23.0211
36.1813 22.9635
36.2283 22.8249
36.2752 22.6937
36.3222 22.7588
36.3691 22.6831
36.4161 22.5112
36.463 22.5024
36.5101 22.4489
36.557 22.4357
36.6041 22.3112
36.651 22.2553
36.6981 22.2141
36.745 22.1443
36.7921 22.0528
36.839 21.9654
36.8861 21.8807
36.9331 21.8876
36.9802 21.6833
37.0272 21.6475
37.0743 21.5823
37.1213 21.5358
37.1684 21.4786
37.2154 21.4046
37.2626 21.3562
37.3098 21.3437
37.3568 21.2928
37.404 21.1948
37.451 21.0972
37.4982 21.0386
37.5452 20.8509
37.5924 20.9367
37.6395 20.9442
37.6867 20.824
37.7337 20.7061
37.781 20.6574
37.8281 20.6096
37.8753 20.4303
37.9224 20.4676
37.9697 20.3694
38.0168 20.3929
38.064 20.2279
38.1111 20.1706
38.1584 20.0291
38.2056 20.0795
38.2529 19.9534
38.3 19.9467
38.3473 19.8426
38.3945 19.6922
38.4418 19.7952
38.489 19.6598
38.5363 19.6139
38.5837 19.5855
38.6309 19.5323
38.6782 19.4512
38.7254 19.3867
38.7728 19.2812
38.82 19.212
38.8674 19.2367
38.9146 19.1214
38.9621 19.0495
39.0093 19.0353
39.0567 18.9337
39.104 18.9318
39.1514 18.8261
39.1987 18.7885
39.2461 18.7433
39.2934 18.6172
39.3409 18.5478
39.3882 18.4158
39.4356 18.506
39.483 18.4135
39.5304 18.2985
39.5778 18.3211
39.6253 18.1971
39.6726 18.1738
39.7201 18.1253
39.7675 18.1048
39.815 18.057
39.8624 17.8917
39.9099 17.8807
39.9575 17.8191
40.0049 17.7803
40.0525 17.7051
40.0999 17.6321
40.1474 17.654
40.1949 17.5317
40.2425 17.4436
40.2899 17.474
40.3375 17.4546
40.385 17.3207
40.4326 17.279
40.48 17.2132
40.5277 17.2137
40.5752 17.0768
40.6228 17.0798
40.6703 16.9942
40.718 16.9543
40.7655 16.8449
40.8132 16.8193
40.8607 16.8246
40.9084 16.7736
40.9559 16.7025
41.0036 16.6648
41.0512 16.5972
41.0989 16.5384
41.1465 16.4488
41.1942 16.4616
41.242 16.3674
41.2896 16.3438
41.3373 16.2871
41.3849 16.1623
41.4327 16.1407
41.4803 16.065
41.5281 16.0129
41.5758 15.9273
41.6236 15.9438
41.6712 15.8649
41.7191 15.8029
41.7667 15.7114
41.8146 15.7283
41.8622 15.6706
41.9101 15.5794
41.9578 15.5211
42.0057 15.5148
42.0534 15.4185
42.1013 15.3774
42.149 15.4
42.1969 15.2667
42.2446 15.2267
42.2925 15.1821
42.3403 15.1096
42.3882 15.1078
42.436 15.0731
42.4839 14.9894
42.5319 14.948
42.5797 14.8936
42.6277 14.8713
42.6755 14.8436
42.7235 14.7422
42.7713 14.6805
42.8193 14.6456
42.8671 14.5744
42.9152 14.5638
42.963 14.4849
43.0111 14.4294
43.0589 14.4008
43.107 14.302
43.1549 14.2867
43.2029 14.2234
43.2508 14.1918
43.2989 14.1172
43.3468 14.072
43.3949 14.0448
43.4429 13.9758
43.491 13.9444
43.5389 13.9209
43.5871 13.8361
43.635 13.8273
43.6832 13.7727
43.7312 13.675
43.7793 13.6616
43.8273 13.6214
43.8755 13.516
43.9237 13.5073
43.9717 13.4654
44.0199 13.3876
44.068 13.4178
44.1162 13.3609
44.1642 13.3375
44.2125 13.2375
44.2606 13.2085
44.3088 13.1459
44.3569 13.142
44.4052 13.0975
44.4533 13.0268
44.5016 12.9749
44.5497 12.8905
44.598 12.9117
44.6461 12.8711
44.6945 12.8453
44.7426 12.7406
44.791 12.7022
44.8391 12.6504
44.8875 12.5576
44.9357 12.5714
44.984 12.5145
45.0322 12.4799
45.0806 12.373
45.1288 12.366
45.1773 12.3354
45.2257 12.3028
45.2739 12.2851
45.3224 12.2219
45.3706 12.2075
45.4191 12.1141
45.4673 12.091
45.5158 12.0001
45.5641 11.9757
45.6126 11.9559
45.6609 11.8824
45.7094 11.8678
45.7577 11.836
45.8063 11.7722
45.8546 11.7347
45.9031 11.6829
45.9515 11.6597
46.0001 11.6216
46.0484 11.5475
46.097 11.5764
46.1454 11.5486
46.194 11.5007
46.2424 11.4141
46.291 11.3788
46.3395 11.36
46.3881 11.2846
46.4365 11.3213
46.4852 11.2414
46.5337 11.1485
46.5823 11.1306
46.631 11.1203
46.6795 11.0826
46.7282 11.0166
46.7767 10.964
46.8254 10.9186
46.8739 10.8958
46.9226 10.8176
46.9712 10.7942
47.0199 10.7648
47.0685 10.7359
47.1173 10.7174
47.1658 10.6504
47.2146 10.6132
47.2632 10.5442
47.312 10.5684
47.3606 10.4649
47.4095 10.4354
47.4581 10.4159
47.5069 10.3754
47.5556 10.329
47.6044 10.3197
47.6531 10.2465
47.702 10.2499
47.7507 10.224
47.7996 10.1306
47.8483 10.135
47.8972 10.0718
47.9461 10.047
47.9948 9.992
48.0438 9.95896
48.0925 9.92486
48.1415 9.88153
48.1902 9.85601
48.2392 9.84802
48.288 9.74424
48.337 9.77641
48.3858 9.72407
48.4348 9.67696
48.4837 9.69013
48.5327 9.60658
48.5815 9.59499
48.6306 9.57207
48.6795 9.52505
48.7285 9.4562
48.7774 9.4446
48.8265 9.47172
48.8754 9.35505
48.9245 9.31357
48.9734 9.32038
49.0226 9.27623
49.0715 9.23202
49.1206 9.21645
49.1696 9.16343
49.2188 9.12862
49.2679 9.08575
49.3169 9.01245
49.3661 8.99805
49.4151 8.95526
49.4643 8.95395
49.5134 8.88769
49.5626 8.87632
49.6117 8.84841
49.6609 8.81918
49.71 8.77537
49.7592 8.74785
49.8083 8.68692
49.8576 8.69979
49.9067 8.65916
49.956 8.59114
50.0052 8.5608
50.0545 8.56143
50.1036 8.50117
50.153 8.48392
50.2022 8.44728
50.2515 8.4546
50.3007 8.36482
50.3501 8.30636
50.3993 8.33081
50.4487 8.30577
50.498 8.25165
50.5474 8.19755
50.5966 8.21491
50.6461 8.18856
50.6955 8.12327
50.7448 8.1222
50.7943 8.05439
50.8436 8.04888
50.8931 8.02273
50.9424 7.93606
50.9919 7.92629
51.0413 7.93318
51.0908 7.87741
51.1402 7.82973
51.1897 7.8129
51.2391 7.77461
51.2887 7.746
51.3381 7.72686
51.3877 7.67994
51.4371 7.64263
51.4867 7.61069
51.5362 7.60589
51.5858 7.53845
51.6353 7.52949
51.6849 7.53957
51.7344 7.46415
51.7841 7.4254
51.8336 7.40901
51.8833 7.38033
51.9328 7.34241
51.9826 7.26965
52.0323 7.31143
52.0818 7.23417
52.1316 7.18681
52.1812 7.20966
52.231 7.17447
52.2806 7.13658
52.3304 7.12527
52.38 7.09213
52.4298 7.0455
52.4794 6.98971
52.5293 6.95618
52.5789 6.97528
52.6288 6.92868
52.6785 6.84994
52.7284 6.87033
52.7781 6.87221
52.828 6.79568
52.8777 6.7687
52.9276 6.77596
52.9774 6.73957
53.0273 6.68315
53.0771 6.68054
53.1271 6.67964
53.1769 6.60328
53.2269 6.62663
53.2767 6.57265
53.3267 6.56278
53.3765 6.4932
53.4266 6.48556
53.4766 6.39781
53.5265 6.38779
53.5765 6.39233
53.6264 6.37349
53.6765 6.36559
53.7264 6.30709
53.7765 6.32544
53.8265 6.28363
53.8766 6.25021
53.9266 6.18981
53.9767 6.20138
54.0267 6.15359
54.0769 6.12429
54.1269 6.06525
54.1771 6.06061
54.2271 6.05382
54.2773 5.97877
54.3274 5.96559
54.3776 5.97129
54.4277 5.86443
54.478 5.86702
54.528 5.82092
54.5783 5.7832
54.6285 5.77583
54.6788 5.70217
54.7289 5.67251
54.7792 5.57032
54.8296 5.59117
54.8798 5.48915
54.9301 5.56038
54.9803 5.44694
55.0307 5.47008
55.0809 5.41791
55.1314 5.39828
55.1816 5.32715
55.232 5.31416
55.2823 5.21191
55.3328 5.1021
55.383 5.16324
55.4335 5.08782
55.4838 5.05277
55.5344 5.00069
55.5847 4.9122
55.6352 4.92887
55.6856 4.87641
55.7361 4.86558