File: XRD/Ni3Fe_FD0123.xy
TT I
1.27165 8.37747
1.31627 7.33576
1.36089 7.37843
1.40551 6.50543
1.45013 6.94715
1.49476 7.22785
1.53938 6.11867
1.584 5.49469
1.62863 6.51304
1.67325 5.75776
1.71787 5.19031
1.7625 5.67067
1.80712 5.65602
1.85174 5.91701
1.89636 5.06453
1.94099 5.35681
1.98562 5.52505
2.03025 5.11997
2.07487 5.25098
2.11949 5.31459
2.16411 4.98708
2.20874 4.52801
2.25338 4.19192
2.298 4.78015
2.34263 4.64979
2.38725 4.37582
2.43188 3.24633
2.4765 4.02179
2.52115 4.40152
2.56577 4.58284
2.6104 5.08386
2.65503 4.26234
2.69965 6.17979
2.7443 5.70884
2.78893 6.03085
2.83356 6.8539
2.87818 7.81763
2.92281 8.48757
2.96744 9.39744
3.01209 10.0273
3.05672 10.9873
3.10135 12.1419
3.14599 13.1537
3.19062 14.0331
3.23527 14.8315
3.2799 15.2831
3.32454 16.8825
3.36917 17.5623
3.4138 18.7606
3.45844 19.5181
3.50309 20.2114
3.54773 20.7255
3.59237 21.4001
3.637 22.0757
3.68164 23.0257
3.7263 24.1113
3.77094 25.2649
3.81558 25.6536
3.86022 26.1488
3.90486 27.533
3.9495 28.246
3.99416 29.2633
4.0388 30.2509
4.08344 31.5622
4.12809 32.6294
4.17273 33.632
4.21738 35.0152
4.26204 36.3054
4.30669 37.5213
4.35133 39.2116
4.39598 40.6687
4.44063 42.4191
4.4853 44.3645
4.52995 46.8423
4.5746 48.6531
4.61925 51.2984
4.6639 53.4086
4.70855 56.1636
4.75322 58.7588
4.79788 61.9923
4.84253 65.4001
4.88719 69.791
4.93184 74.8739
4.97652 82.8397
5.02118 90.7943
5.06583 102.315
5.11049 119.288
5.15515 159.16
5.19981 586.567
5.24449 3761.13
5.28916 7644.87
5.33382 6735.93
5.37848 533.799
5.42315 170.885
5.46783 130.509
5.5125 115.384
5.55716 108.366
5.60183 101.942
5.6465 99.4412
5.69117 97.8453
5.73586 95.4144
5.78053 95.5507
5.8252 95.7048
5.86988 99.695
5.91455 106.739
5.95924 127.847
6.00392 302.273
6.0486 1401.1
6.09328 2499.92
6.13795 3925.49
6.18263 752.452
6.22733 128.906
6.27201 90.7706
6.3167 78.7574
6.36138 72.4636
6.40606 68.2931
6.45075 66.2176
6.49545 63.9457
6.54014 62.1111
6.58483 60.5953
6.62952 59.1527
6.67421 57.9433
6.71892 56.8793
6.76361 56.4869
6.8083 54.9246
6.853 54.6688
6.89769 54.0747
6.94239 53.7958
6.98711 52.939
7.03181 52.915
7.07651 52.2054
7.12121 52.0842
7.16591 51.7713
7.21063 51.5052
7.25533 51.3687
7.30004 51.5813
7.34475 51.8292
7.38945 51.9615
7.43416 51.478
7.47889 51.3627
7.5236 56.2481
7.56831 66.1364
7.61303 56.1532
7.65774 52.8357
7.70247 53.2458
7.74719 53.7798
7.79191 54.5265
7.83663 54.4332
7.88135 55.5781
7.92607 56.5132
7.97081 57.2613
8.01553 58.5177
8.06026 60.0209
8.10498 61.393
8.14971 62.8305
8.19446 64.7702
8.23919 67.3616
8.28392 70.3346
8.32865 73.0766
8.37339 77.6519
8.41812 83.5545
8.46288 95.9129
8.50761 176.392
8.55235 615.837
8.59709 836.538
8.64183 1356.82
8.68658 1697.67
8.73134 456.647
8.77609 119.801
8.82083 98.208
8.86558 91.2064
8.91033 87.2131
8.9551 84.5814
8.99985 83.266
9.04461 82.3644
9.08936 81.5291
9.13412 80.7199
9.17888 80.7442
9.22365 87.6198
9.26841 102.801
9.31318 88.3357
9.35794 81.825
9.4027 81.2292
9.44749 82.2139
9.49226 83.1711
9.53703 83.7846
9.5818 85.2882
9.62657 86.7281
9.67134 87.6102
9.71614 89.6947
9.76091 92.1652
9.80569 94.9664
9.85047 98.0784
9.89525 103.272
9.94005 114.08
9.98484 188.43
10.0296 558.626
10.0744 711.039
10.1192 931.721
10.164 1591.73
10.2088 1076.78
10.2536 237.424
10.2984 117.773
10.3432 108.076
10.388 104.43
10.4328 121.124
10.4776 218.091
10.5224 255.172
10.5672 304.304
10.612 469.904
10.6568 400.011
10.7017 145.501
10.7465 91.6343
10.7913 83.2885
10.8361 80.1009
10.8809 77.1911
10.9257 75.235
10.9706 73.6381
11.0154 71.9642
11.0602 70.7302
11.105 69.3446
11.1499 67.7109
11.1947 67.0474
11.2395 66.1294
11.2844 65.6332
11.3292 64.7911
11.374 64.0552
11.4189 63.4647
11.4637 62.4749
11.5086 62.2934
11.5534 61.7125
11.5983 61.3429
11.6431 61.5251
11.688 60.9123
11.7328 60.727
11.7777 60.6137
11.8225 60.5346
11.8674 60.5462
11.9122 62.1046
11.9571 66.4737
12.002 66.0164
12.0468 67.6109
12.0917 90.9864
12.1366 106.982
12.1814 112.439
12.2263 141.759
12.2712 188.304
12.3161 145.917
12.3609 76.8899
12.4058 63.8174
12.4507 62.7826
12.4956 62.7047
12.5405 62.5118
12.5853 63.0105
12.6302 62.9011
12.6751 63.8902
12.72 64.4382
12.7649 65.6801
12.8098 66.2575
12.8547 67.6689
12.8996 69.2365
12.9445 70.3824
12.9894 72.4675
13.0343 74.3975
13.0792 78.8467
13.1242 86.3875
13.1691 133.818
13.214 188.849
13.2589 196.686
13.3038 226.485
13.3487 329.596
13.3937 390.439
13.4386 227.324
13.4835 122.835
13.5285 156.138
13.5734 182.025
13.6183 182.577
13.6633 219.955
13.7082 313.792
13.7531 315.51
13.7981 165.631
13.843 89.2453
13.888 80.3836
13.9329 76.7701
13.9779 75.4558
14.0228 73.6722
14.0678 72.5181
14.1127 72.2751
14.1577 74.4476
14.2027 73.0974
14.2476 70.2729
14.2926 68.8214
14.3376 68.4119
14.3825 67.991
14.4275 67.4272
14.4725 67.4047
14.5175 67.4421
14.5624 67.5859
14.6074 67.9073
14.6524 68.5828
14.6974 68.8715
14.7424 70.6032
14.7874 79.8599
14.8324 107.828
14.8774 120.387
14.9224 121.715
14.9674 139.03
15.0124 181.242
15.0574 206.423
15.1024 146.836
15.1474 84.0034
15.1924 71.1628
15.2374 68.3999
15.2824 67.2311
15.3274 66.405
15.3725 65.7576
15.4175 65.5366
15.4625 64.8381
15.5076 64.8548
15.5526 64.9093
15.5976 65.1599
15.6426 65.7923
15.6877 73.4188
15.7327 95.4376
15.7778 107.419
15.8228 107.196
15.8679 117.41
15.9129 145.535
15.958 183.926
16.003 158.322
16.0481 92.8019
16.0931 66.8299
16.1382 61.5128
16.1833 59.9688
16.2283 58.4956
16.2734 57.5484
16.3185 56.5805
16.3636 56.2816
16.4086 55.4094
16.4537 54.9738
16.4988 54.6203
16.5439 54.1645
16.589 54.2167
16.6341 53.9223
16.6792 53.5088
16.7243 53.6525
16.7694 53.4772
16.8145 53.6317
16.8596 53.6311
16.9047 54.1481
16.9498 54.6827
16.9949 54.5468
17.04 54.7611
17.0851 56.1121
17.1302 60.5173
17.1754 63.9074
17.2205 64.3382
17.2656 65.3708
17.3108 70.1139
17.3559 77.1964
17.401 80.9732
17.4462 72.0045
17.4913 61.5674
17.5365 58.5392
17.5815 58.549
17.6268 58.7149
17.6718 59.1828
17.7171 59.593
17.7622 60.7033
17.8074 61.6018
17.8525 63.4814
17.8977 71.6196
17.9428 83.815
17.9881 87.8474
18.0331 88.351
18.0784 93.8442
18.1237 109.159
18.1688 136.59
18.214 144.411
18.2591 114.152
18.3044 87.7682
18.3495 83.9115
18.3948 92.0218
18.4399 101.939
18.4852 97.2825
18.5303 78.1099
18.5756 65.2585
18.6207 61.8104
18.666 60.3098
18.7112 59.5645
18.7565 58.7795
18.8016 58.2383
18.8469 57.8169
18.892 57.3886
18.9374 56.903
18.9825 56.5637
19.0278 56.2145
19.073 56.3345
19.1183 56.6765
19.1635 59.0971
19.2088 61.4782
19.254 61.6433
19.2993 61.9094
19.3447 63.7154
19.3898 67.1884
19.4352 72.4425
19.4804 72.7608
19.5257 64.3935
19.5709 56.2819
19.6163 53.8606
19.6615 53.3939
19.7068 53.0056
19.752 52.6923
19.7974 52.9712
19.8426 54.2079
19.888 56.4708
19.9332 57.8984
19.9786 58.0512
20.0238 58.0011
20.0692 60.6542
20.1144 65.7552
20.1598 71.31
20.205 70.9344
20.2504 65.4616
20.2957 60.3941
20.3411 60.4316
20.3863 63.3301
20.4318 64.4368
20.477 59.555
20.5224 53.3725
20.5677 50.8236
20.6131 50.0737
20.6586 49.3885
20.7038 49.2864
20.7493 48.8211
20.7945 48.8093
20.84 48.6814
20.8853 48.3061
20.9307 48.1201
20.976 48.4128
21.0215 48.5947
21.0668 48.9756
21.1122 48.917
21.1575 48.9218
21.203 49.0489
21.2483 49.8182
21.2938 50.7992
21.3391 50.9168
21.3846 50.2177
21.4299 49.0221
21.4754 48.4272
21.5207 48.4474
21.5662 48.3798
21.6116 49.0889
21.6571 50.9802
21.7024 52.8498
21.7479 53.5616
21.7933 53.677
21.8388 54.782
21.8843 57.3098
21.9297 60.8115
21.9752 64.6186
22.0206 65.2703
22.0661 60.8312
22.1115 56.1234
22.157 54.8721
22.2024 55.9744
22.248 55.1369
22.2933 52.573
22.3389 49.9457
22.3843 48.939
22.4299 48.4639
22.4753 48.4353
22.5208 48.2942
22.5662 48.3396
22.6118 48.3783
22.6572 48.6494
22.7028 49.8582
22.7483 50.9708
22.7939 51.2907
22.8393 51.4431
22.8849 51.8366
22.9303 52.3543
22.9759 53.9259
23.0214 56.0555
23.067 57.8443
23.1126 56.1803
23.1581 52.4499
23.2037 49.7121
23.2492 48.9658
23.2948 49.3554
23.3403 50.7139
23.3859 51.583
23.4314 51.3388
23.477 51.2078
23.5225 51.6406
23.5682 52.6611
23.6137 54.5625
23.6593 56.8914
23.7048 57.1584
23.7505 53.7457
23.796 49.2812
23.8417 46.8686
23.8872 45.7321
23.9329 45.2104
23.9784 44.9082
24.0241 44.6589
24.0697 44.4186
24.1154 44.0251
24.1609 43.843
24.2066 43.4671
24.2522 43.5622
24.2979 43.2315
24.3434 43.2202
24.3892 43.0897
24.4349 42.9103
24.4805 42.5914
24.5262 42.8127
24.5718 42.6615
24.6175 42.6409
24.6631 42.8114
24.7089 42.6104
24.7545 42.4731
24.8002 42.1034
24.8458 42.0398
24.8916 42.294
24.9372 42.3038
24.983 42.5386
25.0286 42.7568
25.0744 43.1035
25.12 43.4699
25.1658 43.8712
25.2114 44.0117
25.2572 44.5736
25.3029 44.4351
25.3487 44.3052
25.3943 44.3271
25.4402 44.6091
25.4858 44.4416
25.5316 43.1906
25.5773 41.5028
25.6231 40.9343
25.669 40.6102
25.7147 40.4009
25.7605 40.4085
25.8062 40.5856
25.8521 40.887
25.8977 40.7036
25.9436 40.689
25.9893 40.503
26.0352 40.8505
26.0809 40.9015
26.1268 41.1761
26.1725 41.7546
26.2184 41.7267
26.2641 41.2265
26.31 40.8009
26.3557 40.5645
26.4017 40.561
26.4474 40.568
26.4933 40.5351
26.5391 40.8708
26.585 40.9934
26.6308 41.2062
26.6767 41.6153
26.7225 42.2705
26.7684 42.3873
26.8142 41.7475
26.8601 41.1031
26.9059 40.5927
26.9519 40.1083
26.9979 39.7763
27.0437 39.1154
27.0896 38.8816
27.1354 39.0001
27.1814 38.7384
27.2272 38.5941
27.2732 38.683
27.3191 38.4446
27.3651 38.3325
27.4109 38.2727
27.4569 38.2561
27.5027 38.2075
27.5488 38.4579
27.5946 38.5047
27.6407 38.4749
27.6865 38.4489
27.7326 38.2067
27.7784 38.3532
27.8245 38.1641
27.8703 38.0107
27.9164 38.2041
27.9623 38.0872
28.0084 38.3229
28.0543 38.6374
28.1003 38.7125
28.1462 39.0024
28.1923 39.0841
28.2384 38.6601
28.2843 38.1787
28.3304 37.7764
28.3764 37.3695
28.4225 37.0087
28.4684 36.5295
28.5145 36.0441
28.5605 35.9147
28.6066 35.5982
28.6526 35.6241
28.6987 35.5912
28.7447 35.484
28.7908 35.2608
28.8368 35.2666
28.8829 35.1878
28.9289 35.2022
28.9751 35.1375
29.0211 35.1068
29.0673 34.9876
29.1133 34.9261
29.1595 34.6017
29.2055 34.3837
29.2517 34.3824
29.2977 34.1348
29.3439 33.9553
29.3899 33.9606
29.4361 33.9567
29.4824 34.035
29.5284 33.9935
29.5746 33.75
29.6207 33.3415
29.6669 33.1292
29.713 33.0005
29.7593 32.8274
29.8053 32.8258
29.8516 32.7246
29.8977 32.7816
29.9439 32.5657
29.99 32.507
30.0363 32.4442
30.0824 32.4001
30.1287 32.2197
30.1748 32.2367
30.2211 32.2943
30.2673 32.2395
30.3136 32.3614
30.3597 32.304
30.406 32.3887
30.4522 32.1023
30.4985 31.9887
30.5447 32.1287
30.591 32.0046
30.6372 32.0786
30.6835 31.9256
30.7297 32.0378
30.7761 32.1049
30.8224 32.0622
30.8686 32.1702
30.915 31.8549
30.9612 31.6766
31.0076 31.5785
31.0538 31.361
31.1002 31.2341
31.1464 30.9699
31.1928 31.0062
31.2391 30.8705
31.2855 30.9896
31.3317 30.8703
31.3781 30.728
31.4244 30.8057
31.4708 30.753
31.5171 30.6734
31.5636 30.8801
31.6098 30.7519
31.6563 30.6349
31.7026 30.4455
31.7491 30.2066
31.7953 30.2052
31.8418 30.1619
31.8881 30.1164
31.9346 30.074
31.9809 30.0671
32.0275 29.9009
32.074 29.9268
32.1203 29.8509
32.1668 29.7047
32.2132 29.5827
32.2597 29.34
32.306 29.2948
32.3526 28.9824
32.399 28.9819
32.4455 28.8
32.4919 28.712
32.5385 28.6153
32.5848 28.5616
32.6314 28.5563
32.6778 28.4223
32.7244 28.2086
32.7708 28.1131
32.8174 28.1773
32.8638 28.0373
32.9104 28.084
32.9569 28.0285
33.0035 27.8315
33.0499 27.7683
33.0966 27.6605
33.143 27.6762
33.1897 27.6259
33.2361 27.5968
33.2828 27.5949
33.3293 27.4614
33.3759 27.4556
33.4226 27.3105
33.4691 27.1333
33.5158 27.0634
33.5623 26.9814
33.609 26.7684
33.6555 26.6271
33.7022 26.6014
33.7487 26.5068
33.7954 26.4962
33.842 26.3131
33.8887 26.321
33.9353 26.2405
33.982 26.1072
34.0286 26.0609
34.0753 26.0263
34.1219 25.9382
34.1687 25.8392
34.2152 25.7697
34.262 25.6327
34.3086 25.5591
34.3554 25.4286
34.402 25.3292
34.4488 25.2548
34.4954 25.2601
34.5422 25.2448
34.5889 25.0395
34.6357 24.9136
34.6825 24.9487
34.7292 24.8449
34.776 24.7653
34.8227 24.7
34.8695 24.5803
34.9162 24.5425
34.9631 24.503
35.0098 24.4298
35.0566 24.4655
35.1033 24.2892
35.1502 24.2063
35.1969 24.1186
35.2438 24.1226
35.2906 23.98
35.3375 23.9471
35.3842 23.9151
35.4311 23.9458
35.4779 23.9593
35.5248 23.776
35.5716 23.7872
35.6185 23.7462
35.6653 23.6171
35.7123 23.5666
35.759 23.5764
35.806 23.37
35.8528 23.211
35.8998 23.1675
35.9468 23.0926
35.9936 23.0297
36.0406 22.9455
36.0874 22.935
36.1345 22.9298
36.1813 22.7619
36.2283 22.6774
36.2752 22.663
36.3222 22.6903
36.3691 22.6061
36.4161 22.4075
36.463 22.4324
36.5101 22.3884
36.557 22.263
36.6041 22.1662
36.651 22.2537
36.6981 22.1574
36.745 22.1153
36.7921 21.9933
36.839 21.9507
36.8861 21.8238
36.9331 21.7381
36.9802 21.6811
37.0272 21.6211
37.0743 21.497
37.1213 21.4321
37.1684 21.453
37.2154 21.3776
37.2626 21.2672
37.3098 21.2505
37.3568 21.1239
37.404 21.0756
37.451 20.9702
37.4982 20.9299
37.5452 20.8499
37.5924 20.8049
37.6395 20.7869
37.6867 20.7366
37.7337 20.5831
37.781 20.5491
37.8281 20.4188
37.8753 20.3794
37.9224 20.2917
37.9697 20.2436
38.0168 20.2646
38.064 20.1333
38.1111 20.1012
38.1584 20.0218
38.2056 19.9214
38.2529 19.8867
38.3 19.7755
38.3473 19.8274
38.3945 19.6779
38.4418 19.6372
38.489 19.5663
38.5363 19.5202
38.5837 19.4603
38.6309 19.3393
38.6782 19.2722
38.7254 19.2723
38.7728 19.1905
38.82 19.1102
38.8674 18.9991
38.9146 18.9716
38.9621 18.8921
39.0093 18.9167
39.0567 18.8644
39.104 18.7702
39.1514 18.5878
39.1987 18.6354
39.2461 18.5974
39.2934 18.5714
39.3409 18.4218
39.3882 18.3271
39.4356 18.325
39.483 18.3408
39.5304 18.2598
39.5778 18.2093
39.6253 18.1759
39.6726 18.1145
39.7201 18.0394
39.7675 17.9398
39.815 17.8865
39.8624 17.7918
39.9099 17.8346
39.9575 17.6989
40.0049 17.6764
40.0525 17.6256
40.0999 17.586
40.1474 17.5371
40.1949 17.4508
40.2425 17.3471
40.2899 17.3055
40.3375 17.3852
40.385 17.2625
40.4326 17.2198
40.48 17.1172
40.5277 17.1536
40.5752 17.0371
40.6228 16.9092
40.6703 16.9015
40.718 16.8448
40.7655 16.8407
40.8132 16.7362
40.8607 16.7348
40.9084 16.6542
40.9559 16.5955
41.0036 16.5726
41.0512 16.4875
41.0989 16.4237
41.1465 16.4002
41.1942 16.3234
41.242 16.2241
41.2896 16.173
41.3373 16.1831
41.3849 16.0936
41.4327 16.0954
41.4803 16.0171
41.5281 15.9322
41.5758 15.8745
41.6236 15.8124
41.6712 15.7596
41.7191 15.7032
41.7667 15.6512
41.8146 15.6389
41.8622 15.5357
41.9101 15.5306
41.9578 15.4224
42.0057 15.3851
42.0534 15.3829
42.1013 15.3409
42.149 15.2479
42.1969 15.186
42.2446 15.1853
42.2925 15.0737
42.3403 15.0281
42.3882 15.0522
42.436 14.9784
42.4839 14.8817
42.5319 14.9148
42.5797 14.8344
42.6277 14.7444
42.6755 14.6797
42.7235 14.6351
42.7713 14.6087
42.8193 14.5564
42.8671 14.5441
42.9152 14.48
42.963 14.4247
43.0111 14.3179
43.0589 14.3081
43.107 14.2583
43.1549 14.1763
43.2029 14.1166
43.2508 14.0984
43.2989 14.0242
43.3468 14.0561
43.3949 13.9751
43.4429 13.9312
43.491 13.8793
43.5389 13.799
43.5871 13.7808
43.635 13.7072
43.6832 13.6828
43.7312 13.6647
43.7793 13.6113
43.8273 13.5595
43.8755 13.4761
43.9237 13.4391
43.9717 13.3967
44.0199 13.3337
44.068 13.3401
44.1162 13.2573
44.1642 13.2396
44.2125 13.162
44.2606 13.1452
44.3088 13.0797
44.3569 13.0384
44.4052 13.0084
44.4533 12.961
44.5016 12.8829
44.5497 12.8888
44.598 12.8205
44.6461 12.7842
44.6945 12.7402
44.7426 12.6741
44.791 12.5721
44.8391 12.5639
44.8875 12.5235
44.9357 12.5371
44.984 12.4787
45.0322 12.3866
45.0806 12.3261
45.1288 12.2759
45.1773 12.2886
45.2257 12.2313
45.2739 12.1685
45.3224 12.1126
45.3706 12.088
45.4191 12.0569
45.4673 12.0027
45.5158 12.0086
45.5641 11.965
45.6126 11.8957
45.6609 11.836
45.7094 11.8071
45.7577 11.7399
45.8063 11.631
45.8546 11.7219
45.9031 11.6392
45.9515 11.6267
46.0001 11.5893
46.0484 11.4856
46.097 11.49
46.1454 11.4297
46.194 11.4161
46.2424 11.3342
46.291 11.2702
46.3395 11.2772
46.3881 11.1849
46.4365 11.1845
46.4852 11.1259
46.5337 11.1239
46.5823 11.0815
46.631 10.9938
46.6795 10.9645
46.7282 10.9444
46.7767 10.8774
46.8254 10.8369
46.8739 10.8012
46.9226 10.7672
46.9712 10.7229
47.0199 10.6825
47.0685 10.6576
47.1173 10.5924
47.1658 10.6023
47.2146 10.5698
47.2632 10.4921
47.312 10.4574
47.3606 10.4158
47.4095 10.3595
47.4581 10.3137
47.5069 10.3083
47.5556 10.2956
47.6044 10.2368
47.6531 10.1995
47.702 10.1404
47.7507 10.1146
47.7996 10.0664
47.8483 10.0141
47.8972 10.0204
47.9461 9.95257
47.9948 9.91068
48.0438 9.87108
48.0925 9.83295
48.1415 9.81946
48.1902 9.8026
48.2392 9.78869
48.288 9.7364
48.337 9.70616
48.3858 9.66718
48.4348 9.61177
48.4837 9.60765
48.5327 9.56483
48.5815 9.51256
48.6306 9.47618
48.6795 9.42946
48.7285 9.4513
48.7774 9.35686
48.8265 9.34568
48.8754 9.28792
48.9245 9.28624
48.9734 9.24863
49.0226 9.25771
49.0715 9.17036
49.1206 9.17813
49.1696 9.09975
49.2188 9.07455
49.2679 9.05805
49.3169 8.98433
49.3661 8.95592
49.4151 8.90709
49.4643 8.88957
49.5134 8.85238
49.5626 8.81317
49.6117 8.79355
49.6609 8.8072
49.71 8.71019
49.7592 8.6814
49.8083 8.65788
49.8576 8.66563
49.9067 8.57754
49.956 8.58644
50.0052 8.52961
50.0545 8.4985
50.1036 8.44742
50.153 8.47032
50.2022 8.42924
50.2515 8.35425
50.3007 8.35552
50.3501 8.29814
50.3993 8.27853
50.4487 8.22087
50.498 8.20162
50.5474 8.18478
50.5966 8.12888
50.6461 8.12982
50.6955 8.13485
50.7448 8.11093
50.7943 8.02175
50.8436 7.9896
50.8931 7.9535
50.9424 7.93319
50.9919 7.87482
51.0413 7.85553
51.0908 7.84621
51.1402 7.79809
51.1897 7.75998
51.2391 7.7443
51.2887 7.69969
51.3381 7.65495
51.3877 7.69388
51.4371 7.64408
51.4867 7.57653
51.5362 7.56754
51.5858 7.52008
51.6353 7.45697
51.6849 7.45106
51.7344 7.44675
51.7841 7.43346
51.8336 7.35594
51.8833 7.33504
51.9328 7.30427
51.9826 7.29075
52.0323 7.20532
52.0818 7.19351
52.1316 7.20242
52.1812 7.17023
52.231 7.11994
52.2806 7.07397
52.3304 7.07608
52.38 7.00532
52.4298 6.97353
52.4794 6.96566
52.5293 6.95247
52.5789 6.91335
52.6288 6.87824
52.6785 6.83114
52.7284 6.8519
52.7781 6.85406
52.828 6.7908
52.8777 6.73382
52.9276 6.69065
52.9774 6.70926
53.0273 6.71728
53.0771 6.62735
53.1271 6.60987
53.1769 6.57049
53.2269 6.50925
53.2767 6.55131
53.3267 6.52445
53.3765 6.48278
53.4266 6.44508
53.4766 6.41094
53.5265 6.38226
53.5765 6.35758
53.6264 6.34537
53.6765 6.32082
53.7264 6.28219
53.7765 6.28875
53.8265 6.20462
53.8766 6.22316
53.9266 6.16929
53.9767 6.11699
54.0267 6.12344
54.0769 6.08628
54.1269 6.04734
54.1771 5.97881
54.2271 5.94974
54.2773 5.90921
54.3274 5.93642
54.3776 5.81997
54.4277 5.79496
54.478 5.81639
54.528 5.74603
54.5783 5.71586
54.6285 5.63726
54.6788 5.58913
54.7289 5.58051
54.7792 5.56478
54.8296 5.47333
54.8798 5.40494
54.9301 5.39186
54.9803 5.3671
55.0307 5.36146
55.0809 5.27599
55.1314 5.22142
55.1816 5.16887
55.232 5.15805
55.2823 5.08628
55.3328 5.04134
55.383 4.98783
55.4335 4.95561
55.4838 4.92829
55.5344 4.85917
55.5847 4.82361
55.6352 4.82933
55.6856 4.71703
55.7361 4.76279