File: XRD/Ni3Fe_FD0805.xy
TT I
1.27165 7.33957
1.31627 6.37579
1.36089 6.3409
1.40551 5.2049
1.45013 5.8671
1.49476 5.90689
1.53938 5.80555
1.584 5.06699
1.62863 5.17482
1.67325 4.58991
1.71787 5.10544
1.7625 4.21882
1.80712 4.30387
1.85174 4.74921
1.89636 4.65127
1.94099 5.05339
1.98562 4.9342
2.03025 4.87084
2.07487 4.62467
2.11949 4.45772
2.16411 4.60269
2.20874 9.44315
2.25338 13.5106
2.298 5.26694
2.34263 5.24902
2.38725 6.06379
2.43188 6.57218
2.4765 6.86282
2.52115 7.31178
2.56577 7.86387
2.6104 8.4751
2.65503 8.05594
2.69965 8.32834
2.7443 8.1256
2.78893 8.43626
2.83356 8.25313
2.87818 8.73522
2.92281 8.33323
2.96744 9.46777
3.01209 10.2538
3.05672 11.199
3.10135 12.5507
3.14599 13.2107
3.19062 14.5931
3.23527 15.5604
3.2799 15.6917
3.32454 16.5149
3.36917 17.6084
3.4138 19.0698
3.45844 19.7102
3.50309 20.4741
3.54773 21.1037
3.59237 23.1568
3.637 54.9839
3.68164 39.8875
3.7263 25.2682
3.77094 25.3181
3.81558 25.9808
3.86022 27.3692
3.90486 28.3134
3.9495 29.3957
3.99416 30.3041
4.0388 31.8476
4.08344 33.2081
4.12809 34.3068
4.17273 35.6655
4.21738 39.3431
4.26204 137.819
4.30669 117.689
4.35133 44.6382
4.39598 43.3277
4.44063 48.9739
4.4853 55.3595
4.52995 54.8132
4.5746 55.8051
4.61925 53.5147
4.6639 55.1817
4.70855 57.9817
4.75322 60.9204
4.79788 67.5237
4.84253 67.973
4.88719 73.7567
4.93184 76.1454
4.97652 80.5923
5.02118 87.0791
5.06583 94.3652
5.11049 105.698
5.15515 157.25
5.19981 392.972
5.24449 2845.06
5.28916 12293.4
5.33382 2493.16
5.37848 185.945
5.42315 127.596
5.46783 117.27
5.5125 109.995
5.55716 101.491
5.60183 98.0779
5.6465 95.7185
5.69117 93.7125
5.73586 92.2842
5.78053 96.0382
5.8252 95.9647
5.86988 98.0656
5.91455 94.3319
5.95924 103.854
6.00392 237.978
6.0486 975.373
6.09328 4557.46
6.13795 2991.08
6.18263 201.905
6.22733 89.3124
6.27201 80.1903
6.3167 86.4636
6.36138 74.8255
6.40606 69.1447
6.45075 68.6532
6.49545 64.9013
6.54014 62.8989
6.58483 62.613
6.62952 62.4036
6.67421 76.3656
6.71892 96.9999
6.76361 62.7344
6.8083 58.6884
6.853 58.8971
6.89769 56.2254
6.94239 55.7938
6.98711 55.2398
7.03181 55.1795
7.07651 54.7865
7.12121 54.1405
7.16591 55.6262
7.21063 55.3396
7.25533 62.0007
7.30004 110.264
7.34475 70.6294
7.38945 54.5345
7.43416 53.4851
7.47889 53.3263
7.5236 54.039
7.56831 54.4614
7.61303 55.5296
7.65774 55.7672
7.70247 56.1494
7.74719 55.8315
7.79191 56.0153
7.83663 56.5051
7.88135 57.0487
7.92607 58.6328
7.97081 59.0819
8.01553 60.3759
8.06026 62.2957
8.10498 63.7042
8.14971 70.5319
8.19446 70.2099
8.23919 68.8154
8.28392 71.6209
8.32865 73.7032
8.37339 77.8493
8.41812 83.7427
8.46288 103.802
8.50761 177.148
8.55235 386.722
8.59709 1214.57
8.64183 2181.31
8.68658 841.607
8.73134 146.313
8.77609 97.0802
8.82083 92.0641
8.86558 90.8505
8.91033 90.9107
8.9551 89.0746
8.99985 84.7213
9.04461 83.2411
9.08936 83.4032
9.13412 82.1999
9.17888 82.2189
9.22365 81.8354
9.26841 81.4171
9.31318 83.8578
9.35794 85.306
9.4027 84.8268
9.44749 84.767
9.49226 84.3624
9.53703 85.2786
9.5818 88.5801
9.62657 93.1278
9.67134 95.171
9.71614 92.3716
9.76091 93.964
9.80569 98.1456
9.85047 100.591
9.89525 113.557
9.94005 127.776
9.98484 189.655
10.0296 347.026
10.0744 845.905
10.1192 1818.74
10.164 1498.93
10.2088 344.88
10.2536 120.054
10.2984 109.028
10.3432 108.405
10.388 104.225
10.4328 121.847
10.4776 162.461
10.5224 294.502
10.5672 536.432
10.612 478.868
10.6568 181.535
10.7017 93.3258
10.7465 85.7307
10.7913 82.2846
10.8361 80.5431
10.8809 78.2573
10.9257 77.2784
10.9706 77.5376
11.0154 74.5011
11.0602 72.0402
11.105 71.1006
11.1499 72.6457
11.1947 75.1395
11.2395 70.1064
11.2844 68.026
11.3292 66.5138
11.374 65.4798
11.4189 65.0822
11.4637 64.2187
11.5086 64.1465
11.5534 65.3838
11.5983 63.8342
11.6431 62.9565
11.688 62.4132
11.7328 62.2011
11.7777 62.207
11.8225 62.1831
11.8674 62.2979
11.9122 62.3086
11.9571 62.5321
12.002 63.8107
12.0468 68.4168
12.0917 78.0043
12.1366 102.823
12.1814 158.402
12.2263 217.708
12.2712 165.74
12.3161 87.6202
12.3609 66.4292
12.4058 63.3736
12.4507 63.3865
12.4956 64.0636
12.5405 64.2935
12.5853 64.687
12.6302 68.7406
12.6751 71.2639
12.72 67.727
12.7649 67.2414
12.8098 67.7906
12.8547 69.2654
12.8996 70.621
12.9445 72.0783
12.9894 73.9735
13.0343 75.5501
13.0792 79.739
13.1242 91.5265
13.1691 111.612
13.214 149.57
13.2589 248.69
13.3038 392.605
13.3487 414.201
13.3937 234.883
13.4386 117.423
13.4835 105.642
13.5285 120.074
13.5734 160.434
13.6183 259.096
13.6633 367.458
13.7082 328.21
13.7531 167.183
13.7981 92.5533
13.843 80.766
13.888 78.7923
13.9329 76.6524
13.9779 75.1101
14.0228 73.831
14.0678 72.4209
14.1127 72.0341
14.1577 71.5307
14.2027 70.6107
14.2476 69.8259
14.2926 69.6845
14.3376 70.0613
14.3825 69.151
14.4275 68.2937
14.4725 67.9554
14.5175 68.2113
14.5624 68.5844
14.6074 69.4336
14.6524 70.0391
14.6974 69.9955
14.7424 73.2632
14.7874 79.4483
14.8324 88.9105
14.8774 111.899
14.9224 159.655
14.9674 219.259
15.0124 219.75
15.0574 139.041
15.1024 85.5046
15.1474 71.5088
15.1924 69.3992
15.2374 69.1755
15.2824 68.3916
15.3274 67.1507
15.3725 66.2487
15.4175 65.7073
15.4625 65.2774
15.5076 65.4451
15.5526 65.4745
15.5976 65.6066
15.6426 67.4998
15.6877 72.5156
15.7327 79.5419
15.7778 95.3938
15.8228 129.982
15.8679 177.984
15.9129 196.201
15.958 145.404
16.003 89.2296
16.0481 65.7889
16.0931 62.563
16.1382 60.9209
16.1833 59.7179
16.2283 58.4757
16.2734 57.4996
16.3185 57.4187
16.3636 57.5793
16.4086 56.3969
16.4537 55.589
16.4988 55.0201
16.5439 54.7104
16.589 54.5065
16.6341 54.3373
16.6792 53.9039
16.7243 54.1598
16.7694 54.214
16.8145 54.1695
16.8596 54.4359
16.9047 55.1428
16.9498 55.4133
16.9949 54.8768
17.04 55.4456
17.0851 56.796
17.1302 58.152
17.1754 61.355
17.2205 66.9817
17.2656 75.1648
17.3108 83.4409
17.3559 80.7953
17.401 68.323
17.4462 60.4554
17.4913 58.664
17.5365 58.5772
17.5815 58.6424
17.6268 58.9173
17.6718 59.7278
17.7171 59.946
17.7622 60.7583
17.8074 61.9894
17.8525 64.7298
17.8977 67.7514
17.9428 73.068
17.9881 82.76
18.0331 102.134
18.0784 125.504
18.1237 141.178
18.1688 126.808
18.214 98.7047
18.2591 84.696
18.3044 91.2733
18.3495 101.966
18.3948 105.408
18.4399 91.9562
18.4852 73.8954
18.5303 64.1455
18.5756 61.3961
18.6207 60.388
18.666 59.5944
18.7112 59.1653
18.7565 58.522
18.8016 58.0763
18.8469 57.6274
18.892 57.1348
18.9374 56.6295
18.9825 56.439
19.0278 56.1876
19.073 56.5524
19.1183 56.8795
19.1635 57.3079
19.2088 58.7643
19.254 61.7815
19.2993 66.4921
19.3447 72.4593
19.3898 75.5166
19.4352 69.7542
19.4804 60.7568
19.5257 55.3594
19.5709 53.5818
19.6163 53.1089
19.6615 53.1864
19.7068 52.8417
19.752 52.8102
19.7974 53.3396
19.8426 53.8457
19.888 54.4405
19.9332 55.8049
19.9786 58.7687
20.0238 62.9403
20.0692 67.7651
20.1144 69.6424
20.1598 66.933
20.205 62.2738
20.2504 61.5485
20.2957 63.9583
20.3411 65.3535
20.3863 62.6533
20.4318 56.7265
20.477 52.4779
20.5224 50.7516
20.5677 49.959
20.6131 49.6798
20.6586 49.0864
20.7038 48.9696
20.7493 48.5356
20.7945 48.5266
20.84 48.3275
20.8853 48.2732
20.9307 48.0632
20.976 48.281
21.0215 48.0607
21.0668 48.578
21.1122 49.0003
21.1575 49.6219
21.203 50.537
21.2483 50.9773
21.2938 50.9335
21.3391 49.5207
21.3846 48.4028
21.4299 48.0698
21.4754 47.9006
21.5207 47.989
21.5662 48.5264
21.6116 48.9558
21.6571 49.4307
21.7024 50.4733
21.7479 52.3279
21.7933 55.3114
21.8388 59.3319
21.8843 63.1784
21.9297 64.2485
21.9752 61.8627
22.0206 57.9266
22.0661 55.9112
22.1115 55.8047
22.157 55.4226
22.2024 53.2625
22.248 50.5955
22.2933 48.9969
22.3389 48.4896
22.3843 48.2077
22.4299 48.2702
22.4753 48.2298
22.5208 48.1415
22.5662 48.0052
22.6118 48.2917
22.6572 48.4161
22.7028 48.7279
22.7483 49.2624
22.7939 50.0713
22.8393 51.7712
22.8849 53.9715
22.9303 56.146
22.9759 57.5606
23.0214 56.405
23.067 53.2631
23.1126 50.1242
23.1581 48.5586
23.2037 48.2182
23.2492 48.4748
23.2948 48.2361
23.3403 48.685
23.3859 49.2988
23.4314 50.4465
23.477 52.3511
23.5225 54.8518
23.5682 57.2097
23.6137 57.5103
23.6593 54.3287
23.7048 50.2604
23.7505 47.4594
23.796 46.0955
23.8417 45.4643
23.8872 44.8709
23.9329 44.5108
23.9784 44.3393
24.0241 44.2059
24.0697 43.9938
24.1154 43.6588
24.1609 43.4376
24.2066 43.3598
24.2522 43.1709
24.2979 42.9234
24.3434 42.7506
24.3892 42.6194
24.4349 42.7135
24.4805 42.587
24.5262 42.6303
24.5718 42.5824
24.6175 42.5694
24.6631 42.3225
24.7089 41.9691
24.7545 42.0084
24.8002 41.8063
24.8458 41.9145
24.8916 41.7349
24.9372 41.7885
24.983 42.1485
25.0286 42.5756
25.0744 42.871
25.12 43.4415
25.1658 43.98
25.2114 44.259
25.2572 44.3404
25.3029 44.6177
25.3487 44.3691
25.3943 43.9839
25.4402 42.8486
25.4858 41.7497
25.5316 40.7896
25.5773 40.4444
25.6231 40.4325
25.669 40.1168
25.7147 40.166
25.7605 39.9694
25.8062 40.1753
25.8521 40.2013
25.8977 40.1999
25.9436 40.3664
25.9893 40.6322
26.0352 41.223
26.0809 41.2972
26.1268 41.2319
26.1725 40.8194
26.2184 40.2068
26.2641 39.7645
26.31 39.6973
26.3557 39.6904
26.4017 39.6328
26.4474 40.05
26.4933 40.457
26.5391 40.9253
26.585 41.3966
26.6308 41.8265
26.6767 41.7294
26.7225 41.4356
26.7684 40.8365
26.8142 40.3829
26.8601 39.9872
26.9059 39.5671
26.9519 39.1157
26.9979 38.7887
27.0437 38.4934
27.0896 38.3825
27.1354 38.4544
27.1814 38.1856
27.2272 38.1137
27.2732 38.1976
27.3191 37.9458
27.3651 38.1895
27.4109 38.1103
27.4569 38.134
27.5027 38.1853
27.5488 38.2076
27.5946 37.88
27.6407 37.7054
27.6865 37.6776
27.7326 37.438
27.7784 37.5339
27.8245 37.5443
27.8703 37.6195
27.9164 37.9377
27.9623 38.0923
28.0084 38.4635
28.0543 38.8531
28.1003 38.6317
28.1462 38.4456
28.1923 38.0847
28.2384 37.6054
28.2843 37.2657
28.3304 36.6354
28.3764 36.1476
28.4225 35.9963
28.4684 35.7771
28.5145 35.6074
28.5605 35.4863
28.6066 35.3474
28.6526 35.28
28.6987 35.2447
28.7447 35.1547
28.7908 35.0916
28.8368 35.0868
28.8829 34.9916
28.9289 34.9443
28.9751 34.7944
29.0211 34.5158
29.0673 34.3461
29.1133 34.1563
29.1595 34.0325
29.2055 34.0125
29.2517 34.0167
29.2977 34.0099
29.3439 33.8628
29.3899 33.8693
29.4361 33.7732
29.4824 33.4741
29.5284 33.3441
29.5746 33.0553
29.6207 32.7955
29.6669 32.7057
29.713 32.6171
29.7593 32.5134
29.8053 32.5088
29.8516 32.4829
29.8977 32.505
29.9439 32.3069
29.99 32.2874
30.0363 32.0345
30.0824 32.1873
30.1287 32.0859
30.1748 32.2188
30.2211 32.0836
30.2673 31.8494
30.3136 31.9548
30.3597 31.9041
30.406 31.8354
30.4522 31.7793
30.4985 31.7282
30.5447 31.8645
30.591 31.7882
30.6372 31.907
30.6835 31.991
30.7297 31.9292
30.7761 31.9519
30.8224 31.6985
30.8686 31.5124
30.915 31.2432
30.9612 31.1681
31.0076 30.8675
31.0538 30.8137
31.1002 30.838
31.1464 30.6742
31.1928 30.6692
31.2391 30.7043
31.2855 30.5135
31.3317 30.5443
31.3781 30.6873
31.4244 30.7052
31.4708 30.5934
31.5171 30.5237
31.5636 30.4149
31.6098 30.1356
31.6563 30.1049
31.7026 29.9778
31.7491 29.7836
31.7953 29.8498
31.8418 29.7879
31.8881 29.8448
31.9346 29.7884
31.9809 29.6621
32.0275 29.5219
32.074 29.4867
32.1203 29.3313
32.1668 29.246
32.2132 29.0856
32.2597 28.9394
32.306 28.8837
32.3526 28.6848
32.399 28.621
32.4455 28.4903
32.4919 28.4317
32.5385 28.3822
32.5848 28.2017
32.6314 28.2215
32.6778 28.105
32.7244 28.0366
32.7708 27.7814
32.8174 27.8273
32.8638 27.6514
32.9104 27.759
32.9569 27.7574
33.0035 27.4403
33.0499 27.5409
33.0966 27.5394
33.143 27.5262
33.1897 27.4693
33.2361 27.3345
33.2828 27.2675
33.3293 27.1359
33.3759 27.0549
33.4226 26.956
33.4691 26.8028
33.5158 26.7433
33.5623 26.6219
33.609 26.4743
33.6555 26.3734
33.7022 26.379
33.7487 26.2349
33.7954 26.2136
33.842 26.1568
33.8887 26.0977
33.9353 25.978
33.982 25.7774
34.0286 25.8162
34.0753 25.6355
34.1219 25.628
34.1687 25.568
34.2152 25.5031
34.262 25.3879
34.3086 25.3557
34.3554 25.2118
34.402 25.1
34.4488 25.0703
34.4954 24.9037
34.5422 24.869
34.5889 24.8074
34.6357 24.7712
34.6825 24.6185
34.7292 24.6008
34.776 24.4804
34.8227 24.3706
34.8695 24.3968
34.9162 24.3581
34.9631 24.2283
35.0098 24.2577
35.0566 24.0597
35.1033 24.0022
35.1502 23.9065
35.1969 23.9018
35.2438 23.8753
35.2906 23.8688
35.3375 23.8066
35.3842 23.8422
35.4311 23.7498
35.4779 23.666
35.5248 23.6377
35.5716 23.5418
35.6185 23.4644
35.6653 23.3278
35.7123 23.3983
35.759 23.2038
35.806 23.1186
35.8528 23.0035
35.8998 22.9949
35.9468 22.8948
35.9936 22.9412
36.0406 22.7023
36.0874 22.7719
36.1345 22.6508
36.1813 22.5772
36.2283 22.4841
36.2752 22.3669
36.3222 22.4761
36.3691 22.3699
36.4161 22.233
36.463 22.1728
36.5101 22.1736
36.557 22.1861
36.6041 21.9867
36.651 21.9071
36.6981 21.982
36.745 21.9351
36.7921 21.6786
36.839 21.6207
36.8861 21.5749
36.9331 21.5404
36.9802 21.3946
37.0272 21.3522
37.0743 21.2528
37.1213 21.2105
37.1684 21.1799
37.2154 21.1245
37.2626 21.0293
37.3098 21.0981
37.3568 20.8937
37.404 20.948
37.451 20.7487
37.4982 20.6708
37.5452 20.6776
37.5924 20.5401
37.6395 20.5834
37.6867 20.5677
37.7337 20.399
37.781 20.3029
37.8281 20.2861
37.8753 20.1505
37.9224 20.1152
37.9697 20.0719
38.0168 19.9722
38.064 19.9594
38.1111 19.8897
38.1584 19.8085
38.2056 19.7562
38.2529 19.6554
38.3 19.6258
38.3473 19.591
38.3945 19.5114
38.4418 19.4333
38.489 19.3721
38.5363 19.2773
38.5837 19.266
38.6309 19.2579
38.6782 19.1528
38.7254 19.0798
38.7728 18.9907
38.82 18.9295
38.8674 18.9279
38.9146 18.8409
38.9621 18.7743
39.0093 18.6973
39.0567 18.6274
39.104 18.6503
39.1514 18.5208
39.1987 18.4984
39.2461 18.4556
39.2934 18.3682
39.3409 18.2557
39.3882 18.1652
39.4356 18.2463
39.483 18.0948
39.5304 18.05
39.5778 18.038
39.6253 17.9724
39.6726 17.8562
39.7201 17.8689
39.7675 17.8209
39.815 17.7621
39.8624 17.6751
39.9099 17.6846
39.9575 17.5554
40.0049 17.5367
40.0525 17.377
40.0999 17.3631
40.1474 17.3083
40.1949 17.33
40.2425 17.2782
40.2899 17.1954
40.3375 17.1341
40.385 17.0999
40.4326 17.0233
40.48 16.9443
40.5277 16.9558
40.5752 16.8772
40.6228 16.7994
40.6703 16.7346
40.718 16.691
40.7655 16.6475
40.8132 16.5905
40.8607 16.5298
40.9084 16.5184
40.9559 16.4332
41.0036 16.3775
41.0512 16.3279
41.0989 16.2921
41.1465 16.2188
41.1942 16.1959
41.242 16.1321
41.2896 16.0363
41.3373 16.0243
41.3849 15.9692
41.4327 15.8405
41.4803 15.8146
41.5281 15.7518
41.5758 15.7285
41.6236 15.6367
41.6712 15.6351
41.7191 15.5708
41.7667 15.5029
41.8146 15.4842
41.8622 15.4273
41.9101 15.4101
41.9578 15.268
42.0057 15.2671
42.0534 15.1919
42.1013 15.2332
42.149 15.1487
42.1969 15.0377
42.2446 15.0463
42.2925 14.9982
42.3403 14.9735
42.3882 14.8369
42.436 14.8434
42.4839 14.7458
42.5319 14.706
42.5797 14.7249
42.6277 14.6671
42.6755 14.5704
42.7235 14.4885
42.7713 14.5153
42.8193 14.4117
42.8671 14.3565
42.9152 14.2952
42.963 14.3228
43.0111 14.251
43.0589 14.1429
43.107 14.1017
43.1549 14.051
43.2029 13.9837
43.2508 13.9699
43.2989 13.9827
43.3468 13.9023
43.3949 13.8705
43.4429 13.8107
43.491 13.7258
43.5389 13.6735
43.5871 13.6641
43.635 13.5885
43.6832 13.5448
43.7312 13.5039
43.7793 13.4301
43.8273 13.3919
43.8755 13.3419
43.9237 13.3202
43.9717 13.2615
44.0199 13.2055
44.068 13.2321
44.1162 13.1371
44.1642 13.1245
44.2125 13.0988
44.2606 12.9911
44.3088 12.9573
44.3569 12.8969
44.4052 12.8756
44.4533 12.8278
44.5016 12.7565
44.5497 12.7386
44.598 12.6683
44.6461 12.6399
44.6945 12.6167
44.7426 12.5824
44.791 12.4798
44.8391 12.4584
44.8875 12.4318
44.9357 12.3615
44.984 12.3345
45.0322 12.3081
45.0806 12.2736
45.1288 12.2396
45.1773 12.1743
45.2257 12.1276
45.2739 12.0826
45.3224 12.0225
45.3706 12.0076
45.4191 11.9306
45.4673 11.8992
45.5158 11.8671
45.5641 11.7948
45.6126 11.7719
45.6609 11.7585
45.7094 11.7301
45.7577 11.6713
45.8063 11.5654
45.8546 11.5951
45.9031 11.4912
45.9515 11.4682
46.0001 11.4692
46.0484 11.384
46.097 11.3512
46.1454 11.3462
46.194 11.3043
46.2424 11.211
46.291 11.2026
46.3395 11.1472
46.3881 11.1432
46.4365 11.0946
46.4852 11.0436
46.5337 10.9713
46.5823 10.9739
46.631 10.9259
46.6795 10.8757
46.7282 10.8692
46.7767 10.7786
46.8254 10.7481
46.8739 10.7077
46.9226 10.6562
46.9712 10.6319
47.0199 10.5919
47.0685 10.5504
47.1173 10.5223
47.1658 10.5091
47.2146 10.4514
47.2632 10.4181
47.312 10.3973
47.3606 10.3571
47.4095 10.2826
47.4581 10.2532
47.5069 10.1922
47.5556 10.1584
47.6044 10.1236
47.6531 10.0862
47.702 10.0636
47.7507 10.0444
47.7996 9.95948
47.8483 9.96503
47.8972 9.91019
47.9461 9.90834
47.9948 9.79583
48.0438 9.80117
48.0925 9.79117
48.1415 9.74942
48.1902 9.68957
48.2392 9.68885
48.288 9.63526
48.337 9.61061
48.3858 9.53028
48.4348 9.51165
48.4837 9.52162
48.5327 9.48742
48.5815 9.42114
48.6306 9.39421
48.6795 9.35592
48.7285 9.33498
48.7774 9.27231
48.8265 9.26047
48.8754 9.22564
48.9245 9.18429
48.9734 9.16815
49.0226 9.11431
49.0715 9.09932
49.1206 9.02127
49.1696 9.01401
49.2188 8.95034
49.2679 8.93981
49.3169 8.91611
49.3661 8.85747
49.4151 8.86865
49.4643 8.8579
49.5134 8.77057
49.5626 8.69113
49.6117 8.72492
49.6609 8.69494
49.71 8.63265
49.7592 8.58656
49.8083 8.59414
49.8576 8.53984
49.9067 8.50026
49.956 8.47023
50.0052 8.4782
50.0545 8.4106
50.1036 8.3774
50.153 8.33561
50.2022 8.33115
50.2515 8.29974
50.3007 8.22882
50.3501 8.17285
50.3993 8.18054
50.4487 8.11405
50.498 8.12526
50.5474 8.07267
50.5966 8.05363
50.6461 8.02967
50.6955 8.00379
50.7448 7.96127
50.7943 7.9333
50.8436 7.93626
50.8931 7.89028
50.9424 7.85335
50.9919 7.79382
51.0413 7.78327
51.0908 7.75877
51.1402 7.74718
51.1897 7.68428
51.2391 7.67663
51.2887 7.60313
51.3381 7.61732
51.3877 7.59639
51.4371 7.51009
51.4867 7.46659
51.5362 7.48884
51.5858 7.46803
51.6353 7.42048
51.6849 7.38029
51.7344 7.36335
51.7841 7.33594
51.8336 7.30874
51.8833 7.27957
51.9328 7.24081
51.9826 7.17977
52.0323 7.16923
52.0818 7.12296
52.1316 7.09137
52.1812 7.07521
52.231 7.04334
52.2806 7.02763
52.3304 6.98431
52.38 6.93987
52.4298 6.92616
52.4794 6.88513
52.5293 6.86604
52.5789 6.86139
52.6288 6.81606
52.6785 6.77941
52.7284 6.78672
52.7781 6.7337
52.828 6.70247
52.8777 6.71375
52.9276 6.67617
52.9774 6.63805
53.0273 6.60567
53.0771 6.5681
53.1271 6.57983
53.1769 6.52168
53.2269 6.4987
53.2767 6.41798
53.3267 6.41967
53.3765 6.36637
53.4266 6.41335
53.4766 6.31004
53.5265 6.31068
53.5765 6.25978
53.6264 6.21872
53.6765 6.27493
53.7264 6.23986
53.7765 6.2035
53.8265 6.16577
53.8766 6.11713
53.9266 6.1077
53.9767 6.1001
54.0267 6.04572
54.0769 6.03432
54.1269 5.97097
54.1771 5.96319
54.2271 5.92779
54.2773 5.87414
54.3274 5.9308
54.3776 5.82071
54.4277 5.80548
54.478 5.78431
54.528 5.75352
54.5783 5.71495
54.6285 5.6557
54.6788 5.58281
54.7289 5.55842
54.7792 5.57155
54.8296 5.50676
54.8798 5.4033
54.9301 5.4168
54.9803 5.41228
55.0307 5.35205
55.0809 5.30285
55.1314 5.31282
55.1816 5.20714
55.232 5.1841
55.2823 5.14561
55.3328 5.07556
55.383 5.01973
55.4335 4.96995
55.4838 4.98742
55.5344 4.9092
55.5847 4.91467
55.6352 4.82015
55.6856 4.8173
55.7361 4.77293