File: XRD/Ni3Fe_FD0235.xy
TT I
1.27165 7.75647
1.31627 7.32402
1.36089 7.80981
1.40551 6.7566
1.45013 6.91249
1.49476 6.86527
1.53938 6.84445
1.584 6.65151
1.62863 6.16011
1.67325 5.22326
1.71787 5.01773
1.7625 5.02096
1.80712 5.5423
1.85174 4.91953
1.89636 5.14586
1.94099 4.97779
1.98562 5.10017
2.03025 4.91033
2.07487 4.65509
2.11949 4.4646
2.16411 4.18554
2.20874 4.94098
2.25338 4.84049
2.298 5.10326
2.34263 4.98938
2.38725 4.40998
2.43188 4.93308
2.4765 5.05632
2.52115 4.71141
2.56577 5.45999
2.6104 6.12429
2.65503 5.19444
2.69965 6.06454
2.7443 6.2908
2.78893 6.76618
2.83356 7.02756
2.87818 8.01553
2.92281 8.72993
2.96744 8.94696
3.01209 9.77247
3.05672 10.9415
3.10135 12.4825
3.14599 13.2377
3.19062 14.1915
3.23527 14.9704
3.2799 16.1878
3.32454 16.6835
3.36917 17.882
3.4138 18.8846
3.45844 19.6416
3.50309 20.7296
3.54773 21.699
3.59237 22.4561
3.637 23.1915
3.68164 23.9679
3.7263 25.0062
3.77094 25.8156
3.81558 26.935
3.86022 27.8219
3.90486 28.9257
3.9495 29.9697
3.99416 31.3979
4.0388 32.9587
4.08344 34.0633
4.12809 34.719
4.17273 36.4851
4.21738 38.3091
4.26204 39.4801
4.30669 40.7913
4.35133 43.1622
4.39598 44.4637
4.44063 46.6733
4.4853 48.909
4.52995 52.9778
4.5746 54.5552
4.61925 55.3166
4.6639 58.2054
4.70855 61.2919
4.75322 64.8949
4.79788 68.5336
4.84253 71.7413
4.88719 77.2305
4.93184 81.028
4.97652 88.6329
5.02118 96.4425
5.06583 106.871
5.11049 123.896
5.15515 169.747
5.19981 888.2
5.24449 3978.53
5.28916 10797.3
5.33382 4194.7
5.37848 273.812
5.42315 153.21
5.46783 129.756
5.5125 118.54
5.55716 111.898
5.60183 106.943
5.6465 104.161
5.69117 102.872
5.73586 101.305
5.78053 102.013
5.8252 102.735
5.86988 104.73
5.91455 110.087
5.95924 132.996
6.00392 448.071
6.0486 1423.16
6.09328 3673.15
6.13795 3677.21
6.18263 356.96
6.22733 108.962
6.27201 88.7486
6.3167 80.9056
6.36138 75.9176
6.40606 73.1246
6.45075 71.1423
6.49545 68.5098
6.54014 66.6404
6.58483 65.2582
6.62952 64.1515
6.67421 62.4574
6.71892 61.6327
6.76361 60.7405
6.8083 59.9361
6.853 59.2328
6.89769 58.4145
6.94239 58.4003
6.98711 57.4197
7.03181 57.1427
7.07651 57.1138
7.12121 56.637
7.16591 56.4412
7.21063 55.7877
7.25533 55.8646
7.30004 55.9668
7.34475 55.9897
7.38945 56.2367
7.43416 55.3986
7.47889 55.6584
7.5236 56.0575
7.56831 56.8851
7.61303 57.0892
7.65774 57.2607
7.70247 58.2704
7.74719 58.5525
7.79191 58.9857
7.83663 59.2495
7.88135 60.4382
7.92607 61.5403
7.97081 62.2484
8.01553 63.7105
8.06026 65.6804
8.10498 66.7541
8.14971 68.8443
8.19446 70.8098
8.23919 73.3287
8.28392 76.1446
8.32865 78.7738
8.37339 84.4233
8.41812 90.2588
8.46288 110.83
8.50761 292.122
8.55235 583.85
8.59709 1074.03
8.64183 1979.45
8.68658 1204.76
8.73134 217.044
8.77609 110.797
8.82083 100.343
8.86558 96.2674
8.91033 93.6407
8.9551 90.7678
8.99985 89.2239
9.04461 88.3699
9.08936 88.0586
9.13412 86.545
9.17888 86.5755
9.22365 86.6822
9.26841 86.6383
9.31318 88.3284
9.35794 88.5769
9.4027 88.2232
9.44749 89.2196
9.49226 89.6853
9.53703 90.4155
9.5818 92.8599
9.62657 94.468
9.67134 95.7009
9.71614 97.3697
9.76091 100.053
9.80569 103.772
9.85047 106.88
9.89525 112.777
9.94005 137.292
9.98484 304.987
10.0296 517.369
10.0744 809.069
10.1192 1457.42
10.164 1686.79
10.2088 556.502
10.2536 148.287
10.2984 117.711
10.3432 112.933
10.388 115.203
10.4328 159.577
10.4776 211.89
10.5224 282.921
10.5672 451.375
10.612 531.283
10.6568 255.982
10.7017 108.212
10.7465 92.2699
10.7913 87.9082
10.8361 85.2442
10.8809 82.6268
10.9257 80.5341
10.9706 79.5347
11.0154 77.9106
11.0602 76.2332
11.105 74.6632
11.1499 73.279
11.1947 72.1398
11.2395 71.284
11.2844 70.6965
11.3292 69.6512
11.374 68.9887
11.4189 68.6327
11.4637 67.5366
11.5086 66.8366
11.5534 66.5924
11.5983 66.2721
11.6431 66.4276
11.688 65.8707
11.7328 65.5913
11.7777 65.4677
11.8225 65.1867
11.8674 65.2311
11.9122 65.9657
11.9571 66.2963
12.002 68.5794
12.0468 79.7478
12.0917 93.8603
12.1366 109.099
12.1814 142.197
12.2263 194.269
12.2712 182.26
12.3161 103.571
12.3609 70.1421
12.4058 67.2839
12.4507 67.1703
12.4956 67.4369
12.5405 67.3241
12.5853 67.8564
12.6302 67.9926
12.6751 68.8288
12.72 69.8072
12.7649 70.7807
12.8098 71.7227
12.8547 73.1772
12.8996 74.5794
12.9445 76.3112
12.9894 78.6138
13.0343 80.6138
13.0792 86.1657
13.1242 111.31
13.1691 146.807
13.214 174.748
13.2589 230.397
13.3038 324.392
13.3487 420.04
13.3937 310.402
13.4386 149.722
13.4835 133.58
13.5285 153.011
13.5734 175.442
13.6183 227.092
13.6633 310.937
13.7082 354.447
13.7531 224.316
13.7981 110.479
13.843 87.1834
13.888 83.8849
13.9329 81.3229
13.9779 80.1647
14.0228 78.3899
14.0678 77.036
14.1127 76.1249
14.1577 75.3147
14.2027 74.7976
14.2476 74.0314
14.2926 73.3421
14.3376 73.1543
14.3825 72.3941
14.4275 72.2494
14.4725 72.4319
14.5175 72.5449
14.5624 72.5644
14.6074 73.0305
14.6524 73.4061
14.6974 74.8253
14.7424 81.1476
14.7874 95.1275
14.8324 106.43
14.8774 119.894
14.9224 146.226
14.9674 187.847
15.0124 222.863
15.0574 169.838
15.1024 100.845
15.1474 76.9096
15.1924 73.6944
15.2374 72.4751
15.2824 71.5017
15.3274 70.5568
15.3725 70.132
15.4175 69.826
15.4625 69.3748
15.5076 69.0544
15.5526 69.3215
15.5976 69.933
15.6426 75.2537
15.6877 85.89
15.7327 94.6373
15.7778 103.904
15.8228 122.612
15.8679 153.524
15.9129 190.056
15.958 174.242
16.003 111.303
16.0481 72.5578
16.0931 65.6839
16.1382 63.8672
16.1833 63.0071
16.2283 61.5065
16.2734 60.9006
16.3185 60.3273
16.3636 59.6792
16.4086 58.8395
16.4537 58.5923
16.4988 58.0692
16.5439 57.9426
16.589 57.8175
16.6341 57.42
16.6792 57.021
16.7243 57.542
16.7694 57.3314
16.8145 57.1353
16.8596 57.311
16.9047 57.3853
16.9498 57.6674
16.9949 57.8882
17.04 59.3526
17.0851 61.8296
17.1302 63.7454
17.1754 65.7007
17.2205 68.9555
17.2656 74.0172
17.3108 82.1314
17.3559 86.3821
17.401 77.0575
17.4462 66.659
17.4913 62.5673
17.5365 62.0288
17.5815 62.1221
17.6268 62.5755
17.6718 63.1434
17.7171 63.4352
17.7622 64.526
17.8074 66.5132
17.8525 72.4491
17.8977 78.0946
17.9428 82.6067
17.9881 88.297
18.0331 99.3317
18.0784 115.72
18.1237 139.108
18.1688 144.595
18.214 118.558
18.2591 93.527
18.3044 90.5758
18.3495 97.167
18.3948 106.771
18.4399 101.814
18.4852 83.0842
18.5303 70.0813
18.5756 65.2474
18.6207 64.3989
18.666 63.3066
18.7112 62.529
18.7565 61.9233
18.8016 61.5965
18.8469 60.7888
18.892 60.649
18.9374 59.9905
18.9825 59.7613
19.0278 59.5783
19.073 60.4856
19.1183 61.2254
19.1635 62.1124
19.2088 62.8964
19.254 64.623
19.2993 67.3192
19.3447 71.3024
19.3898 76.4093
19.4352 76.1343
19.4804 68.1803
19.5257 60.2198
19.5709 56.8855
19.6163 56.4136
19.6615 56.3004
19.7068 55.8384
19.752 56.1211
19.7974 56.9506
19.8426 58.096
19.888 58.6334
19.9332 59.6655
19.9786 61.4241
20.0238 64.1165
20.0692 68.45
20.1144 72.7541
20.1598 73.0734
20.205 67.6688
20.2504 64.2409
20.2957 64.4796
20.3411 67.0319
20.3863 67.4808
20.4318 62.2836
20.477 56.598
20.5224 53.5021
20.5677 52.8078
20.6131 52.5961
20.6586 52.1673
20.7038 51.9325
20.7493 51.2747
20.7945 51.3179
20.84 51.2436
20.8853 51.3595
20.9307 50.9599
20.976 51.4095
21.0215 51.2579
21.0668 51.4686
21.1122 51.8428
21.1575 51.9508
21.203 52.3324
21.2483 53.3785
21.2938 54.0181
21.3391 52.7122
21.3846 51.5004
21.4299 51.0061
21.4754 50.7877
21.5207 51.0386
21.5662 51.6748
21.6116 52.8039
21.6571 53.5004
21.7024 54.366
21.7479 55.5127
21.7933 57.5853
21.8388 60.2142
21.8843 63.6166
21.9297 66.7663
21.9752 66.8019
22.0206 63.1636
22.0661 58.8167
22.1115 57.8684
22.157 58.4769
22.2024 57.4033
22.248 54.4949
22.2933 52.6445
22.3389 51.467
22.3843 51.0869
22.4299 50.9918
22.4753 50.8862
22.5208 50.916
22.5662 50.9738
22.6118 51.525
22.6572 51.8489
22.7028 52.3799
22.7483 52.8788
22.7939 53.1726
22.8393 54.2996
22.8849 55.4003
22.9303 57.1439
22.9759 59.3287
23.0214 59.8898
23.067 57.9038
23.1126 54.212
23.1581 52.0462
23.2037 51.3467
23.2492 51.9026
23.2948 52.0031
23.3403 52.3058
23.3859 52.5888
23.4314 53.1983
23.477 54.2164
23.5225 55.7211
23.5682 57.7446
23.6137 59.8282
23.6593 58.6345
23.7048 55.0444
23.7505 51.1297
23.796 49.1308
23.8417 48.1725
23.8872 47.7182
23.9329 47.4125
23.9784 47.1031
24.0241 46.7915
24.0697 46.4765
24.1154 46.1104
24.1609 45.993
24.2066 45.8199
24.2522 45.6699
24.2979 45.374
24.3434 45.476
24.3892 45.13
24.4349 45.0064
24.4805 44.9073
24.5262 45.1479
24.5718 44.9228
24.6175 44.9417
24.6631 44.7354
24.7089 44.6104
24.7545 44.3899
24.8002 44.2804
24.8458 44.3523
24.8916 44.2193
24.9372 44.3055
24.983 44.8612
25.0286 45.0351
25.0744 45.3838
25.12 45.6643
25.1658 46.1285
25.2114 46.5573
25.2572 46.5041
25.3029 46.4467
25.3487 46.7777
25.3943 46.7559
25.4402 45.8366
25.4858 44.6674
25.5316 43.5072
25.5773 42.8934
25.6231 42.8237
25.669 42.6192
25.7147 42.5334
25.7605 42.4452
25.8062 42.4104
25.8521 42.4562
25.8977 42.5134
25.9436 42.5836
25.9893 42.6334
26.0352 43.0297
26.0809 43.1657
26.1268 43.5094
26.1725 43.4491
26.2184 43.0959
26.2641 42.3731
26.31 42.2933
26.3557 42.1535
26.4017 42.1561
26.4474 42.3494
26.4933 42.5173
26.5391 42.8705
26.585 43.266
26.6308 43.7909
26.6767 43.9872
26.7225 43.9906
26.7684 43.4349
26.8142 42.8136
26.8601 42.2641
26.9059 41.9026
26.9519 41.4832
26.9979 41.1282
27.0437 40.7341
27.0896 40.7247
27.1354 40.6002
27.1814 40.5228
27.2272 40.4025
27.2732 40.4162
27.3191 40.1432
27.3651 40.2098
27.4109 40.0385
27.4569 40.136
27.5027 40.3025
27.5488 40.4362
27.5946 40.2715
27.6407 40.0761
27.6865 40.0462
27.7326 39.8531
27.7784 39.7424
27.8245 39.6877
27.8703 39.842
27.9164 40.0073
27.9623 40.0581
28.0084 40.1623
28.0543 40.6057
28.1003 40.6493
28.1462 40.5166
28.1923 40.2996
28.2384 39.6807
28.2843 39.5643
28.3304 38.9993
28.3764 38.5358
28.4225 38.1327
28.4684 38.0909
28.5145 37.6802
28.5605 37.4368
28.6066 37.3208
28.6526 37.2268
28.6987 37.2946
28.7447 37.0493
28.7908 36.9517
28.8368 36.9909
28.8829 37.0424
28.9289 36.966
28.9751 36.712
29.0211 36.4941
29.0673 36.2904
29.1133 36.2306
29.1595 36.0495
29.2055 35.9088
29.2517 35.7357
29.2977 35.7319
29.3439 35.8238
29.3899 35.7548
29.4361 35.7786
29.4824 35.5076
29.5284 35.2525
29.5746 34.885
29.6207 34.6589
29.6669 34.7006
29.713 34.588
29.7593 34.414
29.8053 34.3798
29.8516 34.2833
29.8977 34.2594
29.9439 34.0808
29.99 34.0982
30.0363 33.9626
30.0824 34.0434
30.1287 33.8318
30.1748 33.8926
30.2211 33.8689
30.2673 33.7693
30.3136 33.9739
30.3597 33.8082
30.406 33.7174
30.4522 33.7048
30.4985 33.5089
30.5447 33.6253
30.591 33.5833
30.6372 33.6128
30.6835 33.5514
30.7297 33.5288
30.7761 33.7554
30.8224 33.4638
30.8686 33.3026
30.915 33.2396
30.9612 33.0491
31.0076 32.7736
31.0538 32.5895
31.1002 32.6687
31.1464 32.4109
31.1928 32.3421
31.2391 32.3923
31.2855 32.4022
31.3317 32.348
31.3781 32.3918
31.4244 32.2439
31.4708 32.1475
31.5171 32.1738
31.5636 32.2904
31.6098 31.9212
31.6563 31.7905
31.7026 31.7103
31.7491 31.4707
31.7953 31.5541
31.8418 31.4823
31.8881 31.5037
31.9346 31.4506
31.9809 31.4596
32.0275 31.3309
32.074 31.1548
32.1203 31.0796
32.1668 30.8592
32.2132 30.7314
32.2597 30.6356
32.306 30.489
32.3526 30.3073
32.399 30.3196
32.4455 30.0713
32.4919 30.0197
32.5385 30.0009
32.5848 29.7531
32.6314 29.7699
32.6778 29.717
32.7244 29.6069
32.7708 29.4424
32.8174 29.4392
32.8638 29.332
32.9104 29.3367
32.9569 29.2899
33.0035 29.0947
33.0499 29.0727
33.0966 29.0926
33.143 29.0788
33.1897 28.9714
33.2361 28.9003
33.2828 28.8425
33.3293 28.6469
33.3759 28.6011
33.4226 28.4582
33.4691 28.3007
33.5158 28.2862
33.5623 28.1676
33.609 27.9705
33.6555 27.9291
33.7022 27.8238
33.7487 27.7011
33.7954 27.6746
33.842 27.5533
33.8887 27.5021
33.9353 27.4435
33.982 27.3039
34.0286 27.1857
34.0753 27.2396
34.1219 27.1041
34.1687 26.9768
34.2152 26.8525
34.262 26.7554
34.3086 26.6438
34.3554 26.6825
34.402 26.5866
34.4488 26.4642
34.4954 26.3915
34.5422 26.2718
34.5889 26.1439
34.6357 26.0785
34.6825 26.0661
34.7292 26.0029
34.776 25.8904
34.8227 25.7946
34.8695 25.7195
34.9162 25.7084
34.9631 25.5585
35.0098 25.5341
35.0566 25.4682
35.1033 25.3906
35.1502 25.3317
35.1969 25.2619
35.2438 25.244
35.2906 25.1538
35.3375 25.0595
35.3842 25.0508
35.4311 25.0741
35.4779 24.9905
35.5248 24.9394
35.5716 24.8019
35.6185 24.7309
35.6653 24.7347
35.7123 24.5819
35.759 24.5605
35.806 24.3806
35.8528 24.2794
35.8998 24.3045
35.9468 24.1463
35.9936 24.0776
36.0406 24.0241
36.0874 24.0141
36.1345 23.9312
36.1813 23.8841
36.2283 23.693
36.2752 23.5906
36.3222 23.6873
36.3691 23.5548
36.4161 23.4249
36.463 23.4241
36.5101 23.454
36.557 23.356
36.6041 23.226
36.651 23.178
36.6981 23.1132
36.745 23.0648
36.7921 23.0362
36.839 22.8693
36.8861 22.8713
36.9331 22.6928
36.9802 22.593
37.0272 22.5505
37.0743 22.4668
37.1213 22.3761
37.1684 22.4158
37.2154 22.3554
37.2626 22.2014
37.3098 22.1139
37.3568 22.0995
37.404 22.07
37.451 21.9071
37.4982 21.8618
37.5452 21.7571
37.5924 21.7151
37.6395 21.7552
37.6867 21.6491
37.7337 21.5561
37.781 21.454
37.8281 21.3976
37.8753 21.3671
37.9224 21.2425
37.9697 21.1625
38.0168 21.0401
38.064 21.0319
38.1111 21.0309
38.1584 20.9258
38.2056 20.8256
38.2529 20.7964
38.3 20.7957
38.3473 20.64
38.3945 20.5746
38.4418 20.5317
38.489 20.4749
38.5363 20.3763
38.5837 20.2937
38.6309 20.2629
38.6782 20.2004
38.7254 20.1031
38.7728 20.0536
38.82 19.9604
38.8674 20.009
38.9146 19.8763
38.9621 19.7248
39.0093 19.7157
39.0567 19.7122
39.104 19.6096
39.1514 19.5786
39.1987 19.4618
39.2461 19.4639
39.2934 19.3451
39.3409 19.26
39.3882 19.2437
39.4356 19.1937
39.483 19.105
39.5304 18.9587
39.5778 19.0584
39.6253 19.0185
39.6726 18.887
39.7201 18.8358
39.7675 18.7702
39.815 18.7204
39.8624 18.6143
39.9099 18.5901
39.9575 18.5569
40.0049 18.485
40.0525 18.4167
40.0999 18.3552
40.1474 18.3537
40.1949 18.28
40.2425 18.1975
40.2899 18.1391
40.3375 18.0591
40.385 18.0014
40.4326 17.911
40.48 17.88
40.5277 17.8422
40.5752 17.8126
40.6228 17.7245
40.6703 17.7139
40.718 17.6266
40.7655 17.5878
40.8132 17.5085
40.8607 17.4833
40.9084 17.4177
40.9559 17.3527
41.0036 17.3038
41.0512 17.2678
41.0989 17.196
41.1465 17.1831
41.1942 17.0508
41.242 17.0086
41.2896 16.9211
41.3373 16.8271
41.3849 16.7927
41.4327 16.8248
41.4803 16.7048
41.5281 16.7039
41.5758 16.6469
41.6236 16.5362
41.6712 16.4989
41.7191 16.4276
41.7667 16.3497
41.8146 16.3754
41.8622 16.2424
41.9101 16.1977
41.9578 16.095
42.0057 16.1241
42.0534 16.1086
42.1013 15.977
42.149 15.9694
42.1969 15.9074
42.2446 15.87
42.2925 15.7884
42.3403 15.7231
42.3882 15.6942
42.436 15.6699
42.4839 15.5618
42.5319 15.5067
42.5797 15.4771
42.6277 15.3982
42.6755 15.3288
42.7235 15.2889
42.7713 15.2265
42.8193 15.2234
42.8671 15.1262
42.9152 15.127
42.963 15.0393
43.0111 15.0143
43.0589 14.9545
43.107 14.8742
43.1549 14.8827
43.2029 14.7505
43.2508 14.7278
43.2989 14.6857
43.3468 14.6722
43.3949 14.6394
43.4429 14.5492
43.491 14.5263
43.5389 14.4751
43.5871 14.3756
43.635 14.3176
43.6832 14.3011
43.7312 14.1891
43.7793 14.2133
43.8273 14.1395
43.8755 14.0681
43.9237 14.0487
43.9717 13.9802
44.0199 13.9105
44.068 13.8986
44.1162 13.8447
44.1642 13.7987
44.2125 13.7491
44.2606 13.7234
44.3088 13.6465
44.3569 13.5991
44.4052 13.5796
44.4533 13.5122
44.5016 13.4636
44.5497 13.4449
44.598 13.3565
44.6461 13.3207
44.6945 13.2836
44.7426 13.2535
44.791 13.1673
44.8391 13.1559
44.8875 13.0659
44.9357 13.0347
44.984 13.0405
45.0322 12.9017
45.0806 12.9141
45.1288 12.8596
45.1773 12.8403
45.2257 12.7737
45.2739 12.6869
45.3224 12.6594
45.3706 12.6331
45.4191 12.5732
45.4673 12.5404
45.5158 12.4881
45.5641 12.4712
45.6126 12.4276
45.6609 12.3789
45.7094 12.2903
45.7577 12.2763
45.8063 12.1978
45.8546 12.1955
45.9031 12.1645
45.9515 12.071
46.0001 12.0433
46.0484 12.0012
46.097 12.006
46.1454 11.9701
46.194 11.8894
46.2424 11.8566
46.291 11.7936
46.3395 11.758
46.3881 11.7011
46.4365 11.6412
46.4852 11.628
46.5337 11.5747
46.5823 11.5745
46.631 11.4996
46.6795 11.4219
46.7282 11.3959
46.7767 11.4008
46.8254 11.3388
46.8739 11.2759
46.9226 11.2653
46.9712 11.2103
47.0199 11.1516
47.0685 11.1109
47.1173 11.0608
47.1658 11.0443
47.2146 11.0209
47.2632 10.9083
47.312 10.9413
47.3606 10.9117
47.4095 10.8124
47.4581 10.7809
47.5069 10.7514
47.5556 10.6976
47.6044 10.6669
47.6531 10.5984
47.702 10.598
47.7507 10.5417
47.7996 10.5198
47.8483 10.4779
47.8972 10.4871
47.9461 10.3678
47.9948 10.3439
48.0438 10.3517
48.0925 10.3044
48.1415 10.2457
48.1902 10.1938
48.2392 10.1981
48.288 10.1488
48.337 10.1094
48.3858 10.0559
48.4348 9.99365
48.4837 10.0266
48.5327 9.98168
48.5815 9.92105
48.6306 9.9249
48.6795 9.83643
48.7285 9.77655
48.7774 9.81698
48.8265 9.7561
48.8754 9.74619
48.9245 9.71475
48.9734 9.63168
49.0226 9.59235
49.0715 9.54299
49.1206 9.5314
49.1696 9.46996
49.2188 9.5187
49.2679 9.4231
49.3169 9.33631
49.3661 9.37643
49.4151 9.30279
49.4643 9.267
49.5134 9.28222
49.5626 9.18974
49.6117 9.19807
49.6609 9.14408
49.71 9.08158
49.7592 9.05182
49.8083 9.03805
49.8576 9.01393
49.9067 8.92405
49.956 8.92405
50.0052 8.89767
50.0545 8.86548
50.1036 8.84285
50.153 8.79393
50.2022 8.78031
50.2515 8.74707
50.3007 8.64918
50.3501 8.67046
50.3993 8.60751
50.4487 8.57606
50.498 8.54286
50.5474 8.54103
50.5966 8.48753
50.6461 8.45424
50.6955 8.43609
50.7448 8.40495
50.7943 8.35816
50.8436 8.33185
50.8931 8.26807
50.9424 8.24724
50.9919 8.24493
51.0413 8.22305
51.0908 8.16784
51.1402 8.11903
51.1897 8.09752
51.2391 8.07555
51.2887 8.03893
51.3381 7.99804
51.3877 7.96659
51.4371 7.90688
51.4867 7.89469
51.5362 7.89949
51.5858 7.85021
51.6353 7.8014
51.6849 7.76119
51.7344 7.73877
51.7841 7.70593
51.8336 7.64719
51.8833 7.6422
51.9328 7.58257
51.9826 7.55287
52.0323 7.51658
52.0818 7.52806
52.1316 7.46412
52.1812 7.43996
52.231 7.42684
52.2806 7.39925
52.3304 7.35818
52.38 7.33173
52.4298 7.29696
52.4794 7.23563
52.5293 7.27766
52.5789 7.17041
52.6288 7.195
52.6785 7.1452
52.7284 7.14839
52.7781 7.11003
52.828 7.04254
52.8777 6.98945
52.9276 7.03887
52.9774 7.00781
53.0273 6.98881
53.0771 6.90576
53.1271 6.90609
53.1769 6.8403
53.2269 6.81531
53.2767 6.80876
53.3267 6.77764
53.3765 6.74295
53.4266 6.69192
53.4766 6.68191
53.5265 6.66248
53.5765 6.65226
53.6264 6.58564
53.6765 6.61982
53.7264 6.5379
53.7765 6.47969
53.8265 6.46862
53.8766 6.48784
53.9266 6.38896
53.9767 6.3668
54.0267 6.40808
54.0769 6.34772
54.1269 6.32779
54.1771 6.26951
54.2271 6.2586
54.2773 6.16692
54.3274 6.17138
54.3776 6.1493
54.4277 6.11768
54.478 6.0514
54.528 6.01769
54.5783 5.95595
54.6285 5.88245
54.6788 5.88963
54.7289 5.86658
54.7792 5.84924
54.8296 5.75652
54.8798 5.73484
54.9301 5.6691
54.9803 5.68948
55.0307 5.6648
55.0809 5.54081
55.1314 5.53048
55.1816 5.47896
55.232 5.44922
55.2823 5.38224
55.3328 5.27
55.383 5.25814
55.4335 5.26116
55.4838 5.18551
55.5344 5.10073
55.5847 5.07264
55.6352 5.04723
55.6856 5.01185
55.7361 4.9878