File: XRD/Ni3Fe_FD0302.xy
TT I
1.27165 7.84786
1.31627 7.1299
1.36089 7.12835
1.40551 6.45505
1.45013 6.4902
1.49476 6.35768
1.53938 5.96899
1.584 6.14494
1.62863 5.92465
1.67325 5.33714
1.71787 5.55139
1.7625 5.28117
1.80712 5.11592
1.85174 5.49596
1.89636 5.11245
1.94099 5.48831
1.98562 4.70533
2.03025 4.54309
2.07487 4.60447
2.11949 4.99565
2.16411 5.28933
2.20874 18.5772
2.25338 32.0826
2.298 6.46027
2.34263 4.85932
2.38725 5.56195
2.43188 5.4636
2.4765 5.85441
2.52115 6.04071
2.56577 6.49676
2.6104 7.455
2.65503 6.27457
2.69965 6.91227
2.7443 7.33542
2.78893 7.12119
2.83356 7.65527
2.87818 8.1812
2.92281 8.94206
2.96744 9.92599
3.01209 10.244
3.05672 10.9275
3.10135 12.4993
3.14599 13.5616
3.19062 13.812
3.23527 14.7988
3.2799 16.3056
3.32454 17.0162
3.36917 18.2929
3.4138 19.3836
3.45844 20.3073
3.50309 21.4512
3.54773 22.6925
3.59237 25.2887
3.637 126.354
3.68164 78.0835
3.7263 27.2775
3.77094 27.2585
3.81558 27.5412
3.86022 28.3879
3.90486 30.1473
3.9495 30.6551
3.99416 32.079
4.0388 33.1327
4.08344 34.6358
4.12809 36.2954
4.17273 38.5686
4.21738 46.6758
4.26204 347.468
4.30669 312.479
4.35133 53.7099
4.39598 46.5302
4.44063 59.4627
4.4853 77.0712
4.52995 53.5961
4.5746 53.0498
4.61925 54.8696
4.6639 57.2529
4.70855 59.8049
4.75322 62.5977
4.79788 65.7444
4.84253 68.4766
4.88719 73.9681
4.93184 77.2606
4.97652 82.7492
5.02118 90.6131
5.06583 99.0042
5.11049 113.526
5.15515 214.625
5.19981 490.496
5.24449 2936.11
5.28916 11044.9
5.33382 4273.01
5.37848 256.817
5.42315 145.641
5.46783 123.238
5.5125 112.723
5.55716 107.433
5.60183 103.177
5.6465 101.48
5.69117 97.9779
5.73586 95.8745
5.78053 96.193
5.8252 96.4222
5.86988 97.0184
5.91455 99.8186
5.95924 110.816
6.00392 250.594
6.0486 1027.9
6.09328 3639.33
6.13795 3919.9
6.18263 379.858
6.22733 106.927
6.27201 90.2232
6.3167 119.687
6.36138 88.4005
6.40606 72.8005
6.45075 70.4571
6.49545 68.0097
6.54014 66.4807
6.58483 65.5064
6.62952 65.6104
6.67421 109.821
6.71892 190.921
6.76361 76.2015
6.8083 61.4054
6.853 60.1132
6.89769 59.3983
6.94239 58.4708
6.98711 58.3934
7.03181 57.7729
7.07651 57.7648
7.12121 57.7045
7.16591 57.8785
7.21063 58.2415
7.25533 78.454
7.30004 243.109
7.34475 114.632
7.38945 59.5966
7.43416 56.8187
7.47889 56.3684
7.5236 56.875
7.56831 57.4635
7.61303 60.0697
7.65774 60.5626
7.70247 58.4144
7.74719 57.9945
7.79191 58.6494
7.83663 58.8465
7.88135 59.9521
7.92607 60.8493
7.97081 61.9897
8.01553 62.8215
8.06026 64.3098
8.10498 66.3606
8.14971 79.7098
8.19446 77.4737
8.23919 71.6186
8.28392 74.196
8.32865 76.346
8.37339 80.9594
8.41812 89.3804
8.46288 130.824
8.50761 189.287
8.55235 426.955
8.59709 979.709
8.64183 2052.08
8.68658 1277.28
8.73134 225.944
8.77609 107.787
8.82083 97.849
8.86558 93.787
8.91033 94.5601
8.9551 98.0105
8.99985 88.5057
9.04461 86.028
9.08936 85.6773
9.13412 84.7338
9.17888 84.7093
9.22365 85.5948
9.26841 84.6322
9.31318 85.1056
9.35794 85.6325
9.4027 85.8104
9.44749 86.5923
9.49226 87.2248
9.53703 87.9806
9.5818 90.6529
9.62657 96.331
9.67134 106.412
9.71614 97.4857
9.76091 97.4189
9.80569 99.7692
9.85047 103.508
9.89525 136.879
9.94005 155.876
9.98484 196.172
10.0296 372.331
10.0744 699.179
10.1192 1478.99
10.164 1813.18
10.2088 589.572
10.2536 153.235
10.2984 122.957
10.3432 125.515
10.388 110.517
10.4328 125.747
10.4776 170.199
10.5224 250.735
10.5672 443.872
10.612 548.917
10.6568 258.688
10.7017 106.083
10.7465 90.893
10.7913 86.7275
10.8361 84.1634
10.8809 81.8464
10.9257 81.9836
10.9706 83.8713
11.0154 78.299
11.0602 75.5771
11.105 74.8871
11.1499 81.362
11.1947 93.3455
11.2395 80.202
11.2844 74.4391
11.3292 70.0606
11.374 68.5043
11.4189 68.0534
11.4637 67.4839
11.5086 68.3962
11.5534 73.0162
11.5983 69.2815
11.6431 65.8148
11.688 65.3818
11.7328 65.4642
11.7777 64.9968
11.8225 64.6821
11.8674 64.5219
11.9122 64.8993
11.9571 65.2209
12.002 66.2527
12.0468 71.1031
12.0917 83.9623
12.1366 101.19
12.1814 135.713
12.2263 196.21
12.2712 194.305
12.3161 117.197
12.3609 77.163
12.4058 67.6971
12.4507 67.0394
12.4956 66.9355
12.5405 67.0063
12.5853 67.8838
12.6302 79.4527
12.6751 87.9966
12.72 74.0943
12.7649 70.6851
12.8098 70.6743
12.8547 72.1198
12.8996 73.3577
12.9445 74.5155
12.9894 76.344
13.0343 77.9045
13.0792 81.4616
13.1242 92.3125
13.1691 120.449
13.214 151.869
13.2589 209.423
13.3038 318.773
13.3487 447.794
13.3937 326.705
13.4386 149.998
13.4835 113.78
13.5285 128.575
13.5734 154.89
13.6183 212.053
13.6633 311.428
13.7082 372.054
13.7531 237.864
13.7981 112.606
13.843 86.1754
13.888 82.7028
13.9329 80.099
13.9779 78.4587
14.0228 77.0085
14.0678 75.5993
14.1127 75.1485
14.1577 75.5061
14.2027 74.0728
14.2476 72.7779
14.2926 73.2998
14.3376 75.1169
14.3825 73.4606
14.4275 71.1471
14.4725 70.8819
14.5175 71.0355
14.5624 71.3503
14.6074 74.6405
14.6524 75.237
14.6974 72.9923
14.7424 74.4698
14.7874 82.4796
14.8324 93.4348
14.8774 108.455
14.9224 136.504
14.9674 186.817
15.0124 227.947
15.0574 176.533
15.1024 104.542
15.1474 76.6491
15.1924 73.7085
15.2374 74.7812
15.2824 74.0833
15.3274 71.2788
15.3725 69.3784
15.4175 68.6656
15.4625 68.3971
15.5076 68.9214
15.5526 68.6898
15.5976 68.1678
15.6426 69.4973
15.6877 75.4489
15.7327 83.591
15.7778 94.5022
15.8228 114.567
15.8679 150.894
15.9129 193.583
15.958 180.918
16.003 116.784
16.0481 74.6475
16.0931 68.9197
16.1382 66.6621
16.1833 63.2887
16.2283 61.4908
16.2734 60.6863
16.3185 61.5093
16.3636 62.7457
16.4086 60.8024
16.4537 58.6171
16.4988 57.8509
16.5439 57.5509
16.589 57.3855
16.6341 56.9773
16.6792 56.661
16.7243 56.9568
16.7694 57.0656
16.8145 57.035
16.8596 57.3731
16.9047 59.6379
16.9498 59.9486
16.9949 58.0954
17.04 57.8181
17.0851 59.208
17.1302 60.9713
17.1754 63.7003
17.2205 66.8159
17.2656 72.1947
17.3108 81.6394
17.3559 85.9061
17.401 77.51
17.4462 66.1947
17.4913 61.5599
17.5365 61.1713
17.5815 61.2234
17.6268 61.6817
17.6718 62.5657
17.7171 63.3503
17.7622 63.3991
17.8074 64.0151
17.8525 66.4746
17.8977 71.0909
17.9428 76.7638
17.9881 82.8174
18.0331 93.8122
18.0784 112.0
18.1237 137.319
18.1688 143.2
18.214 117.686
18.2591 92.0842
18.3044 88.1367
18.3495 96.5029
18.3948 108.494
18.4399 105.727
18.4852 85.9682
18.5303 70.5279
18.5756 64.7598
18.6207 63.6745
18.666 62.6218
18.7112 62.1069
18.7565 61.1823
18.8016 60.9419
18.8469 60.1089
18.892 59.7807
18.9374 59.1758
18.9825 59.0947
19.0278 59.3144
19.073 59.1238
19.1183 59.7578
19.1635 60.8398
19.2088 61.9334
19.254 63.1041
19.2993 66.0047
19.3447 72.0454
19.3898 78.4738
19.4352 77.9238
19.4804 69.0892
19.5257 60.2979
19.5709 56.5684
19.6163 55.9187
19.6615 55.5738
19.7068 55.3296
19.752 55.1879
19.7974 55.4666
19.8426 56.6541
19.888 57.3939
19.9332 58.2189
19.9786 59.6193
20.0238 61.7881
20.0692 66.6483
20.1144 71.2955
20.1598 72.2299
20.205 67.259
20.2504 63.3584
20.2957 63.7841
20.3411 66.7265
20.3863 67.6996
20.4318 62.8282
20.477 57.0523
20.5224 54.3063
20.5677 53.2511
20.6131 52.2929
20.6586 51.5459
20.7038 51.4483
20.7493 50.8578
20.7945 50.7822
20.84 50.579
20.8853 50.4016
20.9307 50.2764
20.976 50.4083
21.0215 50.3561
21.0668 50.7786
21.1122 51.0954
21.1575 51.49
21.203 52.108
21.2483 52.8672
21.2938 53.335
21.3391 52.4076
21.3846 51.2697
21.4299 50.2116
21.4754 50.016
21.5207 50.3803
21.5662 50.4144
21.6116 51.013
21.6571 51.7201
21.7024 52.8162
21.7479 53.8909
21.7933 55.7292
21.8388 58.6393
21.8843 62.2868
21.9297 66.3708
21.9752 67.0789
22.0206 63.4204
22.0661 58.7598
22.1115 57.5769
22.157 58.0179
22.2024 57.269
22.248 54.2276
22.2933 52.185
22.3389 51.1527
22.3843 50.8986
22.4299 50.9561
22.4753 50.9183
22.5208 50.4317
22.5662 50.246
22.6118 50.5062
22.6572 50.6099
22.7028 51.1779
22.7483 51.3825
22.7939 51.9423
22.8393 52.9746
22.8849 54.4144
22.9303 56.2875
22.9759 58.9147
23.0214 60.1655
23.067 58.1308
23.1126 54.1551
23.1581 51.3915
23.2037 50.6168
23.2492 50.721
23.2948 50.5298
23.3403 50.8965
23.3859 51.2926
23.4314 51.8389
23.477 53.1417
23.5225 54.823
23.5682 57.2662
23.6137 59.7219
23.6593 58.9046
23.7048 55.0563
23.7505 51.0286
23.796 48.6453
23.8417 47.8104
23.8872 47.151
23.9329 46.9541
23.9784 46.4693
24.0241 46.2149
24.0697 45.974
24.1154 45.686
24.1609 45.658
24.2066 45.6428
24.2522 45.2539
24.2979 45.0849
24.3434 44.9616
24.3892 44.688
24.4349 44.6176
24.4805 44.3583
24.5262 44.5974
24.5718 44.3925
24.6175 44.4268
24.6631 44.4572
24.7089 44.2585
24.7545 44.0256
24.8002 43.8866
24.8458 43.8105
24.8916 43.544
24.9372 43.7393
24.983 43.9312
25.0286 44.0368
25.0744 44.4793
25.12 44.9186
25.1658 45.5225
25.2114 46.013
25.2572 46.1978
25.3029 46.1475
25.3487 46.2615
25.3943 46.4487
25.4402 45.6415
25.4858 44.4894
25.5316 43.2631
25.5773 42.5322
25.6231 42.3875
25.669 42.0514
25.7147 41.7489
25.7605 41.9826
25.8062 41.9357
25.8521 42.1429
25.8977 42.0292
25.9436 42.1341
25.9893 42.1601
26.0352 42.5817
26.0809 42.8464
26.1268 43.1026
26.1725 43.2117
26.2184 42.6498
26.2641 41.9558
26.31 41.5849
26.3557 41.6298
26.4017 41.5437
26.4474 41.7335
26.4933 42.0057
26.5391 42.4426
26.585 42.8055
26.6308 43.1722
26.6767 43.5488
26.7225 43.6991
26.7684 43.0505
26.8142 42.5149
26.8601 41.9859
26.9059 41.694
26.9519 41.0915
26.9979 40.8175
27.0437 40.2269
27.0896 40.0377
27.1354 40.1737
27.1814 39.9349
27.2272 39.9062
27.2732 39.9064
27.3191 39.6448
27.3651 39.6783
27.4109 39.5898
27.4569 39.7408
27.5027 39.7025
27.5488 39.9592
27.5946 39.8355
27.6407 39.6719
27.6865 39.5406
27.7326 39.16
27.7784 39.1291
27.8245 39.0915
27.8703 39.2897
27.9164 39.3816
27.9623 39.4014
28.0084 39.7178
28.0543 40.2754
28.1003 40.468
28.1462 40.2931
28.1923 39.8664
28.2384 39.5721
28.2843 39.0776
28.3304 38.7058
28.3764 38.2457
28.4225 37.8534
28.4684 37.5606
28.5145 37.1659
28.5605 37.1957
28.6066 36.9674
28.6526 36.8757
28.6987 36.8962
28.7447 36.7069
28.7908 36.5457
28.8368 36.5441
28.8829 36.5616
28.9289 36.6012
28.9751 36.4845
29.0211 36.3678
29.0673 36.0178
29.1133 35.7675
29.1595 35.5365
29.2055 35.508
29.2517 35.5786
29.2977 35.4313
29.3439 35.3923
29.3899 35.3113
29.4361 35.4253
29.4824 35.194
29.5284 35.073
29.5746 34.6414
29.6207 34.278
29.6669 34.2963
29.713 34.2721
29.7593 34.1073
29.8053 34.0073
29.8516 34.0292
29.8977 33.987
29.9439 33.8117
29.99 33.7408
30.0363 33.5926
30.0824 33.5995
30.1287 33.4839
30.1748 33.5733
30.2211 33.5437
30.2673 33.389
30.3136 33.5721
30.3597 33.4951
30.406 33.3124
30.4522 33.159
30.4985 33.172
30.5447 33.2386
30.591 33.2149
30.6372 33.1576
30.6835 33.2839
30.7297 33.294
30.7761 33.3831
30.8224 33.1173
30.8686 33.1083
30.915 32.8519
30.9612 32.6915
31.0076 32.328
31.0538 32.3285
31.1002 32.2164
31.1464 32.0559
31.1928 32.0181
31.2391 32.119
31.2855 31.9585
31.3317 31.8327
31.3781 31.9594
31.4244 31.9592
31.4708 31.7877
31.5171 31.8987
31.5636 31.9461
31.6098 31.678
31.6563 31.4785
31.7026 31.3782
31.7491 31.1794
31.7953 31.1773
31.8418 31.1626
31.8881 31.1992
31.9346 31.0957
31.9809 31.0995
32.0275 31.005
32.074 30.902
32.1203 30.7327
32.1668 30.6068
32.2132 30.4259
32.2597 30.302
32.306 30.208
32.3526 30.0677
32.399 29.9878
32.4455 29.8176
32.4919 29.6249
32.5385 29.6585
32.5848 29.526
32.6314 29.5263
32.6778 29.3383
32.7244 29.3149
32.7708 29.1479
32.8174 29.1782
32.8638 29.073
32.9104 29.1212
32.9569 29.0275
33.0035 28.8884
33.0499 28.93
33.0966 28.7023
33.143 28.7852
33.1897 28.7005
33.2361 28.6819
33.2828 28.5843
33.3293 28.3617
33.3759 28.3858
33.4226 28.2424
33.4691 28.1406
33.5158 27.9713
33.5623 27.8639
33.609 27.7276
33.6555 27.7261
33.7022 27.5956
33.7487 27.4902
33.7954 27.391
33.842 27.2999
33.8887 27.2569
33.9353 27.1806
33.982 27.0947
34.0286 26.9679
34.0753 26.9721
34.1219 26.8505
34.1687 26.7854
34.2152 26.6927
34.262 26.4588
34.3086 26.4257
34.3554 26.475
34.402 26.3673
34.4488 26.284
34.4954 26.1264
34.5422 26.0808
34.5889 25.977
34.6357 25.8282
34.6825 25.8506
34.7292 25.7416
34.776 25.6242
34.8227 25.6463
34.8695 25.5142
34.9162 25.3941
34.9631 25.4206
35.0098 25.3979
35.0566 25.1436
35.1033 25.1247
35.1502 25.0992
35.1969 25.0753
35.2438 24.9772
35.2906 24.9357
35.3375 24.9115
35.3842 24.9095
35.4311 24.761
35.4779 24.8262
35.5248 24.7323
35.5716 24.6545
35.6185 24.493
35.6653 24.4218
35.7123 24.3984
35.759 24.3765
35.806 24.1999
35.8528 24.1014
35.8998 24.0328
35.9468 23.9547
35.9936 23.8623
36.0406 23.8591
36.0874 23.788
36.1345 23.6615
36.1813 23.6602
36.2283 23.5795
36.2752 23.4386
36.3222 23.5314
36.3691 23.4231
36.4161 23.2156
36.463 23.1891
36.5101 23.2528
36.557 23.1747
36.6041 22.9154
36.651 22.9604
36.6981 22.9911
36.745 22.8732
36.7921 22.7625
36.839 22.6818
36.8861 22.5674
36.9331 22.5308
36.9802 22.4226
37.0272 22.3187
37.0743 22.251
37.1213 22.2474
37.1684 22.1822
37.2154 22.1237
37.2626 21.9613
37.3098 21.9702
37.3568 21.9307
37.404 21.8281
37.451 21.7588
37.4982 21.6819
37.5452 21.5971
37.5924 21.5642
37.6395 21.559
37.6867 21.4728
37.7337 21.3821
37.781 21.3353
37.8281 21.2179
37.8753 21.1638
37.9224 21.0822
37.9697 21.0532
38.0168 20.9699
38.064 20.8557
38.1111 20.8389
38.1584 20.7329
38.2056 20.6863
38.2529 20.6242
38.3 20.5914
38.3473 20.5167
38.3945 20.4509
38.4418 20.4128
38.489 20.366
38.5363 20.2404
38.5837 20.1227
38.6309 20.0939
38.6782 20.0564
38.7254 19.9983
38.7728 19.9138
38.82 19.8527
38.8674 19.8503
38.9146 19.7356
38.9621 19.6292
39.0093 19.6352
39.0567 19.5431
39.104 19.4689
39.1514 19.3869
39.1987 19.3959
39.2461 19.3498
39.2934 19.2268
39.3409 19.1582
39.3882 19.0322
39.4356 19.0753
39.483 18.9142
39.5304 18.9386
39.5778 18.9329
39.6253 18.7902
39.6726 18.7352
39.7201 18.7211
39.7675 18.6904
39.815 18.5607
39.8624 18.4931
39.9099 18.4761
39.9575 18.4158
40.0049 18.3653
40.0525 18.2904
40.0999 18.2002
40.1474 18.2229
40.1949 18.0662
40.2425 18.0825
40.2899 17.9685
40.3375 17.9158
40.385 17.8734
40.4326 17.8484
40.48 17.7224
40.5277 17.725
40.5752 17.6461
40.6228 17.5879
40.6703 17.548
40.718 17.4828
40.7655 17.466
40.8132 17.3778
40.8607 17.366
40.9084 17.2636
40.9559 17.1696
41.0036 17.1453
41.0512 17.0826
41.0989 17.1068
41.1465 17.001
41.1942 16.9288
41.242 16.8371
41.2896 16.858
41.3373 16.769
41.3849 16.7095
41.4327 16.69
41.4803 16.5384
41.5281 16.5579
41.5758 16.5054
41.6236 16.3978
41.6712 16.3108
41.7191 16.3276
41.7667 16.2258
41.8146 16.2678
41.8622 16.1169
41.9101 16.1266
41.9578 15.9784
42.0057 15.9854
42.0534 15.9213
42.1013 15.8909
42.149 15.8194
42.1969 15.7722
42.2446 15.7037
42.2925 15.6805
42.3403 15.5832
42.3882 15.5869
42.436 15.4862
42.4839 15.4039
42.5319 15.4182
42.5797 15.365
42.6277 15.2764
42.6755 15.2521
42.7235 15.2122
42.7713 15.1228
42.8193 15.1506
42.8671 15.0412
42.9152 15.0286
42.963 14.8924
43.0111 14.9109
43.0589 14.8572
43.107 14.7734
43.1549 14.7628
43.2029 14.6879
43.2508 14.6564
43.2989 14.5474
43.3468 14.5171
43.3949 14.4824
43.4429 14.4525
43.491 14.4374
43.5389 14.3515
43.5871 14.28
43.635 14.2178
43.6832 14.2138
43.7312 14.146
43.7793 14.085
43.8273 14.0489
43.8755 13.9533
43.9237 13.9613
43.9717 13.8999
44.0199 13.8828
44.068 13.8629
44.1162 13.7732
44.1642 13.7468
44.2125 13.695
44.2606 13.6059
44.3088 13.5689
44.3569 13.5126
44.4052 13.5121
44.4533 13.4359
44.5016 13.3966
44.5497 13.3641
44.598 13.3032
44.6461 13.2155
44.6945 13.2152
44.7426 13.1297
44.791 13.079
44.8391 13.0532
44.8875 13.0146
44.9357 13.0076
44.984 12.933
45.0322 12.8982
45.0806 12.8444
45.1288 12.8206
45.1773 12.821
45.2257 12.6522
45.2739 12.6731
45.3224 12.6151
45.3706 12.5901
45.4191 12.501
45.4673 12.4583
45.5158 12.4201
45.5641 12.3593
45.6126 12.3541
45.6609 12.2723
45.7094 12.2022
45.7577 12.2118
45.8063 12.1659
45.8546 12.1318
45.9031 12.054
45.9515 12.0343
46.0001 11.9828
46.0484 11.9567
46.097 11.9395
46.1454 11.8794
46.194 11.838
46.2424 11.7596
46.291 11.7746
46.3395 11.6797
46.3881 11.6083
46.4365 11.6121
46.4852 11.5759
46.5337 11.4965
46.5823 11.4854
46.631 11.4432
46.6795 11.407
46.7282 11.3595
46.7767 11.3126
46.8254 11.2714
46.8739 11.1763
46.9226 11.1887
46.9712 11.1597
47.0199 11.1397
47.0685 11.087
47.1173 11.0252
47.1658 10.98
47.2146 10.8993
47.2632 10.8977
47.312 10.8673
47.3606 10.8129
47.4095 10.7642
47.4581 10.7097
47.5069 10.7131
47.5556 10.6266
47.6044 10.6067
47.6531 10.6015
47.702 10.5206
47.7507 10.51
47.7996 10.4465
47.8483 10.4633
47.8972 10.4238
47.9461 10.3456
47.9948 10.2873
48.0438 10.2818
48.0925 10.2324
48.1415 10.1787
48.1902 10.125
48.2392 10.1514
48.288 10.0926
48.337 10.0739
48.3858 9.97308
48.4348 9.99677
48.4837 9.96878
48.5327 9.88915
48.5815 9.89103
48.6306 9.88432
48.6795 9.80098
48.7285 9.76208
48.7774 9.74915
48.8265 9.71812
48.8754 9.62808
48.9245 9.62015
48.9734 9.60056
49.0226 9.53761
49.0715 9.51886
49.1206 9.47236
49.1696 9.43618
49.2188 9.43256
49.2679 9.35109
49.3169 9.31383
49.3661 9.33517
49.4151 9.26215
49.4643 9.22339
49.5134 9.18464
49.5626 9.12372
49.6117 9.12056
49.6609 9.08801
49.71 9.05248
49.7592 9.02899
49.8083 8.94732
49.8576 8.96927
49.9067 8.90625
49.956 8.93283
50.0052 8.84376
50.0545 8.80485
50.1036 8.78248
50.153 8.73862
50.2022 8.73316
50.2515 8.6762
50.3007 8.60891
50.3501 8.56145
50.3993 8.55317
50.4487 8.60621
50.498 8.50098
50.5474 8.48972
50.5966 8.4436
50.6461 8.40762
50.6955 8.35706
50.7448 8.36444
50.7943 8.302
50.8436 8.28588
50.8931 8.25702
50.9424 8.19433
50.9919 8.202
51.0413 8.1357
51.0908 8.13683
51.1402 8.09974
51.1897 8.06296
51.2391 8.02905
51.2887 7.98231
51.3381 7.93246
51.3877 7.96741
51.4371 7.89209
51.4867 7.84871
51.5362 7.81447
51.5858 7.76447
51.6353 7.73661
51.6849 7.73354
51.7344 7.70985
51.7841 7.66655
51.8336 7.66946
51.8833 7.5928
51.9328 7.57141
51.9826 7.52311
52.0323 7.46003
52.0818 7.45779
52.1316 7.44517
52.1812 7.42426
52.231 7.40407
52.2806 7.33978
52.3304 7.3701
52.38 7.27978
52.4298 7.27294
52.4794 7.24059
52.5293 7.20447
52.5789 7.15561
52.6288 7.1839
52.6785 7.105
52.7284 7.05957
52.7781 7.06934
52.828 7.03949
52.8777 6.97407
52.9276 6.95603
52.9774 6.96258
53.0273 6.92728
53.0771 6.89146
53.1271 6.86933
53.1769 6.8375
53.2269 6.82038
53.2767 6.74069
53.3267 6.73302
53.3765 6.66851
53.4266 6.69074
53.4766 6.63797
53.5265 6.59755
53.5765 6.61019
53.6264 6.5733
53.6765 6.52772
53.7264 6.50158
53.7765 6.5235
53.8265 6.44277
53.8766 6.39366
53.9266 6.37467
53.9767 6.32387
54.0267 6.32288
54.0769 6.30956
54.1269 6.295
54.1771 6.252
54.2271 6.16078
54.2773 6.15679
54.3274 6.13041
54.3776 6.11182
54.4277 6.08212
54.478 6.02656
54.528 5.98276
54.5783 5.92311
54.6285 5.91788
54.6788 5.85791
54.7289 5.80681
54.7792 5.8284
54.8296 5.74089
54.8798 5.68687
54.9301 5.60845
54.9803 5.63336
55.0307 5.62516
55.0809 5.57065
55.1314 5.5123
55.1816 5.47077
55.232 5.40476
55.2823 5.36448
55.3328 5.37342
55.383 5.25929
55.4335 5.2082
55.4838 5.15551
55.5344 5.15183
55.5847 5.10052
55.6352 5.04971
55.6856 5.06784
55.7361 4.97932