File: XRD/Ni3Fe_FD0207.xy
TT I
1.27165 8.12321
1.31627 7.37688
1.36089 7.00943
1.40551 7.2584
1.45013 6.84712
1.49476 6.97989
1.53938 6.53754
1.584 5.67485
1.62863 6.56937
1.67325 5.97067
1.71787 5.91658
1.7625 5.79482
1.80712 5.65181
1.85174 5.47068
1.89636 5.34222
1.94099 4.72095
1.98562 5.24089
2.03025 5.19061
2.07487 4.32067
2.11949 5.49813
2.16411 4.4157
2.20874 4.99495
2.25338 4.4752
2.298 5.05446
2.34263 4.62059
2.38725 5.03843
2.43188 4.79033
2.4765 5.0875
2.52115 4.13836
2.56577 5.26217
2.6104 5.76723
2.65503 5.87501
2.69965 6.19094
2.7443 6.73996
2.78893 6.47151
2.83356 7.33161
2.87818 7.69494
2.92281 8.31542
2.96744 9.47167
3.01209 10.6023
3.05672 11.0616
3.10135 12.4669
3.14599 12.8296
3.19062 14.1668
3.23527 14.8098
3.2799 16.0306
3.32454 16.9938
3.36917 18.0128
3.4138 19.2651
3.45844 19.5629
3.50309 20.6828
3.54773 21.2559
3.59237 22.2157
3.637 23.1121
3.68164 23.765
3.7263 25.2083
3.77094 25.9255
3.81558 26.952
3.86022 28.0639
3.90486 28.8761
3.9495 30.3876
3.99416 31.0788
4.0388 32.6118
4.08344 34.1243
4.12809 35.0199
4.17273 36.0386
4.21738 37.6953
4.26204 39.2817
4.30669 40.8874
4.35133 42.5481
4.39598 44.3666
4.44063 46.7549
4.4853 48.674
4.52995 51.6443
4.5746 53.6286
4.61925 55.814
4.6639 58.3248
4.70855 61.6288
4.75322 64.5962
4.79788 67.6779
4.84253 72.0538
4.88719 76.8383
4.93184 82.2364
4.97652 88.888
5.02118 97.5287
5.06583 108.046
5.11049 125.601
5.15515 170.418
5.19981 890.188
5.24449 3964.74
5.28916 10296.8
5.33382 4356.53
5.37848 289.492
5.42315 156.239
5.46783 130.032
5.5125 118.857
5.55716 113.192
5.60183 107.602
5.6465 104.79
5.69117 103.742
5.73586 101.232
5.78053 101.565
5.8252 101.699
5.86988 105.346
5.91455 111.496
5.95924 135.594
6.00392 445.649
6.0486 1434.04
6.09328 3575.06
6.13795 3823.86
6.18263 399.013
6.22733 112.073
6.27201 90.1956
6.3167 81.5961
6.36138 76.3589
6.40606 72.6149
6.45075 70.9806
6.49545 68.9038
6.54014 66.755
6.58483 65.7455
6.62952 64.4068
6.67421 62.5304
6.71892 61.7126
6.76361 60.8481
6.8083 59.9249
6.853 59.548
6.89769 58.5155
6.94239 58.4717
6.98711 57.6398
7.03181 57.5897
7.07651 57.1703
7.12121 56.8063
7.16591 56.7349
7.21063 56.2625
7.25533 55.8244
7.30004 55.7568
7.34475 56.1034
7.38945 56.1895
7.43416 55.6446
7.47889 55.8363
7.5236 57.0351
7.56831 58.6288
7.61303 57.7408
7.65774 57.2891
7.70247 58.3477
7.74719 58.202
7.79191 59.417
7.83663 59.3846
7.88135 60.5334
7.92607 61.5495
7.97081 62.7103
8.01553 63.9924
8.06026 65.4031
8.10498 67.1191
8.14971 69.0279
8.19446 70.7422
8.23919 73.267
8.28392 76.8056
8.32865 79.4996
8.37339 84.7811
8.41812 91.1947
8.46288 110.271
8.50761 290.685
8.55235 596.872
8.59709 1043.27
8.64183 1947.04
8.68658 1268.89
8.73134 233.95
8.77609 112.593
8.82083 100.914
8.86558 96.3973
8.91033 93.5497
8.9551 91.3026
8.99985 89.6433
9.04461 88.8398
9.08936 87.7196
9.13412 87.3843
9.17888 86.8854
9.22365 88.1775
9.26841 88.9339
9.31318 88.775
9.35794 88.2438
9.4027 88.2592
9.44749 89.1859
9.49226 90.0411
9.53703 91.1264
9.5818 92.9418
9.62657 94.2421
9.67134 96.0633
9.71614 98.1392
9.76091 100.147
9.80569 103.455
9.85047 107.362
9.89525 113.17
9.94005 134.643
9.98484 303.389
10.0296 528.745
10.0744 786.513
10.1192 1419.11
10.164 1728.94
10.2088 603.499
10.2536 154.442
10.2984 118.72
10.3432 113.447
10.388 114.39
10.4328 159.582
10.4776 215.821
10.5224 278.74
10.5672 432.758
10.612 530.506
10.6568 263.194
10.7017 109.403
10.7465 93.0192
10.7913 88.5232
10.8361 85.7097
10.8809 83.4597
10.9257 80.9928
10.9706 80.0239
11.0154 77.8498
11.0602 76.7443
11.105 75.5652
11.1499 73.78
11.1947 72.5607
11.2395 71.3503
11.2844 71.304
11.3292 70.1447
11.374 69.4316
11.4189 68.9593
11.4637 67.9903
11.5086 67.3771
11.5534 66.9751
11.5983 66.817
11.6431 66.6483
11.688 65.8312
11.7328 65.9482
11.7777 65.7065
11.8225 65.7266
11.8674 65.9139
11.9122 66.2636
11.9571 66.8888
12.002 68.7485
12.0468 80.0083
12.0917 95.7992
12.1366 108.59
12.1814 137.028
12.2263 186.688
12.2712 186.006
12.3161 106.373
12.3609 70.9884
12.4058 67.5585
12.4507 67.4964
12.4956 67.6313
12.5405 67.8253
12.5853 68.2594
12.6302 68.2955
12.6751 68.9104
12.72 69.8949
12.7649 71.0593
12.8098 71.7932
12.8547 73.3381
12.8996 75.0668
12.9445 76.5872
12.9894 78.4432
13.0343 80.743
13.0792 86.2718
13.1242 110.24
13.1691 150.031
13.214 175.791
13.2589 225.222
13.3038 311.861
13.3487 413.439
13.3937 319.034
13.4386 153.954
13.4835 135.167
13.5285 156.024
13.5734 173.558
13.6183 221.169
13.6633 304.978
13.7082 366.667
13.7531 241.935
13.7981 115.327
13.843 87.7228
13.888 84.3624
13.9329 81.7037
13.9779 80.2333
14.0228 78.6849
14.0678 77.28
14.1127 76.8546
14.1577 75.8438
14.2027 75.4123
14.2476 74.3159
14.2926 73.6413
14.3376 73.2678
14.3825 73.0731
14.4275 72.5861
14.4725 72.567
14.5175 72.6931
14.5624 72.9183
14.6074 73.1135
14.6524 73.8001
14.6974 74.7326
14.7424 80.6016
14.7874 95.8436
14.8324 108.227
14.8774 119.117
14.9224 142.616
14.9674 182.239
15.0124 221.719
15.0574 178.25
15.1024 106.279
15.1474 78.0216
15.1924 74.0991
15.2374 72.7179
15.2824 71.9127
15.3274 70.964
15.3725 70.4547
15.4175 70.0176
15.4625 69.8732
15.5076 69.4511
15.5526 69.6342
15.5976 69.8369
15.6426 74.39
15.6877 86.9079
15.7327 96.2904
15.7778 103.565
15.8228 120.336
15.8679 150.226
15.9129 186.548
15.958 177.2
16.003 116.232
16.0481 74.7659
16.0931 66.2813
16.1382 64.2723
16.1833 63.4165
16.2283 61.8429
16.2734 61.1148
16.3185 60.4409
16.3636 60.0344
16.4086 59.1736
16.4537 58.6538
16.4988 58.1481
16.5439 58.1422
16.589 57.7614
16.6341 57.6845
16.6792 57.3464
16.7243 57.5161
16.7694 57.3203
16.8145 57.4477
16.8596 57.3847
16.9047 57.7828
16.9498 57.7878
16.9949 58.0689
17.04 59.5042
17.0851 62.0442
17.1302 63.9544
17.1754 65.8327
17.2205 68.6463
17.2656 73.4009
17.3108 81.4772
17.3559 85.093
17.401 78.1886
17.4462 67.6954
17.4913 62.7802
17.5365 62.176
17.5815 62.4528
17.6268 62.7431
17.6718 63.1099
17.7171 63.6865
17.7622 64.8785
17.8074 66.4878
17.8525 72.0313
17.8977 79.0766
17.9428 83.6055
17.9881 87.9789
18.0331 98.0626
18.0784 113.224
18.1237 136.919
18.1688 145.232
18.214 121.75
18.2591 94.7768
18.3044 90.0333
18.3495 96.0435
18.3948 106.176
18.4399 103.0
18.4852 85.6422
18.5303 71.0365
18.5756 65.9259
18.6207 64.7465
18.666 63.5648
18.7112 62.6694
18.7565 62.2158
18.8016 61.8612
18.8469 61.2366
18.892 60.7237
18.9374 60.2325
18.9825 60.056
19.0278 59.8011
19.073 60.3247
19.1183 61.5587
19.1635 62.4632
19.2088 63.062
19.254 64.6558
19.2993 67.2256
19.3447 70.9432
19.3898 76.1788
19.4352 76.4447
19.4804 69.3765
19.5257 61.2819
19.5709 57.3968
19.6163 56.822
19.6615 56.5321
19.7068 56.0657
19.752 56.1977
19.7974 57.1658
19.8426 58.3538
19.888 59.182
19.9332 59.7246
19.9786 61.2824
20.0238 63.8676
20.0692 68.0318
20.1144 72.5545
20.1598 73.4179
20.205 68.5305
20.2504 64.5863
20.2957 64.3049
20.3411 66.7466
20.3863 67.7281
20.4318 63.1533
20.477 57.3567
20.5224 54.0841
20.5677 53.2388
20.6131 52.6236
20.6586 52.2004
20.7038 52.2196
20.7493 51.7509
20.7945 51.6081
20.84 51.589
20.8853 51.4481
20.9307 51.3994
20.976 51.7074
21.0215 51.2644
21.0668 51.7041
21.1122 52.0789
21.1575 52.1764
21.203 52.7877
21.2483 53.4297
21.2938 54.1454
21.3391 53.0222
21.3846 51.8905
21.4299 51.1813
21.4754 51.0242
21.5207 51.3781
21.5662 52.056
21.6116 52.9754
21.6571 53.896
21.7024 54.5659
21.7479 55.6558
21.7933 57.2877
21.8388 60.0389
21.8843 63.203
21.9297 66.6581
21.9752 67.0452
22.0206 63.4891
22.0661 59.2069
22.1115 57.7317
22.157 58.3466
22.2024 57.7386
22.248 55.0626
22.2933 52.7488
22.3389 51.7179
22.3843 51.333
22.4299 51.0857
22.4753 51.0359
22.5208 51.0281
22.5662 51.0784
22.6118 51.53
22.6572 52.2418
22.7028 52.7164
22.7483 53.0219
22.7939 53.3071
22.8393 54.2031
22.8849 55.3459
22.9303 57.0444
22.9759 58.9595
23.0214 60.0173
23.067 58.3872
23.1126 54.9729
23.1581 52.3032
23.2037 51.4168
23.2492 52.01
23.2948 52.3351
23.3403 52.4607
23.3859 52.8616
23.4314 53.2901
23.477 54.3052
23.5225 55.4382
23.5682 57.2943
23.6137 59.4238
23.6593 59.03
23.7048 55.6704
23.7505 51.788
23.796 49.3237
23.8417 48.6626
23.8872 48.0218
23.9329 47.5215
23.9784 47.2285
24.0241 46.8555
24.0697 46.6633
24.1154 46.2224
24.1609 46.1559
24.2066 45.9468
24.2522 45.8606
24.2979 45.5513
24.3434 45.4693
24.3892 45.2766
24.4349 45.2359
24.4805 45.0775
24.5262 45.3206
24.5718 44.9547
24.6175 45.0437
24.6631 44.9205
24.7089 44.6806
24.7545 44.5939
24.8002 44.3376
24.8458 44.4942
24.8916 44.4182
24.9372 44.4968
24.983 44.9109
25.0286 45.2213
25.0744 45.4528
25.12 45.7469
25.1658 46.1007
25.2114 46.6365
25.2572 46.6016
25.3029 46.3918
25.3487 46.6722
25.3943 46.911
25.4402 46.0366
25.4858 44.8863
25.5316 43.8175
25.5773 43.0997
25.6231 43.0633
25.669 42.6433
25.7147 42.6128
25.7605 42.5346
25.8062 42.535
25.8521 42.7194
25.8977 42.5456
25.9436 42.7449
25.9893 42.7994
26.0352 43.1128
26.0809 43.2721
26.1268 43.5148
26.1725 43.5373
26.2184 43.1542
26.2641 42.6744
26.31 42.2536
26.3557 42.3747
26.4017 42.2973
26.4474 42.529
26.4933 42.5831
26.5391 43.0639
26.585 43.2649
26.6308 43.6153
26.6767 44.0327
26.7225 44.1477
26.7684 43.6422
26.8142 43.0244
26.8601 42.5761
26.9059 42.1038
26.9519 41.6574
26.9979 41.3538
27.0437 40.9119
27.0896 40.8272
27.1354 40.7626
27.1814 40.611
27.2272 40.4784
27.2732 40.6352
27.3191 40.2522
27.3651 40.4198
27.4109 40.2463
27.4569 40.3478
27.5027 40.4009
27.5488 40.4925
27.5946 40.3797
27.6407 40.2178
27.6865 40.1614
27.7326 39.9061
27.7784 39.9854
27.8245 39.6885
27.8703 39.9341
27.9164 40.1196
27.9623 40.0189
28.0084 40.2308
28.0543 40.6923
28.1003 40.7865
28.1462 40.7055
28.1923 40.2749
28.2384 39.8286
28.2843 39.6533
28.3304 39.1817
28.3764 38.5819
28.4225 38.3269
28.4684 38.078
28.5145 37.8371
28.5605 37.5998
28.6066 37.5423
28.6526 37.3691
28.6987 37.3339
28.7447 37.1564
28.7908 37.2218
28.8368 37.1106
28.8829 37.077
28.9289 36.9884
28.9751 36.971
29.0211 36.747
29.0673 36.4267
29.1133 36.2881
29.1595 36.0382
29.2055 36.0226
29.2517 36.0221
29.2977 35.9701
29.3439 35.9498
29.3899 35.7634
29.4361 35.7377
29.4824 35.6311
29.5284 35.5062
29.5746 35.0212
29.6207 34.7555
29.6669 34.6406
29.713 34.7092
29.7593 34.4504
29.8053 34.4995
29.8516 34.3838
29.8977 34.5416
29.9439 34.2991
29.99 34.1802
30.0363 34.0418
30.0824 34.0151
30.1287 33.9098
30.1748 33.9865
30.2211 33.95
30.2673 33.8863
30.3136 34.0127
30.3597 34.0183
30.406 33.8595
30.4522 33.7756
30.4985 33.6459
30.5447 33.7063
30.591 33.641
30.6372 33.7345
30.6835 33.6653
30.7297 33.7348
30.7761 33.6516
30.8224 33.646
30.8686 33.4124
30.915 33.1845
30.9612 33.0493
31.0076 32.836
31.0538 32.7465
31.1002 32.6249
31.1464 32.6334
31.1928 32.5677
31.2391 32.5041
31.2855 32.4082
31.3317 32.384
31.3781 32.4303
31.4244 32.3926
31.4708 32.2706
31.5171 32.3696
31.5636 32.3401
31.6098 32.1152
31.6563 31.9547
31.7026 31.7545
31.7491 31.5595
31.7953 31.5908
31.8418 31.6768
31.8881 31.5901
31.9346 31.545
31.9809 31.4453
32.0275 31.3844
32.074 31.4042
32.1203 31.0491
32.1668 31.0537
32.2132 30.9124
32.2597 30.8214
32.306 30.6131
32.3526 30.382
32.399 30.4203
32.4455 30.2508
32.4919 30.1447
32.5385 30.0343
32.5848 29.9418
32.6314 29.9208
32.6778 29.912
32.7244 29.7515
32.7708 29.6008
32.8174 29.5029
32.8638 29.4274
32.9104 29.466
32.9569 29.3774
33.0035 29.2402
33.0499 29.1193
33.0966 29.1355
33.143 29.1464
33.1897 29.0337
33.2361 28.9195
33.2828 28.9114
33.3293 28.7842
33.3759 28.7534
33.4226 28.6507
33.4691 28.4953
33.5158 28.3319
33.5623 28.3188
33.609 28.1058
33.6555 27.9339
33.7022 27.8704
33.7487 27.8146
33.7954 27.8356
33.842 27.6695
33.8887 27.5316
33.9353 27.5329
33.982 27.4524
34.0286 27.3396
34.0753 27.2373
34.1219 27.1044
34.1687 27.0726
34.2152 27.0875
34.262 26.8732
34.3086 26.7773
34.3554 26.7507
34.402 26.5945
34.4488 26.4747
34.4954 26.517
34.5422 26.3954
34.5889 26.2266
34.6357 26.2221
34.6825 26.1415
34.7292 25.9771
34.776 25.9205
34.8227 25.8692
34.8695 25.824
34.9162 25.8049
34.9631 25.6697
35.0098 25.6117
35.0566 25.496
35.1033 25.4708
35.1502 25.4742
35.1969 25.3071
35.2438 25.3203
35.2906 25.2267
35.3375 25.2487
35.3842 25.1312
35.4311 25.1164
35.4779 25.0583
35.5248 25.043
35.5716 24.9319
35.6185 24.8739
35.6653 24.7454
35.7123 24.8212
35.759 24.5401
35.806 24.5054
35.8528 24.3428
35.8998 24.3111
35.9468 24.2549
35.9936 24.2471
36.0406 24.0964
36.0874 24.0495
36.1345 23.9875
36.1813 23.9763
36.2283 23.7771
36.2752 23.7711
36.3222 23.7364
36.3691 23.6825
36.4161 23.502
36.463 23.4562
36.5101 23.5374
36.557 23.4421
36.6041 23.254
36.651 23.2751
36.6981 23.1245
36.745 23.1481
36.7921 23.0651
36.839 23.0478
36.8861 22.9221
36.9331 22.8049
36.9802 22.8151
37.0272 22.6616
37.0743 22.552
37.1213 22.5149
37.1684 22.4832
37.2154 22.4088
37.2626 22.3327
37.3098 22.2531
37.3568 22.1769
37.404 22.1177
37.451 21.9591
37.4982 21.9628
37.5452 21.8449
37.5924 21.8031
37.6395 21.8194
37.6867 21.7218
37.7337 21.6111
37.781 21.451
37.8281 21.5111
37.8753 21.2998
37.9224 21.3735
37.9697 21.225
38.0168 21.2127
38.064 21.0937
38.1111 21.0405
38.1584 20.9733
38.2056 20.922
38.2529 20.851
38.3 20.7698
38.3473 20.7777
38.3945 20.6885
38.4418 20.5787
38.489 20.5848
38.5363 20.4497
38.5837 20.3718
38.6309 20.353
38.6782 20.199
38.7254 20.1589
38.7728 20.1661
38.82 20.0853
38.8674 20.0059
38.9146 20.0052
38.9621 19.847
39.0093 19.8307
39.0567 19.777
39.104 19.6843
39.1514 19.5933
39.1987 19.5257
39.2461 19.5127
39.2934 19.4795
39.3409 19.3314
39.3882 19.2829
39.4356 19.2822
39.483 19.2082
39.5304 19.1706
39.5778 19.1723
39.6253 19.0658
39.6726 19.0001
39.7201 18.9741
39.7675 18.8712
39.815 18.7816
39.8624 18.6885
39.9099 18.7915
39.9575 18.6037
40.0049 18.54
40.0525 18.4918
40.0999 18.4196
40.1474 18.3448
40.1949 18.317
40.2425 18.226
40.2899 18.1447
40.3375 18.1718
40.385 18.0975
40.4326 18.023
40.48 17.9106
40.5277 17.957
40.5752 17.8562
40.6228 17.7702
40.6703 17.7702
40.718 17.6938
40.7655 17.6524
40.8132 17.512
40.8607 17.5087
40.9084 17.5405
40.9559 17.3644
41.0036 17.4036
41.0512 17.3435
41.0989 17.2861
41.1465 17.2367
41.1942 17.2041
41.242 17.0131
41.2896 17.0198
41.3373 16.9121
41.3849 16.8739
41.4327 16.8726
41.4803 16.7412
41.5281 16.7358
41.5758 16.6405
41.6236 16.569
41.6712 16.5423
41.7191 16.4545
41.7667 16.4005
41.8146 16.4111
41.8622 16.3003
41.9101 16.2792
41.9578 16.2071
42.0057 16.1408
42.0534 16.1498
42.1013 16.0486
42.149 16.001
42.1969 15.9605
42.2446 15.8667
42.2925 15.8208
42.3403 15.7852
42.3882 15.7505
42.436 15.701
42.4839 15.6352
42.5319 15.5392
42.5797 15.5239
42.6277 15.4652
42.6755 15.4558
42.7235 15.2893
42.7713 15.3111
42.8193 15.2598
42.8671 15.2215
42.9152 15.2245
42.963 15.0773
43.0111 15.0181
43.0589 14.9264
43.107 14.9295
43.1549 14.9224
43.2029 14.8544
43.2508 14.7769
43.2989 14.7425
43.3468 14.7143
43.3949 14.6545
43.4429 14.594
43.491 14.4886
43.5389 14.4693
43.5871 14.47
43.635 14.4159
43.6832 14.3554
43.7312 14.2549
43.7793 14.2472
43.8273 14.2139
43.8755 14.1365
43.9237 14.1089
43.9717 14.0214
44.0199 13.9954
44.068 14.0018
44.1162 13.9278
44.1642 13.8817
44.2125 13.8169
44.2606 13.7174
44.3088 13.7652
44.3569 13.6784
44.4052 13.6278
44.4533 13.525
44.5016 13.4825
44.5497 13.4823
44.598 13.4471
44.6461 13.3589
44.6945 13.3007
44.7426 13.2729
44.791 13.2616
44.8391 13.2122
44.8875 13.1602
44.9357 13.1355
44.984 13.0631
45.0322 13.0189
45.0806 12.9024
45.1288 12.9297
45.1773 12.8641
45.2257 12.8431
45.2739 12.7512
45.3224 12.7254
45.3706 12.6751
45.4191 12.6584
45.4673 12.5794
45.5158 12.5242
45.5641 12.4741
45.6126 12.4651
45.6609 12.4011
45.7094 12.3431
45.7577 12.3567
45.8063 12.2916
45.8546 12.203
45.9031 12.1922
45.9515 12.0954
46.0001 12.1487
46.0484 12.0724
46.097 12.0197
46.1454 11.9892
46.194 11.9364
46.2424 11.8834
46.291 11.8626
46.3395 11.7976
46.3881 11.7043
46.4365 11.742
46.4852 11.6729
46.5337 11.6173
46.5823 11.5941
46.631 11.5632
46.6795 11.4969
46.7282 11.4557
46.7767 11.4121
46.8254 11.3775
46.8739 11.2997
46.9226 11.3254
46.9712 11.2512
47.0199 11.2095
47.0685 11.1017
47.1173 11.151
47.1658 11.0556
47.2146 11.0493
47.2632 10.9788
47.312 10.9603
47.3606 10.9145
47.4095 10.8357
47.4581 10.796
47.5069 10.7741
47.5556 10.7838
47.6044 10.662
47.6531 10.6662
47.702 10.6165
47.7507 10.6026
47.7996 10.5343
47.8483 10.5085
47.8972 10.4881
47.9461 10.4428
47.9948 10.4083
48.0438 10.3878
48.0925 10.3352
48.1415 10.2918
48.1902 10.2698
48.2392 10.2762
48.288 10.2433
48.337 10.1707
48.3858 10.1024
48.4348 10.0738
48.4837 10.0331
48.5327 10.0252
48.5815 9.96013
48.6306 9.95598
48.6795 9.93323
48.7285 9.83495
48.7774 9.85691
48.8265 9.78161
48.8754 9.74468
48.9245 9.73122
48.9734 9.71322
49.0226 9.69071
49.0715 9.56759
49.1206 9.58911
49.1696 9.52782
49.2188 9.50068
49.2679 9.49359
49.3169 9.43835
49.3661 9.37423
49.4151 9.34717
49.4643 9.31267
49.5134 9.30044
49.5626 9.24241
49.6117 9.18498
49.6609 9.16592
49.71 9.10215
49.7592 9.12163
49.8083 9.06463
49.8576 9.05035
49.9067 8.97946
49.956 8.98367
50.0052 8.91384
50.0545 8.90021
50.1036 8.83727
50.153 8.81867
50.2022 8.82363
50.2515 8.73534
50.3007 8.72018
50.3501 8.65815
50.3993 8.64254
50.4487 8.60903
50.498 8.57151
50.5474 8.55463
50.5966 8.52781
50.6461 8.45936
50.6955 8.47622
50.7448 8.43136
50.7943 8.38629
50.8436 8.36748
50.8931 8.31976
50.9424 8.29926
50.9919 8.28806
51.0413 8.26475
51.0908 8.22064
51.1402 8.16439
51.1897 8.10454
51.2391 8.09048
51.2887 8.06615
51.3381 8.03431
51.3877 7.9996
51.4371 7.95416
51.4867 7.917
51.5362 7.86706
51.5858 7.89244
51.6353 7.81562
51.6849 7.78646
51.7344 7.79237
51.7841 7.73505
51.8336 7.71067
51.8833 7.65357
51.9328 7.64102
51.9826 7.60136
52.0323 7.58264
52.0818 7.53894
52.1316 7.49858
52.1812 7.48379
52.231 7.4522
52.2806 7.42631
52.3304 7.39259
52.38 7.40621
52.4298 7.33517
52.4794 7.31249
52.5293 7.24778
52.5789 7.25505
52.6288 7.18836
52.6785 7.15466
52.7284 7.1429
52.7781 7.1193
52.828 7.07931
52.8777 7.02954
52.9276 7.03639
52.9774 6.98773
53.0273 7.00768
53.0771 6.95995
53.1271 6.89716
53.1769 6.89529
53.2269 6.85962
53.2767 6.78387
53.3267 6.79709
53.3765 6.74939
53.4266 6.71649
53.4766 6.72003
53.5265 6.65035
53.5765 6.64812
53.6264 6.63098
53.6765 6.60154
53.7264 6.5729
53.7765 6.56908
53.8265 6.50198
53.8766 6.49551
53.9266 6.42635
53.9767 6.39061
54.0267 6.35869
54.0769 6.3746
54.1269 6.32215
54.1771 6.29706
54.2271 6.26801
54.2773 6.21883
54.3274 6.18497
54.3776 6.15564
54.4277 6.10142
54.478 6.07589
54.528 6.05763
54.5783 5.94309
54.6285 5.91323
54.6788 5.87885
54.7289 5.79742
54.7792 5.78527
54.8296 5.73047
54.8798 5.71791
54.9301 5.65878
54.9803 5.66068
55.0307 5.63876
55.0809 5.57452
55.1314 5.55838
55.1816 5.39249
55.232 5.4083
55.2823 5.35839
55.3328 5.29453
55.383 5.23399
55.4335 5.24244
55.4838 5.14265
55.5344 5.07047
55.5847 5.07415
55.6352 5.09603
55.6856 5.01364
55.7361 4.95192