File: XRD/Ni3Fe_FD0262.xy
TT I
1.27165 7.36817
1.31627 7.02227
1.36089 7.1212
1.40551 6.2111
1.45013 6.81936
1.49476 6.40397
1.53938 6.11017
1.584 6.23251
1.62863 5.85384
1.67325 5.601
1.71787 4.79397
1.7625 5.05219
1.80712 5.3092
1.85174 5.42474
1.89636 4.88558
1.94099 4.77229
1.98562 5.07617
2.03025 4.6181
2.07487 4.37559
2.11949 4.48422
2.16411 4.88768
2.20874 10.2513
2.25338 15.2976
2.298 5.11584
2.34263 4.62151
2.38725 5.17706
2.43188 5.18604
2.4765 5.6155
2.52115 5.06848
2.56577 6.10702
2.6104 6.59158
2.65503 5.99925
2.69965 6.82809
2.7443 6.40485
2.78893 7.73525
2.83356 7.71939
2.87818 8.50098
2.92281 8.66988
2.96744 9.67133
3.01209 9.82849
3.05672 11.3407
3.10135 12.049
3.14599 13.3305
3.19062 14.3757
3.23527 15.0279
3.2799 15.8329
3.32454 16.8207
3.36917 18.2768
3.4138 19.4089
3.45844 20.0198
3.50309 21.1012
3.54773 22.1568
3.59237 23.6465
3.637 64.3795
3.68164 45.0071
3.7263 26.4475
3.77094 26.3633
3.81558 26.6147
3.86022 27.925
3.90486 29.3208
3.9495 30.41
3.99416 31.4054
4.0388 32.7182
4.08344 34.6766
4.12809 35.6659
4.17273 37.6695
4.21738 42.8539
4.26204 163.474
4.30669 145.685
4.35133 48.0324
4.39598 45.6843
4.44063 51.5822
4.4853 59.6053
4.52995 54.2029
4.5746 54.2785
4.61925 55.5673
4.6639 57.541
4.70855 60.4573
4.75322 63.7282
4.79788 67.6144
4.84253 70.4575
4.88719 75.7101
4.93184 79.5594
4.97652 86.5773
5.02118 93.9647
5.06583 103.404
5.11049 118.945
5.15515 181.367
5.19981 560.448
5.24449 3668.79
5.28916 10595.4
5.33382 4332.58
5.37848 275.217
5.42315 150.768
5.46783 127.346
5.5125 116.359
5.55716 110.309
5.60183 105.627
5.6465 103.414
5.69117 100.724
5.73586 98.6054
5.78053 99.6081
5.8252 99.5939
5.86988 101.21
5.91455 104.483
5.95924 118.765
6.00392 291.589
6.0486 1280.61
6.09328 3671.05
6.13795 3616.05
6.18263 381.435
6.22733 108.621
6.27201 89.9171
6.3167 96.1334
6.36138 81.7941
6.40606 73.0431
6.45075 71.0853
6.49545 68.3305
6.54014 66.8557
6.58483 65.3743
6.62952 64.9672
6.67421 82.0971
6.71892 111.591
6.76361 67.1665
6.8083 61.2763
6.853 59.7798
6.89769 59.1308
6.94239 58.3763
6.98711 57.4697
7.03181 57.6861
7.07651 57.0928
7.12121 57.0792
7.16591 57.6783
7.21063 57.3349
7.25533 66.0194
7.30004 130.081
7.34475 79.5268
7.38945 57.6932
7.43416 56.2348
7.47889 55.9031
7.5236 56.6652
7.56831 57.7428
7.61303 58.2227
7.65774 58.5246
7.70247 58.2659
7.74719 58.1569
7.79191 58.6262
7.83663 59.0712
7.88135 60.3631
7.92607 60.9246
7.97081 62.2753
8.01553 63.4911
8.06026 65.1178
8.10498 66.4484
8.14971 73.5104
8.19446 73.4041
8.23919 72.9821
8.28392 75.5578
8.32865 77.9563
8.37339 82.9807
8.41812 89.3234
8.46288 113.018
8.50761 200.312
8.55235 515.995
8.59709 1108.14
8.64183 1987.42
8.68658 1260.26
8.73134 233.711
8.77609 110.062
8.82083 99.4804
8.86558 95.4929
8.91033 94.211
8.9551 93.8635
8.99985 89.6286
9.04461 87.8907
9.08936 87.0991
9.13412 86.3023
9.17888 86.0398
9.22365 86.5786
9.26841 85.7191
9.31318 87.7357
9.35794 87.3036
9.4027 87.6137
9.44749 88.0874
9.49226 88.4111
9.53703 89.6949
9.5818 92.0043
9.62657 95.1076
9.67134 99.6126
9.71614 97.9949
9.76091 99.2315
9.80569 101.869
9.85047 105.547
9.89525 121.677
9.94005 135.405
9.98484 212.54
10.0296 457.086
10.0744 819.371
10.1192 1456.63
10.164 1690.35
10.2088 593.836
10.2536 154.659
10.2984 119.926
10.3432 117.881
10.388 110.849
10.4328 131.959
10.4776 193.602
10.5224 284.543
10.5672 448.298
10.612 521.252
10.6568 270.614
10.7017 109.227
10.7465 92.0859
10.7913 87.7514
10.8361 85.2933
10.8809 83.0076
10.9257 81.4277
10.9706 81.5084
11.0154 78.1355
11.0602 75.7802
11.105 74.7898
11.1499 76.8494
11.1947 80.7775
11.2395 75.063
11.2844 72.4618
11.3292 69.9811
11.374 68.968
11.4189 68.357
11.4637 67.5563
11.5086 67.5676
11.5534 69.2359
11.5983 67.4381
11.6431 66.4187
11.688 65.504
11.7328 65.7335
11.7777 65.4424
11.8225 65.353
11.8674 65.0016
11.9122 65.4679
11.9571 65.6363
12.002 66.6325
12.0468 72.5427
12.0917 89.3636
12.1366 109.762
12.1814 143.798
12.2263 193.468
12.2712 189.232
12.3161 112.338
12.3609 73.1311
12.4058 67.5403
12.4507 67.3102
12.4956 67.085
12.5405 67.3783
12.5853 67.8974
12.6302 72.7364
12.6751 76.6544
12.72 71.724
12.7649 70.7464
12.8098 71.2424
12.8547 72.7854
12.8996 74.2009
12.9445 75.8149
12.9894 77.7237
13.0343 79.1714
13.0792 83.3399
13.1242 94.8567
13.1691 129.617
13.214 171.164
13.2589 233.177
13.3038 327.836
13.3487 416.513
13.3937 318.894
13.4386 152.256
13.4835 117.802
13.5285 141.947
13.5734 173.599
13.6183 231.316
13.6633 313.072
13.7082 353.302
13.7531 234.916
13.7981 114.981
13.843 86.9669
13.888 83.9373
13.9329 80.9157
13.9779 79.4884
14.0228 77.909
14.0678 76.3742
14.1127 75.8768
14.1577 75.2477
14.2027 74.6989
14.2476 73.6469
14.2926 73.5304
14.3376 73.9077
14.3825 73.0825
14.4275 72.0361
14.4725 71.7566
14.5175 72.1891
14.5624 72.1669
14.6074 73.3437
14.6524 74.3521
14.6974 73.7683
14.7424 75.9156
14.7874 85.604
14.8324 101.509
14.8774 118.74
14.9224 147.746
14.9674 189.675
15.0124 218.852
15.0574 176.131
15.1024 106.828
15.1474 77.515
15.1924 73.9228
15.2374 73.2688
15.2824 72.5314
15.3274 70.7951
15.3725 70.0213
15.4175 69.4129
15.4625 69.1835
15.5076 68.8216
15.5526 69.0623
15.5976 68.9374
15.6426 70.6468
15.6877 78.1346
15.7327 90.3475
15.7778 103.141
15.8228 123.63
15.8679 155.087
15.9129 186.19
15.958 174.803
16.003 116.192
16.0481 75.0694
16.0931 67.204
16.1382 64.9308
16.1833 63.2349
16.2283 61.7245
16.2734 60.8198
16.3185 60.8957
16.3636 60.851
16.4086 59.5624
16.4537 58.4614
16.4988 57.9742
16.5439 57.8911
16.589 57.5434
16.6341 57.4328
16.6792 56.9586
16.7243 57.3333
16.7694 57.0817
16.8145 57.1529
16.8596 57.3632
16.9047 58.4316
16.9498 58.7786
16.9949 57.9339
17.04 58.2611
17.0851 60.2591
17.1302 62.6209
17.1754 65.2877
17.2205 68.9333
17.2656 74.4022
17.3108 82.0891
17.3559 84.9255
17.401 77.981
17.4462 67.3313
17.4913 62.2232
17.5365 61.6376
17.5815 62.0211
17.6268 62.4039
17.6718 62.9003
17.7171 63.4605
17.7622 63.9583
17.8074 64.8705
17.8525 67.7717
17.8977 73.9814
17.9428 81.2016
17.9881 87.5657
18.0331 99.3797
18.0784 115.38
18.1237 134.888
18.1688 141.837
18.214 120.106
18.2591 95.5691
18.3044 91.6189
18.3495 97.2774
18.3948 105.491
18.4399 102.638
18.4852 85.2503
18.5303 70.7499
18.5756 65.5187
18.6207 64.2536
18.666 63.2531
18.7112 62.4913
18.7565 61.7535
18.8016 61.3306
18.8469 60.7267
18.892 60.398
18.9374 59.8128
18.9825 59.4418
19.0278 59.3253
19.073 59.5057
19.1183 60.2826
19.1635 61.4235
19.2088 62.9923
19.254 64.7525
19.2993 67.5004
19.3447 71.8095
19.3898 76.41
19.4352 76.5392
19.4804 68.9268
19.5257 61.0486
19.5709 57.1283
19.6163 56.4829
19.6615 56.3041
19.7068 55.8203
19.752 55.6522
19.7974 56.2095
19.8426 57.2602
19.888 58.2375
19.9332 59.3398
19.9786 60.9308
20.0238 63.6235
20.0692 67.6683
20.1144 71.5241
20.1598 72.5416
20.205 68.1204
20.2504 64.7883
20.2957 64.6807
20.3411 66.562
20.3863 66.967
20.4318 62.5131
20.477 57.204
20.5224 54.1971
20.5677 53.0903
20.6131 52.4699
20.6586 51.9349
20.7038 51.8144
20.7493 51.4517
20.7945 51.0994
20.84 50.9007
20.8853 50.8558
20.9307 50.7737
20.976 51.0018
21.0215 50.8937
21.0668 51.3359
21.1122 51.8456
21.1575 52.1707
21.203 52.5525
21.2483 53.0196
21.2938 53.8258
21.3391 52.6457
21.3846 51.6244
21.4299 50.7526
21.4754 50.6505
21.5207 50.8982
21.5662 51.1175
21.6116 51.697
21.6571 52.7811
21.7024 53.8348
21.7479 55.1483
21.7933 57.1418
21.8388 59.9978
21.8843 63.1957
21.9297 66.1204
21.9752 66.7957
22.0206 63.7226
22.0661 59.4264
22.1115 57.8122
22.157 57.8299
22.2024 57.3078
22.248 54.7647
22.2933 52.6404
22.3389 51.4175
22.3843 51.1274
22.4299 50.7501
22.4753 51.0154
22.5208 50.6674
22.5662 50.5479
22.6118 50.9033
22.6572 51.1411
22.7028 51.8449
22.7483 52.372
22.7939 52.8773
22.8393 54.0947
22.8849 55.4643
22.9303 57.1852
22.9759 58.7138
23.0214 59.6598
23.067 57.8727
23.1126 54.6606
23.1581 52.0206
23.2037 51.0292
23.2492 51.1208
23.2948 51.2417
23.3403 51.8614
23.3859 52.3731
23.4314 52.9165
23.477 54.396
23.5225 55.6063
23.5682 57.4708
23.6137 59.1963
23.6593 58.5193
23.7048 55.3771
23.7505 51.4391
23.796 49.0326
23.8417 48.1975
23.8872 47.6304
23.9329 47.4045
23.9784 46.927
24.0241 46.6242
24.0697 46.5663
24.1154 46.1598
24.1609 46.0528
24.2066 45.8773
24.2522 45.5997
24.2979 45.2271
24.3434 45.3007
24.3892 45.1368
24.4349 45.0986
24.4805 44.7358
24.5262 44.9146
24.5718 44.763
24.6175 44.7883
24.6631 44.7214
24.7089 44.4982
24.7545 44.2463
24.8002 44.1027
24.8458 44.1333
24.8916 43.9852
24.9372 44.1573
24.983 44.4015
25.0286 44.7702
25.0744 45.1021
25.12 45.5279
25.1658 45.9607
25.2114 46.3439
25.2572 46.5136
25.3029 46.3072
25.3487 46.4459
25.3943 46.5016
25.4402 45.7947
25.4858 44.6574
25.5316 43.6078
25.5773 42.828
25.6231 42.7568
25.669 42.2415
25.7147 42.302
25.7605 42.3277
25.8062 42.21
25.8521 42.39
25.8977 42.1831
25.9436 42.3764
25.9893 42.552
26.0352 43.1083
26.0809 43.0619
26.1268 43.1946
26.1725 43.3331
26.2184 42.7439
26.2641 42.2558
26.31 42.1441
26.3557 41.9352
26.4017 41.8541
26.4474 42.1377
26.4933 42.454
26.5391 42.7556
26.585 43.1125
26.6308 43.4692
26.6767 43.82
26.7225 43.7674
26.7684 43.3672
26.8142 42.6577
26.8601 42.2675
26.9059 41.9617
26.9519 41.4639
26.9979 41.136
27.0437 40.6935
27.0896 40.4806
27.1354 40.4694
27.1814 40.3079
27.2272 40.1862
27.2732 40.1639
27.3191 40.0454
27.3651 40.226
27.4109 40.0345
27.4569 40.2269
27.5027 40.0304
27.5488 40.2172
27.5946 40.0485
27.6407 39.7926
27.6865 39.7891
27.7326 39.6832
27.7784 39.6675
27.8245 39.5686
27.8703 39.5858
27.9164 40.011
27.9623 39.7976
28.0084 40.1288
28.0543 40.5963
28.1003 40.54
28.1462 40.4989
28.1923 40.2189
28.2384 39.5642
28.2843 39.3903
28.3304 38.9669
28.3764 38.411
28.4225 38.2715
28.4684 37.7995
28.5145 37.6285
28.5605 37.4591
28.6066 37.0984
28.6526 37.2172
28.6987 37.1515
28.7447 36.9596
28.7908 36.8145
28.8368 36.97
28.8829 36.8702
28.9289 36.7716
28.9751 36.6035
29.0211 36.5099
29.0673 36.2549
29.1133 36.1672
29.1595 35.9079
29.2055 35.8393
29.2517 35.6847
29.2977 35.7612
29.3439 35.6613
29.3899 35.7276
29.4361 35.5119
29.4824 35.42
29.5284 35.181
29.5746 35.0191
29.6207 34.6158
29.6669 34.5733
29.713 34.3997
29.7593 34.3735
29.8053 34.2737
29.8516 34.2556
29.8977 34.1969
29.9439 34.0589
29.99 33.9124
30.0363 33.813
30.0824 33.9598
30.1287 33.7555
30.1748 33.7393
30.2211 33.8479
30.2673 33.6468
30.3136 33.7628
30.3597 33.742
30.406 33.5469
30.4522 33.5468
30.4985 33.4642
30.5447 33.5858
30.591 33.4166
30.6372 33.5299
30.6835 33.3946
30.7297 33.4907
30.7761 33.4705
30.8224 33.4005
30.8686 33.2312
30.915 33.066
30.9612 32.9319
31.0076 32.6658
31.0538 32.5759
31.1002 32.508
31.1464 32.3411
31.1928 32.2846
31.2391 32.2665
31.2855 32.1078
31.3317 32.2396
31.3781 32.2116
31.4244 32.1708
31.4708 32.1346
31.5171 32.1294
31.5636 32.1011
31.6098 31.8857
31.6563 31.7605
31.7026 31.6039
31.7491 31.3954
31.7953 31.5114
31.8418 31.4094
31.8881 31.4709
31.9346 31.3869
31.9809 31.2468
32.0275 31.2196
32.074 31.0651
32.1203 30.9214
32.1668 30.8212
32.2132 30.7096
32.2597 30.5596
32.306 30.5329
32.3526 30.2691
32.399 30.1113
32.4455 29.9741
32.4919 29.9695
32.5385 29.9172
32.5848 29.779
32.6314 29.6455
32.6778 29.7397
32.7244 29.5086
32.7708 29.4121
32.8174 29.3977
32.8638 29.237
32.9104 29.3147
32.9569 29.1952
33.0035 29.0938
33.0499 28.9857
33.0966 29.055
33.143 28.9671
33.1897 28.8793
33.2361 28.7649
33.2828 28.7878
33.3293 28.5924
33.3759 28.5218
33.4226 28.4234
33.4691 28.2943
33.5158 28.2286
33.5623 28.0682
33.609 27.8648
33.6555 27.753
33.7022 27.7737
33.7487 27.7318
33.7954 27.5675
33.842 27.4915
33.8887 27.3484
33.9353 27.4275
33.982 27.2692
34.0286 27.2526
34.0753 27.1593
34.1219 27.0662
34.1687 26.9288
34.2152 26.8717
34.262 26.8525
34.3086 26.7115
34.3554 26.683
34.402 26.5341
34.4488 26.3958
34.4954 26.3659
34.5422 26.2328
34.5889 26.0955
34.6357 26.1251
34.6825 26.0098
34.7292 25.8808
34.776 25.7374
34.8227 25.8155
34.8695 25.7513
34.9162 25.657
34.9631 25.5161
35.0098 25.5254
35.0566 25.3934
35.1033 25.367
35.1502 25.3411
35.1969 25.2988
35.2438 25.1954
35.2906 25.1549
35.3375 25.1811
35.3842 24.984
35.4311 24.9785
35.4779 25.0265
35.5248 24.817
35.5716 24.7915
35.6185 24.7946
35.6653 24.6558
35.7123 24.5374
35.759 24.453
35.806 24.3479
35.8528 24.2654
35.8998 24.1881
35.9468 24.0708
35.9936 24.0288
36.0406 24.0556
36.0874 23.9699
36.1345 23.9337
36.1813 23.8425
36.2283 23.6774
36.2752 23.6553
36.3222 23.6963
36.3691 23.4715
36.4161 23.4173
36.463 23.4019
36.5101 23.3826
36.557 23.2599
36.6041 23.0996
36.651 23.1837
36.6981 23.0716
36.745 22.9133
36.7921 22.9799
36.839 22.7853
36.8861 22.7486
36.9331 22.6995
36.9802 22.6187
37.0272 22.5407
37.0743 22.3685
37.1213 22.3962
37.1684 22.3227
37.2154 22.2911
37.2626 22.19
37.3098 22.1705
37.3568 22.1212
37.404 21.9292
37.451 21.9304
37.4982 21.8215
37.5452 21.7568
37.5924 21.6456
37.6395 21.7012
37.6867 21.6656
37.7337 21.5035
37.781 21.4406
37.8281 21.3497
37.8753 21.241
37.9224 21.313
37.9697 21.1747
38.0168 21.1301
38.064 21.0709
38.1111 20.967
38.1584 20.9338
38.2056 20.8145
38.2529 20.8315
38.3 20.7062
38.3473 20.6949
38.3945 20.4933
38.4418 20.465
38.489 20.464
38.5363 20.3716
38.5837 20.296
38.6309 20.1947
38.6782 20.149
38.7254 20.0645
38.7728 20.0076
38.82 19.9769
38.8674 19.9042
38.9146 19.8375
38.9621 19.7948
39.0093 19.765
39.0567 19.6327
39.104 19.594
39.1514 19.4886
39.1987 19.465
39.2461 19.4275
39.2934 19.3399
39.3409 19.242
39.3882 19.1758
39.4356 19.1779
39.483 19.1062
39.5304 19.1239
39.5778 19.0254
39.6253 18.9291
39.6726 18.8784
39.7201 18.8748
39.7675 18.7664
39.815 18.732
39.8624 18.6567
39.9099 18.6189
39.9575 18.4877
40.0049 18.491
40.0525 18.3726
40.0999 18.3538
40.1474 18.3475
40.1949 18.2021
40.2425 18.152
40.2899 18.1198
40.3375 18.01
40.385 17.9996
40.4326 17.9317
40.48 17.8302
40.5277 17.8401
40.5752 17.7965
40.6228 17.7157
40.6703 17.6181
40.718 17.5828
40.7655 17.5838
40.8132 17.4836
40.8607 17.4594
40.9084 17.4046
40.9559 17.3056
41.0036 17.3368
41.0512 17.1631
41.0989 17.1999
41.1465 17.089
41.1942 17.0847
41.242 16.9512
41.2896 16.9136
41.3373 16.8609
41.3849 16.8391
41.4327 16.75
41.4803 16.6758
41.5281 16.6141
41.5758 16.5873
41.6236 16.4796
41.6712 16.4317
41.7191 16.3946
41.7667 16.4153
41.8146 16.3165
41.8622 16.2898
41.9101 16.2123
41.9578 16.0568
42.0057 16.119
42.0534 16.0324
42.1013 16.0162
42.149 15.9044
42.1969 15.8743
42.2446 15.7904
42.2925 15.7783
42.3403 15.7132
42.3882 15.7211
42.436 15.5733
42.4839 15.5519
42.5319 15.5106
42.5797 15.4416
42.6277 15.4086
42.6755 15.3391
42.7235 15.227
42.7713 15.2338
42.8193 15.2034
42.8671 15.1204
42.9152 15.1161
42.963 15.0726
43.0111 14.9803
43.0589 14.9305
43.107 14.8985
43.1549 14.8074
43.2029 14.7669
43.2508 14.7599
43.2989 14.6949
43.3468 14.5854
43.3949 14.5889
43.4429 14.5914
43.491 14.5172
43.5389 14.4084
43.5871 14.355
43.635 14.3361
43.6832 14.2807
43.7312 14.1981
43.7793 14.1554
43.8273 14.1287
43.8755 14.085
43.9237 14.0467
43.9717 13.9632
44.0199 13.9672
44.068 13.9238
44.1162 13.8447
44.1642 13.8728
44.2125 13.7501
44.2606 13.7274
44.3088 13.644
44.3569 13.6073
44.4052 13.561
44.4533 13.486
44.5016 13.4358
44.5497 13.3602
44.598 13.3463
44.6461 13.33
44.6945 13.2363
44.7426 13.2305
44.791 13.1426
44.8391 13.1142
44.8875 13.0628
44.9357 13.0187
44.984 12.9786
45.0322 12.9482
45.0806 12.8321
45.1288 12.8378
45.1773 12.786
45.2257 12.7077
45.2739 12.7644
45.3224 12.6609
45.3706 12.624
45.4191 12.5762
45.4673 12.559
45.5158 12.5083
45.5641 12.4504
45.6126 12.4073
45.6609 12.3343
45.7094 12.312
45.7577 12.2884
45.8063 12.1997
45.8546 12.218
45.9031 12.1343
45.9515 12.0307
46.0001 12.0501
46.0484 12.0194
46.097 11.9621
46.1454 11.9437
46.194 11.9076
46.2424 11.8767
46.291 11.8037
46.3395 11.7316
46.3881 11.6634
46.4365 11.6689
46.4852 11.5997
46.5337 11.5691
46.5823 11.5831
46.631 11.4911
46.6795 11.448
46.7282 11.4081
46.7767 11.3782
46.8254 11.3103
46.8739 11.2821
46.9226 11.249
46.9712 11.1617
47.0199 11.1758
47.0685 11.0977
47.1173 11.0458
47.1658 11.0075
47.2146 10.9698
47.2632 10.9259
47.312 10.9057
47.3606 10.8532
47.4095 10.7946
47.4581 10.7917
47.5069 10.7509
47.5556 10.6802
47.6044 10.6484
47.6531 10.6293
47.702 10.577
47.7507 10.553
47.7996 10.5115
47.8483 10.4706
47.8972 10.4627
47.9461 10.3823
47.9948 10.3362
48.0438 10.3061
48.0925 10.3238
48.1415 10.2656
48.1902 10.1962
48.2392 10.1636
48.288 10.1515
48.337 10.1091
48.3858 10.057
48.4348 10.0181
48.4837 10.0084
48.5327 9.95303
48.5815 9.93594
48.6306 9.8965
48.6795 9.87632
48.7285 9.7969
48.7774 9.76434
48.8265 9.73276
48.8754 9.6806
48.9245 9.68135
48.9734 9.63814
49.0226 9.61918
49.0715 9.59455
49.1206 9.51298
49.1696 9.53037
49.2188 9.4693
49.2679 9.42364
49.3169 9.33498
49.3661 9.36819
49.4151 9.31694
49.4643 9.27276
49.5134 9.22408
49.5626 9.14787
49.6117 9.1483
49.6609 9.12249
49.71 9.0584
49.7592 9.04935
49.8083 8.99745
49.8576 9.03143
49.9067 8.88718
49.956 8.90673
50.0052 8.88828
50.0545 8.83201
50.1036 8.81223
50.153 8.81749
50.2022 8.80316
50.2515 8.71602
50.3007 8.67168
50.3501 8.64206
50.3993 8.62234
50.4487 8.60184
50.498 8.56552
50.5474 8.5219
50.5966 8.45464
50.6461 8.46144
50.6955 8.40184
50.7448 8.41594
50.7943 8.33082
50.8436 8.33394
50.8931 8.26528
50.9424 8.26152
50.9919 8.23183
51.0413 8.20234
51.0908 8.17623
51.1402 8.1578
51.1897 8.10474
51.2391 8.04077
51.2887 8.04027
51.3381 8.02572
51.3877 7.97085
51.4371 7.90645
51.4867 7.8878
51.5362 7.88097
51.5858 7.82195
51.6353 7.77025
51.6849 7.75101
51.7344 7.70082
51.7841 7.69606
51.8336 7.69063
51.8833 7.63685
51.9328 7.60098
51.9826 7.54715
52.0323 7.53318
52.0818 7.49323
52.1316 7.46088
52.1812 7.47894
52.231 7.43262
52.2806 7.39475
52.3304 7.37636
52.38 7.3349
52.4298 7.27621
52.4794 7.22726
52.5293 7.22629
52.5789 7.205
52.6288 7.19107
52.6785 7.11949
52.7284 7.12425
52.7781 7.0946
52.828 7.07058
52.8777 7.00878
52.9276 6.98765
52.9774 6.9565
53.0273 6.95379
53.0771 6.89807
53.1271 6.88892
53.1769 6.86768
53.2269 6.85892
53.2767 6.81308
53.3267 6.77865
53.3765 6.76162
53.4266 6.74956
53.4766 6.67024
53.5265 6.62318
53.5765 6.59809
53.6264 6.57255
53.6765 6.58019
53.7264 6.52994
53.7765 6.53168
53.8265 6.45666
53.8766 6.43118
53.9266 6.38851
53.9767 6.40131
54.0267 6.34517
54.0769 6.32801
54.1269 6.28263
54.1771 6.2421
54.2271 6.21248
54.2773 6.16447
54.3274 6.17535
54.3776 6.13809
54.4277 6.08551
54.478 6.07736
54.528 6.03492
54.5783 5.9815
54.6285 5.93856
54.6788 5.86854
54.7289 5.83125
54.7792 5.8112
54.8296 5.77176
54.8798 5.70868
54.9301 5.72602
54.9803 5.65338
55.0307 5.56452
55.0809 5.53402
55.1314 5.57149
55.1816 5.42329
55.232 5.42471
55.2823 5.41529
55.3328 5.33634
55.383 5.2543
55.4335 5.24278
55.4838 5.19539
55.5344 5.13185
55.5847 5.115
55.6352 5.04723
55.6856 5.01839
55.7361 4.97687