File: XRD/Ni3Fe_FD0332.xy
TT I
1.27165 7.95367
1.31627 7.11585
1.36089 6.67183
1.40551 6.49453
1.45013 7.00025
1.49476 6.52035
1.53938 5.85278
1.584 5.71774
1.62863 5.88747
1.67325 5.19616
1.71787 5.66668
1.7625 4.62439
1.80712 5.28432
1.85174 5.18007
1.89636 4.96803
1.94099 4.94409
1.98562 4.69921
2.03025 4.37543
2.07487 4.9059
2.11949 5.26024
2.16411 4.83387
2.20874 11.3806
2.25338 17.1166
2.298 5.54919
2.34263 4.02122
2.38725 4.38776
2.43188 5.51804
2.4765 5.84958
2.52115 5.39965
2.56577 6.28062
2.6104 6.54319
2.65503 6.87495
2.69965 7.50981
2.7443 7.45902
2.78893 7.51983
2.83356 7.8463
2.87818 8.41017
2.92281 8.55858
2.96744 9.25081
3.01209 10.0462
3.05672 11.0701
3.10135 11.9916
3.14599 12.8542
3.19062 13.9593
3.23527 15.0224
3.2799 16.2376
3.32454 17.0023
3.36917 17.8008
3.4138 18.8671
3.45844 19.9968
3.50309 21.2024
3.54773 22.4194
3.59237 23.7602
3.637 75.7401
3.68164 49.245
3.7263 26.4373
3.77094 26.5108
3.81558 27.1479
3.86022 28.2013
3.90486 29.6037
3.9495 30.2796
3.99416 31.4115
4.0388 33.1603
4.08344 34.1507
4.12809 35.544
4.17273 37.6662
4.21738 42.8305
4.26204 197.131
4.30669 168.562
4.35133 47.8263
4.39598 45.1176
4.44063 52.9113
4.4853 61.6706
4.52995 52.0605
4.5746 53.2014
4.61925 54.9806
4.6639 56.9959
4.70855 59.8468
4.75322 63.0705
4.79788 66.099
4.84253 69.3763
4.88719 74.2816
4.93184 77.9973
4.97652 84.8456
5.02118 91.9248
5.06583 100.76
5.11049 115.513
5.15515 182.872
5.19981 563.57
5.24449 3559.86
5.28916 11367.6
5.33382 3513.63
5.37848 226.717
5.42315 140.125
5.46783 121.28
5.5125 111.296
5.55716 106.442
5.60183 102.71
5.6465 99.9449
5.69117 98.5163
5.73586 96.5397
5.78053 96.4342
5.8252 96.5914
5.86988 97.8018
5.91455 102.093
5.95924 115.579
6.00392 300.241
6.0486 1239.47
6.09328 4053.09
6.13795 3465.23
6.18263 292.018
6.22733 100.879
6.27201 86.7569
6.3167 98.0229
6.36138 80.2561
6.40606 71.3779
6.45075 69.233
6.49545 67.3824
6.54014 65.9035
6.58483 64.7451
6.62952 64.3824
6.67421 86.8196
6.71892 122.792
6.76361 67.4085
6.8083 59.8876
6.853 59.0305
6.89769 58.0634
6.94239 57.8786
6.98711 56.9303
7.03181 56.8674
7.07651 56.5074
7.12121 56.6317
7.16591 56.3841
7.21063 56.4439
7.25533 67.7851
7.30004 146.292
7.34475 82.7795
7.38945 57.3777
7.43416 55.5232
7.47889 55.3861
7.5236 55.6464
7.56831 56.7444
7.61303 57.9608
7.65774 58.326
7.70247 57.8812
7.74719 57.7903
7.79191 58.2214
7.83663 58.1774
7.88135 59.5699
7.92607 60.5813
7.97081 61.3347
8.01553 62.9304
8.06026 63.9057
8.10498 65.4956
8.14971 73.276
8.19446 73.1356
8.23919 71.7138
8.28392 74.5821
8.32865 76.7188
8.37339 81.5383
8.41812 88.7226
8.46288 116.599
8.50761 213.467
8.55235 484.665
8.59709 1161.16
8.64183 2125.35
8.68658 1069.21
8.73134 184.788
8.77609 104.845
8.82083 96.5089
8.86558 93.0157
8.91033 92.3764
8.9551 92.5532
8.99985 88.2929
9.04461 86.178
9.08936 85.6476
9.13412 84.5566
9.17888 84.8933
9.22365 85.0839
9.26841 85.0509
9.31318 85.3007
9.35794 85.3922
9.4027 86.0653
9.44749 86.7655
9.49226 87.0545
9.53703 88.6297
9.5818 90.3754
9.62657 94.3584
9.67134 99.8899
9.71614 96.2078
9.76091 97.3761
9.80569 100.261
9.85047 103.722
9.89525 123.482
9.94005 140.33
9.98484 223.429
10.0296 425.453
10.0744 854.012
10.1192 1612.17
10.164 1674.72
10.2088 494.347
10.2536 138.89
10.2984 116.769
10.3432 116.15
10.388 109.421
10.4328 133.267
10.4776 183.879
10.5224 291.856
10.5672 482.5
10.612 524.569
10.6568 216.761
10.7017 100.465
10.7465 89.5915
10.7913 85.8389
10.8361 83.5271
10.8809 81.1795
10.9257 80.4815
10.9706 80.3336
11.0154 76.8297
11.0602 74.8173
11.105 73.6879
11.1499 76.6585
11.1947 81.5568
11.2395 74.9524
11.2844 71.5314
11.3292 68.9709
11.374 68.097
11.4189 67.5163
11.4637 66.8814
11.5086 66.8696
11.5534 68.767
11.5983 66.9922
11.6431 65.6366
11.688 64.703
11.7328 64.7001
11.7777 64.5083
11.8225 64.3695
11.8674 64.3929
11.9122 64.6183
11.9571 64.7895
12.002 66.2425
12.0468 72.7959
12.0917 86.0626
12.1366 108.738
12.1814 148.616
12.2263 199.269
12.2712 177.113
12.3161 100.616
12.3609 71.8685
12.4058 66.6453
12.4507 66.2459
12.4956 66.2787
12.5405 66.326
12.5853 67.154
12.6302 73.2362
12.6751 77.3769
12.72 71.3455
12.7649 69.8048
12.8098 70.3751
12.8547 71.8451
12.8996 73.2845
12.9445 74.9293
12.9894 76.656
13.0343 78.2776
13.0792 82.2339
13.1242 97.0585
13.1691 125.75
13.214 165.397
13.2589 243.38
13.3038 350.64
13.3487 425.08
13.3937 283.917
13.4386 133.386
13.4835 116.49
13.5285 134.934
13.5734 171.322
13.6183 240.725
13.6633 329.436
13.7082 343.072
13.7531 203.107
13.7981 103.041
13.843 84.6638
13.888 82.1605
13.9329 79.6711
13.9779 78.0755
14.0228 76.7099
14.0678 75.2108
14.1127 74.7509
14.1577 74.6099
14.2027 73.5962
14.2476 72.379
14.2926 72.6564
14.3376 73.2675
14.3825 72.2255
14.4275 71.0218
14.4725 70.7283
14.5175 71.0984
14.5624 71.0123
14.6074 72.9097
14.6524 73.5241
14.6974 72.9697
14.7424 76.0783
14.7874 85.1175
14.8324 97.2284
14.8774 118.274
14.9224 153.439
14.9674 199.128
15.0124 218.508
15.0574 156.411
15.1024 94.6956
15.1474 74.6517
15.1924 72.5902
15.2374 72.7411
15.2824 71.9478
15.3274 70.0918
15.3725 68.7965
15.4175 68.5697
15.4625 68.0289
15.5076 68.345
15.5526 68.469
15.5976 68.1021
15.6426 70.5605
15.6877 78.0075
15.7327 86.7635
15.7778 101.813
15.8228 127.617
15.8679 162.784
15.9129 192.391
15.958 165.153
16.003 103.375
16.0481 70.2009
16.0931 65.9183
16.1382 64.2188
16.1833 62.1318
16.2283 60.8435
16.2734 60.087
16.3185 60.0303
16.3636 60.4314
16.4086 59.0328
16.4537 57.6997
16.4988 57.2871
16.5439 57.2276
16.589 56.7196
16.6341 56.6081
16.6792 56.1089
16.7243 56.353
16.7694 56.4702
16.8145 56.4462
16.8596 56.7199
16.9047 58.0103
16.9498 58.0999
16.9949 57.3317
17.04 57.7152
17.0851 59.3837
17.1302 61.4235
17.1754 64.4715
17.2205 68.6504
17.2656 74.86
17.3108 82.8659
17.3559 84.1983
17.401 74.5422
17.4462 64.5841
17.4913 61.2317
17.5365 60.9877
17.5815 61.0938
17.6268 61.5426
17.6718 62.1433
17.7171 62.7795
17.7622 63.3262
17.8074 64.2431
17.8525 67.9192
17.8977 72.5635
17.9428 78.6075
17.9881 87.2274
18.0331 101.341
18.0784 119.358
18.1237 140.199
18.1688 138.304
18.214 111.692
18.2591 91.1582
18.3044 91.5188
18.3495 98.947
18.3948 106.738
18.4399 99.4434
18.4852 80.496
18.5303 68.2079
18.5756 63.9859
18.6207 63.2295
18.666 62.2093
18.7112 61.414
18.7565 60.8955
18.8016 60.4586
18.8469 59.7302
18.892 59.6041
18.9374 59.1221
18.9825 58.641
19.0278 58.5774
19.073 59.076
19.1183 59.5173
19.1635 60.5336
19.2088 61.968
19.254 64.2991
19.2993 67.7011
19.3447 72.5548
19.3898 77.4131
19.4352 74.6511
19.4804 66.2162
19.5257 58.8048
19.5709 55.9432
19.6163 55.4651
19.6615 55.3046
19.7068 54.9631
19.752 55.1344
19.7974 55.5717
19.8426 56.5829
19.888 57.1172
19.9332 58.5
19.9786 60.7352
20.0238 63.8366
20.0692 67.7544
20.1144 71.2323
20.1598 71.1928
20.205 66.3748
20.2504 63.668
20.2957 64.5302
20.3411 66.4922
20.3863 65.9661
20.4318 60.72
20.477 55.4828
20.5224 53.0303
20.5677 52.4986
20.6131 51.8135
20.6586 51.2245
20.7038 51.0144
20.7493 50.7571
20.7945 50.4495
20.84 50.2482
20.8853 50.2907
20.9307 50.1328
20.976 50.2112
21.0215 50.1896
21.0668 50.6816
21.1122 51.1709
21.1575 51.5832
21.203 52.1927
21.2483 52.7893
21.2938 53.3821
21.3391 51.9257
21.3846 50.7575
21.4299 50.0732
21.4754 49.8767
21.5207 50.2046
21.5662 50.4622
21.6116 51.1842
21.6571 51.9237
21.7024 52.9919
21.7479 54.6106
21.7933 57.107
21.8388 60.0797
21.8843 63.3552
21.9297 66.3973
21.9752 65.6989
22.0206 61.7341
22.0661 57.904
22.1115 57.1191
22.157 57.3586
22.2024 56.125
22.248 53.4105
22.2933 51.4626
22.3389 50.5118
22.3843 50.4845
22.4299 50.4671
22.4753 50.2616
22.5208 50.0646
22.5662 50.0777
22.6118 50.3342
22.6572 50.6189
22.7028 51.1084
22.7483 51.4547
22.7939 52.2416
22.8393 53.5306
22.8849 55.4279
22.9303 56.8528
22.9759 58.8534
23.0214 59.0656
23.067 56.5825
23.1126 52.9092
23.1581 50.871
23.2037 50.5013
23.2492 50.5243
23.2948 50.674
23.3403 50.7963
23.3859 51.6374
23.4314 52.4617
23.477 53.9688
23.5225 55.5187
23.5682 57.5495
23.6137 59.2123
23.6593 57.633
23.7048 53.662
23.7505 49.9469
23.796 47.984
23.8417 47.3773
23.8872 46.9879
23.9329 46.6626
23.9784 46.2228
24.0241 46.2437
24.0697 45.864
24.1154 45.4933
24.1609 45.2959
24.2066 45.1093
24.2522 45.0707
24.2979 44.8825
24.3434 44.6436
24.3892 44.4333
24.4349 44.4091
24.4805 44.0881
24.5262 44.426
24.5718 44.1002
24.6175 44.2234
24.6631 44.1906
24.7089 43.763
24.7545 43.6946
24.8002 43.4489
24.8458 43.5038
24.8916 43.4259
24.9372 43.4084
24.983 43.9171
25.0286 44.1938
25.0744 44.6412
25.12 44.9635
25.1658 45.5925
25.2114 45.9361
25.2572 45.9285
25.3029 45.8745
25.3487 46.146
25.3943 46.0111
25.4402 45.0566
25.4858 43.8664
25.5316 42.7051
25.5773 42.2141
25.6231 42.2623
25.669 41.8169
25.7147 41.7571
25.7605 41.7246
25.8062 41.8948
25.8521 41.8253
25.8977 41.7861
25.9436 42.0248
25.9893 42.1443
26.0352 42.6454
26.0809 42.6186
26.1268 42.8925
26.1725 42.6112
26.2184 42.1619
26.2641 41.5957
26.31 41.4188
26.3557 41.3029
26.4017 41.4297
26.4474 41.8577
26.4933 41.9995
26.5391 42.4074
26.585 42.8132
26.6308 43.1135
26.6767 43.4198
26.7225 43.3191
26.7684 42.7291
26.8142 42.1545
26.8601 41.5901
26.9059 41.2468
26.9519 40.8297
26.9979 40.2678
27.0437 40.1997
27.0896 39.7915
27.1354 39.8929
27.1814 39.6899
27.2272 39.7645
27.2732 39.7028
27.3191 39.5664
27.3651 39.6664
27.4109 39.4755
27.4569 39.6438
27.5027 39.5729
27.5488 39.6523
27.5946 39.5357
27.6407 39.426
27.6865 39.334
27.7326 39.0751
27.7784 39.1159
27.8245 38.8969
27.8703 39.1663
27.9164 39.3396
27.9623 39.5253
28.0084 39.7574
28.0543 39.9875
28.1003 40.1359
28.1462 40.0161
28.1923 39.6711
28.2384 39.072
28.2843 38.7258
28.3304 38.3666
28.3764 37.8744
28.4225 37.5666
28.4684 37.3039
28.5145 37.0291
28.5605 36.8634
28.6066 36.7777
28.6526 36.6846
28.6987 36.5933
28.7447 36.5471
28.7908 36.3655
28.8368 36.484
28.8829 36.4939
28.9289 36.4452
28.9751 36.273
29.0211 35.9406
29.0673 35.7282
29.1133 35.5995
29.1595 35.4485
29.2055 35.2946
29.2517 35.3328
29.2977 35.1831
29.3439 35.1895
29.3899 35.2331
29.4361 35.1006
29.4824 35.0179
29.5284 34.7582
29.5746 34.5662
29.6207 34.161
29.6669 34.0115
29.713 33.804
29.7593 33.8947
29.8053 33.8206
29.8516 33.7734
29.8977 33.7769
29.9439 33.5436
29.99 33.4281
30.0363 33.4583
30.0824 33.415
30.1287 33.3549
30.1748 33.4228
30.2211 33.2814
30.2673 33.2806
30.3136 33.1803
30.3597 33.2916
30.406 33.1897
30.4522 32.9846
30.4985 32.9634
30.5447 33.1982
30.591 33.1123
30.6372 33.0497
30.6835 33.0673
30.7297 33.1384
30.7761 32.9878
30.8224 32.9848
30.8686 32.8791
30.915 32.4595
30.9612 32.4678
31.0076 32.2873
31.0538 32.1825
31.1002 32.0446
31.1464 31.9108
31.1928 31.8613
31.2391 31.9683
31.2855 31.774
31.3317 31.6847
31.3781 31.8399
31.4244 31.7478
31.4708 31.6273
31.5171 31.6758
31.5636 31.7095
31.6098 31.5038
31.6563 31.3109
31.7026 31.1278
31.7491 30.9485
31.7953 31.0149
31.8418 30.9701
31.8881 30.9977
31.9346 30.9897
31.9809 30.9887
32.0275 30.8614
32.074 30.7204
32.1203 30.4418
32.1668 30.4592
32.2132 30.2717
32.2597 30.2143
32.306 30.0646
32.3526 29.7969
32.399 29.7553
32.4455 29.6398
32.4919 29.5136
32.5385 29.4818
32.5848 29.3334
32.6314 29.2848
32.6778 29.2877
32.7244 29.1577
32.7708 29.0567
32.8174 29.0372
32.8638 28.8415
32.9104 28.9124
32.9569 28.8453
33.0035 28.6565
33.0499 28.6718
33.0966 28.6828
33.143 28.6291
33.1897 28.5777
33.2361 28.4686
33.2828 28.4044
33.3293 28.2562
33.3759 28.1785
33.4226 28.017
33.4691 27.8336
33.5158 27.7739
33.5623 27.7352
33.609 27.5009
33.6555 27.475
33.7022 27.3445
33.7487 27.3208
33.7954 27.2609
33.842 27.1245
33.8887 27.1402
33.9353 27.05
33.982 26.9093
34.0286 26.8423
34.0753 26.7269
34.1219 26.6014
34.1687 26.6046
34.2152 26.5001
34.262 26.3556
34.3086 26.3064
34.3554 26.3061
34.402 26.2106
34.4488 26.0135
34.4954 26.0159
34.5422 25.9073
34.5889 25.7521
34.6357 25.7065
34.6825 25.6528
34.7292 25.5637
34.776 25.4181
34.8227 25.4476
34.8695 25.3297
34.9162 25.2461
34.9631 25.1301
35.0098 25.2942
35.0566 25.0495
35.1033 24.9582
35.1502 24.9915
35.1969 24.8641
35.2438 24.8197
35.2906 24.7914
35.3375 24.7334
35.3842 24.6154
35.4311 24.7215
35.4779 24.5777
35.5248 24.6235
35.5716 24.4613
35.6185 24.2778
35.6653 24.3088
35.7123 24.2282
35.759 24.1779
35.806 24.0751
35.8528 23.8524
35.8998 23.9444
35.9468 23.7883
35.9936 23.7761
36.0406 23.6579
36.0874 23.6728
36.1345 23.5808
36.1813 23.4692
36.2283 23.3588
36.2752 23.2318
36.3222 23.2818
36.3691 23.2755
36.4161 23.0969
36.463 23.0416
36.5101 23.0875
36.557 22.998
36.6041 22.7803
36.651 22.7804
36.6981 22.7837
36.745 22.6396
36.7921 22.6389
36.839 22.4682
36.8861 22.4764
36.9331 22.374
36.9802 22.3281
37.0272 22.2234
37.0743 22.1511
37.1213 22.142
37.1684 22.0617
37.2154 21.9753
37.2626 21.8349
37.3098 21.8152
37.3568 21.7439
37.404 21.7287
37.451 21.5786
37.4982 21.5763
37.5452 21.4821
37.5924 21.3843
37.6395 21.4071
37.6867 21.2963
37.7337 21.254
37.781 21.1043
37.8281 21.0895
37.8753 21.019
37.9224 20.8802
37.9697 20.8346
38.0168 20.7587
38.064 20.6917
38.1111 20.7051
38.1584 20.5651
38.2056 20.5411
38.2529 20.531
38.3 20.4486
38.3473 20.4314
38.3945 20.2347
38.4418 20.1617
38.489 20.1671
38.5363 20.0771
38.5837 20.0267
38.6309 19.9262
38.6782 19.8497
38.7254 19.7702
38.7728 19.8058
38.82 19.6959
38.8674 19.6427
38.9146 19.5992
38.9621 19.5521
39.0093 19.5054
39.0567 19.3848
39.104 19.3663
39.1514 19.1984
39.1987 19.1492
39.2461 19.1405
39.2934 19.1626
39.3409 18.995
39.3882 18.9234
39.4356 18.9294
39.483 18.8168
39.5304 18.7626
39.5778 18.7552
39.6253 18.6489
39.6726 18.5995
39.7201 18.6312
39.7675 18.4752
39.815 18.4543
39.8624 18.3817
39.9099 18.3127
39.9575 18.2502
40.0049 18.2538
40.0525 18.1361
40.0999 18.0811
40.1474 17.9883
40.1949 17.9461
40.2425 17.8586
40.2899 17.8693
40.3375 17.78
40.385 17.7352
40.4326 17.675
40.48 17.687
40.5277 17.6169
40.5752 17.554
40.6228 17.4723
40.6703 17.391
40.718 17.3681
40.7655 17.2939
40.8132 17.2314
40.8607 17.1611
40.9084 17.1414
40.9559 17.0683
41.0036 17.077
41.0512 16.9671
41.0989 16.9674
41.1465 16.8341
41.1942 16.7914
41.242 16.7193
41.2896 16.7108
41.3373 16.6281
41.3849 16.5852
41.4327 16.5499
41.4803 16.394
41.5281 16.4051
41.5758 16.3679
41.6236 16.3218
41.6712 16.2277
41.7191 16.1728
41.7667 16.1663
41.8146 16.1298
41.8622 16.0928
41.9101 15.9712
41.9578 15.9024
42.0057 15.8824
42.0534 15.7941
42.1013 15.8045
42.149 15.6642
42.1969 15.689
42.2446 15.5895
42.2925 15.5493
42.3403 15.5096
42.3882 15.4534
42.436 15.4269
42.4839 15.3496
42.5319 15.3126
42.5797 15.2294
42.6277 15.1365
42.6755 15.1016
42.7235 15.0477
42.7713 15.045
42.8193 14.9456
42.8671 14.9401
42.9152 14.8713
42.963 14.8529
43.0111 14.7832
43.0589 14.6834
43.107 14.7221
43.1549 14.6292
43.2029 14.5826
43.2508 14.6051
43.2989 14.488
43.3468 14.3871
43.3949 14.3787
43.4429 14.2719
43.491 14.255
43.5389 14.2221
43.5871 14.1839
43.635 14.1339
43.6832 14.0816
43.7312 14.04
43.7793 13.9914
43.8273 13.972
43.8755 13.8785
43.9237 13.8474
43.9717 13.7716
44.0199 13.7018
44.068 13.7397
44.1162 13.6883
44.1642 13.5852
44.2125 13.548
44.2606 13.4886
44.3088 13.4341
44.3569 13.4219
44.4052 13.358
44.4533 13.3376
44.5016 13.2843
44.5497 13.2214
44.598 13.1536
44.6461 13.0776
44.6945 13.0917
44.7426 13.0484
44.791 12.9671
44.8391 12.9523
44.8875 12.8861
44.9357 12.8718
44.984 12.791
45.0322 12.7499
45.0806 12.6908
45.1288 12.7007
45.1773 12.6328
45.2257 12.5926
45.2739 12.5535
45.3224 12.4815
45.3706 12.4517
45.4191 12.3852
45.4673 12.3588
45.5158 12.3481
45.5641 12.3011
45.6126 12.2297
45.6609 12.1798
45.7094 12.1256
45.7577 12.1093
45.8063 12.054
45.8546 12.0085
45.9031 11.958
45.9515 11.9456
46.0001 11.8823
46.0484 11.848
46.097 11.7953
46.1454 11.8028
46.194 11.7296
46.2424 11.6808
46.291 11.671
46.3395 11.6
46.3881 11.544
46.4365 11.5522
46.4852 11.4573
46.5337 11.4037
46.5823 11.3854
46.631 11.3074
46.6795 11.2958
46.7282 11.2362
46.7767 11.2222
46.8254 11.1532
46.8739 11.127
46.9226 11.1117
46.9712 11.0198
47.0199 11.0381
47.0685 10.9822
47.1173 10.9113
47.1658 10.8904
47.2146 10.8506
47.2632 10.8111
47.312 10.7823
47.3606 10.7271
47.4095 10.6516
47.4581 10.6591
47.5069 10.5998
47.5556 10.5587
47.6044 10.4989
47.6531 10.469
47.702 10.445
47.7507 10.4027
47.7996 10.3981
47.8483 10.3373
47.8972 10.3214
47.9461 10.253
47.9948 10.191
48.0438 10.2036
48.0925 10.1684
48.1415 10.1494
48.1902 10.071
48.2392 10.0339
48.288 10.0285
48.337 9.98031
48.3858 9.96677
48.4348 9.86802
48.4837 9.90147
48.5327 9.81093
48.5815 9.78657
48.6306 9.77409
48.6795 9.71784
48.7285 9.63522
48.7774 9.66767
48.8265 9.6085
48.8754 9.59402
48.9245 9.58665
48.9734 9.51183
49.0226 9.45519
49.0715 9.43366
49.1206 9.4175
49.1696 9.35769
49.2188 9.32673
49.2679 9.28167
49.3169 9.25885
49.3661 9.2383
49.4151 9.16564
49.4643 9.16234
49.5134 9.14222
49.5626 9.03457
49.6117 9.05905
49.6609 9.05006
49.71 8.95825
49.7592 8.94836
49.8083 8.89175
49.8576 8.89414
49.9067 8.80517
49.956 8.80911
50.0052 8.77489
50.0545 8.7342
50.1036 8.70859
50.153 8.7129
50.2022 8.64374
50.2515 8.60027
50.3007 8.552
50.3501 8.47973
50.3993 8.51675
50.4487 8.45402
50.498 8.41659
50.5474 8.43059
50.5966 8.36467
50.6461 8.33954
50.6955 8.29806
50.7448 8.26841
50.7943 8.21173
50.8436 8.21592
50.8931 8.17564
50.9424 8.15834
50.9919 8.12549
51.0413 8.12047
51.0908 8.04263
51.1402 8.04233
51.1897 7.99698
51.2391 7.99088
51.2887 7.91074
51.3381 7.90004
51.3877 7.86114
51.4371 7.77763
51.4867 7.7887
51.5362 7.73941
51.5858 7.70685
51.6353 7.65085
51.6849 7.68511
51.7344 7.6327
51.7841 7.60296
51.8336 7.61745
51.8833 7.56274
51.9328 7.47259
51.9826 7.50329
52.0323 7.45285
52.0818 7.41088
52.1316 7.32301
52.1812 7.37159
52.231 7.35183
52.2806 7.31526
52.3304 7.26887
52.38 7.23238
52.4298 7.1988
52.4794 7.18662
52.5293 7.16739
52.5789 7.08318
52.6288 7.07939
52.6785 7.06585
52.7284 7.04231
52.7781 7.01021
52.828 6.98124
52.8777 6.93675
52.9276 6.92311
52.9774 6.86379
53.0273 6.84724
53.0771 6.80073
53.1271 6.79461
53.1769 6.75472
53.2269 6.77512
53.2767 6.70162
53.3267 6.69837
53.3765 6.67343
53.4266 6.61662
53.4766 6.58459
53.5265 6.5767
53.5765 6.57533
53.6264 6.55954
53.6765 6.49517
53.7264 6.48283
53.7765 6.42299
53.8265 6.37483
53.8766 6.34862
53.9266 6.3224
53.9767 6.29072
54.0267 6.28628
54.0769 6.26979
54.1269 6.22908
54.1771 6.20077
54.2271 6.1297
54.2773 6.12941
54.3274 6.10769
54.3776 6.06474
54.4277 6.02909
54.478 5.99222
54.528 5.96663
54.5783 5.89465
54.6285 5.87428
54.6788 5.84316
54.7289 5.77047
54.7792 5.78664
54.8296 5.74724
54.8798 5.66087
54.9301 5.63327
54.9803 5.60792
55.0307 5.57125
55.0809 5.49947
55.1314 5.48314
55.1816 5.47558
55.232 5.39739
55.2823 5.33175
55.3328 5.33709
55.383 5.27219
55.4335 5.19576
55.4838 5.13399
55.5344 5.11958
55.5847 5.08201
55.6352 5.04087
55.6856 4.9391
55.7361 4.98932