File: XRD/Ni3Fe_FD0584.xy
TT I
1.27165 7.59446
1.31627 6.84712
1.36089 6.81089
1.40551 6.52947
1.45013 6.7527
1.49476 6.24689
1.53938 6.44697
1.584 5.69903
1.62863 5.22374
1.67325 5.51175
1.71787 4.81807
1.7625 4.74832
1.80712 4.50756
1.85174 4.57614
1.89636 4.72591
1.94099 4.78486
1.98562 4.91925
2.03025 4.3425
2.07487 4.68551
2.11949 5.06137
2.16411 4.55619
2.20874 9.40147
2.25338 13.5684
2.298 5.29374
2.34263 5.11498
2.38725 6.09495
2.43188 6.0881
2.4765 6.61517
2.52115 5.63717
2.56577 6.57103
2.6104 7.9148
2.65503 7.41494
2.69965 8.09168
2.7443 7.95792
2.78893 8.06068
2.83356 8.3752
2.87818 8.88034
2.92281 8.59477
2.96744 9.10146
3.01209 9.95227
3.05672 10.7071
3.10135 12.3885
3.14599 12.7514
3.19062 13.5595
3.23527 15.1022
3.2799 15.4132
3.32454 16.7879
3.36917 17.0073
3.4138 18.5781
3.45844 19.4884
3.50309 20.9496
3.54773 21.2519
3.59237 22.8165
3.637 54.7504
3.68164 39.4008
3.7263 24.9768
3.77094 26.1588
3.81558 26.4619
3.86022 27.7537
3.90486 28.7387
3.9495 29.5851
3.99416 30.3629
4.0388 31.9431
4.08344 33.2908
4.12809 34.52
4.17273 36.5434
4.21738 39.8921
4.26204 135.265
4.30669 119.182
4.35133 44.8095
4.39598 43.751
4.44063 49.6573
4.4853 56.0868
4.52995 53.9476
4.5746 54.4561
4.61925 53.7372
4.6639 55.976
4.70855 58.6309
4.75322 61.5196
4.79788 66.7428
4.84253 68.0122
4.88719 74.2409
4.93184 76.8134
4.97652 81.8478
5.02118 88.6317
5.06583 96.8981
5.11049 109.066
5.15515 161.675
5.19981 473.657
5.24449 3201.83
5.28916 12257.1
5.33382 2769.99
5.37848 199.424
5.42315 131.372
5.46783 117.694
5.5125 110.539
5.55716 102.819
5.60183 98.8174
5.6465 96.8724
5.69117 95.3747
5.73586 93.8839
5.78053 96.1395
5.8252 96.0272
5.86988 98.2471
5.91455 97.1377
5.95924 109.032
6.00392 271.781
6.0486 1101.82
6.09328 4404.25
6.13795 3341.21
6.18263 240.188
6.22733 93.3143
6.27201 81.8338
6.3167 87.6092
6.36138 75.7023
6.40606 69.6674
6.45075 68.7716
6.49545 65.543
6.54014 64.0136
6.58483 62.8514
6.62952 62.373
6.67421 75.9091
6.71892 99.1808
6.76361 63.1658
6.8083 58.9041
6.853 58.7507
6.89769 56.9012
6.94239 56.5921
6.98711 55.5483
7.03181 55.9011
7.07651 55.1873
7.12121 55.2529
7.16591 55.6734
7.21063 55.2915
7.25533 61.8783
7.30004 110.047
7.34475 71.3826
7.38945 55.2106
7.43416 53.9506
7.47889 53.88
7.5236 54.5224
7.56831 55.5837
7.61303 55.9378
7.65774 56.0008
7.70247 56.488
7.74719 56.4166
7.79191 56.7583
7.83663 57.1919
7.88135 57.8288
7.92607 59.1008
7.97081 59.9334
8.01553 61.212
8.06026 62.8033
8.10498 64.0442
8.14971 70.6679
8.19446 70.4592
8.23919 69.7594
8.28392 72.6005
8.32865 74.5269
8.37339 79.2517
8.41812 85.1625
8.46288 107.344
8.50761 196.067
8.55235 436.374
8.59709 1259.46
8.64183 2202.37
8.68658 936.786
8.73134 158.692
8.77609 99.6948
8.82083 93.0912
8.86558 91.5086
8.91033 91.3097
8.9551 89.7368
8.99985 85.8078
9.04461 84.457
9.08936 83.7295
9.13412 82.8333
9.17888 82.6964
9.22365 82.7247
9.26841 82.6232
9.31318 84.6482
9.35794 85.2379
9.4027 85.1393
9.44749 85.0351
9.49226 85.1583
9.53703 86.365
9.5818 89.0788
9.62657 93.2241
9.67134 95.4014
9.71614 93.806
9.76091 95.4162
9.80569 98.9235
9.85047 101.591
9.89525 114.484
9.94005 131.868
9.98484 209.327
10.0296 380.425
10.0744 863.661
10.1192 1727.44
10.164 1554.33
10.2088 372.097
10.2536 125.308
10.2984 110.9
10.3432 110.148
10.388 106.802
10.4328 126.971
10.4776 171.968
10.5224 299.077
10.5672 517.82
10.612 487.739
10.6568 189.905
10.7017 95.4465
10.7465 86.6707
10.7913 83.6244
10.8361 81.4079
10.8809 79.1497
10.9257 78.0835
10.9706 78.2704
11.0154 74.8841
11.0602 72.8761
11.105 72.1287
11.1499 73.222
11.1947 75.8587
11.2395 70.9348
11.2844 69.1024
11.3292 67.0986
11.374 66.2689
11.4189 65.5149
11.4637 65.2539
11.5086 64.7178
11.5534 66.0557
11.5983 64.4475
11.6431 63.8526
11.688 62.9056
11.7328 62.9963
11.7777 63.0477
11.8225 62.5817
11.8674 62.7922
11.9122 63.1102
11.9571 63.2985
12.002 64.9316
12.0468 70.8478
12.0917 81.7065
12.1366 105.853
12.1814 155.578
12.2263 203.199
12.2712 162.525
12.3161 90.3627
12.3609 67.7786
12.4058 64.5587
12.4507 64.7906
12.4956 64.8665
12.5405 64.9474
12.5853 65.3064
12.6302 69.056
12.6751 72.3869
12.72 68.8245
12.7649 68.4161
12.8098 68.7485
12.8547 70.0748
12.8996 71.737
12.9445 73.0641
12.9894 74.8292
13.0343 76.635
13.0792 81.252
13.1242 95.339
13.1691 117.404
13.214 157.872
13.2589 252.465
13.3038 375.396
13.3487 422.637
13.3937 251.274
13.4386 121.856
13.4835 111.256
13.5285 126.392
13.5734 167.912
13.6183 253.955
13.6633 349.453
13.7082 331.289
13.7531 180.931
13.7981 96.4176
13.843 82.373
13.888 80.0345
13.9329 77.6123
13.9779 76.1812
14.0228 74.8005
14.0678 73.2913
14.1127 72.9888
14.1577 72.4628
14.2027 71.642
14.2476 70.7824
14.2926 70.3248
14.3376 70.9096
14.3825 70.1338
14.4275 69.3487
14.4725 69.0979
14.5175 69.2697
14.5624 69.3426
14.6074 70.5413
14.6524 71.0964
14.6974 71.5132
14.7424 74.8251
14.7874 81.9404
14.8324 92.6128
14.8774 116.07
14.9224 158.909
14.9674 209.464
15.0124 213.808
15.0574 143.414
15.1024 88.6541
15.1474 72.5507
15.1924 70.5266
15.2374 70.1562
15.2824 69.1309
15.3274 67.9781
15.3725 67.0168
15.4175 66.4997
15.4625 66.3603
15.5076 66.4644
15.5526 66.4742
15.5976 66.5854
15.6426 69.1076
15.6877 74.8912
15.7327 82.6528
15.7778 99.0603
15.8228 131.119
15.8679 173.079
15.9129 193.252
15.958 150.325
16.003 93.3714
16.0481 66.9535
16.0931 63.571
16.1382 61.8606
16.1833 60.6563
16.2283 59.0093
16.2734 58.4067
16.3185 58.2905
16.3636 58.0418
16.4086 57.1227
16.4537 56.4432
16.4988 55.9308
16.5439 55.7654
16.589 55.4049
16.6341 54.9255
16.6792 54.8833
16.7243 54.9832
16.7694 54.9144
16.8145 54.9662
16.8596 55.2062
16.9047 55.9927
16.9498 56.2361
16.9949 55.7188
17.04 56.5321
17.0851 57.785
17.1302 59.3714
17.1754 62.6833
17.2205 67.6953
17.2656 74.9955
17.3108 82.5876
17.3559 81.7089
17.401 70.6216
17.4462 62.309
17.4913 59.7634
17.5365 59.4965
17.5815 59.5695
17.6268 60.0368
17.6718 60.6519
17.7171 61.1588
17.7622 61.9854
17.8074 63.1118
17.8525 66.2097
17.8977 69.8499
17.9428 75.7326
17.9881 85.4359
18.0331 102.837
18.0784 123.478
18.1237 141.11
18.1688 131.672
18.214 102.946
18.2591 87.4834
18.3044 91.8256
18.3495 101.394
18.3948 106.24
18.4399 96.0002
18.4852 77.033
18.5303 65.7483
18.5756 62.4083
18.6207 61.5732
18.666 60.5661
18.7112 59.8899
18.7565 59.2503
18.8016 58.8599
18.8469 58.3316
18.892 58.0674
18.9374 57.5288
18.9825 57.3297
19.0278 57.3505
19.073 57.5984
19.1183 58.0624
19.1635 58.3008
19.2088 59.8882
19.254 63.1006
19.2993 67.3812
19.3447 72.7899
19.3898 76.0259
19.4352 71.8787
19.4804 62.9192
19.5257 56.9925
19.5709 54.5503
19.6163 54.229
19.6615 53.982
19.7068 53.6616
19.752 53.6263
19.7974 54.4286
19.8426 54.9114
19.888 55.5293
19.9332 56.9079
19.9786 59.6663
20.0238 63.5136
20.0692 68.0238
20.1144 70.1264
20.1598 68.2652
20.205 63.7869
20.2504 62.835
20.2957 64.1881
20.3411 65.8785
20.3863 63.9093
20.4318 58.1683
20.477 53.318
20.5224 51.4688
20.5677 50.8625
20.6131 50.3199
20.6586 49.8212
20.7038 49.7502
20.7493 49.2347
20.7945 49.1715
20.84 49.1923
20.8853 48.939
20.9307 48.8712
20.976 49.1465
21.0215 48.9793
21.0668 49.3175
21.1122 49.9135
21.1575 50.5381
21.203 51.1659
21.2483 51.602
21.2938 51.8497
21.3391 50.2541
21.3846 49.069
21.4299 48.7517
21.4754 48.8312
21.5207 48.795
21.5662 49.2631
21.6116 50.0088
21.6571 50.5498
21.7024 51.6634
21.7479 53.4355
21.7933 56.3671
21.8388 59.8059
21.8843 63.1924
21.9297 64.9156
21.9752 63.2926
22.0206 59.5079
22.0661 56.6408
22.1115 56.2495
22.157 56.1757
22.2024 54.523
22.248 51.484
22.2933 49.9933
22.3389 49.2637
22.3843 49.2862
22.4299 48.9891
22.4753 49.0978
22.5208 48.8245
22.5662 48.8606
22.6118 49.0901
22.6572 49.4515
22.7028 49.6963
22.7483 50.0529
22.7939 50.9471
22.8393 52.6221
22.8849 54.6987
22.9303 56.4184
22.9759 58.1012
23.0214 57.3655
23.067 54.5476
23.1126 51.1414
23.1581 49.543
23.2037 49.1385
23.2492 49.3556
23.2948 49.3519
23.3403 49.5246
23.3859 50.2065
23.4314 51.3907
23.477 53.4143
23.5225 55.33
23.5682 57.1912
23.6137 58.1196
23.6593 55.495
23.7048 51.5897
23.7505 48.4468
23.796 46.7903
23.8417 46.2439
23.8872 45.9067
23.9329 45.3735
23.9784 45.132
24.0241 44.8868
24.0697 44.732
24.1154 44.3361
24.1609 44.0949
24.2066 43.9844
24.2522 43.9153
24.2979 43.6163
24.3434 43.4983
24.3892 43.3327
24.4349 43.473
24.4805 43.2359
24.5262 43.4288
24.5718 43.2066
24.6175 43.1688
24.6631 43.0419
24.7089 42.6636
24.7545 42.4904
24.8002 42.4558
24.8458 42.3534
24.8916 42.2881
24.9372 42.5805
24.983 42.9746
25.0286 43.1972
25.0744 43.6318
25.12 44.0706
25.1658 44.6963
25.2114 45.0529
25.2572 44.9797
25.3029 44.9133
25.3487 45.2126
25.3943 44.927
25.4402 43.6453
25.4858 42.4677
25.5316 41.6847
25.5773 41.2209
25.6231 41.2517
25.669 40.8395
25.7147 40.7069
25.7605 40.6792
25.8062 40.7457
25.8521 40.78
25.8977 40.8487
25.9436 41.1324
25.9893 41.2103
26.0352 41.6871
26.0809 41.7486
26.1268 42.0178
26.1725 41.6228
26.2184 40.9869
26.2641 40.4633
26.31 40.2974
26.3557 40.3683
26.4017 40.4484
26.4474 40.7585
26.4933 41.0158
26.5391 41.5811
26.585 42.0015
26.6308 42.3819
26.6767 42.396
26.7225 42.1884
26.7684 41.5894
26.8142 41.0745
26.8601 40.545
26.9059 40.2813
26.9519 39.6937
26.9979 39.4777
27.0437 39.1689
27.0896 39.0002
27.1354 38.9782
27.1814 38.9141
27.2272 38.7183
27.2732 38.7959
27.3191 38.6285
27.3651 38.7354
27.4109 38.684
27.4569 38.7366
27.5027 38.8296
27.5488 38.8636
27.5946 38.5531
27.6407 38.39
27.6865 38.2514
27.7326 38.0997
27.7784 38.0758
27.8245 38.1792
27.8703 38.2463
27.9164 38.5535
27.9623 38.7032
28.0084 38.9132
28.0543 39.4723
28.1003 39.3106
28.1462 39.1408
28.1923 38.567
28.2384 38.1044
28.2843 37.8272
28.3304 37.4132
28.3764 36.8781
28.4225 36.6016
28.4684 36.3951
28.5145 36.1917
28.5605 36.1228
28.6066 35.9102
28.6526 35.7967
28.6987 35.7895
28.7447 35.6876
28.7908 35.6667
28.8368 35.5822
28.8829 35.6742
28.9289 35.6059
28.9751 35.2757
29.0211 35.0773
29.0673 34.9524
29.1133 34.7906
29.1595 34.5959
29.2055 34.6455
29.2517 34.58
29.2977 34.5417
29.3439 34.4938
29.3899 34.4469
29.4361 34.335
29.4824 34.2146
29.5284 33.9137
29.5746 33.5351
29.6207 33.4515
29.6669 33.2828
29.713 33.1892
29.7593 33.0803
29.8053 33.0183
29.8516 33.0017
29.8977 32.9932
29.9439 32.8793
29.99 32.7544
30.0363 32.6982
30.0824 32.8104
30.1287 32.6797
30.1748 32.5865
30.2211 32.6387
30.2673 32.4593
30.3136 32.5148
30.3597 32.4954
30.406 32.4312
30.4522 32.3862
30.4985 32.2236
30.5447 32.3281
30.591 32.3379
30.6372 32.2887
30.6835 32.464
30.7297 32.3961
30.7761 32.2611
30.8224 32.2776
30.8686 32.0358
30.915 31.8251
30.9612 31.6689
31.0076 31.4909
31.0538 31.3883
31.1002 31.3425
31.1464 31.0949
31.1928 31.0896
31.2391 31.1116
31.2855 30.9956
31.3317 31.0178
31.3781 31.1825
31.4244 31.0346
31.4708 31.0557
31.5171 30.9851
31.5636 30.8727
31.6098 30.6711
31.6563 30.6083
31.7026 30.4006
31.7491 30.2632
31.7953 30.2931
31.8418 30.4016
31.8881 30.278
31.9346 30.32
31.9809 30.2274
32.0275 30.0576
32.074 29.9584
32.1203 29.7953
32.1668 29.6694
32.2132 29.5545
32.2597 29.447
32.306 29.4158
32.3526 29.1909
32.399 29.0562
32.4455 28.901
32.4919 28.9413
32.5385 28.782
32.5848 28.7103
32.6314 28.6395
32.6778 28.6173
32.7244 28.3972
32.7708 28.3308
32.8174 28.4079
32.8638 28.1587
32.9104 28.3689
32.9569 28.194
33.0035 27.9757
33.0499 27.957
33.0966 27.9496
33.143 28.0083
33.1897 27.892
33.2361 27.7473
33.2828 27.6964
33.3293 27.5316
33.3759 27.5951
33.4226 27.4474
33.4691 27.2331
33.5158 27.2113
33.5623 27.0549
33.609 26.9542
33.6555 26.7814
33.7022 26.8121
33.7487 26.7014
33.7954 26.6102
33.842 26.4794
33.8887 26.4897
33.9353 26.3951
33.982 26.1902
34.0286 26.1645
34.0753 26.1169
34.1219 25.9775
34.1687 25.9367
34.2152 25.9314
34.262 25.7479
34.3086 25.7057
34.3554 25.6229
34.402 25.5543
34.4488 25.5143
34.4954 25.3983
34.5422 25.275
34.5889 25.2391
34.6357 25.1034
34.6825 24.972
34.7292 24.9851
34.776 24.8979
34.8227 24.8439
34.8695 24.8206
34.9162 24.81
34.9631 24.6728
35.0098 24.6256
35.0566 24.5276
35.1033 24.4304
35.1502 24.3901
35.1969 24.3185
35.2438 24.2664
35.2906 24.2853
35.3375 24.2109
35.3842 24.1152
35.4311 24.1158
35.4779 24.0678
35.5248 24.0264
35.5716 23.8853
35.6185 23.8666
35.6653 23.6749
35.7123 23.6155
35.759 23.5721
35.806 23.5734
35.8528 23.3543
35.8998 23.3455
35.9468 23.3034
35.9936 23.1703
36.0406 23.1558
36.0874 23.099
36.1345 23.0209
36.1813 22.9774
36.2283 22.8188
36.2752 22.7392
36.3222 22.7887
36.3691 22.6366
36.4161 22.6358
36.463 22.5553
36.5101 22.4775
36.557 22.4753
36.6041 22.2769
36.651 22.2827
36.6981 22.2617
36.745 22.159
36.7921 22.045
36.839 21.9599
36.8861 21.888
36.9331 21.8267
36.9802 21.7656
37.0272 21.7013
37.0743 21.6379
37.1213 21.5835
37.1684 21.5578
37.2154 21.4743
37.2626 21.3496
37.3098 21.3565
37.3568 21.3075
37.404 21.2971
37.451 21.0487
37.4982 21.0479
37.5452 20.9356
37.5924 20.915
37.6395 20.9276
37.6867 20.8282
37.7337 20.744
37.781 20.6641
37.8281 20.5988
37.8753 20.4904
37.9224 20.4072
37.9697 20.3569
38.0168 20.3748
38.064 20.2316
38.1111 20.1908
38.1584 20.1931
38.2056 20.0912
38.2529 19.9868
38.3 19.8905
38.3473 19.9601
38.3945 19.7915
38.4418 19.8173
38.489 19.7535
38.5363 19.5976
38.5837 19.617
38.6309 19.5071
38.6782 19.4273
38.7254 19.3695
38.7728 19.2665
38.82 19.2111
38.8674 19.2023
38.9146 19.1511
38.9621 19.0452
39.0093 18.9905
39.0567 19.0268
39.104 18.9537
39.1514 18.8529
39.1987 18.7739
39.2461 18.7844
39.2934 18.6447
39.3409 18.559
39.3882 18.4746
39.4356 18.4506
39.483 18.3696
39.5304 18.3612
39.5778 18.3287
39.6253 18.208
39.6726 18.1733
39.7201 18.1323
39.7675 18.0945
39.815 18.0167
39.8624 17.9436
39.9099 17.9267
39.9575 17.8588
40.0049 17.7854
40.0525 17.726
40.0999 17.6438
40.1474 17.5754
40.1949 17.6105
40.2425 17.4618
40.2899 17.4693
40.3375 17.391
40.385 17.294
40.4326 17.2312
40.48 17.25
40.5277 17.2228
40.5752 17.0418
40.6228 17.03
40.6703 17.045
40.718 16.9856
40.7655 16.9251
40.8132 16.8583
40.8607 16.8199
40.9084 16.7718
40.9559 16.6858
41.0036 16.6403
41.0512 16.6292
41.0989 16.5239
41.1465 16.4926
41.1942 16.3987
41.242 16.3474
41.2896 16.3315
41.3373 16.2514
41.3849 16.2074
41.4327 16.1228
41.4803 16.0426
41.5281 16.0263
41.5758 15.9598
41.6236 15.9018
41.6712 15.8982
41.7191 15.7997
41.7667 15.7487
41.8146 15.7545
41.8622 15.6154
41.9101 15.6296
41.9578 15.5313
42.0057 15.5387
42.0534 15.4362
42.1013 15.3878
42.149 15.3151
42.1969 15.2469
42.2446 15.2495
42.2925 15.2039
42.3403 15.1524
42.3882 15.1661
42.436 15.0827
42.4839 14.9423
42.5319 14.9534
42.5797 14.8657
42.6277 14.7758
42.6755 14.7787
42.7235 14.7089
42.7713 14.7065
42.8193 14.6065
42.8671 14.5774
42.9152 14.5306
42.963 14.4959
43.0111 14.451
43.0589 14.3751
43.107 14.3188
43.1549 14.3055
43.2029 14.2323
43.2508 14.2176
43.2989 14.146
43.3468 14.0488
43.3949 14.0721
43.4429 14.0283
43.491 13.9728
43.5389 13.8734
43.5871 13.8311
43.635 13.7925
43.6832 13.7452
43.7312 13.7353
43.7793 13.6443
43.8273 13.6323
43.8755 13.6196
43.9237 13.5239
43.9717 13.5268
44.0199 13.4116
44.068 13.3777
44.1162 13.3499
44.1642 13.2707
44.2125 13.2567
44.2606 13.219
44.3088 13.1237
44.3569 13.1119
44.4052 13.0889
44.4533 12.9991
44.5016 12.9634
44.5497 12.902
44.598 12.8738
44.6461 12.8486
44.6945 12.8364
44.7426 12.7343
44.791 12.696
44.8391 12.6975
44.8875 12.6012
44.9357 12.5903
44.984 12.4992
45.0322 12.417
45.0806 12.4316
45.1288 12.4181
45.1773 12.3171
45.2257 12.3082
45.2739 12.3081
45.3224 12.2354
45.3706 12.1672
45.4191 12.1172
45.4673 12.1092
45.5158 12.081
45.5641 11.9501
45.6126 11.983
45.6609 11.8901
45.7094 11.8396
45.7577 11.8355
45.8063 11.7304
45.8546 11.768
45.9031 11.7112
45.9515 11.6621
46.0001 11.5986
46.0484 11.6156
46.097 11.5512
46.1454 11.5108
46.194 11.4697
46.2424 11.404
46.291 11.3703
46.3395 11.3348
46.3881 11.2366
46.4365 11.2524
46.4852 11.1751
46.5337 11.1681
46.5823 11.1606
46.631 11.0964
46.6795 11.024
46.7282 11.0106
46.7767 10.9658
46.8254 10.8684
46.8739 10.9189
46.9226 10.8356
46.9712 10.8081
47.0199 10.7387
47.0685 10.6977
47.1173 10.6964
47.1658 10.6257
47.2146 10.627
47.2632 10.5699
47.312 10.5546
47.3606 10.5008
47.4095 10.4468
47.4581 10.3761
47.5069 10.343
47.5556 10.2921
47.6044 10.2743
47.6531 10.2373
47.702 10.1555
47.7507 10.2011
47.7996 10.1016
47.8483 10.1077
47.8972 10.0888
47.9461 10.0244
47.9948 9.98178
48.0438 9.98463
48.0925 9.95566
48.1415 9.8964
48.1902 9.83671
48.2392 9.83615
48.288 9.74957
48.337 9.75899
48.3858 9.70638
48.4348 9.66379
48.4837 9.65072
48.5327 9.66042
48.5815 9.54614
48.6306 9.55988
48.6795 9.48838
48.7285 9.42783
48.7774 9.46651
48.8265 9.4023
48.8754 9.38475
48.9245 9.32615
48.9734 9.27614
49.0226 9.27781
49.0715 9.25158
49.1206 9.1748
49.1696 9.12658
49.2188 9.10822
49.2679 9.07218
49.3169 9.04417
49.3661 9.01421
49.4151 8.94622
49.4643 8.95569
49.5134 8.91405
49.5626 8.87939
49.6117 8.82392
49.6609 8.80444
49.71 8.75764
49.7592 8.76329
49.8083 8.693
49.8576 8.68266
49.9067 8.61593
49.956 8.59339
50.0052 8.57277
50.0545 8.5128
50.1036 8.50891
50.153 8.46132
50.2022 8.45608
50.2515 8.42179
50.3007 8.31814
50.3501 8.34864
50.3993 8.27544
50.4487 8.25944
50.498 8.23666
50.5474 8.21808
50.5966 8.16862
50.6461 8.18479
50.6955 8.13348
50.7448 8.05746
50.7943 8.0623
50.8436 8.03889
50.8931 7.97697
50.9424 7.95294
50.9919 7.93785
51.0413 7.92062
51.0908 7.86757
51.1402 7.81903
51.1897 7.80163
51.2391 7.7555
51.2887 7.70566
51.3381 7.68101
51.3877 7.68881
51.4371 7.64247
51.4867 7.58584
51.5362 7.6174
51.5858 7.56338
51.6353 7.51489
51.6849 7.47558
51.7344 7.45643
51.7841 7.44897
51.8336 7.37213
51.8833 7.37414
51.9328 7.32104
51.9826 7.29807
52.0323 7.30021
52.0818 7.25091
52.1316 7.21233
52.1812 7.1826
52.231 7.16066
52.2806 7.12873
52.3304 7.10508
52.38 7.04519
52.4298 7.03635
52.4794 6.96813
52.5293 6.98215
52.5789 6.97905
52.6288 6.93942
52.6785 6.92792
52.7284 6.88784
52.7781 6.83467
52.828 6.81102
52.8777 6.78267
52.9276 6.80859
52.9774 6.7006
53.0273 6.70243
53.0771 6.67006
53.1271 6.66653
53.1769 6.60388
53.2269 6.59301
53.2767 6.5438
53.3267 6.53749
53.3765 6.5076
53.4266 6.45773
53.4766 6.41143
53.5265 6.42439
53.5765 6.36909
53.6264 6.38141
53.6765 6.34938
53.7264 6.32138
53.7765 6.3104
53.8265 6.24287
53.8766 6.22787
53.9266 6.15161
53.9767 6.13429
54.0267 6.12679
54.0769 6.11182
54.1269 6.08536
54.1771 6.0368
54.2271 6.05393
54.2773 5.96281
54.3274 5.98446
54.3776 5.92318
54.4277 5.86776
54.478 5.81722
54.528 5.80274
54.5783 5.81888
54.6285 5.73055
54.6788 5.68191
54.7289 5.69419
54.7792 5.65064
54.8296 5.56796
54.8798 5.51546
54.9301 5.50685
54.9803 5.51109
55.0307 5.45189
55.0809 5.35614
55.1314 5.3591
55.1816 5.34294
55.232 5.30231
55.2823 5.24023
55.3328 5.13106
55.383 5.11589
55.4335 5.0623
55.4838 5.02698
55.5344 5.02194
55.5847 4.93264
55.6352 4.94104
55.6856 4.89569
55.7361 4.83807