File: XRD/Ni3Fe_FD0227.xy
TT I
1.27165 7.91106
1.31627 7.23651
1.36089 6.70325
1.40551 6.23734
1.45013 6.4737
1.49476 6.74525
1.53938 5.96571
1.584 6.09411
1.62863 5.5289
1.67325 5.67107
1.71787 5.39041
1.7625 5.49577
1.80712 5.30342
1.85174 4.68186
1.89636 5.3192
1.94099 5.60236
1.98562 4.32376
2.03025 4.59825
2.07487 4.47785
2.11949 4.75153
2.16411 4.71716
2.20874 4.86903
2.25338 4.65107
2.298 4.6376
2.34263 4.15962
2.38725 4.73372
2.43188 4.78037
2.4765 5.08498
2.52115 5.57608
2.56577 4.91202
2.6104 5.95967
2.65503 5.25583
2.69965 5.8312
2.7443 6.25225
2.78893 7.3549
2.83356 7.17156
2.87818 8.38286
2.92281 8.31634
2.96744 9.1553
3.01209 9.93056
3.05672 11.0332
3.10135 12.0264
3.14599 12.8399
3.19062 14.3426
3.23527 14.8409
3.2799 16.072
3.32454 17.1774
3.36917 17.5822
3.4138 19.055
3.45844 19.9461
3.50309 20.7144
3.54773 21.4979
3.59237 22.3441
3.637 23.2116
3.68164 23.9503
3.7263 25.1633
3.77094 25.9327
3.81558 26.8643
3.86022 27.7118
3.90486 28.8966
3.9495 30.3537
3.99416 30.8342
4.0388 32.7562
4.08344 34.2899
4.12809 35.3588
4.17273 36.1197
4.21738 38.3229
4.26204 39.6112
4.30669 40.4532
4.35133 42.436
4.39598 44.0976
4.44063 46.3605
4.4853 48.5044
4.52995 52.5031
4.5746 54.446
4.61925 56.255
4.6639 58.2204
4.70855 61.1655
4.75322 64.7864
4.79788 68.4583
4.84253 71.6864
4.88719 77.0643
4.93184 82.1185
4.97652 88.1818
5.02118 96.4346
5.06583 107.341
5.11049 124.5
5.15515 168.736
5.19981 887.409
5.24449 3972.86
5.28916 10604.7
5.33382 4072.03
5.37848 273.359
5.42315 153.226
5.46783 129.627
5.5125 118.294
5.55716 112.433
5.60183 106.759
5.6465 104.732
5.69117 103.062
5.73586 101.195
5.78053 101.821
5.8252 102.774
5.86988 104.728
5.91455 110.667
5.95924 133.66
6.00392 447.969
6.0486 1419.45
6.09328 3639.08
6.13795 3653.2
6.18263 357.75
6.22733 109.008
6.27201 88.8675
6.3167 81.1671
6.36138 76.4922
6.40606 73.1097
6.45075 71.0742
6.49545 68.8145
6.54014 66.7006
6.58483 65.7296
6.62952 64.2468
6.67421 62.6529
6.71892 62.0753
6.76361 60.7074
6.8083 60.115
6.853 59.2618
6.89769 58.6573
6.94239 58.6033
6.98711 57.4679
7.03181 57.2065
7.07651 56.6204
7.12121 56.411
7.16591 56.5114
7.21063 55.9591
7.25533 55.6844
7.30004 55.7022
7.34475 55.8948
7.38945 55.9796
7.43416 55.4904
7.47889 55.7019
7.5236 56.51
7.56831 57.055
7.61303 57.3463
7.65774 56.8583
7.70247 58.2881
7.74719 58.2177
7.79191 58.8675
7.83663 59.4169
7.88135 60.4012
7.92607 61.2748
7.97081 62.4648
8.01553 63.6966
8.06026 65.5652
8.10498 66.6299
8.14971 68.805
8.19446 70.529
8.23919 73.3683
8.28392 76.4254
8.32865 79.2842
8.37339 84.4772
8.41812 90.552
8.46288 110.526
8.50761 291.204
8.55235 586.19
8.59709 1063.75
8.64183 1976.68
8.68658 1217.11
8.73134 216.279
8.77609 110.83
8.82083 100.536
8.86558 96.7631
8.91033 93.7593
8.9551 91.1342
8.99985 89.3742
9.04461 88.8579
9.08936 88.2244
9.13412 87.0949
9.17888 86.6874
9.22365 86.7838
9.26841 86.8663
9.31318 88.3053
9.35794 88.1985
9.4027 88.0873
9.44749 89.1146
9.49226 89.7
9.53703 91.0617
9.5818 93.0323
9.62657 94.2169
9.67134 95.9184
9.71614 97.759
9.76091 99.9799
9.80569 103.717
9.85047 106.909
9.89525 112.806
9.94005 136.891
9.98484 303.519
10.0296 517.983
10.0744 803.403
10.1192 1458.86
10.164 1687.04
10.2088 544.627
10.2536 148.105
10.2984 118.008
10.3432 112.892
10.388 115.272
10.4328 159.399
10.4776 211.907
10.5224 281.525
10.5672 445.223
10.612 535.945
10.6568 252.391
10.7017 108.871
10.7465 92.4196
10.7913 88.1414
10.8361 85.2905
10.8809 82.885
10.9257 80.9711
10.9706 79.5244
11.0154 77.6351
11.0602 76.2716
11.105 75.0174
11.1499 73.6205
11.1947 72.5099
11.2395 71.4708
11.2844 70.7322
11.3292 69.9288
11.374 69.3282
11.4189 68.5758
11.4637 67.6495
11.5086 67.0995
11.5534 66.6745
11.5983 66.554
11.6431 66.2817
11.688 65.669
11.7328 65.6657
11.7777 65.4713
11.8225 65.3291
11.8674 65.308
11.9122 65.9632
11.9571 66.3358
12.002 68.7026
12.0468 80.0989
12.0917 94.2501
12.1366 108.971
12.1814 141.333
12.2263 194.518
12.2712 186.938
12.3161 103.878
12.3609 70.0209
12.4058 67.3759
12.4507 67.5299
12.4956 67.2545
12.5405 67.2564
12.5853 67.9709
12.6302 68.2624
12.6751 68.7155
12.72 70.0781
12.7649 70.9018
12.8098 71.8007
12.8547 73.2683
12.8996 74.9658
12.9445 76.74
12.9894 78.6497
13.0343 80.7405
13.0792 86.2299
13.1242 110.931
13.1691 147.393
13.214 174.281
13.2589 228.923
13.3038 321.423
13.3487 421.691
13.3937 307.612
13.4386 150.045
13.4835 134.042
13.5285 153.265
13.5734 174.305
13.6183 226.668
13.6633 309.478
13.7082 357.189
13.7531 228.7
13.7981 112.083
13.843 87.3874
13.888 84.4206
13.9329 81.3872
13.9779 80.0566
14.0228 78.4842
14.0678 77.0243
14.1127 76.2707
14.1577 75.2954
14.2027 74.6751
14.2476 74.2602
14.2926 73.4311
14.3376 73.2686
14.3825 72.9882
14.4275 72.4614
14.4725 72.4
14.5175 72.6195
14.5624 72.6263
14.6074 73.0897
14.6524 73.7632
14.6974 74.9527
14.7424 81.3429
14.7874 95.1073
14.8324 106.502
14.8774 119.571
14.9224 144.88
14.9674 187.241
15.0124 221.683
15.0574 169.786
15.1024 101.991
15.1474 77.0183
15.1924 73.8708
15.2374 72.6311
15.2824 71.3171
15.3274 70.4377
15.3725 70.1066
15.4175 69.8853
15.4625 69.3961
15.5076 69.266
15.5526 69.0228
15.5976 69.9331
15.6426 75.0058
15.6877 86.5469
15.7327 94.8363
15.7778 103.739
15.8228 122.368
15.8679 152.738
15.9129 189.656
15.958 175.871
16.003 112.34
16.0481 73.0366
16.0931 65.7141
16.1382 63.8015
16.1833 63.0441
16.2283 61.8011
16.2734 60.8682
16.3185 60.2409
16.3636 59.5865
16.4086 58.9109
16.4537 58.5246
16.4988 57.9688
16.5439 58.0073
16.589 57.6106
16.6341 57.534
16.6792 57.0838
16.7243 57.2222
16.7694 57.1513
16.8145 57.2315
16.8596 57.3502
16.9047 57.4566
16.9498 57.5613
16.9949 58.0595
17.04 59.4002
17.0851 61.8693
17.1302 63.8623
17.1754 65.6047
17.2205 68.8753
17.2656 73.6676
17.3108 82.0416
17.3559 85.8989
17.401 76.9824
17.4462 66.6421
17.4913 62.6192
17.5365 62.1703
17.5815 62.1784
17.6268 62.7422
17.6718 63.169
17.7171 63.4668
17.7622 64.5739
17.8074 66.411
17.8525 72.0267
17.8977 78.1474
17.9428 82.7653
17.9881 88.3168
18.0331 98.8592
18.0784 115.205
18.1237 138.972
18.1688 144.529
18.214 118.46
18.2591 93.7366
18.3044 90.3246
18.3495 96.9879
18.3948 106.784
18.4399 102.749
18.4852 83.8542
18.5303 70.1341
18.5756 65.6447
18.6207 64.3512
18.666 63.3924
18.7112 62.6912
18.7565 61.985
18.8016 61.3958
18.8469 60.8891
18.892 60.5936
18.9374 60.0798
18.9825 59.8297
19.0278 59.7948
19.073 60.4061
19.1183 61.3708
19.1635 62.0406
19.2088 62.6792
19.254 64.7966
19.2993 67.3729
19.3447 71.3415
19.3898 76.4267
19.4352 76.1021
19.4804 68.4041
19.5257 60.5839
19.5709 57.1772
19.6163 56.6712
19.6615 56.5482
19.7068 55.9564
19.752 56.1545
19.7974 57.0211
19.8426 58.4508
19.888 58.9083
19.9332 59.4003
19.9786 61.4959
20.0238 63.8781
20.0692 68.2968
20.1144 72.474
20.1598 73.1287
20.205 68.1015
20.2504 64.2966
20.2957 64.5444
20.3411 66.8121
20.3863 67.3933
20.4318 62.443
20.477 56.6934
20.5224 53.7061
20.5677 52.9339
20.6131 52.5302
20.6586 52.1104
20.7038 52.0454
20.7493 51.3777
20.7945 51.4708
20.84 51.156
20.8853 50.9987
20.9307 51.0279
20.976 51.4131
21.0215 51.1992
21.0668 51.4125
21.1122 51.7473
21.1575 52.0857
21.203 52.372
21.2483 53.229
21.2938 54.0813
21.3391 52.8662
21.3846 51.4886
21.4299 50.8896
21.4754 50.8528
21.5207 51.1953
21.5662 51.818
21.6116 52.773
21.6571 53.5507
21.7024 54.2882
21.7479 55.6022
21.7933 57.5302
21.8388 60.2006
21.8843 63.4772
21.9297 66.514
21.9752 66.9713
22.0206 63.3209
22.0661 58.7945
22.1115 57.9359
22.157 58.449
22.2024 57.6807
22.248 54.7201
22.2933 52.6551
22.3389 51.5409
22.3843 51.2355
22.4299 50.9396
22.4753 50.9697
22.5208 50.7806
22.5662 50.9881
22.6118 51.3851
22.6572 52.0447
22.7028 52.451
22.7483 52.7996
22.7939 53.2179
22.8393 54.1123
22.8849 55.6441
22.9303 57.045
22.9759 59.3562
23.0214 60.0974
23.067 58.1378
23.1126 54.4407
23.1581 52.0445
23.2037 51.5277
23.2492 51.9514
23.2948 52.0795
23.3403 52.3967
23.3859 52.6998
23.4314 53.3076
23.477 54.1901
23.5225 55.6849
23.5682 57.8145
23.6137 59.6747
23.6593 58.7802
23.7048 55.3981
23.7505 51.216
23.796 48.7724
23.8417 48.2607
23.8872 47.7647
23.9329 47.4022
23.9784 47.0696
24.0241 46.7421
24.0697 46.6166
24.1154 46.0638
24.1609 46.045
24.2066 45.9058
24.2522 45.8514
24.2979 45.5412
24.3434 45.3901
24.3892 45.183
24.4349 45.1543
24.4805 44.8655
24.5262 45.0526
24.5718 44.8156
24.6175 44.9106
24.6631 44.8238
24.7089 44.5102
24.7545 44.5784
24.8002 44.3732
24.8458 44.306
24.8916 44.2536
24.9372 44.4543
24.983 44.6305
25.0286 45.0684
25.0744 45.422
25.12 45.4594
25.1658 46.2714
25.2114 46.5162
25.2572 46.524
25.3029 46.3373
25.3487 46.4163
25.3943 46.6491
25.4402 45.8665
25.4858 44.7708
25.5316 43.6235
25.5773 42.8653
25.6231 42.8675
25.669 42.4817
25.7147 42.6885
25.7605 42.3978
25.8062 42.4325
25.8521 42.5935
25.8977 42.6274
25.9436 42.6702
25.9893 42.6478
26.0352 42.9068
26.0809 43.21
26.1268 43.5413
26.1725 43.4949
26.2184 42.9676
26.2641 42.5298
26.31 42.2545
26.3557 42.2325
26.4017 42.0603
26.4474 42.3346
26.4933 42.6245
26.5391 42.923
26.585 43.156
26.6308 43.7182
26.6767 43.9506
26.7225 43.9613
26.7684 43.5405
26.8142 42.7111
26.8601 42.3905
26.9059 41.8929
26.9519 41.505
26.9979 41.0972
27.0437 40.768
27.0896 40.6058
27.1354 40.7623
27.1814 40.5332
27.2272 40.4239
27.2732 40.465
27.3191 40.1509
27.3651 40.2216
27.4109 40.1399
27.4569 40.215
27.5027 40.0879
27.5488 40.3147
27.5946 40.2307
27.6407 40.1653
27.6865 40.1483
27.7326 39.9017
27.7784 39.8284
27.8245 39.6351
27.8703 39.7237
27.9164 40.0715
27.9623 39.9447
28.0084 40.2946
28.0543 40.6718
28.1003 40.71
28.1462 40.5277
28.1923 40.0888
28.2384 39.685
28.2843 39.483
28.3304 38.979
28.3764 38.4831
28.4225 38.1086
28.4684 38.0439
28.5145 37.5728
28.5605 37.5361
28.6066 37.3617
28.6526 37.2787
28.6987 37.2576
28.7447 37.0659
28.7908 37.0988
28.8368 36.9314
28.8829 36.9763
28.9289 37.0283
28.9751 36.7487
29.0211 36.479
29.0673 36.3784
29.1133 36.2307
29.1595 36.0629
29.2055 35.8842
29.2517 35.8762
29.2977 35.7571
29.3439 35.6863
29.3899 35.7211
29.4361 35.6127
29.4824 35.5194
29.5284 35.2931
29.5746 34.9357
29.6207 34.7021
29.6669 34.7084
29.713 34.456
29.7593 34.3837
29.8053 34.4359
29.8516 34.2629
29.8977 34.3246
29.9439 34.0193
29.99 33.9955
30.0363 33.8419
30.0824 33.9479
30.1287 33.8348
30.1748 33.8471
30.2211 33.8641
30.2673 33.8129
30.3136 33.9575
30.3597 33.844
30.406 33.6547
30.4522 33.6457
30.4985 33.5718
30.5447 33.7035
30.591 33.5466
30.6372 33.6836
30.6835 33.5117
30.7297 33.6566
30.7761 33.6828
30.8224 33.4851
30.8686 33.3037
30.915 33.1079
30.9612 32.9999
31.0076 32.8041
31.0538 32.6366
31.1002 32.5904
31.1464 32.3905
31.1928 32.3645
31.2391 32.3368
31.2855 32.2755
31.3317 32.2749
31.3781 32.2944
31.4244 32.2895
31.4708 32.1488
31.5171 32.0881
31.5636 32.2452
31.6098 32.0125
31.6563 31.8231
31.7026 31.7122
31.7491 31.4671
31.7953 31.5679
31.8418 31.4866
31.8881 31.5046
31.9346 31.3394
31.9809 31.4354
32.0275 31.2661
32.074 31.2634
32.1203 31.038
32.1668 30.8237
32.2132 30.814
32.2597 30.6117
32.306 30.4468
32.3526 30.2935
32.399 30.2699
32.4455 30.0645
32.4919 29.9053
32.5385 29.9783
32.5848 29.8385
32.6314 29.7882
32.6778 29.6937
32.7244 29.6322
32.7708 29.5249
32.8174 29.4768
32.8638 29.3895
32.9104 29.415
32.9569 29.3589
33.0035 29.1918
33.0499 29.0289
33.0966 29.0597
33.143 29.1021
33.1897 29.032
33.2361 28.8686
33.2828 28.9052
33.3293 28.5903
33.3759 28.6723
33.4226 28.4932
33.4691 28.4304
33.5158 28.3498
33.5623 28.1113
33.609 28.0304
33.6555 27.8987
33.7022 27.8531
33.7487 27.7131
33.7954 27.7477
33.842 27.5902
33.8887 27.4625
33.9353 27.5383
33.982 27.3875
34.0286 27.333
34.0753 27.2369
34.1219 27.1348
34.1687 26.9588
34.2152 26.96
34.262 26.8241
34.3086 26.8165
34.3554 26.7391
34.402 26.5504
34.4488 26.4993
34.4954 26.4019
34.5422 26.3373
34.5889 26.2401
34.6357 26.092
34.6825 26.0688
34.7292 26.0106
34.776 25.9412
34.8227 25.8315
34.8695 25.7285
34.9162 25.7521
34.9631 25.5941
35.0098 25.6218
35.0566 25.5213
35.1033 25.4103
35.1502 25.4148
35.1969 25.3502
35.2438 25.2707
35.2906 25.2194
35.3375 25.1006
35.3842 25.1287
35.4311 25.0182
35.4779 24.9718
35.5248 24.9003
35.5716 24.769
35.6185 24.7995
35.6653 24.7174
35.7123 24.5583
35.759 24.5166
35.806 24.3792
35.8528 24.3225
35.8998 24.2886
35.9468 24.1237
35.9936 24.1193
36.0406 24.0796
36.0874 23.9925
36.1345 23.8754
36.1813 23.8443
36.2283 23.8276
36.2752 23.7424
36.3222 23.7299
36.3691 23.6307
36.4161 23.4317
36.463 23.4543
36.5101 23.47
36.557 23.3833
36.6041 23.1382
36.651 23.136
36.6981 23.1385
36.745 23.0711
36.7921 22.9946
36.839 22.8217
36.8861 22.7545
36.9331 22.7681
36.9802 22.6756
37.0272 22.5893
37.0743 22.5388
37.1213 22.4851
37.1684 22.4502
37.2154 22.2632
37.2626 22.24
37.3098 22.1165
37.3568 22.0822
37.404 22.0378
37.451 22.0306
37.4982 21.9267
37.5452 21.7755
37.5924 21.717
37.6395 21.7464
37.6867 21.6987
37.7337 21.6327
37.781 21.5519
37.8281 21.4389
37.8753 21.3296
37.9224 21.3361
37.9697 21.1917
38.0168 21.1443
38.064 21.0918
38.1111 21.0815
38.1584 20.9674
38.2056 20.8154
38.2529 20.7708
38.3 20.7579
38.3473 20.6838
38.3945 20.5606
38.4418 20.5689
38.489 20.4682
38.5363 20.382
38.5837 20.3058
38.6309 20.2173
38.6782 20.2111
38.7254 20.1153
38.7728 20.0939
38.82 19.9709
38.8674 19.9499
38.9146 19.9163
38.9621 19.7901
39.0093 19.7654
39.0567 19.7072
39.104 19.6872
39.1514 19.5604
39.1987 19.5609
39.2461 19.5178
39.2934 19.4767
39.3409 19.353
39.3882 19.2218
39.4356 19.1988
39.483 19.1545
39.5304 19.0365
39.5778 19.031
39.6253 19.0474
39.6726 18.8943
39.7201 18.9304
39.7675 18.8067
39.815 18.707
39.8624 18.6811
39.9099 18.6357
39.9575 18.5462
40.0049 18.5339
40.0525 18.4659
40.0999 18.4111
40.1474 18.2854
40.1949 18.2334
40.2425 18.1673
40.2899 18.1718
40.3375 18.0648
40.385 17.963
40.4326 17.9252
40.48 17.921
40.5277 17.9149
40.5752 17.7769
40.6228 17.704
40.6703 17.686
40.718 17.6399
40.7655 17.5686
40.8132 17.5653
40.8607 17.498
40.9084 17.4149
40.9559 17.3556
41.0036 17.3581
41.0512 17.2345
41.0989 17.2376
41.1465 17.1603
41.1942 17.0729
41.242 16.9972
41.2896 16.9411
41.3373 16.8872
41.3849 16.8502
41.4327 16.8022
41.4803 16.7639
41.5281 16.7309
41.5758 16.5853
41.6236 16.5357
41.6712 16.4548
41.7191 16.4177
41.7667 16.3656
41.8146 16.4177
41.8622 16.2572
41.9101 16.2327
41.9578 16.1154
42.0057 16.1011
42.0534 16.0837
42.1013 16.0073
42.149 15.9296
42.1969 15.9726
42.2446 15.8584
42.2925 15.8095
42.3403 15.7808
42.3882 15.6786
42.436 15.674
42.4839 15.5429
42.5319 15.5991
42.5797 15.5179
42.6277 15.4531
42.6755 15.3755
42.7235 15.2991
42.7713 15.2989
42.8193 15.2762
42.8671 15.2075
42.9152 15.1363
42.963 15.143
43.0111 14.978
43.0589 14.9485
43.107 14.9102
43.1549 14.8724
43.2029 14.8203
43.2508 14.7781
43.2989 14.6954
43.3468 14.648
43.3949 14.6276
43.4429 14.5974
43.491 14.521
43.5389 14.4372
43.5871 14.4238
43.635 14.3332
43.6832 14.3295
43.7312 14.2953
43.7793 14.1307
43.8273 14.1798
43.8755 14.1159
43.9237 14.0358
43.9717 14.0065
44.0199 13.9584
44.068 13.9443
44.1162 13.8437
44.1642 13.8137
44.2125 13.7906
44.2606 13.7422
44.3088 13.6459
44.3569 13.6203
44.4052 13.5872
44.4533 13.503
44.5016 13.4993
44.5497 13.4659
44.598 13.4476
44.6461 13.3267
44.6945 13.2785
44.7426 13.281
44.791 13.1381
44.8391 13.1647
44.8875 13.1463
44.9357 13.0701
44.984 13.0282
45.0322 12.9721
45.0806 12.9378
45.1288 12.8723
45.1773 12.8414
45.2257 12.7872
45.2739 12.7283
45.3224 12.7508
45.3706 12.6223
45.4191 12.6149
45.4673 12.5761
45.5158 12.5199
45.5641 12.4585
45.6126 12.4552
45.6609 12.3836
45.7094 12.3304
45.7577 12.3196
45.8063 12.2208
45.8546 12.2388
45.9031 12.1696
45.9515 12.1123
46.0001 12.1009
46.0484 12.0151
46.097 11.9911
46.1454 11.9766
46.194 11.9118
46.2424 11.8326
46.291 11.8201
46.3395 11.7815
46.3881 11.7111
46.4365 11.6725
46.4852 11.6416
46.5337 11.591
46.5823 11.5323
46.631 11.493
46.6795 11.4999
46.7282 11.4354
46.7767 11.3906
46.8254 11.3186
46.8739 11.2646
46.9226 11.2595
46.9712 11.2463
47.0199 11.1609
47.0685 11.1216
47.1173 11.0917
47.1658 11.0679
47.2146 11.0489
47.2632 10.9498
47.312 10.9232
47.3606 10.8797
47.4095 10.8462
47.4581 10.7907
47.5069 10.7909
47.5556 10.6886
47.6044 10.6498
47.6531 10.6886
47.702 10.5696
47.7507 10.5742
47.7996 10.519
47.8483 10.5009
47.8972 10.4278
47.9461 10.4002
47.9948 10.3954
48.0438 10.3323
48.0925 10.296
48.1415 10.2378
48.1902 10.2214
48.2392 10.2316
48.288 10.2074
48.337 10.1311
48.3858 10.0692
48.4348 10.0588
48.4837 10.0554
48.5327 9.98168
48.5815 9.95267
48.6306 9.91635
48.6795 9.87668
48.7285 9.83939
48.7774 9.76982
48.8265 9.76628
48.8754 9.72183
48.9245 9.70342
48.9734 9.62815
49.0226 9.67152
49.0715 9.56654
49.1206 9.52108
49.1696 9.51483
49.2188 9.49636
49.2679 9.45127
49.3169 9.37536
49.3661 9.37205
49.4151 9.28998
49.4643 9.30164
49.5134 9.27008
49.5626 9.2058
49.6117 9.17594
49.6609 9.15013
49.71 9.09806
49.7592 9.08145
49.8083 9.02266
49.8576 8.98951
49.9067 8.9726
49.956 8.95772
50.0052 8.88423
50.0545 8.88137
50.1036 8.82327
50.153 8.8156
50.2022 8.77008
50.2515 8.7207
50.3007 8.7045
50.3501 8.61612
50.3993 8.5944
50.4487 8.61749
50.498 8.59425
50.5474 8.52675
50.5966 8.49282
50.6461 8.47081
50.6955 8.46392
50.7448 8.38456
50.7943 8.38567
50.8436 8.33972
50.8931 8.29012
50.9424 8.27409
50.9919 8.2381
51.0413 8.24442
51.0908 8.1683
51.1402 8.15451
51.1897 8.11262
51.2391 8.0661
51.2887 8.02545
51.3381 7.98419
51.3877 7.97498
51.4371 7.93561
51.4867 7.8949
51.5362 7.87191
51.5858 7.8571
51.6353 7.7688
51.6849 7.78026
51.7344 7.74776
51.7841 7.71692
51.8336 7.6777
51.8833 7.66368
51.9328 7.64195
51.9826 7.56773
52.0323 7.53515
52.0818 7.50531
52.1316 7.50553
52.1812 7.46958
52.231 7.38975
52.2806 7.4476
52.3304 7.36968
52.38 7.34124
52.4298 7.30229
52.4794 7.24235
52.5293 7.26916
52.5789 7.20029
52.6288 7.19867
52.6785 7.14373
52.7284 7.13427
52.7781 7.12094
52.828 7.04884
52.8777 7.05111
52.9276 7.04268
52.9774 7.01234
53.0273 6.96971
53.0771 6.91296
53.1271 6.90904
53.1769 6.89642
53.2269 6.8315
53.2767 6.8067
53.3267 6.79729
53.3765 6.73571
53.4266 6.7201
53.4766 6.71194
53.5265 6.62945
53.5765 6.61208
53.6264 6.57529
53.6765 6.57054
53.7264 6.53693
53.7765 6.53881
53.8265 6.4834
53.8766 6.42886
53.9266 6.41838
53.9767 6.4103
54.0267 6.40499
54.0769 6.3472
54.1269 6.30605
54.1771 6.26346
54.2271 6.23701
54.2773 6.18493
54.3274 6.2159
54.3776 6.09767
54.4277 6.1215
54.478 6.04848
54.528 6.04066
54.5783 5.95847
54.6285 5.91083
54.6788 5.89725
54.7289 5.8855
54.7792 5.81532
54.8296 5.76816
54.8798 5.7078
54.9301 5.68785
54.9803 5.65501
55.0307 5.61903
55.0809 5.5583
55.1314 5.56806
55.1816 5.45306
55.232 5.39365
55.2823 5.40778
55.3328 5.34216
55.383 5.24196
55.4335 5.23251
55.4838 5.12623
55.5344 5.0629
55.5847 5.03494
55.6352 5.10142
55.6856 5.02924
55.7361 5.00191