File: XRD/Ni3Fe_FD0926.xy
TT I
1.27165 7.4075
1.31627 6.56991
1.36089 6.63769
1.40551 6.22164
1.45013 5.90645
1.49476 6.13186
1.53938 5.77917
1.584 5.29091
1.62863 5.49305
1.67325 4.86233
1.71787 4.99951
1.7625 4.65223
1.80712 4.41985
1.85174 4.22506
1.89636 4.88198
1.94099 5.18689
1.98562 4.86583
2.03025 4.42
2.07487 4.46648
2.11949 4.30522
2.16411 5.18203
2.20874 9.2596
2.25338 10.8401
2.298 5.96744
2.34263 5.31642
2.38725 6.55144
2.43188 6.99855
2.4765 7.58058
2.52115 7.41686
2.56577 8.44728
2.6104 8.74212
2.65503 8.46961
2.69965 9.56921
2.7443 8.61603
2.78893 8.67165
2.83356 8.45945
2.87818 9.06654
2.92281 9.01887
2.96744 9.34319
3.01209 10.0618
3.05672 11.0864
3.10135 12.7564
3.14599 13.1458
3.19062 15.2014
3.23527 15.1691
3.2799 16.0138
3.32454 16.7109
3.36917 17.2016
3.4138 18.7862
3.45844 19.2882
3.50309 20.3987
3.54773 21.1958
3.59237 22.9419
3.637 48.3461
3.68164 36.2581
3.7263 25.0241
3.77094 25.4545
3.81558 25.8897
3.86022 27.3721
3.90486 28.8048
3.9495 29.3139
3.99416 30.3122
4.0388 31.4477
4.08344 32.2524
4.12809 33.5681
4.17273 35.3009
4.21738 38.4782
4.26204 116.402
4.30669 100.859
4.35133 43.8984
4.39598 42.8081
4.44063 47.8759
4.4853 53.3002
4.52995 57.366
4.5746 58.2917
4.61925 53.1019
4.6639 55.2123
4.70855 57.353
4.75322 61.1083
4.79788 67.7286
4.84253 67.9045
4.88719 74.8841
4.93184 76.0864
4.97652 79.7731
5.02118 85.8093
5.06583 93.6728
5.11049 104.599
5.15515 153.95
5.19981 371.206
5.24449 2758.98
5.28916 13549.2
5.33382 2686.11
5.37848 192.279
5.42315 129.029
5.46783 118.957
5.5125 111.545
5.55716 100.849
5.60183 96.5794
5.6465 94.6746
5.69117 92.9863
5.73586 91.9701
5.78053 97.5829
5.8252 97.6581
5.86988 100.959
5.91455 93.5573
5.95924 101.785
6.00392 226.549
6.0486 912.424
6.09328 4676.13
6.13795 2967.71
6.18263 191.186
6.22733 87.6436
6.27201 78.2986
6.3167 82.3434
6.36138 73.041
6.40606 69.1859
6.45075 69.2204
6.49545 64.3577
6.54014 62.3032
6.58483 62.1753
6.62952 62.0259
6.67421 71.8209
6.71892 87.738
6.76361 61.0883
6.8083 58.7653
6.853 59.3887
6.89769 56.1094
6.94239 54.8415
6.98711 55.0649
7.03181 55.1024
7.07651 54.0885
7.12121 53.7868
7.16591 55.8978
7.21063 54.7072
7.25533 59.9413
7.30004 96.4345
7.34475 66.4291
7.38945 54.4149
7.43416 53.1472
7.47889 52.93
7.5236 53.6246
7.56831 54.1551
7.61303 54.588
7.65774 55.4069
7.70247 56.3329
7.74719 55.7175
7.79191 55.4694
7.83663 55.5983
7.88135 56.5268
7.92607 57.5982
7.97081 58.5869
8.01553 60.1767
8.06026 61.5653
8.10498 63.1231
8.14971 70.4263
8.19446 70.0774
8.23919 68.5231
8.28392 70.7046
8.32865 73.4168
8.37339 77.4381
8.41812 81.998
8.46288 100.426
8.50761 170.001
8.55235 365.142
8.59709 1208.18
8.64183 2249.26
8.68658 841.145
8.73134 139.699
8.77609 95.7582
8.82083 90.7164
8.86558 91.9194
8.91033 91.6864
8.9551 88.9497
8.99985 84.1625
9.04461 82.7406
9.08936 83.1727
9.13412 82.1686
9.17888 81.2606
9.22365 81.2778
9.26841 80.7272
9.31318 84.1934
9.35794 86.3042
9.4027 85.0935
9.44749 84.5212
9.49226 83.668
9.53703 84.4177
9.5818 88.5956
9.62657 93.9113
9.67134 94.5628
9.71614 91.5318
9.76091 93.6026
9.80569 98.3465
9.85047 100.283
9.89525 110.118
9.94005 124.679
9.98484 183.9
10.0296 330.067
10.0744 826.117
10.1192 1843.56
10.164 1461.73
10.2088 322.033
10.2536 117.778
10.2984 107.298
10.3432 106.261
10.388 102.908
10.4328 119.045
10.4776 157.04
10.5224 289.826
10.5672 544.595
10.612 481.573
10.6568 178.227
10.7017 92.0534
10.7465 84.4095
10.7913 81.4569
10.8361 79.6508
10.8809 77.2872
10.9257 76.5919
10.9706 76.9023
11.0154 74.4448
11.0602 71.8115
11.105 70.4207
11.1499 71.1312
11.1947 72.9101
11.2395 69.1048
11.2844 67.2126
11.3292 65.493
11.374 65.0276
11.4189 64.5325
11.4637 63.5213
11.5086 63.4952
11.5534 64.0444
11.5983 63.2724
11.6431 62.5059
11.688 61.6028
11.7328 61.5407
11.7777 61.7107
11.8225 61.4598
11.8674 61.5867
11.9122 61.6525
11.9571 62.1649
12.002 63.414
12.0468 67.536
12.0917 76.9292
12.1366 101.948
12.1814 159.213
12.2263 211.012
12.2712 153.913
12.3161 85.5878
12.3609 65.4623
12.4058 62.7296
12.4507 63.0567
12.4956 63.6277
12.5405 63.7789
12.5853 64.3754
12.6302 66.5411
12.6751 69.3664
12.72 66.9747
12.7649 66.6073
12.8098 67.5307
12.8547 68.6627
12.8996 70.4626
12.9445 72.0673
12.9894 73.5235
13.0343 74.9249
13.0792 79.3695
13.1242 91.0909
13.1691 108.855
13.214 145.535
13.2589 245.56
13.3038 391.998
13.3487 419.026
13.3937 227.915
13.4386 114.64
13.4835 104.117
13.5285 117.434
13.5734 157.186
13.6183 258.833
13.6633 375.357
13.7082 324.408
13.7531 166.413
13.7981 91.5022
13.843 80.0102
13.888 78.3933
13.9329 75.7168
13.9779 74.7246
14.0228 72.9159
14.0678 71.4739
14.1127 71.3315
14.1577 70.6495
14.2027 70.1492
14.2476 69.3091
14.2926 68.714
14.3376 69.0678
14.3825 68.4271
14.4275 67.9613
14.4725 67.461
14.5175 67.6879
14.5624 67.6552
14.6074 68.6395
14.6524 69.0363
14.6974 69.589
14.7424 72.4304
14.7874 78.0665
14.8324 87.1688
14.8774 110.183
14.9224 159.508
14.9674 219.212
15.0124 211.876
15.0574 136.624
15.1024 83.7852
15.1474 70.392
15.1924 68.8085
15.2374 68.0093
15.2824 67.386
15.3274 66.1127
15.3725 65.8248
15.4175 65.1357
15.4625 64.5289
15.5076 64.6956
15.5526 64.6203
15.5976 64.818
15.6426 66.7966
15.6877 71.3359
15.7327 78.2209
15.7778 93.8046
15.8228 128.327
15.8679 177.546
15.9129 195.058
15.958 145.79
16.003 86.9347
16.0481 64.5979
16.0931 61.9215
16.1382 60.2033
16.1833 59.0833
16.2283 57.7097
16.2734 57.233
16.3185 56.9253
16.3636 56.752
16.4086 55.6167
16.4537 54.9864
16.4988 54.3461
16.5439 54.4109
16.589 54.0029
16.6341 53.8965
16.6792 53.418
16.7243 53.7792
16.7694 53.6735
16.8145 53.7184
16.8596 53.906
16.9047 54.4912
16.9498 54.7853
16.9949 54.395
17.04 55.0805
17.0851 56.1602
17.1302 57.609
17.1754 60.6155
17.2205 66.0425
17.2656 74.8306
17.3108 83.1541
17.3559 80.2282
17.401 67.4573
17.4462 59.9732
17.4913 58.1251
17.5365 57.969
17.5815 58.0127
17.6268 58.6723
17.6718 59.2227
17.7171 59.575
17.7622 60.348
17.8074 61.4528
17.8525 63.8516
17.8977 67.1713
17.9428 72.4077
17.9881 81.7941
18.0331 100.666
18.0784 126.416
18.1237 139.947
18.1688 125.541
18.214 96.7058
18.2591 83.3047
18.3044 90.8516
18.3495 101.439
18.3948 105.182
18.4399 90.7831
18.4852 72.7767
18.5303 63.6594
18.5756 60.9229
18.6207 59.9597
18.666 59.2188
18.7112 58.7819
18.7565 57.9451
18.8016 57.7406
18.8469 56.9391
18.892 56.7507
18.9374 56.2638
18.9825 55.967
19.0278 55.883
19.073 55.8046
19.1183 56.0836
19.1635 56.5869
19.2088 58.1402
19.254 60.9275
19.2993 66.0898
19.3447 72.2716
19.3898 74.6464
19.4352 68.8644
19.4804 60.2882
19.5257 55.0358
19.5709 53.0017
19.6163 52.72
19.6615 52.5635
19.7068 52.192
19.752 52.3192
19.7974 52.7927
19.8426 53.2665
19.888 53.8601
19.9332 55.128
19.9786 58.0803
20.0238 62.3517
20.0692 67.3137
20.1144 69.4525
20.1598 66.2418
20.205 61.555
20.2504 61.3234
20.2957 64.0264
20.3411 65.2388
20.3863 62.0323
20.4318 56.0788
20.477 51.6631
20.5224 50.0283
20.5677 49.6944
20.6131 49.1645
20.6586 48.6095
20.7038 48.622
20.7493 48.1494
20.7945 48.0339
20.84 47.9799
20.8853 47.8437
20.9307 47.4894
20.976 48.0198
21.0215 47.6656
21.0668 48.1682
21.1122 48.6022
21.1575 49.3564
21.203 50.2026
21.2483 50.6386
21.2938 50.5156
21.3391 49.0042
21.3846 47.9665
21.4299 47.434
21.4754 47.5981
21.5207 47.7028
21.5662 48.1862
21.6116 48.4193
21.6571 48.9755
21.7024 49.9263
21.7479 51.7649
21.7933 54.9024
21.8388 58.9795
21.8843 63.0573
21.9297 64.1465
21.9752 61.1772
22.0206 57.4888
22.0661 55.3005
22.1115 55.5413
22.157 54.9352
22.2024 52.7943
22.248 50.1255
22.2933 48.5134
22.3389 48.0829
22.3843 47.9255
22.4299 47.746
22.4753 47.8601
22.5208 47.7852
22.5662 47.647
22.6118 47.9199
22.6572 47.9481
22.7028 48.4832
22.7483 48.7918
22.7939 49.5123
22.8393 51.2221
22.8849 53.6048
22.9303 55.9647
22.9759 57.3814
23.0214 56.1078
23.067 52.6866
23.1126 49.6216
23.1581 48.2329
23.2037 47.8024
23.2492 48.0383
23.2948 47.9359
23.3403 48.198
23.3859 48.7971
23.4314 49.9917
23.477 51.9802
23.5225 54.7364
23.5682 56.9818
23.6137 57.1522
23.6593 54.0231
23.7048 49.8909
23.7505 46.8341
23.796 45.5647
23.8417 45.2315
23.8872 44.6808
23.9329 44.2699
23.9784 44.1153
24.0241 43.8127
24.0697 43.6949
24.1154 43.3975
24.1609 43.1408
24.2066 43.1049
24.2522 43.067
24.2979 42.6702
24.3434 42.4536
24.3892 42.3578
24.4349 42.2025
24.4805 42.1697
24.5262 42.482
24.5718 42.2476
24.6175 42.2171
24.6631 42.0458
24.7089 41.6986
24.7545 41.6866
24.8002 41.4614
24.8458 41.4656
24.8916 41.3311
24.9372 41.4614
24.983 41.8506
25.0286 42.122
25.0744 42.605
25.12 43.2838
25.1658 43.7859
25.2114 43.9113
25.2572 44.0134
25.3029 44.268
25.3487 44.3131
25.3943 43.7518
25.4402 42.3841
25.4858 41.4809
25.5316 40.5604
25.5773 40.2881
25.6231 40.0879
25.669 39.7483
25.7147 39.8543
25.7605 39.7433
25.8062 39.6894
25.8521 39.8904
25.8977 39.8136
25.9436 40.2071
25.9893 40.3816
26.0352 40.8867
26.0809 40.9101
26.1268 41.2244
26.1725 40.6053
26.2184 40.0097
26.2641 39.5268
26.31 39.4576
26.3557 39.2961
26.4017 39.4422
26.4474 39.7628
26.4933 40.102
26.5391 40.6411
26.585 41.2904
26.6308 41.4266
26.6767 41.5446
26.7225 41.193
26.7684 40.6137
26.8142 40.031
26.8601 39.6457
26.9059 39.3597
26.9519 38.5785
26.9979 38.4559
27.0437 38.2752
27.0896 38.1892
27.1354 37.9643
27.1814 37.9173
27.2272 37.8763
27.2732 37.9414
27.3191 37.7149
27.3651 37.858
27.4109 37.7376
27.4569 37.8839
27.5027 38.0306
27.5488 37.859
27.5946 37.7154
27.6407 37.4206
27.6865 37.351
27.7326 37.113
27.7784 37.3141
27.8245 37.1859
27.8703 37.4344
27.9164 37.6329
27.9623 37.7889
28.0084 38.2941
28.0543 38.5411
28.1003 38.3938
28.1462 38.1234
28.1923 37.8392
28.2384 37.4078
28.2843 36.9822
28.3304 36.3455
28.3764 35.9571
28.4225 35.7302
28.4684 35.6379
28.5145 35.3024
28.5605 35.2529
28.6066 35.029
28.6526 34.9703
28.6987 35.0881
28.7447 34.8458
28.7908 34.6985
28.8368 34.8445
28.8829 34.8879
28.9289 34.6033
28.9751 34.4731
29.0211 34.2023
29.0673 33.9341
29.1133 33.9327
29.1595 33.83
29.2055 33.7577
29.2517 33.7144
29.2977 33.7542
29.3439 33.8169
29.3899 33.7907
29.4361 33.6601
29.4824 33.1419
29.5284 33.1099
29.5746 32.8899
29.6207 32.5519
29.6669 32.5056
29.713 32.5536
29.7593 32.3678
29.8053 32.2891
29.8516 32.1943
29.8977 32.2022
29.9439 32.0418
29.99 31.9846
30.0363 31.9131
30.0824 31.8606
30.1287 31.8885
30.1748 31.9081
30.2211 31.9079
30.2673 31.7752
30.3136 31.7967
30.3597 31.6084
30.406 31.5781
30.4522 31.4434
30.4985 31.5658
30.5447 31.5903
30.591 31.539
30.6372 31.7122
30.6835 31.5878
30.7297 31.7087
30.7761 31.5561
30.8224 31.4617
30.8686 31.3925
30.915 31.1761
30.9612 30.9548
31.0076 30.7823
31.0538 30.6032
31.1002 30.494
31.1464 30.4297
31.1928 30.4472
31.2391 30.5202
31.2855 30.3154
31.3317 30.381
31.3781 30.4189
31.4244 30.3449
31.4708 30.3434
31.5171 30.2323
31.5636 30.2312
31.6098 29.9701
31.6563 29.8679
31.7026 29.7192
31.7491 29.6123
31.7953 29.6101
31.8418 29.6103
31.8881 29.6826
31.9346 29.6198
31.9809 29.5347
32.0275 29.411
32.074 29.3356
32.1203 29.0955
32.1668 28.9631
32.2132 28.8621
32.2597 28.7559
32.306 28.6804
32.3526 28.4696
32.399 28.4744
32.4455 28.231
32.4919 28.1215
32.5385 28.0829
32.5848 28.0236
32.6314 27.958
32.6778 28.0348
32.7244 27.7186
32.7708 27.6707
32.8174 27.7214
32.8638 27.4837
32.9104 27.5856
32.9569 27.5724
33.0035 27.4433
33.0499 27.3389
33.0966 27.3431
33.143 27.2796
33.1897 27.2304
33.2361 27.2116
33.2828 27.0784
33.3293 26.8526
33.3759 26.8676
33.4226 26.7632
33.4691 26.6099
33.5158 26.6167
33.5623 26.4019
33.609 26.2396
33.6555 26.2769
33.7022 26.1753
33.7487 26.0735
33.7954 25.9814
33.842 25.9069
33.8887 25.8738
33.9353 25.7988
33.982 25.6596
34.0286 25.5213
34.0753 25.5665
34.1219 25.4485
34.1687 25.4246
34.2152 25.3684
34.262 25.2175
34.3086 25.1156
34.3554 24.9977
34.402 24.9986
34.4488 24.9465
34.4954 24.8505
34.5422 24.762
34.5889 24.6123
34.6357 24.5815
34.6825 24.522
34.7292 24.4269
34.776 24.3214
34.8227 24.237
34.8695 24.3051
34.9162 24.1076
34.9631 24.0681
35.0098 23.9884
35.0566 23.9632
35.1033 23.9113
35.1502 23.8749
35.1969 23.758
35.2438 23.7877
35.2906 23.6731
35.3375 23.6035
35.3842 23.5778
35.4311 23.6054
35.4779 23.5317
35.5248 23.4187
35.5716 23.3467
35.6185 23.381
35.6653 23.1402
35.7123 23.0749
35.759 23.0257
35.806 22.8939
35.8528 22.9058
35.8998 22.859
35.9468 22.6882
35.9936 22.6742
36.0406 22.5886
36.0874 22.6265
36.1345 22.4768
36.1813 22.436
36.2283 22.2818
36.2752 22.2801
36.3222 22.2871
36.3691 22.1522
36.4161 22.0169
36.463 21.9875
36.5101 22.0117
36.557 21.9567
36.6041 21.8542
36.651 21.7416
36.6981 21.8028
36.745 21.6612
36.7921 21.5145
36.839 21.4313
36.8861 21.3382
36.9331 21.3229
36.9802 21.3202
37.0272 21.2286
37.0743 21.0576
37.1213 21.0849
37.1684 20.9732
37.2154 20.9482
37.2626 20.8263
37.3098 20.8268
37.3568 20.8087
37.404 20.6864
37.451 20.6197
37.4982 20.5924
37.5452 20.5353
37.5924 20.4058
37.6395 20.4295
37.6867 20.3494
37.7337 20.2623
37.781 20.2174
37.8281 20.1355
37.8753 20.1155
37.9224 19.9601
37.9697 19.9272
38.0168 19.8868
38.064 19.7688
38.1111 19.7677
38.1584 19.6723
38.2056 19.5885
38.2529 19.5082
38.3 19.4447
38.3473 19.495
38.3945 19.3364
38.4418 19.2981
38.489 19.2664
38.5363 19.1932
38.5837 19.1218
38.6309 19.0335
38.6782 18.9129
38.7254 18.9349
38.7728 18.8607
38.82 18.823
38.8674 18.748
38.9146 18.6318
38.9621 18.6002
39.0093 18.6573
39.0567 18.5571
39.104 18.4075
39.1514 18.382
39.1987 18.315
39.2461 18.2836
39.2934 18.2479
39.3409 18.1457
39.3882 18.0606
39.4356 18.0336
39.483 17.9992
39.5304 17.9184
39.5778 17.8949
39.6253 17.798
39.6726 17.7537
39.7201 17.7224
39.7675 17.6598
39.815 17.6161
39.8624 17.5569
39.9099 17.4851
39.9575 17.4148
40.0049 17.3641
40.0525 17.3065
40.0999 17.2772
40.1474 17.2246
40.1949 17.1305
40.2425 17.074
40.2899 17.0586
40.3375 16.9799
40.385 16.9871
40.4326 16.8811
40.48 16.7591
40.5277 16.862
40.5752 16.7145
40.6228 16.6668
40.6703 16.6232
40.718 16.5751
40.7655 16.5894
40.8132 16.4701
40.8607 16.4527
40.9084 16.3645
40.9559 16.2796
41.0036 16.2496
41.0512 16.1707
41.0989 16.1209
41.1465 16.1047
41.1942 16.0768
41.242 15.9142
41.2896 15.905
41.3373 15.834
41.3849 15.8426
41.4327 15.7934
41.4803 15.6653
41.5281 15.6293
41.5758 15.5698
41.6236 15.5358
41.6712 15.4959
41.7191 15.455
41.7667 15.3884
41.8146 15.3276
41.8622 15.2751
41.9101 15.2891
41.9578 15.1735
42.0057 15.1597
42.0534 15.1316
42.1013 15.0699
42.149 14.981
42.1969 14.9192
42.2446 14.8845
42.2925 14.836
42.3403 14.7807
42.3882 14.7951
42.436 14.709
42.4839 14.6349
42.5319 14.59
42.5797 14.5664
42.6277 14.4548
42.6755 14.4757
42.7235 14.3927
42.7713 14.3497
42.8193 14.2842
42.8671 14.2524
42.9152 14.2635
42.963 14.1703
43.0111 14.12
43.0589 14.1097
43.107 14.0173
43.1549 13.9555
43.2029 13.8858
43.2508 13.8708
43.2989 13.8103
43.3468 13.7639
43.3949 13.6616
43.4429 13.709
43.491 13.685
43.5389 13.6315
43.5871 13.5097
43.635 13.4833
43.6832 13.4538
43.7312 13.4275
43.7793 13.3285
43.8273 13.3411
43.8755 13.2647
43.9237 13.177
43.9717 13.1932
44.0199 13.1251
44.068 13.1341
44.1162 13.0147
44.1642 13.0292
44.2125 12.9825
44.2606 12.9284
44.3088 12.8413
44.3569 12.8345
44.4052 12.8049
44.4533 12.7303
44.5016 12.6612
44.5497 12.648
44.598 12.5808
44.6461 12.5458
44.6945 12.4741
44.7426 12.441
44.791 12.3958
44.8391 12.3707
44.8875 12.3402
44.9357 12.286
44.984 12.2562
45.0322 12.1687
45.0806 12.1329
45.1288 12.1131
45.1773 12.081
45.2257 12.0499
45.2739 11.9783
45.3224 11.9193
45.3706 11.8802
45.4191 11.848
45.4673 11.8093
45.5158 11.7461
45.5641 11.6955
45.6126 11.65
45.6609 11.6119
45.7094 11.6081
45.7577 11.5497
45.8063 11.4772
45.8546 11.506
45.9031 11.4195
45.9515 11.3913
46.0001 11.3194
46.0484 11.3186
46.097 11.3079
46.1454 11.2418
46.194 11.1816
46.2424 11.1545
46.291 11.0927
46.3395 11.0639
46.3881 11.0323
46.4365 11.0078
46.4852 10.9731
46.5337 10.9072
46.5823 10.9083
46.631 10.8536
46.6795 10.8103
46.7282 10.7697
46.7767 10.7162
46.8254 10.6648
46.8739 10.6234
46.9226 10.6079
46.9712 10.5293
47.0199 10.4616
47.0685 10.473
47.1173 10.4114
47.1658 10.4031
47.2146 10.3174
47.2632 10.3102
47.312 10.3165
47.3606 10.2394
47.4095 10.2097
47.4581 10.2118
47.5069 10.117
47.5556 10.1077
47.6044 10.0325
47.6531 10.0299
47.702 9.9817
47.7507 9.95555
47.7996 9.88345
47.8483 9.85242
47.8972 9.85357
47.9461 9.83909
47.9948 9.77125
48.0438 9.70462
48.0925 9.70095
48.1415 9.62939
48.1902 9.63834
48.2392 9.62578
48.288 9.55176
48.337 9.54502
48.3858 9.5009
48.4348 9.44877
48.4837 9.43207
48.5327 9.3886
48.5815 9.36163
48.6306 9.32995
48.6795 9.28015
48.7285 9.22782
48.7774 9.24465
48.8265 9.19775
48.8754 9.13613
48.9245 9.13067
48.9734 9.07053
49.0226 9.09212
49.0715 9.01836
49.1206 8.94906
49.1696 8.92247
49.2188 8.91041
49.2679 8.8905
49.3169 8.84983
49.3661 8.80529
49.4151 8.72733
49.4643 8.7473
49.5134 8.70299
49.5626 8.65678
49.6117 8.61363
49.6609 8.60241
49.71 8.55237
49.7592 8.51973
49.8083 8.48268
49.8576 8.47964
49.9067 8.43328
49.956 8.38299
50.0052 8.36607
50.0545 8.3297
50.1036 8.33011
50.153 8.28338
50.2022 8.26765
50.2515 8.21176
50.3007 8.15307
50.3501 8.13488
50.3993 8.09327
50.4487 8.09867
50.498 8.02763
50.5474 8.04306
50.5966 8.00948
50.6461 7.96818
50.6955 7.94059
50.7448 7.91229
50.7943 7.88658
50.8436 7.85032
50.8931 7.83159
50.9424 7.80305
50.9919 7.73445
51.0413 7.69278
51.0908 7.69348
51.1402 7.676
51.1897 7.61641
51.2391 7.55431
51.2887 7.53414
51.3381 7.55395
51.3877 7.52145
51.4371 7.48358
51.4867 7.44719
51.5362 7.43241
51.5858 7.3994
51.6353 7.32369
51.6849 7.3555
51.7344 7.2761
51.7841 7.26994
51.8336 7.23143
51.8833 7.21176
51.9328 7.17565
51.9826 7.09837
52.0323 7.12598
52.0818 7.09324
52.1316 7.07222
52.1812 7.01137
52.231 7.0106
52.2806 6.94152
52.3304 6.92973
52.38 6.92816
52.4298 6.9077
52.4794 6.80856
52.5293 6.83352
52.5789 6.8076
52.6288 6.78662
52.6785 6.7589
52.7284 6.68381
52.7781 6.71095
52.828 6.69789
52.8777 6.64149
52.9276 6.63714
52.9774 6.59096
53.0273 6.53734
53.0771 6.51094
53.1271 6.4971
53.1769 6.46459
53.2269 6.42572
53.2767 6.40522
53.3267 6.38655
53.3765 6.3576
53.4266 6.3202
53.4766 6.30773
53.5265 6.25917
53.5765 6.27602
53.6264 6.24019
53.6765 6.19629
53.7264 6.13266
53.7765 6.16632
53.8265 6.12121
53.8766 6.07149
53.9266 6.07879
53.9767 6.07373
54.0267 6.00407
54.0769 5.93799
54.1269 5.97548
54.1771 5.8858
54.2271 5.89069
54.2773 5.80072
54.3274 5.88361
54.3776 5.79882
54.4277 5.73065
54.478 5.70296
54.528 5.66023
54.5783 5.6664
54.6285 5.61408
54.6788 5.60374
54.7289 5.55752
54.7792 5.48958
54.8296 5.42731
54.8798 5.44346
54.9301 5.39122
54.9803 5.34422
55.0307 5.33816
55.0809 5.28264
55.1314 5.28851
55.1816 5.1525
55.232 5.18013
55.2823 5.10908
55.3328 5.08115
55.383 5.01288
55.4335 4.94949
55.4838 4.88522
55.5344 4.88299
55.5847 4.82217
55.6352 4.83648
55.6856 4.75929
55.7361 4.75443