File: XRD/Ni3Fe_FD0961.xy
TT I
1.27165 7.30284
1.31627 6.15131
1.36089 6.12208
1.40551 6.5211
1.45013 6.54463
1.49476 5.94433
1.53938 5.19
1.584 5.27123
1.62863 5.67141
1.67325 5.61981
1.71787 4.90057
1.7625 5.23074
1.80712 4.40954
1.85174 4.74982
1.89636 4.63151
1.94099 5.08088
1.98562 4.75766
2.03025 4.6528
2.07487 4.34703
2.11949 5.5722
2.16411 5.23735
2.20874 12.9312
2.25338 19.6266
2.298 6.41296
2.34263 6.22066
2.38725 6.44917
2.43188 6.46958
2.4765 7.55565
2.52115 7.29132
2.56577 8.09689
2.6104 8.79036
2.65503 8.13008
2.69965 8.70631
2.7443 9.21063
2.78893 8.12634
2.83356 9.04109
2.87818 9.21277
2.92281 9.09508
2.96744 9.94457
3.01209 10.9405
3.05672 11.3483
3.10135 12.8215
3.14599 12.962
3.19062 14.6011
3.23527 15.5399
3.2799 15.7082
3.32454 16.7181
3.36917 18.0593
3.4138 19.0134
3.45844 19.8216
3.50309 20.7765
3.54773 21.6258
3.59237 23.8736
3.637 78.587
3.68164 51.8989
3.7263 26.132
3.77094 26.1087
3.81558 26.5671
3.86022 27.5198
3.90486 28.6592
3.9495 29.761
3.99416 30.2441
4.0388 31.65
4.08344 33.2412
4.12809 34.3936
4.17273 36.4865
4.21738 41.9962
4.26204 210.554
4.30669 181.457
4.35133 46.9968
4.39598 43.9993
4.44063 52.3216
4.4853 61.6641
4.52995 50.6279
4.5746 51.1455
4.61925 52.7526
4.6639 54.7241
4.70855 57.2596
4.75322 59.7183
4.79788 63.0132
4.84253 66.1387
4.88719 70.5589
4.93184 74.1626
4.97652 78.9832
5.02118 84.6184
5.06583 92.1913
5.11049 102.394
5.15515 158.606
5.19981 287.052
5.24449 2507.37
5.28916 13460.8
5.33382 2855.81
5.37848 174.344
5.42315 124.19
5.46783 110.975
5.5125 104.139
5.55716 100.212
5.60183 96.8148
5.6465 94.7309
5.69117 92.3792
5.73586 90.3477
5.78053 90.5167
5.8252 90.0447
5.86988 90.5979
5.91455 91.2389
5.95924 96.7388
6.00392 177.905
6.0486 834.197
6.09328 4588.73
6.13795 3120.7
6.18263 213.376
6.22733 88.4952
6.27201 80.0909
6.3167 95.491
6.36138 77.3874
6.40606 68.0004
6.45075 66.2527
6.49545 64.507
6.54014 62.563
6.58483 62.203
6.62952 61.9256
6.67421 87.8953
6.71892 125.825
6.76361 66.1189
6.8083 57.8373
6.853 57.0823
6.89769 56.1937
6.94239 55.6817
6.98711 55.0672
7.03181 54.6924
7.07651 54.565
7.12121 54.1018
7.16591 54.1649
7.21063 54.8644
7.25533 67.6853
7.30004 152.852
7.34475 83.0794
7.38945 55.5504
7.43416 53.9961
7.47889 53.619
7.5236 53.9764
7.56831 54.6066
7.61303 55.4388
7.65774 55.7362
7.70247 55.3339
7.74719 55.4409
7.79191 55.8422
7.83663 55.7774
7.88135 56.8371
7.92607 57.9271
7.97081 58.8402
8.01553 59.8115
8.06026 61.2804
8.10498 62.838
8.14971 71.4562
8.19446 70.5919
8.23919 68.3807
8.28392 70.7396
8.32865 72.5109
8.37339 76.3336
8.41812 82.7727
8.46288 106.732
8.50761 145.725
8.55235 343.727
8.59709 1164.37
8.64183 2241.01
8.68658 908.031
8.73134 155.119
8.77609 96.4017
8.82083 90.189
8.86558 88.2773
8.91033 88.4724
8.9551 89.2338
8.99985 83.7651
9.04461 82.2758
9.08936 81.588
9.13412 81.0789
9.17888 80.7232
9.22365 81.5071
9.26841 80.2623
9.31318 81.1976
9.35794 81.901
9.4027 81.8231
9.44749 82.8189
9.49226 83.3709
9.53703 84.1725
9.5818 85.9492
9.62657 90.2418
9.67134 95.5225
9.71614 91.9295
9.76091 92.5598
9.80569 94.7037
9.85047 98.2264
9.89525 117.903
9.94005 127.505
9.98484 159.348
10.0296 307.467
10.0744 788.743
10.1192 1805.45
10.164 1547.12
10.2088 360.444
10.2536 122.184
10.2984 109.817
10.3432 110.609
10.388 101.823
10.4328 111.959
10.4776 150.479
10.5224 277.453
10.5672 528.754
10.612 494.903
10.6568 195.214
10.7017 94.144
10.7465 84.7784
10.7913 81.3947
10.8361 79.4677
10.8809 77.3246
10.9257 77.0017
10.9706 76.8991
11.0154 73.5126
11.0602 71.448
11.105 70.5035
11.1499 74.0044
11.1947 79.5059
11.2395 72.0019
11.2844 68.6537
11.3292 65.8555
11.374 64.9709
11.4189 64.3036
11.4637 63.7648
11.5086 64.0676
11.5534 66.3594
11.5983 64.0082
11.6431 62.4107
11.688 61.7832
11.7328 61.8024
11.7777 61.6849
11.8225 61.5161
11.8674 61.0943
11.9122 61.6248
11.9571 61.7826
12.002 62.0847
12.0468 65.4787
12.0917 75.3556
12.1366 99.7012
12.1814 155.878
12.2263 206.361
12.2712 161.934
12.3161 93.9669
12.3609 68.4863
12.4058 63.2828
12.4507 62.9452
12.4956 63.1751
12.5405 63.1441
12.5853 64.4697
12.6302 70.7623
12.6751 74.8007
12.72 68.3151
12.7649 66.5903
12.8098 67.0827
12.8547 68.2707
12.8996 69.6494
12.9445 70.9066
12.9894 72.5827
13.0343 74.0053
13.0792 77.2035
13.1242 84.3986
13.1691 104.853
13.214 141.04
13.2589 237.901
13.3038 382.964
13.3487 423.52
13.3937 247.153
13.4386 118.695
13.4835 100.53
13.5285 113.935
13.5734 151.936
13.6183 249.0
13.6633 356.831
13.7082 323.899
13.7531 177.006
13.7981 94.7443
13.843 80.3127
13.888 77.882
13.9329 75.6104
13.9779 74.3459
14.0228 73.0528
14.0678 71.4193
14.1127 71.3459
14.1577 71.0131
14.2027 70.007
14.2476 68.9962
14.2926 68.9928
14.3376 69.8406
14.3825 68.8215
14.4275 67.5872
14.4725 67.2936
14.5175 67.8084
14.5624 67.6917
14.6074 69.4015
14.6524 69.7841
14.6974 69.1122
14.7424 70.195
14.7874 75.5661
14.8324 85.0936
14.8774 106.922
14.9224 154.395
14.9674 215.137
15.0124 216.769
15.0574 144.736
15.1024 87.0792
15.1474 70.6464
15.1924 69.0421
15.2374 69.3066
15.2824 68.3848
15.3274 66.3482
15.3725 65.4526
15.4175 65.1764
15.4625 64.5335
15.5076 64.8819
15.5526 64.5099
15.5976 64.5646
15.6426 65.0052
15.6877 69.4166
15.7327 76.6081
15.7778 91.8404
15.8228 125.687
15.8679 174.563
15.9129 193.196
15.958 148.342
16.003 92.0981
16.0481 66.427
16.0931 62.9346
16.1382 61.0442
16.1833 59.4034
16.2283 57.9585
16.2734 57.1467
16.3185 57.3138
16.3636 57.8959
16.4086 56.3162
16.4537 55.0662
16.4988 54.4778
16.5439 54.3939
16.589 54.1027
16.6341 53.8263
16.6792 53.1957
16.7243 53.8478
16.7694 53.9224
16.8145 53.7202
16.8596 54.0014
16.9047 55.4047
16.9498 55.4433
16.9949 54.5964
17.04 54.5441
17.0851 55.6053
17.1302 56.9646
17.1754 60.1996
17.2205 65.5615
17.2656 74.3316
17.3108 82.6545
17.3559 80.1169
17.401 69.0419
17.4462 60.9102
17.4913 58.0015
17.5365 57.7819
17.5815 58.0661
17.6268 58.555
17.6718 59.2661
17.7171 59.5636
17.7622 59.8931
17.8074 60.5969
17.8525 62.3982
17.8977 66.0233
17.9428 71.2714
17.9881 80.4465
18.0331 99.307
18.0784 122.809
18.1237 137.172
18.1688 125.05
18.214 99.3763
18.2591 84.271
18.3044 90.1646
18.3495 100.786
18.3948 104.613
18.4399 93.3117
18.4852 75.1546
18.5303 64.3945
18.5756 61.0527
18.6207 60.0819
18.666 59.3054
18.7112 58.6556
18.7565 57.7079
18.8016 57.4176
18.8469 57.1625
18.892 56.6226
18.9374 56.2491
18.9825 55.9777
19.0278 55.6821
19.073 55.6483
19.1183 56.0648
19.1635 56.7122
19.2088 58.1756
19.254 60.7302
19.2993 65.8881
19.3447 71.7672
19.3898 74.6015
19.4352 70.1562
19.4804 61.482
19.5257 55.537
19.5709 53.294
19.6163 52.6614
19.6615 52.5675
19.7068 52.1354
19.752 52.3954
19.7974 52.4747
19.8426 53.0595
19.888 53.6902
19.9332 54.9839
19.9786 57.7682
20.0238 61.9087
20.0692 66.8481
20.1144 68.6267
20.1598 65.9035
20.205 61.9922
20.2504 61.4795
20.2957 63.8105
20.3411 64.8472
20.3863 62.5981
20.4318 57.0556
20.477 52.3868
20.5224 50.6959
20.5677 49.8112
20.6131 49.3469
20.6586 48.8246
20.7038 48.5269
20.7493 48.1888
20.7945 48.0055
20.84 47.9641
20.8853 47.7785
20.9307 47.7119
20.976 47.5126
21.0215 47.5234
21.0668 48.0272
21.1122 48.6019
21.1575 49.2113
21.203 50.0623
21.2483 50.4803
21.2938 50.2122
21.3391 48.9535
21.3846 48.0281
21.4299 47.5003
21.4754 47.5449
21.5207 47.582
21.5662 47.8686
21.6116 48.2147
21.6571 48.7495
21.7024 49.5579
21.7479 51.2659
21.7933 54.3062
21.8388 58.5604
21.8843 62.3056
21.9297 63.3036
21.9752 61.4478
22.0206 58.0177
22.0661 55.6533
22.1115 55.375
22.157 54.6766
22.2024 52.8817
22.248 50.3406
22.2933 48.8595
22.3389 48.2945
22.3843 48.0287
22.4299 47.988
22.4753 47.816
22.5208 47.5449
22.5662 47.5058
22.6118 47.7648
22.6572 48.0071
22.7028 48.273
22.7483 48.6163
22.7939 49.3846
22.8393 50.8865
22.8849 53.46
22.9303 55.6607
22.9759 56.9306
23.0214 56.0106
23.067 53.1597
23.1126 49.9503
23.1581 48.1993
23.2037 47.8795
23.2492 47.8422
23.2948 47.7417
23.3403 48.0407
23.3859 48.6619
23.4314 49.8501
23.477 51.8371
23.5225 54.4105
23.5682 56.425
23.6137 56.9059
23.6593 54.3674
23.7048 50.3764
23.7505 47.3005
23.796 45.8148
23.8417 45.3098
23.8872 44.6561
23.9329 44.3149
23.9784 43.9929
24.0241 43.732
24.0697 43.6119
24.1154 43.43
24.1609 43.0802
24.2066 43.0716
24.2522 42.8458
24.2979 42.6072
24.3434 42.4206
24.3892 42.5014
24.4349 42.3061
24.4805 42.1909
24.5262 42.5247
24.5718 42.2184
24.6175 42.0586
24.6631 42.0634
24.7089 41.619
24.7545 41.6321
24.8002 41.4957
24.8458 41.5591
24.8916 41.1686
24.9372 41.483
24.983 41.8033
25.0286 42.0233
25.0744 42.4824
25.12 43.0893
25.1658 43.6017
25.2114 43.8399
25.2572 44.1034
25.3029 44.2175
25.3487 44.26
25.3943 43.7756
25.4402 42.5302
25.4858 41.5825
25.5316 40.6816
25.5773 40.2185
25.6231 40.1297
25.669 39.8296
25.7147 39.7863
25.7605 39.721
25.8062 39.8298
25.8521 39.9577
25.8977 39.8488
25.9436 40.0926
25.9893 40.2921
26.0352 40.7896
26.0809 40.9571
26.1268 40.8335
26.1725 40.6058
26.2184 39.9728
26.2641 39.5425
26.31 39.4197
26.3557 39.3623
26.4017 39.3293
26.4474 39.6642
26.4933 39.9806
26.5391 40.6379
26.585 41.099
26.6308 41.4324
26.6767 41.4346
26.7225 41.1166
26.7684 40.6457
26.8142 40.1094
26.8601 39.8834
26.9059 39.2954
26.9519 38.6744
26.9979 38.4542
27.0437 38.1394
27.0896 38.0537
27.1354 38.0216
27.1814 37.9107
27.2272 37.7132
27.2732 37.9133
27.3191 37.6432
27.3651 37.8361
27.4109 37.704
27.4569 37.884
27.5027 37.86
27.5488 37.7517
27.5946 37.7311
27.6407 37.5744
27.6865 37.3851
27.7326 37.2135
27.7784 37.0406
27.8245 37.1096
27.8703 37.2377
27.9164 37.6019
27.9623 37.7355
28.0084 38.0299
28.0543 38.3813
28.1003 38.3088
28.1462 38.041
28.1923 37.6969
28.2384 37.3832
28.2843 37.0239
28.3304 36.4724
28.3764 36.0388
28.4225 35.7163
28.4684 35.6418
28.5145 35.2907
28.5605 35.2636
28.6066 35.0328
28.6526 35.0627
28.6987 34.8971
28.7447 34.9487
28.7908 34.7725
28.8368 34.8438
28.8829 34.8302
28.9289 34.7207
28.9751 34.5127
29.0211 34.3115
29.0673 34.0961
29.1133 34.004
29.1595 33.8763
29.2055 33.6838
29.2517 33.8391
29.2977 33.6525
29.3439 33.6979
29.3899 33.5844
29.4361 33.6052
29.4824 33.4243
29.5284 33.1038
29.5746 32.8169
29.6207 32.5442
29.6669 32.5095
29.713 32.4365
29.7593 32.1708
29.8053 32.3645
29.8516 32.217
29.8977 32.1358
29.9439 31.9928
29.99 31.9964
30.0363 31.9057
30.0824 31.9386
30.1287 31.8979
30.1748 31.9229
30.2211 31.8304
30.2673 31.6196
30.3136 31.7788
30.3597 31.6052
30.406 31.5468
30.4522 31.5654
30.4985 31.3874
30.5447 31.5672
30.591 31.5688
30.6372 31.7029
30.6835 31.6785
30.7297 31.6225
30.7761 31.5193
30.8224 31.4453
30.8686 31.2793
30.915 30.9824
30.9612 30.867
31.0076 30.6529
31.0538 30.6339
31.1002 30.5614
31.1464 30.3964
31.1928 30.3914
31.2391 30.5498
31.2855 30.2669
31.3317 30.3808
31.3781 30.4279
31.4244 30.2648
31.4708 30.2962
31.5171 30.2145
31.5636 30.3217
31.6098 29.9638
31.6563 29.8646
31.7026 29.7231
31.7491 29.5604
31.7953 29.6603
31.8418 29.5659
31.8881 29.6834
31.9346 29.5428
31.9809 29.6041
32.0275 29.3574
32.074 29.2218
32.1203 29.1262
32.1668 28.9646
32.2132 28.8568
32.2597 28.7117
32.306 28.6712
32.3526 28.4202
32.399 28.3764
32.4455 28.3434
32.4919 28.1891
32.5385 28.0904
32.5848 27.9829
32.6314 28.0307
32.6778 27.8678
32.7244 27.7801
32.7708 27.6142
32.8174 27.7213
32.8638 27.541
32.9104 27.5821
32.9569 27.475
33.0035 27.2717
33.0499 27.2773
33.0966 27.3255
33.143 27.3386
33.1897 27.1933
33.2361 27.0389
33.2828 27.0496
33.3293 26.9
33.3759 26.9303
33.4226 26.7227
33.4691 26.6133
33.5158 26.5618
33.5623 26.3834
33.609 26.2254
33.6555 26.3132
33.7022 26.1599
33.7487 26.0258
33.7954 26.0551
33.842 25.9234
33.8887 25.9556
33.9353 25.7698
33.982 25.6667
34.0286 25.6198
34.0753 25.58
34.1219 25.4835
34.1687 25.389
34.2152 25.3152
34.262 25.2125
34.3086 25.1391
34.3554 25.0249
34.402 24.9828
34.4488 24.7885
34.4954 24.8298
34.5422 24.7506
34.5889 24.6267
34.6357 24.4363
34.6825 24.494
34.7292 24.4653
34.776 24.3908
34.8227 24.2186
34.8695 24.1513
34.9162 24.1138
34.9631 24.0628
35.0098 24.0723
35.0566 23.9188
35.1033 23.8933
35.1502 23.7898
35.1969 23.7702
35.2438 23.7046
35.2906 23.6132
35.3375 23.6567
35.3842 23.6035
35.4311 23.5334
35.4779 23.5749
35.5248 23.4885
35.5716 23.3418
35.6185 23.2304
35.6653 23.265
35.7123 23.1588
35.759 23.0376
35.806 23.0205
35.8528 22.8166
35.8998 22.7288
35.9468 22.757
35.9936 22.6624
36.0406 22.6193
36.0874 22.6074
36.1345 22.5591
36.1813 22.46
36.2283 22.3702
36.2752 22.2848
36.3222 22.2414
36.3691 22.2314
36.4161 22.0982
36.463 22.0448
36.5101 22.0567
36.557 21.96
36.6041 21.7518
36.651 21.8359
36.6981 21.6916
36.745 21.6593
36.7921 21.5947
36.839 21.4937
36.8861 21.4402
36.9331 21.3311
36.9802 21.2795
37.0272 21.1487
37.0743 21.1221
37.1213 21.098
37.1684 21.0277
37.2154 20.9938
37.2626 20.8923
37.3098 20.8773
37.3568 20.7472
37.404 20.684
37.451 20.6722
37.4982 20.5387
37.5452 20.4872
37.5924 20.4279
37.6395 20.4895
37.6867 20.4
37.7337 20.2638
37.781 20.2211
37.8281 20.1685
37.8753 19.9875
37.9224 19.9421
37.9697 19.9027
38.0168 19.8653
38.064 19.8048
38.1111 19.7792
38.1584 19.6323
38.2056 19.5871
38.2529 19.5579
38.3 19.4579
38.3473 19.4578
38.3945 19.3464
38.4418 19.2729
38.489 19.2437
38.5363 19.1968
38.5837 19.0775
38.6309 19.0421
38.6782 18.9779
38.7254 18.9146
38.7728 18.8302
38.82 18.806
38.8674 18.7897
38.9146 18.7122
38.9621 18.6044
39.0093 18.5899
39.0567 18.5587
39.104 18.4252
39.1514 18.3501
39.1987 18.3469
39.2461 18.3554
39.2934 18.2303
39.3409 18.0839
39.3882 18.0453
39.4356 18.0339
39.483 17.9925
39.5304 17.9721
39.5778 17.9629
39.6253 17.8278
39.6726 17.7247
39.7201 17.7674
39.7675 17.6597
39.815 17.6472
39.8624 17.4928
39.9099 17.5257
39.9575 17.3834
40.0049 17.351
40.0525 17.3417
40.0999 17.269
40.1474 17.1942
40.1949 17.1847
40.2425 17.0322
40.2899 17.0661
40.3375 17.0104
40.385 16.9102
40.4326 16.9096
40.48 16.7895
40.5277 16.8528
40.5752 16.7401
40.6228 16.6974
40.6703 16.6926
40.718 16.5672
40.7655 16.4874
40.8132 16.4359
40.8607 16.4672
40.9084 16.3875
40.9559 16.3511
41.0036 16.2708
41.0512 16.2022
41.0989 16.1864
41.1465 16.0856
41.1942 16.0732
41.242 16.0069
41.2896 15.9285
41.3373 15.8912
41.3849 15.8222
41.4327 15.7942
41.4803 15.6579
41.5281 15.6908
41.5758 15.5916
41.6236 15.5098
41.6712 15.4555
41.7191 15.4559
41.7667 15.4309
41.8146 15.3621
41.8622 15.3066
41.9101 15.2943
41.9578 15.1637
42.0057 15.1576
42.0534 15.1386
42.1013 15.0642
42.149 14.971
42.1969 14.9491
42.2446 14.8433
42.2925 14.8495
42.3403 14.8127
42.3882 14.7895
42.436 14.6822
42.4839 14.7021
42.5319 14.6057
42.5797 14.5807
42.6277 14.561
42.6755 14.5092
42.7235 14.3321
42.7713 14.4006
42.8193 14.3188
42.8671 14.2937
42.9152 14.2208
42.963 14.154
43.0111 14.1084
43.0589 14.0955
43.107 13.9845
43.1549 13.9764
43.2029 13.9409
43.2508 13.9244
43.2989 13.8326
43.3468 13.8051
43.3949 13.714
43.4429 13.6769
43.491 13.6073
43.5389 13.6206
43.5871 13.575
43.635 13.5034
43.6832 13.4423
43.7312 13.4521
43.7793 13.3712
43.8273 13.3184
43.8755 13.2486
43.9237 13.252
43.9717 13.1854
44.0199 13.151
44.068 13.1203
44.1162 13.0416
44.1642 13.0332
44.2125 12.9262
44.2606 12.8894
44.3088 12.8574
44.3569 12.7959
44.4052 12.8265
44.4533 12.7429
44.5016 12.6823
44.5497 12.6289
44.598 12.6231
44.6461 12.5194
44.6945 12.5033
44.7426 12.4598
44.791 12.3898
44.8391 12.4208
44.8875 12.3285
44.9357 12.3151
44.984 12.3073
45.0322 12.1692
45.0806 12.2143
45.1288 12.1327
45.1773 12.1011
45.2257 12.0237
45.2739 11.983
45.3224 11.9328
45.3706 11.9439
45.4191 11.8476
45.4673 11.8465
45.5158 11.8184
45.5641 11.7401
45.6126 11.6803
45.6609 11.6542
45.7094 11.6023
45.7577 11.5775
45.8063 11.4898
45.8546 11.5369
45.9031 11.4033
45.9515 11.4096
46.0001 11.3882
46.0484 11.3299
46.097 11.3219
46.1454 11.2714
46.194 11.2573
46.2424 11.165
46.291 11.1433
46.3395 11.0918
46.3881 11.0263
46.4365 11.0245
46.4852 10.9761
46.5337 10.9455
46.5823 10.9334
46.631 10.8193
46.6795 10.8175
46.7282 10.7741
46.7767 10.726
46.8254 10.6957
46.8739 10.6428
46.9226 10.6043
46.9712 10.5419
47.0199 10.5613
47.0685 10.505
47.1173 10.4657
47.1658 10.376
47.2146 10.3903
47.2632 10.2843
47.312 10.2936
47.3606 10.2343
47.4095 10.247
47.4581 10.1668
47.5069 10.1518
47.5556 10.0927
47.6044 10.0918
47.6531 10.0405
47.702 10.0024
47.7507 9.94653
47.7996 9.9188
47.8483 9.89035
47.8972 9.84186
47.9461 9.83558
47.9948 9.77179
48.0438 9.73666
48.0925 9.71219
48.1415 9.68947
48.1902 9.63004
48.2392 9.62014
48.288 9.57603
48.337 9.59764
48.3858 9.49923
48.4348 9.47015
48.4837 9.46214
48.5327 9.40066
48.5815 9.34405
48.6306 9.34442
48.6795 9.29975
48.7285 9.27248
48.7774 9.26555
48.8265 9.22097
48.8754 9.16459
48.9245 9.14494
48.9734 9.05301
49.0226 9.0468
49.0715 9.02218
49.1206 8.97713
49.1696 8.94785
49.2188 8.92517
49.2679 8.84363
49.3169 8.86635
49.3661 8.82897
49.4151 8.7759
49.4643 8.72966
49.5134 8.72638
49.5626 8.65408
49.6117 8.62995
49.6609 8.59829
49.71 8.57856
49.7592 8.57496
49.8083 8.47136
49.8576 8.50032
49.9067 8.41629
49.956 8.41774
50.0052 8.36166
50.0545 8.33563
50.1036 8.33361
50.153 8.28778
50.2022 8.25362
50.2515 8.21884
50.3007 8.18337
50.3501 8.17525
50.3993 8.17166
50.4487 8.12861
50.498 8.05713
50.5474 8.04269
50.5966 8.01649
50.6461 7.97165
50.6955 7.95081
50.7448 7.93639
50.7943 7.92962
50.8436 7.85167
50.8931 7.83662
50.9424 7.80472
50.9919 7.74854
51.0413 7.7564
51.0908 7.71596
51.1402 7.68884
51.1897 7.67018
51.2391 7.63466
51.2887 7.57391
51.3381 7.52646
51.3877 7.53549
51.4371 7.46074
51.4867 7.44862
51.5362 7.42105
51.5858 7.41457
51.6353 7.32159
51.6849 7.3426
51.7344 7.28632
51.7841 7.27924
51.8336 7.22364
51.8833 7.20796
51.9328 7.15148
51.9826 7.13754
52.0323 7.13064
52.0818 7.07586
52.1316 7.05689
52.1812 7.03683
52.231 6.99347
52.2806 6.94718
52.3304 6.96307
52.38 6.89574
52.4298 6.85765
52.4794 6.86646
52.5293 6.81619
52.5789 6.81386
52.6288 6.80577
52.6785 6.75888
52.7284 6.73317
52.7781 6.72447
52.828 6.66077
52.8777 6.62304
52.9276 6.61969
52.9774 6.57455
53.0273 6.56807
53.0771 6.52066
53.1271 6.50817
53.1769 6.4655
53.2269 6.4328
53.2767 6.42129
53.3267 6.39192
53.3765 6.38065
53.4266 6.36529
53.4766 6.30694
53.5265 6.29699
53.5765 6.22647
53.6264 6.2711
53.6765 6.20924
53.7264 6.16317
53.7765 6.13913
53.8265 6.11621
53.8766 6.10571
53.9266 6.07243
53.9767 6.03207
54.0267 6.02161
54.0769 5.98973
54.1269 5.93984
54.1771 5.91568
54.2271 5.91688
54.2773 5.8591
54.3274 5.82588
54.3776 5.79243
54.4277 5.78969
54.478 5.7333
54.528 5.7078
54.5783 5.67325
54.6285 5.66888
54.6788 5.59427
54.7289 5.57466
54.7792 5.50374
54.8296 5.51033
54.8798 5.40348
54.9301 5.39908
54.9803 5.34042
55.0307 5.30556
55.0809 5.31462
55.1314 5.26445
55.1816 5.18264
55.232 5.17158
55.2823 5.15822
55.3328 5.03148
55.383 4.9931
55.4335 5.00765
55.4838 4.94543
55.5344 4.90416
55.5847 4.84862
55.6352 4.84458
55.6856 4.75889
55.7361 4.71891