File: XRD/Ni3Fe_FD0127.xy
TT I
1.27165 7.94951
1.31627 7.33855
1.36089 7.43483
1.40551 6.7623
1.45013 7.45204
1.49476 6.47101
1.53938 6.35182
1.584 6.00396
1.62863 6.15804
1.67325 5.45761
1.71787 5.53821
1.7625 5.21427
1.80712 5.17369
1.85174 4.747
1.89636 5.42911
1.94099 5.68571
1.98562 5.23488
2.03025 5.28234
2.07487 5.06721
2.11949 5.18494
2.16411 4.54986
2.20874 4.22637
2.25338 4.25158
2.298 4.14486
2.34263 4.48024
2.38725 4.30017
2.43188 3.88632
2.4765 4.57658
2.52115 4.19988
2.56577 4.69555
2.6104 5.01553
2.65503 5.43147
2.69965 4.7017
2.7443 6.26441
2.78893 5.78248
2.83356 6.96025
2.87818 7.58012
2.92281 8.46722
2.96744 9.41145
3.01209 10.7374
3.05672 11.2941
3.10135 12.1033
3.14599 13.0286
3.19062 14.0921
3.23527 14.9389
3.2799 15.9963
3.32454 16.4794
3.36917 17.2553
3.4138 18.5999
3.45844 18.9357
3.50309 20.4905
3.54773 20.7482
3.59237 21.7057
3.637 22.1289
3.68164 22.815
3.7263 24.3128
3.77094 24.9659
3.81558 25.8456
3.86022 26.1896
3.90486 27.4868
3.9495 28.3344
3.99416 29.0899
4.0388 30.9361
4.08344 31.5846
4.12809 32.1876
4.17273 34.0018
4.21738 35.4289
4.26204 36.1708
4.30669 37.2205
4.35133 39.3479
4.39598 40.523
4.44063 42.8898
4.4853 44.3303
4.52995 46.9422
4.5746 48.8696
4.61925 50.9661
4.6639 53.2294
4.70855 56.1168
4.75322 59.4671
4.79788 62.0066
4.84253 66.0404
4.88719 70.1431
4.93184 74.9723
4.97652 82.3743
5.02118 91.1229
5.06583 102.098
5.11049 118.777
5.15515 158.625
5.19981 583.265
5.24449 3768.71
5.28916 7747.35
5.33382 6510.02
5.37848 505.576
5.42315 169.416
5.46783 129.593
5.5125 115.265
5.55716 108.107
5.60183 101.755
5.6465 99.6141
5.69117 97.5413
5.73586 95.3822
5.78053 95.2954
5.8252 95.7257
5.86988 99.8059
5.91455 106.738
5.95924 126.566
6.00392 301.775
6.0486 1401.76
6.09328 2543.13
6.13795 3940.06
6.18263 736.931
6.22733 127.71
6.27201 90.4852
6.3167 78.9271
6.36138 73.0028
6.40606 68.1211
6.45075 66.0434
6.49545 64.0446
6.54014 62.1774
6.58483 60.5662
6.62952 59.5082
6.67421 57.8862
6.71892 57.0083
6.76361 56.3352
6.8083 54.873
6.853 54.6196
6.89769 54.2129
6.94239 53.7196
6.98711 52.7169
7.03181 52.772
7.07651 51.8176
7.12121 52.2424
7.16591 52.0972
7.21063 51.4929
7.25533 51.7282
7.30004 51.7244
7.34475 51.6088
7.38945 51.5791
7.43416 51.3931
7.47889 51.8766
7.5236 56.2667
7.56831 65.8886
7.61303 55.9802
7.65774 53.1781
7.70247 53.8014
7.74719 53.6771
7.79191 54.4289
7.83663 54.7937
7.88135 55.8207
7.92607 56.5487
7.97081 57.8063
8.01553 58.5416
8.06026 59.7187
8.10498 61.2737
8.14971 63.3444
8.19446 64.472
8.23919 67.3232
8.28392 70.2622
8.32865 73.3838
8.37339 77.7989
8.41812 83.4792
8.46288 95.7404
8.50761 176.57
8.55235 615.991
8.59709 843.227
8.64183 1395.01
8.68658 1698.14
8.73134 435.363
8.77609 118.664
8.82083 97.6397
8.86558 91.079
8.91033 87.4114
8.9551 85.1557
8.99985 83.4083
9.04461 82.5532
9.08936 81.5629
9.13412 81.0996
9.17888 80.9277
9.22365 87.5701
9.26841 101.13
9.31318 87.8406
9.35794 81.8013
9.4027 81.447
9.44749 82.6299
9.49226 82.674
9.53703 83.8598
9.5818 85.1016
9.62657 86.5237
9.67134 88.0157
9.71614 89.6414
9.76091 92.2592
9.80569 95.2018
9.85047 98.2783
9.89525 103.743
9.94005 113.822
9.98484 188.89
10.0296 557.481
10.0744 714.133
10.1192 951.618
10.164 1605.84
10.2088 1034.02
10.2536 228.152
10.2984 117.247
10.3432 108.045
10.388 104.295
10.4328 121.851
10.4776 218.244
10.5224 255.655
10.5672 310.1
10.612 476.186
10.6568 387.66
10.7017 139.985
10.7465 91.2492
10.7913 83.1199
10.8361 80.3156
10.8809 77.4729
10.9257 75.1826
10.9706 73.703
11.0154 71.9049
11.0602 70.6855
11.105 69.4565
11.1499 67.9776
11.1947 67.0691
11.2395 66.3062
11.2844 65.7003
11.3292 64.9164
11.374 64.1221
11.4189 63.7332
11.4637 62.9754
11.5086 62.3851
11.5534 61.7559
11.5983 61.6676
11.6431 61.7939
11.688 61.0847
11.7328 61.0919
11.7777 60.8952
11.8225 60.463
11.8674 60.8042
11.9122 62.0336
11.9571 66.631
12.002 66.0096
12.0468 67.4831
12.0917 90.9043
12.1366 107.37
12.1814 113.285
12.2263 143.02
12.2712 189.357
12.3161 144.619
12.3609 76.2502
12.4058 63.8834
12.4507 63.0157
12.4956 62.534
12.5405 62.7443
12.5853 63.0648
12.6302 63.0325
12.6751 63.8128
12.72 64.5777
12.7649 65.5249
12.8098 66.4813
12.8547 67.3838
12.8996 69.0195
12.9445 70.6033
12.9894 72.4429
13.0343 74.574
13.0792 78.7421
13.1242 86.4983
13.1691 133.788
13.214 188.44
13.2589 197.023
13.3038 229.99
13.3487 333.636
13.3937 387.952
13.4386 222.831
13.4835 121.615
13.5285 155.888
13.5734 181.928
13.6183 184.192
13.6633 222.645
13.7082 317.843
13.7531 309.906
13.7981 161.382
13.843 88.9279
13.888 80.1558
13.9329 77.0235
13.9779 75.5657
14.0228 73.9223
14.0678 72.2315
14.1127 72.4709
14.1577 74.4482
14.2027 72.8971
14.2476 70.2543
14.2926 68.8492
14.3376 68.481
14.3825 67.9501
14.4275 67.6274
14.4725 67.6046
14.5175 67.7097
14.5624 67.743
14.6074 67.9916
14.6524 68.5637
14.6974 69.2544
14.7424 71.0402
14.7874 80.2025
14.8324 107.497
14.8774 120.195
14.9224 122.573
14.9674 140.442
15.0124 183.315
15.0574 204.34
15.1024 143.634
15.1474 82.9443
15.1924 71.1185
15.2374 68.5977
15.2824 67.3581
15.3274 66.5466
15.3725 66.1393
15.4175 65.8302
15.4625 65.2413
15.5076 64.9253
15.5526 65.0805
15.5976 65.0639
15.6426 66.022
15.6877 73.5693
15.7327 95.446
15.7778 107.332
15.8228 107.578
15.8679 118.709
15.9129 146.999
15.958 182.81
16.003 156.763
16.0481 91.8056
16.0931 66.7339
16.1382 61.6864
16.1833 60.158
16.2283 58.2574
16.2734 57.3351
16.3185 56.7733
16.3636 56.2441
16.4086 55.3948
16.4537 55.0538
16.4988 54.6577
16.5439 54.6178
16.589 54.3136
16.6341 54.1869
16.6792 53.6719
16.7243 53.8175
16.7694 53.6495
16.8145 53.6511
16.8596 53.792
16.9047 54.1074
16.9498 54.5769
16.9949 54.3005
17.04 54.9351
17.0851 56.6108
17.1302 60.7512
17.1754 63.9322
17.2205 64.3912
17.2656 65.5638
17.3108 70.3742
17.3559 77.585
17.401 80.8931
17.4462 71.349
17.4913 61.4332
17.5365 58.9006
17.5815 58.5232
17.6268 58.8362
17.6718 59.175
17.7171 59.7222
17.7622 60.9324
17.8074 61.7828
17.8525 63.3826
17.8977 71.6766
17.9428 83.9333
17.9881 87.8607
18.0331 88.8804
18.0784 94.5233
18.1237 110.039
18.1688 137.242
18.214 143.489
18.2591 113.345
18.3044 87.5196
18.3495 84.3805
18.3948 92.144
18.4399 101.847
18.4852 96.5016
18.5303 77.5455
18.5756 64.9079
18.6207 62.0257
18.666 60.4829
18.7112 59.6077
18.7565 58.7775
18.8016 58.3999
18.8469 57.7196
18.892 57.3937
18.9374 56.781
18.9825 56.5059
19.0278 56.316
19.073 56.363
19.1183 56.9289
19.1635 59.3753
19.2088 61.3448
19.254 61.7998
19.2993 62.0332
19.3447 63.9509
19.3898 67.6009
19.4352 72.4227
19.4804 72.283
19.5257 64.2361
19.5709 56.3723
19.6163 53.776
19.6615 53.5959
19.7068 52.9735
19.752 52.979
19.7974 53.1404
19.8426 54.2774
19.888 56.5273
19.9332 58.0073
19.9786 58.0634
20.0238 58.1272
20.0692 60.7746
20.1144 65.5722
20.1598 71.6324
20.205 70.9968
20.2504 65.1818
20.2957 60.4811
20.3411 60.5056
20.3863 63.7823
20.4318 64.2322
20.477 59.0272
20.5224 53.3985
20.5677 50.7321
20.6131 50.1147
20.6586 49.4876
20.7038 49.3215
20.7493 48.7302
20.7945 48.8801
20.84 48.7386
20.8853 48.4473
20.9307 48.2066
20.976 48.4717
21.0215 48.6667
21.0668 49.0782
21.1122 49.1392
21.1575 49.1675
21.203 49.3008
21.2483 49.6754
21.2938 50.93
21.3391 50.9439
21.3846 50.2571
21.4299 49.0098
21.4754 48.4996
21.5207 48.3601
21.5662 48.5694
21.6116 48.8627
21.6571 51.0243
21.7024 52.9234
21.7479 53.6334
21.7933 53.7738
21.8388 54.8181
21.8843 57.5178
21.9297 61.1382
21.9752 64.8558
22.0206 65.5471
22.0661 60.787
22.1115 56.0698
22.157 55.0095
22.2024 56.0298
22.248 54.8313
22.2933 52.3614
22.3389 49.9002
22.3843 48.9156
22.4299 48.4984
22.4753 48.3835
22.5208 48.3869
22.5662 48.5147
22.6118 48.4869
22.6572 48.6972
22.7028 49.8986
22.7483 51.2513
22.7939 51.6054
22.8393 51.5289
22.8849 51.9756
22.9303 52.5492
22.9759 54.0122
23.0214 56.2244
23.067 57.8637
23.1126 56.0445
23.1581 52.4079
23.2037 49.7023
23.2492 49.0794
23.2948 49.3137
23.3403 50.694
23.3859 51.4825
23.4314 51.4371
23.477 51.1341
23.5225 51.6606
23.5682 52.5747
23.6137 54.8218
23.6593 57.0687
23.7048 57.0857
23.7505 53.4018
23.796 49.1743
23.8417 46.5995
23.8872 45.7016
23.9329 45.486
23.9784 44.9198
24.0241 44.7116
24.0697 44.3699
24.1154 43.9257
24.1609 43.8862
24.2066 43.7467
24.2522 43.5211
24.2979 43.3032
24.3434 43.2662
24.3892 43.0569
24.4349 42.9181
24.4805 42.6517
24.5262 42.7462
24.5718 42.5121
24.6175 42.6828
24.6631 42.9012
24.7089 42.4947
24.7545 42.4406
24.8002 42.1032
24.8458 42.1293
24.8916 42.2194
24.9372 42.3712
24.983 42.6425
25.0286 42.6686
25.0744 42.9964
25.12 43.403
25.1658 43.9056
25.2114 44.1274
25.2572 44.6915
25.3029 44.5976
25.3487 44.3614
25.3943 44.5191
25.4402 44.627
25.4858 44.3143
25.5316 43.0045
25.5773 41.5369
25.6231 41.1915
25.669 40.6355
25.7147 40.5156
25.7605 40.3902
25.8062 40.5702
25.8521 40.8737
25.8977 40.6525
25.9436 40.6854
25.9893 40.5809
26.0352 40.883
26.0809 40.8325
26.1268 41.2353
26.1725 41.6417
26.2184 41.5873
26.2641 41.1601
26.31 40.6997
26.3557 40.54
26.4017 40.517
26.4474 40.7867
26.4933 40.6153
26.5391 40.9651
26.585 41.0399
26.6308 41.2395
26.6767 41.6298
26.7225 42.1863
26.7684 42.5649
26.8142 41.8651
26.8601 41.0335
26.9059 40.6074
26.9519 40.2903
26.9979 39.9188
27.0437 39.2533
27.0896 39.0166
27.1354 38.9309
27.1814 38.7321
27.2272 38.7342
27.2732 38.8185
27.3191 38.5853
27.3651 38.5682
27.4109 38.3056
27.4569 38.4084
27.5027 38.4016
27.5488 38.5519
27.5946 38.4589
27.6407 38.4931
27.6865 38.5509
27.7326 38.3272
27.7784 38.2909
27.8245 38.1543
27.8703 38.2182
27.9164 38.3485
27.9623 38.19
28.0084 38.3755
28.0543 38.6935
28.1003 38.6839
28.1462 38.9892
28.1923 39.1019
28.2384 38.5746
28.2843 38.1794
28.3304 37.7194
28.3764 37.4516
28.4225 36.9982
28.4684 36.547
28.5145 36.0491
28.5605 36.0357
28.6066 35.8698
28.6526 35.7101
28.6987 35.6795
28.7447 35.3747
28.7908 35.3744
28.8368 35.2872
28.8829 35.1883
28.9289 35.2474
28.9751 35.1671
29.0211 35.1087
29.0673 34.7931
29.1133 34.7965
29.1595 34.527
29.2055 34.3406
29.2517 34.3382
29.2977 34.0769
29.3439 34.1087
29.3899 33.9476
29.4361 34.0064
29.4824 34.0084
29.5284 33.9985
29.5746 33.5987
29.6207 33.422
29.6669 33.1864
29.713 32.9803
29.7593 32.7723
29.8053 32.7393
29.8516 32.8692
29.8977 32.8086
29.9439 32.5935
29.99 32.5708
30.0363 32.3571
30.0824 32.4794
30.1287 32.3079
30.1748 32.3315
30.2211 32.2588
30.2673 32.1267
30.3136 32.4343
30.3597 32.4434
30.406 32.3913
30.4522 32.1444
30.4985 32.0555
30.5447 32.169
30.591 31.9763
30.6372 32.0251
30.6835 31.9019
30.7297 32.0891
30.7761 32.1972
30.8224 32.2198
30.8686 32.1083
30.915 31.8812
30.9612 31.7301
31.0076 31.5123
31.0538 31.3536
31.1002 31.3074
31.1464 31.001
31.1928 31.0538
31.2391 31.0656
31.2855 30.8167
31.3317 30.8214
31.3781 30.8556
31.4244 30.7912
31.4708 30.8618
31.5171 30.7353
31.5636 30.8061
31.6098 30.8114
31.6563 30.775
31.7026 30.5231
31.7491 30.2969
31.7953 30.321
31.8418 30.2166
31.8881 30.1384
31.9346 30.0316
31.9809 30.021
32.0275 29.9792
32.074 29.9625
32.1203 29.7698
32.1668 29.7472
32.2132 29.536
32.2597 29.402
32.306 29.3446
32.3526 29.0432
32.399 28.9754
32.4455 28.8142
32.4919 28.7113
32.5385 28.6938
32.5848 28.5928
32.6314 28.5173
32.6778 28.5349
32.7244 28.2904
32.7708 28.2795
32.8174 28.2558
32.8638 28.0669
32.9104 28.0224
32.9569 28.0517
33.0035 27.8589
33.0499 27.8617
33.0966 27.7906
33.143 27.7438
33.1897 27.6789
33.2361 27.6082
33.2828 27.5527
33.3293 27.4485
33.3759 27.4847
33.4226 27.36
33.4691 27.2106
33.5158 27.2073
33.5623 26.9943
33.609 26.8611
33.6555 26.7482
33.7022 26.6193
33.7487 26.4945
33.7954 26.4363
33.842 26.4103
33.8887 26.2286
33.9353 26.2541
33.982 26.1552
34.0286 26.0775
34.0753 26.0792
34.1219 25.9654
34.1687 25.8977
34.2152 25.7252
34.262 25.6364
34.3086 25.4985
34.3554 25.4843
34.402 25.3871
34.4488 25.3352
34.4954 25.3019
34.5422 25.2004
34.5889 25.0252
34.6357 25.0107
34.6825 24.9272
34.7292 24.8278
34.776 24.7548
34.8227 24.7077
34.8695 24.6711
34.9162 24.6131
34.9631 24.4774
35.0098 24.508
35.0566 24.3029
35.1033 24.309
35.1502 24.2434
35.1969 24.2149
35.2438 24.1303
35.2906 24.0897
35.3375 24.0699
35.3842 23.9409
35.4311 23.9078
35.4779 23.9144
35.5248 23.8289
35.5716 23.7443
35.6185 23.7126
35.6653 23.7049
35.7123 23.5819
35.759 23.473
35.806 23.4667
35.8528 23.23
35.8998 23.2082
35.9468 23.1337
35.9936 23.1352
36.0406 23.0535
36.0874 22.9766
36.1345 22.9397
36.1813 22.8383
36.2283 22.8355
36.2752 22.6086
36.3222 22.6993
36.3691 22.5995
36.4161 22.4952
36.463 22.4489
36.5101 22.3849
36.557 22.2613
36.6041 22.1307
36.651 22.168
36.6981 22.106
36.745 22.0652
36.7921 21.997
36.839 21.9052
36.8861 21.8487
36.9331 21.7691
36.9802 21.6277
37.0272 21.6535
37.0743 21.4784
37.1213 21.4318
37.1684 21.387
37.2154 21.3344
37.2626 21.2433
37.3098 21.2456
37.3568 21.1366
37.404 21.0817
37.451 20.9852
37.4982 20.9047
37.5452 20.8927
37.5924 20.7582
37.6395 20.8303
37.6867 20.732
37.7337 20.5906
37.781 20.5325
37.8281 20.5463
37.8753 20.4458
37.9224 20.3766
37.9697 20.2931
38.0168 20.2053
38.064 20.1335
38.1111 20.0738
38.1584 20.0314
38.2056 19.966
38.2529 19.9129
38.3 19.8186
38.3473 19.8102
38.3945 19.6676
38.4418 19.6802
38.489 19.6219
38.5363 19.4745
38.5837 19.4192
38.6309 19.4424
38.6782 19.3318
38.7254 19.2796
38.7728 19.2681
38.82 19.1017
38.8674 19.1092
38.9146 19.0368
38.9621 18.9822
39.0093 18.9117
39.0567 18.8554
39.104 18.7911
39.1514 18.7263
39.1987 18.6777
39.2461 18.6303
39.2934 18.5601
39.3409 18.4677
39.3882 18.4139
39.4356 18.3262
39.483 18.3004
39.5304 18.2068
39.5778 18.2658
39.6253 18.1621
39.6726 18.0373
39.7201 17.9972
39.7675 17.9544
39.815 17.9273
39.8624 17.8314
39.9099 17.8409
39.9575 17.7007
40.0049 17.6721
40.0525 17.5417
40.0999 17.5736
40.1474 17.545
40.1949 17.4568
40.2425 17.3266
40.2899 17.3761
40.3375 17.2933
40.385 17.2312
40.4326 17.1697
40.48 17.1109
40.5277 17.0839
40.5752 17.0464
40.6228 16.9897
40.6703 16.9316
40.718 16.8633
40.7655 16.8416
40.8132 16.7954
40.8607 16.7343
40.9084 16.6788
40.9559 16.5949
41.0036 16.6011
41.0512 16.5291
41.0989 16.4536
41.1465 16.3921
41.1942 16.3101
41.242 16.2242
41.2896 16.1932
41.3373 16.1641
41.3849 16.097
41.4327 16.054
41.4803 16.014
41.5281 15.9234
41.5758 15.9133
41.6236 15.8127
41.6712 15.7639
41.7191 15.7156
41.7667 15.6905
41.8146 15.6568
41.8622 15.5503
41.9101 15.5325
41.9578 15.4215
42.0057 15.4369
42.0534 15.3914
42.1013 15.3699
42.149 15.2602
42.1969 15.2495
42.2446 15.1215
42.2925 15.1214
42.3403 15.0871
42.3882 15.0568
42.436 14.9576
42.4839 14.8805
42.5319 14.8633
42.5797 14.7875
42.6277 14.7897
42.6755 14.6988
42.7235 14.6182
42.7713 14.5871
42.8193 14.5192
42.8671 14.4716
42.9152 14.4467
42.963 14.3924
43.0111 14.3634
43.0589 14.2805
43.107 14.2342
43.1549 14.1811
43.2029 14.1731
43.2508 14.1158
43.2989 14.0779
43.3468 13.9537
43.3949 13.9467
43.4429 13.9699
43.491 13.8727
43.5389 13.8038
43.5871 13.7225
43.635 13.6895
43.6832 13.7265
43.7312 13.6319
43.7793 13.5396
43.8273 13.5377
43.8755 13.4652
43.9237 13.5124
43.9717 13.4456
44.0199 13.3576
44.068 13.3189
44.1162 13.248
44.1642 13.2381
44.2125 13.2162
44.2606 13.1846
44.3088 13.0952
44.3569 13.0143
44.4052 13.0167
44.4533 12.916
44.5016 12.8917
44.5497 12.8779
44.598 12.7645
44.6461 12.7693
44.6945 12.7447
44.7426 12.6776
44.791 12.5988
44.8391 12.6193
44.8875 12.5428
44.9357 12.4471
44.984 12.5056
45.0322 12.3575
45.0806 12.3777
45.1288 12.3039
45.1773 12.2768
45.2257 12.2568
45.2739 12.1454
45.3224 12.1791
45.3706 12.138
45.4191 12.0607
45.4673 12.0188
45.5158 11.9816
45.5641 11.9255
45.6126 11.9206
45.6609 11.8499
45.7094 11.7907
45.7577 11.7696
45.8063 11.7027
45.8546 11.656
45.9031 11.5967
45.9515 11.6237
46.0001 11.5826
46.0484 11.4841
46.097 11.4973
46.1454 11.4692
46.194 11.4018
46.2424 11.3993
46.291 11.3144
46.3395 11.2598
46.3881 11.2083
46.4365 11.1789
46.4852 11.171
46.5337 11.1509
46.5823 11.0617
46.631 11.0148
46.6795 10.9391
46.7282 10.9371
46.7767 10.9139
46.8254 10.8648
46.8739 10.8271
46.9226 10.7729
46.9712 10.7382
47.0199 10.7057
47.0685 10.6752
47.1173 10.6272
47.1658 10.5615
47.2146 10.5494
47.2632 10.4897
47.312 10.4451
47.3606 10.3868
47.4095 10.3802
47.4581 10.3492
47.5069 10.3034
47.5556 10.2669
47.6044 10.1921
47.6531 10.2057
47.702 10.148
47.7507 10.1381
47.7996 10.0815
47.8483 10.0606
47.8972 10.0487
47.9461 9.98278
47.9948 9.92953
48.0438 9.93103
48.0925 9.86459
48.1415 9.86189
48.1902 9.79874
48.2392 9.76911
48.288 9.71837
48.337 9.70541
48.3858 9.66827
48.4348 9.65589
48.4837 9.62657
48.5327 9.58107
48.5815 9.5456
48.6306 9.48819
48.6795 9.47175
48.7285 9.37798
48.7774 9.39653
48.8265 9.3232
48.8754 9.27962
48.9245 9.30888
48.9734 9.27246
49.0226 9.19931
49.0715 9.19298
49.1206 9.11922
49.1696 9.11418
49.2188 9.07476
49.2679 9.04742
49.3169 9.01842
49.3661 8.96395
49.4151 8.92016
49.4643 8.90137
49.5134 8.88689
49.5626 8.83956
49.6117 8.80691
49.6609 8.77969
49.71 8.73758
49.7592 8.68564
49.8083 8.63572
49.8576 8.64029
49.9067 8.57257
49.956 8.58511
50.0052 8.57713
50.0545 8.59901
50.1036 8.44109
50.153 8.45202
50.2022 8.40507
50.2515 8.38933
50.3007 8.28221
50.3501 8.29297
50.3993 8.27732
50.4487 8.24492
50.498 8.17899
50.5474 8.17651
50.5966 8.14033
50.6461 8.1445
50.6955 8.0998
50.7448 8.07875
50.7943 8.05942
50.8436 7.99747
50.8931 7.96438
50.9424 7.94981
50.9919 7.91117
51.0413 7.91162
51.0908 7.82541
51.1402 7.78318
51.1897 7.76895
51.2391 7.77251
51.2887 7.68888
51.3381 7.66867
51.3877 7.65927
51.4371 7.59051
51.4867 7.56558
51.5362 7.55037
51.5858 7.58681
51.6353 7.49091
51.6849 7.43309
51.7344 7.4405
51.7841 7.42758
51.8336 7.36037
51.8833 7.31932
51.9328 7.30061
51.9826 7.26013
52.0323 7.25203
52.0818 7.21035
52.1316 7.1604
52.1812 7.15179
52.231 7.13204
52.2806 7.06184
52.3304 7.07116
52.38 7.06314
52.4298 6.99802
52.4794 6.96692
52.5293 6.95717
52.5789 6.89436
52.6288 6.91259
52.6785 6.82982
52.7284 6.82823
52.7781 6.82198
52.828 6.7777
52.8777 6.7316
52.9276 6.75305
52.9774 6.7046
53.0273 6.69984
53.0771 6.66764
53.1271 6.64936
53.1769 6.58411
53.2269 6.53907
53.2767 6.54036
53.3267 6.53369
53.3765 6.48673
53.4266 6.45542
53.4766 6.4244
53.5265 6.37856
53.5765 6.38782
53.6264 6.31193
53.6765 6.30059
53.7264 6.28052
53.7765 6.25803
53.8265 6.23066
53.8766 6.17701
53.9266 6.17518
53.9767 6.13007
54.0267 6.10834
54.0769 6.09179
54.1269 6.01999
54.1771 6.02071
54.2271 5.97273
54.2773 5.89913
54.3274 5.89766
54.3776 5.83857
54.4277 5.80717
54.478 5.80218
54.528 5.75592
54.5783 5.72553
54.6285 5.642
54.6788 5.597
54.7289 5.56974
54.7792 5.58386
54.8296 5.4797
54.8798 5.39847
54.9301 5.41505
54.9803 5.37722
55.0307 5.38844
55.0809 5.27989
55.1314 5.24447
55.1816 5.15805
55.232 5.11982
55.2823 5.10272
55.3328 5.05026
55.383 4.9793
55.4335 4.96657
55.4838 4.90037
55.5344 4.88734
55.5847 4.78139
55.6352 4.80704
55.6856 4.73771
55.7361 4.75452