File: XRD/Ni3Fe_FD0999.xy
TT I
1.27165 7.06424
1.31627 6.91022
1.36089 6.564
1.40551 5.54291
1.45013 5.75098
1.49476 5.50073
1.53938 5.3283
1.584 5.26604
1.62863 4.96889
1.67325 4.90159
1.71787 4.85343
1.7625 4.88326
1.80712 5.07205
1.85174 4.8039
1.89636 4.00692
1.94099 4.75749
1.98562 5.07882
2.03025 4.79469
2.07487 4.4573
2.11949 4.82614
2.16411 4.82897
2.20874 16.45
2.25338 27.7149
2.298 6.49591
2.34263 5.57849
2.38725 5.90519
2.43188 6.92973
2.4765 7.69968
2.52115 7.23361
2.56577 8.80405
2.6104 8.52659
2.65503 8.73608
2.69965 8.51773
2.7443 8.32413
2.78893 8.7744
2.83356 8.78668
2.87818 8.74647
2.92281 9.41803
2.96744 9.8011
3.01209 10.0875
3.05672 11.0204
3.10135 11.9981
3.14599 13.3886
3.19062 14.5391
3.23527 15.1414
3.2799 15.8343
3.32454 17.0934
3.36917 17.5642
3.4138 19.0699
3.45844 19.4184
3.50309 20.7648
3.54773 21.9041
3.59237 24.4887
3.637 106.05
3.68164 67.8919
3.7263 26.3205
3.77094 25.8734
3.81558 26.996
3.86022 27.2613
3.90486 28.8096
3.9495 29.6644
3.99416 30.7639
4.0388 31.7904
4.08344 33.4816
4.12809 34.5889
4.17273 36.9011
4.21738 43.1414
4.26204 292.201
4.30669 262.001
4.35133 49.5451
4.39598 43.8654
4.44063 55.0185
4.4853 69.8171
4.52995 49.4565
4.5746 50.0021
4.61925 52.182
4.6639 53.9186
4.70855 57.024
4.75322 59.1529
4.79788 61.8746
4.84253 65.4226
4.88719 69.2966
4.93184 73.0634
4.97652 78.1945
5.02118 83.7412
5.06583 90.3233
5.11049 99.8003
5.15515 170.625
5.19981 267.478
5.24449 2174.87
5.28916 13469.6
5.33382 2781.13
5.37848 173.337
5.42315 122.887
5.46783 109.336
5.5125 102.596
5.55716 99.5041
5.60183 96.4292
5.6465 94.3386
5.69117 91.3992
5.73586 88.9158
5.78053 88.7873
5.8252 87.8091
5.86988 88.4874
5.91455 89.4449
5.95924 94.7282
6.00392 161.226
6.0486 740.62
6.09328 4523.4
6.13795 3289.83
6.18263 212.351
6.22733 89.1352
6.27201 81.0184
6.3167 106.01
6.36138 81.216
6.40606 67.698
6.45075 65.9889
6.49545 64.6248
6.54014 63.0208
6.58483 61.9248
6.62952 62.0291
6.67421 98.8845
6.71892 162.585
6.76361 70.6831
6.8083 57.7778
6.853 56.6743
6.89769 56.1527
6.94239 55.9907
6.98711 55.1007
7.03181 54.4915
7.07651 54.7738
7.12121 54.5329
7.16591 54.9526
7.21063 54.9722
7.25533 72.3454
7.30004 202.538
7.34475 100.487
7.38945 56.111
7.43416 53.9488
7.47889 53.6431
7.5236 54.0825
7.56831 54.5784
7.61303 56.6424
7.65774 56.9011
7.70247 55.3742
7.74719 54.9853
7.79191 55.7222
7.83663 55.9137
7.88135 56.7303
7.92607 57.6626
7.97081 58.5519
8.01553 59.4504
8.06026 60.8731
8.10498 62.6401
8.14971 73.1957
8.19446 72.5826
8.23919 68.077
8.28392 70.0166
8.32865 72.1269
8.37339 75.9821
8.41812 83.1396
8.46288 114.115
8.50761 138.846
8.55235 307.752
8.59709 1090.42
8.64183 2406.26
8.68658 965.432
8.73134 163.63
8.77609 96.4149
8.82083 90.2166
8.86558 87.1782
8.91033 88.0859
8.9551 91.1142
8.99985 83.7965
9.04461 81.4734
9.08936 80.9318
9.13412 80.2768
9.17888 80.0794
9.22365 81.1167
9.26841 80.1065
9.31318 80.3113
9.35794 80.6483
9.4027 81.0942
9.44749 81.5114
9.49226 82.701
9.53703 83.1752
9.5818 85.1579
9.62657 89.9277
9.67134 98.4631
9.71614 91.6178
9.76091 91.4212
9.80569 93.5492
9.85047 97.0172
9.89525 124.084
9.94005 137.062
9.98484 150.03
10.0296 279.214
10.0744 716.702
10.1192 1758.11
10.164 1591.35
10.2088 373.322
10.2536 122.862
10.2984 111.408
10.3432 113.908
10.388 101.692
10.4328 108.387
10.4776 141.878
10.5224 260.084
10.5672 525.242
10.612 514.148
10.6568 197.617
10.7017 94.5334
10.7465 84.3798
10.7913 81.2596
10.8361 78.9544
10.8809 77.4749
10.9257 77.0275
10.9706 78.1514
11.0154 73.5305
11.0602 71.2611
11.105 70.5045
11.1499 76.0146
11.1947 85.1576
11.2395 74.8541
11.2844 69.6745
11.3292 66.1085
11.374 64.9051
11.4189 64.2665
11.4637 63.882
11.5086 64.6538
11.5534 68.2072
11.5983 64.7533
11.6431 62.4697
11.688 61.4838
11.7328 61.6251
11.7777 61.3337
11.8225 60.9577
11.8674 61.0473
11.9122 61.1445
11.9571 61.3536
12.002 61.65
12.0468 64.5197
12.0917 73.9407
12.1366 96.4912
12.1814 147.488
12.2263 203.815
12.2712 162.149
12.3161 95.1299
12.3609 70.4633
12.4058 63.4819
12.4507 62.8959
12.4956 63.0739
12.5405 62.9181
12.5853 64.1105
12.6302 73.3978
12.6751 80.3373
12.72 69.7053
12.7649 66.3789
12.8098 66.9615
12.8547 68.1525
12.8996 68.8931
12.9445 70.1395
12.9894 72.0383
13.0343 73.5357
13.0792 76.5036
13.1242 82.5503
13.1691 102.142
13.214 133.573
13.2589 220.034
13.3038 372.13
13.3487 437.183
13.3937 258.905
13.4386 121.884
13.4835 98.7768
13.5285 110.061
13.5734 143.96
13.6183 235.134
13.6633 356.163
13.7082 340.747
13.7531 181.475
13.7981 94.8606
13.843 79.9602
13.888 77.8162
13.9329 75.304
13.9779 73.9556
14.0228 72.5174
14.0678 71.1668
14.1127 70.8191
14.1577 71.0574
14.2027 69.9164
14.2476 68.7879
14.2926 69.3117
14.3376 70.6974
14.3825 69.0581
14.4275 67.1822
14.4725 67.0486
14.5175 67.0909
14.5624 67.1386
14.6074 69.8976
14.6524 70.5205
14.6974 68.7567
14.7424 69.3886
14.7874 73.9978
14.8324 82.8235
14.8774 102.021
14.9224 145.452
14.9674 208.689
15.0124 218.828
15.0574 151.246
15.1024 89.501
15.1474 70.6431
15.1924 68.9141
15.2374 70.103
15.2824 69.3013
15.3274 66.8676
15.3725 65.4283
15.4175 65.071
15.4625 64.4749
15.5076 64.798
15.5526 64.652
15.5976 64.2359
15.6426 64.5043
15.6877 68.4035
15.7327 74.3843
15.7778 87.971
15.8228 118.201
15.8679 169.791
15.9129 197.163
15.958 155.25
16.003 94.8009
16.0481 67.0732
16.0931 63.9454
16.1382 61.8107
16.1833 59.5222
16.2283 57.8735
16.2734 57.2367
16.3185 57.6925
16.3636 58.5443
16.4086 57.1152
16.4537 55.3663
16.4988 54.304
16.5439 54.2968
16.589 54.0129
16.6341 53.8081
16.6792 53.5679
16.7243 53.6946
16.7694 53.9699
16.8145 53.7968
16.8596 54.2245
16.9047 55.99
16.9498 56.3767
16.9949 54.7888
17.04 54.5797
17.0851 55.2009
17.1302 56.5795
17.1754 59.3707
17.2205 64.35
17.2656 72.709
17.3108 82.0563
17.3559 80.7026
17.401 69.2434
17.4462 60.495
17.4913 57.8113
17.5365 57.7787
17.5815 57.7042
17.6268 58.0005
17.6718 58.9934
17.7171 59.6494
17.7622 59.7616
17.8074 60.0555
17.8525 61.8008
17.8977 65.1243
17.9428 69.9749
17.9881 77.9634
18.0331 95.1423
18.0784 120.316
18.1237 139.552
18.1688 128.526
18.214 100.282
18.2591 83.1849
18.3044 87.8883
18.3495 99.6426
18.3948 106.663
18.4399 94.7269
18.4852 76.146
18.5303 64.6547
18.5756 60.9856
18.6207 59.7914
18.666 59.1816
18.7112 58.3808
18.7565 57.7323
18.8016 57.4352
18.8469 56.8273
18.892 56.4154
18.9374 56.091
18.9825 55.7809
19.0278 55.7823
19.073 55.7373
19.1183 55.9677
19.1635 56.4307
19.2088 57.8209
19.254 60.1855
19.2993 64.8032
19.3447 71.6665
19.3898 75.7316
19.4352 71.1343
19.4804 61.8734
19.5257 55.5022
19.5709 53.1538
19.6163 52.6314
19.6615 52.6083
19.7068 52.189
19.752 52.2246
19.7974 52.224
19.8426 53.0489
19.888 53.4974
19.9332 54.5816
19.9786 56.8884
20.0238 60.8515
20.0692 66.223
20.1144 68.979
20.1598 66.4844
20.205 61.8338
20.2504 60.5811
20.2957 63.0013
20.3411 65.1976
20.3863 63.0791
20.4318 57.0973
20.477 52.5607
20.5224 50.565
20.5677 49.9789
20.6131 49.2582
20.6586 48.6208
20.7038 48.5055
20.7493 48.1721
20.7945 47.7681
20.84 47.7824
20.8853 47.6746
20.9307 47.4159
20.976 47.672
21.0215 47.3949
21.0668 47.8692
21.1122 48.3861
21.1575 48.8899
21.203 49.9523
21.2483 50.6183
21.2938 50.3249
21.3391 48.9936
21.3846 47.9345
21.4299 47.2778
21.4754 47.2271
21.5207 47.4243
21.5662 47.7375
21.6116 47.8255
21.6571 48.5403
21.7024 49.4541
21.7479 51.0528
21.7933 53.6168
21.8388 57.5918
21.8843 61.801
21.9297 63.5268
21.9752 61.9867
22.0206 58.3355
22.0661 55.2309
22.1115 55.266
22.157 55.1375
22.2024 53.3084
22.248 50.2945
22.2933 48.8589
22.3389 48.1944
22.3843 48.0696
22.4299 48.0554
22.4753 48.0211
22.5208 47.6722
22.5662 47.4786
22.6118 47.417
22.6572 47.5627
22.7028 47.9641
22.7483 48.3541
22.7939 48.9777
22.8393 50.5427
22.8849 52.672
22.9303 55.405
22.9759 57.1496
23.0214 56.4986
23.067 53.3694
23.1126 49.9422
23.1581 48.2664
23.2037 47.7709
23.2492 47.737
23.2948 47.6031
23.3403 47.7896
23.3859 48.3981
23.4314 49.4327
23.477 51.1914
23.5225 53.7559
23.5682 56.3557
23.6137 57.205
23.6593 54.7795
23.7048 50.7518
23.7505 47.5025
23.796 45.7921
23.8417 45.0918
23.8872 44.6197
23.9329 44.2659
23.9784 43.8812
24.0241 43.6133
24.0697 43.5707
24.1154 43.3463
24.1609 43.1904
24.2066 43.0216
24.2522 42.8103
24.2979 42.5652
24.3434 42.623
24.3892 42.3314
24.4349 42.2562
24.4805 42.1108
24.5262 42.3125
24.5718 42.1745
24.6175 42.0702
24.6631 41.9593
24.7089 41.6354
24.7545 41.5842
24.8002 41.3816
24.8458 41.2756
24.8916 41.1731
24.9372 41.3111
24.983 41.5642
25.0286 41.8468
25.0744 42.2615
25.12 42.9016
25.1658 43.2843
25.2114 43.709
25.2572 43.9165
25.3029 44.1373
25.3487 44.2182
25.3943 43.8364
25.4402 42.7371
25.4858 41.5927
25.5316 40.68
25.5773 40.0279
25.6231 40.1126
25.669 39.7091
25.7147 39.6538
25.7605 39.5646
25.8062 39.5634
25.8521 39.7847
25.8977 39.7452
25.9436 39.9037
25.9893 39.9939
26.0352 40.6141
26.0809 40.7303
26.1268 41.099
26.1725 40.6568
26.2184 39.981
26.2641 39.5777
26.31 39.2799
26.3557 39.1745
26.4017 39.2381
26.4474 39.4886
26.4933 39.7706
26.5391 40.2336
26.585 40.9203
26.6308 41.3677
26.6767 41.3014
26.7225 41.1723
26.7684 40.4935
26.8142 40.0777
26.8601 39.6714
26.9059 39.2245
26.9519 38.6287
26.9979 38.2799
27.0437 38.205
27.0896 37.9236
27.1354 37.9467
27.1814 37.8251
27.2272 37.6023
27.2732 37.8154
27.3191 37.5201
27.3651 37.6836
27.4109 37.7203
27.4569 37.7253
27.5027 37.7675
27.5488 37.9105
27.5946 37.6501
27.6407 37.3569
27.6865 37.3922
27.7326 36.965
27.7784 37.1141
27.8245 37.0089
27.8703 37.1536
27.9164 37.5152
27.9623 37.4963
28.0084 37.9186
28.0543 38.3884
28.1003 38.3211
28.1462 37.9737
28.1923 37.7198
28.2384 37.3367
28.2843 36.8951
28.3304 36.3961
28.3764 36.0347
28.4225 35.7953
28.4684 35.5889
28.5145 35.2011
28.5605 35.1437
28.6066 35.0309
28.6526 34.9222
28.6987 35.0498
28.7447 34.7312
28.7908 34.7519
28.8368 34.7278
28.8829 34.8804
28.9289 34.7585
28.9751 34.4605
29.0211 34.3155
29.0673 34.0707
29.1133 33.8366
29.1595 33.6979
29.2055 33.6628
29.2517 33.6252
29.2977 33.5875
29.3439 33.5862
29.3899 33.5674
29.4361 33.5026
29.4824 33.2903
29.5284 33.0655
29.5746 32.7582
29.6207 32.5015
29.6669 32.471
29.713 32.4446
29.7593 32.3359
29.8053 32.323
29.8516 32.2043
29.8977 32.1196
29.9439 31.9844
29.99 31.8843
30.0363 31.8593
30.0824 31.8597
30.1287 31.7997
30.1748 31.8472
30.2211 31.8764
30.2673 31.6346
30.3136 31.7711
30.3597 31.6547
30.406 31.5271
30.4522 31.4189
30.4985 31.3945
30.5447 31.3943
30.591 31.4733
30.6372 31.6242
30.6835 31.5843
30.7297 31.5744
30.7761 31.4941
30.8224 31.3418
30.8686 31.2308
30.915 30.947
30.9612 30.9416
31.0076 30.71
31.0538 30.6528
31.1002 30.4731
31.1464 30.3622
31.1928 30.3752
31.2391 30.4192
31.2855 30.2809
31.3317 30.2442
31.3781 30.3325
31.4244 30.252
31.4708 30.3022
31.5171 30.1987
31.5636 30.1802
31.6098 29.987
31.6563 29.824
31.7026 29.7117
31.7491 29.5387
31.7953 29.6047
31.8418 29.568
31.8881 29.5931
31.9346 29.5873
31.9809 29.4528
32.0275 29.3723
32.074 29.2498
32.1203 29.0652
32.1668 28.9695
32.2132 28.8472
32.2597 28.6777
32.306 28.5822
32.3526 28.3974
32.399 28.3226
32.4455 28.248
32.4919 28.1626
32.5385 28.1506
32.5848 27.9214
32.6314 27.9656
32.6778 27.7668
32.7244 27.7612
32.7708 27.564
32.8174 27.6086
32.8638 27.4346
32.9104 27.5019
32.9569 27.4788
33.0035 27.3557
33.0499 27.3882
33.0966 27.2661
33.143 27.1537
33.1897 27.1017
33.2361 27.0128
33.2828 27.0329
33.3293 26.9134
33.3759 26.8403
33.4226 26.7242
33.4691 26.6088
33.5158 26.4576
33.5623 26.3825
33.609 26.2623
33.6555 26.1507
33.7022 26.1557
33.7487 26.0054
33.7954 25.93
33.842 25.8257
33.8887 25.8796
33.9353 25.776
33.982 25.5601
34.0286 25.5639
34.0753 25.4092
34.1219 25.3094
34.1687 25.3423
34.2152 25.294
34.262 25.1761
34.3086 25.0818
34.3554 25.0589
34.402 24.8848
34.4488 24.782
34.4954 24.7336
34.5422 24.6736
34.5889 24.6197
34.6357 24.4071
34.6825 24.4705
34.7292 24.3863
34.776 24.2089
34.8227 24.2499
34.8695 24.1814
34.9162 24.0625
34.9631 23.9961
35.0098 23.97
35.0566 23.8215
35.1033 23.8072
35.1502 23.7104
35.1969 23.7474
35.2438 23.6803
35.2906 23.6217
35.3375 23.6419
35.3842 23.4925
35.4311 23.5176
35.4779 23.521
35.5248 23.4776
35.5716 23.3529
35.6185 23.2541
35.6653 23.1446
35.7123 23.1084
35.759 23.0498
35.806 22.8808
35.8528 22.8707
35.8998 22.7139
35.9468 22.7195
35.9936 22.6899
36.0406 22.5908
36.0874 22.534
36.1345 22.5119
36.1813 22.3962
36.2283 22.3232
36.2752 22.2013
36.3222 22.1836
36.3691 22.0581
36.4161 21.9981
36.463 21.9621
36.5101 21.9788
36.557 22.0102
36.6041 21.6714
36.651 21.6509
36.6981 21.6579
36.745 21.6312
36.7921 21.5657
36.839 21.4396
36.8861 21.4034
36.9331 21.3728
36.9802 21.3074
37.0272 21.1785
37.0743 21.067
37.1213 21.0139
37.1684 21.0624
37.2154 20.9873
37.2626 20.8211
37.3098 20.8111
37.3568 20.7715
37.404 20.703
37.451 20.6541
37.4982 20.6031
37.5452 20.4445
37.5924 20.4605
37.6395 20.3747
37.6867 20.293
37.7337 20.2086
37.781 20.0992
37.8281 20.0973
37.8753 20.0488
37.9224 19.8951
37.9697 19.9199
38.0168 19.8202
38.064 19.8082
38.1111 19.7502
38.1584 19.6526
38.2056 19.5506
38.2529 19.538
38.3 19.4448
38.3473 19.4367
38.3945 19.3662
38.4418 19.3082
38.489 19.2426
38.5363 19.1744
38.5837 19.0779
38.6309 19.0225
38.6782 18.9524
38.7254 18.8959
38.7728 18.8722
38.82 18.773
38.8674 18.7568
38.9146 18.6876
38.9621 18.6254
39.0093 18.6078
39.0567 18.5562
39.104 18.3657
39.1514 18.3989
39.1987 18.3047
39.2461 18.2352
39.2934 18.2733
39.3409 18.1296
39.3882 18.0258
39.4356 18.005
39.483 17.9207
39.5304 17.8741
39.5778 17.8412
39.6253 17.8243
39.6726 17.7426
39.7201 17.7263
39.7675 17.6973
39.815 17.6121
39.8624 17.5397
39.9099 17.5258
39.9575 17.3802
40.0049 17.3917
40.0525 17.2892
40.0999 17.2372
40.1474 17.2329
40.1949 17.1222
40.2425 17.1217
40.2899 17.0273
40.3375 17.0089
40.385 16.8844
40.4326 16.8548
40.48 16.8311
40.5277 16.7803
40.5752 16.7203
40.6228 16.6214
40.6703 16.6245
40.718 16.5678
40.7655 16.5346
40.8132 16.4568
40.8607 16.4353
40.9084 16.351
40.9559 16.3239
41.0036 16.2653
41.0512 16.1962
41.0989 16.1927
41.1465 16.0545
41.1942 16.0165
41.242 16.046
41.2896 15.8812
41.3373 15.9183
41.3849 15.8408
41.4327 15.8041
41.4803 15.6558
41.5281 15.692
41.5758 15.5909
41.6236 15.5476
41.6712 15.5164
41.7191 15.4603
41.7667 15.4112
41.8146 15.3312
41.8622 15.3458
41.9101 15.265
41.9578 15.1646
42.0057 15.1396
42.0534 15.1581
42.1013 15.0839
42.149 14.9895
42.1969 14.9671
42.2446 14.9177
42.2925 14.8292
42.3403 14.7917
42.3882 14.7649
42.436 14.6891
42.4839 14.681
42.5319 14.6118
42.5797 14.5225
42.6277 14.5265
42.6755 14.4708
42.7235 14.3623
42.7713 14.3806
42.8193 14.3296
42.8671 14.2593
42.9152 14.2582
42.963 14.2207
43.0111 14.0962
43.0589 14.1059
43.107 14.0182
43.1549 13.9939
43.2029 13.897
43.2508 13.9035
43.2989 13.8492
43.3468 13.7681
43.3949 13.7238
43.4429 13.6564
43.491 13.6295
43.5389 13.6384
43.5871 13.571
43.635 13.4851
43.6832 13.5239
43.7312 13.4171
43.7793 13.2976
43.8273 13.3328
43.8755 13.2796
43.9237 13.1944
43.9717 13.1769
44.0199 13.1265
44.068 13.0634
44.1162 13.0568
44.1642 13.0392
44.2125 12.9554
44.2606 12.8963
44.3088 12.8584
44.3569 12.7991
44.4052 12.7835
44.4533 12.7387
44.5016 12.6468
44.5497 12.6344
44.598 12.6078
44.6461 12.6013
44.6945 12.511
44.7426 12.4806
44.791 12.378
44.8391 12.4085
44.8875 12.2955
44.9357 12.3001
44.984 12.1794
45.0322 12.191
45.0806 12.1707
45.1288 12.1191
45.1773 12.1035
45.2257 12.0335
45.2739 11.986
45.3224 11.97
45.3706 11.9108
45.4191 11.8229
45.4673 11.8126
45.5158 11.7905
45.5641 11.686
45.6126 11.6712
45.6609 11.6194
45.7094 11.5905
45.7577 11.5319
45.8063 11.5092
45.8546 11.4533
45.9031 11.4345
45.9515 11.4029
46.0001 11.3836
46.0484 11.3255
46.097 11.3158
46.1454 11.2725
46.194 11.2182
46.2424 11.1638
46.291 11.0818
46.3395 11.0654
46.3881 11.0597
46.4365 11.0493
46.4852 10.95
46.5337 10.8856
46.5823 10.8826
46.631 10.8311
46.6795 10.846
46.7282 10.7954
46.7767 10.7088
46.8254 10.6694
46.8739 10.64
46.9226 10.5928
46.9712 10.6013
47.0199 10.4905
47.0685 10.461
47.1173 10.4366
47.1658 10.4072
47.2146 10.3962
47.2632 10.3193
47.312 10.2982
47.3606 10.2442
47.4095 10.2532
47.4581 10.164
47.5069 10.1155
47.5556 10.1062
47.6044 10.0063
47.6531 10.0054
47.702 9.99118
47.7507 9.92123
47.7996 9.90385
47.8483 9.89638
47.8972 9.83257
47.9461 9.81006
47.9948 9.78324
48.0438 9.7481
48.0925 9.70519
48.1415 9.66642
48.1902 9.63129
48.2392 9.57392
48.288 9.58049
48.337 9.52604
48.3858 9.52266
48.4348 9.47301
48.4837 9.44619
48.5327 9.40834
48.5815 9.38797
48.6306 9.36406
48.6795 9.31435
48.7285 9.20648
48.7774 9.23489
48.8265 9.23516
48.8754 9.16652
48.9245 9.12702
48.9734 9.08178
49.0226 9.075
49.0715 9.04598
49.1206 8.97131
49.1696 8.94058
49.2188 8.93371
49.2679 8.87566
49.3169 8.8712
49.3661 8.79512
49.4151 8.77768
49.4643 8.78288
49.5134 8.71359
49.5626 8.67987
49.6117 8.66388
49.6609 8.58967
49.71 8.5692
49.7592 8.54792
49.8083 8.47679
49.8576 8.4836
49.9067 8.39871
49.956 8.39385
50.0052 8.35841
50.0545 8.35099
50.1036 8.34608
50.153 8.28343
50.2022 8.25075
50.2515 8.24218
50.3007 8.18815
50.3501 8.15283
50.3993 8.11346
50.4487 8.08097
50.498 8.09024
50.5474 8.01378
50.5966 7.97418
50.6461 7.96881
50.6955 7.93103
50.7448 7.92366
50.7943 7.87542
50.8436 7.86433
50.8931 7.79025
50.9424 7.77081
50.9919 7.7577
51.0413 7.71368
51.0908 7.66741
51.1402 7.67734
51.1897 7.64985
51.2391 7.60836
51.2887 7.53863
51.3381 7.51428
51.3877 7.51383
51.4371 7.50471
51.4867 7.44962
51.5362 7.44293
51.5858 7.38565
51.6353 7.34439
51.6849 7.32403
51.7344 7.33605
51.7841 7.28206
51.8336 7.22029
51.8833 7.19668
51.9328 7.1888
51.9826 7.11958
52.0323 7.10278
52.0818 7.07587
52.1316 7.05435
52.1812 7.04142
52.231 6.99422
52.2806 6.95008
52.3304 6.96102
52.38 6.92466
52.4298 6.88644
52.4794 6.85225
52.5293 6.83777
52.5789 6.81814
52.6288 6.76293
52.6785 6.7434
52.7284 6.73107
52.7781 6.71059
52.828 6.70027
52.8777 6.60903
52.9276 6.61561
52.9774 6.5814
53.0273 6.58047
53.0771 6.51052
53.1271 6.52271
53.1769 6.47389
53.2269 6.44936
53.2767 6.39777
53.3267 6.3849
53.3765 6.36353
53.4266 6.3256
53.4766 6.29348
53.5265 6.28342
53.5765 6.29681
53.6264 6.24159
53.6765 6.22939
53.7264 6.15367
53.7765 6.14635
53.8265 6.10814
53.8766 6.09907
53.9266 6.02394
53.9767 6.04651
54.0267 5.99191
54.0769 6.01193
54.1269 5.94337
54.1771 5.92032
54.2271 5.91843
54.2773 5.84309
54.3274 5.8854
54.3776 5.85685
54.4277 5.76713
54.478 5.77865
54.528 5.71937
54.5783 5.66962
54.6285 5.62409
54.6788 5.59355
54.7289 5.52311
54.7792 5.51695
54.8296 5.45502
54.8798 5.36908
54.9301 5.38902
54.9803 5.3532
55.0307 5.31523
55.0809 5.2306
55.1314 5.24542
55.1816 5.20783
55.232 5.16332
55.2823 5.10637
55.3328 5.06948
55.383 5.01884
55.4335 4.95781
55.4838 4.93075
55.5344 4.88157
55.5847 4.85629
55.6352 4.77933
55.6856 4.7672
55.7361 4.71996