File: XRD/Ni3Fe_FD0759.xy
TT I
1.27165 7.40534
1.31627 6.62271
1.36089 6.49828
1.40551 6.46295
1.45013 6.26157
1.49476 6.11846
1.53938 5.51644
1.584 5.46784
1.62863 5.01313
1.67325 4.86461
1.71787 5.61025
1.7625 5.20415
1.80712 4.91621
1.85174 4.75953
1.89636 4.79778
1.94099 4.87315
1.98562 4.73348
2.03025 4.18836
2.07487 4.73448
2.11949 5.14307
2.16411 4.7895
2.20874 15.8393
2.25338 26.6637
2.298 6.66518
2.34263 5.49583
2.38725 6.36228
2.43188 5.63089
2.4765 7.22201
2.52115 7.50933
2.56577 8.58651
2.6104 8.21819
2.65503 7.54325
2.69965 8.72314
2.7443 8.2855
2.78893 8.32816
2.83356 8.24741
2.87818 8.36518
2.92281 8.94442
2.96744 9.47744
3.01209 10.1136
3.05672 11.1277
3.10135 12.5191
3.14599 13.0769
3.19062 14.0534
3.23527 14.8445
3.2799 15.4579
3.32454 16.5927
3.36917 17.6058
3.4138 18.8308
3.45844 19.4128
3.50309 21.1746
3.54773 22.0668
3.59237 24.4064
3.637 106.013
3.68164 67.5597
3.7263 26.6768
3.77094 26.1587
3.81558 26.7117
3.86022 27.5349
3.90486 29.1579
3.9495 29.7674
3.99416 31.025
4.0388 32.3208
4.08344 34.03
4.12809 34.6136
4.17273 37.0398
4.21738 43.5337
4.26204 284.297
4.30669 260.389
4.35133 49.9197
4.39598 44.2835
4.44063 55.6817
4.4853 69.6267
4.52995 50.1262
4.5746 50.8355
4.61925 53.1658
4.6639 54.9836
4.70855 57.9259
4.75322 60.5175
4.79788 62.904
4.84253 66.3869
4.88719 70.566
4.93184 74.0688
4.97652 79.3051
5.02118 85.217
5.06583 92.7048
5.11049 102.961
5.15515 175.838
5.19981 300.947
5.24449 2439.36
5.28916 12935.3
5.33382 3031.82
5.37848 187.852
5.42315 127.67
5.46783 111.814
5.5125 105.215
5.55716 100.786
5.60183 97.7382
5.6465 95.9621
5.69117 93.171
5.73586 90.8878
5.78053 90.1793
5.8252 89.5946
5.86988 89.9549
5.91455 91.5514
5.95924 98.0216
6.00392 177.763
6.0486 833.113
6.09328 4317.89
6.13795 3229.25
6.18263 245.256
6.22733 92.2223
6.27201 82.5979
6.3167 106.808
6.36138 82.4541
6.40606 68.6914
6.45075 67.0141
6.49545 65.2102
6.54014 63.0675
6.58483 62.8732
6.62952 62.7324
6.67421 98.7873
6.71892 161.992
6.76361 71.5405
6.8083 58.6688
6.853 57.55
6.89769 56.4898
6.94239 56.6918
6.98711 55.5252
7.03181 55.4974
7.07651 55.0234
7.12121 55.4264
7.16591 55.1247
7.21063 55.8541
7.25533 72.7282
7.30004 205.786
7.34475 100.427
7.38945 56.8608
7.43416 54.4815
7.47889 54.3523
7.5236 54.5022
7.56831 55.1909
7.61303 57.0815
7.65774 57.5857
7.70247 55.9947
7.74719 55.77
7.79191 56.212
7.83663 56.4741
7.88135 57.5026
7.92607 58.0712
7.97081 59.5843
8.01553 59.9856
8.06026 61.814
8.10498 63.4088
8.14971 73.9912
8.19446 73.1237
8.23919 69.0282
8.28392 71.0311
8.32865 73.2388
8.37339 77.1347
8.41812 84.3241
8.46288 115.981
8.50761 149.446
8.55235 344.348
8.59709 1093.05
8.64183 2165.88
8.68658 1041.88
8.73134 169.005
8.77609 98.7514
8.82083 91.7378
8.86558 88.6764
8.91033 89.4203
8.9551 92.1164
8.99985 84.9149
9.04461 82.6989
9.08936 82.0421
9.13412 81.0296
9.17888 81.2646
9.22365 82.5064
9.26841 81.3974
9.31318 81.9025
9.35794 81.9321
9.4027 82.0535
9.44749 83.2257
9.49226 83.6434
9.53703 84.1849
9.5818 86.3593
9.62657 91.6221
9.67134 99.3611
9.71614 92.6267
9.76091 92.5765
9.80569 95.0895
9.85047 98.6428
9.89525 125.653
9.94005 138.869
9.98484 158.499
10.0296 302.264
10.0744 749.745
10.1192 1751.7
10.164 1627.87
10.2088 407.38
10.2536 127.173
10.2984 113.302
10.3432 116.213
10.388 103.664
10.4328 112.583
10.4776 149.697
10.5224 268.238
10.5672 510.853
10.612 514.693
10.6568 211.012
10.7017 96.7665
10.7465 86.0073
10.7913 82.3242
10.8361 80.5672
10.8809 78.2609
10.9257 78.2125
10.9706 79.2799
11.0154 74.3756
11.0602 72.1287
11.105 71.3991
11.1499 76.8529
11.1947 86.4346
11.2395 75.2525
11.2844 70.3933
11.3292 66.9314
11.374 65.6257
11.4189 65.2634
11.4637 64.7505
11.5086 65.043
11.5534 69.0538
11.5983 65.8509
11.6431 63.1406
11.688 62.5125
11.7328 62.4739
11.7777 62.5337
11.8225 61.9296
11.8674 61.8307
11.9122 62.2622
11.9571 62.3525
12.002 62.7325
12.0468 65.826
12.0917 75.8854
12.1366 98.3854
12.1814 146.956
12.2263 209.938
12.2712 173.103
12.3161 100.91
12.3609 71.2063
12.4058 64.3522
12.4507 63.6181
12.4956 63.6816
12.5405 64.177
12.5853 65.1808
12.6302 73.9672
12.6751 81.1808
12.72 70.0035
12.7649 67.273
12.8098 67.6115
12.8547 69.0898
12.8996 70.1227
12.9445 71.3373
12.9894 73.1353
13.0343 74.7209
13.0792 77.322
13.1242 84.749
13.1691 105.743
13.214 139.447
13.2589 225.543
13.3038 366.712
13.3487 431.702
13.3937 272.403
13.4386 126.794
13.4835 102.024
13.5285 114.174
13.5734 149.019
13.6183 237.334
13.6633 346.406
13.7082 345.585
13.7531 190.635
13.7981 98.4932
13.843 81.1508
13.888 78.8522
13.9329 76.3399
13.9779 74.9302
14.0228 73.6341
14.0678 72.6548
14.1127 72.1145
14.1577 72.1264
14.2027 70.9825
14.2476 69.5025
14.2926 70.05
14.3376 71.5388
14.3825 69.9727
14.4275 68.0639
14.4725 67.8396
14.5175 68.0499
14.5624 68.3693
14.6074 70.8661
14.6524 71.6754
14.6974 69.6291
14.7424 70.6812
14.7874 75.9369
14.8324 85.0011
14.8774 105.213
14.9224 146.937
14.9674 204.16
15.0124 222.459
15.0574 151.837
15.1024 92.0113
15.1474 71.8198
15.1924 69.847
15.2374 70.7417
15.2824 70.2299
15.3274 67.9511
15.3725 66.3325
15.4175 66.0112
15.4625 65.2868
15.5076 65.7895
15.5526 65.7985
15.5976 65.1475
15.6426 65.315
15.6877 69.9294
15.7327 76.6795
15.7778 90.8873
15.8228 121.36
15.8679 165.792
15.9129 193.508
15.958 157.844
16.003 98.3403
16.0481 68.3855
16.0931 64.7991
16.1382 62.821
16.1833 60.3458
16.2283 58.5096
16.2734 57.7525
16.3185 58.2778
16.3636 59.4269
16.4086 57.7867
16.4537 55.9262
16.4988 54.9587
16.5439 55.0226
16.589 54.7349
16.6341 54.3052
16.6792 54.1075
16.7243 54.3483
16.7694 54.7024
16.8145 54.3581
16.8596 55.0344
16.9047 56.766
16.9498 56.9059
16.9949 55.4693
17.04 55.2183
17.0851 56.2229
17.1302 57.6627
17.1754 60.6365
17.2205 65.4224
17.2656 73.3441
17.3108 82.7516
17.3559 82.7902
17.401 70.8573
17.4462 61.6907
17.4913 58.598
17.5365 58.5808
17.5815 58.568
17.6268 58.8906
17.6718 59.9181
17.7171 60.3286
17.7622 60.6165
17.8074 61.1677
17.8525 62.8731
17.8977 66.7327
17.9428 71.7229
17.9881 79.8859
18.0331 96.4326
18.0784 119.116
18.1237 138.226
18.1688 130.825
18.214 103.336
18.2591 85.5157
18.3044 88.6699
18.3495 98.8661
18.3948 105.966
18.4399 96.6285
18.4852 77.9934
18.5303 65.5601
18.5756 61.9569
18.6207 60.7883
18.666 59.8181
18.7112 59.2424
18.7565 58.4055
18.8016 58.1796
18.8469 57.4347
18.892 57.164
18.9374 56.7252
18.9825 56.4277
19.0278 56.4499
19.073 56.3939
19.1183 57.0138
19.1635 57.6062
19.2088 58.794
19.254 61.089
19.2993 65.3877
19.3447 72.02
19.3898 76.6847
19.4352 72.3496
19.4804 63.0256
19.5257 56.226
19.5709 53.7407
19.6163 53.3732
19.6615 53.1686
19.7068 52.895
19.752 52.7993
19.7974 52.9845
19.8426 53.768
19.888 54.392
19.9332 55.5912
19.9786 57.7196
20.0238 61.4001
20.0692 66.3266
20.1144 69.35
20.1598 67.8015
20.205 62.7578
20.2504 61.1043
20.2957 63.3669
20.3411 65.5498
20.3863 64.1561
20.4318 58.2548
20.477 53.2613
20.5224 51.3693
20.5677 50.5816
20.6131 49.8895
20.6586 49.2838
20.7038 49.2356
20.7493 48.5205
20.7945 48.554
20.84 48.4377
20.8853 48.3784
20.9307 48.2681
20.976 48.2104
21.0215 47.9865
21.0668 48.6126
21.1122 48.8469
21.1575 49.5508
21.203 50.2444
21.2483 50.9821
21.2938 51.1529
21.3391 49.6327
21.3846 48.668
21.4299 48.1329
21.4754 47.9154
21.5207 48.1313
21.5662 48.1922
21.6116 48.4641
21.6571 49.1302
21.7024 50.1542
21.7479 51.6932
21.7933 54.326
21.8388 58.119
21.8843 61.832
21.9297 63.9139
21.9752 62.9854
22.0206 59.2773
22.0661 56.1398
22.1115 55.486
22.157 55.4621
22.2024 53.9699
22.248 51.0354
22.2933 49.5721
22.3389 48.5385
22.3843 48.6525
22.4299 48.3402
22.4753 48.5526
22.5208 48.2041
22.5662 48.0564
22.6118 48.2234
22.6572 48.4073
22.7028 48.645
22.7483 48.9791
22.7939 49.9528
22.8393 51.0706
22.8849 53.338
22.9303 55.2083
22.9759 57.3659
23.0214 57.158
23.067 54.3885
23.1126 50.9704
23.1581 48.838
23.2037 48.2588
23.2492 48.3877
23.2948 48.358
23.3403 48.5381
23.3859 49.1333
23.4314 50.047
23.477 51.8894
23.5225 54.1427
23.5682 56.4099
23.6137 57.5607
23.6593 55.3335
23.7048 51.4783
23.7505 48.1103
23.796 46.222
23.8417 45.6432
23.8872 45.2503
23.9329 45.0675
23.9784 44.4981
24.0241 44.2468
24.0697 44.113
24.1154 43.7165
24.1609 43.7691
24.2066 43.4511
24.2522 43.2663
24.2979 43.0864
24.3434 42.8683
24.3892 42.8567
24.4349 42.7235
24.4805 42.4822
24.5262 42.7074
24.5718 42.5621
24.6175 42.665
24.6631 42.4812
24.7089 42.0935
24.7545 42.0451
24.8002 41.9687
24.8458 42.0178
24.8916 41.5681
24.9372 41.863
24.983 42.0474
25.0286 42.2898
25.0744 42.8807
25.12 43.3841
25.1658 43.8323
25.2114 44.3465
25.2572 44.4959
25.3029 44.5123
25.3487 44.5999
25.3943 44.3571
25.4402 43.3342
25.4858 42.2611
25.5316 41.201
25.5773 40.5334
25.6231 40.6044
25.669 40.3032
25.7147 40.1207
25.7605 40.0493
25.8062 40.2652
25.8521 40.2705
25.8977 40.2782
25.9436 40.5261
25.9893 40.464
26.0352 41.0749
26.0809 41.123
26.1268 41.6149
26.1725 40.9746
26.2184 40.5582
26.2641 40.0439
26.31 39.738
26.3557 39.6889
26.4017 39.781
26.4474 39.9312
26.4933 40.2976
26.5391 40.8578
26.585 41.2548
26.6308 41.6174
26.6767 41.8697
26.7225 41.6785
26.7684 41.0459
26.8142 40.4056
26.8601 40.0605
26.9059 39.7756
26.9519 39.2135
26.9979 38.7661
27.0437 38.5791
27.0896 38.4538
27.1354 38.387
27.1814 38.176
27.2272 38.1238
27.2732 38.206
27.3191 38.1695
27.3651 38.2736
27.4109 38.1281
27.4569 38.1176
27.5027 38.1906
27.5488 38.3441
27.5946 38.1016
27.6407 37.8228
27.6865 37.7356
27.7326 37.4299
27.7784 37.457
27.8245 37.3272
27.8703 37.6633
27.9164 37.9747
27.9623 38.1225
28.0084 38.4079
28.0543 38.7449
28.1003 38.7161
28.1462 38.4487
28.1923 38.2906
28.2384 37.5543
28.2843 37.454
28.3304 37.0173
28.3764 36.4562
28.4225 36.1612
28.4684 35.9794
28.5145 35.6559
28.5605 35.6503
28.6066 35.4212
28.6526 35.3692
28.6987 35.3288
28.7447 35.2291
28.7908 35.1552
28.8368 35.1131
28.8829 35.1251
28.9289 35.0766
28.9751 34.9997
29.0211 34.5752
29.0673 34.3895
29.1133 34.3092
29.1595 33.9943
29.2055 34.1311
29.2517 34.1565
29.2977 33.977
29.3439 33.9924
29.3899 33.9091
29.4361 33.9975
29.4824 33.6843
29.5284 33.4691
29.5746 33.0803
29.6207 32.8908
29.6669 32.7375
29.713 32.7833
29.7593 32.5809
29.8053 32.5914
29.8516 32.4485
29.8977 32.4482
29.9439 32.3793
29.99 32.4457
30.0363 32.2541
30.0824 32.2278
30.1287 32.1944
30.1748 32.1852
30.2211 32.1967
30.2673 32.0626
30.3136 32.1302
30.3597 31.9567
30.406 31.8961
30.4522 31.8359
30.4985 31.7755
30.5447 31.9434
30.591 31.8726
30.6372 31.992
30.6835 31.9462
30.7297 31.9746
30.7761 31.9743
30.8224 31.7952
30.8686 31.6537
30.915 31.3522
30.9612 31.2485
31.0076 31.0984
31.0538 30.8466
31.1002 30.8534
31.1464 30.7132
31.1928 30.6754
31.2391 30.7727
31.2855 30.56
31.3317 30.5914
31.3781 30.6763
31.4244 30.6128
31.4708 30.5336
31.5171 30.6231
31.5636 30.5019
31.6098 30.2654
31.6563 30.068
31.7026 30.1289
31.7491 29.9556
31.7953 30.0342
31.8418 29.9109
31.8881 29.9409
31.9346 29.8343
31.9809 29.7098
32.0275 29.6956
32.074 29.6545
32.1203 29.3635
32.1668 29.3094
32.2132 29.1711
32.2597 29.0888
32.306 28.9372
32.3526 28.7472
32.399 28.705
32.4455 28.5022
32.4919 28.4928
32.5385 28.5052
32.5848 28.2586
32.6314 28.2781
32.6778 28.2673
32.7244 28.0685
32.7708 27.931
32.8174 27.93
32.8638 27.8029
32.9104 27.7911
32.9569 27.7951
33.0035 27.7242
33.0499 27.6488
33.0966 27.5918
33.143 27.6181
33.1897 27.4774
33.2361 27.4168
33.2828 27.4541
33.3293 27.2223
33.3759 27.112
33.4226 27.032
33.4691 26.8441
33.5158 26.7994
33.5623 26.7269
33.609 26.6046
33.6555 26.4112
33.7022 26.4506
33.7487 26.3675
33.7954 26.3987
33.842 26.1995
33.8887 26.1488
33.9353 26.0378
33.982 25.9329
34.0286 25.8491
34.0753 25.8501
34.1219 25.7098
34.1687 25.6273
34.2152 25.5473
34.262 25.49
34.3086 25.4059
34.3554 25.3618
34.402 25.2495
34.4488 25.1171
34.4954 25.0468
34.5422 25.0216
34.5889 24.8488
34.6357 24.8427
34.6825 24.659
34.7292 24.6021
34.776 24.5601
34.8227 24.5013
34.8695 24.4692
34.9162 24.3919
34.9631 24.23
35.0098 24.3139
35.0566 24.1734
35.1033 24.093
35.1502 24.0409
35.1969 24.0207
35.2438 24.0296
35.2906 23.9
35.3375 23.8595
35.3842 23.899
35.4311 23.8253
35.4779 23.7464
35.5248 23.7544
35.5716 23.6553
35.6185 23.4983
35.6653 23.4253
35.7123 23.349
35.759 23.2326
35.806 23.2304
35.8528 23.0528
35.8998 23.0171
35.9468 22.9997
35.9936 22.9419
36.0406 22.7678
36.0874 22.8984
36.1345 22.6821
36.1813 22.6574
36.2283 22.4621
36.2752 22.5074
36.3222 22.5131
36.3691 22.3759
36.4161 22.301
36.463 22.2517
36.5101 22.2682
36.557 22.2285
36.6041 22.0518
36.651 22.009
36.6981 21.9887
36.745 21.8512
36.7921 21.8262
36.839 21.6771
36.8861 21.6065
36.9331 21.5984
36.9802 21.5879
37.0272 21.367
37.0743 21.3099
37.1213 21.3095
37.1684 21.2688
37.2154 21.1432
37.2626 21.08
37.3098 21.0938
37.3568 21.0004
37.404 20.9832
37.451 20.8106
37.4982 20.7846
37.5452 20.6674
37.5924 20.6094
37.6395 20.7317
37.6867 20.6245
37.7337 20.4989
37.781 20.3795
37.8281 20.3427
37.8753 20.2726
37.9224 20.1743
37.9697 20.1424
38.0168 20.0759
38.064 20.0523
38.1111 19.9468
38.1584 19.9236
38.2056 19.8264
38.2529 19.7812
38.3 19.725
38.3473 19.6916
38.3945 19.5169
38.4418 19.5698
38.489 19.4679
38.5363 19.3227
38.5837 19.2469
38.6309 19.2907
38.6782 19.2393
38.7254 19.1407
38.7728 19.1157
38.82 19.0037
38.8674 18.9881
38.9146 18.8597
38.9621 18.8408
39.0093 18.813
39.0567 18.7429
39.104 18.7111
39.1514 18.6045
39.1987 18.5671
39.2461 18.4941
39.2934 18.4695
39.3409 18.3749
39.3882 18.3041
39.4356 18.2764
39.483 18.1646
39.5304 18.1294
39.5778 18.0902
39.6253 17.9868
39.6726 17.9999
39.7201 17.9642
39.7675 17.8364
39.815 17.8705
39.8624 17.7248
39.9099 17.7568
39.9575 17.6176
40.0049 17.5786
40.0525 17.4968
40.0999 17.4496
40.1474 17.3989
40.1949 17.3675
40.2425 17.2942
40.2899 17.28
40.3375 17.152
40.385 17.0441
40.4326 17.0542
40.48 16.9736
40.5277 16.9992
40.5752 16.8369
40.6228 16.849
40.6703 16.8569
40.718 16.769
40.7655 16.7213
40.8132 16.6458
40.8607 16.6062
40.9084 16.575
40.9559 16.4969
41.0036 16.4626
41.0512 16.4107
41.0989 16.3418
41.1465 16.2879
41.1942 16.2254
41.242 16.131
41.2896 16.1177
41.3373 16.0055
41.3849 16.015
41.4327 15.9886
41.4803 15.9291
41.5281 15.8751
41.5758 15.7904
41.6236 15.6925
41.6712 15.7258
41.7191 15.6587
41.7667 15.5789
41.8146 15.588
41.8622 15.5076
41.9101 15.5023
41.9578 15.3485
42.0057 15.3959
42.0534 15.2944
42.1013 15.2663
42.149 15.1555
42.1969 15.1266
42.2446 15.0969
42.2925 15.0767
42.3403 14.9688
42.3882 14.9786
42.436 14.8831
42.4839 14.7942
42.5319 14.8236
42.5797 14.7162
42.6277 14.6736
42.6755 14.6156
42.7235 14.5695
42.7713 14.5933
42.8193 14.4777
42.8671 14.4002
42.9152 14.4221
42.963 14.3702
43.0111 14.2375
43.0589 14.2068
43.107 14.1745
43.1549 14.1472
43.2029 14.085
43.2508 14.0261
43.2989 14.0328
43.3468 13.9447
43.3949 13.8891
43.4429 13.8742
43.491 13.7991
43.5389 13.7921
43.5871 13.7187
43.635 13.6652
43.6832 13.6529
43.7312 13.5647
43.7793 13.5186
43.8273 13.4912
43.8755 13.4584
43.9237 13.3568
43.9717 13.363
44.0199 13.2751
44.068 13.2801
44.1162 13.1929
44.1642 13.1549
44.2125 13.1281
44.2606 13.0545
44.3088 13.0165
44.3569 12.976
44.4052 12.9369
44.4533 12.8497
44.5016 12.8144
44.5497 12.7823
44.598 12.7485
44.6461 12.7154
44.6945 12.6416
44.7426 12.6003
44.791 12.5616
44.8391 12.5139
44.8875 12.5141
44.9357 12.45
44.984 12.3873
45.0322 12.3455
45.0806 12.2913
45.1288 12.3289
45.1773 12.2234
45.2257 12.1391
45.2739 12.1956
45.3224 12.0788
45.3706 12.0522
45.4191 12.0052
45.4673 11.9466
45.5158 11.9493
45.5641 11.8537
45.6126 11.8392
45.6609 11.7496
45.7094 11.7755
45.7577 11.7254
45.8063 11.6141
45.8546 11.6416
45.9031 11.5784
45.9515 11.5596
46.0001 11.5306
46.0484 11.4047
46.097 11.4253
46.1454 11.4069
46.194 11.3517
46.2424 11.3014
46.291 11.255
46.3395 11.2102
46.3881 11.1475
46.4365 11.1253
46.4852 11.1142
46.5337 11.0744
46.5823 11.0259
46.631 10.9532
46.6795 10.9524
46.7282 10.9427
46.7767 10.8312
46.8254 10.7749
46.8739 10.7885
46.9226 10.7603
46.9712 10.687
47.0199 10.6566
47.0685 10.6048
47.1173 10.5483
47.1658 10.5277
47.2146 10.505
47.2632 10.4227
47.312 10.405
47.3606 10.3366
47.4095 10.3189
47.4581 10.2909
47.5069 10.273
47.5556 10.2243
47.6044 10.1947
47.6531 10.1404
47.702 10.1176
47.7507 10.0417
47.7996 10.0312
47.8483 10.0035
47.8972 10.006
47.9461 9.96317
47.9948 9.83537
48.0438 9.89512
48.0925 9.81369
48.1415 9.79513
48.1902 9.75071
48.2392 9.69798
48.288 9.70299
48.337 9.65779
48.3858 9.58408
48.4348 9.57603
48.4837 9.55449
48.5327 9.51325
48.5815 9.47869
48.6306 9.41981
48.6795 9.39316
48.7285 9.3544
48.7774 9.35321
48.8265 9.30738
48.8754 9.29484
48.9245 9.24539
48.9734 9.18272
49.0226 9.17243
49.0715 9.09174
49.1206 9.10662
49.1696 9.03875
49.2188 9.03463
49.2679 9.00448
49.3169 8.90976
49.3661 8.87322
49.4151 8.85738
49.4643 8.85002
49.5134 8.82134
49.5626 8.79429
49.6117 8.74266
49.6609 8.71507
49.71 8.66596
49.7592 8.64228
49.8083 8.62081
49.8576 8.56429
49.9067 8.54688
49.956 8.53579
50.0052 8.46766
50.0545 8.4302
50.1036 8.4186
50.153 8.38318
50.2022 8.3423
50.2515 8.3221
50.3007 8.25772
50.3501 8.22183
50.3993 8.22021
50.4487 8.182
50.498 8.17605
50.5474 8.14307
50.5966 8.0806
50.6461 8.04064
50.6955 8.04151
50.7448 8.00946
50.7943 7.9565
50.8436 7.94928
50.8931 7.90996
50.9424 7.89524
50.9919 7.8367
51.0413 7.85218
51.0908 7.80095
51.1402 7.77839
51.1897 7.75946
51.2391 7.698
51.2887 7.65129
51.3381 7.60603
51.3877 7.59619
51.4371 7.57017
51.4867 7.54251
51.5362 7.52715
51.5858 7.46033
51.6353 7.43087
51.6849 7.41561
51.7344 7.33876
51.7841 7.35242
51.8336 7.33739
51.8833 7.30184
51.9328 7.27689
51.9826 7.21598
52.0323 7.20828
52.0818 7.1922
52.1316 7.14391
52.1812 7.11423
52.231 7.10117
52.2806 7.04537
52.3304 7.03602
52.38 7.01468
52.4298 6.98287
52.4794 6.95219
52.5293 6.91157
52.5789 6.89107
52.6288 6.86519
52.6785 6.8278
52.7284 6.80457
52.7781 6.76553
52.828 6.76556
52.8777 6.6826
52.9276 6.70559
52.9774 6.65778
53.0273 6.64013
53.0771 6.59283
53.1271 6.56899
53.1769 6.55402
53.2269 6.48358
53.2767 6.50282
53.3267 6.43206
53.3765 6.4388
53.4266 6.40895
53.4766 6.38973
53.5265 6.34416
53.5765 6.35671
53.6264 6.32854
53.6765 6.2755
53.7264 6.29178
53.7765 6.24694
53.8265 6.201
53.8766 6.13699
53.9266 6.14685
53.9767 6.11575
54.0267 6.07739
54.0769 6.07456
54.1269 6.05609
54.1771 5.99069
54.2271 5.98689
54.2773 5.91131
54.3274 5.93939
54.3776 5.86993
54.4277 5.83662
54.478 5.77676
54.528 5.76223
54.5783 5.74106
54.6285 5.69852
54.6788 5.65979
54.7289 5.64217
54.7792 5.5502
54.8296 5.53876
54.8798 5.47565
54.9301 5.41804
54.9803 5.39323
55.0307 5.334
55.0809 5.31244
55.1314 5.36173
55.1816 5.25578
55.232 5.2006
55.2823 5.24161
55.3328 5.12936
55.383 5.05036
55.4335 5.05756
55.4838 4.95504
55.5344 4.96468
55.5847 4.88321
55.6352 4.89905
55.6856 4.83634
55.7361 4.77404