File: XRD/Ni3Fe_FD1019.xy
TT I
1.27165 6.57696
1.31627 6.58778
1.36089 6.14095
1.40551 6.33001
1.45013 5.53632
1.49476 5.04594
1.53938 5.18586
1.584 4.75523
1.62863 5.22142
1.67325 4.75751
1.71787 4.46312
1.7625 4.2634
1.80712 4.15656
1.85174 3.88101
1.89636 4.0285
1.94099 4.34615
1.98562 4.40276
2.03025 4.17265
2.07487 4.06978
2.11949 4.43476
2.16411 3.95024
2.20874 5.37168
2.25338 6.14268
2.298 5.38046
2.34263 5.08767
2.38725 5.41305
2.43188 6.26533
2.4765 6.72365
2.52115 6.82246
2.56577 7.92245
2.6104 8.38634
2.65503 7.79245
2.69965 8.56089
2.7443 8.53365
2.78893 8.46546
2.83356 8.94613
2.87818 8.76176
2.92281 9.11498
2.96744 9.54719
3.01209 10.123
3.05672 10.7561
3.10135 11.9184
3.14599 13.1126
3.19062 13.9155
3.23527 14.7874
3.2799 15.2532
3.32454 16.2952
3.36917 17.0962
3.4138 18.1526
3.45844 18.8883
3.50309 19.9483
3.54773 20.5439
3.59237 21.3595
3.637 28.1489
3.68164 26.984
3.7263 23.7507
3.77094 24.8631
3.81558 25.411
3.86022 26.0559
3.90486 27.6113
3.9495 28.0482
3.99416 28.9632
4.0388 30.1151
4.08344 30.7648
4.12809 32.2092
4.17273 33.5096
4.21738 35.5272
4.26204 53.1035
4.30669 58.101
4.35133 40.5637
4.39598 40.1716
4.44063 43.041
4.4853 46.3006
4.52995 46.4013
4.5746 47.844
4.61925 50.0226
4.6639 51.9969
4.70855 54.4996
4.75322 57.2944
4.79788 60.1347
4.84253 62.9022
4.88719 66.5602
4.93184 70.5474
4.97652 75.6052
5.02118 82.0808
5.06583 88.5429
5.11049 96.1926
5.15515 116.162
5.19981 224.13
5.24449 2305.52
5.28916 13375.1
5.33382 3447.76
5.37848 236.046
5.42315 125.482
5.46783 108.188
5.5125 101.025
5.55716 96.6833
5.60183 91.6341
5.6465 89.975
5.69117 88.8393
5.73586 86.5663
5.78053 86.4075
5.8252 85.6482
5.86988 86.1523
5.91455 87.6879
5.95924 93.5873
6.00392 156.556
6.0486 807.8
6.09328 4315.49
6.13795 3513.61
6.18263 247.881
6.22733 87.1239
6.27201 75.4465
6.3167 72.304
6.36138 68.074
6.40606 64.1318
6.45075 62.7367
6.49545 60.8609
6.54014 59.6606
6.58483 58.2673
6.62952 57.2097
6.67421 58.0317
6.71892 64.3125
6.76361 56.3097
6.8083 53.781
6.853 53.0934
6.89769 52.6244
6.94239 53.0416
6.98711 51.9975
7.03181 51.7159
7.07651 51.6317
7.12121 51.482
7.16591 51.2465
7.21063 50.5432
7.25533 51.0711
7.30004 62.5417
7.34475 56.1207
7.38945 51.5722
7.43416 50.7138
7.47889 51.5976
7.5236 62.1357
7.56831 83.629
7.61303 59.1686
7.65774 52.6824
7.70247 52.8437
7.74719 52.7553
7.79191 53.124
7.83663 53.3178
7.88135 54.2203
7.92607 54.8778
7.97081 56.1907
8.01553 56.946
8.06026 58.237
8.10498 59.2943
8.14971 61.3225
8.19446 63.2151
8.23919 64.9799
8.28392 67.1864
8.32865 69.6756
8.37339 73.4203
8.41812 76.4541
8.46288 85.2972
8.50761 123.503
8.55235 337.827
8.59709 1045.79
8.64183 2273.27
8.68658 1112.3
8.73134 183.811
8.77609 94.763
8.82083 87.3853
8.86558 84.6638
8.91033 83.0278
8.9551 81.4977
8.99985 80.3731
9.04461 79.7676
9.08936 78.961
9.13412 78.4728
9.17888 79.3248
9.22365 96.8569
9.26841 129.889
9.31318 94.5519
9.35794 80.2294
9.4027 79.1493
9.44749 80.0146
9.49226 79.9774
9.53703 80.9291
9.5818 82.3557
9.62657 83.3679
9.67134 85.664
9.71614 86.3474
9.76091 88.2529
9.80569 90.699
9.85047 92.5493
9.89525 97.726
9.94005 104.527
9.98484 141.601
10.0296 318.754
10.0744 723.605
10.1192 1727.32
10.164 1706.72
10.2088 456.526
10.2536 127.139
10.2984 102.388
10.3432 99.7778
10.388 96.263
10.4328 105.227
10.4776 151.498
10.5224 255.816
10.5672 490.125
10.612 526.397
10.6568 223.809
10.7017 108.405
10.7465 87.3496
10.7913 79.2671
10.8361 76.7819
10.8809 74.4015
10.9257 72.6918
10.9706 71.6392
11.0154 69.7923
11.0602 68.5041
11.105 67.2987
11.1499 66.8376
11.1947 66.5301
11.2395 64.9363
11.2844 64.137
11.3292 63.0815
11.374 62.4307
11.4189 61.6416
11.4637 61.1473
11.5086 60.4705
11.5534 60.5212
11.5983 60.0561
11.6431 59.947
11.688 59.4843
11.7328 59.4213
11.7777 59.1386
11.8225 58.7951
11.8674 59.4043
11.9122 62.3578
11.9571 71.5986
12.002 69.1792
12.0468 63.8706
12.0917 74.045
12.1366 94.3503
12.1814 143.102
12.2263 200.09
12.2712 170.667
12.3161 94.4903
12.3609 63.9072
12.4058 60.5804
12.4507 60.5336
12.4956 60.5374
12.5405 60.6928
12.5853 61.4908
12.6302 61.739
12.6751 62.9795
12.72 63.2485
12.7649 63.4739
12.8098 64.3159
12.8547 65.6267
12.8996 66.9003
12.9445 68.1424
12.9894 70.0031
13.0343 71.5276
13.0792 75.9579
13.1242 81.8358
13.1691 103.656
13.214 139.093
13.2589 217.888
13.3038 358.203
13.3487 441.301
13.3937 280.852
13.4386 127.67
13.4835 97.0745
13.5285 114.936
13.5734 148.861
13.6183 228.424
13.6633 352.432
13.7082 363.003
13.7531 206.724
13.7981 99.787
13.843 78.7679
13.888 76.1908
13.9329 73.7793
13.9779 72.938
14.0228 71.269
14.0678 70.2233
14.1127 71.9588
14.1577 77.5449
14.2027 75.2045
14.2476 68.9499
14.2926 66.8957
14.3376 66.5043
14.3825 66.1908
14.4275 65.5995
14.4725 65.3594
14.5175 65.4926
14.5624 65.458
14.6074 65.8159
14.6524 66.1962
14.6974 66.592
14.7424 67.6438
14.7874 72.9233
14.8324 85.2521
14.8774 104.941
14.9224 143.503
14.9674 204.907
15.0124 225.615
15.0574 159.204
15.1024 94.5648
15.1474 71.0106
15.1924 67.3035
15.2374 65.8384
15.2824 64.9349
15.3274 64.2343
15.3725 63.4767
15.4175 63.3364
15.4625 62.9604
15.5076 62.7176
15.5526 62.3595
15.5976 62.5116
15.6426 62.9892
15.6877 67.292
15.7327 76.4718
15.7778 90.1136
15.8228 118.15
15.8679 166.466
15.9129 202.108
15.958 168.473
16.003 103.413
16.0481 69.8328
16.0931 63.2051
16.1382 59.7178
16.1833 57.7432
16.2283 56.1887
16.2734 55.8351
16.3185 54.8678
16.3636 54.4661
16.4086 53.7758
16.4537 53.3524
16.4988 52.7121
16.5439 52.7717
16.589 52.4961
16.6341 52.1551
16.6792 51.9854
16.7243 52.2399
16.7694 52.0472
16.8145 51.8298
16.8596 52.3274
16.9047 53.1061
16.9498 54.0904
16.9949 53.6647
17.04 53.1811
17.0851 54.0522
17.1302 55.9615
17.1754 58.9127
17.2205 63.3309
17.2656 71.0889
17.3108 81.4165
17.3559 82.0146
17.401 71.2745
17.4462 60.6174
17.4913 56.9288
17.5365 56.3866
17.5815 56.501
17.6268 56.7527
17.6718 57.4271
17.7171 58.2903
17.7622 59.4467
17.8074 60.1682
17.8525 61.0122
17.8977 65.1546
17.9428 71.2145
17.9881 78.9576
18.0331 94.6519
18.0784 118.502
18.1237 140.416
18.1688 136.993
18.214 108.712
18.2591 86.9589
18.3044 87.2794
18.3495 98.0204
18.3948 105.93
18.4399 98.0972
18.4852 78.6927
18.5303 65.3397
18.5756 60.8531
18.6207 59.7451
18.666 58.3339
18.7112 57.3125
18.7565 56.6498
18.8016 56.23
18.8469 55.6668
18.892 55.4608
18.9374 54.9892
18.9825 54.5601
19.0278 54.4312
19.073 54.3228
19.1183 54.4503
19.1635 55.5128
19.2088 56.9665
19.254 59.6253
19.2993 64.8398
19.3447 71.777
19.3898 75.4913
19.4352 71.7592
19.4804 62.9479
19.5257 55.6335
19.5709 52.369
19.6163 51.4881
19.6615 51.5819
19.7068 51.2681
19.752 51.135
19.7974 51.3288
19.8426 51.9411
19.888 52.6381
19.9332 54.1324
19.9786 56.4742
20.0238 59.9445
20.0692 65.614
20.1144 69.5304
20.1598 68.6233
20.205 63.4468
20.2504 60.7991
20.2957 62.5896
20.3411 64.8134
20.3863 63.7326
20.4318 57.8568
20.477 52.4787
20.5224 49.3955
20.5677 48.7105
20.6131 48.1967
20.6586 47.7546
20.7038 47.7975
20.7493 47.4706
20.7945 47.9066
20.84 47.4666
20.8853 47.03
20.9307 46.7432
20.976 46.9581
21.0215 46.8601
21.0668 47.0762
21.1122 47.5469
21.1575 48.0952
21.203 48.8667
21.2483 49.5786
21.2938 49.9991
21.3391 48.8199
21.3846 47.5168
21.4299 46.7243
21.4754 46.7352
21.5207 46.8689
21.5662 47.0036
21.6116 47.2574
21.6571 48.1015
21.7024 49.02
21.7479 50.7429
21.7933 53.0544
21.8388 57.0968
21.8843 61.7714
21.9297 64.6083
21.9752 63.6632
22.0206 59.4329
22.0661 55.6726
22.1115 55.4487
22.157 55.5786
22.2024 54.0376
22.248 50.5863
22.2933 48.4472
22.3389 47.4589
22.3843 47.1263
22.4299 46.7747
22.4753 46.8487
22.5208 46.8138
22.5662 46.7962
22.6118 46.9988
22.6572 46.9304
22.7028 47.5133
22.7483 48.2503
22.7939 48.96
22.8393 50.4092
22.8849 52.5902
22.9303 55.0733
22.9759 57.2324
23.0214 57.0789
23.067 54.2114
23.1126 50.5515
23.1581 48.0581
23.2037 47.2791
23.2492 47.1373
23.2948 47.2678
23.3403 47.7999
23.3859 48.5799
23.4314 49.6312
23.477 51.3942
23.5225 53.7608
23.5682 56.4956
23.6137 57.9689
23.6593 55.9725
23.7048 51.7316
23.7505 47.7096
23.796 45.6457
23.8417 44.7387
23.8872 44.1334
23.9329 43.7354
23.9784 43.3706
24.0241 43.2912
24.0697 43.0674
24.1154 42.5325
24.1609 42.4686
24.2066 42.3617
24.2522 42.0844
24.2979 41.9807
24.3434 41.7838
24.3892 41.6091
24.4349 41.7233
24.4805 41.4566
24.5262 41.6763
24.5718 41.5169
24.6175 41.6737
24.6631 41.6909
24.7089 41.2883
24.7545 40.8912
24.8002 40.8774
24.8458 40.8603
24.8916 40.7147
24.9372 40.8922
24.983 41.1439
25.0286 41.4758
25.0744 42.0145
25.12 42.5085
25.1658 43.2741
25.2114 43.6679
25.2572 43.8618
25.3029 44.1103
25.3487 44.2821
25.3943 43.9744
25.4402 42.775
25.4858 41.64
25.5316 40.5518
25.5773 39.8321
25.6231 39.6143
25.669 39.2411
25.7147 39.2393
25.7605 39.059
25.8062 39.2997
25.8521 39.3279
25.8977 39.3086
25.9436 39.5484
25.9893 39.7488
26.0352 40.3937
26.0809 40.4348
26.1268 40.9531
26.1725 40.5734
26.2184 39.862
26.2641 39.2705
26.31 38.8395
26.3557 38.8457
26.4017 38.8868
26.4474 39.2962
26.4933 39.4672
26.5391 40.0283
26.585 40.8294
26.6308 41.3439
26.6767 41.6175
26.7225 41.3704
26.7684 40.771
26.8142 40.1734
26.8601 39.5999
26.9059 39.2326
26.9519 38.7087
26.9979 38.1992
27.0437 37.9796
27.0896 37.5952
27.1354 37.5769
27.1814 37.433
27.2272 37.4716
27.2732 37.4865
27.3191 37.2888
27.3651 37.4062
27.4109 37.3007
27.4569 37.4994
27.5027 37.6104
27.5488 37.7084
27.5946 37.4798
27.6407 37.1702
27.6865 37.0219
27.7326 36.9276
27.7784 36.9297
27.8245 36.7761
27.8703 36.8044
27.9164 37.3122
27.9623 37.5349
28.0084 37.9645
28.0543 38.3685
28.1003 38.4435
28.1462 38.3565
28.1923 37.9422
28.2384 37.2573
28.2843 36.9021
28.3304 36.4294
28.3764 35.9889
28.4225 35.4835
28.4684 35.2722
28.5145 34.9425
28.5605 34.7995
28.6066 34.706
28.6526 34.6511
28.6987 34.5925
28.7447 34.4471
28.7908 34.4941
28.8368 34.499
28.8829 34.4492
28.9289 34.405
28.9751 34.2351
29.0211 34.0113
29.0673 33.7223
29.1133 33.5988
29.1595 33.4543
29.2055 33.2543
29.2517 33.3224
29.2977 33.3569
29.3439 33.3501
29.3899 33.4004
29.4361 33.288
29.4824 33.2033
29.5284 32.8785
29.5746 32.4332
29.6207 32.1524
29.6669 32.1047
29.713 32.0428
29.7593 31.7741
29.8053 31.9438
29.8516 31.7152
29.8977 31.743
29.9439 31.6606
29.99 31.6478
30.0363 31.5195
30.0824 31.592
30.1287 31.548
30.1748 31.5391
30.2211 31.5668
30.2673 31.4033
30.3136 31.5145
30.3597 31.4018
30.406 31.2751
30.4522 31.2389
30.4985 31.1966
30.5447 31.2965
30.591 31.3311
30.6372 31.3714
30.6835 31.375
30.7297 31.5154
30.7761 31.4449
30.8224 31.3426
30.8686 31.158
30.915 30.8641
30.9612 30.7368
31.0076 30.6259
31.0538 30.3387
31.1002 30.3369
31.1464 30.1836
31.1928 30.2083
31.2391 30.1755
31.2855 30.0815
31.3317 30.0239
31.3781 30.2025
31.4244 30.1266
31.4708 30.0322
31.5171 30.112
31.5636 30.1096
31.6098 29.8133
31.6563 29.6743
31.7026 29.4745
31.7491 29.3877
31.7953 29.3495
31.8418 29.4427
31.8881 29.4057
31.9346 29.417
31.9809 29.3442
32.0275 29.1553
32.074 29.197
32.1203 28.8493
32.1668 28.8015
32.2132 28.6492
32.2597 28.5354
32.306 28.3848
32.3526 28.2232
32.399 28.2125
32.4455 28.0955
32.4919 27.9268
32.5385 27.9549
32.5848 27.6758
32.6314 27.6778
32.6778 27.6893
32.7244 27.5011
32.7708 27.4101
32.8174 27.348
32.8638 27.2466
32.9104 27.3644
32.9569 27.2461
33.0035 27.1646
33.0499 27.1689
33.0966 27.0997
33.143 27.13
33.1897 27.0228
33.2361 26.9739
33.2828 26.9051
33.3293 26.6457
33.3759 26.7992
33.4226 26.5315
33.4691 26.4429
33.5158 26.3524
33.5623 26.2276
33.609 26.0379
33.6555 26.0169
33.7022 25.9336
33.7487 25.836
33.7954 25.712
33.842 25.701
33.8887 25.6136
33.9353 25.5325
33.982 25.4804
34.0286 25.369
34.0753 25.2489
34.1219 25.1862
34.1687 25.1313
34.2152 25.1032
34.262 24.9503
34.3086 24.8987
34.3554 24.8451
34.402 24.7228
34.4488 24.6142
34.4954 24.5878
34.5422 24.511
34.5889 24.2817
34.6357 24.2284
34.6825 24.2058
34.7292 24.1716
34.776 24.0756
34.8227 23.9814
34.8695 23.9952
34.9162 23.9565
34.9631 23.8835
35.0098 23.8063
35.0566 23.7281
35.1033 23.6678
35.1502 23.6528
35.1969 23.5608
35.2438 23.5483
35.2906 23.4692
35.3375 23.4575
35.3842 23.3386
35.4311 23.3942
35.4779 23.3083
35.5248 23.3097
35.5716 23.196
35.6185 23.0818
35.6653 23.0232
35.7123 22.8825
35.759 22.8757
35.806 22.7543
35.8528 22.6317
35.8998 22.6271
35.9468 22.4793
35.9936 22.5223
36.0406 22.4332
36.0874 22.4075
36.1345 22.2976
36.1813 22.3025
36.2283 22.1497
36.2752 22.0938
36.3222 22.0015
36.3691 22.0664
36.4161 21.8955
36.463 21.912
36.5101 21.8525
36.557 21.7304
36.6041 21.59
36.651 21.6259
36.6981 21.5193
36.745 21.4465
36.7921 21.4193
36.839 21.2804
36.8861 21.222
36.9331 21.1459
36.9802 21.071
37.0272 20.9727
37.0743 20.9302
37.1213 20.8926
37.1684 20.7985
37.2154 20.7629
37.2626 20.7673
37.3098 20.6337
37.3568 20.6237
37.404 20.5153
37.451 20.3079
37.4982 20.434
37.5452 20.3193
37.5924 20.2221
37.6395 20.2818
37.6867 20.1183
37.7337 20.1054
37.781 20.0238
37.8281 19.8732
37.8753 19.9533
37.9224 19.7864
37.9697 19.667
38.0168 19.6353
38.064 19.6192
38.1111 19.5669
38.1584 19.5408
38.2056 19.4241
38.2529 19.4758
38.3 19.3748
38.3473 19.2821
38.3945 19.1259
38.4418 19.1239
38.489 19.0609
38.5363 19.0018
38.5837 19.0104
38.6309 18.9437
38.6782 18.8076
38.7254 18.7448
38.7728 18.745
38.82 18.7021
38.8674 18.6739
38.9146 18.4434
38.9621 18.4815
39.0093 18.4259
39.0567 18.3277
39.104 18.2629
39.1514 18.1573
39.1987 18.1773
39.2461 18.1634
39.2934 18.0518
39.3409 17.9621
39.3882 17.9546
39.4356 17.8925
39.483 17.8038
39.5304 17.7517
39.5778 17.7352
39.6253 17.6817
39.6726 17.557
39.7201 17.6232
39.7675 17.5552
39.815 17.4049
39.8624 17.3926
39.9099 17.3532
39.9575 17.2685
40.0049 17.182
40.0525 17.1489
40.0999 17.0544
40.1474 17.0755
40.1949 16.9873
40.2425 16.9338
40.2899 16.8575
40.3375 16.8816
40.385 16.7115
40.4326 16.7476
40.48 16.6573
40.5277 16.6579
40.5752 16.6127
40.6228 16.521
40.6703 16.4902
40.718 16.4211
40.7655 16.3805
40.8132 16.3206
40.8607 16.2822
40.9084 16.2499
40.9559 16.1094
41.0036 16.116
41.0512 16.0847
41.0989 16.0337
41.1465 15.9236
41.1942 15.906
41.242 15.8262
41.2896 15.7719
41.3373 15.7504
41.3849 15.7006
41.4327 15.6439
41.4803 15.5587
41.5281 15.4715
41.5758 15.4647
41.6236 15.4338
41.6712 15.4362
41.7191 15.2918
41.7667 15.3191
41.8146 15.1933
41.8622 15.1264
41.9101 15.1054
41.9578 14.9986
42.0057 14.9992
42.0534 14.9125
42.1013 14.947
42.149 14.8242
42.1969 14.831
42.2446 14.771
42.2925 14.7515
42.3403 14.681
42.3882 14.6796
42.436 14.632
42.4839 14.4929
42.5319 14.4665
42.5797 14.4465
42.6277 14.3841
42.6755 14.3429
42.7235 14.2303
42.7713 14.2293
42.8193 14.1792
42.8671 14.1047
42.9152 14.0862
42.963 14.0717
43.0111 13.9988
43.0589 13.9798
43.107 13.9063
43.1549 13.8761
43.2029 13.7334
43.2508 13.7561
43.2989 13.7122
43.3468 13.6381
43.3949 13.6312
43.4429 13.5988
43.491 13.5161
43.5389 13.4446
43.5871 13.4138
43.635 13.3867
43.6832 13.358
43.7312 13.2969
43.7793 13.2069
43.8273 13.1974
43.8755 13.1587
43.9237 13.0694
43.9717 13.0948
44.0199 13.0059
44.068 12.9977
44.1162 12.8829
44.1642 12.8785
44.2125 12.862
44.2606 12.8063
44.3088 12.8034
44.3569 12.712
44.4052 12.7029
44.4533 12.5928
44.5016 12.5308
44.5497 12.5523
44.598 12.4968
44.6461 12.4343
44.6945 12.3806
44.7426 12.3281
44.791 12.3308
44.8391 12.2292
44.8875 12.2471
44.9357 12.1966
44.984 12.1202
45.0322 12.0777
45.0806 12.0651
45.1288 12.0553
45.1773 11.956
45.2257 11.9046
45.2739 11.8907
45.3224 11.8395
45.3706 11.7977
45.4191 11.7339
45.4673 11.7158
45.5158 11.6463
45.5641 11.5505
45.6126 11.6073
45.6609 11.5038
45.7094 11.482
45.7577 11.493
45.8063 11.3987
45.8546 11.422
45.9031 11.317
45.9515 11.3125
46.0001 11.2835
46.0484 11.1802
46.097 11.2006
46.1454 11.1565
46.194 11.1103
46.2424 11.0773
46.291 11.0073
46.3395 11.0019
46.3881 10.9347
46.4365 10.8952
46.4852 10.8786
46.5337 10.8274
46.5823 10.7987
46.631 10.727
46.6795 10.6841
46.7282 10.6703
46.7767 10.6448
46.8254 10.6038
46.8739 10.55
46.9226 10.507
46.9712 10.4759
47.0199 10.4166
47.0685 10.3644
47.1173 10.393
47.1658 10.3278
47.2146 10.2725
47.2632 10.2554
47.312 10.2183
47.3606 10.1553
47.4095 10.1123
47.4581 10.0844
47.5069 10.031
47.5556 10.0095
47.6044 9.97978
47.6531 9.9657
47.702 9.88218
47.7507 9.86494
47.7996 9.84753
47.8483 9.77753
47.8972 9.7944
47.9461 9.69181
47.9948 9.66818
48.0438 9.68312
48.0925 9.61624
48.1415 9.54321
48.1902 9.54851
48.2392 9.51771
48.288 9.49674
48.337 9.45859
48.3858 9.45959
48.4348 9.41206
48.4837 9.36854
48.5327 9.32147
48.5815 9.26854
48.6306 9.25648
48.6795 9.17797
48.7285 9.17853
48.7774 9.14648
48.8265 9.12758
48.8754 9.06337
48.9245 9.06299
48.9734 9.02286
49.0226 9.0026
49.0715 8.94097
49.1206 8.92794
49.1696 8.85882
49.2188 8.83808
49.2679 8.78268
49.3169 8.78701
49.3661 8.74272
49.4151 8.67692
49.4643 8.64511
49.5134 8.6386
49.5626 8.60915
49.6117 8.57715
49.6609 8.55557
49.71 8.48134
49.7592 8.45277
49.8083 8.44231
49.8576 8.42916
49.9067 8.34674
49.956 8.34711
50.0052 8.28712
50.0545 8.28181
50.1036 8.25699
50.153 8.22241
50.2022 8.17378
50.2515 8.12041
50.3007 8.11622
50.3501 8.05078
50.3993 8.08199
50.4487 8.03003
50.498 7.98853
50.5474 7.95079
50.5966 7.93824
50.6461 7.89494
50.6955 7.87672
50.7448 7.81509
50.7943 7.80807
50.8436 7.78309
50.8931 7.76754
50.9424 7.73034
50.9919 7.6631
51.0413 7.64166
51.0908 7.62734
51.1402 7.59598
51.1897 7.56573
51.2391 7.53303
51.2887 7.45438
51.3381 7.45875
51.3877 7.4499
51.4371 7.4263
51.4867 7.33247
51.5362 7.36757
51.5858 7.31504
51.6353 7.29488
51.6849 7.28688
51.7344 7.24386
51.7841 7.2462
51.8336 7.20943
51.8833 7.14879
51.9328 7.12954
51.9826 7.06476
52.0323 7.06686
52.0818 7.0109
52.1316 6.96471
52.1812 6.96817
52.231 6.91454
52.2806 6.89944
52.3304 6.90204
52.38 6.86791
52.4298 6.8376
52.4794 6.78291
52.5293 6.77826
52.5789 6.73573
52.6288 6.69934
52.6785 6.70413
52.7284 6.66747
52.7781 6.61492
52.828 6.58962
52.8777 6.55433
52.9276 6.50444
52.9774 6.53313
53.0273 6.49538
53.0771 6.45815
53.1271 6.45472
53.1769 6.36599
53.2269 6.39309
53.2767 6.30684
53.3267 6.31525
53.3765 6.28962
53.4266 6.28283
53.4766 6.24465
53.5265 6.21975
53.5765 6.16662
53.6264 6.1898
53.6765 6.12871
53.7264 6.13
53.7765 6.05226
53.8265 6.05552
53.8766 6.01965
53.9266 6.00441
53.9767 5.9635
54.0267 5.97028
54.0769 5.94251
54.1269 5.88422
54.1771 5.87399
54.2271 5.80155
54.2773 5.80248
54.3274 5.76969
54.3776 5.7359
54.4277 5.73687
54.478 5.72433
54.528 5.65804
54.5783 5.61468
54.6285 5.56685
54.6788 5.5275
54.7289 5.50258
54.7792 5.46683
54.8296 5.39359
54.8798 5.40142
54.9301 5.34424
54.9803 5.28958
55.0307 5.26913
55.0809 5.21841
55.1314 5.19165
55.1816 5.13012
55.232 5.10006
55.2823 5.06693
55.3328 5.02501
55.383 4.95959
55.4335 4.92886
55.4838 4.86252
55.5344 4.87885
55.5847 4.81627
55.6352 4.76955
55.6856 4.75539
55.7361 4.65216