File: XRD/Ni3Fe_FD0322.xy
TT I
1.27165 7.76701
1.31627 6.61343
1.36089 7.15342
1.40551 6.94256
1.45013 6.60104
1.49476 6.34956
1.53938 6.03232
1.584 5.63066
1.62863 5.18727
1.67325 5.49532
1.71787 5.49762
1.7625 5.23324
1.80712 5.03128
1.85174 5.59741
1.89636 4.8255
1.94099 5.22754
1.98562 4.70626
2.03025 4.49336
2.07487 4.50299
2.11949 5.0226
2.16411 4.53747
2.20874 13.6135
2.25338 21.7657
2.298 6.04983
2.34263 4.72361
2.38725 5.41102
2.43188 5.25805
2.4765 6.04092
2.52115 6.16286
2.56577 6.71508
2.6104 7.18442
2.65503 6.92139
2.69965 7.05835
2.7443 7.77057
2.78893 7.96666
2.83356 8.31913
2.87818 8.52604
2.92281 8.55225
2.96744 9.94093
3.01209 10.421
3.05672 11.3096
3.10135 12.7226
3.14599 13.5916
3.19062 14.3036
3.23527 15.3146
3.2799 15.8289
3.32454 17.5587
3.36917 18.2995
3.4138 18.959
3.45844 19.9564
3.50309 20.994
3.54773 22.1134
3.59237 24.2312
3.637 89.0981
3.68164 57.0806
3.7263 26.9343
3.77094 26.6885
3.81558 27.337
3.86022 27.9471
3.90486 29.4491
3.9495 30.3991
3.99416 31.3863
4.0388 32.5658
4.08344 34.3733
4.12809 35.2553
4.17273 37.3647
4.21738 43.7755
4.26204 235.993
4.30669 202.948
4.35133 49.3968
4.39598 45.7847
4.44063 54.3619
4.4853 65.2551
4.52995 52.9084
4.5746 53.2365
4.61925 54.5685
4.6639 56.9443
4.70855 59.971
4.75322 62.6143
4.79788 66.2257
4.84253 68.9615
4.88719 73.9732
4.93184 78.0742
4.97652 84.6475
5.02118 91.789
5.06583 100.448
5.11049 115.306
5.15515 191.523
5.19981 532.269
5.24449 3446.03
5.28916 11374.6
5.33382 3610.82
5.37848 231.277
5.42315 140.497
5.46783 121.106
5.5125 111.525
5.55716 106.548
5.60183 102.183
5.6465 100.516
5.69117 98.5055
5.73586 95.9873
5.78053 96.6423
5.8252 96.1932
5.86988 97.9013
5.91455 101.498
5.95924 114.006
6.00392 282.325
6.0486 1180.27
6.09328 3923.15
6.13795 3488.7
6.18263 302.975
6.22733 102.029
6.27201 87.3739
6.3167 103.416
6.36138 82.9632
6.40606 71.8777
6.45075 69.6958
6.49545 67.6265
6.54014 65.4107
6.58483 64.9288
6.62952 64.881
6.67421 93.6455
6.71892 138.912
6.76361 69.3461
6.8083 60.1819
6.853 59.403
6.89769 58.5362
6.94239 58.2568
6.98711 57.906
7.03181 57.0009
7.07651 57.1341
7.12121 56.8537
7.16591 57.0861
7.21063 57.2193
7.25533 70.8229
7.30004 170.865
7.34475 89.6916
7.38945 58.0659
7.43416 55.9723
7.47889 55.8793
7.5236 56.4524
7.56831 56.937
7.61303 58.5129
7.65774 58.6744
7.70247 57.8518
7.74719 57.6363
7.79191 58.2436
7.83663 58.7572
7.88135 59.6777
7.92607 60.6807
7.97081 61.5661
8.01553 62.8909
8.06026 64.409
8.10498 65.7533
8.14971 75.1145
8.19446 74.1744
8.23919 71.8366
8.28392 74.1738
8.32865 77.1635
8.37339 81.3082
8.41812 89.0762
8.46288 119.588
8.50761 203.259
8.55235 465.101
8.59709 1135.93
8.64183 2101.53
8.68658 1106.89
8.73134 191.509
8.77609 105.497
8.82083 96.6072
8.86558 92.7682
8.91033 92.3754
8.9551 93.7598
8.99985 87.8391
9.04461 86.4002
9.08936 85.6807
9.13412 84.7585
9.17888 84.4813
9.22365 85.2314
9.26841 84.4663
9.31318 85.8826
9.35794 85.9943
9.4027 85.7593
9.44749 86.995
9.49226 87.4678
9.53703 88.2611
9.5818 90.0831
9.62657 95.0482
9.67134 101.424
9.71614 97.2626
9.76091 97.4263
9.80569 99.8447
9.85047 103.567
9.89525 127.18
9.94005 143.418
9.98484 212.372
10.0296 408.03
10.0744 825.368
10.1192 1620.09
10.164 1729.9
10.2088 495.212
10.2536 139.963
10.2984 117.776
10.3432 119.019
10.388 109.489
10.4328 130.112
10.4776 178.806
10.5224 284.035
10.5672 479.345
10.612 526.722
10.6568 222.136
10.7017 100.838
10.7465 89.8106
10.7913 86.0338
10.8361 83.796
10.8809 81.4924
10.9257 80.5904
10.9706 81.2987
11.0154 76.9688
11.0602 74.9923
11.105 74.0393
11.1499 77.8773
11.1947 84.7345
11.2395 75.8699
11.2844 72.6634
11.3292 69.3686
11.374 68.2649
11.4189 67.7315
11.4637 66.9485
11.5086 67.2749
11.5534 69.8174
11.5983 67.3348
11.6431 65.5166
11.688 64.8296
11.7328 64.9509
11.7777 64.7866
11.8225 64.6886
11.8674 64.2278
11.9122 64.7765
11.9571 65.1393
12.002 66.2466
12.0468 72.2604
12.0917 85.0641
12.1366 107.068
12.1814 149.651
12.2263 202.896
12.2712 179.763
12.3161 102.424
12.3609 72.8371
12.4058 66.6156
12.4507 66.3059
12.4956 66.5348
12.5405 66.5942
12.5853 67.4691
12.6302 74.6762
12.6751 79.9865
12.72 71.8698
12.7649 70.0361
12.8098 70.4791
12.8547 72.0107
12.8996 73.3482
12.9445 74.6053
12.9894 76.5564
13.0343 78.4236
13.0792 82.0628
13.1242 95.2902
13.1691 123.823
13.214 161.436
13.2589 237.661
13.3038 346.89
13.3487 429.447
13.3937 288.485
13.4386 134.551
13.4835 114.846
13.5285 132.379
13.5734 166.937
13.6183 236.718
13.6633 329.351
13.7082 345.919
13.7531 208.424
13.7981 104.067
13.843 84.9241
13.888 82.3023
13.9329 79.5167
13.9779 78.1982
14.0228 76.7959
14.0678 75.4685
14.1127 74.8478
14.1577 74.8182
14.2027 73.5559
14.2476 72.6005
14.2926 72.6797
14.3376 73.7569
14.3825 72.6628
14.4275 70.8878
14.4725 70.7699
14.5175 71.0943
14.5624 71.1562
14.6074 73.4018
14.6524 73.9164
14.6974 72.7384
14.7424 75.406
14.7874 84.2421
14.8324 95.9992
14.8774 115.886
14.9224 150.721
14.9674 198.779
15.0124 221.794
15.0574 159.251
15.1024 95.7609
15.1474 74.9451
15.1924 72.9439
15.2374 72.8107
15.2824 72.4369
15.3274 70.3173
15.3725 68.8746
15.4175 68.3015
15.4625 68.1723
15.5076 68.3132
15.5526 68.4444
15.5976 68.0912
15.6426 70.023
15.6877 77.0474
15.7327 85.703
15.7778 100.053
15.8228 125.853
15.8679 162.786
15.9129 195.0
15.958 167.794
16.003 104.795
16.0481 70.6907
16.0931 66.9243
16.1382 64.7904
16.1833 62.3871
16.2283 61.0144
16.2734 60.2256
16.3185 60.7311
16.3636 61.2525
16.4086 59.2567
16.4537 58.0014
16.4988 57.3522
16.5439 57.3205
16.589 56.8609
16.6341 56.6426
16.6792 56.2632
16.7243 56.7358
16.7694 56.7789
16.8145 56.7034
16.8596 57.1265
16.9047 58.5394
16.9498 58.6592
16.9949 57.4013
17.04 57.9062
17.0851 59.1331
17.1302 61.2068
17.1754 64.097
17.2205 68.8149
17.2656 74.6322
17.3108 82.549
17.3559 83.8999
17.401 74.5377
17.4462 64.8753
17.4913 61.0731
17.5365 60.9811
17.5815 61.2141
17.6268 61.3509
17.6718 62.2497
17.7171 62.9352
17.7622 63.2853
17.8074 64.0865
17.8525 67.4328
17.8977 72.1533
17.9428 77.8402
17.9881 86.322
18.0331 100.293
18.0784 118.552
18.1237 139.629
18.1688 138.451
18.214 111.566
18.2591 90.7439
18.3044 91.0584
18.3495 99.0366
18.3948 107.545
18.4399 100.301
18.4852 81.0072
18.5303 68.3018
18.5756 64.0403
18.6207 63.5714
18.666 62.313
18.7112 61.7365
18.7565 60.8979
18.8016 60.361
18.8469 59.8493
18.892 59.5214
18.9374 59.1101
18.9825 58.8397
19.0278 58.7612
19.073 59.0998
19.1183 59.5828
19.1635 60.6643
19.2088 61.8369
19.254 64.118
19.2993 67.7087
19.3447 72.8283
19.3898 77.6179
19.4352 75.2779
19.4804 66.3926
19.5257 59.0165
19.5709 56.1566
19.6163 55.6787
19.6615 55.4283
19.7068 54.9458
19.752 55.0213
19.7974 55.5529
19.8426 56.4652
19.888 56.9001
19.9332 58.4321
19.9786 60.5859
20.0238 63.6863
20.0692 68.0463
20.1144 71.2709
20.1598 70.8994
20.205 66.0549
20.2504 63.4523
20.2957 64.49
20.3411 66.8113
20.3863 66.3997
20.4318 60.7583
20.477 55.6531
20.5224 53.3451
20.5677 52.7096
20.6131 51.8704
20.6586 51.077
20.7038 51.1409
20.7493 50.7888
20.7945 50.4911
20.84 50.3419
20.8853 50.3204
20.9307 50.1377
20.976 50.372
21.0215 50.3403
21.0668 50.6795
21.1122 51.0243
21.1575 51.6042
21.203 52.0935
21.2483 52.8829
21.2938 53.3366
21.3391 52.0637
21.3846 50.7796
21.4299 50.0728
21.4754 49.8559
21.5207 50.0751
21.5662 50.5119
21.6116 51.1656
21.6571 51.7464
21.7024 52.7275
21.7479 54.5018
21.7933 56.8229
21.8388 59.935
21.8843 63.5702
21.9297 66.4534
21.9752 65.9324
22.0206 62.031
22.0661 58.0802
22.1115 57.4378
22.157 57.5885
22.2024 56.467
22.248 53.3303
22.2933 51.733
22.3389 50.7257
22.3843 50.6763
22.4299 50.5059
22.4753 50.5816
22.5208 50.2111
22.5662 50.2235
22.6118 50.4097
22.6572 50.6225
22.7028 50.9378
22.7483 51.4722
22.7939 52.1366
22.8393 53.3931
22.8849 55.32
22.9303 57.0918
22.9759 58.9498
23.0214 59.2477
23.067 56.6559
23.1126 52.9849
23.1581 50.8972
23.2037 50.4615
23.2492 50.4882
23.2948 50.7373
23.3403 50.9324
23.3859 51.51
23.4314 52.3985
23.477 53.7939
23.5225 55.6706
23.5682 57.705
23.6137 59.3037
23.6593 57.9146
23.7048 53.7657
23.7505 50.1122
23.796 48.1294
23.8417 47.6487
23.8872 47.0691
23.9329 46.734
23.9784 46.342
24.0241 46.0702
24.0697 45.9619
24.1154 45.5276
24.1609 45.4661
24.2066 45.217
24.2522 45.146
24.2979 44.9145
24.3434 44.6304
24.3892 44.6677
24.4349 44.4617
24.4805 44.2291
24.5262 44.5448
24.5718 44.3713
24.6175 44.2891
24.6631 44.2216
24.7089 43.9536
24.7545 43.8473
24.8002 43.5681
24.8458 43.543
24.8916 43.4949
24.9372 43.5214
24.983 44.0183
25.0286 44.3599
25.0744 44.5548
25.12 45.2044
25.1658 45.7214
25.2114 45.973
25.2572 46.0146
25.3029 46.0267
25.3487 46.1878
25.3943 46.1581
25.4402 45.1469
25.4858 43.8088
25.5316 42.8506
25.5773 42.3342
25.6231 42.0753
25.669 41.8784
25.7147 41.934
25.7605 41.6243
25.8062 41.8404
25.8521 41.9589
25.8977 41.9566
25.9436 42.3153
25.9893 42.1667
26.0352 42.6795
26.0809 42.8142
26.1268 42.9329
26.1725 42.7772
26.2184 42.1295
26.2641 41.7251
26.31 41.5615
26.3557 41.4976
26.4017 41.3939
26.4474 41.8616
26.4933 41.9869
26.5391 42.5098
26.585 42.8373
26.6308 43.2345
26.6767 43.4648
26.7225 43.4749
26.7684 42.7795
26.8142 42.0365
26.8601 41.7212
26.9059 41.3826
26.9519 40.9066
26.9979 40.5364
27.0437 40.1919
27.0896 39.9776
27.1354 40.0317
27.1814 39.9124
27.2272 39.8027
27.2732 39.8466
27.3191 39.3992
27.3651 39.7732
27.4109 39.619
27.4569 39.7409
27.5027 39.6678
27.5488 39.702
27.5946 39.5553
27.6407 39.5137
27.6865 39.2643
27.7326 38.9725
27.7784 39.0728
27.8245 39.0472
27.8703 39.1839
27.9164 39.5634
27.9623 39.5249
28.0084 39.8754
28.0543 40.2965
28.1003 40.2387
28.1462 40.0445
28.1923 39.6864
28.2384 39.1023
28.2843 38.895
28.3304 38.3835
28.3764 37.8606
28.4225 37.5692
28.4684 37.4414
28.5145 37.2605
28.5605 37.0492
28.6066 36.8263
28.6526 36.7278
28.6987 36.6635
28.7447 36.5498
28.7908 36.5436
28.8368 36.5632
28.8829 36.5033
28.9289 36.4873
28.9751 36.2773
29.0211 36.054
29.0673 35.7609
29.1133 35.7141
29.1595 35.6629
29.2055 35.4269
29.2517 35.3778
29.2977 35.2753
29.3439 35.3497
29.3899 35.3923
29.4361 35.2135
29.4824 34.997
29.5284 34.795
29.5746 34.4849
29.6207 34.2263
29.6669 34.1252
29.713 34.0044
29.7593 33.9224
29.8053 33.8728
29.8516 33.8363
29.8977 33.8892
29.9439 33.7176
29.99 33.6471
30.0363 33.3776
30.0824 33.4933
30.1287 33.4612
30.1748 33.4441
30.2211 33.4657
30.2673 33.2912
30.3136 33.4277
30.3597 33.3222
30.406 33.1399
30.4522 33.1044
30.4985 33.0202
30.5447 33.1619
30.591 33.1669
30.6372 33.1043
30.6835 33.25
30.7297 33.2387
30.7761 33.2397
30.8224 33.0755
30.8686 32.9444
30.915 32.5679
30.9612 32.4721
31.0076 32.2562
31.0538 32.2297
31.1002 32.0573
31.1464 31.9043
31.1928 31.8717
31.2391 32.016
31.2855 31.8705
31.3317 31.7678
31.3781 31.7487
31.4244 31.7739
31.4708 31.7004
31.5171 31.7772
31.5636 31.7208
31.6098 31.4381
31.6563 31.3212
31.7026 31.2079
31.7491 31.1282
31.7953 31.1172
31.8418 31.0997
31.8881 31.0454
31.9346 31.0536
31.9809 30.9927
32.0275 30.8726
32.074 30.774
32.1203 30.6026
32.1668 30.496
32.2132 30.3825
32.2597 30.1027
32.306 30.1649
32.3526 29.8847
32.399 29.9208
32.4455 29.7526
32.4919 29.6181
32.5385 29.562
32.5848 29.3844
32.6314 29.3507
32.6778 29.2961
32.7244 29.1731
32.7708 29.0236
32.8174 29.0318
32.8638 28.8484
32.9104 29.0744
32.9569 28.9149
33.0035 28.7819
33.0499 28.7243
33.0966 28.6695
33.143 28.6419
33.1897 28.55
33.2361 28.4253
33.2828 28.4868
33.3293 28.2654
33.3759 28.316
33.4226 28.0995
33.4691 27.9782
33.5158 27.8691
33.5623 27.6759
33.609 27.6148
33.6555 27.5551
33.7022 27.4644
33.7487 27.4617
33.7954 27.3116
33.842 27.3153
33.8887 27.2389
33.9353 27.0254
33.982 26.8868
34.0286 26.933
34.0753 26.7352
34.1219 26.6395
34.1687 26.5951
34.2152 26.588
34.262 26.5678
34.3086 26.4601
34.3554 26.3671
34.402 26.1931
34.4488 26.092
34.4954 26.0846
34.5422 25.8623
34.5889 25.8798
34.6357 25.6559
34.6825 25.7304
34.7292 25.6488
34.776 25.5327
34.8227 25.4701
34.8695 25.4336
34.9162 25.3768
34.9631 25.2695
35.0098 25.2647
35.0566 25.059
35.1033 25.0717
35.1502 25.0278
35.1969 25.0011
35.2438 24.9213
35.2906 24.833
35.3375 24.8072
35.3842 24.7301
35.4311 24.6973
35.4779 24.672
35.5248 24.6624
35.5716 24.5962
35.6185 24.4148
35.6653 24.3382
35.7123 24.2666
35.759 24.1536
35.806 24.1349
35.8528 24.0197
35.8998 23.8763
35.9468 23.8348
35.9936 23.8571
36.0406 23.6954
36.0874 23.6507
36.1345 23.5975
36.1813 23.5146
36.2283 23.4602
36.2752 23.3515
36.3222 23.3192
36.3691 23.2424
36.4161 23.1558
36.463 23.1829
36.5101 23.1281
36.557 23.0238
36.6041 22.8577
36.651 22.863
36.6981 22.827
36.745 22.7642
36.7921 22.697
36.839 22.4974
36.8861 22.509
36.9331 22.4382
36.9802 22.3568
37.0272 22.2795
37.0743 22.2269
37.1213 22.094
37.1684 22.1416
37.2154 21.948
37.2626 21.9304
37.3098 21.9202
37.3568 21.8224
37.404 21.7442
37.451 21.6702
37.4982 21.5954
37.5452 21.4627
37.5924 21.461
37.6395 21.4228
37.6867 21.3608
37.7337 21.2827
37.781 21.2217
37.8281 21.0851
37.8753 21.0175
37.9224 21.019
37.9697 20.9196
38.0168 20.8292
38.064 20.7908
38.1111 20.7265
38.1584 20.5673
38.2056 20.6396
38.2529 20.5635
38.3 20.3936
38.3473 20.4347
38.3945 20.2778
38.4418 20.2829
38.489 20.2253
38.5363 20.1631
38.5837 20.0839
38.6309 19.9994
38.6782 19.96
38.7254 19.9004
38.7728 19.8734
38.82 19.6403
38.8674 19.6884
38.9146 19.648
38.9621 19.5238
39.0093 19.5472
39.0567 19.506
39.104 19.3426
39.1514 19.2803
39.1987 19.2942
39.2461 19.2177
39.2934 19.1593
39.3409 19.0453
39.3882 18.9861
39.4356 18.8677
39.483 18.8701
39.5304 18.75
39.5778 18.7859
39.6253 18.8056
39.6726 18.6811
39.7201 18.5734
39.7675 18.5175
39.815 18.4927
39.8624 18.4393
39.9099 18.4368
39.9575 18.3108
40.0049 18.2625
40.0525 18.1772
40.0999 18.1132
40.1474 18.0125
40.1949 18.0123
40.2425 17.9189
40.2899 17.9342
40.3375 17.8724
40.385 17.759
40.4326 17.7795
40.48 17.6034
40.5277 17.6405
40.5752 17.5896
40.6228 17.4008
40.6703 17.4906
40.718 17.4193
40.7655 17.3995
40.8132 17.2912
40.8607 17.296
40.9084 17.194
40.9559 17.1095
41.0036 17.1306
41.0512 17.0667
41.0989 17.0183
41.1465 16.8926
41.1942 16.8589
41.242 16.7892
41.2896 16.6881
41.3373 16.6885
41.3849 16.6667
41.4327 16.5663
41.4803 16.4778
41.5281 16.4261
41.5758 16.3698
41.6236 16.301
41.6712 16.3007
41.7191 16.1885
41.7667 16.1703
41.8146 16.1214
41.8622 16.1263
41.9101 15.9766
41.9578 15.9393
42.0057 15.8569
42.0534 15.7802
42.1013 15.7869
42.149 15.7566
42.1969 15.7162
42.2446 15.6219
42.2925 15.5808
42.3403 15.5138
42.3882 15.5206
42.436 15.3658
42.4839 15.35
42.5319 15.3448
42.5797 15.2098
42.6277 15.247
42.6755 15.2153
42.7235 15.1083
42.7713 15.1141
42.8193 14.966
42.8671 14.9183
42.9152 14.9034
42.963 14.8993
43.0111 14.8895
43.0589 14.7541
43.107 14.6941
43.1549 14.6182
43.2029 14.562
43.2508 14.5749
43.2989 14.5192
43.3468 14.4134
43.3949 14.4175
43.4429 14.4029
43.491 14.3052
43.5389 14.2634
43.5871 14.2058
43.635 14.1408
43.6832 14.1118
43.7312 14.0215
43.7793 14.0431
43.8273 13.9608
43.8755 13.8908
43.9237 13.8923
43.9717 13.8104
44.0199 13.7719
44.068 13.7458
44.1162 13.6841
44.1642 13.6676
44.2125 13.6104
44.2606 13.5149
44.3088 13.5153
44.3569 13.4472
44.4052 13.3923
44.4533 13.3598
44.5016 13.3049
44.5497 13.3075
44.598 13.2279
44.6461 13.1896
44.6945 13.09
44.7426 13.0533
44.791 13.0286
44.8391 13.0299
44.8875 12.9527
44.9357 12.9091
44.984 12.8203
45.0322 12.7812
45.0806 12.7261
45.1288 12.6924
45.1773 12.6205
45.2257 12.6429
45.2739 12.5878
45.3224 12.5677
45.3706 12.5172
45.4191 12.4262
45.4673 12.4349
45.5158 12.3502
45.5641 12.3
45.6126 12.3061
45.6609 12.2161
45.7094 12.1723
45.7577 12.1344
45.8063 12.0114
45.8546 12.0737
45.9031 11.9858
45.9515 12.0024
46.0001 11.9311
46.0484 11.8859
46.097 11.8198
46.1454 11.7938
46.194 11.7709
46.2424 11.7314
46.291 11.6463
46.3395 11.6174
46.3881 11.5492
46.4365 11.5583
46.4852 11.5094
46.5337 11.4901
46.5823 11.4195
46.631 11.384
46.6795 11.3327
46.7282 11.2962
46.7767 11.2331
46.8254 11.2092
46.8739 11.1455
46.9226 11.0989
46.9712 11.0923
47.0199 11.0379
47.0685 11.0061
47.1173 10.9047
47.1658 10.9315
47.2146 10.9483
47.2632 10.838
47.312 10.7665
47.3606 10.7495
47.4095 10.7263
47.4581 10.6613
47.5069 10.6337
47.5556 10.5652
47.6044 10.5557
47.6531 10.4807
47.702 10.4595
47.7507 10.4576
47.7996 10.4299
47.8483 10.3525
47.8972 10.3612
47.9461 10.3222
47.9948 10.2524
48.0438 10.2098
48.0925 10.2044
48.1415 10.1691
48.1902 10.0931
48.2392 10.0727
48.288 10.0577
48.337 9.99043
48.3858 9.95437
48.4348 9.95624
48.4837 9.90509
48.5327 9.87033
48.5815 9.82601
48.6306 9.80002
48.6795 9.77699
48.7285 9.75663
48.7774 9.67206
48.8265 9.64953
48.8754 9.64319
48.9245 9.60191
48.9734 9.52848
49.0226 9.48911
49.0715 9.4584
49.1206 9.40486
49.1696 9.40091
49.2188 9.38546
49.2679 9.32677
49.3169 9.27201
49.3661 9.20946
49.4151 9.19458
49.4643 9.17772
49.5134 9.16863
49.5626 9.09883
49.6117 9.08076
49.6609 9.02409
49.71 8.97088
49.7592 8.93201
49.8083 8.94743
49.8576 8.90782
49.9067 8.88235
49.956 8.8465
50.0052 8.78455
50.0545 8.78701
50.1036 8.75216
50.153 8.73261
50.2022 8.67222
50.2515 8.6124
50.3007 8.59602
50.3501 8.51357
50.3993 8.54
50.4487 8.5261
50.498 8.47129
50.5474 8.36547
50.5966 8.40503
50.6461 8.35921
50.6955 8.37434
50.7448 8.29192
50.7943 8.32103
50.8436 8.25775
50.8931 8.20148
50.9424 8.18556
50.9919 8.15451
51.0413 8.11044
51.0908 8.07385
51.1402 8.06611
51.1897 7.99163
51.2391 7.97289
51.2887 7.94172
51.3381 7.9084
51.3877 7.9029
51.4371 7.86584
51.4867 7.79652
51.5362 7.80176
51.5858 7.71753
51.6353 7.69107
51.6849 7.69067
51.7344 7.62763
51.7841 7.63196
51.8336 7.60122
51.8833 7.57364
51.9328 7.52939
51.9826 7.48329
52.0323 7.44298
52.0818 7.44527
52.1316 7.40242
52.1812 7.35789
52.231 7.35693
52.2806 7.29775
52.3304 7.28573
52.38 7.24339
52.4298 7.19563
52.4794 7.16938
52.5293 7.18654
52.5789 7.10464
52.6288 7.09102
52.6785 7.0273
52.7284 7.02985
52.7781 7.00966
52.828 7.03877
52.8777 6.93806
52.9276 6.93494
52.9774 6.89542
53.0273 6.87811
53.0771 6.81061
53.1271 6.82597
53.1769 6.79549
53.2269 6.80274
53.2767 6.73367
53.3267 6.67338
53.3765 6.61765
53.4266 6.63618
53.4766 6.5996
53.5265 6.57566
53.5765 6.58735
53.6264 6.51935
53.6765 6.5088
53.7264 6.48601
53.7765 6.4517
53.8265 6.39302
53.8766 6.38015
53.9266 6.34181
53.9767 6.30807
54.0267 6.30336
54.0769 6.26286
54.1269 6.20925
54.1771 6.21236
54.2271 6.21475
54.2773 6.11174
54.3274 6.14714
54.3776 6.08105
54.4277 6.07519
54.478 6.04028
54.528 6.00359
54.5783 5.92067
54.6285 5.90306
54.6788 5.85403
54.7289 5.81995
54.7792 5.79317
54.8296 5.69249
54.8798 5.63595
54.9301 5.66804
54.9803 5.62574
55.0307 5.61947
55.0809 5.55302
55.1314 5.52489
55.1816 5.4694
55.232 5.40518
55.2823 5.37937
55.3328 5.28548
55.383 5.22836
55.4335 5.18832
55.4838 5.16096
55.5344 5.14368
55.5847 5.10354
55.6352 5.02379
55.6856 5.03595
55.7361 4.95592