File: XRD/Ni3Fe_FD0231.xy
TT I
1.27165 8.29431
1.31627 7.30815
1.36089 7.18462
1.40551 7.46572
1.45013 6.68715
1.49476 6.7141
1.53938 6.64158
1.584 5.89974
1.62863 6.04776
1.67325 5.42837
1.71787 5.43969
1.7625 5.69542
1.80712 4.6872
1.85174 5.10744
1.89636 4.96327
1.94099 5.10362
1.98562 5.05818
2.03025 5.13808
2.07487 5.13281
2.11949 5.61262
2.16411 4.29024
2.20874 4.61474
2.25338 4.01813
2.298 5.01447
2.34263 4.85776
2.38725 4.62823
2.43188 5.2805
2.4765 4.83474
2.52115 4.76326
2.56577 5.61533
2.6104 6.38158
2.65503 5.9981
2.69965 6.43437
2.7443 6.49153
2.78893 7.05095
2.83356 7.73941
2.87818 7.97709
2.92281 8.36389
2.96744 9.35348
3.01209 10.2829
3.05672 11.2767
3.10135 12.341
3.14599 13.2696
3.19062 14.0159
3.23527 15.3898
3.2799 16.1089
3.32454 16.9286
3.36917 17.7982
3.4138 18.7828
3.45844 19.7202
3.50309 21.2099
3.54773 21.7232
3.59237 22.7706
3.637 23.3088
3.68164 24.0687
3.7263 25.0216
3.77094 25.971
3.81558 26.9051
3.86022 27.4025
3.90486 28.971
3.9495 29.9893
3.99416 31.3087
4.0388 32.4077
4.08344 33.6775
4.12809 35.0441
4.17273 36.8479
4.21738 38.305
4.26204 39.1368
4.30669 41.1502
4.35133 42.8862
4.39598 44.3373
4.44063 46.8564
4.4853 48.5653
4.52995 52.9831
4.5746 54.1349
4.61925 55.8939
4.6639 58.4133
4.70855 61.1901
4.75322 64.7094
4.79788 68.4642
4.84253 72.0224
4.88719 77.132
4.93184 81.6566
4.97652 87.9298
5.02118 96.9474
5.06583 107.361
5.11049 124.475
5.15515 169.47
5.19981 889.884
5.24449 3976.18
5.28916 10783.4
5.33382 4142.82
5.37848 276.147
5.42315 153.247
5.46783 129.642
5.5125 118.532
5.55716 112.413
5.60183 107.095
5.6465 104.046
5.69117 102.729
5.73586 101.313
5.78053 102.152
5.8252 102.366
5.86988 104.82
5.91455 110.498
5.95924 133.678
6.00392 450.041
6.0486 1421.91
6.09328 3671.27
6.13795 3692.39
6.18263 361.708
6.22733 109.515
6.27201 88.8988
6.3167 81.1797
6.36138 76.6683
6.40606 73.1967
6.45075 71.113
6.49545 68.5835
6.54014 66.4957
6.58483 65.1873
6.62952 64.3695
6.67421 62.6877
6.71892 61.3881
6.76361 60.7131
6.8083 60.5408
6.853 59.5165
6.89769 58.9158
6.94239 58.4877
6.98711 57.6459
7.03181 57.0731
7.07651 56.9451
7.12121 56.6197
7.16591 57.0889
7.21063 55.8729
7.25533 55.8916
7.30004 55.4552
7.34475 55.7392
7.38945 56.0971
7.43416 55.53
7.47889 55.8636
7.5236 56.6184
7.56831 57.141
7.61303 57.0847
7.65774 57.3675
7.70247 58.1295
7.74719 58.2137
7.79191 58.8761
7.83663 59.5866
7.88135 60.246
7.92607 61.3025
7.97081 62.508
8.01553 63.8833
8.06026 65.3623
8.10498 66.8058
8.14971 69.0322
8.19446 70.5118
8.23919 73.4242
8.28392 76.1552
8.32865 79.736
8.37339 84.7909
8.41812 90.8754
8.46288 111.475
8.50761 292.414
8.55235 585.894
8.59709 1071.35
8.64183 1975.06
8.68658 1196.85
8.73134 214.982
8.77609 110.814
8.82083 100.439
8.86558 96.5976
8.91033 94.0811
8.9551 90.5432
8.99985 89.3569
9.04461 88.8906
9.08936 88.4302
9.13412 87.4549
9.17888 86.7782
9.22365 86.4646
9.26841 86.9535
9.31318 88.6758
9.35794 88.2656
9.4027 88.6241
9.44749 89.1388
9.49226 89.4824
9.53703 90.8503
9.5818 93.0465
9.62657 94.5995
9.67134 95.6996
9.71614 97.5283
9.76091 100.17
9.80569 103.403
9.85047 106.857
9.89525 112.753
9.94005 137.494
9.98484 305.124
10.0296 517.951
10.0744 807.539
10.1192 1455.45
10.164 1682.55
10.2088 549.274
10.2536 148.796
10.2984 117.875
10.3432 113.024
10.388 115.55
10.4328 159.957
10.4776 212.052
10.5224 282.121
10.5672 447.147
10.612 531.654
10.6568 248.943
10.7017 108.103
10.7465 92.4926
10.7913 88.5816
10.8361 85.5146
10.8809 82.8647
10.9257 80.8084
10.9706 79.6817
11.0154 77.9201
11.0602 76.0102
11.105 75.0755
11.1499 73.3116
11.1947 72.4081
11.2395 71.2486
11.2844 71.005
11.3292 69.7228
11.374 69.0817
11.4189 68.7301
11.4637 67.8694
11.5086 67.0965
11.5534 66.5114
11.5983 66.2273
11.6431 66.3069
11.688 65.7698
11.7328 65.9384
11.7777 65.5366
11.8225 65.4909
11.8674 65.5721
11.9122 66.0565
11.9571 66.1756
12.002 68.7494
12.0468 79.9434
12.0917 94.3057
12.1366 108.801
12.1814 141.944
12.2263 194.032
12.2712 183.444
12.3161 103.734
12.3609 70.1622
12.4058 67.3744
12.4507 67.4276
12.4956 67.3844
12.5405 67.4382
12.5853 68.0823
12.6302 68.3474
12.6751 69.0032
12.72 69.8224
12.7649 70.924
12.8098 71.8255
12.8547 73.2314
12.8996 74.7333
12.9445 76.443
12.9894 78.8046
13.0343 80.6942
13.0792 86.5815
13.1242 110.953
13.1691 147.35
13.214 174.674
13.2589 230.106
13.3038 323.764
13.3487 421.464
13.3937 310.001
13.4386 149.545
13.4835 134.01
13.5285 153.108
13.5734 175.382
13.6183 227.33
13.6633 310.467
13.7082 356.04
13.7531 227.089
13.7981 110.639
13.843 87.3199
13.888 84.1509
13.9329 81.4667
13.9779 80.0877
14.0228 78.482
14.0678 77.0856
14.1127 76.0196
14.1577 75.4031
14.2027 74.8112
14.2476 74.2167
14.2926 73.685
14.3376 73.1681
14.3825 72.7468
14.4275 72.5771
14.4725 72.2513
14.5175 72.8018
14.5624 72.6994
14.6074 72.7656
14.6524 73.7048
14.6974 74.5879
14.7424 81.3421
14.7874 95.4668
14.8324 106.373
14.8774 119.637
14.9224 145.775
14.9674 187.726
15.0124 222.052
15.0574 169.714
15.1024 101.291
15.1474 76.9579
15.1924 73.7585
15.2374 72.6369
15.2824 71.3544
15.3274 70.7134
15.3725 70.1625
15.4175 69.8444
15.4625 69.4814
15.5076 69.145
15.5526 69.4506
15.5976 69.9966
15.6426 75.1314
15.6877 86.1705
15.7327 94.7424
15.7778 103.627
15.8228 122.081
15.8679 153.167
15.9129 189.533
15.958 173.911
16.003 110.6
16.0481 72.8979
16.0931 65.9546
16.1382 63.7703
16.1833 63.0512
16.2283 61.8468
16.2734 61.0147
16.3185 60.377
16.3636 59.5771
16.4086 58.8196
16.4537 58.4667
16.4988 57.8703
16.5439 57.9495
16.589 57.7457
16.6341 57.423
16.6792 56.8927
16.7243 57.3927
16.7694 57.2082
16.8145 57.1575
16.8596 57.5062
16.9047 57.7078
16.9498 57.6558
16.9949 57.8893
17.04 59.4762
17.0851 61.9918
17.1302 63.8452
17.1754 65.7496
17.2205 68.9674
17.2656 74.0038
17.3108 82.2175
17.3559 86.1033
17.401 77.1236
17.4462 66.8801
17.4913 62.6128
17.5365 62.1527
17.5815 62.2076
17.6268 62.5815
17.6718 63.1385
17.7171 63.4923
17.7622 64.4136
17.8074 66.4277
17.8525 72.3332
17.8977 78.3106
17.9428 82.5901
17.9881 88.2403
18.0331 99.3155
18.0784 115.503
18.1237 139.048
18.1688 144.363
18.214 117.729
18.2591 93.4977
18.3044 90.3222
18.3495 97.2416
18.3948 106.49
18.4399 102.1
18.4852 83.5399
18.5303 69.9971
18.5756 65.5487
18.6207 64.442
18.666 63.5243
18.7112 62.7173
18.7565 61.9793
18.8016 61.689
18.8469 60.9889
18.892 60.6751
18.9374 59.9785
18.9825 59.7179
19.0278 59.7505
19.073 60.3526
19.1183 61.4082
19.1635 62.2837
19.2088 62.9289
19.254 64.7832
19.2993 67.46
19.3447 71.3636
19.3898 76.4367
19.4352 76.0257
19.4804 68.168
19.5257 60.3775
19.5709 56.9283
19.6163 56.5473
19.6615 56.3212
19.7068 56.0001
19.752 56.2536
19.7974 57.1333
19.8426 58.0769
19.888 58.6385
19.9332 59.4078
19.9786 61.3716
20.0238 64.2182
20.0692 68.5969
20.1144 72.3726
20.1598 72.8554
20.205 67.8878
20.2504 64.143
20.2957 64.4149
20.3411 66.9953
20.3863 67.317
20.4318 62.1654
20.477 56.6942
20.5224 53.8835
20.5677 52.9774
20.6131 52.6631
20.6586 51.975
20.7038 51.8285
20.7493 51.4294
20.7945 51.3181
20.84 51.458
20.8853 51.2201
20.9307 51.0548
20.976 51.3669
21.0215 51.2479
21.0668 51.4898
21.1122 51.8235
21.1575 52.2361
21.203 52.4668
21.2483 53.5005
21.2938 53.988
21.3391 52.831
21.3846 51.6529
21.4299 51.0553
21.4754 51.0408
21.5207 51.2563
21.5662 51.8481
21.6116 52.8096
21.6571 53.6818
21.7024 54.255
21.7479 55.5521
21.7933 57.5294
21.8388 60.0747
21.8843 63.5048
21.9297 66.8309
21.9752 66.8375
22.0206 63.1157
22.0661 58.9127
22.1115 57.785
22.157 58.4828
22.2024 57.4941
22.248 54.7051
22.2933 52.4926
22.3389 51.4791
22.3843 51.1086
22.4299 50.9948
22.4753 50.9997
22.5208 50.8491
22.5662 51.0297
22.6118 51.4865
22.6572 51.8837
22.7028 52.6241
22.7483 52.6313
22.7939 53.189
22.8393 54.2898
22.8849 55.3332
22.9303 57.1496
22.9759 59.2511
23.0214 59.9157
23.067 57.8321
23.1126 54.4612
23.1581 51.8478
23.2037 51.4586
23.2492 51.9239
23.2948 52.0989
23.3403 52.2092
23.3859 52.5801
23.4314 53.3043
23.477 54.0746
23.5225 55.5463
23.5682 57.6411
23.6137 59.6445
23.6593 58.5876
23.7048 55.0395
23.7505 51.0299
23.796 49.1113
23.8417 48.2638
23.8872 47.6532
23.9329 47.4134
23.9784 47.1441
24.0241 46.7967
24.0697 46.6212
24.1154 46.1137
24.1609 45.9581
24.2066 45.8689
24.2522 45.7718
24.2979 45.4653
24.3434 45.4345
24.3892 45.1754
24.4349 45.1691
24.4805 44.8986
24.5262 45.0708
24.5718 44.9627
24.6175 45.0146
24.6631 44.9091
24.7089 44.3974
24.7545 44.431
24.8002 44.2245
24.8458 44.496
24.8916 44.1327
24.9372 44.2855
24.983 44.8167
25.0286 45.1533
25.0744 45.1956
25.12 45.5527
25.1658 46.0879
25.2114 46.5948
25.2572 46.617
25.3029 46.4615
25.3487 46.6254
25.3943 46.7301
25.4402 45.7887
25.4858 44.7647
25.5316 43.6313
25.5773 42.9198
25.6231 42.7649
25.669 42.5581
25.7147 42.5765
25.7605 42.5849
25.8062 42.55
25.8521 42.6448
25.8977 42.5384
25.9436 42.7329
25.9893 42.691
26.0352 43.0877
26.0809 43.163
26.1268 43.6142
26.1725 43.3851
26.2184 43.0113
26.2641 42.5584
26.31 42.1746
26.3557 42.1846
26.4017 42.1288
26.4474 42.3775
26.4933 42.5325
26.5391 42.9366
26.585 43.1229
26.6308 43.7203
26.6767 43.9386
26.7225 43.9731
26.7684 43.4173
26.8142 42.7459
26.8601 42.41
26.9059 41.8891
26.9519 41.5266
26.9979 41.2144
27.0437 40.7999
27.0896 40.5817
27.1354 40.7713
27.1814 40.5364
27.2272 40.4016
27.2732 40.3135
27.3191 40.1506
27.3651 40.2764
27.4109 40.2842
27.4569 40.1631
27.5027 40.1716
27.5488 40.414
27.5946 40.3109
27.6407 40.1575
27.6865 40.0587
27.7326 39.7887
27.7784 39.7675
27.8245 39.6731
27.8703 39.781
27.9164 40.0657
27.9623 39.7894
28.0084 40.2369
28.0543 40.6328
28.1003 40.6026
28.1462 40.4688
28.1923 40.2381
28.2384 39.6126
28.2843 39.3625
28.3304 38.8675
28.3764 38.4374
28.4225 38.1194
28.4684 37.9377
28.5145 37.6823
28.5605 37.5222
28.6066 37.3346
28.6526 37.1714
28.6987 37.2965
28.7447 37.1712
28.7908 36.9555
28.8368 36.9633
28.8829 36.9761
28.9289 36.8434
28.9751 36.7309
29.0211 36.6207
29.0673 36.3084
29.1133 36.2562
29.1595 36.0792
29.2055 35.9514
29.2517 35.9194
29.2977 35.7952
29.3439 35.7045
29.3899 35.6031
29.4361 35.6876
29.4824 35.573
29.5284 35.3563
29.5746 35.0667
29.6207 34.6822
29.6669 34.642
29.713 34.4849
29.7593 34.3028
29.8053 34.4403
29.8516 34.2762
29.8977 34.3264
29.9439 34.1616
29.99 34.1689
30.0363 33.9062
30.0824 34.0319
30.1287 33.8273
30.1748 33.8864
30.2211 33.8104
30.2673 33.777
30.3136 33.819
30.3597 33.8057
30.406 33.724
30.4522 33.5725
30.4985 33.4668
30.5447 33.5799
30.591 33.5265
30.6372 33.6758
30.6835 33.5195
30.7297 33.5678
30.7761 33.7279
30.8224 33.5082
30.8686 33.377
30.915 33.0487
30.9612 32.9297
31.0076 32.8231
31.0538 32.6141
31.1002 32.5675
31.1464 32.4492
31.1928 32.4334
31.2391 32.3701
31.2855 32.2349
31.3317 32.2355
31.3781 32.3034
31.4244 32.2404
31.4708 32.1988
31.5171 32.1512
31.5636 32.1469
31.6098 31.9096
31.6563 31.8474
31.7026 31.6251
31.7491 31.3902
31.7953 31.4867
31.8418 31.4634
31.8881 31.5349
31.9346 31.36
31.9809 31.4444
32.0275 31.3071
32.074 31.1868
32.1203 31.0146
32.1668 30.8533
32.2132 30.7322
32.2597 30.5488
32.306 30.5731
32.3526 30.3278
32.399 30.1895
32.4455 30.0963
32.4919 29.9365
32.5385 29.9497
32.5848 29.7177
32.6314 29.8552
32.6778 29.816
32.7244 29.5757
32.7708 29.5217
32.8174 29.4796
32.8638 29.2972
32.9104 29.4469
32.9569 29.3762
33.0035 29.1962
33.0499 29.0857
33.0966 29.0523
33.143 29.0933
33.1897 28.9505
33.2361 28.8517
33.2828 28.8679
33.3293 28.6071
33.3759 28.6686
33.4226 28.4818
33.4691 28.4176
33.5158 28.1683
33.5623 28.1657
33.609 28.0396
33.6555 27.8825
33.7022 27.8188
33.7487 27.7619
33.7954 27.6806
33.842 27.5967
33.8887 27.5538
33.9353 27.4961
33.982 27.2879
34.0286 27.2742
34.0753 27.2335
34.1219 26.9978
34.1687 27.0479
34.2152 26.9276
34.262 26.8325
34.3086 26.7285
34.3554 26.6693
34.402 26.6028
34.4488 26.4985
34.4954 26.3888
34.5422 26.2699
34.5889 26.201
34.6357 26.1383
34.6825 26.176
34.7292 25.9479
34.776 25.904
34.8227 25.8341
34.8695 25.7733
34.9162 25.6595
34.9631 25.6225
35.0098 25.6214
35.0566 25.482
35.1033 25.3809
35.1502 25.4368
35.1969 25.2427
35.2438 25.2595
35.2906 25.1977
35.3375 25.1691
35.3842 25.0815
35.4311 25.0408
35.4779 25.1016
35.5248 24.8866
35.5716 24.813
35.6185 24.7501
35.6653 24.6677
35.7123 24.5713
35.759 24.4522
35.806 24.3068
35.8528 24.3655
35.8998 24.2282
35.9468 24.1901
35.9936 24.1472
36.0406 24.0741
36.0874 23.9845
36.1345 23.9363
36.1813 23.8711
36.2283 23.7529
36.2752 23.6291
36.3222 23.7267
36.3691 23.6622
36.4161 23.5054
36.463 23.4511
36.5101 23.4722
36.557 23.3748
36.6041 23.2008
36.651 23.1572
36.6981 23.1599
36.745 23.0825
36.7921 23.0157
36.839 22.9001
36.8861 22.8168
36.9331 22.6866
36.9802 22.6864
37.0272 22.5157
37.0743 22.449
37.1213 22.4329
37.1684 22.4155
37.2154 22.2775
37.2626 22.2681
37.3098 22.1683
37.3568 22.0714
37.404 22.0402
37.451 21.9979
37.4982 21.8654
37.5452 21.7658
37.5924 21.7217
37.6395 21.7634
37.6867 21.5731
37.7337 21.5791
37.781 21.4827
37.8281 21.4302
37.8753 21.2705
37.9224 21.2668
37.9697 21.2224
38.0168 21.1128
38.064 21.0124
38.1111 20.9443
38.1584 20.9424
38.2056 20.7755
38.2529 20.8338
38.3 20.7589
38.3473 20.6907
38.3945 20.5522
38.4418 20.5768
38.489 20.4725
38.5363 20.4315
38.5837 20.3666
38.6309 20.2931
38.6782 20.1563
38.7254 20.1806
38.7728 20.038
38.82 20.008
38.8674 19.9685
38.9146 19.9303
38.9621 19.794
39.0093 19.795
39.0567 19.7656
39.104 19.6336
39.1514 19.6035
39.1987 19.5195
39.2461 19.449
39.2934 19.3566
39.3409 19.3577
39.3882 19.1807
39.4356 19.1762
39.483 19.1178
39.5304 19.0021
39.5778 19.0779
39.6253 19.0483
39.6726 18.932
39.7201 18.9077
39.7675 18.7943
39.815 18.7727
39.8624 18.6775
39.9099 18.6458
39.9575 18.4811
40.0049 18.431
40.0525 18.4207
40.0999 18.4075
40.1474 18.3673
40.1949 18.2676
40.2425 18.2039
40.2899 18.1897
40.3375 18.1064
40.385 17.9937
40.4326 17.9833
40.48 17.8883
40.5277 17.9013
40.5752 17.7299
40.6228 17.6841
40.6703 17.6693
40.718 17.6034
40.7655 17.5935
40.8132 17.4947
40.8607 17.5247
40.9084 17.413
40.9559 17.3635
41.0036 17.337
41.0512 17.2729
41.0989 17.2069
41.1465 17.1306
41.1942 17.0815
41.242 16.9946
41.2896 16.9157
41.3373 16.8763
41.3849 16.8288
41.4327 16.8223
41.4803 16.7188
41.5281 16.6764
41.5758 16.5783
41.6236 16.5108
41.6712 16.4922
41.7191 16.4248
41.7667 16.347
41.8146 16.3281
41.8622 16.3078
41.9101 16.2823
41.9578 16.1258
42.0057 16.1229
42.0534 16.0429
42.1013 16.0263
42.149 15.9614
42.1969 15.8956
42.2446 15.8521
42.2925 15.8068
42.3403 15.7366
42.3882 15.6748
42.436 15.6599
42.4839 15.6124
42.5319 15.5475
42.5797 15.4659
42.6277 15.4301
42.6755 15.3311
42.7235 15.289
42.7713 15.2923
42.8193 15.2208
42.8671 15.2622
42.9152 15.1184
42.963 15.0602
43.0111 15.0001
43.0589 14.926
43.107 14.8963
43.1549 14.8692
43.2029 14.7541
43.2508 14.732
43.2989 14.64
43.3468 14.6508
43.3949 14.6227
43.4429 14.5597
43.491 14.4838
43.5389 14.4263
43.5871 14.4138
43.635 14.3136
43.6832 14.2944
43.7312 14.2216
43.7793 14.1312
43.8273 14.1361
43.8755 14.0875
43.9237 14.0557
43.9717 14.0024
44.0199 13.9641
44.068 13.9075
44.1162 13.8285
44.1642 13.8139
44.2125 13.8042
44.2606 13.7596
44.3088 13.6482
44.3569 13.6074
44.4052 13.5849
44.4533 13.4975
44.5016 13.4636
44.5497 13.458
44.598 13.4202
44.6461 13.2965
44.6945 13.3087
44.7426 13.2785
44.791 13.1349
44.8391 13.1779
44.8875 13.1326
44.9357 13.0842
44.984 13.0139
45.0322 12.985
45.0806 12.8722
45.1288 12.8472
45.1773 12.855
45.2257 12.7415
45.2739 12.7727
45.3224 12.6604
45.3706 12.6575
45.4191 12.5602
45.4673 12.5663
45.5158 12.5497
45.5641 12.4495
45.6126 12.4211
45.6609 12.3802
45.7094 12.2848
45.7577 12.2948
45.8063 12.2551
45.8546 12.2614
45.9031 12.1323
45.9515 12.103
46.0001 12.0776
46.0484 12.0031
46.097 12.004
46.1454 11.9631
46.194 11.9374
46.2424 11.8837
46.291 11.8514
46.3395 11.785
46.3881 11.7258
46.4365 11.6863
46.4852 11.6548
46.5337 11.5605
46.5823 11.5846
46.631 11.508
46.6795 11.4315
46.7282 11.4232
46.7767 11.3902
46.8254 11.3616
46.8739 11.3255
46.9226 11.2389
46.9712 11.2177
47.0199 11.1682
47.0685 11.1389
47.1173 11.0558
47.1658 11.0812
47.2146 11.0329
47.2632 10.9334
47.312 10.9406
47.3606 10.8665
47.4095 10.8167
47.4581 10.7786
47.5069 10.7653
47.5556 10.6894
47.6044 10.642
47.6531 10.6301
47.702 10.5718
47.7507 10.5283
47.7996 10.5254
47.8483 10.4642
47.8972 10.4497
47.9461 10.4125
47.9948 10.32
48.0438 10.3297
48.0925 10.3096
48.1415 10.2757
48.1902 10.1914
48.2392 10.1732
48.288 10.1611
48.337 10.1527
48.3858 10.0703
48.4348 10.0297
48.4837 10.0127
48.5327 10.0048
48.5815 9.94354
48.6306 9.86948
48.6795 9.88257
48.7285 9.82662
48.7774 9.78738
48.8265 9.75855
48.8754 9.69441
48.9245 9.65704
48.9734 9.65676
49.0226 9.60451
49.0715 9.58556
49.1206 9.55427
49.1696 9.50566
49.2188 9.41842
49.2679 9.3816
49.3169 9.36189
49.3661 9.33078
49.4151 9.29768
49.4643 9.29431
49.5134 9.29736
49.5626 9.16488
49.6117 9.21447
49.6609 9.13329
49.71 9.04373
49.7592 9.05002
49.8083 9.05945
49.8576 9.00551
49.9067 8.94046
49.956 8.95524
50.0052 8.88085
50.0545 8.86271
50.1036 8.81679
50.153 8.80693
50.2022 8.75404
50.2515 8.72701
50.3007 8.65986
50.3501 8.68713
50.3993 8.60704
50.4487 8.58493
50.498 8.56727
50.5474 8.48957
50.5966 8.50617
50.6461 8.45106
50.6955 8.43961
50.7448 8.37167
50.7943 8.38734
50.8436 8.3167
50.8931 8.27902
50.9424 8.28064
50.9919 8.24803
51.0413 8.235
51.0908 8.15765
51.1402 8.13304
51.1897 8.06561
51.2391 8.0723
51.2887 8.01034
51.3381 7.96227
51.3877 7.95679
51.4371 7.94765
51.4867 7.91268
51.5362 7.84775
51.5858 7.82693
51.6353 7.78425
51.6849 7.79362
51.7344 7.72875
51.7841 7.7247
51.8336 7.69078
51.8833 7.68165
51.9328 7.60513
51.9826 7.56276
52.0323 7.54354
52.0818 7.51393
52.1316 7.46886
52.1812 7.46307
52.231 7.40417
52.2806 7.39205
52.3304 7.40911
52.38 7.33895
52.4298 7.28997
52.4794 7.31824
52.5293 7.25119
52.5789 7.21273
52.6288 7.1852
52.6785 7.13186
52.7284 7.14141
52.7781 7.08529
52.828 7.02886
52.8777 7.01719
52.9276 7.0199
52.9774 6.94459
53.0273 6.9543
53.0771 6.94609
53.1271 6.87596
53.1769 6.83826
53.2269 6.85381
53.2767 6.76967
53.3267 6.76113
53.3765 6.74289
53.4266 6.76102
53.4766 6.68698
53.5265 6.66635
53.5765 6.59987
53.6264 6.60556
53.6765 6.57084
53.7264 6.50658
53.7765 6.5325
53.8265 6.47467
53.8766 6.43945
53.9266 6.43778
53.9767 6.34914
54.0267 6.31881
54.0769 6.32784
54.1269 6.29778
54.1771 6.24025
54.2271 6.25524
54.2773 6.20191
54.3274 6.16319
54.3776 6.1408
54.4277 6.08834
54.478 6.04929
54.528 6.01295
54.5783 5.96584
54.6285 5.93901
54.6788 5.88501
54.7289 5.79381
54.7792 5.87959
54.8296 5.76748
54.8798 5.70738
54.9301 5.70602
54.9803 5.65262
55.0307 5.62346
55.0809 5.5362
55.1314 5.55329
55.1816 5.49759
55.232 5.43437
55.2823 5.40838
55.3328 5.3296
55.383 5.27138
55.4335 5.2256
55.4838 5.15442
55.5344 5.15278
55.5847 5.06126
55.6352 5.06764
55.6856 5.03392
55.7361 4.96712