File: XRD/Ni3Fe_FD0601.xy
TT I
1.27165 7.66737
1.31627 6.32119
1.36089 6.56263
1.40551 5.75291
1.45013 6.31526
1.49476 6.18961
1.53938 5.72116
1.584 4.85497
1.62863 5.80767
1.67325 5.0436
1.71787 4.72872
1.7625 4.91773
1.80712 4.61721
1.85174 5.12945
1.89636 4.98998
1.94099 4.67592
1.98562 4.41594
2.03025 4.07208
2.07487 4.28878
2.11949 4.83299
2.16411 4.85073
2.20874 9.25911
2.25338 11.9473
2.298 5.16082
2.34263 5.13747
2.38725 5.73693
2.43188 5.34092
2.4765 6.33807
2.52115 6.88129
2.56577 7.42616
2.6104 7.83753
2.65503 7.38988
2.69965 7.80254
2.7443 7.85484
2.78893 8.00647
2.83356 8.23341
2.87818 8.4574
2.92281 8.92593
2.96744 8.85531
3.01209 10.2854
3.05672 10.7883
3.10135 12.07
3.14599 12.8358
3.19062 13.8824
3.23527 14.8497
3.2799 15.6173
3.32454 16.8387
3.36917 17.957
3.4138 18.3613
3.45844 19.3408
3.50309 20.7003
3.54773 21.1306
3.59237 23.1916
3.637 53.9025
3.68164 38.4006
3.7263 25.5326
3.77094 25.8186
3.81558 26.9145
3.86022 27.7434
3.90486 28.7421
3.9495 29.8152
3.99416 31.0035
4.0388 32.0112
4.08344 33.525
4.12809 35.1911
4.17273 36.4947
4.21738 40.6729
4.26204 133.699
4.30669 112.705
4.35133 45.3192
4.39598 44.2143
4.44063 49.8166
4.4853 54.9916
4.52995 53.8143
4.5746 54.7399
4.61925 54.0527
4.6639 55.9504
4.70855 58.8663
4.75322 61.9419
4.79788 66.6078
4.84253 68.4676
4.88719 74.2254
4.93184 77.0084
4.97652 82.3024
5.02118 89.1781
5.06583 97.4794
5.11049 109.425
5.15515 158.519
5.19981 432.528
5.24449 3235.34
5.28916 12276.1
5.33382 2942.41
5.37848 205.433
5.42315 133.405
5.46783 118.594
5.5125 111.091
5.55716 104.114
5.60183 99.7788
5.6465 97.7038
5.69117 95.7812
5.73586 94.1744
5.78053 96.5003
5.8252 96.2993
5.86988 97.6909
5.91455 96.9774
5.95924 106.888
6.00392 253.238
6.0486 1097.88
6.09328 4270.68
6.13795 3383.07
6.18263 249.106
6.22733 94.2038
6.27201 82.6466
6.3167 87.6816
6.36138 75.8767
6.40606 69.9099
6.45075 68.6467
6.49545 65.8342
6.54014 64.286
6.58483 63.125
6.62952 62.8969
6.67421 77.1222
6.71892 96.1868
6.76361 63.2207
6.8083 59.5056
6.853 58.8786
6.89769 57.0813
6.94239 56.7807
6.98711 56.171
7.03181 56.0839
7.07651 55.2915
7.12121 55.5966
7.16591 56.3885
7.21063 55.5544
7.25533 62.3174
7.30004 107.04
7.34475 69.9762
7.38945 55.4661
7.43416 53.9392
7.47889 54.3541
7.5236 54.5223
7.56831 55.8857
7.61303 56.4116
7.65774 56.2836
7.70247 56.6777
7.74719 56.6786
7.79191 56.9167
7.83663 57.262
7.88135 57.8337
7.92607 58.9048
7.97081 60.2882
8.01553 61.2199
8.06026 63.1674
8.10498 64.6166
8.14971 70.7937
8.19446 70.7725
8.23919 70.0528
8.28392 72.5824
8.32865 75.276
8.37339 79.8444
8.41812 85.4657
8.46288 105.07
8.50761 184.339
8.55235 435.055
8.59709 1237.5
8.64183 2153.94
8.68658 993.481
8.73134 168.62
8.77609 100.73
8.82083 94.0667
8.86558 92.4028
8.91033 91.5643
8.9551 89.7798
8.99985 86.015
9.04461 84.7642
9.08936 84.5801
9.13412 83.8362
9.17888 83.0259
9.22365 82.9477
9.26841 82.9578
9.31318 84.9875
9.35794 85.5958
9.4027 85.5647
9.44749 85.5713
9.49226 86.0873
9.53703 86.7502
9.5818 89.5351
9.62657 93.4359
9.67134 95.442
9.71614 94.0711
9.76091 95.5355
9.80569 99.1597
9.85047 101.975
9.89525 114.612
9.94005 128.917
9.98484 198.847
10.0296 381.507
10.0744 873.465
10.1192 1670.14
10.164 1544.27
10.2088 410.893
10.2536 128.726
10.2984 111.558
10.3432 110.384
10.388 106.305
10.4328 124.685
10.4776 170.918
10.5224 299.844
10.5672 503.225
10.612 483.187
10.6568 205.688
10.7017 97.5316
10.7465 87.3896
10.7913 84.0949
10.8361 81.7185
10.8809 79.625
10.9257 78.4598
10.9706 78.3798
11.0154 75.6851
11.0602 73.3327
11.105 72.1535
11.1499 73.2949
11.1947 75.9134
11.2395 71.2182
11.2844 69.4198
11.3292 67.6489
11.374 66.4385
11.4189 66.1503
11.4637 65.1537
11.5086 65.2397
11.5534 66.1184
11.5983 64.8414
11.6431 63.9035
11.688 63.5356
11.7328 63.2779
11.7777 63.0791
11.8225 63.1967
11.8674 62.9854
11.9122 63.2703
11.9571 63.5048
12.002 64.8564
12.0468 70.336
12.0917 81.7976
12.1366 107.252
12.1814 154.808
12.2263 198.426
12.2712 165.673
12.3161 94.5183
12.3609 68.2193
12.4058 64.7186
12.4507 64.7364
12.4956 65.0572
12.5405 64.9939
12.5853 65.7185
12.6302 69.3904
12.6751 72.0321
12.72 68.7068
12.7649 68.33
12.8098 68.9866
12.8547 70.4181
12.8996 72.015
12.9445 73.8121
12.9894 75.0847
13.0343 76.6883
13.0792 80.8984
13.1242 93.369
13.1691 116.032
13.214 158.494
13.2589 253.108
13.3038 366.35
13.3487 414.272
13.3937 265.27
13.4386 128.051
13.4835 109.386
13.5285 126.24
13.5734 169.405
13.6183 254.413
13.6633 341.499
13.7082 329.275
13.7531 191.906
13.7981 100.874
13.843 82.7653
13.888 80.3711
13.9329 77.8715
13.9779 76.5472
14.0228 75.18
14.0678 73.927
14.1127 73.0778
14.1577 72.7201
14.2027 72.076
14.2476 71.0495
14.2926 70.9534
14.3376 71.0966
14.3825 70.4053
14.4275 69.6902
14.4725 69.4806
14.5175 69.5567
14.5624 69.6526
14.6074 70.8632
14.6524 71.3702
14.6974 71.4277
14.7424 74.3568
14.7874 81.4033
14.8324 92.4658
14.8774 116.823
14.9224 158.972
14.9674 205.836
15.0124 213.651
15.0574 150.395
15.1024 92.5872
15.1474 73.2805
15.1924 70.9337
15.2374 70.2135
15.2824 69.5615
15.3274 68.2028
15.3725 67.3618
15.4175 67.1023
15.4625 66.6247
15.5076 66.5994
15.5526 66.3358
15.5976 66.5742
15.6426 68.8318
15.6877 74.3006
15.7327 82.6397
15.7778 99.7189
15.8228 130.954
15.8679 169.014
15.9129 188.359
15.958 153.547
16.003 96.6586
16.0481 68.1438
16.0931 64.1083
16.1382 62.2302
16.1833 60.8918
16.2283 59.4949
16.2734 58.782
16.3185 58.4297
16.3636 58.596
16.4086 57.1987
16.4537 56.188
16.4988 55.866
16.5439 55.732
16.589 55.5872
16.6341 55.198
16.6792 55.0699
16.7243 55.1216
16.7694 55.2215
16.8145 55.0708
16.8596 55.5158
16.9047 56.1774
16.9498 56.268
16.9949 55.987
17.04 56.5412
17.0851 57.6847
17.1302 59.498
17.1754 62.658
17.2205 67.9222
17.2656 75.0985
17.3108 81.7069
17.3559 81.9922
17.401 72.4154
17.4462 63.12
17.4913 59.6406
17.5365 59.6177
17.5815 59.8612
17.6268 60.1386
17.6718 60.7047
17.7171 61.1944
17.7622 61.8905
17.8074 62.9198
17.8525 65.8434
17.8977 69.4622
17.9428 75.6689
17.9881 85.8677
18.0331 102.569
18.0784 121.564
18.1237 138.096
18.1688 132.434
18.214 106.136
18.2591 88.9372
18.3044 92.1311
18.3495 100.266
18.3948 104.447
18.4399 95.7002
18.4852 78.5492
18.5303 66.6488
18.5756 62.828
18.6207 61.8114
18.666 60.7374
18.7112 60.2805
18.7565 59.4229
18.8016 59.0376
18.8469 58.5825
18.892 58.0869
18.9374 57.7642
18.9825 57.4561
19.0278 57.384
19.073 57.5676
19.1183 58.0716
19.1635 58.6267
19.2088 60.2822
19.254 63.0048
19.2993 67.3556
19.3447 72.221
19.3898 75.2046
19.4352 71.764
19.4804 63.93
19.5257 57.6321
19.5709 54.8362
19.6163 54.5212
19.6615 54.131
19.7068 53.6797
19.752 53.8173
19.7974 54.1533
19.8426 55.0783
19.888 55.684
19.9332 56.9002
19.9786 59.6976
20.0238 63.2521
20.0692 67.394
20.1144 69.426
20.1598 68.3964
20.205 64.6312
20.2504 63.0693
20.2957 63.7748
20.3411 65.1084
20.3863 64.1783
20.4318 58.9931
20.477 53.9263
20.5224 51.6574
20.5677 51.0228
20.6131 50.4644
20.6586 50.106
20.7038 49.9145
20.7493 49.517
20.7945 49.2526
20.84 49.2318
20.8853 48.9726
20.9307 49.1353
20.976 49.2756
21.0215 49.1012
21.0668 49.5218
21.1122 49.9994
21.1575 50.4977
21.203 51.2147
21.2483 51.6148
21.2938 51.7713
21.3391 50.3865
21.3846 49.4117
21.4299 48.9796
21.4754 48.8495
21.5207 49.0441
21.5662 49.2563
21.6116 49.7997
21.6571 50.4966
21.7024 51.4804
21.7479 53.6042
21.7933 56.2217
21.8388 59.4053
21.8843 62.6392
21.9297 64.4906
21.9752 63.4722
22.0206 60.0668
22.0661 57.0352
22.1115 56.1722
22.157 56.0755
22.2024 54.5485
22.248 51.9186
22.2933 50.3071
22.3389 49.4655
22.3843 49.274
22.4299 49.0724
22.4753 49.1484
22.5208 48.8346
22.5662 48.9589
22.6118 49.1977
22.6572 49.2662
22.7028 49.8084
22.7483 50.1818
22.7939 50.8809
22.8393 52.7001
22.8849 54.5506
22.9303 56.2146
22.9759 57.5762
23.0214 57.4476
23.067 54.8335
23.1126 51.4955
23.1581 49.6817
23.2037 49.1724
23.2492 49.1788
23.2948 49.259
23.3403 49.5699
23.3859 50.4598
23.4314 51.5097
23.477 53.1728
23.5225 55.0906
23.5682 56.8098
23.6137 57.7273
23.6593 55.8522
23.7048 51.9599
23.7505 48.8495
23.796 46.9877
23.8417 46.1908
23.8872 45.9406
23.9329 45.6312
23.9784 45.192
24.0241 44.9106
24.0697 44.6598
24.1154 44.4908
24.1609 44.3491
24.2066 44.0987
24.2522 43.8491
24.2979 43.6875
24.3434 43.4342
24.3892 43.3094
24.4349 43.334
24.4805 43.2749
24.5262 43.4605
24.5718 43.3352
24.6175 43.1387
24.6631 43.0231
24.7089 42.8833
24.7545 42.6857
24.8002 42.5189
24.8458 42.6276
24.8916 42.3816
24.9372 42.4615
24.983 42.8335
25.0286 43.2615
25.0744 43.7293
25.12 44.1444
25.1658 44.7314
25.2114 45.0978
25.2572 45.075
25.3029 45.1808
25.3487 45.0906
25.3943 44.8083
25.4402 43.6056
25.4858 42.8411
25.5316 41.6654
25.5773 41.1615
25.6231 41.2371
25.669 40.9221
25.7147 40.8039
25.7605 40.7943
25.8062 40.7839
25.8521 40.895
25.8977 40.7572
25.9436 41.2986
25.9893 41.3061
26.0352 41.8347
26.0809 41.7056
26.1268 41.9992
26.1725 41.5669
26.2184 41.08
26.2641 40.5785
26.31 40.4243
26.3557 40.4389
26.4017 40.5562
26.4474 40.7946
26.4933 41.1873
26.5391 41.5539
26.585 41.9206
26.6308 42.1717
26.6767 42.3875
26.7225 42.2524
26.7684 41.5849
26.8142 41.0965
26.8601 40.6648
26.9059 40.2038
26.9519 39.7692
26.9979 39.3463
27.0437 39.1573
27.0896 39.0791
27.1354 39.1585
27.1814 38.8799
27.2272 38.8461
27.2732 38.8684
27.3191 38.6376
27.3651 38.7736
27.4109 38.5927
27.4569 38.8238
27.5027 38.8093
27.5488 38.9026
27.5946 38.6614
27.6407 38.4538
27.6865 38.2997
27.7326 38.0965
27.7784 38.2612
27.8245 38.104
27.8703 38.388
27.9164 38.5628
27.9623 38.6397
28.0084 38.9858
28.0543 39.2872
28.1003 39.1849
28.1462 39.0272
28.1923 38.7242
28.2384 38.1697
28.2843 37.9195
28.3304 37.4444
28.3764 36.8942
28.4225 36.6768
28.4684 36.5689
28.5145 36.3078
28.5605 36.0777
28.6066 35.9458
28.6526 35.8287
28.6987 35.9241
28.7447 35.6966
28.7908 35.6511
28.8368 35.8033
28.8829 35.5853
28.9289 35.5564
28.9751 35.4078
29.0211 35.1253
29.0673 34.9916
29.1133 34.8222
29.1595 34.654
29.2055 34.5988
29.2517 34.6397
29.2977 34.6028
29.3439 34.513
29.3899 34.4092
29.4361 34.309
29.4824 34.207
29.5284 34.0121
29.5746 33.7309
29.6207 33.3664
29.6669 33.3137
29.713 33.1178
29.7593 33.0735
29.8053 33.1086
29.8516 32.9999
29.8977 33.0695
29.9439 32.8706
29.99 32.8207
30.0363 32.5942
30.0824 32.7158
30.1287 32.5312
30.1748 32.8176
30.2211 32.652
30.2673 32.4109
30.3136 32.608
30.3597 32.5184
30.406 32.5053
30.4522 32.3337
30.4985 32.2153
30.5447 32.3189
30.591 32.3457
30.6372 32.2457
30.6835 32.3092
30.7297 32.4213
30.7761 32.3149
30.8224 32.1845
30.8686 32.1404
30.915 31.7741
30.9612 31.7283
31.0076 31.4726
31.0538 31.3731
31.1002 31.328
31.1464 31.0905
31.1928 31.1435
31.2391 31.1053
31.2855 31.0449
31.3317 31.0678
31.3781 31.1851
31.4244 31.1002
31.4708 31.0664
31.5171 31.0406
31.5636 30.882
31.6098 30.8079
31.6563 30.5872
31.7026 30.4455
31.7491 30.3087
31.7953 30.4079
31.8418 30.3784
31.8881 30.3713
31.9346 30.2844
31.9809 30.1657
32.0275 30.0551
32.074 30.0728
32.1203 29.85
32.1668 29.6195
32.2132 29.5998
32.2597 29.5521
32.306 29.3593
32.3526 29.1663
32.399 29.1206
32.4455 28.9782
32.4919 28.9031
32.5385 28.8543
32.5848 28.651
32.6314 28.6436
32.6778 28.5935
32.7244 28.5653
32.7708 28.3907
32.8174 28.4
32.8638 28.1874
32.9104 28.2229
32.9569 28.3215
33.0035 28.008
33.0499 28.0114
33.0966 27.9094
33.143 27.9642
33.1897 27.8048
33.2361 27.8044
33.2828 27.7131
33.3293 27.4755
33.3759 27.56
33.4226 27.4179
33.4691 27.3454
33.5158 27.2716
33.5623 27.0373
33.609 26.9688
33.6555 26.8667
33.7022 26.8678
33.7487 26.7491
33.7954 26.6851
33.842 26.6383
33.8887 26.4431
33.9353 26.4345
33.982 26.2509
34.0286 26.24
34.0753 26.1507
34.1219 26.0961
34.1687 26.0335
34.2152 25.9165
34.262 25.8397
34.3086 25.7543
34.3554 25.6639
34.402 25.5692
34.4488 25.4211
34.4954 25.369
34.5422 25.3039
34.5889 25.2581
34.6357 25.1168
34.6825 25.0738
34.7292 24.9993
34.776 24.9323
34.8227 24.8522
34.8695 24.834
34.9162 24.693
34.9631 24.6293
35.0098 24.6431
35.0566 24.51
35.1033 24.4714
35.1502 24.4413
35.1969 24.4313
35.2438 24.3695
35.2906 24.2527
35.3375 24.1632
35.3842 24.1672
35.4311 24.0089
35.4779 24.077
35.5248 24.0277
35.5716 23.9047
35.6185 23.7997
35.6653 23.8294
35.7123 23.7006
35.759 23.605
35.806 23.548
35.8528 23.3983
35.8998 23.3235
35.9468 23.2802
35.9936 23.2423
36.0406 23.1985
36.0874 23.196
36.1345 23.0555
36.1813 23.0425
36.2283 22.8265
36.2752 22.7798
36.3222 22.8048
36.3691 22.6985
36.4161 22.5881
36.463 22.5765
36.5101 22.6638
36.557 22.5048
36.6041 22.354
36.651 22.3165
36.6981 22.2807
36.745 22.1986
36.7921 22.1418
36.839 22.0639
36.8861 21.9771
36.9331 21.806
36.9802 21.721
37.0272 21.6401
37.0743 21.7059
37.1213 21.5519
37.1684 21.5013
37.2154 21.4648
37.2626 21.3532
37.3098 21.3857
37.3568 21.2571
37.404 21.167
37.451 21.1061
37.4982 21.048
37.5452 21.0004
37.5924 20.9249
37.6395 20.9602
37.6867 20.8835
37.7337 20.7786
37.781 20.5942
37.8281 20.5727
37.8753 20.5253
37.9224 20.4229
37.9697 20.425
38.0168 20.3873
38.064 20.2475
38.1111 20.2287
38.1584 20.1229
38.2056 20.046
38.2529 20.0362
38.3 19.9458
38.3473 19.9208
38.3945 19.8277
38.4418 19.7902
38.489 19.7537
38.5363 19.6213
38.5837 19.5493
38.6309 19.5299
38.6782 19.4975
38.7254 19.4494
38.7728 19.3315
38.82 19.2277
38.8674 19.2517
38.9146 19.1692
38.9621 19.0798
39.0093 19.076
39.0567 18.9593
39.104 18.8726
39.1514 18.8017
39.1987 18.7736
39.2461 18.8112
39.2934 18.6952
39.3409 18.5185
39.3882 18.4692
39.4356 18.514
39.483 18.4125
39.5304 18.3395
39.5778 18.356
39.6253 18.2669
39.6726 18.2289
39.7201 18.1994
39.7675 18.105
39.815 18.0216
39.8624 17.9653
39.9099 18.0023
39.9575 17.8466
40.0049 17.7911
40.0525 17.7234
40.0999 17.7419
40.1474 17.6802
40.1949 17.59
40.2425 17.4783
40.2899 17.4848
40.3375 17.4282
40.385 17.3306
40.4326 17.2243
40.48 17.1891
40.5277 17.2473
40.5752 17.1283
40.6228 17.0491
40.6703 16.9648
40.718 16.9751
40.7655 16.9453
40.8132 16.8587
40.8607 16.8572
40.9084 16.7553
40.9559 16.7051
41.0036 16.6601
41.0512 16.6163
41.0989 16.5385
41.1465 16.4633
41.1942 16.4464
41.242 16.3718
41.2896 16.3148
41.3373 16.2356
41.3849 16.2066
41.4327 16.1644
41.4803 16.0959
41.5281 16.0361
41.5758 15.9643
41.6236 15.9586
41.6712 15.82
41.7191 15.7943
41.7667 15.7605
41.8146 15.7148
41.8622 15.6811
41.9101 15.6488
41.9578 15.5215
42.0057 15.5012
42.0534 15.507
42.1013 15.4369
42.149 15.3863
42.1969 15.3009
42.2446 15.2913
42.2925 15.1943
42.3403 15.1198
42.3882 15.0955
42.436 15.0762
42.4839 14.985
42.5319 14.9864
42.5797 14.9257
42.6277 14.8482
42.6755 14.785
42.7235 14.7579
42.7713 14.7316
42.8193 14.6504
42.8671 14.5672
42.9152 14.5709
42.963 14.4823
43.0111 14.4024
43.0589 14.3851
43.107 14.3307
43.1549 14.2947
43.2029 14.2606
43.2508 14.1918
43.2989 14.1104
43.3468 14.1127
43.3949 14.0483
43.4429 14.0055
43.491 13.987
43.5389 13.9293
43.5871 13.8955
43.635 13.8175
43.6832 13.7786
43.7312 13.7104
43.7793 13.6664
43.8273 13.628
43.8755 13.5517
43.9237 13.5662
43.9717 13.5252
44.0199 13.4156
44.068 13.4158
44.1162 13.3581
44.1642 13.3378
44.2125 13.278
44.2606 13.2138
44.3088 13.131
44.3569 13.0775
44.4052 13.0936
44.4533 13.0119
44.5016 12.9698
44.5497 12.9993
44.598 12.8686
44.6461 12.8795
44.6945 12.7986
44.7426 12.7662
44.791 12.6889
44.8391 12.6652
44.8875 12.6287
44.9357 12.5897
44.984 12.5855
45.0322 12.4827
45.0806 12.4359
45.1288 12.3942
45.1773 12.3724
45.2257 12.3132
45.2739 12.3054
45.3224 12.2022
45.3706 12.2132
45.4191 12.1652
45.4673 12.0891
45.5158 12.0794
45.5641 11.9116
45.6126 12.026
45.6609 11.9706
45.7094 11.8418
45.7577 11.845
45.8063 11.7604
45.8546 11.792
45.9031 11.7332
45.9515 11.72
46.0001 11.6085
46.0484 11.5513
46.097 11.5348
46.1454 11.4998
46.194 11.4842
46.2424 11.4089
46.291 11.3972
46.3395 11.3271
46.3881 11.2614
46.4365 11.2817
46.4852 11.2028
46.5337 11.1527
46.5823 11.1087
46.631 11.0859
46.6795 11.0453
46.7282 10.9869
46.7767 10.9913
46.8254 10.9005
46.8739 10.8808
46.9226 10.8025
46.9712 10.7641
47.0199 10.7365
47.0685 10.7248
47.1173 10.6776
47.1658 10.6389
47.2146 10.6209
47.2632 10.5441
47.312 10.5425
47.3606 10.5038
47.4095 10.443
47.4581 10.4201
47.5069 10.3501
47.5556 10.3634
47.6044 10.2877
47.6531 10.2856
47.702 10.1922
47.7507 10.198
47.7996 10.1449
47.8483 10.0946
47.8972 10.0825
47.9461 10.0406
47.9948 9.97556
48.0438 9.9702
48.0925 9.97483
48.1415 9.90373
48.1902 9.82824
48.2392 9.85417
48.288 9.78426
48.337 9.77132
48.3858 9.72603
48.4348 9.68609
48.4837 9.66077
48.5327 9.63868
48.5815 9.54269
48.6306 9.58199
48.6795 9.49156
48.7285 9.46382
48.7774 9.43077
48.8265 9.3914
48.8754 9.36003
48.9245 9.35591
48.9734 9.30537
49.0226 9.26531
49.0715 9.25094
49.1206 9.20273
49.1696 9.1564
49.2188 9.14358
49.2679 9.09359
49.3169 9.06892
49.3661 9.00002
49.4151 8.9882
49.4643 8.95524
49.5134 8.89879
49.5626 8.85132
49.6117 8.85
49.6609 8.82709
49.71 8.73656
49.7592 8.73002
49.8083 8.69723
49.8576 8.65003
49.9067 8.61527
49.956 8.61227
50.0052 8.56667
50.0545 8.53495
50.1036 8.52506
50.153 8.46701
50.2022 8.42224
50.2515 8.39863
50.3007 8.36423
50.3501 8.33408
50.3993 8.28175
50.4487 8.28971
50.498 8.26758
50.5474 8.2293
50.5966 8.2058
50.6461 8.15464
50.6955 8.13974
50.7448 8.10949
50.7943 8.08215
50.8436 8.04588
50.8931 8.0234
50.9424 7.98337
50.9919 7.94364
51.0413 7.87614
51.0908 7.86803
51.1402 7.85653
51.1897 7.82971
51.2391 7.77687
51.2887 7.76277
51.3381 7.69966
51.3877 7.68624
51.4371 7.63883
51.4867 7.62871
51.5362 7.59349
51.5858 7.55964
51.6353 7.5598
51.6849 7.48176
51.7344 7.48702
51.7841 7.47286
51.8336 7.39813
51.8833 7.38049
51.9328 7.30781
51.9826 7.29776
52.0323 7.25565
52.0818 7.25669
52.1316 7.22783
52.1812 7.19214
52.231 7.17883
52.2806 7.11513
52.3304 7.1279
52.38 7.06608
52.4298 7.01504
52.4794 6.97136
52.5293 6.98305
52.5789 6.9382
52.6288 6.9295
52.6785 6.88415
52.7284 6.83313
52.7781 6.8429
52.828 6.84187
52.8777 6.74672
52.9276 6.75769
52.9774 6.73226
53.0273 6.67763
53.0771 6.661
53.1271 6.63258
53.1769 6.57111
53.2269 6.59317
53.2767 6.56069
53.3267 6.53559
53.3765 6.54457
53.4266 6.49746
53.4766 6.43781
53.5265 6.42904
53.5765 6.37651
53.6264 6.35747
53.6765 6.35321
53.7264 6.32168
53.7765 6.26421
53.8265 6.25023
53.8766 6.2119
53.9266 6.20642
53.9767 6.19063
54.0267 6.14765
54.0769 6.132
54.1269 6.05472
54.1771 6.05327
54.2271 6.02008
54.2773 5.98585
54.3274 5.99256
54.3776 5.96022
54.4277 5.88403
54.478 5.90168
54.528 5.84178
54.5783 5.81364
54.6285 5.74077
54.6788 5.71135
54.7289 5.68493
54.7792 5.61524
54.8296 5.59032
54.8798 5.4962
54.9301 5.48375
54.9803 5.49613
55.0307 5.4419
55.0809 5.38099
55.1314 5.3722
55.1816 5.30931
55.232 5.28539
55.2823 5.22586
55.3328 5.16273
55.383 5.13299
55.4335 5.12676
55.4838 5.06236
55.5344 4.99392
55.5847 4.95053
55.6352 4.89639
55.6856 4.85498
55.7361 4.87672