File: XRD/Ni3Fe_FD0659.xy
TT I
1.27165 7.22507
1.31627 6.0612
1.36089 6.42744
1.40551 5.81084
1.45013 5.71977
1.49476 5.62122
1.53938 5.76434
1.584 5.21058
1.62863 4.96033
1.67325 4.50516
1.71787 5.34864
1.7625 5.11325
1.80712 4.9956
1.85174 4.66908
1.89636 4.59201
1.94099 4.96652
1.98562 4.69533
2.03025 4.5601
2.07487 5.03248
2.11949 5.37023
2.16411 5.03958
2.20874 15.2416
2.25338 25.7516
2.298 6.08471
2.34263 4.88826
2.38725 5.48395
2.43188 5.79631
2.4765 6.51552
2.52115 7.08425
2.56577 7.09059
2.6104 7.8295
2.65503 7.91733
2.69965 8.42112
2.7443 8.03329
2.78893 8.06653
2.83356 8.36857
2.87818 8.16986
2.92281 8.96997
2.96744 9.6004
3.01209 10.1535
3.05672 10.6635
3.10135 12.0807
3.14599 12.3703
3.19062 14.0924
3.23527 14.9169
3.2799 15.113
3.32454 16.8996
3.36917 17.5795
3.4138 18.893
3.45844 19.5635
3.50309 21.1628
3.54773 21.7468
3.59237 24.2035
3.637 102.037
3.68164 63.707
3.7263 26.6554
3.77094 26.4138
3.81558 27.2448
3.86022 27.6654
3.90486 29.5482
3.9495 30.0128
3.99416 30.6728
4.0388 32.2921
4.08344 33.7152
4.12809 34.8839
4.17273 37.2331
4.21738 43.8282
4.26204 279.236
4.30669 245.087
4.35133 49.5224
4.39598 44.6886
4.44063 55.5187
4.4853 68.1528
4.52995 50.7107
4.5746 51.204
4.61925 52.8787
4.6639 55.0419
4.70855 57.901
4.75322 60.6156
4.79788 63.6702
4.84253 67.0435
4.88719 70.623
4.93184 74.6443
4.97652 80.4654
5.02118 86.4097
5.06583 94.3199
5.11049 105.939
5.15515 178.62
5.19981 325.0
5.24449 2674.93
5.28916 12641.7
5.33382 2937.34
5.37848 188.634
5.42315 127.766
5.46783 112.854
5.5125 105.213
5.55716 101.797
5.60183 97.7523
5.6465 96.7577
5.69117 93.465
5.73586 92.0657
5.78053 91.2486
5.8252 90.31
5.86988 91.4494
5.91455 93.39
5.95924 100.758
6.00392 188.567
6.0486 894.573
6.09328 4533.71
6.13795 3319.02
6.18263 230.322
6.22733 92.8235
6.27201 82.7479
6.3167 105.377
6.36138 81.8434
6.40606 68.9983
6.45075 67.0821
6.49545 65.4476
6.54014 63.9939
6.58483 62.7645
6.62952 63.0259
6.67421 98.3043
6.71892 157.248
6.76361 70.3158
6.8083 58.8537
6.853 57.3149
6.89769 56.9569
6.94239 56.4326
6.98711 55.8969
7.03181 55.5266
7.07651 55.7101
7.12121 55.252
7.16591 55.8755
7.21063 55.6447
7.25533 72.136
7.30004 197.459
7.34475 97.0474
7.38945 57.1343
7.43416 54.8417
7.47889 54.728
7.5236 54.697
7.56831 55.4725
7.61303 57.3062
7.65774 57.7312
7.70247 56.1032
7.74719 56.0341
7.79191 56.7355
7.83663 56.8058
7.88135 57.9062
7.92607 59.0036
7.97081 60.0197
8.01553 60.5361
8.06026 61.9243
8.10498 63.9192
8.14971 74.2576
8.19446 73.0866
8.23919 69.5162
8.28392 71.8232
8.32865 73.7752
8.37339 78.137
8.41812 85.2552
8.46288 116.795
8.50761 156.309
8.55235 368.702
8.59709 1156.7
8.64183 2240.95
8.68658 948.528
8.73134 159.399
8.77609 99.1957
8.82083 92.8479
8.86558 89.091
8.91033 89.842
8.9551 92.1276
8.99985 85.4057
9.04461 83.5125
9.08936 82.5118
9.13412 81.6657
9.17888 81.9339
9.22365 82.7508
9.26841 82.0808
9.31318 82.2209
9.35794 82.5571
9.4027 82.6393
9.44749 83.8089
9.49226 83.786
9.53703 85.4231
9.5818 86.8172
9.62657 92.0841
9.67134 99.6542
9.71614 93.943
9.76091 93.7531
9.80569 95.9477
9.85047 99.3808
9.89525 126.488
9.94005 138.536
9.98484 166.942
10.0296 324.574
10.0744 773.728
10.1192 1755.5
10.164 1641.43
10.2088 414.157
10.2536 126.394
10.2984 113.442
10.3432 116.44
10.388 104.436
10.4328 114.937
10.4776 153.973
10.5224 269.622
10.5672 508.971
10.612 513.346
10.6568 201.786
10.7017 95.5358
10.7465 86.4996
10.7913 82.805
10.8361 81.2805
10.8809 78.3119
10.9257 78.4821
10.9706 79.0019
11.0154 75.0473
11.0602 72.9465
11.105 72.1095
11.1499 77.1966
11.1947 85.5881
11.2395 75.1924
11.2844 70.7381
11.3292 67.4346
11.374 65.9748
11.4189 65.4298
11.4637 64.722
11.5086 65.6802
11.5534 69.1949
11.5983 66.1198
11.6431 63.4262
11.688 62.8946
11.7328 63.0375
11.7777 62.8364
11.8225 62.4492
11.8674 62.3492
11.9122 62.504
11.9571 62.9231
12.002 63.4089
12.0468 66.549
12.0917 78.0427
12.1366 101.288
12.1814 150.135
12.2263 208.238
12.2712 170.87
12.3161 95.3967
12.3609 70.977
12.4058 64.6971
12.4507 64.3806
12.4956 64.3193
12.5405 64.6833
12.5853 65.6585
12.6302 74.2467
12.6751 80.4119
12.72 70.3659
12.7649 67.9468
12.8098 68.1895
12.8547 69.6661
12.8996 70.8449
12.9445 72.395
12.9894 73.7215
13.0343 75.354
13.0792 78.4818
13.1242 86.1281
13.1691 109.475
13.214 144.659
13.2589 233.301
13.3038 378.436
13.3487 437.399
13.3937 263.838
13.4386 121.955
13.4835 103.302
13.5285 117.773
13.5734 153.574
13.6183 242.269
13.6633 354.946
13.7082 342.057
13.7531 182.107
13.7981 95.4543
13.843 81.5418
13.888 79.3261
13.9329 76.9192
13.9779 75.6373
14.0228 74.1787
14.0678 72.8868
14.1127 72.4521
14.1577 72.5598
14.2027 71.4404
14.2476 70.3264
14.2926 70.6605
14.3376 71.7465
14.3825 70.3586
14.4275 68.6264
14.4725 68.5839
14.5175 68.7412
14.5624 68.9255
14.6074 71.1955
14.6524 71.9957
14.6974 70.1653
14.7424 71.4497
14.7874 77.2907
14.8324 87.2537
14.8774 107.436
14.9224 151.023
14.9674 208.357
15.0124 221.608
15.0574 148.09
15.1024 89.177
15.1474 71.9176
15.1924 70.479
15.2374 71.5064
15.2824 70.7335
15.3274 68.2181
15.3725 66.5931
15.4175 66.3339
15.4625 66.0662
15.5076 66.2139
15.5526 66.0155
15.5976 65.5496
15.6426 66.2002
15.6877 70.9914
15.7327 78.2479
15.7778 92.8618
15.8228 123.819
15.8679 171.178
15.9129 196.996
15.958 157.758
16.003 96.7211
16.0481 67.6829
16.0931 65.1082
16.1382 62.9907
16.1833 60.5567
16.2283 58.7705
16.2734 58.3795
16.3185 58.7303
16.3636 59.7883
16.4086 58.0467
16.4537 56.3339
16.4988 55.368
16.5439 55.3834
16.589 55.0773
16.6341 54.9215
16.6792 54.5779
16.7243 54.8589
16.7694 54.902
16.8145 54.8643
16.8596 55.1193
16.9047 57.0197
16.9498 57.3553
16.9949 55.647
17.04 55.6289
17.0851 56.4878
17.1302 58.4333
17.1754 61.321
17.2205 66.1022
17.2656 74.0376
17.3108 83.8133
17.3559 82.8934
17.401 71.0559
17.4462 61.5891
17.4913 58.9052
17.5365 59.083
17.5815 59.0901
17.6268 59.4428
17.6718 60.3935
17.7171 60.8062
17.7622 61.27
17.8074 61.5678
17.8525 63.6421
17.8977 67.6227
17.9428 72.8399
17.9881 81.3663
18.0331 98.2993
18.0784 122.253
18.1237 143.134
18.1688 132.471
18.214 102.634
18.2591 85.5564
18.3044 89.8633
18.3495 101.086
18.3948 107.516
18.4399 97.0931
18.4852 77.2082
18.5303 65.667
18.5756 62.1598
18.6207 61.0528
18.666 60.3284
18.7112 59.6789
18.7565 58.7952
18.8016 58.5427
18.8469 58.0007
18.892 57.5556
18.9374 57.2259
18.9825 57.1157
19.0278 56.7785
19.073 56.9946
19.1183 57.4011
19.1635 58.0724
19.2088 59.4028
19.254 61.8313
19.2993 66.4456
19.3447 73.1236
19.3898 77.6075
19.4352 72.746
19.4804 62.9191
19.5257 56.5669
19.5709 54.1893
19.6163 53.8834
19.6615 53.6509
19.7068 53.3363
19.752 53.1693
19.7974 53.1785
19.8426 54.1363
19.888 54.901
19.9332 56.0821
19.9786 58.2873
20.0238 61.9455
20.0692 67.2541
20.1144 70.1208
20.1598 68.0739
20.205 62.9797
20.2504 61.9305
20.2957 63.83
20.3411 65.6392
20.3863 63.8725
20.4318 58.0396
20.477 53.4598
20.5224 51.7153
20.5677 51.1033
20.6131 50.4308
20.6586 49.7613
20.7038 49.5219
20.7493 48.9132
20.7945 49.0422
20.84 48.8203
20.8853 48.7344
20.9307 48.5165
20.976 48.6463
21.0215 48.566
21.0668 49.0564
21.1122 49.5059
21.1575 50.0364
21.203 50.875
21.2483 51.5042
21.2938 51.4975
21.3391 50.0115
21.3846 49.0087
21.4299 48.3695
21.4754 48.338
21.5207 48.2729
21.5662 48.6939
21.6116 49.0452
21.6571 49.7782
21.7024 50.7633
21.7479 52.3963
21.7933 55.109
21.8388 58.6591
21.8843 63.0203
21.9297 65.0185
21.9752 63.4754
22.0206 59.6157
22.0661 56.5014
22.1115 56.1028
22.157 56.2314
22.2024 54.199
22.248 51.2603
22.2933 49.7827
22.3389 49.1345
22.3843 49.1502
22.4299 48.873
22.4753 48.8619
22.5208 48.5363
22.5662 48.3081
22.6118 48.6144
22.6572 48.7765
22.7028 49.319
22.7483 49.6084
22.7939 50.3316
22.8393 51.8069
22.8849 53.9361
22.9303 56.3788
22.9759 58.0862
23.0214 57.7457
23.067 54.6826
23.1126 51.1419
23.1581 49.1711
23.2037 48.7955
23.2492 48.8697
23.2948 48.6447
23.3403 48.9204
23.3859 49.6168
23.4314 50.5854
23.477 52.4384
23.5225 54.7688
23.5682 57.2246
23.6137 58.4929
23.6593 55.5915
23.7048 51.5746
23.7505 48.1526
23.796 46.6287
23.8417 45.9604
23.8872 45.587
23.9329 45.2515
23.9784 44.8504
24.0241 44.5861
24.0697 44.471
24.1154 44.2355
24.1609 44.0593
24.2066 43.7395
24.2522 43.7866
24.2979 43.5474
24.3434 43.3269
24.3892 43.1342
24.4349 43.1519
24.4805 42.9104
24.5262 43.1157
24.5718 42.962
24.6175 42.9246
24.6631 42.772
24.7089 42.3907
24.7545 42.4147
24.8002 42.2908
24.8458 42.2998
24.8916 42.0077
24.9372 42.2069
24.983 42.4948
25.0286 42.8673
25.0744 43.1474
25.12 43.8893
25.1658 44.2863
25.2114 44.5758
25.2572 44.6674
25.3029 44.9007
25.3487 45.1951
25.3943 44.598
25.4402 43.4495
25.4858 42.5604
25.5316 41.3793
25.5773 40.9618
25.6231 40.8402
25.669 40.6269
25.7147 40.5025
25.7605 40.6028
25.8062 40.519
25.8521 40.65
25.8977 40.6199
25.9436 40.8614
25.9893 40.8879
26.0352 41.5797
26.0809 41.631
26.1268 41.8532
26.1725 41.3066
26.2184 40.7141
26.2641 40.2015
26.31 40.0429
26.3557 40.0535
26.4017 40.0938
26.4474 40.4738
26.4933 40.6941
26.5391 41.2298
26.585 41.7969
26.6308 42.0876
26.6767 42.2435
26.7225 42.0159
26.7684 41.4364
26.8142 40.8785
26.8601 40.4545
26.9059 40.11
26.9519 39.5208
26.9979 39.224
27.0437 38.8025
27.0896 38.7515
27.1354 38.7304
27.1814 38.5396
27.2272 38.5953
27.2732 38.5554
27.3191 38.3006
27.3651 38.4841
27.4109 38.3359
27.4569 38.5475
27.5027 38.6283
27.5488 38.5862
27.5946 38.3946
27.6407 38.0565
27.6865 38.0918
27.7326 37.8266
27.7784 37.8979
27.8245 37.7621
27.8703 37.8845
27.9164 38.28
27.9623 38.5783
28.0084 38.7692
28.0543 39.1469
28.1003 39.0289
28.1462 38.892
28.1923 38.4853
28.2384 38.0895
28.2843 37.7505
28.3304 37.198
28.3764 36.7708
28.4225 36.4885
28.4684 36.3337
28.5145 35.9941
28.5605 35.9387
28.6066 35.6957
28.6526 35.5389
28.6987 35.5146
28.7447 35.5175
28.7908 35.5035
28.8368 35.5232
28.8829 35.4483
28.9289 35.4588
28.9751 35.1565
29.0211 34.9439
29.0673 34.71
29.1133 34.6067
29.1595 34.4546
29.2055 34.2717
29.2517 34.3844
29.2977 34.3322
29.3439 34.4633
29.3899 34.317
29.4361 34.115
29.4824 33.8553
29.5284 33.6238
29.5746 33.39
29.6207 33.2314
29.6669 33.0577
29.713 33.0485
29.7593 32.9913
29.8053 32.9693
29.8516 32.7064
29.8977 32.9231
29.9439 32.6073
29.99 32.5246
30.0363 32.5192
30.0824 32.5805
30.1287 32.3431
30.1748 32.5177
30.2211 32.479
30.2673 32.2544
30.3136 32.3802
30.3597 32.3171
30.406 32.205
30.4522 32.0953
30.4985 32.1231
30.5447 32.2194
30.591 32.1091
30.6372 32.3198
30.6835 32.2096
30.7297 32.2544
30.7761 32.2201
30.8224 32.0937
30.8686 31.8871
30.915 31.6671
30.9612 31.5527
31.0076 31.2426
31.0538 31.1816
31.1002 31.1906
31.1464 30.9714
31.1928 30.9654
31.2391 31.0936
31.2855 30.9075
31.3317 30.8658
31.3781 30.9513
31.4244 30.9343
31.4708 30.8711
31.5171 30.8913
31.5636 30.6612
31.6098 30.487
31.6563 30.3939
31.7026 30.2617
31.7491 30.1278
31.7953 30.1727
31.8418 30.1225
31.8881 30.151
31.9346 30.1243
31.9809 30.1248
32.0275 29.8526
32.074 29.8828
32.1203 29.5762
32.1668 29.522
32.2132 29.3588
32.2597 29.2331
32.306 29.2537
32.3526 29.0441
32.399 28.997
32.4455 28.8457
32.4919 28.7314
32.5385 28.6731
32.5848 28.4256
32.6314 28.5634
32.6778 28.4308
32.7244 28.3249
32.7708 28.1827
32.8174 28.165
32.8638 28.032
32.9104 28.0875
32.9569 28.045
33.0035 27.8412
33.0499 27.7666
33.0966 27.8113
33.143 27.7505
33.1897 27.7472
33.2361 27.6529
33.2828 27.5672
33.3293 27.4133
33.3759 27.364
33.4226 27.2148
33.4691 27.0904
33.5158 27.0191
33.5623 26.8938
33.609 26.7366
33.6555 26.6608
33.7022 26.6179
33.7487 26.5615
33.7954 26.5407
33.842 26.3855
33.8887 26.305
33.9353 26.3033
33.982 26.1709
34.0286 26.0076
34.0753 25.9766
34.1219 25.9263
34.1687 25.8095
34.2152 25.8223
34.262 25.6225
34.3086 25.6394
34.3554 25.5998
34.402 25.4385
34.4488 25.239
34.4954 25.3009
34.5422 25.1881
34.5889 25.1041
34.6357 25.0343
34.6825 24.9671
34.7292 24.8833
34.776 24.7385
34.8227 24.7388
34.8695 24.6955
34.9162 24.5796
34.9631 24.5283
35.0098 24.555
35.0566 24.3674
35.1033 24.3336
35.1502 24.2909
35.1969 24.2288
35.2438 24.1581
35.2906 24.1344
35.3375 24.0577
35.3842 24.0607
35.4311 24.0322
35.4779 23.9487
35.5248 23.9611
35.5716 23.7682
35.6185 23.6475
35.6653 23.7352
35.7123 23.6159
35.759 23.4929
35.806 23.3873
35.8528 23.332
35.8998 23.2594
35.9468 23.1258
35.9936 23.1363
36.0406 22.9875
36.0874 22.9381
36.1345 22.911
36.1813 22.8651
36.2283 22.739
36.2752 22.6772
36.3222 22.6642
36.3691 22.5345
36.4161 22.4289
36.463 22.4141
36.5101 22.4895
36.557 22.3286
36.6041 22.2036
36.651 22.188
36.6981 22.1407
36.745 22.0285
36.7921 21.97
36.839 21.8713
36.8861 21.8417
36.9331 21.762
36.9802 21.7237
37.0272 21.6141
37.0743 21.5427
37.1213 21.5177
37.1684 21.4207
37.2154 21.4276
37.2626 21.2876
37.3098 21.322
37.3568 21.169
37.404 21.1349
37.451 20.9574
37.4982 20.9526
37.5452 20.8212
37.5924 20.813
37.6395 20.8133
37.6867 20.7102
37.7337 20.6726
37.781 20.4623
37.8281 20.4785
37.8753 20.4392
37.9224 20.3738
37.9697 20.3152
38.0168 20.2191
38.064 20.1901
38.1111 20.1604
38.1584 20.0353
38.2056 19.969
38.2529 19.9137
38.3 19.8638
38.3473 19.7692
38.3945 19.71
38.4418 19.6556
38.489 19.5855
38.5363 19.4954
38.5837 19.5199
38.6309 19.4591
38.6782 19.334
38.7254 19.267
38.7728 19.264
38.82 19.0983
38.8674 19.1438
38.9146 19.0188
38.9621 18.9914
39.0093 18.9267
39.0567 18.8899
39.104 18.8
39.1514 18.6887
39.1987 18.6831
39.2461 18.6218
39.2934 18.6167
39.3409 18.5409
39.3882 18.4035
39.4356 18.4005
39.483 18.3184
39.5304 18.3186
39.5778 18.2083
39.6253 18.1539
39.6726 18.1267
39.7201 18.1206
39.7675 18.0214
39.815 17.964
39.8624 17.901
39.9099 17.8751
39.9575 17.7708
40.0049 17.74
40.0525 17.5945
40.0999 17.6062
40.1474 17.5241
40.1949 17.4491
40.2425 17.4336
40.2899 17.3647
40.3375 17.2782
40.385 17.2767
40.4326 17.2131
40.48 17.0991
40.5277 17.0943
40.5752 17.0527
40.6228 17.0429
40.6703 16.944
40.718 16.9035
40.7655 16.8369
40.8132 16.7688
40.8607 16.7472
40.9084 16.7097
40.9559 16.6496
41.0036 16.5672
41.0512 16.5179
41.0989 16.5181
41.1465 16.3604
41.1942 16.3491
41.242 16.2564
41.2896 16.2218
41.3373 16.2
41.3849 16.1245
41.4327 16.0545
41.4803 15.9906
41.5281 15.9977
41.5758 15.9402
41.6236 15.8889
41.6712 15.8332
41.7191 15.7686
41.7667 15.7053
41.8146 15.6375
41.8622 15.5558
41.9101 15.5199
41.9578 15.4389
42.0057 15.488
42.0534 15.4231
42.1013 15.3774
42.149 15.3057
42.1969 15.2051
42.2446 15.1831
42.2925 15.1263
42.3403 15.0824
42.3882 15.0995
42.436 15.0264
42.4839 14.9237
42.5319 14.8647
42.5797 14.84
42.6277 14.8083
42.6755 14.7189
42.7235 14.6946
42.7713 14.6289
42.8193 14.5724
42.8671 14.5126
42.9152 14.4624
42.963 14.4313
43.0111 14.372
43.0589 14.3619
43.107 14.2932
43.1549 14.2639
43.2029 14.1653
43.2508 14.1656
43.2989 14.0695
43.3468 14.0178
43.3949 14.011
43.4429 14.0044
43.491 13.8703
43.5389 13.8893
43.5871 13.7966
43.635 13.7697
43.6832 13.6822
43.7312 13.6432
43.7793 13.6132
43.8273 13.5575
43.8755 13.5024
43.9237 13.5099
43.9717 13.4226
44.0199 13.3558
44.068 13.3367
44.1162 13.3177
44.1642 13.2604
44.2125 13.2363
44.2606 13.1327
44.3088 13.1203
44.3569 13.0545
44.4052 13.0059
44.4533 12.9581
44.5016 12.9291
44.5497 12.875
44.598 12.808
44.6461 12.7996
44.6945 12.7453
44.7426 12.6977
44.791 12.6657
44.8391 12.663
44.8875 12.5961
44.9357 12.5412
44.984 12.5173
45.0322 12.4488
45.0806 12.4219
45.1288 12.353
45.1773 12.3151
45.2257 12.2539
45.2739 12.2086
45.3224 12.1648
45.3706 12.1872
45.4191 12.0739
45.4673 12.031
45.5158 11.9874
45.5641 11.9563
45.6126 11.9298
45.6609 11.8865
45.7094 11.827
45.7577 11.7917
45.8063 11.7326
45.8546 11.7177
45.9031 11.666
45.9515 11.6513
46.0001 11.5635
46.0484 11.5666
46.097 11.529
46.1454 11.4632
46.194 11.4708
46.2424 11.3449
46.291 11.3695
46.3395 11.3408
46.3881 11.2388
46.4365 11.22
46.4852 11.1925
46.5337 11.1153
46.5823 11.0936
46.631 11.0548
46.6795 11.0364
46.7282 11.013
46.7767 10.9834
46.8254 10.899
46.8739 10.8154
46.9226 10.8212
46.9712 10.7538
47.0199 10.7497
47.0685 10.7538
47.1173 10.6144
47.1658 10.6039
47.2146 10.5875
47.2632 10.5295
47.312 10.4542
47.3606 10.4435
47.4095 10.4015
47.4581 10.3911
47.5069 10.3521
47.5556 10.279
47.6044 10.2098
47.6531 10.2392
47.702 10.1701
47.7507 10.1463
47.7996 10.1043
47.8483 10.049
47.8972 10.0423
47.9461 9.97104
47.9948 9.94664
48.0438 9.92029
48.0925 9.88893
48.1415 9.87492
48.1902 9.81544
48.2392 9.82574
48.288 9.77191
48.337 9.75608
48.3858 9.67767
48.4348 9.6595
48.4837 9.65707
48.5327 9.61597
48.5815 9.51401
48.6306 9.48734
48.6795 9.50158
48.7285 9.38575
48.7774 9.42837
48.8265 9.41951
48.8754 9.31436
48.9245 9.31062
48.9734 9.24342
49.0226 9.24963
49.0715 9.17738
49.1206 9.1333
49.1696 9.09423
49.2188 9.12126
49.2679 9.07631
49.3169 9.01331
49.3661 8.95994
49.4151 8.91817
49.4643 8.90972
49.5134 8.85514
49.5626 8.84379
49.6117 8.83179
49.6609 8.78024
49.71 8.74351
49.7592 8.7437
49.8083 8.65385
49.8576 8.64111
49.9067 8.61131
49.956 8.62335
50.0052 8.51902
50.0545 8.51546
50.1036 8.47485
50.153 8.45032
50.2022 8.41331
50.2515 8.39599
50.3007 8.34449
50.3501 8.35479
50.3993 8.26109
50.4487 8.24666
50.498 8.21476
50.5474 8.17949
50.5966 8.15146
50.6461 8.12725
50.6955 8.08583
50.7448 8.06026
50.7943 8.04307
50.8436 8.00721
50.8931 7.96706
50.9424 7.93131
50.9919 7.91904
51.0413 7.91034
51.0908 7.80199
51.1402 7.80536
51.1897 7.75598
51.2391 7.78851
51.2887 7.73647
51.3381 7.67611
51.3877 7.68876
51.4371 7.62946
51.4867 7.57056
51.5362 7.58316
51.5858 7.53985
51.6353 7.46574
51.6849 7.45482
51.7344 7.47566
51.7841 7.40597
51.8336 7.41857
51.8833 7.34843
51.9328 7.32485
51.9826 7.29573
52.0323 7.26923
52.0818 7.22254
52.1316 7.17049
52.1812 7.15958
52.231 7.12794
52.2806 7.11797
52.3304 7.08741
52.38 7.03554
52.4298 7.01669
52.4794 6.98321
52.5293 6.96357
52.5789 6.93634
52.6288 6.91172
52.6785 6.86512
52.7284 6.88208
52.7781 6.84768
52.828 6.79214
52.8777 6.7504
52.9276 6.70553
52.9774 6.70784
53.0273 6.71122
53.0771 6.64766
53.1271 6.66547
53.1769 6.61728
53.2269 6.55383
53.2767 6.51274
53.3267 6.52159
53.3765 6.46117
53.4266 6.46912
53.4766 6.44344
53.5265 6.38914
53.5765 6.39846
53.6264 6.3528
53.6765 6.34728
53.7264 6.2782
53.7765 6.21301
53.8265 6.24517
53.8766 6.18856
53.9266 6.14559
53.9767 6.15192
54.0267 6.14474
54.0769 6.11205
54.1269 6.05928
54.1771 6.077
54.2271 6.02622
54.2773 5.95552
54.3274 5.94345
54.3776 5.90038
54.4277 5.89267
54.478 5.84681
54.528 5.83353
54.5783 5.74558
54.6285 5.76401
54.6788 5.68827
54.7289 5.64915
54.7792 5.61837
54.8296 5.52031
54.8798 5.50252
54.9301 5.50269
54.9803 5.43734
55.0307 5.43164
55.0809 5.34713
55.1314 5.35375
55.1816 5.27592
55.232 5.22984
55.2823 5.16388
55.3328 5.14547
55.383 5.12608
55.4335 5.11885
55.4838 5.00158
55.5344 4.95814
55.5847 4.88828
55.6352 4.89331
55.6856 4.85976
55.7361 4.8078