File: XRD/Ni3Fe_FD0209.xy
TT I
1.27165 7.723
1.31627 7.42948
1.36089 7.01302
1.40551 6.48348
1.45013 6.51332
1.49476 6.68068
1.53938 6.55988
1.584 5.89506
1.62863 6.58767
1.67325 5.65514
1.71787 5.84112
1.7625 5.53759
1.80712 5.23259
1.85174 5.16217
1.89636 5.48455
1.94099 5.50342
1.98562 5.41382
2.03025 5.11081
2.07487 4.76097
2.11949 5.40319
2.16411 4.91444
2.20874 4.90395
2.25338 4.78618
2.298 4.42833
2.34263 4.80991
2.38725 4.59839
2.43188 4.53403
2.4765 5.01747
2.52115 4.2419
2.56577 5.36967
2.6104 5.55663
2.65503 5.04803
2.69965 5.71368
2.7443 6.1828
2.78893 7.00877
2.83356 7.03429
2.87818 7.85615
2.92281 8.34766
2.96744 9.03216
3.01209 9.99854
3.05672 11.0738
3.10135 11.9339
3.14599 12.7555
3.19062 14.2404
3.23527 15.1397
3.2799 15.8855
3.32454 16.9705
3.36917 17.6161
3.4138 18.9269
3.45844 19.4422
3.50309 20.5625
3.54773 21.718
3.59237 22.332
3.637 23.5236
3.68164 24.5618
3.7263 25.1939
3.77094 25.9539
3.81558 26.9773
3.86022 28.0548
3.90486 29.2615
3.9495 29.9637
3.99416 31.5269
4.0388 32.3746
4.08344 34.105
4.12809 34.8287
4.17273 36.7748
4.21738 38.1909
4.26204 39.6428
4.30669 40.7692
4.35133 43.0895
4.39598 44.1724
4.44063 46.5616
4.4853 48.6744
4.52995 51.6801
4.5746 53.7873
4.61925 56.0418
4.6639 58.6769
4.70855 61.3502
4.75322 64.8691
4.79788 68.3925
4.84253 72.0292
4.88719 76.968
4.93184 82.0979
4.97652 88.5679
5.02118 97.5507
5.06583 108.396
5.11049 125.161
5.15515 170.675
5.19981 888.237
5.24449 3969.18
5.28916 10427.5
5.33382 4308.14
5.37848 285.006
5.42315 155.815
5.46783 129.726
5.5125 118.996
5.55716 113.043
5.60183 107.284
5.6465 105.053
5.69117 103.895
5.73586 101.593
5.78053 102.35
5.8252 102.114
5.86988 105.219
5.91455 111.816
5.95924 135.1
6.00392 445.366
6.0486 1437.56
6.09328 3588.73
6.13795 3817.71
6.18263 397.198
6.22733 111.546
6.27201 90.3215
6.3167 81.2171
6.36138 76.778
6.40606 72.7636
6.45075 71.5156
6.49545 69.0154
6.54014 66.6663
6.58483 65.3765
6.62952 64.4095
6.67421 62.5637
6.71892 61.7582
6.76361 60.6633
6.8083 59.9187
6.853 59.5016
6.89769 58.6526
6.94239 58.6803
6.98711 57.6008
7.03181 57.49
7.07651 56.8507
7.12121 56.3557
7.16591 56.7082
7.21063 55.9643
7.25533 55.7246
7.30004 56.1485
7.34475 55.5453
7.38945 56.1979
7.43416 55.6363
7.47889 55.7135
7.5236 56.8927
7.56831 58.3227
7.61303 57.2779
7.65774 57.4571
7.70247 58.288
7.74719 58.8743
7.79191 58.9914
7.83663 59.4293
7.88135 60.7778
7.92607 61.7126
7.97081 63.0676
8.01553 63.9312
8.06026 65.6657
8.10498 66.8901
8.14971 69.1593
8.19446 70.3905
8.23919 73.6518
8.28392 76.5165
8.32865 79.5668
8.37339 84.9781
8.41812 91.1586
8.46288 110.288
8.50761 291.27
8.55235 596.673
8.59709 1051.95
8.64183 1945.04
8.68658 1243.27
8.73134 233.074
8.77609 112.164
8.82083 101.028
8.86558 96.593
8.91033 93.6724
8.9551 91.0514
8.99985 90.1675
9.04461 89.0893
9.08936 88.196
9.13412 87.1952
9.17888 86.8224
9.22365 88.0191
9.26841 88.5693
9.31318 88.5309
9.35794 88.3751
9.4027 88.2839
9.44749 89.3241
9.49226 90.0426
9.53703 91.2664
9.5818 93.3312
9.62657 94.2271
9.67134 95.8796
9.71614 97.7656
9.76091 100.568
9.80569 103.64
9.85047 107.107
9.89525 113.304
9.94005 135.049
9.98484 303.34
10.0296 526.94
10.0744 789.919
10.1192 1424.53
10.164 1719.19
10.2088 589.64
10.2536 152.943
10.2984 118.647
10.3432 113.561
10.388 114.985
10.4328 159.986
10.4776 215.372
10.5224 279.681
10.5672 432.773
10.612 529.57
10.6568 262.767
10.7017 109.535
10.7465 93.0179
10.7913 88.4252
10.8361 85.9306
10.8809 83.3545
10.9257 81.0579
10.9706 79.6428
11.0154 77.7418
11.0602 76.2692
11.105 75.2774
11.1499 73.5599
11.1947 72.805
11.2395 71.6552
11.2844 70.9467
11.3292 70.1877
11.374 69.4592
11.4189 68.9533
11.4637 68.199
11.5086 67.3508
11.5534 66.8805
11.5983 66.562
11.6431 66.613
11.688 65.9476
11.7328 65.9011
11.7777 65.8522
11.8225 65.6692
11.8674 65.705
11.9122 66.2206
11.9571 66.887
12.002 68.8875
12.0468 80.0355
12.0917 95.5829
12.1366 108.529
12.1814 137.563
12.2263 188.229
12.2712 185.146
12.3161 105.582
12.3609 70.4647
12.4058 67.2833
12.4507 67.3873
12.4956 67.4438
12.5405 67.5449
12.5853 68.3637
12.6302 68.5539
12.6751 68.9859
12.72 69.9843
12.7649 71.2081
12.8098 71.9004
12.8547 73.4428
12.8996 75.0015
12.9445 76.5452
12.9894 78.8761
13.0343 81.1121
13.0792 86.2464
13.1242 110.037
13.1691 149.836
13.214 175.854
13.2589 226.299
13.3038 312.751
13.3487 413.167
13.3937 317.574
13.4386 153.756
13.4835 135.608
13.5285 156.005
13.5734 173.999
13.6183 221.823
13.6633 304.917
13.7082 365.077
13.7531 238.424
13.7981 115.659
13.843 87.8937
13.888 84.3047
13.9329 81.8403
13.9779 80.3962
14.0228 78.874
14.0678 77.3443
14.1127 76.5558
14.1577 75.9915
14.2027 75.3543
14.2476 74.5038
14.2926 73.862
14.3376 73.0952
14.3825 73.1465
14.4275 72.5049
14.4725 72.7758
14.5175 73.0772
14.5624 72.9689
14.6074 73.1969
14.6524 73.776
14.6974 74.8051
14.7424 80.9144
14.7874 96.1669
14.8324 107.92
14.8774 119.34
14.9224 143.218
14.9674 182.896
15.0124 221.764
15.0574 178.563
15.1024 106.067
15.1474 77.9932
15.1924 74.4712
15.2374 73.0157
15.2824 71.8251
15.3274 70.9659
15.3725 70.3731
15.4175 70.0675
15.4625 69.8832
15.5076 69.5401
15.5526 69.647
15.5976 70.1675
15.6426 74.4499
15.6877 87.2009
15.7327 96.2896
15.7778 103.976
15.8228 120.8
15.8679 150.964
15.9129 187.73
15.958 177.954
16.003 115.871
16.0481 74.2885
16.0931 66.3614
16.1382 64.3358
16.1833 63.2897
16.2283 61.9679
16.2734 61.3258
16.3185 60.4753
16.3636 59.9433
16.4086 59.1673
16.4537 58.8726
16.4988 58.1362
16.5439 58.1356
16.589 57.8943
16.6341 57.714
16.6792 57.3538
16.7243 57.4642
16.7694 57.5419
16.8145 57.5679
16.8596 57.814
16.9047 57.8277
16.9498 58.0506
16.9949 58.2725
17.04 59.5259
17.0851 62.1398
17.1302 64.2031
17.1754 65.7049
17.2205 68.8048
17.2656 73.709
17.3108 81.3988
17.3559 85.662
17.401 78.3986
17.4462 67.6751
17.4913 62.8437
17.5365 62.3102
17.5815 62.4108
17.6268 62.8369
17.6718 63.3678
17.7171 63.9528
17.7622 64.9662
17.8074 66.4259
17.8525 72.2648
17.8977 79.0132
17.9428 83.3519
17.9881 88.1373
18.0331 98.4825
18.0784 113.567
18.1237 137.103
18.1688 145.944
18.214 121.255
18.2591 94.7549
18.3044 90.2231
18.3495 96.281
18.3948 106.057
18.4399 103.141
18.4852 85.1151
18.5303 70.9699
18.5756 65.777
18.6207 64.763
18.666 63.826
18.7112 62.929
18.7565 62.1054
18.8016 61.7787
18.8469 61.0081
18.892 60.8813
18.9374 60.4047
18.9825 59.9408
19.0278 59.9259
19.073 60.5227
19.1183 61.7375
19.1635 62.4509
19.2088 63.1989
19.254 64.8179
19.2993 67.2297
19.3447 70.9734
19.3898 76.2072
19.4352 76.5505
19.4804 69.444
19.5257 61.1324
19.5709 57.3252
19.6163 56.7798
19.6615 56.6406
19.7068 56.3105
19.752 56.2961
19.7974 57.1759
19.8426 58.5712
19.888 59.1357
19.9332 59.6869
19.9786 61.3262
20.0238 64.0283
20.0692 68.3155
20.1144 72.6499
20.1598 73.3385
20.205 68.4657
20.2504 64.7824
20.2957 64.335
20.3411 66.9028
20.3863 67.8107
20.4318 63.0351
20.477 57.2487
20.5224 54.0304
20.5677 53.3703
20.6131 52.6471
20.6586 52.3002
20.7038 52.1568
20.7493 51.5801
20.7945 51.5648
20.84 51.543
20.8853 51.3064
20.9307 51.2796
20.976 51.6527
21.0215 51.3716
21.0668 51.6261
21.1122 51.8462
21.1575 52.1917
21.203 52.7475
21.2483 53.4827
21.2938 54.1376
21.3391 53.2444
21.3846 51.8192
21.4299 51.1543
21.4754 50.96
21.5207 51.3266
21.5662 51.9411
21.6116 52.9522
21.6571 54.058
21.7024 54.5871
21.7479 55.7101
21.7933 57.5019
21.8388 60.13
21.8843 63.4106
21.9297 66.7375
21.9752 66.9783
22.0206 63.5098
22.0661 59.2341
22.1115 57.6685
22.157 58.3379
22.2024 57.7713
22.248 54.9911
22.2933 52.8317
22.3389 51.6666
22.3843 51.4409
22.4299 51.031
22.4753 51.2086
22.5208 51.0132
22.5662 50.9868
22.6118 51.6834
22.6572 52.3364
22.7028 52.755
22.7483 52.958
22.7939 53.3402
22.8393 54.5108
22.8849 55.4002
22.9303 56.8479
22.9759 58.9899
23.0214 59.9846
23.067 58.5624
23.1126 55.0721
23.1581 52.372
23.2037 51.5346
23.2492 52.0403
23.2948 52.3357
23.3403 52.6012
23.3859 52.8176
23.4314 53.2082
23.477 54.414
23.5225 55.6274
23.5682 57.4214
23.6137 59.7261
23.6593 58.9903
23.7048 55.5507
23.7505 51.7571
23.796 49.3739
23.8417 48.467
23.8872 48.1753
23.9329 47.5915
23.9784 47.2407
24.0241 46.9317
24.0697 46.7173
24.1154 46.3151
24.1609 46.2479
24.2066 46.0941
24.2522 45.9843
24.2979 45.6785
24.3434 45.5562
24.3892 45.4414
24.4349 45.3156
24.4805 45.0912
24.5262 45.2747
24.5718 45.0423
24.6175 45.1725
24.6631 45.0841
24.7089 44.7237
24.7545 44.6508
24.8002 44.506
24.8458 44.607
24.8916 44.2596
24.9372 44.5809
24.983 44.8031
25.0286 45.2855
25.0744 45.5765
25.12 45.7198
25.1658 46.2266
25.2114 46.5845
25.2572 46.6875
25.3029 46.4363
25.3487 46.7203
25.3943 46.8306
25.4402 46.1291
25.4858 44.9565
25.5316 43.7812
25.5773 43.077
25.6231 43.1041
25.669 42.5623
25.7147 42.6777
25.7605 42.6547
25.8062 42.6302
25.8521 42.5954
25.8977 42.6663
25.9436 42.7691
25.9893 42.7558
26.0352 43.1515
26.0809 43.2503
26.1268 43.6533
26.1725 43.659
26.2184 43.1025
26.2641 42.699
26.31 42.3289
26.3557 42.3222
26.4017 42.3863
26.4474 42.6037
26.4933 42.6176
26.5391 42.9853
26.585 43.3295
26.6308 43.712
26.6767 44.02
26.7225 44.0654
26.7684 43.6898
26.8142 42.8771
26.8601 42.4779
26.9059 42.0629
26.9519 41.6528
26.9979 41.2896
27.0437 40.902
27.0896 40.759
27.1354 40.8649
27.1814 40.6989
27.2272 40.4369
27.2732 40.5211
27.3191 40.3092
27.3651 40.3876
27.4109 40.2857
27.4569 40.3335
27.5027 40.3379
27.5488 40.4541
27.5946 40.4303
27.6407 40.325
27.6865 40.1912
27.7326 39.9763
27.7784 40.0135
27.8245 39.7658
27.8703 39.8632
27.9164 40.1921
27.9623 40.081
28.0084 40.2976
28.0543 40.6158
28.1003 40.6953
28.1462 40.7283
28.1923 40.3602
28.2384 39.747
28.2843 39.5838
28.3304 39.0334
28.3764 38.6328
28.4225 38.2553
28.4684 38.0224
28.5145 37.6881
28.5605 37.6347
28.6066 37.6421
28.6526 37.3995
28.6987 37.4575
28.7447 37.1185
28.7908 37.1229
28.8368 37.0901
28.8829 37.0539
28.9289 37.0874
28.9751 36.9217
29.0211 36.7131
29.0673 36.3479
29.1133 36.3703
29.1595 36.1525
29.2055 36.0578
29.2517 35.9487
29.2977 35.8938
29.3439 35.7729
29.3899 35.8609
29.4361 35.894
29.4824 35.6573
29.5284 35.5729
29.5746 35.1313
29.6207 34.8763
29.6669 34.6897
29.713 34.6406
29.7593 34.4778
29.8053 34.5938
29.8516 34.4883
29.8977 34.4111
29.9439 34.257
29.99 34.176
30.0363 34.0863
30.0824 34.0695
30.1287 33.9776
30.1748 34.0005
30.2211 33.9911
30.2673 33.8878
30.3136 33.9202
30.3597 33.8678
30.406 33.8383
30.4522 33.7116
30.4985 33.6388
30.5447 33.7211
30.591 33.7396
30.6372 33.7101
30.6835 33.7643
30.7297 33.7525
30.7761 33.6882
30.8224 33.5543
30.8686 33.4946
30.915 33.2805
30.9612 33.1428
31.0076 32.8972
31.0538 32.7619
31.1002 32.7216
31.1464 32.6024
31.1928 32.5369
31.2391 32.4394
31.2855 32.4063
31.3317 32.2545
31.3781 32.3718
31.4244 32.4226
31.4708 32.2891
31.5171 32.3041
31.5636 32.3045
31.6098 32.1956
31.6563 31.9695
31.7026 31.8481
31.7491 31.6275
31.7953 31.6555
31.8418 31.5757
31.8881 31.6283
31.9346 31.538
31.9809 31.4897
32.0275 31.2962
32.074 31.3226
32.1203 31.0158
32.1668 31.0328
32.2132 30.8569
32.2597 30.7005
32.306 30.6555
32.3526 30.3633
32.399 30.3795
32.4455 30.2538
32.4919 30.116
32.5385 30.0937
32.5848 29.8662
32.6314 29.9683
32.6778 29.875
32.7244 29.7081
32.7708 29.6146
32.8174 29.5306
32.8638 29.4452
32.9104 29.4957
32.9569 29.3716
33.0035 29.2909
33.0499 29.2355
33.0966 29.1773
33.143 29.1762
33.1897 29.0236
33.2361 28.9036
33.2828 28.8777
33.3293 28.7608
33.3759 28.7895
33.4226 28.6123
33.4691 28.4471
33.5158 28.3654
33.5623 28.2848
33.609 28.1157
33.6555 28.0356
33.7022 27.9139
33.7487 27.7809
33.7954 27.7523
33.842 27.6937
33.8887 27.6408
33.9353 27.5878
33.982 27.4363
34.0286 27.3971
34.0753 27.299
34.1219 27.2014
34.1687 27.0768
34.2152 27.078
34.262 26.9251
34.3086 26.8957
34.3554 26.7734
34.402 26.6322
34.4488 26.5625
34.4954 26.4591
34.5422 26.4856
34.5889 26.3267
34.6357 26.2705
34.6825 26.1214
34.7292 26.0399
34.776 25.9803
34.8227 26.0054
34.8695 25.8679
34.9162 25.7854
34.9631 25.6347
35.0098 25.7769
35.0566 25.5398
35.1033 25.4652
35.1502 25.4545
35.1969 25.4187
35.2438 25.3988
35.2906 25.3382
35.3375 25.2707
35.3842 25.0845
35.4311 25.122
35.4779 25.1044
35.5248 25.0521
35.5716 24.893
35.6185 24.8755
35.6653 24.7455
35.7123 24.6854
35.759 24.5479
35.806 24.4613
35.8528 24.3721
35.8998 24.342
35.9468 24.2071
35.9936 24.2053
36.0406 24.0987
36.0874 24.1508
36.1345 24.0537
36.1813 24.0048
36.2283 23.8071
36.2752 23.7801
36.3222 23.7645
36.3691 23.731
36.4161 23.4432
36.463 23.4691
36.5101 23.5112
36.557 23.4127
36.6041 23.2678
36.651 23.297
36.6981 23.1925
36.745 23.0948
36.7921 23.0725
36.839 22.9024
36.8861 22.8459
36.9331 22.8431
36.9802 22.7391
37.0272 22.6955
37.0743 22.5901
37.1213 22.5131
37.1684 22.3954
37.2154 22.3857
37.2626 22.2669
37.3098 22.1915
37.3568 22.1818
37.404 22.1435
37.451 22.0427
37.4982 21.9329
37.5452 21.8309
37.5924 21.8454
37.6395 21.8916
37.6867 21.6794
37.7337 21.6019
37.781 21.5554
37.8281 21.578
37.8753 21.3404
37.9224 21.327
37.9697 21.3369
38.0168 21.1905
38.064 21.1051
38.1111 21.1483
38.1584 20.9174
38.2056 20.9265
38.2529 20.9245
38.3 20.8246
38.3473 20.7682
38.3945 20.6459
38.4418 20.6024
38.489 20.5789
38.5363 20.45
38.5837 20.3839
38.6309 20.3799
38.6782 20.2903
38.7254 20.1763
38.7728 20.2093
38.82 20.0886
38.8674 20.0574
38.9146 19.9172
38.9621 19.883
39.0093 19.8342
39.0567 19.799
39.104 19.6897
39.1514 19.6219
39.1987 19.5721
39.2461 19.5872
39.2934 19.5113
39.3409 19.3704
39.3882 19.3474
39.4356 19.2947
39.483 19.1344
39.5304 19.121
39.5778 19.1945
39.6253 19.0408
39.6726 18.9923
39.7201 18.9796
39.7675 18.8492
39.815 18.8501
39.8624 18.7305
39.9099 18.7254
39.9575 18.6121
40.0049 18.6102
40.0525 18.4871
40.0999 18.4814
40.1474 18.4152
40.1949 18.304
40.2425 18.2487
40.2899 18.2095
40.3375 18.1164
40.385 18.0477
40.4326 18.0733
40.48 17.9715
40.5277 17.9197
40.5752 17.8512
40.6228 17.8009
40.6703 17.7298
40.718 17.712
40.7655 17.6298
40.8132 17.6135
40.8607 17.6099
40.9084 17.5069
40.9559 17.3734
41.0036 17.4285
41.0512 17.3337
41.0989 17.263
41.1465 17.173
41.1942 17.1095
41.242 17.0476
41.2896 16.9982
41.3373 16.9943
41.3849 16.8989
41.4327 16.8805
41.4803 16.7304
41.5281 16.7076
41.5758 16.6517
41.6236 16.6063
41.6712 16.5727
41.7191 16.5163
41.7667 16.4373
41.8146 16.4301
41.8622 16.3276
41.9101 16.3043
41.9578 16.2182
42.0057 16.1499
42.0534 16.1658
42.1013 16.0476
42.149 15.978
42.1969 15.8919
42.2446 15.8735
42.2925 15.8389
42.3403 15.789
42.3882 15.7463
42.436 15.7232
42.4839 15.6155
42.5319 15.6004
42.5797 15.5653
42.6277 15.4423
42.6755 15.4367
42.7235 15.3651
42.7713 15.296
42.8193 15.3227
42.8671 15.1932
42.9152 15.1667
42.963 15.0697
43.0111 15.0611
43.0589 14.9946
43.107 14.9449
43.1549 14.9615
43.2029 14.8424
43.2508 14.8154
43.2989 14.7628
43.3468 14.7214
43.3949 14.6183
43.4429 14.6267
43.491 14.5471
43.5389 14.4927
43.5871 14.4345
43.635 14.3891
43.6832 14.3706
43.7312 14.259
43.7793 14.2158
43.8273 14.2216
43.8755 14.1356
43.9237 14.117
43.9717 14.1025
44.0199 13.9765
44.068 13.9345
44.1162 13.9162
44.1642 13.9352
44.2125 13.801
44.2606 13.7471
44.3088 13.6382
44.3569 13.686
44.4052 13.6606
44.4533 13.5671
44.5016 13.5258
44.5497 13.4505
44.598 13.4296
44.6461 13.3932
44.6945 13.3044
44.7426 13.259
44.791 13.2008
44.8391 13.1793
44.8875 13.1333
44.9357 13.1329
44.984 13.0454
45.0322 12.9774
45.0806 12.9587
45.1288 12.8838
45.1773 12.8737
45.2257 12.8189
45.2739 12.7851
45.3224 12.6739
45.3706 12.709
45.4191 12.6036
45.4673 12.5598
45.5158 12.5666
45.5641 12.4553
45.6126 12.4393
45.6609 12.3938
45.7094 12.3436
45.7577 12.3217
45.8063 12.2539
45.8546 12.1968
45.9031 12.1834
45.9515 12.165
46.0001 12.1266
46.0484 12.0904
46.097 12.0468
46.1454 11.9798
46.194 11.9449
46.2424 11.9075
46.291 11.8516
46.3395 11.8093
46.3881 11.7799
46.4365 11.7308
46.4852 11.678
46.5337 11.6307
46.5823 11.606
46.631 11.5352
46.6795 11.4825
46.7282 11.4408
46.7767 11.4397
46.8254 11.3831
46.8739 11.2748
46.9226 11.2868
46.9712 11.2639
47.0199 11.1694
47.0685 11.1361
47.1173 11.1334
47.1658 11.0895
47.2146 11.0629
47.2632 11.0207
47.312 10.963
47.3606 10.8792
47.4095 10.9057
47.4581 10.84
47.5069 10.7929
47.5556 10.7736
47.6044 10.6981
47.6531 10.643
47.702 10.6042
47.7507 10.6096
47.7996 10.5477
47.8483 10.5353
47.8972 10.4894
47.9461 10.4457
47.9948 10.4035
48.0438 10.3813
48.0925 10.3339
48.1415 10.2782
48.1902 10.2696
48.2392 10.2389
48.288 10.2123
48.337 10.1544
48.3858 10.0971
48.4348 10.0804
48.4837 10.052
48.5327 10.0244
48.5815 9.98779
48.6306 9.96326
48.6795 9.90947
48.7285 9.88026
48.7774 9.83804
48.8265 9.83997
48.8754 9.72336
48.9245 9.71551
48.9734 9.68747
49.0226 9.65494
49.0715 9.58379
49.1206 9.5516
49.1696 9.52762
49.2188 9.52417
49.2679 9.41053
49.3169 9.4332
49.3661 9.34456
49.4151 9.35773
49.4643 9.31876
49.5134 9.27708
49.5626 9.19543
49.6117 9.19066
49.6609 9.17973
49.71 9.1664
49.7592 9.1086
49.8083 9.06908
49.8576 8.98862
49.9067 8.97931
49.956 8.97871
50.0052 8.95799
50.0545 8.89222
50.1036 8.86266
50.153 8.82426
50.2022 8.827
50.2515 8.77111
50.3007 8.68284
50.3501 8.67673
50.3993 8.68351
50.4487 8.61625
50.498 8.60472
50.5474 8.55273
50.5966 8.4848
50.6461 8.48781
50.6955 8.45416
50.7448 8.43585
50.7943 8.40358
50.8436 8.36381
50.8931 8.3321
50.9424 8.29851
50.9919 8.28205
51.0413 8.2359
51.0908 8.23305
51.1402 8.17212
51.1897 8.14456
51.2391 8.10913
51.2887 8.07689
51.3381 8.01498
51.3877 8.00056
51.4371 7.9508
51.4867 7.9526
51.5362 7.94429
51.5858 7.87965
51.6353 7.8106
51.6849 7.81339
51.7344 7.73718
51.7841 7.7468
51.8336 7.68209
51.8833 7.69352
51.9328 7.65652
51.9826 7.58098
52.0323 7.5097
52.0818 7.55666
52.1316 7.49107
52.1812 7.48823
52.231 7.46283
52.2806 7.41437
52.3304 7.38639
52.38 7.34025
52.4298 7.33853
52.4794 7.28687
52.5293 7.26724
52.5789 7.24178
52.6288 7.21275
52.6785 7.1864
52.7284 7.15425
52.7781 7.08172
52.828 7.06794
52.8777 7.07975
52.9276 7.02696
52.9774 6.99889
53.0273 6.99712
53.0771 6.97744
53.1271 6.89319
53.1769 6.87127
53.2269 6.87099
53.2767 6.81475
53.3267 6.79194
53.3765 6.75704
53.4266 6.73566
53.4766 6.73826
53.5265 6.66867
53.5765 6.67538
53.6264 6.62521
53.6765 6.59417
53.7264 6.5099
53.7765 6.5367
53.8265 6.55126
53.8766 6.52533
53.9266 6.46969
53.9767 6.42056
54.0267 6.376
54.0769 6.32388
54.1269 6.31181
54.1771 6.29457
54.2271 6.25772
54.2773 6.2048
54.3274 6.20588
54.3776 6.14447
54.4277 6.07014
54.478 6.01886
54.528 6.02854
54.5783 6.00382
54.6285 5.9506
54.6788 5.88452
54.7289 5.83907
54.7792 5.76759
54.8296 5.75935
54.8798 5.75758
54.9301 5.69141
54.9803 5.66461
55.0307 5.66318
55.0809 5.56326
55.1314 5.60081
55.1816 5.42865
55.232 5.43
55.2823 5.37232
55.3328 5.34708
55.383 5.26637
55.4335 5.24948
55.4838 5.14121
55.5344 5.11728
55.5847 5.0623
55.6352 5.06732
55.6856 4.99596
55.7361 5.00779