File: XRD/Ni3Fe_FD0894.xy
TT I
1.27165 7.18298
1.31627 7.13827
1.36089 6.39938
1.40551 6.0608
1.45013 6.34032
1.49476 6.07872
1.53938 5.51247
1.584 4.88551
1.62863 5.17526
1.67325 4.87321
1.71787 5.08166
1.7625 4.73146
1.80712 5.11229
1.85174 4.55573
1.89636 4.59717
1.94099 4.81435
1.98562 4.9784
2.03025 4.09628
2.07487 4.82593
2.11949 4.80498
2.16411 5.33747
2.20874 13.0841
2.25338 20.4777
2.298 6.37947
2.34263 5.30318
2.38725 6.27204
2.43188 6.43287
2.4765 7.67302
2.52115 7.31501
2.56577 8.78371
2.6104 8.8587
2.65503 8.30974
2.69965 8.40018
2.7443 8.43904
2.78893 8.32309
2.83356 8.75094
2.87818 9.05001
2.92281 9.56387
2.96744 9.62568
3.01209 10.5865
3.05672 11.3668
3.10135 11.8183
3.14599 13.3841
3.19062 14.3817
3.23527 15.1267
3.2799 15.4112
3.32454 16.7715
3.36917 17.9356
3.4138 18.717
3.45844 18.9746
3.50309 21.1192
3.54773 21.8026
3.59237 23.7818
3.637 81.9245
3.68164 53.6823
3.7263 26.2175
3.77094 26.1963
3.81558 26.5679
3.86022 27.4829
3.90486 28.7607
3.9495 29.3315
3.99416 30.1267
4.0388 31.8048
4.08344 33.5883
4.12809 33.9224
4.17273 36.7786
4.21738 41.3167
4.26204 216.781
4.30669 191.732
4.35133 47.2212
4.39598 43.3441
4.44063 52.1994
4.4853 62.3412
4.52995 49.666
4.5746 49.9311
4.61925 52.5419
4.6639 54.6067
4.70855 57.0855
4.75322 60.2682
4.79788 62.7375
4.84253 65.7723
4.88719 69.7756
4.93184 74.0476
4.97652 78.8093
5.02118 84.7532
5.06583 92.3551
5.11049 102.943
5.15515 160.607
5.19981 304.078
5.24449 2588.78
5.28916 13432.6
5.33382 2583.16
5.37848 168.687
5.42315 122.426
5.46783 109.669
5.5125 103.3
5.55716 99.5598
5.60183 96.3338
5.6465 94.4452
5.69117 92.3795
5.73586 90.4651
5.78053 89.729
5.8252 89.16
5.86988 89.6373
5.91455 91.6707
5.95924 99.0395
6.00392 184.164
6.0486 874.623
6.09328 4490.51
6.13795 3051.5
6.18263 201.895
6.22733 88.3545
6.27201 79.947
6.3167 96.4289
6.36138 77.7205
6.40606 67.1576
6.45075 66.1238
6.49545 64.0847
6.54014 62.7873
6.58483 61.5559
6.62952 61.3788
6.67421 88.3704
6.71892 129.247
6.76361 66.3718
6.8083 57.4027
6.853 56.2615
6.89769 55.9124
6.94239 55.8391
6.98711 54.4247
7.03181 54.6107
7.07651 54.4981
7.12121 54.1857
7.16591 54.1642
7.21063 54.436
7.25533 67.5298
7.30004 157.481
7.34475 84.4652
7.38945 55.302
7.43416 53.6314
7.47889 53.481
7.5236 53.6208
7.56831 54.2916
7.61303 55.6933
7.65774 56.1525
7.70247 55.1371
7.74719 55.1602
7.79191 55.9036
7.83663 55.7777
7.88135 56.9398
7.92607 57.5115
7.97081 58.8265
8.01553 59.8122
8.06026 61.2679
8.10498 62.6309
8.14971 71.0546
8.19446 70.1737
8.23919 68.4183
8.28392 70.5689
8.32865 72.7687
8.37339 76.954
8.41812 82.782
8.46288 108.545
8.50761 152.215
8.55235 349.473
8.59709 1186.76
8.64183 2282.24
8.68658 891.807
8.73134 146.76
8.77609 95.5842
8.82083 90.2988
8.86558 87.4017
8.91033 87.9328
8.9551 88.8435
8.99985 83.6233
9.04461 82.0647
9.08936 81.2913
9.13412 80.7777
9.17888 80.2848
9.22365 81.038
9.26841 80.5923
9.31318 81.1757
9.35794 81.0861
9.4027 81.5823
9.44749 82.4695
9.49226 83.1845
9.53703 83.6845
9.5818 85.6098
9.62657 89.8732
9.67134 95.5443
9.71614 91.3854
9.76091 91.8616
9.80569 94.6191
9.85047 97.7661
9.89525 118.85
9.94005 130.723
9.98484 163.688
10.0296 315.249
10.0744 783.103
10.1192 1850.62
10.164 1508.21
10.2088 338.716
10.2536 119.019
10.2984 109.379
10.3432 110.617
10.388 101.934
10.4328 113.563
10.4776 153.697
10.5224 278.072
10.5672 533.873
10.612 501.635
10.6568 182.536
10.7017 92.612
10.7465 84.4711
10.7913 81.3467
10.8361 79.3147
10.8809 77.1434
10.9257 76.6677
10.9706 76.987
11.0154 72.9348
11.0602 71.289
11.105 70.3257
11.1499 73.6303
11.1947 79.884
11.2395 72.2626
11.2844 68.5392
11.3292 65.8507
11.374 64.6
11.4189 64.2551
11.4637 63.817
11.5086 64.1254
11.5534 66.2266
11.5983 64.4016
11.6431 62.1954
11.688 61.4894
11.7328 61.6261
11.7777 61.6095
11.8225 61.3034
11.8674 61.1795
11.9122 61.6302
11.9571 61.8277
12.002 62.5088
12.0468 65.7002
12.0917 75.8072
12.1366 99.5511
12.1814 158.144
12.2263 222.596
12.2712 157.904
12.3161 89.2376
12.3609 67.9367
12.4058 63.4303
12.4507 62.8272
12.4956 63.0591
12.5405 63.0395
12.5853 64.0031
12.6302 70.84
12.6751 75.4887
12.72 68.0875
12.7649 66.57
12.8098 67.0436
12.8547 68.1179
12.8996 69.544
12.9445 70.5839
12.9894 72.6086
13.0343 74.1037
13.0792 77.3323
13.1242 85.0423
13.1691 106.581
13.214 141.429
13.2589 236.282
13.3038 389.261
13.3487 426.128
13.3937 238.382
13.4386 114.233
13.4835 100.848
13.5285 114.766
13.5734 152.108
13.6183 250.29
13.6633 369.17
13.7082 333.693
13.7531 166.875
13.7981 91.1824
13.843 79.7561
13.888 77.88
13.9329 75.3959
13.9779 74.4979
14.0228 72.9576
14.0678 71.4839
14.1127 71.2214
14.1577 70.8561
14.2027 69.9859
14.2476 68.9458
14.2926 69.2829
14.3376 69.8695
14.3825 68.7378
14.4275 67.4126
14.4725 67.2886
14.5175 67.4927
14.5624 67.8179
14.6074 69.5035
14.6524 70.3801
14.6974 69.072
14.7424 70.3747
14.7874 76.1429
14.8324 85.5417
14.8774 107.254
14.9224 155.128
14.9674 219.646
15.0124 218.586
15.0574 136.649
15.1024 84.6545
15.1474 70.3366
15.1924 68.7904
15.2374 69.3105
15.2824 68.5023
15.3274 66.6248
15.3725 65.442
15.4175 65.0226
15.4625 64.7763
15.5076 64.827
15.5526 64.8386
15.5976 64.5878
15.6426 65.0335
15.6877 70.0262
15.7327 76.7285
15.7778 91.5926
15.8228 125.708
15.8679 176.601
15.9129 198.158
15.958 149.855
16.003 88.9691
16.0481 65.5393
16.0931 62.9869
16.1382 61.0351
16.1833 59.3292
16.2283 57.7954
16.2734 57.2941
16.3185 57.2178
16.3636 57.7359
16.4086 56.4829
16.4537 55.1827
16.4988 54.3264
16.5439 54.3947
16.589 53.9257
16.6341 53.7585
16.6792 53.4895
16.7243 53.8979
16.7694 53.9798
16.8145 53.8519
16.8596 53.9899
16.9047 55.3641
16.9498 55.5253
16.9949 54.639
17.04 54.6156
17.0851 55.7545
17.1302 57.2181
17.1754 60.1991
17.2205 65.2881
17.2656 73.7974
17.3108 83.4453
17.3559 80.9437
17.401 68.0821
17.4462 60.0594
17.4913 57.877
17.5365 57.8678
17.5815 58.0115
17.6268 58.3392
17.6718 59.1677
17.7171 59.6586
17.7622 60.0935
17.8074 60.6949
17.8525 62.7297
17.8977 66.4374
17.9428 71.2023
17.9881 80.3061
18.0331 99.1215
18.0784 124.763
18.1237 140.167
18.1688 126.073
18.214 96.9349
18.2591 82.8038
18.3044 90.0533
18.3495 102.104
18.3948 107.144
18.4399 92.4685
18.4852 73.8173
18.5303 63.7355
18.5756 60.7877
18.6207 59.8951
18.666 59.1529
18.7112 58.5791
18.7565 57.7917
18.8016 57.4241
18.8469 57.0415
18.892 56.6427
18.9374 56.1349
18.9825 56.0306
19.0278 55.6583
19.073 55.8346
19.1183 56.1991
19.1635 56.903
19.2088 58.0885
19.254 60.6406
19.2993 65.7524
19.3447 72.802
19.3898 75.9293
19.4352 69.9345
19.4804 60.9404
19.5257 54.9
19.5709 53.0865
19.6163 52.9269
19.6615 52.463
19.7068 52.1341
19.752 52.324
19.7974 52.5836
19.8426 53.4028
19.888 53.873
19.9332 54.9997
19.9786 57.6121
20.0238 61.4095
20.0692 67.1287
20.1144 69.2781
20.1598 66.3857
20.205 61.1909
20.2504 60.9471
20.2957 63.9281
20.3411 65.9919
20.3863 62.7901
20.4318 56.1938
20.477 51.9891
20.5224 50.431
20.5677 49.931
20.6131 49.1108
20.6586 48.691
20.7038 48.5932
20.7493 48.1644
20.7945 48.1483
20.84 47.9933
20.8853 47.8182
20.9307 47.599
20.976 47.7478
21.0215 47.6042
21.0668 48.081
21.1122 48.4503
21.1575 49.2116
21.203 50.1789
21.2483 50.8474
21.2938 50.4574
21.3391 48.8119
21.3846 48.0407
21.4299 47.3409
21.4754 47.5212
21.5207 47.6446
21.5662 47.7918
21.6116 48.2564
21.6571 48.7751
21.7024 49.6668
21.7479 51.4607
21.7933 54.4455
21.8388 58.7284
21.8843 62.9532
21.9297 64.0477
21.9752 61.444
22.0206 57.4272
22.0661 55.3429
22.1115 55.5635
22.157 55.2168
22.2024 52.6922
22.248 49.969
22.2933 48.7254
22.3389 48.0273
22.3843 47.9376
22.4299 47.9074
22.4753 47.9231
22.5208 47.6382
22.5662 47.499
22.6118 47.8781
22.6572 47.7851
22.7028 48.1575
22.7483 48.7779
22.7939 49.2518
22.8393 51.0819
22.8849 53.4908
22.9303 55.9092
22.9759 57.4565
23.0214 56.2379
23.067 53.1414
23.1126 49.9172
23.1581 48.1944
23.2037 47.8408
23.2492 47.8544
23.2948 47.9564
23.3403 48.1712
23.3859 48.7117
23.4314 49.808
23.477 51.8733
23.5225 54.3857
23.5682 56.9885
23.6137 57.5399
23.6593 54.3037
23.7048 50.0509
23.7505 47.0057
23.796 45.5257
23.8417 45.1224
23.8872 44.7098
23.9329 44.3199
23.9784 44.0152
24.0241 43.7258
24.0697 43.6878
24.1154 43.2834
24.1609 43.0092
24.2066 42.9958
24.2522 42.8711
24.2979 42.6714
24.3434 42.5657
24.3892 42.4265
24.4349 42.2973
24.4805 42.2009
24.5262 42.4446
24.5718 42.2162
24.6175 42.1029
24.6631 41.9417
24.7089 41.7009
24.7545 41.597
24.8002 41.4397
24.8458 41.5352
24.8916 41.272
24.9372 41.5548
24.983 41.7351
25.0286 42.1996
25.0744 42.614
25.12 43.149
25.1658 43.62
25.2114 43.8517
25.2572 43.9733
25.3029 44.2537
25.3487 44.3326
25.3943 43.7421
25.4402 42.6397
25.4858 41.428
25.5316 40.7308
25.5773 40.1967
25.6231 40.2124
25.669 39.8119
25.7147 39.8288
25.7605 39.748
25.8062 39.8179
25.8521 39.8119
25.8977 39.9154
25.9436 40.1098
25.9893 40.385
26.0352 40.9053
26.0809 40.9555
26.1268 40.9444
26.1725 40.4895
26.2184 39.8588
26.2641 39.4874
26.31 39.3867
26.3557 39.3178
26.4017 39.2494
26.4474 39.676
26.4933 39.9369
26.5391 40.5345
26.585 41.0355
26.6308 41.5904
26.6767 41.5971
26.7225 41.2268
26.7684 40.6496
26.8142 40.1047
26.8601 39.5976
26.9059 39.2861
26.9519 38.7339
26.9979 38.4478
27.0437 38.237
27.0896 38.1
27.1354 38.0185
27.1814 37.8419
27.2272 37.8164
27.2732 37.9021
27.3191 37.5352
27.3651 37.7774
27.4109 37.649
27.4569 37.8518
27.5027 38.0046
27.5488 37.9307
27.5946 37.8087
27.6407 37.3984
27.6865 37.3305
27.7326 37.0623
27.7784 37.1465
27.8245 37.0717
27.8703 37.2626
27.9164 37.6101
27.9623 37.8954
28.0084 38.1626
28.0543 38.6109
28.1003 38.376
28.1462 38.2156
28.1923 37.8565
28.2384 37.2522
28.2843 36.8592
28.3304 36.5762
28.3764 35.9695
28.4225 35.7612
28.4684 35.6018
28.5145 35.3724
28.5605 35.1922
28.6066 34.9908
28.6526 35.0059
28.6987 34.9848
28.7447 34.977
28.7908 34.8727
28.8368 34.8623
28.8829 34.7744
28.9289 34.7221
28.9751 34.4603
29.0211 34.3549
29.0673 34.0281
29.1133 34.0009
29.1595 33.8104
29.2055 33.6155
29.2517 33.6977
29.2977 33.6492
29.3439 33.6915
29.3899 33.6348
29.4361 33.5812
29.4824 33.4079
29.5284 33.1362
29.5746 32.819
29.6207 32.5372
29.6669 32.4141
29.713 32.3614
29.7593 32.2548
29.8053 32.2581
29.8516 32.2263
29.8977 32.1893
29.9439 32.0193
29.99 31.9859
30.0363 31.8831
30.0824 31.9449
30.1287 31.7628
30.1748 31.9344
30.2211 31.9041
30.2673 31.787
30.3136 31.7764
30.3597 31.6648
30.406 31.5844
30.4522 31.4516
30.4985 31.5299
30.5447 31.5776
30.591 31.551
30.6372 31.7352
30.6835 31.6708
30.7297 31.6091
30.7761 31.584
30.8224 31.2878
30.8686 31.2887
30.915 30.9679
30.9612 30.8883
31.0076 30.7089
31.0538 30.6546
31.1002 30.6182
31.1464 30.2809
31.1928 30.2819
31.2391 30.3623
31.2855 30.2379
31.3317 30.2984
31.3781 30.4252
31.4244 30.349
31.4708 30.2964
31.5171 30.2927
31.5636 30.1673
31.6098 29.9083
31.6563 29.7349
31.7026 29.7644
31.7491 29.5931
31.7953 29.613
31.8418 29.6436
31.8881 29.642
31.9346 29.6451
31.9809 29.5447
32.0275 29.4208
32.074 29.304
32.1203 29.0199
32.1668 28.9761
32.2132 28.8431
32.2597 28.7502
32.306 28.5963
32.3526 28.4658
32.399 28.4697
32.4455 28.2517
32.4919 28.1608
32.5385 28.1508
32.5848 28.0307
32.6314 27.9644
32.6778 27.8526
32.7244 27.7043
32.7708 27.7128
32.8174 27.6106
32.8638 27.4924
32.9104 27.6431
32.9569 27.4225
33.0035 27.3493
33.0499 27.3642
33.0966 27.3412
33.143 27.3153
33.1897 27.192
33.2361 27.1913
33.2828 27.087
33.3293 26.8664
33.3759 26.9125
33.4226 26.7198
33.4691 26.6829
33.5158 26.6345
33.5623 26.4413
33.609 26.3395
33.6555 26.1707
33.7022 26.1821
33.7487 26.083
33.7954 26.0589
33.842 25.9335
33.8887 25.9793
33.9353 25.8864
33.982 25.656
34.0286 25.5617
34.0753 25.5155
34.1219 25.4224
34.1687 25.3709
34.2152 25.2653
34.262 25.1741
34.3086 25.1182
34.3554 25.0825
34.402 24.9684
34.4488 24.8345
34.4954 24.866
34.5422 24.6857
34.5889 24.625
34.6357 24.5203
34.6825 24.5066
34.7292 24.4239
34.776 24.2529
34.8227 24.2845
34.8695 24.2858
34.9162 24.1734
34.9631 24.0373
35.0098 24.097
35.0566 23.9492
35.1033 23.9152
35.1502 23.8844
35.1969 23.7741
35.2438 23.741
35.2906 23.7048
35.3375 23.6629
35.3842 23.5908
35.4311 23.5044
35.4779 23.5117
35.5248 23.4199
35.5716 23.401
35.6185 23.2326
35.6653 23.1238
35.7123 23.1905
35.759 23.062
35.806 22.947
35.8528 22.8464
35.8998 22.8296
35.9468 22.7956
35.9936 22.6551
36.0406 22.5968
36.0874 22.6638
36.1345 22.5213
36.1813 22.4131
36.2283 22.372
36.2752 22.1624
36.3222 22.2978
36.3691 22.2039
36.4161 22.1156
36.463 22.043
36.5101 21.9906
36.557 21.9911
36.6041 21.8231
36.651 21.7888
36.6981 21.7501
36.745 21.6407
36.7921 21.5409
36.839 21.5182
36.8861 21.4034
36.9331 21.3364
36.9802 21.302
37.0272 21.2322
37.0743 21.1536
37.1213 21.0891
37.1684 21.0303
37.2154 20.9837
37.2626 20.9016
37.3098 20.9129
37.3568 20.7217
37.404 20.6771
37.451 20.6489
37.4982 20.6606
37.5452 20.423
37.5924 20.4083
37.6395 20.4838
37.6867 20.373
37.7337 20.243
37.781 20.1559
37.8281 20.1103
37.8753 20.0142
37.9224 20.0491
37.9697 19.8922
38.0168 19.8581
38.064 19.7812
38.1111 19.7384
38.1584 19.7034
38.2056 19.5892
38.2529 19.5844
38.3 19.4362
38.3473 19.4818
38.3945 19.349
38.4418 19.3346
38.489 19.3067
38.5363 19.2352
38.5837 19.1178
38.6309 19.0761
38.6782 19.0102
38.7254 18.8316
38.7728 18.8767
38.82 18.89
38.8674 18.7983
38.9146 18.7069
38.9621 18.6258
39.0093 18.6074
39.0567 18.5734
39.104 18.4956
39.1514 18.384
39.1987 18.3798
39.2461 18.2896
39.2934 18.2624
39.3409 18.1085
39.3882 18.1116
39.4356 18.0514
39.483 18.0515
39.5304 17.9668
39.5778 17.9646
39.6253 17.8356
39.6726 17.7438
39.7201 17.7876
39.7675 17.6957
39.815 17.672
39.8624 17.5133
39.9099 17.5187
39.9575 17.3973
40.0049 17.4047
40.0525 17.3191
40.0999 17.3512
40.1474 17.1974
40.1949 17.1579
40.2425 17.1005
40.2899 17.0856
40.3375 17.0518
40.385 16.9302
40.4326 16.8649
40.48 16.8421
40.5277 16.8314
40.5752 16.7292
40.6228 16.6992
40.6703 16.6481
40.718 16.5817
40.7655 16.5193
40.8132 16.418
40.8607 16.4935
40.9084 16.3585
40.9559 16.2748
41.0036 16.2968
41.0512 16.2416
41.0989 16.145
41.1465 16.0999
41.1942 16.0741
41.242 15.9851
41.2896 15.9371
41.3373 15.8965
41.3849 15.8365
41.4327 15.7717
41.4803 15.6711
41.5281 15.7231
41.5758 15.6654
41.6236 15.55
41.6712 15.473
41.7191 15.4801
41.7667 15.4179
41.8146 15.3735
41.8622 15.3285
41.9101 15.2695
41.9578 15.148
42.0057 15.1365
42.0534 15.1095
42.1013 15.0939
42.149 15.0011
42.1969 14.9641
42.2446 14.9679
42.2925 14.8669
42.3403 14.8559
42.3882 14.8031
42.436 14.7355
42.4839 14.6757
42.5319 14.6519
42.5797 14.5679
42.6277 14.4936
42.6755 14.439
42.7235 14.3968
42.7713 14.4028
42.8193 14.305
42.8671 14.3186
42.9152 14.2639
42.963 14.19
43.0111 14.1274
43.0589 14.0569
43.107 13.9613
43.1549 13.9942
43.2029 13.9593
43.2508 13.9103
43.2989 13.8809
43.3468 13.8019
43.3949 13.7353
43.4429 13.7015
43.491 13.6266
43.5389 13.595
43.5871 13.5881
43.635 13.5012
43.6832 13.5114
43.7312 13.3908
43.7793 13.4295
43.8273 13.3128
43.8755 13.279
43.9237 13.267
43.9717 13.1908
44.0199 13.1206
44.068 13.0999
44.1162 13.0559
44.1642 13.0632
44.2125 12.9361
44.2606 12.9232
44.3088 12.8855
44.3569 12.7853
44.4052 12.7612
44.4533 12.7714
44.5016 12.6642
44.5497 12.6771
44.598 12.5724
44.6461 12.552
44.6945 12.4993
44.7426 12.4953
44.791 12.4085
44.8391 12.3423
44.8875 12.3582
44.9357 12.3087
44.984 12.2545
45.0322 12.2358
45.0806 12.1739
45.1288 12.1302
45.1773 12.1118
45.2257 12.0216
45.2739 11.9743
45.3224 11.9429
45.3706 11.9112
45.4191 11.8797
45.4673 11.8598
45.5158 11.877
45.5641 11.7195
45.6126 11.6873
45.6609 11.6567
45.7094 11.6286
45.7577 11.5743
45.8063 11.4894
45.8546 11.4941
45.9031 11.4651
45.9515 11.4617
46.0001 11.3667
46.0484 11.3246
46.097 11.3266
46.1454 11.262
46.194 11.205
46.2424 11.1584
46.291 11.1299
46.3395 11.064
46.3881 11.0028
46.4365 11.0289
46.4852 10.9721
46.5337 10.9327
46.5823 10.8927
46.631 10.832
46.6795 10.8458
46.7282 10.7957
46.7767 10.7463
46.8254 10.6952
46.8739 10.6829
46.9226 10.6047
46.9712 10.5518
47.0199 10.5542
47.0685 10.5102
47.1173 10.4234
47.1658 10.37
47.2146 10.4171
47.2632 10.3599
47.312 10.3421
47.3606 10.2773
47.4095 10.2293
47.4581 10.2204
47.5069 10.0998
47.5556 10.0992
47.6044 10.0517
47.6531 10.0261
47.702 9.97685
47.7507 9.96482
47.7996 9.92425
47.8483 9.88661
47.8972 9.85406
47.9461 9.81787
47.9948 9.78381
48.0438 9.76593
48.0925 9.73819
48.1415 9.64991
48.1902 9.64433
48.2392 9.63705
48.288 9.59032
48.337 9.54729
48.3858 9.50603
48.4348 9.50286
48.4837 9.44132
48.5327 9.44121
48.5815 9.35939
48.6306 9.34538
48.6795 9.27667
48.7285 9.25236
48.7774 9.22369
48.8265 9.2
48.8754 9.16652
48.9245 9.14304
48.9734 9.08938
49.0226 9.06378
49.0715 8.98801
49.1206 8.97713
49.1696 8.94052
49.2188 8.92566
49.2679 8.9088
49.3169 8.84034
49.3661 8.80485
49.4151 8.79765
49.4643 8.78377
49.5134 8.70361
49.5626 8.67423
49.6117 8.63055
49.6609 8.60825
49.71 8.59316
49.7592 8.55477
49.8083 8.49676
49.8576 8.49642
49.9067 8.43637
49.956 8.41149
50.0052 8.36927
50.0545 8.36897
50.1036 8.33963
50.153 8.31963
50.2022 8.29382
50.2515 8.18179
50.3007 8.18303
50.3501 8.1788
50.3993 8.12922
50.4487 8.10902
50.498 8.08177
50.5474 8.04634
50.5966 8.00542
50.6461 7.97057
50.6955 7.95509
50.7448 7.89644
50.7943 7.91888
50.8436 7.88651
50.8931 7.82809
50.9424 7.80016
50.9919 7.75267
51.0413 7.72328
51.0908 7.69527
51.1402 7.66689
51.1897 7.64678
51.2391 7.61093
51.2887 7.56544
51.3381 7.51909
51.3877 7.49316
51.4371 7.44707
51.4867 7.47492
51.5362 7.41512
51.5858 7.4016
51.6353 7.32829
51.6849 7.33373
51.7344 7.26861
51.7841 7.25312
51.8336 7.26489
51.8833 7.20625
51.9328 7.14066
51.9826 7.16633
52.0323 7.13965
52.0818 7.07106
52.1316 7.06582
52.1812 7.07601
52.231 6.9765
52.2806 6.96972
52.3304 6.95667
52.38 6.90029
52.4298 6.89775
52.4794 6.86468
52.5293 6.83841
52.5789 6.82656
52.6288 6.81987
52.6785 6.72834
52.7284 6.73061
52.7781 6.70887
52.828 6.67791
52.8777 6.64699
52.9276 6.62372
52.9774 6.60753
53.0273 6.5783
53.0771 6.49767
53.1271 6.50478
53.1769 6.48452
53.2269 6.46988
53.2767 6.40784
53.3267 6.41994
53.3765 6.35473
53.4266 6.33749
53.4766 6.29751
53.5265 6.27336
53.5765 6.27344
53.6264 6.23738
53.6765 6.2369
53.7264 6.17931
53.7765 6.1389
53.8265 6.08937
53.8766 6.09866
53.9266 6.08675
53.9767 6.07641
54.0267 5.99381
54.0769 5.9908
54.1269 5.9803
54.1771 5.91425
54.2271 5.89199
54.2773 5.86816
54.3274 5.83428
54.3776 5.84041
54.4277 5.79968
54.478 5.75178
54.528 5.70099
54.5783 5.66821
54.6285 5.63792
54.6788 5.57428
54.7289 5.52881
54.7792 5.47334
54.8296 5.43826
54.8798 5.4112
54.9301 5.37606
54.9803 5.38473
55.0307 5.33293
55.0809 5.28482
55.1314 5.23777
55.1816 5.19204
55.232 5.11222
55.2823 5.11676
55.3328 5.06792
55.383 5.01555
55.4335 4.97688
55.4838 4.94488
55.5344 4.86112
55.5847 4.76543
55.6352 4.75603
55.6856 4.79624
55.7361 4.71963