File: XRD/Ni3Fe_FD0762.xy
TT I
1.27165 6.88044
1.31627 6.87337
1.36089 6.81654
1.40551 5.56254
1.45013 6.2459
1.49476 6.0622
1.53938 5.78378
1.584 5.90905
1.62863 4.60166
1.67325 5.16655
1.71787 4.69337
1.7625 5.05485
1.80712 4.86676
1.85174 5.16108
1.89636 5.17101
1.94099 4.99048
1.98562 5.23977
2.03025 4.8083
2.07487 4.67953
2.11949 5.39351
2.16411 5.33839
2.20874 16.0649
2.25338 27.1926
2.298 6.22094
2.34263 5.46319
2.38725 5.91467
2.43188 5.9774
2.4765 6.98996
2.52115 7.33829
2.56577 7.84893
2.6104 8.47332
2.65503 8.22025
2.69965 8.19852
2.7443 7.97702
2.78893 9.21188
2.83356 8.27461
2.87818 9.24578
2.92281 9.10103
2.96744 9.17014
3.01209 10.6026
3.05672 10.8903
3.10135 12.4999
3.14599 13.0115
3.19062 14.3023
3.23527 15.4027
3.2799 15.9017
3.32454 17.0132
3.36917 17.7903
3.4138 19.068
3.45844 20.0135
3.50309 20.6485
3.54773 22.2114
3.59237 24.5341
3.637 109.492
3.68164 68.2665
3.7263 26.4502
3.77094 26.2207
3.81558 26.6292
3.86022 27.5891
3.90486 29.0837
3.9495 30.0408
3.99416 31.1569
4.0388 32.6441
4.08344 33.6995
4.12809 34.7073
4.17273 37.6072
4.21738 43.9216
4.26204 293.604
4.30669 264.172
4.35133 50.2362
4.39598 44.8963
4.44063 55.8909
4.4853 70.1268
4.52995 50.0799
4.5746 50.705
4.61925 53.3554
4.6639 54.9542
4.70855 57.4885
4.75322 60.5104
4.79788 63.0194
4.84253 66.4412
4.88719 70.2916
4.93184 74.1772
4.97652 79.0657
5.02118 84.7929
5.06583 92.4782
5.11049 102.801
5.15515 177.872
5.19981 304.192
5.24449 2445.88
5.28916 12857.7
5.33382 3006.16
5.37848 188.374
5.42315 128.137
5.46783 111.918
5.5125 104.451
5.55716 101.498
5.60183 97.8922
5.6465 95.8684
5.69117 92.9311
5.73586 90.815
5.78053 90.6656
5.8252 89.5171
5.86988 90.0346
5.91455 91.4432
5.95924 98.0144
6.00392 179.086
6.0486 833.137
6.09328 4290.79
6.13795 3302.58
6.18263 244.431
6.22733 92.6385
6.27201 82.9439
6.3167 107.865
6.36138 82.6717
6.40606 68.553
6.45075 66.7473
6.49545 65.105
6.54014 63.7207
6.58483 62.9026
6.62952 62.742
6.67421 100.006
6.71892 164.726
6.76361 71.4574
6.8083 58.8884
6.853 57.4667
6.89769 56.9212
6.94239 56.2782
6.98711 55.9022
7.03181 55.6742
7.07651 55.1472
7.12121 55.3833
7.16591 55.5695
7.21063 55.8265
7.25533 73.2297
7.30004 209.423
7.34475 101.304
7.38945 57.1183
7.43416 55.1423
7.47889 54.7081
7.5236 54.8674
7.56831 55.3965
7.61303 57.5909
7.65774 57.8904
7.70247 55.9689
7.74719 55.6862
7.79191 56.4349
7.83663 56.3488
7.88135 57.3106
7.92607 58.4171
7.97081 59.6849
8.01553 60.465
8.06026 62.1009
8.10498 64.0757
8.14971 74.5085
8.19446 73.2441
8.23919 69.2864
8.28392 71.1159
8.32865 73.5625
8.37339 77.3555
8.41812 84.3229
8.46288 117.064
8.50761 149.733
8.55235 349.528
8.59709 1093.66
8.64183 2179.65
8.68658 1033.58
8.73134 169.375
8.77609 98.8193
8.82083 92.059
8.86558 89.1024
8.91033 89.5089
8.9551 92.6347
8.99985 84.8959
9.04461 82.7266
9.08936 82.0823
9.13412 81.0813
9.17888 81.2452
9.22365 82.098
9.26841 81.3877
9.31318 81.9103
9.35794 81.6637
9.4027 82.3371
9.44749 83.1961
9.49226 83.918
9.53703 84.4062
9.5818 86.2328
9.62657 91.717
9.67134 99.9268
9.71614 93.6414
9.76091 93.2601
9.80569 95.2538
9.85047 98.6358
9.89525 126.964
9.94005 139.777
9.98484 158.585
10.0296 302.198
10.0744 747.798
10.1192 1739.98
10.164 1628.79
10.2088 407.147
10.2536 126.748
10.2984 113.62
10.3432 116.752
10.388 103.721
10.4328 112.805
10.4776 149.356
10.5224 265.568
10.5672 507.964
10.612 521.01
10.6568 212.76
10.7017 96.932
10.7465 85.6393
10.7913 82.3865
10.8361 80.4281
10.8809 78.6864
10.9257 78.3107
10.9706 79.3409
11.0154 74.7838
11.0602 72.4184
11.105 71.6007
11.1499 76.8259
11.1947 86.8971
11.2395 75.6544
11.2844 70.8005
11.3292 67.0775
11.374 65.633
11.4189 65.1224
11.4637 64.5431
11.5086 65.389
11.5534 68.9972
11.5983 66.062
11.6431 63.4261
11.688 62.3674
11.7328 62.6879
11.7777 62.7571
11.8225 62.0376
11.8674 62.0503
11.9122 62.4398
11.9571 62.3493
12.002 62.7652
12.0468 65.9595
12.0917 76.001
12.1366 98.255
12.1814 147.929
12.2263 209.783
12.2712 174.787
12.3161 101.285
12.3609 71.8573
12.4058 64.6754
12.4507 63.8387
12.4956 64.0101
12.5405 64.1273
12.5853 65.3747
12.6302 74.269
12.6751 81.6971
12.72 70.5606
12.7649 67.4537
12.8098 67.7032
12.8547 69.2621
12.8996 70.2986
12.9445 71.4751
12.9894 73.4935
13.0343 74.7847
13.0792 77.676
13.1242 84.8003
13.1691 106.141
13.214 139.497
13.2589 225.363
13.3038 365.093
13.3487 433.774
13.3937 274.461
13.4386 127.068
13.4835 102.081
13.5285 114.046
13.5734 148.603
13.6183 237.127
13.6633 345.306
13.7082 347.063
13.7531 190.724
13.7981 98.0898
13.843 81.0963
13.888 78.9718
13.9329 76.407
13.9779 75.086
14.0228 73.7154
14.0678 72.2372
14.1127 71.9621
14.1577 72.0348
14.2027 71.0475
14.2476 69.814
14.2926 70.3971
14.3376 71.56
14.3825 70.2037
14.4275 68.376
14.4725 68.0042
14.5175 68.2357
14.5624 68.2798
14.6074 70.9511
14.6524 71.6269
14.6974 69.6562
14.7424 70.6794
14.7874 76.148
14.8324 85.3609
14.8774 105.219
14.9224 147.303
14.9674 204.166
15.0124 222.811
15.0574 151.919
15.1024 92.0581
15.1474 72.014
15.1924 69.9745
15.2374 71.2178
15.2824 70.3028
15.3274 67.6866
15.3725 66.3968
15.4175 65.7554
15.4625 65.5096
15.5076 65.9052
15.5526 65.7789
15.5976 65.0196
15.6426 65.7125
15.6877 69.8403
15.7327 76.7954
15.7778 90.6844
15.8228 120.602
15.8679 165.533
15.9129 194.028
15.958 158.588
16.003 98.7257
16.0481 68.5147
16.0931 65.0341
16.1382 62.8934
16.1833 60.1272
16.2283 58.5978
16.2734 58.0385
16.3185 58.6325
16.3636 59.8012
16.4086 57.959
16.4537 55.8598
16.4988 55.0586
16.5439 55.1246
16.589 54.6007
16.6341 54.6678
16.6792 54.2239
16.7243 54.5415
16.7694 54.7485
16.8145 54.5503
16.8596 54.9591
16.9047 57.0133
16.9498 57.1368
16.9949 55.5233
17.04 55.2982
17.0851 56.3281
17.1302 57.8495
17.1754 60.8124
17.2205 65.5329
17.2656 73.2135
17.3108 82.8957
17.3559 82.8987
17.401 71.3356
17.4462 61.8424
17.4913 58.5628
17.5365 58.5402
17.5815 58.6258
17.6268 58.9933
17.6718 59.964
17.7171 60.4691
17.7622 60.5724
17.8074 61.1941
17.8525 63.0034
17.8977 66.626
17.9428 71.9876
17.9881 79.8228
18.0331 96.4695
18.0784 118.749
18.1237 138.628
18.1688 131.767
18.214 104.28
18.2591 85.6696
18.3044 88.6558
18.3495 99.0671
18.3948 105.85
18.4399 96.7161
18.4852 78.2077
18.5303 65.9427
18.5756 61.8313
18.6207 60.7316
18.666 60.0132
18.7112 59.32
18.7565 58.4146
18.8016 58.2138
18.8469 57.5194
18.892 57.3322
18.9374 56.8569
18.9825 56.77
19.0278 56.4258
19.073 56.5956
19.1183 56.7468
19.1635 57.7715
19.2088 58.9817
19.254 61.1459
19.2993 65.1241
19.3447 72.2148
19.3898 76.725
19.4352 72.7102
19.4804 63.6068
19.5257 56.505
19.5709 53.7331
19.6163 53.4977
19.6615 53.377
19.7068 53.0077
19.752 52.952
19.7974 53.0166
19.8426 53.884
19.888 54.4121
19.9332 55.6263
19.9786 57.7172
20.0238 61.4828
20.0692 66.4655
20.1144 69.4241
20.1598 67.7694
20.205 63.0771
20.2504 61.3248
20.2957 63.165
20.3411 65.5615
20.3863 64.3259
20.4318 58.3056
20.477 53.8145
20.5224 51.391
20.5677 50.7422
20.6131 50.0125
20.6586 49.3251
20.7038 49.2239
20.7493 48.8923
20.7945 48.5882
20.84 48.4975
20.8853 48.2511
20.9307 48.1182
20.976 48.3944
21.0215 48.2533
21.0668 48.5679
21.1122 48.9708
21.1575 49.6824
21.203 50.2618
21.2483 51.0075
21.2938 51.065
21.3391 49.7603
21.3846 48.5369
21.4299 48.0833
21.4754 48.0875
21.5207 48.0235
21.5662 48.2207
21.6116 48.6257
21.6571 49.1923
21.7024 50.1804
21.7479 51.8587
21.7933 54.4135
21.8388 57.9201
21.8843 62.0202
21.9297 64.2848
21.9752 63.1867
22.0206 59.344
22.0661 56.3227
22.1115 55.755
22.157 55.6667
22.2024 54.0379
22.248 51.2378
22.2933 49.6342
22.3389 48.7242
22.3843 48.7115
22.4299 48.737
22.4753 48.7385
22.5208 48.3112
22.5662 48.0241
22.6118 48.0984
22.6572 48.2411
22.7028 48.7141
22.7483 49.2353
22.7939 49.8119
22.8393 51.0025
22.8849 53.4324
22.9303 55.6501
22.9759 57.554
23.0214 57.4673
23.067 54.364
23.1126 51.0028
23.1581 48.9487
23.2037 48.4458
23.2492 48.3741
23.2948 48.4771
23.3403 48.5012
23.3859 49.0781
23.4314 50.1534
23.477 51.9678
23.5225 54.2005
23.5682 56.624
23.6137 57.7638
23.6593 55.626
23.7048 51.514
23.7505 48.2288
23.796 46.4036
23.8417 45.8264
23.8872 45.303
23.9329 44.97
23.9784 44.5339
24.0241 44.2766
24.0697 44.2193
24.1154 43.7636
24.1609 43.771
24.2066 43.614
24.2522 43.3526
24.2979 43.1315
24.3434 42.9133
24.3892 42.9044
24.4349 42.9096
24.4805 42.5778
24.5262 42.8572
24.5718 42.6202
24.6175 42.6285
24.6631 42.4679
24.7089 42.1426
24.7545 42.0322
24.8002 41.9578
24.8458 41.9453
24.8916 41.6466
24.9372 41.7336
24.983 42.1899
25.0286 42.3985
25.0744 42.8541
25.12 43.4557
25.1658 44.0435
25.2114 44.3586
25.2572 44.2926
25.3029 44.5615
25.3487 44.714
25.3943 44.3453
25.4402 43.3989
25.4858 42.321
25.5316 41.2707
25.5773 40.7232
25.6231 40.5221
25.669 40.1027
25.7147 40.2695
25.7605 40.1389
25.8062 40.2257
25.8521 40.3455
25.8977 40.3298
25.9436 40.5267
25.9893 40.5884
26.0352 41.1143
26.0809 41.2461
26.1268 41.3539
26.1725 41.0998
26.2184 40.4853
26.2641 40.1204
26.31 39.7755
26.3557 39.7747
26.4017 39.9262
26.4474 40.0743
26.4933 40.5024
26.5391 40.8796
26.585 41.3372
26.6308 41.6008
26.6767 41.8978
26.7225 41.8651
26.7684 41.1277
26.8142 40.6046
26.8601 40.2399
26.9059 39.7027
26.9519 39.2782
26.9979 38.9305
27.0437 38.5881
27.0896 38.501
27.1354 38.5128
27.1814 38.2636
27.2272 38.2231
27.2732 38.3989
27.3191 38.0455
27.3651 38.1974
27.4109 38.1199
27.4569 38.2419
27.5027 38.2355
27.5488 38.3248
27.5946 38.101
27.6407 37.7796
27.6865 37.793
27.7326 37.5981
27.7784 37.6504
27.8245 37.3854
27.8703 37.7245
27.9164 37.9134
27.9623 38.1043
28.0084 38.4273
28.0543 38.8645
28.1003 38.7266
28.1462 38.6117
28.1923 38.2196
28.2384 37.7351
28.2843 37.4473
28.3304 36.9315
28.3764 36.5136
28.4225 36.2742
28.4684 35.983
28.5145 35.765
28.5605 35.68
28.6066 35.3281
28.6526 35.3841
28.6987 35.4327
28.7447 35.3669
28.7908 35.1688
28.8368 35.2786
28.8829 35.1625
28.9289 35.0653
28.9751 34.9182
29.0211 34.7468
29.0673 34.4884
29.1133 34.3746
29.1595 34.1914
29.2055 34.1091
29.2517 34.1374
29.2977 34.1336
29.3439 34.1143
29.3899 34.0146
29.4361 34.0423
29.4824 33.7556
29.5284 33.4559
29.5746 33.1967
29.6207 32.9927
29.6669 32.9226
29.713 32.7824
29.7593 32.756
29.8053 32.6705
29.8516 32.6218
29.8977 32.5923
29.9439 32.4167
29.99 32.401
30.0363 32.2135
30.0824 32.3971
30.1287 32.2636
30.1748 32.2145
30.2211 32.2546
30.2673 32.0788
30.3136 32.2179
30.3597 32.0465
30.406 32.0158
30.4522 31.9087
30.4985 31.8488
30.5447 31.96
30.591 31.9063
30.6372 31.9268
30.6835 31.9325
30.7297 32.0096
30.7761 32.0678
30.8224 31.924
30.8686 31.6689
30.915 31.4267
30.9612 31.3204
31.0076 31.18
31.0538 31.0684
31.1002 30.8592
31.1464 30.7282
31.1928 30.7624
31.2391 30.7763
31.2855 30.6527
31.3317 30.7904
31.3781 30.7775
31.4244 30.7387
31.4708 30.54
31.5171 30.6674
31.5636 30.603
31.6098 30.3737
31.6563 30.1943
31.7026 30.0087
31.7491 29.9011
31.7953 29.9955
31.8418 29.9348
31.8881 29.9385
31.9346 29.8622
31.9809 29.904
32.0275 29.6928
32.074 29.7209
32.1203 29.4726
32.1668 29.3006
32.2132 29.254
32.2597 29.1312
32.306 28.9739
32.3526 28.8128
32.399 28.7729
32.4455 28.6754
32.4919 28.5767
32.5385 28.4457
32.5848 28.425
32.6314 28.3164
32.6778 28.2381
32.7244 28.172
32.7708 27.9367
32.8174 28.0214
32.8638 27.8511
32.9104 27.88
32.9569 27.7862
33.0035 27.6873
33.0499 27.75
33.0966 27.5807
33.143 27.6415
33.1897 27.4871
33.2361 27.3863
33.2828 27.363
33.3293 27.288
33.3759 27.2221
33.4226 27.2136
33.4691 26.9631
33.5158 26.9156
33.5623 26.7854
33.609 26.6211
33.6555 26.519
33.7022 26.5757
33.7487 26.3834
33.7954 26.28
33.842 26.2029
33.8887 26.1976
33.9353 26.1684
33.982 26.0001
34.0286 25.9267
34.0753 25.874
34.1219 25.7312
34.1687 25.6614
34.2152 25.7061
34.262 25.5029
34.3086 25.4349
34.3554 25.3676
34.402 25.2536
34.4488 25.1399
34.4954 25.094
34.5422 24.9134
34.5889 24.947
34.6357 24.7827
34.6825 24.7782
34.7292 24.708
34.776 24.5395
34.8227 24.4971
34.8695 24.5089
34.9162 24.5103
34.9631 24.3033
35.0098 24.419
35.0566 24.2642
35.1033 24.2102
35.1502 24.1342
35.1969 24.0728
35.2438 24.0827
35.2906 23.9723
35.3375 23.8943
35.3842 23.837
35.4311 23.8653
35.4779 23.7995
35.5248 23.7492
35.5716 23.6254
35.6185 23.5737
35.6653 23.4812
35.7123 23.4201
35.759 23.2737
35.806 23.2827
35.8528 23.1171
35.8998 23.1078
35.9468 22.9322
35.9936 22.9243
36.0406 22.8828
36.0874 22.8372
36.1345 22.8291
36.1813 22.6349
36.2283 22.6301
36.2752 22.4976
36.3222 22.5496
36.3691 22.436
36.4161 22.3049
36.463 22.2873
36.5101 22.3278
36.557 22.2623
36.6041 22.0276
36.651 22.018
36.6981 21.964
36.745 21.9368
36.7921 21.8628
36.839 21.7465
36.8861 21.6041
36.9331 21.5557
36.9802 21.5713
37.0272 21.5245
37.0743 21.3751
37.1213 21.3571
37.1684 21.3094
37.2154 21.2676
37.2626 21.121
37.3098 21.1018
37.3568 21.0426
37.404 20.981
37.451 20.8123
37.4982 20.8768
37.5452 20.706
37.5924 20.6282
37.6395 20.6622
37.6867 20.6091
37.7337 20.5198
37.781 20.4406
37.8281 20.3371
37.8753 20.3216
37.9224 20.294
37.9697 20.113
38.0168 20.1206
38.064 20.055
38.1111 20.0005
38.1584 19.8937
38.2056 19.8744
38.2529 19.7891
38.3 19.7479
38.3473 19.6932
38.3945 19.5898
38.4418 19.5437
38.489 19.4901
38.5363 19.4278
38.5837 19.3182
38.6309 19.2705
38.6782 19.215
38.7254 19.1279
38.7728 19.0882
38.82 18.9749
38.8674 19.0203
38.9146 18.9281
38.9621 18.8953
39.0093 18.7738
39.0567 18.7077
39.104 18.6724
39.1514 18.6198
39.1987 18.6136
39.2461 18.4915
39.2934 18.4648
39.3409 18.3074
39.3882 18.2723
39.4356 18.2838
39.483 18.2035
39.5304 18.1458
39.5778 18.0826
39.6253 18.0699
39.6726 17.9638
39.7201 17.9705
39.7675 17.9096
39.815 17.8784
39.8624 17.7613
39.9099 17.7317
39.9575 17.6388
40.0049 17.6228
40.0525 17.5087
40.0999 17.4715
40.1474 17.415
40.1949 17.3628
40.2425 17.345
40.2899 17.2902
40.3375 17.2271
40.385 17.1621
40.4326 17.0739
40.48 17.0299
40.5277 16.9775
40.5752 16.9276
40.6228 16.8829
40.6703 16.765
40.718 16.7622
40.7655 16.7261
40.8132 16.6089
40.8607 16.6602
40.9084 16.582
40.9559 16.5414
41.0036 16.4981
41.0512 16.4251
41.0989 16.3435
41.1465 16.2821
41.1942 16.2736
41.242 16.1551
41.2896 16.1553
41.3373 16.0837
41.3849 16.0493
41.4327 15.9691
41.4803 15.9026
41.5281 15.8924
41.5758 15.8041
41.6236 15.7157
41.6712 15.6437
41.7191 15.6156
41.7667 15.5848
41.8146 15.6042
41.8622 15.4736
41.9101 15.5011
41.9578 15.3123
42.0057 15.2892
42.0534 15.2892
42.1013 15.1902
42.149 15.1708
42.1969 15.14
42.2446 15.132
42.2925 15.0992
42.3403 14.9634
42.3882 14.9964
42.436 14.9295
42.4839 14.8236
42.5319 14.8278
42.5797 14.7505
42.6277 14.6602
42.6755 14.6814
42.7235 14.5811
42.7713 14.5734
42.8193 14.5265
42.8671 14.4664
42.9152 14.3709
42.963 14.3495
43.0111 14.3157
43.0589 14.2561
43.107 14.1774
43.1549 14.1376
43.2029 14.1605
43.2508 14.0728
43.2989 13.9949
43.3468 13.9724
43.3949 13.9157
43.4429 13.8598
43.491 13.8267
43.5389 13.7831
43.5871 13.759
43.635 13.7017
43.6832 13.6081
43.7312 13.5369
43.7793 13.5136
43.8273 13.5227
43.8755 13.4494
43.9237 13.3857
43.9717 13.4164
44.0199 13.3097
44.068 13.2686
44.1162 13.2053
44.1642 13.2203
44.2125 13.1465
44.2606 13.0754
44.3088 13.0426
44.3569 12.965
44.4052 12.991
44.4533 12.8718
44.5016 12.8376
44.5497 12.8149
44.598 12.7793
44.6461 12.6725
44.6945 12.6542
44.7426 12.6048
44.791 12.5635
44.8391 12.5622
44.8875 12.4875
44.9357 12.445
44.984 12.4099
45.0322 12.3749
45.0806 12.3137
45.1288 12.257
45.1773 12.2068
45.2257 12.1891
45.2739 12.1141
45.3224 12.0816
45.3706 12.0816
45.4191 11.9744
45.4673 12.0003
45.5158 11.9528
45.5641 11.8716
45.6126 11.8621
45.6609 11.7963
45.7094 11.7544
45.7577 11.6884
45.8063 11.6453
45.8546 11.6899
45.9031 11.6181
45.9515 11.5387
46.0001 11.5336
46.0484 11.479
46.097 11.4607
46.1454 11.4214
46.194 11.3464
46.2424 11.3155
46.291 11.2708
46.3395 11.2466
46.3881 11.1619
46.4365 11.1859
46.4852 11.081
46.5337 11.0383
46.5823 11.0418
46.631 10.9551
46.6795 10.9423
46.7282 10.9398
46.7767 10.8941
46.8254 10.8247
46.8739 10.7877
46.9226 10.7619
46.9712 10.6743
47.0199 10.6358
47.0685 10.6253
47.1173 10.5613
47.1658 10.5335
47.2146 10.4845
47.2632 10.4584
47.312 10.4194
47.3606 10.3785
47.4095 10.3231
47.4581 10.3357
47.5069 10.2785
47.5556 10.2464
47.6044 10.1851
47.6531 10.1217
47.702 10.0944
47.7507 10.1012
47.7996 10.0712
47.8483 10.0322
47.8972 10.0279
47.9461 9.93662
47.9948 9.87774
48.0438 9.87481
48.0925 9.8364
48.1415 9.81842
48.1902 9.75983
48.2392 9.79108
48.288 9.6751
48.337 9.68339
48.3858 9.61035
48.4348 9.60489
48.4837 9.5743
48.5327 9.54443
48.5815 9.46944
48.6306 9.46834
48.6795 9.46669
48.7285 9.36094
48.7774 9.36336
48.8265 9.31829
48.8754 9.23094
48.9245 9.26119
48.9734 9.19545
49.0226 9.169
49.0715 9.11884
49.1206 9.11031
49.1696 9.07221
49.2188 9.03313
49.2679 8.97041
49.3169 8.98116
49.3661 8.91239
49.4151 8.89108
49.4643 8.85364
49.5134 8.84188
49.5626 8.75518
49.6117 8.72685
49.6609 8.73541
49.71 8.67068
49.7592 8.62824
49.8083 8.63267
49.8576 8.60251
49.9067 8.56447
49.956 8.51163
50.0052 8.49495
50.0545 8.46623
50.1036 8.42107
50.153 8.3616
50.2022 8.37231
50.2515 8.35438
50.3007 8.29208
50.3501 8.26362
50.3993 8.2386
50.4487 8.20153
50.498 8.17576
50.5474 8.14563
50.5966 8.09745
50.6461 8.06258
50.6955 8.06697
50.7448 8.01208
50.7943 7.97773
50.8436 7.94053
50.8931 7.9072
50.9424 7.90192
50.9919 7.84034
51.0413 7.85008
51.0908 7.79137
51.1402 7.76905
51.1897 7.74576
51.2391 7.72851
51.2887 7.65071
51.3381 7.6196
51.3877 7.6109
51.4371 7.60382
51.4867 7.54985
51.5362 7.51863
51.5858 7.49958
51.6353 7.46387
51.6849 7.43364
51.7344 7.38986
51.7841 7.40045
51.8336 7.34051
51.8833 7.31363
51.9328 7.27308
51.9826 7.24163
52.0323 7.19308
52.0818 7.18667
52.1316 7.12201
52.1812 7.12968
52.231 7.08468
52.2806 7.05395
52.3304 7.06355
52.38 6.97174
52.4298 6.98521
52.4794 6.94981
52.5293 6.90081
52.5789 6.91737
52.6288 6.88633
52.6785 6.82914
52.7284 6.8234
52.7781 6.78995
52.828 6.72836
52.8777 6.71443
52.9276 6.70922
52.9774 6.68472
53.0273 6.63735
53.0771 6.61178
53.1271 6.60847
53.1769 6.57471
53.2269 6.55559
53.2767 6.45588
53.3267 6.45587
53.3765 6.48221
53.4266 6.41674
53.4766 6.39891
53.5265 6.36514
53.5765 6.31483
53.6264 6.30824
53.6765 6.33228
53.7264 6.21946
53.7765 6.21552
53.8265 6.21238
53.8766 6.14964
53.9266 6.10832
53.9767 6.12777
54.0267 6.06527
54.0769 6.05803
54.1269 6.02996
54.1771 6.0172
54.2271 5.98579
54.2773 5.91904
54.3274 5.92741
54.3776 5.88017
54.4277 5.88148
54.478 5.82564
54.528 5.76338
54.5783 5.73742
54.6285 5.70569
54.6788 5.68702
54.7289 5.67334
54.7792 5.57878
54.8296 5.50938
54.8798 5.46377
54.9301 5.49343
54.9803 5.46121
55.0307 5.36964
55.0809 5.35487
55.1314 5.35576
55.1816 5.3008
55.232 5.19427
55.2823 5.1655
55.3328 5.12354
55.383 5.07977
55.4335 5.07801
55.4838 4.95504
55.5344 4.94693
55.5847 4.93956
55.6352 4.85792
55.6856 4.82253
55.7361 4.84799