File: XRD/Ni3Fe_FD0039.xy
TT I
1.27165 32.5537
1.31627 31.597
1.36089 29.9349
1.40551 28.7229
1.45013 27.6938
1.49476 27.6356
1.53938 25.3361
1.584 24.878
1.62863 23.8279
1.67325 23.8715
1.71787 22.9892
1.7625 22.102
1.80712 22.3453
1.85174 22.2831
1.89636 21.1511
1.94099 21.6368
1.98562 21.2933
2.03025 21.7472
2.07487 21.5248
2.11949 21.7373
2.16411 21.3266
2.20874 22.5635
2.25338 22.4994
2.298 23.0199
2.34263 21.6134
2.38725 22.5309
2.43188 21.9016
2.4765 23.0846
2.52115 23.0428
2.56577 23.2125
2.6104 24.4677
2.65503 25.0284
2.69965 27.2522
2.7443 27.7943
2.78893 30.2475
2.83356 33.1399
2.87818 36.9195
2.92281 41.4748
2.96744 46.9749
3.01209 55.353
3.05672 63.9559
3.10135 73.6956
3.14599 79.2039
3.19062 77.6292
3.23527 70.4656
3.2799 59.7343
3.32454 49.0325
3.36917 41.7784
3.4138 36.7137
3.45844 33.2415
3.50309 31.3985
3.54773 30.2017
3.59237 30.5362
3.637 31.8283
3.68164 31.4334
3.7263 30.5137
3.77094 28.7293
3.81558 27.6687
3.86022 27.3617
3.90486 28.5961
3.9495 28.0742
3.99416 28.495
4.0388 29.9112
4.08344 31.4727
4.12809 33.008
4.17273 36.5121
4.21738 42.6013
4.26204 50.5449
4.30669 54.3801
4.35133 50.338
4.39598 44.2067
4.44063 42.1012
4.4853 41.5261
4.52995 40.582
4.5746 40.3013
4.61925 40.9494
4.6639 41.4481
4.70855 42.8082
4.75322 45.2681
4.79788 48.4422
4.84253 51.9025
4.88719 56.3781
4.93184 62.6276
4.97652 72.2781
5.02118 88.5696
5.06583 110.76
5.11049 135.775
5.15515 183.481
5.19981 295.296
5.24449 655.216
5.28916 1410.79
5.33382 3722.33
5.37848 3536.88
5.42315 976.25
5.46783 334.825
5.5125 204.536
5.55716 153.685
5.60183 126.031
5.6465 113.077
5.69117 107.219
5.73586 101.276
5.78053 98.4668
5.8252 98.734
5.86988 103.858
5.91455 115.235
5.95924 136.577
6.00392 186.118
6.0486 307.307
6.09328 521.541
6.13795 944.093
6.18263 1241.56
6.22733 613.564
6.27201 257.968
6.3167 145.437
6.36138 99.046
6.40606 77.2815
6.45075 66.0038
6.49545 58.8573
6.54014 53.0894
6.58483 50.1837
6.62952 48.9112
6.67421 48.2194
6.71892 48.7697
6.76361 47.9047
6.8083 44.8462
6.853 42.4448
6.89769 41.1912
6.94239 40.3858
6.98711 39.364
7.03181 39.6682
7.07651 39.3144
7.12121 39.8514
7.16591 40.2322
7.21063 41.1843
7.25533 44.4213
7.30004 50.5753
7.34475 52.2194
7.38945 46.232
7.43416 42.1842
7.47889 42.441
7.5236 52.1375
7.56831 130.863
7.61303 176.368
7.65774 69.1041
7.70247 43.3223
7.74719 39.0942
7.79191 37.8781
7.83663 36.9377
7.88135 37.2902
7.92607 37.3646
7.97081 37.8159
8.01553 38.1324
8.06026 39.104
8.10498 39.7885
8.14971 41.201
8.19446 42.4485
8.23919 44.2981
8.28392 46.203
8.32865 47.425
8.37339 51.8866
8.41812 56.308
8.46288 64.9965
8.50761 79.6071
8.55235 114.562
8.59709 177.594
8.64183 244.279
8.68658 482.226
8.73134 789.84
8.77609 495.193
8.82083 208.0
8.86558 116.596
8.91033 88.3346
8.9551 75.7227
8.99985 69.3956
9.04461 64.7692
9.08936 62.5285
9.13412 61.8597
9.17888 63.7752
9.22365 76.1837
9.26841 185.66
9.31318 322.394
9.35794 142.207
9.4027 70.3509
9.44749 59.438
9.49226 55.8378
9.53703 54.4282
9.5818 53.7758
9.62657 54.0991
9.67134 55.0087
9.71614 56.0887
9.76091 57.0923
9.80569 58.3186
9.85047 61.1126
9.89525 65.2672
9.94005 71.7201
9.98484 82.5488
10.0296 109.562
10.0744 157.384
10.1192 199.081
10.164 295.81
10.2088 612.92
10.2536 762.319
10.2984 393.232
10.3432 182.987
10.388 111.3
10.4328 88.0642
10.4776 83.1342
10.5224 89.8712
10.5672 95.2522
10.612 113.585
10.6568 190.966
10.7017 284.507
10.7465 233.949
10.7913 119.891
10.8361 67.3119
10.8809 54.5208
10.9257 49.6008
10.9706 46.9496
11.0154 45.3986
11.0602 44.1204
11.105 42.8761
11.1499 42.21
11.1947 41.9127
11.2395 41.2633
11.2844 40.8596
11.3292 40.1021
11.374 39.1388
11.4189 38.6078
11.4637 38.0969
11.5086 37.8757
11.5534 37.7127
11.5983 37.9237
11.6431 37.6803
11.688 37.2232
11.7328 37.1796
11.7777 37.3614
11.8225 37.7029
11.8674 38.3573
11.9122 40.9499
11.9571 53.1928
12.002 99.2018
12.0468 101.159
12.0917 57.5043
12.1366 47.3828
12.1814 48.6447
12.2263 51.2581
12.2712 59.9625
12.3161 78.6699
12.3609 92.8318
12.4058 76.1024
12.4507 55.3015
12.4956 46.7173
12.5405 42.3966
12.5853 40.5867
12.6302 39.7518
12.6751 40.0816
12.72 40.024
12.7649 39.7267
12.8098 39.2132
12.8547 39.3959
12.8996 39.9893
12.9445 40.1307
12.9894 40.8284
13.0343 42.2184
13.0792 44.34
13.1242 51.2735
13.1691 64.6364
13.214 65.9876
13.2589 67.6007
13.3038 71.8065
13.3487 80.9881
13.3937 111.415
13.4386 176.964
13.4835 208.746
13.5285 148.085
13.5734 100.908
13.6183 85.5747
13.6633 79.5745
13.7082 86.917
13.7531 118.201
13.7981 182.79
13.843 184.466
13.888 113.318
13.9329 71.2647
13.9779 56.7273
14.0228 50.2624
14.0678 47.4874
14.1127 47.2533
14.1577 53.8911
14.2027 86.6668
14.2476 100.854
14.2926 64.2309
14.3376 46.5406
14.3825 42.4695
14.4275 40.9823
14.4725 40.1552
14.5175 39.8576
14.5624 39.3069
14.6074 39.4702
14.6524 39.6977
14.6974 39.812
14.7424 40.0044
14.7874 40.7398
14.8324 42.6724
14.8774 46.1174
14.9224 50.0313
14.9674 51.3169
15.0124 55.3555
15.0574 68.1573
15.1024 95.5524
15.1474 119.569
15.1924 102.494
15.2374 71.3435
15.2824 53.5388
15.3274 45.9614
15.3725 42.7249
15.4175 41.1684
15.4625 40.2451
15.5076 39.7347
15.5526 39.4471
15.5976 39.3579
15.6426 39.2892
15.6877 39.8939
15.7327 40.9493
15.7778 43.6718
15.8228 47.0023
15.8679 48.5567
15.9129 50.7288
15.958 58.8405
16.003 77.1101
16.0481 107.181
16.0931 114.767
16.1382 95.3296
16.1833 70.56
16.2283 49.7308
16.2734 41.6359
16.3185 38.5246
16.3636 36.7808
16.4086 35.4893
16.4537 34.8349
16.4988 34.0563
16.5439 33.5975
16.589 33.1563
16.6341 33.128
16.6792 32.5713
16.7243 32.7575
16.7694 32.5604
16.8145 32.4772
16.8596 32.5947
16.9047 32.9484
16.9498 34.7845
16.9949 40.1967
17.04 42.698
17.0851 38.0405
17.1302 34.6669
17.1754 34.3412
17.2205 34.7045
17.2656 34.9528
17.3108 35.5853
17.3559 36.1569
17.401 38.5741
17.4462 43.3931
17.4913 49.2034
17.5365 48.3819
17.5815 42.1161
17.6268 37.949
17.6718 36.3984
17.7171 35.8978
17.7622 36.3546
17.8074 39.3733
17.8525 43.5965
17.8977 43.446
17.9428 40.5655
17.9881 40.7965
18.0331 42.6316
18.0784 43.2905
18.1237 44.584
18.1688 47.9332
18.214 56.7307
18.2591 74.3143
18.3044 91.7314
18.3495 85.0204
18.3948 64.8916
18.4399 54.8377
18.4852 54.8239
18.5303 62.9156
18.5756 68.7598
18.6207 64.4535
18.666 54.514
18.7112 45.9095
18.7565 39.9934
18.8016 37.6377
18.8469 36.5226
18.892 35.7885
18.9374 35.1596
18.9825 34.8565
19.0278 34.6556
19.073 34.5199
19.1183 34.3355
19.1635 34.1293
19.2088 34.7983
19.254 35.439
19.2993 36.1909
19.3447 38.1301
19.3898 44.1792
19.4352 49.9081
19.4804 47.7321
19.5257 45.1606
19.5709 46.3367
19.6163 45.2909
19.6615 40.4238
19.7068 36.2287
19.752 34.2999
19.7974 33.3676
19.8426 32.9587
19.888 32.5402
19.9332 32.6581
19.9786 33.0262
20.0238 33.0698
20.0692 33.0396
20.1144 33.4352
20.1598 34.4906
20.205 36.3333
20.2504 39.9513
20.2957 43.9567
20.3411 44.1666
20.3863 40.7362
20.4318 38.1504
20.477 38.8578
20.5224 41.5635
20.5677 42.0703
20.6131 38.5056
20.6586 34.5192
20.7038 32.6051
20.7493 31.5927
20.7945 31.6259
20.84 33.4803
20.8853 35.2023
20.9307 33.9716
20.976 31.3346
21.0215 29.829
21.0668 29.662
21.1122 29.6446
21.1575 29.4737
21.203 29.3967
21.2483 29.3304
21.2938 29.6741
21.3391 29.6377
21.3846 30.2151
21.4299 31.1849
21.4754 32.2453
21.5207 32.1958
21.5662 31.7038
21.6116 30.9273
21.6571 30.1876
21.7024 29.9728
21.7479 30.4714
21.7933 30.8817
21.8388 31.1007
21.8843 31.3218
21.9297 31.8107
21.9752 32.9519
22.0206 34.9182
22.0661 37.6848
22.1115 41.9198
22.157 44.0731
22.2024 43.189
22.248 41.0714
22.2933 39.3055
22.3389 38.2006
22.3843 37.0798
22.4299 34.7735
22.4753 32.7897
22.5208 31.5628
22.5662 30.805
22.6118 30.5907
22.6572 30.246
22.7028 30.2355
22.7483 30.2955
22.7939 30.4889
22.8393 31.4983
22.8849 32.4648
22.9303 32.634
22.9759 31.9009
23.0214 31.4463
23.067 32.2052
23.1126 33.6474
23.1581 36.3047
23.2037 39.2041
23.2492 38.916
23.2948 35.9103
23.3403 33.2275
23.3859 32.0341
23.4314 32.0606
23.477 33.1466
23.5225 34.4687
23.5682 34.5221
23.6137 33.1759
23.6593 32.4519
23.7048 33.2093
23.7505 35.1625
23.796 38.2872
23.8417 40.4074
23.8872 38.4336
23.9329 34.6911
23.9784 31.8758
24.0241 30.3261
24.0697 29.728
24.1154 29.4273
24.1609 29.4277
24.2066 28.8134
24.2522 28.2412
24.2979 27.5149
24.3434 27.6071
24.3892 27.3757
24.4349 27.1126
24.4805 27.085
24.5262 26.9872
24.5718 26.751
24.6175 26.8471
24.6631 27.1072
24.7089 27.6385
24.7545 28.2048
24.8002 28.3642
24.8458 27.6146
24.8916 26.8988
24.9372 26.7455
24.983 26.5873
25.0286 26.4963
25.0744 26.5718
25.12 26.4424
25.1658 26.7213
25.2114 26.7871
25.2572 27.0288
25.3029 27.5477
25.3487 28.4415
25.3943 29.0503
25.4402 29.2481
25.4858 29.2035
25.5316 29.1924
25.5773 29.9442
25.6231 30.3843
25.669 29.467
25.7147 28.0224
25.7605 26.9654
25.8062 26.6274
25.8521 26.5403
25.8977 26.7603
25.9436 26.922
25.9893 26.5586
26.0352 26.0673
26.0809 25.7318
26.1268 25.7561
26.1725 25.7015
26.2184 26.0032
26.2641 26.3492
26.31 26.8619
26.3557 27.6051
26.4017 27.5504
26.4474 27.1893
26.4933 26.5901
26.5391 26.3171
26.585 26.0244
26.6308 25.9505
26.6767 25.9163
26.7225 26.1047
26.7684 26.3751
26.8142 26.8177
26.8601 27.6252
26.9059 28.5923
26.9519 28.9014
26.9979 28.9264
27.0437 28.6844
27.0896 28.3553
27.1354 27.4574
27.1814 26.424
27.2272 25.8242
27.2732 25.3814
27.3191 25.1379
27.3651 24.9134
27.4109 24.7462
27.4569 24.7914
27.5027 24.6961
27.5488 24.7922
27.5946 24.9669
27.6407 24.9572
27.6865 25.0495
27.7326 24.8795
27.7784 25.0588
27.8245 25.3557
27.8703 25.1884
27.9164 25.0986
27.9623 24.7412
28.0084 24.7292
28.0543 24.9693
28.1003 25.3619
28.1462 25.7063
28.1923 25.7512
28.2384 25.5008
28.2843 25.9607
28.3304 26.6883
28.3764 26.8798
28.4225 26.2082
28.4684 25.9773
28.5145 25.5507
28.5605 25.3614
28.6066 24.9353
28.6526 24.4588
28.6987 24.1502
28.7447 23.7627
28.7908 23.278
28.8368 23.1147
28.8829 23.0409
28.9289 22.8835
28.9751 22.7967
29.0211 22.7843
29.0673 22.7012
29.1133 22.9369
29.1595 22.9588
29.2055 23.0705
29.2517 22.9624
29.2977 22.6196
29.3439 22.3648
29.3899 22.2527
29.4361 22.0915
29.4824 22.0896
29.5284 22.0361
29.5746 22.1163
29.6207 22.0667
29.6669 22.2359
29.713 22.2968
29.7593 22.1268
29.8053 21.8764
29.8516 21.6193
29.8977 21.4773
29.9439 21.4009
29.99 21.2358
30.0363 21.1769
30.0824 21.3504
30.1287 21.3562
30.1748 21.5224
30.2211 21.5695
30.2673 21.1703
30.3136 21.1157
30.3597 21.0661
30.406 21.0517
30.4522 21.1184
30.4985 21.2021
30.5447 21.3025
30.591 21.2558
30.6372 21.1875
30.6835 20.9517
30.7297 21.0015
30.7761 20.9015
30.8224 20.9533
30.8686 21.0122
30.915 21.2072
30.9612 21.4491
31.0076 21.7383
31.0538 21.7851
31.1002 21.8492
31.1464 21.5969
31.1928 21.4702
31.2391 21.3439
31.2855 20.8754
31.3317 20.7591
31.3781 20.5548
31.4244 20.467
31.4708 20.3737
31.5171 20.3613
31.5636 20.427
31.6098 20.3883
31.6563 20.4822
31.7026 20.5949
31.7491 20.5754
31.7953 20.7592
31.8418 20.78
31.8881 20.5322
31.9346 20.2707
31.9809 20.1605
32.0275 20.0424
32.074 20.099
32.1203 20.0967
32.1668 20.1451
32.2132 20.2018
32.2597 20.2181
32.306 20.3032
32.3526 20.1312
32.399 19.9335
32.4455 19.808
32.4919 19.5889
32.5385 19.4761
32.5848 19.2656
32.6314 19.2089
32.6778 19.0412
32.7244 18.9928
32.7708 18.8584
32.8174 18.8936
32.8638 18.6886
32.9104 18.7714
32.9569 18.8251
33.0035 18.7897
33.0499 18.8327
33.0966 18.8304
33.143 18.6738
33.1897 18.5038
33.2361 18.3654
33.2828 18.3695
33.3293 18.2905
33.3759 18.4349
33.4226 18.5402
33.4691 18.5259
33.5158 18.593
33.5623 18.5785
33.609 18.4548
33.6555 18.45
33.7022 18.3062
33.7487 18.0446
33.7954 17.9676
33.842 17.7571
33.8887 17.7926
33.9353 17.6945
33.982 17.6685
34.0286 17.6207
34.0753 17.4947
34.1219 17.5269
34.1687 17.457
34.2152 17.421
34.262 17.4024
34.3086 17.3107
34.3554 17.2369
34.402 17.1488
34.4488 17.0328
34.4954 17.0713
34.5422 16.9154
34.5889 16.931
34.6357 16.88
34.6825 16.8195
34.7292 16.8147
34.776 16.7164
34.8227 16.6688
34.8695 16.6282
34.9162 16.6097
34.9631 16.4461
35.0098 16.45
35.0566 16.3663
35.1033 16.3114
35.1502 16.3193
35.1969 16.2879
35.2438 16.315
35.2906 16.2826
35.3375 16.1316
35.3842 16.2025
35.4311 16.1151
35.4779 16.1079
35.5248 16.135
35.5716 16.0592
35.6185 16.1144
35.6653 16.102
35.7123 16.1285
35.759 16.2178
35.806 16.1072
35.8528 16.0918
35.8998 16.0678
35.9468 15.9338
35.9936 15.9162
36.0406 15.8188
36.0874 15.7416
36.1345 15.6424
36.1813 15.5783
36.2283 15.5462
36.2752 15.4462
36.3222 15.4028
36.3691 15.4022
36.4161 15.3157
36.463 15.3249
36.5101 15.4304
36.557 15.3653
36.6041 15.3065
36.651 15.1312
36.6981 15.1483
36.745 15.1207
36.7921 15.0787
36.839 14.9002
36.8861 14.9709
36.9331 14.9861
36.9802 14.9401
37.0272 14.8798
37.0743 14.8079
37.1213 14.7864
37.1684 14.6898
37.2154 14.584
37.2626 14.5385
37.3098 14.5473
37.3568 14.4516
37.404 14.4266
37.451 14.3499
37.4982 14.3407
37.5452 14.2992
37.5924 14.2462
37.6395 14.243
37.6867 14.1224
37.7337 14.1466
37.781 14.0215
37.8281 14.0609
37.8753 13.9465
37.9224 13.9256
37.9697 13.8567
38.0168 13.8857
38.064 13.8212
38.1111 13.8185
38.1584 13.7798
38.2056 13.7471
38.2529 13.6725
38.3 13.6077
38.3473 13.555
38.3945 13.4349
38.4418 13.4846
38.489 13.3434
38.5363 13.3464
38.5837 13.3072
38.6309 13.3341
38.6782 13.2784
38.7254 13.2366
38.7728 13.2147
38.82 13.1512
38.8674 13.1078
38.9146 13.1168
38.9621 13.0551
39.0093 13.0615
39.0567 13.0257
39.104 12.9018
39.1514 12.944
39.1987 12.878
39.2461 12.8157
39.2934 12.7299
39.3409 12.6898
39.3882 12.6917
39.4356 12.6629
39.483 12.6234
39.5304 12.5552
39.5778 12.5554
39.6253 12.4399
39.6726 12.4621
39.7201 12.4115
39.7675 12.3844
39.815 12.3472
39.8624 12.299
39.9099 12.2919
39.9575 12.1646
40.0049 12.1421
40.0525 12.1727
40.0999 12.1029
40.1474 12.1147
40.1949 12.0852
40.2425 12.0575
40.2899 12.079
40.3375 11.9983
40.385 11.8991
40.4326 11.8715
40.48 11.8193
40.5277 11.8412
40.5752 11.7864
40.6228 11.7901
40.6703 11.7331
40.718 11.6889
40.7655 11.6906
40.8132 11.6254
40.8607 11.614
40.9084 11.5379
40.9559 11.4898
41.0036 11.4894
41.0512 11.5061
41.0989 11.5011
41.1465 11.4195
41.1942 11.3934
41.242 11.3293
41.2896 11.3101
41.3373 11.2262
41.3849 11.2381
41.4327 11.1902
41.4803 11.129
41.5281 11.0813
41.5758 11.0494
41.6236 10.9893
41.6712 11.0183
41.7191 10.9387
41.7667 10.9503
41.8146 10.9137
41.8622 10.8333
41.9101 10.8419
41.9578 10.8056
42.0057 10.8003
42.0534 10.7156
42.1013 10.7123
42.149 10.6837
42.1969 10.6373
42.2446 10.5922
42.2925 10.5577
42.3403 10.5096
42.3882 10.4816
42.436 10.4081
42.4839 10.3941
42.5319 10.385
42.5797 10.286
42.6277 10.2863
42.6755 10.2485
42.7235 10.2464
42.7713 10.217
42.8193 10.2019
42.8671 10.1264
42.9152 10.0646
42.963 10.0323
43.0111 10.0613
43.0589 9.96084
43.107 9.98152
43.1549 9.91656
43.2029 9.86646
43.2508 9.84624
43.2989 9.80235
43.3468 9.73709
43.3949 9.69904
43.4429 9.69116
43.491 9.63102
43.5389 9.63784
43.5871 9.65302
43.635 9.62565
43.6832 9.56868
43.7312 9.54657
43.7793 9.46691
43.8273 9.44099
43.8755 9.41067
43.9237 9.37694
43.9717 9.38686
44.0199 9.33653
44.068 9.32327
44.1162 9.30226
44.1642 9.25528
44.2125 9.23522
44.2606 9.23389
44.3088 9.16316
44.3569 9.14442
44.4052 9.12872
44.4533 9.07637
44.5016 9.05579
44.5497 9.03001
44.598 8.95435
44.6461 8.94458
44.6945 8.93299
44.7426 8.87963
44.791 8.85295
44.8391 8.86161
44.8875 8.81077
44.9357 8.77089
44.984 8.76876
45.0322 8.70822
45.0806 8.71056
45.1288 8.65196
45.1773 8.62239
45.2257 8.61827
45.2739 8.59228
45.3224 8.51779
45.3706 8.53907
45.4191 8.44838
45.4673 8.45374
45.5158 8.4556
45.5641 8.392
45.6126 8.40902
45.6609 8.35215
45.7094 8.26547
45.7577 8.26094
45.8063 8.24696
45.8546 8.25744
45.9031 8.21478
45.9515 8.1606
46.0001 8.16857
46.0484 8.15399
46.097 8.15773
46.1454 8.08165
46.194 8.03715
46.2424 8.01564
46.291 7.95626
46.3395 7.95379
46.3881 7.95155
46.4365 7.90644
46.4852 7.86943
46.5337 7.8687
46.5823 7.85422
46.631 7.7975
46.6795 7.7839
46.7282 7.71362
46.7767 7.70158
46.8254 7.68102
46.8739 7.62728
46.9226 7.64406
46.9712 7.60351
47.0199 7.59056
47.0685 7.56755
47.1173 7.51839
47.1658 7.46801
47.2146 7.46467
47.2632 7.44555
47.312 7.41003
47.3606 7.38535
47.4095 7.32723
47.4581 7.32019
47.5069 7.30346
47.5556 7.29356
47.6044 7.24403
47.6531 7.20425
47.702 7.19089
47.7507 7.17185
47.7996 7.14074
47.8483 7.11378
47.8972 7.08088
47.9461 7.08161
47.9948 7.01914
48.0438 7.01975
48.0925 7.01136
48.1415 6.97643
48.1902 6.93685
48.2392 6.96319
48.288 6.89009
48.337 6.90064
48.3858 6.83152
48.4348 6.82889
48.4837 6.82163
48.5327 6.78033
48.5815 6.76654
48.6306 6.75168
48.6795 6.72792
48.7285 6.684
48.7774 6.67607
48.8265 6.64497
48.8754 6.60348
48.9245 6.57492
48.9734 6.553
49.0226 6.55055
49.0715 6.51256
49.1206 6.49211
49.1696 6.48143
49.2188 6.44965
49.2679 6.41536
49.3169 6.44519
49.3661 6.33911
49.4151 6.37367
49.4643 6.36281
49.5134 6.29039
49.5626 6.30992
49.6117 6.26654
49.6609 6.20974
49.71 6.23475
49.7592 6.2156
49.8083 6.17115
49.8576 6.15061
49.9067 6.15794
49.956 6.09681
50.0052 6.09774
50.0545 6.1013
50.1036 6.06342
50.153 6.05106
50.2022 6.00245
50.2515 5.98623
50.3007 5.95514
50.3501 5.94632
50.3993 5.9227
50.4487 5.88797
50.498 5.89413
50.5474 5.83972
50.5966 5.84698
50.6461 5.78823
50.6955 5.78727
50.7448 5.78413
50.7943 5.7424
50.8436 5.74461
50.8931 5.70072
50.9424 5.70441
50.9919 5.66377
51.0413 5.66198
51.0908 5.61897
51.1402 5.61811
51.1897 5.57658
51.2391 5.57267
51.2887 5.51591
51.3381 5.49923
51.3877 5.53161
51.4371 5.44624
51.4867 5.4645
51.5362 5.41879
51.5858 5.40754
51.6353 5.37179
51.6849 5.34477
51.7344 5.32964
51.7841 5.37011
51.8336 5.29461
51.8833 5.26417
51.9328 5.25816
51.9826 5.22859
52.0323 5.19726
52.0818 5.21728
52.1316 5.15944
52.1812 5.15064
52.231 5.15623
52.2806 5.12735
52.3304 5.09661
52.38 5.06499
52.4298 5.04326
52.4794 5.0553
52.5293 5.01439
52.5789 4.97336
52.6288 4.99024
52.6785 4.96737
52.7284 4.95759
52.7781 4.95142
52.828 4.89581
52.8777 4.9192
52.9276 4.84139
52.9774 4.85137
53.0273 4.83424
53.0771 4.8078
53.1271 4.7819
53.1769 4.79196
53.2269 4.74265
53.2767 4.71168
53.3267 4.7012
53.3765 4.71024
53.4266 4.68657
53.4766 4.66112
53.5265 4.63497
53.5765 4.60629
53.6264 4.59443
53.6765 4.60087
53.7264 4.56424
53.7765 4.54014
53.8265 4.48896
53.8766 4.47207
53.9266 4.45607
53.9767 4.43712
54.0267 4.40546
54.0769 4.40345
54.1269 4.35505
54.1771 4.29384
54.2271 4.35022
54.2773 4.26828
54.3274 4.26037
54.3776 4.23545
54.4277 4.21289
54.478 4.19889
54.528 4.1403
54.5783 4.12786
54.6285 4.07815
54.6788 4.04272
54.7289 4.04037
54.7792 3.96472
54.8296 3.93571
54.8798 3.90725
54.9301 3.89389
54.9803 3.88855
55.0307 3.86381
55.0809 3.83944
55.1314 3.78701
55.1816 3.75163
55.232 3.72916
55.2823 3.69585
55.3328 3.66791
55.383 3.64192
55.4335 3.57807
55.4838 3.57098
55.5344 3.50216
55.5847 3.44117
55.6352 3.45866
55.6856 3.45514
55.7361 3.44711