File: XRD/Ni3Fe_FD0364.xy
TT I
1.27165 7.77541
1.31627 6.84483
1.36089 6.82966
1.40551 7.02887
1.45013 6.24654
1.49476 6.34546
1.53938 6.3038
1.584 5.44601
1.62863 4.82076
1.67325 5.65877
1.71787 5.26201
1.7625 4.74979
1.80712 4.96243
1.85174 4.8403
1.89636 4.7869
1.94099 4.63451
1.98562 5.38324
2.03025 4.40209
2.07487 4.4884
2.11949 4.55625
2.16411 4.49391
2.20874 8.07101
2.25338 11.3309
2.298 5.29865
2.34263 4.6637
2.38725 4.92503
2.43188 5.41649
2.4765 6.0051
2.52115 6.36078
2.56577 6.62812
2.6104 7.62806
2.65503 6.68592
2.69965 6.94928
2.7443 7.47231
2.78893 7.56437
2.83356 8.0909
2.87818 8.07771
2.92281 8.35116
2.96744 9.35635
3.01209 10.2444
3.05672 10.9914
3.10135 12.5796
3.14599 12.6729
3.19062 14.1704
3.23527 14.9993
3.2799 15.6981
3.32454 16.5873
3.36917 17.9976
3.4138 18.8765
3.45844 19.8706
3.50309 21.0117
3.54773 21.6015
3.59237 23.2069
3.637 51.9482
3.68164 38.3105
3.7263 25.2771
3.77094 26.3711
3.81558 26.8923
3.86022 27.3203
3.90486 29.3247
3.9495 29.5761
3.99416 30.7943
4.0388 32.2984
4.08344 33.6992
4.12809 35.0528
4.17273 36.5279
4.21738 40.6243
4.26204 122.322
4.30669 111.054
4.35133 45.6853
4.39598 44.9394
4.44063 49.2963
4.4853 55.396
4.52995 53.4201
4.5746 53.7904
4.61925 54.6823
4.6639 56.945
4.70855 59.465
4.75322 63.1051
4.79788 66.7998
4.84253 69.721
4.88719 75.0869
4.93184 78.2336
4.97652 84.0261
5.02118 91.7445
5.06583 101.105
5.11049 116.161
5.15515 168.911
5.19981 619.065
5.24449 3695.68
5.28916 11333.8
5.33382 3255.56
5.37848 221.004
5.42315 139.328
5.46783 122.255
5.5125 112.509
5.55716 106.704
5.60183 102.209
5.6465 100.042
5.69117 98.2388
5.73586 96.4711
5.78053 97.9861
5.8252 98.2685
5.86988 99.3623
5.91455 102.316
5.95924 117.157
6.00392 331.939
6.0486 1290.83
6.09328 4050.1
6.13795 3354.7
6.18263 282.041
6.22733 99.1455
6.27201 85.1537
6.3167 88.3982
6.36138 77.1682
6.40606 71.2208
6.45075 69.6106
6.49545 66.8457
6.54014 65.077
6.58483 63.9666
6.62952 63.6617
6.67421 74.4698
6.71892 94.2516
6.76361 64.0931
6.8083 59.8011
6.853 59.1938
6.89769 58.0087
6.94239 57.5941
6.98711 56.9282
7.03181 56.6536
7.07651 56.0464
7.12121 55.9588
7.16591 56.5248
7.21063 55.6237
7.25533 61.9181
7.30004 105.031
7.34475 70.2434
7.38945 56.0887
7.43416 55.0125
7.47889 54.9756
7.5236 55.8385
7.56831 56.1096
7.61303 56.9388
7.65774 56.9472
7.70247 57.6301
7.74719 57.3794
7.79191 57.9044
7.83663 58.1738
7.88135 59.0659
7.92607 60.0783
7.97081 61.278
8.01553 62.7613
8.06026 63.9172
8.10498 65.604
8.14971 71.1147
8.19446 71.4346
8.23919 71.2486
8.28392 74.3318
8.32865 76.6485
8.37339 81.9457
8.41812 87.8162
8.46288 110.622
8.50761 228.742
8.55235 508.06
8.59709 1195.76
8.64183 2095.0
8.68658 1032.47
8.73134 178.572
8.77609 103.887
8.82083 96.3609
8.86558 93.6254
8.91033 92.1583
8.9551 91.0769
8.99985 87.335
9.04461 86.1102
9.08936 85.6596
9.13412 84.6738
9.17888 84.6991
9.22365 84.7607
9.26841 84.6421
9.31318 85.7452
9.35794 86.3377
9.4027 86.5102
9.44749 86.6984
9.49226 87.2341
9.53703 88.4827
9.5818 91.0449
9.62657 93.8538
9.67134 96.9849
9.71614 95.7659
9.76091 97.5806
9.80569 100.648
9.85047 103.877
9.89525 116.225
9.94005 136.772
9.98484 240.372
10.0296 446.821
10.0744 875.818
10.1192 1596.3
10.164 1612.35
10.2088 451.271
10.2536 133.952
10.2984 114.135
10.3432 113.08
10.388 110.47
10.4328 138.243
10.4776 189.487
10.5224 300.848
10.5672 483.351
10.612 516.522
10.6568 211.543
10.7017 99.513
10.7465 89.5664
10.7913 85.6648
10.8361 83.1158
10.8809 80.707
10.9257 79.6349
10.9706 79.3227
11.0154 76.4952
11.0602 74.4879
11.105 73.0735
11.1499 74.1914
11.1947 76.9342
11.2395 72.6585
11.2844 70.2294
11.3292 68.7437
11.374 67.7095
11.4189 66.9729
11.4637 66.3906
11.5086 66.2488
11.5534 67.1856
11.5983 66.0562
11.6431 65.4189
11.688 64.6022
11.7328 64.3548
11.7777 64.1959
11.8225 64.1577
11.8674 63.9683
11.9122 64.1946
11.9571 65.0501
12.002 66.4188
12.0468 74.1081
12.0917 87.1851
12.1366 110.581
12.1814 151.764
12.2263 202.164
12.2712 171.539
12.3161 94.7631
12.3609 69.8077
12.4058 65.8881
12.4507 66.0461
12.4956 66.0636
12.5405 66.169
12.5853 66.9765
12.6302 70.0629
12.6751 73.2852
12.72 69.7196
12.7649 69.5712
12.8098 70.3542
12.8547 71.7194
12.8996 73.2105
12.9445 74.6708
12.9894 76.7322
13.0343 78.7081
13.0792 83.1487
13.1242 100.627
13.1691 128.885
13.214 170.036
13.2589 248.203
13.3038 351.866
13.3487 419.641
13.3937 275.507
13.4386 132.135
13.4835 118.84
13.5285 137.429
13.5734 175.566
13.6183 245.677
13.6633 331.638
13.7082 344.133
13.7531 197.928
13.7981 102.183
13.843 84.3689
13.888 81.8882
13.9329 79.4733
13.9779 78.1547
14.0228 76.5806
14.0678 75.0812
14.1127 74.5903
14.1577 73.9047
14.2027 73.3275
14.2476 72.6268
14.2926 72.0604
14.3376 72.5321
14.3825 71.7367
14.4275 70.6283
14.4725 70.6714
14.5175 71.0361
14.5624 70.9167
14.6074 71.9636
14.6524 72.5606
14.6974 72.6537
14.7424 77.3067
14.7874 86.6522
14.8324 98.7003
14.8774 120.427
14.9224 155.716
14.9674 199.961
15.0124 216.702
15.0574 152.339
15.1024 93.6466
15.1474 74.6368
15.1924 72.3147
15.2374 71.3732
15.2824 70.6468
15.3274 69.5224
15.3725 68.7801
15.4175 68.558
15.4625 67.8064
15.5076 67.7151
15.5526 67.8491
15.5976 68.1196
15.6426 71.4974
15.6877 79.0628
15.7327 88.1719
15.7778 103.776
15.8228 129.605
15.8679 164.605
15.9129 191.947
15.958 161.498
16.003 100.868
16.0481 69.5764
16.0931 65.1664
16.1382 63.2889
16.1833 61.9412
16.2283 60.4344
16.2734 59.6169
16.3185 59.5436
16.3636 59.5724
16.4086 58.4359
16.4537 57.7557
16.4988 56.8482
16.5439 56.9159
16.589 56.5668
16.6341 56.2767
16.6792 55.9751
16.7243 56.2588
16.7694 56.1501
16.8145 56.0798
16.8596 56.328
16.9047 57.3857
16.9498 57.2852
16.9949 56.9721
17.04 57.8325
17.0851 59.5041
17.1302 61.3815
17.1754 64.3771
17.2205 69.1929
17.2656 75.2465
17.3108 82.5566
17.3559 83.3231
17.401 73.0296
17.4462 63.9258
17.4913 61.0858
17.5365 60.7716
17.5815 60.6949
17.6268 61.1
17.6718 62.0402
17.7171 62.622
17.7622 63.2529
17.8074 64.6934
17.8525 68.5423
17.8977 72.9896
17.9428 79.2775
17.9881 88.0481
18.0331 102.584
18.0784 120.01
18.1237 139.634
18.1688 136.314
18.214 110.271
18.2591 91.0186
18.3044 91.8048
18.3495 99.0862
18.3948 105.974
18.4399 97.5696
18.4852 78.9942
18.5303 67.5732
18.5756 63.7962
18.6207 63.0943
18.666 62.1182
18.7112 61.2086
18.7565 60.5262
18.8016 60.1733
18.8469 59.596
18.892 59.275
18.9374 58.8897
18.9825 58.8375
19.0278 58.4151
19.073 58.6959
19.1183 59.4645
19.1635 60.4109
19.2088 61.8811
19.254 64.3275
19.2993 67.7001
19.3447 72.3584
19.3898 76.7776
19.4352 74.1831
19.4804 65.3523
19.5257 58.2927
19.5709 55.7263
19.6163 55.5451
19.6615 55.0934
19.7068 54.7573
19.752 54.6955
19.7974 55.319
19.8426 56.5843
19.888 57.0157
19.9332 58.7029
19.9786 60.8105
20.0238 64.1359
20.0692 68.2174
20.1144 71.3764
20.1598 70.7427
20.205 65.9144
20.2504 63.6241
20.2957 64.3229
20.3411 66.7721
20.3863 65.658
20.4318 60.2364
20.477 54.9631
20.5224 52.9336
20.5677 52.0807
20.6131 51.7347
20.6586 51.0662
20.7038 51.0769
20.7493 50.432
20.7945 50.3681
20.84 50.15
20.8853 50.13
20.9307 50.1338
20.976 50.1994
21.0215 50.1456
21.0668 50.4731
21.1122 50.9878
21.1575 51.4606
21.203 52.1031
21.2483 52.8458
21.2938 52.9123
21.3391 51.508
21.3846 50.4119
21.4299 49.8472
21.4754 49.8181
21.5207 50.0027
21.5662 50.3771
21.6116 51.2077
21.6571 51.8599
21.7024 52.8718
21.7479 54.8317
21.7933 57.275
21.8388 60.2339
21.8843 63.4992
21.9297 66.1355
21.9752 65.4217
22.0206 61.2038
22.0661 57.632
22.1115 57.0253
22.157 57.3633
22.2024 55.8639
22.248 52.9754
22.2933 51.3618
22.3389 50.5951
22.3843 50.2875
22.4299 50.1031
22.4753 50.1386
22.5208 49.8701
22.5662 49.8992
22.6118 50.26
22.6572 50.5706
22.7028 51.0573
22.7483 51.4873
22.7939 52.4486
22.8393 53.7489
22.8849 55.2369
22.9303 56.918
22.9759 58.9884
23.0214 58.9458
23.067 56.0881
23.1126 52.7566
23.1581 50.6294
23.2037 50.2489
23.2492 50.5492
23.2948 50.5629
23.3403 50.8585
23.3859 51.5409
23.4314 52.7291
23.477 54.1564
23.5225 55.7347
23.5682 57.741
23.6137 59.1284
23.6593 57.3522
23.7048 53.3017
23.7505 49.6333
23.796 47.879
23.8417 47.3085
23.8872 46.8109
23.9329 46.6157
23.9784 46.1215
24.0241 46.0075
24.0697 45.7861
24.1154 45.3007
24.1609 45.0728
24.2066 45.0143
24.2522 44.9338
24.2979 44.5231
24.3434 44.4905
24.3892 44.3774
24.4349 44.4109
24.4805 44.1493
24.5262 44.2906
24.5718 44.0088
24.6175 44.1335
24.6631 44.047
24.7089 43.7748
24.7545 43.6235
24.8002 43.3638
24.8458 43.4848
24.8916 43.3611
24.9372 43.5045
24.983 43.9161
25.0286 44.2031
25.0744 44.5354
25.12 44.8281
25.1658 45.6131
25.2114 45.8499
25.2572 45.7459
25.3029 45.7757
25.3487 46.0084
25.3943 45.8151
25.4402 44.6946
25.4858 43.7113
25.5316 42.6241
25.5773 42.0877
25.6231 42.0038
25.669 41.6817
25.7147 41.7213
25.7605 41.7734
25.8062 41.7587
25.8521 41.6855
25.8977 41.7264
25.9436 41.9928
25.9893 42.1398
26.0352 42.5021
26.0809 42.4629
26.1268 42.7971
26.1725 42.6111
26.2184 41.8793
26.2641 41.4396
26.31 41.4121
26.3557 41.392
26.4017 41.3173
26.4474 41.6089
26.4933 41.8066
26.5391 42.3804
26.585 42.5983
26.6308 43.0995
26.6767 43.3472
26.7225 43.2047
26.7684 42.6176
26.8142 41.8965
26.8601 41.5923
26.9059 41.1403
26.9519 40.6556
26.9979 40.37
27.0437 40.0238
27.0896 39.9505
27.1354 39.8099
27.1814 39.6283
27.2272 39.7322
27.2732 39.6327
27.3191 39.4329
27.3651 39.6556
27.4109 39.5916
27.4569 39.6335
27.5027 39.5483
27.5488 39.6895
27.5946 39.5801
27.6407 39.3783
27.6865 39.1778
27.7326 39.0068
27.7784 38.9907
27.8245 38.906
27.8703 39.0716
27.9164 39.4712
27.9623 39.3899
28.0084 39.5954
28.0543 40.1527
28.1003 40.0039
28.1462 39.6898
28.1923 39.579
28.2384 39.0795
28.2843 38.5475
28.3304 38.3272
28.3764 37.7365
28.4225 37.414
28.4684 37.3162
28.5145 37.0664
28.5605 36.8047
28.6066 36.7478
28.6526 36.513
28.6987 36.69
28.7447 36.4191
28.7908 36.4578
28.8368 36.3078
28.8829 36.3633
28.9289 36.3779
28.9751 36.2152
29.0211 35.8881
29.0673 35.7273
29.1133 35.4689
29.1595 35.3959
29.2055 35.3702
29.2517 35.2264
29.2977 35.1631
29.3439 35.1804
29.3899 35.1802
29.4361 35.0885
29.4824 34.8353
29.5284 34.5643
29.5746 34.4088
29.6207 34.0684
29.6669 34.019
29.713 33.779
29.7593 33.7381
29.8053 33.8094
29.8516 33.7094
29.8977 33.6458
29.9439 33.493
29.99 33.4868
30.0363 33.3134
30.0824 33.4917
30.1287 33.2454
30.1748 33.3794
30.2211 33.4017
30.2673 33.1897
30.3136 33.2537
30.3597 33.064
30.406 33.0113
30.4522 32.9734
30.4985 32.8467
30.5447 33.1379
30.591 32.9403
30.6372 33.0733
30.6835 33.0628
30.7297 32.9992
30.7761 33.0396
30.8224 32.906
30.8686 32.7344
30.915 32.4845
30.9612 32.2687
31.0076 32.1471
31.0538 31.9685
31.1002 31.965
31.1464 31.7812
31.1928 31.7702
31.2391 31.778
31.2855 31.669
31.3317 31.6862
31.3781 31.7626
31.4244 31.7653
31.4708 31.6196
31.5171 31.6026
31.5636 31.5069
31.6098 31.3269
31.6563 31.1108
31.7026 31.1173
31.7491 30.9192
31.7953 30.9848
31.8418 30.9635
31.8881 30.9371
31.9346 30.8965
31.9809 30.8999
32.0275 30.6082
32.074 30.5707
32.1203 30.3739
32.1668 30.2519
32.2132 30.2142
32.2597 30.0966
32.306 30.008
32.3526 29.7748
32.399 29.7658
32.4455 29.6689
32.4919 29.5017
32.5385 29.3676
32.5848 29.3096
32.6314 29.2274
32.6778 29.2052
32.7244 29.03
32.7708 28.9769
32.8174 28.9725
32.8638 28.7019
32.9104 28.7688
32.9569 28.6997
33.0035 28.6285
33.0499 28.5969
33.0966 28.5269
33.143 28.4831
33.1897 28.3517
33.2361 28.3973
33.2828 28.3779
33.3293 28.0883
33.3759 28.0515
33.4226 27.9724
33.4691 27.8714
33.5158 27.7375
33.5623 27.6031
33.609 27.5615
33.6555 27.402
33.7022 27.3735
33.7487 27.2603
33.7954 27.1927
33.842 27.1398
33.8887 27.0922
33.9353 26.9771
33.982 26.76
34.0286 26.7107
34.0753 26.7379
34.1219 26.6262
34.1687 26.4492
34.2152 26.5127
34.262 26.3268
34.3086 26.2723
34.3554 26.2942
34.402 26.0653
34.4488 25.9916
34.4954 25.8849
34.5422 25.8929
34.5889 25.7523
34.6357 25.6179
34.6825 25.5524
34.7292 25.5387
34.776 25.4077
34.8227 25.3491
34.8695 25.2829
34.9162 25.2201
34.9631 25.1276
35.0098 25.1917
35.0566 25.0032
35.1033 24.9232
35.1502 24.9761
35.1969 24.8659
35.2438 24.8096
35.2906 24.7024
35.3375 24.6482
35.3842 24.6304
35.4311 24.6114
35.4779 24.5345
35.5248 24.5994
35.5716 24.3935
35.6185 24.257
35.6653 24.2577
35.7123 24.1758
35.759 24.114
35.806 24.0192
35.8528 23.8986
35.8998 23.8658
35.9468 23.7607
35.9936 23.7168
36.0406 23.6486
36.0874 23.6164
36.1345 23.5246
36.1813 23.4776
36.2283 23.2374
36.2752 23.214
36.3222 23.2222
36.3691 23.1453
36.4161 22.9606
36.463 23.0096
36.5101 22.9621
36.557 22.8853
36.6041 22.7993
36.651 22.7126
36.6981 22.73
36.745 22.6603
36.7921 22.5672
36.839 22.443
36.8861 22.3853
36.9331 22.3267
36.9802 22.2619
37.0272 22.1261
37.0743 21.9881
37.1213 21.9389
37.1684 21.9347
37.2154 21.9166
37.2626 21.8408
37.3098 21.7982
37.3568 21.644
37.404 21.6159
37.451 21.5136
37.4982 21.4868
37.5452 21.4063
37.5924 21.3572
37.6395 21.3724
37.6867 21.1971
37.7337 21.1253
37.781 21.0897
37.8281 21.0065
37.8753 20.9482
37.9224 20.828
37.9697 20.8387
38.0168 20.7747
38.064 20.618
38.1111 20.6381
38.1584 20.5121
38.2056 20.4923
38.2529 20.4672
38.3 20.2903
38.3473 20.3241
38.3945 20.1543
38.4418 20.2089
38.489 20.1081
38.5363 20.0854
38.5837 20.0064
38.6309 19.8589
38.6782 19.8297
38.7254 19.7816
38.7728 19.7485
38.82 19.6644
38.8674 19.5828
38.9146 19.5759
38.9621 19.4761
39.0093 19.4541
39.0567 19.3331
39.104 19.2515
39.1514 19.2681
39.1987 19.1874
39.2461 19.0941
39.2934 19.0632
39.3409 18.9947
39.3882 18.893
39.4356 18.8004
39.483 18.8579
39.5304 18.7652
39.5778 18.7066
39.6253 18.5952
39.6726 18.576
39.7201 18.5706
39.7675 18.4028
39.815 18.4139
39.8624 18.3586
39.9099 18.3245
39.9575 18.1793
40.0049 18.2041
40.0525 18.1357
40.0999 18.0824
40.1474 18.0052
40.1949 17.945
40.2425 17.8138
40.2899 17.8212
40.3375 17.8044
40.385 17.6673
40.4326 17.6227
40.48 17.5107
40.5277 17.5275
40.5752 17.5132
40.6228 17.3865
40.6703 17.3498
40.718 17.3054
40.7655 17.2808
40.8132 17.1572
40.8607 17.1517
40.9084 17.1392
40.9559 17.0029
41.0036 17.0518
41.0512 16.9085
41.0989 16.9529
41.1465 16.7415
41.1942 16.7689
41.242 16.6153
41.2896 16.6553
41.3373 16.5689
41.3849 16.6342
41.4327 16.5001
41.4803 16.3647
41.5281 16.3664
41.5758 16.2632
41.6236 16.204
41.6712 16.1861
41.7191 16.1562
41.7667 16.0942
41.8146 16.0098
41.8622 15.9974
41.9101 15.9824
41.9578 15.8619
42.0057 15.8308
42.0534 15.8344
42.1013 15.7467
42.149 15.643
42.1969 15.5806
42.2446 15.595
42.2925 15.5267
42.3403 15.4459
42.3882 15.4438
42.436 15.3798
42.4839 15.2798
42.5319 15.2229
42.5797 15.2359
42.6277 15.1246
42.6755 15.1096
42.7235 15.0408
42.7713 15.0525
42.8193 14.9174
42.8671 14.8947
42.9152 14.8686
42.963 14.8015
43.0111 14.6916
43.0589 14.6629
43.107 14.6006
43.1549 14.5965
43.2029 14.4922
43.2508 14.5087
43.2989 14.4382
43.3468 14.3325
43.3949 14.3341
43.4429 14.2648
43.491 14.2361
43.5389 14.2092
43.5871 14.1207
43.635 14.1079
43.6832 14.0885
43.7312 13.9786
43.7793 13.9143
43.8273 13.9234
43.8755 13.8486
43.9237 13.8144
43.9717 13.7549
44.0199 13.6978
44.068 13.7008
44.1162 13.6121
44.1642 13.5927
44.2125 13.5045
44.2606 13.4683
44.3088 13.4099
44.3569 13.3798
44.4052 13.336
44.4533 13.275
44.5016 13.2544
44.5497 13.1876
44.598 13.1689
44.6461 13.0827
44.6945 13.0296
44.7426 13.0152
44.791 12.9613
44.8391 12.9274
44.8875 12.8475
44.9357 12.8175
44.984 12.7536
45.0322 12.7732
45.0806 12.6837
45.1288 12.6763
45.1773 12.6045
45.2257 12.5364
45.2739 12.5412
45.3224 12.414
45.3706 12.4537
45.4191 12.3616
45.4673 12.3315
45.5158 12.3064
45.5641 12.2405
45.6126 12.218
45.6609 12.1114
45.7094 12.1
45.7577 12.0653
45.8063 11.9981
45.8546 12.0013
45.9031 11.9185
45.9515 11.9005
46.0001 11.8556
46.0484 11.8177
46.097 11.8195
46.1454 11.7047
46.194 11.7298
46.2424 11.6654
46.291 11.6372
46.3395 11.596
46.3881 11.5172
46.4365 11.4803
46.4852 11.4239
46.5337 11.4019
46.5823 11.3482
46.631 11.322
46.6795 11.2815
46.7282 11.2775
46.7767 11.2115
46.8254 11.1247
46.8739 11.1228
46.9226 11.0731
46.9712 11.0028
47.0199 10.9477
47.0685 10.9507
47.1173 10.8859
47.1658 10.8501
47.2146 10.8093
47.2632 10.7683
47.312 10.708
47.3606 10.6861
47.4095 10.6665
47.4581 10.6207
47.5069 10.6133
47.5556 10.4859
47.6044 10.5369
47.6531 10.4819
47.702 10.4046
47.7507 10.3754
47.7996 10.3294
47.8483 10.3182
47.8972 10.2587
47.9461 10.2753
47.9948 10.1725
48.0438 10.1207
48.0925 10.1083
48.1415 10.0597
48.1902 10.0294
48.2392 10.0267
48.288 10.0065
48.337 9.95296
48.3858 9.93673
48.4348 9.8926
48.4837 9.90398
48.5327 9.77688
48.5815 9.76337
48.6306 9.74409
48.6795 9.70561
48.7285 9.67856
48.7774 9.63125
48.8265 9.60345
48.8754 9.56894
48.9245 9.51127
48.9734 9.4636
49.0226 9.51598
49.0715 9.40533
49.1206 9.35857
49.1696 9.30984
49.2188 9.33354
49.2679 9.22596
49.3169 9.21199
49.3661 9.19326
49.4151 9.14774
49.4643 9.07636
49.5134 9.07778
49.5626 9.03031
49.6117 9.04317
49.6609 8.97657
49.71 8.91111
49.7592 8.90136
49.8083 8.88434
49.8576 8.88476
49.9067 8.78362
49.956 8.78794
50.0052 8.72701
50.0545 8.74059
50.1036 8.6564
50.153 8.65879
50.2022 8.59909
50.2515 8.59297
50.3007 8.54028
50.3501 8.51391
50.3993 8.45347
50.4487 8.42684
50.498 8.38787
50.5474 8.38519
50.5966 8.34785
50.6461 8.34463
50.6955 8.29364
50.7448 8.23324
50.7943 8.20391
50.8436 8.21465
50.8931 8.19107
50.9424 8.15001
50.9919 8.10657
51.0413 8.08832
51.0908 8.04627
51.1402 8.02016
51.1897 7.96718
51.2391 7.9329
51.2887 7.89225
51.3381 7.83423
51.3877 7.83464
51.4371 7.82595
51.4867 7.77207
51.5362 7.71772
51.5858 7.71752
51.6353 7.65959
51.6849 7.62221
51.7344 7.60529
51.7841 7.60189
51.8336 7.53453
51.8833 7.52047
51.9328 7.46329
51.9826 7.45763
52.0323 7.41276
52.0818 7.39099
52.1316 7.33385
52.1812 7.33316
52.231 7.31724
52.2806 7.24856
52.3304 7.22766
52.38 7.24141
52.4298 7.18012
52.4794 7.14413
52.5293 7.12787
52.5789 7.06803
52.6288 7.00841
52.6785 7.03157
52.7284 6.98657
52.7781 6.95224
52.828 6.95382
52.8777 6.91072
52.9276 6.87735
52.9774 6.90345
53.0273 6.84283
53.0771 6.79247
53.1271 6.76554
53.1769 6.72864
53.2269 6.71526
53.2767 6.67347
53.3267 6.66079
53.3765 6.65941
53.4266 6.60968
53.4766 6.53994
53.5265 6.51783
53.5765 6.49255
53.6264 6.48778
53.6765 6.47898
53.7264 6.43061
53.7765 6.43156
53.8265 6.36584
53.8766 6.35825
53.9266 6.29378
53.9767 6.26822
54.0267 6.29563
54.0769 6.21549
54.1269 6.21529
54.1771 6.19585
54.2271 6.1588
54.2773 6.10437
54.3274 6.03773
54.3776 6.03625
54.4277 5.96178
54.478 5.97905
54.528 5.9013
54.5783 5.89983
54.6285 5.85673
54.6788 5.84708
54.7289 5.69625
54.7792 5.73477
54.8296 5.6681
54.8798 5.63057
54.9301 5.60854
54.9803 5.58396
55.0307 5.53412
55.0809 5.52633
55.1314 5.471
55.1816 5.39079
55.232 5.34131
55.2823 5.32074
55.3328 5.28174
55.383 5.19774
55.4335 5.19459
55.4838 5.11376
55.5344 5.13406
55.5847 5.04816
55.6352 4.99127
55.6856 4.93376
55.7361 4.90175