File: XRD/Ni3Fe_FD0797.xy
TT I
1.27165 6.9098
1.31627 6.8107
1.36089 7.13614
1.40551 6.34924
1.45013 6.0342
1.49476 5.90744
1.53938 5.63066
1.584 5.22439
1.62863 5.46294
1.67325 4.79509
1.71787 5.30877
1.7625 4.72465
1.80712 4.76313
1.85174 4.55242
1.89636 4.5832
1.94099 5.08632
1.98562 4.81105
2.03025 4.44323
2.07487 4.53053
2.11949 4.96996
2.16411 5.08859
2.20874 10.317
2.25338 14.4732
2.298 5.56676
2.34263 5.2581
2.38725 5.83542
2.43188 6.75792
2.4765 6.75187
2.52115 7.04335
2.56577 7.45033
2.6104 8.33911
2.65503 7.9739
2.69965 8.21523
2.7443 8.9381
2.78893 8.11565
2.83356 8.63774
2.87818 9.01538
2.92281 9.03205
2.96744 9.55573
3.01209 10.2483
3.05672 11.2901
3.10135 12.298
3.14599 12.6574
3.19062 14.0901
3.23527 14.9329
3.2799 15.6767
3.32454 16.9881
3.36917 18.0487
3.4138 18.5408
3.45844 19.4809
3.50309 20.3299
3.54773 21.4029
3.59237 23.0733
3.637 61.0231
3.68164 42.856
3.7263 25.5274
3.77094 25.5753
3.81558 26.5045
3.86022 27.1886
3.90486 28.7571
3.9495 29.5833
3.99416 30.4568
4.0388 31.6326
4.08344 32.9265
4.12809 33.9346
4.17273 35.7643
4.21738 39.8175
4.26204 156.405
4.30669 135.118
4.35133 45.3416
4.39598 43.4834
4.44063 49.9543
4.4853 57.1233
4.52995 52.7338
4.5746 53.9147
4.61925 52.6913
4.6639 55.1438
4.70855 57.949
4.75322 60.9155
4.79788 65.2127
4.84253 66.8957
4.88719 72.7649
4.93184 75.4698
4.97652 80.0881
5.02118 86.0477
5.06583 94.2369
5.11049 105.049
5.15515 158.127
5.19981 375.558
5.24449 2820.95
5.28916 12337.7
5.33382 2518.4
5.37848 180.367
5.42315 126.38
5.46783 114.977
5.5125 107.529
5.55716 101.157
5.60183 96.8485
5.6465 95.4196
5.69117 93.4426
5.73586 91.8131
5.78053 93.8086
5.8252 93.4665
5.86988 95.422
5.91455 94.2029
5.95924 102.704
6.00392 228.243
6.0486 963.643
6.09328 4560.77
6.13795 3070.55
6.18263 204.026
6.22733 89.4151
6.27201 79.9987
6.3167 88.7672
6.36138 75.3091
6.40606 68.5904
6.45075 67.6996
6.49545 64.5481
6.54014 62.8421
6.58483 62.1103
6.62952 62.1955
6.67421 78.6616
6.71892 104.536
6.76361 63.4237
6.8083 58.4246
6.853 58.0994
6.89769 56.1561
6.94239 55.5753
6.98711 54.8056
7.03181 54.9199
7.07651 54.3786
7.12121 54.3865
7.16591 55.3134
7.21063 54.7592
7.25533 62.9742
7.30004 121.331
7.34475 73.9505
7.38945 54.851
7.43416 53.6838
7.47889 53.5185
7.5236 54.0441
7.56831 54.3311
7.61303 55.3979
7.65774 55.9122
7.70247 55.9407
7.74719 55.5676
7.79191 56.419
7.83663 56.348
7.88135 57.1373
7.92607 57.9541
7.97081 59.4507
8.01553 60.2225
8.06026 61.8058
8.10498 63.3936
8.14971 70.5241
8.19446 70.2731
8.23919 68.5279
8.28392 71.1053
8.32865 73.3328
8.37339 77.9842
8.41812 83.6793
8.46288 104.76
8.50761 173.707
8.55235 383.623
8.59709 1213.73
8.64183 2191.42
8.68658 847.506
8.73134 147.523
8.77609 97.122
8.82083 91.4433
8.86558 90.1195
8.91033 89.5657
8.9551 88.7451
8.99985 84.6962
9.04461 83.218
9.08936 82.6693
9.13412 81.5017
9.17888 81.5086
9.22365 81.6523
9.26841 81.3928
9.31318 83.1449
9.35794 83.5485
9.4027 83.5473
9.44749 83.834
9.49226 84.0515
9.53703 85.021
9.5818 87.7065
9.62657 91.8187
9.67134 94.9518
9.71614 92.2973
9.76091 94.1014
9.80569 96.8836
9.85047 99.8652
9.89525 114.225
9.94005 128.354
9.98484 185.717
10.0296 343.73
10.0744 826.306
10.1192 1788.95
10.164 1508.51
10.2088 340.232
10.2536 119.651
10.2984 109.587
10.3432 108.669
10.388 103.714
10.4328 120.545
10.4776 161.899
10.5224 290.346
10.5672 537.51
10.612 487.294
10.6568 185.446
10.7017 93.5488
10.7465 85.3236
10.7913 82.1585
10.8361 80.1656
10.8809 78.2559
10.9257 77.4699
10.9706 77.3055
11.0154 73.927
11.0602 72.1356
11.105 70.8374
11.1499 72.8587
11.1947 76.0713
11.2395 70.7593
11.2844 68.4513
11.3292 66.4858
11.374 65.2999
11.4189 64.9148
11.4637 64.2856
11.5086 63.9754
11.5534 65.673
11.5983 63.9417
11.6431 63.1365
11.688 61.929
11.7328 62.3438
11.7777 61.9298
11.8225 61.8482
11.8674 61.9705
11.9122 62.289
11.9571 62.313
12.002 63.6636
12.0468 68.0331
12.0917 78.1129
12.1366 102.184
12.1814 157.498
12.2263 213.61
12.2712 165.467
12.3161 87.5298
12.3609 66.9564
12.4058 63.3532
12.4507 63.5167
12.4956 63.7208
12.5405 64.039
12.5853 64.531
12.6302 68.792
12.6751 72.0652
12.72 67.9969
12.7649 67.012
12.8098 67.9094
12.8547 69.0854
12.8996 70.0765
12.9445 71.8261
12.9894 73.7133
13.0343 75.1344
13.0792 78.9692
13.1242 90.3522
13.1691 111.016
13.214 148.698
13.2589 246.926
13.3038 387.177
13.3487 418.323
13.3937 240.46
13.4386 117.044
13.4835 105.553
13.5285 119.471
13.5734 159.354
13.6183 256.473
13.6633 362.996
13.7082 324.767
13.7531 167.12
13.7981 92.8624
13.843 80.4751
13.888 78.6976
13.9329 76.3685
13.9779 75.0618
14.0228 73.6346
14.0678 72.1268
14.1127 71.5567
14.1577 71.2498
14.2027 70.6916
14.2476 69.766
14.2926 69.5493
14.3376 69.9663
14.3825 69.0948
14.4275 68.3089
14.4725 67.8793
14.5175 67.988
14.5624 68.1281
14.6074 69.4437
14.6524 69.7291
14.6974 69.7971
14.7424 72.204
14.7874 78.8937
14.8324 88.3791
14.8774 111.297
14.9224 157.839
14.9674 215.279
15.0124 219.367
15.0574 141.138
15.1024 86.0337
15.1474 70.998
15.1924 69.3181
15.2374 69.0732
15.2824 68.3934
15.3274 66.9118
15.3725 66.0148
15.4175 65.822
15.4625 65.1338
15.5076 65.3399
15.5526 65.2614
15.5976 65.2036
15.6426 66.921
15.6877 72.5103
15.7327 79.3236
15.7778 94.7455
15.8228 129.397
15.8679 178.526
15.9129 196.555
15.958 146.116
16.003 88.5965
16.0481 65.5858
16.0931 62.7669
16.1382 60.9819
16.1833 59.6032
16.2283 58.1502
16.2734 57.6203
16.3185 57.4607
16.3636 57.4269
16.4086 56.5223
16.4537 55.2466
16.4988 54.9885
16.5439 54.6247
16.589 54.5177
16.6341 54.0329
16.6792 53.8266
16.7243 53.9675
16.7694 54.2429
16.8145 54.1075
16.8596 54.3643
16.9047 55.2488
16.9498 55.5771
16.9949 54.8127
17.04 55.4044
17.0851 56.5921
17.1302 57.954
17.1754 61.4291
17.2205 66.8389
17.2656 75.1278
17.3108 83.268
17.3559 81.2118
17.401 69.0991
17.4462 60.7512
17.4913 58.5463
17.5365 58.2736
17.5815 58.746
17.6268 59.0535
17.6718 59.6094
17.7171 59.988
17.7622 60.5977
17.8074 61.6979
17.8525 64.3395
17.8977 67.8951
17.9428 73.204
17.9881 82.533
18.0331 101.373
18.0784 125.287
18.1237 141.462
18.1688 126.677
18.214 98.9668
18.2591 84.7139
18.3044 91.2762
18.3495 101.421
18.3948 105.635
18.4399 92.7486
18.4852 73.8099
18.5303 64.2583
18.5756 61.3756
18.6207 60.3873
18.666 59.6647
18.7112 58.8715
18.7565 58.3195
18.8016 58.0497
18.8469 57.4805
18.892 57.1401
18.9374 56.7476
18.9825 56.301
19.0278 56.3363
19.073 56.347
19.1183 56.836
19.1635 57.1855
19.2088 58.7061
19.254 61.6398
19.2993 66.534
19.3447 72.7426
19.3898 75.9604
19.4352 70.1234
19.4804 61.2399
19.5257 55.3745
19.5709 53.5694
19.6163 53.0623
19.6615 53.2209
19.7068 52.8132
19.752 52.5766
19.7974 53.0177
19.8426 53.7673
19.888 54.3799
19.9332 55.7961
19.9786 58.2565
20.0238 62.7699
20.0692 67.7112
20.1144 69.7638
20.1598 66.9954
20.205 62.1416
20.2504 61.7053
20.2957 64.0088
20.3411 65.2073
20.3863 62.8239
20.4318 56.8724
20.477 52.4688
20.5224 50.6352
20.5677 50.0764
20.6131 49.7024
20.6586 49.0216
20.7038 48.9634
20.7493 48.6365
20.7945 48.4291
20.84 48.3838
20.8853 48.3233
20.9307 47.9665
20.976 48.2613
21.0215 48.0908
21.0668 48.2316
21.1122 48.9713
21.1575 49.5806
21.203 50.4814
21.2483 50.9942
21.2938 50.7972
21.3391 49.3663
21.3846 48.3283
21.4299 47.8505
21.4754 47.878
21.5207 48.0319
21.5662 48.3108
21.6116 48.8445
21.6571 49.5495
21.7024 50.43
21.7479 52.2676
21.7933 55.2126
21.8388 59.1682
21.8843 62.8453
21.9297 64.2258
21.9752 61.8262
22.0206 58.1132
22.0661 55.8508
22.1115 55.7087
22.157 55.2039
22.2024 53.1574
22.248 50.4839
22.2933 49.0169
22.3389 48.4667
22.3843 48.3483
22.4299 48.1171
22.4753 48.2996
22.5208 48.1338
22.5662 47.9959
22.6118 48.3145
22.6572 48.4948
22.7028 48.7949
22.7483 49.2501
22.7939 49.9273
22.8393 51.6102
22.8849 54.0116
22.9303 56.2398
22.9759 57.5781
23.0214 56.5585
23.067 53.4874
23.1126 50.4346
23.1581 48.6162
23.2037 48.213
23.2492 48.521
23.2948 48.3159
23.3403 48.7275
23.3859 49.2412
23.4314 50.5031
23.477 52.494
23.5225 54.7967
23.5682 57.1678
23.6137 57.5272
23.6593 54.5268
23.7048 50.4826
23.7505 47.7001
23.796 45.9203
23.8417 45.5159
23.8872 45.1144
23.9329 44.8681
23.9784 44.264
24.0241 44.0707
24.0697 43.8926
24.1154 43.7273
24.1609 43.5757
24.2066 43.3662
24.2522 43.062
24.2979 42.8827
24.3434 42.7467
24.3892 42.6652
24.4349 42.6213
24.4805 42.5924
24.5262 42.7758
24.5718 42.6046
24.6175 42.5412
24.6631 42.3554
24.7089 42.1482
24.7545 41.8467
24.8002 41.7922
24.8458 41.7096
24.8916 41.6235
24.9372 41.8557
24.983 42.0965
25.0286 42.4974
25.0744 42.9308
25.12 43.3815
25.1658 44.0863
25.2114 44.3146
25.2572 44.4094
25.3029 44.4318
25.3487 44.3848
25.3943 44.0733
25.4402 42.8236
25.4858 41.881
25.5316 40.9368
25.5773 40.3716
25.6231 40.4447
25.669 40.0172
25.7147 40.1166
25.7605 39.9527
25.8062 40.0895
25.8521 40.2315
25.8977 40.1254
25.9436 40.5543
25.9893 40.5798
26.0352 41.2098
26.0809 41.2981
26.1268 41.2332
26.1725 40.9191
26.2184 40.2962
26.2641 39.8713
26.31 39.6252
26.3557 39.7965
26.4017 39.676
26.4474 40.015
26.4933 40.2258
26.5391 40.9741
26.585 41.4859
26.6308 41.789
26.6767 41.738
26.7225 41.5377
26.7684 40.9548
26.8142 40.2744
26.8601 39.9568
26.9059 39.5993
26.9519 39.1718
26.9979 38.6847
27.0437 38.4816
27.0896 38.4007
27.1354 38.4365
27.1814 38.2432
27.2272 38.0023
27.2732 38.0657
27.3191 37.9754
27.3651 37.9786
27.4109 38.0569
27.4569 38.2754
27.5027 38.3036
27.5488 38.2731
27.5946 38.0169
27.6407 37.7377
27.6865 37.6166
27.7326 37.4435
27.7784 37.5867
27.8245 37.5039
27.8703 37.6405
27.9164 37.9131
27.9623 38.0826
28.0084 38.494
28.0543 38.7363
28.1003 38.7012
28.1462 38.3976
28.1923 38.0616
28.2384 37.5612
28.2843 37.1583
28.3304 36.7531
28.3764 36.2141
28.4225 35.9057
28.4684 35.8477
28.5145 35.622
28.5605 35.4746
28.6066 35.264
28.6526 35.2294
28.6987 35.3129
28.7447 35.2511
28.7908 35.128
28.8368 35.1243
28.8829 35.0247
28.9289 34.9723
28.9751 34.8401
29.0211 34.4779
29.0673 34.1749
29.1133 34.2349
29.1595 33.9766
29.2055 33.9284
29.2517 33.9188
29.2977 33.9445
29.3439 33.9259
29.3899 33.9128
29.4361 33.7548
29.4824 33.5334
29.5284 33.3602
29.5746 33.0592
29.6207 32.6623
29.6669 32.7415
29.713 32.6481
29.7593 32.4609
29.8053 32.6162
29.8516 32.4931
29.8977 32.3919
29.9439 32.3338
29.99 32.159
30.0363 32.1988
30.0824 32.1831
30.1287 32.0093
30.1748 32.1114
30.2211 32.1121
30.2673 31.9823
30.3136 31.9962
30.3597 31.9242
30.406 31.8333
30.4522 31.7322
30.4985 31.6869
30.5447 31.846
30.591 31.7809
30.6372 31.9749
30.6835 31.8406
30.7297 31.8702
30.7761 31.8483
30.8224 31.6723
30.8686 31.5443
30.915 31.3309
30.9612 31.1895
31.0076 30.9818
31.0538 30.8881
31.1002 30.8287
31.1464 30.6825
31.1928 30.6025
31.2391 30.6089
31.2855 30.5624
31.3317 30.4897
31.3781 30.6246
31.4244 30.5589
31.4708 30.4987
31.5171 30.5072
31.5636 30.4128
31.6098 30.1914
31.6563 30.0669
31.7026 30.0212
31.7491 29.7441
31.7953 29.8904
31.8418 29.8111
31.8881 29.9422
31.9346 29.8157
31.9809 29.7948
32.0275 29.5649
32.074 29.4301
32.1203 29.2989
32.1668 29.1546
32.2132 29.0658
32.2597 28.9579
32.306 28.8942
32.3526 28.7126
32.399 28.6877
32.4455 28.4256
32.4919 28.4304
32.5385 28.3328
32.5848 28.1642
32.6314 28.1743
32.6778 28.0996
32.7244 28.0318
32.7708 27.8806
32.8174 27.8871
32.8638 27.7332
32.9104 27.7739
32.9569 27.6857
33.0035 27.6075
33.0499 27.6311
33.0966 27.5101
33.143 27.5456
33.1897 27.3936
33.2361 27.3846
33.2828 27.3251
33.3293 27.2009
33.3759 27.11
33.4226 26.8753
33.4691 26.8033
33.5158 26.7654
33.5623 26.6504
33.609 26.48
33.6555 26.4007
33.7022 26.3675
33.7487 26.2456
33.7954 26.2799
33.842 26.1245
33.8887 26.0011
33.9353 25.949
33.982 25.9126
34.0286 25.7777
34.0753 25.5992
34.1219 25.6136
34.1687 25.5337
34.2152 25.4508
34.262 25.4161
34.3086 25.2705
34.3554 25.3384
34.402 25.1231
34.4488 25.0264
34.4954 24.9193
34.5422 24.8301
34.5889 24.7867
34.6357 24.6872
34.6825 24.6494
34.7292 24.5478
34.776 24.4996
34.8227 24.4798
34.8695 24.4211
34.9162 24.2762
34.9631 24.1834
35.0098 24.2556
35.0566 24.1791
35.1033 24.0011
35.1502 24.0526
35.1969 23.9485
35.2438 23.8925
35.2906 23.8147
35.3375 23.8757
35.3842 23.7831
35.4311 23.7572
35.4779 23.7074
35.5248 23.6386
35.5716 23.5304
35.6185 23.3733
35.6653 23.4317
35.7123 23.3197
35.759 23.1952
35.806 23.1192
35.8528 23.0357
35.8998 22.9545
35.9468 22.8439
35.9936 22.8957
36.0406 22.774
36.0874 22.7592
36.1345 22.6765
36.1813 22.5717
36.2283 22.424
36.2752 22.4281
36.3222 22.4492
36.3691 22.3678
36.4161 22.2014
36.463 22.1066
36.5101 22.1289
36.557 22.1073
36.6041 22.0187
36.651 21.9692
36.6981 21.8314
36.745 21.7869
36.7921 21.7562
36.839 21.6773
36.8861 21.5701
36.9331 21.4979
36.9802 21.3882
37.0272 21.3793
37.0743 21.214
37.1213 21.2304
37.1684 21.1651
37.2154 21.2195
37.2626 21.0397
37.3098 21.0315
37.3568 20.9503
37.404 20.8877
37.451 20.7473
37.4982 20.6973
37.5452 20.6602
37.5924 20.5619
37.6395 20.5857
37.6867 20.4907
37.7337 20.35
37.781 20.2934
37.8281 20.2876
37.8753 20.1361
37.9224 20.1135
37.9697 20.0969
38.0168 19.986
38.064 19.8837
38.1111 19.9042
38.1584 19.846
38.2056 19.6991
38.2529 19.7242
38.3 19.5627
38.3473 19.5932
38.3945 19.4582
38.4418 19.5037
38.489 19.3832
38.5363 19.35
38.5837 19.2116
38.6309 19.2189
38.6782 19.1529
38.7254 19.0431
38.7728 18.9996
38.82 18.9418
38.8674 18.9282
38.9146 18.8728
38.9621 18.7221
39.0093 18.7388
39.0567 18.6375
39.104 18.5692
39.1514 18.5205
39.1987 18.4498
39.2461 18.4474
39.2934 18.4156
39.3409 18.3169
39.3882 18.2206
39.4356 18.1737
39.483 18.1231
39.5304 18.0324
39.5778 18.0338
39.6253 17.9314
39.6726 17.919
39.7201 17.8661
39.7675 17.7806
39.815 17.7539
39.8624 17.5951
39.9099 17.6562
39.9575 17.5517
40.0049 17.4921
40.0525 17.4449
40.0999 17.3502
40.1474 17.3413
40.1949 17.3137
40.2425 17.2433
40.2899 17.2552
40.3375 17.1648
40.385 17.0105
40.4326 16.9773
40.48 16.9467
40.5277 16.9236
40.5752 16.8607
40.6228 16.7529
40.6703 16.7165
40.718 16.7095
40.7655 16.6057
40.8132 16.5898
40.8607 16.5501
40.9084 16.5729
40.9559 16.4847
41.0036 16.4035
41.0512 16.3401
41.0989 16.3546
41.1465 16.2264
41.1942 16.1452
41.242 16.0936
41.2896 16.0443
41.3373 15.9487
41.3849 15.9327
41.4327 15.9197
41.4803 15.7722
41.5281 15.8222
41.5758 15.7232
41.6236 15.633
41.6712 15.5916
41.7191 15.5615
41.7667 15.5294
41.8146 15.4728
41.8622 15.3797
41.9101 15.4084
41.9578 15.236
42.0057 15.2901
42.0534 15.2329
42.1013 15.1527
42.149 15.0795
42.1969 15.0606
42.2446 14.9969
42.2925 14.9115
42.3403 14.885
42.3882 14.903
42.436 14.8107
42.4839 14.7233
42.5319 14.7089
42.5797 14.6827
42.6277 14.6345
42.6755 14.5751
42.7235 14.4983
42.7713 14.475
42.8193 14.4031
42.8671 14.3432
42.9152 14.3503
42.963 14.2978
43.0111 14.1849
43.0589 14.1806
43.107 14.0918
43.1549 14.1341
43.2029 13.9743
43.2508 14.037
43.2989 13.9404
43.3468 13.8804
43.3949 13.8341
43.4429 13.8086
43.491 13.7614
43.5389 13.6921
43.5871 13.664
43.635 13.5713
43.6832 13.5754
43.7312 13.5079
43.7793 13.4442
43.8273 13.4381
43.8755 13.3414
43.9237 13.274
43.9717 13.244
44.0199 13.2203
44.068 13.1729
44.1162 13.0941
44.1642 13.1233
44.2125 13.056
44.2606 12.9998
44.3088 12.9447
44.3569 12.9247
44.4052 12.8961
44.4533 12.8014
44.5016 12.7887
44.5497 12.7225
44.598 12.6672
44.6461 12.651
44.6945 12.6025
44.7426 12.5221
44.791 12.4868
44.8391 12.4605
44.8875 12.4202
44.9357 12.3427
44.984 12.3421
45.0322 12.2722
45.0806 12.2244
45.1288 12.1979
45.1773 12.1791
45.2257 12.0482
45.2739 12.1162
45.3224 12.0438
45.3706 11.9786
45.4191 11.9309
45.4673 11.8787
45.5158 11.8476
45.5641 11.7869
45.6126 11.7537
45.6609 11.7175
45.7094 11.7037
45.7577 11.5841
45.8063 11.5787
45.8546 11.5889
45.9031 11.4911
45.9515 11.486
46.0001 11.484
46.0484 11.405
46.097 11.3507
46.1454 11.3648
46.194 11.2626
46.2424 11.2145
46.291 11.1905
46.3395 11.1505
46.3881 11.0859
46.4365 11.0949
46.4852 11.0611
46.5337 10.9607
46.5823 10.9712
46.631 10.8824
46.6795 10.9225
46.7282 10.8272
46.7767 10.7904
46.8254 10.6947
46.8739 10.7233
46.9226 10.6407
46.9712 10.6103
47.0199 10.5994
47.0685 10.5804
47.1173 10.4937
47.1658 10.4669
47.2146 10.4072
47.2632 10.4001
47.312 10.3498
47.3606 10.3321
47.4095 10.2523
47.4581 10.2405
47.5069 10.1907
47.5556 10.1622
47.6044 10.1186
47.6531 10.0815
47.702 10.0322
47.7507 10.0144
47.7996 9.9854
47.8483 9.94996
47.8972 9.91837
47.9461 9.88392
47.9948 9.79108
48.0438 9.78746
48.0925 9.80689
48.1415 9.76918
48.1902 9.70942
48.2392 9.69053
48.288 9.62648
48.337 9.6189
48.3858 9.53248
48.4348 9.5259
48.4837 9.49677
48.5327 9.48219
48.5815 9.43027
48.6306 9.40186
48.6795 9.34031
48.7285 9.30417
48.7774 9.28713
48.8265 9.28803
48.8754 9.19771
48.9245 9.20005
48.9734 9.09811
49.0226 9.15331
49.0715 9.09732
49.1206 9.03065
49.1696 8.98653
49.2188 8.97379
49.2679 8.94306
49.3169 8.89373
49.3661 8.88857
49.4151 8.83215
49.4643 8.82726
49.5134 8.76637
49.5626 8.72522
49.6117 8.71093
49.6609 8.6986
49.71 8.60061
49.7592 8.63368
49.8083 8.55593
49.8576 8.51224
49.9067 8.52201
49.956 8.47812
50.0052 8.42748
50.0545 8.43173
50.1036 8.3609
50.153 8.32653
50.2022 8.31283
50.2515 8.30023
50.3007 8.23039
50.3501 8.20836
50.3993 8.20128
50.4487 8.15058
50.498 8.11033
50.5474 8.09457
50.5966 8.02711
50.6461 8.03791
50.6955 8.00966
50.7448 7.94208
50.7943 7.93172
50.8436 7.91638
50.8931 7.91958
50.9424 7.89116
50.9919 7.80805
51.0413 7.78401
51.0908 7.73294
51.1402 7.73033
51.1897 7.6689
51.2391 7.66261
51.2887 7.63884
51.3381 7.59767
51.3877 7.55817
51.4371 7.51433
51.4867 7.50284
51.5362 7.47301
51.5858 7.42914
51.6353 7.37437
51.6849 7.3733
51.7344 7.34441
51.7841 7.32137
51.8336 7.3015
51.8833 7.26532
51.9328 7.22231
51.9826 7.20953
52.0323 7.15529
52.0818 7.13143
52.1316 7.09967
52.1812 7.09069
52.231 7.0679
52.2806 6.99416
52.3304 6.98206
52.38 6.96026
52.4298 6.93668
52.4794 6.92484
52.5293 6.87899
52.5789 6.85981
52.6288 6.85747
52.6785 6.78199
52.7284 6.76626
52.7781 6.74541
52.828 6.71239
52.8777 6.66484
52.9276 6.64472
52.9774 6.6507
53.0273 6.59014
53.0771 6.5494
53.1271 6.5591
53.1769 6.50572
53.2269 6.49516
53.2767 6.45165
53.3267 6.44343
53.3765 6.4292
53.4266 6.37896
53.4766 6.35221
53.5265 6.3183
53.5765 6.33549
53.6264 6.22142
53.6765 6.23395
53.7264 6.2229
53.7765 6.23541
53.8265 6.15238
53.8766 6.09881
53.9266 6.10925
53.9767 6.06332
54.0267 6.06143
54.0769 6.05328
54.1269 6.00944
54.1771 5.95963
54.2271 5.94855
54.2773 5.88662
54.3274 5.87796
54.3776 5.84654
54.4277 5.84321
54.478 5.79385
54.528 5.79062
54.5783 5.71093
54.6285 5.66275
54.6788 5.62868
54.7289 5.59868
54.7792 5.55341
54.8296 5.46363
54.8798 5.40449
54.9301 5.40387
54.9803 5.41193
55.0307 5.37349
55.0809 5.30101
55.1314 5.3026
55.1816 5.19486
55.232 5.18236
55.2823 5.16406
55.3328 5.05894
55.383 5.04423
55.4335 4.98712
55.4838 4.96092
55.5344 4.89445
55.5847 4.87917
55.6352 4.85047
55.6856 4.82197
55.7361 4.75443