File: XRD/Ni3Fe_FD0164.xy
TT I
1.27165 7.75847
1.31627 6.82429
1.36089 7.39315
1.40551 6.22769
1.45013 6.36999
1.49476 6.3854
1.53938 6.47073
1.584 5.98115
1.62863 5.66947
1.67325 4.89534
1.71787 6.2417
1.7625 5.4069
1.80712 5.35853
1.85174 5.608
1.89636 5.164
1.94099 5.23134
1.98562 4.70658
2.03025 4.69645
2.07487 4.52137
2.11949 5.01105
2.16411 4.73539
2.20874 4.50496
2.25338 4.53041
2.298 4.38836
2.34263 4.12476
2.38725 4.85426
2.43188 4.48558
2.4765 4.34322
2.52115 4.10577
2.56577 4.82117
2.6104 5.72713
2.65503 5.81544
2.69965 5.88119
2.7443 6.67148
2.78893 7.10564
2.83356 7.62111
2.87818 8.41854
2.92281 8.53492
2.96744 9.86901
3.01209 10.7502
3.05672 11.2338
3.10135 12.7977
3.14599 13.6403
3.19062 14.571
3.23527 14.787
3.2799 16.0926
3.32454 17.1101
3.36917 17.9417
3.4138 19.1519
3.45844 19.6156
3.50309 20.2888
3.54773 21.1282
3.59237 21.9331
3.637 22.3667
3.68164 23.4052
3.7263 24.2451
3.77094 25.1622
3.81558 25.6055
3.86022 26.2416
3.90486 27.7673
3.9495 28.6134
3.99416 29.8563
4.0388 31.2258
4.08344 32.5199
4.12809 32.7068
4.17273 33.9013
4.21738 35.5069
4.26204 36.6728
4.30669 37.806
4.35133 40.5883
4.39598 41.4374
4.44063 43.1911
4.4853 45.2143
4.52995 47.7291
4.5746 49.5765
4.61925 51.486
4.6639 53.9467
4.70855 56.8794
4.75322 59.8082
4.79788 62.4228
4.84253 66.419
4.88719 71.008
4.93184 75.6762
4.97652 82.1713
5.02118 90.3426
5.06583 101.256
5.11049 117.157
5.15515 154.368
5.19981 533.867
5.24449 3768.6
5.28916 8448.38
5.33382 6243.81
5.37848 424.622
5.42315 161.003
5.46783 127.344
5.5125 113.858
5.55716 107.428
5.60183 101.742
5.6465 99.2009
5.69117 97.7055
5.73586 95.9743
5.78053 94.9151
5.8252 95.2909
5.86988 98.0759
5.91455 104.785
5.95924 122.745
6.00392 283.395
6.0486 1375.24
6.09328 2794.82
6.13795 4058.18
6.18263 687.138
6.22733 121.412
6.27201 88.6361
6.3167 78.3364
6.36138 72.9828
6.40606 68.7614
6.45075 66.6987
6.49545 64.2436
6.54014 62.4946
6.58483 60.7969
6.62952 60.2387
6.67421 58.4927
6.71892 57.7288
6.76361 56.9562
6.8083 55.8278
6.853 55.1159
6.89769 54.378
6.94239 54.3239
6.98711 53.3617
7.03181 53.4409
7.07651 52.8146
7.12121 52.8591
7.16591 52.3476
7.21063 52.0782
7.25533 52.3633
7.30004 52.1545
7.34475 52.296
7.38945 52.4168
7.43416 51.932
7.47889 52.2887
7.5236 56.1543
7.56831 63.0213
7.61303 55.0289
7.65774 53.5269
7.70247 54.5139
7.74719 54.5295
7.79191 54.99
7.83663 55.2049
7.88135 56.6422
7.92607 56.9941
7.97081 58.2287
8.01553 59.1134
8.06026 60.6344
8.10498 61.7988
8.14971 64.2819
8.19446 65.5837
8.23919 68.0447
8.28392 70.8858
8.32865 73.786
8.37339 78.3148
8.41812 83.9814
8.46288 95.4784
8.50761 171.607
8.55235 597.02
8.59709 905.242
8.64183 1521.41
8.68658 1639.48
8.73134 397.18
8.77609 115.939
8.82083 97.2924
8.86558 91.2752
8.91033 87.8933
8.9551 85.6509
8.99985 84.2594
9.04461 83.6433
9.08936 82.787
9.13412 81.5275
9.17888 81.2773
9.22365 86.7333
9.26841 95.567
9.31318 86.3273
9.35794 82.3287
9.4027 82.2994
9.44749 83.0004
9.49226 83.785
9.53703 84.5365
9.5818 86.1264
9.62657 87.3535
9.67134 88.7034
9.71614 91.0835
9.76091 92.9291
9.80569 95.4111
9.85047 98.866
9.89525 104.226
9.94005 113.769
9.98484 183.929
10.0296 540.607
10.0744 746.47
10.1192 1061.78
10.164 1694.8
10.2088 972.52
10.2536 212.813
10.2984 116.401
10.3432 108.235
10.388 104.791
10.4328 121.173
10.4776 213.882
10.5224 263.819
10.5672 340.347
10.612 501.211
10.6568 372.003
10.7017 137.274
10.7465 90.5291
10.7913 83.6769
10.8361 80.7133
10.8809 78.5037
10.9257 75.9905
10.9706 74.6367
11.0154 73.0579
11.0602 71.4342
11.105 70.2024
11.1499 68.8128
11.1947 68.1224
11.2395 67.0561
11.2844 66.3559
11.3292 65.3446
11.374 64.8013
11.4189 64.423
11.4637 63.5367
11.5086 62.9675
11.5534 62.2846
11.5983 62.2264
11.6431 62.3859
11.688 61.5935
11.7328 61.672
11.7777 61.5875
11.8225 61.2151
11.8674 61.4275
11.9122 62.4285
11.9571 65.6238
12.002 65.2576
12.0468 67.6765
12.0917 90.5571
12.1366 108.279
12.1814 119.715
12.2263 152.658
12.2712 195.615
12.3161 140.016
12.3609 74.9615
12.4058 64.1944
12.4507 63.4961
12.4956 63.4737
12.5405 63.1699
12.5853 63.5727
12.6302 63.8342
12.6751 64.6456
12.72 65.2968
12.7649 66.5177
12.8098 67.1585
12.8547 68.4687
12.8996 69.6578
12.9445 71.404
12.9894 73.1968
13.0343 75.2221
13.0792 79.2548
13.1242 86.6629
13.1691 132.059
13.214 186.304
13.2589 207.278
13.3038 250.689
13.3487 353.537
13.3937 377.912
13.4386 208.592
13.4835 119.107
13.5285 153.48
13.5734 182.701
13.6183 195.654
13.6633 243.732
13.7082 334.723
13.7531 306.197
13.7981 154.291
13.843 88.4452
13.888 80.9546
13.9329 77.7585
13.9779 76.2676
14.0228 74.7126
14.0678 73.3236
14.1127 72.8481
14.1577 73.9157
14.2027 72.6261
14.2476 70.6128
14.2926 69.6056
14.3376 69.3355
14.3825 68.7806
14.4275 68.4222
14.4725 68.2895
14.5175 68.4394
14.5624 68.4982
14.6074 68.9017
14.6524 69.3071
14.6974 69.921
14.7424 71.4512
14.7874 80.5469
14.8324 106.812
14.8774 121.355
14.9224 128.59
14.9674 151.304
15.0124 195.395
15.0574 205.556
15.1024 137.789
15.1474 81.8749
15.1924 71.3298
15.2374 69.1717
15.2824 67.9101
15.3274 67.1097
15.3725 66.6509
15.4175 66.182
15.4625 65.8449
15.5076 65.4291
15.5526 65.9053
15.5976 65.8041
15.6426 66.5605
15.6877 73.8867
15.7327 94.9289
15.7778 107.461
15.8228 112.186
15.8679 126.882
15.9129 157.411
15.958 186.434
16.003 150.258
16.0481 88.5002
16.0931 66.3435
16.1382 61.6186
16.1833 60.3387
16.2283 59.1479
16.2734 58.0907
16.3185 57.5769
16.3636 56.9131
16.4086 56.1682
16.4537 55.7643
16.4988 55.0279
16.5439 55.264
16.589 54.9932
16.6341 54.6866
16.6792 54.1679
16.7243 54.3557
16.7694 54.0725
16.8145 54.3832
16.8596 54.5601
16.9047 54.7939
16.9498 55.1104
16.9949 55.2247
17.04 55.5661
17.0851 57.016
17.1302 61.1282
17.1754 64.5296
17.2205 65.8328
17.2656 67.7163
17.3108 73.4011
17.3559 80.1036
17.401 81.1388
17.4462 71.2608
17.4913 61.6506
17.5365 59.2425
17.5815 59.11
17.6268 59.5657
17.6718 59.9493
17.7171 60.432
17.7622 61.6398
17.8074 62.4563
17.8525 63.922
17.8977 72.1652
17.9428 83.6703
17.9881 88.5893
18.0331 92.143
18.0784 99.2761
18.1237 116.516
18.1688 141.792
18.214 141.559
18.2591 110.208
18.3044 89.0785
18.3495 87.4796
18.3948 96.0994
18.4399 103.902
18.4852 94.9721
18.5303 76.1894
18.5756 65.3225
18.6207 62.3941
18.666 61.0097
18.7112 60.1196
18.7565 59.4433
18.8016 59.0174
18.8469 58.3554
18.892 58.1009
18.9374 57.4913
18.9825 57.0983
19.0278 56.9471
19.073 56.8037
19.1183 57.4783
19.1635 59.8092
19.2088 61.8601
19.254 62.6232
19.2993 63.4095
19.3447 65.6718
19.3898 69.5261
19.4352 74.3707
19.4804 72.2912
19.5257 63.6407
19.5709 56.4361
19.6163 54.5477
19.6615 53.9253
19.7068 53.7435
19.752 53.6289
19.7974 53.7819
19.8426 54.8017
19.888 56.8492
19.9332 58.4124
19.9786 58.8115
20.0238 59.4654
20.0692 62.4541
20.1144 67.4605
20.1598 72.8974
20.205 71.0531
20.2504 65.4369
20.2957 61.4862
20.3411 62.0236
20.3863 65.3093
20.4318 64.7036
20.477 59.153
20.5224 53.399
20.5677 51.3688
20.6131 50.4867
20.6586 50.0158
20.7038 49.7773
20.7493 49.5823
20.7945 49.3471
20.84 49.3489
20.8853 48.926
20.9307 48.7819
20.976 49.0423
21.0215 49.1952
21.0668 49.4543
21.1122 49.6833
21.1575 49.8257
21.203 49.9585
21.2483 50.5537
21.2938 51.6612
21.3391 51.5459
21.3846 50.5646
21.4299 49.3906
21.4754 48.8789
21.5207 49.0464
21.5662 49.1672
21.6116 49.3843
21.6571 51.4308
21.7024 53.3809
21.7479 54.2695
21.7933 54.576
21.8388 56.129
21.8843 58.9902
21.9297 62.817
21.9752 66.3521
22.0206 65.9489
22.0661 60.9933
22.1115 56.6028
22.157 56.0465
22.2024 56.6005
22.248 55.3376
22.2933 52.622
22.3389 50.1594
22.3843 49.5561
22.4299 49.0646
22.4753 48.9691
22.5208 48.7851
22.5662 48.9908
22.6118 49.0821
22.6572 49.2614
22.7028 50.4859
22.7483 51.4523
22.7939 52.1944
22.8393 52.4544
22.8849 52.7723
22.9303 53.8582
22.9759 55.539
23.0214 57.5018
23.067 58.7886
23.1126 56.187
23.1581 52.4941
23.2037 49.944
23.2492 49.6677
23.2948 49.9033
23.3403 51.2393
23.3859 51.8742
23.4314 51.9878
23.477 52.1715
23.5225 52.7194
23.5682 54.1057
23.6137 56.4926
23.6593 58.1731
23.7048 57.1321
23.7505 53.3508
23.796 49.2007
23.8417 47.1651
23.8872 46.2596
23.9329 45.9316
23.9784 45.4076
24.0241 45.1993
24.0697 44.8623
24.1154 44.6143
24.1609 44.2717
24.2066 44.2555
24.2522 44.0914
24.2979 43.7466
24.3434 43.6947
24.3892 43.5985
24.4349 43.4797
24.4805 43.3074
24.5262 43.2738
24.5718 43.3253
24.6175 43.2373
24.6631 43.2724
24.7089 43.1624
24.7545 42.8653
24.8002 42.5808
24.8458 42.7126
24.8916 42.559
24.9372 42.7315
24.983 43.1104
25.0286 43.2447
25.0744 43.6653
25.12 43.9136
25.1658 44.5335
25.2114 44.9475
25.2572 45.2276
25.3029 45.2196
25.3487 44.9972
25.3943 45.1507
25.4402 45.2009
25.4858 44.5775
25.5316 43.2476
25.5773 42.0604
25.6231 41.5155
25.669 40.8731
25.7147 40.894
25.7605 40.9834
25.8062 41.2197
25.8521 41.4317
25.8977 41.2514
25.9436 41.2568
25.9893 41.1166
26.0352 41.4608
26.0809 41.5129
26.1268 41.9088
26.1725 42.2785
26.2184 42.1206
26.2641 41.5958
26.31 41.1135
26.3557 40.9519
26.4017 40.9905
26.4474 41.048
26.4933 41.1016
26.5391 41.3009
26.585 41.6839
26.6308 42.0001
26.6767 42.2173
26.7225 42.9471
26.7684 42.8796
26.8142 42.1077
26.8601 41.5325
26.9059 41.0957
26.9519 40.5059
26.9979 40.187
27.0437 39.6538
27.0896 39.3579
27.1354 39.3056
27.1814 39.165
27.2272 39.1433
27.2732 39.2916
27.3191 38.7585
27.3651 38.8898
27.4109 38.7359
27.4569 38.6419
27.5027 38.7958
27.5488 38.963
27.5946 38.9339
27.6407 38.9306
27.6865 38.9712
27.7326 38.6764
27.7784 38.7871
27.8245 38.4996
27.8703 38.5818
27.9164 38.7692
27.9623 38.706
28.0084 38.8581
28.0543 39.237
28.1003 39.4366
28.1462 39.6392
28.1923 39.5341
28.2384 38.9723
28.2843 38.6357
28.3304 38.206
28.3764 37.7341
28.4225 37.1936
28.4684 36.9159
28.5145 36.4643
28.5605 36.4021
28.6066 36.1312
28.6526 36.193
28.6987 35.9541
28.7447 35.9666
28.7908 35.7223
28.8368 35.6813
28.8829 35.612
28.9289 35.6754
28.9751 35.5793
29.0211 35.4744
29.0673 35.3834
29.1133 35.2214
29.1595 34.9559
29.2055 34.696
29.2517 34.7078
29.2977 34.6763
29.3439 34.4798
29.3899 34.4715
29.4361 34.4064
29.4824 34.3925
29.5284 34.3675
29.5746 34.1593
29.6207 33.7671
29.6669 33.5452
29.713 33.4688
29.7593 33.2751
29.8053 33.3092
29.8516 33.1659
29.8977 33.1907
29.9439 32.9406
29.99 33.0103
30.0363 32.7639
30.0824 32.7614
30.1287 32.7652
30.1748 32.7421
30.2211 32.7426
30.2673 32.608
30.3136 32.754
30.3597 32.7894
30.406 32.6902
30.4522 32.5788
30.4985 32.5083
30.5447 32.6005
30.591 32.4453
30.6372 32.415
30.6835 32.4267
30.7297 32.5307
30.7761 32.5866
30.8224 32.6179
30.8686 32.4683
30.915 32.2067
30.9612 32.1688
31.0076 31.8618
31.0538 31.7113
31.1002 31.6623
31.1464 31.4746
31.1928 31.4104
31.2391 31.4386
31.2855 31.4337
31.3317 31.2573
31.3781 31.333
31.4244 31.2884
31.4708 31.1186
31.5171 31.1282
31.5636 31.2584
31.6098 31.1708
31.6563 30.9733
31.7026 30.7941
31.7491 30.6092
31.7953 30.5135
31.8418 30.469
31.8881 30.4759
31.9346 30.4359
31.9809 30.3618
32.0275 30.3661
32.074 30.2737
32.1203 30.1967
32.1668 30.0397
32.2132 29.9635
32.2597 29.8308
32.306 29.6363
32.3526 29.3976
32.399 29.3668
32.4455 29.1067
32.4919 29.0633
32.5385 29.038
32.5848 28.9085
32.6314 28.8336
32.6778 28.7816
32.7244 28.753
32.7708 28.5308
32.8174 28.533
32.8638 28.3816
32.9104 28.4673
32.9569 28.3702
33.0035 28.3212
33.0499 28.1436
33.0966 28.1116
33.143 28.1428
33.1897 27.9607
33.2361 27.9426
33.2828 27.9404
33.3293 27.7985
33.3759 27.8182
33.4226 27.7282
33.4691 27.5918
33.5158 27.4225
33.5623 27.2554
33.609 27.1332
33.6555 26.9709
33.7022 26.9729
33.7487 26.8682
33.7954 26.8271
33.842 26.6186
33.8887 26.6498
33.9353 26.5621
33.982 26.5366
34.0286 26.4398
34.0753 26.351
34.1219 26.2762
34.1687 26.2329
34.2152 26.0892
34.262 25.9419
34.3086 25.8182
34.3554 25.8683
34.402 25.6985
34.4488 25.5771
34.4954 25.5668
34.5422 25.4515
34.5889 25.4233
34.6357 25.2783
34.6825 25.2672
34.7292 25.1406
34.776 25.0519
34.8227 24.8961
34.8695 24.925
34.9162 24.9265
34.9631 24.8095
35.0098 24.7283
35.0566 24.6518
35.1033 24.6334
35.1502 24.546
35.1969 24.5567
35.2438 24.4198
35.2906 24.4221
35.3375 24.3477
35.3842 24.1864
35.4311 24.2099
35.4779 24.2178
35.5248 24.1955
35.5716 24.1415
35.6185 23.9811
35.6653 23.94
35.7123 23.8642
35.759 23.735
35.806 23.6222
35.8528 23.5517
35.8998 23.5587
35.9468 23.305
35.9936 23.3584
36.0406 23.2807
36.0874 23.2726
36.1345 23.2046
36.1813 23.2005
36.2283 23.0438
36.2752 22.9127
36.3222 22.9793
36.3691 22.8473
36.4161 22.7677
36.463 22.6838
36.5101 22.7719
36.557 22.6504
36.6041 22.4334
36.651 22.4591
36.6981 22.4442
36.745 22.3866
36.7921 22.2906
36.839 22.1044
36.8861 22.1096
36.9331 22.0155
36.9802 21.9624
37.0272 21.9098
37.0743 21.756
37.1213 21.6917
37.1684 21.6365
37.2154 21.5762
37.2626 21.4715
37.3098 21.4679
37.3568 21.3856
37.404 21.3593
37.451 21.1883
37.4982 21.243
37.5452 21.0388
37.5924 21.0329
37.6395 21.0514
37.6867 20.9543
37.7337 20.8682
37.781 20.8598
37.8281 20.7236
37.8753 20.6434
37.9224 20.5417
37.9697 20.5385
38.0168 20.486
38.064 20.401
38.1111 20.2967
38.1584 20.2073
38.2056 20.1842
38.2529 20.1741
38.3 20.0661
38.3473 20.0739
38.3945 19.9342
38.4418 19.9048
38.489 19.7971
38.5363 19.7355
38.5837 19.63
38.6309 19.7081
38.6782 19.5734
38.7254 19.5387
38.7728 19.4878
38.82 19.3591
38.8674 19.3141
38.9146 19.2435
38.9621 19.2018
39.0093 19.2209
39.0567 19.0975
39.104 19.0141
39.1514 18.8553
39.1987 18.8707
39.2461 18.8515
39.2934 18.8094
39.3409 18.7414
39.3882 18.659
39.4356 18.6228
39.483 18.5435
39.5304 18.4921
39.5778 18.4484
39.6253 18.3718
39.6726 18.3078
39.7201 18.266
39.7675 18.2502
39.815 18.1329
39.8624 18.0617
39.9099 18.0097
39.9575 17.9607
40.0049 17.8996
40.0525 17.8249
40.0999 17.8126
40.1474 17.6974
40.1949 17.682
40.2425 17.5987
40.2899 17.6002
40.3375 17.5024
40.385 17.4289
40.4326 17.368
40.48 17.3689
40.5277 17.314
40.5752 17.1961
40.6228 17.18
40.6703 17.1472
40.718 17.0774
40.7655 17.0207
40.8132 16.9387
40.8607 16.9233
40.9084 16.8922
40.9559 16.8098
41.0036 16.819
41.0512 16.7444
41.0989 16.6766
41.1465 16.5589
41.1942 16.5271
41.242 16.4824
41.2896 16.4358
41.3373 16.3317
41.3849 16.2852
41.4327 16.2798
41.4803 16.1824
41.5281 16.1544
41.5758 16.1008
41.6236 16.0382
41.6712 16.0371
41.7191 15.922
41.7667 15.8671
41.8146 15.8814
41.8622 15.7896
41.9101 15.7027
41.9578 15.6323
42.0057 15.552
42.0534 15.6193
42.1013 15.5162
42.149 15.4596
42.1969 15.4172
42.2446 15.3727
42.2925 15.3095
42.3403 15.1882
42.3882 15.2103
42.436 15.1561
42.4839 15.0755
42.5319 15.0562
42.5797 14.9795
42.6277 14.9886
42.6755 14.965
42.7235 14.8278
42.7713 14.8443
42.8193 14.7309
42.8671 14.719
42.9152 14.6541
42.963 14.5971
43.0111 14.5177
43.0589 14.4476
43.107 14.4387
43.1549 14.4122
43.2029 14.3331
43.2508 14.3089
43.2989 14.2582
43.3468 14.1735
43.3949 14.1567
43.4429 14.0782
43.491 14.0178
43.5389 13.9688
43.5871 13.9635
43.635 13.8734
43.6832 13.8743
43.7312 13.7585
43.7793 13.7558
43.8273 13.714
43.8755 13.6498
43.9237 13.6577
43.9717 13.6158
44.0199 13.5527
44.068 13.4976
44.1162 13.4335
44.1642 13.3999
44.2125 13.3468
44.2606 13.3095
44.3088 13.2249
44.3569 13.1542
44.4052 13.1628
44.4533 13.087
44.5016 13.0701
44.5497 13.0181
44.598 12.992
44.6461 12.9036
44.6945 12.8776
44.7426 12.8415
44.791 12.7573
44.8391 12.7633
44.8875 12.6768
44.9357 12.6876
44.984 12.6478
45.0322 12.5565
45.0806 12.4921
45.1288 12.4363
45.1773 12.4504
45.2257 12.3939
45.2739 12.3117
45.3224 12.2874
45.3706 12.2263
45.4191 12.1744
45.4673 12.2232
45.5158 12.0994
45.5641 12.0638
45.6126 12.0021
45.6609 12.0035
45.7094 11.9756
45.7577 11.8926
45.8063 11.8456
45.8546 11.8321
45.9031 11.7874
45.9515 11.7156
46.0001 11.7011
46.0484 11.6804
46.097 11.6391
46.1454 11.5887
46.194 11.5672
46.2424 11.515
46.291 11.4603
46.3395 11.4056
46.3881 11.3681
46.4365 11.3427
46.4852 11.294
46.5337 11.2218
46.5823 11.2145
46.631 11.1689
46.6795 11.1
46.7282 11.0919
46.7767 11.0403
46.8254 10.9615
46.8739 10.9283
46.9226 10.9065
46.9712 10.8853
47.0199 10.8358
47.0685 10.7985
47.1173 10.7691
47.1658 10.7092
47.2146 10.6604
47.2632 10.6178
47.312 10.6263
47.3606 10.5478
47.4095 10.5314
47.4581 10.4688
47.5069 10.4476
47.5556 10.3992
47.6044 10.3345
47.6531 10.3342
47.702 10.2419
47.7507 10.2536
47.7996 10.1792
47.8483 10.1305
47.8972 10.1494
47.9461 10.1146
47.9948 10.0734
48.0438 10.0194
48.0925 10.038
48.1415 9.93171
48.1902 9.90514
48.2392 9.92543
48.288 9.876
48.337 9.7782
48.3858 9.79823
48.4348 9.73793
48.4837 9.71646
48.5327 9.65509
48.5815 9.62902
48.6306 9.64317
48.6795 9.60569
48.7285 9.53047
48.7774 9.51162
48.8265 9.51063
48.8754 9.41408
48.9245 9.35972
48.9734 9.36966
49.0226 9.32374
49.0715 9.29958
49.1206 9.26651
49.1696 9.18731
49.2188 9.19288
49.2679 9.16026
49.3169 9.0809
49.3661 9.06024
49.4151 9.03918
49.4643 9.04253
49.5134 8.98644
49.5626 8.8854
49.6117 8.91079
49.6609 8.85216
49.71 8.80505
49.7592 8.83161
49.8083 8.76034
49.8576 8.7397
49.9067 8.70053
49.956 8.70367
50.0052 8.64341
50.0545 8.65687
50.1036 8.55944
50.153 8.53885
50.2022 8.51096
50.2515 8.46945
50.3007 8.4249
50.3501 8.41993
50.3993 8.40262
50.4487 8.35392
50.498 8.27715
50.5474 8.28216
50.5966 8.26627
50.6461 8.24405
50.6955 8.20747
50.7448 8.18506
50.7943 8.11699
50.8436 8.07042
50.8931 8.06023
50.9424 8.06688
50.9919 7.9697
51.0413 7.93483
51.0908 7.91997
51.1402 7.9126
51.1897 7.8786
51.2391 7.84702
51.2887 7.78438
51.3381 7.76177
51.3877 7.76217
51.4371 7.73425
51.4867 7.6683
51.5362 7.64894
51.5858 7.6187
51.6353 7.57341
51.6849 7.52665
51.7344 7.55092
51.7841 7.523
51.8336 7.44558
51.8833 7.40391
51.9328 7.40208
51.9826 7.34847
52.0323 7.33238
52.0818 7.28327
52.1316 7.25204
52.1812 7.24542
52.231 7.226
52.2806 7.19266
52.3304 7.14417
52.38 7.0994
52.4298 7.08848
52.4794 7.0359
52.5293 7.04554
52.5789 6.98965
52.6288 7.00398
52.6785 6.95389
52.7284 6.91592
52.7781 6.89232
52.828 6.87248
52.8777 6.83796
52.9276 6.77567
52.9774 6.75599
53.0273 6.77337
53.0771 6.70934
53.1271 6.72588
53.1769 6.65433
53.2269 6.65559
53.2767 6.60701
53.3267 6.58078
53.3765 6.56902
53.4266 6.51834
53.4766 6.50674
53.5265 6.47981
53.5765 6.45202
53.6264 6.41856
53.6765 6.38216
53.7264 6.33175
53.7765 6.29408
53.8265 6.30265
53.8766 6.30017
53.9266 6.23667
53.9767 6.22061
54.0267 6.22287
54.0769 6.1675
54.1269 6.11467
54.1771 6.08148
54.2271 6.07954
54.2773 6.01826
54.3274 5.99364
54.3776 5.97844
54.4277 5.89238
54.478 5.85562
54.528 5.85723
54.5783 5.79386
54.6285 5.74206
54.6788 5.69732
54.7289 5.618
54.7792 5.62048
54.8296 5.52867
54.8798 5.47178
54.9301 5.50073
54.9803 5.44874
55.0307 5.45946
55.0809 5.37416
55.1314 5.34483
55.1816 5.26131
55.232 5.2542
55.2823 5.18929
55.3328 5.09883
55.383 5.02909
55.4335 5.03123
55.4838 4.95737
55.5344 4.92574
55.5847 4.9363
55.6352 4.8685
55.6856 4.82383
55.7361 4.82469