File: XRD/Ni3Fe_FD0906.xy
TT I
1.27165 7.31666
1.31627 6.97166
1.36089 6.28403
1.40551 6.00462
1.45013 6.27692
1.49476 5.95573
1.53938 5.85934
1.584 5.18016
1.62863 5.01585
1.67325 4.6873
1.71787 4.77572
1.7625 5.32847
1.80712 4.6371
1.85174 4.90196
1.89636 4.94428
1.94099 5.00676
1.98562 4.87133
2.03025 4.69012
2.07487 4.2426
2.11949 5.15351
2.16411 5.067
2.20874 10.4892
2.25338 16.1009
2.298 6.15368
2.34263 6.28335
2.38725 6.4423
2.43188 7.12894
2.4765 7.3088
2.52115 7.47631
2.56577 8.05527
2.6104 8.72443
2.65503 8.02202
2.69965 8.63628
2.7443 8.85294
2.78893 8.46444
2.83356 8.13814
2.87818 8.82921
2.92281 8.80694
2.96744 9.67847
3.01209 10.846
3.05672 11.5246
3.10135 12.4198
3.14599 13.2237
3.19062 14.2353
3.23527 15.1261
3.2799 16.0041
3.32454 16.4366
3.36917 17.8305
3.4138 18.4939
3.45844 19.651
3.50309 20.6028
3.54773 21.1531
3.59237 23.7876
3.637 65.266
3.68164 44.1449
3.7263 25.7065
3.77094 25.6548
3.81558 26.4866
3.86022 26.9971
3.90486 28.944
3.9495 29.3849
3.99416 30.148
4.0388 32.1443
4.08344 33.3525
4.12809 34.0577
4.17273 36.0531
4.21738 39.97
4.26204 166.586
4.30669 145.543
4.35133 45.4328
4.39598 43.5763
4.44063 50.2368
4.4853 57.6437
4.52995 51.9103
4.5746 53.1808
4.61925 52.8074
4.6639 54.9511
4.70855 57.45
4.75322 60.574
4.79788 64.8995
4.84253 66.9926
4.88719 71.821
4.93184 74.7131
4.97652 79.8662
5.02118 86.0556
5.06583 93.1711
5.11049 104.27
5.15515 154.772
5.19981 338.995
5.24449 2680.31
5.28916 13662.0
5.33382 2596.32
5.37848 174.839
5.42315 124.987
5.46783 113.121
5.5125 105.973
5.55716 100.787
5.60183 96.8304
5.6465 94.3159
5.69117 93.2009
5.73586 90.9393
5.78053 92.8677
5.8252 91.8453
5.86988 93.3647
5.91455 92.9879
5.95924 101.094
6.00392 208.138
6.0486 903.295
6.09328 4587.75
6.13795 3037.16
6.18263 195.117
6.22733 88.3392
6.27201 79.66
6.3167 88.8919
6.36138 75.5624
6.40606 67.8666
6.45075 66.835
6.49545 64.1016
6.54014 62.7566
6.58483 61.8696
6.62952 61.8501
6.67421 80.5685
6.71892 107.813
6.76361 63.7405
6.8083 58.2548
6.853 57.4093
6.89769 55.8803
6.94239 55.483
6.98711 54.8227
7.03181 54.8849
7.07651 53.9786
7.12121 53.9457
7.16591 54.5961
7.21063 53.9895
7.25533 63.8035
7.30004 124.877
7.34475 75.7527
7.38945 54.6902
7.43416 53.28
7.47889 53.594
7.5236 53.8483
7.56831 54.6701
7.61303 55.1824
7.65774 55.7329
7.70247 55.7152
7.74719 55.3053
7.79191 55.7586
7.83663 56.2061
7.88135 56.6506
7.92607 57.6219
7.97081 58.8425
8.01553 59.7549
8.06026 61.726
8.10498 62.8487
8.14971 69.9685
8.19446 69.9085
8.23919 68.4759
8.28392 70.8958
8.32865 73.1645
8.37339 77.0996
8.41812 82.8603
8.46288 104.662
8.50761 164.184
8.55235 363.255
8.59709 1199.05
8.64183 2301.3
8.68658 852.023
8.73134 142.692
8.77609 95.7705
8.82083 90.2858
8.86558 89.2035
8.91033 88.8225
8.9551 88.6492
8.99985 84.0559
9.04461 82.3221
9.08936 82.3178
9.13412 81.1851
9.17888 80.8421
9.22365 81.0258
9.26841 80.6833
9.31318 82.3027
9.35794 83.0778
9.4027 83.1245
9.44749 83.0742
9.49226 83.496
9.53703 84.2327
9.5818 86.5835
9.62657 91.2498
9.67134 94.1447
9.71614 91.5727
9.76091 92.8341
9.80569 95.4728
9.85047 98.7432
9.89525 114.869
9.94005 127.398
9.98484 176.904
10.0296 325.544
10.0744 809.717
10.1192 1830.29
10.164 1472.57
10.2088 334.818
10.2536 117.944
10.2984 108.373
10.3432 108.319
10.388 102.691
10.4328 117.344
10.4776 156.892
10.5224 287.503
10.5672 543.502
10.612 489.347
10.6568 182.465
10.7017 92.2932
10.7465 84.653
10.7913 81.6435
10.8361 79.6765
10.8809 77.5378
10.9257 76.8244
10.9706 77.0913
11.0154 73.5651
11.0602 71.4474
11.105 70.1939
11.1499 72.5484
11.1947 76.4392
11.2395 70.8475
11.2844 67.7309
11.3292 65.8363
11.374 64.7848
11.4189 64.3769
11.4637 63.742
11.5086 64.0404
11.5534 65.699
11.5983 63.8121
11.6431 62.2253
11.688 61.8544
11.7328 61.8397
11.7777 61.4872
11.8225 61.2156
11.8674 61.2604
11.9122 61.7126
11.9571 62.18
12.002 62.8284
12.0468 66.811
12.0917 76.6998
12.1366 101.487
12.1814 158.018
12.2263 219.453
12.2712 158.367
12.3161 86.5473
12.3609 66.7105
12.4058 63.2197
12.4507 62.9941
12.4956 63.2928
12.5405 63.6335
12.5853 64.2281
12.6302 68.5984
12.6751 72.4483
12.72 67.5666
12.7649 66.3403
12.8098 67.3147
12.8547 68.5244
12.8996 69.8441
12.9445 71.0882
12.9894 72.9458
13.0343 74.659
13.0792 78.1257
13.1242 88.4788
13.1691 109.067
13.214 144.537
13.2589 241.656
13.3038 391.376
13.3487 425.366
13.3937 231.982
13.4386 114.021
13.4835 103.182
13.5285 117.243
13.5734 155.515
13.6183 258.399
13.6633 375.6
13.7082 330.363
13.7531 165.447
13.7981 91.5423
13.843 79.6982
13.888 78.1288
13.9329 75.6838
13.9779 74.5872
14.0228 73.1202
14.0678 71.6643
14.1127 71.046
14.1577 70.8169
14.2027 69.9514
14.2476 68.9992
14.2926 68.9963
14.3376 69.649
14.3825 68.6761
14.4275 67.6648
14.4725 67.4128
14.5175 67.6716
14.5624 67.676
14.6074 69.0298
14.6524 69.7424
14.6974 69.3819
14.7424 71.5217
14.7874 77.8677
14.8324 86.6254
14.8774 109.146
14.9224 157.772
14.9674 218.991
15.0124 214.85
15.0574 138.117
15.1024 84.1471
15.1474 70.5367
15.1924 68.8941
15.2374 68.736
15.2824 68.2132
15.3274 66.5143
15.3725 65.5298
15.4175 65.2316
15.4625 64.6531
15.5076 64.824
15.5526 64.9182
15.5976 64.6314
15.6426 66.0553
15.6877 71.2955
15.7327 78.1219
15.7778 93.0254
15.8228 127.927
15.8679 176.2
15.9129 194.663
15.958 147.299
16.003 88.3473
16.0481 65.0981
16.0931 62.5864
16.1382 60.8314
16.1833 59.2486
16.2283 58.0248
16.2734 57.0888
16.3185 57.1893
16.3636 57.3819
16.4086 56.2835
16.4537 54.9777
16.4988 54.2393
16.5439 54.2845
16.589 53.9741
16.6341 53.8399
16.6792 53.5851
16.7243 53.8756
16.7694 53.931
16.8145 53.6514
16.8596 53.9424
16.9047 54.9317
16.9498 55.0582
16.9949 54.4167
17.04 54.9673
17.0851 55.957
17.1302 57.6094
17.1754 60.3682
17.2205 65.6929
17.2656 74.921
17.3108 83.3034
17.3559 80.4856
17.401 67.5955
17.4462 59.8628
17.4913 58.061
17.5365 57.9844
17.5815 58.1881
17.6268 58.5107
17.6718 59.0622
17.7171 59.644
17.7622 60.2118
17.8074 61.2019
17.8525 63.622
17.8977 67.2094
17.9428 72.0544
17.9881 81.3973
18.0331 100.242
18.0784 125.663
18.1237 140.09
18.1688 125.299
18.214 96.4722
18.2591 83.5838
18.3044 90.5349
18.3495 102.392
18.3948 106.255
18.4399 91.3892
18.4852 73.1234
18.5303 63.7741
18.5756 61.0377
18.6207 60.1341
18.666 59.2153
18.7112 58.437
18.7565 57.96
18.8016 57.6872
18.8469 57.1543
18.892 56.6131
18.9374 56.1902
18.9825 55.9249
19.0278 55.737
19.073 56.0804
19.1183 56.2404
19.1635 56.7864
19.2088 58.439
19.254 61.2042
19.2993 66.1082
19.3447 72.2866
19.3898 75.447
19.4352 69.2103
19.4804 60.3427
19.5257 54.9592
19.5709 53.1104
19.6163 52.987
19.6615 52.8163
19.7068 52.4196
19.752 52.2793
19.7974 52.7205
19.8426 53.3566
19.888 54.0656
19.9332 55.2519
19.9786 57.9949
20.0238 62.3149
20.0692 67.4941
20.1144 69.4769
20.1598 66.2109
20.205 61.5756
20.2504 61.1293
20.2957 63.8761
20.3411 65.467
20.3863 62.6303
20.4318 56.2094
20.477 51.7958
20.5224 50.2937
20.5677 49.9287
20.6131 49.402
20.6586 48.7012
20.7038 48.7083
20.7493 48.2999
20.7945 48.1229
20.84 48.0826
20.8853 47.8638
20.9307 47.5895
20.976 47.9339
21.0215 47.7152
21.0668 47.9916
21.1122 48.6138
21.1575 49.4796
21.203 50.0949
21.2483 50.8256
21.2938 50.635
21.3391 49.1029
21.3846 47.9121
21.4299 47.611
21.4754 47.661
21.5207 47.7254
21.5662 48.1118
21.6116 48.4049
21.6571 49.0883
21.7024 50.0237
21.7479 51.8166
21.7933 54.6906
21.8388 59.0964
21.8843 62.9505
21.9297 64.2193
21.9752 61.2476
22.0206 57.5452
22.0661 55.4503
22.1115 55.6842
22.157 55.0309
22.2024 52.5754
22.248 49.9894
22.2933 48.6111
22.3389 48.1406
22.3843 48.0663
22.4299 47.8896
22.4753 47.8579
22.5208 47.6334
22.5662 47.7112
22.6118 47.8578
22.6572 47.9715
22.7028 48.5283
22.7483 48.7849
22.7939 49.6013
22.8393 51.1872
22.8849 53.5561
22.9303 55.8635
22.9759 57.3233
23.0214 56.1652
23.067 52.7019
23.1126 49.6476
23.1581 48.1655
23.2037 47.8536
23.2492 48.0821
23.2948 48.1208
23.3403 48.1714
23.3859 48.9167
23.4314 50.1246
23.477 52.0598
23.5225 54.6425
23.5682 57.0311
23.6137 57.3146
23.6593 54.1343
23.7048 50.0126
23.7505 47.0952
23.796 45.7241
23.8417 45.0939
23.8872 44.8064
23.9329 44.4258
23.9784 44.0436
24.0241 44.0411
24.0697 43.5537
24.1154 43.3874
24.1609 43.22
24.2066 42.9406
24.2522 42.8779
24.2979 42.6904
24.3434 42.6147
24.3892 42.4188
24.4349 42.5021
24.4805 42.2763
24.5262 42.5259
24.5718 42.3246
24.6175 42.0706
24.6631 41.9838
24.7089 41.663
24.7545 41.762
24.8002 41.5916
24.8458 41.5021
24.8916 41.2237
24.9372 41.4706
24.983 41.8494
25.0286 42.1625
25.0744 42.6211
25.12 43.0193
25.1658 43.7298
25.2114 44.0534
25.2572 44.1611
25.3029 44.2182
25.3487 44.3351
25.3943 43.8489
25.4402 42.415
25.4858 41.4592
25.5316 40.5832
25.5773 40.2029
25.6231 40.0829
25.669 39.9108
25.7147 39.8421
25.7605 39.7569
25.8062 39.8816
25.8521 40.0416
25.8977 39.8658
25.9436 40.1687
25.9893 40.3161
26.0352 40.9562
26.0809 41.0211
26.1268 41.0215
26.1725 40.6259
26.2184 40.0419
26.2641 39.5332
26.31 39.4168
26.3557 39.425
26.4017 39.4087
26.4474 39.8387
26.4933 40.1396
26.5391 40.6638
26.585 41.2152
26.6308 41.5394
26.6767 41.4937
26.7225 41.1354
26.7684 40.6811
26.8142 40.0648
26.8601 39.637
26.9059 39.2193
26.9519 38.7447
26.9979 38.486
27.0437 38.3185
27.0896 38.1111
27.1354 38.1001
27.1814 37.9712
27.2272 37.7673
27.2732 37.8629
27.3191 37.8404
27.3651 37.8932
27.4109 37.714
27.4569 37.9276
27.5027 37.9602
27.5488 37.9269
27.5946 37.6986
27.6407 37.489
27.6865 37.476
27.7326 37.3022
27.7784 37.3511
27.8245 37.1845
27.8703 37.2775
27.9164 37.7386
27.9623 37.9076
28.0084 38.2037
28.0543 38.7014
28.1003 38.4817
28.1462 38.2679
28.1923 37.8081
28.2384 37.375
28.2843 36.9066
28.3304 36.509
28.3764 35.9611
28.4225 35.7074
28.4684 35.5975
28.5145 35.4065
28.5605 35.3091
28.6066 35.1067
28.6526 34.9743
28.6987 34.9723
28.7447 34.7736
28.7908 34.9354
28.8368 34.8583
28.8829 34.7931
28.9289 34.8166
28.9751 34.5145
29.0211 34.2629
29.0673 34.1221
29.1133 33.9072
29.1595 33.802
29.2055 33.6898
29.2517 33.8297
29.2977 33.7478
29.3439 33.7014
29.3899 33.6881
29.4361 33.5136
29.4824 33.3833
29.5284 33.1501
29.5746 32.8612
29.6207 32.5692
29.6669 32.6248
29.713 32.4173
29.7593 32.1488
29.8053 32.3437
29.8516 32.2579
29.8977 32.2192
29.9439 32.1095
29.99 31.9818
30.0363 31.8642
30.0824 31.9756
30.1287 31.9147
30.1748 31.8524
30.2211 31.8698
30.2673 31.7706
30.3136 31.829
30.3597 31.6461
30.406 31.5022
30.4522 31.4248
30.4985 31.5195
30.5447 31.5745
30.591 31.6057
30.6372 31.7082
30.6835 31.713
30.7297 31.7751
30.7761 31.6184
30.8224 31.487
30.8686 31.2896
30.915 31.0949
30.9612 30.8817
31.0076 30.7709
31.0538 30.655
31.1002 30.5848
31.1464 30.4502
31.1928 30.3468
31.2391 30.5255
31.2855 30.3504
31.3317 30.3758
31.3781 30.3509
31.4244 30.3311
31.4708 30.3495
31.5171 30.3759
31.5636 30.235
31.6098 30.1034
31.6563 29.8839
31.7026 29.6689
31.7491 29.7169
31.7953 29.6278
31.8418 29.6065
31.8881 29.6298
31.9346 29.5354
31.9809 29.5142
32.0275 29.4136
32.074 29.3568
32.1203 29.0309
32.1668 28.9233
32.2132 28.935
32.2597 28.8387
32.306 28.6667
32.3526 28.4035
32.399 28.4268
32.4455 28.3324
32.4919 28.2119
32.5385 28.1673
32.5848 27.9974
32.6314 28.0119
32.6778 27.9536
32.7244 27.855
32.7708 27.6659
32.8174 27.7205
32.8638 27.4717
32.9104 27.604
32.9569 27.5548
33.0035 27.3893
33.0499 27.4897
33.0966 27.3779
33.143 27.2802
33.1897 27.2278
33.2361 27.2104
33.2828 27.1185
33.3293 26.9151
33.3759 26.9014
33.4226 26.7677
33.4691 26.7088
33.5158 26.5287
33.5623 26.4332
33.609 26.3079
33.6555 26.1816
33.7022 26.2002
33.7487 26.0623
33.7954 26.0287
33.842 25.9199
33.8887 25.8871
33.9353 25.8297
33.982 25.6381
34.0286 25.5875
34.0753 25.5106
34.1219 25.4837
34.1687 25.4367
34.2152 25.3691
34.262 25.2171
34.3086 25.1992
34.3554 25.0603
34.402 24.9465
34.4488 24.8603
34.4954 24.8588
34.5422 24.8331
34.5889 24.6431
34.6357 24.5718
34.6825 24.4476
34.7292 24.3623
34.776 24.3062
34.8227 24.3117
34.8695 24.2251
34.9162 24.1492
34.9631 24.1287
35.0098 24.0328
35.0566 23.893
35.1033 23.9096
35.1502 23.9068
35.1969 23.8327
35.2438 23.8229
35.2906 23.6389
35.3375 23.6245
35.3842 23.6279
35.4311 23.5774
35.4779 23.515
35.5248 23.5292
35.5716 23.3685
35.6185 23.3147
35.6653 23.2159
35.7123 23.1603
35.759 23.0185
35.806 22.9376
35.8528 22.8074
35.8998 22.8293
35.9468 22.6974
35.9936 22.7246
36.0406 22.631
36.0874 22.5994
36.1345 22.5366
36.1813 22.4031
36.2283 22.3016
36.2752 22.238
36.3222 22.2485
36.3691 22.2283
36.4161 22.0624
36.463 22.0632
36.5101 22.0688
36.557 21.9724
36.6041 21.9152
36.651 21.8486
36.6981 21.7588
36.745 21.7237
36.7921 21.6283
36.839 21.4758
36.8861 21.4759
36.9331 21.4031
36.9802 21.2943
37.0272 21.1794
37.0743 21.1481
37.1213 21.12
37.1684 21.0489
37.2154 20.9204
37.2626 20.9359
37.3098 20.877
37.3568 20.8015
37.404 20.7945
37.451 20.5975
37.4982 20.5521
37.5452 20.4804
37.5924 20.4056
37.6395 20.542
37.6867 20.3889
37.7337 20.266
37.781 20.1552
37.8281 20.1042
37.8753 20.0526
37.9224 19.9986
37.9697 19.9649
38.0168 19.819
38.064 19.8215
38.1111 19.7661
38.1584 19.6624
38.2056 19.6448
38.2529 19.5759
38.3 19.5148
38.3473 19.4757
38.3945 19.3773
38.4418 19.2887
38.489 19.2539
38.5363 19.1627
38.5837 19.1298
38.6309 19.0749
38.6782 19.044
38.7254 18.9159
38.7728 18.8701
38.82 18.8319
38.8674 18.7981
38.9146 18.7645
38.9621 18.6715
39.0093 18.694
39.0567 18.5106
39.104 18.3969
39.1514 18.4014
39.1987 18.4267
39.2461 18.3496
39.2934 18.2323
39.3409 18.1289
39.3882 18.1656
39.4356 17.9984
39.483 17.977
39.5304 17.9247
39.5778 17.9077
39.6253 17.8722
39.6726 17.7914
39.7201 17.8216
39.7675 17.7168
39.815 17.6508
39.8624 17.5098
39.9099 17.5542
39.9575 17.4652
40.0049 17.4193
40.0525 17.297
40.0999 17.2853
40.1474 17.2363
40.1949 17.1552
40.2425 17.0886
40.2899 17.0482
40.3375 17.0128
40.385 16.9496
40.4326 16.8984
40.48 16.823
40.5277 16.7755
40.5752 16.7822
40.6228 16.6465
40.6703 16.6708
40.718 16.5311
40.7655 16.5566
40.8132 16.3798
40.8607 16.4571
40.9084 16.3628
40.9559 16.3326
41.0036 16.2537
41.0512 16.2302
41.0989 16.1718
41.1465 16.1276
41.1942 16.1002
41.242 15.9441
41.2896 15.9285
41.3373 15.9079
41.3849 15.8962
41.4327 15.7547
41.4803 15.7462
41.5281 15.728
41.5758 15.6677
41.6236 15.5982
41.6712 15.5202
41.7191 15.4658
41.7667 15.4108
41.8146 15.4005
41.8622 15.3549
41.9101 15.2285
41.9578 15.2386
42.0057 15.1967
42.0534 15.1253
42.1013 15.0944
42.149 15.0727
42.1969 15.0105
42.2446 14.9148
42.2925 14.9118
42.3403 14.8142
42.3882 14.7968
42.436 14.7518
42.4839 14.6773
42.5319 14.6742
42.5797 14.5881
42.6277 14.5005
42.6755 14.5303
42.7235 14.4068
42.7713 14.4092
42.8193 14.3303
42.8671 14.2896
42.9152 14.2863
42.963 14.1607
43.0111 14.1512
43.0589 14.1196
43.107 14.0126
43.1549 13.9548
43.2029 13.9329
43.2508 13.8902
43.2989 13.8204
43.3468 13.7817
43.3949 13.7314
43.4429 13.6835
43.491 13.653
43.5389 13.6166
43.5871 13.5579
43.635 13.5174
43.6832 13.4758
43.7312 13.3966
43.7793 13.3764
43.8273 13.3454
43.8755 13.2688
43.9237 13.2539
43.9717 13.2032
44.0199 13.128
44.068 13.1188
44.1162 13.0907
44.1642 12.9953
44.2125 12.983
44.2606 12.9458
44.3088 12.8542
44.3569 12.828
44.4052 12.8238
44.4533 12.6933
44.5016 12.7218
44.5497 12.6319
44.598 12.6183
44.6461 12.5502
44.6945 12.4777
44.7426 12.4763
44.791 12.4183
44.8391 12.3773
44.8875 12.3289
44.9357 12.2968
44.984 12.2461
45.0322 12.2462
45.0806 12.1393
45.1288 12.1523
45.1773 12.0888
45.2257 12.0419
45.2739 12.0108
45.3224 11.9479
45.3706 11.9016
45.4191 11.8675
45.4673 11.8562
45.5158 11.8292
45.5641 11.7531
45.6126 11.7096
45.6609 11.6361
45.7094 11.5843
45.7577 11.5764
45.8063 11.5035
45.8546 11.5124
45.9031 11.4399
45.9515 11.4256
46.0001 11.3797
46.0484 11.3215
46.097 11.3158
46.1454 11.2467
46.194 11.2467
46.2424 11.1684
46.291 11.1253
46.3395 11.0628
46.3881 11.0051
46.4365 11.054
46.4852 10.9985
46.5337 10.9683
46.5823 10.945
46.631 10.8713
46.6795 10.8358
46.7282 10.7514
46.7767 10.7423
46.8254 10.6922
46.8739 10.6909
46.9226 10.6198
46.9712 10.6114
47.0199 10.5331
47.0685 10.4777
47.1173 10.4783
47.1658 10.4206
47.2146 10.3997
47.2632 10.3797
47.312 10.321
47.3606 10.2601
47.4095 10.1918
47.4581 10.1898
47.5069 10.1311
47.5556 10.0798
47.6044 10.075
47.6531 10.0356
47.702 9.96246
47.7507 9.97966
47.7996 9.93114
47.8483 9.87456
47.8972 9.91289
47.9461 9.86806
47.9948 9.74743
48.0438 9.75237
48.0925 9.71874
48.1415 9.63188
48.1902 9.60988
48.2392 9.64391
48.288 9.56555
48.337 9.57252
48.3858 9.50525
48.4348 9.4779
48.4837 9.48113
48.5327 9.43315
48.5815 9.38628
48.6306 9.34266
48.6795 9.307
48.7285 9.26995
48.7774 9.19869
48.8265 9.21727
48.8754 9.17277
48.9245 9.13656
48.9734 9.09174
49.0226 9.07187
49.0715 9.0264
49.1206 8.98825
49.1696 8.9131
49.2188 8.92032
49.2679 8.87606
49.3169 8.85851
49.3661 8.83305
49.4151 8.80761
49.4643 8.7468
49.5134 8.76915
49.5626 8.66641
49.6117 8.68945
49.6609 8.64904
49.71 8.61686
49.7592 8.54569
49.8083 8.52619
49.8576 8.50453
49.9067 8.47552
49.956 8.4392
50.0052 8.37881
50.0545 8.35453
50.1036 8.32571
50.153 8.28462
50.2022 8.27939
50.2515 8.25034
50.3007 8.13598
50.3501 8.17088
50.3993 8.15973
50.4487 8.0925
50.498 8.05859
50.5474 8.04156
50.5966 7.98758
50.6461 7.99028
50.6955 7.94002
50.7448 7.9304
50.7943 7.89073
50.8436 7.8524
50.8931 7.80846
50.9424 7.83729
50.9919 7.75863
51.0413 7.74431
51.0908 7.70438
51.1402 7.67701
51.1897 7.63988
51.2391 7.63791
51.2887 7.5622
51.3381 7.53616
51.3877 7.53945
51.4371 7.48276
51.4867 7.45454
51.5362 7.43206
51.5858 7.39991
51.6353 7.344
51.6849 7.35166
51.7344 7.29337
51.7841 7.26427
51.8336 7.28293
51.8833 7.22463
51.9328 7.16143
51.9826 7.13388
52.0323 7.11438
52.0818 7.09254
52.1316 7.06638
52.1812 7.04801
52.231 7.04482
52.2806 6.9875
52.3304 6.9527
52.38 6.91871
52.4298 6.91031
52.4794 6.87032
52.5293 6.83352
52.5789 6.8125
52.6288 6.77516
52.6785 6.7358
52.7284 6.74337
52.7781 6.69477
52.828 6.67008
52.8777 6.60365
52.9276 6.64107
52.9774 6.59836
53.0273 6.59582
53.0771 6.53115
53.1271 6.51451
53.1769 6.50258
53.2269 6.48655
53.2767 6.43026
53.3267 6.37414
53.3765 6.37115
53.4266 6.35462
53.4766 6.32422
53.5265 6.27942
53.5765 6.29565
53.6264 6.20841
53.6765 6.22632
53.7264 6.19592
53.7765 6.16724
53.8265 6.09459
53.8766 6.11355
53.9266 6.06661
53.9767 6.04388
54.0267 6.00667
54.0769 5.99651
54.1269 5.93542
54.1771 5.88848
54.2271 5.90815
54.2773 5.89342
54.3274 5.79824
54.3776 5.82858
54.4277 5.74582
54.478 5.75081
54.528 5.65331
54.5783 5.64069
54.6285 5.60962
54.6788 5.5847
54.7289 5.56881
54.7792 5.49051
54.8296 5.41871
54.8798 5.3612
54.9301 5.37741
54.9803 5.41795
55.0307 5.33052
55.0809 5.26797
55.1314 5.30836
55.1816 5.21469
55.232 5.13117
55.2823 5.14717
55.3328 5.08773
55.383 5.01252
55.4335 4.99308
55.4838 4.9143
55.5344 4.88265
55.5847 4.86424
55.6352 4.8227
55.6856 4.78394
55.7361 4.72791