File: XRD/Ni3Fe_FD0419.xy
TT I
1.27165 7.63479
1.31627 7.10112
1.36089 6.86316
1.40551 6.71823
1.45013 6.12175
1.49476 5.64662
1.53938 5.40397
1.584 5.5786
1.62863 4.94227
1.67325 5.42651
1.71787 5.3499
1.7625 5.22586
1.80712 5.35518
1.85174 4.94179
1.89636 4.50031
1.94099 5.11563
1.98562 5.20834
2.03025 4.6681
2.07487 4.25894
2.11949 4.84587
2.16411 4.34283
2.20874 18.1147
2.25338 31.0109
2.298 6.04996
2.34263 5.61862
2.38725 5.27224
2.43188 5.72411
2.4765 6.65672
2.52115 6.33476
2.56577 7.2074
2.6104 6.7195
2.65503 7.17399
2.69965 7.0276
2.7443 8.03404
2.78893 7.60386
2.83356 8.10064
2.87818 8.46342
2.92281 8.95948
2.96744 9.13403
3.01209 9.69553
3.05672 11.0751
3.10135 12.5212
3.14599 13.0433
3.19062 14.2801
3.23527 15.2508
3.2799 15.878
3.32454 17.2084
3.36917 18.2362
3.4138 19.2107
3.45844 20.2236
3.50309 21.5516
3.54773 22.3196
3.59237 25.3265
3.637 122.374
3.68164 74.2382
3.7263 27.2719
3.77094 26.5962
3.81558 27.8513
3.86022 27.962
3.90486 29.8404
3.9495 30.2458
3.99416 31.6253
4.0388 33.0689
4.08344 34.1332
4.12809 35.7843
4.17273 38.6271
4.21738 45.7802
4.26204 332.267
4.30669 292.425
4.35133 52.016
4.39598 46.0491
4.44063 58.2369
4.4853 74.1548
4.52995 52.1513
4.5746 52.5217
4.61925 54.1245
4.6639 56.4155
4.70855 58.7646
4.75322 61.9183
4.79788 64.4636
4.84253 68.1352
4.88719 72.6121
4.93184 75.9415
4.97652 81.6483
5.02118 88.8708
5.06583 96.6861
5.11049 109.841
5.15515 203.324
5.19981 423.848
5.24449 2867.5
5.28916 11431.4
5.33382 3562.9
5.37848 222.522
5.42315 138.009
5.46783 118.833
5.5125 109.277
5.55716 104.37
5.60183 100.803
5.6465 99.4762
5.69117 96.1971
5.73586 94.303
5.78053 93.8263
5.8252 93.6705
5.86988 94.2066
5.91455 97.3055
5.95924 106.164
6.00392 228.311
6.0486 994.927
6.09328 3823.54
6.13795 3515.26
6.18263 306.306
6.22733 100.551
6.27201 87.42
6.3167 115.89
6.36138 86.317
6.40606 71.5316
6.45075 68.8245
6.49545 67.2682
6.54014 65.7077
6.58483 64.9384
6.62952 64.8439
6.67421 108.194
6.71892 181.051
6.76361 73.8395
6.8083 60.4046
6.853 59.1656
6.89769 58.3397
6.94239 57.89
6.98711 57.0399
7.03181 56.8957
7.07651 56.6765
7.12121 56.9368
7.16591 57.2285
7.21063 57.8183
7.25533 77.6577
7.30004 234.799
7.34475 108.371
7.38945 58.7858
7.43416 56.3827
7.47889 55.8958
7.5236 56.4382
7.56831 56.936
7.61303 59.1662
7.65774 59.9812
7.70247 57.643
7.74719 57.5494
7.79191 58.1122
7.83663 58.1257
7.88135 59.0199
7.92607 60.0052
7.97081 60.8782
8.01553 62.1689
8.06026 63.3831
8.10498 65.4334
8.14971 77.9739
8.19446 75.9756
8.23919 71.0658
8.28392 73.4928
8.32865 75.4934
8.37339 79.948
8.41812 88.0162
8.46288 126.573
8.50761 176.341
8.55235 398.6
8.59709 1063.71
8.64183 2104.32
8.68658 1126.22
8.73134 192.542
8.77609 103.983
8.82083 95.3541
8.86558 92.381
8.91033 92.9361
8.9551 95.9233
8.99985 87.5671
9.04461 84.9174
9.08936 84.1989
9.13412 83.4952
9.17888 83.7577
9.22365 84.8578
9.26841 83.515
9.31318 84.2276
9.35794 84.0217
9.4027 84.4358
9.44749 85.4535
9.49226 86.0791
9.53703 87.0404
9.5818 88.8614
9.62657 95.2353
9.67134 104.088
9.71614 96.3059
9.76091 95.6614
9.80569 98.1029
9.85047 102.26
9.89525 134.641
9.94005 150.556
9.98484 185.239
10.0296 353.458
10.0744 743.391
10.1192 1574.24
10.164 1764.28
10.2088 508.562
10.2536 140.088
10.2984 119.209
10.3432 122.806
10.388 108.176
10.4328 121.9
10.4776 162.99
10.5224 262.365
10.5672 473.482
10.612 524.14
10.6568 230.328
10.7017 102.16
10.7465 89.3579
10.7913 85.2592
10.8361 83.4025
10.8809 80.9848
10.9257 80.7182
10.9706 82.1947
11.0154 76.8577
11.0602 74.8931
11.105 73.459
11.1499 80.4318
11.1947 91.1389
11.2395 78.7685
11.2844 73.5221
11.3292 68.9472
11.374 67.7197
11.4189 67.3594
11.4637 66.4399
11.5086 67.4758
11.5534 72.036
11.5983 67.8358
11.6431 65.0402
11.688 64.663
11.7328 64.323
11.7777 64.8302
11.8225 63.9226
11.8674 63.7686
11.9122 64.3246
11.9571 64.3133
12.002 64.851
12.0468 69.4878
12.0917 81.6391
12.1366 102.387
12.1814 141.77
12.2263 200.724
12.2712 184.919
12.3161 110.75
12.3609 75.1294
12.4058 66.7488
12.4507 66.0559
12.4956 66.1608
12.5405 66.4785
12.5853 67.2395
12.6302 78.0884
12.6751 85.5556
12.72 73.033
12.7649 69.5244
12.8098 69.8861
12.8547 71.1145
12.8996 72.3097
12.9445 73.7542
12.9894 75.6831
13.0343 77.1756
13.0792 80.4147
13.1242 90.2357
13.1691 116.148
13.214 149.566
13.2589 220.896
13.3038 336.118
13.3487 432.266
13.3937 299.247
13.4386 138.559
13.4835 109.517
13.5285 123.542
13.5734 156.022
13.6183 226.4
13.6633 328.286
13.7082 363.782
13.7531 216.683
13.7981 106.021
13.843 84.2973
13.888 81.5139
13.9329 78.9019
13.9779 77.5853
14.0228 75.7877
14.0678 74.5977
14.1127 74.1875
14.1577 74.591
14.2027 73.2542
14.2476 71.8939
14.2926 72.2817
14.3376 74.1804
14.3825 72.2522
14.4275 70.4544
14.4725 70.0962
14.5175 70.4392
14.5624 70.5338
14.6074 73.6022
14.6524 74.201
14.6974 72.2311
14.7424 73.4319
14.7874 80.6244
14.8324 90.9434
14.8774 109.367
14.9224 143.851
14.9674 194.013
15.0124 223.246
15.0574 164.852
15.1024 99.7266
15.1474 75.2004
15.1924 72.6096
15.2374 73.8202
15.2824 72.8804
15.3274 70.2218
15.3725 68.4031
15.4175 68.0108
15.4625 67.6167
15.5076 67.8333
15.5526 67.8304
15.5976 67.231
15.6426 68.4421
15.6877 73.9759
15.7327 81.7557
15.7778 94.7982
15.8228 119.532
15.8679 157.549
15.9129 193.401
15.958 171.314
16.003 107.211
16.0481 71.7932
16.0931 67.5447
16.1382 65.1287
16.1833 62.6157
16.2283 60.6019
16.2734 59.8411
16.3185 60.7383
16.3636 61.9444
16.4086 59.6977
16.4537 57.7356
16.4988 56.9468
16.5439 56.8407
16.589 56.4971
16.6341 56.1925
16.6792 56.0623
16.7243 56.3617
16.7694 56.5841
16.8145 56.0976
16.8596 56.7562
16.9047 58.9241
16.9498 59.1385
16.9949 57.4854
17.04 57.2094
17.0851 58.3707
17.1302 60.1329
17.1754 62.8374
17.2205 66.8474
17.2656 72.9294
17.3108 81.4683
17.3559 84.2813
17.401 74.8543
17.4462 64.5259
17.4913 60.6018
17.5365 60.5735
17.5815 60.5826
17.6268 60.9765
17.6718 61.968
17.7171 62.3703
17.7622 62.6058
17.8074 62.8935
17.8525 65.4393
17.8977 69.6295
17.9428 75.0387
17.9881 82.4905
18.0331 96.2396
18.0784 114.874
18.1237 136.748
18.1688 137.497
18.214 111.622
18.2591 89.2179
18.3044 89.0504
18.3495 97.6753
18.3948 107.786
18.4399 102.554
18.4852 82.9787
18.5303 68.8346
18.5756 63.9223
18.6207 62.9151
18.666 61.9403
18.7112 61.3312
18.7565 60.393
18.8016 60.0642
18.8469 59.431
18.892 59.0435
18.9374 58.5426
18.9825 58.4728
19.0278 58.4813
19.073 58.3616
19.1183 58.7849
19.1635 59.8599
19.2088 60.8965
19.254 63.0007
19.2993 66.3764
19.3447 72.3744
19.3898 77.857
19.4352 75.7513
19.4804 66.4056
19.5257 59.0393
19.5709 55.5976
19.6163 55.1452
19.6615 55.1179
19.7068 54.5164
19.752 54.4647
19.7974 54.9391
19.8426 55.6895
19.888 56.4879
19.9332 57.5791
19.9786 59.3574
20.0238 62.0677
20.0692 66.7549
20.1144 70.813
20.1598 70.5694
20.205 65.6228
20.2504 62.877
20.2957 63.7597
20.3411 66.2915
20.3863 66.2849
20.4318 61.3215
20.477 55.8937
20.5224 53.3392
20.5677 52.4811
20.6131 51.4352
20.6586 50.6323
20.7038 50.7307
20.7493 50.4209
20.7945 50.1132
20.84 49.9951
20.8853 49.7857
20.9307 49.7545
20.976 49.8427
21.0215 49.7414
21.0668 50.2571
21.1122 50.5043
21.1575 50.9831
21.203 51.656
21.2483 52.2918
21.2938 52.824
21.3391 51.4739
21.3846 50.2432
21.4299 49.4601
21.4754 49.563
21.5207 49.665
21.5662 49.737
21.6116 50.1829
21.6571 51.0279
21.7024 51.9213
21.7479 53.4694
21.7933 55.6401
21.8388 58.774
21.8843 62.4587
21.9297 65.4353
21.9752 65.4431
22.0206 61.8879
22.0661 57.8376
22.1115 56.8385
22.157 57.2189
22.2024 56.1709
22.248 53.2668
22.2933 51.2707
22.3389 50.4799
22.3843 50.2829
22.4299 50.3637
22.4753 50.1688
22.5208 49.7073
22.5662 49.6209
22.6118 49.7497
22.6572 49.9278
22.7028 50.3455
22.7483 50.906
22.7939 51.4039
22.8393 52.6093
22.8849 54.2985
22.9303 56.2252
22.9759 58.4564
23.0214 58.9798
23.067 56.761
23.1126 53.1141
23.1581 50.6418
23.2037 49.9873
23.2492 50.1021
23.2948 49.8856
23.3403 50.235
23.3859 50.7448
23.4314 51.5009
23.477 53.0419
23.5225 54.8686
23.5682 57.0126
23.6137 58.7344
23.6593 57.8411
23.7048 53.8356
23.7505 50.067
23.796 48.0216
23.8417 47.2789
23.8872 46.657
23.9329 46.2521
23.9784 46.0137
24.0241 45.7046
24.0697 45.5054
24.1154 45.2468
24.1609 45.1343
24.2066 44.9391
24.2522 44.8125
24.2979 44.5342
24.3434 44.4442
24.3892 44.3214
24.4349 44.1968
24.4805 43.8767
24.5262 44.1803
24.5718 43.8696
24.6175 43.8654
24.6631 43.9682
24.7089 43.5272
24.7545 43.3722
24.8002 43.1971
24.8458 43.2077
24.8916 42.8723
24.9372 43.203
24.983 43.441
25.0286 43.6943
25.0744 43.9507
25.12 44.4199
25.1658 45.1505
25.2114 45.6526
25.2572 45.6366
25.3029 45.7029
25.3487 45.7101
25.3943 45.7152
25.4402 44.7292
25.4858 43.7832
25.5316 42.4468
25.5773 41.9007
25.6231 41.8697
25.669 41.5718
25.7147 41.4518
25.7605 41.4808
25.8062 41.5318
25.8521 41.6088
25.8977 41.5488
25.9436 41.6954
25.9893 41.7913
26.0352 42.2225
26.0809 42.3751
26.1268 42.6055
26.1725 42.4672
26.2184 41.8124
26.2641 41.343
26.31 41.1069
26.3557 41.104
26.4017 41.0539
26.4474 41.4115
26.4933 41.5941
26.5391 42.0241
26.585 42.2844
26.6308 42.7778
26.6767 43.0766
26.7225 42.9452
26.7684 42.587
26.8142 41.8003
26.8601 41.4868
26.9059 41.0805
26.9519 40.4814
26.9979 40.2753
27.0437 39.8381
27.0896 39.6332
27.1354 39.5579
27.1814 39.4932
27.2272 39.4321
27.2732 39.4204
27.3191 39.0768
27.3651 39.3369
27.4109 39.2867
27.4569 39.2219
27.5027 39.3367
27.5488 39.405
27.5946 39.3024
27.6407 39.0345
27.6865 39.0422
27.7326 38.8328
27.7784 38.686
27.8245 38.6469
27.8703 38.7214
27.9164 38.9344
27.9623 39.103
28.0084 39.3262
28.0543 39.8665
28.1003 39.8512
28.1462 39.7174
28.1923 39.3642
28.2384 38.8369
28.2843 38.49
28.3304 38.1386
28.3764 37.6387
28.4225 37.155
28.4684 37.0549
28.5145 36.7933
28.5605 36.6934
28.6066 36.5993
28.6526 36.4353
28.6987 36.4795
28.7447 36.314
28.7908 36.1569
28.8368 36.2167
28.8829 36.2566
28.9289 36.2194
28.9751 36.0747
29.0211 35.7688
29.0673 35.4362
29.1133 35.3348
29.1595 35.2478
29.2055 34.9567
29.2517 35.103
29.2977 34.9939
29.3439 35.0726
29.3899 34.9959
29.4361 34.8949
29.4824 34.8573
29.5284 34.6641
29.5746 34.12
29.6207 33.8759
29.6669 33.8778
29.713 33.7536
29.7593 33.5484
29.8053 33.751
29.8516 33.5717
29.8977 33.5471
29.9439 33.2299
29.99 33.3149
30.0363 33.3019
30.0824 33.2396
30.1287 33.1491
30.1748 33.0748
30.2211 33.1339
30.2673 32.8836
30.3136 33.0805
30.3597 33.0261
30.406 32.9331
30.4522 32.7611
30.4985 32.7252
30.5447 32.9222
30.591 32.7869
30.6372 32.9109
30.6835 32.9564
30.7297 32.9191
30.7761 32.9245
30.8224 32.7438
30.8686 32.5804
30.915 32.3493
30.9612 32.2329
31.0076 32.0009
31.0538 31.8209
31.1002 31.8151
31.1464 31.6043
31.1928 31.6446
31.2391 31.6192
31.2855 31.5999
31.3317 31.4598
31.3781 31.6465
31.4244 31.4624
31.4708 31.5301
31.5171 31.4683
31.5636 31.4792
31.6098 31.3042
31.6563 31.0834
31.7026 30.9192
31.7491 30.7878
31.7953 30.9182
31.8418 30.7312
31.8881 30.7584
31.9346 30.7718
31.9809 30.7485
32.0275 30.5793
32.074 30.4616
32.1203 30.3498
32.1668 30.2602
32.2132 30.0803
32.2597 29.9122
32.306 29.9203
32.3526 29.6455
32.399 29.6236
32.4455 29.4731
32.4919 29.3866
32.5385 29.3089
32.5848 29.1284
32.6314 29.1951
32.6778 29.0242
32.7244 28.869
32.7708 28.8125
32.8174 28.7832
32.8638 28.6556
32.9104 28.7365
32.9569 28.7342
33.0035 28.4998
33.0499 28.4897
33.0966 28.4232
33.143 28.5014
33.1897 28.4047
33.2361 28.2966
33.2828 28.2286
33.3293 28.0141
33.3759 28.0212
33.4226 27.9052
33.4691 27.7326
33.5158 27.6701
33.5623 27.5376
33.609 27.3126
33.6555 27.2791
33.7022 27.2464
33.7487 27.1291
33.7954 27.0927
33.842 27.0092
33.8887 26.9402
33.9353 26.8861
33.982 26.7834
34.0286 26.6697
34.0753 26.6269
34.1219 26.5228
34.1687 26.4947
34.2152 26.3913
34.262 26.282
34.3086 26.1473
34.3554 26.1197
34.402 25.9045
34.4488 25.8704
34.4954 25.8994
34.5422 25.768
34.5889 25.618
34.6357 25.5496
34.6825 25.486
34.7292 25.3599
34.776 25.3002
34.8227 25.3228
34.8695 25.2539
34.9162 25.1245
34.9631 25.036
35.0098 25.0377
35.0566 24.9532
35.1033 24.8168
35.1502 24.7747
35.1969 24.6538
35.2438 24.7464
35.2906 24.6943
35.3375 24.5796
35.3842 24.5561
35.4311 24.4601
35.4779 24.5484
35.5248 24.4071
35.5716 24.2844
35.6185 24.2585
35.6653 24.1989
35.7123 24.0666
35.759 23.9537
35.806 23.8706
35.8528 23.8179
35.8998 23.6968
35.9468 23.5632
35.9936 23.5698
36.0406 23.5342
36.0874 23.5037
36.1345 23.3963
36.1813 23.3551
36.2283 23.1865
36.2752 23.2054
36.3222 23.1613
36.3691 23.0163
36.4161 22.9372
36.463 22.9526
36.5101 22.9627
36.557 22.859
36.6041 22.751
36.651 22.6144
36.6981 22.5919
36.745 22.5457
36.7921 22.4777
36.839 22.4019
36.8861 22.3247
36.9331 22.2605
36.9802 22.1561
37.0272 22.0599
37.0743 21.9927
37.1213 22.0008
37.1684 21.8666
37.2154 21.8472
37.2626 21.7211
37.3098 21.6392
37.3568 21.643
37.404 21.6023
37.451 21.4367
37.4982 21.4115
37.5452 21.2746
37.5924 21.2811
37.6395 21.3086
37.6867 21.1685
37.7337 21.0793
37.781 21.0091
37.8281 20.9286
37.8753 20.8617
37.9224 20.7592
37.9697 20.6683
38.0168 20.6966
38.064 20.6255
38.1111 20.6501
38.1584 20.5146
38.2056 20.4268
38.2529 20.3522
38.3 20.2597
38.3473 20.2477
38.3945 20.0683
38.4418 20.115
38.489 20.0956
38.5363 19.9549
38.5837 19.8917
38.6309 19.8465
38.6782 19.7538
38.7254 19.719
38.7728 19.6639
38.82 19.5144
38.8674 19.507
38.9146 19.5034
38.9621 19.3479
39.0093 19.3667
39.0567 19.2607
39.104 19.2207
39.1514 19.1389
39.1987 19.0885
39.2461 19.0726
39.2934 19.0218
39.3409 18.9231
39.3882 18.7888
39.4356 18.8114
39.483 18.7264
39.5304 18.6922
39.5778 18.6591
39.6253 18.5548
39.6726 18.5079
39.7201 18.4788
39.7675 18.3926
39.815 18.3131
39.8624 18.2498
39.9099 18.2455
39.9575 18.1591
40.0049 18.0568
40.0525 18.0008
40.0999 17.9603
40.1474 17.9397
40.1949 17.8886
40.2425 17.8037
40.2899 17.7505
40.3375 17.6688
40.385 17.6465
40.4326 17.5746
40.48 17.5364
40.5277 17.4834
40.5752 17.3869
40.6228 17.3464
40.6703 17.3191
40.718 17.1921
40.7655 17.2337
40.8132 17.1252
40.8607 17.095
40.9084 17.0993
40.9559 16.9521
41.0036 16.9428
41.0512 16.9171
41.0989 16.8663
41.1465 16.7148
41.1942 16.6909
41.242 16.5857
41.2896 16.5604
41.3373 16.5153
41.3849 16.4854
41.4327 16.4295
41.4803 16.3348
41.5281 16.3314
41.5758 16.2332
41.6236 16.2252
41.6712 16.1953
41.7191 16.1118
41.7667 16.0249
41.8146 15.9779
41.8622 15.9615
41.9101 15.837
41.9578 15.7789
42.0057 15.7901
42.0534 15.7214
42.1013 15.7017
42.149 15.6263
42.1969 15.5586
42.2446 15.5354
42.2925 15.4781
42.3403 15.4108
42.3882 15.4407
42.436 15.3281
42.4839 15.2595
42.5319 15.1867
42.5797 15.2011
42.6277 15.1429
42.6755 15.0233
42.7235 14.9827
42.7713 14.9524
42.8193 14.8809
42.8671 14.9167
42.9152 14.8015
42.963 14.7285
43.0111 14.6801
43.0589 14.6664
43.107 14.5487
43.1549 14.5633
43.2029 14.5116
43.2508 14.4264
43.2989 14.331
43.3468 14.3095
43.3949 14.2881
43.4429 14.1975
43.491 14.1722
43.5389 14.153
43.5871 14.1096
43.635 14.0238
43.6832 14.0411
43.7312 13.9308
43.7793 13.9049
43.8273 13.8286
43.8755 13.8044
43.9237 13.7821
43.9717 13.7327
44.0199 13.6448
44.068 13.6114
44.1162 13.5484
44.1642 13.5067
44.2125 13.5271
44.2606 13.4228
44.3088 13.3788
44.3569 13.3435
44.4052 13.3208
44.4533 13.2351
44.5016 13.2056
44.5497 13.1736
44.598 13.1345
44.6461 13.0386
44.6945 13.0009
44.7426 12.9857
44.791 12.8814
44.8391 12.9187
44.8875 12.8258
44.9357 12.8144
44.984 12.7703
45.0322 12.6546
45.0806 12.647
45.1288 12.6241
45.1773 12.5539
45.2257 12.492
45.2739 12.4731
45.3224 12.4143
45.3706 12.3914
45.4191 12.2886
45.4673 12.3072
45.5158 12.2668
45.5641 12.2303
45.6126 12.1973
45.6609 12.1358
45.7094 12.0615
45.7577 12.014
45.8063 11.9932
45.8546 11.9745
45.9031 11.9022
45.9515 11.8955
46.0001 11.7967
46.0484 11.7889
46.097 11.7377
46.1454 11.7029
46.194 11.6877
46.2424 11.5889
46.291 11.559
46.3395 11.4851
46.3881 11.4838
46.4365 11.4531
46.4852 11.4052
46.5337 11.387
46.5823 11.315
46.631 11.3093
46.6795 11.2731
46.7282 11.1995
46.7767 11.1484
46.8254 11.0968
46.8739 11.0378
46.9226 11.0569
46.9712 10.9683
47.0199 10.9838
47.0685 10.9091
47.1173 10.8496
47.1658 10.8146
47.2146 10.838
47.2632 10.713
47.312 10.7346
47.3606 10.6479
47.4095 10.591
47.4581 10.598
47.5069 10.578
47.5556 10.4876
47.6044 10.4407
47.6531 10.3978
47.702 10.3906
47.7507 10.3903
47.7996 10.2754
47.8483 10.2806
47.8972 10.2611
47.9461 10.2048
47.9948 10.1663
48.0438 10.1478
48.0925 10.1495
48.1415 10.065
48.1902 10.025
48.2392 9.99956
48.288 9.95985
48.337 9.92622
48.3858 9.86983
48.4348 9.85706
48.4837 9.85501
48.5327 9.77232
48.5815 9.75754
48.6306 9.71944
48.6795 9.686
48.7285 9.62204
48.7774 9.58853
48.8265 9.56215
48.8754 9.56114
48.9245 9.50896
48.9734 9.4901
49.0226 9.46928
49.0715 9.38677
49.1206 9.34646
49.1696 9.31034
49.2188 9.32123
49.2679 9.20895
49.3169 9.2269
49.3661 9.18109
49.4151 9.15522
49.4643 9.13485
49.5134 9.10603
49.5626 9.02899
49.6117 8.9676
49.6609 8.97384
49.71 8.92519
49.7592 8.8987
49.8083 8.85747
49.8576 8.83753
49.9067 8.80448
49.956 8.79015
50.0052 8.73537
50.0545 8.68263
50.1036 8.7068
50.153 8.63183
50.2022 8.60996
50.2515 8.58553
50.3007 8.49202
50.3501 8.49801
50.3993 8.45045
50.4487 8.42552
50.498 8.41196
50.5474 8.39029
50.5966 8.33313
50.6461 8.33216
50.6955 8.2689
50.7448 8.23608
50.7943 8.20713
50.8436 8.18607
50.8931 8.17196
50.9424 8.1231
50.9919 8.09707
51.0413 8.04169
51.0908 8.02034
51.1402 7.98744
51.1897 7.94813
51.2391 7.90001
51.2887 7.86612
51.3381 7.87327
51.3877 7.81248
51.4371 7.76287
51.4867 7.75822
51.5362 7.7442
51.5858 7.71145
51.6353 7.62219
51.6849 7.64932
51.7344 7.5876
51.7841 7.58582
51.8336 7.53848
51.8833 7.51554
51.9328 7.45496
51.9826 7.42411
52.0323 7.37626
52.0818 7.37243
52.1316 7.32947
52.1812 7.34645
52.231 7.27682
52.2806 7.24973
52.3304 7.25509
52.38 7.21464
52.4298 7.18311
52.4794 7.13905
52.5293 7.09036
52.5789 7.07531
52.6288 7.05444
52.6785 7.03954
52.7284 6.99774
52.7781 6.99423
52.828 6.93011
52.8777 6.88218
52.9276 6.87086
52.9774 6.84397
53.0273 6.84433
53.0771 6.80366
53.1271 6.7841
53.1769 6.69474
53.2269 6.70732
53.2767 6.65402
53.3267 6.64617
53.3765 6.61751
53.4266 6.6096
53.4766 6.57283
53.5265 6.50713
53.5765 6.53077
53.6264 6.46462
53.6765 6.46987
53.7264 6.40159
53.7765 6.4109
53.8265 6.37051
53.8766 6.32507
53.9266 6.32726
53.9767 6.26937
54.0267 6.24946
54.0769 6.23437
54.1269 6.17061
54.1771 6.11521
54.2271 6.11449
54.2773 6.08456
54.3274 6.05681
54.3776 6.03693
54.4277 5.98422
54.478 5.981
54.528 5.98029
54.5783 5.92882
54.6285 5.8572
54.6788 5.82339
54.7289 5.77618
54.7792 5.70061
54.8296 5.65872
54.8798 5.61738
54.9301 5.58347
54.9803 5.58944
55.0307 5.57812
55.0809 5.46914
55.1314 5.47182
55.1816 5.42862
55.232 5.37665
55.2823 5.36312
55.3328 5.2779
55.383 5.26075
55.4335 5.20581
55.4838 5.11947
55.5344 5.0814
55.5847 5.05144
55.6352 4.994
55.6856 4.98576
55.7361 4.84032