File: XRD/Ni3Fe_FD1030.xy
TT I
1.27165 7.09238
1.31627 6.64174
1.36089 6.34231
1.40551 5.49194
1.45013 5.71609
1.49476 5.26463
1.53938 6.14873
1.584 4.9695
1.62863 5.53188
1.67325 4.76716
1.71787 4.40561
1.7625 4.79891
1.80712 4.52578
1.85174 4.18472
1.89636 4.71444
1.94099 4.64856
1.98562 4.14692
2.03025 4.12045
2.07487 4.27681
2.11949 4.58151
2.16411 4.54034
2.20874 5.15208
2.25338 6.5506
2.298 4.73805
2.34263 4.97137
2.38725 5.92967
2.43188 6.2566
2.4765 7.0215
2.52115 7.7018
2.56577 7.46163
2.6104 8.85993
2.65503 7.65164
2.69965 8.25712
2.7443 8.4007
2.78893 8.84201
2.83356 8.89712
2.87818 8.81033
2.92281 9.44362
2.96744 9.92051
3.01209 10.5928
3.05672 10.5189
3.10135 11.9632
3.14599 12.9066
3.19062 14.2188
3.23527 14.802
3.2799 15.3833
3.32454 16.3385
3.36917 16.5236
3.4138 18.1753
3.45844 18.5918
3.50309 19.9264
3.54773 20.5102
3.59237 21.6065
3.637 27.7711
3.68164 27.1925
3.7263 23.8301
3.77094 24.2527
3.81558 25.4019
3.86022 26.1487
3.90486 27.4867
3.9495 28.4122
3.99416 29.0548
4.0388 30.4323
4.08344 31.5465
4.12809 32.6442
4.17273 33.8864
4.21738 35.3292
4.26204 52.6632
4.30669 56.9142
4.35133 40.5869
4.39598 41.3198
4.44063 43.1194
4.4853 46.5481
4.52995 46.6017
4.5746 48.0921
4.61925 50.0152
4.6639 52.3625
4.70855 55.1043
4.75322 57.7116
4.79788 60.5108
4.84253 63.5584
4.88719 67.4723
4.93184 71.0733
4.97652 76.6898
5.02118 82.7934
5.06583 88.9675
5.11049 97.1138
5.15515 117.522
5.19981 228.52
5.24449 2419.2
5.28916 13385.3
5.33382 3367.2
5.37848 222.941
5.42315 125.055
5.46783 108.142
5.5125 100.836
5.55716 96.9803
5.60183 92.8633
5.6465 90.9189
5.69117 89.7004
5.73586 87.5785
5.78053 86.5798
5.8252 86.0596
5.86988 86.395
5.91455 88.3384
5.95924 94.6208
6.00392 160.588
6.0486 861.984
6.09328 4485.26
6.13795 3528.59
6.18263 245.409
6.22733 87.108
6.27201 75.9678
6.3167 72.9964
6.36138 68.2846
6.40606 64.7268
6.45075 63.0675
6.49545 61.6934
6.54014 60.1066
6.58483 58.9368
6.62952 57.8344
6.67421 58.4963
6.71892 64.1977
6.76361 56.5719
6.8083 54.4309
6.853 53.7509
6.89769 53.1495
6.94239 53.3696
6.98711 52.3487
7.03181 51.7744
7.07651 52.1261
7.12121 51.5087
7.16591 51.4439
7.21063 51.1414
7.25533 51.8195
7.30004 61.9472
7.34475 56.0761
7.38945 51.7146
7.43416 51.2101
7.47889 51.6595
7.5236 60.4886
7.56831 78.0048
7.61303 57.857
7.65774 52.9601
7.70247 52.8245
7.74719 53.167
7.79191 53.4795
7.83663 53.8665
7.88135 54.5856
7.92607 55.1649
7.97081 56.5429
8.01553 57.3484
8.06026 58.6791
8.10498 60.0756
8.14971 62.2659
8.19446 63.6787
8.23919 65.2644
8.28392 68.0345
8.32865 70.1576
8.37339 73.6775
8.41812 77.8227
8.46288 86.1155
8.50761 126.438
8.55235 357.976
8.59709 1064.22
8.64183 2250.72
8.68658 1089.06
8.73134 177.198
8.77609 94.689
8.82083 87.9026
8.86558 85.0958
8.91033 83.1993
8.9551 82.0739
8.99985 80.6508
9.04461 80.0237
9.08936 78.9741
9.13412 78.8365
9.17888 79.4508
9.22365 94.7064
9.26841 121.155
9.31318 91.6573
9.35794 79.6441
9.4027 79.402
9.44749 80.1414
9.49226 80.4251
9.53703 81.5409
9.5818 82.7303
9.62657 84.2155
9.67134 85.8162
9.71614 87.3195
9.76091 88.8074
9.80569 91.138
9.85047 93.4183
9.89525 98.5464
9.94005 105.484
9.98484 144.869
10.0296 336.537
10.0744 750.577
10.1192 1742.17
10.164 1677.02
10.2088 447.609
10.2536 125.823
10.2984 102.719
10.3432 100.236
10.388 97.2068
10.4328 106.817
10.4776 156.899
10.5224 262.541
10.5672 502.381
10.612 535.865
10.6568 224.083
10.7017 106.285
10.7465 86.7893
10.7913 79.5311
10.8361 77.4305
10.8809 75.1539
10.9257 73.1323
10.9706 72.2831
11.0154 69.9609
11.0602 68.709
11.105 67.7089
11.1499 66.917
11.1947 67.0584
11.2395 65.3127
11.2844 64.4591
11.3292 63.3195
11.374 62.7516
11.4189 62.4855
11.4637 61.6008
11.5086 60.8118
11.5534 60.9768
11.5983 60.4219
11.6431 60.4764
11.688 59.7654
11.7328 59.5453
11.7777 59.2855
11.8225 59.373
11.8674 59.7755
11.9122 62.4312
11.9571 69.9456
12.002 67.6597
12.0468 64.2305
12.0917 75.7286
12.1366 97.4285
12.1814 145.721
12.2263 205.082
12.2712 174.254
12.3161 94.8683
12.3609 64.1146
12.4058 60.9253
12.4507 61.1666
12.4956 61.0009
12.5405 61.2322
12.5853 61.5869
12.6302 62.088
12.6751 63.7573
12.72 63.4507
12.7649 64.1702
12.8098 64.7251
12.8547 66.0395
12.8996 67.2871
12.9445 68.9052
12.9894 70.861
13.0343 72.2515
13.0792 76.0866
13.1242 82.1031
13.1691 105.929
13.214 144.123
13.2589 223.461
13.3038 361.93
13.3487 440.86
13.3937 281.839
13.4386 127.62
13.4835 98.1433
13.5285 117.996
13.5734 153.147
13.6183 233.216
13.6633 351.865
13.7082 363.134
13.7531 207.036
13.7981 100.793
13.843 79.1899
13.888 76.4034
13.9329 74.3075
13.9779 73.0902
14.0228 71.6408
14.0678 70.3855
14.1127 71.9656
14.1577 76.6406
14.2027 74.5213
14.2476 68.7449
14.2926 67.1162
14.3376 66.9297
14.3825 66.5769
14.4275 66.0581
14.4725 65.757
14.5175 65.914
14.5624 65.8375
14.6074 66.2889
14.6524 66.8183
14.6974 67.0891
14.7424 68.3432
14.7874 73.6448
14.8324 87.236
14.8774 107.564
14.9224 145.438
14.9674 206.894
15.0124 228.068
15.0574 160.648
15.1024 93.8884
15.1474 70.9059
15.1924 67.5303
15.2374 66.1733
15.2824 65.2485
15.3274 64.5856
15.3725 64.0032
15.4175 63.6606
15.4625 63.1379
15.5076 63.0713
15.5526 63.0802
15.5976 62.9959
15.6426 63.7642
15.6877 67.998
15.7327 78.4416
15.7778 92.3536
15.8228 120.491
15.8679 166.947
15.9129 200.078
15.958 166.999
16.003 102.778
16.0481 69.7254
16.0931 63.0936
16.1382 60.0338
16.1833 58.2181
16.2283 56.6022
16.2734 56.0623
16.3185 55.273
16.3636 54.8162
16.4086 54.0472
16.4537 53.618
16.4988 53.0633
16.5439 53.2596
16.589 52.8561
16.6341 52.6489
16.6792 52.2497
16.7243 52.5241
16.7694 52.4153
16.8145 52.2863
16.8596 52.7888
16.9047 53.3494
16.9498 54.2278
16.9949 53.8994
17.04 53.4134
17.0851 54.3142
17.1302 56.5592
17.1754 59.5324
17.2205 64.2659
17.2656 71.8976
17.3108 81.3796
17.3559 82.6194
17.401 71.7816
17.4462 60.9874
17.4913 57.3433
17.5365 56.7963
17.5815 56.8847
17.6268 57.3699
17.6718 57.9646
17.7171 58.5431
17.7622 59.9292
17.8074 60.6348
17.8525 61.6131
17.8977 65.6834
17.9428 72.3707
17.9881 80.8267
18.0331 96.337
18.0784 119.866
18.1237 141.22
18.1688 137.291
18.214 108.782
18.2591 87.3452
18.3044 87.9801
18.3495 98.4796
18.3948 106.859
18.4399 97.602
18.4852 78.9635
18.5303 65.3899
18.5756 61.0909
18.6207 59.8326
18.666 58.6173
18.7112 57.8144
18.7565 57.0117
18.8016 56.6602
18.8469 56.1288
18.892 55.9747
18.9374 55.4834
18.9825 54.9104
19.0278 54.7343
19.073 54.7355
19.1183 54.8333
19.1635 55.8327
19.2088 57.4613
19.254 60.0316
19.2993 65.2947
19.3447 71.7151
19.3898 75.9192
19.4352 72.3518
19.4804 63.1742
19.5257 55.877
19.5709 52.6422
19.6163 52.268
19.6615 51.8713
19.7068 51.6632
19.752 51.4585
19.7974 51.6675
19.8426 52.4125
19.888 53.4533
19.9332 54.7689
19.9786 56.9873
20.0238 60.3527
20.0692 66.2028
20.1144 70.032
20.1598 69.0716
20.205 63.498
20.2504 61.1626
20.2957 62.8538
20.3411 65.1863
20.3863 64.0596
20.4318 58.0403
20.477 52.6992
20.5224 49.6503
20.5677 48.9809
20.6131 48.533
20.6586 48.2522
20.7038 47.89
20.7493 48.0396
20.7945 47.9593
20.84 47.765
20.8853 47.2628
20.9307 47.0562
20.976 47.1318
21.0215 47.057
21.0668 47.5799
21.1122 47.8944
21.1575 48.4684
21.203 49.363
21.2483 50.1728
21.2938 50.2875
21.3391 48.9825
21.3846 47.5617
21.4299 47.0708
21.4754 47.1179
21.5207 47.2799
21.5662 47.2728
21.6116 47.4222
21.6571 48.6717
21.7024 49.7854
21.7479 51.4286
21.7933 53.616
21.8388 57.5565
21.8843 62.2198
21.9297 65.2683
21.9752 63.8114
22.0206 59.5823
22.0661 56.0803
22.1115 55.6157
22.157 55.8216
22.2024 54.1444
22.248 50.9123
22.2933 48.941
22.3389 47.833
22.3843 47.4638
22.4299 47.2755
22.4753 47.3358
22.5208 47.1336
22.5662 47.0472
22.6118 47.4271
22.6572 47.4105
22.7028 47.9463
22.7483 48.7896
22.7939 49.4822
22.8393 50.808
22.8849 52.9241
22.9303 55.4582
22.9759 57.4998
23.0214 57.3179
23.067 54.5881
23.1126 50.7816
23.1581 48.1608
23.2037 47.5873
23.2492 47.4755
23.2948 47.5585
23.3403 48.2894
23.3859 49.0002
23.4314 50.051
23.477 51.8192
23.5225 54.2013
23.5682 56.9904
23.6137 58.454
23.6593 56.1604
23.7048 51.9064
23.7505 47.9299
23.796 45.8166
23.8417 45.0325
23.8872 44.246
23.9329 43.9625
23.9784 43.7606
24.0241 43.5914
24.0697 43.3109
24.1154 42.9753
24.1609 42.8811
24.2066 42.5962
24.2522 42.6127
24.2979 42.1507
24.3434 42.0494
24.3892 41.8337
24.4349 41.9199
24.4805 41.7355
24.5262 41.8198
24.5718 41.9297
24.6175 41.9551
24.6631 41.7443
24.7089 41.3751
24.7545 41.1845
24.8002 41.0005
24.8458 40.9173
24.8916 40.9765
24.9372 41.0444
24.983 41.4326
25.0286 41.6183
25.0744 42.3532
25.12 42.95
25.1658 43.6956
25.2114 43.9925
25.2572 44.1441
25.3029 44.3155
25.3487 44.4643
25.3943 44.1774
25.4402 42.9991
25.4858 41.7887
25.5316 40.6203
25.5773 39.8968
25.6231 39.9685
25.669 39.4429
25.7147 39.4008
25.7605 39.436
25.8062 39.4069
25.8521 39.772
25.8977 39.562
25.9436 39.8153
25.9893 40.0749
26.0352 40.605
26.0809 40.7751
26.1268 41.1051
26.1725 40.7562
26.2184 40.0757
26.2641 39.5419
26.31 39.2094
26.3557 39.2204
26.4017 39.3258
26.4474 39.4551
26.4933 39.6871
26.5391 40.3142
26.585 40.9345
26.6308 41.4385
26.6767 41.7536
26.7225 41.5345
26.7684 40.9793
26.8142 40.3765
26.8601 39.9003
26.9059 39.3554
26.9519 38.8683
26.9979 38.5268
27.0437 38.1366
27.0896 37.8281
27.1354 37.8431
27.1814 37.6737
27.2272 37.6909
27.2732 37.6681
27.3191 37.416
27.3651 37.6131
27.4109 37.673
27.4569 37.6708
27.5027 37.8013
27.5488 37.7619
27.5946 37.7962
27.6407 37.4895
27.6865 37.4414
27.7326 37.1241
27.7784 37.1305
27.8245 37.0908
27.8703 37.0507
27.9164 37.5122
27.9623 37.6651
28.0084 38.1932
28.0543 38.6459
28.1003 38.7363
28.1462 38.3932
28.1923 37.9948
28.2384 37.5283
28.2843 37.1755
28.3304 36.6899
28.3764 36.0931
28.4225 35.7517
28.4684 35.5927
28.5145 35.1631
28.5605 35.1346
28.6066 35.0059
28.6526 34.8603
28.6987 34.8537
28.7447 34.6926
28.7908 34.5489
28.8368 34.7627
28.8829 34.6689
28.9289 34.5803
28.9751 34.4601
29.0211 34.1399
29.0673 33.9595
29.1133 33.8308
29.1595 33.6756
29.2055 33.518
29.2517 33.5481
29.2977 33.5821
29.3439 33.5741
29.3899 33.642
29.4361 33.5124
29.4824 33.2118
29.5284 33.0528
29.5746 32.701
29.6207 32.3021
29.6669 32.3163
29.713 32.2582
29.7593 32.0835
29.8053 32.0858
29.8516 32.0441
29.8977 32.017
29.9439 31.8075
29.99 31.8388
30.0363 31.7422
30.0824 31.7638
30.1287 31.7667
30.1748 31.7552
30.2211 31.6788
30.2673 31.583
30.3136 31.6946
30.3597 31.5552
30.406 31.5298
30.4522 31.4355
30.4985 31.3081
30.5447 31.4911
30.591 31.4648
30.6372 31.5551
30.6835 31.7383
30.7297 31.6605
30.7761 31.6341
30.8224 31.4941
30.8686 31.2754
30.915 31.0399
30.9612 30.9387
31.0076 30.7434
31.0538 30.5532
31.1002 30.5632
31.1464 30.3336
31.1928 30.303
31.2391 30.2713
31.2855 30.2265
31.3317 30.222
31.3781 30.3625
31.4244 30.2766
31.4708 30.3199
31.5171 30.2983
31.5636 30.2295
31.6098 29.8917
31.6563 29.7931
31.7026 29.6945
31.7491 29.6303
31.7953 29.5091
31.8418 29.6072
31.8881 29.542
31.9346 29.4705
31.9809 29.5172
32.0275 29.4506
32.074 29.311
32.1203 29.0383
32.1668 28.9808
32.2132 28.9026
32.2597 28.6116
32.306 28.5838
32.3526 28.3399
32.399 28.4266
32.4455 28.1875
32.4919 28.106
32.5385 28.0981
32.5848 27.8629
32.6314 27.8933
32.6778 27.8122
32.7244 27.6846
32.7708 27.551
32.8174 27.6165
32.8638 27.3677
32.9104 27.5877
32.9569 27.4283
33.0035 27.3338
33.0499 27.2949
33.0966 27.1879
33.143 27.2428
33.1897 27.1568
33.2361 27.0888
33.2828 27.067
33.3293 26.9308
33.3759 26.8377
33.4226 26.7487
33.4691 26.5804
33.5158 26.4902
33.5623 26.3189
33.609 26.2148
33.6555 26.1553
33.7022 26.0114
33.7487 25.9995
33.7954 25.9284
33.842 25.826
33.8887 25.7959
33.9353 25.7252
33.982 25.6769
34.0286 25.4901
34.0753 25.4607
34.1219 25.4189
34.1687 25.2899
34.2152 25.2186
34.262 25.1356
34.3086 25.0676
34.3554 24.9832
34.402 24.8268
34.4488 24.7926
34.4954 24.7181
34.5422 24.6452
34.5889 24.5439
34.6357 24.4811
34.6825 24.3913
34.7292 24.3316
34.776 24.209
34.8227 24.1611
34.8695 24.0766
34.9162 24.05
34.9631 23.9381
35.0098 23.9532
35.0566 23.8397
35.1033 23.8323
35.1502 23.7906
35.1969 23.7134
35.2438 23.5968
35.2906 23.5533
35.3375 23.6016
35.3842 23.5204
35.4311 23.5148
35.4779 23.5437
35.5248 23.3885
35.5716 23.3255
35.6185 23.3358
35.6653 23.2002
35.7123 23.0227
35.759 22.991
35.806 22.9088
35.8528 22.8459
35.8998 22.7639
35.9468 22.6462
35.9936 22.6659
36.0406 22.534
36.0874 22.6034
36.1345 22.4622
36.1813 22.3589
36.2283 22.1498
36.2752 22.2268
36.3222 22.2195
36.3691 22.1795
36.4161 22.0241
36.463 22.0009
36.5101 21.9972
36.557 21.9287
36.6041 21.7948
36.651 21.6778
36.6981 21.6445
36.745 21.6084
36.7921 21.5459
36.839 21.4006
36.8861 21.3134
36.9331 21.3222
36.9802 21.2426
37.0272 21.1006
37.0743 21.1177
37.1213 21.0765
37.1684 20.9601
37.2154 20.884
37.2626 20.7756
37.3098 20.7543
37.3568 20.7412
37.404 20.68
37.451 20.563
37.4982 20.5361
37.5452 20.4631
37.5924 20.388
37.6395 20.4479
37.6867 20.3209
37.7337 20.2174
37.781 20.1646
37.8281 20.128
37.8753 19.9724
37.9224 19.9036
37.9697 19.9038
38.0168 19.773
38.064 19.6982
38.1111 19.7242
38.1584 19.6206
38.2056 19.5304
38.2529 19.4636
38.3 19.4257
38.3473 19.3747
38.3945 19.3361
38.4418 19.2182
38.489 19.1847
38.5363 19.0555
38.5837 19.0606
38.6309 19.0136
38.6782 18.8795
38.7254 18.8565
38.7728 18.8381
38.82 18.7258
38.8674 18.6778
38.9146 18.6185
38.9621 18.5558
39.0093 18.4772
39.0567 18.5094
39.104 18.4413
39.1514 18.3304
39.1987 18.3091
39.2461 18.2615
39.2934 18.1714
39.3409 18.0688
39.3882 18.0053
39.4356 17.9802
39.483 17.9101
39.5304 17.9118
39.5778 17.8531
39.6253 17.7998
39.6726 17.7128
39.7201 17.6782
39.7675 17.607
39.815 17.5455
39.8624 17.4171
39.9099 17.4282
39.9575 17.3547
40.0049 17.3229
40.0525 17.2471
40.0999 17.2945
40.1474 17.167
40.1949 17.0882
40.2425 17.0214
40.2899 17.0288
40.3375 16.9442
40.385 16.9425
40.4326 16.8425
40.48 16.7498
40.5277 16.7544
40.5752 16.6802
40.6228 16.5984
40.6703 16.5413
40.718 16.4931
40.7655 16.5285
40.8132 16.4296
40.8607 16.4456
40.9084 16.3755
40.9559 16.2622
41.0036 16.2277
41.0512 16.1486
41.0989 16.1388
41.1465 16.0544
41.1942 16.0492
41.242 15.9432
41.2896 15.862
41.3373 15.8498
41.3849 15.8005
41.4327 15.7035
41.4803 15.6781
41.5281 15.6756
41.5758 15.603
41.6236 15.5362
41.6712 15.4729
41.7191 15.434
41.7667 15.3749
41.8146 15.3646
41.8622 15.303
41.9101 15.2259
41.9578 15.0785
42.0057 15.1865
42.0534 15.0284
42.1013 15.0611
42.149 14.9422
42.1969 14.8884
42.2446 14.8464
42.2925 14.8306
42.3403 14.8316
42.3882 14.7551
42.436 14.7107
42.4839 14.5613
42.5319 14.6096
42.5797 14.5226
42.6277 14.4848
42.6755 14.4494
42.7235 14.361
42.7713 14.3634
42.8193 14.2821
42.8671 14.2126
42.9152 14.1689
42.963 14.16
43.0111 14.0957
43.0589 14.024
43.107 14.004
43.1549 13.8965
43.2029 13.8483
43.2508 13.8634
43.2989 13.7611
43.3468 13.753
43.3949 13.6794
43.4429 13.6482
43.491 13.5644
43.5389 13.5869
43.5871 13.4604
43.635 13.4256
43.6832 13.4056
43.7312 13.343
43.7793 13.3165
43.8273 13.2754
43.8755 13.2228
43.9237 13.2143
43.9717 13.1395
44.0199 13.0872
44.068 13.1128
44.1162 13.0245
44.1642 12.9655
44.2125 12.9389
44.2606 12.8793
44.3088 12.8231
44.3569 12.7545
44.4052 12.7683
44.4533 12.697
44.5016 12.6339
44.5497 12.5711
44.598 12.5699
44.6461 12.5038
44.6945 12.4987
44.7426 12.4262
44.791 12.3802
44.8391 12.3768
44.8875 12.2697
44.9357 12.2631
44.984 12.2339
45.0322 12.1458
45.0806 12.1027
45.1288 12.0656
45.1773 12.0651
45.2257 12.0176
45.2739 11.9397
45.3224 11.934
45.3706 11.8383
45.4191 11.8226
45.4673 11.7718
45.5158 11.7271
45.5641 11.7153
45.6126 11.601
45.6609 11.6068
45.7094 11.5886
45.7577 11.5323
45.8063 11.4948
45.8546 11.4442
45.9031 11.3815
45.9515 11.3697
46.0001 11.3224
46.0484 11.3004
46.097 11.2887
46.1454 11.2274
46.194 11.2452
46.2424 11.1376
46.291 11.0829
46.3395 11.0635
46.3881 11.0153
46.4365 10.9961
46.4852 10.9167
46.5337 10.8715
46.5823 10.8258
46.631 10.7836
46.6795 10.7095
46.7282 10.6989
46.7767 10.727
46.8254 10.6488
46.8739 10.5754
46.9226 10.5902
46.9712 10.5355
47.0199 10.4877
47.0685 10.4496
47.1173 10.4098
47.1658 10.3623
47.2146 10.3417
47.2632 10.306
47.312 10.2551
47.3606 10.2212
47.4095 10.1953
47.4581 10.1695
47.5069 10.0761
47.5556 10.0611
47.6044 10.036
47.6531 9.99726
47.702 9.9301
47.7507 9.96192
47.7996 9.87072
47.8483 9.86962
47.8972 9.8102
47.9461 9.74288
47.9948 9.77631
48.0438 9.70961
48.0925 9.70374
48.1415 9.66066
48.1902 9.59223
48.2392 9.63842
48.288 9.52228
48.337 9.49035
48.3858 9.47907
48.4348 9.43659
48.4837 9.46867
48.5327 9.39243
48.5815 9.33822
48.6306 9.315
48.6795 9.26635
48.7285 9.22653
48.7774 9.20439
48.8265 9.14316
48.8754 9.11214
48.9245 9.08538
48.9734 9.04835
49.0226 9.05937
49.0715 9.00662
49.1206 8.95194
49.1696 8.9132
49.2188 8.91438
49.2679 8.8572
49.3169 8.82042
49.3661 8.74924
49.4151 8.7621
49.4643 8.71442
49.5134 8.70265
49.5626 8.63518
49.6117 8.59416
49.6609 8.59834
49.71 8.54335
49.7592 8.50192
49.8083 8.50663
49.8576 8.49776
49.9067 8.40827
49.956 8.39634
50.0052 8.37005
50.0545 8.33236
50.1036 8.30996
50.153 8.2473
50.2022 8.19989
50.2515 8.18333
50.3007 8.16312
50.3501 8.14798
50.3993 8.10781
50.4487 8.06886
50.498 8.08434
50.5474 8.04107
50.5966 7.96717
50.6461 7.95588
50.6955 7.9643
50.7448 7.93209
50.7943 7.87216
50.8436 7.87388
50.8931 7.81713
50.9424 7.78861
50.9919 7.7621
51.0413 7.67678
51.0908 7.68494
51.1402 7.66102
51.1897 7.61776
51.2391 7.57764
51.2887 7.56033
51.3381 7.50614
51.3877 7.49952
51.4371 7.43884
51.4867 7.44744
51.5362 7.38366
51.5858 7.39985
51.6353 7.31031
51.6849 7.31703
51.7344 7.29588
51.7841 7.24374
51.8336 7.18924
51.8833 7.17623
51.9328 7.12856
51.9826 7.12891
52.0323 7.07836
52.0818 7.03011
52.1316 7.04426
52.1812 7.02477
52.231 6.9584
52.2806 6.9442
52.3304 6.93241
52.38 6.88367
52.4298 6.85188
52.4794 6.86518
52.5293 6.80622
52.5789 6.80013
52.6288 6.81181
52.6785 6.73312
52.7284 6.72812
52.7781 6.68873
52.828 6.63764
52.8777 6.60201
52.9276 6.56606
52.9774 6.57669
53.0273 6.51548
53.0771 6.49183
53.1271 6.47975
53.1769 6.46713
53.2269 6.43401
53.2767 6.35576
53.3267 6.37669
53.3765 6.34385
53.4266 6.33411
53.4766 6.27734
53.5265 6.26799
53.5765 6.25662
53.6264 6.21952
53.6765 6.16457
53.7264 6.15937
53.7765 6.17634
53.8265 6.11531
53.8766 6.04877
53.9266 6.02796
53.9767 6.06025
54.0267 6.02194
54.0769 5.94607
54.1269 5.92146
54.1771 5.87498
54.2271 5.87138
54.2773 5.85171
54.3274 5.8357
54.3776 5.80352
54.4277 5.77054
54.478 5.7708
54.528 5.70128
54.5783 5.70155
54.6285 5.62822
54.6788 5.60273
54.7289 5.56717
54.7792 5.4881
54.8296 5.43268
54.8798 5.4143
54.9301 5.34622
54.9803 5.38278
55.0307 5.30007
55.0809 5.27273
55.1314 5.27959
55.1816 5.16291
55.232 5.1669
55.2823 5.06719
55.3328 5.06033
55.383 4.96475
55.4335 4.96915
55.4838 4.92939
55.5344 4.84594
55.5847 4.83536
55.6352 4.80103
55.6856 4.75813
55.7361 4.77112