File: XRD/Ni3Fe_FD0881.xy
TT I
1.27165 7.40847
1.31627 6.31891
1.36089 7.10516
1.40551 6.05818
1.45013 6.49697
1.49476 5.81171
1.53938 5.41518
1.584 5.10858
1.62863 5.27116
1.67325 4.95073
1.71787 5.132
1.7625 4.28527
1.80712 4.92339
1.85174 4.5935
1.89636 4.59729
1.94099 5.04817
1.98562 5.17536
2.03025 4.90389
2.07487 4.35033
2.11949 5.04834
2.16411 5.54992
2.20874 16.343
2.25338 27.4673
2.298 6.78948
2.34263 5.63858
2.38725 6.14379
2.43188 6.03446
2.4765 6.86872
2.52115 7.56221
2.56577 7.4349
2.6104 8.50129
2.65503 8.21122
2.69965 8.16363
2.7443 8.52618
2.78893 8.24434
2.83356 7.98767
2.87818 9.04792
2.92281 8.93497
2.96744 9.43022
3.01209 10.4845
3.05672 10.9082
3.10135 12.9084
3.14599 13.5837
3.19062 14.7525
3.23527 15.3855
3.2799 15.8244
3.32454 16.8093
3.36917 17.8601
3.4138 19.327
3.45844 19.5493
3.50309 21.1452
3.54773 21.9266
3.59237 24.3265
3.637 109.381
3.68164 67.7313
3.7263 26.4792
3.77094 26.0592
3.81558 27.0944
3.86022 27.5544
3.90486 29.2599
3.9495 29.8105
3.99416 30.9655
4.0388 32.0491
4.08344 33.3898
4.12809 34.7594
4.17273 37.6105
4.21738 43.6585
4.26204 296.225
4.30669 264.602
4.35133 49.9072
4.39598 44.6373
4.44063 55.307
4.4853 69.7576
4.52995 50.2282
4.5746 50.8081
4.61925 52.8732
4.6639 54.8474
4.70855 57.499
4.75322 59.9535
4.79788 63.2737
4.84253 66.0451
4.88719 70.1577
4.93184 73.6765
4.97652 78.7427
5.02118 84.4565
5.06583 91.0896
5.11049 101.413
5.15515 175.578
5.19981 288.495
5.24449 2337.1
5.28916 12978.0
5.33382 2920.02
5.37848 180.934
5.42315 125.891
5.46783 111.364
5.5125 103.84
5.55716 100.007
5.60183 97.3326
5.6465 95.6403
5.69117 92.5317
5.73586 90.5576
5.78053 89.5191
5.8252 89.3917
5.86988 89.6981
5.91455 91.3035
5.95924 96.5364
6.00392 169.373
6.0486 807.974
6.09328 4336.23
6.13795 3229.19
6.18263 234.724
6.22733 90.9332
6.27201 81.6597
6.3167 107.144
6.36138 82.1585
6.40606 68.5248
6.45075 66.7893
6.49545 64.84
6.54014 63.2549
6.58483 62.3829
6.62952 62.7629
6.67421 100.8
6.71892 163.235
6.76361 71.067
6.8083 58.0614
6.853 57.1939
6.89769 56.2406
6.94239 56.3153
6.98711 55.6177
7.03181 55.5196
7.07651 55.1047
7.12121 54.8606
7.16591 55.5376
7.21063 55.9929
7.25533 73.7267
7.30004 208.702
7.34475 100.219
7.38945 56.8839
7.43416 54.3951
7.47889 54.1314
7.5236 54.6478
7.56831 55.2556
7.61303 56.8718
7.65774 57.6481
7.70247 55.7998
7.74719 56.009
7.79191 56.4184
7.83663 56.4113
7.88135 57.1769
7.92607 58.2913
7.97081 59.1551
8.01553 60.1536
8.06026 61.5137
8.10498 63.4288
8.14971 74.2771
8.19446 73.148
8.23919 68.6053
8.28392 70.5408
8.32865 73.1885
8.37339 76.9118
8.41812 84.1028
8.46288 116.134
8.50761 143.442
8.55235 319.37
8.59709 1084.6
8.64183 2254.67
8.68658 977.935
8.73134 167.877
8.77609 97.7691
8.82083 91.0552
8.86558 88.3236
8.91033 89.357
8.9551 92.5333
8.99985 84.6521
9.04461 82.2052
9.08936 81.5181
9.13412 81.064
9.17888 81.1872
9.22365 82.4908
9.26841 81.112
9.31318 80.8309
9.35794 81.2266
9.4027 82.1637
9.44749 82.8344
9.49226 83.2518
9.53703 83.9187
9.5818 86.1991
9.62657 91.3427
9.67134 99.6636
9.71614 92.99
9.76091 92.4958
9.80569 94.9297
9.85047 97.8567
9.89525 126.584
9.94005 139.085
9.98484 154.947
10.0296 292.663
10.0744 732.218
10.1192 1728.1
10.164 1622.45
10.2088 404.085
10.2536 124.797
10.2984 112.801
10.3432 115.794
10.388 103.195
10.4328 111.468
10.4776 146.373
10.5224 263.582
10.5672 512.291
10.612 510.299
10.6568 200.47
10.7017 95.4461
10.7465 85.4754
10.7913 82.1808
10.8361 80.0875
10.8809 78.2862
10.9257 77.8471
10.9706 78.9529
11.0154 74.1237
11.0602 72.0024
11.105 71.3214
11.1499 76.7581
11.1947 86.4185
11.2395 75.4993
11.2844 70.2309
11.3292 66.5859
11.374 65.5528
11.4189 64.981
11.4637 64.4828
11.5086 65.0775
11.5534 68.6971
11.5983 65.4519
11.6431 62.8884
11.688 62.5209
11.7328 62.1427
11.7777 62.3766
11.8225 61.8737
11.8674 61.8384
11.9122 62.101
11.9571 62.2152
12.002 62.4053
12.0468 65.5411
12.0917 75.2083
12.1366 97.1431
12.1814 149.708
12.2263 208.404
12.2712 170.34
12.3161 98.385
12.3609 71.3556
12.4058 64.1492
12.4507 63.6937
12.4956 63.6638
12.5405 63.8729
12.5853 64.9719
12.6302 74.3193
12.6751 81.4569
12.72 70.1105
12.7649 67.1262
12.8098 67.1494
12.8547 68.8042
12.8996 69.9658
12.9445 71.0114
12.9894 72.9221
13.0343 74.6248
13.0792 77.3017
13.1242 83.8811
13.1691 104.151
13.214 136.571
13.2589 222.279
13.3038 371.523
13.3487 430.461
13.3937 263.109
13.4386 123.546
13.4835 100.135
13.5285 112.406
13.5734 147.435
13.6183 238.999
13.6633 352.771
13.7082 348.855
13.7531 184.974
13.7981 96.1243
13.843 80.8213
13.888 78.4903
13.9329 75.973
13.9779 74.6499
14.0228 73.2752
14.0678 71.8301
14.1127 71.5702
14.1577 71.7606
14.2027 70.8237
14.2476 69.5227
14.2926 69.8159
14.3376 71.1106
14.3825 69.6992
14.4275 67.9464
14.4725 67.5269
14.5175 67.8182
14.5624 68.1063
14.6074 70.7096
14.6524 71.2621
14.6974 69.4269
14.7424 70.1206
14.7874 74.9962
14.8324 83.9759
14.8774 104.123
14.9224 148.31
14.9674 210.294
15.0124 217.795
15.0574 147.405
15.1024 89.5334
15.1474 71.5073
15.1924 69.6198
15.2374 70.9101
15.2824 69.976
15.3274 67.5852
15.3725 66.12
15.4175 65.3451
15.4625 65.1463
15.5076 65.5838
15.5526 65.517
15.5976 64.6203
15.6426 65.2104
15.6877 69.2224
15.7327 75.6038
15.7778 89.521
15.8228 120.766
15.8679 168.341
15.9129 195.327
15.958 156.417
16.003 94.9514
16.0481 67.309
16.0931 64.3711
16.1382 62.3123
16.1833 60.026
16.2283 58.3068
16.2734 57.7733
16.3185 58.3047
16.3636 59.2662
16.4086 57.6192
16.4537 55.6509
16.4988 54.8986
16.5439 54.8091
16.589 54.5114
16.6341 54.1305
16.6792 53.9532
16.7243 54.1618
16.7694 54.4203
16.8145 54.0992
16.8596 54.6248
16.9047 56.4713
16.9498 56.7015
16.9949 55.2809
17.04 54.9033
17.0851 55.7458
17.1302 57.377
17.1754 60.3823
17.2205 64.8815
17.2656 72.7167
17.3108 82.3396
17.3559 81.3182
17.401 69.6232
17.4462 60.8614
17.4913 58.2588
17.5365 58.4716
17.5815 58.3841
17.6268 58.7857
17.6718 59.5078
17.7171 60.0541
17.7622 60.4144
17.8074 60.6345
17.8525 62.1322
17.8977 65.9255
17.9428 70.7426
17.9881 78.7272
18.0331 95.8422
18.0784 119.522
18.1237 138.017
18.1688 129.524
18.214 101.484
18.2591 84.4338
18.3044 88.6577
18.3495 99.8713
18.3948 105.394
18.4399 95.5385
18.4852 76.3684
18.5303 65.377
18.5756 61.2671
18.6207 60.5625
18.666 59.5539
18.7112 59.0637
18.7565 58.0474
18.8016 57.7571
18.8469 57.2922
18.892 56.7366
18.9374 56.6239
18.9825 56.3248
19.0278 56.2347
19.073 56.0771
19.1183 56.5482
19.1635 57.1388
19.2088 58.3014
19.254 60.7123
19.2993 65.1508
19.3447 71.906
19.3898 76.4144
19.4352 71.7618
19.4804 62.526
19.5257 56.109
19.5709 53.6145
19.6163 53.2001
19.6615 52.8915
19.7068 52.629
19.752 52.6425
19.7974 52.8183
19.8426 53.4628
19.888 54.1191
19.9332 55.0767
19.9786 57.5045
20.0238 60.8563
20.0692 66.1988
20.1144 69.5883
20.1598 67.427
20.205 62.2547
20.2504 61.0455
20.2957 63.3415
20.3411 65.3077
20.3863 63.6298
20.4318 57.9146
20.477 53.2787
20.5224 51.3346
20.5677 50.5017
20.6131 49.7763
20.6586 49.173
20.7038 48.934
20.7493 48.6251
20.7945 48.4655
20.84 48.1787
20.8853 48.2262
20.9307 47.7319
20.976 48.0103
21.0215 47.8943
21.0668 48.3982
21.1122 48.7249
21.1575 49.4629
21.203 50.2804
21.2483 50.8812
21.2938 50.9219
21.3391 49.3344
21.3846 48.4119
21.4299 47.8638
21.4754 47.6407
21.5207 47.6559
21.5662 48.1782
21.6116 48.4238
21.6571 49.0261
21.7024 49.8468
21.7479 51.4887
21.7933 54.1661
21.8388 57.7549
21.8843 62.0042
21.9297 64.1361
21.9752 62.5921
22.0206 58.6014
22.0661 56.0283
22.1115 55.5669
22.157 55.3724
22.2024 53.5915
22.248 50.747
22.2933 49.2117
22.3389 48.4285
22.3843 48.5973
22.4299 48.3404
22.4753 48.4192
22.5208 48.0523
22.5662 47.9274
22.6118 48.0173
22.6572 48.1238
22.7028 48.2253
22.7483 48.7106
22.7939 49.457
22.8393 50.8341
22.8849 53.0924
22.9303 55.4104
22.9759 57.3747
23.0214 56.9331
23.067 53.9558
23.1126 50.4658
23.1581 48.541
23.2037 48.218
23.2492 48.0885
23.2948 48.0415
23.3403 48.3207
23.3859 48.9254
23.4314 49.7731
23.477 51.6255
23.5225 53.9096
23.5682 56.4119
23.6137 57.4332
23.6593 55.2857
23.7048 51.163
23.7505 47.8137
23.796 46.1077
23.8417 45.4863
23.8872 45.0205
23.9329 44.5105
23.9784 44.3051
24.0241 44.1374
24.0697 43.9614
24.1154 43.6651
24.1609 43.4774
24.2066 43.2552
24.2522 43.1894
24.2979 42.8179
24.3434 42.8752
24.3892 42.6545
24.4349 42.5817
24.4805 42.3621
24.5262 42.5416
24.5718 42.5688
24.6175 42.3835
24.6631 42.4004
24.7089 42.0448
24.7545 41.9853
24.8002 41.6803
24.8458 41.7422
24.8916 41.5658
24.9372 41.6806
24.983 41.8949
25.0286 42.2001
25.0744 42.6425
25.12 43.2546
25.1658 43.7875
25.2114 44.0549
25.2572 44.2478
25.3029 44.3887
25.3487 44.478
25.3943 44.1718
25.4402 42.9616
25.4858 41.8777
25.5316 40.9276
25.5773 40.3986
25.6231 40.3637
25.669 40.1069
25.7147 40.0426
25.7605 39.8694
25.8062 39.9952
25.8521 40.0747
25.8977 40.1321
25.9436 40.2674
25.9893 40.3741
26.0352 41.0889
26.0809 41.1919
26.1268 41.0737
26.1725 40.7592
26.2184 40.2526
26.2641 39.7084
26.31 39.4319
26.3557 39.5186
26.4017 39.5964
26.4474 39.8289
26.4933 40.1283
26.5391 40.6841
26.585 41.1406
26.6308 41.5729
26.6767 41.684
26.7225 41.4891
26.7684 40.8512
26.8142 40.4154
26.8601 40.0198
26.9059 39.6754
26.9519 39.0429
26.9979 38.6673
27.0437 38.4097
27.0896 38.2455
27.1354 38.1575
27.1814 38.0299
27.2272 37.9967
27.2732 38.0607
27.3191 37.8272
27.3651 37.9663
27.4109 37.9446
27.4569 37.9093
27.5027 38.0414
27.5488 38.0678
27.5946 37.9753
27.6407 37.6922
27.6865 37.4827
27.7326 37.3735
27.7784 37.2851
27.8245 37.1448
27.8703 37.4277
27.9164 37.742
27.9623 37.8023
28.0084 38.2025
28.0543 38.6205
28.1003 38.587
28.1462 38.2433
28.1923 38.0253
28.2384 37.5862
28.2843 37.1799
28.3304 36.7609
28.3764 36.2324
28.4225 35.9098
28.4684 35.7675
28.5145 35.4885
28.5605 35.2927
28.6066 35.2304
28.6526 35.2545
28.6987 35.2274
28.7447 35.1208
28.7908 35.0089
28.8368 35.1559
28.8829 34.9977
28.9289 34.8696
28.9751 34.738
29.0211 34.4804
29.0673 34.2045
29.1133 34.2846
29.1595 33.8892
29.2055 34.0167
29.2517 33.9233
29.2977 33.9284
29.3439 33.7922
29.3899 33.8965
29.4361 33.8816
29.4824 33.5383
29.5284 33.4757
29.5746 33.0505
29.6207 32.706
29.6669 32.759
29.713 32.6197
29.7593 32.3917
29.8053 32.5504
29.8516 32.4278
29.8977 32.3887
29.9439 32.3486
29.99 32.1787
30.0363 32.1538
30.0824 32.1466
30.1287 31.9669
30.1748 32.0993
30.2211 32.1233
30.2673 31.8916
30.3136 32.0851
30.3597 31.8081
30.406 31.7918
30.4522 31.7093
30.4985 31.5763
30.5447 31.7484
30.591 31.8135
30.6372 31.8006
30.6835 31.8274
30.7297 31.8785
30.7761 31.7671
30.8224 31.6146
30.8686 31.5048
30.915 31.2869
30.9612 31.0539
31.0076 30.9092
31.0538 30.7675
31.1002 30.7735
31.1464 30.6187
31.1928 30.5202
31.2391 30.5808
31.2855 30.5206
31.3317 30.4492
31.3781 30.5805
31.4244 30.4968
31.4708 30.5094
31.5171 30.4149
31.5636 30.2733
31.6098 30.0963
31.6563 30.014
31.7026 29.8759
31.7491 29.7012
31.7953 29.7524
31.8418 29.6841
31.8881 29.7387
31.9346 29.6241
31.9809 29.7442
32.0275 29.4958
32.074 29.4831
32.1203 29.2379
32.1668 29.0816
32.2132 29.0229
32.2597 28.8262
32.306 28.835
32.3526 28.6999
32.399 28.5719
32.4455 28.3997
32.4919 28.2749
32.5385 28.3355
32.5848 28.0948
32.6314 28.1611
32.6778 28.1089
32.7244 27.9789
32.7708 27.7706
32.8174 27.8311
32.8638 27.6475
32.9104 27.6563
32.9569 27.6264
33.0035 27.5167
33.0499 27.4728
33.0966 27.5497
33.143 27.4776
33.1897 27.3824
33.2361 27.2914
33.2828 27.1966
33.3293 27.0305
33.3759 27.1371
33.4226 26.9517
33.4691 26.8536
33.5158 26.6592
33.5623 26.6268
33.609 26.4028
33.6555 26.3395
33.7022 26.3032
33.7487 26.2055
33.7954 26.1853
33.842 26.2
33.8887 25.9059
33.9353 25.9305
33.982 25.7992
34.0286 25.7317
34.0753 25.6255
34.1219 25.5539
34.1687 25.4866
34.2152 25.4409
34.262 25.2712
34.3086 25.2911
34.3554 25.31
34.402 25.0769
34.4488 24.9768
34.4954 24.9601
34.5422 24.8512
34.5889 24.7738
34.6357 24.6774
34.6825 24.6487
34.7292 24.5737
34.776 24.4012
34.8227 24.4283
34.8695 24.3521
34.9162 24.2509
34.9631 24.2004
35.0098 24.2325
35.0566 24.1402
35.1033 23.9471
35.1502 23.9914
35.1969 23.9869
35.2438 23.8276
35.2906 23.8109
35.3375 23.7924
35.3842 23.7244
35.4311 23.7495
35.4779 23.6931
35.5248 23.5799
35.5716 23.514
35.6185 23.4365
35.6653 23.2913
35.7123 23.2005
35.759 23.2059
35.806 23.0992
35.8528 22.9628
35.8998 22.978
35.9468 22.8134
35.9936 22.7868
36.0406 22.7167
36.0874 22.7139
36.1345 22.6449
36.1813 22.6024
36.2283 22.4741
36.2752 22.3689
36.3222 22.3624
36.3691 22.2718
36.4161 22.1839
36.463 22.1786
36.5101 22.1783
36.557 22.002
36.6041 21.9436
36.651 21.9579
36.6981 21.8594
36.745 21.7957
36.7921 21.7158
36.839 21.6289
36.8861 21.5114
36.9331 21.4892
36.9802 21.4718
37.0272 21.2921
37.0743 21.152
37.1213 21.2751
37.1684 21.21
37.2154 21.0894
37.2626 21.0239
37.3098 20.9456
37.3568 20.8775
37.404 20.878
37.451 20.7485
37.4982 20.7754
37.5452 20.6323
37.5924 20.5796
37.6395 20.5274
37.6867 20.4805
37.7337 20.4276
37.781 20.296
37.8281 20.1993
37.8753 20.1991
37.9224 20.0868
37.9697 20.05
38.0168 19.9586
38.064 19.8785
38.1111 19.8596
38.1584 19.7447
38.2056 19.7108
38.2529 19.6052
38.3 19.6198
38.3473 19.5303
38.3945 19.439
38.4418 19.4207
38.489 19.3616
38.5363 19.2575
38.5837 19.1941
38.6309 19.226
38.6782 19.1158
38.7254 18.998
38.7728 19.0026
38.82 18.9286
38.8674 18.8841
38.9146 18.8252
38.9621 18.6833
39.0093 18.7069
39.0567 18.6132
39.104 18.5984
39.1514 18.384
39.1987 18.4502
39.2461 18.454
39.2934 18.3334
39.3409 18.1957
39.3882 18.2087
39.4356 18.1468
39.483 18.1292
39.5304 18.0186
39.5778 18.0146
39.6253 17.9608
39.6726 17.8639
39.7201 17.9298
39.7675 17.8067
39.815 17.7395
39.8624 17.6893
39.9099 17.6618
39.9575 17.5761
40.0049 17.5021
40.0525 17.4031
40.0999 17.3531
40.1474 17.3379
40.1949 17.2705
40.2425 17.1748
40.2899 17.1435
40.3375 17.0771
40.385 17.0122
40.4326 16.9273
40.48 16.8866
40.5277 16.925
40.5752 16.8705
40.6228 16.6985
40.6703 16.7195
40.718 16.6879
40.7655 16.6311
40.8132 16.5951
40.8607 16.5471
40.9084 16.4697
40.9559 16.4303
41.0036 16.3427
41.0512 16.2755
41.0989 16.31
41.1465 16.2027
41.1942 16.2041
41.242 16.0998
41.2896 16.0108
41.3373 15.9584
41.3849 15.9728
41.4327 15.857
41.4803 15.8254
41.5281 15.7529
41.5758 15.7041
41.6236 15.7089
41.6712 15.6312
41.7191 15.5199
41.7667 15.5094
41.8146 15.4325
41.8622 15.417
41.9101 15.3604
41.9578 15.2342
42.0057 15.2871
42.0534 15.225
42.1013 15.196
42.149 15.1006
42.1969 15.0314
42.2446 15.0342
42.2925 14.959
42.3403 14.9424
42.3882 14.8333
42.436 14.8054
42.4839 14.7473
42.5319 14.7195
42.5797 14.6728
42.6277 14.6436
42.6755 14.6059
42.7235 14.5166
42.7713 14.4478
42.8193 14.3987
42.8671 14.3446
42.9152 14.3246
42.963 14.2853
43.0111 14.1961
43.0589 14.1544
43.107 14.0899
43.1549 14.0957
43.2029 13.9868
43.2508 14.0045
43.2989 13.9396
43.3468 13.9154
43.3949 13.8327
43.4429 13.8118
43.491 13.7507
43.5389 13.6878
43.5871 13.6461
43.635 13.5866
43.6832 13.5357
43.7312 13.5183
43.7793 13.477
43.8273 13.4522
43.8755 13.3719
43.9237 13.2747
43.9717 13.2563
44.0199 13.2115
44.068 13.145
44.1162 13.1317
44.1642 13.1079
44.2125 13.0665
44.2606 13.006
44.3088 12.9222
44.3569 12.9199
44.4052 12.8697
44.4533 12.7999
44.5016 12.7615
44.5497 12.7529
44.598 12.7155
44.6461 12.6246
44.6945 12.5579
44.7426 12.586
44.791 12.4489
44.8391 12.4826
44.8875 12.4484
44.9357 12.3709
44.984 12.3142
45.0322 12.2833
45.0806 12.2341
45.1288 12.1847
45.1773 12.1666
45.2257 12.1339
45.2739 12.0886
45.3224 12.0767
45.3706 11.9997
45.4191 11.9097
45.4673 11.9007
45.5158 11.8957
45.5641 11.8078
45.6126 11.7723
45.6609 11.6985
45.7094 11.6694
45.7577 11.6602
45.8063 11.5749
45.8546 11.6119
45.9031 11.5191
45.9515 11.4712
46.0001 11.4418
46.0484 11.4226
46.097 11.3438
46.1454 11.3311
46.194 11.2956
46.2424 11.2325
46.291 11.1963
46.3395 11.1398
46.3881 11.0668
46.4365 11.0772
46.4852 11.0344
46.5337 10.986
46.5823 10.9607
46.631 10.9051
46.6795 10.9091
46.7282 10.8391
46.7767 10.8068
46.8254 10.7566
46.8739 10.7509
46.9226 10.6952
46.9712 10.6458
47.0199 10.6256
47.0685 10.5723
47.1173 10.5185
47.1658 10.5165
47.2146 10.4613
47.2632 10.3954
47.312 10.3695
47.3606 10.3489
47.4095 10.2771
47.4581 10.2474
47.5069 10.1842
47.5556 10.1807
47.6044 10.1253
47.6531 10.0938
47.702 9.9907
47.7507 10.0298
47.7996 9.9898
47.8483 9.95079
47.8972 9.9215
47.9461 9.85768
47.9948 9.82465
48.0438 9.77982
48.0925 9.76795
48.1415 9.75044
48.1902 9.69074
48.2392 9.65393
48.288 9.63573
48.337 9.61434
48.3858 9.56746
48.4348 9.49933
48.4837 9.5072
48.5327 9.48422
48.5815 9.41934
48.6306 9.4183
48.6795 9.36217
48.7285 9.31188
48.7774 9.30547
48.8265 9.27623
48.8754 9.17247
48.9245 9.17656
48.9734 9.14417
49.0226 9.12658
49.0715 9.07831
49.1206 9.03777
49.1696 9.00019
49.2188 8.99789
49.2679 8.93912
49.3169 8.8826
49.3661 8.86093
49.4151 8.82974
49.4643 8.80751
49.5134 8.75574
49.5626 8.72432
49.6117 8.70047
49.6609 8.71076
49.71 8.62567
49.7592 8.60137
49.8083 8.56852
49.8576 8.55092
49.9067 8.48985
49.956 8.45546
50.0052 8.43904
50.0545 8.41619
50.1036 8.38022
50.153 8.33344
50.2022 8.31201
50.2515 8.27284
50.3007 8.25326
50.3501 8.20364
50.3993 8.18909
50.4487 8.15483
50.498 8.13671
50.5474 8.10061
50.5966 8.06203
50.6461 8.02178
50.6955 7.99706
50.7448 7.98105
50.7943 7.9524
50.8436 7.88517
50.8931 7.85484
50.9424 7.8326
50.9919 7.78299
51.0413 7.75283
51.0908 7.74974
51.1402 7.71473
51.1897 7.6823
51.2391 7.66939
51.2887 7.60433
51.3381 7.62291
51.3877 7.59996
51.4371 7.53328
51.4867 7.45667
51.5362 7.47313
51.5858 7.44761
51.6353 7.40015
51.6849 7.36735
51.7344 7.33323
51.7841 7.31446
51.8336 7.26447
51.8833 7.27534
51.9328 7.23846
51.9826 7.19801
52.0323 7.179
52.0818 7.12838
52.1316 7.09564
52.1812 7.12577
52.231 7.01391
52.2806 7.00624
52.3304 7.00661
52.38 6.97119
52.4298 6.93517
52.4794 6.88853
52.5293 6.89618
52.5789 6.86134
52.6288 6.826
52.6785 6.76525
52.7284 6.7931
52.7781 6.7506
52.828 6.73958
52.8777 6.69635
52.9276 6.61754
52.9774 6.61986
53.0273 6.59267
53.0771 6.57163
53.1271 6.52812
53.1769 6.4807
53.2269 6.49764
53.2767 6.4251
53.3267 6.45456
53.3765 6.39709
53.4266 6.36302
53.4766 6.38152
53.5265 6.29635
53.5765 6.34695
53.6264 6.29615
53.6765 6.25048
53.7264 6.20601
53.7765 6.18429
53.8265 6.13086
53.8766 6.12853
53.9266 6.09172
53.9767 6.05432
54.0267 6.07909
54.0769 6.01405
54.1269 5.98558
54.1771 5.93289
54.2271 5.94476
54.2773 5.91077
54.3274 5.89391
54.3776 5.86684
54.4277 5.8138
54.478 5.80841
54.528 5.79554
54.5783 5.72861
54.6285 5.66841
54.6788 5.63984
54.7289 5.60094
54.7792 5.56181
54.8296 5.50079
54.8798 5.4488
54.9301 5.41771
54.9803 5.41454
55.0307 5.36154
55.0809 5.33808
55.1314 5.3059
55.1816 5.25069
55.232 5.19285
55.2823 5.14598
55.3328 5.07515
55.383 5.05305
55.4335 5.03019
55.4838 4.94405
55.5344 4.88253
55.5847 4.87385
55.6352 4.88693
55.6856 4.78781
55.7361 4.75588