File: XRD/Ni3Fe_FD0023.xy
TT I
1.27165 34.1207
1.31627 33.5089
1.36089 32.506
1.40551 30.7852
1.45013 28.6531
1.49476 28.9576
1.53938 28.2694
1.584 26.9275
1.62863 26.1412
1.67325 25.2323
1.71787 24.6645
1.7625 24.6151
1.80712 24.0669
1.85174 23.3146
1.89636 22.6818
1.94099 23.4485
1.98562 23.7523
2.03025 23.8586
2.07487 24.3549
2.11949 24.3124
2.16411 25.7806
2.20874 25.8624
2.25338 26.3844
2.298 26.9056
2.34263 26.428
2.38725 25.1607
2.43188 25.5209
2.4765 24.6732
2.52115 25.203
2.56577 24.9974
2.6104 26.3611
2.65503 27.1801
2.69965 28.4457
2.7443 29.5803
2.78893 32.7038
2.83356 34.6578
2.87818 38.6626
2.92281 43.0779
2.96744 48.5833
3.01209 56.9859
3.05672 65.691
3.10135 76.0906
3.14599 81.5164
3.19062 82.418
3.23527 76.3777
3.2799 65.8133
3.32454 54.8026
3.36917 46.8
3.4138 41.8325
3.45844 38.4885
3.50309 37.6503
3.54773 36.9501
3.59237 38.9869
3.637 40.6611
3.68164 41.6532
3.7263 41.0592
3.77094 39.7335
3.81558 37.9977
3.86022 36.8287
3.90486 37.4409
3.9495 38.3363
3.99416 38.9799
4.0388 42.5565
4.08344 46.0213
4.12809 51.2577
4.17273 58.544
4.21738 70.0465
4.26204 80.8791
4.30669 87.4111
4.35133 84.6615
4.39598 74.8821
4.44063 66.5756
4.4853 61.2119
4.52995 56.0015
4.5746 51.1864
4.61925 48.556
4.6639 46.2632
4.70855 46.7868
4.75322 47.7422
4.79788 50.0783
4.84253 53.0472
4.88719 56.9524
4.93184 62.5256
4.97652 70.7271
5.02118 86.3012
5.06583 110.293
5.11049 133.984
5.15515 177.457
5.19981 271.654
5.24449 550.312
5.28916 1151.17
5.33382 3135.94
5.37848 3797.45
5.42315 1192.03
5.46783 372.877
5.5125 214.206
5.55716 156.25
5.60183 125.891
5.6465 111.996
5.69117 106.228
5.73586 100.047
5.78053 96.2968
5.8252 96.0841
5.86988 101.109
5.91455 110.99
5.95924 128.418
6.00392 169.926
6.0486 268.066
6.09328 454.285
6.13795 809.048
6.18263 1307.36
6.22733 779.352
6.27201 315.118
6.3167 166.778
6.36138 109.917
6.40606 84.6868
6.45075 72.5635
6.49545 64.1785
6.54014 59.1872
6.58483 56.7346
6.62952 55.7618
6.67421 55.8072
6.71892 56.3733
6.76361 56.1231
6.8083 54.1021
6.853 51.3746
6.89769 49.1646
6.94239 46.6447
6.98711 45.0044
7.03181 44.519
7.07651 44.6718
7.12121 45.9048
7.16591 47.8693
7.21063 51.1164
7.25533 56.3142
7.30004 66.116
7.34475 72.8652
7.38945 70.6286
7.43416 62.2969
7.47889 55.9541
7.5236 57.3163
7.56831 95.2132
7.61303 153.883
7.65774 78.0316
7.70247 46.1746
7.74719 40.376
7.79191 38.5871
7.83663 37.7336
7.88135 37.6273
7.92607 37.5927
7.97081 37.7016
8.01553 38.4588
8.06026 39.1718
8.10498 40.0362
8.14971 41.0913
8.19446 42.7014
8.23919 44.7488
8.28392 45.9552
8.32865 48.3204
8.37339 51.9075
8.41812 56.2883
8.46288 64.3073
8.50761 77.0146
8.55235 102.867
8.59709 157.382
8.64183 214.424
8.68658 378.9
8.73134 746.163
8.77609 662.808
8.82083 284.119
8.86558 137.189
8.91033 94.856
8.9551 77.3409
8.99985 69.6115
9.04461 64.2071
9.08936 60.8478
9.13412 58.7305
9.17888 59.6562
9.22365 66.5357
9.26841 121.823
9.31318 249.4
9.35794 155.966
9.4027 70.4121
9.44749 55.9526
9.49226 53.1135
9.53703 51.4291
9.5818 51.5819
9.62657 51.5928
9.67134 52.7644
9.71614 54.0661
9.76091 55.2663
9.80569 57.149
9.85047 60.0186
9.89525 64.2045
9.94005 69.8284
9.98484 79.5528
10.0296 99.0498
10.0744 138.304
10.1192 181.087
10.164 243.116
10.2088 485.116
10.2536 820.639
10.2984 577.246
10.3432 253.11
10.388 132.569
10.4328 95.4191
10.4776 83.9224
10.5224 85.1527
10.5672 91.145
10.612 100.68
10.6568 152.016
10.7017 269.638
10.7465 270.687
10.7913 147.766
10.8361 75.2871
10.8809 55.14
10.9257 48.7492
10.9706 46.0842
11.0154 44.4134
11.0602 43.4559
11.105 42.6732
11.1499 42.1163
11.1947 41.8977
11.2395 41.2599
11.2844 41.1138
11.3292 40.6605
11.374 39.8951
11.4189 39.2494
11.4637 38.2316
11.5086 37.5758
11.5534 37.3777
11.5983 37.5089
11.6431 37.4665
11.688 37.1817
11.7328 36.8168
11.7777 36.6808
11.8225 36.7064
11.8674 37.4027
11.9122 39.4189
11.9571 45.5476
12.002 71.8174
12.0468 90.8131
12.0917 62.3346
12.1366 46.9953
12.1814 46.8752
12.2263 49.1733
12.2712 55.1781
12.3161 70.6604
12.3609 94.7413
12.4058 91.9736
12.4507 66.2772
12.4956 51.3418
12.5405 44.9329
12.5853 42.1065
12.6302 40.8702
12.6751 40.8002
12.72 40.8995
12.7649 41.0644
12.8098 40.24
12.8547 40.1542
12.8996 39.8707
12.9445 39.7247
12.9894 39.9504
13.0343 40.6334
13.0792 42.6688
13.1242 46.3428
13.1691 56.1922
13.214 61.8467
13.2589 63.3462
13.3038 68.12
13.3487 74.2606
13.3937 94.3912
13.4386 147.451
13.4835 221.128
13.5285 200.142
13.5734 127.06
13.6183 92.7109
13.6633 81.5895
13.7082 81.439
13.7531 99.6988
13.7981 157.475
13.843 214.882
13.888 163.562
13.9329 91.1824
13.9779 62.056
14.0228 51.2113
14.0678 46.3678
14.1127 45.0808
14.1577 47.5622
14.2027 64.8565
14.2476 86.1137
14.2926 70.0013
14.3376 47.7422
14.3825 41.0103
14.4275 39.1612
14.4725 38.6002
14.5175 38.1892
14.5624 37.5341
14.6074 37.527
14.6524 37.6993
14.6974 38.0032
14.7424 38.4714
14.7874 38.9435
14.8324 40.3793
14.8774 43.0545
14.9224 46.702
14.9674 49.1683
15.0124 51.8556
15.0574 59.9721
15.1024 80.9899
15.1474 118.337
15.1924 127.74
15.2374 92.0894
15.2824 62.8959
15.3274 49.1581
15.3725 43.81
15.4175 41.0066
15.4625 39.4754
15.5076 38.7228
15.5526 38.6056
15.5976 38.1411
15.6426 38.2464
15.6877 38.3216
15.7327 39.0104
15.7778 41.0181
15.8228 44.3656
15.8679 46.8611
15.9129 48.271
15.958 53.8447
16.003 66.6128
16.0481 96.3556
16.0931 126.673
16.1382 117.522
16.1833 85.6413
16.2283 58.5624
16.2734 44.9942
16.3185 39.6904
16.3636 36.9434
16.4086 35.2734
16.4537 34.4045
16.4988 33.7026
16.5439 33.1862
16.589 32.6634
16.6341 32.2385
16.6792 31.9359
16.7243 31.7167
16.7694 31.7872
16.8145 31.4882
16.8596 31.6699
16.9047 32.0242
16.9498 33.0189
16.9949 35.8676
17.04 39.5725
17.0851 38.5103
17.1302 34.5776
17.1754 33.3573
17.2205 33.4294
17.2656 33.9048
17.3108 34.3061
17.3559 34.7029
17.401 36.3287
17.4462 39.9279
17.4913 46.8474
17.5365 52.089
17.5815 47.8185
17.6268 40.5085
17.6718 36.5479
17.7171 35.2092
17.7622 35.0551
17.8074 36.3345
17.8525 39.9644
17.8977 42.0981
17.9428 40.249
17.9881 38.9978
18.0331 40.6861
18.0784 42.0827
18.1237 42.9793
18.1688 45.052
18.214 51.1502
18.2591 64.6079
18.3044 89.487
18.3495 103.31
18.3948 86.7692
18.4399 64.6959
18.4852 56.1781
18.5303 59.5679
18.5756 70.3349
18.6207 75.35
18.666 64.6003
18.7112 51.6114
18.7565 42.5345
18.8016 37.9874
18.8469 36.067
18.892 35.0623
18.9374 34.2175
18.9825 33.7126
19.0278 33.4297
19.073 33.4416
19.1183 33.1991
19.1635 33.1369
19.2088 33.435
19.254 34.067
19.2993 34.9892
19.3447 36.1974
19.3898 39.3741
19.4352 45.1917
19.4804 47.6485
19.5257 45.7122
19.5709 46.7944
19.6163 49.5388
19.6615 46.6315
19.7068 39.946
19.752 35.744
19.7974 33.5155
19.8426 32.5342
19.888 31.9204
19.9332 31.7771
19.9786 32.1232
20.0238 32.0803
20.0692 32.3076
20.1144 32.4129
20.1598 33.1905
20.205 34.4431
20.2504 37.3495
20.2957 42.3837
20.3411 46.772
20.3863 46.0787
20.4318 41.2506
20.477 38.911
20.5224 40.714
20.5677 44.3359
20.6131 44.0156
20.6586 38.7976
20.7038 34.3462
20.7493 31.7894
20.7945 31.2031
20.84 31.769
20.8853 33.1914
20.9307 33.6767
20.976 31.7604
21.0215 29.6572
21.0668 29.0921
21.1122 28.7075
21.1575 28.6388
21.203 28.6736
21.2483 28.5184
21.2938 28.739
21.3391 28.5939
21.3846 28.9668
21.4299 29.9811
21.4754 31.5724
21.5207 32.601
21.5662 32.0885
21.6116 30.9063
21.6571 30.0239
21.7024 29.2912
21.7479 29.5353
21.7933 29.8721
21.8388 30.3676
21.8843 30.7745
21.9297 30.9006
21.9752 31.907
22.0206 33.5217
22.0661 36.0754
22.1115 40.6674
22.157 46.4006
22.2024 49.0075
22.248 46.0221
22.2933 42.3796
22.3389 40.2138
22.3843 39.8292
22.4299 38.4024
22.4753 35.5186
22.5208 32.6472
22.5662 31.1031
22.6118 30.4654
22.6572 29.9286
22.7028 29.8215
22.7483 29.7692
22.7939 29.761
22.8393 30.2844
22.8849 31.2821
22.9303 31.9994
22.9759 31.8694
23.0214 31.2209
23.067 31.4914
23.1126 32.4613
23.1581 34.7199
23.2037 38.7133
23.2492 42.3792
23.2948 41.6143
23.3403 37.2352
23.3859 33.6878
23.4314 32.2068
23.477 32.3814
23.5225 33.3832
23.5682 34.1705
23.6137 33.7999
23.6593 32.636
23.7048 32.7807
23.7505 34.2476
23.796 37.1121
23.8417 41.9639
23.8872 44.366
23.9329 41.3867
23.9784 35.8917
24.0241 31.8544
24.0697 30.2299
24.1154 29.2405
24.1609 28.9963
24.2066 28.6624
24.2522 28.0409
24.2979 27.3836
24.3434 27.0582
24.3892 26.8472
24.4349 26.6347
24.4805 26.3931
24.5262 26.4157
24.5718 26.0762
24.6175 26.3271
24.6631 26.4157
24.7089 26.7377
24.7545 27.3779
24.8002 27.7777
24.8458 27.7199
24.8916 27.0185
24.9372 26.5532
24.983 26.2902
25.0286 26.055
25.0744 26.0704
25.12 26.0756
25.1658 26.0774
25.2114 26.25
25.2572 26.5465
25.3029 26.9584
25.3487 27.7462
25.3943 28.6482
25.4402 29.5233
25.4858 30.1194
25.5316 30.0787
25.5773 30.4729
25.6231 31.4992
25.669 31.9887
25.7147 30.9166
25.7605 28.779
25.8062 27.1896
25.8521 26.5775
25.8977 26.3527
25.9436 26.6443
25.9893 26.503
26.0352 26.2411
26.0809 25.6375
26.1268 25.5383
26.1725 25.5549
26.2184 25.5739
26.2641 26.0226
26.31 26.5472
26.3557 27.5339
26.4017 28.4176
26.4474 28.6845
26.4933 27.8205
26.5391 26.9824
26.585 26.2948
26.6308 26.027
26.6767 25.7806
26.7225 25.8757
26.7684 26.1228
26.8142 26.5845
26.8601 27.3054
26.9059 28.6435
26.9519 30.0
26.9979 30.7527
27.0437 30.3352
27.0896 29.544
27.1354 29.0654
27.1814 28.103
27.2272 26.8054
27.2732 25.8463
27.3191 25.2029
27.3651 24.9577
27.4109 24.6396
27.4569 24.6377
27.5027 24.5629
27.5488 24.4452
27.5946 24.4682
27.6407 24.6471
27.6865 24.7019
27.7326 24.5079
27.7784 24.8627
27.8245 25.2023
27.8703 25.5895
27.9164 25.6606
27.9623 25.1695
28.0084 24.8166
28.0543 24.8603
28.1003 25.0811
28.1462 25.4879
28.1923 25.7955
28.2384 25.7476
28.2843 26.1432
28.3304 26.9734
28.3764 28.0332
28.4225 28.3962
28.4684 27.9991
28.5145 27.1387
28.5605 26.7135
28.6066 26.4233
28.6526 25.6446
28.6987 24.8185
28.7447 24.2821
28.7908 23.6202
28.8368 23.2266
28.8829 22.9695
28.9289 22.8476
28.9751 22.7015
29.0211 22.63
29.0673 22.5998
29.1133 22.6712
29.1595 22.8657
29.2055 23.1133
29.2517 23.4055
29.2977 23.1696
29.3439 22.8086
29.3899 22.3588
29.4361 22.2049
29.4824 22.0395
29.5284 21.9051
29.5746 21.9985
29.6207 22.0707
29.6669 22.2929
29.713 22.4582
29.7593 22.7157
29.8053 22.7127
29.8516 22.2772
29.8977 21.7773
29.9439 21.5151
29.99 21.3248
30.0363 21.0894
30.0824 21.194
30.1287 21.1448
30.1748 21.3411
30.2211 21.4517
30.2673 21.3858
30.3136 21.2915
30.3597 21.0158
30.406 20.9148
30.4522 20.9423
30.4985 21.0683
30.5447 21.399
30.591 21.452
30.6372 21.411
30.6835 21.2699
30.7297 21.0872
30.7761 20.9955
30.8224 20.9947
30.8686 21.1355
30.915 21.186
30.9612 21.5203
31.0076 21.9752
31.0538 22.547
31.1002 22.7987
31.1464 22.5544
31.1928 22.2818
31.2391 22.1301
31.2855 21.6598
31.3317 21.3012
31.3781 20.9244
31.4244 20.6737
31.4708 20.5357
31.5171 20.4607
31.5636 20.4427
31.6098 20.4556
31.6563 20.4739
31.7026 20.5983
31.7491 20.8123
31.7953 21.0636
31.8418 21.4226
31.8881 21.3819
31.9346 21.1534
31.9809 20.7777
32.0275 20.313
32.074 20.3255
32.1203 20.2294
32.1668 20.2857
32.2132 20.3763
32.2597 20.5649
32.306 20.8907
32.3526 20.8934
32.399 20.7768
32.4455 20.5389
32.4919 20.1634
32.5385 20.0078
32.5848 19.6165
32.6314 19.4782
32.6778 19.2907
32.7244 19.079
32.7708 18.9933
32.8174 18.8495
32.8638 18.8117
32.9104 18.7245
32.9569 18.7448
33.0035 18.732
33.0499 18.8988
33.0966 18.7391
33.143 18.7695
33.1897 18.6361
33.2361 18.447
33.2828 18.5011
33.3293 18.3964
33.3759 18.4113
33.4226 18.4898
33.4691 18.64
33.5158 18.8232
33.5623 18.8915
33.609 18.9953
33.6555 18.9592
33.7022 18.9161
33.7487 18.7461
33.7954 18.4975
33.842 18.1378
33.8887 17.9725
33.9353 17.9241
33.982 17.763
34.0286 17.7725
34.0753 17.6854
34.1219 17.6626
34.1687 17.5205
34.2152 17.6784
34.262 17.5328
34.3086 17.6141
34.3554 17.5033
34.402 17.3772
34.4488 17.2463
34.4954 17.1645
34.5422 17.023
34.5889 17.0242
34.6357 17.0047
34.6825 17.0737
34.7292 17.0936
34.776 17.0393
34.8227 16.9309
34.8695 16.8491
34.9162 16.6636
34.9631 16.5695
35.0098 16.5406
35.0566 16.4308
35.1033 16.3838
35.1502 16.3604
35.1969 16.3337
35.2438 16.3805
35.2906 16.3397
35.3375 16.2874
35.3842 16.2705
35.4311 16.2687
35.4779 16.2084
35.5248 16.2771
35.5716 16.2083
35.6185 16.1979
35.6653 16.2662
35.7123 16.3094
35.759 16.4427
35.806 16.5105
35.8528 16.6273
35.8998 16.6861
35.9468 16.5726
35.9936 16.5071
36.0406 16.2015
36.0874 16.1334
36.1345 16.026
36.1813 15.8061
36.2283 15.7784
36.2752 15.6496
36.3222 15.5971
36.3691 15.602
36.4161 15.5403
36.463 15.5372
36.5101 15.597
36.557 15.5895
36.6041 15.5655
36.651 15.549
36.6981 15.4694
36.745 15.3553
36.7921 15.3188
36.839 15.1936
36.8861 15.2126
36.9331 15.2178
36.9802 15.2472
37.0272 15.231
37.0743 15.125
37.1213 15.1708
37.1684 14.9527
37.2154 14.8689
37.2626 14.7338
37.3098 14.723
37.3568 14.6497
37.404 14.6424
37.451 14.508
37.4982 14.504
37.5452 14.488
37.5924 14.3671
37.6395 14.4525
37.6867 14.3042
37.7337 14.2831
37.781 14.2106
37.8281 14.1829
37.8753 14.1355
37.9224 14.071
37.9697 14.0604
38.0168 14.019
38.064 13.974
38.1111 14.0586
38.1584 13.9728
38.2056 13.911
38.2529 13.8998
38.3 13.7302
38.3473 13.7252
38.3945 13.626
38.4418 13.6588
38.489 13.5337
38.5363 13.501
38.5837 13.4983
38.6309 13.5074
38.6782 13.4933
38.7254 13.4538
38.7728 13.4499
38.82 13.3692
38.8674 13.3293
38.9146 13.1842
38.9621 13.229
39.0093 13.2007
39.0567 13.2114
39.104 13.1994
39.1514 13.1065
39.1987 13.1492
39.2461 13.0663
39.2934 12.9765
39.3409 12.8211
39.3882 12.8678
39.4356 12.7507
39.483 12.7597
39.5304 12.6881
39.5778 12.6621
39.6253 12.5946
39.6726 12.5242
39.7201 12.5389
39.7675 12.5049
39.815 12.5255
39.8624 12.4373
39.9099 12.4179
39.9575 12.3645
40.0049 12.3864
40.0525 12.2944
40.0999 12.2558
40.1474 12.2809
40.1949 12.2662
40.2425 12.2637
40.2899 12.2494
40.3375 12.2181
40.385 12.1948
40.4326 12.1304
40.48 12.0478
40.5277 11.9484
40.5752 12.0104
40.6228 11.8597
40.6703 11.9307
40.718 11.8788
40.7655 11.8689
40.8132 11.7525
40.8607 11.8009
40.9084 11.764
40.9559 11.7128
41.0036 11.6908
41.0512 11.6613
41.0989 11.6169
41.1465 11.5956
41.1942 11.6281
41.242 11.5366
41.2896 11.5272
41.3373 11.4883
41.3849 11.4839
41.4327 11.3969
41.4803 11.2967
41.5281 11.2638
41.5758 11.2215
41.6236 11.1709
41.6712 11.167
41.7191 11.145
41.7667 11.1155
41.8146 11.091
41.8622 11.0267
41.9101 11.0327
41.9578 10.9531
42.0057 10.9314
42.0534 10.8578
42.1013 10.9153
42.149 10.8878
42.1969 10.829
42.2446 10.7975
42.2925 10.7879
42.3403 10.7278
42.3882 10.676
42.436 10.656
42.4839 10.5924
42.5319 10.5222
42.5797 10.4677
42.6277 10.4493
42.6755 10.3996
42.7235 10.4026
42.7713 10.3774
42.8193 10.2637
42.8671 10.3235
42.9152 10.2418
42.963 10.1999
43.0111 10.1866
43.0589 10.1259
43.107 10.0837
43.1549 10.0568
43.2029 9.9904
43.2508 9.99127
43.2989 9.96146
43.3468 9.91708
43.3949 9.90082
43.4429 9.88312
43.491 9.79571
43.5389 9.78136
43.5871 9.80614
43.635 9.71315
43.6832 9.72985
43.7312 9.69564
43.7793 9.59898
43.8273 9.63949
43.8755 9.553
43.9237 9.54844
43.9717 9.49384
44.0199 9.47291
44.068 9.48254
44.1162 9.44497
44.1642 9.43841
44.2125 9.44162
44.2606 9.33857
44.3088 9.26461
44.3569 9.29926
44.4052 9.24188
44.4533 9.19483
44.5016 9.18191
44.5497 9.11668
44.598 9.1323
44.6461 9.08012
44.6945 9.05692
44.7426 9.00826
44.791 9.01655
44.8391 8.98626
44.8875 8.94237
44.9357 8.93813
44.984 8.92664
45.0322 8.90318
45.0806 8.86874
45.1288 8.84637
45.1773 8.76284
45.2257 8.75673
45.2739 8.68775
45.3224 8.69377
45.3706 8.6857
45.4191 8.63946
45.4673 8.59926
45.5158 8.57846
45.5641 8.5422
45.6126 8.53537
45.6609 8.48302
45.7094 8.42822
45.7577 8.4335
45.8063 8.37832
45.8546 8.39046
45.9031 8.32152
45.9515 8.32949
46.0001 8.27761
46.0484 8.27638
46.097 8.22982
46.1454 8.2427
46.194 8.17986
46.2424 8.14504
46.291 8.11406
46.3395 8.12098
46.3881 8.03293
46.4365 8.03125
46.4852 8.04046
46.5337 7.98016
46.5823 7.96682
46.631 7.94488
46.6795 7.91253
46.7282 7.87668
46.7767 7.85009
46.8254 7.80664
46.8739 7.80764
46.9226 7.74229
46.9712 7.73131
47.0199 7.70226
47.0685 7.62538
47.1173 7.63696
47.1658 7.59639
47.2146 7.59523
47.2632 7.53251
47.312 7.51366
47.3606 7.4788
47.4095 7.44043
47.4581 7.45951
47.5069 7.39682
47.5556 7.38744
47.6044 7.34682
47.6531 7.36418
47.702 7.27674
47.7507 7.27392
47.7996 7.28627
47.8483 7.24641
47.8972 7.23725
47.9461 7.20186
47.9948 7.17562
48.0438 7.14138
48.0925 7.10063
48.1415 7.08613
48.1902 7.02944
48.2392 7.03426
48.288 7.05748
48.337 7.01954
48.3858 6.97351
48.4348 6.94869
48.4837 6.92976
48.5327 6.89306
48.5815 6.86804
48.6306 6.8373
48.6795 6.83925
48.7285 6.79149
48.7774 6.77259
48.8265 6.78701
48.8754 6.73109
48.9245 6.68268
48.9734 6.68245
49.0226 6.62741
49.0715 6.63663
49.1206 6.58124
49.1696 6.56034
49.2188 6.53618
49.2679 6.54102
49.3169 6.53542
49.3661 6.47981
49.4151 6.47578
49.4643 6.444
49.5134 6.42641
49.5626 6.41405
49.6117 6.37703
49.6609 6.37611
49.71 6.32649
49.7592 6.29318
49.8083 6.26529
49.8576 6.26194
49.9067 6.222
49.956 6.22861
50.0052 6.20458
50.0545 6.19538
50.1036 6.18755
50.153 6.14744
50.2022 6.09004
50.2515 6.08567
50.3007 6.05334
50.3501 6.02277
50.3993 5.99499
50.4487 6.00119
50.498 6.02975
50.5474 5.96862
50.5966 5.93461
50.6461 5.92605
50.6955 5.9061
50.7448 5.90965
50.7943 5.8641
50.8436 5.82773
50.8931 5.80621
50.9424 5.81527
50.9919 5.77088
51.0413 5.76324
51.0908 5.71818
51.1402 5.69415
51.1897 5.64091
51.2391 5.6801
51.2887 5.62878
51.3381 5.61681
51.3877 5.58756
51.4371 5.5997
51.4867 5.55161
51.5362 5.51227
51.5858 5.51858
51.6353 5.46808
51.6849 5.48175
51.7344 5.44032
51.7841 5.47713
51.8336 5.39189
51.8833 5.36575
51.9328 5.36165
51.9826 5.34615
52.0323 5.32277
52.0818 5.26839
52.1316 5.27021
52.1812 5.26221
52.231 5.21034
52.2806 5.20348
52.3304 5.19846
52.38 5.16148
52.4298 5.14186
52.4794 5.12676
52.5293 5.12476
52.5789 5.11341
52.6288 5.0874
52.6785 5.01089
52.7284 5.02603
52.7781 4.98356
52.828 4.99587
52.8777 4.94629
52.9276 4.94534
52.9774 4.93237
53.0273 4.9451
53.0771 4.89121
53.1271 4.88498
53.1769 4.85288
53.2269 4.85956
53.2767 4.80645
53.3267 4.73359
53.3765 4.81185
53.4266 4.77083
53.4766 4.75174
53.5265 4.72943
53.5765 4.68518
53.6264 4.67473
53.6765 4.63356
53.7264 4.59826
53.7765 4.64016
53.8265 4.59117
53.8766 4.57103
53.9266 4.53093
53.9767 4.50471
54.0267 4.47698
54.0769 4.46151
54.1269 4.43337
54.1771 4.44489
54.2271 4.39941
54.2773 4.38464
54.3274 4.34074
54.3776 4.35336
54.4277 4.27947
54.478 4.28727
54.528 4.25792
54.5783 4.17294
54.6285 4.18887
54.6788 4.11805
54.7289 4.1304
54.7792 4.08672
54.8296 4.03713
54.8798 3.95148
54.9301 3.97879
54.9803 3.96268
55.0307 3.91137
55.0809 3.88693
55.1314 3.84225
55.1816 3.80785
55.232 3.74229
55.2823 3.75032
55.3328 3.70403
55.383 3.70164
55.4335 3.67794
55.4838 3.55476
55.5344 3.60616
55.5847 3.51657
55.6352 3.53688
55.6856 3.50044
55.7361 3.52962