File: XRD/Ni3Fe_FD0699.xy
TT I
1.27165 7.25304
1.31627 6.50465
1.36089 6.2502
1.40551 5.50057
1.45013 6.11065
1.49476 5.69884
1.53938 5.75333
1.584 4.84936
1.62863 4.9651
1.67325 4.64738
1.71787 4.87826
1.7625 4.22042
1.80712 5.45879
1.85174 4.53724
1.89636 4.92405
1.94099 4.96507
1.98562 4.46791
2.03025 4.67496
2.07487 4.41318
2.11949 4.40359
2.16411 4.50527
2.20874 8.96762
2.25338 12.1441
2.298 5.34929
2.34263 5.46508
2.38725 5.75035
2.43188 7.02485
2.4765 6.85873
2.52115 7.56501
2.56577 7.342
2.6104 8.3551
2.65503 7.81585
2.69965 8.23357
2.7443 8.17879
2.78893 8.10366
2.83356 8.05062
2.87818 8.68807
2.92281 8.76063
2.96744 9.46915
3.01209 10.6758
3.05672 11.2671
3.10135 11.9342
3.14599 12.7385
3.19062 13.9402
3.23527 15.1116
3.2799 15.6836
3.32454 16.7037
3.36917 17.6483
3.4138 18.5524
3.45844 19.2972
3.50309 20.6075
3.54773 21.468
3.59237 23.007
3.637 54.4007
3.68164 38.4822
3.7263 25.4035
3.77094 25.8013
3.81558 26.1458
3.86022 27.0547
3.90486 29.0914
3.9495 29.1228
3.99416 30.5581
4.0388 31.8589
4.08344 33.6638
4.12809 34.3672
4.17273 35.8595
4.21738 39.1031
4.26204 130.501
4.30669 113.484
4.35133 44.5106
4.39598 43.814
4.44063 49.5004
4.4853 54.7458
4.52995 55.9069
4.5746 55.5701
4.61925 53.5078
4.6639 55.6003
4.70855 58.1539
4.75322 61.3904
4.79788 67.6227
4.84253 68.3866
4.88719 74.3709
4.93184 77.2724
4.97652 81.3818
5.02118 87.9324
5.06583 95.8074
5.11049 107.81
5.15515 158.119
5.19981 431.588
5.24449 3038.7
5.28916 12620.4
5.33382 2634.25
5.37848 194.181
5.42315 130.882
5.46783 118.268
5.5125 111.255
5.55716 102.559
5.60183 98.6025
5.6465 96.3958
5.69117 94.1708
5.73586 93.0204
5.78053 96.8326
5.8252 96.8868
5.86988 99.3996
5.91455 95.8591
5.95924 106.697
6.00392 253.58
6.0486 1038.05
6.09328 4587.3
6.13795 3135.9
6.18263 218.586
6.22733 91.2647
6.27201 81.2303
6.3167 86.6813
6.36138 75.06
6.40606 69.9451
6.45075 69.2845
6.49545 65.32
6.54014 63.4406
6.58483 62.8189
6.62952 62.9499
6.67421 75.4529
6.71892 95.4111
6.76361 63.0909
6.8083 59.0203
6.853 59.2116
6.89769 57.0153
6.94239 56.099
6.98711 55.6161
7.03181 55.6962
7.07651 55.1551
7.12121 54.8156
7.16591 55.9855
7.21063 55.2297
7.25533 61.2595
7.30004 106.775
7.34475 69.1437
7.38945 54.8733
7.43416 53.8758
7.47889 53.7554
7.5236 54.464
7.56831 54.8325
7.61303 55.4209
7.65774 55.8985
7.70247 56.5838
7.74719 56.53
7.79191 56.4763
7.83663 56.6745
7.88135 57.4124
7.92607 58.7305
7.97081 59.6087
8.01553 61.1157
8.06026 62.8589
8.10498 64.258
8.14971 70.7997
8.19446 70.8372
8.23919 69.355
8.28392 71.9893
8.32865 74.3214
8.37339 78.7237
8.41812 84.605
8.46288 105.133
8.50761 187.615
8.55235 411.004
8.59709 1255.92
8.64183 2208.07
8.68658 849.638
8.73134 150.767
8.77609 98.0725
8.82083 92.5896
8.86558 91.8865
8.91033 91.6862
8.9551 89.7042
8.99985 85.43
9.04461 84.0347
9.08936 84.1378
9.13412 82.8189
9.17888 82.3783
9.22365 82.401
9.26841 82.5018
9.31318 84.4948
9.35794 86.0296
9.4027 85.6894
9.44749 85.1387
9.49226 84.971
9.53703 85.6502
9.5818 89.1278
9.62657 93.8151
9.67134 95.5299
9.71614 92.9912
9.76091 95.0775
9.80569 99.1497
9.85047 101.554
9.89525 113.733
9.94005 130.501
9.98484 199.781
10.0296 366.573
10.0744 855.096
10.1192 1799.36
10.164 1548.23
10.2088 355.751
10.2536 122.002
10.2984 110.044
10.3432 109.139
10.388 105.897
10.4328 124.789
10.4776 165.958
10.5224 293.088
10.5672 513.731
10.612 491.447
10.6568 193.723
10.7017 94.7513
10.7465 86.1285
10.7913 83.3878
10.8361 81.1971
10.8809 78.8983
10.9257 77.6925
10.9706 77.8286
11.0154 75.1213
11.0602 72.8595
11.105 71.5472
11.1499 72.4025
11.1947 75.1863
11.2395 70.5741
11.2844 68.6907
11.3292 67.1414
11.374 66.0221
11.4189 65.4016
11.4637 64.7616
11.5086 64.6881
11.5534 65.7653
11.5983 64.26
11.6431 63.5263
11.688 62.9168
11.7328 62.8434
11.7777 62.6455
11.8225 62.603
11.8674 62.0201
11.9122 62.6071
11.9571 63.0908
12.002 64.589
12.0468 69.5386
12.0917 79.6968
12.1366 105.726
12.1814 155.649
12.2263 204.43
12.2712 155.686
12.3161 87.4752
12.3609 67.1166
12.4058 64.1232
12.4507 64.1346
12.4956 64.5367
12.5405 64.9156
12.5853 65.2227
12.6302 68.7454
12.6751 71.5005
12.72 68.3304
12.7649 67.8078
12.8098 68.3783
12.8547 69.7719
12.8996 71.3594
12.9445 72.8388
12.9894 74.6102
13.0343 76.3149
13.0792 80.6991
13.1242 93.8424
13.1691 114.743
13.214 153.676
13.2589 249.791
13.3038 382.242
13.3487 416.419
13.3937 249.848
13.4386 120.656
13.4835 108.734
13.5285 123.356
13.5734 165.258
13.6183 259.373
13.6633 358.956
13.7082 328.122
13.7531 172.509
13.7981 93.7053
13.843 81.4367
13.888 79.5774
13.9329 77.1965
13.9779 75.5755
14.0228 74.1927
14.0678 73.1523
14.1127 72.2829
14.1577 71.8187
14.2027 71.2708
14.2476 70.6183
14.2926 70.1077
14.3376 70.4675
14.3825 69.8504
14.4275 69.0298
14.4725 68.7836
14.5175 68.8326
14.5624 69.024
14.6074 70.2812
14.6524 70.5551
14.6974 70.6238
14.7424 74.1872
14.7874 80.5626
14.8324 90.6007
14.8774 114.437
14.9224 159.733
14.9674 212.462
15.0124 215.898
15.0574 139.486
15.1024 86.5994
15.1474 71.9611
15.1924 70.3023
15.2374 69.5715
15.2824 69.0319
15.3274 67.5978
15.3725 66.8779
15.4175 66.2971
15.4625 65.8708
15.5076 66.0291
15.5526 66.0147
15.5976 66.2057
15.6426 68.6763
15.6877 73.6595
15.7327 81.0338
15.7778 97.1878
15.8228 130.446
15.8679 174.783
15.9129 195.306
15.958 149.073
16.003 91.2332
16.0481 66.2765
16.0931 63.1676
16.1382 61.5174
16.1833 60.2564
16.2283 58.5532
16.2734 58.1359
16.3185 58.0069
16.3636 57.9163
16.4086 56.7665
16.4537 56.0506
16.4988 55.333
16.5439 55.4305
16.589 54.9347
16.6341 54.7386
16.6792 54.4072
16.7243 54.8409
16.7694 54.7359
16.8145 54.6158
16.8596 54.7529
16.9047 55.8015
16.9498 55.7766
16.9949 55.4057
17.04 55.9988
17.0851 57.2733
17.1302 58.8091
17.1754 62.0294
17.2205 67.4627
17.2656 75.3634
17.3108 83.3067
17.3559 81.2451
17.401 69.9474
17.4462 61.3521
17.4913 59.1539
17.5365 59.0549
17.5815 59.0836
17.6268 59.4857
17.6718 60.2144
17.7171 60.7263
17.7622 61.5129
17.8074 62.706
17.8525 65.5787
17.8977 68.7862
17.9428 74.4896
17.9881 83.964
18.0331 102.671
18.0784 125.555
18.1237 142.19
18.1688 130.651
18.214 100.815
18.2591 86.0001
18.3044 91.4341
18.3495 101.26
18.3948 105.947
18.4399 93.9718
18.4852 75.0123
18.5303 64.9861
18.5756 61.695
18.6207 61.1042
18.666 60.0618
18.7112 59.671
18.7565 58.9046
18.8016 58.5839
18.8469 57.9561
18.892 57.8531
18.9374 57.2217
18.9825 57.0442
19.0278 56.7824
19.073 57.0175
19.1183 57.5154
19.1635 57.8327
19.2088 59.4934
19.254 62.6206
19.2993 67.4415
19.3447 73.1578
19.3898 76.1095
19.4352 70.8672
19.4804 61.9564
19.5257 56.2431
19.5709 54.2025
19.6163 53.7086
19.6615 53.6918
19.7068 53.2004
19.752 53.3115
19.7974 53.4358
19.8426 54.6135
19.888 55.096
19.9332 56.3223
19.9786 59.2293
20.0238 63.1047
20.0692 67.6797
20.1144 69.9733
20.1598 67.6474
20.205 63.1044
20.2504 62.3452
20.2957 64.1742
20.3411 65.6023
20.3863 63.4841
20.4318 57.6407
20.477 52.7896
20.5224 50.9386
20.5677 50.8124
20.6131 50.0897
20.6586 49.6148
20.7038 49.4443
20.7493 48.8333
20.7945 48.7859
20.84 48.792
20.8853 48.6587
20.9307 48.5875
20.976 48.7687
21.0215 48.5606
21.0668 48.9802
21.1122 49.5373
21.1575 50.0858
21.203 50.9363
21.2483 51.4482
21.2938 51.427
21.3391 49.6152
21.3846 48.7306
21.4299 48.2193
21.4754 48.2312
21.5207 48.6884
21.5662 48.9999
21.6116 49.4309
21.6571 49.9924
21.7024 51.1538
21.7479 52.9973
21.7933 55.7784
21.8388 59.4903
21.8843 63.3174
21.9297 64.8996
21.9752 62.7037
22.0206 58.9226
22.0661 56.1155
22.1115 55.9022
22.157 55.8682
22.2024 53.861
22.248 50.9637
22.2933 49.5532
22.3389 48.8601
22.3843 48.8004
22.4299 48.7372
22.4753 48.7133
22.5208 48.5399
22.5662 48.5228
22.6118 48.7933
22.6572 49.0077
22.7028 49.3153
22.7483 49.7604
22.7939 50.6714
22.8393 52.1118
22.8849 54.3498
22.9303 56.3935
22.9759 58.1154
23.0214 57.1409
23.067 54.0007
23.1126 50.6169
23.1581 49.176
23.2037 48.8207
23.2492 48.9822
23.2948 48.7811
23.3403 49.2231
23.3859 49.8214
23.4314 50.9425
23.477 52.9192
23.5225 55.2176
23.5682 57.2771
23.6137 57.7714
23.6593 54.8358
23.7048 51.0047
23.7505 47.7686
23.796 46.4208
23.8417 45.842
23.8872 45.5131
23.9329 45.2867
23.9784 44.7587
24.0241 44.6775
24.0697 44.3796
24.1154 43.8919
24.1609 43.8862
24.2066 43.6451
24.2522 43.6443
24.2979 43.2194
24.3434 43.1526
24.3892 43.0994
24.4349 43.057
24.4805 42.8366
24.5262 43.0984
24.5718 42.8404
24.6175 42.9001
24.6631 42.8788
24.7089 42.4879
24.7545 42.2344
24.8002 42.17
24.8458 42.2969
24.8916 42.0897
24.9372 42.3221
24.983 42.5861
25.0286 43.0007
25.0744 43.4189
25.12 43.85
25.1658 44.582
25.2114 44.6198
25.2572 44.8902
25.3029 44.7463
25.3487 44.8587
25.3943 44.4752
25.4402 43.383
25.4858 42.1883
25.5316 41.3121
25.5773 40.8242
25.6231 40.7567
25.669 40.5839
25.7147 40.6132
25.7605 40.3288
25.8062 40.449
25.8521 40.6835
25.8977 40.6361
25.9436 40.9285
25.9893 41.0217
26.0352 41.5319
26.0809 41.675
26.1268 41.6405
26.1725 41.1629
26.2184 40.8063
26.2641 40.2303
26.31 40.0316
26.3557 40.0969
26.4017 40.1148
26.4474 40.4119
26.4933 40.818
26.5391 41.2026
26.585 41.6809
26.6308 42.1025
26.6767 42.0876
26.7225 41.8953
26.7684 41.2706
26.8142 40.7694
26.8601 40.3135
26.9059 39.9319
26.9519 39.44
26.9979 39.1265
27.0437 38.7497
27.0896 38.6949
27.1354 38.5835
27.1814 38.6462
27.2272 38.5543
27.2732 38.4478
27.3191 38.3134
27.3651 38.5041
27.4109 38.4555
27.4569 38.529
27.5027 38.4959
27.5488 38.5858
27.5946 38.2482
27.6407 38.0966
27.6865 37.9566
27.7326 37.7487
27.7784 37.8419
27.8245 37.9011
27.8703 37.9241
27.9164 38.2691
27.9623 38.4441
28.0084 38.7673
28.0543 39.1166
28.1003 38.9876
28.1462 38.7654
28.1923 38.3902
28.2384 37.8776
28.2843 37.4887
28.3304 36.9535
28.3764 36.6673
28.4225 36.2494
28.4684 36.2107
28.5145 35.839
28.5605 35.9085
28.6066 35.5503
28.6526 35.4317
28.6987 35.591
28.7447 35.4884
28.7908 35.3456
28.8368 35.3658
28.8829 35.4019
28.9289 35.3465
28.9751 35.1054
29.0211 34.7896
29.0673 34.5446
29.1133 34.4292
29.1595 34.3298
29.2055 34.2622
29.2517 34.3154
29.2977 34.2675
29.3439 34.2769
29.3899 34.1833
29.4361 34.1631
29.4824 33.8333
29.5284 33.5955
29.5746 33.2821
29.6207 33.0963
29.6669 33.0419
29.713 32.941
29.7593 32.8291
29.8053 32.8696
29.8516 32.6773
29.8977 32.7261
29.9439 32.5905
29.99 32.5446
30.0363 32.4807
30.0824 32.4828
30.1287 32.3504
30.1748 32.3512
30.2211 32.4644
30.2673 32.0811
30.3136 32.3325
30.3597 32.0748
30.406 32.1134
30.4522 32.0517
30.4985 31.9193
30.5447 32.1628
30.591 32.1683
30.6372 32.2426
30.6835 32.06
30.7297 32.2076
30.7761 32.1633
30.8224 31.9005
30.8686 31.8676
30.915 31.5362
30.9612 31.4899
31.0076 31.31
31.0538 31.0812
31.1002 31.1375
31.1464 30.9959
31.1928 30.8415
31.2391 30.8967
31.2855 30.7852
31.3317 30.803
31.3781 30.9145
31.4244 30.8995
31.4708 30.7161
31.5171 30.6493
31.5636 30.7089
31.6098 30.5279
31.6563 30.2168
31.7026 30.1956
31.7491 30.0059
31.7953 30.1006
31.8418 30.0735
31.8881 30.12
31.9346 29.9307
31.9809 29.9418
32.0275 29.8465
32.074 29.7401
32.1203 29.4754
32.1668 29.4216
32.2132 29.2619
32.2597 29.1753
32.306 29.1366
32.3526 28.9524
32.399 28.9226
32.4455 28.8303
32.4919 28.6495
32.5385 28.5957
32.5848 28.4477
32.6314 28.4207
32.6778 28.4384
32.7244 28.247
32.7708 28.0894
32.8174 28.1078
32.8638 28.0435
32.9104 28.103
32.9569 28.1083
33.0035 27.8133
33.0499 27.7875
33.0966 27.7808
33.143 27.7411
33.1897 27.6903
33.2361 27.5097
33.2828 27.5774
33.3293 27.36
33.3759 27.3837
33.4226 27.1595
33.4691 26.9916
33.5158 26.9303
33.5623 26.8475
33.609 26.7134
33.6555 26.6826
33.7022 26.5615
33.7487 26.4392
33.7954 26.4009
33.842 26.2845
33.8887 26.2156
33.9353 26.2914
33.982 26.1035
34.0286 26.0433
34.0753 25.9977
34.1219 25.8628
34.1687 25.8172
34.2152 25.7231
34.262 25.6149
34.3086 25.4817
34.3554 25.5033
34.402 25.3621
34.4488 25.1739
34.4954 25.1745
34.5422 25.1821
34.5889 25.0206
34.6357 24.9626
34.6825 24.8859
34.7292 24.7717
34.776 24.7506
34.8227 24.6708
34.8695 24.6327
34.9162 24.5919
34.9631 24.5121
35.0098 24.4723
35.0566 24.2547
35.1033 24.1966
35.1502 24.2362
35.1969 24.2355
35.2438 24.1213
35.2906 24.0702
35.3375 23.9672
35.3842 23.9562
35.4311 23.9803
35.4779 23.9133
35.5248 23.9051
35.5716 23.6569
35.6185 23.6725
35.6653 23.5799
35.7123 23.4233
35.759 23.4142
35.806 23.3078
35.8528 23.2174
35.8998 23.1219
35.9468 23.0699
35.9936 23.0284
36.0406 22.9925
36.0874 22.9731
36.1345 22.8333
36.1813 22.7832
36.2283 22.6353
36.2752 22.6137
36.3222 22.5836
36.3691 22.5788
36.4161 22.3729
36.463 22.3911
36.5101 22.3673
36.557 22.3303
36.6041 22.0854
36.651 22.0605
36.6981 22.1275
36.745 22.0314
36.7921 21.9676
36.839 21.8125
36.8861 21.771
36.9331 21.6981
36.9802 21.5469
37.0272 21.5705
37.0743 21.5113
37.1213 21.3927
37.1684 21.395
37.2154 21.2634
37.2626 21.2393
37.3098 21.1383
37.3568 21.1287
37.404 21.0816
37.451 20.929
37.4982 20.9086
37.5452 20.7862
37.5924 20.7425
37.6395 20.8319
37.6867 20.7183
37.7337 20.5534
37.781 20.4684
37.8281 20.4364
37.8753 20.3141
37.9224 20.3028
37.9697 20.1859
38.0168 20.2026
38.064 20.078
38.1111 20.0269
38.1584 19.9036
38.2056 19.9363
38.2529 19.8554
38.3 19.7627
38.3473 19.7542
38.3945 19.6448
38.4418 19.5895
38.489 19.5337
38.5363 19.4715
38.5837 19.4263
38.6309 19.4247
38.6782 19.3045
38.7254 19.1793
38.7728 19.0872
38.82 19.0835
38.8674 19.0055
38.9146 19.0326
38.9621 18.9077
39.0093 18.9243
39.0567 18.8294
39.104 18.8101
39.1514 18.6927
39.1987 18.6176
39.2461 18.6226
39.2934 18.5568
39.3409 18.438
39.3882 18.3642
39.4356 18.3375
39.483 18.2871
39.5304 18.1782
39.5778 18.1649
39.6253 18.0881
39.6726 18.0387
39.7201 18.0167
39.7675 17.9694
39.815 17.91
39.8624 17.8068
39.9099 17.8074
39.9575 17.7301
40.0049 17.643
40.0525 17.5983
40.0999 17.6061
40.1474 17.5171
40.1949 17.4133
40.2425 17.3304
40.2899 17.333
40.3375 17.2711
40.385 17.196
40.4326 17.1303
40.48 17.0878
40.5277 17.0804
40.5752 16.9912
40.6228 16.94
40.6703 16.8331
40.718 16.8451
40.7655 16.8222
40.8132 16.7353
40.8607 16.6709
40.9084 16.6509
40.9559 16.5713
41.0036 16.5234
41.0512 16.4561
41.0989 16.4157
41.1465 16.3608
41.1942 16.321
41.242 16.2229
41.2896 16.1873
41.3373 16.139
41.3849 16.1078
41.4327 16.0605
41.4803 15.9412
41.5281 15.9631
41.5758 15.8797
41.6236 15.7937
41.6712 15.7873
41.7191 15.6932
41.7667 15.6649
41.8146 15.6658
41.8622 15.5911
41.9101 15.5751
41.9578 15.4462
42.0057 15.3925
42.0534 15.3377
42.1013 15.3217
42.149 15.2357
42.1969 15.2042
42.2446 15.1608
42.2925 15.1553
42.3403 15.0612
42.3882 15.0414
42.436 14.9445
42.4839 14.9452
42.5319 14.8699
42.5797 14.7913
42.6277 14.7465
42.6755 14.6915
42.7235 14.6827
42.7713 14.6288
42.8193 14.5648
42.8671 14.5131
42.9152 14.4435
42.963 14.4114
43.0111 14.3579
43.0589 14.2856
43.107 14.2497
43.1549 14.1983
43.2029 14.1877
43.2508 14.0943
43.2989 14.0638
43.3468 13.9741
43.3949 13.932
43.4429 13.9061
43.491 13.8021
43.5389 13.8253
43.5871 13.7702
43.635 13.715
43.6832 13.604
43.7312 13.5806
43.7793 13.5653
43.8273 13.5124
43.8755 13.5054
43.9237 13.5288
43.9717 13.3892
44.0199 13.3138
44.068 13.3533
44.1162 13.2414
44.1642 13.2506
44.2125 13.2222
44.2606 13.1266
44.3088 13.0977
44.3569 13.0103
44.4052 13.0082
44.4533 12.9142
44.5016 12.876
44.5497 12.8648
44.598 12.8057
44.6461 12.7567
44.6945 12.7363
44.7426 12.6941
44.791 12.5816
44.8391 12.5938
44.8875 12.526
44.9357 12.5075
44.984 12.4338
45.0322 12.4392
45.0806 12.3375
45.1288 12.2947
45.1773 12.2851
45.2257 12.2127
45.2739 12.1863
45.3224 12.0994
45.3706 12.1181
45.4191 12.0189
45.4673 12.0675
45.5158 11.963
45.5641 11.9291
45.6126 11.9228
45.6609 11.8298
45.7094 11.7909
45.7577 11.7391
45.8063 11.6594
45.8546 11.671
45.9031 11.6041
45.9515 11.5865
46.0001 11.5255
46.0484 11.4834
46.097 11.4702
46.1454 11.4672
46.194 11.3674
46.2424 11.3411
46.291 11.3013
46.3395 11.2348
46.3881 11.2033
46.4365 11.196
46.4852 11.1748
46.5337 11.1005
46.5823 11.081
46.631 11.0082
46.6795 11.0132
46.7282 10.9536
46.7767 10.856
46.8254 10.8402
46.8739 10.7993
46.9226 10.7428
46.9712 10.7406
47.0199 10.688
47.0685 10.6419
47.1173 10.6048
47.1658 10.6112
47.2146 10.499
47.2632 10.4514
47.312 10.4509
47.3606 10.4043
47.4095 10.3717
47.4581 10.3461
47.5069 10.267
47.5556 10.259
47.6044 10.2414
47.6531 10.1847
47.702 10.1476
47.7507 10.1004
47.7996 10.0624
47.8483 10.0217
47.8972 10.0188
47.9461 9.97462
47.9948 9.91252
48.0438 9.90759
48.0925 9.86116
48.1415 9.83481
48.1902 9.77529
48.2392 9.80881
48.288 9.73191
48.337 9.71178
48.3858 9.62904
48.4348 9.60402
48.4837 9.59859
48.5327 9.54436
48.5815 9.50861
48.6306 9.4998
48.6795 9.43799
48.7285 9.399
48.7774 9.4144
48.8265 9.33517
48.8754 9.2575
48.9245 9.26475
48.9734 9.25365
49.0226 9.19697
49.0715 9.16103
49.1206 9.13253
49.1696 9.09622
49.2188 9.09549
49.2679 9.01367
49.3169 9.00712
49.3661 8.9503
49.4151 8.89909
49.4643 8.88698
49.5134 8.8251
49.5626 8.80083
49.6117 8.78311
49.6609 8.75956
49.71 8.68319
49.7592 8.68616
49.8083 8.61938
49.8576 8.62509
49.9067 8.56534
49.956 8.56143
50.0052 8.52449
50.0545 8.45271
50.1036 8.45142
50.153 8.427
50.2022 8.41475
50.2515 8.35906
50.3007 8.30115
50.3501 8.27555
50.3993 8.2454
50.4487 8.22803
50.498 8.17042
50.5474 8.18265
50.5966 8.13798
50.6461 8.0704
50.6955 8.05946
50.7448 8.05636
50.7943 8.00085
50.8436 7.99074
50.8931 7.92976
50.9424 7.90291
50.9919 7.87913
51.0413 7.883
51.0908 7.82478
51.1402 7.82276
51.1897 7.76385
51.2391 7.71425
51.2887 7.67469
51.3381 7.66754
51.3877 7.64563
51.4371 7.57554
51.4867 7.52495
51.5362 7.55254
51.5858 7.48853
51.6353 7.45527
51.6849 7.42228
51.7344 7.41167
51.7841 7.39912
51.8336 7.37015
51.8833 7.33743
51.9328 7.26612
51.9826 7.26215
52.0323 7.19939
52.0818 7.20472
52.1316 7.15747
52.1812 7.1474
52.231 7.16539
52.2806 7.10023
52.3304 7.05333
52.38 7.03675
52.4298 7.02197
52.4794 6.99409
52.5293 6.92696
52.5789 6.8928
52.6288 6.89971
52.6785 6.86585
52.7284 6.81399
52.7781 6.78645
52.828 6.74449
52.8777 6.7337
52.9276 6.70281
52.9774 6.68684
53.0273 6.60595
53.0771 6.59793
53.1271 6.61641
53.1769 6.55088
53.2269 6.51772
53.2767 6.52328
53.3267 6.508
53.3765 6.48067
53.4266 6.45573
53.4766 6.34734
53.5265 6.37522
53.5765 6.38717
53.6264 6.27102
53.6765 6.30159
53.7264 6.23211
53.7765 6.23911
53.8265 6.20371
53.8766 6.1938
53.9266 6.16769
53.9767 6.10684
54.0267 6.11148
54.0769 6.08399
54.1269 6.03387
54.1771 6.01106
54.2271 6.02621
54.2773 5.91652
54.3274 5.94862
54.3776 5.88498
54.4277 5.81817
54.478 5.82458
54.528 5.82019
54.5783 5.73577
54.6285 5.69729
54.6788 5.68397
54.7289 5.6586
54.7792 5.6038
54.8296 5.5017
54.8798 5.51789
54.9301 5.471
54.9803 5.49027
55.0307 5.39491
55.0809 5.38066
55.1314 5.35471
55.1816 5.24619
55.232 5.19156
55.2823 5.19014
55.3328 5.1233
55.383 5.05299
55.4335 5.06834
55.4838 5.01148
55.5344 4.98012
55.5847 4.94085
55.6352 4.92064
55.6856 4.82152
55.7361 4.79558