File: XRD/Ni3Fe_FD0202.xy
TT I
1.27165 8.41769
1.31627 7.29989
1.36089 7.47687
1.40551 7.44313
1.45013 6.67253
1.49476 6.65447
1.53938 7.14929
1.584 5.93648
1.62863 6.10429
1.67325 5.91161
1.71787 5.30807
1.7625 4.81811
1.80712 5.42948
1.85174 5.1382
1.89636 5.16198
1.94099 5.39266
1.98562 5.14187
2.03025 4.78453
2.07487 4.66379
2.11949 4.82358
2.16411 4.91211
2.20874 5.01023
2.25338 4.4266
2.298 4.19415
2.34263 4.20366
2.38725 4.04141
2.43188 4.03881
2.4765 4.57647
2.52115 4.526
2.56577 5.13181
2.6104 5.5607
2.65503 5.7595
2.69965 5.47962
2.7443 6.19067
2.78893 7.0208
2.83356 6.77888
2.87818 7.4747
2.92281 8.48028
2.96744 9.16138
3.01209 10.7089
3.05672 10.9082
3.10135 11.8587
3.14599 13.0031
3.19062 14.2908
3.23527 15.4078
3.2799 16.0236
3.32454 16.7355
3.36917 18.0998
3.4138 19.3063
3.45844 19.6309
3.50309 20.9435
3.54773 21.7612
3.59237 22.7238
3.637 23.5383
3.68164 23.8429
3.7263 25.6695
3.77094 25.9522
3.81558 27.0201
3.86022 27.6155
3.90486 29.5466
3.9495 30.17
3.99416 31.1848
4.0388 32.6109
4.08344 33.7872
4.12809 35.4588
4.17273 36.8778
4.21738 38.0611
4.26204 39.6797
4.30669 40.7921
4.35133 42.5599
4.39598 44.277
4.44063 46.5374
4.4853 48.6987
4.52995 51.119
4.5746 53.6511
4.61925 56.196
4.6639 57.6519
4.70855 61.447
4.75322 64.7182
4.79788 67.8973
4.84253 71.9017
4.88719 76.614
4.93184 82.2994
4.97652 89.1213
5.02118 97.4194
5.06583 108.818
5.11049 125.758
5.15515 170.343
5.19981 889.416
5.24449 3956.73
5.28916 10279.4
5.33382 4550.65
5.37848 302.211
5.42315 157.21
5.46783 130.225
5.5125 119.155
5.55716 113.842
5.60183 108.045
5.6465 105.984
5.69117 104.111
5.73586 102.06
5.78053 101.535
5.8252 101.668
5.86988 104.83
5.91455 112.127
5.95924 135.484
6.00392 442.658
6.0486 1442.79
6.09328 3483.27
6.13795 3801.1
6.18263 409.002
6.22733 112.829
6.27201 90.666
6.3167 82.048
6.36138 77.0068
6.40606 73.0768
6.45075 71.0965
6.49545 68.6081
6.54014 66.9688
6.58483 65.6878
6.62952 64.1944
6.67421 62.9324
6.71892 61.5274
6.76361 61.1192
6.8083 59.7035
6.853 59.3651
6.89769 58.7337
6.94239 58.547
6.98711 57.4985
7.03181 57.3324
7.07651 57.1601
7.12121 56.4079
7.16591 56.6067
7.21063 55.8946
7.25533 55.9823
7.30004 56.1425
7.34475 56.1634
7.38945 56.1208
7.43416 55.5916
7.47889 55.7966
7.5236 58.072
7.56831 59.6149
7.61303 57.548
7.65774 57.2242
7.70247 58.295
7.74719 58.4125
7.79191 59.0168
7.83663 59.5127
7.88135 60.7312
7.92607 61.3086
7.97081 62.7198
8.01553 63.8346
8.06026 65.3744
8.10498 67.0395
8.14971 68.761
8.19446 70.647
8.23919 73.5355
8.28392 76.7309
8.32865 79.5511
8.37339 85.0772
8.41812 91.6289
8.46288 110.29
8.50761 287.395
8.55235 602.622
8.59709 1027.48
8.64183 1901.33
8.68658 1282.81
8.73134 247.842
8.77609 112.927
8.82083 100.861
8.86558 96.8577
8.91033 93.3362
8.9551 90.7263
8.99985 89.7058
9.04461 88.9909
9.08936 88.1946
9.13412 87.7252
9.17888 87.1355
9.22365 89.685
9.26841 91.4243
9.31318 89.2799
9.35794 88.711
9.4027 88.6356
9.44749 89.3631
9.49226 90.2294
9.53703 91.1644
9.5818 92.9487
9.62657 94.2588
9.67134 96.0271
9.71614 98.1568
9.76091 100.293
9.80569 104.073
9.85047 107.056
9.89525 113.544
9.94005 134.351
9.98484 301.883
10.0296 531.817
10.0744 776.661
10.1192 1394.57
10.164 1769.85
10.2088 632.881
10.2536 156.405
10.2984 118.658
10.3432 114.03
10.388 114.522
10.4328 159.215
10.4776 216.633
10.5224 275.676
10.5672 427.904
10.612 540.188
10.6568 274.004
10.7017 111.412
10.7465 93.4427
10.7913 88.6039
10.8361 85.8734
10.8809 83.1825
10.9257 80.9614
10.9706 79.7263
11.0154 77.8597
11.0602 76.5052
11.105 75.5203
11.1499 73.475
11.1947 72.715
11.2395 71.6118
11.2844 71.1958
11.3292 70.0672
11.374 69.2509
11.4189 68.9475
11.4637 68.1459
11.5086 67.7214
11.5534 66.755
11.5983 66.7146
11.6431 66.3675
11.688 65.9912
11.7328 65.7576
11.7777 65.5916
11.8225 65.5386
11.8674 65.8191
11.9122 66.6331
11.9571 67.7925
12.002 69.2429
12.0468 79.8851
12.0917 95.9505
12.1366 108.197
12.1814 136.421
12.2263 185.453
12.2712 186.388
12.3161 106.951
12.3609 70.9023
12.4058 67.7191
12.4507 67.8241
12.4956 67.4504
12.5405 67.781
12.5853 68.442
12.6302 68.5073
12.6751 69.1861
12.72 69.9872
12.7649 71.1847
12.8098 72.1765
12.8547 73.3962
12.8996 74.7817
12.9445 76.5464
12.9894 78.9516
13.0343 80.9627
13.0792 86.3681
13.1242 109.335
13.1691 150.66
13.214 176.608
13.2589 224.476
13.3038 308.279
13.3487 411.635
13.3937 325.51
13.4386 157.223
13.4835 135.061
13.5285 156.547
13.5734 173.72
13.6183 220.018
13.6633 302.125
13.7082 359.828
13.7531 238.27
13.7981 115.725
13.843 87.9397
13.888 84.73
13.9329 81.8002
13.9779 80.7636
14.0228 78.7082
14.0678 77.5327
14.1127 76.857
14.1577 76.5097
14.2027 75.5693
14.2476 74.6458
14.2926 73.8724
14.3376 73.5523
14.3825 73.2425
14.4275 72.5943
14.4725 72.709
14.5175 73.1824
14.5624 73.0572
14.6074 73.3117
14.6524 73.9121
14.6974 74.9847
14.7424 80.3269
14.7874 96.0146
14.8324 108.466
14.8774 119.012
14.9224 142.676
14.9674 180.526
15.0124 220.459
15.0574 178.022
15.1024 106.229
15.1474 77.8973
15.1924 74.2855
15.2374 72.7875
15.2824 71.7857
15.3274 70.7612
15.3725 70.5246
15.4175 70.3658
15.4625 69.828
15.5076 69.5249
15.5526 69.906
15.5976 70.0195
15.6426 74.3959
15.6877 86.9717
15.7327 96.4797
15.7778 103.771
15.8228 120.375
15.8679 148.986
15.9129 184.641
15.958 179.725
16.003 118.904
16.0481 75.5939
16.0931 66.7133
16.1382 64.4981
16.1833 63.3604
16.2283 61.9943
16.2734 61.354
16.3185 60.5199
16.3636 59.9564
16.4086 59.0331
16.4537 58.7026
16.4988 58.2811
16.5439 58.259
16.589 57.8864
16.6341 57.7604
16.6792 57.3578
16.7243 57.6849
16.7694 57.4454
16.8145 57.2514
16.8596 57.5916
16.9047 57.9366
16.9498 57.9096
16.9949 58.3447
17.04 59.3958
17.0851 62.1059
17.1302 64.133
17.1754 65.8172
17.2205 68.7767
17.2656 73.2868
17.3108 81.0844
17.3559 85.1592
17.401 78.1042
17.4462 67.8017
17.4913 62.7404
17.5365 62.2694
17.5815 62.7736
17.6268 62.6954
17.6718 63.1809
17.7171 64.0879
17.7622 64.9571
17.8074 66.5438
17.8525 72.2715
17.8977 78.8325
17.9428 83.6241
17.9881 88.0648
18.0331 98.1121
18.0784 112.585
18.1237 136.145
18.1688 145.679
18.214 122.069
18.2591 95.3514
18.3044 90.0712
18.3495 95.8294
18.3948 105.62
18.4399 102.878
18.4852 85.6113
18.5303 71.2309
18.5756 66.0106
18.6207 64.5859
18.666 63.5481
18.7112 62.8112
18.7565 62.3034
18.8016 61.9295
18.8469 61.2345
18.892 61.1356
18.9374 60.4186
18.9825 60.1778
19.0278 59.653
19.073 60.5191
19.1183 61.6919
19.1635 62.5639
19.2088 63.169
19.254 64.6208
19.2993 67.1448
19.3447 70.6019
19.3898 75.7504
19.4352 76.6081
19.4804 69.5919
19.5257 61.3055
19.5709 57.5242
19.6163 56.9071
19.6615 56.8497
19.7068 56.2337
19.752 56.1034
19.7974 57.1025
19.8426 58.7078
19.888 59.2629
19.9332 59.786
19.9786 61.3474
20.0238 63.7467
20.0692 67.9245
20.1144 72.2829
20.1598 73.4383
20.205 68.6054
20.2504 64.5611
20.2957 64.1555
20.3411 66.5874
20.3863 67.5949
20.4318 63.4254
20.477 57.5487
20.5224 54.2873
20.5677 53.2616
20.6131 52.7739
20.6586 52.325
20.7038 52.0425
20.7493 51.6294
20.7945 51.4559
20.84 51.4171
20.8853 51.3183
20.9307 51.3108
20.976 51.6857
21.0215 51.4553
21.0668 51.75
21.1122 51.9407
21.1575 52.3682
21.203 52.6713
21.2483 53.5152
21.2938 54.2551
21.3391 53.2436
21.3846 52.042
21.4299 51.0729
21.4754 51.0328
21.5207 51.4038
21.5662 51.9243
21.6116 52.9885
21.6571 53.9862
21.7024 54.6583
21.7479 55.5148
21.7933 57.2301
21.8388 59.8447
21.8843 63.0517
21.9297 66.2712
21.9752 67.1019
22.0206 63.8375
22.0661 59.0265
22.1115 57.5693
22.157 58.2698
22.2024 57.6088
22.248 55.2204
22.2933 52.9165
22.3389 51.5206
22.3843 51.4712
22.4299 51.0642
22.4753 51.1756
22.5208 51.0086
22.5662 51.0998
22.6118 51.5249
22.6572 52.1074
22.7028 52.7077
22.7483 53.0158
22.7939 53.2717
22.8393 54.1825
22.8849 55.2864
22.9303 56.7182
22.9759 58.9661
23.0214 59.8591
23.067 58.4038
23.1126 54.9706
23.1581 52.3183
23.2037 51.5194
23.2492 51.9525
23.2948 52.3137
23.3403 52.6054
23.3859 52.7721
23.4314 53.2821
23.477 54.2031
23.5225 55.4548
23.5682 57.1712
23.6137 59.241
23.6593 58.8768
23.7048 55.685
23.7505 51.8258
23.796 49.4626
23.8417 48.5746
23.8872 48.0312
23.9329 47.6383
23.9784 47.3102
24.0241 46.8523
24.0697 46.6739
24.1154 46.3664
24.1609 46.1245
24.2066 46.0681
24.2522 45.8328
24.2979 45.6958
24.3434 45.3472
24.3892 45.3647
24.4349 45.1736
24.4805 45.1485
24.5262 45.2866
24.5718 45.038
24.6175 45.0738
24.6631 45.0527
24.7089 44.7764
24.7545 44.558
24.8002 44.5083
24.8458 44.5521
24.8916 44.3977
24.9372 44.5641
24.983 44.7982
25.0286 45.1017
25.0744 45.3721
25.12 45.535
25.1658 46.2629
25.2114 46.6347
25.2572 46.645
25.3029 46.495
25.3487 46.5824
25.3943 46.7751
25.4402 46.1925
25.4858 44.9654
25.5316 43.8149
25.5773 42.9915
25.6231 43.0621
25.669 42.7021
25.7147 42.6903
25.7605 42.6754
25.8062 42.6781
25.8521 42.7206
25.8977 42.5709
25.9436 42.705
25.9893 42.7529
26.0352 43.2083
26.0809 43.1897
26.1268 43.5546
26.1725 43.5484
26.2184 43.1899
26.2641 42.6464
26.31 42.382
26.3557 42.3527
26.4017 42.2618
26.4474 42.5597
26.4933 42.7455
26.5391 42.9113
26.585 43.2864
26.6308 43.7174
26.6767 43.9955
26.7225 44.1084
26.7684 43.4799
26.8142 42.9719
26.8601 42.3752
26.9059 42.1409
26.9519 41.6266
26.9979 41.3589
27.0437 40.8299
27.0896 40.666
27.1354 40.7155
27.1814 40.5773
27.2272 40.5186
27.2732 40.461
27.3191 40.3768
27.3651 40.3524
27.4109 40.1462
27.4569 40.2803
27.5027 40.3472
27.5488 40.4703
27.5946 40.3847
27.6407 40.2694
27.6865 40.1165
27.7326 39.883
27.7784 39.8757
27.8245 39.8131
27.8703 39.8521
27.9164 40.1189
27.9623 40.0476
28.0084 40.4208
28.0543 40.5722
28.1003 40.8364
28.1462 40.5951
28.1923 40.244
28.2384 39.868
28.2843 39.5474
28.3304 39.1495
28.3764 38.6679
28.4225 38.3912
28.4684 38.0642
28.5145 37.7259
28.5605 37.6273
28.6066 37.4895
28.6526 37.337
28.6987 37.3149
28.7447 37.1696
28.7908 36.9719
28.8368 37.0896
28.8829 37.0801
28.9289 36.9832
28.9751 36.8968
29.0211 36.7878
29.0673 36.4648
29.1133 36.3135
29.1595 36.1236
29.2055 35.9104
29.2517 35.9745
29.2977 35.7787
29.3439 35.8593
29.3899 35.838
29.4361 35.7951
29.4824 35.7045
29.5284 35.5357
29.5746 35.169
29.6207 34.8545
29.6669 34.755
29.713 34.6053
29.7593 34.4576
29.8053 34.5143
29.8516 34.3384
29.8977 34.2729
29.9439 34.1796
29.99 34.1982
30.0363 34.0349
30.0824 34.1018
30.1287 34.0693
30.1748 34.0142
30.2211 34.0446
30.2673 33.7775
30.3136 34.0172
30.3597 33.9278
30.406 33.7174
30.4522 33.643
30.4985 33.5922
30.5447 33.6812
30.591 33.6057
30.6372 33.7034
30.6835 33.6142
30.7297 33.7221
30.7761 33.6804
30.8224 33.5711
30.8686 33.4584
30.915 33.2573
30.9612 33.1253
31.0076 32.9246
31.0538 32.796
31.1002 32.6139
31.1464 32.542
31.1928 32.494
31.2391 32.5293
31.2855 32.3473
31.3317 32.3038
31.3781 32.4107
31.4244 32.3604
31.4708 32.3491
31.5171 32.2904
31.5636 32.3056
31.6098 32.0072
31.6563 31.8625
31.7026 31.8124
31.7491 31.6336
31.7953 31.5901
31.8418 31.5581
31.8881 31.5754
31.9346 31.5387
31.9809 31.3934
32.0275 31.3764
32.074 31.2312
32.1203 30.9792
32.1668 30.9907
32.2132 30.8829
32.2597 30.7188
32.306 30.6772
32.3526 30.322
32.399 30.3173
32.4455 30.2485
32.4919 30.1205
32.5385 30.087
32.5848 29.8156
32.6314 29.8179
32.6778 29.79
32.7244 29.6595
32.7708 29.5392
32.8174 29.6025
32.8638 29.519
32.9104 29.4692
32.9569 29.2945
33.0035 29.2257
33.0499 29.2171
33.0966 29.2064
33.143 29.0951
33.1897 29.0122
33.2361 28.9337
33.2828 28.8891
33.3293 28.6945
33.3759 28.777
33.4226 28.5954
33.4691 28.4343
33.5158 28.3865
33.5623 28.3045
33.609 28.089
33.6555 27.9713
33.7022 27.9251
33.7487 27.8541
33.7954 27.803
33.842 27.5925
33.8887 27.5968
33.9353 27.5856
33.982 27.4736
34.0286 27.3169
34.0753 27.2376
34.1219 27.2503
34.1687 27.031
34.2152 27.0522
34.262 26.8532
34.3086 26.7928
34.3554 26.7461
34.402 26.6594
34.4488 26.4963
34.4954 26.5393
34.5422 26.3676
34.5889 26.3257
34.6357 26.2823
34.6825 26.1523
34.7292 26.0253
34.776 25.9259
34.8227 25.9277
34.8695 25.8249
34.9162 25.7873
34.9631 25.6806
35.0098 25.6982
35.0566 25.5547
35.1033 25.5219
35.1502 25.4813
35.1969 25.4296
35.2438 25.3187
35.2906 25.2334
35.3375 25.1757
35.3842 25.1465
35.4311 25.134
35.4779 25.075
35.5248 24.991
35.5716 24.9598
35.6185 24.8841
35.6653 24.7062
35.7123 24.7213
35.759 24.5802
35.806 24.5195
35.8528 24.3752
35.8998 24.3203
35.9468 24.1455
35.9936 24.2302
36.0406 24.1093
36.0874 24.1247
36.1345 23.9277
36.1813 23.9057
36.2283 23.8608
36.2752 23.795
36.3222 23.7676
36.3691 23.7767
36.4161 23.5303
36.463 23.6032
36.5101 23.5333
36.557 23.4023
36.6041 23.2819
36.651 23.2894
36.6981 23.2293
36.745 23.1088
36.7921 23.1254
36.839 22.9261
36.8861 22.8805
36.9331 22.7578
36.9802 22.6179
37.0272 22.6303
37.0743 22.5472
37.1213 22.5202
37.1684 22.4995
37.2154 22.369
37.2626 22.2606
37.3098 22.2304
37.3568 22.105
37.404 22.1821
37.451 22.0147
37.4982 21.9665
37.5452 21.8339
37.5924 21.7347
37.6395 21.8033
37.6867 21.7461
37.7337 21.5911
37.781 21.5467
37.8281 21.5104
37.8753 21.3139
37.9224 21.2996
37.9697 21.2917
38.0168 21.1536
38.064 21.0709
38.1111 21.1677
38.1584 21.0043
38.2056 20.9012
38.2529 20.8609
38.3 20.6887
38.3473 20.7532
38.3945 20.6035
38.4418 20.6533
38.489 20.5734
38.5363 20.4787
38.5837 20.4182
38.6309 20.3214
38.6782 20.321
38.7254 20.1632
38.7728 20.1089
38.82 20.0278
38.8674 19.9747
38.9146 19.8645
38.9621 19.9334
39.0093 19.8541
39.0567 19.7276
39.104 19.6669
39.1514 19.6052
39.1987 19.62
39.2461 19.495
39.2934 19.4832
39.3409 19.363
39.3882 19.3001
39.4356 19.2423
39.483 19.1732
39.5304 19.0983
39.5778 19.068
39.6253 19.0193
39.6726 19.0088
39.7201 18.9319
39.7675 18.8245
39.815 18.7648
39.8624 18.6825
39.9099 18.6756
39.9575 18.6093
40.0049 18.5913
40.0525 18.4245
40.0999 18.4221
40.1474 18.3933
40.1949 18.3267
40.2425 18.2199
40.2899 18.2675
40.3375 18.0994
40.385 18.1027
40.4326 18.1012
40.48 17.9425
40.5277 17.9545
40.5752 17.8278
40.6228 17.8059
40.6703 17.7084
40.718 17.6471
40.7655 17.6211
40.8132 17.5473
40.8607 17.5726
40.9084 17.4859
40.9559 17.3898
41.0036 17.3859
41.0512 17.2999
41.0989 17.2741
41.1465 17.1884
41.1942 17.1339
41.242 17.0102
41.2896 17.0145
41.3373 16.9276
41.3849 16.8779
41.4327 16.794
41.4803 16.7538
41.5281 16.7171
41.5758 16.6469
41.6236 16.6085
41.6712 16.5011
41.7191 16.4708
41.7667 16.4581
41.8146 16.3853
41.8622 16.3369
41.9101 16.2426
41.9578 16.1801
42.0057 16.1344
42.0534 16.0771
42.1013 16.0469
42.149 15.9977
42.1969 15.9246
42.2446 15.9007
42.2925 15.8269
42.3403 15.8258
42.3882 15.7438
42.436 15.6992
42.4839 15.6144
42.5319 15.599
42.5797 15.5363
42.6277 15.4731
42.6755 15.3784
42.7235 15.363
42.7713 15.3209
42.8193 15.2876
42.8671 15.2094
42.9152 15.1121
42.963 15.1292
43.0111 15.0924
43.0589 14.9653
43.107 14.9489
43.1549 14.8948
43.2029 14.8586
43.2508 14.791
43.2989 14.7338
43.3468 14.6709
43.3949 14.6393
43.4429 14.5857
43.491 14.5648
43.5389 14.5188
43.5871 14.4591
43.635 14.3901
43.6832 14.3212
43.7312 14.2806
43.7793 14.1995
43.8273 14.212
43.8755 14.1104
43.9237 14.0591
43.9717 14.088
44.0199 13.9807
44.068 13.965
44.1162 13.8976
44.1642 13.8782
44.2125 13.7703
44.2606 13.7426
44.3088 13.6856
44.3569 13.6982
44.4052 13.6239
44.4533 13.542
44.5016 13.5146
44.5497 13.4649
44.598 13.417
44.6461 13.3924
44.6945 13.3192
44.7426 13.2754
44.791 13.222
44.8391 13.1676
44.8875 13.1353
44.9357 13.0673
44.984 13.0516
45.0322 13.0181
45.0806 12.9597
45.1288 12.9282
45.1773 12.8489
45.2257 12.7714
45.2739 12.8143
45.3224 12.7534
45.3706 12.6882
45.4191 12.6254
45.4673 12.5959
45.5158 12.5681
45.5641 12.5015
45.6126 12.4209
45.6609 12.4333
45.7094 12.3984
45.7577 12.2906
45.8063 12.2466
45.8546 12.2861
45.9031 12.2014
45.9515 12.1504
46.0001 12.0733
46.0484 12.0576
46.097 12.0294
46.1454 11.9768
46.194 11.9333
46.2424 11.8952
46.291 11.8301
46.3395 11.8074
46.3881 11.7799
46.4365 11.722
46.4852 11.6845
46.5337 11.6246
46.5823 11.5821
46.631 11.5606
46.6795 11.4984
46.7282 11.4809
46.7767 11.4198
46.8254 11.2989
46.8739 11.3011
46.9226 11.2862
46.9712 11.2642
47.0199 11.1853
47.0685 11.1241
47.1173 11.1144
47.1658 11.0572
47.2146 11.0331
47.2632 10.9595
47.312 10.9577
47.3606 10.8795
47.4095 10.8664
47.4581 10.832
47.5069 10.7927
47.5556 10.7363
47.6044 10.6897
47.6531 10.6274
47.702 10.5703
47.7507 10.6249
47.7996 10.5655
47.8483 10.5269
47.8972 10.4846
47.9461 10.4591
47.9948 10.3826
48.0438 10.3313
48.0925 10.3816
48.1415 10.2968
48.1902 10.2241
48.2392 10.2218
48.288 10.2302
48.337 10.1931
48.3858 10.1003
48.4348 10.0765
48.4837 10.0429
48.5327 10.0369
48.5815 9.9509
48.6306 9.91914
48.6795 9.87974
48.7285 9.82818
48.7774 9.8254
48.8265 9.7693
48.8754 9.74329
48.9245 9.71162
48.9734 9.67776
49.0226 9.61782
49.0715 9.58192
49.1206 9.53626
49.1696 9.52553
49.2188 9.53937
49.2679 9.48729
49.3169 9.40753
49.3661 9.38441
49.4151 9.34891
49.4643 9.30612
49.5134 9.24813
49.5626 9.21673
49.6117 9.23118
49.6609 9.16936
49.71 9.09802
49.7592 9.09264
49.8083 9.03629
49.8576 9.05148
49.9067 8.96145
49.956 8.96456
50.0052 8.90301
50.0545 8.90109
50.1036 8.85061
50.153 8.84142
50.2022 8.78876
50.2515 8.72707
50.3007 8.71266
50.3501 8.68975
50.3993 8.61771
50.4487 8.60176
50.498 8.57655
50.5474 8.55368
50.5966 8.51105
50.6461 8.48704
50.6955 8.45329
50.7448 8.4634
50.7943 8.40097
50.8436 8.37755
50.8931 8.33478
50.9424 8.30849
50.9919 8.2827
51.0413 8.23604
51.0908 8.18958
51.1402 8.17829
51.1897 8.13879
51.2391 8.09154
51.2887 8.0719
51.3381 7.99046
51.3877 7.97586
51.4371 7.97294
51.4867 7.87818
51.5362 7.89556
51.5858 7.88352
51.6353 7.82931
51.6849 7.80488
51.7344 7.80649
51.7841 7.7184
51.8336 7.72943
51.8833 7.68468
51.9328 7.60778
51.9826 7.60148
52.0323 7.58342
52.0818 7.53042
52.1316 7.52983
52.1812 7.48783
52.231 7.45749
52.2806 7.40855
52.3304 7.35593
52.38 7.35887
52.4298 7.32854
52.4794 7.27058
52.5293 7.22975
52.5789 7.24094
52.6288 7.22252
52.6785 7.16034
52.7284 7.1755
52.7781 7.1175
52.828 7.09272
52.8777 7.0363
52.9276 7.01006
52.9774 6.98503
53.0273 6.9896
53.0771 6.96814
53.1271 6.93063
53.1769 6.85362
53.2269 6.86842
53.2767 6.81044
53.3267 6.78308
53.3765 6.74392
53.4266 6.76662
53.4766 6.70694
53.5265 6.61311
53.5765 6.65069
53.6264 6.6291
53.6765 6.59747
53.7264 6.56323
53.7765 6.55133
53.8265 6.51508
53.8766 6.45608
53.9266 6.45513
53.9767 6.39762
54.0267 6.38708
54.0769 6.37029
54.1269 6.33002
54.1771 6.26736
54.2271 6.28217
54.2773 6.20666
54.3274 6.16797
54.3776 6.13817
54.4277 6.08216
54.478 6.06095
54.528 6.02195
54.5783 5.94123
54.6285 5.8941
54.6788 5.85842
54.7289 5.78671
54.7792 5.80666
54.8296 5.7892
54.8798 5.71098
54.9301 5.68764
54.9803 5.64529
55.0307 5.63222
55.0809 5.54723
55.1314 5.51902
55.1816 5.41363
55.232 5.43271
55.2823 5.3796
55.3328 5.32886
55.383 5.2523
55.4335 5.22624
55.4838 5.17563
55.5344 5.15922
55.5847 5.02858
55.6352 5.02219
55.6856 5.04387
55.7361 5.02091