File: XRD/Ni3Fe_FD1028.xy
TT I
1.27165 6.84769
1.31627 6.26281
1.36089 6.32547
1.40551 6.00464
1.45013 5.43711
1.49476 5.24744
1.53938 5.24332
1.584 5.0165
1.62863 4.93772
1.67325 4.95348
1.71787 4.53287
1.7625 4.45711
1.80712 4.18036
1.85174 3.99787
1.89636 4.18015
1.94099 4.8132
1.98562 3.78594
2.03025 4.51531
2.07487 4.30017
2.11949 4.19908
2.16411 3.88505
2.20874 5.77979
2.25338 6.40776
2.298 5.13583
2.34263 5.45839
2.38725 5.7387
2.43188 6.04648
2.4765 7.61093
2.52115 7.72997
2.56577 7.61096
2.6104 8.38489
2.65503 8.46789
2.69965 8.72458
2.7443 8.31051
2.78893 8.54084
2.83356 8.75073
2.87818 8.84305
2.92281 8.84807
2.96744 10.2837
3.01209 10.3931
3.05672 11.6124
3.10135 12.2208
3.14599 12.6615
3.19062 14.6275
3.23527 14.6703
3.2799 14.885
3.32454 16.2869
3.36917 17.132
3.4138 18.3631
3.45844 18.6302
3.50309 20.0542
3.54773 20.3371
3.59237 21.2493
3.637 27.7458
3.68164 26.9617
3.7263 24.2535
3.77094 24.6206
3.81558 25.5019
3.86022 26.1181
3.90486 27.6751
3.9495 28.144
3.99416 29.301
4.0388 30.28
4.08344 31.9016
4.12809 32.3745
4.17273 33.8259
4.21738 35.2582
4.26204 52.3683
4.30669 57.3608
4.35133 40.8046
4.39598 40.9284
4.44063 43.3841
4.4853 46.0405
4.52995 46.8913
4.5746 48.3219
4.61925 50.2573
4.6639 52.49
4.70855 54.8573
4.75322 57.7998
4.79788 60.3794
4.84253 63.6978
4.88719 67.4844
4.93184 71.0615
4.97652 76.7774
5.02118 82.2802
5.06583 88.5772
5.11049 97.376
5.15515 117.145
5.19981 227.625
5.24449 2406.6
5.28916 13326.6
5.33382 3361.74
5.37848 224.435
5.42315 124.642
5.46783 108.307
5.5125 100.816
5.55716 97.0426
5.60183 92.3588
5.6465 90.6013
5.69117 89.1348
5.73586 87.1034
5.78053 86.6762
5.8252 85.6101
5.86988 86.4161
5.91455 88.1461
5.95924 94.2119
6.00392 160.028
6.0486 856.88
6.09328 4453.38
6.13795 3519.53
6.18263 249.492
6.22733 87.0682
6.27201 75.3351
6.3167 72.7869
6.36138 68.483
6.40606 64.6182
6.45075 63.0611
6.49545 61.3705
6.54014 59.9353
6.58483 58.5235
6.62952 57.7256
6.67421 58.3453
6.71892 64.271
6.76361 56.3445
6.8083 54.1515
6.853 53.6324
6.89769 53.0551
6.94239 52.5202
6.98711 52.2962
7.03181 51.7943
7.07651 51.7936
7.12121 51.3717
7.16591 51.2821
7.21063 50.8581
7.25533 51.2715
7.30004 61.8278
7.34475 56.1493
7.38945 51.5971
7.43416 51.0539
7.47889 51.6828
7.5236 60.9632
7.56831 79.5746
7.61303 58.1541
7.65774 52.6393
7.70247 52.492
7.74719 52.869
7.79191 53.6789
7.83663 53.464
7.88135 54.6121
7.92607 55.4585
7.97081 56.7293
8.01553 57.1623
8.06026 58.4595
8.10498 59.6765
8.14971 62.058
8.19446 63.1947
8.23919 65.3809
8.28392 67.5249
8.32865 69.9564
8.37339 73.3852
8.41812 77.281
8.46288 85.7186
8.50761 125.733
8.55235 355.752
8.59709 1061.66
8.64183 2254.59
8.68658 1088.25
8.73134 179.021
8.77609 94.5275
8.82083 87.9454
8.86558 84.9558
8.91033 82.9916
8.9551 82.153
8.99985 80.2882
9.04461 79.4172
9.08936 79.252
9.13412 78.3814
9.17888 79.3702
9.22365 94.6755
9.26841 122.911
9.31318 92.1423
9.35794 79.7729
9.4027 79.4807
9.44749 80.3225
9.49226 80.2847
9.53703 81.1364
9.5818 82.836
9.62657 83.9684
9.67134 85.6444
9.71614 87.2482
9.76091 88.7175
9.80569 90.835
9.85047 93.6841
9.89525 97.6016
9.94005 105.471
9.98484 144.453
10.0296 335.262
10.0744 747.722
10.1192 1741.38
10.164 1675.67
10.2088 452.472
10.2536 125.755
10.2984 102.649
10.3432 100.397
10.388 96.866
10.4328 106.373
10.4776 156.507
10.5224 261.658
10.5672 500.393
10.612 535.015
10.6568 224.668
10.7017 106.399
10.7465 86.8647
10.7913 79.8303
10.8361 77.0469
10.8809 74.8841
10.9257 73.033
10.9706 72.085
11.0154 70.43
11.0602 68.7677
11.105 67.8585
11.1499 66.5876
11.1947 66.6659
11.2395 65.3749
11.2844 64.3129
11.3292 63.4123
11.374 62.4506
11.4189 62.1433
11.4637 61.3668
11.5086 61.0817
11.5534 60.6687
11.5983 60.4308
11.6431 60.0258
11.688 59.6182
11.7328 59.667
11.7777 59.361
11.8225 59.2548
11.8674 59.3634
11.9122 62.2069
11.9571 69.8825
12.002 67.7558
12.0468 63.9617
12.0917 75.7161
12.1366 96.7602
12.1814 144.679
12.2263 203.776
12.2712 173.962
12.3161 94.9096
12.3609 63.9004
12.4058 60.7766
12.4507 60.844
12.4956 60.859
12.5405 60.683
12.5853 61.6704
12.6302 61.7492
12.6751 63.5168
12.72 63.585
12.7649 63.8755
12.8098 64.526
12.8547 65.9892
12.8996 67.3197
12.9445 68.6448
12.9894 70.3012
13.0343 72.0945
13.0792 76.0741
13.1242 81.9444
13.1691 105.875
13.214 143.42
13.2589 222.582
13.3038 361.29
13.3487 440.825
13.3937 282.257
13.4386 127.341
13.4835 97.9063
13.5285 117.588
13.5734 152.78
13.6183 232.341
13.6633 351.57
13.7082 362.878
13.7531 207.302
13.7981 100.278
13.843 79.1518
13.888 76.1921
13.9329 73.9846
13.9779 73.052
14.0228 71.5078
14.0678 70.5321
14.1127 72.0474
14.1577 76.6204
14.2027 74.5454
14.2476 68.9578
14.2926 67.0084
14.3376 66.7958
14.3825 66.6027
14.4275 66.024
14.4725 65.5876
14.5175 65.9371
14.5624 65.8351
14.6074 66.2372
14.6524 66.8913
14.6974 66.9754
14.7424 68.1411
14.7874 73.5229
14.8324 86.9712
14.8774 107.081
14.9224 145.136
14.9674 206.618
15.0124 227.825
15.0574 160.467
15.1024 94.1341
15.1474 70.7803
15.1924 67.5456
15.2374 66.218
15.2824 65.2251
15.3274 64.444
15.3725 63.8423
15.4175 63.768
15.4625 63.1772
15.5076 62.9248
15.5526 62.9161
15.5976 62.7978
15.6426 63.1885
15.6877 67.8203
15.7327 77.9336
15.7778 92.3647
15.8228 120.086
15.8679 166.396
15.9129 200.057
15.958 167.53
16.003 103.228
16.0481 69.7942
16.0931 63.2416
16.1382 59.7602
16.1833 58.0268
16.2283 56.6675
16.2734 55.9278
16.3185 55.2085
16.3636 54.6593
16.4086 54.006
16.4537 53.6202
16.4988 53.0752
16.5439 52.9962
16.589 52.8875
16.6341 52.4593
16.6792 52.1969
16.7243 52.4087
16.7694 52.2364
16.8145 52.3746
16.8596 52.3692
16.9047 53.3411
16.9498 54.0003
16.9949 53.7896
17.04 53.4708
17.0851 54.3822
17.1302 56.5706
17.1754 59.5305
17.2205 63.9956
17.2656 71.6423
17.3108 81.2191
17.3559 82.2333
17.401 71.3167
17.4462 60.9234
17.4913 57.2123
17.5365 56.7498
17.5815 56.8665
17.6268 57.1351
17.6718 57.5964
17.7171 58.3221
17.7622 59.6264
17.8074 60.5285
17.8525 61.4022
17.8977 65.4709
17.9428 72.1466
17.9881 80.2286
18.0331 96.0542
18.0784 119.467
18.1237 141.319
18.1688 137.009
18.214 108.482
18.2591 87.5037
18.3044 87.9754
18.3495 98.3269
18.3948 106.549
18.4399 97.4679
18.4852 79.0326
18.5303 65.7169
18.5756 61.0631
18.6207 60.0133
18.666 58.5897
18.7112 57.8056
18.7565 56.9918
18.8016 56.591
18.8469 55.9951
18.892 55.6
18.9374 55.0722
18.9825 54.8576
19.0278 54.6188
19.073 54.7703
19.1183 54.9744
19.1635 55.8257
19.2088 57.4752
19.254 59.9766
19.2993 65.2867
19.3447 71.9198
19.3898 75.7259
19.4352 72.1001
19.4804 63.2497
19.5257 55.9407
19.5709 52.5706
19.6163 52.1163
19.6615 51.905
19.7068 51.6737
19.752 51.4495
19.7974 51.3907
19.8426 52.3431
19.888 53.2618
19.9332 54.5193
19.9786 56.798
20.0238 60.3748
20.0692 66.1672
20.1144 69.9238
20.1598 68.6527
20.205 63.5869
20.2504 61.3252
20.2957 62.974
20.3411 65.0375
20.3863 64.0521
20.4318 58.1899
20.477 52.5817
20.5224 49.725
20.5677 48.7412
20.6131 48.5396
20.6586 47.9357
20.7038 47.9629
20.7493 47.7199
20.7945 47.8092
20.84 47.6673
20.8853 47.3615
20.9307 46.978
20.976 46.9666
21.0215 47.09
21.0668 47.2114
21.1122 47.8399
21.1575 48.1355
21.203 49.1639
21.2483 49.9511
21.2938 50.2033
21.3391 48.9391
21.3846 47.6239
21.4299 47.0296
21.4754 46.985
21.5207 47.0864
21.5662 47.2284
21.6116 47.3519
21.6571 48.4618
21.7024 49.6709
21.7479 51.0935
21.7933 53.558
21.8388 57.5265
21.8843 62.1588
21.9297 64.8652
21.9752 63.7109
22.0206 59.7946
22.0661 56.0986
22.1115 55.6579
22.157 55.657
22.2024 54.0956
22.248 50.9894
22.2933 48.8009
22.3389 47.767
22.3843 47.4273
22.4299 47.1113
22.4753 47.3159
22.5208 47.1274
22.5662 47.0959
22.6118 47.1423
22.6572 47.2491
22.7028 48.0573
22.7483 48.6791
22.7939 49.3633
22.8393 50.7944
22.8849 52.8349
22.9303 55.3082
22.9759 57.4876
23.0214 57.2681
23.067 54.5592
23.1126 50.7545
23.1581 48.2443
23.2037 47.4278
23.2492 47.4594
23.2948 47.5117
23.3403 48.0966
23.3859 48.9222
23.4314 49.9371
23.477 51.6736
23.5225 54.1353
23.5682 56.7108
23.6137 58.1549
23.6593 56.2763
23.7048 51.8654
23.7505 47.9296
23.796 45.7934
23.8417 44.7575
23.8872 44.3696
23.9329 44.0743
23.9784 43.6855
24.0241 43.4865
24.0697 43.272
24.1154 42.9758
24.1609 42.6004
24.2066 42.4274
24.2522 42.5494
24.2979 42.1417
24.3434 41.9621
24.3892 41.7467
24.4349 41.897
24.4805 41.7009
24.5262 41.865
24.5718 41.7587
24.6175 41.8248
24.6631 41.8202
24.7089 41.3532
24.7545 41.1652
24.8002 40.941
24.8458 41.0658
24.8916 40.9218
24.9372 41.0417
24.983 41.3598
25.0286 41.6897
25.0744 42.3296
25.12 42.9874
25.1658 43.503
25.2114 43.9354
25.2572 44.1482
25.3029 44.1634
25.3487 44.3298
25.3943 44.0134
25.4402 42.8759
25.4858 41.903
25.5316 40.677
25.5773 39.9974
25.6231 39.806
25.669 39.5114
25.7147 39.459
25.7605 39.4124
25.8062 39.5586
25.8521 39.5808
25.8977 39.6604
25.9436 39.6902
25.9893 39.9435
26.0352 40.6025
26.0809 40.6273
26.1268 41.1183
26.1725 40.7231
26.2184 40.0135
26.2641 39.4294
26.31 39.2699
26.3557 39.3419
26.4017 39.167
26.4474 39.6239
26.4933 39.6622
26.5391 40.3286
26.585 40.985
26.6308 41.454
26.6767 41.7349
26.7225 41.4471
26.7684 41.0258
26.8142 40.2878
26.8601 39.9397
26.9059 39.4962
26.9519 38.8275
26.9979 38.4482
27.0437 38.0849
27.0896 37.9275
27.1354 37.8339
27.1814 37.6123
27.2272 37.7222
27.2732 37.7614
27.3191 37.3684
27.3651 37.6071
27.4109 37.4843
27.4569 37.7603
27.5027 37.7064
27.5488 37.9786
27.5946 37.5955
27.6407 37.3099
27.6865 37.3525
27.7326 37.1275
27.7784 37.1434
27.8245 36.9303
27.8703 37.2551
27.9164 37.5356
27.9623 37.6611
28.0084 38.2083
28.0543 38.6925
28.1003 38.6293
28.1462 38.4039
28.1923 38.1238
28.2384 37.4599
28.2843 37.073
28.3304 36.5681
28.3764 36.0887
28.4225 35.732
28.4684 35.5555
28.5145 35.1744
28.5605 35.0471
28.6066 34.8792
28.6526 34.754
28.6987 34.9286
28.7447 34.7571
28.7908 34.6473
28.8368 34.6796
28.8829 34.6873
28.9289 34.7229
28.9751 34.4306
29.0211 34.212
29.0673 33.8746
29.1133 33.7429
29.1595 33.5831
29.2055 33.5653
29.2517 33.5433
29.2977 33.5711
29.3439 33.4873
29.3899 33.534
29.4361 33.4324
29.4824 33.12
29.5284 33.0689
29.5746 32.653
29.6207 32.2755
29.6669 32.3263
29.713 32.1025
29.7593 32.0727
29.8053 31.9847
29.8516 32.0775
29.8977 32.02
29.9439 31.8158
29.99 31.6786
30.0363 31.6231
30.0824 31.6874
30.1287 31.6768
30.1748 31.6495
30.2211 31.7363
30.2673 31.6524
30.3136 31.6953
30.3597 31.5127
30.406 31.4509
30.4522 31.3972
30.4985 31.3183
30.5447 31.529
30.591 31.3826
30.6372 31.5174
30.6835 31.5332
30.7297 31.5849
30.7761 31.7658
30.8224 31.4965
30.8686 31.2744
30.915 31.0014
30.9612 30.8584
31.0076 30.6521
31.0538 30.5096
31.1002 30.4697
31.1464 30.2789
31.1928 30.3343
31.2391 30.3882
31.2855 30.1542
31.3317 30.2364
31.3781 30.2889
31.4244 30.2806
31.4708 30.2822
31.5171 30.2204
31.5636 30.1864
31.6098 30.0323
31.6563 29.7469
31.7026 29.6937
31.7491 29.5886
31.7953 29.552
31.8418 29.5089
31.8881 29.5358
31.9346 29.4103
31.9809 29.4765
32.0275 29.4214
32.074 29.2481
32.1203 28.9836
32.1668 28.8854
32.2132 28.7216
32.2597 28.5603
32.306 28.5398
32.3526 28.4268
32.399 28.3011
32.4455 28.0966
32.4919 28.015
32.5385 28.0217
32.5848 27.8768
32.6314 27.7939
32.6778 27.8167
32.7244 27.7605
32.7708 27.449
32.8174 27.5116
32.8638 27.3593
32.9104 27.499
32.9569 27.4384
33.0035 27.2651
33.0499 27.2589
33.0966 27.2405
33.143 27.2165
33.1897 27.1533
33.2361 27.0351
33.2828 27.0703
33.3293 26.8554
33.3759 26.9028
33.4226 26.6323
33.4691 26.5336
33.5158 26.5205
33.5623 26.3839
33.609 26.1489
33.6555 26.1527
33.7022 25.9357
33.7487 25.9016
33.7954 25.8708
33.842 25.8376
33.8887 25.7519
33.9353 25.6687
33.982 25.5561
34.0286 25.433
34.0753 25.3984
34.1219 25.3854
34.1687 25.218
34.2152 25.2135
34.262 25.0848
34.3086 25.0644
34.3554 25.0226
34.402 24.8295
34.4488 24.7148
34.4954 24.7201
34.5422 24.6989
34.5889 24.5042
34.6357 24.3712
34.6825 24.417
34.7292 24.2957
34.776 24.1723
34.8227 24.0992
34.8695 24.0919
34.9162 24.063
34.9631 23.9404
35.0098 23.9241
35.0566 23.8348
35.1033 23.7436
35.1502 23.6941
35.1969 23.6376
35.2438 23.656
35.2906 23.6068
35.3375 23.6067
35.3842 23.4441
35.4311 23.5103
35.4779 23.4683
35.5248 23.4289
35.5716 23.3169
35.6185 23.2063
35.6653 23.0995
35.7123 22.9815
35.759 22.9909
35.806 22.9801
35.8528 22.7313
35.8998 22.7305
35.9468 22.5804
35.9936 22.6131
36.0406 22.5122
36.0874 22.5156
36.1345 22.4123
36.1813 22.3666
36.2283 22.2633
36.2752 22.1374
36.3222 22.1818
36.3691 22.0939
36.4161 22.0119
36.463 22.0035
36.5101 22.02
36.557 21.9274
36.6041 21.763
36.651 21.7126
36.6981 21.728
36.745 21.6273
36.7921 21.4958
36.839 21.3892
36.8861 21.3755
36.9331 21.2833
36.9802 21.2525
37.0272 21.1538
37.0743 21.0706
37.1213 21.0013
37.1684 20.9769
37.2154 20.9224
37.2626 20.7845
37.3098 20.722
37.3568 20.6889
37.404 20.6583
37.451 20.6075
37.4982 20.4805
37.5452 20.3683
37.5924 20.2921
37.6395 20.3756
37.6867 20.2666
37.7337 20.2087
37.781 20.0374
37.8281 20.075
37.8753 19.8945
37.9224 19.8687
37.9697 19.8824
38.0168 19.7561
38.064 19.7079
38.1111 19.7108
38.1584 19.6467
38.2056 19.4957
38.2529 19.5034
38.3 19.4227
38.3473 19.4088
38.3945 19.2267
38.4418 19.2247
38.489 19.1846
38.5363 19.1382
38.5837 19.031
38.6309 19.0312
38.6782 18.8943
38.7254 18.8325
38.7728 18.7897
38.82 18.6823
38.8674 18.7155
38.9146 18.6375
38.9621 18.5364
39.0093 18.5379
39.0567 18.4552
39.104 18.4322
39.1514 18.2759
39.1987 18.2893
39.2461 18.1444
39.2934 18.142
39.3409 18.0772
39.3882 18.0263
39.4356 17.9264
39.483 17.9054
39.5304 17.8349
39.5778 17.8015
39.6253 17.774
39.6726 17.7445
39.7201 17.6341
39.7675 17.6373
39.815 17.5531
39.8624 17.4988
39.9099 17.442
39.9575 17.3558
40.0049 17.2962
40.0525 17.2182
40.0999 17.2303
40.1474 17.1686
40.1949 17.0199
40.2425 16.9776
40.2899 16.9924
40.3375 16.8949
40.385 16.8905
40.4326 16.7813
40.48 16.7891
40.5277 16.733
40.5752 16.7007
40.6228 16.6222
40.6703 16.6238
40.718 16.5104
40.7655 16.4254
40.8132 16.42
40.8607 16.4328
40.9084 16.3148
40.9559 16.2501
41.0036 16.2448
41.0512 16.1554
41.0989 16.0851
41.1465 16.0513
41.1942 16.0076
41.242 15.8794
41.2896 15.8346
41.3373 15.8163
41.3849 15.8373
41.4327 15.77
41.4803 15.6375
41.5281 15.6091
41.5758 15.5685
41.6236 15.5063
41.6712 15.46
41.7191 15.3845
41.7667 15.3343
41.8146 15.3078
41.8622 15.2699
41.9101 15.2697
41.9578 15.0855
42.0057 15.1154
42.0534 15.0623
42.1013 14.9437
42.149 15.0077
42.1969 14.9279
42.2446 14.8521
42.2925 14.8316
42.3403 14.7953
42.3882 14.729
42.436 14.6793
42.4839 14.5965
42.5319 14.5802
42.5797 14.5264
42.6277 14.4587
42.6755 14.4257
42.7235 14.2462
42.7713 14.3053
42.8193 14.2276
42.8671 14.2287
42.9152 14.1873
42.963 14.1007
43.0111 14.0428
43.0589 14.0409
43.107 13.9126
43.1549 13.8969
43.2029 13.8575
43.2508 13.8523
43.2989 13.7326
43.3468 13.7249
43.3949 13.6829
43.4429 13.6594
43.491 13.6013
43.5389 13.541
43.5871 13.4946
43.635 13.4207
43.6832 13.4278
43.7312 13.3432
43.7793 13.3152
43.8273 13.2597
43.8755 13.1976
43.9237 13.1965
43.9717 13.1303
44.0199 13.0639
44.068 12.9951
44.1162 12.9939
44.1642 12.9814
44.2125 12.8847
44.2606 12.8718
44.3088 12.8168
44.3569 12.8305
44.4052 12.6814
44.4533 12.7032
44.5016 12.6316
44.5497 12.5713
44.598 12.534
44.6461 12.4961
44.6945 12.4354
44.7426 12.4433
44.791 12.3861
44.8391 12.3423
44.8875 12.268
44.9357 12.2473
44.984 12.1966
45.0322 12.1645
45.0806 12.1021
45.1288 12.0831
45.1773 12.0488
45.2257 12.0248
45.2739 11.9211
45.3224 11.8478
45.3706 11.8979
45.4191 11.8043
45.4673 11.8281
45.5158 11.7054
45.5641 11.6953
45.6126 11.6528
45.6609 11.5661
45.7094 11.5698
45.7577 11.4817
45.8063 11.4162
45.8546 11.4604
45.9031 11.4165
45.9515 11.3622
46.0001 11.3499
46.0484 11.2699
46.097 11.2193
46.1454 11.21
46.194 11.1655
46.2424 11.1314
46.291 11.082
46.3395 11.0461
46.3881 10.9503
46.4365 10.9481
46.4852 10.904
46.5337 10.8567
46.5823 10.8569
46.631 10.7958
46.6795 10.7625
46.7282 10.7286
46.7767 10.678
46.8254 10.6397
46.8739 10.5759
46.9226 10.5688
46.9712 10.5403
47.0199 10.4505
47.0685 10.4389
47.1173 10.3869
47.1658 10.3652
47.2146 10.3368
47.2632 10.2621
47.312 10.2464
47.3606 10.2215
47.4095 10.1964
47.4581 10.1384
47.5069 10.1112
47.5556 10.0585
47.6044 10.0142
47.6531 10.0095
47.702 9.9146
47.7507 9.89495
47.7996 9.86589
47.8483 9.83942
47.8972 9.81927
47.9461 9.77252
47.9948 9.73105
48.0438 9.70139
48.0925 9.67635
48.1415 9.64636
48.1902 9.55459
48.2392 9.58906
48.288 9.53273
48.337 9.48969
48.3858 9.46301
48.4348 9.45178
48.4837 9.43848
48.5327 9.37279
48.5815 9.30234
48.6306 9.31863
48.6795 9.25055
48.7285 9.19815
48.7774 9.199
48.8265 9.15476
48.8754 9.10704
48.9245 9.06934
48.9734 9.08639
49.0226 8.99769
49.0715 9.00642
49.1206 8.93329
49.1696 8.937
49.2188 8.87746
49.2679 8.80346
49.3169 8.78105
49.3661 8.76602
49.4151 8.73141
49.4643 8.71385
49.5134 8.68735
49.5626 8.63445
49.6117 8.65003
49.6609 8.56647
49.71 8.58279
49.7592 8.50297
49.8083 8.44797
49.8576 8.46956
49.9067 8.40332
49.956 8.36817
50.0052 8.34835
50.0545 8.32094
50.1036 8.26734
50.153 8.27772
50.2022 8.20218
50.2515 8.16584
50.3007 8.13264
50.3501 8.13666
50.3993 8.09423
50.4487 8.0665
50.498 8.05013
50.5474 7.99207
50.5966 7.9388
50.6461 7.96374
50.6955 7.92668
50.7448 7.89285
50.7943 7.8657
50.8436 7.82823
50.8931 7.80647
50.9424 7.74619
50.9919 7.70535
51.0413 7.69908
51.0908 7.65291
51.1402 7.64357
51.1897 7.6423
51.2391 7.56825
51.2887 7.55728
51.3381 7.47621
51.3877 7.52201
51.4371 7.44799
51.4867 7.41109
51.5362 7.44011
51.5858 7.36136
51.6353 7.32629
51.6849 7.31278
51.7344 7.26853
51.7841 7.22808
51.8336 7.21691
51.8833 7.18284
51.9328 7.16133
51.9826 7.15379
52.0323 7.08856
52.0818 7.08331
52.1316 7.00124
52.1812 7.039
52.231 6.98658
52.2806 6.92892
52.3304 6.93691
52.38 6.87636
52.4298 6.89285
52.4794 6.82202
52.5293 6.79312
52.5789 6.77639
52.6288 6.772
52.6785 6.71496
52.7284 6.70504
52.7781 6.69555
52.828 6.68661
52.8777 6.6229
52.9276 6.60515
52.9774 6.54861
53.0273 6.5286
53.0771 6.49218
53.1271 6.48679
53.1769 6.40193
53.2269 6.41906
53.2767 6.4202
53.3267 6.3712
53.3765 6.33097
53.4266 6.28621
53.4766 6.29067
53.5265 6.23973
53.5765 6.21075
53.6264 6.19646
53.6765 6.21795
53.7264 6.10861
53.7765 6.10119
53.8265 6.1329
53.8766 6.04819
53.9266 6.04214
53.9767 6.00406
54.0267 6.03777
54.0769 5.993
54.1269 5.91061
54.1771 5.90083
54.2271 5.89726
54.2773 5.85392
54.3274 5.82612
54.3776 5.75697
54.4277 5.75768
54.478 5.74595
54.528 5.65838
54.5783 5.64971
54.6285 5.63405
54.6788 5.55809
54.7289 5.52632
54.7792 5.55005
54.8296 5.4527
54.8798 5.35232
54.9301 5.36888
54.9803 5.3386
55.0307 5.35353
55.0809 5.26438
55.1314 5.26384
55.1816 5.18368
55.232 5.1153
55.2823 5.11611
55.3328 5.07359
55.383 4.96694
55.4335 4.97572
55.4838 4.93448
55.5344 4.8832
55.5847 4.85849
55.6352 4.80302
55.6856 4.76593
55.7361 4.71568