File: XRD/Ni3Fe_FD0688.xy
TT I
1.27165 7.66829
1.31627 6.92421
1.36089 7.16554
1.40551 5.6691
1.45013 6.09696
1.49476 6.19008
1.53938 6.07179
1.584 5.42963
1.62863 5.31302
1.67325 4.93251
1.71787 5.50498
1.7625 4.77613
1.80712 4.45582
1.85174 4.95183
1.89636 4.75012
1.94099 4.45629
1.98562 4.60327
2.03025 5.02686
2.07487 4.4435
2.11949 4.69069
2.16411 4.58761
2.20874 9.45087
2.25338 14.4638
2.298 5.5701
2.34263 5.57486
2.38725 5.44806
2.43188 5.40052
2.4765 6.51701
2.52115 6.64598
2.56577 7.40089
2.6104 8.16914
2.65503 7.6274
2.69965 8.21367
2.7443 8.31502
2.78893 8.1492
2.83356 8.08867
2.87818 9.05532
2.92281 8.67484
2.96744 9.5846
3.01209 10.3
3.05672 10.7798
3.10135 11.8864
3.14599 12.5463
3.19062 14.2761
3.23527 14.8473
3.2799 15.5284
3.32454 16.8183
3.36917 17.3904
3.4138 18.8167
3.45844 19.0961
3.50309 20.6301
3.54773 21.6583
3.59237 23.1583
3.637 60.6148
3.68164 42.3572
3.7263 25.3989
3.77094 25.8763
3.81558 26.4048
3.86022 27.0571
3.90486 28.4853
3.9495 29.2796
3.99416 30.5454
4.0388 31.9556
4.08344 32.9546
4.12809 34.4343
4.17273 35.7617
4.21738 39.7006
4.26204 149.013
4.30669 129.501
4.35133 44.92
4.39598 43.5613
4.44063 49.8773
4.4853 56.4247
4.52995 52.9011
4.5746 54.3886
4.61925 52.9393
4.6639 55.2505
4.70855 58.5426
4.75322 61.3956
4.79788 66.3382
4.84253 67.9148
4.88719 73.4431
4.93184 76.1016
4.97652 81.0543
5.02118 87.2436
5.06583 95.3699
5.11049 106.79
5.15515 159.076
5.19981 419.365
5.24449 3022.83
5.28916 12782.9
5.33382 2681.03
5.37848 191.673
5.42315 129.35
5.46783 116.341
5.5125 108.814
5.55716 102.002
5.60183 98.4212
5.6465 96.5092
5.69117 94.2883
5.73586 93.0256
5.78053 95.0816
5.8252 94.6748
5.86988 96.6774
5.91455 95.7613
5.95924 105.444
6.00392 245.594
6.0486 1019.7
6.09328 4578.14
6.13795 3156.33
6.18263 217.23
6.22733 91.3142
6.27201 81.2513
6.3167 88.4537
6.36138 75.6435
6.40606 68.9436
6.45075 68.0487
6.49545 65.396
6.54014 63.4449
6.58483 62.7389
6.62952 62.3629
6.67421 78.0189
6.71892 103.647
6.76361 63.8534
6.8083 58.6068
6.853 58.2484
6.89769 56.407
6.94239 56.083
6.98711 55.2003
7.03181 55.2096
7.07651 54.6214
7.12121 54.7623
7.16591 55.5477
7.21063 55.1483
7.25533 62.7991
7.30004 118.232
7.34475 72.9177
7.38945 55.3461
7.43416 53.8069
7.47889 53.8981
7.5236 54.2071
7.56831 54.9624
7.61303 55.8254
7.65774 56.2839
7.70247 56.1411
7.74719 56.0704
7.79191 56.395
7.83663 56.6873
7.88135 57.6577
7.92607 58.4538
7.97081 59.7349
8.01553 60.5815
8.06026 62.513
8.10498 63.651
8.14971 70.5899
8.19446 70.6886
8.23919 69.3102
8.28392 71.8493
8.32865 74.215
8.37339 78.6577
8.41812 84.4563
8.46288 106.171
8.50761 184.912
8.55235 409.814
8.59709 1232.45
8.64183 2242.2
8.68658 873.052
8.73134 153.52
8.77609 98.4848
8.82083 92.3423
8.86558 90.6998
8.91033 90.4256
8.9551 89.0579
8.99985 84.8934
9.04461 83.5418
9.08936 83.5439
9.13412 82.4967
9.17888 82.0209
9.22365 82.4927
9.26841 81.9557
9.31318 83.401
9.35794 84.8302
9.4027 84.664
9.44749 84.6878
9.49226 84.711
9.53703 85.6475
9.5818 88.6003
9.62657 92.5167
9.67134 95.563
9.71614 93.1085
9.76091 94.534
9.80569 97.861
9.85047 100.959
9.89525 115.134
9.94005 130.53
9.98484 197.714
10.0296 365.96
10.0744 852.252
10.1192 1796.6
10.164 1561.98
10.2088 363.71
10.2536 122.828
10.2984 110.299
10.3432 109.609
10.388 105.168
10.4328 124.286
10.4776 166.08
10.5224 292.765
10.5672 514.479
10.612 493.988
10.6568 193.155
10.7017 94.4536
10.7465 85.9687
10.7913 82.806
10.8361 80.788
10.8809 78.3697
10.9257 77.914
10.9706 77.8372
11.0154 74.7856
11.0602 72.3688
11.105 71.4765
11.1499 72.9137
11.1947 76.3005
11.2395 71.1672
11.2844 68.5727
11.3292 67.0365
11.374 65.8252
11.4189 65.3994
11.4637 64.8569
11.5086 64.3283
11.5534 66.0119
11.5983 64.4924
11.6431 63.3275
11.688 62.6179
11.7328 62.644
11.7777 62.7514
11.8225 62.3967
11.8674 62.2216
11.9122 62.5337
11.9571 63.0184
12.002 63.8938
12.0468 69.2708
12.0917 79.7643
12.1366 105.171
12.1814 155.038
12.2263 205.017
12.2712 157.382
12.3161 89.0437
12.3609 67.7847
12.4058 64.1549
12.4507 64.048
12.4956 64.3828
12.5405 64.7197
12.5853 65.1497
12.6302 68.9939
12.6751 72.506
12.72 68.4061
12.7649 67.6751
12.8098 68.0528
12.8547 69.6189
12.8996 71.2619
12.9445 72.7289
12.9894 74.2261
13.0343 76.1499
13.0792 79.9253
13.1242 92.6598
13.1691 114.327
13.214 153.127
13.2589 248.553
13.3038 380.856
13.3487 420.654
13.3937 247.771
13.4386 120.349
13.4835 108.689
13.5285 123.337
13.5734 163.843
13.6183 256.429
13.6633 353.887
13.7082 326.678
13.7531 171.528
13.7981 93.9462
13.843 81.3394
13.888 79.4241
13.9329 76.9551
13.9779 75.9734
14.0228 74.2693
14.0678 72.9997
14.1127 72.3324
14.1577 71.9118
14.2027 71.1464
14.2476 70.4394
14.2926 70.0218
14.3376 70.6692
14.3825 69.8624
14.4275 68.7503
14.4725 68.6233
14.5175 68.6707
14.5624 68.7774
14.6074 70.3353
14.6524 70.7136
14.6974 70.4815
14.7424 73.9858
14.7874 80.2854
14.8324 90.2762
14.8774 113.72
14.9224 159.017
14.9674 212.43
15.0124 216.568
15.0574 140.427
15.1024 86.9147
15.1474 71.9571
15.1924 70.0695
15.2374 69.795
15.2824 68.9904
15.3274 67.5342
15.3725 66.5874
15.4175 66.1473
15.4625 65.96
15.5076 66.013
15.5526 66.0163
15.5976 65.9157
15.6426 68.0963
15.6877 73.8199
15.7327 80.6783
15.7778 96.6564
15.8228 130.376
15.8679 175.126
15.9129 195.282
15.958 150.271
16.003 91.6725
16.0481 66.6104
16.0931 63.1898
16.1382 61.5081
16.1833 60.1604
16.2283 58.7084
16.2734 58.1042
16.3185 58.0288
16.3636 58.0132
16.4086 56.9462
16.4537 55.8826
16.4988 55.4781
16.5439 55.3726
16.589 54.8064
16.6341 54.7571
16.6792 54.3517
16.7243 54.7211
16.7694 54.6938
16.8145 54.7489
16.8596 54.7981
16.9047 55.6438
16.9498 55.9395
16.9949 55.3364
17.04 55.8614
17.0851 57.4409
17.1302 58.9416
17.1754 61.8088
17.2205 67.1929
17.2656 75.2163
17.3108 83.2449
17.3559 81.2163
17.401 69.8529
17.4462 61.4236
17.4913 58.966
17.5365 59.0104
17.5815 59.0877
17.6268 59.613
17.6718 60.1375
17.7171 60.5275
17.7622 61.2663
17.8074 62.2976
17.8525 65.3723
17.8977 69.0286
17.9428 74.5026
17.9881 83.8339
18.0331 102.517
18.0784 125.22
18.1237 142.702
18.1688 131.098
18.214 100.961
18.2591 85.8441
18.3044 91.6356
18.3495 101.239
18.3948 105.793
18.4399 94.5063
18.4852 75.3102
18.5303 65.1493
18.5756 61.9439
18.6207 61.2255
18.666 60.2924
18.7112 59.523
18.7565 58.8131
18.8016 58.4561
18.8469 57.6932
18.892 57.6154
18.9374 57.0575
18.9825 57.0419
19.0278 56.7121
19.073 56.7709
19.1183 57.3164
19.1635 57.9074
19.2088 59.5311
19.254 62.4513
19.2993 67.0539
19.3447 73.3727
19.3898 76.0161
19.4352 71.3087
19.4804 62.1528
19.5257 56.0996
19.5709 53.924
19.6163 53.5654
19.6615 53.7261
19.7068 53.39
19.752 53.2702
19.7974 53.696
19.8426 54.456
19.888 54.9623
19.9332 56.2825
19.9786 59.1304
20.0238 63.0966
20.0692 67.5691
20.1144 69.9264
20.1598 67.7263
20.205 63.2835
20.2504 62.185
20.2957 64.2801
20.3411 65.3664
20.3863 63.291
20.4318 57.6554
20.477 52.9078
20.5224 51.0452
20.5677 50.6025
20.6131 50.231
20.6586 49.4294
20.7038 49.3647
20.7493 48.9384
20.7945 48.801
20.84 48.7726
20.8853 48.5508
20.9307 48.3256
20.976 48.7141
21.0215 48.6162
21.0668 48.9413
21.1122 49.2815
21.1575 50.0108
21.203 50.7965
21.2483 51.4943
21.2938 51.2622
21.3391 49.8282
21.3846 48.7078
21.4299 48.2969
21.4754 48.4453
21.5207 48.6496
21.5662 48.8809
21.6116 49.3619
21.6571 50.0743
21.7024 50.9528
21.7479 52.8155
21.7933 55.8337
21.8388 59.656
21.8843 63.2836
21.9297 64.8817
21.9752 62.7848
22.0206 58.9778
22.0661 56.3197
22.1115 56.1012
22.157 55.7393
22.2024 53.9228
22.248 51.0657
22.2933 49.6793
22.3389 48.9845
22.3843 48.8296
22.4299 48.8672
22.4753 48.5512
22.5208 48.5053
22.5662 48.6448
22.6118 48.6123
22.6572 48.9336
22.7028 49.3506
22.7483 49.803
22.7939 50.645
22.8393 52.2113
22.8849 54.1681
22.9303 56.384
22.9759 57.9221
23.0214 57.0623
23.067 54.0727
23.1126 50.7533
23.1581 49.001
23.2037 48.7345
23.2492 49.0255
23.2948 48.8128
23.3403 49.0391
23.3859 49.6733
23.4314 50.8076
23.477 52.8491
23.5225 55.1485
23.5682 57.1792
23.6137 57.8566
23.6593 55.0565
23.7048 51.0863
23.7505 47.9396
23.796 46.4675
23.8417 45.8371
23.8872 45.5009
23.9329 45.1142
23.9784 44.8787
24.0241 44.5654
24.0697 44.3122
24.1154 43.8854
24.1609 43.9473
24.2066 43.4987
24.2522 43.6399
24.2979 43.2573
24.3434 43.3353
24.3892 43.093
24.4349 43.1225
24.4805 42.8568
24.5262 43.033
24.5718 42.977
24.6175 42.9113
24.6631 42.7695
24.7089 42.323
24.7545 42.4616
24.8002 42.1911
24.8458 42.1945
24.8916 42.1363
24.9372 42.1845
24.983 42.5551
25.0286 42.8477
25.0744 43.3813
25.12 43.8981
25.1658 44.3644
25.2114 44.548
25.2572 44.7447
25.3029 44.7214
25.3487 44.9267
25.3943 44.3957
25.4402 43.2252
25.4858 42.096
25.5316 41.2438
25.5773 40.8815
25.6231 40.7261
25.669 40.4603
25.7147 40.5084
25.7605 40.3344
25.8062 40.4682
25.8521 40.5821
25.8977 40.3777
25.9436 40.7584
25.9893 40.896
26.0352 41.5534
26.0809 41.5799
26.1268 41.6656
26.1725 41.2519
26.2184 40.6372
26.2641 40.2466
26.31 40.0139
26.3557 40.0422
26.4017 40.1963
26.4474 40.3773
26.4933 40.741
26.5391 41.3067
26.585 41.658
26.6308 42.0873
26.6767 42.3579
26.7225 41.8927
26.7684 41.3028
26.8142 40.7279
26.8601 40.2915
26.9059 39.9572
26.9519 39.3574
26.9979 39.2469
27.0437 38.7927
27.0896 38.6859
27.1354 38.742
27.1814 38.431
27.2272 38.398
27.2732 38.5311
27.3191 38.2637
27.3651 38.4344
27.4109 38.3426
27.4569 38.3805
27.5027 38.4464
27.5488 38.4674
27.5946 38.3429
27.6407 38.1483
27.6865 38.0697
27.7326 37.7537
27.7784 37.8658
27.8245 37.7632
27.8703 38.0496
27.9164 38.309
27.9623 38.4791
28.0084 38.803
28.0543 39.1845
28.1003 38.9438
28.1462 38.6184
28.1923 38.3499
28.2384 37.8175
28.2843 37.6155
28.3304 37.0472
28.3764 36.5184
28.4225 36.3631
28.4684 36.1495
28.5145 35.8139
28.5605 35.8633
28.6066 35.728
28.6526 35.5803
28.6987 35.5888
28.7447 35.3562
28.7908 35.2765
28.8368 35.3064
28.8829 35.2864
28.9289 35.3248
28.9751 35.1306
29.0211 34.8801
29.0673 34.592
29.1133 34.5098
29.1595 34.4089
29.2055 34.2542
29.2517 34.2885
29.2977 34.2664
29.3439 34.2282
29.3899 34.3277
29.4361 34.0336
29.4824 33.9435
29.5284 33.714
29.5746 33.2755
29.6207 33.0655
29.6669 33.0212
29.713 32.8328
29.7593 32.7319
29.8053 32.8701
29.8516 32.8428
29.8977 32.6957
29.9439 32.6165
29.99 32.5622
30.0363 32.3788
30.0824 32.4774
30.1287 32.2529
30.1748 32.4946
30.2211 32.3338
30.2673 32.2725
30.3136 32.2917
30.3597 32.245
30.406 32.0509
30.4522 31.9431
30.4985 32.0072
30.5447 32.0818
30.591 32.1223
30.6372 32.1624
30.6835 32.1375
30.7297 32.1511
30.7761 32.1093
30.8224 31.9727
30.8686 31.8336
30.915 31.5632
30.9612 31.4999
31.0076 31.2911
31.0538 31.1333
31.1002 31.045
31.1464 30.8494
31.1928 30.8087
31.2391 30.8748
31.2855 30.9294
31.3317 30.843
31.3781 30.8866
31.4244 30.9268
31.4708 30.8222
31.5171 30.7814
31.5636 30.669
31.6098 30.4736
31.6563 30.2762
31.7026 30.2305
31.7491 29.9996
31.7953 30.1254
31.8418 30.1178
31.8881 30.1459
31.9346 30.1068
31.9809 30.0141
32.0275 29.8897
32.074 29.7592
32.1203 29.5552
32.1668 29.5414
32.2132 29.3224
32.2597 29.239
32.306 29.0414
32.3526 28.8695
32.399 28.7997
32.4455 28.6961
32.4919 28.6865
32.5385 28.5979
32.5848 28.4905
32.6314 28.464
32.6778 28.3611
32.7244 28.2084
32.7708 28.0381
32.8174 28.1513
32.8638 27.9589
32.9104 28.0349
32.9569 27.9459
33.0035 27.7893
33.0499 27.7504
33.0966 27.7403
33.143 27.8071
33.1897 27.6577
33.2361 27.539
33.2828 27.4941
33.3293 27.2902
33.3759 27.2528
33.4226 27.1962
33.4691 27.0954
33.5158 26.9757
33.5623 26.8305
33.609 26.749
33.6555 26.5928
33.7022 26.5562
33.7487 26.4827
33.7954 26.4653
33.842 26.3333
33.8887 26.2778
33.9353 26.2929
33.982 26.0861
34.0286 26.0516
34.0753 25.8709
34.1219 25.8682
34.1687 25.734
34.2152 25.7188
34.262 25.5884
34.3086 25.4827
34.3554 25.4498
34.402 25.3278
34.4488 25.3284
34.4954 25.1611
34.5422 25.1322
34.5889 25.0355
34.6357 24.9001
34.6825 24.9117
34.7292 24.766
34.776 24.7007
34.8227 24.6667
34.8695 24.629
34.9162 24.4763
34.9631 24.5065
35.0098 24.4534
35.0566 24.2527
35.1033 24.2311
35.1502 24.2567
35.1969 24.1878
35.2438 24.1265
35.2906 24.0438
35.3375 24.0288
35.3842 23.9554
35.4311 23.9375
35.4779 23.9028
35.5248 23.9083
35.5716 23.7056
35.6185 23.6607
35.6653 23.5803
35.7123 23.5337
35.759 23.4351
35.806 23.302
35.8528 23.2463
35.8998 23.1004
35.9468 23.0905
35.9936 23.0253
36.0406 23.0044
36.0874 22.9513
36.1345 22.8644
36.1813 22.7865
36.2283 22.6446
36.2752 22.563
36.3222 22.5535
36.3691 22.5117
36.4161 22.4006
36.463 22.3741
36.5101 22.3754
36.557 22.2912
36.6041 22.1877
36.651 22.1775
36.6981 22.1417
36.745 21.9539
36.7921 21.9795
36.839 21.8557
36.8861 21.7801
36.9331 21.701
36.9802 21.6658
37.0272 21.4875
37.0743 21.5099
37.1213 21.3523
37.1684 21.4277
37.2154 21.3144
37.2626 21.2153
37.3098 21.1732
37.3568 21.1158
37.404 21.0699
37.451 21.0038
37.4982 20.8921
37.5452 20.8292
37.5924 20.7961
37.6395 20.8197
37.6867 20.6791
37.7337 20.563
37.781 20.4953
37.8281 20.4548
37.8753 20.3356
37.9224 20.3206
37.9697 20.2361
38.0168 20.1834
38.064 20.0859
38.1111 20.0893
38.1584 19.9828
38.2056 19.9045
38.2529 19.9125
38.3 19.7985
38.3473 19.7902
38.3945 19.6571
38.4418 19.6463
38.489 19.5312
38.5363 19.5074
38.5837 19.438
38.6309 19.3832
38.6782 19.2935
38.7254 19.192
38.7728 19.2124
38.82 19.1154
38.8674 19.0937
38.9146 19.0444
38.9621 18.9116
39.0093 18.8869
39.0567 18.838
39.104 18.7757
39.1514 18.6698
39.1987 18.6401
39.2461 18.5973
39.2934 18.5209
39.3409 18.4751
39.3882 18.3897
39.4356 18.2751
39.483 18.2981
39.5304 18.256
39.5778 18.1762
39.6253 18.0944
39.6726 17.975
39.7201 18.0242
39.7675 17.966
39.815 17.9618
39.8624 17.8274
39.9099 17.8149
39.9575 17.6591
40.0049 17.706
40.0525 17.5941
40.0999 17.5383
40.1474 17.5212
40.1949 17.417
40.2425 17.3951
40.2899 17.2773
40.3375 17.3306
40.385 17.2329
40.4326 17.1316
40.48 17.1305
40.5277 17.0635
40.5752 16.998
40.6228 16.9348
40.6703 16.9059
40.718 16.8633
40.7655 16.7822
40.8132 16.7143
40.8607 16.7304
40.9084 16.6426
40.9559 16.5416
41.0036 16.516
41.0512 16.4261
41.0989 16.4713
41.1465 16.3711
41.1942 16.3343
41.242 16.2131
41.2896 16.2
41.3373 16.1311
41.3849 16.1061
41.4327 16.0021
41.4803 15.9479
41.5281 15.9024
41.5758 15.8342
41.6236 15.8058
41.6712 15.7711
41.7191 15.6332
41.7667 15.6586
41.8146 15.5874
41.8622 15.5362
41.9101 15.5113
41.9578 15.4023
42.0057 15.3571
42.0534 15.3457
42.1013 15.3017
42.149 15.2189
42.1969 15.1369
42.2446 15.0916
42.2925 15.0953
42.3403 14.9715
42.3882 15.0241
42.436 14.9024
42.4839 14.8346
42.5319 14.8727
42.5797 14.8195
42.6277 14.7247
42.6755 14.7238
42.7235 14.633
42.7713 14.6505
42.8193 14.5662
42.8671 14.5158
42.9152 14.4054
42.963 14.3814
43.0111 14.3283
43.0589 14.3284
43.107 14.2937
43.1549 14.1785
43.2029 14.1084
43.2508 14.1364
43.2989 14.0666
43.3468 13.9922
43.3949 13.9636
43.4429 13.9033
43.491 13.878
43.5389 13.8358
43.5871 13.7916
43.635 13.6987
43.6832 13.6615
43.7312 13.6198
43.7793 13.617
43.8273 13.5632
43.8755 13.4945
43.9237 13.4272
43.9717 13.405
44.0199 13.3982
44.068 13.3596
44.1162 13.261
44.1642 13.2276
44.2125 13.1489
44.2606 13.1092
44.3088 13.0911
44.3569 13.0387
44.4052 13.0102
44.4533 12.9448
44.5016 12.8305
44.5497 12.8381
44.598 12.764
44.6461 12.7249
44.6945 12.7139
44.7426 12.681
44.791 12.5843
44.8391 12.5559
44.8875 12.5095
44.9357 12.5147
44.984 12.4647
45.0322 12.3722
45.0806 12.365
45.1288 12.3192
45.1773 12.262
45.2257 12.2614
45.2739 12.2015
45.3224 12.0827
45.3706 12.1226
45.4191 12.0286
45.4673 11.9917
45.5158 11.9949
45.5641 11.9382
45.6126 11.8851
45.6609 11.8203
45.7094 11.8001
45.7577 11.7623
45.8063 11.6935
45.8546 11.7227
45.9031 11.5644
45.9515 11.5496
46.0001 11.5544
46.0484 11.5053
46.097 11.5043
46.1454 11.4254
46.194 11.4335
46.2424 11.3252
46.291 11.3143
46.3395 11.2911
46.3881 11.1733
46.4365 11.2048
46.4852 11.1015
46.5337 11.072
46.5823 11.1054
46.631 11.0084
46.6795 10.9748
46.7282 10.955
46.7767 10.8996
46.8254 10.8295
46.8739 10.8021
46.9226 10.742
46.9712 10.7448
47.0199 10.6718
47.0685 10.6223
47.1173 10.6018
47.1658 10.5593
47.2146 10.5554
47.2632 10.5067
47.312 10.4853
47.3606 10.405
47.4095 10.41
47.4581 10.3493
47.5069 10.306
47.5556 10.2388
47.6044 10.2172
47.6531 10.1736
47.702 10.1288
47.7507 10.1127
47.7996 10.0668
47.8483 10.0462
47.8972 10.0092
47.9461 9.96376
47.9948 9.93483
48.0438 9.86907
48.0925 9.87422
48.1415 9.86479
48.1902 9.80219
48.2392 9.79984
48.288 9.71799
48.337 9.7165
48.3858 9.65935
48.4348 9.62532
48.4837 9.63111
48.5327 9.54552
48.5815 9.50938
48.6306 9.51744
48.6795 9.44377
48.7285 9.41618
48.7774 9.40349
48.8265 9.35033
48.8754 9.29914
48.9245 9.26962
48.9734 9.22617
49.0226 9.21144
49.0715 9.12505
49.1206 9.10739
49.1696 9.06759
49.2188 9.04601
49.2679 8.98955
49.3169 8.96535
49.3661 8.93673
49.4151 8.91348
49.4643 8.89915
49.5134 8.8557
49.5626 8.80224
49.6117 8.75065
49.6609 8.77551
49.71 8.69881
49.7592 8.67701
49.8083 8.631
49.8576 8.63244
49.9067 8.54707
49.956 8.55929
50.0052 8.50574
50.0545 8.5103
50.1036 8.45027
50.153 8.41542
50.2022 8.3782
50.2515 8.33704
50.3007 8.28091
50.3501 8.29647
50.3993 8.2596
50.4487 8.21603
50.498 8.19872
50.5474 8.12995
50.5966 8.12336
50.6461 8.10643
50.6955 8.08379
50.7448 8.03897
50.7943 7.99179
50.8436 7.98281
50.8931 7.93049
50.9424 7.88406
50.9919 7.90462
51.0413 7.8588
51.0908 7.83577
51.1402 7.80916
51.1897 7.74869
51.2391 7.71555
51.2887 7.68647
51.3381 7.62944
51.3877 7.6074
51.4371 7.59766
51.4867 7.57983
51.5362 7.51873
51.5858 7.53137
51.6353 7.44386
51.6849 7.46141
51.7344 7.39598
51.7841 7.38348
51.8336 7.36202
51.8833 7.30371
51.9328 7.3226
51.9826 7.27033
52.0323 7.21757
52.0818 7.16932
52.1316 7.1539
52.1812 7.17208
52.231 7.05601
52.2806 7.08044
52.3304 7.07513
52.38 6.96958
52.4298 6.98755
52.4794 6.93368
52.5293 6.95329
52.5789 6.90457
52.6288 6.86326
52.6785 6.86567
52.7284 6.85814
52.7781 6.7923
52.828 6.78028
52.8777 6.67573
52.9276 6.7011
52.9774 6.68748
53.0273 6.64591
53.0771 6.62392
53.1271 6.60476
53.1769 6.57916
53.2269 6.56949
53.2767 6.5106
53.3267 6.48225
53.3765 6.49247
53.4266 6.37729
53.4766 6.39782
53.5265 6.3728
53.5765 6.32421
53.6264 6.2981
53.6765 6.30463
53.7264 6.26265
53.7765 6.24855
53.8265 6.19861
53.8766 6.15797
53.9266 6.17957
53.9767 6.14872
54.0267 6.11849
54.0769 6.04561
54.1269 6.03689
54.1771 6.00885
54.2271 5.9813
54.2773 5.94071
54.3274 5.93294
54.3776 5.89056
54.4277 5.86261
54.478 5.8578
54.528 5.82641
54.5783 5.74703
54.6285 5.72426
54.6788 5.66114
54.7289 5.59399
54.7792 5.60531
54.8296 5.53733
54.8798 5.53189
54.9301 5.45619
54.9803 5.41437
55.0307 5.42392
55.0809 5.35747
55.1314 5.31277
55.1816 5.27827
55.232 5.23559
55.2823 5.21587
55.3328 5.17328
55.383 5.04675
55.4335 5.026
55.4838 5.0248
55.5344 4.95717
55.5847 4.89876
55.6352 4.90005
55.6856 4.90277
55.7361 4.76333