File: XRD/Ni3Fe_FD0296.xy
TT I
1.27165 7.78073
1.31627 6.81318
1.36089 7.33075
1.40551 6.15405
1.45013 6.24824
1.49476 6.21031
1.53938 6.03203
1.584 5.81052
1.62863 5.6848
1.67325 5.29985
1.71787 5.38467
1.7625 5.13001
1.80712 5.34554
1.85174 4.51127
1.89636 4.83373
1.94099 5.37743
1.98562 4.85586
2.03025 4.26855
2.07487 4.6996
2.11949 5.31165
2.16411 4.93199
2.20874 17.828
2.25338 29.7965
2.298 6.58006
2.34263 4.91726
2.38725 4.53514
2.43188 5.82013
2.4765 6.21479
2.52115 5.78123
2.56577 6.40159
2.6104 6.67419
2.65503 6.66006
2.69965 7.5063
2.7443 6.6257
2.78893 6.99174
2.83356 8.34038
2.87818 8.41661
2.92281 9.01084
2.96744 9.39256
3.01209 10.1137
3.05672 11.1813
3.10135 12.6442
3.14599 13.01
3.19062 14.4827
3.23527 15.2877
3.2799 16.0557
3.32454 17.1792
3.36917 18.1982
3.4138 19.2344
3.45844 19.9329
3.50309 21.6983
3.54773 22.2785
3.59237 25.2119
3.637 118.893
3.68164 74.7449
3.7263 27.4994
3.77094 27.2918
3.81558 27.5248
3.86022 28.466
3.90486 29.5915
3.9495 30.7135
3.99416 31.9605
4.0388 33.5267
4.08344 34.9735
4.12809 36.3556
4.17273 38.7747
4.21738 46.4735
4.26204 326.693
4.30669 294.587
4.35133 53.1534
4.39598 46.4629
4.44063 57.9433
4.4853 74.8438
4.52995 53.7049
4.5746 53.6991
4.61925 54.5308
4.6639 56.618
4.70855 59.5662
4.75322 62.6918
4.79788 66.1588
4.84253 69.5669
4.88719 74.2193
4.93184 77.5595
4.97652 83.8356
5.02118 90.6865
5.06583 99.4355
5.11049 114.492
5.15515 211.921
5.19981 497.135
5.24449 3038.25
5.28916 10916.3
5.33382 4247.05
5.37848 258.002
5.42315 146.548
5.46783 124.257
5.5125 113.076
5.55716 107.525
5.60183 103.388
5.6465 101.67
5.69117 98.6489
5.73586 96.7207
5.78053 96.4618
5.8252 96.7718
5.86988 97.8701
5.91455 99.9109
5.95924 111.845
6.00392 254.83
6.0486 1056.7
6.09328 3676.29
6.13795 3846.63
6.18263 365.764
6.22733 107.181
6.27201 90.0055
6.3167 117.259
6.36138 88.2653
6.40606 72.6547
6.45075 70.7502
6.49545 68.1046
6.54014 66.8822
6.58483 65.4603
6.62952 65.3823
6.67421 106.847
6.71892 182.138
6.76361 75.3471
6.8083 61.1973
6.853 60.0755
6.89769 59.1789
6.94239 58.6616
6.98711 57.9989
7.03181 57.8889
7.07651 57.5507
7.12121 57.6403
7.16591 57.9435
7.21063 58.4493
7.25533 76.9799
7.30004 230.933
7.34475 110.525
7.38945 59.3283
7.43416 56.7632
7.47889 56.2396
7.5236 56.5028
7.56831 57.4843
7.61303 59.8282
7.65774 60.4405
7.70247 58.4581
7.74719 57.979
7.79191 58.9533
7.83663 58.9872
7.88135 59.938
7.92607 60.841
7.97081 61.7528
8.01553 62.9748
8.06026 64.7491
8.10498 65.9941
8.14971 79.2792
8.19446 77.2576
8.23919 72.0948
8.28392 74.2632
8.32865 76.7142
8.37339 81.3273
8.41812 89.75
8.46288 128.918
8.50761 189.834
8.55235 434.373
8.59709 995.423
8.64183 2075.83
8.68658 1285.08
8.73134 226.383
8.77609 108.573
8.82083 98.0117
8.86558 94.0003
8.91033 94.8844
8.9551 97.4414
8.99985 89.0026
9.04461 86.2287
9.08936 85.6913
9.13412 84.5184
9.17888 84.6313
9.22365 85.7839
9.26841 84.5208
9.31318 85.6542
9.35794 86.0089
9.4027 86.1509
9.44749 86.5475
9.49226 87.1493
9.53703 88.0249
9.5818 90.339
9.62657 96.4739
9.67134 105.154
9.71614 97.6192
9.76091 97.1124
9.80569 100.493
9.85047 103.628
9.89525 135.198
9.94005 153.722
9.98484 198.063
10.0296 380.377
10.0744 710.345
10.1192 1478.29
10.164 1812.2
10.2088 588.782
10.2536 152.824
10.2984 122.567
10.3432 124.312
10.388 110.383
10.4328 126.565
10.4776 171.676
10.5224 254.208
10.5672 450.039
10.612 562.964
10.6568 262.284
10.7017 107.454
10.7465 90.9281
10.7913 86.6851
10.8361 84.1228
10.8809 82.2052
10.9257 81.806
10.9706 83.5372
11.0154 78.0176
11.0602 75.772
11.105 74.5901
11.1499 80.3057
11.1947 92.1944
11.2395 79.6864
11.2844 74.449
11.3292 69.7901
11.374 68.7311
11.4189 68.1716
11.4637 67.4616
11.5086 68.1533
11.5534 72.3152
11.5983 68.6846
11.6431 66.0238
11.688 65.4971
11.7328 65.2174
11.7777 65.3676
11.8225 64.6115
11.8674 64.5657
11.9122 65.1334
11.9571 65.1991
12.002 66.0254
12.0468 71.346
12.0917 84.4523
12.1366 102.393
12.1814 137.258
12.2263 195.687
12.2712 193.66
12.3161 116.805
12.3609 77.0035
12.4058 67.86
12.4507 66.9733
12.4956 66.9199
12.5405 67.1018
12.5853 68.0406
12.6302 78.2901
12.6751 87.01
12.72 73.9643
12.7649 70.3288
12.8098 70.7289
12.8547 72.2481
12.8996 73.4864
12.9445 74.7459
12.9894 76.3663
13.0343 78.2217
13.0792 81.7237
13.1242 92.3023
13.1691 121.384
13.214 153.414
13.2589 212.25
13.3038 322.61
13.3487 439.662
13.3937 325.366
13.4386 149.09
13.4835 114.133
13.5285 129.974
13.5734 156.335
13.6183 214.169
13.6633 313.271
13.7082 373.734
13.7531 239.321
13.7981 113.623
13.843 86.3541
13.888 82.9996
13.9329 80.3131
13.9779 78.6966
14.0228 76.817
14.0678 75.5891
14.1127 75.3256
14.1577 75.5537
14.2027 74.1078
14.2476 72.9204
14.2926 73.3752
14.3376 74.8791
14.3825 73.111
14.4275 71.3722
14.4725 70.953
14.5175 71.4778
14.5624 71.5101
14.6074 74.3617
14.6524 75.1074
14.6974 73.0793
14.7424 74.7215
14.7874 82.5828
14.8324 94.0238
14.8774 109.433
14.9224 137.425
14.9674 188.709
15.0124 228.46
15.0574 176.948
15.1024 105.108
15.1474 77.021
15.1924 73.6024
15.2374 74.7551
15.2824 74.1389
15.3274 71.231
15.3725 69.5189
15.4175 68.6269
15.4625 68.4312
15.5076 68.9757
15.5526 69.0525
15.5976 68.1892
15.6426 69.2776
15.6877 75.6411
15.7327 84.4454
15.7778 95.4428
15.8228 115.856
15.8679 152.161
15.9129 192.556
15.958 178.097
16.003 116.567
16.0481 74.8352
16.0931 68.6373
16.1382 66.3935
16.1833 63.3973
16.2283 61.3764
16.2734 60.9133
16.3185 61.1786
16.3636 62.4336
16.4086 60.8207
16.4537 58.4363
16.4988 57.6721
16.5439 57.7739
16.589 57.2295
16.6341 56.8075
16.6792 56.4316
16.7243 57.072
16.7694 57.4126
16.8145 56.9796
16.8596 57.2886
16.9047 59.4927
16.9498 60.0224
16.9949 57.9979
17.04 57.8704
17.0851 59.2936
17.1302 61.179
17.1754 63.8695
17.2205 67.0662
17.2656 72.3604
17.3108 81.7764
17.3559 86.1096
17.401 77.2532
17.4462 66.3877
17.4913 61.5114
17.5365 61.3485
17.5815 61.3443
17.6268 61.6
17.6718 62.6226
17.7171 63.2938
17.7622 63.5627
17.8074 63.9695
17.8525 66.557
17.8977 71.524
17.9428 77.2817
17.9881 83.055
18.0331 94.3179
18.0784 113.184
18.1237 137.47
18.1688 143.804
18.214 117.71
18.2591 92.2793
18.3044 88.7984
18.3495 97.0292
18.3948 108.345
18.4399 105.295
18.4852 85.5182
18.5303 70.4652
18.5756 64.764
18.6207 63.7545
18.666 62.9556
18.7112 62.072
18.7565 61.1441
18.8016 60.8485
18.8469 60.1067
18.892 59.9333
18.9374 59.3727
18.9825 59.1286
19.0278 59.2235
19.073 59.048
19.1183 59.9487
19.1635 60.7386
19.2088 61.939
19.254 63.2466
19.2993 66.1785
19.3447 71.961
19.3898 78.2658
19.4352 77.583
19.4804 68.8794
19.5257 60.4119
19.5709 56.5049
19.6163 56.0725
19.6615 55.9071
19.7068 55.449
19.752 55.217
19.7974 55.4777
19.8426 56.5836
19.888 57.4891
19.9332 58.2372
19.9786 59.8686
20.0238 62.1552
20.0692 66.7311
20.1144 71.4605
20.1598 72.3588
20.205 67.2652
20.2504 63.6691
20.2957 64.1217
20.3411 66.8695
20.3863 67.8497
20.4318 62.8337
20.477 57.1754
20.5224 54.3627
20.5677 53.3815
20.6131 52.2274
20.6586 51.6058
20.7038 51.5963
20.7493 51.083
20.7945 50.7329
20.84 50.625
20.8853 50.4144
20.9307 50.3292
20.976 50.4822
21.0215 50.468
21.0668 50.9944
21.1122 51.1123
21.1575 51.5289
21.203 51.9356
21.2483 53.05
21.2938 53.5521
21.3391 52.5686
21.3846 51.3131
21.4299 50.2584
21.4754 50.1645
21.5207 50.2942
21.5662 50.6517
21.6116 51.084
21.6571 51.8657
21.7024 52.7623
21.7479 54.0016
21.7933 55.884
21.8388 58.7485
21.8843 62.5869
21.9297 66.2905
21.9752 67.2321
22.0206 63.2493
22.0661 58.7403
22.1115 57.4385
22.157 57.883
22.2024 57.1338
22.248 54.3674
22.2933 52.164
22.3389 51.1404
22.3843 50.8889
22.4299 51.0129
22.4753 50.9448
22.5208 50.4563
22.5662 50.2595
22.6118 50.4665
22.6572 50.8644
22.7028 51.0954
22.7483 51.5342
22.7939 51.9519
22.8393 52.9174
22.8849 54.7033
22.9303 56.4085
22.9759 58.8886
23.0214 60.0847
23.067 58.143
23.1126 54.3079
23.1581 51.5486
23.2037 50.755
23.2492 50.7712
23.2948 50.7887
23.3403 50.9742
23.3859 51.4174
23.4314 52.1313
23.477 53.3713
23.5225 54.7177
23.5682 57.4568
23.6137 59.6799
23.6593 58.9933
23.7048 55.0925
23.7505 51.0723
23.796 48.7702
23.8417 47.8084
23.8872 47.2808
23.9329 46.9024
23.9784 46.5944
24.0241 46.2691
24.0697 46.1272
24.1154 45.8225
24.1609 45.6998
24.2066 45.64
24.2522 45.255
24.2979 45.1145
24.3434 44.9266
24.3892 44.7943
24.4349 44.7614
24.4805 44.5
24.5262 44.638
24.5718 44.5684
24.6175 44.509
24.6631 44.3913
24.7089 44.1403
24.7545 44.114
24.8002 43.9145
24.8458 43.6719
24.8916 43.6809
24.9372 43.6314
24.983 44.0638
25.0286 44.2216
25.0744 44.5391
25.12 44.998
25.1658 45.687
25.2114 46.1267
25.2572 46.1309
25.3029 46.1074
25.3487 46.2793
25.3943 46.3294
25.4402 45.6471
25.4858 44.6072
25.5316 43.3215
25.5773 42.4515
25.6231 42.4224
25.669 42.1202
25.7147 42.0812
25.7605 41.9704
25.8062 41.9323
25.8521 42.1567
25.8977 42.1673
25.9436 42.0839
25.9893 42.2025
26.0352 42.6437
26.0809 42.6902
26.1268 43.1189
26.1725 43.0019
26.2184 42.6472
26.2641 41.866
26.31 41.6009
26.3557 41.7368
26.4017 41.5607
26.4474 41.9476
26.4933 42.0484
26.5391 42.4578
26.585 42.7399
26.6308 43.2197
26.6767 43.7082
26.7225 43.6895
26.7684 43.0775
26.8142 42.3728
26.8601 42.0001
26.9059 41.6535
26.9519 41.0259
26.9979 40.8212
27.0437 40.3541
27.0896 40.1622
27.1354 40.1566
27.1814 39.9969
27.2272 39.9354
27.2732 39.9192
27.3191 39.8448
27.3651 39.7965
27.4109 39.7103
27.4569 39.8518
27.5027 39.8002
27.5488 39.8762
27.5946 39.8093
27.6407 39.6177
27.6865 39.4485
27.7326 39.2631
27.7784 39.2469
27.8245 39.2281
27.8703 39.3151
27.9164 39.4691
27.9623 39.5138
28.0084 39.8484
28.0543 40.3194
28.1003 40.4752
28.1462 40.2709
28.1923 40.0302
28.2384 39.4372
28.2843 39.1538
28.3304 38.6458
28.3764 38.2483
28.4225 37.9099
28.4684 37.597
28.5145 37.2759
28.5605 37.2678
28.6066 37.0181
28.6526 36.9903
28.6987 36.8441
28.7447 36.7747
28.7908 36.5975
28.8368 36.6314
28.8829 36.6326
28.9289 36.6836
28.9751 36.4419
29.0211 36.261
29.0673 35.929
29.1133 35.8735
29.1595 35.7327
29.2055 35.5251
29.2517 35.5321
29.2977 35.438
29.3439 35.4315
29.3899 35.5122
29.4361 35.5091
29.4824 35.3292
29.5284 34.9569
29.5746 34.723
29.6207 34.4427
29.6669 34.383
29.713 34.2486
29.7593 34.1063
29.8053 34.1634
29.8516 33.9321
29.8977 33.9193
29.9439 33.9036
29.99 33.6855
30.0363 33.6371
30.0824 33.693
30.1287 33.5564
30.1748 33.5962
30.2211 33.6206
30.2673 33.5343
30.3136 33.5688
30.3597 33.533
30.406 33.4695
30.4522 33.2534
30.4985 33.2455
30.5447 33.2113
30.591 33.2135
30.6372 33.3187
30.6835 33.3316
30.7297 33.3353
30.7761 33.284
30.8224 33.2408
30.8686 33.0914
30.915 32.8992
30.9612 32.7249
31.0076 32.4962
31.0538 32.3664
31.1002 32.2343
31.1464 32.1135
31.1928 32.0534
31.2391 32.1303
31.2855 32.0148
31.3317 31.8952
31.3781 32.0434
31.4244 32.0067
31.4708 31.8211
31.5171 31.8859
31.5636 31.9887
31.6098 31.6705
31.6563 31.4611
31.7026 31.3863
31.7491 31.157
31.7953 31.2288
31.8418 31.2328
31.8881 31.2642
31.9346 31.1588
31.9809 31.1909
32.0275 30.9677
32.074 30.9239
32.1203 30.7067
32.1668 30.7144
32.2132 30.5383
32.2597 30.3566
32.306 30.2393
32.3526 30.0961
32.399 29.9993
32.4455 29.8184
32.4919 29.7878
32.5385 29.6834
32.5848 29.5829
32.6314 29.4995
32.6778 29.4419
32.7244 29.3462
32.7708 29.1961
32.8174 29.1096
32.8638 29.0969
32.9104 29.1678
32.9569 29.0143
33.0035 28.9134
33.0499 28.9235
33.0966 28.7912
33.143 28.7221
33.1897 28.5931
33.2361 28.6105
33.2828 28.6494
33.3293 28.3397
33.3759 28.4648
33.4226 28.2444
33.4691 28.1439
33.5158 28.0607
33.5623 27.9266
33.609 27.7448
33.6555 27.7636
33.7022 27.5636
33.7487 27.5035
33.7954 27.4203
33.842 27.2852
33.8887 27.3787
33.9353 27.2659
33.982 27.1734
34.0286 27.1072
34.0753 26.9063
34.1219 26.9009
34.1687 26.7733
34.2152 26.7453
34.262 26.5192
34.3086 26.4221
34.3554 26.4438
34.402 26.3126
34.4488 26.281
34.4954 26.1829
34.5422 26.0863
34.5889 25.9727
34.6357 25.8135
34.6825 25.8368
34.7292 25.7208
34.776 25.6963
34.8227 25.6306
34.8695 25.4857
34.9162 25.5249
34.9631 25.3689
35.0098 25.4455
35.0566 25.2225
35.1033 25.2181
35.1502 25.167
35.1969 25.0408
35.2438 25.0134
35.2906 25.0002
35.3375 24.9203
35.3842 24.851
35.4311 24.8702
35.4779 24.7848
35.5248 24.7729
35.5716 24.6343
35.6185 24.6315
35.6653 24.5336
35.7123 24.4058
35.759 24.3351
35.806 24.2254
35.8528 24.0377
35.8998 24.1149
35.9468 24.009
35.9936 23.9477
36.0406 23.823
36.0874 23.8221
36.1345 23.7105
36.1813 23.6879
36.2283 23.64
36.2752 23.4265
36.3222 23.4514
36.3691 23.3694
36.4161 23.2162
36.463 23.2514
36.5101 23.2117
36.557 23.211
36.6041 23.0133
36.651 22.982
36.6981 22.9185
36.745 22.8014
36.7921 22.8496
36.839 22.6007
36.8861 22.5973
36.9331 22.5211
36.9802 22.4206
37.0272 22.3647
37.0743 22.3158
37.1213 22.2834
37.1684 22.2141
37.2154 22.0405
37.2626 22.0552
37.3098 22.0597
37.3568 21.909
37.404 21.9378
37.451 21.7722
37.4982 21.6937
37.5452 21.5746
37.5924 21.5732
37.6395 21.5545
37.6867 21.58
37.7337 21.4056
37.781 21.3877
37.8281 21.2048
37.8753 21.1895
37.9224 21.108
37.9697 21.0683
38.0168 20.9998
38.064 20.9262
38.1111 20.8534
38.1584 20.7067
38.2056 20.7038
38.2529 20.6742
38.3 20.5691
38.3473 20.5504
38.3945 20.4036
38.4418 20.3817
38.489 20.3696
38.5363 20.2085
38.5837 20.1345
38.6309 20.1147
38.6782 20.0417
38.7254 19.948
38.7728 19.892
38.82 19.811
38.8674 19.7793
38.9146 19.7876
38.9621 19.7236
39.0093 19.6664
39.0567 19.5457
39.104 19.5234
39.1514 19.4545
39.1987 19.3615
39.2461 19.3653
39.2934 19.2949
39.3409 19.1171
39.3882 19.0859
39.4356 19.0592
39.483 19.0018
39.5304 18.9313
39.5778 18.865
39.6253 18.8795
39.6726 18.8462
39.7201 18.7095
39.7675 18.6591
39.815 18.6214
39.8624 18.5045
39.9099 18.4702
39.9575 18.4283
40.0049 18.3782
40.0525 18.259
40.0999 18.2658
40.1474 18.2159
40.1949 18.0628
40.2425 18.0565
40.2899 18.0264
40.3375 17.9759
40.385 17.8227
40.4326 17.8466
40.48 17.8031
40.5277 17.7713
40.5752 17.6881
40.6228 17.5323
40.6703 17.5632
40.718 17.5238
40.7655 17.4788
40.8132 17.3858
40.8607 17.3843
40.9084 17.2819
40.9559 17.2639
41.0036 17.1521
41.0512 17.1159
41.0989 17.1814
41.1465 17.0588
41.1942 16.9914
41.242 16.8971
41.2896 16.8207
41.3373 16.7474
41.3849 16.7333
41.4327 16.7045
41.4803 16.5623
41.5281 16.5565
41.5758 16.4763
41.6236 16.4326
41.6712 16.3624
41.7191 16.2704
41.7667 16.2486
41.8146 16.2614
41.8622 16.1622
41.9101 16.1433
41.9578 16.0122
42.0057 16.0028
42.0534 15.9475
42.1013 15.9016
42.149 15.7949
42.1969 15.7761
42.2446 15.7718
42.2925 15.7242
42.3403 15.5931
42.3882 15.6376
42.436 15.5397
42.4839 15.3949
42.5319 15.4706
42.5797 15.3733
42.6277 15.3289
42.6755 15.2538
42.7235 15.174
42.7713 15.1808
42.8193 15.1318
42.8671 15.068
42.9152 14.9699
42.963 14.922
43.0111 14.936
43.0589 14.8018
43.107 14.8538
43.1549 14.728
43.2029 14.7011
43.2508 14.6789
43.2989 14.5402
43.3468 14.5332
43.3949 14.4265
43.4429 14.4218
43.491 14.3599
43.5389 14.3057
43.5871 14.3361
43.635 14.2711
43.6832 14.1951
43.7312 14.1606
43.7793 14.1161
43.8273 14.0153
43.8755 13.9806
43.9237 13.9649
43.9717 13.9374
44.0199 13.833
44.068 13.8225
44.1162 13.7476
44.1642 13.7116
44.2125 13.6762
44.2606 13.6148
44.3088 13.5894
44.3569 13.5337
44.4052 13.4923
44.4533 13.4042
44.5016 13.3784
44.5497 13.3715
44.598 13.3078
44.6461 13.2634
44.6945 13.2247
44.7426 13.1906
44.791 13.0849
44.8391 13.0567
44.8875 13.0544
44.9357 12.999
44.984 12.9555
45.0322 12.8721
45.0806 12.7833
45.1288 12.7941
45.1773 12.7479
45.2257 12.7158
45.2739 12.6436
45.3224 12.6074
45.3706 12.5858
45.4191 12.5175
45.4673 12.4883
45.5158 12.4336
45.5641 12.3979
45.6126 12.3493
45.6609 12.2939
45.7094 12.2363
45.7577 12.1928
45.8063 12.1425
45.8546 12.1657
45.9031 12.0808
45.9515 12.0686
46.0001 12.0166
46.0484 11.9529
46.097 11.9514
46.1454 11.8415
46.194 11.808
46.2424 11.7959
46.291 11.7358
46.3395 11.7331
46.3881 11.6439
46.4365 11.6273
46.4852 11.5874
46.5337 11.5355
46.5823 11.5129
46.631 11.4512
46.6795 11.421
46.7282 11.3687
46.7767 11.3199
46.8254 11.272
46.8739 11.2897
46.9226 11.1951
46.9712 11.1516
47.0199 11.1292
47.0685 11.0512
47.1173 10.9762
47.1658 11.0015
47.2146 10.9159
47.2632 10.8754
47.312 10.8689
47.3606 10.8372
47.4095 10.8231
47.4581 10.7363
47.5069 10.7338
47.5556 10.6588
47.6044 10.6477
47.6531 10.6202
47.702 10.532
47.7507 10.5368
47.7996 10.4846
47.8483 10.4772
47.8972 10.4002
47.9461 10.3743
47.9948 10.3275
48.0438 10.2979
48.0925 10.2191
48.1415 10.2127
48.1902 10.1567
48.2392 10.1417
48.288 10.1301
48.337 10.0848
48.3858 10.0258
48.4348 9.9847
48.4837 9.96302
48.5327 9.92521
48.5815 9.88838
48.6306 9.85718
48.6795 9.83944
48.7285 9.79967
48.7774 9.7557
48.8265 9.70208
48.8754 9.67078
48.9245 9.61927
48.9734 9.58601
49.0226 9.57924
49.0715 9.52572
49.1206 9.50839
49.1696 9.42228
49.2188 9.4275
49.2679 9.37926
49.3169 9.32615
49.3661 9.31645
49.4151 9.28324
49.4643 9.23766
49.5134 9.21803
49.5626 9.13136
49.6117 9.13888
49.6609 9.11031
49.71 9.02544
49.7592 9.04443
49.8083 8.98584
49.8576 8.94449
49.9067 8.89735
49.956 8.88452
50.0052 8.84431
50.0545 8.85705
50.1036 8.7712
50.153 8.74187
50.2022 8.71777
50.2515 8.69928
50.3007 8.65378
50.3501 8.62738
50.3993 8.55312
50.4487 8.54004
50.498 8.52251
50.5474 8.47472
50.5966 8.42474
50.6461 8.43367
50.6955 8.42589
50.7448 8.38698
50.7943 8.35361
50.8436 8.27314
50.8931 8.27675
50.9424 8.22248
50.9919 8.19306
51.0413 8.17019
51.0908 8.11553
51.1402 8.08864
51.1897 8.0695
51.2391 8.06132
51.2887 7.97508
51.3381 7.98222
51.3877 7.93751
51.4371 7.90025
51.4867 7.87325
51.5362 7.82337
51.5858 7.79845
51.6353 7.72303
51.6849 7.7284
51.7344 7.72483
51.7841 7.69533
51.8336 7.62935
51.8833 7.63431
51.9328 7.53818
51.9826 7.55396
52.0323 7.53587
52.0818 7.44161
52.1316 7.4285
52.1812 7.43652
52.231 7.37342
52.2806 7.36309
52.3304 7.34915
52.38 7.33566
52.4298 7.27543
52.4794 7.23735
52.5293 7.20858
52.5789 7.16103
52.6288 7.15311
52.6785 7.10489
52.7284 7.10428
52.7781 7.06812
52.828 7.02647
52.8777 6.95081
52.9276 6.97649
52.9774 6.94318
53.0273 6.91541
53.0771 6.88645
53.1271 6.86581
53.1769 6.82125
53.2269 6.80962
53.2767 6.74554
53.3267 6.74403
53.3765 6.73263
53.4266 6.65388
53.4766 6.62408
53.5265 6.62773
53.5765 6.58255
53.6264 6.54077
53.6765 6.53034
53.7264 6.47747
53.7765 6.48666
53.8265 6.45943
53.8766 6.40074
53.9266 6.43751
53.9767 6.37346
54.0267 6.36019
54.0769 6.35502
54.1269 6.29228
54.1771 6.24767
54.2271 6.24825
54.2773 6.20188
54.3274 6.17893
54.3776 6.12012
54.4277 6.04041
54.478 6.02997
54.528 6.00112
54.5783 5.94327
54.6285 5.87883
54.6788 5.92957
54.7289 5.88087
54.7792 5.76788
54.8296 5.72498
54.8798 5.72568
54.9301 5.71056
54.9803 5.62849
55.0307 5.62723
55.0809 5.56755
55.1314 5.4783
55.1816 5.44341
55.232 5.41099
55.2823 5.40693
55.3328 5.39132
55.383 5.24849
55.4335 5.24338
55.4838 5.22939
55.5344 5.09458
55.5847 5.09457
55.6352 5.09052
55.6856 5.0036
55.7361 4.99419