File: XRD/Ni3Fe_FD0547.xy
TT I
1.27165 7.41989
1.31627 6.37389
1.36089 6.65806
1.40551 6.61217
1.45013 6.1794
1.49476 5.92479
1.53938 5.90457
1.584 6.24124
1.62863 5.08295
1.67325 4.88813
1.71787 5.41264
1.7625 4.93709
1.80712 4.66467
1.85174 4.49263
1.89636 5.01883
1.94099 4.98386
1.98562 4.77074
2.03025 4.35943
2.07487 4.72017
2.11949 5.08087
2.16411 4.82055
2.20874 14.2631
2.25338 21.3052
2.298 6.17515
2.34263 5.28748
2.38725 5.47648
2.43188 5.85209
2.4765 6.44907
2.52115 6.9523
2.56577 7.20284
2.6104 7.85151
2.65503 7.15836
2.69965 7.61428
2.7443 8.49375
2.78893 7.46497
2.83356 8.9685
2.87818 8.84709
2.92281 9.02243
2.96744 10.1497
3.01209 10.5842
3.05672 11.0258
3.10135 12.3323
3.14599 12.9228
3.19062 14.4711
3.23527 14.9966
3.2799 15.8434
3.32454 16.8041
3.36917 17.9656
3.4138 18.5383
3.45844 19.4561
3.50309 20.8347
3.54773 22.1719
3.59237 24.095
3.637 89.8085
3.68164 57.2558
3.7263 26.2231
3.77094 26.4017
3.81558 26.7418
3.86022 27.5669
3.90486 29.3032
3.9495 29.9405
3.99416 30.6948
4.0388 32.6322
4.08344 33.5447
4.12809 35.3415
4.17273 37.0832
4.21738 43.42
4.26204 236.642
4.30669 206.658
4.35133 48.3636
4.39598 44.9816
4.44063 54.2513
4.4853 64.9901
4.52995 50.3805
4.5746 51.4334
4.61925 53.5249
4.6639 55.593
4.70855 58.5358
4.75322 61.3074
4.79788 63.7174
4.84253 67.7849
4.88719 71.566
4.93184 75.7221
4.97652 81.5606
5.02118 87.9381
5.06583 96.4696
5.11049 107.764
5.15515 176.361
5.19981 380.052
5.24449 2975.27
5.28916 12319.6
5.33382 3143.82
5.37848 198.369
5.42315 130.683
5.46783 114.044
5.5125 106.467
5.55716 102.734
5.60183 99.068
5.6465 97.8027
5.69117 94.8363
5.73586 93.109
5.78053 92.3718
5.8252 91.7152
5.86988 92.9803
5.91455 95.5238
5.95924 104.781
6.00392 220.313
6.0486 1018.91
6.09328 4358.37
6.13795 3340.74
6.18263 259.482
6.22733 94.6651
6.27201 83.8254
6.3167 101.707
6.36138 80.4087
6.40606 69.5044
6.45075 67.8973
6.49545 66.0661
6.54014 64.0922
6.58483 63.1673
6.62952 63.1097
6.67421 93.4131
6.71892 139.919
6.76361 68.5129
6.8083 59.0538
6.853 57.7854
6.89769 57.3432
6.94239 56.882
6.98711 55.9757
7.03181 55.7993
7.07651 55.5019
7.12121 55.3415
7.16591 55.6478
7.21063 55.6768
7.25533 69.7417
7.30004 174.13
7.34475 90.2694
7.38945 56.5194
7.43416 55.0723
7.47889 54.741
7.5236 55.1984
7.56831 55.7869
7.61303 57.5286
7.65774 57.5688
7.70247 56.3594
7.74719 56.5065
7.79191 56.9775
7.83663 57.3483
7.88135 58.2125
7.92607 59.3404
7.97081 60.3796
8.01553 61.1976
8.06026 62.4875
8.10498 64.1363
8.14971 73.5144
8.19446 72.4252
8.23919 70.1857
8.28392 72.3109
8.32865 74.9168
8.37339 78.9155
8.41812 85.7617
8.46288 114.758
8.50761 168.58
8.55235 404.719
8.59709 1194.25
8.64183 2196.22
8.68658 956.803
8.73134 168.271
8.77609 100.284
8.82083 93.1421
8.86558 89.8408
8.91033 90.0441
8.9551 91.6045
8.99985 85.5721
9.04461 84.1623
9.08936 83.0399
9.13412 82.2477
9.17888 82.3777
9.22365 83.3352
9.26841 82.5457
9.31318 83.2319
9.35794 83.1124
9.4027 83.3831
9.44749 84.6074
9.49226 85.2899
9.53703 85.8885
9.5818 87.7971
9.62657 92.0571
9.67134 98.6461
9.71614 93.9788
9.76091 94.6002
9.80569 96.8075
9.85047 100.506
9.89525 124.017
9.94005 136.847
9.98484 181.051
10.0296 354.328
10.0744 819.008
10.1192 1701.91
10.164 1605.15
10.2088 395.331
10.2536 126.977
10.2984 113.709
10.3432 115.034
10.388 105.472
10.4328 120.111
10.4776 164.795
10.5224 288.248
10.5672 518.782
10.612 510.812
10.6568 194.954
10.7017 95.6237
10.7465 86.8645
10.7913 83.5042
10.8361 81.5847
10.8809 79.4181
10.9257 78.7841
10.9706 79.1092
11.0154 75.1468
11.0602 73.3084
11.105 72.2917
11.1499 76.4226
11.1947 83.5407
11.2395 74.5302
11.2844 70.823
11.3292 67.3907
11.374 66.6492
11.4189 66.024
11.4637 65.3331
11.5086 65.8947
11.5534 68.4406
11.5983 66.0522
11.6431 64.0763
11.688 63.2594
11.7328 63.5525
11.7777 63.1843
11.8225 62.6436
11.8674 62.9879
11.9122 63.267
11.9571 63.306
12.002 64.054
12.0468 68.5404
12.0917 80.3374
12.1366 104.408
12.1814 153.107
12.2263 206.396
12.2712 166.606
12.3161 95.7984
12.3609 70.5245
12.4058 65.2333
12.4507 64.848
12.4956 64.8536
12.5405 65.0812
12.5853 65.9693
12.6302 73.6097
12.6751 78.7739
12.72 70.3549
12.7649 68.0518
12.8098 68.9229
12.8547 70.2156
12.8996 71.1237
12.9445 72.787
12.9894 74.5426
13.0343 76.2935
13.0792 79.6343
13.1242 88.8442
13.1691 114.015
13.214 152.348
13.2589 241.295
13.3038 371.359
13.3487 432.766
13.3937 264.865
13.4386 123.442
13.4835 106.625
13.5285 122.342
13.5734 161.4
13.6183 250.19
13.6633 352.646
13.7082 344.005
13.7531 186.867
13.7981 97.776
13.843 82.0724
13.888 80.1473
13.9329 77.4428
13.9779 76.2177
14.0228 74.7274
14.0678 73.473
14.1127 73.0167
14.1577 72.7658
14.2027 71.7987
14.2476 70.9374
14.2926 71.056
14.3376 72.0451
14.3825 70.4227
14.4275 69.0201
14.4725 68.9436
14.5175 69.5477
14.5624 69.5587
14.6074 71.5659
14.6524 72.2988
14.6974 70.9534
14.7424 72.5387
14.7874 79.7336
14.8324 90.3955
14.8774 111.939
14.9224 154.816
14.9674 209.459
15.0124 219.907
15.0574 148.566
15.1024 90.4738
15.1474 72.8458
15.1924 70.7416
15.2374 71.6358
15.2824 70.7094
15.3274 68.527
15.3725 67.3143
15.4175 66.9533
15.4625 66.3967
15.5076 66.7738
15.5526 66.6328
15.5976 66.3209
15.6426 67.2072
15.6877 73.2515
15.7327 80.9817
15.7778 96.5282
15.8228 127.388
15.8679 171.291
15.9129 195.581
15.958 154.817
16.003 95.7698
16.0481 67.9748
16.0931 65.1313
16.1382 63.1181
16.1833 60.9588
16.2283 59.3364
16.2734 58.9185
16.3185 59.1388
16.3636 59.8141
16.4086 58.2219
16.4537 56.7979
16.4988 55.9079
16.5439 55.8905
16.589 55.6103
16.6341 55.4135
16.6792 54.9781
16.7243 55.2409
16.7694 55.1936
16.8145 55.2094
16.8596 55.6028
16.9047 56.9957
16.9498 57.4597
16.9949 56.0923
17.04 56.2209
17.0851 57.5353
17.1302 59.1453
17.1754 62.3015
17.2205 67.3589
17.2656 74.7205
17.3108 83.0649
17.3559 82.6528
17.401 71.6488
17.4462 62.2275
17.4913 59.4235
17.5365 59.5833
17.5815 59.8052
17.6268 60.0849
17.6718 60.7822
17.7171 61.4699
17.7622 61.7954
17.8074 62.6145
17.8525 64.706
17.8977 69.194
17.9428 74.5614
17.9881 83.3443
18.0331 100.616
18.0784 122.53
18.1237 141.729
18.1688 132.808
18.214 103.613
18.2591 86.5242
18.3044 91.0438
18.3495 101.652
18.3948 108.092
18.4399 97.1703
18.4852 77.6765
18.5303 66.3637
18.5756 62.5871
18.6207 61.7687
18.666 60.8848
18.7112 60.3319
18.7565 59.3607
18.8016 59.0916
18.8469 58.5774
18.892 58.1953
18.9374 57.7481
18.9825 57.4571
19.0278 57.2622
19.073 57.3555
19.1183 57.8884
19.1635 58.5652
19.2088 60.0983
19.254 62.6887
19.2993 67.1223
19.3447 73.2369
19.3898 76.9464
19.4352 72.3947
19.4804 63.3099
19.5257 56.9813
19.5709 54.5305
19.6163 54.1601
19.6615 54.0887
19.7068 53.6235
19.752 53.899
19.7974 53.9868
19.8426 54.7895
19.888 55.6181
19.9332 56.8793
19.9786 59.3285
20.0238 63.0079
20.0692 67.679
20.1144 70.535
20.1598 68.5172
20.205 63.7613
20.2504 62.6157
20.2957 64.3965
20.3411 66.3385
20.3863 64.6352
20.4318 58.6508
20.477 53.8221
20.5224 51.9869
20.5677 51.2845
20.6131 50.7118
20.6586 50.0023
20.7038 49.8479
20.7493 49.4578
20.7945 49.3128
20.84 49.136
20.8853 49.1153
20.9307 48.8764
20.976 49.2761
21.0215 48.9016
21.0668 49.4389
21.1122 49.9144
21.1575 50.4052
21.203 51.1389
21.2483 51.8657
21.2938 51.7786
21.3391 50.4802
21.3846 49.356
21.4299 48.862
21.4754 48.8311
21.5207 48.9009
21.5662 49.1893
21.6116 49.6192
21.6571 50.3364
21.7024 51.32
21.7479 53.0975
21.7933 55.86
21.8388 59.4101
21.8843 63.1945
21.9297 65.2484
21.9752 63.6964
22.0206 59.9788
22.0661 56.7052
22.1115 56.5306
22.157 56.3257
22.2024 54.6239
22.248 51.8038
22.2933 50.2832
22.3389 49.2856
22.3843 49.3666
22.4299 49.1399
22.4753 49.2908
22.5208 48.9741
22.5662 48.9227
22.6118 49.1207
22.6572 49.3678
22.7028 49.5414
22.7483 50.1165
22.7939 50.8997
22.8393 52.2948
22.8849 54.493
22.9303 56.4716
22.9759 58.4008
23.0214 57.8356
23.067 54.767
23.1126 51.2929
23.1581 49.5235
23.2037 49.15
23.2492 49.2299
23.2948 49.2
23.3403 49.5013
23.3859 50.1284
23.4314 51.1756
23.477 53.0357
23.5225 55.2281
23.5682 57.3545
23.6137 58.5569
23.6593 56.0072
23.7048 51.7642
23.7505 48.3277
23.796 46.8118
23.8417 46.4265
23.8872 45.8683
23.9329 45.4821
23.9784 45.1773
24.0241 44.9255
24.0697 44.9357
24.1154 44.5242
24.1609 44.3619
24.2066 44.1353
24.2522 43.8857
24.2979 43.7609
24.3434 43.6042
24.3892 43.4476
24.4349 43.4516
24.4805 43.1666
24.5262 43.4116
24.5718 43.2694
24.6175 43.2372
24.6631 43.0649
24.7089 42.763
24.7545 42.645
24.8002 42.5449
24.8458 42.4912
24.8916 42.3735
24.9372 42.5726
24.983 42.8831
25.0286 43.1659
25.0744 43.6175
25.12 44.1558
25.1658 44.6809
25.2114 45.111
25.2572 45.1502
25.3029 45.2564
25.3487 45.3092
25.3943 45.0098
25.4402 43.7739
25.4858 42.7632
25.5316 41.8043
25.5773 41.2643
25.6231 41.2884
25.669 40.8714
25.7147 40.8146
25.7605 40.7928
25.8062 40.689
25.8521 41.0756
25.8977 40.8496
25.9436 41.0567
25.9893 41.1931
26.0352 41.9101
26.0809 41.8681
26.1268 42.0745
26.1725 41.63
26.2184 41.1957
26.2641 40.5739
26.31 40.4422
26.3557 40.4819
26.4017 40.4569
26.4474 40.7859
26.4933 41.0199
26.5391 41.5874
26.585 42.1044
26.6308 42.4899
26.6767 42.4704
26.7225 42.2783
26.7684 41.7672
26.8142 41.0786
26.8601 40.7263
26.9059 40.213
26.9519 39.7903
26.9979 39.4253
27.0437 39.0972
27.0896 38.9199
27.1354 39.0387
27.1814 38.8417
27.2272 38.7592
27.2732 38.9014
27.3191 38.5878
27.3651 38.7339
27.4109 38.6738
27.4569 38.8077
27.5027 38.8368
27.5488 38.8614
27.5946 38.7102
27.6407 38.4517
27.6865 38.2937
27.7326 38.1338
27.7784 38.0927
27.8245 38.0807
27.8703 38.3659
27.9164 38.6205
27.9623 38.6988
28.0084 38.9807
28.0543 39.4437
28.1003 39.3213
28.1462 39.064
28.1923 38.7683
28.2384 38.2554
28.2843 37.7928
28.3304 37.5118
28.3764 36.9431
28.4225 36.7453
28.4684 36.5149
28.5145 36.3005
28.5605 36.1569
28.6066 35.7826
28.6526 35.8578
28.6987 35.7501
28.7447 35.8084
28.7908 35.725
28.8368 35.6725
28.8829 35.6749
28.9289 35.5415
28.9751 35.3702
29.0211 35.2076
29.0673 34.9467
29.1133 34.7674
29.1595 34.6669
29.2055 34.5452
29.2517 34.626
29.2977 34.5883
29.3439 34.4999
29.3899 34.5692
29.4361 34.3823
29.4824 34.2012
29.5284 33.9577
29.5746 33.684
29.6207 33.3387
29.6669 33.3189
29.713 33.2659
29.7593 33.1389
29.8053 33.0965
29.8516 33.0292
29.8977 33.1201
29.9439 32.9022
29.99 32.8058
30.0363 32.7248
30.0824 32.7602
30.1287 32.6248
30.1748 32.6927
30.2211 32.6654
30.2673 32.5677
30.3136 32.544
30.3597 32.4361
30.406 32.4752
30.4522 32.2547
30.4985 32.1651
30.5447 32.3429
30.591 32.3766
30.6372 32.4392
30.6835 32.4199
30.7297 32.5005
30.7761 32.403
30.8224 32.3173
30.8686 32.1498
30.915 31.8987
30.9612 31.7702
31.0076 31.5637
31.0538 31.4564
31.1002 31.3334
31.1464 31.1608
31.1928 31.1612
31.2391 31.1908
31.2855 31.0459
31.3317 31.1652
31.3781 31.1227
31.4244 31.1841
31.4708 31.0962
31.5171 31.1222
31.5636 30.8986
31.6098 30.8172
31.6563 30.5597
31.7026 30.5517
31.7491 30.3274
31.7953 30.4583
31.8418 30.347
31.8881 30.3894
31.9346 30.3603
31.9809 30.1561
32.0275 30.2134
32.074 30.0342
32.1203 29.8332
32.1668 29.6627
32.2132 29.5698
32.2597 29.3866
32.306 29.4278
32.3526 29.2252
32.399 29.1469
32.4455 29.027
32.4919 28.9507
32.5385 28.8242
32.5848 28.6741
32.6314 28.7091
32.6778 28.6151
32.7244 28.5282
32.7708 28.3767
32.8174 28.354
32.8638 28.2814
32.9104 28.2634
32.9569 28.2028
33.0035 28.0125
33.0499 27.964
33.0966 28.0103
33.143 27.9598
33.1897 27.8797
33.2361 27.8833
33.2828 27.8018
33.3293 27.6906
33.3759 27.5111
33.4226 27.4533
33.4691 27.2777
33.5158 27.1447
33.5623 27.0694
33.609 26.9783
33.6555 26.8524
33.7022 26.8517
33.7487 26.7023
33.7954 26.757
33.842 26.6268
33.8887 26.5105
33.9353 26.4483
33.982 26.316
34.0286 26.2597
34.0753 26.1602
34.1219 26.0435
34.1687 25.9775
34.2152 26.0428
34.262 25.8408
34.3086 25.7596
34.3554 25.6983
34.402 25.5786
34.4488 25.5523
34.4954 25.4763
34.5422 25.3432
34.5889 25.2231
34.6357 25.1569
34.6825 25.1526
34.7292 25.0801
34.776 24.8709
34.8227 24.8969
34.8695 24.8458
34.9162 24.8289
34.9631 24.6881
35.0098 24.6341
35.0566 24.481
35.1033 24.3899
35.1502 24.4251
35.1969 24.4296
35.2438 24.2918
35.2906 24.3483
35.3375 24.2377
35.3842 24.1496
35.4311 24.1406
35.4779 24.1159
35.5248 24.0474
35.5716 23.9199
35.6185 23.9979
35.6653 23.8353
35.7123 23.7149
35.759 23.5993
35.806 23.5214
35.8528 23.4898
35.8998 23.3618
35.9468 23.3006
35.9936 23.3661
36.0406 23.2015
36.0874 23.1631
36.1345 23.0903
36.1813 23.0356
36.2283 23.0069
36.2752 22.8192
36.3222 22.817
36.3691 22.7485
36.4161 22.6886
36.463 22.6241
36.5101 22.6039
36.557 22.4618
36.6041 22.3132
36.651 22.3375
36.6981 22.3187
36.745 22.2345
36.7921 22.1519
36.839 22.049
36.8861 21.9218
36.9331 21.9677
36.9802 21.8072
37.0272 21.7552
37.0743 21.6709
37.1213 21.6862
37.1684 21.5709
37.2154 21.5296
37.2626 21.4352
37.3098 21.3454
37.3568 21.2718
37.404 21.3046
37.451 21.1546
37.4982 21.0405
37.5452 21.029
37.5924 20.9698
37.6395 20.9782
37.6867 20.8531
37.7337 20.7771
37.781 20.6364
37.8281 20.6386
37.8753 20.5336
37.9224 20.4999
37.9697 20.472
38.0168 20.3251
38.064 20.2746
38.1111 20.2808
38.1584 20.2355
38.2056 20.0743
38.2529 20.0255
38.3 19.9107
38.3473 19.9898
38.3945 19.8322
38.4418 19.7601
38.489 19.7241
38.5363 19.6517
38.5837 19.6143
38.6309 19.5546
38.6782 19.494
38.7254 19.3532
38.7728 19.4401
38.82 19.2848
38.8674 19.2806
38.9146 19.1429
38.9621 19.1357
39.0093 19.0371
39.0567 19.0501
39.104 18.8802
39.1514 18.8364
39.1987 18.7766
39.2461 18.7624
39.2934 18.6974
39.3409 18.6303
39.3882 18.528
39.4356 18.499
39.483 18.4752
39.5304 18.366
39.5778 18.3961
39.6253 18.285
39.6726 18.2873
39.7201 18.1787
39.7675 18.1006
39.815 18.0331
39.8624 18.0201
39.9099 17.9843
39.9575 17.8602
40.0049 17.8157
40.0525 17.7618
40.0999 17.7307
40.1474 17.6847
40.1949 17.5889
40.2425 17.4626
40.2899 17.5434
40.3375 17.4543
40.385 17.4239
40.4326 17.3414
40.48 17.2213
40.5277 17.2447
40.5752 17.1439
40.6228 17.1419
40.6703 17.0462
40.718 16.9936
40.7655 16.9938
40.8132 16.8664
40.8607 16.818
40.9084 16.7744
40.9559 16.7359
41.0036 16.6774
41.0512 16.6154
41.0989 16.579
41.1465 16.5348
41.1942 16.4989
41.242 16.3154
41.2896 16.3442
41.3373 16.2377
41.3849 16.1849
41.4327 16.1894
41.4803 16.1556
41.5281 16.0653
41.5758 15.9861
41.6236 15.8874
41.6712 15.8686
41.7191 15.8479
41.7667 15.8628
41.8146 15.8048
41.8622 15.6968
41.9101 15.6462
41.9578 15.5315
42.0057 15.5675
42.0534 15.4715
42.1013 15.4763
42.149 15.4049
42.1969 15.2941
42.2446 15.3348
42.2925 15.2584
42.3403 15.1546
42.3882 15.1555
42.436 15.0905
42.4839 15.0488
42.5319 14.9875
42.5797 14.9817
42.6277 14.9251
42.6755 14.7928
42.7235 14.7547
42.7713 14.7792
42.8193 14.7085
42.8671 14.6731
42.9152 14.5829
42.963 14.5587
43.0111 14.4782
43.0589 14.3953
43.107 14.4228
43.1549 14.281
43.2029 14.2834
43.2508 14.266
43.2989 14.2505
43.3468 14.1439
43.3949 14.1351
43.4429 14.0556
43.491 13.9696
43.5389 13.9232
43.5871 13.9071
43.635 13.8121
43.6832 13.7704
43.7312 13.7677
43.7793 13.6779
43.8273 13.6419
43.8755 13.5809
43.9237 13.5559
43.9717 13.5516
44.0199 13.4892
44.068 13.4162
44.1162 13.3582
44.1642 13.3357
44.2125 13.3519
44.2606 13.2074
44.3088 13.1688
44.3569 13.1006
44.4052 13.1076
44.4533 13.0489
44.5016 12.9979
44.5497 12.9542
44.598 12.9335
44.6461 12.8438
44.6945 12.7845
44.7426 12.7931
44.791 12.7345
44.8391 12.7314
44.8875 12.6477
44.9357 12.6097
44.984 12.5712
45.0322 12.4793
45.0806 12.4657
45.1288 12.4331
45.1773 12.4284
45.2257 12.3258
45.2739 12.3349
45.3224 12.2493
45.3706 12.1906
45.4191 12.1166
45.4673 12.1415
45.5158 12.0697
45.5641 12.0243
45.6126 12.0242
45.6609 11.9043
45.7094 11.8843
45.7577 11.8815
45.8063 11.8123
45.8546 11.7893
45.9031 11.7307
45.9515 11.6848
46.0001 11.6536
46.0484 11.5896
46.097 11.6048
46.1454 11.5296
46.194 11.5178
46.2424 11.4641
46.291 11.3791
46.3395 11.327
46.3881 11.3393
46.4365 11.2858
46.4852 11.2086
46.5337 11.1945
46.5823 11.1783
46.631 11.1199
46.6795 11.1457
46.7282 11.0396
46.7767 10.9861
46.8254 10.9628
46.8739 10.9266
46.9226 10.8548
46.9712 10.837
47.0199 10.746
47.0685 10.7083
47.1173 10.7327
47.1658 10.6724
47.2146 10.6399
47.2632 10.6135
47.312 10.5426
47.3606 10.4887
47.4095 10.4508
47.4581 10.4811
47.5069 10.362
47.5556 10.4101
47.6044 10.319
47.6531 10.312
47.702 10.2229
47.7507 10.1823
47.7996 10.1555
47.8483 10.1199
47.8972 10.1215
47.9461 10.0736
47.9948 10.0431
48.0438 10.0091
48.0925 9.95332
48.1415 9.91845
48.1902 9.84587
48.2392 9.85936
48.288 9.81427
48.337 9.78066
48.3858 9.72959
48.4348 9.70471
48.4837 9.72805
48.5327 9.65869
48.5815 9.60886
48.6306 9.57368
48.6795 9.55666
48.7285 9.47497
48.7774 9.44501
48.8265 9.43419
48.8754 9.37379
48.9245 9.3622
48.9734 9.32883
49.0226 9.28789
49.0715 9.25341
49.1206 9.2093
49.1696 9.14409
49.2188 9.13939
49.2679 9.08907
49.3169 9.05474
49.3661 9.01053
49.4151 8.99119
49.4643 8.9566
49.5134 8.9401
49.5626 8.87503
49.6117 8.9031
49.6609 8.80097
49.71 8.78914
49.7592 8.74092
49.8083 8.71298
49.8576 8.71492
49.9067 8.6722
49.956 8.61448
50.0052 8.56795
50.0545 8.58949
50.1036 8.49898
50.153 8.50577
50.2022 8.45889
50.2515 8.43097
50.3007 8.40928
50.3501 8.35352
50.3993 8.36298
50.4487 8.28811
50.498 8.25848
50.5474 8.25126
50.5966 8.21302
50.6461 8.18453
50.6955 8.12856
50.7448 8.10237
50.7943 8.09005
50.8436 8.07811
50.8931 8.04169
50.9424 7.95743
50.9919 8.00134
51.0413 7.93049
51.0908 7.90708
51.1402 7.85947
51.1897 7.8284
51.2391 7.82164
51.2887 7.76896
51.3381 7.70716
51.3877 7.7033
51.4371 7.64463
51.4867 7.59629
51.5362 7.58956
51.5858 7.63054
51.6353 7.51278
51.6849 7.51422
51.7344 7.50704
51.7841 7.47026
51.8336 7.41724
51.8833 7.39282
51.9328 7.31806
51.9826 7.31148
52.0323 7.31122
52.0818 7.28316
52.1316 7.20528
52.1812 7.22146
52.231 7.16504
52.2806 7.10441
52.3304 7.10774
52.38 7.05529
52.4298 7.05253
52.4794 7.01409
52.5293 7.00875
52.5789 6.95559
52.6288 6.9363
52.6785 6.90649
52.7284 6.8644
52.7781 6.85479
52.828 6.84849
52.8777 6.777
52.9276 6.74558
52.9774 6.74487
53.0273 6.67849
53.0771 6.70072
53.1271 6.67584
53.1769 6.6678
53.2269 6.58028
53.2767 6.57111
53.3267 6.51384
53.3765 6.55531
53.4266 6.49267
53.4766 6.47148
53.5265 6.3993
53.5765 6.41797
53.6264 6.37001
53.6765 6.34974
53.7264 6.28797
53.7765 6.29363
53.8265 6.30476
53.8766 6.21626
53.9266 6.17714
53.9767 6.19428
54.0267 6.16087
54.0769 6.14313
54.1269 6.09391
54.1771 6.09768
54.2271 6.07862
54.2773 5.98738
54.3274 5.94913
54.3776 5.95009
54.4277 5.92337
54.478 5.87972
54.528 5.84126
54.5783 5.80758
54.6285 5.77512
54.6788 5.76137
54.7289 5.72759
54.7792 5.66072
54.8296 5.58939
54.8798 5.57583
54.9301 5.49815
54.9803 5.48245
55.0307 5.48175
55.0809 5.42002
55.1314 5.35095
55.1816 5.2958
55.232 5.32822
55.2823 5.27755
55.3328 5.18785
55.383 5.15907
55.4335 5.07615
55.4838 5.05157
55.5344 5.02804
55.5847 4.95968
55.6352 4.92498
55.6856 4.91301
55.7361 4.85309