File: XRD/Ni3Fe_FD0627.xy
TT I
1.27165 7.70241
1.31627 6.63896
1.36089 6.64223
1.40551 6.26061
1.45013 5.9111
1.49476 6.20262
1.53938 5.7142
1.584 5.25568
1.62863 5.37996
1.67325 4.89048
1.71787 4.56755
1.7625 4.60224
1.80712 4.8028
1.85174 3.71236
1.89636 4.24866
1.94099 4.55019
1.98562 4.34936
2.03025 4.9274
2.07487 4.4693
2.11949 5.29555
2.16411 4.49518
2.20874 15.3117
2.25338 23.7322
2.298 5.92465
2.34263 5.15537
2.38725 6.50871
2.43188 6.09057
2.4765 6.52061
2.52115 6.60019
2.56577 7.12141
2.6104 7.98619
2.65503 7.44168
2.69965 8.18652
2.7443 7.61408
2.78893 8.22742
2.83356 7.66581
2.87818 8.38424
2.92281 9.07235
2.96744 10.1354
3.01209 10.38
3.05672 10.9951
3.10135 11.5763
3.14599 12.8994
3.19062 14.4571
3.23527 14.871
3.2799 15.6979
3.32454 16.7587
3.36917 17.8262
3.4138 18.7287
3.45844 20.0942
3.50309 20.8577
3.54773 22.1236
3.59237 24.0803
3.637 98.4517
3.68164 61.5149
3.7263 26.6582
3.77094 26.5715
3.81558 27.0371
3.86022 27.926
3.90486 29.4198
3.9495 30.2107
3.99416 30.7024
4.0388 32.7906
4.08344 33.8935
4.12809 35.8718
4.17273 37.5595
4.21738 43.8533
4.26204 263.738
4.30669 227.24
4.35133 49.2441
4.39598 45.0821
4.44063 54.9664
4.4853 66.9249
4.52995 50.8158
4.5746 51.3006
4.61925 53.5636
4.6639 55.6182
4.70855 58.0531
4.75322 61.3224
4.79788 63.8604
4.84253 67.1716
4.88719 71.6309
4.93184 75.2532
4.97652 80.669
5.02118 86.789
5.06583 94.4888
5.11049 105.905
5.15515 176.084
5.19981 346.722
5.24449 2784.27
5.28916 12603.3
5.33382 3000.79
5.37848 194.202
5.42315 130.452
5.46783 114.49
5.5125 106.61
5.55716 102.296
5.60183 99.4203
5.6465 97.5202
5.69117 94.6009
5.73586 92.3887
5.78053 91.3032
5.8252 90.9815
5.86988 91.7146
5.91455 94.5824
5.95924 101.846
6.00392 201.634
6.0486 963.284
6.09328 4389.06
6.13795 3483.1
6.18263 252.408
6.22733 94.6502
6.27201 83.9207
6.3167 105.195
6.36138 81.6201
6.40606 69.545
6.45075 67.9286
6.49545 65.7391
6.54014 64.3462
6.58483 63.4907
6.62952 63.3326
6.67421 97.2986
6.71892 150.459
6.76361 69.5244
6.8083 59.298
6.853 58.0988
6.89769 57.5777
6.94239 56.9886
6.98711 56.3391
7.03181 55.9307
7.07651 55.8925
7.12121 55.7437
7.16591 55.4976
7.21063 56.0095
7.25533 71.9398
7.30004 190.896
7.34475 94.2587
7.38945 56.9715
7.43416 55.1167
7.47889 54.7601
7.5236 55.2155
7.56831 55.6061
7.61303 57.7322
7.65774 58.0945
7.70247 56.5876
7.74719 56.8393
7.79191 56.9895
7.83663 57.0335
7.88135 58.3077
7.92607 59.0106
7.97081 60.1245
8.01553 61.0558
8.06026 62.3442
8.10498 64.2846
8.14971 74.2674
8.19446 72.6752
8.23919 70.1374
8.28392 71.9224
8.32865 73.9653
8.37339 78.0173
8.41812 85.5615
8.46288 115.594
8.50761 160.442
8.55235 376.343
8.59709 1156.12
8.64183 2182.77
8.68658 1004.4
8.73134 170.857
8.77609 100.451
8.82083 93.0221
8.86558 89.5954
8.91033 90.2434
8.9551 92.3637
8.99985 86.1071
9.04461 84.0964
9.08936 83.0034
9.13412 82.1558
9.17888 82.5521
9.22365 83.1071
9.26841 82.2057
9.31318 82.9139
9.35794 82.7684
9.4027 83.1768
9.44749 84.0857
9.49226 84.9721
9.53703 85.7314
9.5818 87.52
9.62657 92.3792
9.67134 99.5164
9.71614 94.0973
9.76091 94.4873
9.80569 97.0224
9.85047 100.518
9.89525 125.488
9.94005 137.683
9.98484 171.511
10.0296 334.603
10.0744 804.27
10.1192 1712.06
10.164 1611.18
10.2088 422.042
10.2536 129.898
10.2984 114.354
10.3432 116.246
10.388 105.147
10.4328 117.062
10.4776 158.273
10.5224 276.159
10.5672 504.457
10.612 504.347
10.6568 210.35
10.7017 98.3164
10.7465 87.108
10.7913 83.8475
10.8361 81.5299
10.8809 79.406
10.9257 78.9879
10.9706 79.65
11.0154 75.1538
11.0602 73.6075
11.105 72.1987
11.1499 77.1937
11.1947 84.9139
11.2395 75.2677
11.2844 70.9991
11.3292 67.6525
11.374 66.2673
11.4189 65.9602
11.4637 65.2151
11.5086 65.8941
11.5534 69.1286
11.5983 65.8206
11.6431 64.0202
11.688 63.325
11.7328 63.2
11.7777 63.017
11.8225 62.7227
11.8674 62.8397
11.9122 62.9516
11.9571 63.0562
12.002 63.7851
12.0468 67.3639
12.0917 78.6831
12.1366 102.007
12.1814 151.046
12.2263 202.032
12.2712 169.647
12.3161 99.3956
12.3609 71.6424
12.4058 65.0202
12.4507 64.5413
12.4956 64.4847
12.5405 64.7586
12.5853 66.0377
12.6302 74.4161
12.6751 80.0045
12.72 70.6355
12.7649 68.0815
12.8098 68.6586
12.8547 69.881
12.8996 71.5559
12.9445 72.4912
12.9894 74.3596
13.0343 75.963
13.0792 79.0168
13.1242 87.3866
13.1691 110.51
13.214 147.003
13.2589 233.906
13.3038 364.972
13.3487 422.959
13.3937 271.442
13.4386 127.805
13.4835 105.351
13.5285 119.328
13.5734 157.143
13.6183 244.444
13.6633 344.392
13.7082 342.039
13.7531 194.263
13.7981 100.366
13.843 82.4055
13.888 80.041
13.9329 77.6257
13.9779 76.1988
14.0228 74.7862
14.0678 73.395
14.1127 72.7588
14.1577 72.9279
14.2027 71.8816
14.2476 70.613
14.2926 71.1448
14.3376 72.1274
14.3825 70.5014
14.4275 69.224
14.4725 68.7999
14.5175 69.0902
14.5624 69.444
14.6074 71.5653
14.6524 72.0339
14.6974 70.8055
14.7424 72.007
14.7874 78.371
14.8324 88.4569
14.8774 110.221
14.9224 152.827
14.9674 203.836
15.0124 215.49
15.0574 150.567
15.1024 92.8908
15.1474 72.8345
15.1924 70.9977
15.2374 71.6859
15.2824 70.8886
15.3274 68.4697
15.3725 67.2134
15.4175 66.9019
15.4625 66.4077
15.5076 66.6522
15.5526 66.6441
15.5976 65.9229
15.6426 66.5863
15.6877 72.0109
15.7327 79.2737
15.7778 94.6585
15.8228 125.511
15.8679 168.376
15.9129 192.529
15.958 157.11
16.003 99.0686
16.0481 69.6114
16.0931 65.3868
16.1382 63.3343
16.1833 61.0333
16.2283 59.5624
16.2734 58.6659
16.3185 59.2162
16.3636 59.9564
16.4086 58.239
16.4537 56.5949
16.4988 55.7534
16.5439 55.8737
16.589 55.5375
16.6341 55.1228
16.6792 54.8244
16.7243 54.9819
16.7694 55.3174
16.8145 55.1071
16.8596 55.6087
16.9047 57.2928
16.9498 57.262
16.9949 56.0559
17.04 56.0611
17.0851 56.9188
17.1302 58.9531
17.1754 61.9691
17.2205 67.0163
17.2656 74.4055
17.3108 82.6636
17.3559 82.972
17.401 72.5103
17.4462 63.055
17.4913 59.6303
17.5365 59.3311
17.5815 59.4975
17.6268 59.7117
17.6718 60.7135
17.7171 61.326
17.7622 61.5424
17.8074 61.954
17.8525 64.1869
17.8977 68.1683
17.9428 73.3349
17.9881 82.278
18.0331 99.0444
18.0784 120.7
18.1237 138.587
18.1688 131.257
18.214 104.672
18.2591 87.449
18.3044 90.6463
18.3495 100.011
18.3948 105.689
18.4399 97.2604
18.4852 78.4402
18.5303 66.5509
18.5756 62.6182
18.6207 61.4754
18.666 60.6593
18.7112 60.0784
18.7565 59.1347
18.8016 58.8857
18.8469 58.3498
18.892 58.0435
18.9374 57.409
18.9825 57.264
19.0278 57.1372
19.073 57.2797
19.1183 57.3987
19.1635 58.578
19.2088 59.6796
19.254 62.4401
19.2993 66.7256
19.3447 72.8511
19.3898 76.4952
19.4352 72.6803
19.4804 64.0577
19.5257 57.3008
19.5709 54.6307
19.6163 54.2232
19.6615 53.8473
19.7068 53.5807
19.752 53.514
19.7974 53.6626
19.8426 54.5296
19.888 55.2481
19.9332 56.5303
19.9786 58.7493
20.0238 62.2609
20.0692 66.9544
20.1144 69.6423
20.1598 68.442
20.205 63.8642
20.2504 62.5727
20.2957 63.9335
20.3411 65.489
20.3863 64.4146
20.4318 59.0157
20.477 53.9773
20.5224 51.8653
20.5677 51.2579
20.6131 50.4795
20.6586 49.9524
20.7038 49.8458
20.7493 49.4586
20.7945 49.2109
20.84 49.1358
20.8853 48.9933
20.9307 48.7581
20.976 48.7763
21.0215 48.6863
21.0668 49.3019
21.1122 49.7929
21.1575 50.4539
21.203 51.1976
21.2483 51.6514
21.2938 51.5506
21.3391 50.3956
21.3846 49.2753
21.4299 48.7541
21.4754 48.6957
21.5207 48.609
21.5662 48.9068
21.6116 49.2945
21.6571 49.8554
21.7024 51.0264
21.7479 52.6289
21.7933 55.6085
21.8388 58.8943
21.8843 62.6438
21.9297 64.5435
21.9752 63.3575
22.0206 59.9396
22.0661 57.0417
22.1115 56.1783
22.157 56.2181
22.2024 54.7429
22.248 51.9285
22.2933 50.1631
22.3389 49.3868
22.3843 49.2024
22.4299 49.1434
22.4753 49.1834
22.5208 48.8372
22.5662 48.7787
22.6118 48.789
22.6572 48.9492
22.7028 49.6875
22.7483 49.8789
22.7939 50.564
22.8393 52.0481
22.8849 54.2103
22.9303 56.1598
22.9759 57.9015
23.0214 57.6398
23.067 54.9719
23.1126 51.6053
23.1581 49.5143
23.2037 49.1178
23.2492 49.0912
23.2948 49.0416
23.3403 49.2491
23.3859 49.9847
23.4314 50.835
23.477 52.7061
23.5225 54.8565
23.5682 56.8069
23.6137 57.8658
23.6593 56.0012
23.7048 52.0044
23.7505 48.7923
23.796 47.0422
23.8417 46.2685
23.8872 45.7869
23.9329 45.2927
23.9784 45.0817
24.0241 44.8064
24.0697 44.669
24.1154 44.3184
24.1609 44.2883
24.2066 44.1187
24.2522 43.9138
24.2979 43.6838
24.3434 43.6341
24.3892 43.5045
24.4349 43.2896
24.4805 43.1612
24.5262 43.3018
24.5718 43.1145
24.6175 43.1191
24.6631 42.9728
24.7089 42.6585
24.7545 42.714
24.8002 42.4351
24.8458 42.471
24.8916 42.3398
24.9372 42.3655
24.983 42.8005
25.0286 42.9847
25.0744 43.4457
25.12 43.892
25.1658 44.5441
25.2114 44.7035
25.2572 44.9172
25.3029 45.0401
25.3487 45.1103
25.3943 44.8188
25.4402 43.8334
25.4858 42.636
25.5316 41.749
25.5773 41.1869
25.6231 41.0501
25.669 40.8124
25.7147 40.724
25.7605 40.6904
25.8062 40.74
25.8521 40.7803
25.8977 40.8773
25.9436 40.9969
25.9893 41.1215
26.0352 41.7067
26.0809 41.6675
26.1268 41.8907
26.1725 41.6068
26.2184 41.0214
26.2641 40.5599
26.31 40.2812
26.3557 40.4386
26.4017 40.3025
26.4474 40.5741
26.4933 40.8577
26.5391 41.2846
26.585 41.8436
26.6308 42.1894
26.6767 42.3894
26.7225 42.2764
26.7684 41.5499
26.8142 41.0807
26.8601 40.6863
26.9059 40.2037
26.9519 39.7162
26.9979 39.5169
27.0437 39.0644
27.0896 39.0115
27.1354 38.9106
27.1814 38.9375
27.2272 38.6751
27.2732 38.6338
27.3191 38.5326
27.3651 38.6354
27.4109 38.6981
27.4569 38.6031
27.5027 38.6726
27.5488 38.8117
27.5946 38.6245
27.6407 38.2105
27.6865 38.2732
27.7326 37.9716
27.7784 38.0819
27.8245 37.9553
27.8703 38.1489
27.9164 38.3975
27.9623 38.5567
28.0084 38.9093
28.0543 39.26
28.1003 39.2365
28.1462 38.8895
28.1923 38.6223
28.2384 38.1748
28.2843 37.8065
28.3304 37.4036
28.3764 36.9217
28.4225 36.5571
28.4684 36.3616
28.5145 36.1818
28.5605 35.9658
28.6066 35.8315
28.6526 35.8985
28.6987 35.8341
28.7447 35.6817
28.7908 35.5328
28.8368 35.5464
28.8829 35.6089
28.9289 35.6
28.9751 35.317
29.0211 35.0949
29.0673 34.801
29.1133 34.8114
29.1595 34.607
29.2055 34.5109
29.2517 34.4624
29.2977 34.5762
29.3439 34.3836
29.3899 34.3941
29.4361 34.3608
29.4824 34.2005
29.5284 33.8831
29.5746 33.6343
29.6207 33.3332
29.6669 33.2498
29.713 33.1139
29.7593 32.9738
29.8053 33.103
29.8516 33.0022
29.8977 32.9189
29.9439 32.6743
29.99 32.7915
30.0363 32.6398
30.0824 32.7441
30.1287 32.5122
30.1748 32.544
30.2211 32.421
30.2673 32.5071
30.3136 32.5679
30.3597 32.4312
30.406 32.2973
30.4522 32.2828
30.4985 32.2311
30.5447 32.3765
30.591 32.2071
30.6372 32.3952
30.6835 32.2993
30.7297 32.3033
30.7761 32.2719
30.8224 32.074
30.8686 31.9311
30.915 31.759
30.9612 31.7795
31.0076 31.3674
31.0538 31.2216
31.1002 31.2762
31.1464 31.0638
31.1928 31.0778
31.2391 31.2094
31.2855 31.0059
31.3317 30.9315
31.3781 31.0233
31.4244 31.0728
31.4708 31.0347
31.5171 30.9483
31.5636 30.9341
31.6098 30.6406
31.6563 30.5157
31.7026 30.428
31.7491 30.2856
31.7953 30.3498
31.8418 30.3079
31.8881 30.3059
31.9346 30.261
31.9809 30.2382
32.0275 30.0982
32.074 29.9166
32.1203 29.7715
32.1668 29.6866
32.2132 29.4895
32.2597 29.3614
32.306 29.3364
32.3526 29.1082
32.399 28.9727
32.4455 28.9321
32.4919 28.7899
32.5385 28.7528
32.5848 28.6278
32.6314 28.5804
32.6778 28.5493
32.7244 28.3797
32.7708 28.2166
32.8174 28.2731
32.8638 28.1456
32.9104 28.2063
32.9569 28.2572
33.0035 28.0711
33.0499 27.9875
33.0966 27.9732
33.143 28.0795
33.1897 27.8658
33.2361 27.7267
33.2828 27.6659
33.3293 27.5269
33.3759 27.5686
33.4226 27.3095
33.4691 27.2585
33.5158 27.2029
33.5623 27.0231
33.609 26.8394
33.6555 26.7529
33.7022 26.747
33.7487 26.6511
33.7954 26.6065
33.842 26.5303
33.8887 26.4196
33.9353 26.3851
33.982 26.2337
34.0286 26.2419
34.0753 26.144
34.1219 26.0439
34.1687 25.9377
34.2152 25.8655
34.262 25.7529
34.3086 25.6472
34.3554 25.6539
34.402 25.5205
34.4488 25.3661
34.4954 25.3449
34.5422 25.3883
34.5889 25.1851
34.6357 25.0716
34.6825 25.0463
34.7292 24.9728
34.776 24.8646
34.8227 24.872
34.8695 24.7586
34.9162 24.7737
34.9631 24.682
35.0098 24.522
35.0566 24.4779
35.1033 24.4283
35.1502 24.3411
35.1969 24.38
35.2438 24.2669
35.2906 24.3061
35.3375 24.1075
35.3842 24.0752
35.4311 24.1304
35.4779 24.1083
35.5248 23.9683
35.5716 23.855
35.6185 23.8314
35.6653 23.7463
35.7123 23.5967
35.759 23.5912
35.806 23.4351
35.8528 23.4218
35.8998 23.2897
35.9468 23.2033
35.9936 23.1873
36.0406 23.0894
36.0874 23.1159
36.1345 22.9829
36.1813 22.9721
36.2283 22.9097
36.2752 22.7295
36.3222 22.8147
36.3691 22.601
36.4161 22.5353
36.463 22.5692
36.5101 22.499
36.557 22.4662
36.6041 22.3024
36.651 22.3166
36.6981 22.2402
36.745 22.204
36.7921 22.0681
36.839 21.9837
36.8861 21.9771
36.9331 21.852
36.9802 21.7857
37.0272 21.6553
37.0743 21.549
37.1213 21.5543
37.1684 21.4941
37.2154 21.4572
37.2626 21.3434
37.3098 21.2901
37.3568 21.2819
37.404 21.2217
37.451 21.0653
37.4982 21.0699
37.5452 20.9339
37.5924 20.9362
37.6395 20.9638
37.6867 20.8574
37.7337 20.7189
37.781 20.64
37.8281 20.6797
37.8753 20.4856
37.9224 20.3875
37.9697 20.3956
38.0168 20.3166
38.064 20.2497
38.1111 20.2596
38.1584 20.0763
38.2056 20.1032
38.2529 19.9836
38.3 19.925
38.3473 19.9189
38.3945 19.8188
38.4418 19.7835
38.489 19.6784
38.5363 19.5878
38.5837 19.5042
38.6309 19.4986
38.6782 19.4683
38.7254 19.3402
38.7728 19.3206
38.82 19.2083
38.8674 19.1479
38.9146 19.1499
38.9621 19.0418
39.0093 19.0147
39.0567 18.9898
39.104 18.8853
39.1514 18.7663
39.1987 18.8277
39.2461 18.6834
39.2934 18.6804
39.3409 18.5093
39.3882 18.5969
39.4356 18.4401
39.483 18.3957
39.5304 18.3344
39.5778 18.3036
39.6253 18.2276
39.6726 18.196
39.7201 18.1757
39.7675 18.0877
39.815 18.0442
39.8624 17.8625
39.9099 18.0134
39.9575 17.796
40.0049 17.7116
40.0525 17.7007
40.0999 17.6783
40.1474 17.6486
40.1949 17.5224
40.2425 17.4456
40.2899 17.4388
40.3375 17.3866
40.385 17.3596
40.4326 17.3038
40.48 17.2433
40.5277 17.1583
40.5752 17.1314
40.6228 17.011
40.6703 17.0347
40.718 16.9282
40.7655 16.931
40.8132 16.7884
40.8607 16.8273
40.9084 16.7483
40.9559 16.7054
41.0036 16.6557
41.0512 16.6363
41.0989 16.582
41.1465 16.4888
41.1942 16.4406
41.242 16.3061
41.2896 16.2537
41.3373 16.2133
41.3849 16.1843
41.4327 16.1794
41.4803 16.0532
41.5281 15.9943
41.5758 15.9424
41.6236 15.9122
41.6712 15.9254
41.7191 15.7896
41.7667 15.7414
41.8146 15.7537
41.8622 15.7028
41.9101 15.5959
41.9578 15.534
42.0057 15.4843
42.0534 15.4338
42.1013 15.3978
42.149 15.4013
42.1969 15.2434
42.2446 15.2621
42.2925 15.2493
42.3403 15.1749
42.3882 15.1388
42.436 15.0781
42.4839 14.9448
42.5319 14.9459
42.5797 14.8983
42.6277 14.848
42.6755 14.8584
42.7235 14.7387
42.7713 14.7232
42.8193 14.6277
42.8671 14.5812
42.9152 14.5443
42.963 14.5332
43.0111 14.4836
43.0589 14.3607
43.107 14.3841
43.1549 14.3087
43.2029 14.2324
43.2508 14.2262
43.2989 14.1637
43.3468 14.1096
43.3949 14.0446
43.4429 13.9951
43.491 13.903
43.5389 13.9186
43.5871 13.8691
43.635 13.8054
43.6832 13.7996
43.7312 13.6963
43.7793 13.6938
43.8273 13.6036
43.8755 13.5692
43.9237 13.525
43.9717 13.457
44.0199 13.4355
44.068 13.4365
44.1162 13.3167
44.1642 13.2937
44.2125 13.2497
44.2606 13.1653
44.3088 13.1242
44.3569 13.1283
44.4052 13.1466
44.4533 13.0366
44.5016 13.0146
44.5497 12.9635
44.598 12.8909
44.6461 12.8376
44.6945 12.7807
44.7426 12.7919
44.791 12.6719
44.8391 12.6581
44.8875 12.5895
44.9357 12.5515
44.984 12.5211
45.0322 12.4577
45.0806 12.4278
45.1288 12.3647
45.1773 12.3105
45.2257 12.2959
45.2739 12.2721
45.3224 12.1931
45.3706 12.1668
45.4191 12.1201
45.4673 12.07
45.5158 12.0574
45.5641 11.987
45.6126 11.963
45.6609 11.8943
45.7094 11.8372
45.7577 11.8197
45.8063 11.7711
45.8546 11.7689
45.9031 11.6792
45.9515 11.6925
46.0001 11.651
46.0484 11.6385
46.097 11.526
46.1454 11.5174
46.194 11.4695
46.2424 11.4039
46.291 11.4019
46.3395 11.3525
46.3881 11.2759
46.4365 11.2742
46.4852 11.216
46.5337 11.1592
46.5823 11.1576
46.631 11.0548
46.6795 11.0323
46.7282 11.0585
46.7767 10.9996
46.8254 10.9229
46.8739 10.8923
46.9226 10.834
46.9712 10.7895
47.0199 10.7408
47.0685 10.7565
47.1173 10.6828
47.1658 10.6428
47.2146 10.6132
47.2632 10.546
47.312 10.5301
47.3606 10.4961
47.4095 10.4435
47.4581 10.4074
47.5069 10.4071
47.5556 10.3072
47.6044 10.3059
47.6531 10.246
47.702 10.2185
47.7507 10.1885
47.7996 10.1331
47.8483 10.1044
47.8972 10.1005
47.9461 10.0342
47.9948 9.97553
48.0438 9.92281
48.0925 9.96836
48.1415 9.86997
48.1902 9.83882
48.2392 9.86854
48.288 9.80124
48.337 9.75428
48.3858 9.70368
48.4348 9.67379
48.4837 9.66525
48.5327 9.63274
48.5815 9.56066
48.6306 9.56416
48.6795 9.47929
48.7285 9.47247
48.7774 9.44373
48.8265 9.4085
48.8754 9.35487
48.9245 9.37468
48.9734 9.32842
49.0226 9.26993
49.0715 9.21791
49.1206 9.21271
49.1696 9.16089
49.2188 9.10776
49.2679 9.10015
49.3169 9.05368
49.3661 9.00365
49.4151 9.0223
49.4643 8.95441
49.5134 8.91626
49.5626 8.85398
49.6117 8.8218
49.6609 8.81413
49.71 8.74942
49.7592 8.7515
49.8083 8.67872
49.8576 8.71421
49.9067 8.6093
49.956 8.64599
50.0052 8.60549
50.0545 8.54666
50.1036 8.48751
50.153 8.50022
50.2022 8.45064
50.2515 8.40398
50.3007 8.3497
50.3501 8.36101
50.3993 8.32984
50.4487 8.32753
50.498 8.24116
50.5474 8.22055
50.5966 8.1449
50.6461 8.12087
50.6955 8.12348
50.7448 8.09488
50.7943 8.06647
50.8436 8.02953
50.8931 8.00658
50.9424 7.97003
50.9919 7.93713
51.0413 7.90553
51.0908 7.87787
51.1402 7.84631
51.1897 7.81419
51.2391 7.77887
51.2887 7.76769
51.3381 7.68619
51.3877 7.66824
51.4371 7.66575
51.4867 7.60471
51.5362 7.64069
51.5858 7.58195
51.6353 7.50272
51.6849 7.50054
51.7344 7.45348
51.7841 7.43032
51.8336 7.40027
51.8833 7.34647
51.9328 7.3426
51.9826 7.27827
52.0323 7.28914
52.0818 7.22281
52.1316 7.20084
52.1812 7.19644
52.231 7.14676
52.2806 7.1406
52.3304 7.11429
52.38 7.07158
52.4298 7.04676
52.4794 7.00768
52.5293 6.97298
52.5789 6.99831
52.6288 7.81679
52.6785 6.99999
52.7284 6.89876
52.7781 6.82548
52.828 6.81174
52.8777 6.77472
52.9276 6.75206
52.9774 6.7147
53.0273 6.70083
53.0771 6.67305
53.1271 6.66026
53.1769 6.59921
53.2269 6.60801
53.2767 6.5729
53.3267 6.54408
53.3765 6.50874
53.4266 6.47348
53.4766 6.47382
53.5265 6.38202
53.5765 6.38153
53.6264 6.36915
53.6765 6.34992
53.7264 6.30823
53.7765 6.29667
53.8265 6.23748
53.8766 6.21198
53.9266 6.18036
53.9767 6.17726
54.0267 6.14199
54.0769 6.0698
54.1269 6.08496
54.1771 6.0682
54.2271 5.9881
54.2773 5.99389
54.3274 5.97369
54.3776 5.93495
54.4277 5.91627
54.478 5.90043
54.528 5.85876
54.5783 5.73643
54.6285 5.74549
54.6788 5.71508
54.7289 5.6536
54.7792 5.64809
54.8296 5.60064
54.8798 5.5611
54.9301 5.51985
54.9803 5.47085
55.0307 5.45754
55.0809 5.40712
55.1314 5.3549
55.1816 5.31341
55.232 5.30913
55.2823 5.25804
55.3328 5.21591
55.383 5.13807
55.4335 5.1005
55.4838 5.05094
55.5344 5.06607
55.5847 4.95244
55.6352 4.94078
55.6856 4.86708
55.7361 4.82333