File: XRD/Ni3Fe_FD0451.xy
TT I
1.27165 7.47626
1.31627 6.7077
1.36089 7.5165
1.40551 6.63455
1.45013 6.3965
1.49476 6.53101
1.53938 6.218
1.584 5.60283
1.62863 5.56556
1.67325 5.6131
1.71787 5.52726
1.7625 5.06041
1.80712 5.25567
1.85174 4.70096
1.89636 4.68587
1.94099 5.19203
1.98562 4.7828
2.03025 4.64239
2.07487 4.3855
2.11949 4.70449
2.16411 4.66619
2.20874 11.5438
2.25338 16.0024
2.298 5.66545
2.34263 5.12655
2.38725 5.47902
2.43188 5.32948
2.4765 6.1163
2.52115 6.44572
2.56577 7.25701
2.6104 7.04736
2.65503 7.31267
2.69965 7.60539
2.7443 7.22256
2.78893 8.11554
2.83356 8.44701
2.87818 8.34104
2.92281 8.5756
2.96744 9.76719
3.01209 10.3779
3.05672 10.9903
3.10135 12.0056
3.14599 13.2284
3.19062 14.0815
3.23527 15.3848
3.2799 15.7206
3.32454 16.5897
3.36917 17.8258
3.4138 18.8546
3.45844 19.6524
3.50309 20.8883
3.54773 22.1161
3.59237 23.5241
3.637 67.365
3.68164 44.7799
3.7263 26.1507
3.77094 26.0062
3.81558 26.8567
3.86022 27.7371
3.90486 28.9474
3.9495 30.2382
3.99416 31.027
4.0388 32.2822
4.08344 34.0595
4.12809 34.7678
4.17273 36.8944
4.21738 41.3389
4.26204 172.017
4.30669 145.919
4.35133 46.3295
4.39598 44.9249
4.44063 51.1261
4.4853 59.2926
4.52995 51.5936
4.5746 52.4931
4.61925 54.2359
4.6639 56.2995
4.70855 59.4827
4.75322 62.1077
4.79788 65.6826
4.84253 68.8253
4.88719 73.0942
4.93184 76.8888
4.97652 82.7601
5.02118 89.92
5.06583 98.5692
5.11049 111.696
5.15515 170.836
5.19981 503.856
5.24449 3415.54
5.28916 11855.0
5.33382 3001.92
5.37848 203.568
5.42315 134.006
5.46783 117.835
5.5125 109.343
5.55716 104.855
5.60183 100.648
5.6465 98.7251
5.69117 96.5808
5.73586 94.855
5.78053 94.7001
5.8252 94.4462
5.86988 96.2377
5.91455 99.2931
5.95924 111.119
6.00392 279.552
6.0486 1183.33
6.09328 4291.91
6.13795 3361.62
6.18263 271.865
6.22733 96.6019
6.27201 84.2436
6.3167 93.478
6.36138 78.0767
6.40606 70.05
6.45075 68.1292
6.49545 66.4337
6.54014 64.7216
6.58483 63.5084
6.62952 62.8131
6.67421 82.5298
6.71892 112.531
6.76361 65.3687
6.8083 58.8658
6.853 58.2317
6.89769 57.3128
6.94239 56.9338
6.98711 56.8917
7.03181 55.998
7.07651 55.8332
7.12121 55.9555
7.16591 55.4765
7.21063 55.9345
7.25533 65.5753
7.30004 131.08
7.34475 77.8674
7.38945 56.5342
7.43416 54.9631
7.47889 54.9297
7.5236 55.3655
7.56831 55.8728
7.61303 57.0277
7.65774 57.3646
7.70247 57.0701
7.74719 56.6862
7.79191 57.4537
7.83663 57.5333
7.88135 58.7627
7.92607 59.6321
7.97081 60.5463
8.01553 61.9994
8.06026 63.0294
8.10498 64.8329
8.14971 71.8814
8.19446 71.4229
8.23919 70.5257
8.28392 73.4626
8.32865 75.6688
8.37339 80.5182
8.41812 86.995
8.46288 112.043
8.50761 203.454
8.55235 460.52
8.59709 1237.09
8.64183 2122.65
8.68658 993.339
8.73134 169.026
8.77609 101.9
8.82083 94.5602
8.86558 91.6671
8.91033 90.83
8.9551 91.0281
8.99985 86.4272
9.04461 85.1046
9.08936 84.1397
9.13412 83.3486
9.17888 83.8024
9.22365 84.204
9.26841 83.4263
9.31318 84.3903
9.35794 84.9587
9.4027 85.1032
9.44749 85.885
9.49226 86.0727
9.53703 87.3351
9.5818 89.2915
9.62657 92.9716
9.67134 97.4823
9.71614 94.5702
9.76091 95.9963
9.80569 99.1564
9.85047 101.999
9.89525 119.262
9.94005 135.983
9.98484 215.424
10.0296 406.671
10.0744 875.695
10.1192 1696.99
10.164 1618.68
10.2088 419.408
10.2536 129.885
10.2984 113.792
10.3432 113.28
10.388 107.787
10.4328 129.865
10.4776 178.371
10.5224 298.15
10.5672 494.343
10.612 500.723
10.6568 204.675
10.7017 97.7956
10.7465 88.0681
10.7913 84.5621
10.8361 82.2934
10.8809 79.8432
10.9257 79.1988
10.9706 78.8216
11.0154 75.6787
11.0602 73.7989
11.105 72.7262
11.1499 75.0364
11.1947 78.9489
11.2395 73.1733
11.2844 70.3924
11.3292 68.271
11.374 67.1813
11.4189 66.6607
11.4637 65.7767
11.5086 66.1446
11.5534 67.7095
11.5983 66.0296
11.6431 64.3537
11.688 64.0585
11.7328 64.0155
11.7777 63.7881
11.8225 63.3852
11.8674 63.2912
11.9122 63.8851
11.9571 64.058
12.002 65.2983
12.0468 71.9265
12.0917 84.0888
12.1366 109.062
12.1814 155.934
12.2263 204.383
12.2712 172.274
12.3161 93.5774
12.3609 69.6432
12.4058 65.5484
12.4507 65.1744
12.4956 65.6149
12.5405 65.8359
12.5853 66.4925
12.6302 71.4708
12.6751 75.248
12.72 69.7981
12.7649 68.7729
12.8098 69.3945
12.8547 70.9354
12.8996 72.2714
12.9445 73.7366
12.9894 75.761
13.0343 77.4388
13.0792 81.5821
13.1242 95.8109
13.1691 121.93
13.214 162.162
13.2589 249.576
13.3038 362.505
13.3487 418.398
13.3937 265.574
13.4386 125.493
13.4835 113.178
13.5285 130.558
13.5734 170.184
13.6183 251.528
13.6633 338.916
13.7082 338.285
13.7531 189.313
13.7981 97.9967
13.843 83.0279
13.888 81.0615
13.9329 78.3529
13.9779 76.8533
14.0228 75.7736
14.0678 74.312
14.1127 73.8502
14.1577 73.2229
14.2027 72.4821
14.2476 71.6496
14.2926 71.5979
14.3376 72.1437
14.3825 71.297
14.4275 70.2835
14.4725 70.09
14.5175 70.3801
14.5624 70.1386
14.6074 71.7056
14.6524 72.3613
14.6974 71.7753
14.7424 75.1548
14.7874 83.2871
14.8324 94.7199
14.8774 117.652
14.9224 157.03
14.9674 202.967
15.0124 217.357
15.0574 149.648
15.1024 91.1449
15.1474 73.369
15.1924 71.3889
15.2374 71.3421
15.2824 70.6262
15.3274 69.0609
15.3725 68.0264
15.4175 67.4806
15.4625 67.1915
15.5076 67.3985
15.5526 67.4895
15.5976 67.4424
15.6426 69.6509
15.6877 76.519
15.7327 84.8584
15.7778 100.88
15.8228 130.31
15.8679 168.302
15.9129 190.781
15.958 156.905
16.003 97.2708
16.0481 69.1125
16.0931 64.8311
16.1382 62.886
16.1833 61.3528
16.2283 59.8347
16.2734 59.2768
16.3185 59.0934
16.3636 59.2293
16.4086 58.1971
16.4537 57.1003
16.4988 56.4945
16.5439 56.2924
16.589 56.106
16.6341 55.6409
16.6792 55.3804
16.7243 55.6592
16.7694 55.6857
16.8145 55.7254
16.8596 55.9308
16.9047 56.8896
16.9498 57.4801
16.9949 56.6869
17.04 57.2749
17.0851 58.5557
17.1302 60.3351
17.1754 63.4242
17.2205 68.4357
17.2656 75.1767
17.3108 82.4057
17.3559 82.416
17.401 71.7905
17.4462 62.8956
17.4913 60.0033
17.5365 60.1343
17.5815 60.3227
17.6268 60.7092
17.6718 61.2984
17.7171 62.0147
17.7622 62.5077
17.8074 63.44
17.8525 67.0771
17.8977 70.8548
17.9428 76.9975
17.9881 86.4416
18.0331 102.708
18.0784 121.165
18.1237 139.304
18.1688 132.925
18.214 105.521
18.2591 88.5691
18.3044 91.8756
18.3495 100.245
18.3948 106.827
18.4399 97.6612
18.4852 78.2368
18.5303 66.5414
18.5756 63.1563
18.6207 62.3746
18.666 61.4725
18.7112 60.8385
18.7565 59.8888
18.8016 59.6661
18.8469 59.1109
18.892 58.6497
18.9374 58.2816
18.9825 57.8061
19.0278 57.7288
19.073 58.2131
19.1183 58.7772
19.1635 59.3835
19.2088 60.9894
19.254 63.8983
19.2993 67.6991
19.3447 72.9617
19.3898 76.8491
19.4352 73.2346
19.4804 64.026
19.5257 57.395
19.5709 55.1453
19.6163 54.7462
19.6615 54.6184
19.7068 54.2551
19.752 54.2153
19.7974 54.6075
19.8426 55.7328
19.888 56.2597
19.9332 57.6523
19.9786 60.3467
20.0238 63.5515
20.0692 67.8987
20.1144 70.8085
20.1598 69.4165
20.205 64.6873
20.2504 63.2081
20.2957 64.3508
20.3411 66.2752
20.3863 64.7694
20.4318 58.9533
20.477 54.379
20.5224 52.1691
20.5677 51.6143
20.6131 51.0594
20.6586 50.3612
20.7038 50.4388
20.7493 49.9512
20.7945 49.8617
20.84 49.6454
20.8853 49.5067
20.9307 49.4244
20.976 49.7781
21.0215 49.6137
21.0668 49.9585
21.1122 50.4188
21.1575 50.9352
21.203 51.6426
21.2483 52.1868
21.2938 52.5312
21.3391 50.8508
21.3846 49.9508
21.4299 49.3037
21.4754 49.265
21.5207 49.5839
21.5662 50.0547
21.6116 50.4695
21.6571 51.1503
21.7024 52.1992
21.7479 54.0451
21.7933 56.7409
21.8388 59.9289
21.8843 63.3294
21.9297 65.5482
21.9752 64.409
22.0206 60.5983
22.0661 57.1787
22.1115 56.771
22.157 56.659
22.2024 55.2058
22.248 52.3408
22.2933 50.6723
22.3389 49.8434
22.3843 49.7858
22.4299 49.6746
22.4753 49.6541
22.5208 49.4752
22.5662 49.3227
22.6118 49.5797
22.6572 49.8649
22.7028 50.2972
22.7483 50.8938
22.7939 51.7577
22.8393 53.1493
22.8849 54.9765
22.9303 56.5457
22.9759 58.368
23.0214 58.0954
23.067 55.3907
23.1126 51.9007
23.1581 49.9556
23.2037 49.6701
23.2492 49.8566
23.2948 49.9039
23.3403 50.1851
23.3859 50.8747
23.4314 51.9913
23.477 53.662
23.5225 55.5055
23.5682 57.4381
23.6137 58.5226
23.6593 56.3706
23.7048 52.4876
23.7505 48.973
23.796 47.3979
23.8417 46.7734
23.8872 46.3114
23.9329 45.8593
23.9784 45.6636
24.0241 45.4471
24.0697 45.2298
24.1154 44.7792
24.1609 44.7571
24.2066 44.668
24.2522 44.4491
24.2979 44.1699
24.3434 44.0225
24.3892 43.8254
24.4349 43.8393
24.4805 43.6362
24.5262 43.7803
24.5718 43.6775
24.6175 43.6603
24.6631 43.6793
24.7089 43.2745
24.7545 43.1945
24.8002 42.8239
24.8458 43.0441
24.8916 42.881
24.9372 43.0864
24.983 43.5282
25.0286 43.7775
25.0744 44.1971
25.12 44.4931
25.1658 45.1542
25.2114 45.4232
25.2572 45.5082
25.3029 45.4154
25.3487 45.6125
25.3943 45.4008
25.4402 44.2501
25.4858 43.0959
25.5316 42.1845
25.5773 41.6381
25.6231 41.5886
25.669 41.209
25.7147 41.2676
25.7605 41.1806
25.8062 41.2658
25.8521 41.3
25.8977 41.3921
25.9436 41.5029
25.9893 41.5953
26.0352 42.1833
26.0809 42.2335
26.1268 42.4368
26.1725 42.1704
26.2184 41.5914
26.2641 40.9835
26.31 40.7009
26.3557 40.8256
26.4017 40.804
26.4474 41.2374
26.4933 41.3614
26.5391 42.0515
26.585 42.4089
26.6308 42.7064
26.6767 42.9001
26.7225 42.6419
26.7684 42.1666
26.8142 41.5095
26.8601 41.1111
26.9059 40.7599
26.9519 40.1673
26.9979 39.948
27.0437 39.6389
27.0896 39.371
27.1354 39.4637
27.1814 39.1846
27.2272 39.1978
27.2732 39.1061
27.3191 39.1363
27.3651 38.9968
27.4109 39.1438
27.4569 39.229
27.5027 39.1365
27.5488 39.2249
27.5946 39.0696
27.6407 38.8967
27.6865 38.791
27.7326 38.5761
27.7784 38.4263
27.8245 38.4107
27.8703 38.7453
27.9164 39.0391
27.9623 39.0823
28.0084 39.3353
28.0543 39.7457
28.1003 39.7369
28.1462 39.4247
28.1923 39.0711
28.2384 38.5837
28.2843 38.3029
28.3304 37.7455
28.3764 37.2166
28.4225 37.0106
28.4684 36.8966
28.5145 36.5684
28.5605 36.4668
28.6066 36.3079
28.6526 36.2012
28.6987 36.2528
28.7447 36.0726
28.7908 36.0381
28.8368 36.004
28.8829 36.0543
28.9289 36.0059
28.9751 35.5288
29.0211 35.542
29.0673 35.2837
29.1133 35.2416
29.1595 35.0279
29.2055 34.8739
29.2517 34.9081
29.2977 34.7641
29.3439 34.854
29.3899 34.7708
29.4361 34.6591
29.4824 34.5734
29.5284 34.2895
29.5746 33.9475
29.6207 33.7078
29.6669 33.664
29.713 33.5142
29.7593 33.3914
29.8053 33.4497
29.8516 33.3811
29.8977 33.3511
29.9439 33.1108
29.99 33.2539
30.0363 33.0153
30.0824 33.1472
30.1287 32.9238
30.1748 33.006
30.2211 32.942
30.2673 32.7646
30.3136 32.8198
30.3597 32.7361
30.406 32.7569
30.4522 32.6418
30.4985 32.5534
30.5447 32.7801
30.591 32.6707
30.6372 32.5997
30.6835 32.6524
30.7297 32.7896
30.7761 32.6894
30.8224 32.5517
30.8686 32.4005
30.915 32.0936
30.9612 32.0668
31.0076 31.7844
31.0538 31.6944
31.1002 31.7243
31.1464 31.4874
31.1928 31.4463
31.2391 31.4744
31.2855 31.3158
31.3317 31.3833
31.3781 31.4286
31.4244 31.4162
31.4708 31.3259
31.5171 31.2089
31.5636 31.2431
31.6098 31.0707
31.6563 30.914
31.7026 30.7323
31.7491 30.5936
31.7953 30.7558
31.8418 30.6231
31.8881 30.6566
31.9346 30.6452
31.9809 30.6097
32.0275 30.3902
32.074 30.3995
32.1203 30.136
32.1668 29.9712
32.2132 29.9203
32.2597 29.7867
32.306 29.7929
32.3526 29.3969
32.399 29.3696
32.4455 29.2471
32.4919 29.15
32.5385 29.1419
32.5848 28.897
32.6314 28.9686
32.6778 28.9457
32.7244 28.7654
32.7708 28.6687
32.8174 28.624
32.8638 28.5545
32.9104 28.5523
32.9569 28.5343
33.0035 28.3125
33.0499 28.3149
33.0966 28.3234
33.143 28.3369
33.1897 28.2241
33.2361 28.08
33.2828 27.929
33.3293 27.8613
33.3759 27.8623
33.4226 27.6821
33.4691 27.5419
33.5158 27.4934
33.5623 27.3606
33.609 27.2731
33.6555 27.1274
33.7022 27.0571
33.7487 26.9739
33.7954 26.9007
33.842 26.758
33.8887 26.728
33.9353 26.7112
33.982 26.5767
34.0286 26.5259
34.0753 26.4438
34.1219 26.3778
34.1687 26.2619
34.2152 26.2104
34.262 26.1883
34.3086 25.9114
34.3554 25.9924
34.402 25.7956
34.4488 25.6444
34.4954 25.6142
34.5422 25.6635
34.5889 25.5028
34.6357 25.4304
34.6825 25.2624
34.7292 25.2932
34.776 25.194
34.8227 25.0287
34.8695 25.0294
34.9162 25.0495
34.9631 24.9114
35.0098 24.9018
35.0566 24.7174
35.1033 24.6865
35.1502 24.7081
35.1969 24.6315
35.2438 24.5767
35.2906 24.5602
35.3375 24.4528
35.3842 24.3762
35.4311 24.3315
35.4779 24.328
35.5248 24.2898
35.5716 24.1876
35.6185 24.0903
35.6653 24.0351
35.7123 23.9387
35.759 23.8472
35.806 23.7691
35.8528 23.5516
35.8998 23.5826
35.9468 23.4686
35.9936 23.499
36.0406 23.3326
36.0874 23.3521
36.1345 23.2053
36.1813 23.1458
36.2283 23.017
36.2752 23.0484
36.3222 23.0108
36.3691 23.0046
36.4161 22.8596
36.463 22.8125
36.5101 22.779
36.557 22.7398
36.6041 22.4943
36.651 22.5362
36.6981 22.5159
36.745 22.3784
36.7921 22.3333
36.839 22.218
36.8861 22.222
36.9331 22.0941
36.9802 22.0464
37.0272 21.9727
37.0743 21.8445
37.1213 21.8149
37.1684 21.7241
37.2154 21.6941
37.2626 21.6712
37.3098 21.5384
37.3568 21.4643
37.404 21.4326
37.451 21.2803
37.4982 21.3007
37.5452 21.237
37.5924 21.1219
37.6395 21.1812
37.6867 20.9921
37.7337 20.9928
37.781 20.8749
37.8281 20.8442
37.8753 20.6882
37.9224 20.744
37.9697 20.5971
38.0168 20.549
38.064 20.4868
38.1111 20.3883
38.1584 20.3825
38.2056 20.2607
38.2529 20.2469
38.3 20.1832
38.3473 20.2248
38.3945 19.9733
38.4418 19.9708
38.489 19.9186
38.5363 19.7868
38.5837 19.7011
38.6309 19.7076
38.6782 19.614
38.7254 19.5163
38.7728 19.4703
38.82 19.4588
38.8674 19.4739
38.9146 19.3457
38.9621 19.2699
39.0093 19.2667
39.0567 19.2369
39.104 19.1112
39.1514 19.0181
39.1987 18.9801
39.2461 18.874
39.2934 18.9011
39.3409 18.7008
39.3882 18.7596
39.4356 18.6687
39.483 18.6028
39.5304 18.5881
39.5778 18.5742
39.6253 18.4007
39.6726 18.4163
39.7201 18.4116
39.7675 18.2507
39.815 18.2285
39.8624 18.1911
39.9099 18.1533
39.9575 18.0396
40.0049 18.0556
40.0525 17.8667
40.0999 17.885
40.1474 17.7613
40.1949 17.7316
40.2425 17.6679
40.2899 17.6899
40.3375 17.5525
40.385 17.5319
40.4326 17.4452
40.48 17.477
40.5277 17.3526
40.5752 17.3205
40.6228 17.2221
40.6703 17.1965
40.718 17.1166
40.7655 17.1717
40.8132 17.0425
40.8607 16.96
40.9084 16.9877
40.9559 16.9602
41.0036 16.802
41.0512 16.7517
41.0989 16.7014
41.1465 16.6876
41.1942 16.5968
41.242 16.4931
41.2896 16.5108
41.3373 16.3949
41.3849 16.3666
41.4327 16.2588
41.4803 16.2444
41.5281 16.2055
41.5758 16.123
41.6236 16.0282
41.6712 16.0871
41.7191 15.9971
41.7667 15.9123
41.8146 15.9189
41.8622 15.8382
41.9101 15.7433
41.9578 15.6859
42.0057 15.6535
42.0534 15.6679
42.1013 15.5837
42.149 15.5043
42.1969 15.4621
42.2446 15.418
42.2925 15.3799
42.3403 15.3164
42.3882 15.3202
42.436 15.2305
42.4839 15.1386
42.5319 15.1157
42.5797 15.0941
42.6277 14.9954
42.6755 14.9415
42.7235 14.8814
42.7713 14.8743
42.8193 14.7787
42.8671 14.8202
42.9152 14.6615
42.963 14.6707
43.0111 14.5855
43.0589 14.5742
43.107 14.473
43.1549 14.4309
43.2029 14.388
43.2508 14.391
43.2989 14.29
43.3468 14.2221
43.3949 14.2144
43.4429 14.1547
43.491 14.1203
43.5389 14.0595
43.5871 14.0266
43.635 13.9309
43.6832 13.8998
43.7312 13.8422
43.7793 13.7986
43.8273 13.7761
43.8755 13.6845
43.9237 13.666
43.9717 13.6255
44.0199 13.5788
44.068 13.5327
44.1162 13.5407
44.1642 13.4575
44.2125 13.4222
44.2606 13.343
44.3088 13.3114
44.3569 13.221
44.4052 13.2463
44.4533 13.148
44.5016 13.0591
44.5497 13.0436
44.598 13.0341
44.6461 12.9701
44.6945 12.941
44.7426 12.8974
44.791 12.8696
44.8391 12.7831
44.8875 12.7353
44.9357 12.6975
44.984 12.619
45.0322 12.6107
45.0806 12.5448
45.1288 12.565
45.1773 12.463
45.2257 12.3908
45.2739 12.3883
45.3224 12.3701
45.3706 12.3025
45.4191 12.2693
45.4673 12.1813
45.5158 12.1641
45.5641 12.1235
45.6126 12.0639
45.6609 12.0368
45.7094 12.0095
45.7577 11.9332
45.8063 11.8763
45.8546 11.8741
45.9031 11.8288
45.9515 11.7646
46.0001 11.7082
46.0484 11.6783
46.097 11.6902
46.1454 11.6502
46.194 11.5913
46.2424 11.5378
46.291 11.4844
46.3395 11.4478
46.3881 11.3527
46.4365 11.379
46.4852 11.3222
46.5337 11.2812
46.5823 11.2934
46.631 11.1934
46.6795 11.1447
46.7282 11.109
46.7767 11.0875
46.8254 10.9757
46.8739 11.0051
46.9226 10.9647
46.9712 10.9099
47.0199 10.8446
47.0685 10.8249
47.1173 10.7739
47.1658 10.7616
47.2146 10.6951
47.2632 10.7037
47.312 10.6514
47.3606 10.5672
47.4095 10.5622
47.4581 10.5069
47.5069 10.4519
47.5556 10.4581
47.6044 10.3977
47.6531 10.354
47.702 10.3004
47.7507 10.2878
47.7996 10.2193
47.8483 10.2352
47.8972 10.1622
47.9461 10.1279
47.9948 10.0626
48.0438 10.081
48.0925 10.0285
48.1415 10.0312
48.1902 9.96429
48.2392 9.95034
48.288 9.87154
48.337 9.86951
48.3858 9.78395
48.4348 9.78171
48.4837 9.76863
48.5327 9.71064
48.5815 9.70831
48.6306 9.63212
48.6795 9.60721
48.7285 9.57526
48.7774 9.51493
48.8265 9.51769
48.8754 9.48436
48.9245 9.4635
48.9734 9.38954
49.0226 9.40286
49.0715 9.29863
49.1206 9.29385
49.1696 9.22244
49.2188 9.2456
49.2679 9.21165
49.3169 9.15155
49.3661 9.11217
49.4151 9.06147
49.4643 9.03641
49.5134 8.99616
49.5626 8.92448
49.6117 8.93006
49.6609 8.91947
49.71 8.85235
49.7592 8.82677
49.8083 8.78412
49.8576 8.78905
49.9067 8.74942
49.956 8.73002
50.0052 8.63862
50.0545 8.6616
50.1036 8.60402
50.153 8.59974
50.2022 8.52268
50.2515 8.50524
50.3007 8.4613
50.3501 8.3911
50.3993 8.39333
50.4487 8.39207
50.498 8.35659
50.5474 8.31386
50.5966 8.27743
50.6461 8.25711
50.6955 8.20854
50.7448 8.16967
50.7943 8.1383
50.8436 8.11624
50.8931 8.06396
50.9424 8.04247
50.9919 8.01145
51.0413 8.0046
51.0908 7.97729
51.1402 7.93265
51.1897 7.88447
51.2391 7.89316
51.2887 7.83451
51.3381 7.78375
51.3877 7.77053
51.4371 7.74105
51.4867 7.70392
51.5362 7.68414
51.5858 7.61579
51.6353 7.59722
51.6849 7.57218
51.7344 7.53654
51.7841 7.52353
51.8336 7.46675
51.8833 7.45352
51.9328 7.4282
51.9826 7.35499
52.0323 7.36181
52.0818 7.30485
52.1316 7.28424
52.1812 7.27641
52.231 7.21312
52.2806 7.21269
52.3304 7.18784
52.38 7.12756
52.4298 7.14218
52.4794 7.07584
52.5293 7.0323
52.5789 7.03332
52.6288 7.01008
52.6785 6.94799
52.7284 6.96761
52.7781 6.90531
52.828 6.88754
52.8777 6.81037
52.9276 6.80839
52.9774 6.82658
53.0273 6.78024
53.0771 6.72869
53.1271 6.6956
53.1769 6.67798
53.2269 6.66748
53.2767 6.61368
53.3267 6.60298
53.3765 6.56295
53.4266 6.58165
53.4766 6.49609
53.5265 6.45682
53.5765 6.4861
53.6264 6.46236
53.6765 6.42249
53.7264 6.38352
53.7765 6.33085
53.8265 6.29214
53.8766 6.27652
53.9266 6.23344
53.9767 6.24308
54.0267 6.21315
54.0769 6.19584
54.1269 6.15975
54.1771 6.11749
54.2271 6.10207
54.2773 6.03865
54.3274 6.04357
54.3776 6.02065
54.4277 5.96508
54.478 5.94726
54.528 5.9024
54.5783 5.89387
54.6285 5.78867
54.6788 5.77926
54.7289 5.74705
54.7792 5.68746
54.8296 5.62415
54.8798 5.57054
54.9301 5.51847
54.9803 5.55531
55.0307 5.47955
55.0809 5.45667
55.1314 5.43702
55.1816 5.3854
55.232 5.29066
55.2823 5.33097
55.3328 5.19604
55.383 5.19871
55.4335 5.12525
55.4838 5.05905
55.5344 5.08733
55.5847 4.99408
55.6352 5.00939
55.6856 4.87678
55.7361 4.8502