File: XRD/Ni3Fe_FD0787.xy
TT I
1.27165 7.39846
1.31627 6.70423
1.36089 6.30722
1.40551 5.90375
1.45013 6.08031
1.49476 5.94551
1.53938 5.95287
1.584 4.96036
1.62863 5.60715
1.67325 5.17611
1.71787 5.41295
1.7625 4.4478
1.80712 4.56884
1.85174 5.16301
1.89636 4.42344
1.94099 4.62093
1.98562 4.87759
2.03025 4.43436
2.07487 4.5292
2.11949 5.31066
2.16411 5.00822
2.20874 12.1496
2.25338 16.4745
2.298 5.78995
2.34263 5.47474
2.38725 6.02539
2.43188 6.40165
2.4765 6.94552
2.52115 6.82115
2.56577 7.82158
2.6104 8.33995
2.65503 8.25469
2.69965 8.52615
2.7443 8.29269
2.78893 7.89689
2.83356 9.15489
2.87818 8.69037
2.92281 8.65063
2.96744 9.64001
3.01209 10.4054
3.05672 11.1962
3.10135 12.3641
3.14599 12.6928
3.19062 14.7661
3.23527 14.9785
3.2799 15.638
3.32454 17.0283
3.36917 17.3773
3.4138 18.9353
3.45844 19.5864
3.50309 20.6709
3.54773 21.6923
3.59237 23.2258
3.637 70.7275
3.68164 47.7994
3.7263 25.607
3.77094 26.0278
3.81558 26.6299
3.86022 27.0238
3.90486 28.241
3.9495 29.4179
3.99416 30.5911
4.0388 31.482
4.08344 33.2377
4.12809 34.2462
4.17273 36.3675
4.21738 40.5744
4.26204 184.071
4.30669 158.731
4.35133 46.156
4.39598 43.7351
4.44063 51.561
4.4853 59.2514
4.52995 50.8548
4.5746 51.3878
4.61925 52.6244
4.6639 54.9716
4.70855 57.7544
4.75322 60.4866
4.79788 64.0719
4.84253 66.9245
4.88719 71.7621
4.93184 75.0082
4.97652 79.5658
5.02118 86.2801
5.06583 93.7086
5.11049 104.863
5.15515 159.33
5.19981 354.03
5.24449 2825.23
5.28916 12618.0
5.33382 2568.6
5.37848 176.719
5.42315 125.424
5.46783 111.611
5.5125 104.874
5.55716 100.996
5.60183 97.2028
5.6465 95.1273
5.69117 93.0482
5.73586 91.6484
5.78053 91.6394
5.8252 91.0686
5.86988 92.4567
5.91455 93.6428
5.95924 101.987
6.00392 213.087
6.0486 955.638
6.09328 4544.98
6.13795 3125.36
6.18263 206.479
6.22733 89.8359
6.27201 80.4801
6.3167 92.5694
6.36138 76.7593
6.40606 68.2794
6.45075 66.9264
6.49545 64.9004
6.54014 63.045
6.58483 62.3239
6.62952 62.0149
6.67421 83.7721
6.71892 116.053
6.76361 65.2161
6.8083 57.8947
6.853 56.8184
6.89769 56.3618
6.94239 55.9787
6.98711 55.1404
7.03181 54.8773
7.07651 54.4524
7.12121 54.6672
7.16591 54.8152
7.21063 54.5913
7.25533 65.7991
7.30004 138.676
7.34475 79.227
7.38945 55.4679
7.43416 53.8874
7.47889 53.6181
7.5236 53.9393
7.56831 54.647
7.61303 55.573
7.65774 56.2434
7.70247 55.7004
7.74719 55.5224
7.79191 55.9979
7.83663 56.4961
7.88135 57.6433
7.92607 58.0258
7.97081 59.2079
8.01553 60.4533
8.06026 61.8286
8.10498 63.2539
8.14971 70.5924
8.19446 70.1665
8.23919 68.899
8.28392 71.2384
8.32865 73.4
8.37339 77.8546
8.41812 83.8038
8.46288 107.202
8.50761 168.551
8.55235 381.101
8.59709 1211.41
8.64183 2190.14
8.68658 842.733
8.73134 148.074
8.77609 96.8964
8.82083 91.4927
8.86558 88.8172
8.91033 88.4418
8.9551 88.695
8.99985 83.9883
9.04461 82.652
9.08936 82.1881
9.13412 81.2416
9.17888 81.2996
9.22365 81.5615
9.26841 81.2645
9.31318 81.938
9.35794 82.2898
9.4027 82.7635
9.44749 83.2878
9.49226 84.0549
9.53703 84.6536
9.5818 86.5249
9.62657 90.5509
9.67134 95.3566
9.71614 92.4588
9.76091 93.5575
9.80569 95.898
9.85047 99.2915
9.89525 116.894
9.94005 130.058
9.98484 178.748
10.0296 341.779
10.0744 822.228
10.1192 1768.47
10.164 1504.19
10.2088 343.069
10.2536 119.798
10.2984 109.997
10.3432 110.252
10.388 103.515
10.4328 118.925
10.4776 160.787
10.5224 289.612
10.5672 532.38
10.612 482.563
10.6568 183.289
10.7017 93.5272
10.7465 85.1313
10.7913 82.0286
10.8361 80.1381
10.8809 77.918
10.9257 76.8861
10.9706 77.2993
11.0154 73.9586
11.0602 71.9786
11.105 70.8319
11.1499 73.6597
11.1947 78.4475
11.2395 71.5689
11.2844 68.9468
11.3292 66.1924
11.374 65.309
11.4189 64.8284
11.4637 63.8839
11.5086 64.2024
11.5534 66.2487
11.5983 64.3759
11.6431 62.932
11.688 62.2106
11.7328 62.0849
11.7777 62.098
11.8225 61.7803
11.8674 61.6761
11.9122 62.1414
11.9571 62.4846
12.002 63.3282
12.0468 67.7562
12.0917 77.7547
12.1366 101.844
12.1814 157.89
12.2263 212.643
12.2712 166.417
12.3161 88.6096
12.3609 67.7544
12.4058 63.6672
12.4507 63.3838
12.4956 63.3929
12.5405 63.7701
12.5853 64.7321
12.6302 69.9861
12.6751 73.905
12.72 68.1309
12.7649 66.8874
12.8098 67.6369
12.8547 68.9371
12.8996 70.1546
12.9445 71.8232
12.9894 73.401
13.0343 75.2967
13.0792 78.5772
13.1242 88.599
13.1691 110.923
13.214 148.044
13.2589 244.674
13.3038 386.072
13.3487 422.851
13.3937 242.952
13.4386 117.096
13.4835 104.669
13.5285 119.488
13.5734 158.666
13.6183 254.858
13.6633 360.789
13.7082 329.914
13.7531 167.497
13.7981 92.6144
13.843 80.5064
13.888 78.42
13.9329 76.0596
13.9779 74.905
14.0228 73.6701
14.0678 72.1541
14.1127 71.8248
14.1577 71.3916
14.2027 70.5771
14.2476 69.6964
14.2926 69.6702
14.3376 70.1995
14.3825 69.3047
14.4275 68.2713
14.4725 67.9247
14.5175 68.2756
14.5624 68.2059
14.6074 69.7713
14.6524 70.4577
14.6974 69.8118
14.7424 71.7778
14.7874 78.6996
14.8324 88.234
14.8774 110.389
14.9224 156.973
14.9674 214.777
15.0124 220.327
15.0574 141.671
15.1024 85.7205
15.1474 71.1611
15.1924 69.6326
15.2374 69.668
15.2824 68.7212
15.3274 67.2531
15.3725 65.9972
15.4175 65.4375
15.4625 65.3447
15.5076 65.4038
15.5526 65.2456
15.5976 65.3343
15.6426 66.6048
15.6877 71.7393
15.7327 79.151
15.7778 94.3074
15.8228 128.727
15.8679 178.876
15.9129 199.134
15.958 147.801
16.003 89.1641
16.0481 65.9285
16.0931 62.9547
16.1382 61.3121
16.1833 59.6776
16.2283 58.1363
16.2734 57.6464
16.3185 57.6256
16.3636 58.0235
16.4086 56.5874
16.4537 55.6156
16.4988 54.971
16.5439 54.7503
16.589 54.4256
16.6341 54.276
16.6792 53.8272
16.7243 54.0602
16.7694 54.2724
16.8145 54.0022
16.8596 54.5431
16.9047 55.528
16.9498 55.8224
16.9949 54.8601
17.04 55.361
17.0851 56.5052
17.1302 58.1156
17.1754 61.0001
17.2205 66.6632
17.2656 74.9761
17.3108 83.411
17.3559 81.2339
17.401 68.897
17.4462 60.6154
17.4913 58.2748
17.5365 58.5085
17.5815 58.6136
17.6268 58.8538
17.6718 59.5593
17.7171 60.1637
17.7622 60.4083
17.8074 61.5971
17.8525 63.7761
17.8977 67.925
17.9428 73.1299
17.9881 82.4698
18.0331 101.097
18.0784 125.42
18.1237 141.62
18.1688 127.073
18.214 98.342
18.2591 84.1475
18.3044 91.0088
18.3495 101.509
18.3948 105.683
18.4399 92.859
18.4852 74.5457
18.5303 64.4638
18.5756 61.3161
18.6207 60.6932
18.666 59.6144
18.7112 59.114
18.7565 58.2327
18.8016 57.8365
18.8469 57.3348
18.892 57.2063
18.9374 56.6265
18.9825 56.295
19.0278 56.3265
19.073 56.3961
19.1183 56.9183
19.1635 57.4086
19.2088 58.6139
19.254 61.7037
19.2993 66.498
19.3447 73.0261
19.3898 75.8877
19.4352 70.3493
19.4804 61.1744
19.5257 55.484
19.5709 53.3766
19.6163 53.2855
19.6615 53.0807
19.7068 52.8283
19.752 52.7098
19.7974 53.0216
19.8426 54.0314
19.888 54.5085
19.9332 55.7046
19.9786 58.2466
20.0238 62.5368
20.0692 67.7905
20.1144 69.6774
20.1598 67.0166
20.205 62.2403
20.2504 61.6547
20.2957 63.9766
20.3411 65.5875
20.3863 62.9775
20.4318 56.7886
20.477 52.473
20.5224 50.9554
20.5677 50.2316
20.6131 49.6169
20.6586 48.9431
20.7038 48.8559
20.7493 48.4195
20.7945 48.5516
20.84 48.445
20.8853 48.1541
20.9307 48.1466
20.976 48.125
21.0215 48.041
21.0668 48.4853
21.1122 48.8638
21.1575 49.7377
21.203 50.4429
21.2483 51.1848
21.2938 50.7852
21.3391 49.1716
21.3846 48.1845
21.4299 47.7371
21.4754 47.8146
21.5207 48.015
21.5662 48.3203
21.6116 48.8583
21.6571 49.4538
21.7024 50.4747
21.7479 52.0675
21.7933 55.0203
21.8388 58.9921
21.8843 62.767
21.9297 64.0471
21.9752 61.8043
22.0206 58.2074
22.0661 55.6483
22.1115 55.7232
22.157 55.3313
22.2024 53.2037
22.248 50.4312
22.2933 49.0764
22.3389 48.5171
22.3843 48.4015
22.4299 48.2962
22.4753 48.2921
22.5208 48.0372
22.5662 47.9145
22.6118 48.2852
22.6572 48.3555
22.7028 48.8138
22.7483 49.0946
22.7939 49.8552
22.8393 51.5648
22.8849 53.8175
22.9303 55.9195
22.9759 57.5129
23.0214 56.527
23.067 53.5415
23.1126 50.1301
23.1581 48.5331
23.2037 48.1511
23.2492 48.357
23.2948 48.3664
23.3403 48.5959
23.3859 49.2882
23.4314 50.1782
23.477 52.2708
23.5225 54.7192
23.5682 57.0998
23.6137 57.45
23.6593 54.58
23.7048 50.3296
23.7505 47.3186
23.796 46.0102
23.8417 45.4993
23.8872 45.0626
23.9329 44.7639
23.9784 44.3646
24.0241 44.2463
24.0697 43.9464
24.1154 43.7169
24.1609 43.5961
24.2066 43.3231
24.2522 43.1853
24.2979 43.0572
24.3434 42.8641
24.3892 42.7163
24.4349 42.7236
24.4805 42.3481
24.5262 42.7636
24.5718 42.575
24.6175 42.5169
24.6631 42.4073
24.7089 41.9937
24.7545 41.9378
24.8002 41.7585
24.8458 41.7354
24.8916 41.5604
24.9372 41.6228
24.983 42.0624
25.0286 42.3391
25.0744 42.9662
25.12 43.2622
25.1658 43.9005
25.2114 44.2424
25.2572 44.3472
25.3029 44.4112
25.3487 44.533
25.3943 44.0392
25.4402 42.9025
25.4858 41.6082
25.5316 40.9913
25.5773 40.4018
25.6231 40.4857
25.669 40.2242
25.7147 40.1811
25.7605 40.0226
25.8062 40.1211
25.8521 40.1016
25.8977 40.0364
25.9436 40.5731
25.9893 40.5885
26.0352 41.1637
26.0809 41.215
26.1268 41.277
26.1725 40.8428
26.2184 40.2356
26.2641 39.7106
26.31 39.6521
26.3557 39.6421
26.4017 39.6086
26.4474 40.1072
26.4933 40.3368
26.5391 40.9002
26.585 41.4041
26.6308 41.7533
26.6767 41.6962
26.7225 41.3896
26.7684 40.8886
26.8142 40.4926
26.8601 40.0265
26.9059 39.5619
26.9519 38.9528
26.9979 38.7704
27.0437 38.4788
27.0896 38.2571
27.1354 38.3474
27.1814 38.1482
27.2272 38.1463
27.2732 38.207
27.3191 37.8476
27.3651 38.0859
27.4109 37.9469
27.4569 38.1122
27.5027 38.1473
27.5488 38.2549
27.5946 37.8995
27.6407 37.7491
27.6865 37.519
27.7326 37.5253
27.7784 37.4391
27.8245 37.5855
27.8703 37.5375
27.9164 37.8926
27.9623 38.0647
28.0084 38.4387
28.0543 38.7712
28.1003 38.5458
28.1462 38.3764
28.1923 38.0124
28.2384 37.5217
28.2843 37.1405
28.3304 36.6863
28.3764 36.2357
28.4225 36.0082
28.4684 35.79
28.5145 35.543
28.5605 35.4992
28.6066 35.2897
28.6526 35.2784
28.6987 35.2167
28.7447 35.1125
28.7908 35.0298
28.8368 35.235
28.8829 35.073
28.9289 34.8724
28.9751 34.723
29.0211 34.5188
29.0673 34.2784
29.1133 34.1398
29.1595 34.086
29.2055 34.0077
29.2517 34.0422
29.2977 33.964
29.3439 33.8749
29.3899 33.8378
29.4361 33.8289
29.4824 33.6692
29.5284 33.3516
29.5746 33.0224
29.6207 32.7742
29.6669 32.7119
29.713 32.5922
29.7593 32.597
29.8053 32.5724
29.8516 32.4688
29.8977 32.4731
29.9439 32.2015
29.99 32.2242
30.0363 32.1101
30.0824 32.166
30.1287 32.0092
30.1748 32.0534
30.2211 32.2051
30.2673 31.9325
30.3136 32.04
30.3597 31.8926
30.406 31.8949
30.4522 31.7294
30.4985 31.607
30.5447 31.9177
30.591 31.8307
30.6372 31.922
30.6835 31.8735
30.7297 31.8969
30.7761 31.8299
30.8224 31.638
30.8686 31.5122
30.915 31.2483
30.9612 31.1723
31.0076 31.0292
31.0538 30.8556
31.1002 30.85
31.1464 30.7671
31.1928 30.607
31.2391 30.6735
31.2855 30.4642
31.3317 30.5838
31.3781 30.6798
31.4244 30.6024
31.4708 30.5096
31.5171 30.5353
31.5636 30.4889
31.6098 30.2414
31.6563 29.9953
31.7026 29.9233
31.7491 29.8067
31.7953 29.8508
31.8418 29.8991
31.8881 29.8332
31.9346 29.7538
31.9809 29.7315
32.0275 29.5874
32.074 29.5358
32.1203 29.2351
32.1668 29.1406
32.2132 29.0719
32.2597 28.9195
32.306 28.8603
32.3526 28.7376
32.399 28.6382
32.4455 28.4801
32.4919 28.4053
32.5385 28.4364
32.5848 28.1471
32.6314 28.1577
32.6778 28.1396
32.7244 28.0099
32.7708 27.803
32.8174 27.8742
32.8638 27.7007
32.9104 27.822
32.9569 27.7437
33.0035 27.5048
33.0499 27.5378
33.0966 27.5638
33.143 27.4714
33.1897 27.3732
33.2361 27.3364
33.2828 27.3347
33.3293 27.137
33.3759 27.0282
33.4226 26.9655
33.4691 26.831
33.5158 26.7696
33.5623 26.5993
33.609 26.5114
33.6555 26.4515
33.7022 26.2975
33.7487 26.2372
33.7954 26.162
33.842 26.0084
33.8887 26.0281
33.9353 26.0499
33.982 25.8796
34.0286 25.8295
34.0753 25.6983
34.1219 25.6645
34.1687 25.5183
34.2152 25.5324
34.262 25.3643
34.3086 25.2833
34.3554 25.2999
34.402 25.1873
34.4488 24.9943
34.4954 24.9413
34.5422 25.0112
34.5889 24.7954
34.6357 24.734
34.6825 24.6816
34.7292 24.6649
34.776 24.5087
34.8227 24.4545
34.8695 24.4076
34.9162 24.3144
34.9631 24.1928
35.0098 24.2555
35.0566 24.1588
35.1033 24.0489
35.1502 24.0182
35.1969 23.8982
35.2438 23.9345
35.2906 23.9003
35.3375 23.7877
35.3842 23.7369
35.4311 23.7812
35.4779 23.7042
35.5248 23.6388
35.5716 23.5097
35.6185 23.4311
35.6653 23.3872
35.7123 23.302
35.759 23.2262
35.806 23.1202
35.8528 23.061
35.8998 22.9718
35.9468 22.8036
35.9936 22.8582
36.0406 22.7687
36.0874 22.7614
36.1345 22.7299
36.1813 22.5646
36.2283 22.516
36.2752 22.5032
36.3222 22.3494
36.3691 22.3737
36.4161 22.2551
36.463 22.2437
36.5101 22.1928
36.557 22.0829
36.6041 21.976
36.651 21.9817
36.6981 21.9883
36.745 21.8236
36.7921 21.7527
36.839 21.6308
36.8861 21.5331
36.9331 21.563
36.9802 21.4498
37.0272 21.3298
37.0743 21.2847
37.1213 21.2436
37.1684 21.2342
37.2154 21.0927
37.2626 20.9774
37.3098 20.9726
37.3568 20.8457
37.404 20.9103
37.451 20.7832
37.4982 20.6656
37.5452 20.6733
37.5924 20.6235
37.6395 20.6187
37.6867 20.5097
37.7337 20.4154
37.781 20.3257
37.8281 20.2842
37.8753 20.2013
37.9224 20.107
37.9697 20.0817
38.0168 19.983
38.064 20.0019
38.1111 19.915
38.1584 19.7449
38.2056 19.6802
38.2529 19.7191
38.3 19.5608
38.3473 19.6321
38.3945 19.5156
38.4418 19.4672
38.489 19.4062
38.5363 19.3306
38.5837 19.2517
38.6309 19.2108
38.6782 19.0977
38.7254 19.0711
38.7728 19.0049
38.82 18.9617
38.8674 18.9297
38.9146 18.8306
38.9621 18.7984
39.0093 18.6934
39.0567 18.6414
39.104 18.6017
39.1514 18.5544
39.1987 18.507
39.2461 18.4489
39.2934 18.3152
39.3409 18.2973
39.3882 18.1919
39.4356 18.164
39.483 18.034
39.5304 18.0392
39.5778 18.0174
39.6253 17.9692
39.6726 17.9537
39.7201 17.8287
39.7675 17.7644
39.815 17.7489
39.8624 17.6705
39.9099 17.6706
39.9575 17.5301
40.0049 17.5293
40.0525 17.4975
40.0999 17.3648
40.1474 17.38
40.1949 17.3058
40.2425 17.1671
40.2899 17.1555
40.3375 17.157
40.385 17.0878
40.4326 17.0118
40.48 16.9843
40.5277 16.9577
40.5752 16.8636
40.6228 16.8166
40.6703 16.7519
40.718 16.7548
40.7655 16.6416
40.8132 16.5979
40.8607 16.5785
40.9084 16.482
40.9559 16.4638
41.0036 16.3798
41.0512 16.3558
41.0989 16.3225
41.1465 16.2284
41.1942 16.154
41.242 16.0193
41.2896 15.9964
41.3373 15.9926
41.3849 15.9677
41.4327 15.9263
41.4803 15.7332
41.5281 15.7534
41.5758 15.7057
41.6236 15.6661
41.6712 15.5733
41.7191 15.6187
41.7667 15.559
41.8146 15.4912
41.8622 15.3957
41.9101 15.3521
41.9578 15.2743
42.0057 15.3228
42.0534 15.1966
42.1013 15.1491
42.149 15.1359
42.1969 15.0481
42.2446 15.003
42.2925 14.9329
42.3403 14.9187
42.3882 14.8843
42.436 14.8766
42.4839 14.734
42.5319 14.7468
42.5797 14.7116
42.6277 14.6354
42.6755 14.6316
42.7235 14.4902
42.7713 14.4275
42.8193 14.3806
42.8671 14.3475
42.9152 14.3096
42.963 14.2519
43.0111 14.2437
43.0589 14.1727
43.107 14.0725
43.1549 14.0866
43.2029 14.0027
43.2508 13.9795
43.2989 13.9186
43.3468 13.8477
43.3949 13.8382
43.4429 13.7653
43.491 13.7316
43.5389 13.7132
43.5871 13.6662
43.635 13.5859
43.6832 13.5211
43.7312 13.5271
43.7793 13.4403
43.8273 13.4097
43.8755 13.3496
43.9237 13.3778
43.9717 13.2634
44.0199 13.2062
44.068 13.1528
44.1162 13.1484
44.1642 13.118
44.2125 13.078
44.2606 13.0462
44.3088 12.9299
44.3569 12.9014
44.4052 12.885
44.4533 12.8105
44.5016 12.773
44.5497 12.6915
44.598 12.6866
44.6461 12.6663
44.6945 12.5801
44.7426 12.6294
44.791 12.5092
44.8391 12.4793
44.8875 12.4226
44.9357 12.3874
44.984 12.3281
45.0322 12.279
45.0806 12.2317
45.1288 12.1729
45.1773 12.1614
45.2257 12.1197
45.2739 12.0842
45.3224 12.0595
45.3706 11.9691
45.4191 11.9505
45.4673 11.9421
45.5158 11.8495
45.5641 11.7813
45.6126 11.7594
45.6609 11.7386
45.7094 11.7144
45.7577 11.6617
45.8063 11.5643
45.8546 11.5738
45.9031 11.499
45.9515 11.4993
46.0001 11.4446
46.0484 11.4607
46.097 11.3474
46.1454 11.3506
46.194 11.2889
46.2424 11.2373
46.291 11.1975
46.3395 11.1663
46.3881 11.1445
46.4365 11.0947
46.4852 11.0417
46.5337 10.9968
46.5823 11.0014
46.631 10.9358
46.6795 10.8617
46.7282 10.8414
46.7767 10.7957
46.8254 10.7449
46.8739 10.7498
46.9226 10.7054
46.9712 10.6196
47.0199 10.5759
47.0685 10.5552
47.1173 10.5064
47.1658 10.4838
47.2146 10.4615
47.2632 10.4053
47.312 10.4173
47.3606 10.3244
47.4095 10.2921
47.4581 10.245
47.5069 10.1734
47.5556 10.1708
47.6044 10.1562
47.6531 10.1221
47.702 10.0664
47.7507 10.0158
47.7996 9.97042
47.8483 9.95231
47.8972 9.92136
47.9461 9.91416
47.9948 9.85719
48.0438 9.81333
48.0925 9.75363
48.1415 9.76197
48.1902 9.72046
48.2392 9.73802
48.288 9.64558
48.337 9.62484
48.3858 9.56668
48.4348 9.52864
48.4837 9.5352
48.5327 9.47674
48.5815 9.40783
48.6306 9.38817
48.6795 9.35978
48.7285 9.35855
48.7774 9.30424
48.8265 9.25777
48.8754 9.20704
48.9245 9.19833
48.9734 9.17969
49.0226 9.12742
49.0715 9.10487
49.1206 9.03792
49.1696 8.99032
49.2188 8.97755
49.2679 8.93956
49.3169 8.91568
49.3661 8.87734
49.4151 8.8495
49.4643 8.84022
49.5134 8.80804
49.5626 8.68798
49.6117 8.73052
49.6609 8.68339
49.71 8.61417
49.7592 8.62784
49.8083 8.53167
49.8576 8.57321
49.9067 8.47819
49.956 8.47327
50.0052 8.45352
50.0545 8.46939
50.1036 8.34443
50.153 8.31416
50.2022 8.3091
50.2515 8.28253
50.3007 8.24234
50.3501 8.23795
50.3993 8.18454
50.4487 8.19264
50.498 8.11244
50.5474 8.11425
50.5966 8.07849
50.6461 8.03213
50.6955 8.04082
50.7448 7.97189
50.7943 7.9827
50.8436 7.91817
50.8931 7.88672
50.9424 7.83071
50.9919 7.78076
51.0413 7.80557
51.0908 7.76338
51.1402 7.72266
51.1897 7.7037
51.2391 7.63444
51.2887 7.62882
51.3381 7.57976
51.3877 7.57558
51.4371 7.51608
51.4867 7.47879
51.5362 7.47661
51.5858 7.42564
51.6353 7.38677
51.6849 7.3629
51.7344 7.32593
51.7841 7.33959
51.8336 7.31748
51.8833 7.24316
51.9328 7.17191
51.9826 7.19448
52.0323 7.18467
52.0818 7.14216
52.1316 7.08303
52.1812 7.09907
52.231 7.05074
52.2806 7.01104
52.3304 7.01732
52.38 6.98862
52.4298 6.93964
52.4794 6.92189
52.5293 6.89928
52.5789 6.84315
52.6288 6.84692
52.6785 6.79244
52.7284 6.79732
52.7781 6.72922
52.828 6.71998
52.8777 6.67055
52.9276 6.67154
52.9774 6.61863
53.0273 6.61288
53.0771 6.56593
53.1271 6.534
53.1769 6.49509
53.2269 6.50689
53.2767 6.45637
53.3267 6.43017
53.3765 6.42135
53.4266 6.40725
53.4766 6.33419
53.5265 6.28285
53.5765 6.27345
53.6264 6.30358
53.6765 6.21712
53.7264 6.1846
53.7765 6.17022
53.8265 6.12826
53.8766 6.10055
53.9266 6.08646
53.9767 6.08456
54.0267 6.08811
54.0769 6.04079
54.1269 6.01735
54.1771 5.90722
54.2271 5.94144
54.2773 5.93923
54.3274 5.88716
54.3776 5.87502
54.4277 5.83397
54.478 5.76413
54.528 5.67145
54.5783 5.68594
54.6285 5.68783
54.6788 5.61058
54.7289 5.60035
54.7792 5.49973
54.8296 5.4828
54.8798 5.47009
54.9301 5.39102
54.9803 5.41753
55.0307 5.35697
55.0809 5.31307
55.1314 5.28645
55.1816 5.20698
55.232 5.18592
55.2823 5.15259
55.3328 5.11032
55.383 5.04382
55.4335 5.02272
55.4838 4.98588
55.5344 4.87472
55.5847 4.87613
55.6352 4.88387
55.6856 4.83248
55.7361 4.71642