File: XRD/Ni3Fe_FD0045.xy
TT I
1.27165 33.2677
1.31627 31.0451
1.36089 30.5253
1.40551 28.2334
1.45013 27.3409
1.49476 26.1082
1.53938 25.3085
1.584 24.7256
1.62863 23.4174
1.67325 22.8909
1.71787 23.7893
1.7625 21.6552
1.80712 20.8483
1.85174 21.6864
1.89636 21.223
1.94099 22.0243
1.98562 21.6873
2.03025 20.7807
2.07487 20.976
2.11949 21.7508
2.16411 21.6267
2.20874 21.6387
2.25338 21.5728
2.298 22.2438
2.34263 21.5324
2.38725 21.9612
2.43188 22.2298
2.4765 22.2016
2.52115 23.0739
2.56577 23.1701
2.6104 23.8695
2.65503 24.2483
2.69965 26.5171
2.7443 27.3467
2.78893 30.4408
2.83356 33.111
2.87818 36.6029
2.92281 41.7094
2.96744 47.4937
3.01209 55.386
3.05672 63.6066
3.10135 73.3975
3.14599 77.8386
3.19062 76.5949
3.23527 68.6106
3.2799 57.483
3.32454 47.3668
3.36917 40.2834
3.4138 35.1623
3.45844 32.1543
3.50309 30.1596
3.54773 28.6472
3.59237 27.6508
3.637 27.4931
3.68164 27.1749
3.7263 26.9843
3.77094 26.6387
3.81558 26.3455
3.86022 26.0809
3.90486 26.7341
3.9495 26.9049
3.99416 27.4615
4.0388 28.2418
4.08344 28.3825
4.12809 29.6881
4.17273 31.0423
4.21738 33.6827
4.26204 36.5672
4.30669 39.79
4.35133 40.4674
4.39598 39.5021
4.44063 38.1471
4.4853 37.7146
4.52995 38.5391
4.5746 39.4699
4.61925 40.7455
4.6639 41.8504
4.70855 43.5349
4.75322 45.8807
4.79788 49.3725
4.84253 53.5212
4.88719 58.2231
4.93184 66.0611
4.97652 78.2561
5.02118 97.0057
5.06583 118.06
5.11049 139.457
5.15515 184.276
5.19981 299.224
5.24449 678.431
5.28916 1507.43
5.33382 3926.05
5.37848 3388.03
5.42315 904.955
5.46783 323.573
5.5125 201.427
5.55716 153.054
5.60183 126.273
5.6465 114.638
5.69117 109.207
5.73586 101.697
5.78053 98.8474
5.8252 100.046
5.86988 105.446
5.91455 117.106
5.95924 138.497
6.00392 191.02
6.0486 316.407
6.09328 542.475
6.13795 992.971
6.18263 1189.39
6.22733 556.62
6.27201 238.584
6.3167 137.472
6.36138 95.0981
6.40606 74.8762
6.45075 64.5682
6.49545 57.37
6.54014 52.5677
6.58483 49.1644
6.62952 47.099
6.67421 45.3988
6.71892 44.4499
6.76361 42.9809
6.8083 41.283
6.853 40.6846
6.89769 40.3076
6.94239 40.3374
6.98711 40.2197
7.03181 40.6764
7.07651 42.1853
7.12121 42.8883
7.16591 42.4215
7.21063 40.5646
7.25533 40.2618
7.30004 41.0547
7.34475 40.8754
7.38945 39.8249
7.43416 39.3238
7.47889 41.3084
7.5236 55.2838
7.56831 151.001
7.61303 179.033
7.65774 67.0916
7.70247 43.4816
7.74719 39.4237
7.79191 38.0804
7.83663 37.8423
7.88135 37.7586
7.92607 38.0044
7.97081 38.3028
8.01553 38.7608
8.06026 39.7045
8.10498 40.4526
8.14971 41.9922
8.19446 42.8907
8.23919 45.1075
8.28392 47.3821
8.32865 49.7501
8.37339 53.6624
8.41812 57.8887
8.46288 65.4393
8.50761 80.3461
8.55235 116.625
8.59709 179.629
8.64183 256.125
8.68658 525.188
8.73134 776.991
8.77609 433.945
8.82083 188.089
8.86558 110.837
8.91033 86.2168
8.9551 74.8325
8.99985 69.1176
9.04461 65.9641
9.08936 63.6307
9.13412 63.7027
9.17888 66.4796
9.22365 84.254
9.26841 221.405
9.31318 335.355
9.35794 135.449
9.4027 71.1206
9.44749 60.9812
9.49226 57.4596
9.53703 55.6933
9.5818 55.6372
9.62657 55.4771
9.67134 55.8887
9.71614 56.6187
9.76091 57.7749
9.80569 59.0459
9.85047 61.8253
9.89525 65.7248
9.94005 71.3535
9.98484 83.4
10.0296 112.279
10.0744 160.096
10.1192 202.427
10.164 321.183
10.2088 653.25
10.2536 706.082
10.2984 334.629
10.3432 163.57
10.388 105.111
10.4328 86.2508
10.4776 83.0435
10.5224 90.6737
10.5672 96.4668
10.612 120.267
10.6568 207.946
10.7017 282.171
10.7465 218.917
10.7913 110.911
10.8361 65.9372
10.8809 55.0709
10.9257 50.125
10.9706 48.2876
11.0154 46.4138
11.0602 44.9468
11.105 43.6335
11.1499 42.8052
11.1947 42.3771
11.2395 41.9426
11.2844 41.7067
11.3292 40.6318
11.374 39.9051
11.4189 39.4571
11.4637 38.8872
11.5086 38.4508
11.5534 38.1836
11.5983 38.1902
11.6431 37.9773
11.688 37.9626
11.7328 38.0984
11.7777 38.2979
11.8225 38.8239
11.8674 39.6993
11.9122 42.5677
11.9571 59.8957
12.002 109.883
12.0468 99.3436
12.0917 56.076
12.1366 48.5017
12.1814 49.5236
12.2263 52.5473
12.2712 62.6038
12.3161 81.7249
12.3609 90.1373
12.4058 70.6435
12.4507 53.0664
12.4956 45.781
12.5405 42.2095
12.5853 40.5425
12.6302 39.5752
12.6751 39.2782
12.72 39.2423
12.7649 39.3114
12.8098 39.1981
12.8547 39.7092
12.8996 40.3655
12.9445 41.098
12.9894 41.9625
13.0343 43.0457
13.0792 46.2416
13.1242 54.7475
13.1691 66.8973
13.214 66.1303
13.2589 68.0587
13.3038 72.217
13.3487 83.3492
13.3937 119.143
13.4386 184.22
13.4835 194.497
13.5285 130.924
13.5734 94.0528
13.6183 83.1624
13.6633 79.4763
13.7082 89.76
13.7531 127.65
13.7981 186.295
13.843 165.845
13.888 99.4711
13.9329 66.9201
13.9779 55.6681
14.0228 50.6604
14.0678 48.3962
14.1127 48.7991
14.1577 58.9549
14.2027 95.7324
14.2476 100.684
14.2926 61.9747
14.3376 46.8023
14.3825 43.4791
14.4275 41.6196
14.4725 41.1575
14.5175 40.9346
14.5624 40.2289
14.6074 40.3313
14.6524 40.3586
14.6974 40.4015
14.7424 40.8483
14.7874 41.5877
14.8324 43.7679
14.8774 47.3841
14.9224 50.6019
14.9674 52.419
15.0124 57.4519
15.0574 72.1454
15.1024 100.797
15.1474 115.224
15.1924 92.6979
15.2374 65.9257
15.2824 51.5287
15.3274 45.3964
15.3725 42.7684
15.4175 41.3889
15.4625 40.8192
15.5076 40.2678
15.5526 40.1006
15.5976 39.9947
15.6426 39.907
15.6877 40.4334
15.7327 41.8945
15.7778 44.6528
15.8228 47.561
15.8679 49.139
15.9129 51.8937
15.958 61.2327
16.003 81.5329
16.0481 107.427
16.0931 107.75
16.1382 88.4767
16.1833 65.2682
16.2283 47.5304
16.2734 41.0765
16.3185 38.3038
16.3636 36.8912
16.4086 35.7136
16.4537 35.0411
16.4988 34.6304
16.5439 34.3348
16.589 33.7556
16.6341 33.7124
16.6792 33.225
16.7243 33.3802
16.7694 33.2527
16.8145 33.0709
16.8596 33.3658
16.9047 33.763
16.9498 36.0655
16.9949 41.589
17.04 42.8101
17.0851 37.4814
17.1302 34.557
17.1754 34.6445
17.2205 35.1452
17.2656 35.3467
17.3108 35.9197
17.3559 36.9689
17.401 39.514
17.4462 44.7796
17.4913 49.2449
17.5365 46.49
17.5815 40.5977
17.6268 37.6551
17.6718 36.6796
17.7171 36.4169
17.7622 37.2348
17.8074 40.7616
17.8525 44.7232
17.8977 43.3892
17.9428 40.8332
17.9881 41.2385
18.0331 43.1763
18.0784 43.6223
18.1237 45.1263
18.1688 49.2059
18.214 59.2137
18.2591 76.9862
18.3044 88.4979
18.3495 76.622
18.3948 59.4108
18.4399 53.211
18.4852 55.0967
18.5303 63.4202
18.5756 66.4399
18.6207 60.2023
18.666 51.842
18.7112 44.4443
18.7565 39.7329
18.8016 37.9357
18.8469 36.8442
18.892 36.3464
18.9374 35.6694
18.9825 35.4568
19.0278 35.0703
19.073 34.8595
19.1183 34.6764
19.1635 34.7107
19.2088 35.2039
19.254 35.9465
19.2993 36.6626
19.3447 39.3105
19.3898 46.2251
19.4352 50.3802
19.4804 46.8955
19.5257 45.2087
19.5709 45.7484
19.6163 43.3375
19.6615 39.073
19.7068 35.8209
19.752 34.3572
19.7974 33.5479
19.8426 33.3458
19.888 32.892
19.9332 33.09
19.9786 33.3797
20.0238 33.3922
20.0692 33.4025
20.1144 33.8174
20.1598 35.0867
20.205 37.0925
20.2504 40.765
20.2957 43.7851
20.3411 42.4597
20.3863 39.0326
20.4318 37.7621
20.477 39.172
20.5224 41.4336
20.5677 40.5514
20.6131 36.9821
20.6586 33.8012
20.7038 32.381
20.7493 31.6678
20.7945 32.3257
20.84 34.5628
20.8853 35.7762
20.9307 33.701
20.976 31.3555
21.0215 30.3541
21.0668 29.9771
21.1122 29.9426
21.1575 29.9491
21.203 29.893
21.2483 29.7178
21.2938 30.004
21.3391 30.116
21.3846 30.7774
21.4299 31.71
21.4754 32.3425
21.5207 32.0415
21.5662 31.8522
21.6116 30.9413
21.6571 30.3101
21.7024 30.252
21.7479 30.9057
21.7933 31.0199
21.8388 31.3133
21.8843 31.6351
21.9297 32.0418
21.9752 33.2818
22.0206 35.4235
22.0661 38.3724
22.1115 41.8473
22.157 42.6052
22.2024 41.3756
22.248 39.7353
22.2933 38.5354
22.3389 37.3138
22.3843 36.0058
22.4299 33.8619
22.4753 32.1711
22.5208 31.2829
22.5662 30.7903
22.6118 30.7666
22.6572 30.586
22.7028 30.5215
22.7483 30.4576
22.7939 30.6575
22.8393 31.8365
22.8849 32.617
22.9303 32.4628
22.9759 31.8756
23.0214 31.8065
23.067 32.6022
23.1126 34.1191
23.1581 36.8065
23.2037 38.423
23.2492 37.2767
23.2948 34.3567
23.3403 32.4551
23.3859 32.0474
23.4314 32.0816
23.477 33.4493
23.5225 34.5071
23.5682 34.135
23.6137 32.8501
23.6593 32.4465
23.7048 33.5552
23.7505 35.5043
23.796 38.2203
23.8417 38.8669
23.8872 36.2449
23.9329 32.9877
23.9784 30.9417
24.0241 30.0575
24.0697 29.5887
24.1154 29.557
24.1609 29.4032
24.2066 28.7787
24.2522 28.2645
24.2979 27.8663
24.3434 27.7248
24.3892 27.5165
24.4349 27.4326
24.4805 27.1567
24.5262 27.1678
24.5718 27.0451
24.6175 27.172
24.6631 27.5464
24.7089 27.9694
24.7545 28.5658
24.8002 28.3032
24.8458 27.6221
24.8916 27.0621
24.9372 26.7389
24.983 26.8697
25.0286 26.7051
25.0744 26.5968
25.12 26.6612
25.1658 26.9067
25.2114 26.9348
25.2572 27.223
25.3029 27.8124
25.3487 28.5441
25.3943 28.7959
25.4402 28.9348
25.4858 28.7165
25.5316 29.0463
25.5773 29.6317
25.6231 29.5995
25.669 28.6514
25.7147 27.4322
25.7605 26.6847
25.8062 26.5645
25.8521 26.6447
25.8977 26.9004
25.9436 27.0399
25.9893 26.3914
26.0352 26.1109
26.0809 25.8386
26.1268 25.8506
26.1725 25.995
26.2184 26.1044
26.2641 26.5581
26.31 27.0366
26.3557 27.4226
26.4017 27.039
26.4474 26.7446
26.4933 26.33
26.5391 26.063
26.585 25.8813
26.6308 25.8378
26.6767 25.8501
26.7225 26.0753
26.7684 26.5535
26.8142 26.8507
26.8601 27.7537
26.9059 28.2756
26.9519 28.3712
26.9979 28.2979
27.0437 28.1204
27.0896 27.7363
27.1354 26.9158
27.1814 26.1621
27.2272 25.7307
27.2732 25.342
27.3191 25.0996
27.3651 25.0937
27.4109 24.8094
27.4569 24.8992
27.5027 24.8036
27.5488 24.9938
27.5946 24.9314
27.6407 24.9541
27.6865 24.8798
27.7326 25.0616
27.7784 25.1655
27.8245 25.2006
27.8703 25.0695
27.9164 24.8736
27.9623 24.6268
28.0084 24.7662
28.0543 25.0185
28.1003 25.3661
28.1462 25.6102
28.1923 25.5714
28.2384 25.4812
28.2843 25.9558
28.3304 26.2633
28.3764 26.155
28.4225 25.7698
28.4684 25.5442
28.5145 25.0752
28.5605 24.8575
28.6066 24.4398
28.6526 24.285
28.6987 23.9005
28.7447 23.4979
28.7908 23.2896
28.8368 23.1714
28.8829 22.9878
28.9289 22.9776
28.9751 22.7685
29.0211 22.781
29.0673 22.7841
29.1133 22.8724
29.1595 22.9789
29.2055 23.0593
29.2517 22.8121
29.2977 22.523
29.3439 22.3634
29.3899 22.185
29.4361 22.1994
29.4824 22.1503
29.5284 22.0384
29.5746 22.085
29.6207 22.1923
29.6669 22.2516
29.713 22.3154
29.7593 21.9965
29.8053 21.8337
29.8516 21.5611
29.8977 21.5818
29.9439 21.4125
29.99 21.4296
30.0363 21.1634
30.0824 21.3987
30.1287 21.5071
30.1748 21.5222
30.2211 21.3602
30.2673 21.1712
30.3136 21.1124
30.3597 21.0358
30.406 21.0943
30.4522 21.1589
30.4985 21.2191
30.5447 21.2064
30.591 21.105
30.6372 21.0156
30.6835 20.9022
30.7297 20.9532
30.7761 20.8733
30.8224 20.9177
30.8686 21.0676
30.915 21.1798
30.9612 21.3669
31.0076 21.5122
31.0538 21.5218
31.1002 21.4574
31.1464 21.3305
31.1928 21.1512
31.2391 20.9877
31.2855 20.7458
31.3317 20.5247
31.3781 20.4911
31.4244 20.4653
31.4708 20.349
31.5171 20.3261
31.5636 20.333
31.6098 20.3615
31.6563 20.4655
31.7026 20.5772
31.7491 20.5524
31.7953 20.6264
31.8418 20.5331
31.8881 20.2493
31.9346 20.0665
31.9809 20.0703
32.0275 19.9516
32.074 20.0253
32.1203 20.0091
32.1668 20.0907
32.2132 20.0807
32.2597 20.084
32.306 20.0839
32.3526 19.8849
32.399 19.8348
32.4455 20.1242
32.4919 19.4515
32.5385 19.3568
32.5848 19.1776
32.6314 19.1657
32.6778 19.0975
32.7244 18.9748
32.7708 18.8524
32.8174 18.798
32.8638 18.7044
32.9104 18.8354
32.9569 18.7943
33.0035 18.7284
33.0499 18.7847
33.0966 18.7469
33.143 18.5934
33.1897 18.4325
33.2361 18.3858
33.2828 18.4075
33.3293 18.2946
33.3759 18.3499
33.4226 18.3724
33.4691 18.4411
33.5158 18.4793
33.5623 18.4248
33.609 18.3072
33.6555 18.1906
33.7022 18.2068
33.7487 17.9832
33.7954 17.8226
33.842 17.7813
33.8887 17.726
33.9353 17.692
33.982 17.5544
34.0286 17.4909
34.0753 17.4416
34.1219 17.3915
34.1687 17.3993
34.2152 17.3551
34.262 17.2561
34.3086 17.2352
34.3554 17.1911
34.402 17.0442
34.4488 17.0198
34.4954 17.008
34.5422 16.8644
34.5889 16.9087
34.6357 16.9297
34.6825 16.8291
34.7292 16.8559
34.776 16.6839
34.8227 16.6786
34.8695 16.5835
34.9162 16.5645
34.9631 16.391
35.0098 16.4861
35.0566 16.325
35.1033 16.2716
35.1502 16.3222
35.1969 16.2596
35.2438 16.2916
35.2906 16.2536
35.3375 16.0874
35.3842 16.1203
35.4311 16.138
35.4779 16.1268
35.5248 16.0541
35.5716 16.0189
35.6185 16.0466
35.6653 16.0236
35.7123 16.1368
35.759 16.086
35.806 16.0427
35.8528 16.0221
35.8998 15.9381
35.9468 15.8093
35.9936 15.7639
36.0406 15.6563
36.0874 15.6246
36.1345 15.5535
36.1813 15.5094
36.2283 15.45
36.2752 15.3695
36.3222 15.405
36.3691 15.2769
36.4161 15.2479
36.463 15.3071
36.5101 15.3932
36.557 15.2949
36.6041 15.1006
36.651 15.1584
36.6981 15.0794
36.745 15.0015
36.7921 15.0343
36.839 14.8778
36.8861 14.9205
36.9331 14.8729
36.9802 14.8442
37.0272 14.7965
37.0743 14.7488
37.1213 14.7111
37.1684 14.5832
37.2154 14.5485
37.2626 14.5277
37.3098 14.4783
37.3568 14.4531
37.404 14.3705
37.451 14.2859
37.4982 14.2677
37.5452 14.2448
37.5924 14.1767
37.6395 14.229
37.6867 14.1225
37.7337 14.0566
37.781 13.9974
37.8281 13.9888
37.8753 13.9033
37.9224 13.9061
37.9697 13.8461
38.0168 13.8375
38.064 13.7689
38.1111 13.7696
38.1584 13.6873
38.2056 13.6236
38.2529 13.5815
38.3 13.5229
38.3473 13.4582
38.3945 13.4427
38.4418 13.4597
38.489 13.3627
38.5363 13.3352
38.5837 13.3022
38.6309 13.2966
38.6782 13.1977
38.7254 13.2156
38.7728 13.1154
38.82 13.1134
38.8674 13.0617
38.9146 13.0121
38.9621 13.0025
39.0093 12.9923
39.0567 12.9473
39.104 12.894
39.1514 12.8345
39.1987 12.7751
39.2461 12.7887
39.2934 12.6983
39.3409 12.6503
39.3882 12.6001
39.4356 12.6086
39.483 12.5412
39.5304 12.4689
39.5778 12.5029
39.6253 12.4037
39.6726 12.4019
39.7201 12.3627
39.7675 12.3522
39.815 12.2987
39.8624 12.2679
39.9099 12.2778
39.9575 12.1607
40.0049 12.1859
40.0525 12.1111
40.0999 12.0983
40.1474 12.0748
40.1949 12.0647
40.2425 12.0021
40.2899 11.9949
40.3375 11.9385
40.385 11.8838
40.4326 11.8555
40.48 11.7668
40.5277 11.8174
40.5752 11.6861
40.6228 11.6652
40.6703 11.6613
40.718 11.6547
40.7655 11.5685
40.8132 11.5736
40.8607 11.5329
40.9084 11.5217
40.9559 11.5104
41.0036 11.4576
41.0512 11.4224
41.0989 11.3673
41.1465 11.3818
41.1942 11.3309
41.242 11.253
41.2896 11.1719
41.3373 11.1813
41.3849 11.162
41.4327 11.11
41.4803 11.0952
41.5281 11.0187
41.5758 11.0025
41.6236 10.9599
41.6712 10.9575
41.7191 10.8842
41.7667 10.863
41.8146 10.8377
41.8622 10.8246
41.9101 10.7883
41.9578 10.729
42.0057 10.6743
42.0534 10.6807
42.1013 10.6849
42.149 10.6168
42.1969 10.579
42.2446 10.5616
42.2925 10.5195
42.3403 10.4667
42.3882 10.4173
42.436 10.3666
42.4839 10.3488
42.5319 10.3158
42.5797 10.2464
42.6277 10.2656
42.6755 10.2243
42.7235 10.1492
42.7713 10.2003
42.8193 10.0885
42.8671 10.0907
42.9152 10.0623
42.963 10.0302
43.0111 9.96848
43.0589 9.94092
43.107 9.87081
43.1549 9.84132
43.2029 9.86441
43.2508 9.81696
43.2989 9.75706
43.3468 9.74321
43.3949 9.70872
43.4429 9.69129
43.491 9.60738
43.5389 9.57182
43.5871 9.56548
43.635 9.54585
43.6832 9.52707
43.7312 9.4573
43.7793 9.42167
43.8273 9.41872
43.8755 9.38652
43.9237 9.40203
43.9717 9.35596
44.0199 9.32011
44.068 9.29123
44.1162 9.28524
44.1642 9.21574
44.2125 9.20002
44.2606 9.15652
44.3088 9.13646
44.3569 9.11718
44.4052 9.07314
44.4533 9.00028
44.5016 8.99351
44.5497 9.00513
44.598 8.94825
44.6461 8.89283
44.6945 8.88001
44.7426 8.86048
44.791 8.84003
44.8391 8.80076
44.8875 8.76768
44.9357 8.75262
44.984 8.72612
45.0322 8.656
45.0806 8.6494
45.1288 8.60661
45.1773 8.61642
45.2257 8.5851
45.2739 8.54438
45.3224 8.50257
45.3706 8.48401
45.4191 8.42955
45.4673 8.40965
45.5158 8.40726
45.5641 8.35091
45.6126 8.35071
45.6609 8.29119
45.7094 8.28873
45.7577 8.25675
45.8063 8.2108
45.8546 8.20281
45.9031 8.17718
45.9515 8.18908
46.0001 8.08389
46.0484 8.08326
46.097 8.07849
46.1454 8.02609
46.194 8.00147
46.2424 7.97522
46.291 7.95155
46.3395 7.93224
46.3881 7.89636
46.4365 7.87598
46.4852 7.82251
46.5337 7.77734
46.5823 7.79257
46.631 7.74076
46.6795 7.7366
46.7282 7.72706
46.7767 7.73235
46.8254 7.61904
46.8739 7.64176
46.9226 7.5784
46.9712 7.54755
47.0199 7.53729
47.0685 7.47445
47.1173 7.51083
47.1658 7.44851
47.2146 7.41996
47.2632 7.38083
47.312 7.37448
47.3606 7.33445
47.4095 7.30796
47.4581 7.29828
47.5069 7.28629
47.5556 7.2047
47.6044 7.2017
47.6531 7.2021
47.702 7.15971
47.7507 7.16104
47.7996 7.12656
47.8483 7.09133
47.8972 7.09071
47.9461 7.06084
47.9948 6.97934
48.0438 7.01069
48.0925 6.98246
48.1415 6.95948
48.1902 6.92182
48.2392 6.93415
48.288 6.88217
48.337 6.84681
48.3858 6.82938
48.4348 6.81825
48.4837 6.77395
48.5327 6.77574
48.5815 6.71882
48.6306 6.73505
48.6795 6.6778
48.7285 6.6671
48.7774 6.6591
48.8265 6.61623
48.8754 6.57526
48.9245 6.5634
48.9734 6.54906
49.0226 6.56087
49.0715 6.5181
49.1206 6.47956
49.1696 6.48234
49.2188 6.40824
49.2679 6.39748
49.3169 6.37822
49.3661 6.35276
49.4151 6.31951
49.4643 6.31034
49.5134 6.28139
49.5626 6.26114
49.6117 6.1826
49.6609 6.22472
49.71 6.1911
49.7592 6.14763
49.8083 6.14054
49.8576 6.16112
49.9067 6.1302
49.956 6.0793
50.0052 6.06789
50.0545 6.03821
50.1036 5.99391
50.153 5.96454
50.2022 5.98376
50.2515 5.94306
50.3007 5.91049
50.3501 5.91019
50.3993 5.8883
50.4487 5.87192
50.498 5.853
50.5474 5.8296
50.5966 5.79119
50.6461 5.76156
50.6955 5.74972
50.7448 5.74892
50.7943 5.70976
50.8436 5.71723
50.8931 5.64889
50.9424 5.69423
50.9919 5.64478
51.0413 5.6202
51.0908 5.58931
51.1402 5.57041
51.1897 5.57141
51.2391 5.54215
51.2887 5.51708
51.3381 5.48661
51.3877 5.46977
51.4371 5.45501
51.4867 5.40997
51.5362 5.41072
51.5858 5.40505
51.6353 5.36311
51.6849 5.34043
51.7344 5.34424
51.7841 5.29232
51.8336 5.26903
51.8833 5.2609
51.9328 5.24834
51.9826 5.21293
52.0323 5.15672
52.0818 5.18394
52.1316 5.14674
52.1812 5.12574
52.231 5.09064
52.2806 5.08248
52.3304 5.0699
52.38 5.05665
52.4298 5.05574
52.4794 4.96692
52.5293 4.99192
52.5789 5.00107
52.6288 4.95711
52.6785 4.92885
52.7284 4.92572
52.7781 4.87285
52.828 4.88009
52.8777 4.86969
52.9276 4.82689
52.9774 4.81702
53.0273 4.81841
53.0771 4.77321
53.1271 4.76472
53.1769 4.72601
53.2269 4.72286
53.2767 4.71043
53.3267 4.70624
53.3765 4.64337
53.4266 4.66207
53.4766 4.64099
53.5265 4.59879
53.5765 4.56834
53.6264 4.56248
53.6765 4.5154
53.7264 4.48254
53.7765 4.53031
53.8265 4.4602
53.8766 4.44955
53.9266 4.45211
53.9767 4.39358
54.0267 4.41584
54.0769 4.37537
54.1269 4.33634
54.1771 4.31769
54.2271 4.27798
54.2773 4.26984
54.3274 4.28242
54.3776 4.20723
54.4277 4.17677
54.478 4.13973
54.528 4.11496
54.5783 4.09071
54.6285 4.03239
54.6788 4.04688
54.7289 3.98189
54.7792 3.98985
54.8296 3.94939
54.8798 3.91563
54.9301 3.91406
54.9803 3.84328
55.0307 3.87041
55.0809 3.79681
55.1314 3.76884
55.1816 3.71534
55.232 3.68027
55.2823 3.6676
55.3328 3.61134
55.383 3.57872
55.4335 3.53503
55.4838 3.48373
55.5344 3.519
55.5847 3.43639
55.6352 3.45037
55.6856 3.40304
55.7361 3.43811