File: XRD/Ni3Fe_FD0548.xy
TT I
1.27165 7.46046
1.31627 6.54237
1.36089 6.86849
1.40551 5.8944
1.45013 6.19566
1.49476 5.93754
1.53938 5.4223
1.584 5.08315
1.62863 4.83851
1.67325 5.01187
1.71787 5.5055
1.7625 5.06834
1.80712 4.959
1.85174 4.92025
1.89636 4.43381
1.94099 5.11189
1.98562 4.98217
2.03025 4.27426
2.07487 4.41185
2.11949 4.99038
2.16411 5.21301
2.20874 13.2199
2.25338 20.2647
2.298 5.76975
2.34263 5.21451
2.38725 6.42527
2.43188 6.2144
2.4765 6.66771
2.52115 6.90741
2.56577 7.20503
2.6104 7.66442
2.65503 7.93279
2.69965 7.74379
2.7443 8.17842
2.78893 7.96702
2.83356 8.04025
2.87818 8.24296
2.92281 9.33132
2.96744 9.77102
3.01209 10.4448
3.05672 11.2294
3.10135 12.6686
3.14599 13.3144
3.19062 14.0789
3.23527 14.4835
3.2799 15.6908
3.32454 16.7116
3.36917 18.014
3.4138 19.1446
3.45844 19.484
3.50309 20.9341
3.54773 21.9768
3.59237 24.1386
3.637 87.3974
3.68164 55.525
3.7263 26.2351
3.77094 26.4589
3.81558 27.2043
3.86022 27.5596
3.90486 28.9339
3.9495 30.2094
3.99416 31.4253
4.0388 32.4978
4.08344 33.5849
4.12809 35.3194
4.17273 36.4065
4.21738 41.9902
4.26204 231.557
4.30669 198.134
4.35133 48.2679
4.39598 44.8237
4.44063 53.96
4.4853 64.1297
4.52995 50.7523
4.5746 51.6064
4.61925 53.5523
4.6639 56.2397
4.70855 58.6994
4.75322 61.7601
4.79788 64.263
4.84253 67.5864
4.88719 72.1244
4.93184 76.0345
4.97652 81.4265
5.02118 88.3473
5.06583 96.0019
5.11049 108.437
5.15515 176.087
5.19981 387.508
5.24449 3010.73
5.28916 12250.0
5.33382 3104.42
5.37848 198.798
5.42315 131.047
5.46783 114.323
5.5125 106.86
5.55716 103.024
5.60183 99.5904
5.6465 97.7802
5.69117 95.1965
5.73586 92.7281
5.78053 92.4931
5.8252 92.2368
5.86988 93.6652
5.91455 95.7053
5.95924 106.04
6.00392 226.349
6.0486 1034.5
6.09328 4357.7
6.13795 3342.08
6.18263 254.054
6.22733 94.5105
6.27201 83.9458
6.3167 101.169
6.36138 79.9236
6.40606 69.5849
6.45075 67.8171
6.49545 66.0465
6.54014 64.4521
6.58483 63.4057
6.62952 63.3516
6.67421 92.455
6.71892 135.89
6.76361 68.0393
6.8083 58.9245
6.853 57.708
6.89769 57.5272
6.94239 57.2043
6.98711 56.5073
7.03181 55.9084
7.07651 55.7988
7.12121 55.645
7.16591 56.1522
7.21063 56.0071
7.25533 70.1792
7.30004 168.461
7.34475 88.015
7.38945 56.6477
7.43416 55.1017
7.47889 54.7038
7.5236 55.4495
7.56831 55.7547
7.61303 57.4347
7.65774 57.616
7.70247 56.5205
7.74719 56.4264
7.79191 57.0023
7.83663 57.4917
7.88135 58.127
7.92607 59.4631
7.97081 60.2616
8.01553 61.3063
8.06026 62.9995
8.10498 64.3785
8.14971 73.273
8.19446 72.6116
8.23919 69.8841
8.28392 72.4889
8.32865 74.7543
8.37339 79.3524
8.41812 86.3326
8.46288 114.02
8.50761 171.688
8.55235 412.228
8.59709 1209.81
8.64183 2185.76
8.68658 938.971
8.73134 165.135
8.77609 100.166
8.82083 93.2285
8.86558 90.0724
8.91033 90.0379
8.9551 91.9282
8.99985 86.0387
9.04461 84.2816
9.08936 83.2341
9.13412 82.6132
9.17888 83.0025
9.22365 83.6522
9.26841 82.7805
9.31318 83.3903
9.35794 83.2312
9.4027 84.0209
9.44749 84.5714
9.49226 85.2195
9.53703 86.3579
9.5818 88.1545
9.62657 92.2617
9.67134 98.5013
9.71614 94.4985
9.76091 94.7297
9.80569 97.0636
9.85047 101.056
9.89525 124.287
9.94005 136.394
9.98484 184.626
10.0296 360.411
10.0744 828.665
10.1192 1713.8
10.164 1580.32
10.2088 387.405
10.2536 126.615
10.2984 113.822
10.3432 115.236
10.388 106.01
10.4328 120.908
10.4776 166.255
10.5224 289.905
10.5672 522.242
10.612 502.081
10.6568 191.896
10.7017 95.8123
10.7465 87.3982
10.7913 83.5783
10.8361 81.6814
10.8809 79.2506
10.9257 78.9701
10.9706 79.2268
11.0154 75.3311
11.0602 73.2886
11.105 72.2822
11.1499 76.5023
11.1947 82.5782
11.2395 74.2599
11.2844 70.7032
11.3292 67.8336
11.374 66.6428
11.4189 66.0177
11.4637 65.2713
11.5086 65.8608
11.5534 68.4609
11.5983 65.9886
11.6431 64.1898
11.688 63.4351
11.7328 63.2848
11.7777 63.5583
11.8225 62.8303
11.8674 62.8322
11.9122 63.4822
11.9571 63.5965
12.002 64.2762
12.0468 68.5518
12.0917 80.9526
12.1366 104.382
12.1814 153.837
12.2263 205.562
12.2712 164.903
12.3161 94.9728
12.3609 70.2667
12.4058 65.0817
12.4507 64.7783
12.4956 65.1475
12.5405 64.9425
12.5853 66.0067
12.6302 73.3372
12.6751 77.9771
12.72 70.1585
12.7649 68.366
12.8098 68.8528
12.8547 70.0078
12.8996 71.7395
12.9445 72.9181
12.9894 74.5898
13.0343 76.5133
13.0792 79.9541
13.1242 89.424
13.1691 114.914
13.214 153.416
13.2589 243.542
13.3038 371.777
13.3487 427.857
13.3937 258.931
13.4386 122.134
13.4835 107.245
13.5285 123.541
13.5734 162.808
13.6183 250.498
13.6633 350.676
13.7082 340.851
13.7531 183.482
13.7981 96.8867
13.843 82.3864
13.888 80.1624
13.9329 77.475
13.9779 76.5034
14.0228 74.8914
14.0678 73.8694
14.1127 73.0852
14.1577 73.0503
14.2027 72.0726
14.2476 70.9675
14.2926 71.3075
14.3376 72.1216
14.3825 70.8415
14.4275 69.5556
14.4725 69.2147
14.5175 69.1928
14.5624 69.7946
14.6074 71.4339
14.6524 72.113
14.6974 71.1093
14.7424 72.6842
14.7874 80.227
14.8324 91.0186
14.8774 113.016
14.9224 156.023
14.9674 209.328
15.0124 217.659
15.0574 147.037
15.1024 89.507
15.1474 72.8709
15.1924 70.9972
15.2374 71.4782
15.2824 70.7048
15.3274 68.6734
15.3725 67.3097
15.4175 66.9408
15.4625 66.589
15.5076 66.7189
15.5526 66.7685
15.5976 66.3269
15.6426 67.3017
15.6877 73.3005
15.7327 81.2446
15.7778 97.1859
15.8228 128.165
15.8679 170.756
15.9129 195.094
15.958 154.396
16.003 95.1913
16.0481 67.8438
16.0931 64.7798
16.1382 62.9072
16.1833 60.9916
16.2283 59.359
16.2734 58.8554
16.3185 59.119
16.3636 59.6428
16.4086 58.2029
16.4537 56.6493
16.4988 55.9946
16.5439 55.9392
16.589 55.5442
16.6341 55.3124
16.6792 54.8685
16.7243 55.348
16.7694 55.3254
16.8145 55.3835
16.8596 55.617
16.9047 57.235
16.9498 57.4458
16.9949 56.3313
17.04 56.2797
17.0851 57.6826
17.1302 59.1489
17.1754 62.4441
17.2205 67.4736
17.2656 75.1289
17.3108 83.1442
17.3559 82.3873
17.401 71.2008
17.4462 62.1573
17.4913 59.6761
17.5365 59.5178
17.5815 59.7967
17.6268 60.0903
17.6718 60.9266
17.7171 61.5192
17.7622 61.6749
17.8074 62.5532
17.8525 64.9875
17.8977 69.2934
17.9428 74.8854
17.9881 83.6036
18.0331 100.764
18.0784 122.844
18.1237 141.461
18.1688 131.692
18.214 102.993
18.2591 86.6018
18.3044 91.3523
18.3495 101.49
18.3948 107.386
18.4399 95.9626
18.4852 77.3168
18.5303 66.1061
18.5756 62.5791
18.6207 61.5931
18.666 60.7928
18.7112 60.0705
18.7565 59.4571
18.8016 59.0447
18.8469 58.4032
18.892 58.1122
18.9374 57.6493
18.9825 57.377
19.0278 57.3593
19.073 57.4447
19.1183 57.9523
19.1635 59.0101
19.2088 59.958
19.254 62.7418
19.2993 67.1311
19.3447 73.2439
19.3898 77.1741
19.4352 72.6271
19.4804 63.173
19.5257 57.0295
19.5709 54.5543
19.6163 54.2771
19.6615 54.0424
19.7068 53.9042
19.752 53.7572
19.7974 53.914
19.8426 54.7536
19.888 55.6927
19.9332 57.0187
19.9786 59.5329
20.0238 63.0276
20.0692 67.8003
20.1144 70.4116
20.1598 68.3461
20.205 63.5029
20.2504 62.5746
20.2957 64.3519
20.3411 66.241
20.3863 64.5661
20.4318 58.4785
20.477 53.772
20.5224 51.8579
20.5677 51.4131
20.6131 50.6496
20.6586 50.0346
20.7038 49.9886
20.7493 49.4768
20.7945 49.2106
20.84 49.1779
20.8853 49.0421
20.9307 48.9725
20.976 49.09
21.0215 48.9876
21.0668 49.4655
21.1122 49.8266
21.1575 50.5062
21.203 51.2735
21.2483 51.9098
21.2938 51.9384
21.3391 50.5051
21.3846 49.3146
21.4299 48.9413
21.4754 48.861
21.5207 48.9196
21.5662 49.1925
21.6116 49.653
21.6571 50.2517
21.7024 51.437
21.7479 53.2407
21.7933 55.8118
21.8388 59.5702
21.8843 63.1304
21.9297 65.0236
21.9752 63.4452
22.0206 59.7451
22.0661 56.8088
22.1115 56.3798
22.157 56.1246
22.2024 54.6325
22.248 51.7015
22.2933 50.1665
22.3389 49.4347
22.3843 49.3601
22.4299 49.3777
22.4753 49.226
22.5208 49.0061
22.5662 48.8706
22.6118 49.041
22.6572 49.2373
22.7028 49.8179
22.7483 50.2048
22.7939 51.0237
22.8393 52.5126
22.8849 54.6066
22.9303 56.5518
22.9759 58.2378
23.0214 57.7692
23.067 54.6652
23.1126 51.4197
23.1581 49.4685
23.2037 48.9965
23.2492 49.1582
23.2948 49.177
23.3403 49.5223
23.3859 50.1923
23.4314 51.1326
23.477 53.2176
23.5225 55.2091
23.5682 57.343
23.6137 58.4268
23.6593 55.9056
23.7048 51.6798
23.7505 48.4599
23.796 47.0616
23.8417 46.4419
23.8872 45.8421
23.9329 45.5283
23.9784 45.1627
24.0241 45.0511
24.0697 44.9149
24.1154 44.4607
24.1609 44.3114
24.2066 44.2342
24.2522 44.077
24.2979 43.6451
24.3434 43.7177
24.3892 43.5423
24.4349 43.4731
24.4805 43.2292
24.5262 43.4583
24.5718 43.4057
24.6175 43.286
24.6631 43.0867
24.7089 42.7616
24.7545 42.7742
24.8002 42.5801
24.8458 42.5522
24.8916 42.4483
24.9372 42.7192
24.983 42.9279
25.0286 43.3067
25.0744 43.5753
25.12 44.0564
25.1658 44.6254
25.2114 45.1026
25.2572 45.0187
25.3029 45.0302
25.3487 45.1805
25.3943 44.9561
25.4402 43.9375
25.4858 42.6556
25.5316 41.7863
25.5773 41.1704
25.6231 41.2176
25.669 40.8789
25.7147 40.9204
25.7605 40.8042
25.8062 40.9515
25.8521 40.9865
25.8977 40.9262
25.9436 40.9974
25.9893 41.2959
26.0352 41.8129
26.0809 41.8726
26.1268 42.029
26.1725 41.5793
26.2184 41.2268
26.2641 40.586
26.31 40.3738
26.3557 40.4668
26.4017 40.4786
26.4474 40.6434
26.4933 41.0278
26.5391 41.6289
26.585 42.0512
26.6308 42.4167
26.6767 42.5966
26.7225 42.2858
26.7684 41.6668
26.8142 41.1866
26.8601 40.6838
26.9059 40.2339
26.9519 39.8269
26.9979 39.5524
27.0437 39.1429
27.0896 39.1789
27.1354 38.9655
27.1814 38.7892
27.2272 38.8811
27.2732 38.9679
27.3191 38.7111
27.3651 38.7526
27.4109 38.7365
27.4569 38.7851
27.5027 38.8776
27.5488 38.8758
27.5946 38.7072
27.6407 38.5037
27.6865 38.2327
27.7326 38.2161
27.7784 38.0943
27.8245 38.1118
27.8703 38.329
27.9164 38.6342
27.9623 38.7117
28.0084 38.9552
28.0543 39.3923
28.1003 39.3523
28.1462 39.0947
28.1923 38.7264
28.2384 38.2893
28.2843 37.9527
28.3304 37.4348
28.3764 36.9881
28.4225 36.7406
28.4684 36.5654
28.5145 36.1845
28.5605 36.0988
28.6066 35.9754
28.6526 35.8139
28.6987 35.9407
28.7447 35.8208
28.7908 35.7579
28.8368 35.7338
28.8829 35.6372
28.9289 35.5865
28.9751 35.4046
29.0211 35.1697
29.0673 34.9792
29.1133 34.7565
29.1595 34.6264
29.2055 34.5747
29.2517 34.64
29.2977 34.4977
29.3439 34.5509
29.3899 34.4177
29.4361 34.3105
29.4824 34.1722
29.5284 34.0597
29.5746 33.643
29.6207 33.3383
29.6669 33.2976
29.713 33.1657
29.7593 33.0997
29.8053 33.0432
29.8516 33.042
29.8977 33.0133
29.9439 32.891
29.99 32.8582
30.0363 32.7827
30.0824 32.7667
30.1287 32.7397
30.1748 32.6996
30.2211 32.6091
30.2673 32.4769
30.3136 32.6178
30.3597 32.4953
30.406 32.3495
30.4522 32.2947
30.4985 32.2444
30.5447 32.3735
30.591 32.4238
30.6372 32.4634
30.6835 32.3937
30.7297 32.3682
30.7761 32.3866
30.8224 32.1509
30.8686 31.9887
30.915 31.8039
30.9612 31.7651
31.0076 31.5487
31.0538 31.3749
31.1002 31.3361
31.1464 31.1967
31.1928 31.1829
31.2391 31.1956
31.2855 31.1369
31.3317 31.0646
31.3781 31.1583
31.4244 31.1337
31.4708 31.0135
31.5171 31.0131
31.5636 30.9354
31.6098 30.7917
31.6563 30.6005
31.7026 30.4732
31.7491 30.3616
31.7953 30.4196
31.8418 30.338
31.8881 30.4811
31.9346 30.3344
31.9809 30.2529
32.0275 30.2907
32.074 30.0895
32.1203 29.9087
32.1668 29.7544
32.2132 29.5865
32.2597 29.4191
32.306 29.4014
32.3526 29.1858
32.399 29.1408
32.4455 28.9788
32.4919 28.9611
32.5385 28.8537
32.5848 28.6584
32.6314 28.6965
32.6778 28.6611
32.7244 28.5159
32.7708 28.396
32.8174 28.4151
32.8638 28.19
32.9104 28.2651
32.9569 28.239
33.0035 27.9933
33.0499 28.047
33.0966 28.0422
33.143 27.9071
33.1897 27.828
33.2361 27.7909
33.2828 27.7975
33.3293 27.4923
33.3759 27.5616
33.4226 27.4795
33.4691 27.2977
33.5158 27.1427
33.5623 27.1179
33.609 26.933
33.6555 26.8938
33.7022 26.7914
33.7487 26.6842
33.7954 26.7111
33.842 26.4534
33.8887 26.5203
33.9353 26.4349
33.982 26.3582
34.0286 26.2757
34.0753 26.1994
34.1219 26.0917
34.1687 26.0757
34.2152 25.9796
34.262 25.7886
34.3086 25.7635
34.3554 25.7883
34.402 25.6271
34.4488 25.4374
34.4954 25.4777
34.5422 25.345
34.5889 25.2085
34.6357 25.1557
34.6825 25.0854
34.7292 25.0542
34.776 24.8964
34.8227 24.831
34.8695 24.8735
34.9162 24.7629
34.9631 24.6945
35.0098 24.6647
35.0566 24.5427
35.1033 24.4791
35.1502 24.4106
35.1969 24.405
35.2438 24.3511
35.2906 24.2639
35.3375 24.1843
35.3842 24.2014
35.4311 24.1481
35.4779 24.1243
35.5248 24.0426
35.5716 23.9476
35.6185 23.8446
35.6653 23.7674
35.7123 23.6923
35.759 23.6212
35.806 23.4778
35.8528 23.4474
35.8998 23.4421
35.9468 23.287
35.9936 23.2128
36.0406 23.1729
36.0874 23.1563
36.1345 23.0485
36.1813 23.0063
36.2283 22.8996
36.2752 22.826
36.3222 22.81
36.3691 22.7101
36.4161 22.5908
36.463 22.5764
36.5101 22.6359
36.557 22.5482
36.6041 22.3911
36.651 22.3404
36.6981 22.3275
36.745 22.1684
36.7921 22.1466
36.839 22.0316
36.8861 21.9526
36.9331 21.925
36.9802 21.8254
37.0272 21.7271
37.0743 21.6539
37.1213 21.6112
37.1684 21.5615
37.2154 21.4827
37.2626 21.4268
37.3098 21.379
37.3568 21.297
37.404 21.1979
37.451 21.1299
37.4982 21.0768
37.5452 21.0418
37.5924 20.9575
37.6395 20.9398
37.6867 20.8286
37.7337 20.7093
37.781 20.6214
37.8281 20.6038
37.8753 20.508
37.9224 20.4611
37.9697 20.3992
38.0168 20.2956
38.064 20.2768
38.1111 20.2512
38.1584 20.1692
38.2056 20.1209
38.2529 20.0464
38.3 19.9536
38.3473 19.9662
38.3945 19.8242
38.4418 19.8296
38.489 19.7189
38.5363 19.5921
38.5837 19.5558
38.6309 19.5023
38.6782 19.4512
38.7254 19.3541
38.7728 19.3599
38.82 19.3083
38.8674 19.2184
38.9146 19.2294
38.9621 19.1181
39.0093 19.0861
39.0567 18.984
39.104 18.9306
39.1514 18.8856
39.1987 18.8571
39.2461 18.7328
39.2934 18.7429
39.3409 18.6047
39.3882 18.5252
39.4356 18.5153
39.483 18.4691
39.5304 18.37
39.5778 18.4279
39.6253 18.292
39.6726 18.2374
39.7201 18.1966
39.7675 18.1592
39.815 18.0638
39.8624 17.9825
39.9099 17.9591
39.9575 17.8382
40.0049 17.8906
40.0525 17.7337
40.0999 17.6558
40.1474 17.6603
40.1949 17.5864
40.2425 17.5434
40.2899 17.5401
40.3375 17.4571
40.385 17.2983
40.4326 17.3327
40.48 17.2392
40.5277 17.2083
40.5752 17.17
40.6228 17.0256
40.6703 17.0341
40.718 16.9774
40.7655 16.9771
40.8132 16.8624
40.8607 16.8619
40.9084 16.8066
40.9559 16.7202
41.0036 16.6996
41.0512 16.6207
41.0989 16.6242
41.1465 16.5192
41.1942 16.4748
41.242 16.3586
41.2896 16.3049
41.3373 16.2431
41.3849 16.211
41.4327 16.1644
41.4803 16.1287
41.5281 16.0507
41.5758 16.0507
41.6236 15.9409
41.6712 15.9303
41.7191 15.8517
41.7667 15.8004
41.8146 15.7583
41.8622 15.7022
41.9101 15.6534
41.9578 15.6018
42.0057 15.5822
42.0534 15.4713
42.1013 15.4557
42.149 15.3855
42.1969 15.3003
42.2446 15.3072
42.2925 15.2962
42.3403 15.205
42.3882 15.2002
42.436 15.1564
42.4839 15.0174
42.5319 14.986
42.5797 15.0057
42.6277 14.9405
42.6755 14.8479
42.7235 14.7918
42.7713 14.6949
42.8193 14.6338
42.8671 14.5993
42.9152 14.575
42.963 14.5174
43.0111 14.4775
43.0589 14.4302
43.107 14.363
43.1549 14.3271
43.2029 14.2898
43.2508 14.2634
43.2989 14.218
43.3468 14.202
43.3949 14.0474
43.4429 14.0288
43.491 13.9913
43.5389 13.9046
43.5871 13.9669
43.635 13.812
43.6832 13.8142
43.7312 13.7299
43.7793 13.6946
43.8273 13.6654
43.8755 13.5892
43.9237 13.5017
43.9717 13.5206
44.0199 13.476
44.068 13.4513
44.1162 13.3392
44.1642 13.3877
44.2125 13.2659
44.2606 13.2447
44.3088 13.1799
44.3569 13.1078
44.4052 13.1266
44.4533 13.0034
44.5016 13.0139
44.5497 12.9546
44.598 12.9212
44.6461 12.8396
44.6945 12.7996
44.7426 12.774
44.791 12.7298
44.8391 12.7043
44.8875 12.6601
44.9357 12.5989
44.984 12.525
45.0322 12.5178
45.0806 12.4857
45.1288 12.4566
45.1773 12.4266
45.2257 12.3256
45.2739 12.2924
45.3224 12.2422
45.3706 12.2109
45.4191 12.1551
45.4673 12.1666
45.5158 12.1084
45.5641 12.0323
45.6126 11.9771
45.6609 11.9486
45.7094 11.8971
45.7577 11.8587
45.8063 11.7665
45.8546 11.763
45.9031 11.7345
45.9515 11.6814
46.0001 11.6578
46.0484 11.6181
46.097 11.5488
46.1454 11.5223
46.194 11.4918
46.2424 11.421
46.291 11.3719
46.3395 11.3678
46.3881 11.3002
46.4365 11.2463
46.4852 11.2642
46.5337 11.1968
46.5823 11.1775
46.631 11.1169
46.6795 11.053
46.7282 11.0349
46.7767 10.9968
46.8254 10.9607
46.8739 10.8905
46.9226 10.9031
46.9712 10.8554
47.0199 10.771
47.0685 10.7539
47.1173 10.711
47.1658 10.6415
47.2146 10.6316
47.2632 10.5557
47.312 10.5453
47.3606 10.5616
47.4095 10.4642
47.4581 10.4499
47.5069 10.3786
47.5556 10.3587
47.6044 10.3164
47.6531 10.3253
47.702 10.2427
47.7507 10.2268
47.7996 10.123
47.8483 10.1405
47.8972 10.0915
47.9461 10.0458
47.9948 10.0011
48.0438 10.0038
48.0925 9.95631
48.1415 9.91622
48.1902 9.8667
48.2392 9.87722
48.288 9.79582
48.337 9.78176
48.3858 9.71944
48.4348 9.73274
48.4837 9.70214
48.5327 9.66197
48.5815 9.60589
48.6306 9.57435
48.6795 9.53396
48.7285 9.48362
48.7774 9.41964
48.8265 9.45023
48.8754 9.35327
48.9245 9.32192
48.9734 9.30989
49.0226 9.30128
49.0715 9.2495
49.1206 9.18787
49.1696 9.16228
49.2188 9.14077
49.2679 9.09474
49.3169 9.04893
49.3661 9.01182
49.4151 8.99218
49.4643 9.00424
49.5134 8.90817
49.5626 8.8568
49.6117 8.85772
49.6609 8.82892
49.71 8.76505
49.7592 8.74549
49.8083 8.70376
49.8576 8.70609
49.9067 8.65727
49.956 8.64972
50.0052 8.60523
50.0545 8.56275
50.1036 8.51287
50.153 8.50464
50.2022 8.46878
50.2515 8.44027
50.3007 8.36439
50.3501 8.40073
50.3993 8.31388
50.4487 8.31497
50.498 8.2804
50.5474 8.24658
50.5966 8.14222
50.6461 8.20347
50.6955 8.14553
50.7448 8.11701
50.7943 8.09515
50.8436 8.01873
50.8931 8.01971
50.9424 8.00803
50.9919 7.98095
51.0413 7.91473
51.0908 7.88375
51.1402 7.85527
51.1897 7.81614
51.2391 7.80626
51.2887 7.75406
51.3381 7.7736
51.3877 7.71596
51.4371 7.65163
51.4867 7.62152
51.5362 7.63221
51.5858 7.55118
51.6353 7.50353
51.6849 7.51773
51.7344 7.48755
51.7841 7.46985
51.8336 7.42121
51.8833 7.41282
51.9328 7.32805
51.9826 7.33724
52.0323 7.26431
52.0818 7.25976
52.1316 7.23774
52.1812 7.18181
52.231 7.14998
52.2806 7.1316
52.3304 7.1074
52.38 7.1086
52.4298 7.05
52.4794 7.01239
52.5293 6.99575
52.5789 7.00967
52.6288 6.91171
52.6785 6.91262
52.7284 6.88011
52.7781 6.83466
52.828 6.79904
52.8777 6.79836
52.9276 6.77627
52.9774 6.70132
53.0273 6.74674
53.0771 6.67571
53.1271 6.64735
53.1769 6.62557
53.2269 6.60464
53.2767 6.55288
53.3267 6.55541
53.3765 6.48272
53.4266 6.47263
53.4766 6.50948
53.5265 6.41834
53.5765 6.442
53.6264 6.37973
53.6765 6.31444
53.7264 6.3395
53.7765 6.25892
53.8265 6.27753
53.8766 6.21006
53.9266 6.18646
53.9767 6.21339
54.0267 6.20222
54.0769 6.10441
54.1269 6.08892
54.1771 6.1213
54.2271 6.01873
54.2773 5.99736
54.3274 5.99562
54.3776 5.95541
54.4277 5.95912
54.478 5.88401
54.528 5.80878
54.5783 5.78309
54.6285 5.74532
54.6788 5.75233
54.7289 5.73068
54.7792 5.67968
54.8296 5.55728
54.8798 5.54395
54.9301 5.51349
54.9803 5.47294
55.0307 5.45842
55.0809 5.38151
55.1314 5.42686
55.1816 5.3161
55.232 5.32812
55.2823 5.22837
55.3328 5.19186
55.383 5.16034
55.4335 5.151
55.4838 5.01782
55.5344 4.96118
55.5847 4.93587
55.6352 4.90281
55.6856 4.90084
55.7361 4.88546