File: XRD/Ni3Fe_FD0680.xy
TT I
1.27165 7.34075
1.31627 6.55591
1.36089 6.90371
1.40551 6.88304
1.45013 5.90053
1.49476 6.07269
1.53938 5.9446
1.584 5.48971
1.62863 5.32556
1.67325 5.11869
1.71787 5.11339
1.7625 5.07655
1.80712 4.5613
1.85174 4.74228
1.89636 4.53053
1.94099 5.37397
1.98562 4.56022
2.03025 4.30868
2.07487 4.57454
2.11949 4.89756
2.16411 5.10579
2.20874 10.9322
2.25338 15.3328
2.298 5.70638
2.34263 5.09788
2.38725 6.24601
2.43188 5.51085
2.4765 7.13266
2.52115 6.60388
2.56577 8.13028
2.6104 8.67623
2.65503 8.05366
2.69965 8.21365
2.7443 7.81751
2.78893 7.60594
2.83356 8.83735
2.87818 8.47423
2.92281 8.94225
2.96744 9.26264
3.01209 10.0426
3.05672 11.3383
3.10135 12.3393
3.14599 13.133
3.19062 14.0316
3.23527 14.8351
3.2799 16.063
3.32454 16.833
3.36917 17.7378
3.4138 18.9101
3.45844 19.2111
3.50309 20.8538
3.54773 21.8583
3.59237 23.0582
3.637 66.4511
3.68164 44.3637
3.7263 25.5444
3.77094 25.8662
3.81558 27.0327
3.86022 27.3086
3.90486 28.834
3.9495 30.0305
3.99416 30.8636
4.0388 31.7226
4.08344 33.6491
4.12809 34.2533
4.17273 36.2261
4.21738 40.4837
4.26204 167.501
4.30669 143.555
4.35133 46.1292
4.39598 43.8256
4.44063 50.5604
4.4853 57.6978
4.52995 52.2208
4.5746 53.3094
4.61925 53.5738
4.6639 55.2986
4.70855 58.2363
4.75322 61.4605
4.79788 65.396
4.84253 67.8702
4.88719 72.5447
4.93184 76.1208
4.97652 80.7813
5.02118 87.8187
5.06583 95.7378
5.11049 107.181
5.15515 161.231
5.19981 406.993
5.24449 3030.01
5.28916 12605.9
5.33382 2732.46
5.37848 185.723
5.42315 128.508
5.46783 114.788
5.5125 107.304
5.55716 102.021
5.60183 98.424
5.6465 96.8763
5.69117 94.416
5.73586 92.4228
5.78053 93.9856
5.8252 93.1084
5.86988 94.6248
5.91455 95.1548
5.95924 104.999
6.00392 238.543
6.0486 1015.74
6.09328 4513.21
6.13795 3113.08
6.18263 217.373
6.22733 91.5415
6.27201 81.6241
6.3167 91.5602
6.36138 76.6616
6.40606 68.9206
6.45075 67.458
6.49545 65.3932
6.54014 63.3354
6.58483 62.7008
6.62952 62.5569
6.67421 81.0474
6.71892 109.863
6.76361 64.5671
6.8083 58.4852
6.853 57.9841
6.89769 56.7421
6.94239 56.413
6.98711 55.6604
7.03181 55.1973
7.07651 54.8796
7.12121 54.7015
7.16591 55.4128
7.21063 55.1206
7.25533 64.7053
7.30004 128.879
7.34475 76.5673
7.38945 55.1128
7.43416 54.1027
7.47889 53.9109
7.5236 54.507
7.56831 54.6447
7.61303 56.2436
7.65774 56.3723
7.70247 56.149
7.74719 56.1621
7.79191 56.5643
7.83663 56.9489
7.88135 57.7846
7.92607 58.5573
7.97081 59.5347
8.01553 60.6775
8.06026 62.0572
8.10498 63.7162
8.14971 70.8364
8.19446 70.4963
8.23919 69.2914
8.28392 71.9131
8.32865 74.3577
8.37339 78.574
8.41812 84.5263
8.46288 107.526
8.50761 183.15
8.55235 411.369
8.59709 1222.45
8.64183 2218.74
8.68658 874.163
8.73134 153.535
8.77609 98.469
8.82083 92.2453
8.86558 90.5895
8.91033 89.9666
8.9551 89.761
8.99985 85.0884
9.04461 83.9108
9.08936 83.5337
9.13412 82.0694
9.17888 82.0199
9.22365 82.6463
9.26841 82.0735
9.31318 83.3094
9.35794 83.8037
9.4027 84.0879
9.44749 84.0723
9.49226 84.6731
9.53703 85.4786
9.5818 87.7606
9.62657 92.0501
9.67134 96.3121
9.71614 92.9878
9.76091 94.2607
9.80569 96.9834
9.85047 100.369
9.89525 116.787
9.94005 131.119
9.98484 193.931
10.0296 366.592
10.0744 848.425
10.1192 1796.1
10.164 1558.29
10.2088 361.36
10.2536 122.508
10.2984 110.415
10.3432 110.346
10.388 104.813
10.4328 123.129
10.4776 166.781
10.5224 293.64
10.5672 511.134
10.612 494.497
10.6568 192.476
10.7017 94.8712
10.7465 86.2067
10.7913 83.0126
10.8361 81.0161
10.8809 78.7861
10.9257 77.7093
10.9706 77.9254
11.0154 74.6724
11.0602 72.7853
11.105 71.3206
11.1499 73.5867
11.1947 77.5806
11.2395 71.7831
11.2844 69.3998
11.3292 66.9159
11.374 65.8999
11.4189 65.4755
11.4637 64.8315
11.5086 64.7471
11.5534 66.4782
11.5983 64.5735
11.6431 63.3414
11.688 62.7693
11.7328 62.5751
11.7777 62.5483
11.8225 62.5778
11.8674 62.2734
11.9122 62.806
11.9571 62.8578
12.002 63.8759
12.0468 69.0917
12.0917 79.8287
12.1366 104.793
12.1814 155.688
12.2263 206.22
12.2712 159.6
12.3161 90.0172
12.3609 68.0611
12.4058 64.2531
12.4507 64.0927
12.4956 64.1709
12.5405 64.4128
12.5853 65.2321
12.6302 70.2622
12.6751 73.4545
12.72 68.6466
12.7649 67.7324
12.8098 68.1901
12.8547 69.7557
12.8996 71.1761
12.9445 72.5391
12.9894 74.1492
13.0343 76.1241
13.0792 79.8869
13.1242 91.9288
13.1691 114.857
13.214 152.961
13.2589 249.632
13.3038 380.116
13.3487 418.825
13.3937 249.519
13.4386 120.246
13.4835 107.742
13.5285 123.551
13.5734 163.377
13.6183 254.937
13.6633 354.763
13.7082 323.507
13.7531 169.593
13.7981 93.4105
13.843 81.2761
13.888 79.4309
13.9329 76.9422
13.9779 75.4421
14.0228 74.1027
14.0678 73.0297
14.1127 72.6337
14.1577 71.9593
14.2027 71.2486
14.2476 70.1585
14.2926 70.2413
14.3376 70.7258
14.3825 69.7822
14.4275 68.8636
14.4725 68.7061
14.5175 69.1056
14.5624 68.863
14.6074 70.4374
14.6524 70.8329
14.6974 70.2681
14.7424 73.2922
14.7874 80.5193
14.8324 90.4649
14.8774 113.187
14.9224 157.798
14.9674 211.02
15.0124 215.984
15.0574 140.494
15.1024 87.1509
15.1474 71.6879
15.1924 70.1204
15.2374 70.0152
15.2824 69.2325
15.3274 67.556
15.3725 66.6531
15.4175 66.3087
15.4625 65.9808
15.5076 65.8831
15.5526 65.9015
15.5976 65.8616
15.6426 67.724
15.6877 73.5041
15.7327 81.0352
15.7778 96.5518
15.8228 129.776
15.8679 175.225
15.9129 195.179
15.958 150.122
16.003 91.6142
16.0481 66.5582
16.0931 63.2472
16.1382 61.8913
16.1833 60.0528
16.2283 58.7975
16.2734 58.1698
16.3185 57.9779
16.3636 57.9147
16.4086 57.03
16.4537 56.1192
16.4988 55.3192
16.5439 55.3179
16.589 55.2702
16.6341 54.6723
16.6792 54.4466
16.7243 54.7643
16.7694 54.753
16.8145 54.5229
16.8596 55.0272
16.9047 55.8912
16.9498 56.2219
16.9949 55.4169
17.04 55.9739
17.0851 57.1248
17.1302 58.9192
17.1754 61.882
17.2205 67.295
17.2656 75.4083
17.3108 83.5388
17.3559 81.3937
17.401 69.756
17.4462 61.2952
17.4913 59.1059
17.5365 58.9696
17.5815 59.0753
17.6268 59.4952
17.6718 59.9876
17.7171 60.5319
17.7622 61.1764
17.8074 62.3387
17.8525 64.9275
17.8977 68.9567
17.9428 74.4939
17.9881 83.8799
18.0331 101.986
18.0784 124.207
18.1237 142.723
18.1688 130.817
18.214 100.941
18.2591 85.7299
18.3044 91.3457
18.3495 101.05
18.3948 105.96
18.4399 94.4729
18.4852 75.4184
18.5303 65.1331
18.5756 61.9118
18.6207 61.0719
18.666 60.288
18.7112 59.3707
18.7565 58.8468
18.8016 58.6168
18.8469 57.7805
18.892 57.7923
18.9374 56.9386
18.9825 56.9729
19.0278 56.4488
19.073 56.8987
19.1183 57.3403
19.1635 57.9224
19.2088 59.3201
19.254 62.4269
19.2993 67.4093
19.3447 73.2402
19.3898 76.248
19.4352 71.0464
19.4804 62.2941
19.5257 56.2042
19.5709 54.1096
19.6163 53.806
19.6615 53.7394
19.7068 53.2875
19.752 53.2922
19.7974 53.5704
19.8426 54.441
19.888 55.0892
19.9332 56.3798
19.9786 59.1803
20.0238 63.0121
20.0692 67.8512
20.1144 69.9218
20.1598 67.6984
20.205 62.8552
20.2504 62.1013
20.2957 64.3792
20.3411 65.4728
20.3863 63.1613
20.4318 57.4975
20.477 52.9863
20.5224 51.2713
20.5677 50.6419
20.6131 50.2219
20.6586 49.3587
20.7038 49.3779
20.7493 49.1466
20.7945 48.8215
20.84 48.7205
20.8853 48.7173
20.9307 48.3251
20.976 48.6184
21.0215 48.625
21.0668 48.9712
21.1122 49.5265
21.1575 50.0367
21.203 50.8791
21.2483 51.1759
21.2938 51.4282
21.3391 49.7862
21.3846 48.897
21.4299 48.3514
21.4754 48.5392
21.5207 48.5161
21.5662 48.8777
21.6116 49.2202
21.6571 49.9731
21.7024 50.9229
21.7479 52.8001
21.7933 55.7731
21.8388 59.4242
21.8843 63.1917
21.9297 64.6908
21.9752 62.7415
22.0206 58.7449
22.0661 56.3689
22.1115 56.1725
22.157 55.8814
22.2024 53.8557
22.248 51.0455
22.2933 49.5491
22.3389 49.0527
22.3843 48.8593
22.4299 48.6955
22.4753 48.7848
22.5208 48.4546
22.5662 48.4411
22.6118 48.7818
22.6572 49.0528
22.7028 49.437
22.7483 49.7978
22.7939 50.5144
22.8393 52.2986
22.8849 54.2948
22.9303 56.3109
22.9759 58.0765
23.0214 57.2236
23.067 54.0475
23.1126 50.7334
23.1581 49.0255
23.2037 48.61
23.2492 48.9057
23.2948 48.8283
23.3403 49.1641
23.3859 49.7036
23.4314 51.0497
23.477 52.9973
23.5225 54.991
23.5682 57.409
23.6137 57.6645
23.6593 55.1568
23.7048 50.7591
23.7505 47.8255
23.796 46.3689
23.8417 45.8413
23.8872 45.6162
23.9329 45.1907
23.9784 44.7736
24.0241 44.5334
24.0697 44.4348
24.1154 44.1403
24.1609 43.8741
24.2066 43.6894
24.2522 43.6876
24.2979 43.1722
24.3434 43.2455
24.3892 43.2415
24.4349 43.0961
24.4805 42.8615
24.5262 43.1598
24.5718 42.9038
24.6175 42.8632
24.6631 42.6792
24.7089 42.4625
24.7545 42.3287
24.8002 42.1806
24.8458 42.2236
24.8916 42.0788
24.9372 42.2004
24.983 42.5538
25.0286 42.9711
25.0744 43.3718
25.12 43.8165
25.1658 44.329
25.2114 44.6515
25.2572 44.775
25.3029 44.7098
25.3487 44.9471
25.3943 44.5026
25.4402 43.3354
25.4858 42.1983
25.5316 41.3768
25.5773 40.8475
25.6231 40.8301
25.669 40.5145
25.7147 40.5574
25.7605 40.4604
25.8062 40.4843
25.8521 40.5784
25.8977 40.4358
25.9436 40.8762
25.9893 40.9766
26.0352 41.5764
26.0809 41.6334
26.1268 41.6475
26.1725 41.3308
26.2184 40.6315
26.2641 40.1948
26.31 39.9106
26.3557 40.0434
26.4017 39.996
26.4474 40.3249
26.4933 40.7857
26.5391 41.3386
26.585 41.724
26.6308 42.1619
26.6767 42.1412
26.7225 41.8887
26.7684 41.2605
26.8142 40.701
26.8601 40.3596
26.9059 39.9513
26.9519 39.4001
26.9979 39.1722
27.0437 38.6997
27.0896 38.6385
27.1354 38.7639
27.1814 38.6522
27.2272 38.4357
27.2732 38.4878
27.3191 38.2586
27.3651 38.4775
27.4109 38.408
27.4569 38.5297
27.5027 38.4468
27.5488 38.5984
27.5946 38.2506
27.6407 38.079
27.6865 38.1029
27.7326 37.7466
27.7784 37.8187
27.8245 37.765
27.8703 38.0461
27.9164 38.3155
27.9623 38.4013
28.0084 38.9063
28.0543 39.0372
28.1003 38.9113
28.1462 38.7464
28.1923 38.3586
28.2384 37.8201
28.2843 37.5965
28.3304 37.0877
28.3764 36.6406
28.4225 36.2215
28.4684 36.2099
28.5145 35.8753
28.5605 35.8802
28.6066 35.7
28.6526 35.5619
28.6987 35.5674
28.7447 35.5042
28.7908 35.4286
28.8368 35.3131
28.8829 35.3463
28.9289 35.265
28.9751 35.0283
29.0211 34.8516
29.0673 34.6034
29.1133 34.5071
29.1595 34.4776
29.2055 34.3581
29.2517 34.3669
29.2977 34.2594
29.3439 34.2917
29.3899 34.1946
29.4361 34.0773
29.4824 33.8864
29.5284 33.6724
29.5746 33.3362
29.6207 33.1276
29.6669 33.0658
29.713 32.8802
29.7593 32.7986
29.8053 32.8088
29.8516 32.696
29.8977 32.7769
29.9439 32.7207
29.99 32.5979
30.0363 32.4129
30.0824 32.4374
30.1287 32.4138
30.1748 32.4338
30.2211 32.3751
30.2673 32.1338
30.3136 32.2493
30.3597 32.26
30.406 32.2124
30.4522 32.0207
30.4985 31.9542
30.5447 32.1479
30.591 32.0751
30.6372 32.2776
30.6835 32.2487
30.7297 32.1067
30.7761 32.1228
30.8224 31.9354
30.8686 31.7821
30.915 31.5906
30.9612 31.4104
31.0076 31.3125
31.0538 31.2229
31.1002 31.0972
31.1464 30.9558
31.1928 30.8191
31.2391 31.0512
31.2855 30.795
31.3317 30.7557
31.3781 30.9205
31.4244 30.9065
31.4708 30.7755
31.5171 30.8794
31.5636 30.686
31.6098 30.4109
31.6563 30.3104
31.7026 30.3056
31.7491 30.1413
31.7953 30.1306
31.8418 30.1872
31.8881 30.0654
31.9346 30.1001
31.9809 29.9728
32.0275 29.8357
32.074 29.8085
32.1203 29.5939
32.1668 29.4402
32.2132 29.2238
32.2597 29.2398
32.306 29.1678
32.3526 28.8939
32.399 28.9244
32.4455 28.7453
32.4919 28.6249
32.5385 28.6084
32.5848 28.5064
32.6314 28.4143
32.6778 28.3668
32.7244 28.2607
32.7708 28.11
32.8174 28.09
32.8638 28.0161
32.9104 28.0137
32.9569 28.0
33.0035 27.8385
33.0499 27.8641
33.0966 27.7277
33.143 27.7594
33.1897 27.6685
33.2361 27.5786
33.2828 27.5261
33.3293 27.3708
33.3759 27.3305
33.4226 27.1371
33.4691 27.039
33.5158 26.8902
33.5623 26.8124
33.609 26.7125
33.6555 26.6531
33.7022 26.5479
33.7487 26.4491
33.7954 26.4093
33.842 26.3757
33.8887 26.2885
33.9353 26.2707
33.982 26.0702
34.0286 26.0662
34.0753 25.9248
34.1219 25.8734
34.1687 25.7751
34.2152 25.7429
34.262 25.5625
34.3086 25.5205
34.3554 25.5283
34.402 25.3524
34.4488 25.2564
34.4954 25.2353
34.5422 25.1854
34.5889 24.9954
34.6357 24.9253
34.6825 24.9229
34.7292 24.758
34.776 24.7254
34.8227 24.6743
34.8695 24.6454
34.9162 24.5306
34.9631 24.3989
35.0098 24.4182
35.0566 24.3157
35.1033 24.307
35.1502 24.1947
35.1969 24.2567
35.2438 24.1172
35.2906 24.0925
35.3375 24.0308
35.3842 23.9562
35.4311 23.9057
35.4779 23.8846
35.5248 23.8625
35.5716 23.7541
35.6185 23.5633
35.6653 23.6142
35.7123 23.4651
35.759 23.4282
35.806 23.4002
35.8528 23.2628
35.8998 23.1883
35.9468 23.0983
35.9936 23.1078
36.0406 23.0242
36.0874 22.976
36.1345 22.8615
36.1813 22.7387
36.2283 22.7006
36.2752 22.6312
36.3222 22.6341
36.3691 22.5542
36.4161 22.3896
36.463 22.4686
36.5101 22.4215
36.557 22.3167
36.6041 22.0683
36.651 22.1664
36.6981 22.0553
36.745 22.0659
36.7921 22.0082
36.839 21.8047
36.8861 21.7795
36.9331 21.6768
36.9802 21.6517
37.0272 21.5619
37.0743 21.4673
37.1213 21.4227
37.1684 21.4435
37.2154 21.3289
37.2626 21.2873
37.3098 21.1735
37.3568 21.1124
37.404 21.0622
37.451 20.9506
37.4982 20.917
37.5452 20.8142
37.5924 20.7415
37.6395 20.8067
37.6867 20.6655
37.7337 20.5685
37.781 20.4804
37.8281 20.4822
37.8753 20.3689
37.9224 20.3028
37.9697 20.2483
38.0168 20.1745
38.064 20.1384
38.1111 20.1124
38.1584 20.0183
38.2056 19.9427
38.2529 19.8521
38.3 19.8188
38.3473 19.8002
38.3945 19.5831
38.4418 19.6681
38.489 19.566
38.5363 19.4819
38.5837 19.3788
38.6309 19.3597
38.6782 19.3161
38.7254 19.2198
38.7728 19.2634
38.82 19.0109
38.8674 19.0578
38.9146 19.031
38.9621 18.9108
39.0093 18.934
39.0567 18.8185
39.104 18.7551
39.1514 18.724
39.1987 18.669
39.2461 18.6024
39.2934 18.5311
39.3409 18.4371
39.3882 18.3828
39.4356 18.373
39.483 18.3324
39.5304 18.2062
39.5778 18.1877
39.6253 18.1459
39.6726 18.0153
39.7201 18.0495
39.7675 17.9829
39.815 17.9941
39.8624 17.8051
39.9099 17.8491
39.9575 17.6874
40.0049 17.6469
40.0525 17.5466
40.0999 17.5862
40.1474 17.4511
40.1949 17.4367
40.2425 17.3628
40.2899 17.3659
40.3375 17.3094
40.385 17.2209
40.4326 17.2105
40.48 17.0864
40.5277 17.0936
40.5752 17.0119
40.6228 16.9381
40.6703 16.9095
40.718 16.8532
40.7655 16.8308
40.8132 16.7504
40.8607 16.718
40.9084 16.6723
40.9559 16.5643
41.0036 16.6073
41.0512 16.477
41.0989 16.4369
41.1465 16.4046
41.1942 16.3241
41.242 16.2219
41.2896 16.1965
41.3373 16.1204
41.3849 16.0395
41.4327 15.9817
41.4803 15.9151
41.5281 15.9485
41.5758 15.8515
41.6236 15.8116
41.6712 15.7169
41.7191 15.6642
41.7667 15.6835
41.8146 15.6374
41.8622 15.5366
41.9101 15.513
41.9578 15.3579
42.0057 15.3787
42.0534 15.3459
42.1013 15.3126
42.149 15.178
42.1969 15.22
42.2446 15.1647
42.2925 15.0797
42.3403 15.0129
42.3882 15.0583
42.436 14.9458
42.4839 14.8411
42.5319 14.8361
42.5797 14.8087
42.6277 14.7526
42.6755 14.7024
42.7235 14.6504
42.7713 14.5829
42.8193 14.5542
42.8671 14.5365
42.9152 14.459
42.963 14.4153
43.0111 14.3471
43.0589 14.2996
43.107 14.2736
43.1549 14.2181
43.2029 14.1564
43.2508 14.1518
43.2989 14.0209
43.3468 13.9956
43.3949 13.9571
43.4429 13.9685
43.491 13.8489
43.5389 13.7714
43.5871 13.793
43.635 13.6837
43.6832 13.6693
43.7312 13.6329
43.7793 13.5578
43.8273 13.5344
43.8755 13.4631
43.9237 13.4385
43.9717 13.3961
44.0199 13.3937
44.068 13.3879
44.1162 13.2673
44.1642 13.2254
44.2125 13.1665
44.2606 13.1485
44.3088 13.0323
44.3569 13.0231
44.4052 12.9882
44.4533 12.9259
44.5016 12.8616
44.5497 12.8498
44.598 12.7978
44.6461 12.7537
44.6945 12.7303
44.7426 12.6762
44.791 12.582
44.8391 12.5608
44.8875 12.535
44.9357 12.479
44.984 12.4382
45.0322 12.3954
45.0806 12.351
45.1288 12.2717
45.1773 12.2321
45.2257 12.1924
45.2739 12.1855
45.3224 12.1606
45.3706 12.1075
45.4191 12.061
45.4673 12.0388
45.5158 11.9868
45.5641 11.9153
45.6126 11.8936
45.6609 11.7968
45.7094 11.7968
45.7577 11.7614
45.8063 11.6706
45.8546 11.6917
45.9031 11.5867
45.9515 11.5776
46.0001 11.5583
46.0484 11.5242
46.097 11.5298
46.1454 11.4556
46.194 11.4016
46.2424 11.3599
46.291 11.3305
46.3395 11.2812
46.3881 11.2141
46.4365 11.1668
46.4852 11.1341
46.5337 11.1191
46.5823 11.0575
46.631 11.017
46.6795 10.97
46.7282 10.9798
46.7767 10.9575
46.8254 10.8247
46.8739 10.8427
46.9226 10.7746
46.9712 10.743
47.0199 10.6497
47.0685 10.6744
47.1173 10.5879
47.1658 10.589
47.2146 10.5039
47.2632 10.5035
47.312 10.4581
47.3606 10.424
47.4095 10.3412
47.4581 10.3601
47.5069 10.3089
47.5556 10.2644
47.6044 10.235
47.6531 10.2045
47.702 10.1403
47.7507 10.1055
47.7996 10.0674
47.8483 10.0472
47.8972 10.0216
47.9461 9.94145
47.9948 9.94525
48.0438 9.90172
48.0925 9.88859
48.1415 9.81056
48.1902 9.75528
48.2392 9.76337
48.288 9.69386
48.337 9.71637
48.3858 9.65968
48.4348 9.62662
48.4837 9.59962
48.5327 9.56254
48.5815 9.50799
48.6306 9.48073
48.6795 9.44439
48.7285 9.4188
48.7774 9.37058
48.8265 9.33204
48.8754 9.30963
48.9245 9.31669
48.9734 9.26862
49.0226 9.20107
49.0715 9.17717
49.1206 9.12091
49.1696 9.09115
49.2188 9.04715
49.2679 9.00488
49.3169 8.9908
49.3661 8.95185
49.4151 8.92853
49.4643 8.88892
49.5134 8.83641
49.5626 8.79763
49.6117 8.81072
49.6609 8.74579
49.71 8.71794
49.7592 8.68261
49.8083 8.66568
49.8576 8.61949
49.9067 8.56609
49.956 8.57498
50.0052 8.51149
50.0545 8.51189
50.1036 8.43062
50.153 8.4211
50.2022 8.38465
50.2515 8.37127
50.3007 8.28487
50.3501 8.28908
50.3993 8.26465
50.4487 8.28006
50.498 8.20704
50.5474 8.17013
50.5966 8.13194
50.6461 8.11124
50.6955 8.05837
50.7448 8.0247
50.7943 8.00994
50.8436 7.95231
50.8931 7.93811
50.9424 7.91987
50.9919 7.88772
51.0413 7.8565
51.0908 7.83617
51.1402 7.79582
51.1897 7.73484
51.2391 7.73953
51.2887 7.66994
51.3381 7.65923
51.3877 7.61898
51.4371 7.59413
51.4867 7.57018
51.5362 7.52773
51.5858 7.48908
51.6353 7.4583
51.6849 7.37837
51.7344 7.40992
51.7841 7.41176
51.8336 7.3151
51.8833 7.32553
51.9328 7.27787
51.9826 7.23777
52.0323 7.21983
52.0818 7.20689
52.1316 7.16602
52.1812 7.11417
52.231 7.15347
52.2806 7.03477
52.3304 7.07176
52.38 7.02646
52.4298 6.98589
52.4794 6.96638
52.5293 6.93276
52.5789 6.90544
52.6288 6.89547
52.6785 6.86352
52.7284 6.83193
52.7781 6.80448
52.828 6.79244
52.8777 6.74267
52.9276 6.68025
52.9774 6.68598
53.0273 6.67441
53.0771 6.61735
53.1271 6.62421
53.1769 6.55326
53.2269 6.55589
53.2767 6.52774
53.3267 6.47433
53.3765 6.43144
53.4266 6.44152
53.4766 6.42345
53.5265 6.38166
53.5765 6.3547
53.6264 6.31243
53.6765 6.28796
53.7264 6.28269
53.7765 6.25875
53.8265 6.17513
53.8766 6.18087
53.9266 6.18484
53.9767 6.12709
54.0267 6.11448
54.0769 6.0895
54.1269 6.03182
54.1771 5.9726
54.2271 5.9518
54.2773 5.97535
54.3274 5.93249
54.3776 5.88688
54.4277 5.85005
54.478 5.85889
54.528 5.77185
54.5783 5.77075
54.6285 5.70287
54.6788 5.68464
54.7289 5.6594
54.7792 5.60279
54.8296 5.52853
54.8798 5.49112
54.9301 5.47576
54.9803 5.42871
55.0307 5.4283
55.0809 5.40103
55.1314 5.31955
55.1816 5.27936
55.232 5.20299
55.2823 5.21811
55.3328 5.11266
55.383 5.0646
55.4335 5.05015
55.4838 4.99473
55.5344 4.97513
55.5847 4.88396
55.6352 4.90153
55.6856 4.83447
55.7361 4.84374