File: XRD/Ni3Fe_FD0018.xy
TT I
1.27165 35.5443
1.31627 34.8502
1.36089 34.5196
1.40551 30.2056
1.45013 31.2377
1.49476 30.4828
1.53938 28.7114
1.584 28.458
1.62863 27.2357
1.67325 26.1223
1.71787 25.9268
1.7625 25.8553
1.80712 25.5768
1.85174 24.9481
1.89636 24.6405
1.94099 24.9461
1.98562 24.7531
2.03025 24.7061
2.07487 24.8646
2.11949 25.0987
2.16411 25.2933
2.20874 26.2518
2.25338 26.3265
2.298 26.3203
2.34263 25.8439
2.38725 26.0963
2.43188 25.3105
2.4765 25.7932
2.52115 26.1713
2.56577 26.2857
2.6104 27.1829
2.65503 27.0873
2.69965 28.3121
2.7443 30.5978
2.78893 33.4046
2.83356 35.7223
2.87818 39.2967
2.92281 43.2835
2.96744 48.9517
3.01209 57.5933
3.05672 65.6162
3.10135 76.3556
3.14599 82.8658
3.19062 83.6967
3.23527 78.0774
3.2799 67.6857
3.32454 57.3365
3.36917 49.0432
3.4138 42.8449
3.45844 39.8175
3.50309 38.7436
3.54773 38.0671
3.59237 38.9627
3.637 39.8952
3.68164 40.7328
3.7263 41.1743
3.77094 40.4271
3.81558 39.7502
3.86022 38.9768
3.90486 40.4444
3.9495 41.8148
3.99416 42.4268
4.0388 44.9824
4.08344 48.7797
4.12809 52.9338
4.17273 59.2464
4.21738 66.8248
4.26204 75.2068
4.30669 80.6257
4.35133 80.3437
4.39598 74.2774
4.44063 68.1687
4.4853 63.7429
4.52995 59.2906
4.5746 54.8948
4.61925 52.1271
4.6639 49.8588
4.70855 49.8232
4.75322 50.859
4.79788 52.3224
4.84253 55.7252
4.88719 59.7241
4.93184 65.065
4.97652 74.0296
5.02118 87.8744
5.06583 111.598
5.11049 133.79
5.15515 173.867
5.19981 260.721
5.24449 524.073
5.28916 1089.55
5.33382 2947.78
5.37848 3933.61
5.42315 1301.92
5.46783 390.376
5.5125 219.561
5.55716 159.113
5.60183 127.238
5.6465 113.135
5.69117 105.962
5.73586 100.089
5.78053 95.4545
5.8252 95.8562
5.86988 100.431
5.91455 109.233
5.95924 126.265
6.00392 166.444
6.0486 256.943
6.09328 434.69
6.13795 762.983
6.18263 1293.22
6.22733 825.183
6.27201 332.953
6.3167 173.32
6.36138 111.92
6.40606 85.3577
6.45075 73.0498
6.49545 64.6094
6.54014 59.8214
6.58483 56.6059
6.62952 55.1815
6.67421 54.3765
6.71892 54.3252
6.76361 54.0257
6.8083 52.3964
6.853 50.8236
6.89769 49.2009
6.94239 47.678
6.98711 46.4472
7.03181 46.5274
7.07651 46.4948
7.12121 47.628
7.16591 49.0743
7.21063 51.4678
7.25533 54.9841
7.30004 62.3386
7.34475 68.9802
7.38945 69.7578
7.43416 64.1916
7.47889 59.3982
7.5236 60.9685
7.56831 95.6507
7.61303 160.889
7.65774 86.3398
7.70247 48.5932
7.74719 42.3555
7.79191 40.0481
7.83663 39.1822
7.88135 38.4792
7.92607 38.4123
7.97081 38.8667
8.01553 38.8435
8.06026 39.7185
8.10498 40.5402
8.14971 41.3984
8.19446 42.6966
8.23919 44.4125
8.28392 46.159
8.32865 47.894
8.37339 51.261
8.41812 55.6768
8.46288 62.8419
8.50761 74.3443
8.55235 97.9409
8.59709 150.456
8.64183 206.851
8.68658 348.391
8.73134 706.013
8.77609 704.304
8.82083 314.094
8.86558 146.122
8.91033 98.1708
8.9551 78.6791
8.99985 69.8847
9.04461 64.1829
9.08936 61.1139
9.13412 58.683
9.17888 59.4454
9.22365 66.4564
9.26841 115.174
9.31318 249.572
9.35794 172.017
9.4027 72.9969
9.44749 56.522
9.49226 52.6058
9.53703 51.1572
9.5818 50.7422
9.62657 50.8987
9.67134 51.6621
9.71614 52.9244
9.76091 53.8485
9.80569 55.6213
9.85047 57.897
9.89525 61.6825
9.94005 66.8434
9.98484 75.9647
10.0296 94.0082
10.0744 130.904
10.1192 176.094
10.164 228.195
10.2088 440.843
10.2536 800.251
10.2984 633.863
10.3432 281.276
10.388 139.6
10.4328 97.8745
10.4776 83.5985
10.5224 83.7809
10.5672 90.0776
10.612 97.2065
10.6568 140.688
10.7017 257.63
10.7465 285.09
10.7913 164.0
10.8361 79.7262
10.8809 56.0645
10.9257 48.7615
10.9706 45.8397
11.0154 43.8745
11.0602 43.0723
11.105 42.1755
11.1499 41.326
11.1947 41.0153
11.2395 40.7117
11.2844 40.5444
11.3292 40.0628
11.374 39.5005
11.4189 39.1207
11.4637 38.4206
11.5086 37.634
11.5534 37.5621
11.5983 37.1738
11.6431 37.368
11.688 36.9247
11.7328 36.8172
11.7777 36.9045
11.8225 36.9434
11.8674 37.4039
11.9122 39.0907
11.9571 45.0338
12.002 70.049
12.0468 93.9779
12.0917 66.5339
12.1366 47.5178
12.1814 46.4719
12.2263 48.3583
12.2712 53.5997
12.3161 67.449
12.3609 91.7887
12.4058 94.8568
12.4507 69.8923
12.4956 52.8125
12.5405 45.1431
12.5853 41.9109
12.6302 40.4575
12.6751 39.7713
12.72 39.6851
12.7649 40.211
12.8098 39.8789
12.8547 39.8509
12.8996 39.5684
12.9445 39.4625
12.9894 40.027
13.0343 40.3927
13.0792 42.0126
13.1242 45.3615
13.1691 55.1785
13.214 61.6953
13.2589 62.3192
13.3038 67.0181
13.3487 72.154
13.3937 89.303
13.4386 136.053
13.4835 214.038
13.5285 212.896
13.5734 138.371
13.6183 95.9236
13.6633 82.7317
13.7082 80.2042
13.7531 94.5185
13.7981 145.85
13.843 213.645
13.888 179.985
13.9329 100.641
13.9779 64.7328
14.0228 52.1691
14.0678 46.4154
14.1127 44.8311
14.1577 46.7538
14.2027 62.5953
14.2476 86.4924
14.2926 74.8554
14.3376 49.1379
14.3825 40.6494
14.4275 38.7036
14.4725 37.7594
14.5175 37.2993
14.5624 36.8719
14.6074 36.5758
14.6524 37.0336
14.6974 37.342
14.7424 37.6015
14.7874 38.1051
14.8324 39.5783
14.8774 42.168
14.9224 45.861
14.9674 48.783
15.0124 50.9199
15.0574 57.6848
15.1024 75.8371
15.1474 113.046
15.1924 131.652
15.2374 100.985
15.2824 67.2311
15.3274 50.5165
15.3725 43.8809
15.4175 41.0496
15.4625 39.4066
15.5076 38.4634
15.5526 37.9428
15.5976 37.8322
15.6426 37.6913
15.6877 37.8911
15.7327 38.7239
15.7778 40.4516
15.8228 43.4114
15.8679 46.4814
15.9129 47.7631
15.958 52.3852
16.003 63.601
16.0481 90.6843
16.0931 125.215
16.1382 125.992
16.1833 93.8395
16.2283 62.73
16.2734 46.5532
16.3185 39.9266
16.3636 36.8951
16.4086 35.1152
16.4537 34.0998
16.4988 33.2401
16.5439 32.8794
16.589 32.4421
16.6341 31.9114
16.6792 31.4413
16.7243 31.4999
16.7694 31.222
16.8145 31.1803
16.8596 31.3829
16.9047 31.6081
16.9498 32.3859
16.9949 35.0061
17.04 39.3349
17.0851 38.9083
17.1302 34.8485
17.1754 32.9862
17.2205 33.1049
17.2656 33.4743
17.3108 34.0494
17.3559 34.3258
17.401 35.6034
17.4462 38.7633
17.4913 45.2976
17.5365 51.9747
17.5815 49.7011
17.6268 41.7386
17.6718 36.9924
17.7171 35.0229
17.7622 34.7229
17.8074 35.7467
17.8525 39.3216
17.8977 42.1559
17.9428 40.4869
17.9881 38.5911
18.0331 39.9631
18.0784 41.5974
18.1237 42.4079
18.1688 44.1218
18.214 49.4298
18.2591 61.3547
18.3044 85.1614
18.3495 105.126
18.3948 94.2901
18.4399 69.775
18.4852 57.4249
18.5303 58.0952
18.5756 68.4465
18.6207 77.3024
18.666 69.1951
18.7112 54.8738
18.7565 43.8077
18.8016 38.5765
18.8469 36.1386
18.892 34.8922
18.9374 34.0093
18.9825 33.6367
19.0278 33.1168
19.073 32.8206
19.1183 32.6943
19.1635 32.6194
19.2088 33.0276
19.254 33.5481
19.2993 34.4831
19.3447 35.6006
19.3898 38.706
19.4352 44.7842
19.4804 47.9786
19.5257 46.0721
19.5709 45.9911
19.6163 49.9986
19.6615 48.29
19.7068 41.6971
19.752 36.57
19.7974 33.8562
19.8426 32.5411
19.888 31.7452
19.9332 31.5023
19.9786 31.6749
20.0238 31.8866
20.0692 32.1582
20.1144 32.1801
20.1598 32.6751
20.205 33.8589
20.2504 36.5206
20.2957 41.1876
20.3411 46.7584
20.3863 47.6231
20.4318 42.749
20.477 39.1872
20.5224 40.0171
20.5677 44.3375
20.6131 45.2806
20.6586 40.5667
20.7038 35.1943
20.7493 32.0515
20.7945 31.0988
20.84 31.3273
20.8853 33.0104
20.9307 33.6781
20.976 32.0783
21.0215 29.6778
21.0668 28.6542
21.1122 28.4723
21.1575 28.4122
21.203 28.3118
21.2483 28.2102
21.2938 28.3355
21.3391 28.3288
21.3846 28.5807
21.4299 29.3289
21.4754 30.9837
21.5207 32.4991
21.5662 32.3645
21.6116 31.2645
21.6571 29.9158
21.7024 29.2326
21.7479 29.2698
21.7933 29.6386
21.8388 30.1234
21.8843 30.5748
21.9297 30.6192
21.9752 31.4779
22.0206 33.1566
22.0661 35.331
22.1115 39.5596
22.157 45.8096
22.2024 49.9276
22.248 48.2919
22.2933 44.218
22.3389 41.1939
22.3843 40.2024
22.4299 39.2992
22.4753 36.6044
22.5208 33.3495
22.5662 31.3591
22.6118 30.517
22.6572 29.9517
22.7028 29.5916
22.7483 29.3995
22.7939 29.4875
22.8393 30.0894
22.8849 30.9963
22.9303 31.8397
22.9759 31.8982
23.0214 30.9862
23.067 31.0708
23.1126 31.9477
23.1581 33.9396
23.2037 37.8315
23.2492 42.3732
23.2948 43.1235
23.3403 39.0311
23.3859 34.5999
23.4314 32.4191
23.477 32.4397
23.5225 33.383
23.5682 34.3204
23.6137 34.142
23.6593 32.8072
23.7048 32.5114
23.7505 33.5242
23.796 36.2428
23.8417 41.3942
23.8872 45.1626
23.9329 43.8061
23.9784 37.9795
24.0241 33.1716
24.0697 30.5687
24.1154 29.2973
24.1609 28.8776
24.2066 28.5599
24.2522 28.0008
24.2979 27.2157
24.3434 26.7475
24.3892 26.589
24.4349 26.2937
24.4805 26.1203
24.5262 26.1901
24.5718 25.9473
24.6175 25.9753
24.6631 25.9978
24.7089 26.4066
24.7545 27.0008
24.8002 27.6591
24.8458 27.7027
24.8916 27.0484
24.9372 26.4508
24.983 26.2973
25.0286 25.7799
25.0744 25.8838
25.12 25.7295
25.1658 25.8905
25.2114 26.0523
25.2572 26.2331
25.3029 26.7685
25.3487 27.4501
25.3943 28.3498
25.4402 29.4142
25.4858 30.372
25.5316 30.3474
25.5773 30.3652
25.6231 31.5738
25.669 32.37
25.7147 31.8196
25.7605 29.5393
25.8062 27.6999
25.8521 26.5922
25.8977 26.302
25.9436 26.7004
25.9893 26.7186
26.0352 26.3271
26.0809 25.6104
26.1268 25.3351
26.1725 25.3434
26.2184 25.4079
26.2641 25.653
26.31 26.2519
26.3557 27.2205
26.4017 28.2926
26.4474 28.927
26.4933 28.2001
26.5391 27.2854
26.585 26.4764
26.6308 25.954
26.6767 25.6598
26.7225 25.7318
26.7684 26.0218
26.8142 26.3087
26.8601 27.0458
26.9059 28.3055
26.9519 29.9938
26.9979 31.2059
27.0437 31.1164
27.0896 30.3678
27.1354 29.7774
27.1814 28.4834
27.2272 27.3584
27.2732 26.2033
27.3191 25.3538
27.3651 24.8945
27.4109 24.6252
27.4569 24.5129
27.5027 24.3615
27.5488 24.318
27.5946 24.3574
27.6407 24.5364
27.6865 24.5444
27.7326 24.4716
27.7784 24.7415
27.8245 25.0132
27.8703 25.592
27.9164 25.7405
27.9623 25.3067
28.0084 24.9509
28.0543 24.8194
28.1003 25.0023
28.1462 25.5532
28.1923 25.9108
28.2384 25.9781
28.2843 26.0986
28.3304 26.8192
28.3764 28.0339
28.4225 29.0896
28.4684 28.7474
28.5145 27.7132
28.5605 27.3365
28.6066 26.8141
28.6526 26.127
28.6987 25.3045
28.7447 24.4369
28.7908 23.7146
28.8368 23.2512
28.8829 22.9805
28.9289 22.702
28.9751 22.6211
29.0211 22.5163
29.0673 22.501
29.1133 22.5589
29.1595 22.6546
29.2055 23.0068
29.2517 23.3401
29.2977 23.3046
29.3439 22.907
29.3899 22.5459
29.4361 22.1404
29.4824 21.8869
29.5284 21.7983
29.5746 21.7116
29.6207 21.7887
29.6669 22.0514
29.713 22.4588
29.7593 22.8346
29.8053 22.84
29.8516 22.5237
29.8977 21.8959
29.9439 21.4436
29.99 21.2446
30.0363 21.0043
30.0824 21.108
30.1287 21.0377
30.1748 21.1854
30.2211 21.3837
30.2673 21.3829
30.3136 21.1851
30.3597 21.0314
30.406 20.8795
30.4522 20.8965
30.4985 20.9433
30.5447 21.2304
30.591 21.3994
30.6372 21.4962
30.6835 21.2712
30.7297 21.0729
30.7761 20.946
30.8224 21.0154
30.8686 20.9952
30.915 21.0734
30.9612 21.4674
31.0076 21.8231
31.0538 22.5542
31.1002 23.0393
31.1464 22.8905
31.1928 22.7671
31.2391 22.493
31.2855 22.0519
31.3317 21.3764
31.3781 21.0735
31.4244 20.8272
31.4708 20.5844
31.5171 20.4945
31.5636 20.4307
31.6098 20.451
31.6563 20.4655
31.7026 20.6485
31.7491 20.8315
31.7953 21.0373
31.8418 21.3336
31.8881 21.6485
31.9346 21.4582
31.9809 21.0613
32.0275 20.5295
32.074 20.3798
32.1203 20.3285
32.1668 20.3551
32.2132 20.3963
32.2597 20.5648
32.306 20.9187
32.3526 21.0536
32.399 21.0542
32.4455 20.7072
32.4919 20.4164
32.5385 20.1483
32.5848 19.8157
32.6314 19.6024
32.6778 19.3939
32.7244 19.1399
32.7708 18.95
32.8174 18.8776
32.8638 18.7037
32.9104 18.8023
32.9569 18.7306
33.0035 18.7087
33.0499 18.7523
33.0966 18.8312
33.143 18.789
33.1897 18.5968
33.2361 18.5014
33.2828 18.4645
33.3293 18.2571
33.3759 18.3748
33.4226 18.3832
33.4691 18.5267
33.5158 18.7769
33.5623 19.0022
33.609 19.0595
33.6555 19.0725
33.7022 19.1065
33.7487 18.987
33.7954 18.7663
33.842 18.3728
33.8887 18.0798
33.9353 17.8937
33.982 17.8653
34.0286 17.6736
34.0753 17.6684
34.1219 17.6026
34.1687 17.4997
34.2152 17.5787
34.262 17.5812
34.3086 17.6616
34.3554 17.5921
34.402 17.4441
34.4488 17.264
34.4954 17.1273
34.5422 17.0645
34.5889 16.9905
34.6357 16.9856
34.6825 17.0318
34.7292 17.0711
34.776 17.1313
34.8227 17.0204
34.8695 16.9452
34.9162 16.7789
34.9631 16.6337
35.0098 16.4836
35.0566 16.4168
35.1033 16.3133
35.1502 16.3577
35.1969 16.2912
35.2438 16.3203
35.2906 16.2598
35.3375 16.3643
35.3842 16.2717
35.4311 16.2816
35.4779 16.2738
35.5248 16.2857
35.5716 16.2009
35.6185 16.2367
35.6653 16.2254
35.7123 16.3461
35.759 16.513
35.806 16.6047
35.8528 16.6666
35.8998 16.8492
35.9468 16.8006
35.9936 16.6978
36.0406 16.5116
36.0874 16.2689
36.1345 16.1271
36.1813 15.8967
36.2283 15.7772
36.2752 15.7155
36.3222 15.6825
36.3691 15.6658
36.4161 15.5857
36.463 15.5104
36.5101 15.6229
36.557 15.658
36.6041 15.588
36.651 15.6655
36.6981 15.523
36.745 15.3947
36.7921 15.3365
36.839 15.1747
36.8861 15.1559
36.9331 15.2201
36.9802 15.2482
37.0272 15.3102
37.0743 15.1815
37.1213 15.2511
37.1684 15.1321
37.2154 15.0142
37.2626 14.8511
37.3098 14.721
37.3568 14.6298
37.404 14.668
37.451 14.5544
37.4982 14.5164
37.5452 14.3903
37.5924 14.4341
37.6395 14.4855
37.6867 14.3071
37.7337 14.3599
37.781 14.2439
37.8281 14.2627
37.8753 14.1348
37.9224 14.0441
37.9697 14.0869
38.0168 14.0767
38.064 14.0288
38.1111 14.0861
38.1584 13.9988
38.2056 13.9519
38.2529 13.9413
38.3 13.8514
38.3473 13.7755
38.3945 13.6665
38.4418 13.5721
38.489 13.5627
38.5363 13.4914
38.5837 13.4492
38.6309 13.5032
38.6782 13.4792
38.7254 13.4113
38.7728 13.4604
38.82 13.4149
38.8674 13.3418
38.9146 13.2375
38.9621 13.195
39.0093 13.2427
39.0567 13.1948
39.104 13.1665
39.1514 13.1303
39.1987 13.2033
39.2461 13.1091
39.2934 13.0141
39.3409 12.8605
39.3882 12.875
39.4356 12.8861
39.483 12.769
39.5304 12.7181
39.5778 12.6503
39.6253 12.5781
39.6726 12.6021
39.7201 12.6034
39.7675 12.5293
39.815 12.5258
39.8624 12.5193
39.9099 12.4459
39.9575 12.4296
40.0049 12.3874
40.0525 12.2919
40.0999 12.3004
40.1474 12.2623
40.1949 12.2624
40.2425 12.3103
40.2899 12.3085
40.3375 12.2579
40.385 12.1748
40.4326 12.1571
40.48 12.0748
40.5277 12.0304
40.5752 11.9513
40.6228 11.9659
40.6703 11.9995
40.718 11.8551
40.7655 11.8589
40.8132 11.8245
40.8607 11.8535
40.9084 11.8292
40.9559 11.7236
41.0036 11.7358
41.0512 11.694
41.0989 11.6974
41.1465 11.6441
41.1942 11.6422
41.242 11.6044
41.2896 11.5903
41.3373 11.5357
41.3849 11.4768
41.4327 11.3865
41.4803 11.342
41.5281 11.331
41.5758 11.2464
41.6236 11.21
41.6712 11.1525
41.7191 11.1578
41.7667 11.1036
41.8146 11.0385
41.8622 11.0476
41.9101 11.0081
41.9578 10.9563
42.0057 10.9739
42.0534 10.9309
42.1013 10.9069
42.149 10.8978
42.1969 10.8816
42.2446 10.9014
42.2925 10.8754
42.3403 10.7927
42.3882 10.7695
42.436 10.736
42.4839 10.6441
42.5319 10.5688
42.5797 10.4929
42.6277 10.4702
42.6755 10.4317
42.7235 10.3947
42.7713 10.3637
42.8193 10.3843
42.8671 10.2812
42.9152 10.2663
42.963 10.2844
43.0111 10.213
43.0589 10.1725
43.107 10.1068
43.1549 10.0915
43.2029 10.0519
43.2508 10.0206
43.2989 9.94302
43.3468 9.94278
43.3949 9.86678
43.4429 9.91424
43.491 9.82382
43.5389 9.80367
43.5871 9.80206
43.635 9.73723
43.6832 9.71556
43.7312 9.6215
43.7793 9.67525
43.8273 9.62874
43.8755 9.56995
43.9237 9.55167
43.9717 9.54212
44.0199 9.50548
44.068 9.50274
44.1162 9.44673
44.1642 9.47369
44.2125 9.39835
44.2606 9.41214
44.3088 9.35089
44.3569 9.30202
44.4052 9.29719
44.4533 9.25833
44.5016 9.15348
44.5497 9.21637
44.598 9.21386
44.6461 9.08497
44.6945 9.11257
44.7426 9.08896
44.791 9.0787
44.8391 9.03556
44.8875 8.97015
44.9357 8.9491
44.984 8.94756
45.0322 8.92882
45.0806 8.87633
45.1288 8.85906
45.1773 8.82391
45.2257 8.80908
45.2739 8.74209
45.3224 8.73764
45.3706 8.68258
45.4191 8.6338
45.4673 8.64333
45.5158 8.58264
45.5641 8.58524
45.6126 8.5729
45.6609 8.5265
45.7094 8.48611
45.7577 8.43364
45.8063 8.4001
45.8546 8.45209
45.9031 8.34186
45.9515 8.35653
46.0001 8.34165
46.0484 8.27758
46.097 8.31899
46.1454 8.2541
46.194 8.25043
46.2424 8.1777
46.291 8.1621
46.3395 8.11501
46.3881 8.05697
46.4365 8.09768
46.4852 8.02945
46.5337 8.04634
46.5823 7.99892
46.631 7.98282
46.6795 7.91696
46.7282 7.89473
46.7767 7.8879
46.8254 7.81566
46.8739 7.79467
46.9226 7.7862
46.9712 7.77109
47.0199 7.71516
47.0685 7.67336
47.1173 7.69731
47.1658 7.616
47.2146 7.63763
47.2632 7.61604
47.312 7.55713
47.3606 7.53165
47.4095 7.51319
47.4581 7.47366
47.5069 7.48555
47.5556 7.41165
47.6044 7.38695
47.6531 7.3674
47.702 7.34449
47.7507 7.34075
47.7996 7.30146
47.8483 7.29385
47.8972 7.2468
47.9461 7.24788
47.9948 7.20978
48.0438 7.15096
48.0925 7.17697
48.1415 7.1101
48.1902 7.10312
48.2392 7.08908
48.288 7.04246
48.337 7.04123
48.3858 6.99018
48.4348 6.95976
48.4837 6.97704
48.5327 6.92665
48.5815 6.87941
48.6306 6.87372
48.6795 6.86499
48.7285 6.80367
48.7774 6.79997
48.8265 6.79573
48.8754 6.75016
48.9245 6.72938
48.9734 6.69004
49.0226 6.69913
49.0715 6.70078
49.1206 6.59567
49.1696 6.62749
49.2188 6.5602
49.2679 6.56104
49.3169 6.5167
49.3661 6.53336
49.4151 6.48896
49.4643 6.48256
49.5134 6.42645
49.5626 6.40713
49.6117 6.38965
49.6609 6.39515
49.71 6.35142
49.7592 6.3447
49.8083 6.30798
49.8576 6.26186
49.9067 6.26282
49.956 6.24209
50.0052 6.24536
50.0545 6.24201
50.1036 6.17092
50.153 6.1658
50.2022 6.15093
50.2515 6.10503
50.3007 6.10528
50.3501 6.04391
50.3993 6.06241
50.4487 6.04795
50.498 6.01201
50.5474 5.96609
50.5966 5.92047
50.6461 5.88812
50.6955 5.91822
50.7448 5.87815
50.7943 5.89775
50.8436 5.83673
50.8931 5.85528
50.9424 5.83707
50.9919 5.80793
51.0413 5.78001
51.0908 5.74152
51.1402 5.73473
51.1897 5.69497
51.2391 5.67247
51.2887 5.66364
51.3381 5.61619
51.3877 5.60894
51.4371 5.59016
51.4867 5.57124
51.5362 5.59246
51.5858 5.51462
51.6353 5.50431
51.6849 5.48966
51.7344 5.44052
51.7841 5.4386
51.8336 5.43112
51.8833 5.3946
51.9328 5.3842
51.9826 5.35403
52.0323 5.31532
52.0818 5.30433
52.1316 5.27271
52.1812 5.26465
52.231 5.24567
52.2806 5.22845
52.3304 5.22089
52.38 5.18878
52.4298 5.14605
52.4794 5.13272
52.5293 5.10188
52.5789 5.08501
52.6288 5.07977
52.6785 5.02307
52.7284 5.04071
52.7781 5.04244
52.828 5.03692
52.8777 4.98904
52.9276 4.96505
52.9774 4.93374
53.0273 4.95704
53.0771 4.89409
53.1271 4.88592
53.1769 4.83073
53.2269 4.85986
53.2767 4.80405
53.3267 4.78347
53.3765 4.80238
53.4266 4.74648
53.4766 4.76115
53.5265 4.66555
53.5765 4.72653
53.6264 4.67405
53.6765 4.69242
53.7264 4.63184
53.7765 4.6361
53.8265 4.57587
53.8766 4.58485
53.9266 4.57457
53.9767 4.52489
54.0267 4.5437
54.0769 4.52099
54.1269 4.4907
54.1771 4.41215
54.2271 4.43602
54.2773 4.32968
54.3274 4.37449
54.3776 4.32147
54.4277 4.30036
54.478 4.25383
54.528 4.2394
54.5783 4.19089
54.6285 4.1284
54.6788 4.12952
54.7289 4.1181
54.7792 4.07906
54.8296 4.04611
54.8798 4.02755
54.9301 4.01615
54.9803 3.92552
55.0307 3.93264
55.0809 3.92335
55.1314 3.9056
55.1816 3.83655
55.232 3.80275
55.2823 3.82036
55.3328 3.73641
55.383 3.70582
55.4335 3.69534
55.4838 3.61298
55.5344 3.56782
55.5847 3.5222
55.6352 3.5515
55.6856 3.54234
55.7361 3.50396