File: XRD/Ni3Fe_FD0061.xy
TT I
1.27165 33.1172
1.31627 29.8729
1.36089 29.7718
1.40551 27.0746
1.45013 26.1239
1.49476 25.471
1.53938 24.6855
1.584 23.0655
1.62863 22.6447
1.67325 22.0034
1.71787 21.8475
1.7625 21.0745
1.80712 20.7596
1.85174 19.8687
1.89636 20.289
1.94099 20.2167
1.98562 20.1044
2.03025 19.7178
2.07487 19.981
2.11949 20.077
2.16411 19.8752
2.20874 20.3409
2.25338 20.1037
2.298 19.8754
2.34263 21.1487
2.38725 20.4091
2.43188 20.4355
2.4765 21.0
2.52115 21.5291
2.56577 21.523
2.6104 22.635
2.65503 23.4415
2.69965 25.3993
2.7443 26.1967
2.78893 29.4351
2.83356 32.2547
2.87818 35.517
2.92281 40.2983
2.96744 46.4148
3.01209 55.1307
3.05672 63.2497
3.10135 72.0094
3.14599 75.1627
3.19062 72.5211
3.23527 63.2684
3.2799 52.583
3.32454 44.1845
3.36917 37.7482
3.4138 33.137
3.45844 30.5016
3.50309 28.7066
3.54773 27.3334
3.59237 26.6031
3.637 25.9103
3.68164 25.3621
3.7263 26.0479
3.77094 25.2423
3.81558 25.5544
3.86022 26.0469
3.90486 26.2971
3.9495 27.1125
3.99416 27.2264
4.0388 27.9753
4.08344 28.5495
4.12809 29.8389
4.17273 30.996
4.21738 32.2836
4.26204 34.3681
4.30669 37.9822
4.35133 41.4468
4.39598 39.7607
4.44063 37.7358
4.4853 38.301
4.52995 39.108
4.5746 40.2828
4.61925 41.808
4.6639 43.6839
4.70855 45.9615
4.75322 48.9264
4.79788 51.7611
4.84253 56.18
4.88719 62.474
4.93184 70.1428
4.97652 84.3474
5.02118 105.457
5.06583 123.125
5.11049 144.722
5.15515 194.56
5.19981 337.999
5.24449 799.888
5.28916 1829.67
5.33382 4235.6
5.37848 2790.99
5.42315 686.692
5.46783 280.891
5.5125 186.791
5.55716 148.276
5.60183 125.301
5.6465 115.822
5.69117 110.693
5.73586 104.036
5.78053 101.949
5.8252 102.872
5.86988 108.606
5.91455 122.141
5.95924 147.113
6.00392 209.547
6.0486 361.234
6.09328 616.886
6.13795 1112.02
6.18263 1021.52
6.22733 429.709
6.27201 199.106
6.3167 122.315
6.36138 89.5593
6.40606 72.5879
6.45075 64.1569
6.49545 57.935
6.54014 53.4587
6.58483 50.3698
6.62952 48.3515
6.67421 46.2166
6.71892 44.8733
6.76361 43.6984
6.8083 42.78
6.853 41.9975
6.89769 41.6133
6.94239 42.1253
6.98711 41.7903
7.03181 42.9504
7.07651 45.1559
7.12121 45.908
7.16591 43.3197
7.21063 41.0214
7.25533 40.2425
7.30004 40.0906
7.34475 39.9569
7.38945 40.4484
7.43416 40.9904
7.47889 44.0002
7.5236 65.8468
7.56831 183.959
7.61303 153.562
7.65774 58.6045
7.70247 43.6183
7.74719 40.8203
7.79191 39.8019
7.83663 39.4026
7.88135 39.9012
7.92607 40.1061
7.97081 40.6985
8.01553 41.1985
8.06026 42.0907
8.10498 43.151
8.14971 44.0481
8.19446 45.5171
8.23919 47.9011
8.28392 50.9614
8.32865 53.6383
8.37339 57.3378
8.41812 61.6313
8.46288 70.2885
8.50761 89.5069
8.55235 137.43
8.59709 198.119
8.64183 305.127
8.68658 634.205
8.73134 680.17
8.77609 303.026
8.82083 146.591
8.86558 99.1281
8.91033 82.6378
8.9551 74.1281
8.99985 69.8134
9.04461 67.8831
9.08936 66.6574
9.13412 66.5797
9.17888 71.2516
9.22365 102.717
9.26841 287.036
9.31318 295.81
9.35794 105.673
9.4027 69.5501
9.44749 63.0349
9.49226 60.4803
9.53703 59.0456
9.5818 59.1589
9.62657 59.2288
9.67134 59.5968
9.71614 60.5217
9.76091 61.9699
9.80569 63.6779
9.85047 66.1341
9.89525 70.2569
9.94005 77.5235
9.98484 92.5483
10.0296 132.454
10.0744 176.35
10.1192 224.761
10.164 408.891
10.2088 704.958
10.2536 523.977
10.2984 224.694
10.3432 129.665
10.388 95.2843
10.4328 84.4664
10.4776 87.5773
10.5224 95.256
10.5672 102.41
10.612 144.7
10.6568 241.138
10.7017 251.453
10.7465 172.843
10.7913 88.127
10.8361 62.9351
10.8809 56.0731
10.9257 52.612
10.9706 50.9369
11.0154 48.7571
11.0602 47.3291
11.105 46.4728
11.1499 45.3764
11.1947 45.0077
11.2395 44.8976
11.2844 43.8542
11.3292 42.7934
11.374 41.8528
11.4189 41.5947
11.4637 41.2046
11.5086 40.9767
11.5534 40.5578
11.5983 40.508
11.6431 40.5573
11.688 40.3836
11.7328 40.4308
11.7777 40.7172
11.8225 41.2324
11.8674 42.3405
11.9122 47.0301
11.9571 75.6665
12.002 115.969
12.0468 81.4254
12.0917 52.8817
12.1366 50.3801
12.1814 51.5172
12.2263 56.6532
12.2712 70.1279
12.3161 87.0069
12.3609 78.9081
12.4058 59.486
12.4507 49.3891
12.4956 45.0209
12.5405 42.7728
12.5853 41.7141
12.6302 41.176
12.6751 40.9338
12.72 41.0904
12.7649 41.4969
12.8098 41.496
12.8547 42.0078
12.8996 42.8409
12.9445 43.6347
12.9894 44.9775
13.0343 46.2144
13.0792 50.4877
13.1242 61.5465
13.1691 69.0502
13.214 67.8692
13.2589 70.7333
13.3038 75.4849
13.3487 94.271
13.3937 143.206
13.4386 187.489
13.4835 150.374
13.5285 100.818
13.5734 84.7091
13.6183 79.4372
13.6633 80.7663
13.7082 101.336
13.7531 149.749
13.7981 173.163
13.843 118.141
13.888 75.4112
13.9329 60.0338
13.9779 54.1385
14.0228 51.3484
14.0678 50.0569
14.1127 52.3979
14.1577 71.5881
14.2027 103.129
14.2476 84.016
14.2926 54.1601
14.3376 46.8502
14.3825 44.8114
14.4275 43.9257
14.4725 43.2392
14.5175 42.9984
14.5624 42.56
14.6074 42.6086
14.6524 42.6319
14.6974 42.9792
14.7424 43.4514
14.7874 44.3131
14.8324 47.1162
14.8774 50.7473
14.9224 52.5433
14.9674 55.0014
15.0124 63.1402
15.0574 83.8324
15.1024 106.035
15.1474 95.6531
15.1924 71.3115
15.2374 55.6635
15.2824 47.9244
15.3274 44.764
15.3725 43.4646
15.4175 42.7305
15.4625 42.0237
15.5076 41.6648
15.5526 41.7337
15.5976 41.5417
15.6426 41.7986
15.6877 42.5414
15.7327 44.6092
15.7778 47.0607
15.8228 48.6946
15.8679 50.5681
15.9129 55.0956
15.958 68.7675
16.003 90.8159
16.0481 98.7707
16.0931 86.4485
16.1382 70.7213
16.1833 53.1557
16.2283 43.5488
16.2734 40.1457
16.3185 38.5314
16.3636 37.4989
16.4086 36.7091
16.4537 36.1322
16.4988 35.4924
16.5439 35.5357
16.589 35.1153
16.6341 34.9607
16.6792 34.6481
16.7243 34.8343
16.7694 34.6826
16.8145 34.5572
16.8596 34.6668
16.9047 35.7048
16.9498 39.349
16.9949 43.0089
17.04 40.6782
17.0851 36.6238
17.1302 35.8188
17.1754 36.0571
17.2205 36.2966
17.2656 36.6446
17.3108 37.6779
17.3559 38.8006
17.401 42.5893
17.4462 46.8688
17.4913 46.4433
17.5365 41.7672
17.5815 38.8398
17.6268 37.6903
17.6718 37.4808
17.7171 37.5842
17.7622 39.3592
17.8074 43.4757
17.8525 44.8109
17.8977 42.0639
17.9428 41.7814
17.9881 42.8169
18.0331 43.4542
18.0784 44.3441
18.1237 47.0434
18.1688 53.2765
18.214 66.1997
18.2591 78.5727
18.3044 73.2942
18.3495 58.9786
18.3948 51.5246
18.4399 51.7009
18.4852 57.2892
18.5303 61.7397
18.5756 57.6506
18.6207 51.4244
18.666 46.0882
18.7112 41.2516
18.7565 38.9921
18.8016 38.2455
18.8469 37.5725
18.892 37.1423
18.9374 36.61
18.9825 36.2942
19.0278 36.0844
19.073 36.0899
19.1183 35.8972
19.1635 35.8911
19.2088 36.5032
19.254 37.0386
19.2993 38.1922
19.3447 42.3017
19.3898 47.6754
19.4352 47.1156
19.4804 44.2528
19.5257 44.2488
19.5709 42.7091
19.6163 39.2018
19.6615 36.658
19.7068 35.0944
19.752 34.2561
19.7974 34.0252
19.8426 33.7408
19.888 33.7826
19.9332 33.9755
19.9786 34.2287
20.0238 34.0988
20.0692 34.2101
20.1144 34.7916
20.1598 36.4751
20.205 38.7205
20.2504 41.4075
20.2957 41.0306
20.3411 38.4481
20.3863 37.0475
20.4318 37.8557
20.477 39.4217
20.5224 39.3745
20.5677 36.8382
20.6131 34.3873
20.6586 33.1036
20.7038 32.5383
20.7493 32.3545
20.7945 33.6092
20.84 35.2019
20.8853 34.4773
20.9307 32.4365
20.976 31.2035
21.0215 30.7596
21.0668 30.7171
21.1122 30.7431
21.1575 30.47
21.203 30.4874
21.2483 30.5623
21.2938 30.8813
21.3391 31.0554
21.3846 31.7229
21.4299 32.2955
21.4754 32.0826
21.5207 31.7225
21.5662 31.6402
21.6116 30.8911
21.6571 30.8536
21.7024 31.0256
21.7479 31.2764
21.7933 31.3737
21.8388 31.6847
21.8843 32.0725
21.9297 32.7523
21.9752 34.1126
22.0206 36.2511
22.0661 38.7305
22.1115 39.5097
22.157 38.4565
22.2024 37.9227
22.248 36.9845
22.2933 36.1373
22.3389 34.9921
22.3843 33.4861
22.4299 32.1385
22.4753 31.44
22.5208 31.1961
22.5662 30.7595
22.6118 30.8548
22.6572 30.8137
22.7028 30.8165
22.7483 30.9692
22.7939 31.4407
22.8393 32.1934
22.8849 32.4728
22.9303 31.9826
22.9759 31.909
23.0214 32.0912
23.067 33.3449
23.1126 34.8746
23.1581 36.1974
23.2037 35.5021
23.2492 33.6337
23.2948 32.2388
23.3403 31.5778
23.3859 31.8497
23.4314 32.3861
23.477 33.3201
23.5225 33.4557
23.5682 32.5153
23.6137 32.2037
23.6593 32.6322
23.7048 33.8594
23.7505 35.7115
23.796 36.0954
23.8417 34.6431
23.8872 32.2658
23.9329 30.7595
23.9784 29.9804
24.0241 29.715
24.0697 29.4857
24.1154 29.3421
24.1609 29.1161
24.2066 28.703
24.2522 28.4038
24.2979 28.211
24.3434 27.9127
24.3892 27.8788
24.4349 27.7185
24.4805 27.5729
24.5262 27.6512
24.5718 27.3993
24.6175 27.6196
24.6631 28.0356
24.7089 28.3592
24.7545 28.3751
24.8002 27.7922
24.8458 27.4013
24.8916 27.1868
24.9372 26.9032
24.983 27.0186
25.0286 27.0801
25.0744 26.9166
25.12 26.9531
25.1658 27.1532
25.2114 27.2648
25.2572 27.5804
25.3029 27.9691
25.3487 28.3986
25.3943 28.281
25.4402 28.1623
25.4858 28.3557
25.5316 28.5625
25.5773 28.5787
25.6231 28.019
25.669 27.0714
25.7147 26.7316
25.7605 26.411
25.8062 26.5171
25.8521 26.6388
25.8977 26.6549
25.9436 26.4873
25.9893 26.1192
26.0352 26.0942
26.0809 25.7316
26.1268 25.8992
26.1725 25.9434
26.2184 26.3066
26.2641 26.6591
26.31 26.6408
26.3557 26.6231
26.4017 26.2216
26.4474 26.1864
26.4933 25.9289
26.5391 25.8159
26.585 25.854
26.6308 25.8039
26.6767 25.8019
26.7225 25.9767
26.7684 26.3944
26.8142 26.8977
26.8601 27.1883
26.9059 27.2115
26.9519 27.0762
26.9979 27.246
27.0437 26.8766
27.0896 26.2815
27.1354 25.9104
27.1814 25.4012
27.2272 25.1671
27.2732 25.2318
27.3191 24.961
27.3651 25.0082
27.4109 24.7591
27.4569 24.7212
27.5027 24.8277
27.5488 24.8922
27.5946 24.8183
27.6407 24.8467
27.6865 24.9092
27.7326 24.8338
27.7784 24.9537
27.8245 24.6953
27.8703 24.4725
27.9164 24.5502
27.9623 24.4177
28.0084 24.6765
28.0543 24.8665
28.1003 24.9574
28.1462 24.9745
28.1923 24.973
28.2384 25.2134
28.2843 25.2652
28.3304 25.0831
28.3764 24.852
28.4225 24.7045
28.4684 24.5229
28.5145 24.3507
28.5605 24.0485
28.6066 23.7801
28.6526 23.6494
28.6987 23.4928
28.7447 23.3586
28.7908 23.1818
28.8368 23.0726
28.8829 22.8928
28.9289 22.89
28.9751 22.8375
29.0211 22.8232
29.0673 22.6977
29.1133 22.9009
29.1595 22.7394
29.2055 22.6171
29.2517 22.4495
29.2977 22.3606
29.3439 22.1642
29.3899 22.1963
29.4361 22.0586
29.4824 22.0931
29.5284 22.0341
29.5746 22.0708
29.6207 22.0037
29.6669 21.9428
29.713 21.728
29.7593 21.531
29.8053 21.6068
29.8516 21.5315
29.8977 21.4867
29.9439 21.3416
29.99 21.2332
30.0363 21.1845
30.0824 21.4189
30.1287 21.4084
30.1748 21.3246
30.2211 21.1751
30.2673 21.0052
30.3136 21.1009
30.3597 21.0765
30.406 21.0573
30.4522 21.0459
30.4985 20.9995
30.5447 21.0088
30.591 20.7571
30.6372 20.8011
30.6835 20.7964
30.7297 20.714
30.7761 20.6952
30.8224 20.7973
30.8686 20.9057
30.915 20.9694
30.9612 21.0405
31.0076 20.9019
31.0538 20.8629
31.1002 20.8842
31.1464 20.6744
31.1928 20.6147
31.2391 20.4522
31.2855 20.3666
31.3317 20.3153
31.3781 20.2213
31.4244 20.2147
31.4708 20.1623
31.5171 20.1126
31.5636 20.072
31.6098 20.1487
31.6563 20.1465
31.7026 20.1717
31.7491 20.0635
31.7953 20.0332
31.8418 19.9107
31.8881 19.8923
31.9346 19.7708
31.9809 19.695
32.0275 19.7411
32.074 19.7223
32.1203 19.7539
32.1668 19.614
32.2132 19.7196
32.2597 19.5381
32.306 19.5116
32.3526 19.3752
32.399 19.3599
32.4455 19.1422
32.4919 19.181
32.5385 19.1088
32.5848 18.8839
32.6314 18.9529
32.6778 18.897
32.7244 18.7286
32.7708 18.6997
32.8174 18.7178
32.8638 18.6766
32.9104 18.6785
32.9569 18.6157
33.0035 18.527
33.0499 18.5582
33.0966 18.3788
33.143 18.3405
33.1897 18.2036
33.2361 18.1338
33.2828 18.2594
33.3293 18.1404
33.3759 18.2262
33.4226 18.0874
33.4691 18.1393
33.5158 18.143
33.5623 18.0196
33.609 17.9024
33.6555 17.8789
33.7022 17.7442
33.7487 17.6438
33.7954 17.6447
33.842 17.5046
33.8887 17.4706
33.9353 17.4584
33.982 17.4115
34.0286 17.3386
34.0753 17.2237
34.1219 17.2491
34.1687 17.2148
34.2152 17.2016
34.262 17.097
34.3086 16.9715
34.3554 17.0002
34.402 16.9441
34.4488 16.8059
34.4954 16.8143
34.5422 16.8471
34.5889 16.6558
34.6357 16.676
34.6825 16.7391
34.7292 16.5389
34.776 16.5239
34.8227 16.4349
34.8695 16.418
34.9162 16.3607
34.9631 16.3125
35.0098 16.2924
35.0566 16.1675
35.1033 16.1633
35.1502 16.1357
35.1969 16.1374
35.2438 16.0489
35.2906 15.9918
35.3375 16.0004
35.3842 15.9198
35.4311 15.964
35.4779 15.94
35.5248 15.8538
35.5716 15.8598
35.6185 15.867
35.6653 15.7926
35.7123 15.7501
35.759 15.8194
35.806 15.7229
35.8528 15.6684
35.8998 15.5728
35.9468 15.5087
35.9936 15.3966
36.0406 15.3876
36.0874 15.3919
36.1345 15.3658
36.1813 15.2745
36.2283 15.183
36.2752 15.1721
36.3222 15.1693
36.3691 15.1494
36.4161 15.0153
36.463 15.0837
36.5101 15.006
36.557 14.9615
36.6041 14.8423
36.651 14.8512
36.6981 14.8453
36.745 14.803
36.7921 14.662
36.839 14.7158
36.8861 14.7067
36.9331 14.6004
36.9802 14.5925
37.0272 14.4349
37.0743 14.4772
37.1213 14.3798
37.1684 14.399
37.2154 14.3278
37.2626 14.2896
37.3098 14.2147
37.3568 14.2331
37.404 14.1233
37.451 14.1363
37.4982 14.0711
37.5452 13.9951
37.5924 14.0009
37.6395 13.9901
37.6867 13.9485
37.7337 13.8497
37.781 13.777
37.8281 13.762
37.8753 13.6876
37.9224 13.6984
37.9697 13.6791
38.0168 13.6046
38.064 13.6059
38.1111 13.5185
38.1584 13.4889
38.2056 13.4559
38.2529 13.3994
38.3 13.3849
38.3473 13.2958
38.3945 13.2726
38.4418 13.2286
38.489 13.1876
38.5363 13.1901
38.5837 13.12
38.6309 13.0711
38.6782 13.0514
38.7254 12.9401
38.7728 12.9631
38.82 12.9047
38.8674 12.9025
38.9146 12.8286
38.9621 12.8728
39.0093 12.7462
39.0567 12.7349
39.104 12.6982
39.1514 12.6454
39.1987 12.61
39.2461 12.5927
39.2934 12.5744
39.3409 12.5206
39.3882 12.4091
39.4356 12.4416
39.483 12.3811
39.5304 12.335
39.5778 12.3028
39.6253 12.2662
39.6726 12.2822
39.7201 12.1736
39.7675 12.1722
39.815 12.1221
39.8624 12.0258
39.9099 12.0447
39.9575 12.0134
40.0049 11.9426
40.0525 11.9263
40.0999 11.9104
40.1474 11.9012
40.1949 11.8221
40.2425 11.8162
40.2899 11.7987
40.3375 11.7571
40.385 11.7519
40.4326 11.6581
40.48 11.6235
40.5277 11.6086
40.5752 11.5645
40.6228 11.4919
40.6703 11.5065
40.718 11.4622
40.7655 11.4155
40.8132 11.3392
40.8607 11.322
40.9084 11.3221
40.9559 11.289
41.0036 11.2634
41.0512 11.2693
41.0989 11.2172
41.1465 11.1657
41.1942 11.1313
41.242 11.0663
41.2896 11.072
41.3373 11.0154
41.3849 11.0236
41.4327 10.9277
41.4803 10.8517
41.5281 10.8219
41.5758 10.788
41.6236 10.7667
41.6712 10.7681
41.7191 10.6874
41.7667 10.6863
41.8146 10.6847
41.8622 10.5886
41.9101 10.5948
41.9578 10.5548
42.0057 10.558
42.0534 10.4853
42.1013 10.487
42.149 10.4197
42.1969 10.4126
42.2446 10.3414
42.2925 10.3171
42.3403 10.2788
42.3882 10.2686
42.436 10.2451
42.4839 10.2001
42.5319 10.1592
42.5797 10.1628
42.6277 10.0712
42.6755 10.0739
42.7235 10.0305
42.7713 10.0097
42.8193 9.94876
42.8671 9.9136
42.9152 9.92426
42.963 9.85773
43.0111 9.84202
43.0589 9.74986
43.107 9.75543
43.1549 9.70451
43.2029 9.6473
43.2508 9.70505
43.2989 9.63194
43.3468 9.57775
43.3949 9.54998
43.4429 9.53941
43.491 9.5308
43.5389 9.46339
43.5871 9.42024
43.635 9.36062
43.6832 9.39057
43.7312 9.31934
43.7793 9.30917
43.8273 9.2708
43.8755 9.26343
43.9237 9.21446
43.9717 9.22246
44.0199 9.17035
44.068 9.17848
44.1162 9.12836
44.1642 9.08288
44.2125 9.03778
44.2606 9.03686
44.3088 8.96699
44.3569 8.97179
44.4052 8.93611
44.4533 8.90568
44.5016 8.85744
44.5497 8.81162
44.598 8.81768
44.6461 8.76279
44.6945 8.7236
44.7426 8.7499
44.791 8.72586
44.8391 8.67448
44.8875 8.62244
44.9357 8.61698
44.984 8.58154
45.0322 8.51091
45.0806 8.54051
45.1288 8.4569
45.1773 8.42373
45.2257 8.43722
45.2739 8.38516
45.3224 8.33104
45.3706 8.33178
45.4191 8.31214
45.4673 8.32796
45.5158 8.25551
45.5641 8.22559
45.6126 8.17656
45.6609 8.15112
45.7094 8.16708
45.7577 8.05643
45.8063 8.06858
45.8546 8.05635
45.9031 8.04606
45.9515 8.00271
46.0001 8.00337
46.0484 7.95817
46.097 7.91096
46.1454 7.91022
46.194 7.89248
46.2424 7.81968
46.291 7.79402
46.3395 7.81527
46.3881 7.7569
46.4365 7.76677
46.4852 7.73475
46.5337 7.68958
46.5823 7.66369
46.631 7.6417
46.6795 7.59735
46.7282 7.58306
46.7767 7.55321
46.8254 7.48525
46.8739 7.46685
46.9226 7.45388
46.9712 7.46175
47.0199 7.41323
47.0685 7.38016
47.1173 7.37611
47.1658 7.3263
47.2146 7.32787
47.2632 7.2441
47.312 7.26679
47.3606 7.20177
47.4095 7.16508
47.4581 7.16706
47.5069 7.13457
47.5556 7.10759
47.6044 7.06945
47.6531 7.04796
47.702 7.07477
47.7507 7.01556
47.7996 7.00693
47.8483 6.99431
47.8972 6.96834
47.9461 6.9167
47.9948 6.89396
48.0438 6.87542
48.0925 6.86364
48.1415 6.85313
48.1902 6.79992
48.2392 6.79012
48.288 6.77479
48.337 6.76001
48.3858 6.69003
48.4348 6.67962
48.4837 6.66485
48.5327 6.63146
48.5815 6.62007
48.6306 6.61198
48.6795 6.59551
48.7285 6.55596
48.7774 6.52787
48.8265 6.51804
48.8754 6.44737
48.9245 6.45662
48.9734 6.4523
49.0226 6.39249
49.0715 6.39043
49.1206 6.34633
49.1696 6.35177
49.2188 6.33525
49.2679 6.28679
49.3169 6.23682
49.3661 6.21998
49.4151 6.22367
49.4643 6.19114
49.5134 6.18021
49.5626 6.14717
49.6117 6.11791
49.6609 6.12152
49.71 6.07329
49.7592 6.0451
49.8083 5.99886
49.8576 6.00335
49.9067 6.0309
49.956 5.9951
50.0052 5.98802
50.0545 5.91113
50.1036 5.92647
50.153 5.89928
50.2022 5.86669
50.2515 5.86603
50.3007 5.80022
50.3501 5.78116
50.3993 5.80424
50.4487 5.75638
50.498 5.76619
50.5474 5.73358
50.5966 5.69605
50.6461 5.6727
50.6955 5.6776
50.7448 5.65741
50.7943 5.63696
50.8436 5.61366
50.8931 5.58863
50.9424 5.59378
50.9919 5.5762
51.0413 5.54635
51.0908 5.49472
51.1402 5.49985
51.1897 5.45325
51.2391 5.44161
51.2887 5.40109
51.3381 5.38986
51.3877 5.36537
51.4371 5.35267
51.4867 5.33239
51.5362 5.32966
51.5858 5.27861
51.6353 5.23712
51.6849 5.24597
51.7344 5.20717
51.7841 5.24461
51.8336 5.19429
51.8833 5.1897
51.9328 5.17995
51.9826 5.08435
52.0323 5.13969
52.0818 5.08281
52.1316 5.06802
52.1812 5.08415
52.231 5.02682
52.2806 4.96349
52.3304 4.98276
52.38 4.97067
52.4298 4.93557
52.4794 4.966
52.5293 4.90183
52.5789 4.90201
52.6288 4.87165
52.6785 4.84905
52.7284 4.82765
52.7781 4.834
52.828 4.80281
52.8777 4.77266
52.9276 4.79014
52.9774 4.77377
53.0273 4.76684
53.0771 4.7221
53.1271 4.7338
53.1769 4.66444
53.2269 4.62387
53.2767 4.62297
53.3267 4.60375
53.3765 4.58832
53.4266 4.56436
53.4766 4.55889
53.5265 4.53707
53.5765 4.51259
53.6264 4.50352
53.6765 4.4723
53.7264 4.44853
53.7765 4.45175
53.8265 4.37379
53.8766 4.39567
53.9266 4.38135
53.9767 4.33303
54.0267 4.3284
54.0769 4.26914
54.1269 4.31365
54.1771 4.2853
54.2271 4.2107
54.2773 4.19467
54.3274 4.16401
54.3776 4.15198
54.4277 4.14184
54.478 4.12324
54.528 4.02204
54.5783 3.99807
54.6285 3.99195
54.6788 3.93396
54.7289 3.93112
54.7792 3.92393
54.8296 3.85101
54.8798 3.82435
54.9301 3.84299
54.9803 3.74992
55.0307 3.7665
55.0809 3.761
55.1314 3.68104
55.1816 3.62878
55.232 3.58945
55.2823 3.55924
55.3328 3.5594
55.383 3.51706
55.4335 3.49335
55.4838 3.43376
55.5344 3.42578
55.5847 3.36825
55.6352 3.38432
55.6856 3.31905
55.7361 3.26351