File: XRD/Ni3Fe_FD0589.xy
TT I
1.27165 7.87568
1.31627 6.51501
1.36089 7.29927
1.40551 7.17443
1.45013 6.75729
1.49476 6.09686
1.53938 5.85872
1.584 5.42923
1.62863 5.88362
1.67325 4.95934
1.71787 5.42334
1.7625 5.03044
1.80712 4.99223
1.85174 4.66314
1.89636 4.41581
1.94099 4.63323
1.98562 4.52235
2.03025 4.76838
2.07487 4.84058
2.11949 4.63566
2.16411 4.73075
2.20874 9.5787
2.25338 11.3736
2.298 5.87976
2.34263 4.56083
2.38725 5.56456
2.43188 5.42381
2.4765 6.72295
2.52115 7.14607
2.56577 6.95008
2.6104 8.07901
2.65503 7.72307
2.69965 7.88484
2.7443 8.1496
2.78893 7.89486
2.83356 8.22094
2.87818 8.35668
2.92281 8.61103
2.96744 8.90188
3.01209 10.3748
3.05672 10.9829
3.10135 11.7488
3.14599 13.2618
3.19062 14.1638
3.23527 14.6558
3.2799 15.8616
3.32454 17.2727
3.36917 17.785
3.4138 18.5208
3.45844 19.916
3.50309 20.6777
3.54773 21.5458
3.59237 22.9803
3.637 52.7515
3.68164 38.3315
3.7263 25.7469
3.77094 25.985
3.81558 26.4603
3.86022 27.4413
3.90486 28.7815
3.9495 29.927
3.99416 30.6609
4.0388 32.0771
4.08344 33.4726
4.12809 34.8482
4.17273 36.168
4.21738 39.9394
4.26204 131.624
4.30669 112.482
4.35133 44.9405
4.39598 44.0128
4.44063 49.6671
4.4853 55.6998
4.52995 54.4679
4.5746 55.1616
4.61925 54.3112
4.6639 55.8419
4.70855 58.7412
4.75322 61.8332
4.79788 67.4789
4.84253 68.8883
4.88719 74.2209
4.93184 77.3113
4.97652 81.8867
5.02118 88.4933
5.06583 96.8173
5.11049 109.724
5.15515 162.236
5.19981 481.497
5.24449 3240.9
5.28916 12470.8
5.33382 2770.97
5.37848 202.677
5.42315 133.346
5.46783 119.315
5.5125 111.554
5.55716 103.413
5.60183 99.543
5.6465 97.7919
5.69117 95.718
5.73586 94.1484
5.78053 97.343
5.8252 96.8689
5.86988 98.8109
5.91455 97.8563
5.95924 109.657
6.00392 275.764
6.0486 1109.71
6.09328 4389.95
6.13795 3287.85
6.18263 238.275
6.22733 93.3621
6.27201 82.2335
6.3167 86.5134
6.36138 75.2671
6.40606 70.3083
6.45075 69.5163
6.49545 65.5919
6.54014 63.6727
6.58483 63.0915
6.62952 62.8613
6.67421 75.2446
6.71892 95.7616
6.76361 63.1655
6.8083 59.5608
6.853 58.7962
6.89769 56.8087
6.94239 56.4832
6.98711 55.7979
7.03181 55.7593
7.07651 54.902
7.12121 54.9365
7.16591 56.3729
7.21063 55.2784
7.25533 61.7506
7.30004 106.95
7.34475 70.2638
7.38945 55.0688
7.43416 54.3269
7.47889 53.7966
7.5236 54.8522
7.56831 55.2517
7.61303 55.9956
7.65774 56.6859
7.70247 56.8064
7.74719 56.4525
7.79191 56.7644
7.83663 57.1799
7.88135 57.9307
7.92607 58.59
7.97081 60.1271
8.01553 61.4024
8.06026 62.8711
8.10498 64.7008
8.14971 70.8509
8.19446 71.2846
8.23919 70.1676
8.28392 72.3408
8.32865 74.926
8.37339 79.5429
8.41812 85.1293
8.46288 106.645
8.50761 198.086
8.55235 438.616
8.59709 1261.83
8.64183 2204.1
8.68658 923.264
8.73134 158.099
8.77609 99.9249
8.82083 93.1775
8.86558 92.2132
8.91033 91.3064
8.9551 89.9586
8.99985 86.2056
9.04461 84.637
9.08936 84.5797
9.13412 83.4806
9.17888 82.8398
9.22365 83.0223
9.26841 82.5259
9.31318 84.9438
9.35794 85.7416
9.4027 85.7306
9.44749 85.6626
9.49226 85.7328
9.53703 86.4725
9.5818 89.5626
9.62657 93.3317
9.67134 95.7206
9.71614 93.7707
9.76091 95.7036
9.80569 98.9918
9.85047 102.004
9.89525 114.373
9.94005 132.775
9.98484 210.792
10.0296 382.983
10.0744 872.603
10.1192 1744.93
10.164 1550.86
10.2088 369.22
10.2536 124.88
10.2984 111.238
10.3432 110.005
10.388 107.218
10.4328 127.946
10.4776 172.094
10.5224 299.871
10.5672 517.215
10.612 476.664
10.6568 187.683
10.7017 95.2025
10.7465 86.6437
10.7913 83.7297
10.8361 81.658
10.8809 79.3859
10.9257 78.451
10.9706 78.519
11.0154 75.4991
11.0602 73.2299
11.105 72.0977
11.1499 73.1156
11.1947 75.7254
11.2395 71.2549
11.2844 69.1049
11.3292 67.5754
11.374 66.597
11.4189 66.1631
11.4637 64.9964
11.5086 64.8102
11.5534 66.2372
11.5983 64.6994
11.6431 63.8882
11.688 63.2173
11.7328 63.3502
11.7777 63.3716
11.8225 63.1891
11.8674 62.9714
11.9122 63.3807
11.9571 63.7184
12.002 65.3912
12.0468 70.6649
12.0917 81.8486
12.1366 106.497
12.1814 156.666
12.2263 203.868
12.2712 162.349
12.3161 90.254
12.3609 67.5486
12.4058 64.7413
12.4507 64.6297
12.4956 64.9139
12.5405 65.1174
12.5853 65.6101
12.6302 68.9587
12.6751 72.1209
12.72 68.5444
12.7649 68.2041
12.8098 69.1014
12.8547 70.381
12.8996 71.9789
12.9445 73.5963
12.9894 75.1305
13.0343 76.868
13.0792 81.6859
13.1242 95.6507
13.1691 117.554
13.214 158.44
13.2589 253.805
13.3038 377.571
13.3487 420.304
13.3937 248.886
13.4386 121.569
13.4835 110.977
13.5285 126.83
13.5734 168.747
13.6183 255.459
13.6633 351.199
13.7082 328.225
13.7531 179.961
13.7981 96.6105
13.843 82.2782
13.888 80.0765
13.9329 77.7555
13.9779 76.5112
14.0228 75.0264
14.0678 73.5285
14.1127 73.2594
14.1577 72.58
14.2027 71.7329
14.2476 71.0191
14.2926 70.8133
14.3376 70.8458
14.3825 70.3347
14.4275 69.4775
14.4725 69.3818
14.5175 69.5148
14.5624 69.5112
14.6074 70.4587
14.6524 71.243
14.6974 71.5597
14.7424 75.4151
14.7874 82.4504
14.8324 92.8979
14.8774 116.601
14.9224 159.565
14.9674 209.852
15.0124 213.667
15.0574 143.299
15.1024 88.2239
15.1474 72.7139
15.1924 70.6215
15.2374 70.0381
15.2824 69.1787
15.3274 68.0722
15.3725 67.2255
15.4175 67.0049
15.4625 66.4566
15.5076 66.181
15.5526 66.5867
15.5976 66.8912
15.6426 69.4909
15.6877 75.0697
15.7327 82.7648
15.7778 99.2863
15.8228 131.517
15.8679 173.428
15.9129 191.939
15.958 149.298
16.003 92.4024
16.0481 67.0358
16.0931 63.6116
16.1382 61.8645
16.1833 60.8041
16.2283 59.3982
16.2734 58.613
16.3185 58.2329
16.3636 58.193
16.4086 57.2217
16.4537 56.4572
16.4988 55.8094
16.5439 55.7156
16.589 55.5472
16.6341 55.3214
16.6792 54.8875
16.7243 54.9943
16.7694 55.0007
16.8145 54.9952
16.8596 55.221
16.9047 56.0551
16.9498 56.3202
16.9949 55.8932
17.04 56.7077
17.0851 57.8704
17.1302 59.432
17.1754 62.6646
17.2205 67.9692
17.2656 75.3807
17.3108 82.5955
17.3559 81.6194
17.401 70.9188
17.4462 62.3222
17.4913 59.5795
17.5365 59.5303
17.5815 59.7231
17.6268 60.2396
17.6718 60.773
17.7171 61.2443
17.7622 62.1489
17.8074 63.0296
17.8525 66.4513
17.8977 69.9512
17.9428 75.8782
17.9881 85.4555
18.0331 103.265
18.0784 123.837
18.1237 141.681
18.1688 131.584
18.214 102.599
18.2591 87.4103
18.3044 92.4253
18.3495 101.482
18.3948 105.832
18.4399 95.3361
18.4852 76.667
18.5303 65.7886
18.5756 62.6009
18.6207 61.6969
18.666 60.8777
18.7112 59.9792
18.7565 59.1263
18.8016 59.0386
18.8469 58.5736
18.892 58.0966
18.9374 57.5903
18.9825 57.47
19.0278 57.3871
19.073 57.4677
19.1183 57.9849
19.1635 58.4004
19.2088 60.0956
19.254 63.0457
19.2993 67.4386
19.3447 73.1381
19.3898 75.9521
19.4352 71.6298
19.4804 62.9737
19.5257 56.8097
19.5709 54.6279
19.6163 54.3661
19.6615 54.0573
19.7068 53.7465
19.752 53.763
19.7974 54.2976
19.8426 54.8953
19.888 55.5125
19.9332 57.0098
19.9786 59.7601
20.0238 63.4163
20.0692 67.8651
20.1144 70.2263
20.1598 68.2115
20.205 63.805
20.2504 62.8593
20.2957 64.3329
20.3411 65.8013
20.3863 63.8015
20.4318 58.1645
20.477 53.4168
20.5224 51.455
20.5677 51.0378
20.6131 50.5549
20.6586 49.9971
20.7038 49.8076
20.7493 49.5143
20.7945 49.3552
20.84 49.1234
20.8853 49.1501
20.9307 49.0804
20.976 49.0862
21.0215 48.9327
21.0668 49.4314
21.1122 49.9545
21.1575 50.415
21.203 51.1904
21.2483 51.7269
21.2938 51.5854
21.3391 50.1223
21.3846 49.1264
21.4299 48.7548
21.4754 48.7694
21.5207 48.9878
21.5662 49.3774
21.6116 50.0707
21.6571 50.4335
21.7024 51.7101
21.7479 53.4422
21.7933 56.3636
21.8388 59.7383
21.8843 63.2951
21.9297 65.088
21.9752 63.2005
22.0206 59.4059
22.0661 56.6425
22.1115 56.3826
22.157 56.2103
22.2024 54.3924
22.248 51.5192
22.2933 50.1082
22.3389 49.2622
22.3843 49.1469
22.4299 49.1029
22.4753 49.0721
22.5208 48.9469
22.5662 48.8728
22.6118 49.1943
22.6572 49.3285
22.7028 49.6619
22.7483 50.2461
22.7939 51.036
22.8393 52.6234
22.8849 54.6429
22.9303 56.5359
22.9759 57.9863
23.0214 57.3413
23.067 54.3702
23.1126 50.9468
23.1581 49.3354
23.2037 49.0959
23.2492 49.2738
23.2948 49.3931
23.3403 49.5458
23.3859 50.2077
23.4314 51.5389
23.477 53.2446
23.5225 55.3304
23.5682 57.2818
23.6137 57.9014
23.6593 55.6958
23.7048 51.3833
23.7505 48.3079
23.796 46.6918
23.8417 46.2463
23.8872 45.8077
23.9329 45.5706
23.9784 45.2026
24.0241 44.9436
24.0697 44.6175
24.1154 44.4534
24.1609 44.3518
24.2066 44.1057
24.2522 44.0288
24.2979 43.7825
24.3434 43.5967
24.3892 43.33
24.4349 43.3523
24.4805 43.0376
24.5262 43.3074
24.5718 43.2805
24.6175 43.1728
24.6631 43.1881
24.7089 42.6876
24.7545 42.6558
24.8002 42.4132
24.8458 42.5691
24.8916 42.3677
24.9372 42.5293
24.983 43.1201
25.0286 43.1795
25.0744 43.6823
25.12 44.0971
25.1658 44.6935
25.2114 45.1561
25.2572 44.956
25.3029 45.0755
25.3487 45.3767
25.3943 44.6893
25.4402 43.577
25.4858 42.4704
25.5316 41.6195
25.5773 41.1364
25.6231 41.1241
25.669 40.8021
25.7147 40.7849
25.7605 40.7447
25.8062 40.7649
25.8521 40.8273
25.8977 40.8262
25.9436 41.2137
25.9893 41.3172
26.0352 41.9161
26.0809 41.8817
26.1268 41.9377
26.1725 41.6896
26.2184 40.9508
26.2641 40.5501
26.31 40.4979
26.3557 40.4305
26.4017 40.4813
26.4474 40.7597
26.4933 41.1089
26.5391 41.6481
26.585 42.0124
26.6308 42.3507
26.6767 42.4759
26.7225 42.2521
26.7684 41.7053
26.8142 41.0961
26.8601 40.6228
26.9059 40.2116
26.9519 39.7486
26.9979 39.4467
27.0437 39.1053
27.0896 39.0258
27.1354 39.0611
27.1814 38.7879
27.2272 38.8311
27.2732 38.7187
27.3191 38.6905
27.3651 38.765
27.4109 38.6318
27.4569 38.896
27.5027 38.8757
27.5488 38.9877
27.5946 38.6019
27.6407 38.3939
27.6865 38.3205
27.7326 38.0424
27.7784 38.1365
27.8245 38.1688
27.8703 38.342
27.9164 38.6109
27.9623 38.7657
28.0084 39.1085
28.0543 39.4815
28.1003 39.205
28.1462 38.95
28.1923 38.6731
28.2384 38.1864
28.2843 37.8806
28.3304 37.2866
28.3764 36.8834
28.4225 36.5856
28.4684 36.4726
28.5145 36.2239
28.5605 36.199
28.6066 35.8694
28.6526 35.8857
28.6987 35.8965
28.7447 35.9548
28.7908 35.7093
28.8368 35.615
28.8829 35.6267
28.9289 35.6448
28.9751 35.3561
29.0211 35.1924
29.0673 34.8399
29.1133 34.7567
29.1595 34.672
29.2055 34.5418
29.2517 34.5648
29.2977 34.5193
29.3439 34.4373
29.3899 34.4105
29.4361 34.3567
29.4824 34.0831
29.5284 33.8487
29.5746 33.6081
29.6207 33.3538
29.6669 33.2117
29.713 33.138
29.7593 33.1125
29.8053 33.1206
29.8516 33.0078
29.8977 33.036
29.9439 32.7754
29.99 32.8322
30.0363 32.6878
30.0824 32.6138
30.1287 32.6501
30.1748 32.6694
30.2211 32.627
30.2673 32.4375
30.3136 32.5333
30.3597 32.3957
30.406 32.5044
30.4522 32.2874
30.4985 32.2537
30.5447 32.3491
30.591 32.3382
30.6372 32.4125
30.6835 32.3756
30.7297 32.3888
30.7761 32.3613
30.8224 32.1222
30.8686 32.1634
30.915 31.8023
30.9612 31.6559
31.0076 31.5425
31.0538 31.3286
31.1002 31.3229
31.1464 31.1384
31.1928 31.1805
31.2391 31.2145
31.2855 30.9921
31.3317 31.0231
31.3781 31.0962
31.4244 31.1964
31.4708 31.0178
31.5171 30.9916
31.5636 30.931
31.6098 30.6777
31.6563 30.5067
31.7026 30.4563
31.7491 30.3135
31.7953 30.3948
31.8418 30.3713
31.8881 30.3818
31.9346 30.3357
31.9809 30.179
32.0275 30.1063
32.074 29.8979
32.1203 29.7788
32.1668 29.7594
32.2132 29.5859
32.2597 29.4864
32.306 29.3409
32.3526 29.2006
32.399 29.1143
32.4455 29.0856
32.4919 28.8742
32.5385 28.8378
32.5848 28.6976
32.6314 28.546
32.6778 28.6336
32.7244 28.4562
32.7708 28.2862
32.8174 28.3141
32.8638 28.1306
32.9104 28.3087
32.9569 28.1569
33.0035 27.9738
33.0499 27.9418
33.0966 27.9353
33.143 27.988
33.1897 27.9034
33.2361 27.7695
33.2828 27.8146
33.3293 27.6404
33.3759 27.5032
33.4226 27.4027
33.4691 27.2412
33.5158 27.2085
33.5623 27.0771
33.609 26.8833
33.6555 26.832
33.7022 26.6987
33.7487 26.6222
33.7954 26.677
33.842 26.5508
33.8887 26.4208
33.9353 26.4135
33.982 26.3018
34.0286 26.1641
34.0753 26.1357
34.1219 26.0391
34.1687 25.9973
34.2152 25.9705
34.262 25.8015
34.3086 25.7878
34.3554 25.7179
34.402 25.5756
34.4488 25.4206
34.4954 25.3449
34.5422 25.2482
34.5889 25.2271
34.6357 25.1025
34.6825 25.108
34.7292 25.0826
34.776 24.8759
34.8227 24.8528
34.8695 24.8265
34.9162 24.7007
34.9631 24.6551
35.0098 24.616
35.0566 24.4911
35.1033 24.4283
35.1502 24.3364
35.1969 24.3186
35.2438 24.3637
35.2906 24.2342
35.3375 24.2303
35.3842 24.1447
35.4311 24.1755
35.4779 24.0672
35.5248 23.989
35.5716 23.8574
35.6185 23.838
35.6653 23.7633
35.7123 23.7622
35.759 23.6341
35.806 23.5151
35.8528 23.3617
35.8998 23.3418
35.9468 23.3144
35.9936 23.2575
36.0406 23.2057
36.0874 23.0979
36.1345 22.9795
36.1813 22.9375
36.2283 22.8938
36.2752 22.8103
36.3222 22.8019
36.3691 22.719
36.4161 22.5148
36.463 22.5709
36.5101 22.5585
36.557 22.4838
36.6041 22.331
36.651 22.362
36.6981 22.2269
36.745 22.1801
36.7921 22.1458
36.839 21.981
36.8861 21.963
36.9331 21.8394
36.9802 21.7762
37.0272 21.7764
37.0743 21.5858
37.1213 21.6058
37.1684 21.5411
37.2154 21.4825
37.2626 21.3705
37.3098 21.3577
37.3568 21.3155
37.404 21.2229
37.451 21.0985
37.4982 21.0017
37.5452 21.0246
37.5924 20.9656
37.6395 20.9874
37.6867 20.8517
37.7337 20.7714
37.781 20.6836
37.8281 20.5951
37.8753 20.4914
37.9224 20.4806
37.9697 20.3927
38.0168 20.3564
38.064 20.2864
38.1111 20.1924
38.1584 20.0836
38.2056 20.0663
38.2529 20.0534
38.3 19.9044
38.3473 19.8791
38.3945 19.7552
38.4418 19.7413
38.489 19.7632
38.5363 19.6472
38.5837 19.5842
38.6309 19.5171
38.6782 19.4403
38.7254 19.3576
38.7728 19.3628
38.82 19.2456
38.8674 19.1774
38.9146 19.1269
38.9621 19.0371
39.0093 19.0145
39.0567 18.9807
39.104 18.9209
39.1514 18.8176
39.1987 18.7425
39.2461 18.7074
39.2934 18.6723
39.3409 18.5673
39.3882 18.557
39.4356 18.4805
39.483 18.38
39.5304 18.3352
39.5778 18.3421
39.6253 18.2742
39.6726 18.2194
39.7201 18.1703
39.7675 18.103
39.815 18.0629
39.8624 17.9442
39.9099 17.9329
39.9575 17.861
40.0049 17.7832
40.0525 17.6565
40.0999 17.684
40.1474 17.6912
40.1949 17.5565
40.2425 17.5401
40.2899 17.4642
40.3375 17.4042
40.385 17.3369
40.4326 17.3104
40.48 17.2014
40.5277 17.1819
40.5752 17.1421
40.6228 17.0152
40.6703 16.9943
40.718 17.0001
40.7655 16.9349
40.8132 16.8484
40.8607 16.8941
40.9084 16.8322
40.9559 16.6509
41.0036 16.7195
41.0512 16.5742
41.0989 16.6226
41.1465 16.4811
41.1942 16.4583
41.242 16.3728
41.2896 16.3135
41.3373 16.2595
41.3849 16.202
41.4327 16.1645
41.4803 16.102
41.5281 16.0495
41.5758 16.0158
41.6236 15.9146
41.6712 15.8609
41.7191 15.8549
41.7667 15.8078
41.8146 15.7403
41.8622 15.6492
41.9101 15.6518
41.9578 15.5404
42.0057 15.4991
42.0534 15.4745
42.1013 15.4364
42.149 15.3691
42.1969 15.3107
42.2446 15.31
42.2925 15.1614
42.3403 15.1349
42.3882 15.1776
42.436 15.0726
42.4839 15.0402
42.5319 15.0181
42.5797 14.8691
42.6277 14.8392
42.6755 14.8022
42.7235 14.7307
42.7713 14.6958
42.8193 14.6485
42.8671 14.6005
42.9152 14.5659
42.963 14.485
43.0111 14.4336
43.0589 14.4392
43.107 14.3844
43.1549 14.3085
43.2029 14.2414
43.2508 14.2186
43.2989 14.1546
43.3468 14.0515
43.3949 14.0836
43.4429 13.9745
43.491 13.962
43.5389 13.9221
43.5871 13.8714
43.635 13.7937
43.6832 13.7537
43.7312 13.7292
43.7793 13.6663
43.8273 13.6356
43.8755 13.5372
43.9237 13.54
43.9717 13.4995
44.0199 13.4336
44.068 13.3972
44.1162 13.2976
44.1642 13.3488
44.2125 13.2216
44.2606 13.2116
44.3088 13.1676
44.3569 13.1319
44.4052 13.0582
44.4533 12.9806
44.5016 12.9758
44.5497 12.943
44.598 12.8854
44.6461 12.8488
44.6945 12.822
44.7426 12.7449
44.791 12.6803
44.8391 12.6832
44.8875 12.5913
44.9357 12.5715
44.984 12.5531
45.0322 12.4779
45.0806 12.4573
45.1288 12.402
45.1773 12.3724
45.2257 12.3095
45.2739 12.2528
45.3224 12.2133
45.3706 12.1532
45.4191 12.0928
45.4673 12.1224
45.5158 12.0448
45.5641 11.9562
45.6126 11.9222
45.6609 11.9039
45.7094 11.8589
45.7577 11.8931
45.8063 11.7624
45.8546 11.7418
45.9031 11.6766
45.9515 11.6359
46.0001 11.6827
46.0484 11.5967
46.097 11.5304
46.1454 11.5307
46.194 11.4853
46.2424 11.4328
46.291 11.3662
46.3395 11.3391
46.3881 11.2802
46.4365 11.2843
46.4852 11.2202
46.5337 11.1376
46.5823 11.1917
46.631 11.0638
46.6795 11.1041
46.7282 11.0187
46.7767 11.0046
46.8254 10.9129
46.8739 10.8975
46.9226 10.8789
46.9712 10.7948
47.0199 10.754
47.0685 10.727
47.1173 10.6735
47.1658 10.6379
47.2146 10.611
47.2632 10.5555
47.312 10.5744
47.3606 10.4715
47.4095 10.4529
47.4581 10.3927
47.5069 10.3909
47.5556 10.3372
47.6044 10.2743
47.6531 10.2394
47.702 10.2192
47.7507 10.1738
47.7996 10.1547
47.8483 10.1146
47.8972 10.1161
47.9461 10.0554
47.9948 9.9747
48.0438 9.96199
48.0925 9.91045
48.1415 9.86775
48.1902 9.87806
48.2392 9.83464
48.288 9.78245
48.337 9.72895
48.3858 9.7155
48.4348 9.71508
48.4837 9.65691
48.5327 9.68059
48.5815 9.58072
48.6306 9.54845
48.6795 9.49097
48.7285 9.45599
48.7774 9.44863
48.8265 9.42026
48.8754 9.34598
48.9245 9.35611
48.9734 9.33931
49.0226 9.28312
49.0715 9.24564
49.1206 9.18887
49.1696 9.13226
49.2188 9.14704
49.2679 9.08932
49.3169 9.05596
49.3661 9.00908
49.4151 8.99479
49.4643 8.94098
49.5134 8.89249
49.5626 8.87398
49.6117 8.84987
49.6609 8.8019
49.71 8.77195
49.7592 8.75543
49.8083 8.69037
49.8576 8.66412
49.9067 8.61795
49.956 8.58826
50.0052 8.58418
50.0545 8.5312
50.1036 8.47057
50.153 8.49877
50.2022 8.46503
50.2515 8.43715
50.3007 8.34228
50.3501 8.33358
50.3993 8.34215
50.4487 8.25776
50.498 8.20735
50.5474 8.21363
50.5966 8.19852
50.6461 8.12208
50.6955 8.12099
50.7448 8.09052
50.7943 8.0993
50.8436 8.05221
50.8931 7.98965
50.9424 7.94735
50.9919 7.94443
51.0413 7.93754
51.0908 7.87306
51.1402 7.86896
51.1897 7.81389
51.2391 7.74808
51.2887 7.75274
51.3381 7.6831
51.3877 7.66597
51.4371 7.65036
51.4867 7.59947
51.5362 7.57723
51.5858 7.55295
51.6353 7.52311
51.6849 7.52482
51.7344 7.46839
51.7841 7.46345
51.8336 7.43308
51.8833 7.37137
51.9328 7.33484
51.9826 7.30908
52.0323 7.31495
52.0818 7.24384
52.1316 7.21199
52.1812 7.15747
52.231 7.14162
52.2806 7.12946
52.3304 7.11059
52.38 7.07363
52.4298 7.0366
52.4794 6.98727
52.5293 6.94527
52.5789 6.96328
52.6288 6.97975
52.6785 6.89847
52.7284 6.86877
52.7781 6.87163
52.828 6.79723
52.8777 6.78719
52.9276 6.78118
52.9774 6.80197
53.0273 6.7167
53.0771 6.69847
53.1271 6.69146
53.1769 6.59317
53.2269 6.60823
53.2767 6.55732
53.3267 6.56961
53.3765 6.55166
53.4266 6.4415
53.4766 6.42747
53.5265 6.42442
53.5765 6.3972
53.6264 6.37266
53.6765 6.32291
53.7264 6.30907
53.7765 6.28402
53.8265 6.25695
53.8766 6.26222
53.9266 6.21761
53.9767 6.16274
54.0267 6.16882
54.0769 6.12491
54.1269 6.10501
54.1771 6.04984
54.2271 6.04503
54.2773 5.97613
54.3274 5.99041
54.3776 5.95366
54.4277 5.90738
54.478 5.86472
54.528 5.86128
54.5783 5.77371
54.6285 5.72247
54.6788 5.72272
54.7289 5.67251
54.7792 5.64014
54.8296 5.55112
54.8798 5.55666
54.9301 5.54245
54.9803 5.45008
55.0307 5.43471
55.0809 5.34229
55.1314 5.38917
55.1816 5.27052
55.232 5.25433
55.2823 5.27237
55.3328 5.15617
55.383 5.14622
55.4335 5.05969
55.4838 5.02082
55.5344 4.94895
55.5847 4.95443
55.6352 4.93195
55.6856 4.86526
55.7361 4.84805