File: XRD/Ni3Fe_FD0620.xy
TT I
1.27165 7.33515
1.31627 6.94509
1.36089 6.81713
1.40551 6.20622
1.45013 6.34043
1.49476 5.37895
1.53938 6.30125
1.584 4.9194
1.62863 5.27701
1.67325 5.32686
1.71787 5.48052
1.7625 5.23475
1.80712 4.56716
1.85174 4.69605
1.89636 4.95525
1.94099 5.18102
1.98562 4.59365
2.03025 4.66124
2.07487 5.14236
2.11949 4.83999
2.16411 4.58237
2.20874 14.0615
2.25338 23.0318
2.298 6.72495
2.34263 5.31286
2.38725 5.88828
2.43188 5.90323
2.4765 6.83292
2.52115 7.47196
2.56577 7.46133
2.6104 7.72135
2.65503 8.59217
2.69965 7.91711
2.7443 8.27974
2.78893 8.31705
2.83356 8.20064
2.87818 8.26875
2.92281 8.76484
2.96744 9.58297
3.01209 10.259
3.05672 10.7042
3.10135 12.2536
3.14599 12.8895
3.19062 14.3369
3.23527 15.6057
3.2799 15.3306
3.32454 16.7012
3.36917 18.044
3.4138 19.1751
3.45844 19.4138
3.50309 21.0897
3.54773 21.7277
3.59237 23.9949
3.637 92.2219
3.68164 58.4452
3.7263 26.455
3.77094 26.3732
3.81558 26.6282
3.86022 27.7436
3.90486 28.6311
3.9495 30.028
3.99416 31.2374
4.0388 32.5097
4.08344 33.736
4.12809 35.3031
4.17273 37.1081
4.21738 43.554
4.26204 242.945
4.30669 212.354
4.35133 48.8693
4.39598 44.891
4.44063 54.2851
4.4853 65.3406
4.52995 50.0851
4.5746 51.388
4.61925 52.9835
4.6639 55.8677
4.70855 58.0776
4.75322 61.1418
4.79788 63.862
4.84253 66.8749
4.88719 71.1451
4.93184 75.2261
4.97652 81.033
5.02118 87.4923
5.06583 94.4101
5.11049 105.845
5.15515 172.817
5.19981 351.341
5.24449 2880.99
5.28916 12595.1
5.33382 3025.09
5.37848 194.879
5.42315 130.763
5.46783 114.115
5.5125 106.751
5.55716 102.705
5.60183 98.9287
5.6465 97.0853
5.69117 94.307
5.73586 92.291
5.78053 91.9618
5.8252 91.3019
5.86988 92.4382
5.91455 94.1068
5.95924 102.202
6.00392 204.127
6.0486 972.929
6.09328 4415.07
6.13795 3549.91
6.18263 255.38
6.22733 94.7563
6.27201 83.6038
6.3167 102.007
6.36138 80.9616
6.40606 69.3255
6.45075 67.7334
6.49545 65.843
6.54014 64.7935
6.58483 63.5567
6.62952 62.9882
6.67421 93.8198
6.71892 142.849
6.76361 68.9074
6.8083 59.1148
6.853 57.7657
6.89769 57.3067
6.94239 56.579
6.98711 56.0032
7.03181 55.8596
7.07651 55.6564
7.12121 55.3908
7.16591 55.7224
7.21063 55.7435
7.25533 70.3814
7.30004 178.523
7.34475 91.5346
7.38945 57.0144
7.43416 55.0245
7.47889 54.5522
7.5236 55.1032
7.56831 55.7234
7.61303 57.2518
7.65774 57.5827
7.70247 56.5439
7.74719 56.2324
7.79191 57.1792
7.83663 57.1655
7.88135 58.1421
7.92607 58.6114
7.97081 59.783
8.01553 60.9297
8.06026 62.4906
8.10498 63.9447
8.14971 73.5883
8.19446 72.2918
8.23919 70.0909
8.28392 71.7915
8.32865 74.3535
8.37339 78.7762
8.41812 85.4387
8.46288 113.371
8.50761 161.809
8.55235 385.305
8.59709 1181.1
8.64183 2199.0
8.68658 997.968
8.73134 172.154
8.77609 100.52
8.82083 93.3891
8.86558 90.1076
8.91033 89.758
8.9551 91.5331
8.99985 85.7461
9.04461 83.9355
9.08936 83.1094
9.13412 82.0764
9.17888 82.2225
9.22365 83.1143
9.26841 82.3192
9.31318 82.3554
9.35794 82.5928
9.4027 83.4598
9.44749 84.4535
9.49226 85.0588
9.53703 86.0062
9.5818 87.2808
9.62657 92.1988
9.67134 98.7117
9.71614 94.3853
9.76091 94.4059
9.80569 96.9133
9.85047 100.111
9.89525 123.923
9.94005 135.898
9.98484 172.738
10.0296 340.187
10.0744 809.682
10.1192 1712.84
10.164 1599.94
10.2088 425.171
10.2536 129.312
10.2984 114.038
10.3432 115.134
10.388 104.926
10.4328 117.177
10.4776 159.362
10.5224 280.346
10.5672 501.363
10.612 493.238
10.6568 208.504
10.7017 97.6474
10.7465 87.0973
10.7913 83.5324
10.8361 81.7795
10.8809 79.0951
10.9257 78.6547
10.9706 79.2964
11.0154 75.0614
11.0602 73.094
11.105 71.8892
11.1499 76.5279
11.1947 83.8934
11.2395 74.7218
11.2844 70.8635
11.3292 67.7379
11.374 66.6745
11.4189 65.8167
11.4637 65.1881
11.5086 65.4178
11.5534 68.762
11.5983 65.8097
11.6431 63.8903
11.688 63.3246
11.7328 63.1452
11.7777 63.0213
11.8225 62.3934
11.8674 62.497
11.9122 62.9806
11.9571 63.2715
12.002 63.6789
12.0468 67.398
12.0917 78.9961
12.1366 102.987
12.1814 153.171
12.2263 202.544
12.2712 169.176
12.3161 98.8351
12.3609 70.7499
12.4058 65.0269
12.4507 64.7313
12.4956 64.4805
12.5405 64.915
12.5853 65.8569
12.6302 73.3611
12.6751 78.8924
12.72 70.3882
12.7649 68.1878
12.8098 68.482
12.8547 70.0869
12.8996 71.4839
12.9445 72.4421
12.9894 74.3511
13.0343 76.0219
13.0792 78.8861
13.1242 87.9079
13.1691 111.057
13.214 148.12
13.2589 237.564
13.3038 366.506
13.3487 423.753
13.3937 273.532
13.4386 129.302
13.4835 105.651
13.5285 119.992
13.5734 159.109
13.6183 248.075
13.6633 345.175
13.7082 342.092
13.7531 193.462
13.7981 100.49
13.843 82.6892
13.888 80.0176
13.9329 77.2463
13.9779 76.1638
14.0228 74.7353
14.0678 73.2353
14.1127 73.0
14.1577 72.9592
14.2027 71.7285
14.2476 70.6642
14.2926 70.95
14.3376 72.0336
14.3825 70.4297
14.4275 69.2776
14.4725 68.8502
14.5175 69.3684
14.5624 69.3818
14.6074 71.619
14.6524 71.9908
14.6974 70.7693
14.7424 71.8443
14.7874 78.326
14.8324 88.6484
14.8774 110.832
14.9224 153.739
14.9674 205.548
15.0124 215.911
15.0574 151.935
15.1024 93.2735
15.1474 72.8578
15.1924 70.7472
15.2374 71.3754
15.2824 70.7808
15.3274 68.5922
15.3725 67.1203
15.4175 66.7668
15.4625 66.3193
15.5076 66.5513
15.5526 66.5699
15.5976 65.9563
15.6426 66.8656
15.6877 72.2113
15.7327 79.4207
15.7778 94.975
15.8228 126.498
15.8679 168.641
15.9129 191.258
15.958 156.708
16.003 98.905
16.0481 69.1196
16.0931 65.1563
16.1382 63.0123
16.1833 60.737
16.2283 59.3209
16.2734 58.6902
16.3185 58.8435
16.3636 59.5237
16.4086 58.1248
16.4537 56.6107
16.4988 55.8599
16.5439 55.6694
16.589 55.4831
16.6341 55.2762
16.6792 54.7264
16.7243 55.2101
16.7694 55.3963
16.8145 55.0772
16.8596 55.5974
16.9047 57.0087
16.9498 57.2686
16.9949 55.9787
17.04 56.0796
17.0851 57.2473
17.1302 58.7485
17.1754 61.8149
17.2205 66.933
17.2656 74.5921
17.3108 82.8495
17.3559 83.163
17.401 73.2098
17.4462 63.2155
17.4913 59.5852
17.5365 59.494
17.5815 59.4876
17.6268 59.7257
17.6718 60.7384
17.7171 61.1697
17.7622 61.5961
17.8074 62.1726
17.8525 64.3793
17.8977 68.2501
17.9428 74.0536
17.9881 82.7353
18.0331 99.9348
18.0784 121.287
18.1237 138.851
18.1688 131.936
18.214 105.333
18.2591 87.7835
18.3044 90.8694
18.3495 100.07
18.3948 105.664
18.4399 97.7298
18.4852 79.0903
18.5303 66.8968
18.5756 62.5179
18.6207 61.7294
18.666 60.7543
18.7112 59.8591
18.7565 59.2045
18.8016 59.0066
18.8469 58.2613
18.892 57.9172
18.9374 57.6304
18.9825 57.3838
19.0278 57.3417
19.073 57.1247
19.1183 57.6016
19.1635 58.3156
19.2088 59.9644
19.254 62.2491
19.2993 66.8585
19.3447 72.9422
19.3898 76.446
19.4352 72.8979
19.4804 64.1873
19.5257 57.3347
19.5709 54.423
19.6163 54.2754
19.6615 53.778
19.7068 53.6592
19.752 53.6339
19.7974 53.7327
19.8426 54.7785
19.888 55.2129
19.9332 56.4322
19.9786 59.0084
20.0238 62.4072
20.0692 67.3945
20.1144 69.6477
20.1598 68.5045
20.205 64.0485
20.2504 62.7738
20.2957 64.121
20.3411 65.8667
20.3863 64.5438
20.4318 59.1127
20.477 54.2257
20.5224 51.8476
20.5677 51.3169
20.6131 50.5241
20.6586 49.9063
20.7038 49.837
20.7493 49.1681
20.7945 49.0366
20.84 48.8655
20.8853 49.0166
20.9307 48.8493
20.976 49.0569
21.0215 48.7388
21.0668 49.3557
21.1122 49.6624
21.1575 50.4507
21.203 51.1009
21.2483 51.6301
21.2938 51.5181
21.3391 50.3454
21.3846 49.1618
21.4299 48.7061
21.4754 48.6336
21.5207 48.6919
21.5662 48.952
21.6116 49.4267
21.6571 50.2211
21.7024 51.1572
21.7479 52.7996
21.7933 55.6245
21.8388 59.1454
21.8843 62.629
21.9297 64.4945
21.9752 63.5463
22.0206 60.0748
22.0661 56.9763
22.1115 56.3961
22.157 56.139
22.2024 54.4797
22.248 51.8792
22.2933 50.1936
22.3389 49.4802
22.3843 49.2586
22.4299 49.2683
22.4753 49.1405
22.5208 48.7689
22.5662 48.7341
22.6118 48.9954
22.6572 49.1311
22.7028 49.5418
22.7483 49.9221
22.7939 50.5778
22.8393 52.0673
22.8849 54.2945
22.9303 56.3417
22.9759 57.907
23.0214 57.7826
23.067 55.101
23.1126 51.673
23.1581 49.6436
23.2037 49.1309
23.2492 48.9248
23.2948 49.0582
23.3403 49.3819
23.3859 49.884
23.4314 51.0223
23.477 52.9337
23.5225 55.1009
23.5682 57.0475
23.6137 57.9842
23.6593 55.9073
23.7048 52.1809
23.7505 48.7378
23.796 46.9991
23.8417 46.2272
23.8872 45.876
23.9329 45.4867
23.9784 45.1642
24.0241 44.9774
24.0697 44.7453
24.1154 44.3733
24.1609 44.2298
24.2066 44.0496
24.2522 43.9011
24.2979 43.7331
24.3434 43.5175
24.3892 43.3322
24.4349 43.3031
24.4805 43.1517
24.5262 43.2856
24.5718 43.0628
24.6175 43.1784
24.6631 43.2144
24.7089 42.8826
24.7545 42.494
24.8002 42.493
24.8458 42.3986
24.8916 42.1817
24.9372 42.3356
24.983 42.7702
25.0286 42.9573
25.0744 43.4414
25.12 43.9848
25.1658 44.5383
25.2114 44.8811
25.2572 45.0013
25.3029 45.1453
25.3487 44.989
25.3943 44.7775
25.4402 43.8057
25.4858 42.6381
25.5316 41.8285
25.5773 41.2592
25.6231 41.1757
25.669 40.735
25.7147 40.7595
25.7605 40.7132
25.8062 40.8024
25.8521 40.9129
25.8977 40.896
25.9436 41.0527
25.9893 41.2238
26.0352 41.6476
26.0809 41.6825
26.1268 41.8568
26.1725 41.5261
26.2184 41.037
26.2641 40.6826
26.31 40.2657
26.3557 40.3586
26.4017 40.2519
26.4474 40.6011
26.4933 40.9741
26.5391 41.5981
26.585 41.8328
26.6308 42.2839
26.6767 42.3084
26.7225 42.1042
26.7684 41.5076
26.8142 41.1183
26.8601 40.6215
26.9059 40.304
26.9519 39.7927
26.9979 39.439
27.0437 39.1322
27.0896 38.9177
27.1354 38.934
27.1814 38.742
27.2272 38.8785
27.2732 38.7864
27.3191 38.5775
27.3651 38.7443
27.4109 38.7302
27.4569 38.6931
27.5027 38.6861
27.5488 38.7986
27.5946 38.615
27.6407 38.4186
27.6865 38.3232
27.7326 37.9584
27.7784 38.2007
27.8245 37.8802
27.8703 38.1152
27.9164 38.3528
27.9623 38.5857
28.0084 38.9026
28.0543 39.2197
28.1003 39.2335
28.1462 39.0373
28.1923 38.8074
28.2384 38.139
28.2843 37.8429
28.3304 37.3734
28.3764 36.9034
28.4225 36.5224
28.4684 36.5176
28.5145 36.1985
28.5605 36.0859
28.6066 35.8392
28.6526 35.7315
28.6987 35.7683
28.7447 35.693
28.7908 35.5847
28.8368 35.8609
28.8829 35.555
28.9289 35.6008
28.9751 35.3356
29.0211 35.1443
29.0673 34.7702
29.1133 34.7779
29.1595 34.6031
29.2055 34.5088
29.2517 34.4622
29.2977 34.3984
29.3439 34.4998
29.3899 34.4031
29.4361 34.3172
29.4824 34.1432
29.5284 33.9964
29.5746 33.5587
29.6207 33.4042
29.6669 33.28
29.713 33.1144
29.7593 33.0116
29.8053 33.1446
29.8516 32.9257
29.8977 32.9513
29.9439 32.7393
29.99 32.6633
30.0363 32.664
30.0824 32.6836
30.1287 32.4934
30.1748 32.5286
30.2211 32.6391
30.2673 32.4468
30.3136 32.4629
30.3597 32.2987
30.406 32.3567
30.4522 32.2617
30.4985 32.2127
30.5447 32.3112
30.591 32.2042
30.6372 32.3431
30.6835 32.3336
30.7297 32.3564
30.7761 32.3059
30.8224 32.1015
30.8686 32.0259
30.915 31.7854
30.9612 31.6433
31.0076 31.5712
31.0538 31.3562
31.1002 31.3202
31.1464 31.1159
31.1928 31.0614
31.2391 31.0818
31.2855 31.0753
31.3317 31.0617
31.3781 31.1346
31.4244 30.9334
31.4708 31.009
31.5171 30.966
31.5636 31.0665
31.6098 30.6645
31.6563 30.5701
31.7026 30.4073
31.7491 30.2641
31.7953 30.3224
31.8418 30.3161
31.8881 30.2896
31.9346 30.3103
31.9809 30.1733
32.0275 30.024
32.074 30.0228
32.1203 29.8577
32.1668 29.784
32.2132 29.5639
32.2597 29.3192
32.306 29.2686
32.3526 29.2206
32.399 29.0448
32.4455 28.905
32.4919 28.7775
32.5385 28.7549
32.5848 28.6818
32.6314 28.6066
32.6778 28.5806
32.7244 28.5189
32.7708 28.242
32.8174 28.2292
32.8638 28.209
32.9104 28.2624
32.9569 28.2058
33.0035 28.0464
33.0499 28.0094
33.0966 27.806
33.143 27.9354
33.1897 27.8271
33.2361 27.8046
33.2828 27.624
33.3293 27.6132
33.3759 27.5694
33.4226 27.3778
33.4691 27.2612
33.5158 27.1574
33.5623 27.0213
33.609 26.8652
33.6555 26.6984
33.7022 26.8034
33.7487 26.7164
33.7954 26.6331
33.842 26.5481
33.8887 26.4386
33.9353 26.3826
33.982 26.3052
34.0286 26.2872
34.0753 26.1352
34.1219 26.0912
34.1687 25.9919
34.2152 25.9402
34.262 25.8297
34.3086 25.7244
34.3554 25.7137
34.402 25.5864
34.4488 25.4091
34.4954 25.404
34.5422 25.222
34.5889 25.2785
34.6357 25.0955
34.6825 25.0966
34.7292 24.9059
34.776 24.8529
34.8227 24.8812
34.8695 24.7951
34.9162 24.6573
34.9631 24.6769
35.0098 24.6314
35.0566 24.4871
35.1033 24.4468
35.1502 24.443
35.1969 24.2538
35.2438 24.2757
35.2906 24.274
35.3375 24.129
35.3842 24.1355
35.4311 24.1497
35.4779 24.1028
35.5248 24.0354
35.5716 23.9426
35.6185 23.7749
35.6653 23.7986
35.7123 23.6384
35.759 23.6315
35.806 23.5035
35.8528 23.3156
35.8998 23.3542
35.9468 23.2486
35.9936 23.22
36.0406 23.1463
36.0874 23.179
36.1345 22.9354
36.1813 22.9726
36.2283 22.8022
36.2752 22.7978
36.3222 22.7822
36.3691 22.6821
36.4161 22.5849
36.463 22.5445
36.5101 22.5514
36.557 22.4926
36.6041 22.3042
36.651 22.3032
36.6981 22.1862
36.745 22.1945
36.7921 22.0612
36.839 21.9651
36.8861 21.8965
36.9331 21.7976
36.9802 21.7973
37.0272 21.7217
37.0743 21.6934
37.1213 21.5874
37.1684 21.5726
37.2154 21.4786
37.2626 21.3495
37.3098 21.3027
37.3568 21.2776
37.404 21.2322
37.451 21.1017
37.4982 21.0291
37.5452 20.9623
37.5924 20.8825
37.6395 20.9956
37.6867 20.8161
37.7337 20.7378
37.781 20.618
37.8281 20.6681
37.8753 20.5306
37.9224 20.4712
37.9697 20.3845
38.0168 20.258
38.064 20.1921
38.1111 20.1769
38.1584 20.1304
38.2056 20.0858
38.2529 20.0704
38.3 19.9626
38.3473 19.9452
38.3945 19.8104
38.4418 19.8035
38.489 19.723
38.5363 19.6397
38.5837 19.4819
38.6309 19.5058
38.6782 19.4261
38.7254 19.3888
38.7728 19.2979
38.82 19.2862
38.8674 19.1517
38.9146 19.1757
38.9621 19.0962
39.0093 19.0499
39.0567 18.9702
39.104 18.8828
39.1514 18.8132
39.1987 18.7833
39.2461 18.7357
39.2934 18.6342
39.3409 18.5897
39.3882 18.5331
39.4356 18.4215
39.483 18.4278
39.5304 18.316
39.5778 18.323
39.6253 18.2353
39.6726 18.1565
39.7201 18.2161
39.7675 18.1327
39.815 17.989
39.8624 17.9449
39.9099 17.9269
39.9575 17.8581
40.0049 17.7971
40.0525 17.7163
40.0999 17.6924
40.1474 17.6731
40.1949 17.5696
40.2425 17.4852
40.2899 17.4942
40.3375 17.4119
40.385 17.3061
40.4326 17.2475
40.48 17.1979
40.5277 17.1795
40.5752 17.0916
40.6228 17.015
40.6703 17.044
40.718 17.032
40.7655 16.9334
40.8132 16.8888
40.8607 16.8573
40.9084 16.748
40.9559 16.7202
41.0036 16.7383
41.0512 16.608
41.0989 16.5677
41.1465 16.4458
41.1942 16.471
41.242 16.3236
41.2896 16.2981
41.3373 16.3003
41.3849 16.2268
41.4327 16.1671
41.4803 16.0653
41.5281 16.0086
41.5758 15.962
41.6236 15.9095
41.6712 15.8966
41.7191 15.8448
41.7667 15.7713
41.8146 15.7272
41.8622 15.6953
41.9101 15.6228
41.9578 15.5648
42.0057 15.5218
42.0534 15.44
42.1013 15.3773
42.149 15.3501
42.1969 15.307
42.2446 15.2583
42.2925 15.2187
42.3403 15.152
42.3882 15.0984
42.436 15.0696
42.4839 14.9687
42.5319 14.9902
42.5797 14.9012
42.6277 14.8646
42.6755 14.8166
42.7235 14.7605
42.7713 14.713
42.8193 14.7027
42.8671 14.6088
42.9152 14.6209
42.963 14.5294
43.0111 14.4853
43.0589 14.3865
43.107 14.3381
43.1549 14.2643
43.2029 14.2762
43.2508 14.2421
43.2989 14.1676
43.3468 14.1425
43.3949 14.0852
43.4429 13.9954
43.491 14.0171
43.5389 13.922
43.5871 13.8498
43.635 13.8197
43.6832 13.7923
43.7312 13.7073
43.7793 13.6601
43.8273 13.6261
43.8755 13.5793
43.9237 13.5424
43.9717 13.4992
44.0199 13.4611
44.068 13.3642
44.1162 13.3547
44.1642 13.3505
44.2125 13.268
44.2606 13.2559
44.3088 13.1436
44.3569 13.1404
44.4052 13.0694
44.4533 13.0639
44.5016 12.9784
44.5497 12.9255
44.598 12.9119
44.6461 12.8507
44.6945 12.801
44.7426 12.7498
44.791 12.6566
44.8391 12.6439
44.8875 12.5895
44.9357 12.6346
44.984 12.5454
45.0322 12.4969
45.0806 12.4284
45.1288 12.3865
45.1773 12.3808
45.2257 12.3538
45.2739 12.2752
45.3224 12.2348
45.3706 12.1589
45.4191 12.1185
45.4673 12.1398
45.5158 12.08
45.5641 11.9789
45.6126 11.9774
45.6609 11.9479
45.7094 11.895
45.7577 11.8063
45.8063 11.7785
45.8546 11.7805
45.9031 11.702
45.9515 11.6752
46.0001 11.653
46.0484 11.6099
46.097 11.5735
46.1454 11.5339
46.194 11.4649
46.2424 11.4539
46.291 11.3816
46.3395 11.3659
46.3881 11.2671
46.4365 11.3222
46.4852 11.2199
46.5337 11.1718
46.5823 11.1688
46.631 11.0995
46.6795 11.1085
46.7282 11.0655
46.7767 10.9772
46.8254 10.9226
46.8739 10.8989
46.9226 10.8787
46.9712 10.83
47.0199 10.8015
47.0685 10.7647
47.1173 10.7204
47.1658 10.6477
47.2146 10.6604
47.2632 10.5561
47.312 10.535
47.3606 10.4774
47.4095 10.4779
47.4581 10.4783
47.5069 10.3818
47.5556 10.3063
47.6044 10.3081
47.6531 10.2752
47.702 10.2177
47.7507 10.2215
47.7996 10.1357
47.8483 10.1246
47.8972 10.0769
47.9461 10.0295
47.9948 9.99775
48.0438 9.97007
48.0925 9.93256
48.1415 9.91416
48.1902 9.84983
48.2392 9.87262
48.288 9.77757
48.337 9.75096
48.3858 9.72449
48.4348 9.69551
48.4837 9.6664
48.5327 9.60865
48.5815 9.57198
48.6306 9.60657
48.6795 9.52272
48.7285 9.49041
48.7774 9.42815
48.8265 9.42744
48.8754 9.37294
48.9245 9.3691
48.9734 9.30761
49.0226 9.26613
49.0715 9.26257
49.1206 9.1959
49.1696 9.16203
49.2188 9.11946
49.2679 9.14113
49.3169 9.06601
49.3661 8.98277
49.4151 8.99699
49.4643 8.96941
49.5134 8.95719
49.5626 8.88809
49.6117 8.86998
49.6609 8.78132
49.71 8.77847
49.7592 8.74691
49.8083 8.70931
49.8576 8.6834
49.9067 8.62947
49.956 8.62009
50.0052 8.55897
50.0545 8.56555
50.1036 8.51565
50.153 8.49735
50.2022 8.49907
50.2515 8.43499
50.3007 8.39608
50.3501 8.36651
50.3993 8.3287
50.4487 8.321
50.498 8.26208
50.5474 8.20792
50.5966 8.1775
50.6461 8.17915
50.6955 8.13375
50.7448 8.10033
50.7943 8.07208
50.8436 8.02327
50.8931 7.97891
50.9424 7.98432
50.9919 7.9219
51.0413 7.94108
51.0908 7.90152
51.1402 7.84432
51.1897 7.76801
51.2391 7.7817
51.2887 7.75482
51.3381 7.75152
51.3877 7.63886
51.4371 7.62776
51.4867 7.59215
51.5362 7.58445
51.5858 7.59894
51.6353 7.5468
51.6849 7.52041
51.7344 7.4639
51.7841 7.42682
51.8336 7.36597
51.8833 7.36946
51.9328 7.29663
51.9826 7.32772
52.0323 7.27531
52.0818 7.2524
52.1316 7.23391
52.1812 7.21201
52.231 7.16308
52.2806 7.14752
52.3304 7.11856
52.38 7.09168
52.4298 7.0189
52.4794 7.03437
52.5293 6.99598
52.5789 6.95026
52.6288 6.95917
52.6785 6.83683
52.7284 6.89231
52.7781 6.85968
52.828 6.8514
52.8777 6.76658
52.9276 6.77114
52.9774 6.72247
53.0273 6.71383
53.0771 6.69946
53.1271 6.64439
53.1769 6.64713
53.2269 6.59874
53.2767 6.59279
53.3267 6.55785
53.3765 6.50404
53.4266 6.49455
53.4766 6.45088
53.5265 6.39159
53.5765 6.3927
53.6264 6.35334
53.6765 6.33352
53.7264 6.31828
53.7765 6.30368
53.8265 6.26903
53.8766 6.23292
53.9266 6.22579
53.9767 6.16881
54.0267 6.19129
54.0769 6.13782
54.1269 6.06425
54.1771 6.03422
54.2271 6.04173
54.2773 5.97867
54.3274 5.94575
54.3776 5.92996
54.4277 5.90544
54.478 5.92754
54.528 5.81798
54.5783 5.83004
54.6285 5.7842
54.6788 5.73148
54.7289 5.69704
54.7792 5.60305
54.8296 5.55104
54.8798 5.53944
54.9301 5.52112
54.9803 5.4949
55.0307 5.45476
55.0809 5.38965
55.1314 5.40329
55.1816 5.31831
55.232 5.2963
55.2823 5.26793
55.3328 5.18197
55.383 5.15082
55.4335 5.08513
55.4838 5.06605
55.5344 4.98967
55.5847 4.94393
55.6352 4.96163
55.6856 4.93246
55.7361 4.87552