File: XRD/Ni3Fe_FD0172.xy
TT I
1.27165 8.16037
1.31627 7.02487
1.36089 7.03354
1.40551 6.1503
1.45013 6.46711
1.49476 5.92361
1.53938 6.2716
1.584 5.7161
1.62863 5.90165
1.67325 6.01641
1.71787 5.24726
1.7625 5.21131
1.80712 5.082
1.85174 4.88218
1.89636 5.14581
1.94099 5.04708
1.98562 5.10902
2.03025 5.24862
2.07487 4.80299
2.11949 5.10343
2.16411 4.89696
2.20874 4.40199
2.25338 4.09205
2.298 4.25609
2.34263 4.08986
2.38725 3.91848
2.43188 4.62142
2.4765 4.8643
2.52115 3.69965
2.56577 4.77901
2.6104 5.50223
2.65503 5.56174
2.69965 6.31944
2.7443 6.00733
2.78893 6.99999
2.83356 7.50149
2.87818 7.9602
2.92281 8.55315
2.96744 9.59117
3.01209 10.4042
3.05672 11.2955
3.10135 12.4007
3.14599 13.1352
3.19062 14.7134
3.23527 14.6627
3.2799 15.8182
3.32454 16.5535
3.36917 17.8956
3.4138 18.7973
3.45844 19.1378
3.50309 20.7569
3.54773 21.0097
3.59237 21.8019
3.637 23.0041
3.68164 23.1388
3.7263 24.2461
3.77094 25.1711
3.81558 25.9017
3.86022 26.6902
3.90486 27.7923
3.9495 28.8467
3.99416 29.7967
4.0388 31.093
4.08344 32.1989
4.12809 32.6903
4.17273 34.1907
4.21738 35.8563
4.26204 36.7151
4.30669 38.2141
4.35133 40.0976
4.39598 41.5972
4.44063 43.4601
4.4853 45.1471
4.52995 47.7859
4.5746 49.4696
4.61925 52.0554
4.6639 54.2966
4.70855 56.9937
4.75322 59.5794
4.79788 62.5514
4.84253 66.603
4.88719 71.1383
4.93184 75.5079
4.97652 82.6306
5.02118 90.8812
5.06583 100.999
5.11049 116.378
5.15515 152.685
5.19981 527.813
5.24449 3755.33
5.28916 8561.78
5.33382 6181.74
5.37848 416.111
5.42315 160.29
5.46783 127.156
5.5125 114.039
5.55716 107.545
5.60183 101.917
5.6465 99.4894
5.69117 97.906
5.73586 95.5908
5.78053 94.7347
5.8252 95.8025
5.86988 98.129
5.91455 104.789
5.95924 123.048
6.00392 282.622
6.0486 1375.27
6.09328 2867.62
6.13795 4013.19
6.18263 640.799
6.22733 119.401
6.27201 88.7798
6.3167 78.7125
6.36138 72.9755
6.40606 69.0241
6.45075 66.6675
6.49545 64.4732
6.54014 63.0717
6.58483 61.5681
6.62952 59.9812
6.67421 58.9869
6.71892 57.7398
6.76361 56.891
6.8083 55.6472
6.853 55.2651
6.89769 55.2116
6.94239 54.3692
6.98711 53.8655
7.03181 53.4148
7.07651 53.4144
7.12121 52.7178
7.16591 52.3583
7.21063 52.1121
7.25533 51.996
7.30004 52.1327
7.34475 52.7225
7.38945 52.4964
7.43416 51.9407
7.47889 52.6789
7.5236 55.8011
7.56831 61.951
7.61303 55.4811
7.65774 53.5252
7.70247 54.363
7.74719 54.9336
7.79191 55.1086
7.83663 55.4883
7.88135 56.4109
7.92607 57.493
7.97081 58.9762
8.01553 59.261
8.06026 60.9676
8.10498 62.2864
8.14971 64.2863
8.19446 65.4689
8.23919 68.3734
8.28392 71.4396
8.32865 73.5451
8.37339 78.3757
8.41812 84.0125
8.46288 95.2835
8.50761 171.54
8.55235 590.989
8.59709 910.729
8.64183 1575.41
8.68658 1636.36
8.73134 397.33
8.77609 115.482
8.82083 97.1763
8.86558 91.6361
8.91033 88.3045
8.9551 85.3476
8.99985 84.3763
9.04461 83.5439
9.08936 82.8262
9.13412 81.6875
9.17888 82.0182
9.22365 86.8981
9.26841 95.3252
9.31318 86.4514
9.35794 82.6988
9.4027 82.463
9.44749 83.2086
9.49226 84.0779
9.53703 84.9006
9.5818 86.4576
9.62657 87.8464
9.67134 89.0917
9.71614 91.3244
9.76091 93.602
9.80569 95.9601
9.85047 99.4008
9.89525 104.105
9.94005 114.149
9.98484 184.297
10.0296 537.279
10.0744 750.146
10.1192 1079.14
10.164 1690.16
10.2088 942.923
10.2536 207.876
10.2984 116.519
10.3432 108.552
10.388 104.481
10.4328 121.341
10.4776 213.139
10.5224 265.93
10.5672 343.308
10.612 494.249
10.6568 364.162
10.7017 133.367
10.7465 90.5356
10.7913 83.9994
10.8361 81.0278
10.8809 78.5476
10.9257 76.1533
10.9706 74.7039
11.0154 73.1777
11.0602 71.791
11.105 70.3927
11.1499 69.0197
11.1947 68.0865
11.2395 67.1558
11.2844 66.5195
11.3292 65.7986
11.374 65.1294
11.4189 64.6629
11.4637 63.6848
11.5086 62.8075
11.5534 62.5802
11.5983 62.618
11.6431 62.4605
11.688 62.0412
11.7328 61.8792
11.7777 61.6241
11.8225 61.4629
11.8674 61.7373
11.9122 62.6451
11.9571 65.6388
12.002 65.4458
12.0468 67.6832
12.0917 90.5091
12.1366 108.442
12.1814 120.593
12.2263 155.441
12.2712 193.003
12.3161 135.881
12.3609 75.0867
12.4058 64.434
12.4507 63.6011
12.4956 63.6618
12.5405 63.6426
12.5853 64.0261
12.6302 63.9905
12.6751 64.9368
12.72 65.7533
12.7649 66.8961
12.8098 67.3244
12.8547 68.8487
12.8996 70.1266
12.9445 71.5405
12.9894 73.3771
13.0343 75.8012
13.0792 79.7066
13.1242 86.6162
13.1691 132.443
13.214 186.29
13.2589 209.4
13.3038 255.689
13.3487 362.255
13.3937 378.701
13.4386 203.061
13.4835 118.491
13.5285 153.166
13.5734 182.556
13.6183 198.465
13.6633 247.072
13.7082 339.993
13.7531 303.615
13.7981 149.167
13.843 88.1824
13.888 81.0708
13.9329 77.7511
13.9779 76.3347
14.0228 75.0203
14.0678 73.3867
14.1127 72.9844
14.1577 74.4398
14.2027 72.8643
14.2476 70.7374
14.2926 69.807
14.3376 69.6883
14.3825 68.9405
14.4275 68.5372
14.4725 68.5854
14.5175 68.7769
14.5624 68.773
14.6074 69.0849
14.6524 69.6265
14.6974 70.2567
14.7424 71.7282
14.7874 80.7608
14.8324 106.527
14.8774 121.427
14.9224 130.008
14.9674 153.9
15.0124 198.101
15.0574 204.483
15.1024 134.667
15.1474 81.4771
15.1924 71.504
15.2374 69.2649
15.2824 68.13
15.3274 67.45
15.3725 66.6585
15.4175 66.3676
15.4625 65.9229
15.5076 66.0491
15.5526 65.6295
15.5976 66.0121
15.6426 66.7292
15.6877 73.7543
15.7327 94.682
15.7778 107.483
15.8228 113.017
15.8679 128.557
15.9129 159.787
15.958 186.65
16.003 149.075
16.0481 87.2176
16.0931 66.2512
16.1382 62.0848
16.1833 60.6121
16.2283 59.2864
16.2734 58.527
16.3185 57.6169
16.3636 56.9852
16.4086 56.3958
16.4537 55.9161
16.4988 55.4203
16.5439 55.2632
16.589 54.9709
16.6341 54.849
16.6792 54.4439
16.7243 54.5572
16.7694 54.438
16.8145 54.4158
16.8596 54.6388
16.9047 54.8357
16.9498 55.1307
16.9949 55.2638
17.04 55.5893
17.0851 56.953
17.1302 61.246
17.1754 64.6231
17.2205 65.7772
17.2656 67.9866
17.3108 73.5948
17.3559 80.6812
17.401 81.3681
17.4462 70.5973
17.4913 61.648
17.5365 59.4881
17.5815 59.3464
17.6268 59.7861
17.6718 60.1144
17.7171 60.3203
17.7622 61.7413
17.8074 62.3383
17.8525 64.0336
17.8977 72.2548
17.9428 83.5949
17.9881 89.0098
18.0331 92.2921
18.0784 100.408
18.1237 117.848
18.1688 142.857
18.214 141.153
18.2591 110.201
18.3044 88.8408
18.3495 87.9362
18.3948 96.5347
18.4399 104.655
18.4852 95.0192
18.5303 76.0145
18.5756 65.0492
18.6207 62.4318
18.666 61.2215
18.7112 60.2712
18.7565 59.5714
18.8016 59.2493
18.8469 58.5765
18.892 58.0717
18.9374 57.7397
18.9825 57.2349
19.0278 57.013
19.073 57.0524
19.1183 57.5172
19.1635 59.9047
19.2088 61.8771
19.254 62.801
19.2993 63.9043
19.3447 66.3539
19.3898 70.0271
19.4352 74.2198
19.4804 72.149
19.5257 63.6058
19.5709 56.3096
19.6163 54.4577
19.6615 54.3465
19.7068 53.6792
19.752 53.778
19.7974 53.8883
19.8426 54.8585
19.888 57.1295
19.9332 58.3193
19.9786 59.2227
20.0238 59.8545
20.0692 62.7279
20.1144 67.6836
20.1598 72.7591
20.205 71.0685
20.2504 65.7403
20.2957 61.7647
20.3411 62.378
20.3863 65.3549
20.4318 64.5272
20.477 59.0592
20.5224 53.531
20.5677 51.3505
20.6131 50.6031
20.6586 50.0549
20.7038 50.0459
20.7493 49.5346
20.7945 49.4291
20.84 49.3778
20.8853 49.0797
20.9307 48.8663
20.976 48.9059
21.0215 49.2883
21.0668 49.7542
21.1122 49.8715
21.1575 49.9485
21.203 50.0543
21.2483 50.7919
21.2938 51.7309
21.3391 51.6576
21.3846 50.7252
21.4299 49.3394
21.4754 49.0493
21.5207 49.1264
21.5662 49.2772
21.6116 49.6588
21.6571 51.4211
21.7024 53.537
21.7479 54.3981
21.7933 54.8639
21.8388 56.5745
21.8843 59.4351
21.9297 62.8456
21.9752 66.5567
22.0206 65.8113
22.0661 60.9727
22.1115 56.5886
22.157 56.2895
22.2024 57.0007
22.248 55.2556
22.2933 52.534
22.3389 50.4358
22.3843 49.5302
22.4299 49.2062
22.4753 49.1324
22.5208 49.1672
22.5662 49.1728
22.6118 49.2499
22.6572 49.4441
22.7028 50.6864
22.7483 51.9032
22.7939 52.1079
22.8393 52.455
22.8849 53.0929
22.9303 54.0151
22.9759 55.7718
23.0214 57.8264
23.067 58.7655
23.1126 56.2802
23.1581 52.4979
23.2037 50.1372
23.2492 49.6728
23.2948 49.9745
23.3403 51.2999
23.3859 52.1129
23.4314 52.3316
23.477 52.2828
23.5225 52.9822
23.5682 54.3609
23.6137 56.6365
23.6593 58.2447
23.7048 57.3256
23.7505 53.3613
23.796 49.4123
23.8417 47.335
23.8872 46.4663
23.9329 45.8201
23.9784 45.6242
24.0241 45.4419
24.0697 45.196
24.1154 44.8466
24.1609 44.536
24.2066 44.2752
24.2522 44.2225
24.2979 43.8653
24.3434 43.8063
24.3892 43.6658
24.4349 43.5723
24.4805 43.2977
24.5262 43.3053
24.5718 43.4101
24.6175 43.184
24.6631 43.4985
24.7089 43.178
24.7545 43.0777
24.8002 42.6585
24.8458 42.8453
24.8916 42.7057
24.9372 42.9605
24.983 43.1916
25.0286 43.3805
25.0744 43.9996
25.12 44.2533
25.1658 44.6579
25.2114 44.998
25.2572 45.4228
25.3029 45.3137
25.3487 45.1887
25.3943 45.0755
25.4402 45.3616
25.4858 44.7024
25.5316 43.3579
25.5773 41.8919
25.6231 41.6827
25.669 41.2007
25.7147 41.1849
25.7605 41.1338
25.8062 41.1499
25.8521 41.4188
25.8977 41.3675
25.9436 41.2527
25.9893 41.3515
26.0352 41.6152
26.0809 41.6215
26.1268 41.9155
26.1725 42.2106
26.2184 42.2989
26.2641 41.6303
26.31 41.2841
26.3557 41.06
26.4017 41.1493
26.4474 41.207
26.4933 41.4238
26.5391 41.6374
26.585 41.7593
26.6308 42.1768
26.6767 42.5577
26.7225 43.058
26.7684 43.011
26.8142 42.2774
26.8601 41.5438
26.9059 41.077
26.9519 40.6933
26.9979 40.3417
27.0437 39.8822
27.0896 39.3692
27.1354 39.4969
27.1814 39.2141
27.2272 39.2138
27.2732 39.3808
27.3191 38.9692
27.3651 39.1358
27.4109 38.9387
27.4569 39.0069
27.5027 39.0201
27.5488 39.0721
27.5946 39.0796
27.6407 38.9089
27.6865 39.0599
27.7326 38.8226
27.7784 38.7446
27.8245 38.5822
27.8703 38.8117
27.9164 38.7882
27.9623 38.7463
28.0084 38.9845
28.0543 39.2136
28.1003 39.4916
28.1462 39.7062
28.1923 39.6396
28.2384 39.0409
28.2843 38.873
28.3304 38.2843
28.3764 37.8675
28.4225 37.3516
28.4684 37.0651
28.5145 36.5652
28.5605 36.4795
28.6066 36.2998
28.6526 36.3326
28.6987 36.16
28.7447 35.972
28.7908 35.7671
28.8368 35.7755
28.8829 35.786
28.9289 35.791
28.9751 35.7702
29.0211 35.5868
29.0673 35.3857
29.1133 35.3258
29.1595 35.0399
29.2055 35.0147
29.2517 34.8043
29.2977 34.6705
29.3439 34.5898
29.3899 34.5897
29.4361 34.6538
29.4824 34.4975
29.5284 34.5253
29.5746 34.2318
29.6207 33.7116
29.6669 33.6569
29.713 33.5562
29.7593 33.3038
29.8053 33.3286
29.8516 33.2619
29.8977 33.1949
29.9439 33.093
29.99 33.1094
30.0363 32.9806
30.0824 33.0499
30.1287 32.8549
30.1748 32.8166
30.2211 32.8661
30.2673 32.6618
30.3136 32.878
30.3597 32.9124
30.406 32.7322
30.4522 32.6697
30.4985 32.661
30.5447 32.672
30.591 32.5178
30.6372 32.4625
30.6835 32.4564
30.7297 32.6712
30.7761 32.6848
30.8224 32.7632
30.8686 32.6462
30.915 32.2863
30.9612 32.2005
31.0076 31.9652
31.0538 31.8224
31.1002 31.7778
31.1464 31.5536
31.1928 31.4619
31.2391 31.4533
31.2855 31.3588
31.3317 31.3902
31.3781 31.4114
31.4244 31.3123
31.4708 31.182
31.5171 31.2627
31.5636 31.3334
31.6098 31.343
31.6563 31.1326
31.7026 30.9413
31.7491 30.624
31.7953 30.6334
31.8418 30.6367
31.8881 30.6228
31.9346 30.5999
31.9809 30.4673
32.0275 30.4432
32.074 30.4619
32.1203 30.2407
32.1668 30.1607
32.2132 30.0021
32.2597 29.7709
32.306 29.7586
32.3526 29.528
32.399 29.4252
32.4455 29.2578
32.4919 29.1346
32.5385 29.1315
32.5848 28.9121
32.6314 28.9114
32.6778 28.8192
32.7244 28.7231
32.7708 28.617
32.8174 28.6018
32.8638 28.4446
32.9104 28.5606
32.9569 28.545
33.0035 28.3351
33.0499 28.3041
33.0966 28.1385
33.143 28.235
33.1897 28.041
33.2361 28.0178
33.2828 28.0854
33.3293 27.9409
33.3759 27.9305
33.4226 27.7992
33.4691 27.6686
33.5158 27.5392
33.5623 27.3738
33.609 27.2705
33.6555 27.1732
33.7022 26.9364
33.7487 26.9242
33.7954 26.8712
33.842 26.7617
33.8887 26.6401
33.9353 26.6092
33.982 26.6031
34.0286 26.4936
34.0753 26.3627
34.1219 26.3441
34.1687 26.208
34.2152 26.128
34.262 26.0729
34.3086 25.8827
34.3554 25.8718
34.402 25.8109
34.4488 25.7148
34.4954 25.6147
34.5422 25.6281
34.5889 25.4784
34.6357 25.3939
34.6825 25.2566
34.7292 25.2093
34.776 25.0971
34.8227 24.9517
34.8695 24.9747
34.9162 24.9678
34.9631 24.7746
35.0098 24.8642
35.0566 24.7932
35.1033 24.6448
35.1502 24.7073
35.1969 24.6574
35.2438 24.5875
35.2906 24.4153
35.3375 24.384
35.3842 24.3183
35.4311 24.3689
35.4779 24.2998
35.5248 24.2581
35.5716 24.1763
35.6185 24.042
35.6653 24.0146
35.7123 23.8744
35.759 23.8687
35.806 23.766
35.8528 23.6133
35.8998 23.5614
35.9468 23.531
35.9936 23.5662
36.0406 23.3637
36.0874 23.3017
36.1345 23.2812
36.1813 23.1146
36.2283 23.1247
36.2752 23.0006
36.3222 23.0334
36.3691 22.8367
36.4161 22.8179
36.463 22.7897
36.5101 22.7114
36.557 22.7097
36.6041 22.5329
36.651 22.5194
36.6981 22.4939
36.745 22.4944
36.7921 22.2539
36.839 22.2395
36.8861 22.2284
36.9331 22.1629
36.9802 22.027
37.0272 21.9007
37.0743 21.8342
37.1213 21.7711
37.1684 21.7237
37.2154 21.6626
37.2626 21.5863
37.3098 21.5234
37.3568 21.4377
37.404 21.4554
37.451 21.2831
37.4982 21.3302
37.5452 21.0937
37.5924 21.1369
37.6395 21.1356
37.6867 20.993
37.7337 20.881
37.781 20.8506
37.8281 20.8551
37.8753 20.7404
37.9224 20.6244
37.9697 20.5653
38.0168 20.5361
38.064 20.3975
38.1111 20.3922
38.1584 20.2919
38.2056 20.2748
38.2529 20.1899
38.3 20.1118
38.3473 20.1018
38.3945 19.9484
38.4418 20.0207
38.489 19.8405
38.5363 19.8184
38.5837 19.7274
38.6309 19.6807
38.6782 19.6251
38.7254 19.5469
38.7728 19.5205
38.82 19.4815
38.8674 19.4045
38.9146 19.3056
38.9621 19.2565
39.0093 19.1892
39.0567 19.106
39.104 19.0958
39.1514 19.0563
39.1987 18.9956
39.2461 18.9814
39.2934 18.7869
39.3409 18.7468
39.3882 18.6701
39.4356 18.6447
39.483 18.5844
39.5304 18.506
39.5778 18.4684
39.6253 18.4264
39.6726 18.3763
39.7201 18.3327
39.7675 18.2074
39.815 18.1577
39.8624 18.1893
39.9099 18.082
39.9575 18.0063
40.0049 17.8932
40.0525 17.8836
40.0999 17.8421
40.1474 17.8034
40.1949 17.6592
40.2425 17.7209
40.2899 17.6221
40.3375 17.5815
40.385 17.4854
40.4326 17.4328
40.48 17.382
40.5277 17.3776
40.5752 17.2942
40.6228 17.2064
40.6703 17.1879
40.718 17.1506
40.7655 17.1237
40.8132 16.9617
40.8607 16.9961
40.9084 16.9082
40.9559 16.8671
41.0036 16.8451
41.0512 16.7342
41.0989 16.7777
41.1465 16.611
41.1942 16.6431
41.242 16.5013
41.2896 16.502
41.3373 16.4415
41.3849 16.3413
41.4327 16.2782
41.4803 16.226
41.5281 16.1772
41.5758 16.1386
41.6236 16.0903
41.6712 16.0518
41.7191 15.9673
41.7667 15.9006
41.8146 15.9098
41.8622 15.815
41.9101 15.8635
41.9578 15.642
42.0057 15.6722
42.0534 15.6298
42.1013 15.5756
42.149 15.4652
42.1969 15.4532
42.2446 15.4004
42.2925 15.3559
42.3403 15.248
42.3882 15.2767
42.436 15.1393
42.4839 15.1244
42.5319 15.112
42.5797 15.0305
42.6277 14.9651
42.6755 14.9148
42.7235 14.8468
42.7713 14.8747
42.8193 14.857
42.8671 14.7379
42.9152 14.6527
42.963 14.5957
43.0111 14.5477
43.0589 14.5457
43.107 14.567
43.1549 14.4183
43.2029 14.3644
43.2508 14.3701
43.2989 14.2918
43.3468 14.2009
43.3949 14.2394
43.4429 14.118
43.491 14.0491
43.5389 14.077
43.5871 13.992
43.635 13.9674
43.6832 13.8571
43.7312 13.8519
43.7793 13.7947
43.8273 13.8049
43.8755 13.7031
43.9237 13.656
43.9717 13.6173
44.0199 13.5483
44.068 13.5478
44.1162 13.4419
44.1642 13.4033
44.2125 13.3898
44.2606 13.3605
44.3088 13.2533
44.3569 13.2652
44.4052 13.1664
44.4533 13.1752
44.5016 13.0747
44.5497 13.0343
44.598 13.0742
44.6461 12.9163
44.6945 12.8751
44.7426 12.8674
44.791 12.7999
44.8391 12.7716
44.8875 12.7106
44.9357 12.6838
44.984 12.6308
45.0322 12.5978
45.0806 12.5482
45.1288 12.523
45.1773 12.4666
45.2257 12.4317
45.2739 12.3495
45.3224 12.3489
45.3706 12.3121
45.4191 12.2224
45.4673 12.219
45.5158 12.1647
45.5641 12.1077
45.6126 12.1054
45.6609 12.0217
45.7094 12.0073
45.7577 11.9482
45.8063 11.8849
45.8546 11.8837
45.9031 11.8154
45.9515 11.7988
46.0001 11.7681
46.0484 11.6923
46.097 11.6734
46.1454 11.6033
46.194 11.5756
46.2424 11.4959
46.291 11.4823
46.3395 11.4449
46.3881 11.3977
46.4365 11.3772
46.4852 11.2987
46.5337 11.2779
46.5823 11.2674
46.631 11.2141
46.6795 11.1589
46.7282 11.1101
46.7767 11.0735
46.8254 11.0043
46.8739 10.9759
46.9226 10.9263
46.9712 10.9168
47.0199 10.8394
47.0685 10.8236
47.1173 10.7997
47.1658 10.7493
47.2146 10.6685
47.2632 10.6378
47.312 10.631
47.3606 10.5721
47.4095 10.5173
47.4581 10.5071
47.5069 10.4412
47.5556 10.4181
47.6044 10.4064
47.6531 10.3827
47.702 10.3349
47.7507 10.2833
47.7996 10.202
47.8483 10.1991
47.8972 10.1764
47.9461 10.0882
47.9948 10.105
48.0438 10.0706
48.0925 10.0363
48.1415 10.0203
48.1902 9.93489
48.2392 9.92036
48.288 9.91922
48.337 9.81937
48.3858 9.76525
48.4348 9.76584
48.4837 9.79011
48.5327 9.72614
48.5815 9.65378
48.6306 9.61206
48.6795 9.61195
48.7285 9.53478
48.7774 9.51218
48.8265 9.49315
48.8754 9.46343
48.9245 9.44759
48.9734 9.38865
49.0226 9.34115
49.0715 9.3252
49.1206 9.24519
49.1696 9.2363
49.2188 9.22919
49.2679 9.12982
49.3169 9.09143
49.3661 9.06158
49.4151 9.07598
49.4643 9.04521
49.5134 9.01516
49.5626 8.96302
49.6117 8.96477
49.6609 8.92965
49.71 8.8413
49.7592 8.82506
49.8083 8.75071
49.8576 8.77772
49.9067 8.73469
49.956 8.74745
50.0052 8.66219
50.0545 8.62831
50.1036 8.58938
50.153 8.55912
50.2022 8.49751
50.2515 8.514
50.3007 8.46236
50.3501 8.40677
50.3993 8.38414
50.4487 8.36124
50.498 8.32928
50.5474 8.34039
50.5966 8.26519
50.6461 8.26058
50.6955 8.22367
50.7448 8.19282
50.7943 8.1384
50.8436 8.11405
50.8931 8.06062
50.9424 8.04741
50.9919 8.0044
51.0413 8.00358
51.0908 7.94232
51.1402 7.93435
51.1897 7.90476
51.2391 7.86761
51.2887 7.84598
51.3381 7.78082
51.3877 7.75812
51.4371 7.73117
51.4867 7.68148
51.5362 7.65592
51.5858 7.63011
51.6353 7.59898
51.6849 7.57181
51.7344 7.56351
51.7841 7.54207
51.8336 7.49752
51.8833 7.43392
51.9328 7.42736
51.9826 7.38846
52.0323 7.3636
52.0818 7.3245
52.1316 7.27805
52.1812 7.31424
52.231 7.24615
52.2806 7.1883
52.3304 7.18017
52.38 7.14424
52.4298 7.11973
52.4794 7.07858
52.5293 7.03985
52.5789 7.00065
52.6288 7.0346
52.6785 6.94251
52.7284 6.97951
52.7781 6.89732
52.828 6.90151
52.8777 6.85664
52.9276 6.86391
52.9774 6.83565
53.0273 6.78859
53.0771 6.74129
53.1271 6.71568
53.1769 6.66748
53.2269 6.66946
53.2767 6.64591
53.3267 6.57902
53.3765 6.59483
53.4266 6.51117
53.4766 6.56232
53.5265 6.42995
53.5765 6.43652
53.6264 6.44364
53.6765 6.38254
53.7264 6.36678
53.7765 6.38718
53.8265 6.28775
53.8766 6.27276
53.9266 6.28793
53.9767 6.24203
54.0267 6.2247
54.0769 6.15155
54.1269 6.13492
54.1771 6.1024
54.2271 6.06331
54.2773 6.03361
54.3274 6.0352
54.3776 5.92912
54.4277 5.88239
54.478 5.90724
54.528 5.8667
54.5783 5.80417
54.6285 5.7608
54.6788 5.69796
54.7289 5.68286
54.7792 5.59938
54.8296 5.59628
54.8798 5.48807
54.9301 5.48132
54.9803 5.44334
55.0307 5.46478
55.0809 5.35777
55.1314 5.37419
55.1816 5.28168
55.232 5.20729
55.2823 5.15263
55.3328 5.13356
55.383 5.05331
55.4335 5.00039
55.4838 5.01424
55.5344 4.94017
55.5847 4.9294
55.6352 4.90712
55.6856 4.87166
55.7361 4.81791