File: XRD/Ni3Fe_FD0281.xy
TT I
1.27165 7.71922
1.31627 6.18535
1.36089 7.1461
1.40551 6.8348
1.45013 6.17949
1.49476 6.31662
1.53938 6.18623
1.584 5.56779
1.62863 5.41686
1.67325 5.44723
1.71787 5.76839
1.7625 4.94201
1.80712 4.74512
1.85174 4.89625
1.89636 5.40171
1.94099 5.19437
1.98562 4.58414
2.03025 4.74046
2.07487 4.89602
2.11949 4.6824
2.16411 4.95714
2.20874 14.7067
2.25338 25.6149
2.298 5.80872
2.34263 4.68229
2.38725 4.50614
2.43188 5.61854
2.4765 5.18303
2.52115 6.0399
2.56577 6.18019
2.6104 6.70321
2.65503 6.98198
2.69965 6.77589
2.7443 6.93948
2.78893 7.22309
2.83356 7.76176
2.87818 8.67395
2.92281 8.48991
2.96744 9.07313
3.01209 10.6166
3.05672 11.1479
3.10135 11.895
3.14599 13.0295
3.19062 14.5767
3.23527 15.3042
3.2799 15.8276
3.32454 17.1812
3.36917 18.2921
3.4138 18.8374
3.45844 20.101
3.50309 21.0549
3.54773 22.2833
3.59237 24.4239
3.637 99.8856
3.68164 64.0756
3.7263 26.7811
3.77094 26.6038
3.81558 27.5588
3.86022 28.3713
3.90486 29.8232
3.9495 30.564
3.99416 31.4072
4.0388 33.0867
4.08344 34.4072
4.12809 36.1823
4.17273 38.7147
4.21738 44.8255
4.26204 268.159
4.30669 241.335
4.35133 51.5431
4.39598 45.9432
4.44063 55.8945
4.4853 68.9138
4.52995 54.4274
4.5746 53.6291
4.61925 55.292
4.6639 57.5103
4.70855 59.6284
4.75322 63.2308
4.79788 66.3813
4.84253 69.656
4.88719 74.9478
4.93184 78.3984
4.97652 84.6295
5.02118 92.2245
5.06583 101.16
5.11049 115.83
5.15515 201.599
5.19981 515.7
5.24449 3239.02
5.28916 10891.6
5.33382 4157.78
5.37848 263.397
5.42315 148.14
5.46783 125.311
5.5125 114.257
5.55716 108.447
5.60183 104.51
5.6465 102.256
5.69117 99.6767
5.73586 97.6366
5.78053 97.6292
5.8252 97.735
5.86988 98.6737
5.91455 102.088
5.95924 114.404
6.00392 267.161
6.0486 1120.85
6.09328 3673.78
6.13795 3697.89
6.18263 373.765
6.22733 107.486
6.27201 90.4088
6.3167 110.039
6.36138 85.4477
6.40606 72.752
6.45075 70.6486
6.49545 68.4934
6.54014 66.5127
6.58483 65.9651
6.62952 65.5449
6.67421 97.9334
6.71892 155.861
6.76361 72.3037
6.8083 61.2616
6.853 59.8294
6.89769 59.3241
6.94239 58.7404
6.98711 58.0971
7.03181 57.9569
7.07651 57.4805
7.12121 57.3255
7.16591 57.8056
7.21063 58.3023
7.25533 73.1602
7.30004 195.469
7.34475 99.224
7.38945 59.1374
7.43416 56.625
7.47889 56.3076
7.5236 56.7729
7.56831 57.5056
7.61303 59.5051
7.65774 59.9971
7.70247 58.4842
7.74719 58.3476
7.79191 59.0147
7.83663 59.0485
7.88135 59.9306
7.92607 60.797
7.97081 62.673
8.01553 63.218
8.06026 64.7411
8.10498 66.4025
8.14971 76.9299
8.19446 76.0457
8.23919 72.2349
8.28392 74.8515
8.32865 77.4744
8.37339 81.6641
8.41812 89.6971
8.46288 123.767
8.50761 194.219
8.55235 461.737
8.59709 1048.44
8.64183 2068.76
8.68658 1303.88
8.73134 241.728
8.77609 109.195
8.82083 98.8159
8.86558 94.4407
8.91033 94.4244
8.9551 95.9795
8.99985 89.0882
9.04461 87.0657
9.08936 86.432
9.13412 85.2771
9.17888 85.1848
9.22365 86.3396
9.26841 85.2851
9.31318 86.5778
9.35794 86.7974
9.4027 87.2781
9.44749 87.2735
9.49226 87.6225
9.53703 88.7981
9.5818 91.1237
9.62657 96.0435
9.67134 103.271
9.71614 97.5489
9.76091 98.0717
9.80569 100.793
9.85047 104.642
9.89525 130.978
9.94005 147.502
9.98484 202.637
10.0296 406.784
10.0744 745.106
10.1192 1490.47
10.164 1761.87
10.2088 591.822
10.2536 151.589
10.2984 121.619
10.3432 122.3
10.388 111.001
10.4328 128.217
10.4776 178.844
10.5224 264.329
10.5672 455.229
10.612 542.019
10.6568 260.578
10.7017 108.544
10.7465 91.5325
10.7913 87.3667
10.8361 84.6335
10.8809 82.1759
10.9257 81.9523
10.9706 83.0202
11.0154 78.1055
11.0602 75.8392
11.105 74.8853
11.1499 79.5213
11.1947 88.2312
11.2395 78.3686
11.2844 73.648
11.3292 70.2507
11.374 68.607
11.4189 68.4837
11.4637 67.5561
11.5086 68.2053
11.5534 71.4719
11.5983 68.6151
11.6431 66.2261
11.688 65.5284
11.7328 65.5314
11.7777 65.3753
11.8225 64.9392
11.8674 64.8161
11.9122 65.2647
11.9571 65.4411
12.002 66.593
12.0468 71.7415
12.0917 86.1034
12.1366 104.673
12.1814 140.952
12.2263 196.039
12.2712 191.049
12.3161 114.506
12.3609 76.3856
12.4058 67.7687
12.4507 67.0401
12.4956 67.2189
12.5405 67.3777
12.5853 68.278
12.6302 76.5634
12.6751 83.0185
12.72 73.3522
12.7649 70.7255
12.8098 71.0154
12.8547 72.5528
12.8996 73.7308
12.9445 74.9976
12.9894 76.9793
13.0343 78.7188
13.0792 82.4516
13.1242 93.2049
13.1691 123.534
13.214 158.507
13.2589 219.143
13.3038 327.716
13.3487 432.651
13.3937 320.953
13.4386 151.256
13.4835 115.329
13.5285 133.702
13.5734 161.741
13.6183 222.087
13.6633 317.327
13.7082 363.788
13.7531 237.9
13.7981 113.531
13.843 86.6665
13.888 83.5549
13.9329 80.5621
13.9779 78.9615
14.0228 77.1905
14.0678 75.9516
14.1127 75.6041
14.1577 75.4196
14.2027 74.6213
14.2476 73.2136
14.2926 73.4551
14.3376 74.822
14.3825 73.2311
14.4275 71.6753
14.4725 71.3709
14.5175 71.7216
14.5624 71.6615
14.6074 74.2982
14.6524 74.7756
14.6974 73.5128
14.7424 75.3035
14.7874 83.7922
14.8324 96.4625
14.8774 112.496
14.9224 142.289
14.9674 189.941
15.0124 223.323
15.0574 175.066
15.1024 106.326
15.1474 77.4447
15.1924 73.8355
15.2374 74.6511
15.2824 73.7089
15.3274 70.9762
15.3725 69.5786
15.4175 69.0535
15.4625 68.9489
15.5076 68.9745
15.5526 68.9837
15.5976 68.7071
15.6426 69.7077
15.6877 76.4896
15.7327 86.3324
15.7778 97.5622
15.8228 118.778
15.8679 154.888
15.9129 191.439
15.958 177.32
16.003 116.694
16.0481 74.8871
16.0931 68.2053
16.1382 65.9801
16.1833 63.4601
16.2283 61.4957
16.2734 61.1105
16.3185 61.2293
16.3636 62.1586
16.4086 60.4404
16.4537 58.7843
16.4988 57.6863
16.5439 57.802
16.589 57.5629
16.6341 57.1405
16.6792 56.726
16.7243 57.0606
16.7694 57.3214
16.8145 57.1445
16.8596 57.5694
16.9047 59.2909
16.9498 59.6132
16.9949 57.9949
17.04 58.2083
17.0851 59.5724
17.1302 61.8757
17.1754 64.3955
17.2205 67.7012
17.2656 73.6171
17.3108 81.8097
17.3559 85.7289
17.401 77.5426
17.4462 67.0026
17.4913 61.9878
17.5365 61.6535
17.5815 61.5312
17.6268 61.9914
17.6718 62.8028
17.7171 63.2659
17.7622 63.7152
17.8074 64.5131
17.8525 67.1227
17.8977 72.4063
17.9428 78.5656
17.9881 84.5695
18.0331 96.4351
18.0784 114.741
18.1237 137.104
18.1688 142.27
18.214 117.776
18.2591 92.8639
18.3044 89.9553
18.3495 97.8886
18.3948 107.967
18.4399 104.323
18.4852 85.837
18.5303 70.7591
18.5756 65.1714
18.6207 64.062
18.666 63.202
18.7112 62.3568
18.7565 61.468
18.8016 61.1183
18.8469 60.5057
18.892 60.1444
18.9374 59.526
18.9825 59.3526
19.0278 59.4598
19.073 59.3704
19.1183 59.9554
19.1635 61.2005
19.2088 62.4622
19.254 63.9231
19.2993 66.8162
19.3447 72.3044
19.3898 78.0727
19.4352 77.168
19.4804 68.9219
19.5257 60.8715
19.5709 56.8165
19.6163 56.1097
19.6615 55.9481
19.7068 55.5329
19.752 55.4702
19.7974 55.9122
19.8426 56.9314
19.888 57.8748
19.9332 58.6265
19.9786 60.1307
20.0238 62.8793
20.0692 67.3001
20.1144 71.4488
20.1598 72.0201
20.205 67.3346
20.2504 64.1418
20.2957 64.5519
20.3411 66.9349
20.3863 67.6739
20.4318 62.6201
20.477 57.1184
20.5224 54.2251
20.5677 53.5465
20.6131 52.4553
20.6586 51.9403
20.7038 51.7517
20.7493 51.3669
20.7945 51.0835
20.84 50.7304
20.8853 50.6542
20.9307 50.56
20.976 50.7183
21.0215 50.6275
21.0668 51.0656
21.1122 51.3057
21.1575 51.8916
21.203 52.2734
21.2483 53.0584
21.2938 53.6561
21.3391 52.4416
21.3846 51.3112
21.4299 50.4806
21.4754 50.6129
21.5207 50.6051
21.5662 50.8227
21.6116 51.3187
21.6571 52.2839
21.7024 53.3485
21.7479 54.5172
21.7933 56.4095
21.8388 59.276
21.8843 63.0822
21.9297 66.3478
21.9752 66.6943
22.0206 63.4108
22.0661 59.0959
22.1115 57.8597
22.157 58.12
22.2024 57.2545
22.248 54.3865
22.2933 52.4289
22.3389 51.3081
22.3843 51.1077
22.4299 51.0734
22.4753 51.0985
22.5208 50.7243
22.5662 50.4135
22.6118 50.7176
22.6572 50.8803
22.7028 51.5139
22.7483 51.9583
22.7939 52.4069
22.8393 53.4373
22.8849 55.0229
22.9303 56.8755
22.9759 59.0807
23.0214 59.86
23.067 58.2507
23.1126 54.3448
23.1581 51.8926
23.2037 50.8206
23.2492 50.8932
23.2948 51.022
23.3403 51.2674
23.3859 51.8255
23.4314 52.4089
23.477 53.6334
23.5225 55.5567
23.5682 57.8653
23.6137 59.7916
23.6593 58.839
23.7048 54.9588
23.7505 51.2671
23.796 48.7823
23.8417 48.1028
23.8872 47.5027
23.9329 47.0524
23.9784 46.7642
24.0241 46.5069
24.0697 46.4905
24.1154 46.0938
24.1609 45.8634
24.2066 45.6502
24.2522 45.4018
24.2979 45.1983
24.3434 45.1356
24.3892 44.8886
24.4349 44.7515
24.4805 44.7028
24.5262 44.8626
24.5718 44.5938
24.6175 44.637
24.6631 44.7629
24.7089 44.4092
24.7545 44.1484
24.8002 43.969
24.8458 43.9281
24.8916 43.8929
24.9372 43.8343
24.983 44.2169
25.0286 44.4684
25.0744 44.7367
25.12 45.2013
25.1658 45.8144
25.2114 46.3988
25.2572 46.3433
25.3029 46.4114
25.3487 46.5226
25.3943 46.5013
25.4402 45.91
25.4858 44.6231
25.5316 43.6245
25.5773 42.6986
25.6231 42.585
25.669 42.2603
25.7147 42.1496
25.7605 42.1475
25.8062 42.2626
25.8521 42.2868
25.8977 42.0747
25.9436 42.2866
25.9893 42.3852
26.0352 42.9158
26.0809 43.197
26.1268 43.3396
26.1725 43.1619
26.2184 42.6893
26.2641 42.0672
26.31 41.85
26.3557 42.0162
26.4017 41.7251
26.4474 42.0624
26.4933 42.2715
26.5391 42.6696
26.585 43.0016
26.6308 43.4322
26.6767 43.6503
26.7225 43.7871
26.7684 43.2514
26.8142 42.7596
26.8601 42.1743
26.9059 41.8462
26.9519 41.3016
26.9979 40.991
27.0437 40.5537
27.0896 40.2984
27.1354 40.3418
27.1814 40.1804
27.2272 40.2239
27.2732 40.145
27.3191 39.8239
27.3651 39.9961
27.4109 39.8614
27.4569 40.0002
27.5027 39.8835
27.5488 40.2019
27.5946 40.0219
27.6407 39.7346
27.6865 39.6643
27.7326 39.4292
27.7784 39.2822
27.8245 39.2518
27.8703 39.5484
27.9164 39.6659
27.9623 39.8433
28.0084 40.0445
28.0543 40.356
28.1003 40.6103
28.1462 40.309
28.1923 40.1746
28.2384 39.5532
28.2843 39.2706
28.3304 38.7946
28.3764 38.3767
28.4225 37.9224
28.4684 37.8373
28.5145 37.388
28.5605 37.2116
28.6066 37.0532
28.6526 37.1495
28.6987 37.0004
28.7447 36.8627
28.7908 36.7843
28.8368 37.0239
28.8829 36.847
28.9289 36.8216
28.9751 36.5949
29.0211 36.436
29.0673 36.181
29.1133 36.0237
29.1595 35.8919
29.2055 35.8145
29.2517 35.7562
29.2977 35.6083
29.3439 35.4851
29.3899 35.6292
29.4361 35.5072
29.4824 35.3672
29.5284 35.1662
29.5746 34.8315
29.6207 34.5216
29.6669 34.4224
29.713 34.3277
29.7593 34.2813
29.8053 34.2758
29.8516 34.1141
29.8977 34.0943
29.9439 33.9938
29.99 33.9009
30.0363 33.8309
30.0824 33.8787
30.1287 33.7356
30.1748 33.7191
30.2211 33.7953
30.2673 33.5437
30.3136 33.6926
30.3597 33.5758
30.406 33.4497
30.4522 33.4276
30.4985 33.3744
30.5447 33.4224
30.591 33.4813
30.6372 33.3982
30.6835 33.4981
30.7297 33.4934
30.7761 33.4961
30.8224 33.4099
30.8686 33.1832
30.915 32.945
30.9612 32.825
31.0076 32.7262
31.0538 32.4705
31.1002 32.374
31.1464 32.1387
31.1928 32.1907
31.2391 32.2109
31.2855 32.0623
31.3317 32.0824
31.3781 32.1602
31.4244 32.1047
31.4708 32.1051
31.5171 32.0242
31.5636 32.1769
31.6098 31.7748
31.6563 31.5805
31.7026 31.4627
31.7491 31.3907
31.7953 31.3843
31.8418 31.32
31.8881 31.3663
31.9346 31.193
31.9809 31.221
32.0275 31.1306
32.074 31.0525
32.1203 30.8777
32.1668 30.7614
32.2132 30.5653
32.2597 30.4579
32.306 30.4532
32.3526 30.1969
32.399 30.2102
32.4455 29.9546
32.4919 29.938
32.5385 29.9132
32.5848 29.6774
32.6314 29.6868
32.6778 29.6159
32.7244 29.4937
32.7708 29.2533
32.8174 29.325
32.8638 29.1999
32.9104 29.2723
32.9569 29.1272
33.0035 29.0453
33.0499 29.0028
33.0966 28.8403
33.143 29.0227
33.1897 28.8113
33.2361 28.6836
33.2828 28.7384
33.3293 28.5349
33.3759 28.5273
33.4226 28.4204
33.4691 28.2537
33.5158 28.2086
33.5623 28.0443
33.609 27.9249
33.6555 27.7223
33.7022 27.7783
33.7487 27.5958
33.7954 27.5175
33.842 27.4175
33.8887 27.4386
33.9353 27.354
33.982 27.1964
34.0286 27.1626
34.0753 26.9938
34.1219 26.9233
34.1687 26.8881
34.2152 26.897
34.262 26.6856
34.3086 26.5818
34.3554 26.5778
34.402 26.427
34.4488 26.3533
34.4954 26.2494
34.5422 26.2243
34.5889 26.0941
34.6357 26.0023
34.6825 25.9312
34.7292 25.7775
34.776 25.6702
34.8227 25.7397
34.8695 25.6552
34.9162 25.5767
34.9631 25.4798
35.0098 25.5089
35.0566 25.3356
35.1033 25.2793
35.1502 25.2575
35.1969 25.1777
35.2438 25.1967
35.2906 25.1205
35.3375 25.0333
35.3842 24.9408
35.4311 24.8887
35.4779 24.952
35.5248 24.8802
35.5716 24.7237
35.6185 24.6889
35.6653 24.5923
35.7123 24.4452
35.759 24.4966
35.806 24.3157
35.8528 24.2056
35.8998 24.1881
35.9468 24.1487
35.9936 24.0061
36.0406 23.973
36.0874 23.9745
36.1345 23.9155
36.1813 23.7437
36.2283 23.5893
36.2752 23.5489
36.3222 23.5177
36.3691 23.493
36.4161 23.2981
36.463 23.3069
36.5101 23.3411
36.557 23.298
36.6041 23.133
36.651 23.1382
36.6981 22.9933
36.745 23.0104
36.7921 22.8966
36.839 22.8212
36.8861 22.6673
36.9331 22.6441
36.9802 22.6086
37.0272 22.4389
37.0743 22.3558
37.1213 22.2968
37.1684 22.2922
37.2154 22.2491
37.2626 22.1225
37.3098 22.0868
37.3568 21.9963
37.404 21.9573
37.451 21.9227
37.4982 21.8086
37.5452 21.7222
37.5924 21.6438
37.6395 21.6748
37.6867 21.5658
37.7337 21.4403
37.781 21.3003
37.8281 21.3487
37.8753 21.2393
37.9224 21.1534
37.9697 21.0131
38.0168 20.9766
38.064 20.9565
38.1111 20.9296
38.1584 20.7544
38.2056 20.7769
38.2529 20.6932
38.3 20.6532
38.3473 20.6335
38.3945 20.4797
38.4418 20.521
38.489 20.4322
38.5363 20.3233
38.5837 20.2819
38.6309 20.2078
38.6782 20.1455
38.7254 20.0542
38.7728 19.9888
38.82 19.9456
38.8674 19.8212
38.9146 19.8619
38.9621 19.7813
39.0093 19.7224
39.0567 19.6474
39.104 19.5862
39.1514 19.4556
39.1987 19.4894
39.2461 19.4932
39.2934 19.3008
39.3409 19.2745
39.3882 19.2167
39.4356 19.0934
39.483 19.0404
39.5304 18.9189
39.5778 18.902
39.6253 18.8927
39.6726 18.8684
39.7201 18.7717
39.7675 18.7218
39.815 18.6298
39.8624 18.5961
39.9099 18.5643
39.9575 18.4694
40.0049 18.416
40.0525 18.3739
40.0999 18.3191
40.1474 18.2576
40.1949 18.1545
40.2425 18.146
40.2899 18.0852
40.3375 18.0436
40.385 17.8988
40.4326 17.8585
40.48 17.8556
40.5277 17.767
40.5752 17.7437
40.6228 17.6545
40.6703 17.638
40.718 17.5078
40.7655 17.4697
40.8132 17.4409
40.8607 17.4405
40.9084 17.3615
40.9559 17.2778
41.0036 17.2688
41.0512 17.2268
41.0989 17.121
41.1465 17.0743
41.1942 17.0046
41.242 16.9073
41.2896 16.889
41.3373 16.8082
41.3849 16.7849
41.4327 16.6914
41.4803 16.6024
41.5281 16.6123
41.5758 16.5401
41.6236 16.4853
41.6712 16.4292
41.7191 16.3785
41.7667 16.3686
41.8146 16.3115
41.8622 16.2528
41.9101 16.1349
41.9578 16.0376
42.0057 16.0376
42.0534 15.9811
42.1013 16.0111
42.149 15.9136
42.1969 15.7874
42.2446 15.8036
42.2925 15.7589
42.3403 15.7159
42.3882 15.6797
42.436 15.5862
42.4839 15.5019
42.5319 15.4857
42.5797 15.4514
42.6277 15.3345
42.6755 15.3375
42.7235 15.2436
42.7713 15.2412
42.8193 15.192
42.8671 15.138
42.9152 15.0691
42.963 15.0041
43.0111 14.9485
43.0589 14.8388
43.107 14.8519
43.1549 14.7894
43.2029 14.7308
43.2508 14.716
43.2989 14.6661
43.3468 14.5637
43.3949 14.5376
43.4429 14.5342
43.491 14.3863
43.5389 14.4285
43.5871 14.3831
43.635 14.2967
43.6832 14.2297
43.7312 14.1783
43.7793 14.1701
43.8273 14.1274
43.8755 14.0412
43.9237 14.0094
43.9717 13.9789
44.0199 13.9322
44.068 13.904
44.1162 13.8012
44.1642 13.7659
44.2125 13.6946
44.2606 13.6572
44.3088 13.6077
44.3569 13.548
44.4052 13.5611
44.4533 13.4748
44.5016 13.4079
44.5497 13.3834
44.598 13.3385
44.6461 13.3086
44.6945 13.1818
44.7426 13.1964
44.791 13.0983
44.8391 13.1525
44.8875 13.0486
44.9357 13.0364
44.984 12.9555
45.0322 12.889
45.0806 12.9087
45.1288 12.8193
45.1773 12.7984
45.2257 12.7802
45.2739 12.7332
45.3224 12.6764
45.3706 12.5779
45.4191 12.5419
45.4673 12.475
45.5158 12.469
45.5641 12.3997
45.6126 12.384
45.6609 12.323
45.7094 12.2831
45.7577 12.2669
45.8063 12.208
45.8546 12.1416
45.9031 12.1126
45.9515 12.0532
46.0001 12.019
46.0484 11.9844
46.097 11.9467
46.1454 11.8928
46.194 11.8706
46.2424 11.8149
46.291 11.7545
46.3395 11.7404
46.3881 11.6627
46.4365 11.6378
46.4852 11.6221
46.5337 11.5176
46.5823 11.523
46.631 11.4662
46.6795 11.4052
46.7282 11.402
46.7767 11.3674
46.8254 11.3146
46.8739 11.2453
46.9226 11.2056
46.9712 11.1469
47.0199 11.1348
47.0685 11.0625
47.1173 11.0276
47.1658 11.0173
47.2146 10.969
47.2632 10.9257
47.312 10.9148
47.3606 10.8435
47.4095 10.7905
47.4581 10.7756
47.5069 10.6981
47.5556 10.7127
47.6044 10.6674
47.6531 10.6449
47.702 10.5555
47.7507 10.5362
47.7996 10.5014
47.8483 10.4402
47.8972 10.4201
47.9461 10.3854
47.9948 10.3741
48.0438 10.3277
48.0925 10.2545
48.1415 10.2085
48.1902 10.2121
48.2392 10.1896
48.288 10.1652
48.337 10.0954
48.3858 10.0798
48.4348 10.0253
48.4837 10.0285
48.5327 9.92578
48.5815 9.9318
48.6306 9.87211
48.6795 9.86143
48.7285 9.82364
48.7774 9.76978
48.8265 9.72869
48.8754 9.68158
48.9245 9.69503
48.9734 9.6539
49.0226 9.60251
49.0715 9.58275
49.1206 9.52021
49.1696 9.47103
49.2188 9.43388
49.2679 9.40339
49.3169 9.35087
49.3661 9.32271
49.4151 9.29579
49.4643 9.26962
49.5134 9.21884
49.5626 9.18996
49.6117 9.17116
49.6609 9.14147
49.71 9.05358
49.7592 9.03921
49.8083 9.01406
49.8576 8.95943
49.9067 8.9315
49.956 8.92545
50.0052 8.86159
50.0545 8.838
50.1036 8.80347
50.153 8.78372
50.2022 8.75243
50.2515 8.72665
50.3007 8.69136
50.3501 8.64256
50.3993 8.60138
50.4487 8.56866
50.498 8.54945
50.5474 8.48989
50.5966 8.47882
50.6461 8.43559
50.6955 8.43344
50.7448 8.38644
50.7943 8.35959
50.8436 8.28796
50.8931 8.27595
50.9424 8.23542
50.9919 8.22207
51.0413 8.19027
51.0908 8.18442
51.1402 8.10427
51.1897 8.09089
51.2391 8.02149
51.2887 8.00756
51.3381 7.97468
51.3877 7.93602
51.4371 7.90775
51.4867 7.86918
51.5362 7.87415
51.5858 7.80168
51.6353 7.75714
51.6849 7.77389
51.7344 7.74405
51.7841 7.69661
51.8336 7.64516
51.8833 7.62312
51.9328 7.55821
51.9826 7.5426
52.0323 7.51741
52.0818 7.46458
52.1316 7.45336
52.1812 7.45166
52.231 7.411
52.2806 7.39805
52.3304 7.36271
52.38 7.28105
52.4298 7.2944
52.4794 7.25186
52.5293 7.21562
52.5789 7.16481
52.6288 7.16012
52.6785 7.11679
52.7284 7.13154
52.7781 7.13744
52.828 7.01704
52.8777 6.99682
52.9276 6.96845
52.9774 6.94946
53.0273 6.94196
53.0771 6.90503
53.1271 6.89061
53.1769 6.81952
53.2269 6.80457
53.2767 6.78372
53.3267 6.7664
53.3765 6.75059
53.4266 6.71584
53.4766 6.69572
53.5265 6.65402
53.5765 6.60235
53.6264 6.5721
53.6765 6.55604
53.7264 6.53306
53.7765 6.52478
53.8265 6.48376
53.8766 6.46434
53.9266 6.40358
53.9767 6.34758
54.0267 6.38716
54.0769 6.32435
54.1269 6.3381
54.1771 6.25527
54.2271 6.24193
54.2773 6.15907
54.3274 6.20869
54.3776 6.11157
54.4277 6.09115
54.478 6.05302
54.528 6.02489
54.5783 5.96121
54.6285 5.95622
54.6788 5.88874
54.7289 5.83591
54.7792 5.81841
54.8296 5.72432
54.8798 5.74562
54.9301 5.68794
54.9803 5.63527
55.0307 5.60542
55.0809 5.56907
55.1314 5.57184
55.1816 5.47713
55.232 5.45152
55.2823 5.40582
55.3328 5.32677
55.383 5.24692
55.4335 5.23312
55.4838 5.17607
55.5344 5.10459
55.5847 5.11656
55.6352 5.06406
55.6856 5.03655
55.7361 5.0292