File: XRD/Ni3Fe_FD0954.xy
TT I
1.27165 6.85758
1.31627 6.70751
1.36089 6.4301
1.40551 5.92081
1.45013 5.7997
1.49476 6.0394
1.53938 6.21064
1.584 5.35418
1.62863 5.60239
1.67325 5.04679
1.71787 4.65925
1.7625 4.95211
1.80712 4.59922
1.85174 4.58444
1.89636 4.88569
1.94099 4.87098
1.98562 4.92218
2.03025 3.99233
2.07487 4.40021
2.11949 4.73594
2.16411 4.44589
2.20874 10.6827
2.25338 16.3714
2.298 6.19608
2.34263 5.75719
2.38725 6.84826
2.43188 6.3054
2.4765 7.72234
2.52115 7.48366
2.56577 7.95638
2.6104 7.87549
2.65503 8.33647
2.69965 8.79383
2.7443 8.80076
2.78893 8.69588
2.83356 8.07612
2.87818 9.03327
2.92281 9.1487
2.96744 9.75756
3.01209 10.7384
3.05672 11.4518
3.10135 12.1619
3.14599 13.1261
3.19062 14.5102
3.23527 15.4779
3.2799 15.7097
3.32454 16.7496
3.36917 17.6393
3.4138 18.7889
3.45844 19.7308
3.50309 20.8501
3.54773 21.2625
3.59237 23.6462
3.637 68.6858
3.68164 46.3986
3.7263 25.9323
3.77094 26.0962
3.81558 26.62
3.86022 27.4105
3.90486 28.6133
3.9495 29.7325
3.99416 30.808
4.0388 31.8254
4.08344 33.7375
4.12809 34.1328
4.17273 36.1286
4.21738 40.9355
4.26204 177.386
4.30669 152.735
4.35133 46.8363
4.39598 43.8481
4.44063 50.9052
4.4853 58.408
4.52995 52.1372
4.5746 52.8569
4.61925 53.0002
4.6639 54.9604
4.70855 57.3805
4.75322 60.5101
4.79788 65.0933
4.84253 66.5518
4.88719 72.2129
4.93184 74.6961
4.97652 79.406
5.02118 85.4222
5.06583 93.1088
5.11049 102.438
5.15515 156.675
5.19981 300.637
5.24449 2603.51
5.28916 13411.1
5.33382 2766.67
5.37848 180.207
5.42315 125.864
5.46783 113.433
5.5125 106.629
5.55716 100.663
5.60183 96.4705
5.6465 94.6933
5.69117 92.4976
5.73586 91.2383
5.78053 92.1802
5.8252 92.001
5.86988 93.7238
5.91455 92.0739
5.95924 98.1956
6.00392 187.617
6.0486 863.955
6.09328 4527.74
6.13795 3051.0
6.18263 213.461
6.22733 88.6249
6.27201 79.724
6.3167 90.8362
6.36138 75.9785
6.40606 68.3796
6.45075 67.6533
6.49545 64.3479
6.54014 62.6382
6.58483 62.0052
6.62952 62.1798
6.67421 83.088
6.71892 111.624
6.76361 64.1441
6.8083 58.0016
6.853 57.7964
6.89769 56.1454
6.94239 55.6639
6.98711 54.8533
7.03181 54.652
7.07651 54.0909
7.12121 54.3472
7.16591 55.1464
7.21063 54.5086
7.25533 65.517
7.30004 133.78
7.34475 77.0491
7.38945 55.4972
7.43416 53.5786
7.47889 53.3956
7.5236 53.5071
7.56831 54.5382
7.61303 55.6551
7.65774 55.6319
7.70247 55.9561
7.74719 55.5676
7.79191 55.9159
7.83663 55.8387
7.88135 56.865
7.92607 57.8265
7.97081 58.5846
8.01553 59.9719
8.06026 61.4727
8.10498 62.8279
8.14971 70.8825
8.19446 70.3961
8.23919 68.4486
8.28392 70.7107
8.32865 73.1672
8.37339 76.9891
8.41812 82.8186
8.46288 103.499
8.50761 149.898
8.55235 353.9
8.59709 1181.38
8.64183 2198.1
8.68658 917.406
8.73134 154.668
8.77609 96.5592
8.82083 90.9326
8.86558 89.1315
8.91033 89.4885
8.9551 88.7723
8.99985 84.0387
9.04461 82.4984
9.08936 82.1587
9.13412 81.4434
9.17888 81.1467
9.22365 81.0653
9.26841 80.8396
9.31318 81.8667
9.35794 82.9729
9.4027 83.0043
9.44749 83.3891
9.49226 83.7004
9.53703 84.3818
9.5818 86.6745
9.62657 91.5133
9.67134 94.9367
9.71614 91.607
9.76091 92.7217
9.80569 95.7215
9.85047 99.0884
9.89525 115.462
9.94005 124.411
9.98484 164.545
10.0296 317.511
10.0744 805.607
10.1192 1771.94
10.164 1528.75
10.2088 362.963
10.2536 122.121
10.2984 108.945
10.3432 108.929
10.388 101.771
10.4328 113.931
10.4776 153.432
10.5224 281.451
10.5672 528.769
10.612 490.939
10.6568 189.46
10.7017 93.7788
10.7465 84.7932
10.7913 81.6642
10.8361 79.5025
10.8809 77.8335
10.9257 77.0057
10.9706 76.6525
11.0154 73.8744
11.0602 71.6389
11.105 70.537
11.1499 72.9747
11.1947 77.1037
11.2395 71.1684
11.2844 68.2901
11.3292 65.8823
11.374 64.9542
11.4189 64.8148
11.4637 63.8549
11.5086 64.1607
11.5534 65.8328
11.5983 63.8138
11.6431 62.4909
11.688 61.6549
11.7328 61.7327
11.7777 61.7905
11.8225 61.4768
11.8674 61.6039
11.9122 61.6371
11.9571 62.0191
12.002 62.5961
12.0468 66.0079
12.0917 76.3413
12.1366 100.98
12.1814 156.741
12.2263 203.545
12.2712 157.57
12.3161 91.9122
12.3609 67.4276
12.4058 63.1655
12.4507 63.3396
12.4956 63.3858
12.5405 63.7232
12.5853 64.4677
12.6302 69.6464
12.6751 72.8097
12.72 67.6088
12.7649 66.6169
12.8098 67.1798
12.8547 68.773
12.8996 69.8387
12.9445 71.0648
12.9894 72.9034
13.0343 74.5844
13.0792 77.7761
13.1242 85.9645
13.1691 106.267
13.214 143.652
13.2589 240.957
13.3038 383.748
13.3487 418.612
13.3937 245.463
13.4386 118.601
13.4835 101.494
13.5285 115.556
13.5734 154.548
13.6183 255.418
13.6633 361.136
13.7082 323.432
13.7531 176.766
13.7981 94.7842
13.843 80.1169
13.888 78.1121
13.9329 75.9859
13.9779 74.8269
14.0228 73.0608
14.0678 71.6355
14.1127 71.5259
14.1577 70.9441
14.2027 69.9649
14.2476 69.1835
14.2926 69.1444
14.3376 69.571
14.3825 68.9491
14.4275 67.6052
14.4725 67.5014
14.5175 67.5547
14.5624 67.8554
14.6074 69.2736
14.6524 69.7632
14.6974 69.1721
14.7424 70.6968
14.7874 76.4965
14.8324 86.0729
14.8774 108.992
14.9224 156.874
14.9674 214.057
15.0124 214.654
15.0574 143.791
15.1024 87.2387
15.1474 70.8456
15.1924 69.1063
15.2374 69.1008
15.2824 68.2994
15.3274 66.4212
15.3725 65.7675
15.4175 65.236
15.4625 64.6831
15.5076 64.888
15.5526 64.7463
15.5976 64.5178
15.6426 65.3064
15.6877 70.0524
15.7327 77.3632
15.7778 93.0823
15.8228 127.362
15.8679 174.926
15.9129 192.78
15.958 149.17
16.003 92.2003
16.0481 66.1682
16.0931 62.7447
16.1382 60.8478
16.1833 59.1667
16.2283 57.9051
16.2734 57.148
16.3185 57.3453
16.3636 57.5538
16.4086 56.2784
16.4537 55.1724
16.4988 54.418
16.5439 54.5967
16.589 54.1861
16.6341 54.0952
16.6792 53.6204
16.7243 53.6066
16.7694 53.6774
16.8145 53.7552
16.8596 54.1769
16.9047 55.1344
16.9498 55.1202
16.9949 54.4151
17.04 54.6765
17.0851 55.8963
17.1302 57.3311
17.1754 60.2534
17.2205 65.8347
17.2656 74.8779
17.3108 82.8956
17.3559 79.7094
17.401 68.7794
17.4462 60.7545
17.4913 58.1414
17.5365 58.0287
17.5815 57.9947
17.6268 58.4504
17.6718 59.0622
17.7171 59.5848
17.7622 60.099
17.8074 60.7959
17.8525 62.7667
17.8977 66.69
17.9428 71.5293
17.9881 81.2223
18.0331 99.7531
18.0784 123.436
18.1237 136.431
18.1688 125.299
18.214 99.8333
18.2591 85.1711
18.3044 90.5742
18.3495 100.77
18.3948 104.369
18.4399 92.6751
18.4852 74.7531
18.5303 64.3601
18.5756 61.0126
18.6207 60.2161
18.666 59.3111
18.7112 58.4751
18.7565 57.9131
18.8016 57.6182
18.8469 56.977
18.892 56.5522
18.9374 56.193
18.9825 55.9931
19.0278 55.7161
19.073 55.812
19.1183 56.0864
19.1635 56.7639
19.2088 58.1976
19.254 61.0347
19.2993 65.9205
19.3447 71.5818
19.3898 74.2443
19.4352 69.5174
19.4804 61.3114
19.5257 55.5052
19.5709 53.2545
19.6163 52.8225
19.6615 52.7651
19.7068 52.2681
19.752 52.1004
19.7974 52.6451
19.8426 53.3934
19.888 53.8615
19.9332 55.0853
19.9786 57.9064
20.0238 62.0707
20.0692 66.6193
20.1144 68.599
20.1598 66.3884
20.205 62.239
20.2504 61.6252
20.2957 63.8449
20.3411 64.88
20.3863 62.3139
20.4318 57.1222
20.477 52.6178
20.5224 50.5003
20.5677 49.8358
20.6131 49.4127
20.6586 48.6427
20.7038 48.6482
20.7493 48.175
20.7945 48.069
20.84 47.882
20.8853 47.7531
20.9307 47.5394
20.976 47.7573
21.0215 47.8544
21.0668 48.079
21.1122 48.482
21.1575 49.4747
21.203 50.1278
21.2483 50.76
21.2938 50.5151
21.3391 49.1134
21.3846 47.9781
21.4299 47.5947
21.4754 47.4165
21.5207 47.6814
21.5662 47.9324
21.6116 48.2749
21.6571 48.9665
21.7024 49.9326
21.7479 51.5989
21.7933 54.7081
21.8388 58.718
21.8843 62.1584
21.9297 63.3529
21.9752 61.7307
22.0206 58.207
22.0661 55.711
22.1115 55.2576
22.157 54.7781
22.2024 52.9492
22.248 50.4156
22.2933 48.7207
22.3389 48.1906
22.3843 48.1115
22.4299 47.8906
22.4753 47.9976
22.5208 47.6929
22.5662 47.5734
22.6118 47.7003
22.6572 47.9284
22.7028 48.3125
22.7483 48.7628
22.7939 49.3476
22.8393 51.0436
22.8849 53.3335
22.9303 55.5954
22.9759 56.8908
23.0214 56.0958
23.067 53.0162
23.1126 50.2538
23.1581 48.2022
23.2037 48.0573
23.2492 48.0327
23.2948 47.9921
23.3403 48.2268
23.3859 48.7553
23.4314 50.1446
23.477 52.0542
23.5225 54.4983
23.5682 56.3195
23.6137 56.8582
23.6593 54.2611
23.7048 50.1744
23.7505 47.3827
23.796 45.8159
23.8417 45.2832
23.8872 44.5666
23.9329 44.541
23.9784 44.2405
24.0241 43.9363
24.0697 43.7528
24.1154 43.5322
24.1609 43.207
24.2066 43.0582
24.2522 42.8143
24.2979 42.741
24.3434 42.6166
24.3892 42.4836
24.4349 42.3657
24.4805 42.1966
24.5262 42.4231
24.5718 42.1509
24.6175 42.1607
24.6631 41.9611
24.7089 41.8228
24.7545 41.6138
24.8002 41.4244
24.8458 41.4286
24.8916 41.4282
24.9372 41.4766
24.983 41.8492
25.0286 42.0695
25.0744 42.517
25.12 43.1523
25.1658 43.5121
25.2114 43.9508
25.2572 44.0788
25.3029 44.0951
25.3487 44.1939
25.3943 43.7909
25.4402 42.6076
25.4858 41.7209
25.5316 40.8696
25.5773 40.1498
25.6231 40.1646
25.669 39.8282
25.7147 39.959
25.7605 39.6914
25.8062 39.8259
25.8521 40.0082
25.8977 39.8195
25.9436 40.0192
25.9893 40.2721
26.0352 40.9166
26.0809 41.0275
26.1268 40.859
26.1725 40.6586
26.2184 39.9533
26.2641 39.617
26.31 39.368
26.3557 39.4092
26.4017 39.4216
26.4474 39.6895
26.4933 39.9766
26.5391 40.6556
26.585 40.9671
26.6308 41.4294
26.6767 41.4517
26.7225 41.3022
26.7684 40.7959
26.8142 40.1287
26.8601 39.6796
26.9059 39.2572
26.9519 38.657
26.9979 38.4347
27.0437 38.2367
27.0896 38.0479
27.1354 38.0788
27.1814 38.0602
27.2272 37.8626
27.2732 37.8618
27.3191 37.8319
27.3651 37.7818
27.4109 37.7465
27.4569 37.9431
27.5027 37.8706
27.5488 38.011
27.5946 37.6928
27.6407 37.5515
27.6865 37.3709
27.7326 37.2392
27.7784 37.2844
27.8245 37.1797
27.8703 37.3492
27.9164 37.6014
27.9623 37.7866
28.0084 38.1152
28.0543 38.5081
28.1003 38.2721
28.1462 38.2164
28.1923 37.9149
28.2384 37.3728
28.2843 36.9993
28.3304 36.48
28.3764 36.1496
28.4225 35.8823
28.4684 35.6498
28.5145 35.2565
28.5605 35.2319
28.6066 35.0842
28.6526 34.9303
28.6987 35.0446
28.7447 34.9625
28.7908 34.7942
28.8368 34.8663
28.8829 34.7866
28.9289 34.7588
28.9751 34.5874
29.0211 34.3876
29.0673 34.1693
29.1133 33.9434
29.1595 33.9033
29.2055 33.8913
29.2517 33.7699
29.2977 33.8132
29.3439 33.6553
29.3899 33.669
29.4361 33.5618
29.4824 33.4597
29.5284 33.2274
29.5746 32.8599
29.6207 32.5835
29.6669 32.4564
29.713 32.493
29.7593 32.1821
29.8053 32.242
29.8516 32.2333
29.8977 32.2268
29.9439 32.0365
29.99 32.0785
30.0363 31.9626
30.0824 31.9879
30.1287 31.9714
30.1748 31.9369
30.2211 31.8478
30.2673 31.7693
30.3136 31.8798
30.3597 31.8436
30.406 31.6201
30.4522 31.5817
30.4985 31.4441
30.5447 31.648
30.591 31.6333
30.6372 31.6774
30.6835 31.6356
30.7297 31.6874
30.7761 31.6981
30.8224 31.4341
30.8686 31.3129
30.915 31.0421
30.9612 30.9892
31.0076 30.907
31.0538 30.6738
31.1002 30.5565
31.1464 30.4201
31.1928 30.3151
31.2391 30.4872
31.2855 30.369
31.3317 30.43
31.3781 30.3284
31.4244 30.4143
31.4708 30.3422
31.5171 30.3568
31.5636 30.2183
31.6098 29.8828
31.6563 29.9122
31.7026 29.7231
31.7491 29.6425
31.7953 29.711
31.8418 29.6517
31.8881 29.6575
31.9346 29.6401
31.9809 29.5128
32.0275 29.4235
32.074 29.284
32.1203 29.1514
32.1668 29.0372
32.2132 28.843
32.2597 28.7747
32.306 28.6933
32.3526 28.4773
32.399 28.4836
32.4455 28.2612
32.4919 28.2258
32.5385 28.0833
32.5848 28.0026
32.6314 27.9961
32.6778 27.9735
32.7244 27.8021
32.7708 27.6517
32.8174 27.668
32.8638 27.5067
32.9104 27.5365
32.9569 27.6175
33.0035 27.442
33.0499 27.421
33.0966 27.4125
33.143 27.3258
33.1897 27.2409
33.2361 27.1612
33.2828 27.1554
33.3293 26.9534
33.3759 26.9765
33.4226 26.819
33.4691 26.5679
33.5158 26.6025
33.5623 26.548
33.609 26.2976
33.6555 26.2519
33.7022 26.2251
33.7487 26.1224
33.7954 25.9812
33.842 25.9938
33.8887 25.8274
33.9353 25.832
33.982 25.6917
34.0286 25.6485
34.0753 25.6483
34.1219 25.4715
34.1687 25.306
34.2152 25.3009
34.262 25.2015
34.3086 25.1326
34.3554 25.1128
34.402 24.9015
34.4488 24.9456
34.4954 24.856
34.5422 24.7792
34.5889 24.6977
34.6357 24.5554
34.6825 24.4762
34.7292 24.3708
34.776 24.276
34.8227 24.2778
34.8695 24.2499
34.9162 24.2658
34.9631 24.0744
35.0098 24.1261
35.0566 23.9665
35.1033 23.9154
35.1502 23.8667
35.1969 23.8531
35.2438 23.7702
35.2906 23.689
35.3375 23.696
35.3842 23.6243
35.4311 23.5742
35.4779 23.5482
35.5248 23.4346
35.5716 23.3861
35.6185 23.2781
35.6653 23.2097
35.7123 23.0959
35.759 23.1251
35.806 22.9732
35.8528 22.8383
35.8998 22.8035
35.9468 22.709
35.9936 22.7342
36.0406 22.6845
36.0874 22.6004
36.1345 22.4694
36.1813 22.407
36.2283 22.2919
36.2752 22.3053
36.3222 22.2301
36.3691 22.1538
36.4161 22.0727
36.463 22.0939
36.5101 22.0316
36.557 21.9913
36.6041 21.8044
36.651 21.8784
36.6981 21.7405
36.745 21.6664
36.7921 21.6264
36.839 21.4618
36.8861 21.4037
36.9331 21.4129
36.9802 21.305
37.0272 21.2936
37.0743 21.191
37.1213 21.0895
37.1684 21.0355
37.2154 20.9766
37.2626 20.8867
37.3098 20.8128
37.3568 20.8238
37.404 20.7439
37.451 20.614
37.4982 20.5483
37.5452 20.519
37.5924 20.472
37.6395 20.4784
37.6867 20.3772
37.7337 20.2666
37.781 20.2037
37.8281 20.0905
37.8753 20.0843
37.9224 20.0244
37.9697 19.9272
38.0168 19.9151
38.064 19.813
38.1111 19.7925
38.1584 19.7153
38.2056 19.6065
38.2529 19.5793
38.3 19.4346
38.3473 19.4566
38.3945 19.2999
38.4418 19.314
38.489 19.3293
38.5363 19.2107
38.5837 19.1525
38.6309 19.0993
38.6782 18.9897
38.7254 18.9471
38.7728 18.9135
38.82 18.7748
38.8674 18.8549
38.9146 18.6367
38.9621 18.6647
39.0093 18.5418
39.0567 18.6271
39.104 18.4696
39.1514 18.3559
39.1987 18.3611
39.2461 18.3267
39.2934 18.2994
39.3409 18.2395
39.3882 18.0401
39.4356 17.9972
39.483 17.9805
39.5304 17.9922
39.5778 17.9256
39.6253 17.8585
39.6726 17.7684
39.7201 17.7801
39.7675 17.6656
39.815 17.6587
39.8624 17.5309
39.9099 17.5472
39.9575 17.5147
40.0049 17.4306
40.0525 17.3243
40.0999 17.2477
40.1474 17.27
40.1949 17.193
40.2425 17.1072
40.2899 17.0647
40.3375 16.9979
40.385 16.8951
40.4326 16.8958
40.48 16.7989
40.5277 16.8711
40.5752 16.7681
40.6228 16.6278
40.6703 16.6337
40.718 16.6104
40.7655 16.5661
40.8132 16.4605
40.8607 16.455
40.9084 16.3813
40.9559 16.2783
41.0036 16.2869
41.0512 16.2005
41.0989 16.1661
41.1465 16.1456
41.1942 16.0663
41.242 16.0097
41.2896 15.9454
41.3373 15.8598
41.3849 15.8783
41.4327 15.7823
41.4803 15.6848
41.5281 15.7196
41.5758 15.639
41.6236 15.5745
41.6712 15.5406
41.7191 15.4835
41.7667 15.4148
41.8146 15.3239
41.8622 15.3289
41.9101 15.2665
41.9578 15.196
42.0057 15.1155
42.0534 15.1121
42.1013 15.0698
42.149 15.0068
42.1969 14.9682
42.2446 14.9652
42.2925 14.8924
42.3403 14.7796
42.3882 14.7999
42.436 14.789
42.4839 14.6974
42.5319 14.6382
42.5797 14.6016
42.6277 14.4989
42.6755 14.4944
42.7235 14.3947
42.7713 14.432
42.8193 14.3693
42.8671 14.2831
42.9152 14.2881
42.963 14.1326
43.0111 14.1308
43.0589 14.093
43.107 14.0468
43.1549 13.9923
43.2029 13.943
43.2508 13.9032
43.2989 13.8608
43.3468 13.7992
43.3949 13.7648
43.4429 13.7607
43.491 13.6149
43.5389 13.6458
43.5871 13.5651
43.635 13.5014
43.6832 13.4512
43.7312 13.4393
43.7793 13.3521
43.8273 13.2776
43.8755 13.2728
43.9237 13.2387
43.9717 13.1538
44.0199 13.1446
44.068 13.132
44.1162 13.0147
44.1642 13.0397
44.2125 13.0139
44.2606 12.8873
44.3088 12.8695
44.3569 12.8306
44.4052 12.8039
44.4533 12.7753
44.5016 12.6373
44.5497 12.6623
44.598 12.6265
44.6461 12.5701
44.6945 12.4937
44.7426 12.4755
44.791 12.3866
44.8391 12.4257
44.8875 12.3135
44.9357 12.2747
44.984 12.248
45.0322 12.2303
45.0806 12.1625
45.1288 12.1137
45.1773 12.1204
45.2257 12.0256
45.2739 11.9876
45.3224 11.954
45.3706 11.9559
45.4191 11.8838
45.4673 11.8436
45.5158 11.7811
45.5641 11.7387
45.6126 11.7196
45.6609 11.6443
45.7094 11.5898
45.7577 11.5722
45.8063 11.496
45.8546 11.5133
45.9031 11.469
45.9515 11.398
46.0001 11.3617
46.0484 11.3611
46.097 11.2767
46.1454 11.2521
46.194 11.2219
46.2424 11.1447
46.291 11.0948
46.3395 11.128
46.3881 11.0621
46.4365 10.979
46.4852 10.9386
46.5337 10.9068
46.5823 10.9156
46.631 10.8471
46.6795 10.8449
46.7282 10.8074
46.7767 10.7469
46.8254 10.6891
46.8739 10.6695
46.9226 10.6241
46.9712 10.5782
47.0199 10.5166
47.0685 10.5074
47.1173 10.4676
47.1658 10.4192
47.2146 10.4093
47.2632 10.3592
47.312 10.3499
47.3606 10.236
47.4095 10.2161
47.4581 10.1958
47.5069 10.1291
47.5556 10.1248
47.6044 10.0951
47.6531 10.0686
47.702 9.99186
47.7507 9.98719
47.7996 9.95083
47.8483 9.90699
47.8972 9.86498
47.9461 9.82255
47.9948 9.79867
48.0438 9.76267
48.0925 9.74624
48.1415 9.7049
48.1902 9.63195
48.2392 9.61219
48.288 9.57174
48.337 9.56719
48.3858 9.52467
48.4348 9.48265
48.4837 9.48453
48.5327 9.41812
48.5815 9.37693
48.6306 9.37051
48.6795 9.29637
48.7285 9.2702
48.7774 9.21815
48.8265 9.2012
48.8754 9.192
48.9245 9.1539
48.9734 9.08164
49.0226 9.06935
49.0715 9.05544
49.1206 8.99464
49.1696 8.95327
49.2188 8.9308
49.2679 8.90083
49.3169 8.88602
49.3661 8.8243
49.4151 8.78523
49.4643 8.78737
49.5134 8.72471
49.5626 8.67218
49.6117 8.66125
49.6609 8.60473
49.71 8.61258
49.7592 8.56274
49.8083 8.48888
49.8576 8.48491
49.9067 8.46904
49.956 8.41508
50.0052 8.35486
50.0545 8.35721
50.1036 8.33526
50.153 8.26975
50.2022 8.25918
50.2515 8.20831
50.3007 8.17709
50.3501 8.15235
50.3993 8.11261
50.4487 8.07197
50.498 8.08309
50.5474 8.02308
50.5966 8.0113
50.6461 7.95804
50.6955 7.99643
50.7448 7.91479
50.7943 7.90098
50.8436 7.85049
50.8931 7.81369
50.9424 7.80852
50.9919 7.73417
51.0413 7.74177
51.0908 7.72567
51.1402 7.7044
51.1897 7.66057
51.2391 7.604
51.2887 7.58212
51.3381 7.55632
51.3877 7.54451
51.4371 7.49222
51.4867 7.45639
51.5362 7.46824
51.5858 7.38157
51.6353 7.362
51.6849 7.30427
51.7344 7.27792
51.7841 7.27991
51.8336 7.26045
51.8833 7.22038
51.9328 7.17255
51.9826 7.11207
52.0323 7.16548
52.0818 7.12423
52.1316 7.05791
52.1812 7.03696
52.231 6.9651
52.2806 6.94705
52.3304 6.94154
52.38 6.93499
52.4298 6.87541
52.4794 6.88929
52.5293 6.83022
52.5789 6.82516
52.6288 6.83666
52.6785 6.762
52.7284 6.74319
52.7781 6.71354
52.828 6.64401
52.8777 6.67848
52.9276 6.61412
52.9774 6.58561
53.0273 6.59037
53.0771 6.55739
53.1271 6.51632
53.1769 6.47005
53.2269 6.4383
53.2767 6.43962
53.3267 6.38536
53.3765 6.35557
53.4266 6.31412
53.4766 6.30179
53.5265 6.28901
53.5765 6.26936
53.6264 6.22295
53.6765 6.18693
53.7264 6.15462
53.7765 6.16369
53.8265 6.10048
53.8766 6.10922
53.9266 6.08326
53.9767 6.05358
54.0267 6.02902
54.0769 6.00184
54.1269 5.96965
54.1771 5.89298
54.2271 5.91968
54.2773 5.84501
54.3274 5.85322
54.3776 5.83716
54.4277 5.73821
54.478 5.67863
54.528 5.68245
54.5783 5.63913
54.6285 5.60592
54.6788 5.58676
54.7289 5.60589
54.7792 5.53721
54.8296 5.46237
54.8798 5.42534
54.9301 5.35903
54.9803 5.30048
55.0307 5.329
55.0809 5.26418
55.1314 5.28217
55.1816 5.22055
55.232 5.18233
55.2823 5.1351
55.3328 5.08306
55.383 5.04534
55.4335 4.91885
55.4838 4.93842
55.5344 4.88236
55.5847 4.8417
55.6352 4.86822
55.6856 4.78623
55.7361 4.72035