File: XRD/Ni3Fe_FD0334.xy
TT I
1.27165 7.15068
1.31627 6.92767
1.36089 7.11156
1.40551 6.69332
1.45013 6.70144
1.49476 6.79356
1.53938 5.60159
1.584 5.35946
1.62863 5.34078
1.67325 5.00123
1.71787 5.25494
1.7625 4.79891
1.80712 5.05297
1.85174 5.08564
1.89636 5.39688
1.94099 4.71809
1.98562 5.02505
2.03025 4.53572
2.07487 4.46731
2.11949 5.10301
2.16411 4.83877
2.20874 11.7797
2.25338 17.312
2.298 5.1643
2.34263 4.39217
2.38725 5.53336
2.43188 5.37966
2.4765 6.03485
2.52115 5.86389
2.56577 6.22233
2.6104 7.15119
2.65503 6.40467
2.69965 7.60812
2.7443 7.68791
2.78893 7.11902
2.83356 7.77592
2.87818 8.07398
2.92281 8.79348
2.96744 10.3013
3.01209 10.4896
3.05672 11.323
3.10135 12.2012
3.14599 13.0049
3.19062 14.2208
3.23527 14.7725
3.2799 15.666
3.32454 17.0248
3.36917 17.9114
3.4138 18.783
3.45844 19.6812
3.50309 20.7315
3.54773 21.8456
3.59237 23.8163
3.637 72.9918
3.68164 48.0611
3.7263 26.4431
3.77094 26.2948
3.81558 26.8482
3.86022 28.0084
3.90486 29.4692
3.9495 30.1861
3.99416 31.5189
4.0388 32.2
4.08344 34.2184
4.12809 34.8452
4.17273 37.2037
4.21738 42.4936
4.26204 192.589
4.30669 161.665
4.35133 47.7242
4.39598 44.9358
4.44063 52.5649
4.4853 60.998
4.52995 52.6206
4.5746 53.1362
4.61925 54.6816
4.6639 56.8528
4.70855 60.1124
4.75322 62.8505
4.79788 66.8103
4.84253 69.7394
4.88719 74.2192
4.93184 78.543
4.97652 84.9493
5.02118 91.9098
5.06583 100.736
5.11049 116.012
5.15515 181.291
5.19981 567.14
5.24449 3575.57
5.28916 11381.5
5.33382 3515.95
5.37848 226.288
5.42315 139.78
5.46783 120.983
5.5125 110.952
5.55716 106.93
5.60183 102.654
5.6465 100.308
5.69117 98.4644
5.73586 96.4184
5.78053 96.5861
5.8252 96.7358
5.86988 98.335
5.91455 101.943
5.95924 115.075
6.00392 303.506
6.0486 1247.03
6.09328 4076.05
6.13795 3455.04
6.18263 291.372
6.22733 100.866
6.27201 86.4699
6.3167 97.6607
6.36138 80.4549
6.40606 71.2623
6.45075 69.656
6.49545 67.2332
6.54014 65.7447
6.58483 64.7467
6.62952 64.1266
6.67421 85.2295
6.71892 119.684
6.76361 66.9483
6.8083 59.9665
6.853 58.8071
6.89769 58.08
6.94239 57.7712
6.98711 57.2411
7.03181 56.6777
7.07651 56.5174
7.12121 56.6165
7.16591 56.937
7.21063 56.3842
7.25533 66.6535
7.30004 142.725
7.34475 81.5738
7.38945 57.3565
7.43416 55.9023
7.47889 55.5223
7.5236 55.871
7.56831 56.7092
7.61303 57.803
7.65774 58.2723
7.70247 57.2451
7.74719 57.572
7.79191 58.2524
7.83663 58.9765
7.88135 59.3256
7.92607 60.0595
7.97081 61.3403
8.01553 62.768
8.06026 64.2738
8.10498 65.824
8.14971 73.5181
8.19446 72.8931
8.23919 71.833
8.28392 74.4051
8.32865 76.6328
8.37339 81.3066
8.41812 88.8339
8.46288 115.171
8.50761 214.407
8.55235 488.056
8.59709 1163.6
8.64183 2125.38
8.68658 1067.2
8.73134 183.836
8.77609 104.785
8.82083 96.1617
8.86558 93.0731
8.91033 92.2622
8.9551 92.2285
8.99985 87.8788
9.04461 86.1058
9.08936 85.5113
9.13412 84.4989
9.17888 84.5408
9.22365 84.8348
9.26841 84.4186
9.31318 85.5984
9.35794 85.906
9.4027 86.0252
9.44749 86.6292
9.49226 87.3077
9.53703 88.2553
9.5818 90.2605
9.62657 94.2253
9.67134 99.0782
9.71614 96.3995
9.76091 97.2701
9.80569 100.092
9.85047 103.458
9.89525 122.794
9.94005 139.294
9.98484 224.081
10.0296 427.214
10.0744 854.453
10.1192 1609.04
10.164 1673.76
10.2088 493.11
10.2536 138.085
10.2984 116.474
10.3432 116.59
10.388 109.658
10.4328 133.835
10.4776 184.86
10.5224 293.383
10.5672 483.093
10.612 525.81
10.6568 216.353
10.7017 100.674
10.7465 89.6167
10.7913 86.0514
10.8361 83.5712
10.8809 81.0028
10.9257 80.3634
10.9706 80.3125
11.0154 76.4542
11.0602 75.1487
11.105 73.9758
11.1499 76.4232
11.1947 81.3777
11.2395 74.2152
11.2844 71.2936
11.3292 69.1119
11.374 67.9287
11.4189 67.3418
11.4637 66.8209
11.5086 66.6465
11.5534 69.0052
11.5983 66.7724
11.6431 65.5222
11.688 64.7011
11.7328 64.9009
11.7777 64.5549
11.8225 64.2312
11.8674 64.1659
11.9122 64.6335
11.9571 64.9326
12.002 66.4012
12.0468 73.0717
12.0917 86.2712
12.1366 109.055
12.1814 148.467
12.2263 199.242
12.2712 176.433
12.3161 100.15
12.3609 71.4767
12.4058 66.4867
12.4507 66.3978
12.4956 66.3604
12.5405 66.4954
12.5853 67.1548
12.6302 72.8384
12.6751 77.0039
12.72 71.0891
12.7649 69.6984
12.8098 70.2738
12.8547 71.8335
12.8996 73.0229
12.9445 74.5516
12.9894 76.7305
13.0343 78.513
13.0792 82.4903
13.1242 97.3214
13.1691 125.721
13.214 165.491
13.2589 244.491
13.3038 350.516
13.3487 425.148
13.3937 283.265
13.4386 133.098
13.4835 116.483
13.5285 134.972
13.5734 171.755
13.6183 240.815
13.6633 330.191
13.7082 342.936
13.7531 202.441
13.7981 102.628
13.843 84.5982
13.888 81.9471
13.9329 79.3869
13.9779 78.3133
14.0228 76.7808
14.0678 75.323
14.1127 74.555
14.1577 74.4737
14.2027 73.505
14.2476 72.6578
14.2926 72.4059
14.3376 73.1221
14.3825 72.1963
14.4275 70.811
14.4725 70.7498
14.5175 71.0341
14.5624 71.1548
14.6074 72.767
14.6524 73.4605
14.6974 72.7112
14.7424 76.0655
14.7874 85.4373
14.8324 97.3648
14.8774 118.324
14.9224 153.518
14.9674 198.774
15.0124 218.76
15.0574 156.051
15.1024 94.8316
15.1474 74.5871
15.1924 72.3917
15.2374 72.3467
15.2824 71.5892
15.3274 69.9448
15.3725 69.0218
15.4175 68.4184
15.4625 68.3015
15.5076 68.2435
15.5526 68.1144
15.5976 68.0008
15.6426 70.2802
15.6877 77.9718
15.7327 86.814
15.7778 101.813
15.8228 127.717
15.8679 162.682
15.9129 191.958
15.958 164.767
16.003 103.034
16.0481 70.3493
16.0931 65.9143
16.1382 63.9339
16.1833 62.245
16.2283 60.7365
16.2734 60.0958
16.3185 60.1049
16.3636 60.2636
16.4086 59.2826
16.4537 57.7662
16.4988 57.1309
16.5439 57.1328
16.589 56.7277
16.6341 56.3754
16.6792 56.0321
16.7243 56.5577
16.7694 56.3733
16.8145 56.4476
16.8596 56.7026
16.9047 58.0024
16.9498 58.1896
16.9949 57.2848
17.04 57.6034
17.0851 59.3571
17.1302 61.2246
17.1754 64.4115
17.2205 68.9018
17.2656 74.8067
17.3108 82.8234
17.3559 84.3317
17.401 74.0558
17.4462 64.5762
17.4913 61.1464
17.5365 60.8939
17.5815 60.9809
17.6268 61.2239
17.6718 62.2128
17.7171 62.6093
17.7622 63.2201
17.8074 64.1707
17.8525 67.8316
17.8977 72.5904
17.9428 78.6379
17.9881 87.2403
18.0331 101.453
18.0784 119.405
18.1237 140.008
18.1688 138.419
18.214 111.36
18.2591 91.0661
18.3044 91.5904
18.3495 99.1008
18.3948 106.674
18.4399 99.4606
18.4852 80.2697
18.5303 68.0982
18.5756 64.3285
18.6207 63.1339
18.666 62.2699
18.7112 61.4314
18.7565 60.6982
18.8016 60.434
18.8469 59.846
18.892 59.6538
18.9374 59.0163
18.9825 58.9124
19.0278 58.5487
19.073 58.8854
19.1183 59.6254
19.1635 60.4598
19.2088 61.9489
19.254 64.3023
19.2993 67.6281
19.3447 72.7296
19.3898 77.4265
19.4352 74.8504
19.4804 66.0966
19.5257 58.5774
19.5709 55.9231
19.6163 55.7226
19.6615 55.3806
19.7068 54.9874
19.752 55.0469
19.7974 55.564
19.8426 56.1982
19.888 57.1212
19.9332 58.3664
19.9786 60.7632
20.0238 63.7458
20.0692 67.8483
20.1144 71.3667
20.1598 71.1859
20.205 66.3196
20.2504 63.8803
20.2957 64.4734
20.3411 66.5901
20.3863 66.0709
20.4318 60.532
20.477 55.44
20.5224 53.0309
20.5677 52.3991
20.6131 51.7097
20.6586 51.2004
20.7038 51.0553
20.7493 50.6058
20.7945 50.5223
20.84 50.2072
20.8853 50.1619
20.9307 50.0059
20.976 50.2656
21.0215 50.221
21.0668 50.4804
21.1122 51.0435
21.1575 51.5062
21.203 52.0832
21.2483 52.8696
21.2938 53.2249
21.3391 51.8436
21.3846 50.6515
21.4299 49.9863
21.4754 49.8882
21.5207 50.1228
21.5662 50.4456
21.6116 51.2642
21.6571 51.9134
21.7024 53.0252
21.7479 54.4929
21.7933 57.016
21.8388 60.0341
21.8843 63.4881
21.9297 66.1484
21.9752 65.6515
22.0206 61.843
22.0661 57.8301
22.1115 57.2442
22.157 57.5599
22.2024 55.9975
22.248 53.177
22.2933 51.3212
22.3389 50.5964
22.3843 50.4529
22.4299 50.4549
22.4753 50.443
22.5208 50.0502
22.5662 49.978
22.6118 50.3699
22.6572 50.664
22.7028 51.1143
22.7483 51.5452
22.7939 52.2557
22.8393 53.5931
22.8849 55.2937
22.9303 56.8948
22.9759 58.9305
23.0214 59.1242
23.067 56.501
23.1126 52.9011
23.1581 50.6871
23.2037 50.4588
23.2492 50.5357
23.2948 50.5623
23.3403 51.0072
23.3859 51.4832
23.4314 52.5215
23.477 54.183
23.5225 55.6948
23.5682 57.7999
23.6137 59.131
23.6593 57.4748
23.7048 53.6828
23.7505 50.1024
23.796 48.1438
23.8417 47.4466
23.8872 46.9792
23.9329 46.6263
23.9784 46.2642
24.0241 45.9035
24.0697 45.8631
24.1154 45.3894
24.1609 45.3643
24.2066 45.082
24.2522 44.9786
24.2979 44.7001
24.3434 44.6201
24.3892 44.5837
24.4349 44.5872
24.4805 44.273
24.5262 44.2129
24.5718 44.2393
24.6175 44.2234
24.6631 44.1897
24.7089 43.8371
24.7545 43.6596
24.8002 43.6224
24.8458 43.6151
24.8916 43.425
24.9372 43.5537
24.983 44.031
25.0286 44.2818
25.0744 44.4956
25.12 45.0414
25.1658 45.6263
25.2114 46.0735
25.2572 45.8793
25.3029 45.9692
25.3487 45.9913
25.3943 46.0205
25.4402 45.0505
25.4858 43.8869
25.5316 42.8831
25.5773 42.1494
25.6231 42.1511
25.669 41.891
25.7147 41.8533
25.7605 41.6264
25.8062 41.8499
25.8521 41.9159
25.8977 41.8958
25.9436 42.1724
25.9893 42.0948
26.0352 42.5389
26.0809 42.6014
26.1268 42.9511
26.1725 42.6138
26.2184 42.0805
26.2641 41.5177
26.31 41.4139
26.3557 41.393
26.4017 41.4124
26.4474 41.5809
26.4933 41.9997
26.5391 42.4426
26.585 42.813
26.6308 43.0666
26.6767 43.3247
26.7225 43.3829
26.7684 42.6661
26.8142 42.1066
26.8601 41.7838
26.9059 41.2577
26.9519 40.7335
26.9979 40.4878
27.0437 40.0466
27.0896 39.8751
27.1354 39.9557
27.1814 39.9343
27.2272 39.7251
27.2732 39.708
27.3191 39.5576
27.3651 39.6475
27.4109 39.487
27.4569 39.8271
27.5027 39.5746
27.5488 39.7663
27.5946 39.5473
27.6407 39.2958
27.6865 39.3453
27.7326 38.9212
27.7784 39.0342
27.8245 38.9344
27.8703 39.1243
27.9164 39.3748
27.9623 39.4225
28.0084 39.7526
28.0543 40.228
28.1003 40.0653
28.1462 39.893
28.1923 39.5906
28.2384 39.0808
28.2843 38.667
28.3304 38.3682
28.3764 37.886
28.4225 37.5508
28.4684 37.3022
28.5145 37.1051
28.5605 36.9057
28.6066 36.6921
28.6526 36.6366
28.6987 36.7335
28.7447 36.6416
28.7908 36.4936
28.8368 36.3139
28.8829 36.3938
28.9289 36.3772
28.9751 36.2126
29.0211 35.898
29.0673 35.6957
29.1133 35.6555
29.1595 35.4031
29.2055 35.455
29.2517 35.312
29.2977 35.251
29.3439 35.2806
29.3899 35.2382
29.4361 35.2258
29.4824 34.9415
29.5284 34.8116
29.5746 34.3048
29.6207 34.1777
29.6669 34.1929
29.713 33.9147
29.7593 33.8901
29.8053 33.9096
29.8516 33.7665
29.8977 33.7366
29.9439 33.5251
29.99 33.5518
30.0363 33.3943
30.0824 33.525
30.1287 33.301
30.1748 33.3745
30.2211 33.418
30.2673 33.2251
30.3136 33.3085
30.3597 33.3007
30.406 33.2654
30.4522 32.9725
30.4985 32.9993
30.5447 33.1469
30.591 33.0583
30.6372 33.0618
30.6835 33.114
30.7297 33.0855
30.7761 33.2365
30.8224 32.9835
30.8686 32.8316
30.915 32.5783
30.9612 32.3932
31.0076 32.2631
31.0538 32.1063
31.1002 31.9881
31.1464 31.9045
31.1928 31.8881
31.2391 31.8864
31.2855 31.7439
31.3317 31.7323
31.3781 31.8962
31.4244 31.7579
31.4708 31.7353
31.5171 31.6832
31.5636 31.6484
31.6098 31.515
31.6563 31.311
31.7026 31.2281
31.7491 31.1606
31.7953 30.9967
31.8418 30.9542
31.8881 31.0251
31.9346 30.9688
31.9809 30.9915
32.0275 30.7725
32.074 30.7301
32.1203 30.5164
32.1668 30.3669
32.2132 30.2134
32.2597 30.0791
32.306 30.1561
32.3526 29.8845
32.399 29.7651
32.4455 29.696
32.4919 29.5663
32.5385 29.5662
32.5848 29.3648
32.6314 29.4355
32.6778 29.271
32.7244 29.1582
32.7708 28.9771
32.8174 28.9827
32.8638 28.8598
32.9104 28.9148
32.9569 28.8747
33.0035 28.7936
33.0499 28.7202
33.0966 28.5746
33.143 28.6666
33.1897 28.5288
33.2361 28.4465
33.2828 28.2447
33.3293 28.2467
33.3759 28.2077
33.4226 28.1074
33.4691 27.9173
33.5158 27.8343
33.5623 27.7898
33.609 27.5362
33.6555 27.4305
33.7022 27.3566
33.7487 27.293
33.7954 27.2046
33.842 27.2199
33.8887 27.0573
33.9353 27.0656
33.982 26.8897
34.0286 26.8997
34.0753 26.7511
34.1219 26.6494
34.1687 26.5467
34.2152 26.5258
34.262 26.502
34.3086 26.2968
34.3554 26.1643
34.402 26.1087
34.4488 26.0725
34.4954 25.9633
34.5422 25.895
34.5889 25.811
34.6357 25.7845
34.6825 25.6472
34.7292 25.5576
34.776 25.4431
34.8227 25.4025
34.8695 25.3261
34.9162 25.246
34.9631 25.2142
35.0098 25.1299
35.0566 25.0921
35.1033 25.035
35.1502 25.0
35.1969 24.9204
35.2438 24.7856
35.2906 24.8268
35.3375 24.7559
35.3842 24.6875
35.4311 24.6855
35.4779 24.6377
35.5248 24.5566
35.5716 24.5134
35.6185 24.405
35.6653 24.2368
35.7123 24.2167
35.759 24.2082
35.806 24.0424
35.8528 23.9569
35.8998 23.8458
35.9468 23.7762
35.9936 23.7308
36.0406 23.6742
36.0874 23.6583
36.1345 23.5384
36.1813 23.4917
36.2283 23.3755
36.2752 23.3456
36.3222 23.3026
36.3691 23.2156
36.4161 23.0971
36.463 23.1699
36.5101 23.1288
36.557 23.1026
36.6041 22.8676
36.651 22.7741
36.6981 22.789
36.745 22.6828
36.7921 22.5943
36.839 22.5187
36.8861 22.4678
36.9331 22.3187
36.9802 22.2475
37.0272 22.1345
37.0743 22.1633
37.1213 22.1304
37.1684 22.0456
37.2154 22.0026
37.2626 21.9505
37.3098 21.8687
37.3568 21.7565
37.404 21.7316
37.451 21.6354
37.4982 21.5417
37.5452 21.4491
37.5924 21.4642
37.6395 21.4061
37.6867 21.302
37.7337 21.2107
37.781 21.1407
37.8281 21.1417
37.8753 21.0306
37.9224 20.9235
37.9697 20.8925
38.0168 20.7984
38.064 20.6902
38.1111 20.6365
38.1584 20.6687
38.2056 20.5394
38.2529 20.5019
38.3 20.4011
38.3473 20.3684
38.3945 20.2697
38.4418 20.208
38.489 20.2021
38.5363 20.0879
38.5837 19.9023
38.6309 20.0089
38.6782 19.8789
38.7254 19.8385
38.7728 19.7834
38.82 19.732
38.8674 19.6755
38.9146 19.4609
38.9621 19.5288
39.0093 19.4637
39.0567 19.3526
39.104 19.4137
39.1514 19.2657
39.1987 19.2542
39.2461 19.1449
39.2934 19.0859
39.3409 18.9835
39.3882 18.9278
39.4356 18.8795
39.483 18.8878
39.5304 18.7468
39.5778 18.766
39.6253 18.7221
39.6726 18.6283
39.7201 18.5784
39.7675 18.5018
39.815 18.4935
39.8624 18.364
39.9099 18.3043
39.9575 18.2062
40.0049 18.1693
40.0525 18.1527
40.0999 18.1283
40.1474 18.0744
40.1949 17.9486
40.2425 17.9543
40.2899 17.8866
40.3375 17.8114
40.385 17.733
40.4326 17.6693
40.48 17.6605
40.5277 17.6013
40.5752 17.5315
40.6228 17.4479
40.6703 17.4565
40.718 17.3296
40.7655 17.2853
40.8132 17.2337
40.8607 17.2312
40.9084 17.1638
40.9559 17.0554
41.0036 17.0436
41.0512 16.9334
41.0989 16.9204
41.1465 16.8367
41.1942 16.8411
41.242 16.7485
41.2896 16.6464
41.3373 16.6556
41.3849 16.5849
41.4327 16.5319
41.4803 16.4188
41.5281 16.388
41.5758 16.3432
41.6236 16.2724
41.6712 16.2125
41.7191 16.1571
41.7667 16.1415
41.8146 16.1065
41.8622 16.0502
41.9101 15.9828
41.9578 15.9078
42.0057 15.8188
42.0534 15.8758
42.1013 15.7348
42.149 15.6862
42.1969 15.614
42.2446 15.605
42.2925 15.6276
42.3403 15.4785
42.3882 15.4591
42.436 15.4297
42.4839 15.3049
42.5319 15.2911
42.5797 15.206
42.6277 15.1479
42.6755 15.1428
42.7235 15.0635
42.7713 15.0524
42.8193 15.0251
42.8671 14.9495
42.9152 14.8881
42.963 14.8167
43.0111 14.7603
43.0589 14.702
43.107 14.6845
43.1549 14.61
43.2029 14.5429
43.2508 14.5688
43.2989 14.4816
43.3468 14.3691
43.3949 14.3745
43.4429 14.3574
43.491 14.2611
43.5389 14.2133
43.5871 14.2195
43.635 14.1472
43.6832 14.07
43.7312 14.0193
43.7793 13.9659
43.8273 13.9761
43.8755 13.896
43.9237 13.8386
43.9717 13.8171
44.0199 13.7702
44.068 13.7566
44.1162 13.7001
44.1642 13.6705
44.2125 13.5936
44.2606 13.5197
44.3088 13.4758
44.3569 13.4329
44.4052 13.4075
44.4533 13.3186
44.5016 13.2702
44.5497 13.2124
44.598 13.1999
44.6461 13.1477
44.6945 13.0473
44.7426 13.0539
44.791 12.9878
44.8391 12.9294
44.8875 12.8794
44.9357 12.8766
44.984 12.8037
45.0322 12.7606
45.0806 12.7256
45.1288 12.7072
45.1773 12.6494
45.2257 12.5796
45.2739 12.5664
45.3224 12.5058
45.3706 12.482
45.4191 12.3808
45.4673 12.3906
45.5158 12.3201
45.5641 12.317
45.6126 12.2381
45.6609 12.1678
45.7094 12.1612
45.7577 12.0845
45.8063 12.0533
45.8546 12.0416
45.9031 11.9995
45.9515 11.9238
46.0001 11.8879
46.0484 11.8033
46.097 11.7771
46.1454 11.7707
46.194 11.7348
46.2424 11.6803
46.291 11.6084
46.3395 11.5974
46.3881 11.5484
46.4365 11.5366
46.4852 11.4928
46.5337 11.4454
46.5823 11.3885
46.631 11.3152
46.6795 11.2693
46.7282 11.227
46.7767 11.2021
46.8254 11.1471
46.8739 11.0928
46.9226 11.0592
46.9712 11.0278
47.0199 10.9942
47.0685 10.9635
47.1173 10.9727
47.1658 10.8938
47.2146 10.8935
47.2632 10.7778
47.312 10.755
47.3606 10.7391
47.4095 10.65
47.4581 10.6708
47.5069 10.591
47.5556 10.5961
47.6044 10.5409
47.6531 10.4825
47.702 10.4114
47.7507 10.4446
47.7996 10.3796
47.8483 10.3025
47.8972 10.3298
47.9461 10.2722
47.9948 10.2129
48.0438 10.1777
48.0925 10.1658
48.1415 10.132
48.1902 10.079
48.2392 10.0456
48.288 10.017
48.337 9.99007
48.3858 9.94304
48.4348 9.92175
48.4837 9.87218
48.5327 9.88167
48.5815 9.79705
48.6306 9.74924
48.6795 9.7369
48.7285 9.68316
48.7774 9.66802
48.8265 9.6532
48.8754 9.57893
48.9245 9.58374
48.9734 9.54438
49.0226 9.46333
49.0715 9.4494
49.1206 9.42251
49.1696 9.3492
49.2188 9.3347
49.2679 9.27781
49.3169 9.24836
49.3661 9.24352
49.4151 9.18096
49.4643 9.14147
49.5134 9.11897
49.5626 9.07421
49.6117 9.04919
49.6609 9.01053
49.71 8.96692
49.7592 8.94299
49.8083 8.93581
49.8576 8.89719
49.9067 8.87885
49.956 8.80146
50.0052 8.76364
50.0545 8.74838
50.1036 8.71608
50.153 8.7188
50.2022 8.66543
50.2515 8.59003
50.3007 8.61571
50.3501 8.52482
50.3993 8.52199
50.4487 8.45065
50.498 8.44864
50.5474 8.38751
50.5966 8.36188
50.6461 8.30689
50.6955 8.35084
50.7448 8.27671
50.7943 8.24519
50.8436 8.217
50.8931 8.17097
50.9424 8.15543
50.9919 8.0938
51.0413 8.08692
51.0908 8.05934
51.1402 8.00569
51.1897 7.95947
51.2391 7.97092
51.2887 7.94195
51.3381 7.88186
51.3877 7.82599
51.4371 7.83076
51.4867 7.78681
51.5362 7.80578
51.5858 7.68595
51.6353 7.64109
51.6849 7.63527
51.7344 7.61411
51.7841 7.57744
51.8336 7.55999
51.8833 7.5274
51.9328 7.50419
51.9826 7.47997
52.0323 7.45095
52.0818 7.45531
52.1316 7.36224
52.1812 7.37498
52.231 7.30262
52.2806 7.25859
52.3304 7.30304
52.38 7.24226
52.4298 7.21784
52.4794 7.1534
52.5293 7.13431
52.5789 7.09723
52.6288 7.06774
52.6785 7.05431
52.7284 7.03872
52.7781 7.00179
52.828 7.00651
52.8777 6.93235
52.9276 6.90494
52.9774 6.86576
53.0273 6.89606
53.0771 6.80755
53.1271 6.82331
53.1769 6.79378
53.2269 6.73468
53.2767 6.68292
53.3267 6.66917
53.3765 6.62694
53.4266 6.67943
53.4766 6.58682
53.5265 6.55682
53.5765 6.51682
53.6264 6.49512
53.6765 6.50019
53.7264 6.46422
53.7765 6.41564
53.8265 6.37374
53.8766 6.34184
53.9266 6.3035
53.9767 6.33077
54.0267 6.30752
54.0769 6.25984
54.1269 6.26351
54.1771 6.16916
54.2271 6.18657
54.2773 6.09682
54.3274 6.0903
54.3776 6.06727
54.4277 6.03734
54.478 6.00463
54.528 5.94108
54.5783 5.9116
54.6285 5.86244
54.6788 5.79322
54.7289 5.79312
54.7792 5.75865
54.8296 5.70646
54.8798 5.67576
54.9301 5.62343
54.9803 5.58946
55.0307 5.56072
55.0809 5.52251
55.1314 5.542
55.1816 5.41917
55.232 5.4043
55.2823 5.32783
55.3328 5.31753
55.383 5.2053
55.4335 5.17948
55.4838 5.1139
55.5344 5.1188
55.5847 5.08517
55.6352 5.04843
55.6856 4.95576
55.7361 4.94336