File: XRD/Ni3Fe_FD0399.xy
TT I
1.27165 7.53255
1.31627 7.14237
1.36089 6.93704
1.40551 6.58304
1.45013 7.13988
1.49476 6.82547
1.53938 5.96509
1.584 5.10159
1.62863 5.30836
1.67325 5.60849
1.71787 5.24526
1.7625 4.85621
1.80712 5.03409
1.85174 4.9134
1.89636 4.91653
1.94099 5.75077
1.98562 4.68025
2.03025 5.58499
2.07487 4.66576
2.11949 5.14551
2.16411 4.91278
2.20874 15.9919
2.25338 25.3528
2.298 6.17949
2.34263 4.91605
2.38725 5.72596
2.43188 5.52471
2.4765 6.22554
2.52115 6.31748
2.56577 6.92363
2.6104 7.74322
2.65503 6.3126
2.69965 7.48052
2.7443 7.55014
2.78893 7.72851
2.83356 8.12298
2.87818 9.13989
2.92281 9.00419
2.96744 8.95091
3.01209 10.5925
3.05672 11.5156
3.10135 12.2123
3.14599 13.0424
3.19062 13.9428
3.23527 14.9724
3.2799 15.3686
3.32454 17.1277
3.36917 18.0166
3.4138 19.0358
3.45844 19.8583
3.50309 21.2882
3.54773 21.9801
3.59237 24.8294
3.637 104.826
3.68164 64.836
3.7263 27.0346
3.77094 26.6368
3.81558 27.4253
3.86022 28.312
3.90486 29.6074
3.9495 30.0327
3.99416 31.6387
4.0388 32.7635
4.08344 34.5145
4.12809 36.1124
4.17273 37.8283
4.21738 44.7926
4.26204 279.625
4.30669 243.397
4.35133 50.5419
4.39598 45.5848
4.44063 55.9316
4.4853 69.2743
4.52995 52.0909
4.5746 52.452
4.61925 54.5724
4.6639 57.0557
4.70855 59.3088
4.75322 62.1654
4.79788 65.3853
4.84253 68.5355
4.88719 73.4869
4.93184 76.9932
4.97652 82.3936
5.02118 89.4741
5.06583 97.8249
5.11049 110.719
5.15515 194.903
5.19981 439.672
5.24449 3051.13
5.28916 11609.1
5.33382 3561.47
5.37848 223.046
5.42315 138.668
5.46783 119.364
5.5125 110.072
5.55716 105.209
5.60183 101.603
5.6465 99.2938
5.69117 96.8303
5.73586 95.1931
5.78053 95.1191
5.8252 94.8366
5.86988 94.8463
5.91455 98.0919
5.95924 108.028
6.00392 237.091
6.0486 1056.77
6.09328 3972.53
6.13795 3511.62
6.18263 305.853
6.22733 100.65
6.27201 87.336
6.3167 109.333
6.36138 84.0706
6.40606 71.3542
6.45075 69.0862
6.49545 66.977
6.54014 65.7751
6.58483 64.6607
6.62952 64.7657
6.67421 100.094
6.71892 158.554
6.76361 72.2673
6.8083 60.5282
6.853 58.8982
6.89769 58.2968
6.94239 57.9476
6.98711 57.5817
7.03181 57.0066
7.07651 56.8488
7.12121 56.7304
7.16591 57.1844
7.21063 57.1296
7.25533 74.4593
7.30004 202.337
7.34475 99.2681
7.38945 58.3531
7.43416 55.939
7.47889 55.9296
7.5236 56.1052
7.56831 56.8166
7.61303 58.7355
7.65774 59.264
7.70247 57.7708
7.74719 57.5967
7.79191 58.2328
7.83663 58.4941
7.88135 59.3622
7.92607 60.0074
7.97081 61.2818
8.01553 62.0148
8.06026 63.3732
8.10498 65.3253
8.14971 76.6111
8.19446 74.8829
8.23919 71.0454
8.28392 73.6531
8.32865 75.8982
8.37339 80.1514
8.41812 88.1646
8.46288 121.697
8.50761 179.892
8.55235 421.533
8.59709 1106.32
8.64183 2103.67
8.68658 1115.93
8.73134 203.79
8.77609 104.524
8.82083 95.666
8.86558 92.4676
8.91033 92.969
8.9551 94.5772
8.99985 87.8374
9.04461 85.8159
9.08936 84.9417
9.13412 83.8799
9.17888 83.8161
9.22365 84.9003
9.26841 84.1948
9.31318 84.889
9.35794 84.9219
9.4027 85.1893
9.44749 85.8359
9.49226 86.4695
9.53703 87.5292
9.5818 89.2215
9.62657 94.6577
9.67134 102.497
9.71614 95.8537
9.76091 96.4388
9.80569 98.4071
9.85047 102.483
9.89525 130.324
9.94005 144.939
9.98484 189.139
10.0296 370.09
10.0744 781.708
10.1192 1592.92
10.164 1728.08
10.2088 501.049
10.2536 141.952
10.2984 119.015
10.3432 119.789
10.388 108.087
10.4328 123.496
10.4776 168.08
10.5224 272.231
10.5672 485.735
10.612 538.561
10.6568 228.796
10.7017 102.635
10.7465 89.402
10.7913 85.2481
10.8361 83.1729
10.8809 81.2395
10.9257 80.6009
10.9706 81.6298
11.0154 76.7664
11.0602 74.568
11.105 73.3616
11.1499 79.1252
11.1947 87.5368
11.2395 77.1058
11.2844 72.7838
11.3292 69.1688
11.374 67.9135
11.4189 67.5124
11.4637 66.4011
11.5086 67.1458
11.5534 70.8562
11.5983 67.5555
11.6431 65.3736
11.688 64.3076
11.7328 64.3644
11.7777 64.4253
11.8225 63.7881
11.8674 63.9611
11.9122 64.1096
11.9571 64.4788
12.002 65.2744
12.0468 69.7207
12.0917 82.6839
12.1366 104.601
12.1814 146.751
12.2263 197.288
12.2712 181.006
12.3161 107.493
12.3609 73.8102
12.4058 66.4283
12.4507 66.0305
12.4956 66.1426
12.5405 66.2142
12.5853 67.2533
12.6302 76.2247
12.6751 82.7134
12.72 72.2112
12.7649 69.4694
12.8098 70.0184
12.8547 71.2698
12.8996 72.5067
12.9445 73.9885
12.9894 75.9287
13.0343 77.5902
13.0792 80.8318
13.1242 91.0937
13.1691 117.286
13.214 154.273
13.2589 230.563
13.3038 346.085
13.3487 426.223
13.3937 295.4
13.4386 137.951
13.4835 110.41
13.5285 126.254
13.5734 160.317
13.6183 232.95
13.6633 326.435
13.7082 351.839
13.7531 211.824
13.7981 106.186
13.843 84.3162
13.888 81.7956
13.9329 78.8142
13.9779 77.5311
14.0228 76.376
14.0678 74.8219
14.1127 74.3096
14.1577 74.3546
14.2027 73.4021
14.2476 72.2499
14.2926 72.5514
14.3376 73.5598
14.3825 72.1742
14.4275 70.3346
14.4725 70.2573
14.5175 70.61
14.5624 70.7912
14.6074 72.9663
14.6524 73.8691
14.6974 72.3832
14.7424 74.032
14.7874 81.5979
14.8324 92.3233
14.8774 111.991
14.9224 147.87
14.9674 196.966
15.0124 219.535
15.0574 164.503
15.1024 100.501
15.1474 75.4721
15.1924 72.3946
15.2374 73.5316
15.2824 72.4211
15.3274 69.817
15.3725 68.3568
15.4175 67.8355
15.4625 67.6621
15.5076 68.071
15.5526 67.9118
15.5976 67.4813
15.6426 68.4687
15.6877 74.4843
15.7327 82.8253
15.7778 97.1233
15.8228 122.942
15.8679 162.112
15.9129 193.48
15.958 171.099
16.003 108.169
16.0481 72.8467
16.0931 67.0756
16.1382 64.6847
16.1833 62.3583
16.2283 60.6379
16.2734 60.1783
16.3185 60.5113
16.3636 61.1345
16.4086 59.4739
16.4537 57.7657
16.4988 57.2028
16.5439 56.9678
16.589 56.6471
16.6341 56.414
16.6792 55.8629
16.7243 56.1725
16.7694 56.5157
16.8145 56.2873
16.8596 56.7455
16.9047 58.521
16.9498 58.8158
16.9949 57.2267
17.04 57.2354
17.0851 58.4424
17.1302 60.1799
17.1754 63.2644
17.2205 67.4964
17.2656 74.2684
17.3108 81.9584
17.3559 84.1977
17.401 74.5051
17.4462 64.3715
17.4913 60.7292
17.5365 60.6856
17.5815 60.8139
17.6268 61.0119
17.6718 61.9644
17.7171 62.5067
17.7622 62.5494
17.8074 63.1814
17.8525 65.8415
17.8977 70.193
17.9428 76.16
17.9881 84.0259
18.0331 98.3032
18.0784 117.317
18.1237 137.449
18.1688 138.343
18.214 112.201
18.2591 90.2244
18.3044 90.0048
18.3495 98.8591
18.3948 107.175
18.4399 100.491
18.4852 82.2709
18.5303 68.9009
18.5756 64.0473
18.6207 62.9845
18.666 62.3486
18.7112 61.2495
18.7565 60.3312
18.8016 60.2456
18.8469 59.3923
18.892 59.1098
18.9374 58.6834
18.9825 58.426
19.0278 58.3381
19.073 58.6106
19.1183 59.1342
19.1635 60.0528
19.2088 61.1757
19.254 63.1546
19.2993 66.7724
19.3447 72.5312
19.3898 77.2776
19.4352 74.9342
19.4804 66.5971
19.5257 59.351
19.5709 55.8279
19.6163 55.0344
19.6615 55.1771
19.7068 54.8672
19.752 54.5282
19.7974 54.889
19.8426 55.9513
19.888 56.6281
19.9332 57.7329
19.9786 59.6824
20.0238 62.9084
20.0692 66.9631
20.1144 70.5756
20.1598 70.2935
20.205 65.7799
20.2504 63.2032
20.2957 64.1297
20.3411 66.1428
20.3863 66.0145
20.4318 60.9814
20.477 55.7675
20.5224 53.0801
20.5677 52.5134
20.6131 51.5686
20.6586 50.7809
20.7038 50.7596
20.7493 50.3656
20.7945 50.357
20.84 50.1022
20.8853 50.0563
20.9307 49.7412
20.976 49.9455
21.0215 49.9436
21.0668 50.3424
21.1122 50.6124
21.1575 51.1255
21.203 51.8383
21.2483 52.3136
21.2938 52.7258
21.3391 51.6404
21.3846 50.3929
21.4299 49.7677
21.4754 49.5879
21.5207 49.8046
21.5662 50.0414
21.6116 50.4616
21.6571 51.1356
21.7024 52.0495
21.7479 53.6663
21.7933 56.0803
21.8388 59.2637
21.8843 62.7823
21.9297 65.5327
21.9752 65.5452
22.0206 62.0145
22.0661 58.1775
22.1115 56.9698
22.157 57.1788
22.2024 56.1233
22.248 53.234
22.2933 51.6054
22.3389 50.3465
22.3843 50.3438
22.4299 50.3972
22.4753 50.0258
22.5208 49.8273
22.5662 49.6395
22.6118 49.8689
22.6572 50.18
22.7028 50.522
22.7483 51.0419
22.7939 51.559
22.8393 52.8249
22.8849 54.7825
22.9303 56.4987
22.9759 58.5267
23.0214 58.8823
23.067 56.5515
23.1126 52.8933
23.1581 50.6781
23.2037 50.1126
23.2492 50.162
23.2948 50.1688
23.3403 50.3837
23.3859 51.13
23.4314 51.7784
23.477 53.3171
23.5225 55.2742
23.5682 57.3684
23.6137 58.876
23.6593 57.4306
23.7048 53.8626
23.7505 50.054
23.796 47.962
23.8417 47.2055
23.8872 46.6115
23.9329 46.345
23.9784 46.0559
24.0241 45.7428
24.0697 45.713
24.1154 45.2737
24.1609 45.0841
24.2066 44.8992
24.2522 44.7591
24.2979 44.5623
24.3434 44.5301
24.3892 44.1953
24.4349 44.223
24.4805 43.9323
24.5262 44.3245
24.5718 44.044
24.6175 44.0572
24.6631 43.9407
24.7089 43.7249
24.7545 43.4639
24.8002 43.2661
24.8458 43.2331
24.8916 43.0483
24.9372 43.1249
24.983 43.4619
25.0286 43.9334
25.0744 44.1276
25.12 44.6366
25.1658 45.3681
25.2114 45.7525
25.2572 45.7378
25.3029 45.7789
25.3487 45.9341
25.3943 45.6513
25.4402 44.8297
25.4858 43.7635
25.5316 42.6768
25.5773 41.9984
25.6231 42.0477
25.669 41.5146
25.7147 41.4081
25.7605 41.5325
25.8062 41.6868
25.8521 41.5906
25.8977 41.6447
25.9436 41.8334
25.9893 41.8758
26.0352 42.273
26.0809 42.5152
26.1268 42.6065
26.1725 42.4157
26.2184 41.9749
26.2641 41.3621
26.31 41.1208
26.3557 41.1129
26.4017 41.1433
26.4474 41.345
26.4933 41.616
26.5391 42.1278
26.585 42.4476
26.6308 42.8416
26.6767 42.9592
26.7225 43.0617
26.7684 42.5414
26.8142 41.9577
26.8601 41.5825
26.9059 41.1376
26.9519 40.4279
26.9979 40.2377
27.0437 39.8104
27.0896 39.8564
27.1354 39.7169
27.1814 39.4988
27.2272 39.4939
27.2732 39.5737
27.3191 39.4432
27.3651 39.4499
27.4109 39.2522
27.4569 39.3319
27.5027 39.3822
27.5488 39.5349
27.5946 39.3382
27.6407 39.1225
27.6865 39.0962
27.7326 38.7769
27.7784 38.8294
27.8245 38.6976
27.8703 38.7697
27.9164 39.1434
27.9623 39.2942
28.0084 39.5184
28.0543 39.9264
28.1003 39.8464
28.1462 39.7097
28.1923 39.5596
28.2384 38.7863
28.2843 38.6611
28.3304 38.1318
28.3764 37.7996
28.4225 37.2855
28.4684 37.1835
28.5145 36.8787
28.5605 36.7923
28.6066 36.6472
28.6526 36.5583
28.6987 36.5011
28.7447 36.3621
28.7908 36.2625
28.8368 36.2019
28.8829 36.3147
28.9289 36.3507
28.9751 36.0335
29.0211 35.8566
29.0673 35.53
29.1133 35.3688
29.1595 35.3164
29.2055 35.0234
29.2517 35.2033
29.2977 35.0931
29.3439 35.0781
29.3899 35.0683
29.4361 34.974
29.4824 34.7777
29.5284 34.6628
29.5746 34.2801
29.6207 33.9131
29.6669 33.8725
29.713 33.8326
29.7593 33.6658
29.8053 33.7921
29.8516 33.4695
29.8977 33.5628
29.9439 33.3939
29.99 33.3126
30.0363 33.2956
30.0824 33.1643
30.1287 33.2352
30.1748 33.2616
30.2211 33.2315
30.2673 33.0355
30.3136 33.1766
30.3597 33.0078
30.406 32.9917
30.4522 32.9259
30.4985 32.8371
30.5447 32.8209
30.591 32.8817
30.6372 32.9677
30.6835 32.9822
30.7297 32.9505
30.7761 32.9206
30.8224 32.8956
30.8686 32.6147
30.915 32.4218
30.9612 32.1996
31.0076 32.0486
31.0538 31.9304
31.1002 31.9123
31.1464 31.6407
31.1928 31.6758
31.2391 31.6933
31.2855 31.4989
31.3317 31.669
31.3781 31.719
31.4244 31.5877
31.4708 31.3953
31.5171 31.502
31.5636 31.5751
31.6098 31.2575
31.6563 31.1373
31.7026 30.9923
31.7491 30.7821
31.7953 30.9299
31.8418 30.8438
31.8881 30.818
31.9346 30.7472
31.9809 30.8168
32.0275 30.6146
32.074 30.5786
32.1203 30.3278
32.1668 30.2774
32.2132 30.0972
32.2597 30.0383
32.306 29.89
32.3526 29.7318
32.399 29.6517
32.4455 29.5188
32.4919 29.3416
32.5385 29.2746
32.5848 29.2007
32.6314 29.1281
32.6778 29.1374
32.7244 28.9494
32.7708 28.759
32.8174 28.8715
32.8638 28.7032
32.9104 28.7746
32.9569 28.6431
33.0035 28.4974
33.0499 28.4375
33.0966 28.4736
33.143 28.4112
33.1897 28.3781
33.2361 28.1984
33.2828 28.2601
33.3293 28.0264
33.3759 28.0551
33.4226 27.9083
33.4691 27.7718
33.5158 27.6986
33.5623 27.5816
33.609 27.3583
33.6555 27.3462
33.7022 27.2418
33.7487 27.1647
33.7954 27.1074
33.842 26.9979
33.8887 27.0095
33.9353 26.8903
33.982 26.7396
34.0286 26.7639
34.0753 26.5547
34.1219 26.5029
34.1687 26.4235
34.2152 26.4047
34.262 26.3358
34.3086 26.1461
34.3554 26.2287
34.402 26.027
34.4488 25.8371
34.4954 25.8724
34.5422 25.8393
34.5889 25.6976
34.6357 25.6367
34.6825 25.5323
34.7292 25.3765
34.776 25.3281
34.8227 25.2838
34.8695 25.238
34.9162 25.1951
34.9631 25.1016
35.0098 25.1567
35.0566 24.9863
35.1033 24.8993
35.1502 24.8756
35.1969 24.8007
35.2438 24.7629
35.2906 24.6946
35.3375 24.6339
35.3842 24.5615
35.4311 24.4872
35.4779 24.5155
35.5248 24.4998
35.5716 24.3565
35.6185 24.2147
35.6653 24.146
35.7123 24.1222
35.759 23.981
35.806 23.9152
35.8528 23.8641
35.8998 23.7846
35.9468 23.672
35.9936 23.6339
36.0406 23.6319
36.0874 23.4796
36.1345 23.4467
36.1813 23.3976
36.2283 23.3208
36.2752 23.1622
36.3222 23.2328
36.3691 23.1233
36.4161 23.0148
36.463 23.0176
36.5101 23.0117
36.557 22.9564
36.6041 22.7403
36.651 22.7109
36.6981 22.7412
36.745 22.6789
36.7921 22.5316
36.839 22.3666
36.8861 22.3883
36.9331 22.2809
36.9802 22.1879
37.0272 22.0656
37.0743 22.0737
37.1213 22.0383
37.1684 21.9023
37.2154 21.8689
37.2626 21.8235
37.3098 21.7242
37.3568 21.6059
37.404 21.5428
37.451 21.4009
37.4982 21.4342
37.5452 21.3875
37.5924 21.3198
37.6395 21.3206
37.6867 21.2603
37.7337 21.1046
37.781 21.0716
37.8281 21.0259
37.8753 20.9098
37.9224 20.836
37.9697 20.7867
38.0168 20.6924
38.064 20.5714
38.1111 20.5687
38.1584 20.4354
38.2056 20.4872
38.2529 20.3813
38.3 20.2944
38.3473 20.3215
38.3945 20.1914
38.4418 20.1616
38.489 20.0689
38.5363 20.0515
38.5837 19.8967
38.6309 19.9235
38.6782 19.8035
38.7254 19.6887
38.7728 19.7002
38.82 19.6117
38.8674 19.5154
38.9146 19.4969
38.9621 19.4568
39.0093 19.3871
39.0567 19.2854
39.104 19.2585
39.1514 19.2112
39.1987 19.1623
39.2461 19.1105
39.2934 19.0108
39.3409 18.859
39.3882 18.8906
39.4356 18.781
39.483 18.7152
39.5304 18.6174
39.5778 18.7045
39.6253 18.5886
39.6726 18.5487
39.7201 18.5196
39.7675 18.4411
39.815 18.3511
39.8624 18.2695
39.9099 18.2952
39.9575 18.1969
40.0049 18.1155
40.0525 18.091
40.0999 17.9858
40.1474 18.0081
40.1949 17.9196
40.2425 17.8532
40.2899 17.8285
40.3375 17.7383
40.385 17.6811
40.4326 17.6674
40.48 17.5284
40.5277 17.4882
40.5752 17.4446
40.6228 17.3903
40.6703 17.3655
40.718 17.2931
40.7655 17.1909
40.8132 17.1396
40.8607 17.1762
40.9084 17.0758
40.9559 17.0035
41.0036 17.0173
41.0512 16.9056
41.0989 16.871
41.1465 16.7625
41.1942 16.7571
41.242 16.6439
41.2896 16.6301
41.3373 16.5672
41.3849 16.5048
41.4327 16.4738
41.4803 16.3964
41.5281 16.4033
41.5758 16.3303
41.6236 16.2041
41.6712 16.1533
41.7191 16.1487
41.7667 16.0778
41.8146 16.0323
41.8622 15.9698
41.9101 15.9095
41.9578 15.8094
42.0057 15.7712
42.0534 15.744
42.1013 15.6888
42.149 15.6284
42.1969 15.599
42.2446 15.5208
42.2925 15.4978
42.3403 15.4104
42.3882 15.4607
42.436 15.3518
42.4839 15.3117
42.5319 15.2047
42.5797 15.1746
42.6277 15.1105
42.6755 15.1078
42.7235 15.0311
42.7713 15.0008
42.8193 14.905
42.8671 14.9252
42.9152 14.7965
42.963 14.747
43.0111 14.6866
43.0589 14.6891
43.107 14.6089
43.1549 14.6101
43.2029 14.5318
43.2508 14.496
43.2989 14.411
43.3468 14.4274
43.3949 14.349
43.4429 14.2455
43.491 14.2436
43.5389 14.1981
43.5871 14.1296
43.635 14.0264
43.6832 14.0499
43.7312 13.9813
43.7793 13.9115
43.8273 13.9297
43.8755 13.8246
43.9237 13.7915
43.9717 13.738
44.0199 13.7134
44.068 13.6486
44.1162 13.5438
44.1642 13.5605
44.2125 13.5044
44.2606 13.4737
44.3088 13.3555
44.3569 13.3562
44.4052 13.3116
44.4533 13.2545
44.5016 13.1977
44.5497 13.1727
44.598 13.1679
44.6461 13.0815
44.6945 13.0455
44.7426 13.0127
44.791 12.9266
44.8391 12.8549
44.8875 12.8672
44.9357 12.8187
44.984 12.7369
45.0322 12.7151
45.0806 12.6469
45.1288 12.5998
45.1773 12.6072
45.2257 12.5115
45.2739 12.5209
45.3224 12.4277
45.3706 12.434
45.4191 12.3219
45.4673 12.3
45.5158 12.2554
45.5641 12.2373
45.6126 12.1918
45.6609 12.1578
45.7094 12.113
45.7577 12.0425
45.8063 11.9801
45.8546 11.9853
45.9031 11.9064
45.9515 11.8927
46.0001 11.8321
46.0484 11.81
46.097 11.7607
46.1454 11.6963
46.194 11.709
46.2424 11.6087
46.291 11.6093
46.3395 11.5264
46.3881 11.4822
46.4365 11.4863
46.4852 11.4312
46.5337 11.3598
46.5823 11.3431
46.631 11.2932
46.6795 11.2979
46.7282 11.222
46.7767 11.1913
46.8254 11.1062
46.8739 11.1067
46.9226 11.0455
46.9712 11.0035
47.0199 10.948
47.0685 10.9267
47.1173 10.8905
47.1658 10.8615
47.2146 10.8122
47.2632 10.7694
47.312 10.7174
47.3606 10.7187
47.4095 10.6217
47.4581 10.6247
47.5069 10.577
47.5556 10.5581
47.6044 10.4759
47.6531 10.49
47.702 10.3658
47.7507 10.3445
47.7996 10.3205
47.8483 10.3301
47.8972 10.2773
47.9461 10.247
47.9948 10.1885
48.0438 10.1349
48.0925 10.0975
48.1415 10.0415
48.1902 10.0432
48.2392 10.0232
48.288 9.97897
48.337 9.96276
48.3858 9.90385
48.4348 9.89796
48.4837 9.85537
48.5327 9.78495
48.5815 9.73275
48.6306 9.73207
48.6795 9.68539
48.7285 9.65951
48.7774 9.6012
48.8265 9.59544
48.8754 9.53225
48.9245 9.47365
48.9734 9.47414
49.0226 9.44166
49.0715 9.39863
49.1206 9.36844
49.1696 9.34676
49.2188 9.30848
49.2679 9.25491
49.3169 9.22196
49.3661 9.2058
49.4151 9.1833
49.4643 9.12209
49.5134 9.08773
49.5626 9.03046
49.6117 9.01817
49.6609 8.95979
49.71 8.90123
49.7592 8.88914
49.8083 8.87637
49.8576 8.81305
49.9067 8.81709
49.956 8.7909
50.0052 8.73397
50.0545 8.73289
50.1036 8.65895
50.153 8.65746
50.2022 8.60504
50.2515 8.57286
50.3007 8.52101
50.3501 8.48877
50.3993 8.47705
50.4487 8.42565
50.498 8.41603
50.5474 8.36978
50.5966 8.36188
50.6461 8.31005
50.6955 8.29617
50.7448 8.27566
50.7943 8.2234
50.8436 8.15217
50.8931 8.14927
50.9424 8.14137
50.9919 8.07384
51.0413 8.03892
51.0908 8.02694
51.1402 7.988
51.1897 7.94019
51.2391 7.91235
51.2887 7.87494
51.3381 7.85421
51.3877 7.79643
51.4371 7.79118
51.4867 7.76699
51.5362 7.73168
51.5858 7.69665
51.6353 7.66144
51.6849 7.63574
51.7344 7.58693
51.7841 7.60084
51.8336 7.53247
51.8833 7.53276
51.9328 7.50134
51.9826 7.43275
52.0323 7.42146
52.0818 7.38959
52.1316 7.33698
52.1812 7.34778
52.231 7.31386
52.2806 7.27388
52.3304 7.25778
52.38 7.19056
52.4298 7.17189
52.4794 7.11405
52.5293 7.12025
52.5789 7.06848
52.6288 7.05772
52.6785 6.9955
52.7284 7.01278
52.7781 6.95525
52.828 6.95919
52.8777 6.91018
52.9276 6.8702
52.9774 6.8315
53.0273 6.79251
53.0771 6.79564
53.1271 6.75224
53.1769 6.74828
53.2269 6.72823
53.2767 6.68567
53.3267 6.66476
53.3765 6.59468
53.4266 6.57585
53.4766 6.57795
53.5265 6.52929
53.5765 6.53609
53.6264 6.4643
53.6765 6.43574
53.7264 6.41847
53.7765 6.42059
53.8265 6.32652
53.8766 6.35386
53.9266 6.30008
53.9767 6.28478
54.0267 6.27717
54.0769 6.21688
54.1269 6.17751
54.1771 6.15537
54.2271 6.12947
54.2773 6.09682
54.3274 6.06323
54.3776 6.03063
54.4277 5.96746
54.478 5.9959
54.528 5.94067
54.5783 5.89517
54.6285 5.84906
54.6788 5.84281
54.7289 5.76935
54.7792 5.71469
54.8296 5.66955
54.8798 5.64502
54.9301 5.59885
54.9803 5.62017
55.0307 5.53406
55.0809 5.50359
55.1314 5.49149
55.1816 5.40185
55.232 5.37589
55.2823 5.39751
55.3328 5.2686
55.383 5.18574
55.4335 5.17966
55.4838 5.07804
55.5344 5.072
55.5847 5.05008
55.6352 4.99586
55.6856 4.95651
55.7361 4.9242