File: XRD/Ni3Fe_FD0219.xy
TT I
1.27165 8.11922
1.31627 7.9695
1.36089 6.59927
1.40551 6.77434
1.45013 6.1566
1.49476 6.10748
1.53938 6.42491
1.584 5.68119
1.62863 5.1909
1.67325 5.27315
1.71787 5.23567
1.7625 5.37028
1.80712 5.54605
1.85174 5.51347
1.89636 5.38774
1.94099 5.10784
1.98562 4.99196
2.03025 4.90803
2.07487 4.72547
2.11949 4.91445
2.16411 4.81739
2.20874 4.95804
2.25338 4.48213
2.298 4.80106
2.34263 4.88695
2.38725 4.62843
2.43188 5.40448
2.4765 5.08519
2.52115 4.63509
2.56577 5.02602
2.6104 6.39856
2.65503 5.89263
2.69965 6.09279
2.7443 7.23275
2.78893 6.85565
2.83356 7.36785
2.87818 7.74486
2.92281 7.99943
2.96744 9.09947
3.01209 10.4993
3.05672 11.0796
3.10135 12.377
3.14599 13.0726
3.19062 14.0346
3.23527 15.303
3.2799 15.456
3.32454 16.8681
3.36917 18.1009
3.4138 19.2273
3.45844 19.5007
3.50309 20.5624
3.54773 21.4063
3.59237 22.2357
3.637 23.2092
3.68164 23.948
3.7263 25.4697
3.77094 26.3949
3.81558 26.8298
3.86022 27.8682
3.90486 29.1945
3.9495 30.0924
3.99416 30.7981
4.0388 32.3136
4.08344 33.9978
4.12809 34.8006
4.17273 36.317
4.21738 38.2753
4.26204 38.9716
4.30669 40.5106
4.35133 43.1317
4.39598 44.5386
4.44063 46.0188
4.4853 48.567
4.52995 52.115
4.5746 54.1038
4.61925 55.8925
4.6639 58.4421
4.70855 61.2493
4.75322 65.145
4.79788 68.3224
4.84253 71.6693
4.88719 76.7453
4.93184 81.7269
4.97652 88.7826
5.02118 96.3294
5.06583 107.565
5.11049 124.521
5.15515 169.169
5.19981 888.915
5.24449 3972.83
5.28916 10561.3
5.33382 4318.81
5.37848 278.078
5.42315 153.818
5.46783 129.494
5.5125 118.415
5.55716 112.717
5.60183 107.055
5.6465 104.633
5.69117 103.762
5.73586 100.765
5.78053 101.889
5.8252 102.094
5.86988 104.724
5.91455 110.711
5.95924 133.546
6.00392 446.521
6.0486 1422.37
6.09328 3586.84
6.13795 3687.9
6.18263 383.747
6.22733 110.413
6.27201 89.6821
6.3167 81.1761
6.36138 76.7724
6.40606 73.0345
6.45075 71.1249
6.49545 68.3123
6.54014 66.6344
6.58483 65.8718
6.62952 64.0429
6.67421 62.5571
6.71892 61.4263
6.76361 60.6266
6.8083 59.6393
6.853 59.5239
6.89769 58.6995
6.94239 57.8863
6.98711 57.6419
7.03181 57.2645
7.07651 56.9589
7.12121 56.321
7.16591 56.7163
7.21063 56.1878
7.25533 55.7717
7.30004 55.6074
7.34475 55.9349
7.38945 56.3155
7.43416 55.4446
7.47889 55.8216
7.5236 56.1525
7.56831 57.0826
7.61303 57.1762
7.65774 57.0904
7.70247 57.9718
7.74719 58.4624
7.79191 58.7752
7.83663 59.4874
7.88135 60.2127
7.92607 61.5145
7.97081 62.5729
8.01553 63.9294
8.06026 65.4164
8.10498 66.8682
8.14971 68.9589
8.19446 70.6887
8.23919 73.1054
8.28392 76.1714
8.32865 79.2767
8.37339 84.6979
8.41812 90.7032
8.46288 110.443
8.50761 290.169
8.55235 588.071
8.59709 1055.79
8.64183 1953.97
8.68658 1235.26
8.73134 225.873
8.77609 111.875
8.82083 100.311
8.86558 96.1676
8.91033 93.38
8.9551 90.9699
8.99985 89.4649
9.04461 88.3944
9.08936 87.8052
9.13412 86.8107
9.17888 86.6324
9.22365 87.135
9.26841 86.8352
9.31318 87.6731
9.35794 88.0182
9.4027 88.1743
9.44749 89.072
9.49226 89.6149
9.53703 90.9284
9.5818 92.7022
9.62657 94.4926
9.67134 95.7391
9.71614 97.688
9.76091 99.9069
9.80569 103.42
9.85047 106.857
9.89525 112.942
9.94005 135.88
9.98484 304.042
10.0296 521.904
10.0744 796.354
10.1192 1445.92
10.164 1745.93
10.2088 565.464
10.2536 151.463
10.2984 118.08
10.3432 113.043
10.388 114.957
10.4328 159.131
10.4776 212.711
10.5224 279.663
10.5672 433.619
10.612 534.21
10.6568 254.968
10.7017 108.519
10.7465 92.4744
10.7913 88.3564
10.8361 85.5864
10.8809 82.898
10.9257 81.1093
10.9706 79.7195
11.0154 78.0362
11.0602 76.2242
11.105 75.0757
11.1499 73.6706
11.1947 72.5718
11.2395 71.3833
11.2844 70.8286
11.3292 69.8937
11.374 69.2843
11.4189 68.7296
11.4637 67.9554
11.5086 67.183
11.5534 66.9429
11.5983 66.16
11.6431 66.5451
11.688 65.9065
11.7328 65.7429
11.7777 65.6022
11.8225 65.3605
11.8674 65.8117
11.9122 66.0841
11.9571 66.4443
12.002 68.7296
12.0468 79.977
12.0917 94.6036
12.1366 109.523
12.1814 139.995
12.2263 191.546
12.2712 188.19
12.3161 103.879
12.3609 70.4051
12.4058 67.2478
12.4507 67.3928
12.4956 67.421
12.5405 67.4768
12.5853 68.0498
12.6302 68.3114
12.6751 68.6422
12.72 69.6419
12.7649 70.9901
12.8098 71.6325
12.8547 73.2137
12.8996 74.9609
12.9445 76.5497
12.9894 78.6452
13.0343 80.6954
13.0792 86.2514
13.1242 110.334
13.1691 148.505
13.214 175.221
13.2589 227.339
13.3038 317.545
13.3487 418.952
13.3937 312.091
13.4386 150.316
13.4835 134.338
13.5285 154.563
13.5734 174.064
13.6183 224.329
13.6633 306.789
13.7082 357.35
13.7531 230.962
13.7981 112.569
13.843 87.6144
13.888 84.4175
13.9329 81.5608
13.9779 80.2524
14.0228 78.447
14.0678 76.9903
14.1127 76.2009
14.1577 75.5276
14.2027 74.7729
14.2476 74.2835
14.2926 73.4934
14.3376 73.3167
14.3825 72.7886
14.4275 72.3184
14.4725 72.5045
14.5175 72.6022
14.5624 72.7015
14.6074 72.8478
14.6524 73.8381
14.6974 74.5022
14.7424 80.8814
14.7874 95.5433
14.8324 106.948
14.8774 119.081
14.9224 144.007
14.9674 185.015
15.0124 222.845
15.0574 173.84
15.1024 103.547
15.1474 77.5283
15.1924 74.1356
15.2374 72.5744
15.2824 71.7018
15.3274 70.7072
15.3725 70.1557
15.4175 70.0127
15.4625 69.3979
15.5076 69.093
15.5526 69.4262
15.5976 70.0177
15.6426 74.8671
15.6877 86.4118
15.7327 95.4306
15.7778 103.593
15.8228 121.605
15.8679 152.095
15.9129 189.242
15.958 178.657
16.003 115.133
16.0481 73.906
16.0931 65.9541
16.1382 64.0296
16.1833 63.1471
16.2283 61.8449
16.2734 61.111
16.3185 60.501
16.3636 59.4525
16.4086 58.9664
16.4537 58.4838
16.4988 58.0881
16.5439 58.2156
16.589 57.6131
16.6341 57.6098
16.6792 57.042
16.7243 57.3636
16.7694 57.0979
16.8145 57.2673
16.8596 57.4746
16.9047 57.7101
16.9498 57.7147
16.9949 57.9094
17.04 59.3927
17.0851 62.0171
17.1302 63.7434
17.1754 65.6023
17.2205 68.8912
17.2656 73.7401
17.3108 81.8165
17.3559 85.8037
17.401 78.0242
17.4462 67.3396
17.4913 62.6226
17.5365 61.9491
17.5815 62.1332
17.6268 62.6923
17.6718 63.2996
17.7171 63.6697
17.7622 64.6949
17.8074 66.3921
17.8525 72.1683
17.8977 78.5017
17.9428 82.8474
17.9881 88.0538
18.0331 98.8718
18.0784 114.533
18.1237 139.025
18.1688 145.762
18.214 120.0
18.2591 94.5016
18.3044 90.0144
18.3495 96.8502
18.3948 106.556
18.4399 103.21
18.4852 84.4241
18.5303 70.5951
18.5756 65.8034
18.6207 64.6954
18.666 63.5452
18.7112 62.6399
18.7565 62.0888
18.8016 61.7796
18.8469 60.9863
18.892 60.7668
18.9374 60.3615
18.9825 59.8631
19.0278 59.6969
19.073 60.4177
19.1183 61.548
19.1635 62.191
19.2088 63.0323
19.254 64.6755
19.2993 67.2454
19.3447 71.3444
19.3898 76.2746
19.4352 76.4357
19.4804 68.863
19.5257 60.7466
19.5709 57.2151
19.6163 56.4863
19.6615 56.6517
19.7068 56.0921
19.752 56.2841
19.7974 57.1373
19.8426 58.2995
19.888 58.6766
19.9332 59.8084
19.9786 61.5373
20.0238 63.956
20.0692 68.4309
20.1144 72.4888
20.1598 73.2818
20.205 68.175
20.2504 64.6502
20.2957 64.353
20.3411 66.9611
20.3863 67.5933
20.4318 62.5862
20.477 57.0754
20.5224 53.8537
20.5677 53.193
20.6131 52.7016
20.6586 52.024
20.7038 51.8364
20.7493 51.4726
20.7945 51.4998
20.84 51.3444
20.8853 51.1404
20.9307 51.1409
20.976 51.4872
21.0215 51.3702
21.0668 51.4492
21.1122 51.8176
21.1575 52.0852
21.203 52.6522
21.2483 53.4957
21.2938 54.1889
21.3391 52.9013
21.3846 51.6189
21.4299 51.0928
21.4754 51.0211
21.5207 51.1273
21.5662 51.9649
21.6116 52.797
21.6571 53.6989
21.7024 54.5134
21.7479 55.5756
21.7933 57.3985
21.8388 60.2324
21.8843 63.5094
21.9297 66.6472
21.9752 67.2292
22.0206 63.3783
22.0661 58.9368
22.1115 57.912
22.157 58.3437
22.2024 57.7892
22.248 54.7815
22.2933 52.6924
22.3389 51.5439
22.3843 51.2072
22.4299 50.9756
22.4753 51.016
22.5208 51.1686
22.5662 51.1006
22.6118 51.6
22.6572 51.9885
22.7028 52.5359
22.7483 52.8503
22.7939 53.219
22.8393 54.2465
22.8849 55.4967
22.9303 57.0554
22.9759 59.2627
23.0214 60.1515
23.067 58.3093
23.1126 54.7731
23.1581 52.2016
23.2037 51.4912
23.2492 51.883
23.2948 52.2309
23.3403 52.4151
23.3859 52.8348
23.4314 53.1911
23.477 54.4327
23.5225 55.7111
23.5682 57.6806
23.6137 59.8003
23.6593 59.0365
23.7048 55.248
23.7505 51.474
23.796 49.2608
23.8417 48.32
23.8872 47.79
23.9329 47.5641
23.9784 47.3003
24.0241 46.8128
24.0697 46.6322
24.1154 46.2222
24.1609 46.0055
24.2066 46.0539
24.2522 45.81
24.2979 45.5283
24.3434 45.2844
24.3892 45.2026
24.4349 45.2178
24.4805 45.0418
24.5262 45.2765
24.5718 44.7871
24.6175 44.9486
24.6631 44.9889
24.7089 44.6535
24.7545 44.4944
24.8002 44.4734
24.8458 44.3371
24.8916 44.1754
24.9372 44.5063
24.983 44.8984
25.0286 45.0831
25.0744 45.3056
25.12 45.8059
25.1658 46.3324
25.2114 46.6237
25.2572 46.6702
25.3029 46.5303
25.3487 46.7396
25.3943 46.8957
25.4402 46.0048
25.4858 44.9747
25.5316 43.6211
25.5773 42.9573
25.6231 43.0172
25.669 42.5533
25.7147 42.6024
25.7605 42.5464
25.8062 42.4538
25.8521 42.5592
25.8977 42.4613
25.9436 42.7263
25.9893 42.792
26.0352 43.1154
26.0809 43.2237
26.1268 43.7258
26.1725 43.5748
26.2184 43.1152
26.2641 42.6727
26.31 42.2408
26.3557 42.3326
26.4017 42.1706
26.4474 42.4989
26.4933 42.659
26.5391 42.8531
26.585 43.2843
26.6308 43.5818
26.6767 44.165
26.7225 44.08
26.7684 43.6295
26.8142 42.8351
26.8601 42.527
26.9059 41.9977
26.9519 41.5542
26.9979 41.2611
27.0437 40.8239
27.0896 40.7248
27.1354 40.67
27.1814 40.5523
27.2272 40.472
27.2732 40.427
27.3191 40.309
27.3651 40.3714
27.4109 40.1715
27.4569 40.2834
27.5027 40.3044
27.5488 40.4797
27.5946 40.2028
27.6407 40.2195
27.6865 40.1701
27.7326 39.8543
27.7784 39.763
27.8245 39.729
27.8703 39.8793
27.9164 40.1524
27.9623 40.0348
28.0084 40.3784
28.0543 40.6516
28.1003 40.7589
28.1462 40.7406
28.1923 40.3212
28.2384 39.719
28.2843 39.4702
28.3304 39.1224
28.3764 38.5876
28.4225 38.2339
28.4684 37.8886
28.5145 37.7068
28.5605 37.61
28.6066 37.3689
28.6526 37.2644
28.6987 37.2503
28.7447 37.1882
28.7908 37.0846
28.8368 37.0652
28.8829 37.0546
28.9289 37.0178
28.9751 36.8378
29.0211 36.656
29.0673 36.3545
29.1133 36.2255
29.1595 35.9743
29.2055 36.0562
29.2517 36.0007
29.2977 35.9985
29.3439 35.8549
29.3899 35.8072
29.4361 35.7695
29.4824 35.649
29.5284 35.4503
29.5746 35.0968
29.6207 34.8049
29.6669 34.7291
29.713 34.5943
29.7593 34.4437
29.8053 34.4457
29.8516 34.4047
29.8977 34.2832
29.9439 34.1526
29.99 34.2251
30.0363 34.0069
30.0824 34.1146
30.1287 33.9914
30.1748 33.9595
30.2211 33.9004
30.2673 33.9019
30.3136 34.0356
30.3597 33.8496
30.406 33.7526
30.4522 33.6989
30.4985 33.5645
30.5447 33.7856
30.591 33.6198
30.6372 33.6378
30.6835 33.6523
30.7297 33.6411
30.7761 33.7119
30.8224 33.5937
30.8686 33.4631
30.915 33.1459
30.9612 33.1208
31.0076 32.9126
31.0538 32.733
31.1002 32.5988
31.1464 32.4468
31.1928 32.3985
31.2391 32.4541
31.2855 32.2751
31.3317 32.3887
31.3781 32.4182
31.4244 32.3503
31.4708 32.2689
31.5171 32.3303
31.5636 32.2128
31.6098 32.0425
31.6563 31.9095
31.7026 31.7939
31.7491 31.5611
31.7953 31.6286
31.8418 31.5842
31.8881 31.4916
31.9346 31.528
31.9809 31.4617
32.0275 31.3037
32.074 31.3289
32.1203 31.072
32.1668 30.9838
32.2132 30.8791
32.2597 30.6319
32.306 30.5386
32.3526 30.3931
32.399 30.4112
32.4455 30.0933
32.4919 30.0945
32.5385 29.9587
32.5848 29.9134
32.6314 29.9111
32.6778 29.7924
32.7244 29.595
32.7708 29.4924
32.8174 29.5474
32.8638 29.2845
32.9104 29.4077
32.9569 29.3763
33.0035 29.2499
33.0499 29.1643
33.0966 29.072
33.143 29.1435
33.1897 29.0393
33.2361 28.9443
33.2828 28.9218
33.3293 28.7002
33.3759 28.6642
33.4226 28.5548
33.4691 28.4299
33.5158 28.3558
33.5623 28.2123
33.609 28.0121
33.6555 27.9142
33.7022 27.8442
33.7487 27.779
33.7954 27.8133
33.842 27.6154
33.8887 27.5772
33.9353 27.5625
33.982 27.4632
34.0286 27.3034
34.0753 27.2625
34.1219 27.145
34.1687 27.0546
34.2152 26.9668
34.262 26.8422
34.3086 26.7935
34.3554 26.7339
34.402 26.6798
34.4488 26.5148
34.4954 26.4895
34.5422 26.2427
34.5889 26.2939
34.6357 26.1113
34.6825 26.131
34.7292 26.0968
34.776 25.8862
34.8227 25.8115
34.8695 25.7892
34.9162 25.8038
34.9631 25.6766
35.0098 25.7297
35.0566 25.5561
35.1033 25.5177
35.1502 25.3835
35.1969 25.3218
35.2438 25.2934
35.2906 25.2288
35.3375 25.2047
35.3842 25.0946
35.4311 25.0908
35.4779 25.0519
35.5248 25.0201
35.5716 24.9831
35.6185 24.808
35.6653 24.7239
35.7123 24.668
35.759 24.589
35.806 24.4548
35.8528 24.4134
35.8998 24.3217
35.9468 24.2642
35.9936 24.2284
36.0406 24.0733
36.0874 24.0228
36.1345 24.0076
36.1813 23.9323
36.2283 23.756
36.2752 23.716
36.3222 23.7213
36.3691 23.5778
36.4161 23.493
36.463 23.4828
36.5101 23.4621
36.557 23.4312
36.6041 23.2451
36.651 23.1969
36.6981 23.1936
36.745 23.0264
36.7921 23.0809
36.839 22.8615
36.8861 22.8701
36.9331 22.8144
36.9802 22.687
37.0272 22.6454
37.0743 22.5485
37.1213 22.518
37.1684 22.453
37.2154 22.3479
37.2626 22.2308
37.3098 22.2055
37.3568 22.1333
37.404 22.0646
37.451 21.9276
37.4982 21.9423
37.5452 21.8042
37.5924 21.8285
37.6395 21.827
37.6867 21.7412
37.7337 21.633
37.781 21.5239
37.8281 21.483
37.8753 21.3861
37.9224 21.2851
37.9697 21.2586
38.0168 21.1162
38.064 21.1193
38.1111 21.0203
38.1584 20.9855
38.2056 20.8795
38.2529 20.8429
38.3 20.8098
38.3473 20.7553
38.3945 20.6457
38.4418 20.6102
38.489 20.5515
38.5363 20.4115
38.5837 20.3809
38.6309 20.292
38.6782 20.2216
38.7254 20.1405
38.7728 20.0765
38.82 20.0524
38.8674 19.9752
38.9146 19.8691
38.9621 19.8215
39.0093 19.8237
39.0567 19.8125
39.104 19.7149
39.1514 19.5872
39.1987 19.5755
39.2461 19.526
39.2934 19.4176
39.3409 19.301
39.3882 19.2271
39.4356 19.1978
39.483 19.1523
39.5304 19.1277
39.5778 19.0514
39.6253 18.9998
39.6726 18.8935
39.7201 18.8975
39.7675 18.8554
39.815 18.758
39.8624 18.7071
39.9099 18.6946
39.9575 18.5711
40.0049 18.4479
40.0525 18.4132
40.0999 18.4275
40.1474 18.3127
40.1949 18.2529
40.2425 18.2344
40.2899 18.2046
40.3375 18.1712
40.385 18.0593
40.4326 18.0378
40.48 17.956
40.5277 17.8763
40.5752 17.7847
40.6228 17.7613
40.6703 17.6778
40.718 17.7098
40.7655 17.6584
40.8132 17.5584
40.8607 17.493
40.9084 17.4872
40.9559 17.3663
41.0036 17.3168
41.0512 17.2646
41.0989 17.218
41.1465 17.1298
41.1942 17.1725
41.242 16.9903
41.2896 16.9784
41.3373 16.9056
41.3849 16.8442
41.4327 16.8648
41.4803 16.7373
41.5281 16.6817
41.5758 16.5577
41.6236 16.6002
41.6712 16.523
41.7191 16.4886
41.7667 16.4719
41.8146 16.3505
41.8622 16.253
41.9101 16.268
41.9578 16.1247
42.0057 16.09
42.0534 16.1026
42.1013 16.0779
42.149 15.9945
42.1969 15.9386
42.2446 15.8428
42.2925 15.8006
42.3403 15.7899
42.3882 15.733
42.436 15.6295
42.4839 15.5487
42.5319 15.6008
42.5797 15.5489
42.6277 15.4457
42.6755 15.403
42.7235 15.3354
42.7713 15.2889
42.8193 15.2257
42.8671 15.2229
42.9152 15.1756
42.963 15.0862
43.0111 14.9945
43.0589 14.9593
43.107 14.9225
43.1549 14.8874
43.2029 14.822
43.2508 14.8164
43.2989 14.714
43.3468 14.6082
43.3949 14.6226
43.4429 14.5664
43.491 14.5052
43.5389 14.4623
43.5871 14.4348
43.635 14.3544
43.6832 14.3167
43.7312 14.2923
43.7793 14.2461
43.8273 14.2284
43.8755 14.076
43.9237 14.0377
43.9717 14.0218
44.0199 13.994
44.068 13.9576
44.1162 13.9032
44.1642 13.8313
44.2125 13.7979
44.2606 13.7552
44.3088 13.6994
44.3569 13.6634
44.4052 13.6144
44.4533 13.505
44.5016 13.4963
44.5497 13.4639
44.598 13.4164
44.6461 13.3664
44.6945 13.3187
44.7426 13.2787
44.791 13.1736
44.8391 13.1753
44.8875 13.1214
44.9357 13.0914
44.984 13.0151
45.0322 12.9779
45.0806 12.9431
45.1288 12.9185
45.1773 12.8674
45.2257 12.7764
45.2739 12.7695
45.3224 12.7306
45.3706 12.6906
45.4191 12.5686
45.4673 12.5812
45.5158 12.5603
45.5641 12.4959
45.6126 12.362
45.6609 12.3862
45.7094 12.3485
45.7577 12.341
45.8063 12.2445
45.8546 12.2473
45.9031 12.1789
45.9515 12.1548
46.0001 12.1396
46.0484 12.0239
46.097 11.9833
46.1454 11.9647
46.194 11.9042
46.2424 11.8468
46.291 11.8354
46.3395 11.7853
46.3881 11.7181
46.4365 11.7125
46.4852 11.6708
46.5337 11.6115
46.5823 11.5923
46.631 11.5479
46.6795 11.4575
46.7282 11.4521
46.7767 11.3989
46.8254 11.3684
46.8739 11.2858
46.9226 11.2669
46.9712 11.2301
47.0199 11.1689
47.0685 11.1392
47.1173 11.1138
47.1658 11.0534
47.2146 11.0652
47.2632 10.975
47.312 10.9489
47.3606 10.8935
47.4095 10.8751
47.4581 10.8077
47.5069 10.7901
47.5556 10.7363
47.6044 10.6395
47.6531 10.6917
47.702 10.5764
47.7507 10.5445
47.7996 10.5438
47.8483 10.5389
47.8972 10.4497
47.9461 10.4106
47.9948 10.3808
48.0438 10.345
48.0925 10.322
48.1415 10.2745
48.1902 10.2242
48.2392 10.2048
48.288 10.2235
48.337 10.1613
48.3858 10.0841
48.4348 10.0723
48.4837 10.0441
48.5327 9.99767
48.5815 9.97716
48.6306 9.92587
48.6795 9.93363
48.7285 9.83761
48.7774 9.82504
48.8265 9.79984
48.8754 9.74757
48.9245 9.73131
48.9734 9.64636
49.0226 9.64227
49.0715 9.60379
49.1206 9.53183
49.1696 9.50996
49.2188 9.48983
49.2679 9.41542
49.3169 9.36125
49.3661 9.35761
49.4151 9.32087
49.4643 9.32252
49.5134 9.24809
49.5626 9.2174
49.6117 9.19077
49.6609 9.14814
49.71 9.11943
49.7592 9.07308
49.8083 9.05064
49.8576 9.01664
49.9067 8.96808
49.956 8.94424
50.0052 8.93142
50.0545 8.91689
50.1036 8.82602
50.153 8.80735
50.2022 8.80021
50.2515 8.76815
50.3007 8.69614
50.3501 8.66721
50.3993 8.63604
50.4487 8.55646
50.498 8.5742
50.5474 8.58115
50.5966 8.52022
50.6461 8.467
50.6955 8.41737
50.7448 8.42724
50.7943 8.38786
50.8436 8.34056
50.8931 8.34868
50.9424 8.26816
50.9919 8.2611
51.0413 8.20572
51.0908 8.17912
51.1402 8.1575
51.1897 8.13671
51.2391 8.11448
51.2887 8.05406
51.3381 8.01829
51.3877 7.98109
51.4371 7.94555
51.4867 7.8817
51.5362 7.88548
51.5858 7.84614
51.6353 7.81499
51.6849 7.77823
51.7344 7.73185
51.7841 7.75064
51.8336 7.67832
51.8833 7.67634
51.9328 7.63925
51.9826 7.60037
52.0323 7.52692
52.0818 7.56015
52.1316 7.44944
52.1812 7.48402
52.231 7.4119
52.2806 7.38294
52.3304 7.38748
52.38 7.38344
52.4298 7.31157
52.4794 7.27229
52.5293 7.29711
52.5789 7.21263
52.6288 7.20495
52.6785 7.15793
52.7284 7.16359
52.7781 7.12716
52.828 7.06857
52.8777 7.00416
52.9276 7.021
52.9774 6.939
53.0273 6.96637
53.0771 6.9246
53.1271 6.89028
53.1769 6.89012
53.2269 6.85838
53.2767 6.79171
53.3267 6.77812
53.3765 6.78353
53.4266 6.76038
53.4766 6.67981
53.5265 6.673
53.5765 6.6274
53.6264 6.61601
53.6765 6.54757
53.7264 6.5148
53.7765 6.55462
53.8265 6.44699
53.8766 6.42577
53.9266 6.41048
53.9767 6.38455
54.0267 6.41968
54.0769 6.36859
54.1269 6.34853
54.1771 6.28394
54.2271 6.24087
54.2773 6.22083
54.3274 6.20257
54.3776 6.15564
54.4277 6.09038
54.478 6.02885
54.528 6.01689
54.5783 6.00623
54.6285 5.93807
54.6788 5.90006
54.7289 5.87907
54.7792 5.83486
54.8296 5.77863
54.8798 5.73147
54.9301 5.71468
54.9803 5.64007
55.0307 5.62162
55.0809 5.54963
55.1314 5.53736
55.1816 5.5149
55.232 5.43834
55.2823 5.36632
55.3328 5.3153
55.383 5.28353
55.4335 5.26908
55.4838 5.17037
55.5344 5.10932
55.5847 5.0793
55.6352 5.04762
55.6856 5.02345
55.7361 4.9946