File: XRD/Ni3Fe_FD0576.xy
TT I
1.27165 7.61167
1.31627 6.13944
1.36089 6.50411
1.40551 6.7815
1.45013 6.16736
1.49476 5.49458
1.53938 5.87776
1.584 5.24855
1.62863 5.38839
1.67325 4.94384
1.71787 5.05823
1.7625 4.60535
1.80712 5.05985
1.85174 4.55795
1.89636 4.98086
1.94099 5.26619
1.98562 4.62106
2.03025 4.37563
2.07487 3.99275
2.11949 5.5518
2.16411 4.52004
2.20874 9.67849
2.25338 14.4354
2.298 5.11395
2.34263 5.00426
2.38725 5.46021
2.43188 5.95277
2.4765 6.61083
2.52115 6.74918
2.56577 7.09712
2.6104 7.4692
2.65503 7.59302
2.69965 7.96367
2.7443 7.68155
2.78893 8.3487
2.83356 9.2992
2.87818 8.86212
2.92281 8.68167
2.96744 9.73442
3.01209 10.0545
3.05672 11.0723
3.10135 12.1097
3.14599 12.9043
3.19062 14.2652
3.23527 14.9716
3.2799 16.0139
3.32454 16.968
3.36917 17.4519
3.4138 18.7571
3.45844 19.3082
3.50309 20.8163
3.54773 21.3879
3.59237 22.7755
3.637 58.5792
3.68164 41.8758
3.7263 25.2773
3.77094 25.7901
3.81558 26.4791
3.86022 27.2998
3.90486 28.4979
3.9495 29.9706
3.99416 30.7612
4.0388 31.7607
4.08344 33.7537
4.12809 34.6761
4.17273 36.1845
4.21738 40.4117
4.26204 147.781
4.30669 128.944
4.35133 45.0527
4.39598 44.0921
4.44063 49.5737
4.4853 57.0284
4.52995 52.8083
4.5746 53.2584
4.61925 53.9753
4.6639 55.5501
4.70855 58.8183
4.75322 61.8595
4.79788 65.7978
4.84253 68.0616
4.88719 73.0994
4.93184 76.7432
4.97652 82.4176
5.02118 88.2453
5.06583 96.6588
5.11049 108.768
5.15515 163.565
5.19981 460.595
5.24449 3200.61
5.28916 12289.2
5.33382 2828.26
5.37848 197.341
5.42315 131.501
5.46783 117.036
5.5125 109.65
5.55716 103.091
5.60183 98.9278
5.6465 97.47
5.69117 95.4558
5.73586 93.3977
5.78053 95.3675
5.8252 95.308
5.86988 96.9123
5.91455 96.7087
5.95924 108.438
6.00392 266.738
6.0486 1101.72
6.09328 4431.77
6.13795 3351.6
6.18263 242.689
6.22733 93.4755
6.27201 82.1958
6.3167 89.0383
6.36138 76.6338
6.40606 69.8089
6.45075 68.3258
6.49545 65.5073
6.54014 63.8333
6.58483 62.9787
6.62952 62.4363
6.67421 78.0361
6.71892 103.615
6.76361 64.0369
6.8083 58.7037
6.853 58.0784
6.89769 56.9638
6.94239 56.3287
6.98711 55.443
7.03181 55.6037
7.07651 55.1668
7.12121 55.122
7.16591 55.667
7.21063 55.0772
7.25533 63.0282
7.30004 118.661
7.34475 73.8776
7.38945 55.3797
7.43416 54.2507
7.47889 54.3003
7.5236 54.7177
7.56831 55.2847
7.61303 56.1491
7.65774 56.4663
7.70247 56.6182
7.74719 56.7522
7.79191 56.6438
7.83663 57.2432
7.88135 57.9085
7.92607 58.995
7.97081 59.9742
8.01553 61.3213
8.06026 62.4923
8.10498 64.2971
8.14971 70.7632
8.19446 70.8865
8.23919 69.9732
8.28392 72.4311
8.32865 74.9991
8.37339 79.1239
8.41812 85.3211
8.46288 107.652
8.50761 192.694
8.55235 435.236
8.59709 1253.84
8.64183 2194.52
8.68658 946.329
8.73134 161.443
8.77609 99.8086
8.82083 93.1645
8.86558 91.0388
8.91033 90.5411
8.9551 89.7372
8.99985 85.7782
9.04461 84.2313
9.08936 84.2739
9.13412 82.7404
9.17888 82.6538
9.22365 82.6851
9.26841 82.641
9.31318 84.162
9.35794 84.8381
9.4027 84.7008
9.44749 84.8555
9.49226 85.1785
9.53703 86.1922
9.5818 88.6683
9.62657 92.3825
9.67134 96.0025
9.71614 93.613
9.76091 95.1373
9.80569 98.349
9.85047 101.275
9.89525 115.706
9.94005 132.52
9.98484 207.053
10.0296 379.455
10.0744 858.281
10.1192 1718.64
10.164 1541.18
10.2088 374.108
10.2536 125.557
10.2984 111.05
10.3432 110.767
10.388 106.663
10.4328 126.544
10.4776 171.12
10.5224 298.114
10.5672 523.45
10.612 498.173
10.6568 192.426
10.7017 95.8532
10.7465 87.1099
10.7913 83.5753
10.8361 81.342
10.8809 79.3739
10.9257 78.1383
10.9706 78.1836
11.0154 74.9445
11.0602 73.1011
11.105 71.932
11.1499 73.3769
11.1947 76.9481
11.2395 71.817
11.2844 69.3131
11.3292 67.3778
11.374 66.4453
11.4189 66.0829
11.4637 64.8918
11.5086 65.0712
11.5534 66.5752
11.5983 64.8689
11.6431 64.0053
11.688 63.1983
11.7328 63.0237
11.7777 63.1029
11.8225 62.9809
11.8674 62.7925
11.9122 63.0646
11.9571 63.4446
12.002 64.6063
12.0468 70.2819
12.0917 81.6137
12.1366 106.211
12.1814 155.435
12.2263 203.328
12.2712 162.108
12.3161 89.4342
12.3609 68.1472
12.4058 64.5937
12.4507 64.5693
12.4956 64.7772
12.5405 64.5926
12.5853 65.7069
12.6302 69.6032
12.6751 72.7523
12.72 68.829
12.7649 68.0257
12.8098 68.9477
12.8547 70.0766
12.8996 71.7557
12.9445 72.8692
12.9894 75.0331
13.0343 76.7546
13.0792 80.6874
13.1242 94.5824
13.1691 117.434
13.214 157.56
13.2589 251.483
13.3038 375.476
13.3487 425.647
13.3937 253.112
13.4386 122.013
13.4835 110.616
13.5285 126.072
13.5734 167.838
13.6183 254.114
13.6633 349.202
13.7082 334.451
13.7531 182.531
13.7981 96.3541
13.843 82.2576
13.888 79.9947
13.9329 77.6272
13.9779 76.2166
14.0228 74.8401
14.0678 73.462
14.1127 72.8815
14.1577 72.5533
14.2027 71.6266
14.2476 70.5933
14.2926 70.6867
14.3376 71.1871
14.3825 70.2219
14.4275 69.2781
14.4725 69.2958
14.5175 69.4966
14.5624 69.5832
14.6074 70.864
14.6524 71.4378
14.6974 71.0118
14.7424 74.5745
14.7874 81.9229
14.8324 92.4173
14.8774 115.878
14.9224 158.055
14.9674 210.011
15.0124 215.523
15.0574 144.22
15.1024 88.9722
15.1474 72.5095
15.1924 70.5688
15.2374 70.2926
15.2824 69.3185
15.3274 68.0779
15.3725 67.1955
15.4175 66.8488
15.4625 66.4289
15.5076 66.2611
15.5526 66.72
15.5976 66.2856
15.6426 69.0142
15.6877 74.7807
15.7327 82.406
15.7778 98.8376
15.8228 130.759
15.8679 173.197
15.9129 193.956
15.958 151.781
16.003 94.1043
16.0481 67.0664
16.0931 63.8538
16.1382 62.2566
16.1833 60.7438
16.2283 59.2196
16.2734 58.5375
16.3185 58.3661
16.3636 58.5404
16.4086 57.3901
16.4537 56.4314
16.4988 55.8463
16.5439 55.8937
16.589 55.5575
16.6341 55.1544
16.6792 54.6556
16.7243 55.257
16.7694 55.0728
16.8145 54.9434
16.8596 55.1876
16.9047 56.201
16.9498 56.476
16.9949 55.9586
17.04 56.3071
17.0851 57.9263
17.1302 59.6809
17.1754 62.6592
17.2205 67.7114
17.2656 75.1928
17.3108 82.4664
17.3559 81.5939
17.401 71.0319
17.4462 62.0652
17.4913 59.4875
17.5365 59.4826
17.5815 59.7152
17.6268 60.0718
17.6718 60.7196
17.7171 61.1081
17.7622 61.8142
17.8074 63.0771
17.8525 66.1559
17.8977 70.0152
17.9428 75.7238
17.9881 85.2099
18.0331 102.8
18.0784 123.469
18.1237 141.084
18.1688 132.441
18.214 103.517
18.2591 87.2554
18.3044 91.9721
18.3495 101.188
18.3948 106.369
18.4399 95.8316
18.4852 76.8892
18.5303 65.7844
18.5756 62.5244
18.6207 61.6992
18.666 60.7459
18.7112 60.0898
18.7565 59.4119
18.8016 59.0468
18.8469 58.4954
18.892 58.2131
18.9374 57.7106
18.9825 57.2946
19.0278 57.12
19.073 57.4782
19.1183 57.7512
19.1635 58.731
19.2088 60.1084
19.254 62.9372
19.2993 67.3992
19.3447 72.828
19.3898 76.0325
19.4352 72.0906
19.4804 63.141
19.5257 56.5884
19.5709 54.4868
19.6163 54.1884
19.6615 54.0131
19.7068 53.6178
19.752 53.7155
19.7974 54.1675
19.8426 54.734
19.888 55.5882
19.9332 56.8936
19.9786 59.6656
20.0238 63.4696
20.0692 67.9381
20.1144 70.1746
20.1598 68.344
20.205 63.9047
20.2504 62.6776
20.2957 64.2812
20.3411 65.8145
20.3863 64.2534
20.4318 58.3707
20.477 53.6659
20.5224 51.7386
20.5677 51.1429
20.6131 50.4664
20.6586 49.816
20.7038 49.8879
20.7493 49.3587
20.7945 49.3549
20.84 49.0752
20.8853 48.936
20.9307 48.9671
20.976 49.1282
21.0215 48.9489
21.0668 49.5236
21.1122 49.9928
21.1575 50.5193
21.203 51.3133
21.2483 51.7999
21.2938 51.8279
21.3391 50.1917
21.3846 49.3501
21.4299 48.6625
21.4754 48.7048
21.5207 48.9003
21.5662 49.5593
21.6116 49.8771
21.6571 50.4846
21.7024 51.4493
21.7479 53.4592
21.7933 56.3467
21.8388 59.6215
21.8843 63.2735
21.9297 65.1209
21.9752 63.4642
22.0206 59.7337
22.0661 56.7364
22.1115 56.3183
22.157 56.4177
22.2024 54.6035
22.248 51.6225
22.2933 49.8745
22.3389 49.305
22.3843 49.2294
22.4299 49.0607
22.4753 49.0811
22.5208 48.9391
22.5662 48.7526
22.6118 49.2477
22.6572 49.4513
22.7028 49.8027
22.7483 50.3073
22.7939 51.0058
22.8393 52.4801
22.8849 54.7477
22.9303 56.6956
22.9759 58.2384
23.0214 57.5764
23.067 54.5901
23.1126 51.1675
23.1581 49.4613
23.2037 49.1796
23.2492 49.2576
23.2948 49.2926
23.3403 49.6592
23.3859 50.4294
23.4314 51.3783
23.477 53.3157
23.5225 55.4028
23.5682 57.452
23.6137 58.3223
23.6593 55.7169
23.7048 51.7665
23.7505 48.3997
23.796 46.8123
23.8417 46.2531
23.8872 45.7503
23.9329 45.5472
23.9784 45.1758
24.0241 44.8247
24.0697 44.6766
24.1154 44.303
24.1609 44.0285
24.2066 44.035
24.2522 44.0372
24.2979 43.7416
24.3434 43.5286
24.3892 43.2381
24.4349 43.424
24.4805 43.1791
24.5262 43.4257
24.5718 43.3144
24.6175 43.1069
24.6631 43.0786
24.7089 42.7876
24.7545 42.7214
24.8002 42.6439
24.8458 42.5881
24.8916 42.3451
24.9372 42.5637
24.983 42.9133
25.0286 43.342
25.0744 43.6796
25.12 44.242
25.1658 44.6419
25.2114 45.0183
25.2572 45.0745
25.3029 45.0675
25.3487 45.3712
25.3943 44.8167
25.4402 43.7437
25.4858 42.6467
25.5316 41.6184
25.5773 41.2208
25.6231 41.1475
25.669 40.8633
25.7147 40.7871
25.7605 40.9112
25.8062 40.7853
25.8521 40.8655
25.8977 40.8805
25.9436 41.1594
25.9893 41.2639
26.0352 41.7759
26.0809 41.8795
26.1268 41.8972
26.1725 41.6768
26.2184 40.9799
26.2641 40.5376
26.31 40.3355
26.3557 40.3531
26.4017 40.4184
26.4474 40.8151
26.4933 41.0446
26.5391 41.6785
26.585 42.1183
26.6308 42.4251
26.6767 42.5519
26.7225 42.3194
26.7684 41.7351
26.8142 41.0207
26.8601 40.6914
26.9059 40.3393
26.9519 39.737
26.9979 39.366
27.0437 39.1132
27.0896 38.8605
27.1354 39.0632
27.1814 38.9798
27.2272 38.7037
27.2732 38.8061
27.3191 38.6347
27.3651 38.8043
27.4109 38.7095
27.4569 38.802
27.5027 38.7957
27.5488 38.8284
27.5946 38.6823
27.6407 38.443
27.6865 38.3271
27.7326 38.0987
27.7784 38.1924
27.8245 38.1929
27.8703 38.2475
27.9164 38.6426
27.9623 38.7556
28.0084 39.0334
28.0543 39.4812
28.1003 39.3676
28.1462 39.0701
28.1923 38.8116
28.2384 38.1663
28.2843 37.7813
28.3304 37.4121
28.3764 36.9617
28.4225 36.7008
28.4684 36.6258
28.5145 36.2138
28.5605 36.0745
28.6066 35.9518
28.6526 35.884
28.6987 35.9018
28.7447 35.7503
28.7908 35.6586
28.8368 35.6165
28.8829 35.6905
28.9289 35.5555
28.9751 35.4435
29.0211 35.0982
29.0673 34.8768
29.1133 34.7069
29.1595 34.5136
29.2055 34.5819
29.2517 34.6827
29.2977 34.5422
29.3439 34.4151
29.3899 34.4471
29.4361 34.3421
29.4824 34.2444
29.5284 33.883
29.5746 33.6115
29.6207 33.351
29.6669 33.2645
29.713 33.1764
29.7593 33.0527
29.8053 33.1407
29.8516 32.9912
29.8977 33.0493
29.9439 32.8339
29.99 32.8184
30.0363 32.6834
30.0824 32.7221
30.1287 32.6794
30.1748 32.6382
30.2211 32.7108
30.2673 32.5119
30.3136 32.6207
30.3597 32.5351
30.406 32.4317
30.4522 32.3799
30.4985 32.2709
30.5447 32.424
30.591 32.3085
30.6372 32.5056
30.6835 32.4629
30.7297 32.4228
30.7761 32.372
30.8224 32.2054
30.8686 32.0376
30.915 31.8954
30.9612 31.684
31.0076 31.5742
31.0538 31.4452
31.1002 31.3512
31.1464 31.155
31.1928 31.1933
31.2391 31.1494
31.2855 31.0824
31.3317 30.9521
31.3781 31.2713
31.4244 31.0488
31.4708 31.1251
31.5171 31.0022
31.5636 31.008
31.6098 30.7188
31.6563 30.5422
31.7026 30.4957
31.7491 30.3774
31.7953 30.4406
31.8418 30.2963
31.8881 30.3674
31.9346 30.3022
31.9809 30.2279
32.0275 30.1165
32.074 30.083
32.1203 29.8196
32.1668 29.7656
32.2132 29.5594
32.2597 29.4252
32.306 29.4022
32.3526 29.2506
32.399 29.1576
32.4455 29.0023
32.4919 28.8116
32.5385 28.8268
32.5848 28.7248
32.6314 28.6569
32.6778 28.6214
32.7244 28.487
32.7708 28.312
32.8174 28.3224
32.8638 28.1828
32.9104 28.3466
32.9569 28.2171
33.0035 28.0721
33.0499 28.0077
33.0966 27.9981
33.143 28.0151
33.1897 27.9246
33.2361 27.7649
33.2828 27.7921
33.3293 27.556
33.3759 27.5378
33.4226 27.3864
33.4691 27.2007
33.5158 27.2286
33.5623 27.0799
33.609 26.8511
33.6555 26.8241
33.7022 26.7718
33.7487 26.6789
33.7954 26.6825
33.842 26.5386
33.8887 26.5069
33.9353 26.4612
33.982 26.3047
34.0286 26.2591
34.0753 26.1354
34.1219 26.0627
34.1687 26.0312
34.2152 25.8823
34.262 25.8631
34.3086 25.7256
34.3554 25.6696
34.402 25.5587
34.4488 25.5237
34.4954 25.4151
34.5422 25.3321
34.5889 25.2249
34.6357 25.0711
34.6825 25.0127
34.7292 24.9721
34.776 24.8923
34.8227 24.829
34.8695 24.8011
34.9162 24.7478
34.9631 24.595
35.0098 24.7087
35.0566 24.5172
35.1033 24.425
35.1502 24.4307
35.1969 24.3422
35.2438 24.3564
35.2906 24.2509
35.3375 24.0844
35.3842 24.1654
35.4311 24.2286
35.4779 24.1621
35.5248 24.0137
35.5716 23.8252
35.6185 23.8122
35.6653 23.7585
35.7123 23.6754
35.759 23.6419
35.806 23.529
35.8528 23.3526
35.8998 23.3666
35.9468 23.269
35.9936 23.2651
36.0406 23.1711
36.0874 23.0854
36.1345 22.9562
36.1813 22.9616
36.2283 22.7401
36.2752 22.8124
36.3222 22.775
36.3691 22.6832
36.4161 22.5936
36.463 22.6558
36.5101 22.55
36.557 22.5668
36.6041 22.3551
36.651 22.329
36.6981 22.2655
36.745 22.1814
36.7921 22.1541
36.839 21.9758
36.8861 21.9908
36.9331 21.915
36.9802 21.809
37.0272 21.6942
37.0743 21.7032
37.1213 21.6022
37.1684 21.5194
37.2154 21.4743
37.2626 21.3722
37.3098 21.3968
37.3568 21.2548
37.404 21.2327
37.451 21.1268
37.4982 21.0667
37.5452 20.9765
37.5924 20.9293
37.6395 20.9625
37.6867 20.9022
37.7337 20.6519
37.781 20.6581
37.8281 20.6347
37.8753 20.4795
37.9224 20.46
37.9697 20.4041
38.0168 20.3297
38.064 20.2642
38.1111 20.1841
38.1584 20.1059
38.2056 20.0628
38.2529 19.9767
38.3 19.9042
38.3473 20.0107
38.3945 19.7816
38.4418 19.7398
38.489 19.7456
38.5363 19.6296
38.5837 19.4877
38.6309 19.5425
38.6782 19.4271
38.7254 19.3054
38.7728 19.3602
38.82 19.2768
38.8674 19.2744
38.9146 19.2166
38.9621 19.0136
39.0093 19.101
39.0567 19.0587
39.104 18.8742
39.1514 18.8739
39.1987 18.7692
39.2461 18.7363
39.2934 18.7256
39.3409 18.5369
39.3882 18.5189
39.4356 18.4564
39.483 18.4192
39.5304 18.3193
39.5778 18.3423
39.6253 18.1863
39.6726 18.1155
39.7201 18.1082
39.7675 18.0775
39.815 18.0417
39.8624 17.9672
39.9099 17.8862
39.9575 17.7978
40.0049 17.7277
40.0525 17.7072
40.0999 17.7351
40.1474 17.6433
40.1949 17.5687
40.2425 17.5179
40.2899 17.4467
40.3375 17.3723
40.385 17.3296
40.4326 17.2911
40.48 17.2224
40.5277 17.206
40.5752 17.1567
40.6228 17.0799
40.6703 17.0246
40.718 16.9967
40.7655 16.9381
40.8132 16.8788
40.8607 16.8088
40.9084 16.7826
40.9559 16.7465
41.0036 16.7101
41.0512 16.6134
41.0989 16.5922
41.1465 16.4612
41.1942 16.3979
41.242 16.3783
41.2896 16.3127
41.3373 16.2894
41.3849 16.2203
41.4327 16.1471
41.4803 16.0467
41.5281 16.032
41.5758 16.0066
41.6236 15.9139
41.6712 15.8767
41.7191 15.8452
41.7667 15.7338
41.8146 15.7581
41.8622 15.6323
41.9101 15.6089
41.9578 15.5637
42.0057 15.5202
42.0534 15.5463
42.1013 15.4239
42.149 15.3583
42.1969 15.3294
42.2446 15.2441
42.2925 15.2439
42.3403 15.1245
42.3882 15.1548
42.436 15.0744
42.4839 15.0469
42.5319 14.9913
42.5797 14.9494
42.6277 14.8838
42.6755 14.8554
42.7235 14.7494
42.7713 14.7208
42.8193 14.6546
42.8671 14.6222
42.9152 14.5703
42.963 14.4986
43.0111 14.4617
43.0589 14.3775
43.107 14.3336
43.1549 14.3182
43.2029 14.2793
43.2508 14.2367
43.2989 14.1423
43.3468 14.0606
43.3949 14.0525
43.4429 13.9651
43.491 13.9373
43.5389 13.9342
43.5871 13.8463
43.635 13.8168
43.6832 13.8054
43.7312 13.7258
43.7793 13.6817
43.8273 13.6431
43.8755 13.5598
43.9237 13.5307
43.9717 13.4984
44.0199 13.4461
44.068 13.3712
44.1162 13.3386
44.1642 13.3376
44.2125 13.2919
44.2606 13.2012
44.3088 13.2015
44.3569 13.0937
44.4052 13.1285
44.4533 13.0508
44.5016 12.9522
44.5497 12.925
44.598 12.8576
44.6461 12.846
44.6945 12.8171
44.7426 12.7608
44.791 12.7429
44.8391 12.6818
44.8875 12.6121
44.9357 12.5877
44.984 12.5257
45.0322 12.469
45.0806 12.4382
45.1288 12.3872
45.1773 12.32
45.2257 12.353
45.2739 12.2712
45.3224 12.1881
45.3706 12.1717
45.4191 12.1239
45.4673 12.123
45.5158 12.0573
45.5641 12.0085
45.6126 11.9988
45.6609 11.9244
45.7094 11.9179
45.7577 11.8427
45.8063 11.7808
45.8546 11.773
45.9031 11.7293
45.9515 11.6727
46.0001 11.6245
46.0484 11.6124
46.097 11.5426
46.1454 11.5019
46.194 11.5194
46.2424 11.4638
46.291 11.4039
46.3395 11.3723
46.3881 11.231
46.4365 11.2575
46.4852 11.2328
46.5337 11.1885
46.5823 11.1498
46.631 11.065
46.6795 11.0448
46.7282 11.0216
46.7767 10.9785
46.8254 10.9487
46.8739 10.8984
46.9226 10.8387
46.9712 10.8112
47.0199 10.7792
47.0685 10.7412
47.1173 10.6905
47.1658 10.6316
47.2146 10.6255
47.2632 10.5753
47.312 10.5527
47.3606 10.5108
47.4095 10.4457
47.4581 10.429
47.5069 10.3915
47.5556 10.353
47.6044 10.3247
47.6531 10.2675
47.702 10.1985
47.7507 10.1841
47.7996 10.1581
47.8483 10.151
47.8972 10.0973
47.9461 10.0918
47.9948 10.0086
48.0438 9.94856
48.0925 9.92671
48.1415 9.91486
48.1902 9.85896
48.2392 9.81804
48.288 9.80001
48.337 9.73475
48.3858 9.71513
48.4348 9.6781
48.4837 9.67782
48.5327 9.66005
48.5815 9.56444
48.6306 9.5447
48.6795 9.51357
48.7285 9.46376
48.7774 9.47064
48.8265 9.39975
48.8754 9.36562
48.9245 9.33571
48.9734 9.27847
49.0226 9.27866
49.0715 9.27934
49.1206 9.19643
49.1696 9.16548
49.2188 9.14526
49.2679 9.1126
49.3169 9.03102
49.3661 8.99935
49.4151 9.0004
49.4643 8.94744
49.5134 8.95141
49.5626 8.8439
49.6117 8.84659
49.6609 8.82485
49.71 8.78092
49.7592 8.74375
49.8083 8.71108
49.8576 8.68859
49.9067 8.6131
49.956 8.61794
50.0052 8.54969
50.0545 8.57635
50.1036 8.506
50.153 8.44456
50.2022 8.45228
50.2515 8.379
50.3007 8.34506
50.3501 8.32483
50.3993 8.29524
50.4487 8.25021
50.498 8.23939
50.5474 8.22579
50.5966 8.20049
50.6461 8.12874
50.6955 8.11618
50.7448 8.1114
50.7943 8.06336
50.8436 8.02517
50.8931 7.96597
50.9424 7.97932
50.9919 7.93605
51.0413 7.93651
51.0908 7.8791
51.1402 7.86358
51.1897 7.77728
51.2391 7.77316
51.2887 7.75247
51.3381 7.6952
51.3877 7.69853
51.4371 7.62275
51.4867 7.61791
51.5362 7.58188
51.5858 7.52591
51.6353 7.48207
51.6849 7.50966
51.7344 7.44124
51.7841 7.44697
51.8336 7.37925
51.8833 7.35301
51.9328 7.34207
51.9826 7.31439
52.0323 7.25481
52.0818 7.26863
52.1316 7.18375
52.1812 7.21377
52.231 7.13779
52.2806 7.12015
52.3304 7.11578
52.38 7.06914
52.4298 7.01514
52.4794 7.00279
52.5293 6.94428
52.5789 6.977
52.6288 6.95022
52.6785 6.85952
52.7284 6.8621
52.7781 6.86152
52.828 6.82815
52.8777 6.79929
52.9276 6.75025
52.9774 6.75613
53.0273 6.68775
53.0771 6.6961
53.1271 6.65873
53.1769 6.6078
53.2269 6.62566
53.2767 6.56404
53.3267 6.53302
53.3765 6.51192
53.4266 6.48357
53.4766 6.44984
53.5265 6.40626
53.5765 6.39174
53.6264 6.36399
53.6765 6.34126
53.7264 6.31118
53.7765 6.25135
53.8265 6.28064
53.8766 6.20866
53.9266 6.21111
53.9767 6.18087
54.0267 6.1792
54.0769 6.11607
54.1269 6.07294
54.1771 6.09753
54.2271 6.02912
54.2773 5.98949
54.3274 5.98361
54.3776 5.94146
54.4277 5.93618
54.478 5.89874
54.528 5.80126
54.5783 5.79992
54.6285 5.75062
54.6788 5.68843
54.7289 5.64575
54.7792 5.64298
54.8296 5.63261
54.8798 5.5563
54.9301 5.48998
54.9803 5.48851
55.0307 5.48816
55.0809 5.42086
55.1314 5.39237
55.1816 5.32089
55.232 5.2602
55.2823 5.26194
55.3328 5.12392
55.383 5.09596
55.4335 5.10414
55.4838 4.99995
55.5344 4.98203
55.5847 4.89571
55.6352 4.97429
55.6856 4.8755
55.7361 4.83658