File: XRD/Ni3Fe_FD0663.xy
TT I
1.27165 7.77505
1.31627 6.36402
1.36089 7.20869
1.40551 6.91251
1.45013 5.83761
1.49476 6.00416
1.53938 6.08227
1.584 5.25152
1.62863 5.10194
1.67325 5.13941
1.71787 4.55874
1.7625 4.94986
1.80712 5.07778
1.85174 4.72139
1.89636 4.75272
1.94099 4.73795
1.98562 4.96812
2.03025 4.87764
2.07487 4.88261
2.11949 4.76598
2.16411 5.04781
2.20874 13.4423
2.25338 20.6936
2.298 6.28293
2.34263 5.51738
2.38725 5.83497
2.43188 5.70273
2.4765 6.89192
2.52115 6.713
2.56577 7.53174
2.6104 8.05983
2.65503 7.98588
2.69965 7.85366
2.7443 7.66795
2.78893 7.83609
2.83356 7.95722
2.87818 8.82781
2.92281 8.81631
2.96744 9.59049
3.01209 10.6194
3.05672 11.0328
3.10135 12.3612
3.14599 13.3636
3.19062 13.9469
3.23527 15.2438
3.2799 15.4372
3.32454 16.6317
3.36917 17.5939
3.4138 18.959
3.45844 19.7343
3.50309 21.0042
3.54773 21.7745
3.59237 24.2029
3.637 87.5971
3.68164 55.3329
3.7263 26.1504
3.77094 25.8117
3.81558 26.7324
3.86022 27.3341
3.90486 28.7808
3.9495 30.2296
3.99416 30.7027
4.0388 32.243
4.08344 34.0765
4.12809 34.5892
4.17273 36.6852
4.21738 42.7097
4.26204 235.079
4.30669 200.193
4.35133 47.7623
4.39598 44.3814
4.44063 53.933
4.4853 63.0103
4.52995 50.1581
4.5746 51.0569
4.61925 52.9454
4.6639 54.9862
4.70855 57.9611
4.75322 60.6877
4.79788 63.7697
4.84253 67.3164
4.88719 71.6265
4.93184 74.7889
4.97652 80.9641
5.02118 86.7524
5.06583 94.2787
5.11049 106.127
5.15515 170.578
5.19981 343.995
5.24449 2846.17
5.28916 12600.8
5.33382 2809.6
5.37848 183.112
5.42315 127.307
5.46783 112.646
5.5125 105.06
5.55716 102.065
5.60183 98.0948
5.6465 96.431
5.69117 94.0368
5.73586 91.6281
5.78053 91.2422
5.8252 91.019
5.86988 91.5582
5.91455 93.9547
5.95924 102.412
6.00392 203.091
6.0486 968.812
6.09328 4545.57
6.13795 3273.59
6.18263 225.022
6.22733 92.0536
6.27201 82.1502
6.3167 99.4247
6.36138 79.2748
6.40606 68.6326
6.45075 66.8475
6.49545 65.3553
6.54014 63.6959
6.58483 62.5484
6.62952 62.2997
6.67421 91.4133
6.71892 136.85
6.76361 67.653
6.8083 58.1548
6.853 57.1448
6.89769 56.4848
6.94239 56.5341
6.98711 55.6741
7.03181 55.3061
7.07651 55.2322
7.12121 55.088
7.16591 55.0835
7.21063 55.4976
7.25533 69.6081
7.30004 169.012
7.34475 88.3874
7.38945 56.6311
7.43416 54.4858
7.47889 54.2317
7.5236 54.6216
7.56831 55.4351
7.61303 56.5475
7.65774 56.9447
7.70247 55.7788
7.74719 55.9905
7.79191 56.5176
7.83663 56.8218
7.88135 57.6768
7.92607 58.5102
7.97081 59.6357
8.01553 60.6785
8.06026 62.1263
8.10498 63.7733
8.14971 72.61
8.19446 71.8551
8.23919 69.1774
8.28392 71.7693
8.32865 73.8881
8.37339 78.0591
8.41812 85.3377
8.46288 112.383
8.50761 163.576
8.55235 390.229
8.59709 1192.84
8.64183 2229.83
8.68658 920.63
8.73134 155.651
8.77609 98.6027
8.82083 91.7758
8.86558 88.8337
8.91033 89.4265
8.9551 90.5221
8.99985 85.1758
9.04461 83.2507
9.08936 82.6966
9.13412 81.8334
9.17888 81.8112
9.22365 82.6718
9.26841 81.7492
9.31318 82.4516
9.35794 82.5987
9.4027 82.8903
9.44749 83.7814
9.49226 84.6121
9.53703 85.4255
9.5818 87.1349
9.62657 91.4138
9.67134 97.3447
9.71614 93.1888
9.76091 94.1757
9.80569 96.2686
9.85047 99.6365
9.89525 121.751
9.94005 134.731
9.98484 174.902
10.0296 343.575
10.0744 816.669
10.1192 1784.74
10.164 1594.2
10.2088 379.984
10.2536 123.625
10.2984 112.626
10.3432 113.857
10.388 104.159
10.4328 116.845
10.4776 159.398
10.5224 279.526
10.5672 516.504
10.612 501.693
10.6568 191.6
10.7017 94.9278
10.7465 86.1301
10.7913 82.9941
10.8361 80.7257
10.8809 78.3675
10.9257 78.3138
10.9706 78.4377
11.0154 74.5566
11.0602 72.8055
11.105 71.4682
11.1499 75.5592
11.1947 82.103
11.2395 73.7534
11.2844 69.8839
11.3292 67.3792
11.374 65.8736
11.4189 65.4051
11.4637 64.6327
11.5086 65.2789
11.5534 67.7158
11.5983 65.3474
11.6431 63.4343
11.688 62.814
11.7328 62.5863
11.7777 62.5889
11.8225 62.5144
11.8674 62.2019
11.9122 62.6992
11.9571 62.8924
12.002 63.5441
12.0468 67.4821
12.0917 78.9271
12.1366 103.577
12.1814 153.474
12.2263 207.606
12.2712 164.69
12.3161 91.9636
12.3609 69.2348
12.4058 64.2668
12.4507 64.1387
12.4956 63.9289
12.5405 64.2952
12.5853 65.2643
12.6302 72.6321
12.6751 77.5421
12.72 69.6703
12.7649 67.66
12.8098 68.3743
12.8547 69.7012
12.8996 70.6077
12.9445 71.9133
12.9894 73.9051
13.0343 75.7061
13.0792 79.0496
13.1242 87.3821
13.1691 111.745
13.214 149.457
13.2589 241.651
13.3038 382.02
13.3487 431.428
13.3937 253.898
13.4386 119.884
13.4835 104.552
13.5285 120.217
13.5734 158.321
13.6183 251.226
13.6633 358.854
13.7082 333.862
13.7531 176.533
13.7981 94.4884
13.843 81.1016
13.888 79.0323
13.9329 76.4633
13.9779 75.822
14.0228 74.1083
14.0678 72.9632
14.1127 72.4747
14.1577 72.0228
14.2027 71.4308
14.2476 70.2963
14.2926 70.5646
14.3376 71.0366
14.3825 70.0994
14.4275 68.5761
14.4725 68.461
14.5175 68.853
14.5624 68.8933
14.6074 70.9144
14.6524 71.3922
14.6974 70.4115
14.7424 71.7777
14.7874 78.259
14.8324 88.8577
14.8774 110.635
14.9224 155.199
14.9674 212.322
15.0124 218.935
15.0574 144.102
15.1024 87.7014
15.1474 71.8367
15.1924 70.0475
15.2374 70.6815
15.2824 69.8972
15.3274 67.782
15.3725 66.7233
15.4175 66.2705
15.4625 65.6423
15.5076 66.1091
15.5526 65.9374
15.5976 65.6609
15.6426 66.5176
15.6877 71.7495
15.7327 79.3245
15.7778 94.4277
15.8228 126.577
15.8679 172.886
15.9129 194.755
15.958 153.0
16.003 94.4604
16.0481 67.0935
16.0931 64.0743
16.1382 62.4673
16.1833 60.2019
16.2283 58.8795
16.2734 58.1325
16.3185 58.3436
16.3636 58.8688
16.4086 57.6564
16.4537 56.0203
16.4988 55.5294
16.5439 55.4317
16.589 55.2194
16.6341 54.8465
16.6792 54.6184
16.7243 54.9825
16.7694 54.7987
16.8145 54.82
16.8596 55.0169
16.9047 56.4375
16.9498 56.7117
16.9949 55.7416
17.04 55.6317
17.0851 56.9754
17.1302 58.2885
17.1754 61.5534
17.2205 66.5864
17.2656 74.7338
17.3108 83.5234
17.3559 82.0867
17.401 70.0258
17.4462 61.4682
17.4913 59.0391
17.5365 59.0028
17.5815 59.1474
17.6268 59.5551
17.6718 60.2011
17.7171 60.8013
17.7622 61.0397
17.8074 61.7754
17.8525 63.862
17.8977 68.3293
17.9428 73.6696
17.9881 82.3269
18.0331 100.139
18.0784 123.57
18.1237 142.394
18.1688 130.919
18.214 101.583
18.2591 85.5285
18.3044 90.6074
18.3495 101.089
18.3948 105.901
18.4399 95.4949
18.4852 76.1679
18.5303 65.315
18.5756 61.821
18.6207 61.067
18.666 60.2459
18.7112 59.5805
18.7565 58.7676
18.8016 58.6811
18.8469 57.7772
18.892 57.5177
18.9374 57.3384
18.9825 56.7506
19.0278 56.7747
19.073 56.8369
19.1183 57.2505
19.1635 58.0551
19.2088 59.4336
19.254 61.8825
19.2993 66.8258
19.3447 73.5078
19.3898 76.9177
19.4352 71.8567
19.4804 62.587
19.5257 56.1113
19.5709 53.9776
19.6163 53.7014
19.6615 53.6955
19.7068 53.2677
19.752 53.1583
19.7974 53.4756
19.8426 54.4473
19.888 54.8311
19.9332 56.1831
19.9786 58.6966
20.0238 62.5169
20.0692 67.5181
20.1144 69.8044
20.1598 67.5904
20.205 62.9217
20.2504 61.9393
20.2957 63.889
20.3411 65.4106
20.3863 63.4906
20.4318 57.6859
20.477 53.2751
20.5224 51.4925
20.5677 50.82
20.6131 50.1903
20.6586 49.7347
20.7038 49.4919
20.7493 49.1263
20.7945 48.8257
20.84 48.6786
20.8853 48.5712
20.9307 48.4095
20.976 48.5435
21.0215 48.4462
21.0668 49.0422
21.1122 49.3197
21.1575 49.9838
21.203 50.85
21.2483 51.2688
21.2938 51.2274
21.3391 49.8052
21.3846 48.8151
21.4299 48.3738
21.4754 48.2127
21.5207 48.2776
21.5662 48.717
21.6116 49.0844
21.6571 49.7245
21.7024 50.8503
21.7479 52.5822
21.7933 55.2689
21.8388 59.0968
21.8843 63.0467
21.9297 64.8595
21.9752 63.0581
22.0206 59.0952
22.0661 56.2928
22.1115 56.1114
22.157 55.9845
22.2024 53.9502
22.248 51.2058
22.2933 49.7318
22.3389 49.0634
22.3843 48.9852
22.4299 48.749
22.4753 48.6202
22.5208 48.4697
22.5662 48.5577
22.6118 48.5018
22.6572 48.729
22.7028 49.192
22.7483 49.4643
22.7939 50.2851
22.8393 51.8178
22.8849 54.0138
22.9303 56.3636
22.9759 58.0227
23.0214 57.4322
23.067 54.2253
23.1126 50.9311
23.1581 48.9694
23.2037 48.565
23.2492 48.6193
23.2948 48.6084
23.3403 49.0281
23.3859 49.7413
23.4314 50.6858
23.477 52.5513
23.5225 55.0095
23.5682 57.4339
23.6137 58.0247
23.6593 55.3164
23.7048 51.1656
23.7505 47.8589
23.796 46.5634
23.8417 45.9459
23.8872 45.5306
23.9329 45.2283
23.9784 44.7249
24.0241 44.6016
24.0697 44.4571
24.1154 44.0009
24.1609 43.9672
24.2066 43.8757
24.2522 43.6326
24.2979 43.289
24.3434 43.2111
24.3892 43.1764
24.4349 43.0055
24.4805 42.8721
24.5262 43.0768
24.5718 42.906
24.6175 42.9245
24.6631 42.7013
24.7089 42.3747
24.7545 42.1725
24.8002 42.1362
24.8458 42.0833
24.8916 42.0859
24.9372 42.1032
24.983 42.5619
25.0286 42.7399
25.0744 43.2502
25.12 43.6775
25.1658 44.2784
25.2114 44.6098
25.2572 44.7497
25.3029 44.7992
25.3487 45.0233
25.3943 44.571
25.4402 43.3026
25.4858 42.3637
25.5316 41.3186
25.5773 40.9358
25.6231 40.8604
25.669 40.4239
25.7147 40.5932
25.7605 40.4996
25.8062 40.3642
25.8521 40.5999
25.8977 40.5816
25.9436 40.7981
25.9893 40.8576
26.0352 41.4893
26.0809 41.5371
26.1268 41.7905
26.1725 41.2047
26.2184 40.6571
26.2641 40.0624
26.31 39.9823
26.3557 39.9099
26.4017 39.9666
26.4474 40.3318
26.4933 40.5838
26.5391 41.2535
26.585 41.7153
26.6308 42.0341
26.6767 42.23
26.7225 41.8389
26.7684 41.3352
26.8142 40.8706
26.8601 40.4035
26.9059 39.9789
26.9519 39.4476
26.9979 39.2077
27.0437 38.7811
27.0896 38.7994
27.1354 38.5866
27.1814 38.5458
27.2272 38.3331
27.2732 38.5165
27.3191 38.1589
27.3651 38.3566
27.4109 38.2898
27.4569 38.4889
27.5027 38.4709
27.5488 38.6213
27.5946 38.2979
27.6407 38.0589
27.6865 38.0238
27.7326 37.7218
27.7784 37.8298
27.8245 37.7478
27.8703 38.0628
27.9164 38.2016
27.9623 38.2652
28.0084 38.6557
28.0543 39.1125
28.1003 38.9683
28.1462 38.6792
28.1923 38.4163
28.2384 37.9855
28.2843 37.61
28.3304 37.0748
28.3764 36.5967
28.4225 36.2848
28.4684 36.1379
28.5145 35.8472
28.5605 35.8424
28.6066 35.6378
28.6526 35.5794
28.6987 35.4892
28.7447 35.4809
28.7908 35.3728
28.8368 35.3775
28.8829 35.3186
28.9289 35.2647
28.9751 35.126
29.0211 35.0089
29.0673 34.6594
29.1133 34.4848
29.1595 34.2188
29.2055 34.3642
29.2517 34.2727
29.2977 34.29
29.3439 34.2863
29.3899 34.1421
29.4361 34.0933
29.4824 33.8342
29.5284 33.7261
29.5746 33.2548
29.6207 33.0005
29.6669 32.9875
29.713 32.9733
29.7593 32.8538
29.8053 32.8025
29.8516 32.7901
29.8977 32.7536
29.9439 32.6111
29.99 32.5488
30.0363 32.4577
30.0824 32.4806
30.1287 32.3724
30.1748 32.392
30.2211 32.4566
30.2673 32.2438
30.3136 32.3723
30.3597 32.2927
30.406 32.0984
30.4522 32.1145
30.4985 32.0155
30.5447 32.1534
30.591 32.0298
30.6372 32.1585
30.6835 32.142
30.7297 32.0837
30.7761 32.0771
30.8224 31.9259
30.8686 31.8038
30.915 31.5441
30.9612 31.4783
31.0076 31.276
31.0538 31.0617
31.1002 31.0847
31.1464 30.8924
31.1928 30.964
31.2391 31.044
31.2855 30.7875
31.3317 30.8426
31.3781 30.8925
31.4244 30.8502
31.4708 30.7172
31.5171 30.7649
31.5636 30.7179
31.6098 30.5199
31.6563 30.3492
31.7026 30.1855
31.7491 30.057
31.7953 30.1042
31.8418 30.0128
31.8881 30.0703
31.9346 30.0429
31.9809 29.9814
32.0275 29.846
32.074 29.7067
32.1203 29.6535
32.1668 29.4896
32.2132 29.3194
32.2597 29.2889
32.306 29.0049
32.3526 28.8307
32.399 28.9767
32.4455 28.8216
32.4919 28.6691
32.5385 28.6
32.5848 28.4477
32.6314 28.4891
32.6778 28.3168
32.7244 28.3012
32.7708 28.1115
32.8174 28.0755
32.8638 27.9835
32.9104 28.0554
32.9569 27.9915
33.0035 27.8764
33.0499 27.8201
33.0966 27.7775
33.143 27.7718
33.1897 27.7311
33.2361 27.55
33.2828 27.444
33.3293 27.3944
33.3759 27.2861
33.4226 27.1754
33.4691 27.0026
33.5158 27.0337
33.5623 26.9887
33.609 26.6718
33.6555 26.6858
33.7022 26.5923
33.7487 26.4233
33.7954 26.5234
33.842 26.2795
33.8887 26.2938
33.9353 26.1824
33.982 26.2115
34.0286 26.0524
34.0753 25.9239
34.1219 25.8511
34.1687 25.8256
34.2152 25.6768
34.262 25.6143
34.3086 25.5882
34.3554 25.5424
34.402 25.4536
34.4488 25.2401
34.4954 25.2038
34.5422 25.1058
34.5889 25.0348
34.6357 24.9239
34.6825 24.8582
34.7292 24.8154
34.776 24.7319
34.8227 24.5891
34.8695 24.687
34.9162 24.5729
34.9631 24.482
35.0098 24.4429
35.0566 24.3245
35.1033 24.3231
35.1502 24.2398
35.1969 24.1756
35.2438 24.1062
35.2906 24.071
35.3375 23.9713
35.3842 23.947
35.4311 23.9357
35.4779 23.9486
35.5248 23.8008
35.5716 23.7303
35.6185 23.652
35.6653 23.5599
35.7123 23.5552
35.759 23.4478
35.806 23.3339
35.8528 23.2039
35.8998 23.206
35.9468 23.1206
35.9936 23.0436
36.0406 22.9915
36.0874 23.0748
36.1345 22.8587
36.1813 22.8072
36.2283 22.6541
36.2752 22.5907
36.3222 22.6319
36.3691 22.5303
36.4161 22.3896
36.463 22.4297
36.5101 22.4157
36.557 22.3768
36.6041 22.1788
36.651 22.191
36.6981 22.0853
36.745 22.0483
36.7921 21.9477
36.839 21.8527
36.8861 21.8453
36.9331 21.6917
36.9802 21.6649
37.0272 21.6661
37.0743 21.4583
37.1213 21.4746
37.1684 21.3942
37.2154 21.303
37.2626 21.2517
37.3098 21.141
37.3568 21.1222
37.404 21.0451
37.451 20.9849
37.4982 20.9832
37.5452 20.8359
37.5924 20.8301
37.6395 20.8585
37.6867 20.678
37.7337 20.594
37.781 20.4806
37.8281 20.5072
37.8753 20.3589
37.9224 20.2587
37.9697 20.292
38.0168 20.2243
38.064 20.0763
38.1111 20.1051
38.1584 19.968
38.2056 20.0192
38.2529 19.9732
38.3 19.7547
38.3473 19.8175
38.3945 19.6169
38.4418 19.6215
38.489 19.5427
38.5363 19.467
38.5837 19.4197
38.6309 19.4141
38.6782 19.2907
38.7254 19.301
38.7728 19.1507
38.82 19.0481
38.8674 19.095
38.9146 19.0323
38.9621 18.9899
39.0093 18.8133
39.0567 18.8065
39.104 18.8048
39.1514 18.6506
39.1987 18.6627
39.2461 18.6777
39.2934 18.5484
39.3409 18.4356
39.3882 18.3801
39.4356 18.3236
39.483 18.2787
39.5304 18.1967
39.5778 18.2441
39.6253 18.1203
39.6726 18.0804
39.7201 18.0368
39.7675 18.024
39.815 17.9217
39.8624 17.8222
39.9099 17.8035
39.9575 17.7043
40.0049 17.6797
40.0525 17.5798
40.0999 17.6258
40.1474 17.4911
40.1949 17.4598
40.2425 17.3795
40.2899 17.322
40.3375 17.3017
40.385 17.1793
40.4326 17.1649
40.48 17.1549
40.5277 17.0593
40.5752 17.0172
40.6228 16.9642
40.6703 16.9013
40.718 16.8754
40.7655 16.7951
40.8132 16.7939
40.8607 16.7344
40.9084 16.6309
40.9559 16.5957
41.0036 16.5499
41.0512 16.4987
41.0989 16.4507
41.1465 16.3473
41.1942 16.3735
41.242 16.2467
41.2896 16.1942
41.3373 16.1015
41.3849 16.1357
41.4327 16.0239
41.4803 15.8952
41.5281 15.9281
41.5758 15.8913
41.6236 15.7873
41.6712 15.7446
41.7191 15.7304
41.7667 15.6684
41.8146 15.6292
41.8622 15.5575
41.9101 15.5
41.9578 15.4435
42.0057 15.4066
42.0534 15.3996
42.1013 15.3243
42.149 15.2342
42.1969 15.2174
42.2446 15.2179
42.2925 15.1009
42.3403 15.0817
42.3882 15.0019
42.436 14.9221
42.4839 14.9355
42.5319 14.8877
42.5797 14.854
42.6277 14.7696
42.6755 14.6903
42.7235 14.612
42.7713 14.639
42.8193 14.5978
42.8671 14.5141
42.9152 14.4492
42.963 14.3802
43.0111 14.3427
43.0589 14.3143
43.107 14.2584
43.1549 14.1921
43.2029 14.1288
43.2508 14.1046
43.2989 14.05
43.3468 14.0165
43.3949 13.962
43.4429 13.9741
43.491 13.8763
43.5389 13.8233
43.5871 13.7402
43.635 13.7339
43.6832 13.7092
43.7312 13.5996
43.7793 13.5788
43.8273 13.5212
43.8755 13.499
43.9237 13.4607
43.9717 13.3742
44.0199 13.3339
44.068 13.3449
44.1162 13.2768
44.1642 13.2627
44.2125 13.1751
44.2606 13.1136
44.3088 13.0778
44.3569 13.045
44.4052 12.9816
44.4533 12.9431
44.5016 12.8775
44.5497 12.8446
44.598 12.8429
44.6461 12.7994
44.6945 12.6971
44.7426 12.7232
44.791 12.6017
44.8391 12.5786
44.8875 12.5322
44.9357 12.5026
44.984 12.4654
45.0322 12.3891
45.0806 12.312
45.1288 12.3062
45.1773 12.2225
45.2257 12.2129
45.2739 12.2183
45.3224 12.1282
45.3706 12.1019
45.4191 12.0897
45.4673 12.0174
45.5158 11.9918
45.5641 11.9158
45.6126 11.9113
45.6609 11.8496
45.7094 11.7838
45.7577 11.7619
45.8063 11.7057
45.8546 11.6734
45.9031 11.6116
45.9515 11.6003
46.0001 11.5796
46.0484 11.4942
46.097 11.485
46.1454 11.4514
46.194 11.3665
46.2424 11.3904
46.291 11.3203
46.3395 11.2912
46.3881 11.215
46.4365 11.2036
46.4852 11.1422
46.5337 11.1587
46.5823 11.1034
46.631 11.0024
46.6795 10.9763
46.7282 10.9168
46.7767 10.8647
46.8254 10.8437
46.8739 10.8159
46.9226 10.7794
46.9712 10.7559
47.0199 10.6776
47.0685 10.6515
47.1173 10.6322
47.1658 10.6376
47.2146 10.5429
47.2632 10.5073
47.312 10.4622
47.3606 10.4624
47.4095 10.3782
47.4581 10.3784
47.5069 10.3174
47.5556 10.2846
47.6044 10.2283
47.6531 10.1964
47.702 10.1562
47.7507 10.1252
47.7996 10.0755
47.8483 10.0409
47.8972 10.0247
47.9461 10.0027
47.9948 9.90001
48.0438 9.9077
48.0925 9.84023
48.1415 9.81768
48.1902 9.78169
48.2392 9.81714
48.288 9.75929
48.337 9.74781
48.3858 9.63103
48.4348 9.64914
48.4837 9.613
48.5327 9.55914
48.5815 9.55947
48.6306 9.50644
48.6795 9.4746
48.7285 9.44907
48.7774 9.39451
48.8265 9.38475
48.8754 9.31501
48.9245 9.26797
48.9734 9.23864
49.0226 9.25566
49.0715 9.13329
49.1206 9.11889
49.1696 9.11452
49.2188 9.06339
49.2679 9.04005
49.3169 9.00181
49.3661 8.94152
49.4151 8.9555
49.4643 8.93002
49.5134 8.88246
49.5626 8.78597
49.6117 8.81804
49.6609 8.75935
49.71 8.68932
49.7592 8.70735
49.8083 8.63259
49.8576 8.60225
49.9067 8.55959
49.956 8.57127
50.0052 8.49725
50.0545 8.5012
50.1036 8.45507
50.153 8.42301
50.2022 8.41537
50.2515 8.38248
50.3007 8.34301
50.3501 8.30122
50.3993 8.28983
50.4487 8.19951
50.498 8.21184
50.5474 8.18264
50.5966 8.15539
50.6461 8.08772
50.6955 8.07883
50.7448 8.05842
50.7943 8.05586
50.8436 7.98525
50.8931 7.94676
50.9424 7.94182
50.9919 7.88
51.0413 7.88036
51.0908 7.82577
51.1402 7.81721
51.1897 7.74715
51.2391 7.76369
51.2887 7.677
51.3381 7.66228
51.3877 7.67068
51.4371 7.59923
51.4867 7.55159
51.5362 7.57076
51.5858 7.51074
51.6353 7.44573
51.6849 7.43193
51.7344 7.4334
51.7841 7.418
51.8336 7.39183
51.8833 7.33112
51.9328 7.29625
51.9826 7.23317
52.0323 7.22287
52.0818 7.22303
52.1316 7.17097
52.1812 7.16458
52.231 7.14261
52.2806 7.06665
52.3304 7.05607
52.38 7.0579
52.4298 6.96485
52.4794 6.95938
52.5293 6.92885
52.5789 6.94022
52.6288 6.91796
52.6785 6.83787
52.7284 6.83193
52.7781 6.78783
52.828 6.75915
52.8777 6.74003
52.9276 6.72544
52.9774 6.68796
53.0273 6.66956
53.0771 6.65686
53.1271 6.61879
53.1769 6.55795
53.2269 6.56213
53.2767 6.51527
53.3267 6.48665
53.3765 6.48945
53.4266 6.48721
53.4766 6.41379
53.5265 6.41493
53.5765 6.38195
53.6264 6.32797
53.6765 6.32969
53.7264 6.2322
53.7765 6.26041
53.8265 6.21653
53.8766 6.19377
53.9266 6.14471
53.9767 6.14483
54.0267 6.1038
54.0769 6.06946
54.1269 6.06436
54.1771 6.01189
54.2271 5.9986
54.2773 5.93098
54.3274 5.9688
54.3776 5.90163
54.4277 5.86627
54.478 5.85037
54.528 5.79852
54.5783 5.77129
54.6285 5.72127
54.6788 5.70418
54.7289 5.63902
54.7792 5.62391
54.8296 5.53717
54.8798 5.49779
54.9301 5.43864
54.9803 5.4413
55.0307 5.4432
55.0809 5.38546
55.1314 5.36355
55.1816 5.30126
55.232 5.23323
55.2823 5.21536
55.3328 5.14091
55.383 5.14625
55.4335 5.08378
55.4838 4.97784
55.5344 4.96422
55.5847 4.9206
55.6352 4.89395
55.6856 4.81584
55.7361 4.76311