File: XRD/Ni3Fe_FD0873.xy
TT I
1.27165 7.13397
1.31627 6.59731
1.36089 6.3772
1.40551 5.76674
1.45013 6.01667
1.49476 5.64804
1.53938 5.53394
1.584 5.4208
1.62863 5.2223
1.67325 5.00964
1.71787 5.5681
1.7625 4.71881
1.80712 4.4275
1.85174 4.73305
1.89636 4.7732
1.94099 4.94999
1.98562 4.87446
2.03025 3.93063
2.07487 4.20587
2.11949 5.1814
2.16411 5.3133
2.20874 15.5423
2.25338 26.1662
2.298 6.64653
2.34263 5.5805
2.38725 5.91116
2.43188 6.86734
2.4765 7.30675
2.52115 7.58489
2.56577 7.31737
2.6104 8.56693
2.65503 8.26639
2.69965 8.45469
2.7443 8.52724
2.78893 8.55278
2.83356 8.8173
2.87818 9.08021
2.92281 9.26583
2.96744 9.47545
3.01209 10.6151
3.05672 11.3461
3.10135 12.1811
3.14599 13.1108
3.19062 14.3588
3.23527 15.1811
3.2799 15.8237
3.32454 17.0854
3.36917 18.339
3.4138 18.8926
3.45844 19.7629
3.50309 20.6465
3.54773 22.0536
3.59237 24.1901
3.637 102.629
3.68164 65.3666
3.7263 26.3258
3.77094 26.2944
3.81558 26.929
3.86022 27.6434
3.90486 28.8331
3.9495 29.6148
3.99416 30.9897
4.0388 32.3696
4.08344 33.5554
4.12809 34.5267
4.17273 37.3993
4.21738 43.8316
4.26204 277.203
4.30669 249.181
4.35133 49.3238
4.39598 44.4617
4.44063 54.8819
4.4853 68.4524
4.52995 50.0608
4.5746 50.5144
4.61925 52.8809
4.6639 54.8668
4.70855 57.9277
4.75322 60.2019
4.79788 62.779
4.84253 65.8065
4.88719 69.9772
4.93184 73.4135
4.97652 78.6353
5.02118 84.4141
5.06583 91.2033
5.11049 101.468
5.15515 172.514
5.19981 288.583
5.24449 2381.77
5.28916 12830.1
5.33382 2907.91
5.37848 178.705
5.42315 125.548
5.46783 110.567
5.5125 103.6
5.55716 100.174
5.60183 96.8074
5.6465 95.1144
5.69117 92.4089
5.73586 90.2918
5.78053 89.3454
5.8252 88.9974
5.86988 89.2459
5.91455 91.1051
5.95924 96.1883
6.00392 170.293
6.0486 796.758
6.09328 4366.21
6.13795 3217.13
6.18263 227.986
6.22733 90.6407
6.27201 81.6313
6.3167 104.897
6.36138 81.2218
6.40606 68.2715
6.45075 66.2186
6.49545 64.5718
6.54014 63.0193
6.58483 62.5447
6.62952 62.2237
6.67421 97.5261
6.71892 156.978
6.76361 70.1183
6.8083 58.1591
6.853 57.2403
6.89769 56.2722
6.94239 56.3281
6.98711 55.3608
7.03181 55.1243
7.07651 54.7552
7.12121 54.3293
7.16591 55.0626
7.21063 55.0946
7.25533 71.7907
7.30004 196.631
7.34475 97.8479
7.38945 56.1452
7.43416 54.3111
7.47889 54.0193
7.5236 54.2406
7.56831 54.9355
7.61303 56.6144
7.65774 57.3647
7.70247 55.5024
7.74719 55.5037
7.79191 55.9982
7.83663 56.1585
7.88135 56.976
7.92607 57.886
7.97081 58.7091
8.01553 60.0584
8.06026 61.0528
8.10498 63.1153
8.14971 73.3101
8.19446 72.4344
8.23919 68.3431
8.28392 70.5736
8.32865 72.6523
8.37339 76.6328
8.41812 83.6439
8.46288 113.66
8.50761 144.394
8.55235 326.732
8.59709 1107.45
8.64183 2265.78
8.68658 976.739
8.73134 171.505
8.77609 97.3093
8.82083 90.9421
8.86558 87.9461
8.91033 88.6166
8.9551 91.0545
8.99985 84.1207
9.04461 82.0759
9.08936 81.6067
9.13412 80.4145
9.17888 80.6877
9.22365 81.3968
9.26841 80.824
9.31318 81.1006
9.35794 81.2481
9.4027 81.7967
9.44749 82.7215
9.49226 83.0211
9.53703 83.6047
9.5818 85.7866
9.62657 90.65
9.67134 98.6887
9.71614 92.4734
9.76091 92.156
9.80569 94.6702
9.85047 97.465
9.89525 124.657
9.94005 136.636
9.98484 155.216
10.0296 295.781
10.0744 743.228
10.1192 1759.0
10.164 1612.02
10.2088 408.871
10.2536 124.676
10.2984 112.284
10.3432 114.891
10.388 102.598
10.4328 110.937
10.4776 146.112
10.5224 264.925
10.5672 522.902
10.612 500.318
10.6568 201.14
10.7017 95.61
10.7465 85.1951
10.7913 82.0096
10.8361 79.7963
10.8809 77.6251
10.9257 77.4279
10.9706 78.5273
11.0154 73.6637
11.0602 71.9059
11.105 70.7702
11.1499 76.0657
11.1947 85.1237
11.2395 74.8764
11.2844 69.8899
11.3292 66.336
11.374 65.2012
11.4189 64.5291
11.4637 64.346
11.5086 64.5123
11.5534 68.4045
11.5983 64.7584
11.6431 62.6991
11.688 62.1579
11.7328 61.9907
11.7777 61.821
11.8225 61.4563
11.8674 61.6697
11.9122 61.9097
11.9571 61.7499
12.002 62.1273
12.0468 65.3086
12.0917 75.1198
12.1366 97.3911
12.1814 149.335
12.2263 208.396
12.2712 169.166
12.3161 98.3288
12.3609 70.6825
12.4058 63.7958
12.4507 63.4288
12.4956 63.6523
12.5405 63.7206
12.5853 64.6943
12.6302 73.3024
12.6751 79.8076
12.72 69.9123
12.7649 66.9798
12.8098 67.3716
12.8547 68.7671
12.8996 69.6007
12.9445 70.9356
12.9894 72.6479
13.0343 74.3321
13.0792 77.0352
13.1242 83.862
13.1691 104.056
13.214 137.331
13.2589 224.197
13.3038 366.633
13.3487 430.914
13.3937 264.417
13.4386 123.695
13.4835 100.308
13.5285 112.276
13.5734 147.663
13.6183 239.851
13.6633 351.272
13.7082 343.947
13.7531 185.618
13.7981 95.9556
13.843 80.5548
13.888 78.048
13.9329 75.7008
13.9779 74.7209
14.0228 72.9678
14.0678 71.8158
14.1127 71.6626
14.1577 71.4036
14.2027 70.5317
14.2476 69.1982
14.2926 69.5623
14.3376 70.7795
14.3825 69.3527
14.4275 67.7964
14.4725 67.2868
14.5175 67.6964
14.5624 67.7367
14.6074 70.1764
14.6524 70.792
14.6974 69.1408
14.7424 69.939
14.7874 75.349
14.8324 84.0547
14.8774 104.745
14.9224 147.949
14.9674 208.119
15.0124 216.106
15.0574 146.175
15.1024 89.2706
15.1474 71.136
15.1924 69.2919
15.2374 70.3352
15.2824 69.6181
15.3274 67.2878
15.3725 65.666
15.4175 65.1352
15.4625 64.7645
15.5076 65.2118
15.5526 65.2794
15.5976 64.5894
15.6426 65.1085
15.6877 69.217
15.7327 75.6374
15.7778 89.6428
15.8228 121.786
15.8679 168.192
15.9129 195.737
15.958 156.672
16.003 94.6343
16.0481 67.2019
16.0931 63.9201
16.1382 62.2903
16.1833 59.8176
16.2283 58.0579
16.2734 57.5718
16.3185 58.161
16.3636 59.029
16.4086 57.3037
16.4537 55.7288
16.4988 54.7869
16.5439 54.8637
16.589 54.263
16.6341 53.8752
16.6792 53.5854
16.7243 53.8946
16.7694 54.0653
16.8145 53.9058
16.8596 54.2966
16.9047 56.0621
16.9498 56.5111
16.9949 54.9276
17.04 54.6468
17.0851 55.7093
17.1302 57.4056
17.1754 59.988
17.2205 64.6449
17.2656 72.7945
17.3108 82.5977
17.3559 81.191
17.401 70.0306
17.4462 60.6639
17.4913 58.115
17.5365 58.1008
17.5815 58.3383
17.6268 58.5419
17.6718 59.5391
17.7171 59.8967
17.7622 60.034
17.8074 60.5621
17.8525 62.2768
17.8977 65.9583
17.9428 70.7515
17.9881 78.9664
18.0331 96.6741
18.0784 120.698
18.1237 138.779
18.1688 129.348
18.214 101.726
18.2591 84.2686
18.3044 88.9636
18.3495 99.8012
18.3948 105.543
18.4399 95.1402
18.4852 76.5575
18.5303 65.1363
18.5756 61.1493
18.6207 60.3545
18.666 59.5935
18.7112 58.8171
18.7565 58.0283
18.8016 57.6913
18.8469 57.1028
18.892 56.7593
18.9374 56.277
18.9825 56.1929
19.0278 56.0455
19.073 56.0197
19.1183 56.3978
19.1635 57.0418
19.2088 58.345
19.254 60.4391
19.2993 65.3566
19.3447 72.146
19.3898 76.2571
19.4352 71.5948
19.4804 62.3727
19.5257 55.9166
19.5709 53.4304
19.6163 53.0592
19.6615 52.8507
19.7068 52.4509
19.752 52.4478
19.7974 52.6083
19.8426 53.2782
19.888 54.0159
19.9332 54.925
19.9786 57.4973
20.0238 61.0649
20.0692 66.1724
20.1144 69.3388
20.1598 67.2277
20.205 62.498
20.2504 61.3922
20.2957 63.3498
20.3411 65.1865
20.3863 63.6647
20.4318 57.743
20.477 53.326
20.5224 51.0147
20.5677 50.3505
20.6131 49.6522
20.6586 48.8949
20.7038 48.8477
20.7493 48.3305
20.7945 48.3954
20.84 48.0471
20.8853 47.8864
20.9307 47.8759
20.976 48.0242
21.0215 47.7874
21.0668 48.2807
21.1122 48.6481
21.1575 49.2169
21.203 50.1427
21.2483 50.7062
21.2938 50.6491
21.3391 49.3735
21.3846 48.1797
21.4299 47.5919
21.4754 47.6325
21.5207 47.8052
21.5662 48.07
21.6116 48.2896
21.6571 48.8173
21.7024 49.7882
21.7479 51.4157
21.7933 54.139
21.8388 57.8844
21.8843 61.9831
21.9297 63.8723
21.9752 62.5136
22.0206 58.803
22.0661 55.8335
22.1115 55.528
22.157 55.3972
22.2024 53.4808
22.248 50.8244
22.2933 49.1671
22.3389 48.4613
22.3843 48.4189
22.4299 48.3678
22.4753 48.2898
22.5208 47.9571
22.5662 47.681
22.6118 47.9802
22.6572 47.9358
22.7028 48.4083
22.7483 48.7487
22.7939 49.6195
22.8393 50.943
22.8849 53.1613
22.9303 55.3133
22.9759 57.3883
23.0214 56.6939
23.067 53.8236
23.1126 50.5554
23.1581 48.4396
23.2037 47.9917
23.2492 48.0746
23.2948 47.9714
23.3403 48.2053
23.3859 48.8121
23.4314 49.6485
23.477 51.7253
23.5225 54.1666
23.5682 56.4379
23.6137 57.1892
23.6593 55.0921
23.7048 50.839
23.7505 47.6622
23.796 46.2718
23.8417 45.4101
23.8872 45.0911
23.9329 44.6468
23.9784 44.3537
24.0241 44.0899
24.0697 43.8341
24.1154 43.492
24.1609 43.3791
24.2066 43.2881
24.2522 42.9525
24.2979 42.7439
24.3434 42.8673
24.3892 42.4865
24.4349 42.4531
24.4805 42.2774
24.5262 42.7209
24.5718 42.4217
24.6175 42.4487
24.6631 42.3304
24.7089 41.9511
24.7545 41.7314
24.8002 41.7181
24.8458 41.7384
24.8916 41.4047
24.9372 41.5619
24.983 41.8164
25.0286 42.1111
25.0744 42.6759
25.12 43.1096
25.1658 43.7073
25.2114 43.947
25.2572 44.1581
25.3029 44.3689
25.3487 44.3331
25.3943 44.0561
25.4402 42.9999
25.4858 41.792
25.5316 40.8621
25.5773 40.3455
25.6231 40.2289
25.669 39.9502
25.7147 40.1451
25.7605 39.8913
25.8062 40.0849
25.8521 39.989
25.8977 39.9789
25.9436 40.2387
25.9893 40.4191
26.0352 41.0156
26.0809 41.074
26.1268 41.2325
26.1725 40.7775
26.2184 40.2469
26.2641 39.8037
26.31 39.4768
26.3557 39.4538
26.4017 39.5604
26.4474 39.6963
26.4933 40.2044
26.5391 40.6961
26.585 41.202
26.6308 41.5877
26.6767 41.6189
26.7225 41.5308
26.7684 40.8605
26.8142 40.378
26.8601 40.013
26.9059 39.5254
26.9519 38.9969
26.9979 38.691
27.0437 38.2835
27.0896 38.1932
27.1354 38.1673
27.1814 38.08
27.2272 37.8815
27.2732 38.1284
27.3191 37.7817
27.3651 37.8705
27.4109 37.9901
27.4569 37.8482
27.5027 38.1224
27.5488 38.0609
27.5946 37.906
27.6407 37.5613
27.6865 37.5561
27.7326 37.2326
27.7784 37.3672
27.8245 37.3086
27.8703 37.3119
27.9164 37.7352
27.9623 37.8168
28.0084 38.1694
28.0543 38.6254
28.1003 38.6093
28.1462 38.285
28.1923 38.0395
28.2384 37.5115
28.2843 37.1108
28.3304 36.8311
28.3764 36.1407
28.4225 35.9894
28.4684 35.7948
28.5145 35.4655
28.5605 35.3842
28.6066 35.1828
28.6526 35.1786
28.6987 35.3217
28.7447 35.0936
28.7908 35.0179
28.8368 35.0608
28.8829 34.8441
28.9289 34.7929
28.9751 34.7162
29.0211 34.591
29.0673 34.2933
29.1133 34.0927
29.1595 34.0422
29.2055 33.9193
29.2517 33.763
29.2977 33.7597
29.3439 33.8633
29.3899 33.8491
29.4361 33.7296
29.4824 33.4535
29.5284 33.1844
29.5746 32.9284
29.6207 32.7472
29.6669 32.7174
29.713 32.5912
29.7593 32.4413
29.8053 32.4218
29.8516 32.4304
29.8977 32.3292
29.9439 32.0834
29.99 32.2382
30.0363 32.0627
30.0824 32.0957
30.1287 31.9356
30.1748 31.9833
30.2211 31.9142
30.2673 31.8769
30.3136 31.9355
30.3597 31.8578
30.406 31.7885
30.4522 31.6799
30.4985 31.5327
30.5447 31.7708
30.591 31.6433
30.6372 31.6957
30.6835 31.7713
30.7297 31.8247
30.7761 31.7514
30.8224 31.5444
30.8686 31.5334
30.915 31.1279
30.9612 31.0925
31.0076 30.9666
31.0538 30.8351
31.1002 30.6512
31.1464 30.5928
31.1928 30.5336
31.2391 30.4884
31.2855 30.507
31.3317 30.5384
31.3781 30.5866
31.4244 30.4157
31.4708 30.4219
31.5171 30.4395
31.5636 30.3566
31.6098 30.002
31.6563 29.9753
31.7026 29.8213
31.7491 29.8206
31.7953 29.6901
31.8418 29.7828
31.8881 29.7671
31.9346 29.7519
31.9809 29.5916
32.0275 29.6131
32.074 29.4197
32.1203 29.2181
32.1668 29.195
32.2132 28.985
32.2597 28.8885
32.306 28.8049
32.3526 28.5286
32.399 28.5433
32.4455 28.427
32.4919 28.3217
32.5385 28.2765
32.5848 28.1625
32.6314 28.0616
32.6778 28.0105
32.7244 27.9423
32.7708 27.7156
32.8174 27.8075
32.8638 27.6458
32.9104 27.7484
32.9569 27.6878
33.0035 27.5323
33.0499 27.4765
33.0966 27.4485
33.143 27.3779
33.1897 27.3255
33.2361 27.2584
33.2828 27.3223
33.3293 27.0653
33.3759 27.0084
33.4226 26.8773
33.4691 26.7789
33.5158 26.6961
33.5623 26.6129
33.609 26.3218
33.6555 26.3796
33.7022 26.2078
33.7487 26.1589
33.7954 26.0928
33.842 26.1353
33.8887 26.0174
33.9353 25.8688
33.982 25.7443
34.0286 25.6956
34.0753 25.6815
34.1219 25.605
34.1687 25.4956
34.2152 25.4725
34.262 25.3648
34.3086 25.2159
34.3554 25.2538
34.402 25.0114
34.4488 24.8672
34.4954 24.9863
34.5422 24.8096
34.5889 24.7573
34.6357 24.6412
34.6825 24.589
34.7292 24.564
34.776 24.4424
34.8227 24.4401
34.8695 24.3097
34.9162 24.171
34.9631 24.1272
35.0098 24.2067
35.0566 24.0477
35.1033 23.9997
35.1502 23.9458
35.1969 23.8656
35.2438 23.8374
35.2906 23.804
35.3375 23.802
35.3842 23.6778
35.4311 23.6732
35.4779 23.6975
35.5248 23.5931
35.5716 23.4834
35.6185 23.439
35.6653 23.3777
35.7123 23.2148
35.759 23.1625
35.806 23.0784
35.8528 22.947
35.8998 22.9734
35.9468 22.8177
35.9936 22.8356
36.0406 22.6569
36.0874 22.7591
36.1345 22.6108
36.1813 22.5228
36.2283 22.4122
36.2752 22.3012
36.3222 22.4237
36.3691 22.2712
36.4161 22.1146
36.463 22.1296
36.5101 22.1339
36.557 22.0491
36.6041 21.9541
36.651 21.9255
36.6981 21.8016
36.745 21.6401
36.7921 21.6663
36.839 21.5225
36.8861 21.5075
36.9331 21.3992
36.9802 21.2996
37.0272 21.2545
37.0743 21.2332
37.1213 21.2203
37.1684 21.159
37.2154 21.0572
37.2626 21.0823
37.3098 20.9188
37.3568 20.8352
37.404 20.8224
37.451 20.7177
37.4982 20.6961
37.5452 20.6045
37.5924 20.485
37.6395 20.5605
37.6867 20.469
37.7337 20.3387
37.781 20.2798
37.8281 20.2361
37.8753 20.1009
37.9224 20.0433
37.9697 20.0876
38.0168 19.9221
38.064 19.8277
38.1111 19.8124
38.1584 19.7473
38.2056 19.7709
38.2529 19.6163
38.3 19.521
38.3473 19.5647
38.3945 19.3639
38.4418 19.3506
38.489 19.3692
38.5363 19.2483
38.5837 19.1653
38.6309 19.1537
38.6782 19.1504
38.7254 18.996
38.7728 19.0011
38.82 18.922
38.8674 18.858
38.9146 18.7845
38.9621 18.7104
39.0093 18.663
39.0567 18.6474
39.104 18.5754
39.1514 18.4038
39.1987 18.4502
39.2461 18.4484
39.2934 18.3094
39.3409 18.2009
39.3882 18.1549
39.4356 18.137
39.483 18.1107
39.5304 17.9659
39.5778 18.0184
39.6253 17.8926
39.6726 17.9505
39.7201 17.8172
39.7675 17.8159
39.815 17.7183
39.8624 17.6371
39.9099 17.5884
39.9575 17.5275
40.0049 17.4673
40.0525 17.4533
40.0999 17.3621
40.1474 17.2903
40.1949 17.227
40.2425 17.1967
40.2899 17.1417
40.3375 17.1066
40.385 17.0263
40.4326 16.9353
40.48 16.9434
40.5277 16.8965
40.5752 16.8286
40.6228 16.7789
40.6703 16.6483
40.718 16.6201
40.7655 16.605
40.8132 16.5731
40.8607 16.5086
40.9084 16.514
40.9559 16.3956
41.0036 16.3929
41.0512 16.2989
41.0989 16.2498
41.1465 16.2116
41.1942 16.0906
41.242 16.0549
41.2896 15.9915
41.3373 15.9757
41.3849 15.8659
41.4327 15.8465
41.4803 15.8261
41.5281 15.7258
41.5758 15.6377
41.6236 15.6128
41.6712 15.5564
41.7191 15.5776
41.7667 15.4856
41.8146 15.453
41.8622 15.3656
41.9101 15.3511
41.9578 15.3109
42.0057 15.23
42.0534 15.195
42.1013 15.1506
42.149 15.069
42.1969 15.0139
42.2446 14.9908
42.2925 14.9944
42.3403 14.8623
42.3882 14.9339
42.436 14.8383
42.4839 14.6688
42.5319 14.6683
42.5797 14.6691
42.6277 14.6243
42.6755 14.5614
42.7235 14.4693
42.7713 14.4356
42.8193 14.3952
42.8671 14.3593
42.9152 14.3146
42.963 14.243
43.0111 14.2249
43.0589 14.1916
43.107 14.1115
43.1549 14.0267
43.2029 13.986
43.2508 13.9625
43.2989 13.9323
43.3468 13.8437
43.3949 13.7819
43.4429 13.765
43.491 13.7354
43.5389 13.6659
43.5871 13.5868
43.635 13.5502
43.6832 13.5328
43.7312 13.4556
43.7793 13.379
43.8273 13.3603
43.8755 13.2824
43.9237 13.3031
43.9717 13.2498
44.0199 13.1913
44.068 13.1707
44.1162 13.1277
44.1642 13.0597
44.2125 12.9946
44.2606 12.9505
44.3088 12.9015
44.3569 12.9147
44.4052 12.8671
44.4533 12.8043
44.5016 12.7268
44.5497 12.7376
44.598 12.689
44.6461 12.642
44.6945 12.5927
44.7426 12.5678
44.791 12.4127
44.8391 12.4448
44.8875 12.4008
44.9357 12.3646
44.984 12.2993
45.0322 12.2974
45.0806 12.2253
45.1288 12.1883
45.1773 12.1611
45.2257 12.1072
45.2739 12.0462
45.3224 12.0228
45.3706 11.9874
45.4191 11.8936
45.4673 11.8728
45.5158 11.7965
45.5641 11.7901
45.6126 11.7157
45.6609 11.7156
45.7094 11.6535
45.7577 11.6915
45.8063 11.5102
45.8546 11.6049
45.9031 11.5088
45.9515 11.4737
46.0001 11.437
46.0484 11.4132
46.097 11.3337
46.1454 11.3167
46.194 11.2661
46.2424 11.2484
46.291 11.2032
46.3395 11.0748
46.3881 11.0972
46.4365 11.0294
46.4852 11.0533
46.5337 10.9746
46.5823 10.9629
46.631 10.9004
46.6795 10.8868
46.7282 10.8169
46.7767 10.8088
46.8254 10.7413
46.8739 10.7383
46.9226 10.6295
46.9712 10.6158
47.0199 10.5559
47.0685 10.5415
47.1173 10.5157
47.1658 10.4568
47.2146 10.4387
47.2632 10.368
47.312 10.358
47.3606 10.2835
47.4095 10.2969
47.4581 10.2299
47.5069 10.2153
47.5556 10.1174
47.6044 10.1014
47.6531 10.0913
47.702 10.0544
47.7507 9.99508
47.7996 9.95211
47.8483 9.94855
47.8972 9.94457
47.9461 9.86193
47.9948 9.81113
48.0438 9.80823
48.0925 9.79286
48.1415 9.7045
48.1902 9.68865
48.2392 9.68174
48.288 9.62709
48.337 9.61441
48.3858 9.56124
48.4348 9.53389
48.4837 9.47841
48.5327 9.4278
48.5815 9.42779
48.6306 9.37028
48.6795 9.38646
48.7285 9.33149
48.7774 9.28593
48.8265 9.24914
48.8754 9.19815
48.9245 9.20869
48.9734 9.13288
49.0226 9.10298
49.0715 9.08665
49.1206 9.03556
49.1696 8.96501
49.2188 9.00896
49.2679 8.91991
49.3169 8.86056
49.3661 8.84237
49.4151 8.81402
49.4643 8.76799
49.5134 8.76989
49.5626 8.68682
49.6117 8.70805
49.6609 8.67992
49.71 8.61197
49.7592 8.57442
49.8083 8.52284
49.8576 8.5197
49.9067 8.49045
49.956 8.46387
50.0052 8.41647
50.0545 8.40301
50.1036 8.36064
50.153 8.34199
50.2022 8.31534
50.2515 8.25054
50.3007 8.22378
50.3501 8.22238
50.3993 8.16215
50.4487 8.14439
50.498 8.0977
50.5474 8.06447
50.5966 8.05669
50.6461 7.98765
50.6955 8.02879
50.7448 7.97199
50.7943 7.90495
50.8436 7.93448
50.8931 7.8119
50.9424 7.84865
50.9919 7.75649
51.0413 7.76979
51.0908 7.7263
51.1402 7.72378
51.1897 7.70517
51.2391 7.66566
51.2887 7.63852
51.3381 7.58803
51.3877 7.54001
51.4371 7.50442
51.4867 7.48703
51.5362 7.47021
51.5858 7.42334
51.6353 7.37011
51.6849 7.35199
51.7344 7.32864
51.7841 7.32563
51.8336 7.29727
51.8833 7.23254
51.9328 7.206
51.9826 7.17019
52.0323 7.1801
52.0818 7.11902
52.1316 7.04516
52.1812 7.05771
52.231 7.02124
52.2806 7.03197
52.3304 6.99475
52.38 6.91835
52.4298 6.93214
52.4794 6.86563
52.5293 6.90939
52.5789 6.85789
52.6288 6.77822
52.6785 6.75758
52.7284 6.7651
52.7781 6.75137
52.828 6.68485
52.8777 6.7006
52.9276 6.61436
52.9774 6.64499
53.0273 6.57998
53.0771 6.56572
53.1271 6.52663
53.1769 6.51891
53.2269 6.50734
53.2767 6.47333
53.3267 6.41134
53.3765 6.36629
53.4266 6.40489
53.4766 6.33902
53.5265 6.28197
53.5765 6.27322
53.6264 6.26673
53.6765 6.22713
53.7264 6.19005
53.7765 6.16111
53.8265 6.13455
53.8766 6.10668
53.9266 6.08132
53.9767 6.05954
54.0267 6.03667
54.0769 5.99117
54.1269 5.94878
54.1771 5.95565
54.2271 5.91583
54.2773 5.85664
54.3274 5.88094
54.3776 5.82307
54.4277 5.79158
54.478 5.77538
54.528 5.79741
54.5783 5.67649
54.6285 5.70146
54.6788 5.62312
54.7289 5.54716
54.7792 5.50568
54.8296 5.48393
54.8798 5.43556
54.9301 5.35663
54.9803 5.35846
55.0307 5.32003
55.0809 5.30712
55.1314 5.29491
55.1816 5.20157
55.232 5.15989
55.2823 5.15144
55.3328 5.09039
55.383 5.06157
55.4335 4.96573
55.4838 4.92817
55.5344 4.88805
55.5847 4.87932
55.6352 4.85801
55.6856 4.79861
55.7361 4.69698