File: XRD/Ni3Fe_FD0489.xy
TT I
1.27165 7.40387
1.31627 6.87673
1.36089 6.14873
1.40551 6.10772
1.45013 5.2776
1.49476 5.77237
1.53938 5.47314
1.584 5.74714
1.62863 4.80335
1.67325 5.71163
1.71787 5.56223
1.7625 4.55443
1.80712 5.1694
1.85174 4.69399
1.89636 4.34759
1.94099 5.14065
1.98562 4.06103
2.03025 4.95998
2.07487 4.71577
2.11949 4.9951
2.16411 4.43084
2.20874 11.6822
2.25338 17.6015
2.298 6.55556
2.34263 5.75735
2.38725 4.61692
2.43188 5.75764
2.4765 6.92073
2.52115 6.5829
2.56577 6.75671
2.6104 7.84526
2.65503 7.39794
2.69965 7.68655
2.7443 7.18058
2.78893 7.34827
2.83356 8.18023
2.87818 9.10544
2.92281 9.08549
2.96744 10.0205
3.01209 10.4608
3.05672 11.2448
3.10135 12.2554
3.14599 12.6124
3.19062 14.1338
3.23527 15.0353
3.2799 16.2407
3.32454 16.9575
3.36917 17.5294
3.4138 19.1565
3.45844 19.5116
3.50309 20.8852
3.54773 22.0227
3.59237 24.3796
3.637 72.14
3.68164 48.2893
3.7263 26.2848
3.77094 26.0992
3.81558 26.9393
3.86022 27.6849
3.90486 29.0323
3.9495 30.5246
3.99416 31.1182
4.0388 32.79
4.08344 34.1555
4.12809 34.8633
4.17273 37.5388
4.21738 42.651
4.26204 182.573
4.30669 158.271
4.35133 47.6539
4.39598 44.7794
4.44063 51.8219
4.4853 59.9662
4.52995 51.333
4.5746 52.5316
4.61925 54.0539
4.6639 56.1614
4.70855 58.7897
4.75322 62.0514
4.79788 65.2117
4.84253 68.8949
4.88719 73.0955
4.93184 76.8188
4.97652 82.5653
5.02118 89.3862
5.06583 97.5976
5.11049 110.439
5.15515 169.631
5.19981 451.518
5.24449 3282.69
5.28916 11772.0
5.33382 3161.79
5.37848 205.253
5.42315 134.736
5.46783 118.446
5.5125 109.532
5.55716 104.626
5.60183 100.179
5.6465 99.1639
5.69117 96.749
5.73586 94.535
5.78053 94.8278
5.8252 94.4966
5.86988 95.4175
5.91455 97.4958
5.95924 107.927
6.00392 252.785
6.0486 1127.87
6.09328 4212.38
6.13795 3538.76
6.18263 298.329
6.22733 97.4048
6.27201 84.2728
6.3167 95.8314
6.36138 79.1681
6.40606 70.4318
6.45075 68.5773
6.49545 66.731
6.54014 64.878
6.58483 63.8723
6.62952 63.6014
6.67421 85.2131
6.71892 117.586
6.76361 66.0501
6.8083 59.1911
6.853 58.4018
6.89769 57.713
6.94239 57.0814
6.98711 56.5432
7.03181 56.3353
7.07651 56.168
7.12121 56.0997
7.16591 56.3064
7.21063 55.8295
7.25533 67.5615
7.30004 138.602
7.34475 80.5035
7.38945 56.6859
7.43416 55.0896
7.47889 54.895
7.5236 55.5353
7.56831 55.8826
7.61303 57.0894
7.65774 57.3907
7.70247 57.4225
7.74719 56.9686
7.79191 57.5072
7.83663 57.5559
7.88135 58.7624
7.92607 59.4378
7.97081 60.7818
8.01553 61.803
8.06026 63.1924
8.10498 64.9279
8.14971 72.4571
8.19446 71.9571
8.23919 70.8765
8.28392 73.3424
8.32865 75.6441
8.37339 80.1814
8.41812 86.6714
8.46288 110.84
8.50761 188.327
8.55235 440.417
8.59709 1222.12
8.64183 2093.06
8.68658 1065.2
8.73134 183.825
8.77609 102.378
8.82083 95.2343
8.86558 92.0189
8.91033 91.2015
8.9551 91.5419
8.99985 86.6792
9.04461 85.1406
9.08936 84.6481
9.13412 83.5895
9.17888 83.6343
9.22365 83.7605
9.26841 83.6272
9.31318 84.2982
9.35794 84.7661
9.4027 85.1559
9.44749 85.8245
9.49226 85.831
9.53703 87.3076
9.5818 89.2775
9.62657 93.2032
9.67134 97.569
9.71614 95.0728
9.76091 95.9458
9.80569 98.7793
9.85047 101.844
9.89525 120.413
9.94005 133.845
9.98484 200.459
10.0296 388.82
10.0744 870.059
10.1192 1651.87
10.164 1630.77
10.2088 453.438
10.2536 135.68
10.2984 114.42
10.3432 114.182
10.388 107.596
10.4328 125.651
10.4776 172.925
10.5224 298.251
10.5672 492.832
10.612 494.707
10.6568 217.407
10.7017 99.5198
10.7465 88.1648
10.7913 84.6265
10.8361 82.5471
10.8809 80.221
10.9257 79.526
10.9706 79.3945
11.0154 75.8745
11.0602 73.9636
11.105 72.7897
11.1499 75.7627
11.1947 80.0001
11.2395 73.6436
11.2844 70.7751
11.3292 68.4044
11.374 67.0951
11.4189 66.7488
11.4637 65.7187
11.5086 66.2111
11.5534 68.1781
11.5983 65.7248
11.6431 64.4338
11.688 64.0933
11.7328 63.7985
11.7777 63.9299
11.8225 63.4494
11.8674 63.3404
11.9122 63.85
11.9571 63.8447
12.002 65.113
12.0468 70.8569
12.0917 82.8237
12.1366 108.385
12.1814 154.917
12.2263 197.054
12.2712 171.642
12.3161 99.0736
12.3609 70.4058
12.4058 65.4686
12.4507 65.3476
12.4956 65.5674
12.5405 65.7796
12.5853 66.3967
12.6302 72.069
12.6751 75.8504
12.72 70.0157
12.7649 68.9677
12.8098 69.5141
12.8547 71.1079
12.8996 72.16
12.9445 73.7373
12.9894 75.4816
13.0343 77.1145
13.0792 80.8584
13.1242 93.3353
13.1691 118.175
13.214 158.422
13.2589 248.486
13.3038 357.711
13.3487 414.757
13.3937 275.882
13.4386 131.638
13.4835 111.547
13.5285 127.508
13.5734 168.509
13.6183 251.583
13.6633 330.071
13.7082 340.344
13.7531 202.019
13.7981 103.235
13.843 83.5185
13.888 81.1331
13.9329 78.3207
13.9779 77.29
14.0228 75.9645
14.0678 74.236
14.1127 73.9026
14.1577 73.3401
14.2027 72.6411
14.2476 71.4188
14.2926 71.3953
14.3376 72.0102
14.3825 71.1153
14.4275 69.7423
14.4725 70.112
14.5175 70.3183
14.5624 70.3552
14.6074 71.7983
14.6524 72.2279
14.6974 71.6412
14.7424 74.3112
14.7874 81.7774
14.8324 93.3236
14.8774 116.62
14.9224 157.09
14.9674 198.899
15.0124 212.608
15.0574 157.216
15.1024 96.4951
15.1474 73.9328
15.1924 71.6153
15.2374 71.6267
15.2824 70.9463
15.3274 68.8902
15.3725 68.1279
15.4175 67.6862
15.4625 66.9825
15.5076 67.3109
15.5526 67.01
15.5976 66.9089
15.6426 68.7428
15.6877 74.9678
15.7327 83.3885
15.7778 99.6974
15.8228 130.434
15.8679 166.683
15.9129 186.89
15.958 158.268
16.003 101.338
16.0481 69.939
16.0931 65.0845
16.1382 63.1443
16.1833 61.2032
16.2283 60.0292
16.2734 59.3421
16.3185 59.205
16.3636 59.5383
16.4086 58.093
16.4537 56.9676
16.4988 56.426
16.5439 56.3788
16.589 56.1079
16.6341 55.7591
16.6792 55.4257
16.7243 55.821
16.7694 55.8793
16.8145 55.5324
16.8596 56.0442
16.9047 57.0819
16.9498 57.2545
16.9949 56.5003
17.04 56.9364
17.0851 58.2273
17.1302 59.9339
17.1754 63.492
17.2205 68.7205
17.2656 75.1327
17.3108 81.0451
17.3559 81.979
17.401 72.8699
17.4462 63.724
17.4913 60.35
17.5365 60.1585
17.5815 60.295
17.6268 60.5849
17.6718 61.3641
17.7171 61.9484
17.7622 62.384
17.8074 63.1186
17.8525 66.2283
17.8977 70.3471
17.9428 76.3541
17.9881 85.7318
18.0331 102.408
18.0784 120.413
18.1237 136.118
18.1688 133.445
18.214 108.821
18.2591 90.6922
18.3044 92.3643
18.3495 99.5809
18.3948 105.075
18.4399 98.1862
18.4852 80.4175
18.5303 67.6578
18.5756 63.408
18.6207 62.2858
18.666 61.3843
18.7112 60.7041
18.7565 59.8553
18.8016 59.5263
18.8469 58.913
18.892 58.6556
18.9374 58.075
18.9825 58.2054
19.0278 57.8128
19.073 57.975
19.1183 58.3918
19.1635 59.3563
19.2088 60.5977
19.254 63.4553
19.2993 67.4826
19.3447 72.4243
19.3898 75.6268
19.4352 73.1324
19.4804 64.9395
19.5257 57.8969
19.5709 55.1711
19.6163 54.8892
19.6615 54.6688
19.7068 54.2288
19.752 54.2066
19.7974 54.5565
19.8426 55.5803
19.888 56.0351
19.9332 57.4742
19.9786 60.1337
20.0238 63.3433
20.0692 67.4269
20.1144 70.0343
20.1598 69.4716
20.205 65.4306
20.2504 63.4453
20.2957 64.1121
20.3411 65.5059
20.3863 64.8056
20.4318 59.5778
20.477 54.7271
20.5224 52.4327
20.5677 51.7393
20.6131 51.0759
20.6586 50.4624
20.7038 50.1346
20.7493 49.8604
20.7945 49.6368
20.84 49.6429
20.8853 49.5148
20.9307 49.347
20.976 49.491
21.0215 49.4309
21.0668 49.9251
21.1122 50.265
21.1575 50.9591
21.203 51.6199
21.2483 51.9197
21.2938 52.0619
21.3391 51.1114
21.3846 49.7978
21.4299 49.3598
21.4754 49.2292
21.5207 49.4961
21.5662 49.5002
21.6116 50.0619
21.6571 50.899
21.7024 51.924
21.7479 53.8812
21.7933 56.6815
21.8388 59.8636
21.8843 62.7744
21.9297 64.8658
21.9752 64.262
22.0206 61.0782
22.0661 57.4488
22.1115 56.4547
22.157 56.5301
22.2024 55.2927
22.248 52.5659
22.2933 50.8372
22.3389 49.8743
22.3843 49.7531
22.4299 49.62
22.4753 49.6094
22.5208 49.2396
22.5662 49.2915
22.6118 49.3989
22.6572 49.8829
22.7028 50.236
22.7483 50.6525
22.7939 51.6082
22.8393 53.0811
22.8849 54.9053
22.9303 56.466
22.9759 57.8688
23.0214 57.8582
23.067 55.5226
23.1126 52.3439
23.1581 50.1638
23.2037 49.7458
23.2492 49.5789
23.2948 49.7967
23.3403 50.1851
23.3859 50.8646
23.4314 51.9891
23.477 53.8181
23.5225 55.1669
23.5682 56.9014
23.6137 58.0259
23.6593 56.401
23.7048 52.8326
23.7505 49.6735
23.796 47.5713
23.8417 46.8562
23.8872 46.2901
23.9329 45.9906
23.9784 45.7717
24.0241 45.3721
24.0697 45.1477
24.1154 44.8195
24.1609 44.648
24.2066 44.5203
24.2522 44.3925
24.2979 44.2685
24.3434 44.0914
24.3892 43.773
24.4349 43.8806
24.4805 43.6079
24.5262 43.6045
24.5718 43.4796
24.6175 43.6734
24.6631 43.5052
24.7089 43.2931
24.7545 43.1105
24.8002 43.0859
24.8458 42.9203
24.8916 42.6981
24.9372 42.9222
24.983 43.2524
25.0286 43.6076
25.0744 43.8466
25.12 44.3324
25.1658 45.1404
25.2114 45.2888
25.2572 45.5452
25.3029 45.5952
25.3487 45.3037
25.3943 45.184
25.4402 44.1417
25.4858 43.3979
25.5316 42.2676
25.5773 41.5543
25.6231 41.6048
25.669 41.1561
25.7147 41.1532
25.7605 41.0892
25.8062 41.1751
25.8521 41.2444
25.8977 41.3923
25.9436 41.6255
25.9893 41.5723
26.0352 41.9678
26.0809 42.1205
26.1268 42.1659
26.1725 41.9916
26.2184 41.5953
26.2641 41.0592
26.31 40.8717
26.3557 40.7478
26.4017 40.8066
26.4474 41.1693
26.4933 41.3671
26.5391 41.8202
26.585 42.3658
26.6308 42.6581
26.6767 42.5852
26.7225 42.6595
26.7684 42.1362
26.8142 41.472
26.8601 41.1783
26.9059 40.6821
26.9519 40.258
26.9979 39.9174
27.0437 39.6491
27.0896 39.3176
27.1354 39.4426
27.1814 39.215
27.2272 39.2287
27.2732 39.2111
27.3191 38.8858
27.3651 39.206
27.4109 39.0113
27.4569 39.118
27.5027 39.0842
27.5488 39.097
27.5946 39.0064
27.6407 38.8885
27.6865 38.7164
27.7326 38.5553
27.7784 38.6137
27.8245 38.5089
27.8703 38.6151
27.9164 38.8265
27.9623 39.0121
28.0084 39.2919
28.0543 39.6765
28.1003 39.5673
28.1462 39.3545
28.1923 39.0369
28.2384 38.365
28.2843 38.1718
28.3304 37.8551
28.3764 37.2966
28.4225 37.0422
28.4684 36.9338
28.5145 36.4978
28.5605 36.3944
28.6066 36.2373
28.6526 36.1152
28.6987 36.1987
28.7447 36.057
28.7908 35.9185
28.8368 36.0903
28.8829 36.0284
28.9289 35.7777
28.9751 35.6465
29.0211 35.5763
29.0673 35.3082
29.1133 35.1526
29.1595 34.9201
29.2055 34.9364
29.2517 34.9098
29.2977 34.9057
29.3439 34.7676
29.3899 34.7209
29.4361 34.6508
29.4824 34.4776
29.5284 34.352
29.5746 33.9376
29.6207 33.659
29.6669 33.6124
29.713 33.6301
29.7593 33.3501
29.8053 33.5014
29.8516 33.3096
29.8977 33.2075
29.9439 33.1177
29.99 32.9851
30.0363 32.9959
30.0824 33.0627
30.1287 33.0248
30.1748 33.0253
30.2211 32.9359
30.2673 32.7295
30.3136 32.8804
30.3597 32.8913
30.406 32.7175
30.4522 32.5629
30.4985 32.583
30.5447 32.6647
30.591 32.6608
30.6372 32.6387
30.6835 32.5924
30.7297 32.7083
30.7761 32.5782
30.8224 32.5214
30.8686 32.4096
30.915 32.1552
30.9612 32.0177
31.0076 31.8281
31.0538 31.7228
31.1002 31.652
31.1464 31.481
31.1928 31.5147
31.2391 31.5069
31.2855 31.3741
31.3317 31.415
31.3781 31.3936
31.4244 31.4062
31.4708 31.2438
31.5171 31.3037
31.5636 31.2467
31.6098 31.0722
31.6563 30.9206
31.7026 30.7338
31.7491 30.5515
31.7953 30.6152
31.8418 30.4955
31.8881 30.6351
31.9346 30.6688
31.9809 30.5453
32.0275 30.3391
32.074 30.2823
32.1203 30.0688
32.1668 29.9479
32.2132 29.8901
32.2597 29.7218
32.306 29.6551
32.3526 29.4076
32.399 29.3829
32.4455 29.1998
32.4919 29.2232
32.5385 29.0786
32.5848 28.9182
32.6314 28.9375
32.6778 28.9358
32.7244 28.7544
32.7708 28.5912
32.8174 28.6223
32.8638 28.5428
32.9104 28.5068
32.9569 28.4377
33.0035 28.3881
33.0499 28.195
33.0966 28.1846
33.143 28.1806
33.1897 28.0741
33.2361 28.0441
33.2828 28.0361
33.3293 27.8646
33.3759 27.8947
33.4226 27.674
33.4691 27.5412
33.5158 27.5036
33.5623 27.2693
33.609 27.1558
33.6555 27.0589
33.7022 26.9951
33.7487 26.9228
33.7954 26.9161
33.842 26.8073
33.8887 26.7369
33.9353 26.713
33.982 26.4948
34.0286 26.3756
34.0753 26.3606
34.1219 26.2904
34.1687 26.232
34.2152 26.2316
34.262 26.1213
34.3086 25.9851
34.3554 25.9128
34.402 25.7543
34.4488 25.7272
34.4954 25.6403
34.5422 25.5452
34.5889 25.4783
34.6357 25.4063
34.6825 25.3384
34.7292 25.2169
34.776 25.073
34.8227 25.0113
34.8695 25.0905
34.9162 25.0302
34.9631 24.946
35.0098 24.8814
35.0566 24.8008
35.1033 24.6865
35.1502 24.6444
35.1969 24.5727
35.2438 24.5164
35.2906 24.3816
35.3375 24.4193
35.3842 24.3431
35.4311 24.3565
35.4779 24.2411
35.5248 24.3022
35.5716 24.1369
35.6185 24.1265
35.6653 23.9963
35.7123 23.8961
35.759 23.8501
35.806 23.761
35.8528 23.6471
35.8998 23.6055
35.9468 23.4536
35.9936 23.4454
36.0406 23.3122
36.0874 23.3613
36.1345 23.2988
36.1813 23.1748
36.2283 23.0442
36.2752 22.997
36.3222 23.0161
36.3691 22.9312
36.4161 22.8065
36.463 22.7508
36.5101 22.7525
36.557 22.7033
36.6041 22.563
36.651 22.5329
36.6981 22.4815
36.745 22.4671
36.7921 22.3146
36.839 22.1993
36.8861 22.1621
36.9331 22.1228
36.9802 21.9745
37.0272 21.9288
37.0743 21.8607
37.1213 21.8219
37.1684 21.7371
37.2154 21.7212
37.2626 21.5986
37.3098 21.5333
37.3568 21.5159
37.404 21.4657
37.451 21.3722
37.4982 21.3153
37.5452 21.2124
37.5924 21.1229
37.6395 21.1076
37.6867 21.0342
37.7337 20.8697
37.781 20.7845
37.8281 20.8375
37.8753 20.6748
37.9224 20.6306
37.9697 20.5539
38.0168 20.5792
38.064 20.463
38.1111 20.412
38.1584 20.3615
38.2056 20.2792
38.2529 20.1862
38.3 20.1241
38.3473 20.0973
38.3945 19.9955
38.4418 19.9679
38.489 19.9379
38.5363 19.8258
38.5837 19.7681
38.6309 19.6937
38.6782 19.5848
38.7254 19.5732
38.7728 19.4749
38.82 19.4404
38.8674 19.4126
38.9146 19.3283
38.9621 19.2512
39.0093 19.2243
39.0567 19.1035
39.104 19.1236
39.1514 19.0447
39.1987 19.033
39.2461 19.0031
39.2934 18.856
39.3409 18.7807
39.3882 18.6644
39.4356 18.6692
39.483 18.5778
39.5304 18.5696
39.5778 18.5338
39.6253 18.3794
39.6726 18.4253
39.7201 18.3571
39.7675 18.3331
39.815 18.2196
39.8624 18.0891
39.9099 18.1425
39.9575 17.9765
40.0049 17.9616
40.0525 17.9294
40.0999 17.8639
40.1474 17.8481
40.1949 17.7543
40.2425 17.688
40.2899 17.6475
40.3375 17.5871
40.385 17.4652
40.4326 17.4991
40.48 17.4065
40.5277 17.339
40.5752 17.2796
40.6228 17.2121
40.6703 17.1722
40.718 17.1287
40.7655 17.0694
40.8132 17.0105
40.8607 17.0202
40.9084 16.9212
40.9559 16.8422
41.0036 16.879
41.0512 16.8143
41.0989 16.6905
41.1465 16.6272
41.1942 16.6302
41.242 16.479
41.2896 16.4524
41.3373 16.4293
41.3849 16.3591
41.4327 16.3151
41.4803 16.2677
41.5281 16.1454
41.5758 16.1564
41.6236 16.0405
41.6712 15.9988
41.7191 15.9674
41.7667 15.9491
41.8146 15.9164
41.8622 15.8375
41.9101 15.7917
41.9578 15.7032
42.0057 15.6784
42.0534 15.6301
42.1013 15.6172
42.149 15.5203
42.1969 15.4619
42.2446 15.3481
42.2925 15.3401
42.3403 15.3209
42.3882 15.2844
42.436 15.197
42.4839 15.135
42.5319 15.0919
42.5797 15.0869
42.6277 14.9938
42.6755 14.9116
42.7235 14.8882
42.7713 14.8754
42.8193 14.7921
42.8671 14.698
42.9152 14.7047
42.963 14.6564
43.0111 14.6042
43.0589 14.5626
43.107 14.4996
43.1549 14.4509
43.2029 14.4063
43.2508 14.3717
43.2989 14.2902
43.3468 14.2253
43.3949 14.2273
43.4429 14.1706
43.491 14.1197
43.5389 14.0615
43.5871 14.0117
43.635 13.9602
43.6832 13.9334
43.7312 13.8472
43.7793 13.7988
43.8273 13.7783
43.8755 13.7125
43.9237 13.664
43.9717 13.6052
44.0199 13.5866
44.068 13.5097
44.1162 13.4763
44.1642 13.4429
44.2125 13.4059
44.2606 13.309
44.3088 13.2796
44.3569 13.2391
44.4052 13.2537
44.4533 13.1153
44.5016 13.0706
44.5497 13.0486
44.598 13.0236
44.6461 12.9779
44.6945 12.9283
44.7426 12.9069
44.791 12.8403
44.8391 12.7915
44.8875 12.7585
44.9357 12.6853
44.984 12.6584
45.0322 12.6172
45.0806 12.5454
45.1288 12.4873
45.1773 12.4593
45.2257 12.4462
45.2739 12.3672
45.3224 12.3387
45.3706 12.3426
45.4191 12.2196
45.4673 12.2719
45.5158 12.16
45.5641 12.0899
45.6126 12.0581
45.6609 12.0339
45.7094 11.9749
45.7577 11.9343
45.8063 11.8726
45.8546 11.8589
45.9031 11.8226
45.9515 11.7486
46.0001 11.7699
46.0484 11.7085
46.097 11.6825
46.1454 11.6253
46.194 11.5851
46.2424 11.4775
46.291 11.4724
46.3395 11.4057
46.3881 11.3958
46.4365 11.4094
46.4852 11.3101
46.5337 11.2888
46.5823 11.2708
46.631 11.2219
46.6795 11.1849
46.7282 11.1274
46.7767 11.1026
46.8254 11.0264
46.8739 10.9708
46.9226 10.9343
46.9712 10.8978
47.0199 10.8553
47.0685 10.8123
47.1173 10.7545
47.1658 10.7324
47.2146 10.7251
47.2632 10.683
47.312 10.6428
47.3606 10.5991
47.4095 10.5494
47.4581 10.5095
47.5069 10.4791
47.5556 10.4265
47.6044 10.3664
47.6531 10.351
47.702 10.2665
47.7507 10.2654
47.7996 10.2431
47.8483 10.1918
47.8972 10.1751
47.9461 10.1163
47.9948 10.1301
48.0438 10.0671
48.0925 10.0578
48.1415 9.96994
48.1902 9.91771
48.2392 9.95992
48.288 9.88741
48.337 9.82666
48.3858 9.79193
48.4348 9.80218
48.4837 9.73217
48.5327 9.72107
48.5815 9.69301
48.6306 9.67509
48.6795 9.63836
48.7285 9.55753
48.7774 9.52541
48.8265 9.49254
48.8754 9.42494
48.9245 9.43828
48.9734 9.36837
49.0226 9.37102
49.0715 9.32139
49.1206 9.26616
49.1696 9.22462
49.2188 9.20921
49.2679 9.20634
49.3169 9.12118
49.3661 9.06319
49.4151 9.09909
49.4643 9.06572
49.5134 8.99673
49.5626 8.93573
49.6117 8.94852
49.6609 8.91678
49.71 8.85035
49.7592 8.83799
49.8083 8.78795
49.8576 8.79634
49.9067 8.70649
49.956 8.71265
50.0052 8.62899
50.0545 8.60497
50.1036 8.59591
50.153 8.56111
50.2022 8.53596
50.2515 8.47958
50.3007 8.46474
50.3501 8.41061
50.3993 8.40529
50.4487 8.34268
50.498 8.33331
50.5474 8.31419
50.5966 8.25014
50.6461 8.22904
50.6955 8.21877
50.7448 8.17244
50.7943 8.17134
50.8436 8.07801
50.8931 8.02745
50.9424 8.04624
50.9919 8.01021
51.0413 7.96652
51.0908 7.93568
51.1402 7.94235
51.1897 7.88554
51.2391 7.87887
51.2887 7.82941
51.3381 7.76029
51.3877 7.77533
51.4371 7.73509
51.4867 7.70718
51.5362 7.61055
51.5858 7.62877
51.6353 7.56445
51.6849 7.53636
51.7344 7.53012
51.7841 7.51856
51.8336 7.48155
51.8833 7.4338
51.9328 7.42642
51.9826 7.38787
52.0323 7.38082
52.0818 7.31684
52.1316 7.26994
52.1812 7.23469
52.231 7.22832
52.2806 7.17278
52.3304 7.15901
52.38 7.17666
52.4298 7.11866
52.4794 7.10309
52.5293 7.03199
52.5789 7.00499
52.6288 6.99935
52.6785 6.96924
52.7284 6.93167
52.7781 6.92987
52.828 6.87318
52.8777 6.8351
52.9276 6.81296
52.9774 6.7425
53.0273 6.80002
53.0771 6.71018
53.1271 6.70737
53.1769 6.65269
53.2269 6.70201
53.2767 6.65034
53.3267 6.58571
53.3765 6.5873
53.4266 6.5639
53.4766 6.49929
53.5265 6.49393
53.5765 6.45107
53.6264 6.42561
53.6765 6.37422
53.7264 6.39562
53.7765 6.34134
53.8265 6.29764
53.8766 6.27415
53.9266 6.30163
53.9767 6.24296
54.0267 6.23777
54.0769 6.18885
54.1269 6.13814
54.1771 6.12998
54.2271 6.08815
54.2773 6.03935
54.3274 6.02507
54.3776 5.98259
54.4277 5.9737
54.478 5.89249
54.528 5.86394
54.5783 5.87503
54.6285 5.77574
54.6788 5.74416
54.7289 5.69865
54.7792 5.69284
54.8296 5.68065
54.8798 5.55124
54.9301 5.53156
54.9803 5.55246
55.0307 5.5155
55.0809 5.46396
55.1314 5.42073
55.1816 5.33914
55.232 5.30421
55.2823 5.30529
55.3328 5.19913
55.383 5.15055
55.4335 5.10196
55.4838 5.02452
55.5344 5.02458
55.5847 4.99092
55.6352 4.94209
55.6856 4.9568
55.7361 4.89066