File: XRD/Ni3Fe_FD0514.xy
TT I
1.27165 7.82037
1.31627 6.6084
1.36089 6.93408
1.40551 6.67308
1.45013 6.13193
1.49476 6.19431
1.53938 6.26362
1.584 5.02699
1.62863 5.16875
1.67325 5.17166
1.71787 5.38122
1.7625 5.4069
1.80712 4.61562
1.85174 4.69227
1.89636 4.83875
1.94099 4.67085
1.98562 4.78782
2.03025 4.84258
2.07487 4.40446
2.11949 5.02057
2.16411 5.3667
2.20874 15.4383
2.25338 25.452
2.298 6.6402
2.34263 5.68147
2.38725 5.66684
2.43188 5.82872
2.4765 6.73875
2.52115 6.69828
2.56577 6.50935
2.6104 8.1081
2.65503 7.08341
2.69965 8.18671
2.7443 7.96275
2.78893 7.91767
2.83356 8.79022
2.87818 8.69871
2.92281 8.99929
2.96744 9.80186
3.01209 10.8804
3.05672 11.1541
3.10135 11.9789
3.14599 12.865
3.19062 14.5795
3.23527 15.0912
3.2799 15.8317
3.32454 17.1599
3.36917 18.1926
3.4138 19.2665
3.45844 19.9891
3.50309 21.3265
3.54773 22.2371
3.59237 24.3281
3.637 101.298
3.68164 63.4346
3.7263 26.5695
3.77094 26.9952
3.81558 27.0523
3.86022 27.6491
3.90486 29.4541
3.9495 30.116
3.99416 31.1273
4.0388 32.4415
4.08344 34.298
4.12809 35.5944
4.17273 37.5473
4.21738 44.1572
4.26204 271.999
4.30669 235.246
4.35133 49.9085
4.39598 45.1694
4.44063 55.4334
4.4853 67.8974
4.52995 50.9687
4.5746 51.5348
4.61925 54.0155
4.6639 56.1911
4.70855 58.301
4.75322 61.5324
4.79788 64.4581
4.84253 68.1717
4.88719 72.2063
4.93184 75.9356
4.97652 81.6511
5.02118 87.8622
5.06583 95.8737
5.11049 107.89
5.15515 182.94
5.19981 388.002
5.24449 2922.45
5.28916 11889.3
5.33382 3238.42
5.37848 205.289
5.42315 133.622
5.46783 116.901
5.5125 108.257
5.55716 103.489
5.60183 100.026
5.6465 97.9973
5.69117 95.6867
5.73586 93.2884
5.78053 92.7806
5.8252 92.1588
5.86988 93.1938
5.91455 95.5149
5.95924 104.071
6.00392 214.727
6.0486 1008.51
6.09328 4080.38
6.13795 3438.75
6.18263 294.293
6.22733 97.2362
6.27201 85.6246
6.3167 106.526
6.36138 82.1479
6.40606 70.4901
6.45075 68.176
6.49545 66.3706
6.54014 64.6738
6.58483 64.0867
6.62952 63.8535
6.67421 98.7961
6.71892 153.766
6.76361 70.6306
6.8083 59.5169
6.853 57.9144
6.89769 57.9499
6.94239 57.3507
6.98711 56.538
7.03181 56.2865
7.07651 56.1549
7.12121 55.9449
7.16591 56.298
7.21063 56.2094
7.25533 72.8567
7.30004 193.411
7.34475 96.6859
7.38945 57.9655
7.43416 55.4072
7.47889 55.365
7.5236 55.5777
7.56831 56.2061
7.61303 58.3754
7.65774 58.4081
7.70247 56.7696
7.74719 56.6417
7.79191 57.3308
7.83663 57.8776
7.88135 58.8833
7.92607 59.5982
7.97081 60.7324
8.01553 61.5308
8.06026 62.9943
8.10498 64.8307
8.14971 75.0428
8.19446 74.0565
8.23919 70.5863
8.28392 72.4953
8.32865 74.7802
8.37339 79.3583
8.41812 86.8943
8.46288 118.512
8.50761 167.346
8.55235 394.714
8.59709 1135.78
8.64183 2136.73
8.68658 1070.88
8.73134 184.299
8.77609 101.845
8.82083 94.6275
8.86558 90.9188
8.91033 91.5989
8.9551 93.3461
8.99985 86.7288
9.04461 84.469
9.08936 83.8657
9.13412 82.6178
9.17888 83.148
9.22365 83.5212
9.26841 82.7863
9.31318 83.4992
9.35794 83.5346
9.4027 84.009
9.44749 84.8116
9.49226 85.5375
9.53703 86.7626
9.5818 88.3425
9.62657 93.2261
9.67134 100.318
9.71614 95.0062
9.76091 95.1772
9.80569 97.8195
9.85047 101.086
9.89525 127.074
9.94005 140.298
9.98484 179.786
10.0296 349.45
10.0744 786.913
10.1192 1636.97
10.164 1651.5
10.2088 449.76
10.2536 135.225
10.2984 116.348
10.3432 117.976
10.388 106.623
10.4328 119.827
10.4776 161.83
10.5224 278.161
10.5672 495.119
10.612 524.237
10.6568 227.548
10.7017 100.387
10.7465 88.255
10.7913 84.3935
10.8361 82.1515
10.8809 79.799
10.9257 79.5006
10.9706 80.4219
11.0154 75.9491
11.0602 73.8411
11.105 72.9325
11.1499 77.6275
11.1947 85.9271
11.2395 76.03
11.2844 71.6911
11.3292 68.3949
11.374 66.9343
11.4189 66.4021
11.4637 65.9828
11.5086 66.4301
11.5534 69.7807
11.5983 66.7553
11.6431 64.734
11.688 63.81
11.7328 63.8089
11.7777 63.7492
11.8225 63.4357
11.8674 63.1326
11.9122 63.7036
11.9571 63.6735
12.002 64.467
12.0468 68.5429
12.0917 80.6275
12.1366 104.0
12.1814 152.294
12.2263 206.032
12.2712 175.205
12.3161 102.743
12.3609 72.4282
12.4058 65.5453
12.4507 65.1602
12.4956 65.4603
12.5405 65.2052
12.5853 66.674
12.6302 75.3829
12.6751 81.159
12.72 71.2733
12.7649 68.6208
12.8098 69.4047
12.8547 70.6252
12.8996 71.7262
12.9445 72.9093
12.9894 74.7791
13.0343 76.4859
13.0792 79.6183
13.1242 89.2771
13.1691 113.871
13.214 150.653
13.2589 233.502
13.3038 356.109
13.3487 430.021
13.3937 284.633
13.4386 132.015
13.4835 107.582
13.5285 122.681
13.5734 159.215
13.6183 240.486
13.6633 332.921
13.7082 341.28
13.7531 201.283
13.7981 102.988
13.843 83.2197
13.888 80.8036
13.9329 77.8263
13.9779 76.815
14.0228 75.3287
14.0678 73.8962
14.1127 73.5296
14.1577 73.474
14.2027 72.5072
14.2476 71.2142
14.2926 71.6051
14.3376 72.9562
14.3825 71.1662
14.4275 69.7562
14.4725 69.4793
14.5175 69.6355
14.5624 69.9546
14.6074 72.3084
14.6524 72.9674
14.6974 71.2543
14.7424 72.9772
14.7874 79.4977
14.8324 90.1248
14.8774 111.344
14.9224 150.864
14.9674 200.276
15.0124 216.364
15.0574 155.27
15.1024 94.7596
15.1474 73.5921
15.1924 71.5468
15.2374 72.2266
15.2824 71.337
15.3274 69.2009
15.3725 67.7162
15.4175 67.2108
15.4625 66.9408
15.5076 67.1984
15.5526 66.9599
15.5976 66.614
15.6426 67.627
15.6877 73.0488
15.7327 80.7958
15.7778 95.2901
15.8228 124.775
15.8679 166.343
15.9129 192.218
15.958 161.446
16.003 103.076
16.0481 70.5819
16.0931 66.1755
16.1382 63.8356
16.1833 61.4428
16.2283 59.8312
16.2734 59.2871
16.3185 59.9262
16.3636 60.4199
16.4086 58.7027
16.4537 57.175
16.4988 56.2557
16.5439 56.3419
16.589 55.8861
16.6341 55.7555
16.6792 55.3201
16.7243 55.7932
16.7694 55.6743
16.8145 55.6893
16.8596 55.9854
16.9047 57.7558
16.9498 57.8979
16.9949 56.6095
17.04 56.493
17.0851 57.8219
17.1302 59.4064
17.1754 62.4558
17.2205 67.29
17.2656 74.0494
17.3108 82.0938
17.3559 82.5092
17.401 72.688
17.4462 63.2395
17.4913 59.8855
17.5365 59.8776
17.5815 60.0419
17.6268 60.2482
17.6718 61.2557
17.7171 61.8657
17.7622 62.0003
17.8074 62.3526
17.8525 65.1908
17.8977 69.1189
17.9428 74.5174
17.9881 82.934
18.0331 98.932
18.0784 119.031
18.1237 137.395
18.1688 134.07
18.214 107.617
18.2591 88.8688
18.3044 90.4217
18.3495 99.5272
18.3948 106.358
18.4399 99.7167
18.4852 80.6439
18.5303 67.5979
18.5756 63.2248
18.6207 62.0862
18.666 61.2004
18.7112 60.5044
18.7565 59.7592
18.8016 59.3353
18.8469 58.9462
18.892 58.567
18.9374 58.0157
18.9825 57.84
19.0278 57.8804
19.073 57.7332
19.1183 58.1516
19.1635 59.247
19.2088 60.2444
19.254 62.5487
19.2993 67.0049
19.3447 72.6973
19.3898 76.958
19.4352 73.7329
19.4804 65.1667
19.5257 57.9522
19.5709 54.9558
19.6163 54.5948
19.6615 54.3069
19.7068 54.0913
19.752 53.9626
19.7974 54.4431
19.8426 55.268
19.888 56.0207
19.9332 57.0972
19.9786 59.406
20.0238 62.6887
20.0692 67.23
20.1144 70.2235
20.1598 69.4018
20.205 64.7711
20.2504 62.8907
20.2957 64.0279
20.3411 66.0142
20.3863 64.9738
20.4318 59.7726
20.477 54.8505
20.5224 52.5642
20.5677 51.5722
20.6131 50.9348
20.6586 50.5222
20.7038 50.247
20.7493 49.7602
20.7945 49.7136
20.84 49.3953
20.8853 49.3106
20.9307 49.232
20.976 49.3767
21.0215 49.2845
21.0668 49.761
21.1122 50.0273
21.1575 50.6502
21.203 51.3749
21.2483 51.9176
21.2938 52.1372
21.3391 50.8696
21.3846 49.6483
21.4299 49.0297
21.4754 48.8606
21.5207 49.288
21.5662 49.2463
21.6116 49.7835
21.6571 50.5223
21.7024 51.4453
21.7479 53.1762
21.7933 55.8705
21.8388 59.04
21.8843 62.5963
21.9297 64.9204
21.9752 64.47
22.0206 60.9267
22.0661 57.4506
22.1115 56.5111
22.157 56.5516
22.2024 55.2507
22.248 52.3473
22.2933 50.6366
22.3389 49.8554
22.3843 49.582
22.4299 49.7914
22.4753 49.5775
22.5208 49.3181
22.5662 49.0863
22.6118 49.3316
22.6572 49.5
22.7028 49.7973
22.7483 50.1645
22.7939 50.9957
22.8393 52.4862
22.8849 54.4761
22.9303 56.2614
22.9759 58.1831
23.0214 58.1834
23.067 55.4794
23.1126 52.2486
23.1581 50.1022
23.2037 49.5259
23.2492 49.5851
23.2948 49.4695
23.3403 49.7129
23.3859 50.2107
23.4314 51.46
23.477 52.9199
23.5225 54.8718
23.5682 57.1792
23.6137 58.2708
23.6593 56.5893
23.7048 52.7884
23.7505 49.1495
23.796 47.3695
23.8417 46.6671
23.8872 46.1735
23.9329 45.9269
23.9784 45.4052
24.0241 45.2767
24.0697 45.017
24.1154 44.7877
24.1609 44.5487
24.2066 44.3177
24.2522 44.3288
24.2979 43.9704
24.3434 43.8183
24.3892 43.8375
24.4349 43.7397
24.4805 43.577
24.5262 43.6715
24.5718 43.5536
24.6175 43.4788
24.6631 43.305
24.7089 43.2201
24.7545 43.0422
24.8002 42.7682
24.8458 42.7568
24.8916 42.5901
24.9372 42.7658
24.983 43.0721
25.0286 43.3598
25.0744 43.781
25.12 44.2154
25.1658 44.7417
25.2114 45.2188
25.2572 45.347
25.3029 45.3174
25.3487 45.2652
25.3943 45.1049
25.4402 44.3164
25.4858 43.1484
25.5316 42.0511
25.5773 41.5352
25.6231 41.5973
25.669 41.068
25.7147 41.0663
25.7605 41.0025
25.8062 41.1596
25.8521 41.1916
25.8977 41.0586
25.9436 41.325
25.9893 41.5059
26.0352 41.8783
26.0809 41.9807
26.1268 42.2152
26.1725 41.8394
26.2184 41.2768
26.2641 40.9379
26.31 40.7064
26.3557 40.6093
26.4017 40.5992
26.4474 40.9218
26.4933 41.1039
26.5391 41.7674
26.585 42.233
26.6308 42.5235
26.6767 42.5845
26.7225 42.621
26.7684 41.8821
26.8142 41.4325
26.8601 41.0483
26.9059 40.5744
26.9519 40.1174
26.9979 39.7996
27.0437 39.3854
27.0896 39.3171
27.1354 39.1868
27.1814 39.1055
27.2272 39.1282
27.2732 38.9698
27.3191 38.8051
27.3651 38.7694
27.4109 38.9998
27.4569 39.0697
27.5027 38.954
27.5488 38.9784
27.5946 38.7986
27.6407 38.5345
27.6865 38.5665
27.7326 38.3357
27.7784 38.4119
27.8245 38.2012
27.8703 38.4165
27.9164 38.7491
27.9623 38.8387
28.0084 39.2287
28.0543 39.4474
28.1003 39.5836
28.1462 39.3623
28.1923 38.9288
28.2384 38.4323
28.2843 38.1039
28.3304 37.8077
28.3764 37.2149
28.4225 36.8938
28.4684 36.7381
28.5145 36.4508
28.5605 36.3662
28.6066 36.1416
28.6526 36.0985
28.6987 36.0252
28.7447 35.917
28.7908 35.9364
28.8368 36.0272
28.8829 35.8497
28.9289 35.7729
28.9751 35.5992
29.0211 35.4707
29.0673 35.1478
29.1133 35.0538
29.1595 34.7645
29.2055 34.8631
29.2517 34.7757
29.2977 34.6598
29.3439 34.6142
29.3899 34.5759
29.4361 34.7181
29.4824 34.3637
29.5284 34.1467
29.5746 33.8096
29.6207 33.6709
29.6669 33.4703
29.713 33.4296
29.7593 33.3921
29.8053 33.4149
29.8516 33.1551
29.8977 33.237
29.9439 33.0631
29.99 33.0555
30.0363 32.7862
30.0824 32.9077
30.1287 32.8982
30.1748 32.7971
30.2211 32.8634
30.2673 32.7669
30.3136 32.8831
30.3597 32.6775
30.406 32.6148
30.4522 32.4464
30.4985 32.4157
30.5447 32.5299
30.591 32.466
30.6372 32.5357
30.6835 32.5684
30.7297 32.6538
30.7761 32.5516
30.8224 32.4233
30.8686 32.2329
30.915 31.9267
30.9612 32.0226
31.0076 31.7154
31.0538 31.5452
31.1002 31.4793
31.1464 31.3662
31.1928 31.4132
31.2391 31.3319
31.2855 31.2644
31.3317 31.2545
31.3781 31.3713
31.4244 31.2969
31.4708 31.3046
31.5171 31.1618
31.5636 31.1747
31.6098 30.9616
31.6563 30.7812
31.7026 30.7065
31.7491 30.5121
31.7953 30.4803
31.8418 30.541
31.8881 30.5101
31.9346 30.4649
31.9809 30.4857
32.0275 30.3377
32.074 30.3258
32.1203 30.0575
32.1668 30.006
32.2132 29.8046
32.2597 29.6655
32.306 29.575
32.3526 29.321
32.399 29.2209
32.4455 29.197
32.4919 29.1128
32.5385 29.0552
32.5848 28.7968
32.6314 28.8766
32.6778 28.7641
32.7244 28.6426
32.7708 28.51
32.8174 28.619
32.8638 28.3597
32.9104 28.4244
32.9569 28.3942
33.0035 28.232
33.0499 28.1546
33.0966 28.1792
33.143 28.1406
33.1897 28.1097
33.2361 27.9442
33.2828 27.9191
33.3293 27.7178
33.3759 27.7294
33.4226 27.5757
33.4691 27.4653
33.5158 27.4182
33.5623 27.3065
33.609 27.0469
33.6555 27.0186
33.7022 26.9081
33.7487 26.8535
33.7954 26.8877
33.842 26.7534
33.8887 26.6855
33.9353 26.6212
33.982 26.4189
34.0286 26.4801
34.0753 26.3783
34.1219 26.2113
34.1687 26.1336
34.2152 26.1371
34.262 25.9202
34.3086 25.9556
34.3554 25.8822
34.402 25.7217
34.4488 25.7143
34.4954 25.6593
34.5422 25.4487
34.5889 25.3789
34.6357 25.3345
34.6825 25.2054
34.7292 25.1614
34.776 25.109
34.8227 24.9955
34.8695 24.9234
34.9162 24.8484
34.9631 24.8484
35.0098 24.7999
35.0566 24.6447
35.1033 24.6121
35.1502 24.5958
35.1969 24.5625
35.2438 24.514
35.2906 24.3631
35.3375 24.3462
35.3842 24.3967
35.4311 24.3129
35.4779 24.1446
35.5248 24.1833
35.5716 24.0549
35.6185 24.0105
35.6653 23.9074
35.7123 23.9086
35.759 23.7547
35.806 23.596
35.8528 23.4768
35.8998 23.5387
35.9468 23.3687
35.9936 23.3742
36.0406 23.3268
36.0874 23.2568
36.1345 23.2265
36.1813 23.161
36.2283 22.9972
36.2752 22.9656
36.3222 22.9527
36.3691 22.8522
36.4161 22.6302
36.463 22.657
36.5101 22.6944
36.557 22.6265
36.6041 22.5184
36.651 22.5284
36.6981 22.334
36.745 22.3459
36.7921 22.2959
36.839 22.0923
36.8861 22.0484
36.9331 21.9825
36.9802 21.9245
37.0272 21.8756
37.0743 21.7421
37.1213 21.7071
37.1684 21.6654
37.2154 21.6554
37.2626 21.5223
37.3098 21.505
37.3568 21.4199
37.404 21.3532
37.451 21.2463
37.4982 21.2432
37.5452 21.1741
37.5924 21.102
37.6395 21.0859
37.6867 21.0071
37.7337 20.8266
37.781 20.7828
37.8281 20.7986
37.8753 20.6593
37.9224 20.6743
37.9697 20.5311
38.0168 20.5205
38.064 20.4415
38.1111 20.393
38.1584 20.2611
38.2056 20.1929
38.2529 20.1802
38.3 20.1176
38.3473 20.034
38.3945 19.9288
38.4418 19.946
38.489 19.8138
38.5363 19.7986
38.5837 19.6926
38.6309 19.6326
38.6782 19.5854
38.7254 19.4948
38.7728 19.5056
38.82 19.358
38.8674 19.306
38.9146 19.2899
38.9621 19.2674
39.0093 19.2157
39.0567 19.1044
39.104 19.0594
39.1514 18.9324
39.1987 18.9347
39.2461 18.9034
39.2934 18.8954
39.3409 18.7057
39.3882 18.6708
39.4356 18.6675
39.483 18.5722
39.5304 18.4895
39.5778 18.4504
39.6253 18.3695
39.6726 18.2986
39.7201 18.322
39.7675 18.2208
39.815 18.159
39.8624 18.0987
39.9099 18.1065
39.9575 17.9789
40.0049 17.8953
40.0525 17.9037
40.0999 17.8263
40.1474 17.7521
40.1949 17.7242
40.2425 17.5903
40.2899 17.5987
40.3375 17.5492
40.385 17.472
40.4326 17.4008
40.48 17.3466
40.5277 17.3712
40.5752 17.3126
40.6228 17.1706
40.6703 17.1261
40.718 17.0471
40.7655 17.0497
40.8132 16.9794
40.8607 17.008
40.9084 16.9136
40.9559 16.8412
41.0036 16.8358
41.0512 16.7186
41.0989 16.6732
41.1465 16.5885
41.1942 16.5635
41.242 16.4531
41.2896 16.4113
41.3373 16.3753
41.3849 16.3209
41.4327 16.3008
41.4803 16.1877
41.5281 16.1352
41.5758 16.1249
41.6236 16.0251
41.6712 16.0001
41.7191 15.9389
41.7667 15.9022
41.8146 15.8131
41.8622 15.7821
41.9101 15.7476
41.9578 15.6683
42.0057 15.6312
42.0534 15.5411
42.1013 15.523
42.149 15.4953
42.1969 15.3932
42.2446 15.3865
42.2925 15.2972
42.3403 15.2535
42.3882 15.2289
42.436 15.2123
42.4839 15.0673
42.5319 15.0697
42.5797 15.0228
42.6277 14.9772
42.6755 14.9301
42.7235 14.845
42.7713 14.7939
42.8193 14.7758
42.8671 14.703
42.9152 14.6237
42.963 14.5994
43.0111 14.5593
43.0589 14.5049
43.107 14.463
43.1549 14.4005
43.2029 14.3342
43.2508 14.3004
43.2989 14.2507
43.3468 14.2523
43.3949 14.1224
43.4429 14.0955
43.491 14.0848
43.5389 14.0621
43.5871 14.0052
43.635 13.9699
43.6832 13.9155
43.7312 13.7464
43.7793 13.7502
43.8273 13.7429
43.8755 13.6609
43.9237 13.6823
43.9717 13.5754
44.0199 13.5553
44.068 13.4786
44.1162 13.4437
44.1642 13.4156
44.2125 13.3954
44.2606 13.2638
44.3088 13.2233
44.3569 13.2449
44.4052 13.1885
44.4533 13.1017
44.5016 13.0255
44.5497 13.0254
44.598 12.9566
44.6461 12.9495
44.6945 12.8981
44.7426 12.89
44.791 12.7912
44.8391 12.7516
44.8875 12.6973
44.9357 12.6464
44.984 12.6174
45.0322 12.6252
45.0806 12.5122
45.1288 12.4767
45.1773 12.4583
45.2257 12.423
45.2739 12.3933
45.3224 12.3163
45.3706 12.2723
45.4191 12.2123
45.4673 12.193
45.5158 12.1411
45.5641 12.0971
45.6126 12.0944
45.6609 12.0135
45.7094 11.9994
45.7577 11.9318
45.8063 11.877
45.8546 11.8519
45.9031 11.8103
45.9515 11.7657
46.0001 11.7292
46.0484 11.6901
46.097 11.6584
46.1454 11.5996
46.194 11.5794
46.2424 11.4961
46.291 11.4851
46.3395 11.4257
46.3881 11.38
46.4365 11.3591
46.4852 11.2737
46.5337 11.2253
46.5823 11.2299
46.631 11.15
46.6795 11.1572
46.7282 11.1034
46.7767 11.0457
46.8254 10.9851
46.8739 10.9806
46.9226 10.9313
46.9712 10.9095
47.0199 10.8729
47.0685 10.8364
47.1173 10.7559
47.1658 10.7129
47.2146 10.7188
47.2632 10.6355
47.312 10.6387
47.3606 10.5569
47.4095 10.5672
47.4581 10.5154
47.5069 10.4351
47.5556 10.4126
47.6044 10.3944
47.6531 10.3222
47.702 10.251
47.7507 10.2575
47.7996 10.21
47.8483 10.2188
47.8972 10.1805
47.9461 10.1103
47.9948 10.0911
48.0438 10.0616
48.0925 10.0063
48.1415 10.0153
48.1902 9.94379
48.2392 9.91701
48.288 9.88183
48.337 9.8242
48.3858 9.78439
48.4348 9.78737
48.4837 9.76749
48.5327 9.66624
48.5815 9.6797
48.6306 9.62391
48.6795 9.60398
48.7285 9.58745
48.7774 9.53264
48.8265 9.49572
48.8754 9.42628
48.9245 9.43806
48.9734 9.3715
49.0226 9.38118
49.0715 9.31656
49.1206 9.28097
49.1696 9.23054
49.2188 9.20458
49.2679 9.155
49.3169 9.11867
49.3661 9.08006
49.4151 9.06606
49.4643 9.02087
49.5134 9.00414
49.5626 8.92506
49.6117 8.92349
49.6609 8.86092
49.71 8.8291
49.7592 8.80335
49.8083 8.82939
49.8576 8.76762
49.9067 8.71285
49.956 8.66802
50.0052 8.6553
50.0545 8.60419
50.1036 8.56078
50.153 8.54373
50.2022 8.52004
50.2515 8.44877
50.3007 8.41643
50.3501 8.41002
50.3993 8.38135
50.4487 8.36266
50.498 8.31818
50.5474 8.28042
50.5966 8.26085
50.6461 8.22473
50.6955 8.19508
50.7448 8.15463
50.7943 8.13934
50.8436 8.10221
50.8931 8.07612
50.9424 8.0245
50.9919 7.99554
51.0413 7.96265
51.0908 7.91894
51.1402 7.91428
51.1897 7.90581
51.2391 7.87834
51.2887 7.84591
51.3381 7.74649
51.3877 7.76836
51.4371 7.68837
51.4867 7.65767
51.5362 7.64667
51.5858 7.63395
51.6353 7.58927
51.6849 7.53617
51.7344 7.51741
51.7841 7.54974
51.8336 7.45312
51.8833 7.41479
51.9328 7.40572
51.9826 7.37051
52.0323 7.3461
52.0818 7.30703
52.1316 7.2697
52.1812 7.23818
52.231 7.20527
52.2806 7.21216
52.3304 7.17582
52.38 7.12032
52.4298 7.10364
52.4794 7.10885
52.5293 7.05082
52.5789 7.00144
52.6288 6.95511
52.6785 6.9462
52.7284 6.92319
52.7781 6.94683
52.828 6.89566
52.8777 6.83789
52.9276 6.79994
52.9774 6.7649
53.0273 6.77178
53.0771 6.7228
53.1271 6.71466
53.1769 6.6863
53.2269 6.6324
53.2767 6.59822
53.3267 6.58852
53.3765 6.56118
53.4266 6.52482
53.4766 6.50906
53.5265 6.45113
53.5765 6.45423
53.6264 6.4062
53.6765 6.36399
53.7264 6.39101
53.7765 6.35349
53.8265 6.32128
53.8766 6.24962
53.9266 6.26207
53.9767 6.23347
54.0267 6.21823
54.0769 6.18147
54.1269 6.16812
54.1771 6.10237
54.2271 6.06283
54.2773 6.02532
54.3274 6.02052
54.3776 5.98467
54.4277 5.93545
54.478 5.95159
54.528 5.94609
54.5783 5.78275
54.6285 5.81536
54.6788 5.73188
54.7289 5.71586
54.7792 5.65427
54.8296 5.64774
54.8798 5.62822
54.9301 5.54426
54.9803 5.53077
55.0307 5.51604
55.0809 5.50009
55.1314 5.47326
55.1816 5.29768
55.232 5.31479
55.2823 5.25404
55.3328 5.23146
55.383 5.16823
55.4335 5.09683
55.4838 5.0577
55.5344 5.04634
55.5847 4.99235
55.6352 4.92256
55.6856 4.89519
55.7361 4.90584