File: XRD/Ni3Fe_FD1076.xy
TT I
1.27165 6.60753
1.31627 6.59924
1.36089 5.58716
1.40551 5.87959
1.45013 5.65959
1.49476 5.2675
1.53938 5.4821
1.584 4.96751
1.62863 5.38213
1.67325 4.9369
1.71787 4.56379
1.7625 4.5659
1.80712 4.57145
1.85174 4.09989
1.89636 4.21098
1.94099 4.41565
1.98562 4.13641
2.03025 4.07512
2.07487 4.40078
2.11949 4.10502
2.16411 4.11851
2.20874 5.21092
2.25338 6.77241
2.298 5.31975
2.34263 5.34191
2.38725 5.44739
2.43188 6.09033
2.4765 6.71514
2.52115 7.07007
2.56577 7.94889
2.6104 9.00997
2.65503 7.73509
2.69965 8.25837
2.7443 8.50588
2.78893 7.87079
2.83356 8.08649
2.87818 9.0065
2.92281 9.02513
2.96744 9.71234
3.01209 9.87965
3.05672 10.6742
3.10135 12.1745
3.14599 12.9134
3.19062 13.7365
3.23527 14.7133
3.2799 14.8949
3.32454 15.7933
3.36917 17.0179
3.4138 18.1476
3.45844 18.7482
3.50309 19.427
3.54773 20.1931
3.59237 21.2496
3.637 27.6446
3.68164 27.0449
3.7263 24.1288
3.77094 24.3503
3.81558 25.7281
3.86022 26.0277
3.90486 27.4287
3.9495 28.3284
3.99416 29.3133
4.0388 30.2773
4.08344 31.3182
4.12809 32.0328
4.17273 33.9753
4.21738 35.0246
4.26204 51.7314
4.30669 56.3722
4.35133 40.4233
4.39598 41.0167
4.44063 43.2363
4.4853 46.0212
4.52995 46.5408
4.5746 48.1128
4.61925 50.7968
4.6639 52.439
4.70855 55.1812
4.75322 57.7656
4.79788 61.1139
4.84253 63.983
4.88719 68.1854
4.93184 71.4016
4.97652 76.7107
5.02118 82.8083
5.06583 89.5849
5.11049 97.8161
5.15515 118.325
5.19981 230.508
5.24449 2522.3
5.28916 13703.0
5.33382 3341.14
5.37848 205.384
5.42315 123.725
5.46783 108.195
5.5125 100.989
5.55716 97.9912
5.60183 92.7906
5.6465 91.4161
5.69117 89.3666
5.73586 87.8304
5.78053 87.1253
5.8252 86.4497
5.86988 87.3195
5.91455 88.671
5.95924 94.8648
6.00392 164.294
6.0486 889.722
6.09328 4497.57
6.13795 3679.23
6.18263 240.851
6.22733 87.4382
6.27201 75.4742
6.3167 73.0187
6.36138 68.7336
6.40606 64.5851
6.45075 63.3255
6.49545 61.7867
6.54014 60.1976
6.58483 59.524
6.62952 57.7607
6.67421 58.7722
6.71892 64.2508
6.76361 56.7442
6.8083 54.6081
6.853 53.9147
6.89769 53.382
6.94239 52.9743
6.98711 52.4838
7.03181 51.8935
7.07651 52.1009
7.12121 51.8976
7.16591 51.8564
7.21063 50.9239
7.25533 51.6344
7.30004 61.9587
7.34475 55.8222
7.38945 51.8408
7.43416 50.9017
7.47889 51.617
7.5236 57.9714
7.56831 70.8257
7.61303 56.1233
7.65774 52.6722
7.70247 53.0637
7.74719 52.923
7.79191 53.7222
7.83663 53.9602
7.88135 54.8517
7.92607 55.7212
7.97081 57.0349
8.01553 57.8491
8.06026 58.7902
8.10498 60.4823
8.14971 62.295
8.19446 64.2478
8.23919 65.3647
8.28392 68.6865
8.32865 70.562
8.37339 74.076
8.41812 77.9786
8.46288 86.3116
8.50761 128.328
8.55235 380.491
8.59709 1112.2
8.64183 2283.57
8.68658 1098.49
8.73134 171.504
8.77609 94.9576
8.82083 88.1849
8.86558 85.9482
8.91033 83.8043
8.9551 82.283
8.99985 80.9709
9.04461 79.9357
9.08936 79.6993
9.13412 78.5305
9.17888 79.6765
9.22365 90.0309
9.26841 110.684
9.31318 88.2489
9.35794 80.074
9.4027 79.7464
9.44749 80.3126
9.49226 80.8423
9.53703 81.9516
9.5818 83.827
9.62657 84.2943
9.67134 86.376
9.71614 87.6104
9.76091 89.3316
9.80569 91.6187
9.85047 94.0662
9.89525 99.0635
9.94005 105.999
9.98484 147.284
10.0296 351.703
10.0744 778.321
10.1192 1760.46
10.164 1715.64
10.2088 448.031
10.2536 124.802
10.2984 103.19
10.3432 100.8
10.388 98.0174
10.4328 108.205
10.4776 163.131
10.5224 273.836
10.5672 513.73
10.612 567.811
10.6568 231.385
10.7017 102.96
10.7465 86.2135
10.7913 79.9715
10.8361 77.8636
10.8809 75.5843
10.9257 73.5566
10.9706 72.5115
11.0154 70.6357
11.0602 69.6582
11.105 68.3839
11.1499 66.8826
11.1947 67.3548
11.2395 65.6352
11.2844 64.8995
11.3292 64.0446
11.374 63.1421
11.4189 62.5117
11.4637 61.809
11.5086 61.4256
11.5534 61.1868
11.5983 60.9378
11.6431 60.54
11.688 60.3603
11.7328 59.92
11.7777 59.9732
11.8225 59.8963
11.8674 59.9403
11.9122 61.9194
11.9571 67.4802
12.002 66.1152
12.0468 64.296
12.0917 77.0983
12.1366 99.5253
12.1814 147.031
12.2263 202.84
12.2712 174.944
12.3161 96.1429
12.3609 64.5137
12.4058 61.4125
12.4507 61.2778
12.4956 61.3062
12.5405 61.5239
12.5853 61.9028
12.6302 62.7117
12.6751 64.264
12.72 64.0514
12.7649 64.7422
12.8098 65.3215
12.8547 66.6773
12.8996 67.7409
12.9445 69.3654
12.9894 70.7659
13.0343 72.9565
13.0792 76.4684
13.1242 82.4347
13.1691 108.21
13.214 149.556
13.2589 230.514
13.3038 370.289
13.3487 451.021
13.3937 279.471
13.4386 126.062
13.4835 99.1171
13.5285 120.379
13.5734 157.267
13.6183 237.221
13.6633 356.688
13.7082 361.799
13.7531 205.509
13.7981 100.212
13.843 79.5215
13.888 76.6948
13.9329 74.3532
13.9779 73.4186
14.0228 71.9762
14.0678 70.8596
14.1127 71.7508
14.1577 75.0152
14.2027 73.0227
14.2476 68.9008
14.2926 67.6221
14.3376 67.3736
14.3825 66.749
14.4275 66.3698
14.4725 66.2093
14.5175 66.5439
14.5624 66.2463
14.6074 66.9843
14.6524 67.155
14.6974 67.5662
14.7424 68.9253
14.7874 74.3505
14.8324 89.406
14.8774 110.664
14.9224 148.959
14.9674 209.168
15.0124 228.296
15.0574 158.691
15.1024 93.6986
15.1474 70.9865
15.1924 68.2783
15.2374 66.76
15.2824 65.9803
15.3274 65.0502
15.3725 64.2956
15.4175 64.1279
15.4625 63.7003
15.5076 63.5696
15.5526 63.595
15.5976 63.5598
15.6426 64.0354
15.6877 68.6386
15.7327 79.8708
15.7778 95.3233
15.8228 123.543
15.8679 169.656
15.9129 202.159
15.958 169.201
16.003 104.694
16.0481 69.5484
16.0931 62.4416
16.1382 59.7756
16.1833 58.331
16.2283 57.0057
16.2734 56.4295
16.3185 55.6563
16.3636 55.1065
16.4086 54.5392
16.4537 53.9862
16.4988 53.4881
16.5439 53.4061
16.589 53.1093
16.6341 53.014
16.6792 52.6274
16.7243 52.8304
16.7694 52.9
16.8145 52.7819
16.8596 52.9885
16.9047 53.5708
16.9498 54.3362
16.9949 54.1727
17.04 54.0223
17.0851 54.7672
17.1302 57.0581
17.1754 60.3205
17.2205 65.1331
17.2656 72.6163
17.3108 82.1132
17.3559 82.706
17.401 72.1866
17.4462 61.2345
17.4913 57.5386
17.5365 57.3008
17.5815 57.3955
17.6268 57.6841
17.6718 58.3194
17.7171 58.9496
17.7622 60.091
17.8074 60.673
17.8525 61.8102
17.8977 66.6755
17.9428 73.5947
17.9881 82.5427
18.0331 97.8747
18.0784 120.999
18.1237 142.119
18.1688 137.858
18.214 109.109
18.2591 88.5009
18.3044 89.0697
18.3495 99.3731
18.3948 107.212
18.4399 98.3199
18.4852 78.9828
18.5303 65.5694
18.5756 61.4597
18.6207 60.1376
18.666 59.0631
18.7112 58.1286
18.7565 57.6233
18.8016 57.1186
18.8469 56.4437
18.892 56.2786
18.9374 55.5909
18.9825 55.3198
19.0278 55.0831
19.073 55.1061
19.1183 55.3346
19.1635 56.3576
19.2088 58.2722
19.254 60.8726
19.2993 65.7357
19.3447 72.0284
19.3898 76.0038
19.4352 72.1702
19.4804 63.375
19.5257 56.1782
19.5709 53.0357
19.6163 52.467
19.6615 52.2876
19.7068 51.7329
19.752 51.8634
19.7974 51.8708
19.8426 52.6774
19.888 53.6311
19.9332 55.3683
19.9786 57.5729
20.0238 61.0021
20.0692 66.62
20.1144 70.6439
20.1598 69.2291
20.205 64.1357
20.2504 61.8675
20.2957 63.6735
20.3411 65.4463
20.3863 63.9256
20.4318 58.3537
20.477 52.8214
20.5224 50.0988
20.5677 49.4241
20.6131 48.8237
20.6586 48.4998
20.7038 48.3589
20.7493 47.9692
20.7945 47.9796
20.84 47.8418
20.8853 47.536
20.9307 47.2931
20.976 47.4092
21.0215 47.4032
21.0668 47.7638
21.1122 48.378
21.1575 48.7425
21.203 49.7239
21.2483 50.4602
21.2938 50.7469
21.3391 49.2026
21.3846 47.9653
21.4299 47.3595
21.4754 47.3467
21.5207 47.5563
21.5662 47.7009
21.6116 47.9288
21.6571 48.9136
21.7024 50.1601
21.7479 52.0571
21.7933 54.243
21.8388 58.2909
21.8843 62.9232
21.9297 65.2992
21.9752 64.0154
22.0206 59.7751
22.0661 56.3798
22.1115 55.9699
22.157 55.9609
22.2024 54.4289
22.248 51.1841
22.2933 49.0438
22.3389 48.222
22.3843 47.6854
22.4299 47.4451
22.4753 47.5816
22.5208 47.3906
22.5662 47.4571
22.6118 47.5473
22.6572 47.777
22.7028 48.2709
22.7483 49.0744
22.7939 49.7922
22.8393 51.3505
22.8849 53.4238
22.9303 55.734
22.9759 57.6015
23.0214 57.4033
23.067 54.728
23.1126 50.9216
23.1581 48.6899
23.2037 47.7791
23.2492 47.856
23.2948 47.8437
23.3403 48.5389
23.3859 49.338
23.4314 50.5959
23.477 52.3071
23.5225 54.6185
23.5682 57.09
23.6137 58.5276
23.6593 56.5054
23.7048 52.053
23.7505 48.2482
23.796 46.0124
23.8417 45.2246
23.8872 44.687
23.9329 44.3433
23.9784 44.0221
24.0241 43.6793
24.0697 43.5249
24.1154 43.2019
24.1609 42.9953
24.2066 42.8491
24.2522 42.7333
24.2979 42.4871
24.3434 42.1603
24.3892 42.2561
24.4349 41.9994
24.4805 42.0103
24.5262 42.1031
24.5718 41.9994
24.6175 42.1335
24.6631 42.0559
24.7089 41.6758
24.7545 41.48
24.8002 41.18
24.8458 41.3473
24.8916 41.2953
24.9372 41.4036
24.983 41.7383
25.0286 42.0136
25.0744 42.5326
25.12 43.1807
25.1658 43.9301
25.2114 44.3403
25.2572 44.3706
25.3029 44.5374
25.3487 44.7286
25.3943 44.4316
25.4402 43.3514
25.4858 42.1052
25.5316 40.9162
25.5773 40.0364
25.6231 40.2858
25.669 39.801
25.7147 39.7436
25.7605 39.5873
25.8062 39.8825
25.8521 39.9054
25.8977 39.9648
25.9436 40.0641
25.9893 40.478
26.0352 40.7735
26.0809 40.9536
26.1268 41.4003
26.1725 41.0474
26.2184 40.3088
26.2641 39.7238
26.31 39.522
26.3557 39.5528
26.4017 39.5437
26.4474 39.7897
26.4933 40.152
26.5391 40.7085
26.585 41.1839
26.6308 41.797
26.6767 41.9389
26.7225 41.9561
26.7684 41.3116
26.8142 40.6572
26.8601 39.9751
26.9059 39.6527
26.9519 39.0267
26.9979 38.5975
27.0437 38.2358
27.0896 38.0929
27.1354 38.1155
27.1814 37.9899
27.2272 37.8712
27.2732 37.981
27.3191 37.8017
27.3651 37.7929
27.4109 37.8021
27.4569 38.0489
27.5027 38.069
27.5488 38.1608
27.5946 37.8769
27.6407 37.7522
27.6865 37.5871
27.7326 37.4547
27.7784 37.3093
27.8245 37.319
27.8703 37.4459
27.9164 37.76
27.9623 38.1165
28.0084 38.4403
28.0543 38.8324
28.1003 38.9427
28.1462 38.5632
28.1923 38.2892
28.2384 37.8027
28.2843 37.3545
28.3304 36.9089
28.3764 36.3958
28.4225 35.9095
28.4684 35.6408
28.5145 35.5301
28.5605 35.3145
28.6066 35.1364
28.6526 35.0802
28.6987 35.0603
28.7447 34.8289
28.7908 34.8721
28.8368 34.8053
28.8829 34.8881
28.9289 34.9114
28.9751 34.5736
29.0211 34.3363
29.0673 34.178
29.1133 34.0558
29.1595 33.8821
29.2055 33.7284
29.2517 33.6842
29.2977 33.6828
29.3439 33.7396
29.3899 33.8298
29.4361 33.7061
29.4824 33.4855
29.5284 33.3258
29.5746 32.8957
29.6207 32.6059
29.6669 32.4839
29.713 32.3956
29.7593 32.3716
29.8053 32.3568
29.8516 32.2561
29.8977 32.1065
29.9439 32.047
29.99 32.0767
30.0363 31.9992
30.0824 32.1212
30.1287 31.8334
30.1748 31.9201
30.2211 31.9413
30.2673 31.7835
30.3136 31.8796
30.3597 31.6776
30.406 31.7493
30.4522 31.6548
30.4985 31.5405
30.5447 31.7402
30.591 31.6693
30.6372 31.8026
30.6835 31.717
30.7297 31.8717
30.7761 31.8724
30.8224 31.6534
30.8686 31.5284
30.915 31.2851
30.9612 31.1202
31.0076 30.9898
31.0538 30.8101
31.1002 30.7089
31.1464 30.5659
31.1928 30.5014
31.2391 30.5148
31.2855 30.3967
31.3317 30.4719
31.3781 30.4994
31.4244 30.5353
31.4708 30.4567
31.5171 30.5362
31.5636 30.4751
31.6098 30.1523
31.6563 30.0806
31.7026 29.9477
31.7491 29.7431
31.7953 29.7834
31.8418 29.6543
31.8881 29.7446
31.9346 29.683
31.9809 29.649
32.0275 29.5678
32.074 29.4894
32.1203 29.3483
32.1668 29.262
32.2132 28.9908
32.2597 28.8784
32.306 28.8122
32.3526 28.5407
32.399 28.4699
32.4455 28.4312
32.4919 28.2277
32.5385 28.2152
32.5848 28.0726
32.6314 28.073
32.6778 28.0307
32.7244 27.9025
32.7708 27.7569
32.8174 27.7366
32.8638 27.547
32.9104 27.73
32.9569 27.6112
33.0035 27.4558
33.0499 27.534
33.0966 27.3766
33.143 27.4443
33.1897 27.3664
33.2361 27.3049
33.2828 27.3303
33.3293 27.1243
33.3759 27.0341
33.4226 26.8715
33.4691 26.7542
33.5158 26.621
33.5623 26.486
33.609 26.4007
33.6555 26.2686
33.7022 26.2377
33.7487 26.1169
33.7954 26.1008
33.842 26.0831
33.8887 25.9198
33.9353 25.9005
33.982 25.8665
34.0286 25.6557
34.0753 25.5968
34.1219 25.4451
34.1687 25.4291
34.2152 25.4369
34.262 25.2548
34.3086 25.1764
34.3554 25.1056
34.402 24.9925
34.4488 24.9329
34.4954 24.9266
34.5422 24.7626
34.5889 24.6663
34.6357 24.6072
34.6825 24.5175
34.7292 24.4877
34.776 24.3865
34.8227 24.3726
34.8695 24.3085
34.9162 24.2868
34.9631 24.1992
35.0098 24.1312
35.0566 24.0263
35.1033 23.9476
35.1502 24.0172
35.1969 23.8504
35.2438 23.8239
35.2906 23.8178
35.3375 23.7286
35.3842 23.6309
35.4311 23.7498
35.4779 23.655
35.5248 23.5364
35.5716 23.4739
35.6185 23.3526
35.6653 23.3448
35.7123 23.2426
35.759 23.1199
35.806 23.056
35.8528 22.9311
35.8998 22.9354
35.9468 22.8439
35.9936 22.8042
36.0406 22.6841
36.0874 22.7773
36.1345 22.6473
36.1813 22.481
36.2283 22.399
36.2752 22.3651
36.3222 22.3936
36.3691 22.2874
36.4161 22.2113
36.463 22.176
36.5101 22.1837
36.557 22.0627
36.6041 21.9376
36.651 21.9039
36.6981 21.8028
36.745 21.8075
36.7921 21.707
36.839 21.5525
36.8861 21.5512
36.9331 21.4703
36.9802 21.4113
37.0272 21.2988
37.0743 21.2361
37.1213 21.2176
37.1684 21.1471
37.2154 21.0586
37.2626 20.9709
37.3098 20.9051
37.3568 20.8766
37.404 20.7703
37.451 20.7204
37.4982 20.6988
37.5452 20.5158
37.5924 20.495
37.6395 20.5333
37.6867 20.4129
37.7337 20.3749
37.781 20.2168
37.8281 20.18
37.8753 20.1954
37.9224 20.0291
37.9697 19.9832
38.0168 19.9044
38.064 19.8903
38.1111 19.8382
38.1584 19.7535
38.2056 19.7275
38.2529 19.6375
38.3 19.4939
38.3473 19.5436
38.3945 19.4619
38.4418 19.428
38.489 19.3245
38.5363 19.2348
38.5837 19.1835
38.6309 19.1471
38.6782 19.0805
38.7254 18.959
38.7728 18.9693
38.82 18.8715
38.8674 18.8172
38.9146 18.7239
38.9621 18.6747
39.0093 18.6945
39.0567 18.6192
39.104 18.4939
39.1514 18.397
39.1987 18.3604
39.2461 18.3167
39.2934 18.3029
39.3409 18.2528
39.3882 18.2176
39.4356 18.1146
39.483 18.0492
39.5304 18.009
39.5778 17.9608
39.6253 17.9391
39.6726 17.8215
39.7201 17.7317
39.7675 17.7222
39.815 17.6718
39.8624 17.5955
39.9099 17.6265
39.9575 17.4658
40.0049 17.4396
40.0525 17.3491
40.0999 17.378
40.1474 17.2845
40.1949 17.1905
40.2425 17.0856
40.2899 17.1518
40.3375 17.0525
40.385 16.9712
40.4326 16.9029
40.48 16.902
40.5277 16.8593
40.5752 16.8296
40.6228 16.7585
40.6703 16.6666
40.718 16.6733
40.7655 16.6172
40.8132 16.5752
40.8607 16.5714
40.9084 16.4917
40.9559 16.4016
41.0036 16.3616
41.0512 16.2979
41.0989 16.2395
41.1465 16.114
41.1942 16.0908
41.242 16.0098
41.2896 16.0192
41.3373 15.9618
41.3849 15.8662
41.4327 15.7804
41.4803 15.8087
41.5281 15.7159
41.5758 15.7262
41.6236 15.5816
41.6712 15.6209
41.7191 15.5471
41.7667 15.4426
41.8146 15.4202
41.8622 15.3736
41.9101 15.3413
41.9578 15.2438
42.0057 15.2251
42.0534 15.1813
42.1013 15.1392
42.149 15.0537
42.1969 15.002
42.2446 14.9954
42.2925 14.9184
42.3403 14.8034
42.3882 14.8703
42.436 14.7502
42.4839 14.7226
42.5319 14.6925
42.5797 14.6183
42.6277 14.5674
42.6755 14.5324
42.7235 14.4797
42.7713 14.4137
42.8193 14.3537
42.8671 14.3162
42.9152 14.2711
42.963 14.1664
43.0111 14.1657
43.0589 14.1079
43.107 14.0504
43.1549 14.0229
43.2029 13.9564
43.2508 13.9611
43.2989 13.8932
43.3468 13.8054
43.3949 13.7691
43.4429 13.7802
43.491 13.6716
43.5389 13.663
43.5871 13.546
43.635 13.5483
43.6832 13.504
43.7312 13.42
43.7793 13.3987
43.8273 13.3693
43.8755 13.3366
43.9237 13.2622
43.9717 13.1997
44.0199 13.195
44.068 13.1585
44.1162 13.062
44.1642 13.063
44.2125 13.0141
44.2606 12.9698
44.3088 12.8802
44.3569 12.8394
44.4052 12.8317
44.4533 12.7287
44.5016 12.6966
44.5497 12.6874
44.598 12.6369
44.6461 12.5935
44.6945 12.5272
44.7426 12.538
44.791 12.4785
44.8391 12.3766
44.8875 12.3364
44.9357 12.3673
44.984 12.2822
45.0322 12.2228
45.0806 12.2049
45.1288 12.1807
45.1773 12.081
45.2257 12.052
45.2739 12.0238
45.3224 11.9972
45.3706 11.946
45.4191 11.8556
45.4673 11.8635
45.5158 11.8607
45.5641 11.7526
45.6126 11.7459
45.6609 11.7269
45.7094 11.6563
45.7577 11.6126
45.8063 11.5571
45.8546 11.4965
45.9031 11.4862
45.9515 11.4874
46.0001 11.4235
46.0484 11.3847
46.097 11.3401
46.1454 11.2944
46.194 11.2608
46.2424 11.1874
46.291 11.1792
46.3395 11.0801
46.3881 11.0724
46.4365 11.0524
46.4852 11.0224
46.5337 10.956
46.5823 10.9336
46.631 10.8762
46.6795 10.8262
46.7282 10.7891
46.7767 10.7625
46.8254 10.6973
46.8739 10.674
46.9226 10.6429
46.9712 10.569
47.0199 10.542
47.0685 10.5243
47.1173 10.4833
47.1658 10.4214
47.2146 10.4179
47.2632 10.3704
47.312 10.348
47.3606 10.2743
47.4095 10.256
47.4581 10.2044
47.5069 10.1679
47.5556 10.1187
47.6044 10.0856
47.6531 10.0547
47.702 10.0001
47.7507 9.97423
47.7996 9.96087
47.8483 9.93924
47.8972 9.86085
47.9461 9.86514
47.9948 9.8078
48.0438 9.7707
48.0925 9.78955
48.1415 9.67648
48.1902 9.65716
48.2392 9.63064
48.288 9.60344
48.337 9.56929
48.3858 9.53941
48.4348 9.52074
48.4837 9.48825
48.5327 9.40144
48.5815 9.40018
48.6306 9.37437
48.6795 9.32101
48.7285 9.30562
48.7774 9.27221
48.8265 9.22303
48.8754 9.19263
48.9245 9.14527
48.9734 9.11548
49.0226 9.08265
49.0715 9.03519
49.1206 9.02385
49.1696 8.96166
49.2188 8.92974
49.2679 8.91299
49.3169 8.88483
49.3661 8.83286
49.4151 8.82969
49.4643 8.82906
49.5134 8.74749
49.5626 8.68
49.6117 8.72597
49.6609 8.6454
49.71 8.60313
49.7592 8.60062
49.8083 8.52287
49.8576 8.51278
49.9067 8.46481
49.956 8.46819
50.0052 8.42255
50.0545 8.40156
50.1036 8.37685
50.153 8.2818
50.2022 8.30791
50.2515 8.26701
50.3007 8.21738
50.3501 8.18576
50.3993 8.14674
50.4487 8.14034
50.498 8.08933
50.5474 8.07305
50.5966 8.0109
50.6461 8.02302
50.6955 7.97993
50.7448 7.92826
50.7943 7.92452
50.8436 7.86887
50.8931 7.83443
50.9424 7.81606
50.9919 7.77366
51.0413 7.76532
51.0908 7.74077
51.1402 7.67813
51.1897 7.66965
51.2391 7.61994
51.2887 7.59137
51.3381 7.55766
51.3877 7.54103
51.4371 7.49775
51.4867 7.43785
51.5362 7.45808
51.5858 7.39744
51.6353 7.38345
51.6849 7.36455
51.7344 7.3304
51.7841 7.32221
51.8336 7.26858
51.8833 7.23746
51.9328 7.18357
51.9826 7.13683
52.0323 7.16075
52.0818 7.09239
52.1316 7.07414
52.1812 7.05882
52.231 7.03379
52.2806 7.00299
52.3304 6.9772
52.38 6.95231
52.4298 6.89154
52.4794 6.88543
52.5293 6.88201
52.5789 6.82285
52.6288 6.80883
52.6785 6.75846
52.7284 6.74055
52.7781 6.6796
52.828 6.72102
52.8777 6.64256
52.9276 6.60445
52.9774 6.61714
53.0273 6.58396
53.0771 6.53809
53.1271 6.49511
53.1769 6.50587
53.2269 6.46404
53.2767 6.40928
53.3267 6.41201
53.3765 6.39713
53.4266 6.38344
53.4766 6.33614
53.5265 6.32796
53.5765 6.24602
53.6264 6.29366
53.6765 6.25287
53.7264 6.20679
53.7765 6.18416
53.8265 6.16011
53.8766 6.0906
53.9266 6.06632
53.9767 6.08227
54.0267 6.03043
54.0769 5.99105
54.1269 5.98337
54.1771 5.93582
54.2271 5.86236
54.2773 5.89714
54.3274 5.88342
54.3776 5.81452
54.4277 5.77523
54.478 5.76351
54.528 5.74303
54.5783 5.71386
54.6285 5.68162
54.6788 5.62344
54.7289 5.56274
54.7792 5.54676
54.8296 5.52384
54.8798 5.44605
54.9301 5.38605
54.9803 5.39445
55.0307 5.35753
55.0809 5.25528
55.1314 5.27582
55.1816 5.1971
55.232 5.17575
55.2823 5.12207
55.3328 5.10106
55.383 5.0016
55.4335 4.97625
55.4838 4.92816
55.5344 4.90221
55.5847 4.82774
55.6352 4.81902
55.6856 4.77884
55.7361 4.78154