File: XRD/Ni3Fe_FD0750.xy
TT I
1.27165 7.38708
1.31627 6.63484
1.36089 6.37417
1.40551 5.89276
1.45013 6.31256
1.49476 5.76568
1.53938 5.857
1.584 4.97865
1.62863 4.88928
1.67325 4.6507
1.71787 4.40454
1.7625 4.19977
1.80712 4.72967
1.85174 4.31405
1.89636 4.6807
1.94099 5.1574
1.98562 4.1619
2.03025 4.86852
2.07487 4.37689
2.11949 5.15822
2.16411 5.15834
2.20874 15.1873
2.25338 25.1713
2.298 5.5906
2.34263 5.05521
2.38725 6.01128
2.43188 6.63516
2.4765 7.36576
2.52115 7.06316
2.56577 7.28311
2.6104 8.57149
2.65503 8.07726
2.69965 8.03795
2.7443 7.96224
2.78893 8.32955
2.83356 8.60044
2.87818 9.00221
2.92281 9.28065
2.96744 9.43351
3.01209 10.684
3.05672 11.48
3.10135 12.2607
3.14599 12.8891
3.19062 14.2208
3.23527 15.3937
3.2799 15.896
3.32454 16.8687
3.36917 17.4029
3.4138 18.7072
3.45844 19.8703
3.50309 20.858
3.54773 21.5228
3.59237 24.5083
3.637 99.7007
3.68164 62.9674
3.7263 26.2107
3.77094 26.1956
3.81558 26.8513
3.86022 27.3923
3.90486 28.9254
3.9495 29.7723
3.99416 31.1084
4.0388 32.26
4.08344 33.2597
4.12809 34.9988
4.17273 36.8906
4.21738 43.4535
4.26204 269.773
4.30669 239.545
4.35133 49.2507
4.39598 44.7272
4.44063 54.4112
4.4853 67.9735
4.52995 50.0866
4.5746 50.6702
4.61925 52.8238
4.6639 55.0484
4.70855 57.7525
4.75322 60.6701
4.79788 63.0792
4.84253 66.64
4.88719 70.0865
4.93184 74.2453
4.97652 79.5423
5.02118 85.2968
5.06583 92.8573
5.11049 103.335
5.15515 173.297
5.19981 312.115
5.24449 2574.59
5.28916 12861.3
5.33382 2971.34
5.37848 186.544
5.42315 127.376
5.46783 112.459
5.5125 105.051
5.55716 101.594
5.60183 98.0189
5.6465 95.6649
5.69117 93.5549
5.73586 91.4827
5.78053 90.9112
5.8252 89.6762
5.86988 90.4378
5.91455 91.7628
5.95924 98.4024
6.00392 182.467
6.0486 860.797
6.09328 4317.02
6.13795 3180.74
6.18263 235.068
6.22733 91.8973
6.27201 82.7631
6.3167 104.813
6.36138 81.3262
6.40606 68.5857
6.45075 67.0757
6.49545 64.987
6.54014 63.5017
6.58483 62.9532
6.62952 62.4698
6.67421 97.3369
6.71892 153.593
6.76361 69.5331
6.8083 58.7756
6.853 57.3763
6.89769 56.4973
6.94239 56.4511
6.98711 56.0125
7.03181 55.4664
7.07651 54.9616
7.12121 55.1285
7.16591 55.7275
7.21063 55.5158
7.25533 71.7787
7.30004 193.561
7.34475 96.1734
7.38945 57.0522
7.43416 54.603
7.47889 54.3352
7.5236 54.7708
7.56831 55.3074
7.61303 57.1874
7.65774 57.4385
7.70247 55.9746
7.74719 55.8383
7.79191 56.3108
7.83663 56.6084
7.88135 57.5651
7.92607 58.3105
7.97081 59.5003
8.01553 60.2673
8.06026 61.9431
8.10498 63.4813
8.14971 73.7113
8.19446 72.2674
8.23919 68.9946
8.28392 70.7423
8.32865 73.3328
8.37339 76.9527
8.41812 84.4596
8.46288 114.722
8.50761 151.899
8.55235 351.527
8.59709 1137.72
8.64183 2158.17
8.68658 1029.92
8.73134 164.053
8.77609 98.5459
8.82083 91.9787
8.86558 89.0248
8.91033 88.8868
8.9551 91.8087
8.99985 84.8121
9.04461 82.9673
9.08936 82.2732
9.13412 81.2241
9.17888 81.4972
9.22365 82.3952
9.26841 81.0943
9.31318 81.7447
9.35794 82.0817
9.4027 82.3923
9.44749 83.4454
9.49226 84.0255
9.53703 84.7918
9.5818 86.4013
9.62657 91.4418
9.67134 99.0139
9.71614 93.2284
9.76091 93.1993
9.80569 95.2394
9.85047 99.1042
9.89525 125.195
9.94005 136.994
9.98484 161.271
10.0296 314.243
10.0744 776.429
10.1192 1765.18
10.164 1636.01
10.2088 404.102
10.2536 126.303
10.2984 112.773
10.3432 114.925
10.388 103.763
10.4328 113.36
10.4776 152.731
10.5224 272.211
10.5672 512.44
10.612 522.401
10.6568 210.087
10.7017 96.8838
10.7465 85.8809
10.7913 82.7187
10.8361 80.7912
10.8809 78.4711
10.9257 77.851
10.9706 79.0421
11.0154 74.5179
11.0602 72.8348
11.105 71.3763
11.1499 76.6208
11.1947 84.5808
11.2395 74.8409
11.2844 70.2181
11.3292 67.1384
11.374 65.6251
11.4189 65.2599
11.4637 64.4677
11.5086 65.142
11.5534 68.3642
11.5983 65.6576
11.6431 63.3088
11.688 62.6185
11.7328 62.7704
11.7777 62.2476
11.8225 62.074
11.8674 62.0389
11.9122 62.4604
11.9571 62.359
12.002 63.0895
12.0468 66.3671
12.0917 76.5657
12.1366 99.2246
12.1814 150.183
12.2263 203.329
12.2712 169.565
12.3161 100.031
12.3609 71.2564
12.4058 64.3432
12.4507 63.7582
12.4956 63.9872
12.5405 63.9752
12.5853 65.2838
12.6302 73.6317
12.6751 79.872
12.72 69.879
12.7649 67.4919
12.8098 67.9699
12.8547 69.2351
12.8996 70.635
12.9445 71.7807
12.9894 73.4047
13.0343 75.0467
13.0792 77.7231
13.1242 85.1042
13.1691 106.53
13.214 141.516
13.2589 230.597
13.3038 373.874
13.3487 424.983
13.3937 268.025
13.4386 125.919
13.4835 102.641
13.5285 115.172
13.5734 151.439
13.6183 241.128
13.6633 346.432
13.7082 341.242
13.7531 188.119
13.7981 97.6082
13.843 81.4941
13.888 79.0867
13.9329 76.6414
13.9779 75.1405
14.0228 74.0865
14.0678 72.4374
14.1127 72.2121
14.1577 71.9988
14.2027 71.1433
14.2476 69.8037
14.2926 69.8137
14.3376 71.5403
14.3825 69.9245
14.4275 68.3982
14.4725 68.1454
14.5175 68.2337
14.5624 68.4822
14.6074 70.7186
14.6524 71.6984
14.6974 69.8216
14.7424 70.722
14.7874 76.27
14.8324 85.8898
14.8774 106.966
14.9224 149.791
14.9674 206.995
15.0124 220.699
15.0574 152.162
15.1024 92.1161
15.1474 72.018
15.1924 70.1443
15.2374 70.8775
15.2824 70.3955
15.3274 67.8598
15.3725 66.5772
15.4175 65.9215
15.4625 65.674
15.5076 65.9416
15.5526 66.0207
15.5976 65.2399
15.6426 65.797
15.6877 70.3125
15.7327 77.4719
15.7778 91.9338
15.8228 123.287
15.8679 168.754
15.9129 193.59
15.958 156.716
16.003 99.4092
16.0481 68.1568
16.0931 64.767
16.1382 62.7099
16.1833 60.1539
16.2283 58.6311
16.2734 58.1287
16.3185 58.4957
16.3636 59.5506
16.4086 57.8002
16.4537 55.8686
16.4988 55.1849
16.5439 55.2112
16.589 54.7667
16.6341 54.587
16.6792 54.2749
16.7243 54.5255
16.7694 54.6818
16.8145 54.4624
16.8596 55.1109
16.9047 56.7055
16.9498 56.8079
16.9949 55.4966
17.04 55.4742
17.0851 56.4307
17.1302 58.0209
17.1754 60.8475
17.2205 65.7065
17.2656 74.0572
17.3108 83.8417
17.3559 83.2287
17.401 71.0819
17.4462 61.7994
17.4913 58.706
17.5365 58.6448
17.5815 58.7458
17.6268 58.9971
17.6718 60.0195
17.7171 60.5016
17.7622 60.6743
17.8074 61.3159
17.8525 63.067
17.8977 66.7809
17.9428 71.9911
17.9881 80.491
18.0331 97.7649
18.0784 119.958
18.1237 138.696
18.1688 130.351
18.214 103.354
18.2591 85.6491
18.3044 89.742
18.3495 99.9825
18.3948 105.81
18.4399 96.4388
18.4852 77.6144
18.5303 65.6606
18.5756 61.8139
18.6207 60.8339
18.666 60.2343
18.7112 59.5146
18.7565 58.7744
18.8016 58.2682
18.8469 57.6343
18.892 57.3875
18.9374 56.9096
18.9825 56.5735
19.0278 56.5409
19.073 56.4885
19.1183 56.9948
19.1635 57.7198
19.2088 59.0513
19.254 61.4891
19.2993 65.7139
19.3447 72.3753
19.3898 76.4523
19.4352 72.1937
19.4804 63.3733
19.5257 56.5559
19.5709 53.8286
19.6163 53.6269
19.6615 53.3598
19.7068 52.9254
19.752 52.9706
19.7974 53.2799
19.8426 53.9635
19.888 54.4798
19.9332 55.5014
19.9786 58.1172
20.0238 61.9027
20.0692 66.592
20.1144 69.4088
20.1598 67.8848
20.205 62.8337
20.2504 61.7371
20.2957 63.5199
20.3411 65.8619
20.3863 63.7171
20.4318 58.1432
20.477 53.4361
20.5224 51.5371
20.5677 50.8168
20.6131 50.0098
20.6586 49.3483
20.7038 49.3019
20.7493 48.8248
20.7945 48.7265
20.84 48.6356
20.8853 48.5077
20.9307 48.0408
20.976 48.3454
21.0215 48.3269
21.0668 48.6406
21.1122 48.9139
21.1575 49.6836
21.203 50.5349
21.2483 51.0572
21.2938 51.0902
21.3391 49.7273
21.3846 48.6263
21.4299 48.0463
21.4754 47.9837
21.5207 48.2297
21.5662 48.5176
21.6116 48.6936
21.6571 49.3124
21.7024 50.2971
21.7479 51.9993
21.7933 54.5751
21.8388 58.3965
21.8843 61.9233
21.9297 64.2082
21.9752 62.822
22.0206 59.4642
22.0661 56.3183
22.1115 55.7642
22.157 55.6623
22.2024 53.9361
22.248 51.3223
22.2933 49.7525
22.3389 48.8593
22.3843 48.6395
22.4299 48.6785
22.4753 48.7612
22.5208 48.1779
22.5662 48.2068
22.6118 48.3933
22.6572 48.3697
22.7028 48.8793
22.7483 49.094
22.7939 49.8947
22.8393 51.4019
22.8849 53.7116
22.9303 55.7937
22.9759 57.6835
23.0214 57.0901
23.067 54.2791
23.1126 50.9618
23.1581 48.933
23.2037 48.5294
23.2492 48.433
23.2948 48.5839
23.3403 48.6139
23.3859 49.2029
23.4314 50.3063
23.477 52.0793
23.5225 54.4091
23.5682 56.9963
23.6137 57.7016
23.6593 55.4667
23.7048 51.5448
23.7505 48.0876
23.796 46.4438
23.8417 45.8085
23.8872 45.284
23.9329 44.9424
23.9784 44.5969
24.0241 44.3166
24.0697 44.2588
24.1154 43.9225
24.1609 43.7888
24.2066 43.5343
24.2522 43.3719
24.2979 43.0565
24.3434 43.1285
24.3892 42.9683
24.4349 42.8211
24.4805 42.7316
24.5262 42.7388
24.5718 42.7375
24.6175 42.6645
24.6631 42.6784
24.7089 42.1579
24.7545 42.1332
24.8002 42.0678
24.8458 41.9517
24.8916 41.7348
24.9372 41.9009
24.983 42.2342
25.0286 42.4981
25.0744 42.9622
25.12 43.4767
25.1658 44.0704
25.2114 44.3577
25.2572 44.5229
25.3029 44.7303
25.3487 44.7117
25.3943 44.3761
25.4402 43.2595
25.4858 42.2772
25.5316 41.158
25.5773 40.685
25.6231 40.6704
25.669 40.1982
25.7147 40.2688
25.7605 40.0933
25.8062 40.268
25.8521 40.4331
25.8977 40.2778
25.9436 40.5908
25.9893 40.715
26.0352 41.0794
26.0809 41.2605
26.1268 41.5149
26.1725 40.9752
26.2184 40.5464
26.2641 40.0683
26.31 39.7873
26.3557 39.9319
26.4017 39.7865
26.4474 40.1227
26.4933 40.4739
26.5391 40.9649
26.585 41.5575
26.6308 41.736
26.6767 41.9071
26.7225 41.8077
26.7684 41.268
26.8142 40.653
26.8601 40.1445
26.9059 39.8076
26.9519 39.3049
26.9979 38.9959
27.0437 38.6139
27.0896 38.4785
27.1354 38.4951
27.1814 38.3227
27.2272 38.2276
27.2732 38.3923
27.3191 38.0049
27.3651 38.2945
27.4109 38.2366
27.4569 38.2164
27.5027 38.2203
27.5488 38.3007
27.5946 38.0774
27.6407 37.8928
27.6865 37.828
27.7326 37.6755
27.7784 37.7193
27.8245 37.6619
27.8703 37.7473
27.9164 37.9448
27.9623 38.1073
28.0084 38.4307
28.0543 38.844
28.1003 38.7886
28.1462 38.534
28.1923 38.2236
28.2384 37.7545
28.2843 37.4533
28.3304 36.864
28.3764 36.5865
28.4225 36.1903
28.4684 36.0521
28.5145 35.7251
28.5605 35.6739
28.6066 35.4535
28.6526 35.344
28.6987 35.4802
28.7447 35.2868
28.7908 35.25
28.8368 35.3195
28.8829 35.274
28.9289 35.0907
28.9751 34.8693
29.0211 34.7796
29.0673 34.4472
29.1133 34.4312
29.1595 34.0756
29.2055 34.0767
29.2517 34.1817
29.2977 34.0612
29.3439 34.0598
29.3899 34.0705
29.4361 33.8723
29.4824 33.8501
29.5284 33.5928
29.5746 33.2607
29.6207 33.0135
29.6669 32.8514
29.713 32.799
29.7593 32.7289
29.8053 32.775
29.8516 32.6055
29.8977 32.6257
29.9439 32.4071
29.99 32.4088
30.0363 32.2681
30.0824 32.2141
30.1287 32.1619
30.1748 32.2088
30.2211 32.349
30.2673 32.1026
30.3136 32.1752
30.3597 32.0807
30.406 32.0848
30.4522 31.8357
30.4985 31.7796
30.5447 32.1395
30.591 31.8308
30.6372 32.0281
30.6835 32.0981
30.7297 31.9303
30.7761 32.0257
30.8224 31.898
30.8686 31.6529
30.915 31.404
30.9612 31.2262
31.0076 31.0601
31.0538 31.0301
31.1002 30.8722
31.1464 30.7244
31.1928 30.6284
31.2391 30.863
31.2855 30.6265
31.3317 30.6985
31.3781 30.7813
31.4244 30.7728
31.4708 30.5182
31.5171 30.578
31.5636 30.5667
31.6098 30.2818
31.6563 30.2348
31.7026 30.0352
31.7491 29.9338
31.7953 30.0861
31.8418 30.0191
31.8881 29.9606
31.9346 29.8653
31.9809 29.8448
32.0275 29.8103
32.074 29.687
32.1203 29.457
32.1668 29.3515
32.2132 29.2607
32.2597 29.0427
32.306 29.0301
32.3526 28.8121
32.399 28.7434
32.4455 28.6626
32.4919 28.5594
32.5385 28.5187
32.5848 28.3116
32.6314 28.2993
32.6778 28.3177
32.7244 28.1635
32.7708 28.0238
32.8174 27.987
32.8638 27.9456
32.9104 27.9591
32.9569 27.8243
33.0035 27.7566
33.0499 27.7034
33.0966 27.5804
33.143 27.6757
33.1897 27.5513
33.2361 27.532
33.2828 27.4354
33.3293 27.2981
33.3759 27.2404
33.4226 27.0537
33.4691 26.9167
33.5158 26.9418
33.5623 26.7279
33.609 26.5777
33.6555 26.5385
33.7022 26.4402
33.7487 26.3243
33.7954 26.3824
33.842 26.2352
33.8887 26.2573
33.9353 26.1663
33.982 25.9985
34.0286 25.8358
34.0753 25.8683
34.1219 25.8443
34.1687 25.7522
34.2152 25.6641
34.262 25.5136
34.3086 25.4176
34.3554 25.4132
34.402 25.234
34.4488 25.1036
34.4954 25.065
34.5422 25.028
34.5889 24.9223
34.6357 24.8175
34.6825 24.7699
34.7292 24.7196
34.776 24.6353
34.8227 24.6047
34.8695 24.4767
34.9162 24.4663
34.9631 24.3936
35.0098 24.2662
35.0566 24.2448
35.1033 24.1655
35.1502 24.0918
35.1969 24.0687
35.2438 24.0786
35.2906 23.8914
35.3375 23.9085
35.3842 23.8195
35.4311 23.8238
35.4779 23.7909
35.5248 23.8046
35.5716 23.6409
35.6185 23.5388
35.6653 23.4966
35.7123 23.3959
35.759 23.3007
35.806 23.2447
35.8528 23.1414
35.8998 23.0072
35.9468 22.9483
35.9936 22.9223
36.0406 22.8448
36.0874 22.9116
36.1345 22.7632
36.1813 22.7049
36.2283 22.5881
36.2752 22.4793
36.3222 22.5398
36.3691 22.4434
36.4161 22.2597
36.463 22.2635
36.5101 22.2936
36.557 22.1748
36.6041 22.0794
36.651 21.9991
36.6981 22.0232
36.745 21.9688
36.7921 21.8798
36.839 21.8124
36.8861 21.6544
36.9331 21.6436
36.9802 21.5465
37.0272 21.4723
37.0743 21.4186
37.1213 21.2813
37.1684 21.2953
37.2154 21.2463
37.2626 21.1705
37.3098 21.1484
37.3568 21.0005
37.404 21.0104
37.451 20.8702
37.4982 20.8333
37.5452 20.6841
37.5924 20.7383
37.6395 20.7314
37.6867 20.5715
37.7337 20.4694
37.781 20.377
37.8281 20.4193
37.8753 20.3134
37.9224 20.2172
37.9697 20.1322
38.0168 20.0832
38.064 19.9845
38.1111 19.9714
38.1584 19.881
38.2056 19.8359
38.2529 19.7272
38.3 19.7158
38.3473 19.7206
38.3945 19.6061
38.4418 19.6104
38.489 19.5247
38.5363 19.3981
38.5837 19.398
38.6309 19.2856
38.6782 19.2259
38.7254 19.1409
38.7728 19.1341
38.82 19.0243
38.8674 18.9909
38.9146 18.9284
38.9621 18.8918
39.0093 18.8136
39.0567 18.74
39.104 18.7156
39.1514 18.5794
39.1987 18.6005
39.2461 18.5757
39.2934 18.5214
39.3409 18.3975
39.3882 18.3016
39.4356 18.3443
39.483 18.197
39.5304 18.0947
39.5778 18.1273
39.6253 18.0444
39.6726 17.9858
39.7201 17.9559
39.7675 17.8711
39.815 17.821
39.8624 17.8088
39.9099 17.8036
39.9575 17.6243
40.0049 17.6338
40.0525 17.5344
40.0999 17.5695
40.1474 17.4305
40.1949 17.3809
40.2425 17.3045
40.2899 17.2947
40.3375 17.2294
40.385 17.2206
40.4326 17.1387
40.48 17.0027
40.5277 17.0244
40.5752 16.9455
40.6228 16.8922
40.6703 16.7868
40.718 16.7411
40.7655 16.7092
40.8132 16.6786
40.8607 16.6474
40.9084 16.5171
40.9559 16.543
41.0036 16.4265
41.0512 16.4131
41.0989 16.4332
41.1465 16.2967
41.1942 16.2604
41.242 16.1757
41.2896 16.1173
41.3373 16.0764
41.3849 16.0807
41.4327 15.9941
41.4803 15.8895
41.5281 15.8949
41.5758 15.7851
41.6236 15.7496
41.6712 15.6845
41.7191 15.6992
41.7667 15.616
41.8146 15.5397
41.8622 15.5289
41.9101 15.5097
41.9578 15.4024
42.0057 15.3184
42.0534 15.2572
42.1013 15.221
42.149 15.2195
42.1969 15.1843
42.2446 15.0917
42.2925 15.083
42.3403 14.9932
42.3882 15.0046
42.436 14.9247
42.4839 14.8149
42.5319 14.8287
42.5797 14.7096
42.6277 14.6871
42.6755 14.6888
42.7235 14.5469
42.7713 14.5803
42.8193 14.485
42.8671 14.419
42.9152 14.3547
42.963 14.3989
43.0111 14.2961
43.0589 14.2577
43.107 14.1824
43.1549 14.2172
43.2029 14.1094
43.2508 14.0837
43.2989 13.9847
43.3468 13.9272
43.3949 13.9401
43.4429 13.8642
43.491 13.8324
43.5389 13.7999
43.5871 13.7323
43.635 13.6767
43.6832 13.6065
43.7312 13.5299
43.7793 13.5238
43.8273 13.4998
43.8755 13.4235
43.9237 13.3338
43.9717 13.3905
44.0199 13.2621
44.068 13.3126
44.1162 13.1955
44.1642 13.1827
44.2125 13.1543
44.2606 13.1174
44.3088 13.044
44.3569 12.9882
44.4052 12.9675
44.4533 12.8997
44.5016 12.8184
44.5497 12.8278
44.598 12.768
44.6461 12.6867
44.6945 12.651
44.7426 12.6682
44.791 12.5455
44.8391 12.5322
44.8875 12.541
44.9357 12.4627
44.984 12.4011
45.0322 12.3167
45.0806 12.2889
45.1288 12.2517
45.1773 12.2133
45.2257 12.2034
45.2739 12.1887
45.3224 12.1193
45.3706 12.0852
45.4191 11.9926
45.4673 11.9924
45.5158 11.9522
45.5641 11.8677
45.6126 11.8293
45.6609 11.7479
45.7094 11.7377
45.7577 11.7098
45.8063 11.6378
45.8546 11.669
45.9031 11.5858
45.9515 11.5585
46.0001 11.5218
46.0484 11.4892
46.097 11.4659
46.1454 11.4054
46.194 11.374
46.2424 11.2731
46.291 11.25
46.3395 11.2379
46.3881 11.1386
46.4365 11.1472
46.4852 11.1035
46.5337 11.1041
46.5823 11.01
46.631 10.9808
46.6795 10.9613
46.7282 10.9155
46.7767 10.86
46.8254 10.7945
46.8739 10.7747
46.9226 10.7514
46.9712 10.6753
47.0199 10.6904
47.0685 10.6053
47.1173 10.61
47.1658 10.5563
47.2146 10.4917
47.2632 10.4512
47.312 10.4176
47.3606 10.3936
47.4095 10.3715
47.4581 10.3162
47.5069 10.2558
47.5556 10.2136
47.6044 10.1963
47.6531 10.1606
47.702 10.1212
47.7507 10.0752
47.7996 10.0427
47.8483 9.97689
47.8972 9.9478
47.9461 9.9684
47.9948 9.87494
48.0438 9.86318
48.0925 9.83168
48.1415 9.7232
48.1902 9.79245
48.2392 9.73846
48.288 9.70568
48.337 9.71018
48.3858 9.61648
48.4348 9.57648
48.4837 9.56892
48.5327 9.53108
48.5815 9.49076
48.6306 9.4914
48.6795 9.39615
48.7285 9.35283
48.7774 9.3761
48.8265 9.29705
48.8754 9.28707
48.9245 9.2611
48.9734 9.1712
49.0226 9.21202
49.0715 9.11797
49.1206 9.11227
49.1696 9.08608
49.2188 9.06945
49.2679 9.01159
49.3169 8.95266
49.3661 8.89607
49.4151 8.89726
49.4643 8.88162
49.5134 8.8174
49.5626 8.78596
49.6117 8.74608
49.6609 8.71234
49.71 8.6991
49.7592 8.63782
49.8083 8.6068
49.8576 8.62803
49.9067 8.52164
49.956 8.56417
50.0052 8.44819
50.0545 8.47271
50.1036 8.42109
50.153 8.37615
50.2022 8.34871
50.2515 8.28778
50.3007 8.29078
50.3501 8.25061
50.3993 8.23337
50.4487 8.19278
50.498 8.18791
50.5474 8.15746
50.5966 8.08904
50.6461 8.08927
50.6955 8.0384
50.7448 8.03168
50.7943 7.98229
50.8436 7.97458
50.8931 7.90848
50.9424 7.91264
50.9919 7.81523
51.0413 7.82247
51.0908 7.79232
51.1402 7.73623
51.1897 7.7605
51.2391 7.6779
51.2887 7.64
51.3381 7.62386
51.3877 7.64391
51.4371 7.5651
51.4867 7.55023
51.5362 7.55065
51.5858 7.49869
51.6353 7.47562
51.6849 7.4274
51.7344 7.36754
51.7841 7.37816
51.8336 7.34145
51.8833 7.31517
51.9328 7.26912
51.9826 7.24385
52.0323 7.20097
52.0818 7.15476
52.1316 7.15224
52.1812 7.16692
52.231 7.07233
52.2806 7.0627
52.3304 7.08219
52.38 7.02552
52.4298 6.92409
52.4794 6.96073
52.5293 6.93154
52.5789 6.92261
52.6288 6.87913
52.6785 6.8379
52.7284 6.80177
52.7781 6.80393
52.828 6.75275
52.8777 6.71711
52.9276 6.69797
52.9774 6.66188
53.0273 6.67759
53.0771 6.62118
53.1271 6.61082
53.1769 6.54124
53.2269 6.51542
53.2767 6.48037
53.3267 6.47096
53.3765 6.43896
53.4266 6.41818
53.4766 6.41447
53.5265 6.37022
53.5765 6.3242
53.6264 6.32677
53.6765 6.28966
53.7264 6.2789
53.7765 6.22296
53.8265 6.2056
53.8766 6.17472
53.9266 6.13072
53.9767 6.10652
54.0267 6.13269
54.0769 6.0794
54.1269 6.03479
54.1771 6.00368
54.2271 5.9611
54.2773 5.94707
54.3274 5.91198
54.3776 5.87299
54.4277 5.85559
54.478 5.83292
54.528 5.81069
54.5783 5.78062
54.6285 5.70479
54.6788 5.68499
54.7289 5.64186
54.7792 5.56156
54.8296 5.55679
54.8798 5.50885
54.9301 5.46646
54.9803 5.44541
55.0307 5.38107
55.0809 5.33534
55.1314 5.33978
55.1816 5.28213
55.232 5.2037
55.2823 5.19268
55.3328 5.09694
55.383 5.07487
55.4335 5.05342
55.4838 5.00113
55.5344 4.95125
55.5847 4.90065
55.6352 4.85878
55.6856 4.82743
55.7361 4.84946