File: XRD/Ni3Fe_FD0672.xy
TT I
1.27165 7.40722
1.31627 6.15536
1.36089 6.60513
1.40551 6.64348
1.45013 6.15791
1.49476 5.98802
1.53938 5.54282
1.584 6.04715
1.62863 5.20257
1.67325 5.0704
1.71787 4.59955
1.7625 5.12809
1.80712 4.68762
1.85174 5.19819
1.89636 4.77263
1.94099 5.07006
1.98562 4.97634
2.03025 5.25676
2.07487 4.94505
2.11949 5.28103
2.16411 4.81172
2.20874 12.0698
2.25338 17.4306
2.298 6.20432
2.34263 5.54434
2.38725 5.91205
2.43188 6.01249
2.4765 7.3472
2.52115 7.10389
2.56577 8.29741
2.6104 8.26918
2.65503 8.48738
2.69965 7.87471
2.7443 8.58396
2.78893 7.7342
2.83356 8.94291
2.87818 8.92464
2.92281 9.00532
2.96744 9.16613
3.01209 10.6744
3.05672 11.7153
3.10135 12.5074
3.14599 13.5255
3.19062 13.813
3.23527 15.0993
3.2799 15.7658
3.32454 16.4909
3.36917 17.6345
3.4138 18.6707
3.45844 19.7875
3.50309 21.0685
3.54773 21.3307
3.59237 23.1267
3.637 73.7184
3.68164 48.7738
3.7263 26.0412
3.77094 26.2954
3.81558 26.6123
3.86022 27.608
3.90486 28.7245
3.9495 29.8952
3.99416 31.0002
4.0388 31.8577
4.08344 33.2605
4.12809 34.5526
4.17273 36.3269
4.21738 41.0466
4.26204 190.716
4.30669 163.091
4.35133 45.9015
4.39598 44.0657
4.44063 51.5067
4.4853 59.9218
4.52995 50.2175
4.5746 51.7899
4.61925 53.7073
4.6639 55.5858
4.70855 58.2376
4.75322 60.8824
4.79788 64.3474
4.84253 67.3989
4.88719 71.7858
4.93184 75.6903
4.97652 80.9821
5.02118 87.3061
5.06583 95.2014
5.11049 106.28
5.15515 162.895
5.19981 383.562
5.24449 2980.53
5.28916 12453.2
5.33382 2714.47
5.37848 181.271
5.42315 127.634
5.46783 113.331
5.5125 106.097
5.55716 101.828
5.60183 98.5379
5.6465 96.4543
5.69117 94.0328
5.73586 92.2679
5.78053 91.9808
5.8252 91.7912
5.86988 92.4851
5.91455 95.4072
5.95924 104.836
6.00392 225.388
6.0486 998.957
6.09328 4528.96
6.13795 3226.53
6.18263 221.395
6.22733 91.3684
6.27201 81.6945
6.3167 94.1222
6.36138 77.3194
6.40606 68.7015
6.45075 67.1699
6.49545 65.3657
6.54014 63.428
6.58483 62.4486
6.62952 62.1967
6.67421 84.5385
6.71892 119.516
6.76361 65.5736
6.8083 58.3321
6.853 57.3633
6.89769 56.5957
6.94239 56.4848
6.98711 55.7037
7.03181 55.2357
7.07651 55.302
7.12121 54.4452
7.16591 55.1899
7.21063 54.9724
7.25533 66.0392
7.30004 141.452
7.34475 80.5081
7.38945 55.6579
7.43416 54.28
7.47889 54.0715
7.5236 54.7389
7.56831 55.2792
7.61303 56.2506
7.65774 56.5313
7.70247 55.8939
7.74719 56.0663
7.79191 56.5772
7.83663 56.889
7.88135 57.8181
7.92607 58.4542
7.97081 59.7115
8.01553 60.9723
8.06026 62.2436
8.10498 63.6848
8.14971 70.8371
8.19446 70.5507
8.23919 69.9006
8.28392 71.8067
8.32865 74.0976
8.37339 78.196
8.41812 85.0326
8.46288 109.423
8.50761 175.46
8.55235 406.916
8.59709 1228.9
8.64183 2200.21
8.68658 922.065
8.73134 154.771
8.77609 98.252
8.82083 92.3607
8.86558 89.5945
8.91033 88.9529
8.9551 89.7253
8.99985 84.8881
9.04461 83.5223
9.08936 83.0622
9.13412 81.9453
9.17888 81.9787
9.22365 82.4774
9.26841 81.8717
9.31318 82.4328
9.35794 83.1806
9.4027 83.4389
9.44749 84.072
9.49226 84.1145
9.53703 85.5606
9.5818 87.6495
9.62657 91.0132
9.67134 96.0775
9.71614 92.8936
9.76091 93.9058
9.80569 96.4864
9.85047 99.8572
9.89525 118.625
9.94005 132.369
9.98484 187.454
10.0296 362.129
10.0744 840.441
10.1192 1785.28
10.164 1566.33
10.2088 377.397
10.2536 123.301
10.2984 111.302
10.3432 111.813
10.388 104.53
10.4328 121.416
10.4776 164.706
10.5224 289.625
10.5672 512.623
10.612 496.416
10.6568 188.3
10.7017 94.4821
10.7465 86.284
10.7913 82.6645
10.8361 81.0504
10.8809 78.5085
10.9257 77.5625
10.9706 78.0878
11.0154 74.7902
11.0602 72.2969
11.105 71.6984
11.1499 74.287
11.1947 78.7911
11.2395 72.3903
11.2844 69.5101
11.3292 66.7856
11.374 65.8871
11.4189 65.499
11.4637 64.9013
11.5086 65.1709
11.5534 67.0876
11.5983 64.6381
11.6431 63.3268
11.688 62.7358
11.7328 62.612
11.7777 62.7295
11.8225 62.3337
11.8674 62.18
11.9122 62.7278
11.9571 62.7387
12.002 63.9319
12.0468 68.7927
12.0917 79.825
12.1366 103.902
12.1814 154.115
12.2263 204.891
12.2712 159.519
12.3161 89.5231
12.3609 68.7793
12.4058 64.2096
12.4507 64.0647
12.4956 64.1472
12.5405 64.2659
12.5853 65.2728
12.6302 70.9199
12.6751 74.7742
12.72 68.9552
12.7649 67.6619
12.8098 67.9536
12.8547 69.7132
12.8996 70.8666
12.9445 71.9216
12.9894 74.0481
13.0343 75.8555
13.0792 79.3945
13.1242 90.0377
13.1691 114.164
13.214 151.905
13.2589 246.785
13.3038 379.562
13.3487 419.41
13.3937 249.969
13.4386 120.003
13.4835 107.051
13.5285 122.292
13.5734 161.729
13.6183 253.975
13.6633 358.153
13.7082 329.139
13.7531 171.095
13.7981 94.088
13.843 81.3199
13.888 79.3316
13.9329 76.7893
13.9779 75.5129
14.0228 74.2531
14.0678 72.8805
14.1127 72.403
14.1577 72.1377
14.2027 71.102
14.2476 70.3924
14.2926 70.1591
14.3376 70.8114
14.3825 69.7033
14.4275 68.8711
14.4725 68.6099
14.5175 69.0265
14.5624 69.0613
14.6074 70.5893
14.6524 70.9846
14.6974 70.2468
14.7424 72.694
14.7874 79.7344
14.8324 89.9526
14.8774 112.466
14.9224 157.917
14.9674 211.879
15.0124 216.025
15.0574 141.507
15.1024 86.6019
15.1474 71.7389
15.1924 69.9623
15.2374 70.2426
15.2824 69.3712
15.3274 67.7848
15.3725 66.7275
15.4175 66.2596
15.4625 65.9057
15.5076 66.0264
15.5526 66.179
15.5976 65.9002
15.6426 67.4205
15.6877 73.1991
15.7327 80.4291
15.7778 96.0957
15.8228 129.091
15.8679 175.131
15.9129 194.634
15.958 152.428
16.003 92.4103
16.0481 66.6277
16.0931 63.4851
16.1382 61.8701
16.1833 60.102
16.2283 58.8553
16.2734 57.9866
16.3185 58.3399
16.3636 58.4229
16.4086 57.2014
16.4537 55.9947
16.4988 55.4618
16.5439 55.3117
16.589 55.0262
16.6341 54.7716
16.6792 54.4634
16.7243 54.7331
16.7694 54.5379
16.8145 54.4092
16.8596 55.1753
16.9047 56.1726
16.9498 56.5203
16.9949 55.4379
17.04 56.0108
17.0851 57.0649
17.1302 58.7769
17.1754 61.8682
17.2205 67.0769
17.2656 74.917
17.3108 83.2765
17.3559 81.8813
17.401 69.7995
17.4462 61.4225
17.4913 59.1434
17.5365 59.0343
17.5815 59.291
17.6268 59.6389
17.6718 60.0159
17.7171 60.7486
17.7622 61.1306
17.8074 62.0335
17.8525 64.6866
17.8977 68.8888
17.9428 74.3002
17.9881 83.6119
18.0331 101.704
18.0784 124.11
18.1237 142.694
18.1688 130.525
18.214 100.9
18.2591 85.6297
18.3044 91.014
18.3495 100.974
18.3948 105.733
18.4399 94.2135
18.4852 75.4496
18.5303 64.9791
18.5756 61.7934
18.6207 61.0034
18.666 60.1956
18.7112 59.3366
18.7565 58.8623
18.8016 58.4299
18.8469 57.8633
18.892 57.6233
18.9374 57.1167
18.9825 57.0015
19.0278 56.7504
19.073 56.9533
19.1183 57.3461
19.1635 57.9914
19.2088 59.395
19.254 62.3396
19.2993 67.1622
19.3447 73.3671
19.3898 76.6675
19.4352 71.5247
19.4804 62.5358
19.5257 56.3327
19.5709 53.9973
19.6163 53.9077
19.6615 53.6625
19.7068 53.1505
19.752 53.1869
19.7974 53.4361
19.8426 54.4412
19.888 55.0583
19.9332 56.3809
19.9786 59.0987
20.0238 62.8796
20.0692 67.7739
20.1144 70.0046
20.1598 67.7104
20.205 62.9142
20.2504 62.0865
20.2957 64.1661
20.3411 65.5188
20.3863 63.2834
20.4318 57.3543
20.477 52.8486
20.5224 51.2633
20.5677 50.6379
20.6131 50.1483
20.6586 49.5923
20.7038 49.5717
20.7493 49.0176
20.7945 48.8178
20.84 48.7011
20.8853 48.6572
20.9307 48.5041
20.976 48.7021
21.0215 48.4231
21.0668 49.0264
21.1122 49.3587
21.1575 50.1498
21.203 50.751
21.2483 51.4498
21.2938 51.3485
21.3391 49.7522
21.3846 48.7787
21.4299 48.1716
21.4754 48.2929
21.5207 48.3851
21.5662 48.7916
21.6116 49.1954
21.6571 49.8498
21.7024 50.829
21.7479 52.7574
21.7933 55.5264
21.8388 59.4595
21.8843 63.1029
21.9297 64.8267
21.9752 63.1141
22.0206 58.9291
22.0661 56.2769
22.1115 55.986
22.157 55.8746
22.2024 54.014
22.248 51.1345
22.2933 49.7017
22.3389 48.9612
22.3843 48.9034
22.4299 48.6876
22.4753 48.662
22.5208 48.614
22.5662 48.4008
22.6118 48.6718
22.6572 48.8671
22.7028 49.3325
22.7483 49.7806
22.7939 50.3845
22.8393 52.1141
22.8849 54.2946
22.9303 56.326
22.9759 57.9979
23.0214 57.0875
23.067 54.2797
23.1126 50.7708
23.1581 49.0304
23.2037 48.6476
23.2492 48.8328
23.2948 48.6686
23.3403 49.0984
23.3859 49.7076
23.4314 50.7852
23.477 52.8554
23.5225 55.0954
23.5682 57.2255
23.6137 58.0046
23.6593 55.0454
23.7048 51.076
23.7505 47.8357
23.796 46.5164
23.8417 45.8698
23.8872 45.5118
23.9329 45.1722
23.9784 44.7329
24.0241 44.5307
24.0697 44.4567
24.1154 44.0727
24.1609 43.9152
24.2066 43.7297
24.2522 43.6232
24.2979 43.289
24.3434 43.1144
24.3892 43.0416
24.4349 42.9605
24.4805 42.9713
24.5262 42.9006
24.5718 42.7084
24.6175 42.8808
24.6631 42.825
24.7089 42.3323
24.7545 42.382
24.8002 42.1635
24.8458 42.1582
24.8916 42.0474
24.9372 42.2905
24.983 42.4679
25.0286 42.8139
25.0744 43.3675
25.12 43.8103
25.1658 44.36
25.2114 44.8034
25.2572 44.7325
25.3029 44.6857
25.3487 44.7835
25.3943 44.4265
25.4402 43.2941
25.4858 42.1929
25.5316 41.3274
25.5773 40.7435
25.6231 40.7754
25.669 40.557
25.7147 40.4854
25.7605 40.3393
25.8062 40.4475
25.8521 40.4672
25.8977 40.5215
25.9436 40.8002
25.9893 40.9455
26.0352 41.5625
26.0809 41.6066
26.1268 41.6104
26.1725 41.2651
26.2184 40.7129
26.2641 40.1983
26.31 40.0862
26.3557 40.0476
26.4017 40.1834
26.4474 40.3393
26.4933 40.7547
26.5391 41.2933
26.585 41.7404
26.6308 41.9397
26.6767 42.137
26.7225 41.8373
26.7684 41.3853
26.8142 40.6806
26.8601 40.3302
26.9059 39.8485
26.9519 39.407
26.9979 39.101
27.0437 38.9619
27.0896 38.7737
27.1354 38.7938
27.1814 38.588
27.2272 38.5449
27.2732 38.5355
27.3191 38.2617
27.3651 38.4216
27.4109 38.3367
27.4569 38.4985
27.5027 38.542
27.5488 38.5754
27.5946 38.2851
27.6407 38.0249
27.6865 37.993
27.7326 37.9107
27.7784 37.881
27.8245 37.7152
27.8703 38.0589
27.9164 38.2193
27.9623 38.3456
28.0084 38.7845
28.0543 39.2593
28.1003 39.0485
28.1462 38.7806
28.1923 38.3892
28.2384 37.8974
28.2843 37.4493
28.3304 36.9771
28.3764 36.5751
28.4225 36.3746
28.4684 36.2347
28.5145 35.7805
28.5605 35.7699
28.6066 35.5432
28.6526 35.5918
28.6987 35.578
28.7447 35.4592
28.7908 35.3542
28.8368 35.4692
28.8829 35.4287
28.9289 35.2173
28.9751 35.1804
29.0211 34.8662
29.0673 34.656
29.1133 34.5288
29.1595 34.3462
29.2055 34.2077
29.2517 34.2917
29.2977 34.2852
29.3439 34.2078
29.3899 34.2074
29.4361 34.1194
29.4824 33.8672
29.5284 33.6929
29.5746 33.4645
29.6207 33.1733
29.6669 33.0466
29.713 32.9085
29.7593 32.8948
29.8053 32.8586
29.8516 32.7396
29.8977 32.7553
29.9439 32.5831
29.99 32.4756
30.0363 32.4191
30.0824 32.3702
30.1287 32.3525
30.1748 32.4335
30.2211 32.3533
30.2673 32.2983
30.3136 32.2604
30.3597 32.2421
30.406 32.1254
30.4522 32.0168
30.4985 31.912
30.5447 32.1238
30.591 32.0887
30.6372 32.1896
30.6835 32.1941
30.7297 32.1408
30.7761 32.1117
30.8224 31.9237
30.8686 31.7887
30.915 31.6026
30.9612 31.3514
31.0076 31.2482
31.0538 31.1607
31.1002 31.1468
31.1464 30.9947
31.1928 30.9703
31.2391 30.9586
31.2855 30.8351
31.3317 30.7075
31.3781 30.8585
31.4244 30.836
31.4708 30.7698
31.5171 30.713
31.5636 30.7668
31.6098 30.4995
31.6563 30.345
31.7026 30.176
31.7491 30.0274
31.7953 30.1841
31.8418 30.1436
31.8881 30.1665
31.9346 30.1145
31.9809 30.0057
32.0275 29.9649
32.074 29.8675
32.1203 29.635
32.1668 29.4844
32.2132 29.3166
32.2597 29.2001
32.306 29.1784
32.3526 28.9513
32.399 28.9115
32.4455 28.7367
32.4919 28.722
32.5385 28.5888
32.5848 28.4787
32.6314 28.5027
32.6778 28.3725
32.7244 28.2498
32.7708 28.1488
32.8174 28.1369
32.8638 27.9343
32.9104 28.0802
32.9569 27.9992
33.0035 27.885
33.0499 27.8127
33.0966 27.7639
33.143 27.8205
33.1897 27.6884
33.2361 27.6252
33.2828 27.5367
33.3293 27.413
33.3759 27.3957
33.4226 27.1654
33.4691 27.0347
33.5158 26.9894
33.5623 26.8658
33.609 26.7507
33.6555 26.5561
33.7022 26.5139
33.7487 26.5318
33.7954 26.4663
33.842 26.2933
33.8887 26.3076
33.9353 26.2407
33.982 26.0604
34.0286 26.0285
34.0753 26.0095
34.1219 25.8498
34.1687 25.7696
34.2152 25.7523
34.262 25.665
34.3086 25.5481
34.3554 25.5089
34.402 25.2935
34.4488 25.3179
34.4954 25.2412
34.5422 25.1335
34.5889 25.0626
34.6357 24.9324
34.6825 24.8589
34.7292 24.7576
34.776 24.7227
34.8227 24.6859
34.8695 24.6057
34.9162 24.5373
34.9631 24.4149
35.0098 24.5275
35.0566 24.3652
35.1033 24.2407
35.1502 24.2744
35.1969 24.1839
35.2438 24.1772
35.2906 24.0524
35.3375 23.9973
35.3842 24.0045
35.4311 24.0504
35.4779 23.9398
35.5248 23.856
35.5716 23.8271
35.6185 23.6947
35.6653 23.5748
35.7123 23.4367
35.759 23.4284
35.806 23.3293
35.8528 23.2039
35.8998 23.2046
35.9468 23.0908
35.9936 23.0146
36.0406 22.9944
36.0874 22.9845
36.1345 22.9295
36.1813 22.8533
36.2283 22.7045
36.2752 22.5848
36.3222 22.7045
36.3691 22.5567
36.4161 22.4441
36.463 22.3792
36.5101 22.3614
36.557 22.2972
36.6041 22.1259
36.651 22.1536
36.6981 22.0858
36.745 22.0575
36.7921 22.0087
36.839 21.8419
36.8861 21.7866
36.9331 21.7431
36.9802 21.5987
37.0272 21.5151
37.0743 21.5054
37.1213 21.4692
37.1684 21.4208
37.2154 21.3283
37.2626 21.1816
37.3098 21.2181
37.3568 21.1385
37.404 21.0528
37.451 20.96
37.4982 20.9219
37.5452 20.8835
37.5924 20.7369
37.6395 20.83
37.6867 20.6646
37.7337 20.5756
37.781 20.5009
37.8281 20.4872
37.8753 20.3303
37.9224 20.3158
37.9697 20.255
38.0168 20.1768
38.064 20.0989
38.1111 20.0741
38.1584 19.917
38.2056 19.9636
38.2529 19.8397
38.3 19.7099
38.3473 19.8268
38.3945 19.7152
38.4418 19.6884
38.489 19.5651
38.5363 19.4996
38.5837 19.4785
38.6309 19.3842
38.6782 19.2762
38.7254 19.1632
38.7728 19.1951
38.82 19.1351
38.8674 19.0957
38.9146 19.0751
38.9621 18.9279
39.0093 18.8754
39.0567 18.8352
39.104 18.7773
39.1514 18.6809
39.1987 18.6166
39.2461 18.6348
39.2934 18.5651
39.3409 18.4226
39.3882 18.3333
39.4356 18.3867
39.483 18.3055
39.5304 18.2459
39.5778 18.2634
39.6253 18.1247
39.6726 18.0573
39.7201 18.0071
39.7675 17.981
39.815 17.9249
39.8624 17.822
39.9099 17.7891
39.9575 17.7442
40.0049 17.6359
40.0525 17.607
40.0999 17.5127
40.1474 17.4997
40.1949 17.4618
40.2425 17.3727
40.2899 17.2687
40.3375 17.2885
40.385 17.2515
40.4326 17.191
40.48 17.1281
40.5277 17.0776
40.5752 17.0378
40.6228 16.9274
40.6703 16.9391
40.718 16.8352
40.7655 16.8217
40.8132 16.7364
40.8607 16.7173
40.9084 16.6744
40.9559 16.5121
41.0036 16.5568
41.0512 16.457
41.0989 16.4087
41.1465 16.3546
41.1942 16.3662
41.242 16.2362
41.2896 16.1821
41.3373 16.105
41.3849 16.091
41.4327 16.0353
41.4803 15.9962
41.5281 15.9474
41.5758 15.8764
41.6236 15.7851
41.6712 15.7786
41.7191 15.6793
41.7667 15.6842
41.8146 15.6865
41.8622 15.5332
41.9101 15.5079
41.9578 15.4261
42.0057 15.4127
42.0534 15.3803
42.1013 15.3721
42.149 15.2874
42.1969 15.1677
42.2446 15.133
42.2925 15.1139
42.3403 15.0541
42.3882 15.037
42.436 14.9885
42.4839 14.9073
42.5319 14.8519
42.5797 14.8154
42.6277 14.7571
42.6755 14.7148
42.7235 14.6258
42.7713 14.6262
42.8193 14.5278
42.8671 14.531
42.9152 14.4595
42.963 14.4096
43.0111 14.3291
43.0589 14.3318
43.107 14.2757
43.1549 14.2499
43.2029 14.1804
43.2508 14.1346
43.2989 14.0097
43.3468 13.9854
43.3949 13.9469
43.4429 13.8995
43.491 13.8454
43.5389 13.8333
43.5871 13.8121
43.635 13.6895
43.6832 13.7064
43.7312 13.605
43.7793 13.5903
43.8273 13.5614
43.8755 13.4722
43.9237 13.4152
43.9717 13.432
44.0199 13.3819
44.068 13.2854
44.1162 13.2366
44.1642 13.222
44.2125 13.1554
44.2606 13.1364
44.3088 13.0637
44.3569 13.0168
44.4052 12.9808
44.4533 12.9092
44.5016 12.8982
44.5497 12.8226
44.598 12.8227
44.6461 12.7108
44.6945 12.7395
44.7426 12.6682
44.791 12.5524
44.8391 12.5918
44.8875 12.5325
44.9357 12.4921
44.984 12.4519
45.0322 12.4096
45.0806 12.367
45.1288 12.3369
45.1773 12.2759
45.2257 12.2154
45.2739 12.1423
45.3224 12.1282
45.3706 12.1692
45.4191 12.0004
45.4673 12.0524
45.5158 11.9912
45.5641 11.9433
45.6126 11.9105
45.6609 11.8339
45.7094 11.809
45.7577 11.7625
45.8063 11.6521
45.8546 11.6649
45.9031 11.6396
45.9515 11.5816
46.0001 11.5597
46.0484 11.4715
46.097 11.4902
46.1454 11.4146
46.194 11.4294
46.2424 11.3359
46.291 11.3121
46.3395 11.2691
46.3881 11.2691
46.4365 11.1473
46.4852 11.1303
46.5337 11.11
46.5823 11.0985
46.631 11.0034
46.6795 10.9705
46.7282 10.9602
46.7767 10.9126
46.8254 10.8777
46.8739 10.8139
46.9226 10.7766
46.9712 10.6985
47.0199 10.6758
47.0685 10.6539
47.1173 10.5863
47.1658 10.5473
47.2146 10.5608
47.2632 10.486
47.312 10.459
47.3606 10.4061
47.4095 10.37
47.4581 10.3499
47.5069 10.3026
47.5556 10.2379
47.6044 10.2245
47.6531 10.2006
47.702 10.1025
47.7507 10.1107
47.7996 10.0616
47.8483 10.0338
47.8972 10.0341
47.9461 9.97061
47.9948 9.92373
48.0438 9.9255
48.0925 9.87033
48.1415 9.79235
48.1902 9.76998
48.2392 9.7748
48.288 9.71329
48.337 9.70675
48.3858 9.65649
48.4348 9.62052
48.4837 9.62356
48.5327 9.58682
48.5815 9.49901
48.6306 9.47781
48.6795 9.45669
48.7285 9.39837
48.7774 9.37527
48.8265 9.35582
48.8754 9.30489
48.9245 9.28843
48.9734 9.23828
49.0226 9.21031
49.0715 9.13521
49.1206 9.16627
49.1696 9.08806
49.2188 9.05749
49.2679 9.04519
49.3169 8.95081
49.3661 8.94352
49.4151 8.92752
49.4643 8.86007
49.5134 8.8423
49.5626 8.81113
49.6117 8.78222
49.6609 8.76848
49.71 8.68641
49.7592 8.67572
49.8083 8.64504
49.8576 8.65456
49.9067 8.56304
49.956 8.55607
50.0052 8.50521
50.0545 8.52171
50.1036 8.46956
50.153 8.43448
50.2022 8.40129
50.2515 8.35047
50.3007 8.29881
50.3501 8.29677
50.3993 8.23918
50.4487 8.21402
50.498 8.18173
50.5474 8.15893
50.5966 8.13799
50.6461 8.12919
50.6955 8.04497
50.7448 8.05125
50.7943 8.01914
50.8436 7.97916
50.8931 7.94953
50.9424 7.93883
50.9919 7.86569
51.0413 7.87218
51.0908 7.81871
51.1402 7.78845
51.1897 7.76226
51.2391 7.7522
51.2887 7.68864
51.3381 7.64656
51.3877 7.63633
51.4371 7.60258
51.4867 7.55107
51.5362 7.56579
51.5858 7.50381
51.6353 7.46364
51.6849 7.43483
51.7344 7.43687
51.7841 7.41933
51.8336 7.34477
51.8833 7.30876
51.9328 7.3077
51.9826 7.25785
52.0323 7.22873
52.0818 7.16837
52.1316 7.16147
52.1812 7.1512
52.231 7.14358
52.2806 7.09645
52.3304 7.06089
52.38 7.00064
52.4298 7.00514
52.4794 6.93525
52.5293 6.93271
52.5789 6.91305
52.6288 6.90344
52.6785 6.81033
52.7284 6.88875
52.7781 6.82385
52.828 6.7669
52.8777 6.7136
52.9276 6.67613
52.9774 6.72185
53.0273 6.69217
53.0771 6.62029
53.1271 6.61205
53.1769 6.56471
53.2269 6.58075
53.2767 6.52992
53.3267 6.51661
53.3765 6.48163
53.4266 6.45649
53.4766 6.39449
53.5265 6.41421
53.5765 6.38275
53.6264 6.30299
53.6765 6.36246
53.7264 6.24656
53.7765 6.26178
53.8265 6.20753
53.8766 6.13838
53.9266 6.14938
53.9767 6.13928
54.0267 6.11244
54.0769 6.1042
54.1269 6.04344
54.1771 6.03194
54.2271 5.95216
54.2773 5.94341
54.3274 5.92643
54.3776 5.88905
54.4277 5.85923
54.478 5.84529
54.528 5.80067
54.5783 5.81738
54.6285 5.71275
54.6788 5.65762
54.7289 5.62879
54.7792 5.57826
54.8296 5.53939
54.8798 5.52885
54.9301 5.45479
54.9803 5.47377
55.0307 5.41476
55.0809 5.34032
55.1314 5.37533
55.1816 5.26528
55.232 5.2329
55.2823 5.23555
55.3328 5.15775
55.383 5.09704
55.4335 5.08079
55.4838 4.95514
55.5344 4.95591
55.5847 4.91761
55.6352 4.89019
55.6856 4.86011
55.7361 4.80017