File: XRD/Ni3Fe_FD0683.xy
TT I
1.27165 7.30397
1.31627 6.22458
1.36089 6.90153
1.40551 5.90771
1.45013 5.74532
1.49476 6.43633
1.53938 6.13298
1.584 5.10515
1.62863 4.89299
1.67325 4.92134
1.71787 4.91301
1.7625 4.60004
1.80712 4.74679
1.85174 4.79058
1.89636 4.83308
1.94099 4.88439
1.98562 4.85298
2.03025 4.25536
2.07487 4.21876
2.11949 4.60992
2.16411 4.90479
2.20874 10.1302
2.25338 14.458
2.298 5.86867
2.34263 5.15047
2.38725 5.54259
2.43188 6.29814
2.4765 6.29578
2.52115 5.95783
2.56577 7.15644
2.6104 8.31373
2.65503 7.8513
2.69965 8.21621
2.7443 7.71998
2.78893 7.71507
2.83356 8.09363
2.87818 8.67329
2.92281 8.84565
2.96744 9.02186
3.01209 9.99807
3.05672 11.1005
3.10135 12.3675
3.14599 12.9797
3.19062 14.2128
3.23527 14.6184
3.2799 15.5232
3.32454 16.7698
3.36917 17.4089
3.4138 18.7506
3.45844 19.3439
3.50309 20.4032
3.54773 21.7166
3.59237 23.1562
3.637 64.0745
3.68164 43.6905
3.7263 25.2982
3.77094 25.6466
3.81558 26.4471
3.86022 27.7278
3.90486 28.5439
3.9495 29.9895
3.99416 30.6034
4.0388 31.7168
4.08344 33.1452
4.12809 34.0637
4.17273 35.8374
4.21738 39.9935
4.26204 159.9
4.30669 138.511
4.35133 45.7472
4.39598 43.4034
4.44063 50.6137
4.4853 56.8057
4.52995 52.1282
4.5746 53.0185
4.61925 53.426
4.6639 55.2707
4.70855 58.1899
4.75322 61.5021
4.79788 65.6424
4.84253 67.3383
4.88719 72.5492
4.93184 76.0758
4.97652 81.1804
5.02118 87.3837
5.06583 94.7763
5.11049 106.459
5.15515 160.313
5.19981 410.44
5.24449 3001.01
5.28916 12671.5
5.33382 2687.97
5.37848 189.328
5.42315 128.232
5.46783 114.776
5.5125 108.188
5.55716 102.393
5.60183 98.4711
5.6465 96.1479
5.69117 94.3445
5.73586 92.5219
5.78053 94.4268
5.8252 93.3322
5.86988 95.3424
5.91455 95.3161
5.95924 105.237
6.00392 240.053
6.0486 1021.26
6.09328 4561.61
6.13795 3115.21
6.18263 216.017
6.22733 91.1689
6.27201 81.0269
6.3167 89.785
6.36138 75.9379
6.40606 68.9548
6.45075 67.79
6.49545 65.0823
6.54014 63.0282
6.58483 62.5533
6.62952 62.1531
6.67421 79.5449
6.71892 107.423
6.76361 64.1561
6.8083 58.1859
6.853 57.8513
6.89769 56.7177
6.94239 56.1401
6.98711 55.4173
7.03181 55.4595
7.07651 54.8232
7.12121 54.8974
7.16591 55.586
7.21063 54.8743
7.25533 63.6461
7.30004 123.942
7.34475 75.4431
7.38945 55.2567
7.43416 53.8025
7.47889 53.7251
7.5236 54.4564
7.56831 55.1717
7.61303 55.6525
7.65774 56.164
7.70247 56.1037
7.74719 55.7155
7.79191 56.3702
7.83663 56.3322
7.88135 57.4769
7.92607 58.1036
7.97081 59.3052
8.01553 60.6495
8.06026 62.2013
8.10498 63.6755
8.14971 70.6723
8.19446 70.5706
8.23919 69.1671
8.28392 71.7434
8.32865 74.0669
8.37339 78.2291
8.41812 84.2244
8.46288 106.53
8.50761 182.506
8.55235 408.965
8.59709 1230.52
8.64183 2252.67
8.68658 882.544
8.73134 154.746
8.77609 98.3085
8.82083 92.1493
8.86558 90.6181
8.91033 89.652
8.9551 89.4795
8.99985 85.0929
9.04461 83.4462
9.08936 83.0819
9.13412 82.3782
9.17888 82.0113
9.22365 82.4408
9.26841 82.0919
9.31318 83.1344
9.35794 84.1345
9.4027 83.9158
9.44749 84.4325
9.49226 84.4954
9.53703 85.2486
9.5818 88.1933
9.62657 91.7832
9.67134 95.5737
9.71614 93.0307
9.76091 94.0702
9.80569 97.5375
9.85047 99.9521
9.89525 115.653
9.94005 130.508
9.98484 195.461
10.0296 364.067
10.0744 844.599
10.1192 1789.77
10.164 1562.17
10.2088 365.188
10.2536 122.587
10.2984 110.293
10.3432 110.044
10.388 104.774
10.4328 123.458
10.4776 164.926
10.5224 291.444
10.5672 512.08
10.612 496.967
10.6568 192.576
10.7017 94.8454
10.7465 86.1418
10.7913 83.0866
10.8361 80.7228
10.8809 78.6482
10.9257 77.8539
10.9706 77.7321
11.0154 74.3642
11.0602 72.5615
11.105 71.4335
11.1499 73.5045
11.1947 76.8247
11.2395 71.5492
11.2844 68.9663
11.3292 66.7039
11.374 65.7874
11.4189 65.3658
11.4637 64.3936
11.5086 64.9151
11.5534 66.0671
11.5983 64.4657
11.6431 63.4673
11.688 62.7004
11.7328 62.6376
11.7777 62.5909
11.8225 62.4763
11.8674 62.2188
11.9122 62.5904
11.9571 62.9146
12.002 64.0086
12.0468 68.9924
12.0917 79.5306
12.1366 105.014
12.1814 156.021
12.2263 204.919
12.2712 157.8
12.3161 89.4712
12.3609 68.008
12.4058 64.1342
12.4507 64.2201
12.4956 64.4799
12.5405 64.4743
12.5853 65.0168
12.6302 69.6571
12.6751 72.8928
12.72 68.6235
12.7649 67.3859
12.8098 68.0937
12.8547 69.5973
12.8996 70.9142
12.9445 72.1857
12.9894 73.9684
13.0343 75.9361
13.0792 80.048
13.1242 91.9192
13.1691 114.328
13.214 152.518
13.2589 247.381
13.3038 378.645
13.3487 418.626
13.3937 251.835
13.4386 120.334
13.4835 107.873
13.5285 122.62
13.5734 162.944
13.6183 255.471
13.6633 351.663
13.7082 323.905
13.7531 171.18
13.7981 93.649
13.843 81.292
13.888 79.4554
13.9329 76.7128
13.9779 75.7599
14.0228 74.0219
14.0678 73.1618
14.1127 72.2787
14.1577 71.8813
14.2027 71.2028
14.2476 69.9696
14.2926 69.9687
14.3376 70.7287
14.3825 69.8981
14.4275 68.7379
14.4725 68.6653
14.5175 68.9613
14.5624 68.8902
14.6074 70.2114
14.6524 70.9776
14.6974 70.625
14.7424 73.2344
14.7874 80.19
14.8324 90.2905
14.8774 113.213
14.9224 158.368
14.9674 211.756
15.0124 216.537
15.0574 141.004
15.1024 87.3263
15.1474 71.5982
15.1924 70.0531
15.2374 69.8175
15.2824 68.894
15.3274 67.5996
15.3725 66.7379
15.4175 66.1861
15.4625 65.8227
15.5076 65.5952
15.5526 65.8105
15.5976 65.7622
15.6426 67.8416
15.6877 73.5591
15.7327 80.8886
15.7778 96.3328
15.8228 129.863
15.8679 175.031
15.9129 195.34
15.958 150.462
16.003 91.7403
16.0481 66.4942
16.0931 63.2093
16.1382 61.6742
16.1833 60.2257
16.2283 58.7588
16.2734 57.7951
16.3185 57.7875
16.3636 58.1857
16.4086 56.8199
16.4537 55.8954
16.4988 55.205
16.5439 55.342
16.589 54.9562
16.6341 54.654
16.6792 54.3322
16.7243 54.6514
16.7694 54.6488
16.8145 54.4302
16.8596 54.8766
16.9047 55.5967
16.9498 56.0176
16.9949 55.3977
17.04 55.9331
17.0851 57.3518
17.1302 58.6783
17.1754 62.0255
17.2205 67.1547
17.2656 75.0122
17.3108 83.2099
17.3559 81.6289
17.401 69.8113
17.4462 61.2838
17.4913 58.9158
17.5365 59.1191
17.5815 59.025
17.6268 59.4784
17.6718 60.1451
17.7171 60.393
17.7622 61.4435
17.8074 62.2261
17.8525 65.1716
17.8977 68.8782
17.9428 74.2383
17.9881 83.7952
18.0331 101.792
18.0784 124.534
18.1237 142.673
18.1688 131.036
18.214 101.037
18.2591 86.0586
18.3044 91.3082
18.3495 100.859
18.3948 105.695
18.4399 94.4189
18.4852 75.5125
18.5303 65.134
18.5756 61.9136
18.6207 61.0673
18.666 60.1197
18.7112 59.3853
18.7565 58.7724
18.8016 58.3501
18.8469 57.8361
18.892 57.4406
18.9374 57.0941
18.9825 56.7962
19.0278 56.7638
19.073 56.858
19.1183 57.3449
19.1635 57.855
19.2088 59.4673
19.254 62.2498
19.2993 67.032
19.3447 73.373
19.3898 76.3076
19.4352 71.164
19.4804 61.9872
19.5257 55.9684
19.5709 53.9808
19.6163 53.6341
19.6615 53.5779
19.7068 53.1557
19.752 53.1671
19.7974 53.6083
19.8426 54.4386
19.888 55.0335
19.9332 56.1733
19.9786 59.0883
20.0238 62.8873
20.0692 67.6422
20.1144 70.0247
20.1598 67.6095
20.205 63.1795
20.2504 62.0048
20.2957 64.0291
20.3411 65.1831
20.3863 63.1044
20.4318 57.512
20.477 52.9436
20.5224 51.1332
20.5677 50.6053
20.6131 50.0384
20.6586 49.5658
20.7038 49.2045
20.7493 48.8495
20.7945 48.849
20.84 48.8865
20.8853 48.6512
20.9307 48.5154
20.976 48.7518
21.0215 48.4293
21.0668 48.8759
21.1122 49.4545
21.1575 50.1503
21.203 50.9041
21.2483 51.1721
21.2938 51.3938
21.3391 49.8845
21.3846 48.7407
21.4299 48.2073
21.4754 48.242
21.5207 48.4197
21.5662 48.9789
21.6116 49.5278
21.6571 50.0106
21.7024 50.8673
21.7479 52.7929
21.7933 55.7613
21.8388 59.5809
21.8843 63.2377
21.9297 64.9461
21.9752 62.83
22.0206 58.9167
22.0661 56.4063
22.1115 56.0996
22.157 55.8537
22.2024 53.8802
22.248 50.8798
22.2933 49.49
22.3389 48.8885
22.3843 48.7766
22.4299 48.6486
22.4753 48.7148
22.5208 48.4906
22.5662 48.4973
22.6118 48.6655
22.6572 48.9462
22.7028 49.1567
22.7483 49.7767
22.7939 50.4534
22.8393 52.1345
22.8849 54.275
22.9303 56.4121
22.9759 57.9687
23.0214 57.157
23.067 53.962
23.1126 50.786
23.1581 48.9601
23.2037 48.5884
23.2492 48.7986
23.2948 48.8737
23.3403 49.0234
23.3859 49.8554
23.4314 50.9421
23.477 52.9744
23.5225 55.0052
23.5682 57.2729
23.6137 57.8394
23.6593 55.0272
23.7048 50.8556
23.7505 47.798
23.796 46.3891
23.8417 45.8388
23.8872 45.4129
23.9329 45.1735
23.9784 44.765
24.0241 44.59
24.0697 44.2047
24.1154 44.0725
24.1609 43.7763
24.2066 43.7205
24.2522 43.4784
24.2979 43.2188
24.3434 43.1165
24.3892 43.0647
24.4349 43.0689
24.4805 42.8525
24.5262 42.8898
24.5718 42.8631
24.6175 42.9247
24.6631 42.7478
24.7089 42.2148
24.7545 42.2774
24.8002 42.1589
24.8458 42.1385
24.8916 41.9675
24.9372 42.1268
24.983 42.3784
25.0286 42.8006
25.0744 43.3904
25.12 43.7363
25.1658 44.2751
25.2114 44.5881
25.2572 44.7215
25.3029 44.8054
25.3487 44.9192
25.3943 44.5458
25.4402 43.3591
25.4858 42.1823
25.5316 41.4573
25.5773 40.7644
25.6231 40.803
25.669 40.3265
25.7147 40.3751
25.7605 40.3901
25.8062 40.4947
25.8521 40.6524
25.8977 40.5884
25.9436 40.8104
25.9893 41.0223
26.0352 41.4181
26.0809 41.4668
26.1268 41.6765
26.1725 41.1901
26.2184 40.6715
26.2641 40.2652
26.31 40.0065
26.3557 40.1118
26.4017 40.0274
26.4474 40.3324
26.4933 40.7619
26.5391 41.2275
26.585 41.7009
26.6308 42.0303
26.6767 42.1542
26.7225 41.9647
26.7684 41.2884
26.8142 40.7859
26.8601 40.2543
26.9059 39.9961
26.9519 39.4247
26.9979 39.1371
27.0437 38.7854
27.0896 38.6589
27.1354 38.7476
27.1814 38.4923
27.2272 38.5369
27.2732 38.4321
27.3191 38.2231
27.3651 38.4534
27.4109 38.3703
27.4569 38.5241
27.5027 38.4508
27.5488 38.5806
27.5946 38.3692
27.6407 38.1207
27.6865 37.9986
27.7326 37.7952
27.7784 37.8634
27.8245 37.8554
27.8703 38.0612
27.9164 38.3654
27.9623 38.3709
28.0084 38.7679
28.0543 39.1623
28.1003 38.9709
28.1462 38.7567
28.1923 38.4484
28.2384 37.7868
28.2843 37.5632
28.3304 36.9999
28.3764 36.6175
28.4225 36.3312
28.4684 36.2909
28.5145 35.8997
28.5605 35.7391
28.6066 35.6747
28.6526 35.5236
28.6987 35.5245
28.7447 35.4902
28.7908 35.3612
28.8368 35.3899
28.8829 35.3535
28.9289 35.2465
28.9751 35.1469
29.0211 34.9155
29.0673 34.5988
29.1133 34.5187
29.1595 34.3429
29.2055 34.2475
29.2517 34.4644
29.2977 34.2206
29.3439 34.3196
29.3899 34.2384
29.4361 34.0509
29.4824 33.8099
29.5284 33.6149
29.5746 33.3262
29.6207 32.9958
29.6669 33.0228
29.713 32.8541
29.7593 32.7664
29.8053 32.7462
29.8516 32.6907
29.8977 32.6456
29.9439 32.5891
29.99 32.4794
30.0363 32.37
30.0824 32.4175
30.1287 32.3753
30.1748 32.302
30.2211 32.3581
30.2673 32.1771
30.3136 32.3058
30.3597 32.2111
30.406 32.1574
30.4522 32.0417
30.4985 32.0666
30.5447 32.0353
30.591 32.1422
30.6372 32.2569
30.6835 32.1788
30.7297 32.2517
30.7761 32.022
30.8224 31.8724
30.8686 31.7865
30.915 31.4966
30.9612 31.3835
31.0076 31.2436
31.0538 31.08
31.1002 31.0303
31.1464 30.8871
31.1928 30.8558
31.2391 30.9309
31.2855 30.725
31.3317 30.7319
31.3781 30.9551
31.4244 30.8768
31.4708 30.7941
31.5171 30.7758
31.5636 30.7519
31.6098 30.4826
31.6563 30.252
31.7026 30.2002
31.7491 30.0334
31.7953 30.1024
31.8418 30.0838
31.8881 30.2082
31.9346 30.1238
31.9809 29.9508
32.0275 29.8404
32.074 29.7436
32.1203 29.607
32.1668 29.5593
32.2132 29.2679
32.2597 29.1427
32.306 29.1403
32.3526 28.9326
32.399 28.8906
32.4455 28.7481
32.4919 28.6885
32.5385 28.5821
32.5848 28.3654
32.6314 28.4699
32.6778 28.3055
32.7244 28.1816
32.7708 28.0742
32.8174 28.1323
32.8638 27.9982
32.9104 28.0394
32.9569 27.9461
33.0035 27.8312
33.0499 27.7771
33.0966 27.7972
33.143 27.7654
33.1897 27.6756
33.2361 27.4985
33.2828 27.5232
33.3293 27.3721
33.3759 27.3554
33.4226 27.1757
33.4691 27.0455
33.5158 26.9042
33.5623 26.8929
33.609 26.7049
33.6555 26.6395
33.7022 26.5431
33.7487 26.5204
33.7954 26.4041
33.842 26.4495
33.8887 26.2709
33.9353 26.1618
33.982 26.1218
34.0286 25.9908
34.0753 25.9072
34.1219 25.932
34.1687 25.7678
34.2152 25.7345
34.262 25.6373
34.3086 25.5076
34.3554 25.4934
34.402 25.3603
34.4488 25.2446
34.4954 25.1119
34.5422 25.1924
34.5889 24.9596
34.6357 24.9435
34.6825 24.8726
34.7292 24.7811
34.776 24.6789
34.8227 24.6527
34.8695 24.6069
34.9162 24.49
34.9631 24.4239
35.0098 24.4656
35.0566 24.2761
35.1033 24.1986
35.1502 24.2196
35.1969 24.1099
35.2438 24.0055
35.2906 24.1468
35.3375 24.0076
35.3842 24.0185
35.4311 23.9273
35.4779 23.8459
35.5248 23.7867
35.5716 23.7491
35.6185 23.679
35.6653 23.6151
35.7123 23.4538
35.759 23.3749
35.806 23.3469
35.8528 23.2121
35.8998 23.1983
35.9468 23.0809
35.9936 22.9856
36.0406 23.005
36.0874 22.956
36.1345 22.8845
36.1813 22.8186
36.2283 22.629
36.2752 22.6333
36.3222 22.5837
36.3691 22.5173
36.4161 22.4001
36.463 22.4551
36.5101 22.392
36.557 22.2999
36.6041 22.1657
36.651 22.1624
36.6981 22.0941
36.745 21.9377
36.7921 21.8649
36.839 21.8274
36.8861 21.764
36.9331 21.6416
36.9802 21.6244
37.0272 21.6065
37.0743 21.4519
37.1213 21.475
37.1684 21.3846
37.2154 21.3626
37.2626 21.1671
37.3098 21.1087
37.3568 21.1043
37.404 21.0791
37.451 20.9262
37.4982 20.965
37.5452 20.8567
37.5924 20.7238
37.6395 20.7389
37.6867 20.662
37.7337 20.5339
37.781 20.5356
37.8281 20.4639
37.8753 20.3355
37.9224 20.2825
37.9697 20.2242
38.0168 20.1735
38.064 20.0607
38.1111 20.0024
38.1584 19.9467
38.2056 19.9643
38.2529 19.8658
38.3 19.7522
38.3473 19.7834
38.3945 19.6445
38.4418 19.6174
38.489 19.549
38.5363 19.4604
38.5837 19.3962
38.6309 19.4499
38.6782 19.2463
38.7254 19.2498
38.7728 19.225
38.82 19.0613
38.8674 19.046
38.9146 18.9905
38.9621 18.9345
39.0093 18.8526
39.0567 18.9025
39.104 18.7126
39.1514 18.6549
39.1987 18.6112
39.2461 18.5457
39.2934 18.5088
39.3409 18.4154
39.3882 18.3622
39.4356 18.3387
39.483 18.2486
39.5304 18.199
39.5778 18.19
39.6253 18.1214
39.6726 18.0527
39.7201 18.0703
39.7675 17.8885
39.815 17.8865
39.8624 17.8309
39.9099 17.8409
39.9575 17.7288
40.0049 17.6563
40.0525 17.5557
40.0999 17.5523
40.1474 17.4944
40.1949 17.4317
40.2425 17.3409
40.2899 17.3115
40.3375 17.3105
40.385 17.2202
40.4326 17.1586
40.48 17.0751
40.5277 17.0539
40.5752 17.002
40.6228 16.8949
40.6703 16.8938
40.718 16.8242
40.7655 16.8461
40.8132 16.7266
40.8607 16.6791
40.9084 16.6339
40.9559 16.557
41.0036 16.5502
41.0512 16.4634
41.0989 16.4621
41.1465 16.3563
41.1942 16.2869
41.242 16.2289
41.2896 16.2007
41.3373 16.1352
41.3849 16.1277
41.4327 16.0059
41.4803 15.9237
41.5281 15.9462
41.5758 15.8385
41.6236 15.8205
41.6712 15.7532
41.7191 15.6951
41.7667 15.6434
41.8146 15.6117
41.8622 15.5429
41.9101 15.5162
41.9578 15.3845
42.0057 15.3966
42.0534 15.3388
42.1013 15.2983
42.149 15.2516
42.1969 15.1674
42.2446 15.1545
42.2925 15.0341
42.3403 15.0542
42.3882 15.0293
42.436 14.8938
42.4839 14.8911
42.5319 14.7783
42.5797 14.8167
42.6277 14.778
42.6755 14.6973
42.7235 14.6025
42.7713 14.628
42.8193 14.5232
42.8671 14.5074
42.9152 14.4659
42.963 14.3984
43.0111 14.3058
43.0589 14.2855
43.107 14.2134
43.1549 14.1926
43.2029 14.1079
43.2508 14.1455
43.2989 14.0959
43.3468 13.9534
43.3949 13.9897
43.4429 13.9274
43.491 13.8699
43.5389 13.7762
43.5871 13.7599
43.635 13.7602
43.6832 13.7017
43.7312 13.6002
43.7793 13.5631
43.8273 13.5184
43.8755 13.5024
43.9237 13.4008
43.9717 13.4126
44.0199 13.3732
44.068 13.3406
44.1162 13.2527
44.1642 13.1929
44.2125 13.1752
44.2606 13.1299
44.3088 13.0312
44.3569 13.0035
44.4052 12.9872
44.4533 12.9359
44.5016 12.861
44.5497 12.8608
44.598 12.8274
44.6461 12.7319
44.6945 12.6758
44.7426 12.6701
44.791 12.5938
44.8391 12.5633
44.8875 12.4875
44.9357 12.4773
44.984 12.4697
45.0322 12.4142
45.0806 12.3352
45.1288 12.299
45.1773 12.2313
45.2257 12.2296
45.2739 12.1164
45.3224 12.1395
45.3706 12.095
45.4191 12.0278
45.4673 12.0482
45.5158 12.0023
45.5641 11.9063
45.6126 11.8924
45.6609 11.7893
45.7094 11.7767
45.7577 11.7964
45.8063 11.6787
45.8546 11.6968
45.9031 11.6598
45.9515 11.5878
46.0001 11.5511
46.0484 11.511
46.097 11.4457
46.1454 11.454
46.194 11.4057
46.2424 11.3276
46.291 11.2974
46.3395 11.2775
46.3881 11.2149
46.4365 11.1554
46.4852 11.1456
46.5337 11.0786
46.5823 11.0846
46.631 10.9698
46.6795 10.9956
46.7282 10.9548
46.7767 10.9317
46.8254 10.8029
46.8739 10.7971
46.9226 10.7581
46.9712 10.7451
47.0199 10.7009
47.0685 10.685
47.1173 10.6107
47.1658 10.5597
47.2146 10.5124
47.2632 10.4679
47.312 10.4805
47.3606 10.4332
47.4095 10.3467
47.4581 10.337
47.5069 10.2889
47.5556 10.2354
47.6044 10.1984
47.6531 10.1976
47.702 10.1033
47.7507 10.0965
47.7996 10.0904
47.8483 10.0341
47.8972 10.0302
47.9461 9.97434
47.9948 9.89556
48.0438 9.84746
48.0925 9.83127
48.1415 9.81327
48.1902 9.7827
48.2392 9.77328
48.288 9.71765
48.337 9.66374
48.3858 9.60996
48.4348 9.61275
48.4837 9.58752
48.5327 9.5034
48.5815 9.50997
48.6306 9.51065
48.6795 9.46077
48.7285 9.39055
48.7774 9.37245
48.8265 9.33963
48.8754 9.26165
48.9245 9.28505
48.9734 9.24607
49.0226 9.20406
49.0715 9.13684
49.1206 9.13437
49.1696 9.07206
49.2188 9.08886
49.2679 9.02362
49.3169 8.98308
49.3661 8.90107
49.4151 8.92317
49.4643 8.86347
49.5134 8.85161
49.5626 8.8183
49.6117 8.78964
49.6609 8.76138
49.71 8.69033
49.7592 8.71625
49.8083 8.64817
49.8576 8.63477
49.9067 8.57531
49.956 8.56929
50.0052 8.51562
50.0545 8.48635
50.1036 8.45481
50.153 8.42574
50.2022 8.38732
50.2515 8.3338
50.3007 8.27901
50.3501 8.27809
50.3993 8.24818
50.4487 8.23273
50.498 8.19442
50.5474 8.17452
50.5966 8.14216
50.6461 8.09332
50.6955 8.0535
50.7448 7.9938
50.7943 7.96846
50.8436 7.92653
50.8931 7.91615
50.9424 7.89339
50.9919 7.87059
51.0413 7.89274
51.0908 7.7993
51.1402 7.78538
51.1897 7.73864
51.2391 7.72687
51.2887 7.68295
51.3381 7.66173
51.3877 7.64871
51.4371 7.62953
51.4867 7.55896
51.5362 7.57113
51.5858 7.51564
51.6353 7.45653
51.6849 7.39595
51.7344 7.41076
51.7841 7.36797
51.8336 7.33601
51.8833 7.33351
51.9328 7.29544
51.9826 7.24321
52.0323 7.22497
52.0818 7.19688
52.1316 7.12909
52.1812 7.17631
52.231 7.11866
52.2806 7.05282
52.3304 7.07159
52.38 7.02786
52.4298 6.95858
52.4794 6.95581
52.5293 6.9512
52.5789 6.9226
52.6288 6.86934
52.6785 6.85182
52.7284 6.8146
52.7781 6.77647
52.828 6.72062
52.8777 6.72233
52.9276 6.67415
52.9774 6.66997
53.0273 6.68144
53.0771 6.62861
53.1271 6.58481
53.1769 6.59992
53.2269 6.53729
53.2767 6.48203
53.3267 6.4838
53.3765 6.45609
53.4266 6.44009
53.4766 6.3725
53.5265 6.32398
53.5765 6.35528
53.6264 6.29151
53.6765 6.2944
53.7264 6.28087
53.7765 6.25476
53.8265 6.17096
53.8766 6.18301
53.9266 6.17038
53.9767 6.07389
54.0267 6.10019
54.0769 6.04183
54.1269 6.00365
54.1771 6.00402
54.2271 5.9941
54.2773 5.95807
54.3274 5.94131
54.3776 5.89521
54.4277 5.85296
54.478 5.82468
54.528 5.7577
54.5783 5.74385
54.6285 5.72524
54.6788 5.68159
54.7289 5.64157
54.7792 5.57219
54.8296 5.5511
54.8798 5.47131
54.9301 5.49491
54.9803 5.43646
55.0307 5.42498
55.0809 5.35053
55.1314 5.34649
55.1816 5.26105
55.232 5.19806
55.2823 5.17569
55.3328 5.15218
55.383 5.04502
55.4335 5.03012
55.4838 5.02144
55.5344 4.93589
55.5847 4.89797
55.6352 4.89063
55.6856 4.86208
55.7361 4.82138