File: XRD/Ni3Fe_FD0642.xy
TT I
1.27165 7.38406
1.31627 6.95526
1.36089 5.98183
1.40551 6.26491
1.45013 5.37822
1.49476 5.95402
1.53938 6.03498
1.584 5.35958
1.62863 4.84212
1.67325 4.98608
1.71787 5.35979
1.7625 4.89935
1.80712 4.72032
1.85174 5.00076
1.89636 5.03684
1.94099 5.63668
1.98562 4.84815
2.03025 4.7906
2.07487 5.09475
2.11949 4.99768
2.16411 5.18557
2.20874 16.6214
2.25338 27.4166
2.298 7.14735
2.34263 5.38299
2.38725 6.57317
2.43188 5.71452
2.4765 6.65984
2.52115 6.60016
2.56577 7.18134
2.6104 8.58213
2.65503 7.60841
2.69965 8.33418
2.7443 8.08825
2.78893 8.89998
2.83356 8.66924
2.87818 8.92605
2.92281 9.11219
2.96744 9.88366
3.01209 10.4365
3.05672 11.2491
3.10135 11.9663
3.14599 12.9903
3.19062 14.2803
3.23527 15.0348
3.2799 15.8273
3.32454 16.8532
3.36917 17.857
3.4138 18.8907
3.45844 20.1135
3.50309 21.2901
3.54773 22.0659
3.59237 24.5658
3.637 110.331
3.68164 68.9843
3.7263 26.5896
3.77094 26.1224
3.81558 26.576
3.86022 28.0898
3.90486 29.3098
3.9495 29.9949
3.99416 31.2137
4.0388 32.3138
4.08344 33.7282
4.12809 35.4992
4.17273 37.3552
4.21738 44.6517
4.26204 299.411
4.30669 264.446
4.35133 50.8058
4.39598 45.4439
4.44063 56.314
4.4853 70.4032
4.52995 50.8587
4.5746 51.4981
4.61925 53.2715
4.6639 55.4925
4.70855 57.6821
4.75322 60.9918
4.79788 63.7658
4.84253 66.8983
4.88719 70.8308
4.93184 75.1476
4.97652 80.77
5.02118 86.6469
5.06583 93.5204
5.11049 105.1
5.15515 185.299
5.19981 335.826
5.24449 2645.26
5.28916 12664.4
5.33382 3141.0
5.37848 196.653
5.42315 130.477
5.46783 114.021
5.5125 106.477
5.55716 102.164
5.60183 99.2623
5.6465 96.7657
5.69117 94.1175
5.73586 91.8291
5.78053 91.1059
5.8252 90.7712
5.86988 91.5459
5.91455 93.4497
5.95924 100.716
6.00392 193.845
6.0486 917.77
6.09328 4328.88
6.13795 3529.7
6.18263 257.038
6.22733 94.8258
6.27201 84.5143
6.3167 109.988
6.36138 83.6823
6.40606 69.3542
6.45075 67.7321
6.49545 65.6692
6.54014 64.3735
6.58483 63.4554
6.62952 63.4526
6.67421 102.073
6.71892 166.769
6.76361 71.7612
6.8083 59.4235
6.853 58.0158
6.89769 57.2022
6.94239 57.0189
6.98711 56.4426
7.03181 56.2836
7.07651 55.7776
7.12121 55.7786
7.16591 56.1971
7.21063 56.4192
7.25533 73.6922
7.30004 214.523
7.34475 102.59
7.38945 57.6447
7.43416 54.7895
7.47889 54.623
7.5236 55.3214
7.56831 55.6898
7.61303 58.14
7.65774 58.179
7.70247 56.226
7.74719 56.6497
7.79191 57.2654
7.83663 57.0469
7.88135 57.921
7.92607 58.5237
7.97081 59.9641
8.01553 60.8914
8.06026 62.3127
8.10498 64.067
8.14971 75.4414
8.19446 73.9105
8.23919 69.8126
8.28392 71.5922
8.32865 73.9941
8.37339 78.3789
8.41812 86.2238
8.46288 119.889
8.50761 158.02
8.55235 366.036
8.59709 1101.92
8.64183 2200.56
8.68658 1017.64
8.73134 175.583
8.77609 100.562
8.82083 92.7858
8.86558 90.0054
8.91033 90.7414
8.9551 93.4974
8.99985 85.8915
9.04461 83.8214
9.08936 82.8571
9.13412 81.9732
9.17888 82.2277
9.22365 82.7119
9.26841 82.0872
9.31318 82.2039
9.35794 82.6309
9.4027 83.0164
9.44749 83.747
9.49226 84.5328
9.53703 85.4256
9.5818 87.5893
9.62657 92.5633
9.67134 101.346
9.71614 94.2248
9.76091 93.5358
9.80569 96.2515
9.85047 100.099
9.89525 128.551
9.94005 141.986
9.98484 169.074
10.0296 325.102
10.0744 763.35
10.1192 1695.73
10.164 1636.51
10.2088 442.906
10.2536 130.864
10.2984 115.504
10.3432 118.038
10.388 104.993
10.4328 115.63
10.4776 154.531
10.5224 268.735
10.5672 497.909
10.612 523.231
10.6568 212.637
10.7017 98.5893
10.7465 86.9721
10.7913 83.5612
10.8361 81.3511
10.8809 78.9821
10.9257 79.1366
10.9706 80.3536
11.0154 75.4059
11.0602 73.2924
11.105 72.1689
11.1499 77.9594
11.1947 87.6484
11.2395 76.5221
11.2844 71.5578
11.3292 67.9688
11.374 66.3407
11.4189 65.8405
11.4637 65.1474
11.5086 65.9154
11.5534 69.7969
11.5983 66.2522
11.6431 64.037
11.688 63.2298
11.7328 63.1933
11.7777 62.9993
11.8225 62.9259
11.8674 62.6111
11.9122 62.8571
11.9571 63.0439
12.002 63.7759
12.0468 67.2373
12.0917 78.0479
12.1366 100.71
12.1814 147.737
12.2263 204.475
12.2712 171.879
12.3161 102.894
12.3609 72.481
12.4058 64.9276
12.4507 64.622
12.4956 64.547
12.5405 64.8352
12.5853 66.087
12.6302 75.2142
12.6751 82.2971
12.72 71.32
12.7649 68.2211
12.8098 68.745
12.8547 69.761
12.8996 71.0193
12.9445 72.2803
12.9894 74.0617
13.0343 75.8258
13.0792 78.8371
13.1242 86.3872
13.1691 109.541
13.214 144.266
13.2589 227.294
13.3038 358.554
13.3487 431.138
13.3937 278.246
13.4386 128.68
13.4835 104.722
13.5285 118.173
13.5734 153.964
13.6183 239.638
13.6633 343.801
13.7082 345.185
13.7531 195.106
13.7981 100.425
13.843 82.1597
13.888 79.8019
13.9329 77.2701
13.9779 75.9998
14.0228 74.5448
14.0678 73.0832
14.1127 72.6137
14.1577 72.8809
14.2027 71.6826
14.2476 70.351
14.2926 71.0169
14.3376 72.5018
14.3825 70.8032
14.4275 69.0108
14.4725 68.8705
14.5175 69.0121
14.5624 69.1646
14.6074 71.9101
14.6524 72.5014
14.6974 70.609
14.7424 71.4582
14.7874 77.7354
14.8324 87.3003
14.8774 107.565
14.9224 148.964
14.9674 201.039
15.0124 218.763
15.0574 152.257
15.1024 92.9594
15.1474 73.1051
15.1924 70.8876
15.2374 71.8045
15.2824 71.3068
15.3274 68.5496
15.3725 67.1113
15.4175 66.7114
15.4625 66.1577
15.5076 66.7502
15.5526 66.3423
15.5976 66.0025
15.6426 66.6425
15.6877 71.1852
15.7327 78.3425
15.7778 92.6202
15.8228 122.071
15.8679 164.379
15.9129 193.149
15.958 160.953
16.003 101.564
16.0481 69.6375
16.0931 65.9341
16.1382 63.6241
16.1833 60.8212
16.2283 59.3668
16.2734 58.5071
16.3185 59.347
16.3636 60.2156
16.4086 58.4867
16.4537 56.7077
16.4988 55.7692
16.5439 55.8736
16.589 55.3171
16.6341 54.9171
16.6792 54.7486
16.7243 55.0642
16.7694 55.2774
16.8145 55.0336
16.8596 55.3466
16.9047 57.55
16.9498 57.6688
16.9949 56.0433
17.04 56.1187
17.0851 57.1151
17.1302 58.6295
17.1754 61.6929
17.2205 66.6621
17.2656 73.3867
17.3108 82.5692
17.3559 83.5433
17.401 72.5385
17.4462 62.6772
17.4913 59.4716
17.5365 59.2529
17.5815 59.2521
17.6268 59.7777
17.6718 60.6797
17.7171 61.2111
17.7622 61.3707
17.8074 61.6604
17.8525 63.8323
17.8977 67.5534
17.9428 73.0923
17.9881 81.3787
18.0331 97.5204
18.0784 118.755
18.1237 138.408
18.1688 132.998
18.214 106.052
18.2591 86.8825
18.3044 89.6874
18.3495 99.3511
18.3948 106.023
18.4399 98.7853
18.4852 79.3554
18.5303 66.7733
18.5756 62.6193
18.6207 61.546
18.666 60.7585
18.7112 59.8716
18.7565 59.1461
18.8016 58.8709
18.8469 58.2201
18.892 57.8141
18.9374 57.3383
18.9825 57.4848
19.0278 57.0763
19.073 57.06
19.1183 57.7268
19.1635 58.3676
19.2088 59.5216
19.254 61.9264
19.2993 66.4159
19.3447 72.6893
19.3898 76.9139
19.4352 73.4814
19.4804 64.2262
19.5257 57.4163
19.5709 54.5613
19.6163 54.1339
19.6615 53.734
19.7068 53.5219
19.752 53.4165
19.7974 53.759
19.8426 54.5834
19.888 55.172
19.9332 56.1449
19.9786 58.3601
20.0238 61.6585
20.0692 66.7922
20.1144 69.8973
20.1598 68.7357
20.205 63.8549
20.2504 62.1295
20.2957 63.5296
20.3411 65.852
20.3863 64.9539
20.4318 59.1827
20.477 54.1859
20.5224 52.056
20.5677 51.3996
20.6131 50.5483
20.6586 49.7431
20.7038 49.7418
20.7493 49.0786
20.7945 49.1435
20.84 48.9393
20.8853 48.6706
20.9307 48.6261
20.976 48.8367
21.0215 48.933
21.0668 49.1515
21.1122 49.6333
21.1575 50.1464
21.203 50.9349
21.2483 51.5885
21.2938 51.5418
21.3391 50.1842
21.3846 49.321
21.4299 48.5035
21.4754 48.5127
21.5207 48.7085
21.5662 49.0396
21.6116 49.2357
21.6571 49.8986
21.7024 50.7268
21.7479 52.6059
21.7933 55.087
21.8388 58.3761
21.8843 62.4778
21.9297 64.8479
21.9752 63.7214
22.0206 60.1932
22.0661 56.8862
22.1115 56.1102
22.157 56.1966
22.2024 54.6761
22.248 51.6944
22.2933 50.0544
22.3389 49.2484
22.3843 49.4157
22.4299 49.2366
22.4753 49.2695
22.5208 48.767
22.5662 48.7137
22.6118 48.6805
22.6572 48.9118
22.7028 49.2564
22.7483 49.6211
22.7939 50.3202
22.8393 51.9519
22.8849 53.8643
22.9303 56.0286
22.9759 57.709
23.0214 57.6963
23.067 55.0701
23.1126 51.5702
23.1581 49.654
23.2037 48.9755
23.2492 48.9636
23.2948 48.9293
23.3403 49.0979
23.3859 49.8073
23.4314 50.6335
23.477 52.5749
23.5225 54.5594
23.5682 56.7814
23.6137 58.2886
23.6593 56.3624
23.7048 52.0722
23.7505 48.5511
23.796 46.8683
23.8417 46.3403
23.8872 45.609
23.9329 45.5027
23.9784 45.0867
24.0241 44.7645
24.0697 44.6998
24.1154 44.312
24.1609 44.2274
24.2066 43.985
24.2522 43.8581
24.2979 43.6131
24.3434 43.6618
24.3892 43.233
24.4349 43.3369
24.4805 43.0492
24.5262 43.1122
24.5718 43.0846
24.6175 43.1125
24.6631 43.0204
24.7089 42.5169
24.7545 42.604
24.8002 42.4565
24.8458 42.43
24.8916 42.1873
24.9372 42.3636
24.983 42.5218
25.0286 42.8991
25.0744 43.4177
25.12 43.7795
25.1658 44.4466
25.2114 44.8226
25.2572 44.8845
25.3029 44.9736
25.3487 45.0838
25.3943 44.8863
25.4402 43.7814
25.4858 42.8074
25.5316 41.6245
25.5773 40.976
25.6231 40.9933
25.669 40.6255
25.7147 40.6084
25.7605 40.6335
25.8062 40.6037
25.8521 40.7371
25.8977 40.6848
25.9436 40.9289
25.9893 40.9274
26.0352 41.5266
26.0809 41.5903
26.1268 41.9035
26.1725 41.6034
26.2184 40.9042
26.2641 40.491
26.31 40.1975
26.3557 40.2384
26.4017 40.1952
26.4474 40.5702
26.4933 40.8749
26.5391 41.4356
26.585 41.8171
26.6308 42.2548
26.6767 42.2899
26.7225 42.2273
26.7684 41.659
26.8142 40.9205
26.8601 40.5522
26.9059 40.2797
26.9519 39.7344
26.9979 39.3194
27.0437 39.0968
27.0896 38.8261
27.1354 38.8553
27.1814 38.7588
27.2272 38.6758
27.2732 38.6162
27.3191 38.4931
27.3651 38.6343
27.4109 38.5212
27.4569 38.6701
27.5027 38.5883
27.5488 38.6768
27.5946 38.5921
27.6407 38.3276
27.6865 38.2774
27.7326 37.944
27.7784 38.0737
27.8245 37.8625
27.8703 38.0599
27.9164 38.4184
27.9623 38.2857
28.0084 38.7373
28.0543 39.2079
28.1003 39.0763
28.1462 38.9801
28.1923 38.5841
28.2384 38.06
28.2843 37.7482
28.3304 37.2434
28.3764 36.9646
28.4225 36.5684
28.4684 36.3876
28.5145 36.172
28.5605 36.1104
28.6066 35.8166
28.6526 35.6685
28.6987 35.7764
28.7447 35.6707
28.7908 35.581
28.8368 35.5242
28.8829 35.6198
28.9289 35.5157
28.9751 35.2318
29.0211 35.1376
29.0673 34.8394
29.1133 34.6588
29.1595 34.5561
29.2055 34.579
29.2517 34.4152
29.2977 34.4109
29.3439 34.4404
29.3899 34.3947
29.4361 34.2649
29.4824 34.2356
29.5284 33.9965
29.5746 33.6152
29.6207 33.2957
29.6669 33.2422
29.713 33.1407
29.7593 33.0471
29.8053 33.1362
29.8516 33.0042
29.8977 32.8494
29.9439 32.7793
29.99 32.7708
30.0363 32.5132
30.0824 32.6943
30.1287 32.5591
30.1748 32.573
30.2211 32.5784
30.2673 32.3724
30.3136 32.5195
30.3597 32.4367
30.406 32.4114
30.4522 32.1368
30.4985 32.1362
30.5447 32.2843
30.591 32.1752
30.6372 32.3078
30.6835 32.3139
30.7297 32.4904
30.7761 32.2477
30.8224 32.0988
30.8686 32.0182
30.915 31.7464
30.9612 31.62
31.0076 31.3226
31.0538 31.358
31.1002 31.2428
31.1464 31.0968
31.1928 30.9814
31.2391 31.1858
31.2855 30.9446
31.3317 30.9602
31.3781 31.0292
31.4244 30.9899
31.4708 30.8776
31.5171 31.0292
31.5636 30.9086
31.6098 30.6152
31.6563 30.3728
31.7026 30.3104
31.7491 30.179
31.7953 30.2492
31.8418 30.247
31.8881 30.2056
31.9346 30.246
31.9809 30.2003
32.0275 30.0773
32.074 29.9599
32.1203 29.7249
32.1668 29.5826
32.2132 29.3736
32.2597 29.3714
32.306 29.2945
32.3526 29.1207
32.399 29.0346
32.4455 28.8938
32.4919 28.8409
32.5385 28.7784
32.5848 28.6096
32.6314 28.5258
32.6778 28.5598
32.7244 28.4243
32.7708 28.2978
32.8174 28.1749
32.8638 28.1211
32.9104 28.2148
32.9569 28.0848
33.0035 27.9473
33.0499 28.0676
33.0966 27.9083
33.143 27.8855
33.1897 27.8357
33.2361 27.7552
33.2828 27.6811
33.3293 27.5261
33.3759 27.4939
33.4226 27.3268
33.4691 27.2479
33.5158 27.1851
33.5623 27.0043
33.609 26.823
33.6555 26.7712
33.7022 26.692
33.7487 26.5818
33.7954 26.6017
33.842 26.4981
33.8887 26.503
33.9353 26.3536
33.982 26.2869
34.0286 26.1351
34.0753 26.0613
34.1219 26.035
34.1687 26.016
34.2152 25.8795
34.262 25.7
34.3086 25.6582
34.3554 25.6578
34.402 25.4914
34.4488 25.4536
34.4954 25.3673
34.5422 25.2588
34.5889 25.1128
34.6357 25.0632
34.6825 25.0367
34.7292 24.9014
34.776 24.8505
34.8227 24.7332
34.8695 24.7271
34.9162 24.6907
34.9631 24.5787
35.0098 24.5397
35.0566 24.4719
35.1033 24.3632
35.1502 24.4378
35.1969 24.4039
35.2438 24.2156
35.2906 24.1764
35.3375 24.1461
35.3842 24.0739
35.4311 24.02
35.4779 24.0259
35.5248 24.0387
35.5716 23.8026
35.6185 23.8062
35.6653 23.7205
35.7123 23.6295
35.759 23.5389
35.806 23.3731
35.8528 23.3778
35.8998 23.3506
35.9468 23.1823
35.9936 23.1562
36.0406 23.0738
36.0874 23.0893
36.1345 23.0077
36.1813 22.8437
36.2283 22.7508
36.2752 22.6846
36.3222 22.7496
36.3691 22.629
36.4161 22.5216
36.463 22.528
36.5101 22.5105
36.557 22.4522
36.6041 22.2648
36.651 22.27
36.6981 22.2201
36.745 22.0885
36.7921 22.1227
36.839 21.9752
36.8861 21.8823
36.9331 21.7882
36.9802 21.6994
37.0272 21.7155
37.0743 21.6203
37.1213 21.5765
37.1684 21.476
37.2154 21.421
37.2626 21.4061
37.3098 21.3263
37.3568 21.2013
37.404 21.1824
37.451 21.0779
37.4982 21.0494
37.5452 20.9628
37.5924 20.8399
37.6395 20.9858
37.6867 20.8481
37.7337 20.7031
37.781 20.6524
37.8281 20.5933
37.8753 20.4765
37.9224 20.3606
37.9697 20.3624
38.0168 20.3291
38.064 20.1838
38.1111 20.1775
38.1584 20.0806
38.2056 20.0952
38.2529 20.0282
38.3 19.8984
38.3473 19.9443
38.3945 19.7387
38.4418 19.7667
38.489 19.6141
38.5363 19.5946
38.5837 19.5458
38.6309 19.4989
38.6782 19.4132
38.7254 19.3952
38.7728 19.3135
38.82 19.2147
38.8674 19.1878
38.9146 19.155
38.9621 19.0074
39.0093 18.9675
39.0567 18.9423
39.104 18.8782
39.1514 18.7748
39.1987 18.8637
39.2461 18.7313
39.2934 18.6829
39.3409 18.5964
39.3882 18.4685
39.4356 18.4712
39.483 18.3946
39.5304 18.3164
39.5778 18.3301
39.6253 18.2345
39.6726 18.192
39.7201 18.0891
39.7675 18.0714
39.815 18.009
39.8624 17.918
39.9099 17.9145
39.9575 17.8032
40.0049 17.7476
40.0525 17.7023
40.0999 17.7083
40.1474 17.6203
40.1949 17.4907
40.2425 17.4586
40.2899 17.3938
40.3375 17.4176
40.385 17.3029
40.4326 17.2772
40.48 17.1908
40.5277 17.2271
40.5752 17.0535
40.6228 17.0408
40.6703 16.9806
40.718 16.9929
40.7655 16.8857
40.8132 16.8426
40.8607 16.7832
40.9084 16.7958
40.9559 16.6921
41.0036 16.6851
41.0512 16.6264
41.0989 16.5664
41.1465 16.4703
41.1942 16.3846
41.242 16.3122
41.2896 16.2578
41.3373 16.2579
41.3849 16.186
41.4327 16.1248
41.4803 16.0353
41.5281 16.0541
41.5758 15.9754
41.6236 15.8965
41.6712 15.8114
41.7191 15.8551
41.7667 15.7738
41.8146 15.67
41.8622 15.6168
41.9101 15.5916
41.9578 15.5464
42.0057 15.4746
42.0534 15.4413
42.1013 15.4523
42.149 15.3343
42.1969 15.262
42.2446 15.2843
42.2925 15.1749
42.3403 15.1767
42.3882 15.1152
42.436 15.073
42.4839 14.9966
42.5319 14.9617
42.5797 14.9021
42.6277 14.8483
42.6755 14.807
42.7235 14.7362
42.7713 14.688
42.8193 14.6126
42.8671 14.598
42.9152 14.5668
42.963 14.4964
43.0111 14.435
43.0589 14.3668
43.107 14.3804
43.1549 14.3509
43.2029 14.2056
43.2508 14.2148
43.2989 14.1583
43.3468 14.0848
43.3949 14.0394
43.4429 14.01
43.491 13.942
43.5389 13.9451
43.5871 13.8887
43.635 13.7934
43.6832 13.7601
43.7312 13.7139
43.7793 13.6842
43.8273 13.6494
43.8755 13.5453
43.9237 13.5416
43.9717 13.4743
44.0199 13.4587
44.068 13.4146
44.1162 13.2786
44.1642 13.3556
44.2125 13.2364
44.2606 13.2127
44.3088 13.1133
44.3569 13.1069
44.4052 13.0845
44.4533 13.0422
44.5016 12.9544
44.5497 12.9093
44.598 12.8982
44.6461 12.8406
44.6945 12.7905
44.7426 12.8053
44.791 12.6732
44.8391 12.6634
44.8875 12.5831
44.9357 12.5646
44.984 12.5533
45.0322 12.4803
45.0806 12.4019
45.1288 12.4216
45.1773 12.37
45.2257 12.3543
45.2739 12.24
45.3224 12.2143
45.3706 12.1923
45.4191 12.1443
45.4673 12.1228
45.5158 12.0187
45.5641 12.0
45.6126 11.9726
45.6609 11.906
45.7094 11.8695
45.7577 11.8818
45.8063 11.7306
45.8546 11.7637
45.9031 11.7436
45.9515 11.678
46.0001 11.5933
46.0484 11.5616
46.097 11.5735
46.1454 11.4796
46.194 11.4727
46.2424 11.4366
46.291 11.3696
46.3395 11.2944
46.3881 11.2844
46.4365 11.3019
46.4852 11.2321
46.5337 11.1713
46.5823 11.1685
46.631 11.085
46.6795 11.08
46.7282 10.9825
46.7767 11.0041
46.8254 10.8887
46.8739 10.9065
46.9226 10.8644
46.9712 10.8304
47.0199 10.8018
47.0685 10.7133
47.1173 10.6545
47.1658 10.6099
47.2146 10.6074
47.2632 10.5904
47.312 10.5462
47.3606 10.4699
47.4095 10.4533
47.4581 10.4228
47.5069 10.3768
47.5556 10.2997
47.6044 10.2895
47.6531 10.2528
47.702 10.1691
47.7507 10.1596
47.7996 10.1238
47.8483 10.0894
47.8972 10.0852
47.9461 10.026
47.9948 9.98605
48.0438 9.93988
48.0925 9.91268
48.1415 9.8849
48.1902 9.8707
48.2392 9.8041
48.288 9.83526
48.337 9.77899
48.3858 9.71217
48.4348 9.68653
48.4837 9.67671
48.5327 9.64092
48.5815 9.60187
48.6306 9.57666
48.6795 9.50746
48.7285 9.468
48.7774 9.42208
48.8265 9.38966
48.8754 9.33484
48.9245 9.38047
48.9734 9.26495
49.0226 9.24895
49.0715 9.2173
49.1206 9.17562
49.1696 9.15233
49.2188 9.09322
49.2679 9.08098
49.3169 9.07339
49.3661 9.01562
49.4151 9.00144
49.4643 8.94482
49.5134 8.90769
49.5626 8.8697
49.6117 8.82245
49.6609 8.79668
49.71 8.75108
49.7592 8.71966
49.8083 8.69028
49.8576 8.691
49.9067 8.60728
49.956 8.63437
50.0052 8.61928
50.0545 8.58381
50.1036 8.53241
50.153 8.51047
50.2022 8.47062
50.2515 8.38299
50.3007 8.38871
50.3501 8.32136
50.3993 8.33667
50.4487 8.28816
50.498 8.24341
50.5474 8.21333
50.5966 8.19832
50.6461 8.16467
50.6955 8.12033
50.7448 8.08284
50.7943 8.08096
50.8436 8.05586
50.8931 8.03372
50.9424 7.99826
50.9919 7.94231
51.0413 7.91573
51.0908 7.87476
51.1402 7.87628
51.1897 7.77968
51.2391 7.76711
51.2887 7.73327
51.3381 7.71777
51.3877 7.7193
51.4371 7.63453
51.4867 7.58998
51.5362 7.57338
51.5858 7.60902
51.6353 7.51401
51.6849 7.50874
51.7344 7.48514
51.7841 7.43863
51.8336 7.42516
51.8833 7.37063
51.9328 7.3283
51.9826 7.28695
52.0323 7.28773
52.0818 7.23479
52.1316 7.21843
52.1812 7.20877
52.231 7.14107
52.2806 7.13012
52.3304 7.09785
52.38 7.04587
52.4298 7.03017
52.4794 6.99386
52.5293 7.02231
52.5789 6.97394
52.6288 6.92019
52.6785 6.88318
52.7284 6.85998
52.7781 6.89765
52.828 6.81395
52.8777 6.76414
52.9276 6.74929
52.9774 6.74281
53.0273 6.72804
53.0771 6.68452
53.1271 6.64948
53.1769 6.6492
53.2269 6.57751
53.2767 6.55014
53.3267 6.51451
53.3765 6.52171
53.4266 6.47085
53.4766 6.44029
53.5265 6.39501
53.5765 6.39568
53.6264 6.36811
53.6765 6.35285
53.7264 6.30649
53.7765 6.28872
53.8265 6.24766
53.8766 6.23279
53.9266 6.22408
53.9767 6.18269
54.0267 6.1548
54.0769 6.125
54.1269 6.06051
54.1771 6.0359
54.2271 6.06528
54.2773 5.98657
54.3274 5.96653
54.3776 5.90863
54.4277 5.93023
54.478 5.86593
54.528 5.83572
54.5783 5.79614
54.6285 5.71489
54.6788 5.689
54.7289 5.65887
54.7792 5.61648
54.8296 5.5764
54.8798 5.54166
54.9301 5.47627
54.9803 5.47105
55.0307 5.45445
55.0809 5.4011
55.1314 5.40026
55.1816 5.31946
55.232 5.29254
55.2823 5.24956
55.3328 5.20199
55.383 5.14236
55.4335 5.08552
55.4838 5.02201
55.5344 5.03326
55.5847 4.92262
55.6352 4.93764
55.6856 4.97438
55.7361 4.79483