File: XRD/Ni3Fe_FD0846.xy
TT I
1.27165 7.26982
1.31627 7.22957
1.36089 6.51829
1.40551 6.44275
1.45013 5.96915
1.49476 6.35417
1.53938 5.44382
1.584 4.60599
1.62863 5.55547
1.67325 4.84154
1.71787 4.8913
1.7625 4.56516
1.80712 5.17979
1.85174 4.9464
1.89636 4.96987
1.94099 5.0875
1.98562 4.52663
2.03025 4.51391
2.07487 4.51836
2.11949 4.77138
2.16411 4.96489
2.20874 12.7074
2.25338 20.2298
2.298 6.585
2.34263 5.52272
2.38725 5.56823
2.43188 6.27616
2.4765 7.36701
2.52115 7.65414
2.56577 8.18455
2.6104 8.2844
2.65503 8.16804
2.69965 8.51944
2.7443 7.9388
2.78893 8.40379
2.83356 8.23076
2.87818 9.13756
2.92281 9.35601
2.96744 9.727
3.01209 10.5295
3.05672 11.1071
3.10135 12.0358
3.14599 12.85
3.19062 14.4821
3.23527 14.9586
3.2799 15.7451
3.32454 16.8254
3.36917 17.7263
3.4138 18.9785
3.45844 19.4424
3.50309 20.8979
3.54773 21.6312
3.59237 23.6944
3.637 82.5584
3.68164 53.8615
3.7263 25.869
3.77094 26.0584
3.81558 26.7627
3.86022 27.3429
3.90486 28.4266
3.9495 29.4631
3.99416 30.5187
4.0388 31.9659
4.08344 33.1176
4.12809 34.647
4.17273 36.7549
4.21738 42.0792
4.26204 219.131
4.30669 190.881
4.35133 47.0847
4.39598 43.9332
4.44063 52.5106
4.4853 61.9235
4.52995 49.8734
4.5746 51.2018
4.61925 52.763
4.6639 54.8818
4.70855 57.224
4.75322 59.7184
4.79788 63.4966
4.84253 66.5055
4.88719 70.7555
4.93184 73.9656
4.97652 79.4727
5.02118 85.5666
5.06583 92.6236
5.11049 103.168
5.15515 161.017
5.19981 304.991
5.24449 2578.81
5.28916 12305.2
5.33382 2715.62
5.37848 177.509
5.42315 125.722
5.46783 111.634
5.5125 104.263
5.55716 100.649
5.60183 97.4606
5.6465 95.2577
5.69117 92.7583
5.73586 90.8554
5.78053 90.6174
5.8252 89.5865
5.86988 90.9656
5.91455 92.1327
5.95924 98.2621
6.00392 183.286
6.0486 872.096
6.09328 4399.99
6.13795 3113.55
6.18263 228.169
6.22733 90.0887
6.27201 81.3405
6.3167 97.3203
6.36138 78.4643
6.40606 67.966
6.45075 66.8267
6.49545 64.7718
6.54014 63.1584
6.58483 62.6266
6.62952 62.0132
6.67421 88.8117
6.71892 129.599
6.76361 66.7777
6.8083 57.693
6.853 56.8546
6.89769 56.2105
6.94239 56.3311
6.98711 55.0366
7.03181 55.0159
7.07651 54.8241
7.12121 54.3976
7.16591 54.6499
7.21063 54.8012
7.25533 68.3685
7.30004 157.189
7.34475 85.4669
7.38945 55.6185
7.43416 53.8933
7.47889 53.6689
7.5236 54.1453
7.56831 54.5085
7.61303 56.3687
7.65774 56.4127
7.70247 55.5819
7.74719 55.4962
7.79191 55.7989
7.83663 56.0344
7.88135 57.14
7.92607 58.1242
7.97081 59.2437
8.01553 60.0927
8.06026 61.2871
8.10498 63.1762
8.14971 71.0576
8.19446 71.049
8.23919 69.0435
8.28392 70.9707
8.32865 73.2927
8.37339 77.2926
8.41812 83.8235
8.46288 108.289
8.50761 150.217
8.55235 352.789
8.59709 1172.52
8.64183 2293.78
8.68658 938.231
8.73134 166.907
8.77609 97.4121
8.82083 91.1446
8.86558 88.3862
8.91033 88.5907
8.9551 89.856
8.99985 84.6085
9.04461 82.0268
9.08936 81.7636
9.13412 81.005
9.17888 81.3409
9.22365 81.2785
9.26841 80.9035
9.31318 81.3466
9.35794 82.2053
9.4027 82.4504
9.44749 83.3303
9.49226 83.7466
9.53703 84.706
9.5818 86.1045
9.62657 90.8276
9.67134 96.061
9.71614 92.5692
9.76091 92.9924
9.80569 95.224
9.85047 98.506
9.89525 119.681
9.94005 129.659
9.98484 161.85
10.0296 317.98
10.0744 797.861
10.1192 1754.48
10.164 1562.25
10.2088 398.828
10.2536 124.632
10.2984 111.098
10.3432 111.815
10.388 103.156
10.4328 114.046
10.4776 154.335
10.5224 280.387
10.5672 529.729
10.612 509.076
10.6568 202.006
10.7017 95.9384
10.7465 85.4281
10.7913 82.1248
10.8361 80.3901
10.8809 77.798
10.9257 77.1082
10.9706 77.3173
11.0154 73.8169
11.0602 71.7193
11.105 70.836
11.1499 74.6244
11.1947 80.4277
11.2395 72.6453
11.2844 69.1758
11.3292 66.3139
11.374 65.1058
11.4189 64.6981
11.4637 63.913
11.5086 64.6576
11.5534 66.98
11.5983 64.4263
11.6431 62.953
11.688 62.2034
11.7328 62.1126
11.7777 62.272
11.8225 61.3919
11.8674 61.6499
11.9122 62.0145
11.9571 62.0544
12.002 62.7094
12.0468 66.093
12.0917 76.0612
12.1366 100.134
12.1814 154.08
12.2263 211.813
12.2712 171.556
12.3161 94.6063
12.3609 69.1907
12.4058 63.9154
12.4507 63.2809
12.4956 63.6024
12.5405 63.7296
12.5853 64.7135
12.6302 71.3739
12.6751 75.816
12.72 68.5421
12.7649 67.1399
12.8098 67.7061
12.8547 68.595
12.8996 70.0211
12.9445 71.3579
12.9894 72.8223
13.0343 74.6421
13.0792 77.6377
13.1242 85.4326
13.1691 106.936
13.214 142.566
13.2589 240.429
13.3038 377.464
13.3487 413.738
13.3937 255.608
13.4386 121.871
13.4835 101.986
13.5285 115.512
13.5734 154.723
13.6183 250.752
13.6633 357.224
13.7082 334.062
13.7531 180.049
13.7981 96.131
13.843 80.6316
13.888 78.3402
13.9329 75.9767
13.9779 74.6743
14.0228 73.4447
14.0678 72.1758
14.1127 71.7866
14.1577 71.4503
14.2027 70.3354
14.2476 69.561
14.2926 69.7275
14.3376 70.4281
14.3825 69.2869
14.4275 67.8812
14.4725 67.6929
14.5175 67.834
14.5624 68.2043
14.6074 69.9557
14.6524 70.5698
14.6974 69.4242
14.7424 70.768
14.7874 76.1463
14.8324 85.9485
14.8774 107.991
14.9224 154.527
14.9674 216.249
15.0124 219.779
15.0574 147.692
15.1024 90.1748
15.1474 71.5824
15.1924 69.3404
15.2374 69.8818
15.2824 69.0499
15.3274 67.2026
15.3725 65.9776
15.4175 65.4523
15.4625 65.0172
15.5076 65.2856
15.5526 65.2198
15.5976 65.0203
15.6426 65.5462
15.6877 70.1167
15.7327 77.4283
15.7778 92.9318
15.8228 126.464
15.8679 172.748
15.9129 191.821
15.958 151.724
16.003 93.4906
16.0481 67.2289
16.0931 63.723
16.1382 61.6705
16.1833 59.8773
16.2283 58.1326
16.2734 57.6398
16.3185 57.8821
16.3636 58.272
16.4086 56.9231
16.4537 55.4654
16.4988 54.8293
16.5439 54.6399
16.589 54.4739
16.6341 54.0737
16.6792 53.8282
16.7243 54.1296
16.7694 54.019
16.8145 53.9571
16.8596 54.3759
16.9047 55.7921
16.9498 56.2
16.9949 54.8821
17.04 54.8257
17.0851 56.1981
17.1302 57.7385
17.1754 60.6103
17.2205 65.8625
17.2656 74.2652
17.3108 82.7581
17.3559 81.38
17.401 69.693
17.4462 61.2273
17.4913 58.3454
17.5365 58.2621
17.5815 58.3574
17.6268 58.8455
17.6718 59.4598
17.7171 59.9055
17.7622 60.3623
17.8074 60.9808
17.8525 62.9606
17.8977 66.4863
17.9428 71.9215
17.9881 80.7861
18.0331 99.4778
18.0784 121.818
18.1237 137.951
18.1688 127.188
18.214 101.491
18.2591 85.212
18.3044 90.8589
18.3495 100.392
18.3948 104.569
18.4399 93.9357
18.4852 76.0133
18.5303 64.9946
18.5756 61.506
18.6207 60.4099
18.666 59.4581
18.7112 58.8913
18.7565 58.2606
18.8016 57.8641
18.8469 57.384
18.892 57.0162
18.9374 56.4905
18.9825 56.2947
19.0278 56.1532
19.073 56.2189
19.1183 56.619
19.1635 57.1499
19.2088 58.6199
19.254 61.3261
19.2993 66.0292
19.3447 72.3218
19.3898 75.7935
19.4352 70.87
19.4804 61.9555
19.5257 56.0882
19.5709 53.5121
19.6163 53.2498
19.6615 52.9874
19.7068 52.6551
19.752 52.5005
19.7974 52.7797
19.8426 53.8386
19.888 54.2616
19.9332 55.3364
19.9786 58.0962
20.0238 61.8966
20.0692 66.9719
20.1144 68.9477
20.1598 67.2613
20.205 62.6724
20.2504 61.8979
20.2957 64.0917
20.3411 65.0597
20.3863 63.1156
20.4318 57.4435
20.477 53.0329
20.5224 51.0423
20.5677 50.301
20.6131 49.7195
20.6586 49.0471
20.7038 49.043
20.7493 48.5021
20.7945 48.3167
20.84 48.3665
20.8853 48.1233
20.9307 47.9409
20.976 48.0933
21.0215 48.0027
21.0668 48.3122
21.1122 48.8466
21.1575 49.4478
21.203 50.2863
21.2483 50.9085
21.2938 50.9814
21.3391 49.528
21.3846 48.3544
21.4299 47.7752
21.4754 47.6604
21.5207 47.8785
21.5662 48.2651
21.6116 48.4259
21.6571 49.0749
21.7024 50.0642
21.7479 51.7459
21.7933 54.7454
21.8388 58.5225
21.8843 62.3025
21.9297 63.6608
21.9752 62.1169
22.0206 58.5882
22.0661 56.0049
22.1115 55.3619
22.157 55.0213
22.2024 53.4419
22.248 50.7133
22.2933 49.2375
22.3389 48.4794
22.3843 48.2942
22.4299 48.2234
22.4753 48.2164
22.5208 48.0264
22.5662 47.9641
22.6118 48.1186
22.6572 48.3271
22.7028 48.5245
22.7483 48.9218
22.7939 49.8238
22.8393 51.3699
22.8849 53.4434
22.9303 55.9371
22.9759 57.2516
23.0214 56.4644
23.067 53.7643
23.1126 50.4759
23.1581 48.5918
23.2037 48.1242
23.2492 48.0955
23.2948 48.0649
23.3403 48.2981
23.3859 49.1098
23.4314 50.2071
23.477 52.182
23.5225 54.4158
23.5682 56.7329
23.6137 57.2
23.6593 54.6501
23.7048 50.999
23.7505 47.7711
23.796 46.2517
23.8417 45.4704
23.8872 44.9582
23.9329 44.7458
23.9784 44.2948
24.0241 44.0816
24.0697 43.9327
24.1154 43.7756
24.1609 43.4952
24.2066 43.2652
24.2522 43.0849
24.2979 42.7759
24.3434 42.7874
24.3892 42.633
24.4349 42.7266
24.4805 42.3785
24.5262 42.5285
24.5718 42.4923
24.6175 42.4291
24.6631 42.4247
24.7089 42.0052
24.7545 41.8226
24.8002 41.7483
24.8458 41.6672
24.8916 41.4524
24.9372 41.6523
24.983 42.005
25.0286 42.3683
25.0744 42.8123
25.12 43.0963
25.1658 43.873
25.2114 44.1699
25.2572 44.2453
25.3029 44.4836
25.3487 44.3131
25.3943 44.1156
25.4402 42.9554
25.4858 41.9297
25.5316 41.0987
25.5773 40.3697
25.6231 40.4598
25.669 40.0774
25.7147 39.9935
25.7605 39.8878
25.8062 40.0817
25.8521 40.1127
25.8977 40.0473
25.9436 40.2878
25.9893 40.5367
26.0352 41.1115
26.0809 41.1528
26.1268 41.0198
26.1725 40.7646
26.2184 40.17
26.2641 39.6476
26.31 39.6156
26.3557 39.5075
26.4017 39.5503
26.4474 39.9347
26.4933 40.3567
26.5391 40.7182
26.585 41.3046
26.6308 41.5706
26.6767 41.5895
26.7225 41.4448
26.7684 40.8282
26.8142 40.4276
26.8601 40.0112
26.9059 39.5516
26.9519 39.0686
26.9979 38.784
27.0437 38.426
27.0896 38.2419
27.1354 38.253
27.1814 38.275
27.2272 38.142
27.2732 38.1721
27.3191 37.8523
27.3651 38.0102
27.4109 37.8889
27.4569 38.1215
27.5027 38.0934
27.5488 38.1909
27.5946 37.8908
27.6407 37.6825
27.6865 37.5896
27.7326 37.4375
27.7784 37.4163
27.8245 37.3664
27.8703 37.6408
27.9164 37.9244
27.9623 37.932
28.0084 38.3464
28.0543 38.7739
28.1003 38.594
28.1462 38.3512
28.1923 37.903
28.2384 37.522
28.2843 37.1275
28.3304 36.7975
28.3764 36.3269
28.4225 35.9919
28.4684 35.8719
28.5145 35.6018
28.5605 35.4981
28.6066 35.3292
28.6526 35.1583
28.6987 35.3196
28.7447 35.1412
28.7908 34.953
28.8368 35.0651
28.8829 35.1072
28.9289 34.8573
28.9751 34.7023
29.0211 34.5332
29.0673 34.2392
29.1133 34.3146
29.1595 34.1204
29.2055 33.9635
29.2517 33.9622
29.2977 33.8218
29.3439 33.8581
29.3899 33.8099
29.4361 33.7747
29.4824 33.5899
29.5284 33.2564
29.5746 33.0097
29.6207 32.7584
29.6669 32.6643
29.713 32.629
29.7593 32.4715
29.8053 32.4999
29.8516 32.3902
29.8977 32.3317
29.9439 32.2411
29.99 32.3083
30.0363 32.1131
30.0824 32.081
30.1287 31.9921
30.1748 32.073
30.2211 32.0961
30.2673 31.8105
30.3136 31.9255
30.3597 31.8515
30.406 31.8579
30.4522 31.6413
30.4985 31.6155
30.5447 31.7642
30.591 31.7693
30.6372 31.8258
30.6835 31.8197
30.7297 31.8439
30.7761 31.7479
30.8224 31.5905
30.8686 31.4806
30.915 31.2263
30.9612 31.1649
31.0076 30.9797
31.0538 30.8511
31.1002 30.6561
31.1464 30.5537
31.1928 30.6709
31.2391 30.6226
31.2855 30.4609
31.3317 30.4867
31.3781 30.5362
31.4244 30.5361
31.4708 30.4199
31.5171 30.3821
31.5636 30.4237
31.6098 30.1262
31.6563 30.037
31.7026 29.9487
31.7491 29.7495
31.7953 29.7933
31.8418 29.7684
31.8881 29.7802
31.9346 29.8158
31.9809 29.7332
32.0275 29.6309
32.074 29.5033
32.1203 29.2993
32.1668 29.1591
32.2132 29.0958
32.2597 28.873
32.306 28.869
32.3526 28.6222
32.399 28.6413
32.4455 28.451
32.4919 28.4219
32.5385 28.2767
32.5848 28.2484
32.6314 28.2554
32.6778 28.1328
32.7244 27.96
32.7708 27.8341
32.8174 27.8065
32.8638 27.6788
32.9104 27.7261
32.9569 27.6955
33.0035 27.5918
33.0499 27.5032
33.0966 27.5104
33.143 27.4211
33.1897 27.3143
33.2361 27.3457
33.2828 27.316
33.3293 27.1099
33.3759 27.1445
33.4226 26.9065
33.4691 26.8021
33.5158 26.7566
33.5623 26.5666
33.609 26.4835
33.6555 26.3201
33.7022 26.3239
33.7487 26.1642
33.7954 26.1688
33.842 26.0438
33.8887 26.0153
33.9353 26.0271
33.982 25.7629
34.0286 25.6733
34.0753 25.6957
34.1219 25.6
34.1687 25.591
34.2152 25.4629
34.262 25.3668
34.3086 25.2686
34.3554 25.1644
34.402 25.1745
34.4488 25.0277
34.4954 24.9868
34.5422 24.922
34.5889 24.7747
34.6357 24.7157
34.6825 24.6726
34.7292 24.5392
34.776 24.4924
34.8227 24.4041
34.8695 24.3829
34.9162 24.2589
34.9631 24.2555
35.0098 24.1977
35.0566 24.0388
35.1033 23.9943
35.1502 24.0057
35.1969 23.9132
35.2438 23.8945
35.2906 23.8091
35.3375 23.753
35.3842 23.7425
35.4311 23.6433
35.4779 23.7047
35.5248 23.5972
35.5716 23.5068
35.6185 23.439
35.6653 23.3732
35.7123 23.2973
35.759 23.2164
35.806 23.1203
35.8528 23.027
35.8998 22.9319
35.9468 22.936
35.9936 22.8087
36.0406 22.8088
36.0874 22.7094
36.1345 22.5728
36.1813 22.5245
36.2283 22.4026
36.2752 22.3834
36.3222 22.4023
36.3691 22.3363
36.4161 22.1164
36.463 22.2178
36.5101 22.0925
36.557 22.0767
36.6041 21.9265
36.651 21.9434
36.6981 21.8357
36.745 21.8995
36.7921 21.7464
36.839 21.6795
36.8861 21.6512
36.9331 21.4437
36.9802 21.4675
37.0272 21.3385
37.0743 21.2425
37.1213 21.2503
37.1684 21.1746
37.2154 21.1457
37.2626 20.9812
37.3098 20.9725
37.3568 20.8537
37.404 20.8195
37.451 20.7351
37.4982 20.7325
37.5452 20.5761
37.5924 20.5143
37.6395 20.6181
37.6867 20.5067
37.7337 20.4057
37.781 20.3587
37.8281 20.3174
37.8753 20.182
37.9224 20.1158
37.9697 20.0564
38.0168 20.0443
38.064 19.9041
38.1111 19.8816
38.1584 19.7756
38.2056 19.6525
38.2529 19.67
38.3 19.578
38.3473 19.54
38.3945 19.4127
38.4418 19.5292
38.489 19.3867
38.5363 19.2485
38.5837 19.2247
38.6309 19.1439
38.6782 19.152
38.7254 18.9996
38.7728 19.0466
38.82 18.897
38.8674 18.7908
38.9146 18.7999
38.9621 18.7606
39.0093 18.7473
39.0567 18.6797
39.104 18.5805
39.1514 18.3966
39.1987 18.3767
39.2461 18.4337
39.2934 18.2657
39.3409 18.3203
39.3882 18.2139
39.4356 18.1443
39.483 18.0921
39.5304 18.0647
39.5778 18.0555
39.6253 18.0209
39.6726 17.9141
39.7201 17.8762
39.7675 17.823
39.815 17.7068
39.8624 17.6808
39.9099 17.6016
39.9575 17.5715
40.0049 17.5047
40.0525 17.3734
40.0999 17.3889
40.1474 17.3773
40.1949 17.3004
40.2425 17.1945
40.2899 17.1189
40.3375 17.1034
40.385 17.066
40.4326 17.0024
40.48 16.8578
40.5277 16.8972
40.5752 16.8136
40.6228 16.799
40.6703 16.7633
40.718 16.7152
40.7655 16.634
40.8132 16.5815
40.8607 16.5448
40.9084 16.5264
40.9559 16.4726
41.0036 16.435
41.0512 16.2928
41.0989 16.2642
41.1465 16.1793
41.1942 16.1154
41.242 16.0327
41.2896 16.0238
41.3373 16.0074
41.3849 15.9192
41.4327 15.9073
41.4803 15.7785
41.5281 15.8111
41.5758 15.7265
41.6236 15.6743
41.6712 15.618
41.7191 15.5696
41.7667 15.5055
41.8146 15.4806
41.8622 15.3537
41.9101 15.3486
41.9578 15.2391
42.0057 15.2551
42.0534 15.1879
42.1013 15.1469
42.149 15.1723
42.1969 15.0353
42.2446 15.006
42.2925 14.9994
42.3403 14.8927
42.3882 14.8937
42.436 14.8143
42.4839 14.7618
42.5319 14.7147
42.5797 14.6307
42.6277 14.6333
42.6755 14.5417
42.7235 14.4567
42.7713 14.4839
42.8193 14.4571
42.8671 14.3459
42.9152 14.2742
42.963 14.2415
43.0111 14.1981
43.0589 14.1784
43.107 14.1427
43.1549 14.0756
43.2029 14.0055
43.2508 13.9752
43.2989 13.8854
43.3468 13.828
43.3949 13.7771
43.4429 13.7796
43.491 13.7102
43.5389 13.6475
43.5871 13.6521
43.635 13.5515
43.6832 13.5607
43.7312 13.4477
43.7793 13.4167
43.8273 13.4439
43.8755 13.3722
43.9237 13.3132
43.9717 13.2648
44.0199 13.2459
44.068 13.2106
44.1162 13.1157
44.1642 13.0976
44.2125 13.0214
44.2606 13.0538
44.3088 12.9371
44.3569 12.9384
44.4052 12.8638
44.4533 12.7991
44.5016 12.7165
44.5497 12.7464
44.598 12.673
44.6461 12.6384
44.6945 12.5898
44.7426 12.5485
44.791 12.4748
44.8391 12.4772
44.8875 12.3653
44.9357 12.3563
44.984 12.2701
45.0322 12.2833
45.0806 12.2294
45.1288 12.1789
45.1773 12.1307
45.2257 12.1105
45.2739 12.078
45.3224 12.042
45.3706 11.9609
45.4191 11.9372
45.4673 11.8954
45.5158 11.86
45.5641 11.8148
45.6126 11.7788
45.6609 11.7438
45.7094 11.6735
45.7577 11.6528
45.8063 11.5871
45.8546 11.559
45.9031 11.5273
45.9515 11.5208
46.0001 11.4402
46.0484 11.4053
46.097 11.3457
46.1454 11.3411
46.194 11.267
46.2424 11.1911
46.291 11.2033
46.3395 11.1421
46.3881 11.0693
46.4365 11.0834
46.4852 11.0183
46.5337 10.9501
46.5823 10.9887
46.631 10.892
46.6795 10.903
46.7282 10.8331
46.7767 10.7831
46.8254 10.7494
46.8739 10.7291
46.9226 10.6757
46.9712 10.6228
47.0199 10.5971
47.0685 10.5627
47.1173 10.5234
47.1658 10.4663
47.2146 10.4263
47.2632 10.3642
47.312 10.3709
47.3606 10.3134
47.4095 10.2807
47.4581 10.2194
47.5069 10.2041
47.5556 10.1812
47.6044 10.1456
47.6531 10.0977
47.702 10.0288
47.7507 10.0326
47.7996 9.99763
47.8483 9.94837
47.8972 9.9179
47.9461 9.88599
47.9948 9.83279
48.0438 9.82079
48.0925 9.82852
48.1415 9.71476
48.1902 9.70117
48.2392 9.68324
48.288 9.64466
48.337 9.58305
48.3858 9.55916
48.4348 9.54376
48.4837 9.46802
48.5327 9.4606
48.5815 9.44247
48.6306 9.41103
48.6795 9.35481
48.7285 9.31401
48.7774 9.28928
48.8265 9.2471
48.8754 9.22304
48.9245 9.19812
48.9734 9.13099
49.0226 9.12901
49.0715 9.06845
49.1206 9.07821
49.1696 9.00624
49.2188 8.96907
49.2679 8.93234
49.3169 8.8899
49.3661 8.85089
49.4151 8.83826
49.4643 8.81369
49.5134 8.74901
49.5626 8.75283
49.6117 8.68875
49.6609 8.67917
49.71 8.60425
49.7592 8.59006
49.8083 8.55996
49.8576 8.55814
49.9067 8.49592
49.956 8.45624
50.0052 8.40971
50.0545 8.43685
50.1036 8.35611
50.153 8.36011
50.2022 8.32468
50.2515 8.24965
50.3007 8.21014
50.3501 8.19606
50.3993 8.20098
50.4487 8.13709
50.498 8.10111
50.5474 8.07446
50.5966 8.0339
50.6461 8.03673
50.6955 8.00768
50.7448 7.95966
50.7943 7.94034
50.8436 7.88743
50.8931 7.85247
50.9424 7.85282
50.9919 7.80002
51.0413 7.79146
51.0908 7.74808
51.1402 7.75139
51.1897 7.67854
51.2391 7.66024
51.2887 7.59573
51.3381 7.57273
51.3877 7.54576
51.4371 7.52415
51.4867 7.49832
51.5362 7.47412
51.5858 7.43333
51.6353 7.4074
51.6849 7.36336
51.7344 7.37657
51.7841 7.32438
51.8336 7.25847
51.8833 7.29624
51.9328 7.25386
51.9826 7.16412
52.0323 7.1952
52.0818 7.1155
52.1316 7.09094
52.1812 7.10614
52.231 7.09025
52.2806 7.02203
52.3304 7.01907
52.38 6.92498
52.4298 6.96793
52.4794 6.94165
52.5293 6.86382
52.5789 6.83051
52.6288 6.83717
52.6785 6.75773
52.7284 6.74888
52.7781 6.74177
52.828 6.70537
52.8777 6.66768
52.9276 6.63766
52.9774 6.64682
53.0273 6.60898
53.0771 6.57174
53.1271 6.567
53.1769 6.49664
53.2269 6.49478
53.2767 6.45252
53.3267 6.38353
53.3765 6.4404
53.4266 6.40049
53.4766 6.3612
53.5265 6.34692
53.5765 6.31767
53.6264 6.27949
53.6765 6.25801
53.7264 6.22219
53.7765 6.17318
53.8265 6.12961
53.8766 6.09389
53.9266 6.09007
53.9767 6.06104
54.0267 6.08232
54.0769 6.04366
54.1269 5.98546
54.1771 5.94751
54.2271 5.94012
54.2773 5.86142
54.3274 5.89223
54.3776 5.8511
54.4277 5.79276
54.478 5.75499
54.528 5.73903
54.5783 5.73707
54.6285 5.68949
54.6788 5.60552
54.7289 5.60823
54.7792 5.57294
54.8296 5.49815
54.8798 5.43735
54.9301 5.42683
54.9803 5.3558
55.0307 5.39396
55.0809 5.34495
55.1314 5.31091
55.1816 5.20853
55.232 5.16473
55.2823 5.12815
55.3328 5.10064
55.383 5.03513
55.4335 4.99071
55.4838 4.94632
55.5344 4.91761
55.5847 4.85786
55.6352 4.90015
55.6856 4.78505
55.7361 4.74969