File: XRD/Ni3Fe_FD0921.xy
TT I
1.27165 6.96434
1.31627 6.36537
1.36089 6.15207
1.40551 6.36904
1.45013 6.0998
1.49476 6.21496
1.53938 5.36438
1.584 5.4762
1.62863 5.12289
1.67325 5.18018
1.71787 5.03639
1.7625 5.01524
1.80712 4.70226
1.85174 4.91851
1.89636 4.4457
1.94099 4.53993
1.98562 5.53739
2.03025 4.03509
2.07487 4.40597
2.11949 5.29052
2.16411 4.59691
2.20874 9.02537
2.25338 11.7459
2.298 5.69929
2.34263 5.70966
2.38725 6.17621
2.43188 6.03977
2.4765 6.55167
2.52115 7.37421
2.56577 8.50543
2.6104 8.31543
2.65503 7.86621
2.69965 7.99988
2.7443 8.53446
2.78893 8.10278
2.83356 8.19129
2.87818 9.1532
2.92281 9.48431
2.96744 9.64227
3.01209 10.4325
3.05672 10.9153
3.10135 12.4214
3.14599 13.4809
3.19062 14.4974
3.23527 15.2898
3.2799 15.9438
3.32454 16.8342
3.36917 17.5126
3.4138 19.0719
3.45844 19.5722
3.50309 20.5137
3.54773 21.6607
3.59237 23.1144
3.637 51.4114
3.68164 37.6221
3.7263 25.2307
3.77094 25.9165
3.81558 26.3563
3.86022 27.2429
3.90486 28.3376
3.9495 29.3619
3.99416 30.2743
4.0388 31.7853
4.08344 32.9781
4.12809 34.4829
4.17273 35.6346
4.21738 39.3261
4.26204 125.007
4.30669 107.82
4.35133 44.4125
4.39598 43.2286
4.44063 48.5109
4.4853 54.0453
4.52995 56.2792
4.5746 57.6516
4.61925 53.1332
4.6639 55.2522
4.70855 57.4427
4.75322 60.922
4.79788 67.0654
4.84253 67.518
4.88719 74.8038
4.93184 75.7318
4.97652 79.8732
5.02118 85.696
5.06583 93.5063
5.11049 104.366
5.15515 153.433
5.19981 364.283
5.24449 2746.25
5.28916 13522.4
5.33382 2648.11
5.37848 189.377
5.42315 127.809
5.46783 117.698
5.5125 110.774
5.55716 100.514
5.60183 96.5327
5.6465 95.154
5.69117 93.4526
5.73586 91.5293
5.78053 96.7331
5.8252 97.0372
5.86988 99.3484
5.91455 93.7171
5.95924 101.819
6.00392 223.648
6.0486 921.758
6.09328 4632.83
6.13795 2980.23
6.18263 191.721
6.22733 87.7995
6.27201 78.982
6.3167 83.7862
6.36138 73.588
6.40606 69.2488
6.45075 68.7332
6.49545 64.5952
6.54014 62.5847
6.58483 62.0669
6.62952 62.1345
6.67421 73.2479
6.71892 90.9881
6.76361 61.6636
6.8083 58.4889
6.853 59.1569
6.89769 55.9067
6.94239 55.6978
6.98711 54.8485
7.03181 55.4278
7.07651 53.8606
7.12121 54.1086
7.16591 55.3481
7.21063 54.9558
7.25533 60.3529
7.30004 101.938
7.34475 67.9502
7.38945 53.8953
7.43416 53.2667
7.47889 53.1391
7.5236 53.5328
7.56831 54.0238
7.61303 54.6995
7.65774 55.7279
7.70247 56.3481
7.74719 55.8409
7.79191 55.7654
7.83663 55.6302
7.88135 56.7252
7.92607 57.7405
7.97081 58.5312
8.01553 59.9316
8.06026 61.9766
8.10498 63.245
8.14971 70.2142
8.19446 70.067
8.23919 68.2807
8.28392 71.0241
8.32865 72.9969
8.37339 77.3086
8.41812 82.5384
8.46288 101.339
8.50761 169.53
8.55235 364.112
8.59709 1199.48
8.64183 2265.48
8.68658 839.95
8.73134 141.306
8.77609 95.4046
8.82083 90.9275
8.86558 91.0359
8.91033 90.91
8.9551 88.8866
8.99985 83.8809
9.04461 82.9603
9.08936 83.1359
9.13412 81.8061
9.17888 80.9096
9.22365 81.0153
9.26841 81.0203
9.31318 83.7343
9.35794 85.7857
9.4027 84.7567
9.44749 84.0738
9.49226 83.6217
9.53703 84.7099
9.5818 88.2233
9.62657 93.4572
9.67134 94.5726
9.71614 91.8609
9.76091 93.3535
9.80569 97.8174
9.85047 99.8139
9.89525 111.491
9.94005 124.794
9.98484 183.224
10.0296 330.867
10.0744 829.209
10.1192 1859.59
10.164 1481.84
10.2088 324.854
10.2536 118.37
10.2984 107.562
10.3432 106.541
10.388 102.921
10.4328 118.832
10.4776 157.287
10.5224 288.467
10.5672 543.819
10.612 485.441
10.6568 177.742
10.7017 92.0108
10.7465 84.7566
10.7913 81.7424
10.8361 79.6293
10.8809 77.5503
10.9257 76.9202
10.9706 77.1218
11.0154 74.2171
11.0602 71.4942
11.105 70.5376
11.1499 71.2923
11.1947 73.4573
11.2395 69.4855
11.2844 67.3638
11.3292 65.8367
11.374 65.1711
11.4189 64.6662
11.4637 63.9581
11.5086 63.331
11.5534 64.6327
11.5983 63.3244
11.6431 62.4482
11.688 61.6186
11.7328 61.6333
11.7777 61.7103
11.8225 61.915
11.8674 61.7221
11.9122 61.7486
11.9571 61.9006
12.002 63.284
12.0468 67.5975
12.0917 76.994
12.1366 101.705
12.1814 158.142
12.2263 212.136
12.2712 153.817
12.3161 85.3526
12.3609 65.7044
12.4058 63.0352
12.4507 63.1916
12.4956 63.4115
12.5405 63.6987
12.5853 64.157
12.6302 67.4121
12.6751 70.0161
12.72 67.1405
12.7649 66.8548
12.8098 67.4131
12.8547 68.4505
12.8996 70.3351
12.9445 71.9692
12.9894 73.1618
13.0343 74.9417
13.0792 78.7615
13.1242 90.5695
13.1691 108.812
13.214 145.187
13.2589 245.772
13.3038 391.007
13.3487 423.552
13.3937 230.114
13.4386 114.218
13.4835 104.057
13.5285 117.82
13.5734 156.879
13.6183 257.996
13.6633 377.923
13.7082 327.443
13.7531 167.057
13.7981 91.277
13.843 79.8548
13.888 78.1364
13.9329 75.7713
13.9779 74.4768
14.0228 72.9191
14.0678 71.8332
14.1127 71.1258
14.1577 70.8067
14.2027 70.1164
14.2476 69.3272
14.2926 68.8165
14.3376 68.9892
14.3825 68.6192
14.4275 67.881
14.4725 67.916
14.5175 67.878
14.5624 67.7901
14.6074 68.8481
14.6524 69.2743
14.6974 69.43
14.7424 72.2353
14.7874 78.0772
14.8324 87.0859
14.8774 110.153
14.9224 158.58
14.9674 217.19
15.0124 213.732
15.0574 138.013
15.1024 83.9031
15.1474 70.31
15.1924 68.7498
15.2374 68.4701
15.2824 67.6087
15.3274 66.4432
15.3725 65.5717
15.4175 65.3174
15.4625 64.9039
15.5076 64.6596
15.5526 64.7885
15.5976 64.8851
15.6426 66.7185
15.6877 71.4841
15.7327 78.4555
15.7778 93.7734
15.8228 128.412
15.8679 177.565
15.9129 194.773
15.958 145.677
16.003 86.6126
16.0481 64.7822
16.0931 62.0586
16.1382 60.4366
16.1833 59.1009
16.2283 57.8384
16.2734 56.9868
16.3185 56.852
16.3636 56.7059
16.4086 55.7878
16.4537 54.8681
16.4988 54.4558
16.5439 54.3603
16.589 54.1853
16.6341 53.8531
16.6792 53.4719
16.7243 53.5447
16.7694 53.611
16.8145 53.6467
16.8596 54.1301
16.9047 54.5683
16.9498 54.6546
16.9949 54.2605
17.04 55.1464
17.0851 56.1069
17.1302 57.3198
17.1754 60.436
17.2205 66.2202
17.2656 74.479
17.3108 82.9201
17.3559 79.6429
17.401 67.3868
17.4462 59.9504
17.4913 57.9267
17.5365 57.9807
17.5815 58.1945
17.6268 58.5575
17.6718 59.1913
17.7171 59.5518
17.7622 60.3379
17.8074 61.3787
17.8525 63.9757
17.8977 66.965
17.9428 72.21
17.9881 81.9077
18.0331 101.148
18.0784 125.306
18.1237 139.369
18.1688 125.0
18.214 96.2901
18.2591 83.6392
18.3044 90.7483
18.3495 101.921
18.3948 105.527
18.4399 90.6258
18.4852 72.8815
18.5303 63.6719
18.5756 60.7804
18.6207 60.1237
18.666 59.044
18.7112 58.5525
18.7565 57.8448
18.8016 57.6483
18.8469 57.007
18.892 56.5317
18.9374 56.2937
18.9825 55.8158
19.0278 55.8069
19.073 55.9107
19.1183 56.2251
19.1635 56.5936
19.2088 58.1829
19.254 61.0468
19.2993 66.1938
19.3447 72.1396
19.3898 74.9146
19.4352 69.1456
19.4804 60.2056
19.5257 55.0455
19.5709 53.0101
19.6163 52.9266
19.6615 52.7148
19.7068 52.4186
19.752 52.4759
19.7974 52.7773
19.8426 53.2162
19.888 53.888
19.9332 55.1899
19.9786 58.069
20.0238 62.4969
20.0692 67.549
20.1144 69.6156
20.1598 66.2285
20.205 61.7427
20.2504 61.4567
20.2957 64.1707
20.3411 65.2677
20.3863 62.3096
20.4318 55.9607
20.477 51.9805
20.5224 50.2349
20.5677 49.6423
20.6131 49.3086
20.6586 48.8178
20.7038 48.6482
20.7493 48.1541
20.7945 48.1057
20.84 48.0201
20.8853 48.05
20.9307 47.7586
20.976 47.871
21.0215 47.6986
21.0668 48.2493
21.1122 48.583
21.1575 49.2289
21.203 50.2798
21.2483 50.7149
21.2938 50.4947
21.3391 48.8739
21.3846 47.8825
21.4299 47.4849
21.4754 47.5227
21.5207 47.8244
21.5662 48.2135
21.6116 48.622
21.6571 48.9811
21.7024 49.954
21.7479 51.7277
21.7933 54.773
21.8388 58.9682
21.8843 63.0274
21.9297 64.2346
21.9752 61.3126
22.0206 57.4068
22.0661 55.3192
22.1115 55.5595
22.157 54.9191
22.2024 52.7387
22.248 49.9679
22.2933 48.7871
22.3389 48.0617
22.3843 48.0075
22.4299 47.7509
22.4753 47.9123
22.5208 47.7994
22.5662 47.5851
22.6118 47.8141
22.6572 47.9173
22.7028 48.4286
22.7483 48.8959
22.7939 49.5876
22.8393 51.1991
22.8849 53.5967
22.9303 55.9724
22.9759 57.3872
23.0214 56.0252
23.067 52.7213
23.1126 49.6291
23.1581 48.0917
23.2037 47.9991
23.2492 48.053
23.2948 47.7899
23.3403 48.4301
23.3859 48.765
23.4314 49.9346
23.477 52.1756
23.5225 54.7482
23.5682 56.9068
23.6137 57.2691
23.6593 53.9359
23.7048 49.7464
23.7505 46.9461
23.796 45.5337
23.8417 45.059
23.8872 44.7885
23.9329 44.4658
23.9784 44.0057
24.0241 43.8525
24.0697 43.613
24.1154 43.4341
24.1609 43.1489
24.2066 42.8987
24.2522 42.9533
24.2979 42.5855
24.3434 42.5894
24.3892 42.3652
24.4349 42.2683
24.4805 42.258
24.5262 42.5047
24.5718 42.2252
24.6175 42.1122
24.6631 42.1457
24.7089 41.893
24.7545 41.6198
24.8002 41.6465
24.8458 41.6054
24.8916 41.3294
24.9372 41.4849
24.983 41.8126
25.0286 42.2349
25.0744 42.6285
25.12 43.2919
25.1658 43.7692
25.2114 43.9162
25.2572 44.094
25.3029 44.358
25.3487 44.1736
25.3943 43.6581
25.4402 42.4713
25.4858 41.4509
25.5316 40.6089
25.5773 40.0615
25.6231 40.1353
25.669 39.8156
25.7147 39.7671
25.7605 39.6142
25.8062 39.7623
25.8521 39.8438
25.8977 39.7887
25.9436 40.2399
25.9893 40.3937
26.0352 40.9002
26.0809 40.9642
26.1268 40.9703
26.1725 40.5606
26.2184 39.8263
26.2641 39.4202
26.31 39.481
26.3557 39.4767
26.4017 39.3925
26.4474 39.7067
26.4933 39.9294
26.5391 40.6446
26.585 41.0757
26.6308 41.6147
26.6767 41.387
26.7225 41.1002
26.7684 40.6108
26.8142 40.0592
26.8601 39.8128
26.9059 39.265
26.9519 38.7321
26.9979 38.5827
27.0437 38.1214
27.0896 38.0521
27.1354 38.0457
27.1814 37.8154
27.2272 37.7217
27.2732 37.977
27.3191 37.6441
27.3651 37.8809
27.4109 37.7874
27.4569 37.9614
27.5027 38.0009
27.5488 38.0518
27.5946 37.7009
27.6407 37.5298
27.6865 37.3797
27.7326 37.1885
27.7784 37.2664
27.8245 37.1599
27.8703 37.3606
27.9164 37.671
27.9623 37.92
28.0084 38.1016
28.0543 38.4782
28.1003 38.4067
28.1462 38.1426
28.1923 37.7359
28.2384 37.2557
28.2843 37.033
28.3304 36.5441
28.3764 35.9944
28.4225 35.7857
28.4684 35.6855
28.5145 35.3892
28.5605 35.1957
28.6066 35.1606
28.6526 34.9317
28.6987 34.911
28.7447 34.8686
28.7908 34.7638
28.8368 34.8873
28.8829 34.8563
28.9289 34.757
28.9751 34.4753
29.0211 34.2606
29.0673 34.0075
29.1133 34.0043
29.1595 33.7394
29.2055 33.7905
29.2517 33.7276
29.2977 33.6543
29.3439 33.797
29.3899 33.6878
29.4361 33.6108
29.4824 33.3358
29.5284 33.183
29.5746 32.8129
29.6207 32.5472
29.6669 32.4433
29.713 32.4171
29.7593 32.2931
29.8053 32.2989
29.8516 32.1314
29.8977 32.1674
29.9439 32.0362
29.99 31.9768
30.0363 31.9709
30.0824 31.9458
30.1287 31.9498
30.1748 31.9184
30.2211 31.8633
30.2673 31.7019
30.3136 31.837
30.3597 31.6136
30.406 31.6658
30.4522 31.5264
30.4985 31.5292
30.5447 31.5823
30.591 31.5941
30.6372 31.6408
30.6835 31.5924
30.7297 31.6812
30.7761 31.5997
30.8224 31.4416
30.8686 31.3454
30.915 31.0737
30.9612 30.9032
31.0076 30.6992
31.0538 30.6057
31.1002 30.467
31.1464 30.3915
31.1928 30.4458
31.2391 30.4018
31.2855 30.2819
31.3317 30.3671
31.3781 30.4667
31.4244 30.5028
31.4708 30.3381
31.5171 30.3769
31.5636 30.267
31.6098 29.9182
31.6563 29.7595
31.7026 29.616
31.7491 29.5014
31.7953 29.6196
31.8418 29.5992
31.8881 29.6123
31.9346 29.6064
31.9809 29.6207
32.0275 29.4622
32.074 29.2349
32.1203 29.1004
32.1668 28.9882
32.2132 28.8008
32.2597 28.7732
32.306 28.6277
32.3526 28.4723
32.399 28.4396
32.4455 28.2952
32.4919 28.2097
32.5385 28.1567
32.5848 27.98
32.6314 28.0583
32.6778 27.9244
32.7244 27.8278
32.7708 27.5945
32.8174 27.7266
32.8638 27.5025
32.9104 27.6121
32.9569 27.4905
33.0035 27.3247
33.0499 27.3967
33.0966 27.3231
33.143 27.2685
33.1897 27.2209
33.2361 27.0792
33.2828 27.1577
33.3293 26.9083
33.3759 26.9301
33.4226 26.7332
33.4691 26.6437
33.5158 26.5265
33.5623 26.4843
33.609 26.2954
33.6555 26.2183
33.7022 26.0868
33.7487 26.0819
33.7954 26.0516
33.842 25.8418
33.8887 25.816
33.9353 25.7478
33.982 25.6643
34.0286 25.6872
34.0753 25.5216
34.1219 25.4164
34.1687 25.343
34.2152 25.3072
34.262 25.2459
34.3086 25.1297
34.3554 25.0432
34.402 24.8854
34.4488 24.7815
34.4954 24.7468
34.5422 24.742
34.5889 24.5776
34.6357 24.5563
34.6825 24.4283
34.7292 24.3709
34.776 24.3279
34.8227 24.297
34.8695 24.3195
34.9162 24.2149
34.9631 24.0345
35.0098 24.1153
35.0566 23.9623
35.1033 23.9312
35.1502 23.7673
35.1969 23.8049
35.2438 23.7197
35.2906 23.6541
35.3375 23.6479
35.3842 23.5353
35.4311 23.5625
35.4779 23.5104
35.5248 23.4729
35.5716 23.3662
35.6185 23.2657
35.6653 23.2229
35.7123 23.1729
35.759 23.0387
35.806 22.926
35.8528 22.8744
35.8998 22.7807
35.9468 22.7029
35.9936 22.6639
36.0406 22.5868
36.0874 22.5808
36.1345 22.4991
36.1813 22.4381
36.2283 22.3165
36.2752 22.2499
36.3222 22.3178
36.3691 22.1991
36.4161 22.0489
36.463 22.076
36.5101 22.0277
36.557 21.9764
36.6041 21.8211
36.651 21.7474
36.6981 21.6766
36.745 21.687
36.7921 21.5913
36.839 21.4586
36.8861 21.3574
36.9331 21.3288
36.9802 21.278
37.0272 21.1947
37.0743 21.1168
37.1213 21.169
37.1684 21.0318
37.2154 21.0127
37.2626 20.8972
37.3098 20.8517
37.3568 20.7767
37.404 20.7506
37.451 20.6056
37.4982 20.5511
37.5452 20.5175
37.5924 20.4596
37.6395 20.4107
37.6867 20.3412
37.7337 20.2742
37.781 20.1506
37.8281 20.147
37.8753 20.0117
37.9224 19.8941
37.9697 19.9084
38.0168 19.9006
38.064 19.7803
38.1111 19.6938
38.1584 19.5928
38.2056 19.6171
38.2529 19.5112
38.3 19.5069
38.3473 19.5196
38.3945 19.328
38.4418 19.3278
38.489 19.2382
38.5363 19.1762
38.5837 19.0782
38.6309 19.134
38.6782 18.9848
38.7254 18.9144
38.7728 18.8786
38.82 18.7674
38.8674 18.7285
38.9146 18.7566
38.9621 18.5967
39.0093 18.5724
39.0567 18.5771
39.104 18.4967
39.1514 18.3469
39.1987 18.372
39.2461 18.258
39.2934 18.2462
39.3409 18.1671
39.3882 18.0946
39.4356 18.0409
39.483 18.0425
39.5304 17.9063
39.5778 17.8829
39.6253 17.8128
39.6726 17.7525
39.7201 17.769
39.7675 17.6591
39.815 17.5753
39.8624 17.5869
39.9099 17.5139
39.9575 17.369
40.0049 17.437
40.0525 17.2992
40.0999 17.2921
40.1474 17.2354
40.1949 17.1607
40.2425 17.0752
40.2899 17.0573
40.3375 17.0406
40.385 16.984
40.4326 16.8907
40.48 16.8314
40.5277 16.8154
40.5752 16.8092
40.6228 16.7074
40.6703 16.6794
40.718 16.5763
40.7655 16.4873
40.8132 16.5199
40.8607 16.451
40.9084 16.3956
40.9559 16.269
41.0036 16.3017
41.0512 16.2159
41.0989 16.1801
41.1465 16.0786
41.1942 16.0644
41.242 15.9585
41.2896 15.9149
41.3373 15.8613
41.3849 15.7882
41.4327 15.7403
41.4803 15.7402
41.5281 15.7109
41.5758 15.6058
41.6236 15.5825
41.6712 15.5032
41.7191 15.5091
41.7667 15.4209
41.8146 15.3446
41.8622 15.299
41.9101 15.2868
41.9578 15.1786
42.0057 15.1027
42.0534 15.1526
42.1013 15.0988
42.149 15.0396
42.1969 14.9417
42.2446 14.8688
42.2925 14.8515
42.3403 14.7894
42.3882 14.8069
42.436 14.7207
42.4839 14.6489
42.5319 14.6374
42.5797 14.5552
42.6277 14.5248
42.6755 14.4708
42.7235 14.3415
42.7713 14.4194
42.8193 14.334
42.8671 14.3094
42.9152 14.1551
42.963 14.1818
43.0111 14.1318
43.0589 14.0646
43.107 14.0102
43.1549 14.0151
43.2029 13.9321
43.2508 13.9175
43.2989 13.8883
43.3468 13.7486
43.3949 13.768
43.4429 13.6704
43.491 13.6216
43.5389 13.5985
43.5871 13.5209
43.635 13.5112
43.6832 13.4335
43.7312 13.3952
43.7793 13.3425
43.8273 13.2907
43.8755 13.2256
43.9237 13.25
43.9717 13.2119
44.0199 13.1168
44.068 13.1018
44.1162 13.0152
44.1642 12.999
44.2125 12.9573
44.2606 12.9454
44.3088 12.8448
44.3569 12.7999
44.4052 12.8044
44.4533 12.7272
44.5016 12.6734
44.5497 12.6064
44.598 12.6333
44.6461 12.5581
44.6945 12.5327
44.7426 12.4595
44.791 12.4108
44.8391 12.3688
44.8875 12.3391
44.9357 12.2814
44.984 12.2568
45.0322 12.2059
45.0806 12.1598
45.1288 12.1263
45.1773 12.065
45.2257 12.0142
45.2739 11.9984
45.3224 11.953
45.3706 11.9529
45.4191 11.8394
45.4673 11.862
45.5158 11.7679
45.5641 11.7166
45.6126 11.6304
45.6609 11.6574
45.7094 11.6453
45.7577 11.5761
45.8063 11.5284
45.8546 11.4978
45.9031 11.4586
45.9515 11.3637
46.0001 11.4096
46.0484 11.3504
46.097 11.312
46.1454 11.2538
46.194 11.1914
46.2424 11.1687
46.291 11.1629
46.3395 11.0477
46.3881 11.0316
46.4365 11.05
46.4852 10.9458
46.5337 10.9082
46.5823 10.9258
46.631 10.8118
46.6795 10.8231
46.7282 10.7465
46.7767 10.7242
46.8254 10.6938
46.8739 10.6336
46.9226 10.5919
46.9712 10.567
47.0199 10.509
47.0685 10.479
47.1173 10.4594
47.1658 10.3776
47.2146 10.3895
47.2632 10.329
47.312 10.3112
47.3606 10.2569
47.4095 10.2244
47.4581 10.1743
47.5069 10.1026
47.5556 10.0868
47.6044 10.0771
47.6531 10.0205
47.702 9.99952
47.7507 9.94926
47.7996 9.89146
47.8483 9.89191
47.8972 9.89385
47.9461 9.88498
47.9948 9.78562
48.0438 9.7328
48.0925 9.76187
48.1415 9.69091
48.1902 9.63147
48.2392 9.60354
48.288 9.57594
48.337 9.52894
48.3858 9.45589
48.4348 9.46201
48.4837 9.46663
48.5327 9.43175
48.5815 9.35796
48.6306 9.34288
48.6795 9.31289
48.7285 9.25738
48.7774 9.2139
48.8265 9.2091
48.8754 9.15139
48.9245 9.1577
48.9734 9.07775
49.0226 9.06928
49.0715 9.00771
49.1206 8.99542
49.1696 8.95514
49.2188 8.91618
49.2679 8.89236
49.3169 8.8164
49.3661 8.7955
49.4151 8.78014
49.4643 8.75294
49.5134 8.73123
49.5626 8.66958
49.6117 8.66704
49.6609 8.5835
49.71 8.57061
49.7592 8.5191
49.8083 8.49417
49.8576 8.47785
49.9067 8.42501
49.956 8.44191
50.0052 8.3563
50.0545 8.35754
50.1036 8.31694
50.153 8.31256
50.2022 8.26151
50.2515 8.23038
50.3007 8.15838
50.3501 8.15923
50.3993 8.16041
50.4487 8.11728
50.498 8.0733
50.5474 8.04964
50.5966 7.99921
50.6461 7.98705
50.6955 7.92224
50.7448 7.89472
50.7943 7.88162
50.8436 7.82122
50.8931 7.81488
50.9424 7.80829
50.9919 7.75091
51.0413 7.73285
51.0908 7.67673
51.1402 7.68934
51.1897 7.64061
51.2391 7.59048
51.2887 7.57976
51.3381 7.49271
51.3877 7.52788
51.4371 7.47651
51.4867 7.45906
51.5362 7.40362
51.5858 7.40905
51.6353 7.36842
51.6849 7.29825
51.7344 7.34382
51.7841 7.32403
51.8336 7.23362
51.8833 7.18938
51.9328 7.18246
51.9826 7.13516
52.0323 7.1237
52.0818 7.07883
52.1316 7.03553
52.1812 7.02946
52.231 7.01435
52.2806 6.97004
52.3304 6.93565
52.38 6.96071
52.4298 6.87822
52.4794 6.85957
52.5293 6.83893
52.5789 6.83762
52.6288 6.78066
52.6785 6.69862
52.7284 6.75285
52.7781 6.70587
52.828 6.6467
52.8777 6.61224
52.9276 6.57573
52.9774 6.57974
53.0273 6.56442
53.0771 6.50334
53.1271 6.51281
53.1769 6.45232
53.2269 6.48938
53.2767 6.46788
53.3267 6.40499
53.3765 6.34516
53.4266 6.33164
53.4766 6.30908
53.5265 6.31104
53.5765 6.29296
53.6264 6.19645
53.6765 6.21111
53.7264 6.18256
53.7765 6.14736
53.8265 6.10052
53.8766 6.08426
53.9266 6.08857
53.9767 6.0715
54.0267 6.03055
54.0769 5.98822
54.1269 5.94656
54.1771 5.95894
54.2271 5.89201
54.2773 5.80137
54.3274 5.88807
54.3776 5.7979
54.4277 5.78868
54.478 5.74693
54.528 5.70288
54.5783 5.67831
54.6285 5.58084
54.6788 5.59389
54.7289 5.55872
54.7792 5.52043
54.8296 5.50937
54.8798 5.43886
54.9301 5.39381
54.9803 5.32953
55.0307 5.31499
55.0809 5.2506
55.1314 5.24421
55.1816 5.23894
55.232 5.16151
55.2823 5.10247
55.3328 5.03851
55.383 5.01849
55.4335 5.0325
55.4838 4.91925
55.5344 4.87824
55.5847 4.88951
55.6352 4.80907
55.6856 4.73136
55.7361 4.7601