File: XRD/Ni3Fe_FD0192.xy
TT I
1.27165 8.27413
1.31627 6.89545
1.36089 7.23121
1.40551 6.97521
1.45013 6.46163
1.49476 6.84003
1.53938 6.83499
1.584 6.38428
1.62863 5.49547
1.67325 5.42707
1.71787 4.89189
1.7625 5.10324
1.80712 5.34072
1.85174 5.28536
1.89636 5.072
1.94099 5.14198
1.98562 4.9047
2.03025 4.23524
2.07487 4.99348
2.11949 4.69992
2.16411 4.8716
2.20874 4.82954
2.25338 4.59634
2.298 4.36531
2.34263 4.10521
2.38725 3.97322
2.43188 3.80948
2.4765 5.40439
2.52115 4.42698
2.56577 5.25257
2.6104 5.35867
2.65503 4.99566
2.69965 5.27609
2.7443 6.09203
2.78893 6.46945
2.83356 7.30881
2.87818 7.55894
2.92281 8.93093
2.96744 9.35669
3.01209 10.4973
3.05672 11.5176
3.10135 12.4938
3.14599 13.237
3.19062 14.4616
3.23527 15.2041
3.2799 16.1311
3.32454 16.9601
3.36917 18.1181
3.4138 18.8004
3.45844 19.9824
3.50309 21.1203
3.54773 21.5053
3.59237 22.2444
3.637 23.1871
3.68164 23.905
3.7263 25.0235
3.77094 25.4145
3.81558 26.9186
3.86022 27.3491
3.90486 28.8667
3.9495 29.7141
3.99416 30.3131
4.0388 32.3218
4.08344 33.702
4.12809 34.6424
4.17273 35.778
4.21738 36.8996
4.26204 38.7946
4.30669 39.7243
4.35133 41.8697
4.39598 43.4812
4.44063 45.0844
4.4853 47.2239
4.52995 49.8582
4.5746 52.0115
4.61925 54.7533
4.6639 56.8847
4.70855 60.3621
4.75322 62.7333
4.79788 66.6349
4.84253 70.4379
4.88719 74.689
4.93184 79.4382
4.97652 87.3508
5.02118 95.3925
5.06583 106.068
5.11049 122.856
5.15515 161.484
5.19981 631.164
5.24449 4000.64
5.28916 9360.84
5.33382 5200.32
5.37848 340.576
5.42315 160.139
5.46783 130.343
5.5125 118.353
5.55716 111.98
5.60183 106.437
5.6465 103.94
5.69117 102.593
5.73586 100.176
5.78053 99.3816
5.8252 99.843
5.86988 102.717
5.91455 109.917
5.95924 128.755
6.00392 328.07
6.0486 1464.37
6.09328 3172.83
6.13795 3833.58
6.18263 509.08
6.22733 116.285
6.27201 90.268
6.3167 80.9742
6.36138 75.9705
6.40606 71.6148
6.45075 69.6311
6.49545 67.4877
6.54014 65.8305
6.58483 64.3049
6.62952 62.8636
6.67421 61.5049
6.71892 60.5852
6.76361 59.8072
6.8083 58.5233
6.853 57.807
6.89769 57.1103
6.94239 57.0129
6.98711 56.3778
7.03181 56.1756
7.07651 55.6991
7.12121 55.4606
7.16591 55.3991
7.21063 54.9723
7.25533 54.7668
7.30004 54.7975
7.34475 55.0062
7.38945 55.3794
7.43416 54.6356
7.47889 54.7614
7.5236 58.1867
7.56831 62.3653
7.61303 57.2384
7.65774 56.2437
7.70247 57.01
7.74719 57.3107
7.79191 57.9177
7.83663 58.0895
7.88135 59.2907
7.92607 60.4488
7.97081 61.4092
8.01553 62.6714
8.06026 64.0506
8.10498 65.404
8.14971 67.6205
8.19446 69.1741
8.23919 71.7341
8.28392 74.9499
8.32865 77.3944
8.37339 82.7062
8.41812 88.644
8.46288 101.313
8.50761 206.152
8.55235 626.516
8.59709 983.062
8.64183 1702.75
8.68658 1415.89
8.73134 294.562
8.77609 114.3
8.82083 100.404
8.86558 94.7951
8.91033 92.1592
8.9551 89.4084
8.99985 87.9597
9.04461 87.3223
9.08936 86.7598
9.13412 85.6109
9.17888 85.5914
9.22365 90.7194
9.26841 95.5456
9.31318 88.6272
9.35794 86.6261
9.4027 86.7406
9.44749 87.6771
9.49226 88.1791
9.53703 89.2015
9.5818 91.0195
9.62657 91.9558
9.67134 93.803
9.71614 95.6454
9.76091 98.077
9.80569 100.764
9.85047 104.447
9.89525 109.892
9.94005 121.357
9.98484 220.562
10.0296 563.389
10.0744 779.939
10.1192 1231.5
10.164 1695.92
10.2088 743.136
10.2536 174.7
10.2984 118.517
10.3432 112.137
10.388 109.748
10.4328 135.355
10.4776 223.106
10.5224 276.469
10.5672 385.355
10.612 522.553
10.6568 314.651
10.7017 121.749
10.7465 92.7694
10.7913 87.6843
10.8361 84.7656
10.8809 81.8832
10.9257 79.4765
10.9706 78.2999
11.0154 76.3238
11.0602 74.6246
11.105 73.8397
11.1499 72.236
11.1947 71.236
11.2395 70.0044
11.2844 69.7301
11.3292 68.6047
11.374 67.938
11.4189 67.8133
11.4637 66.7315
11.5086 65.7983
11.5534 65.5911
11.5983 65.3656
11.6431 65.2853
11.688 64.7187
11.7328 64.7648
11.7777 64.4988
11.8225 64.2541
11.8674 64.4102
11.9122 65.5142
11.9571 67.8452
12.002 67.6857
12.0468 72.2391
12.0917 95.3622
12.1366 111.446
12.1814 129.4
12.2263 169.791
12.2712 192.151
12.3161 119.7
12.3609 72.2085
12.4058 66.7429
12.4507 66.2449
12.4956 66.1935
12.5405 66.2613
12.5853 66.9136
12.6302 66.8126
12.6751 67.8166
12.72 68.6868
12.7649 69.581
12.8098 70.5013
12.8547 71.8738
12.8996 73.5557
12.9445 74.6516
12.9894 76.7202
13.0343 79.244
13.0792 83.0477
13.1242 93.2117
13.1691 143.781
13.214 187.609
13.2589 218.259
13.3038 280.033
13.3487 383.643
13.3937 342.275
13.4386 171.147
13.4835 121.88
13.5285 159.587
13.5734 182.773
13.6183 209.257
13.6633 269.662
13.7082 342.001
13.7531 262.871
13.7981 128.858
13.843 88.358
13.888 83.3317
13.9329 80.3936
13.9779 79.0641
14.0228 77.6894
14.0678 76.12
14.1127 76.3867
14.1577 76.3317
14.2027 74.9818
14.2476 73.3628
14.2926 72.5528
14.3376 72.187
14.3825 71.6907
14.4275 71.5413
14.4725 71.133
14.5175 71.6251
14.5624 71.6031
14.6074 71.7463
14.6524 72.3615
14.6974 73.2054
14.7424 74.9739
14.7874 87.7912
14.8324 110.395
14.8774 122.62
14.9224 136.416
14.9674 165.21
15.0124 204.561
15.0574 187.537
15.1024 118.922
15.1474 79.4277
15.1924 73.3969
15.2374 71.5553
15.2824 70.5799
15.3274 69.7092
15.3725 69.32
15.4175 69.1114
15.4625 68.4227
15.5076 68.1003
15.5526 68.4293
15.5976 68.5148
15.6426 69.6897
15.6877 79.6793
15.7327 97.9056
15.7778 107.919
15.8228 116.904
15.8679 137.883
15.9129 169.704
15.958 179.034
16.003 129.341
16.0481 79.2034
16.0931 66.4282
16.1382 63.4946
16.1833 62.3614
16.2283 61.0835
16.2734 60.5138
16.3185 59.4401
16.3636 58.9947
16.4086 58.0029
16.4537 57.9031
16.4988 57.4031
16.5439 57.2861
16.589 56.9246
16.6341 56.6359
16.6792 56.4684
16.7243 56.3226
16.7694 56.4833
16.8145 56.4896
16.8596 56.4357
16.9047 56.6631
16.9498 56.9781
16.9949 56.9299
17.04 57.62
17.0851 59.8185
17.1302 63.5858
17.1754 66.1384
17.2205 67.6262
17.2656 70.8068
17.3108 77.2188
17.3559 83.0318
17.401 79.2849
17.4462 68.8628
17.4913 62.4185
17.5365 61.1689
17.5815 61.3747
17.6268 61.781
17.6718 62.2396
17.7171 62.7036
17.7622 63.8192
17.8074 64.4958
17.8525 67.0887
17.8977 76.3365
17.9428 85.1921
17.9881 89.2924
18.0331 95.4414
18.0784 105.507
18.1237 124.937
18.1688 142.644
18.214 130.26
18.2591 100.733
18.3044 88.7241
18.3495 91.4394
18.3948 100.788
18.4399 103.243
18.4852 88.9826
18.5303 72.9079
18.5756 65.6515
18.6207 64.0359
18.666 62.8459
18.7112 62.2028
18.7565 61.2718
18.8016 60.6641
18.8469 60.3069
18.892 59.8425
18.9374 59.4045
18.9825 59.1341
19.0278 58.7108
19.073 59.0136
19.1183 59.9114
19.1635 61.5045
19.2088 63.2912
19.254 64.176
19.2993 65.6586
19.3447 68.2538
19.3898 72.7541
19.4352 74.8041
19.4804 70.2299
19.5257 62.0093
19.5709 57.0354
19.6163 55.9787
19.6615 55.6966
19.7068 55.2846
19.752 55.0821
19.7974 55.4882
19.8426 57.0961
19.888 58.707
19.9332 59.7414
19.9786 60.4534
20.0238 61.6462
20.0692 65.255
20.1144 69.8282
20.1598 73.0849
20.205 69.6431
20.2504 64.8605
20.2957 62.8863
20.3411 64.3692
20.3863 66.2042
20.4318 63.6196
20.477 58.1438
20.5224 53.8246
20.5677 52.3599
20.6131 51.9483
20.6586 51.6097
20.7038 51.3377
20.7493 50.7805
20.7945 50.825
20.84 50.6724
20.8853 50.6849
20.9307 50.3876
20.976 50.7172
21.0215 50.6923
21.0668 50.9402
21.1122 51.204
21.1575 51.43
21.203 51.5865
21.2483 52.4408
21.2938 53.1536
21.3391 52.5118
21.3846 51.4565
21.4299 50.5906
21.4754 50.2495
21.5207 50.3575
21.5662 50.6044
21.6116 51.3639
21.6571 53.1576
21.7024 54.2668
21.7479 55.1663
21.7933 56.0158
21.8388 58.2834
21.8843 61.1093
21.9297 64.2915
21.9752 66.4052
22.0206 64.3037
22.0661 59.5361
22.1115 56.8092
22.157 56.9121
22.2024 57.2991
22.248 55.0458
22.2933 52.532
22.3389 51.0585
22.3843 50.6293
22.4299 50.2461
22.4753 50.4657
22.5208 50.2401
22.5662 50.2434
22.6118 50.4485
22.6572 50.8517
22.7028 51.942
22.7483 52.577
22.7939 52.8945
22.8393 53.4627
22.8849 54.4436
22.9303 55.4471
22.9759 57.0799
23.0214 58.6912
23.067 58.2317
23.1126 55.2989
23.1581 52.0896
23.2037 50.7737
23.2492 50.4875
23.2948 51.3257
23.3403 52.1546
23.3859 52.7386
23.4314 52.8608
23.477 53.309
23.5225 54.0919
23.5682 55.5066
23.6137 57.5243
23.6593 58.254
23.7048 56.1542
23.7505 52.2006
23.796 49.2364
23.8417 47.9682
23.8872 47.3403
23.9329 46.907
23.9784 46.6696
24.0241 46.2872
24.0697 45.9623
24.1154 45.7747
24.1609 45.6
24.2066 45.4003
24.2522 45.2463
24.2979 44.9533
24.3434 44.768
24.3892 44.7272
24.4349 44.5625
24.4805 44.4619
24.5262 44.5569
24.5718 44.3227
24.6175 44.3206
24.6631 44.427
24.7089 44.1049
24.7545 43.8939
24.8002 43.7017
24.8458 43.8469
24.8916 43.7479
24.9372 43.9523
24.983 43.9971
25.0286 44.3956
25.0744 44.8505
25.12 44.9247
25.1658 45.4674
25.2114 45.9655
25.2572 46.0722
25.3029 45.7666
25.3487 45.8353
25.3943 45.9438
25.4402 45.5411
25.4858 44.9304
25.5316 43.5338
25.5773 42.7291
25.6231 42.413
25.669 42.0265
25.7147 41.9658
25.7605 41.8883
25.8062 42.0452
25.8521 42.1551
25.8977 42.0078
25.9436 42.1383
25.9893 42.1469
26.0352 42.4032
26.0809 42.4422
26.1268 42.7433
26.1725 42.9627
26.2184 42.6479
26.2641 42.1601
26.31 41.7991
26.3557 41.9154
26.4017 41.7264
26.4474 41.893
26.4933 42.0993
26.5391 42.2428
26.585 42.5452
26.6308 42.906
26.6767 43.0072
26.7225 43.4472
26.7684 43.2817
26.8142 42.439
26.8601 41.9349
26.9059 41.5537
26.9519 41.2158
26.9979 40.8608
27.0437 40.4119
27.0896 40.1914
27.1354 40.226
27.1814 40.0812
27.2272 39.9336
27.2732 40.002
27.3191 39.7415
27.3651 39.8453
27.4109 39.6289
27.4569 39.7602
27.5027 39.7776
27.5488 39.7992
27.5946 39.6533
27.6407 39.5956
27.6865 39.6448
27.7326 39.4795
27.7784 39.2939
27.8245 39.3166
27.8703 39.2711
27.9164 39.5228
27.9623 39.4958
28.0084 39.6577
28.0543 39.9606
28.1003 39.913
28.1462 40.0663
28.1923 39.6293
28.2384 39.4276
28.2843 39.0389
28.3304 38.6661
28.3764 38.2348
28.4225 37.8314
28.4684 37.5761
28.5145 37.1441
28.5605 37.1007
28.6066 36.9629
28.6526 36.7559
28.6987 36.8752
28.7447 36.584
28.7908 36.6108
28.8368 36.5665
28.8829 36.5279
28.9289 36.5534
28.9751 36.488
29.0211 36.1652
29.0673 35.9335
29.1133 35.8722
29.1595 35.7403
29.2055 35.4402
29.2517 35.4577
29.2977 35.3499
29.3439 35.3502
29.3899 35.2522
29.4361 35.1165
29.4824 35.1583
29.5284 34.9873
29.5746 34.6981
29.6207 34.3318
29.6669 34.2652
29.713 34.1203
29.7593 33.8317
29.8053 33.9615
29.8516 33.9694
29.8977 33.8986
29.9439 33.6823
29.99 33.6911
30.0363 33.4467
30.0824 33.5542
30.1287 33.4393
30.1748 33.4488
30.2211 33.3822
30.2673 33.3393
30.3136 33.4575
30.3597 33.3693
30.406 33.2635
30.4522 33.3084
30.4985 33.0832
30.5447 33.1765
30.591 32.9971
30.6372 33.1727
30.6835 33.001
30.7297 33.2614
30.7761 33.1852
30.8224 33.0934
30.8686 32.9806
30.915 32.7824
30.9612 32.6386
31.0076 32.5411
31.0538 32.2507
31.1002 32.2567
31.1464 31.9934
31.1928 32.0632
31.2391 32.0767
31.2855 31.8371
31.3317 31.8834
31.3781 32.0313
31.4244 31.737
31.4708 31.798
31.5171 31.7285
31.5636 31.8547
31.6098 31.6272
31.6563 31.56
31.7026 31.3669
31.7491 31.1574
31.7953 31.2056
31.8418 30.9398
31.8881 31.068
31.9346 31.024
31.9809 30.9543
32.0275 30.8891
32.074 30.8056
32.1203 30.71
32.1668 30.4938
32.2132 30.4574
32.2597 30.3421
32.306 30.1808
32.3526 29.9985
32.399 29.8898
32.4455 29.7752
32.4919 29.771
32.5385 29.6488
32.5848 29.4682
32.6314 29.4555
32.6778 29.3877
32.7244 29.183
32.7708 29.075
32.8174 29.1401
32.8638 28.9695
32.9104 29.0738
32.9569 28.9163
33.0035 28.7739
33.0499 28.75
33.0966 28.7152
33.143 28.6868
33.1897 28.5786
33.2361 28.5546
33.2828 28.4318
33.3293 28.3702
33.3759 28.3654
33.4226 28.0815
33.4691 28.0476
33.5158 27.9907
33.5623 27.8344
33.609 27.6483
33.6555 27.543
33.7022 27.454
33.7487 27.3625
33.7954 27.4323
33.842 27.2017
33.8887 27.222
33.9353 27.1587
33.982 26.9904
34.0286 26.9355
34.0753 26.989
34.1219 26.7851
34.1687 26.6437
34.2152 26.6114
34.262 26.4622
34.3086 26.3829
34.3554 26.3752
34.402 26.228
34.4488 26.114
34.4954 26.0724
34.5422 25.9985
34.5889 25.8609
34.6357 25.7743
34.6825 25.7358
34.7292 25.7055
34.776 25.5028
34.8227 25.535
34.8695 25.3809
34.9162 25.3977
34.9631 25.2996
35.0098 25.2373
35.0566 25.1243
35.1033 25.0976
35.1502 25.1243
35.1969 25.027
35.2438 24.9366
35.2906 24.8216
35.3375 24.7921
35.3842 24.7336
35.4311 24.7102
35.4779 24.6987
35.5248 24.5663
35.5716 24.4947
35.6185 24.4564
35.6653 24.3346
35.7123 24.3117
35.759 24.1724
35.806 24.0999
35.8528 23.9275
35.8998 23.9034
35.9468 23.8507
35.9936 23.8689
36.0406 23.7937
36.0874 23.7416
36.1345 23.6361
36.1813 23.5425
36.2283 23.4335
36.2752 23.3711
36.3222 23.3831
36.3691 23.3211
36.4161 23.1469
36.463 23.1085
36.5101 23.1111
36.557 23.0693
36.6041 22.864
36.651 22.8893
36.6981 22.8211
36.745 22.7563
36.7921 22.6614
36.839 22.5524
36.8861 22.492
36.9331 22.4272
36.9802 22.3823
37.0272 22.236
37.0743 22.1672
37.1213 22.1463
37.1684 22.098
37.2154 22.0046
37.2626 22.0174
37.3098 21.9476
37.3568 21.8073
37.404 21.7793
37.451 21.6033
37.4982 21.593
37.5452 21.5086
37.5924 21.3753
37.6395 21.4672
37.6867 21.3664
37.7337 21.2976
37.781 21.2257
37.8281 21.1271
37.8753 21.0343
37.9224 21.0074
37.9697 21.0138
38.0168 20.9206
38.064 20.8614
38.1111 20.7764
38.1584 20.6303
38.2056 20.6105
38.2529 20.5295
38.3 20.4877
38.3473 20.5146
38.3945 20.3557
38.4418 20.3109
38.489 20.225
38.5363 20.0902
38.5837 20.0425
38.6309 20.0037
38.6782 19.977
38.7254 19.8064
38.7728 19.7807
38.82 19.7516
38.8674 19.752
38.9146 19.6717
38.9621 19.5591
39.0093 19.5515
39.0567 19.4446
39.104 19.4231
39.1514 19.3444
39.1987 19.3588
39.2461 19.192
39.2934 19.1463
39.3409 19.0314
39.3882 18.9823
39.4356 18.9511
39.483 18.8733
39.5304 18.7594
39.5778 18.8283
39.6253 18.7229
39.6726 18.6783
39.7201 18.6351
39.7675 18.584
39.815 18.5025
39.8624 18.403
39.9099 18.3982
39.9575 18.269
40.0049 18.2711
40.0525 18.2038
40.0999 18.1804
40.1474 18.1182
40.1949 18.03
40.2425 17.8862
40.2899 17.9205
40.3375 17.8538
40.385 17.8088
40.4326 17.7385
40.48 17.6438
40.5277 17.5906
40.5752 17.5578
40.6228 17.4858
40.6703 17.4658
40.718 17.4232
40.7655 17.3371
40.8132 17.2785
40.8607 17.2803
40.9084 17.2344
40.9559 17.1625
41.0036 17.0465
41.0512 16.992
41.0989 17.0248
41.1465 16.9072
41.1942 16.8418
41.242 16.7627
41.2896 16.7313
41.3373 16.6311
41.3849 16.647
41.4327 16.603
41.4803 16.4511
41.5281 16.449
41.5758 16.3813
41.6236 16.2822
41.6712 16.2751
41.7191 16.2311
41.7667 16.1312
41.8146 16.138
41.8622 16.1022
41.9101 16.0613
41.9578 15.9364
42.0057 15.9419
42.0534 15.8685
42.1013 15.8097
42.149 15.7642
42.1969 15.7035
42.2446 15.652
42.2925 15.6067
42.3403 15.5403
42.3882 15.4595
42.436 15.44
42.4839 15.3833
42.5319 15.3514
42.5797 15.2952
42.6277 15.2442
42.6755 15.1785
42.7235 15.0745
42.7713 15.1231
42.8193 15.0088
42.8671 14.949
42.9152 14.9498
42.963 14.8852
43.0111 14.8102
43.0589 14.7469
43.107 14.7052
43.1549 14.6596
43.2029 14.5808
43.2508 14.5856
43.2989 14.5176
43.3468 14.4165
43.3949 14.4261
43.4429 14.3421
43.491 14.3187
43.5389 14.2323
43.5871 14.2466
43.635 14.1743
43.6832 14.0709
43.7312 14.0238
43.7793 14.0112
43.8273 13.9901
43.8755 13.8817
43.9237 13.8144
43.9717 13.8324
44.0199 13.7536
44.068 13.7441
44.1162 13.6716
44.1642 13.6713
44.2125 13.6068
44.2606 13.5483
44.3088 13.499
44.3569 13.442
44.4052 13.3882
44.4533 13.3492
44.5016 13.3001
44.5497 13.287
44.598 13.2243
44.6461 13.1915
44.6945 13.0901
44.7426 13.0355
44.791 13.0223
44.8391 12.966
44.8875 12.9336
44.9357 12.9004
44.984 12.8646
45.0322 12.8136
45.0806 12.7555
45.1288 12.7026
45.1773 12.6686
45.2257 12.6304
45.2739 12.5685
45.3224 12.5551
45.3706 12.5148
45.4191 12.4347
45.4673 12.416
45.5158 12.3894
45.5641 12.3205
45.6126 12.2859
45.6609 12.2198
45.7094 12.1726
45.7577 12.129
45.8063 12.0926
45.8546 12.043
45.9031 11.9763
45.9515 11.9708
46.0001 11.886
46.0484 11.8938
46.097 11.8435
46.1454 11.8287
46.194 11.7555
46.2424 11.6968
46.291 11.6452
46.3395 11.5899
46.3881 11.5258
46.4365 11.5791
46.4852 11.4723
46.5337 11.453
46.5823 11.407
46.631 11.3548
46.6795 11.3262
46.7282 11.2779
46.7767 11.2346
46.8254 11.1813
46.8739 11.1485
46.9226 11.1027
46.9712 11.0457
47.0199 11.0335
47.0685 11.0071
47.1173 10.9347
47.1658 10.8658
47.2146 10.8646
47.2632 10.8144
47.312 10.8293
47.3606 10.7541
47.4095 10.7342
47.4581 10.69
47.5069 10.6285
47.5556 10.5424
47.6044 10.5484
47.6531 10.5038
47.702 10.456
47.7507 10.4148
47.7996 10.4146
47.8483 10.3561
47.8972 10.3792
47.9461 10.2857
47.9948 10.2732
48.0438 10.209
48.0925 10.1848
48.1415 10.1304
48.1902 10.1028
48.2392 10.0533
48.288 10.0436
48.337 9.99134
48.3858 9.93332
48.4348 9.94637
48.4837 9.93484
48.5327 9.86175
48.5815 9.79946
48.6306 9.80246
48.6795 9.77779
48.7285 9.72015
48.7774 9.65397
48.8265 9.61996
48.8754 9.61427
48.9245 9.58926
48.9734 9.56264
49.0226 9.51081
49.0715 9.48244
49.1206 9.44616
49.1696 9.39338
49.2188 9.35748
49.2679 9.31882
49.3169 9.26197
49.3661 9.25842
49.4151 9.18292
49.4643 9.20156
49.5134 9.16529
49.5626 9.06289
49.6117 9.0695
49.6609 9.04949
49.71 8.99231
49.7592 8.93046
49.8083 8.91711
49.8576 8.88893
49.9067 8.85753
49.956 8.84036
50.0052 8.80523
50.0545 8.80139
50.1036 8.72672
50.153 8.70068
50.2022 8.66649
50.2515 8.64456
50.3007 8.55858
50.3501 8.56025
50.3993 8.55146
50.4487 8.50158
50.498 8.46743
50.5474 8.43194
50.5966 8.393
50.6461 8.39682
50.6955 8.34511
50.7448 8.33425
50.7943 8.29536
50.8436 8.25468
50.8931 8.204
50.9424 8.16677
50.9919 8.15383
51.0413 8.09648
51.0908 8.03754
51.1402 8.09506
51.1897 7.96227
51.2391 7.99853
51.2887 7.92621
51.3381 7.92728
51.3877 7.92423
51.4371 7.86403
51.4867 7.83262
51.5362 7.77961
51.5858 7.78498
51.6353 7.73688
51.6849 7.69106
51.7344 7.66853
51.7841 7.60471
51.8336 7.60104
51.8833 7.59092
51.9328 7.51156
51.9826 7.51626
52.0323 7.48971
52.0818 7.428
52.1316 7.36968
52.1812 7.34396
52.231 7.34615
52.2806 7.3289
52.3304 7.29438
52.38 7.24552
52.4298 7.22171
52.4794 7.18731
52.5293 7.15728
52.5789 7.09318
52.6288 7.09307
52.6785 7.0545
52.7284 7.0685
52.7781 7.02733
52.828 6.96725
52.8777 7.00929
52.9276 6.93102
52.9774 6.90998
53.0273 6.88278
53.0771 6.85939
53.1271 6.83809
53.1769 6.78788
53.2269 6.74695
53.2767 6.74063
53.3267 6.67395
53.3765 6.66987
53.4266 6.64112
53.4766 6.64495
53.5265 6.58228
53.5765 6.56996
53.6264 6.54481
53.6765 6.51362
53.7264 6.49434
53.7765 6.42978
53.8265 6.43556
53.8766 6.3546
53.9266 6.36423
53.9767 6.33381
54.0267 6.28317
54.0769 6.25653
54.1269 6.23372
54.1771 6.1963
54.2271 6.14259
54.2773 6.10408
54.3274 6.09069
54.3776 6.03123
54.4277 6.0159
54.478 5.97395
54.528 5.95881
54.5783 5.91521
54.6285 5.82294
54.6788 5.82119
54.7289 5.77369
54.7792 5.75601
54.8296 5.66426
54.8798 5.61055
54.9301 5.59636
54.9803 5.57487
55.0307 5.57102
55.0809 5.45621
55.1314 5.41691
55.1816 5.32
55.232 5.31459
55.2823 5.26762
55.3328 5.22311
55.383 5.22671
55.4335 5.15396
55.4838 5.11935
55.5344 4.95657
55.5847 4.98558
55.6352 4.96141
55.6856 4.95027
55.7361 4.89917