File: XRD/Ni3Fe_FD1074.xy
TT I
1.27165 7.12827
1.31627 6.38438
1.36089 5.91066
1.40551 5.7812
1.45013 6.01859
1.49476 5.35231
1.53938 5.48237
1.584 4.78444
1.62863 4.49918
1.67325 4.87837
1.71787 4.91159
1.7625 5.09262
1.80712 4.28578
1.85174 4.10345
1.89636 4.23197
1.94099 4.42957
1.98562 4.56813
2.03025 4.16998
2.07487 3.69344
2.11949 4.32445
2.16411 4.18233
2.20874 5.00752
2.25338 6.33512
2.298 4.94003
2.34263 4.54962
2.38725 5.76911
2.43188 6.45474
2.4765 6.74772
2.52115 7.64216
2.56577 7.74377
2.6104 9.21462
2.65503 8.40548
2.69965 8.06448
2.7443 8.7604
2.78893 8.32511
2.83356 8.42189
2.87818 8.84326
2.92281 8.32594
2.96744 9.19466
3.01209 9.75001
3.05672 11.6355
3.10135 11.7586
3.14599 12.7949
3.19062 13.6669
3.23527 14.4486
3.2799 15.3173
3.32454 16.2469
3.36917 16.4638
3.4138 18.2511
3.45844 19.0663
3.50309 19.7088
3.54773 20.6908
3.59237 20.852
3.637 27.5331
3.68164 26.4448
3.7263 23.9535
3.77094 24.3454
3.81558 24.9497
3.86022 26.0753
3.90486 27.5127
3.9495 27.77
3.99416 29.3526
4.0388 30.2667
4.08344 31.3491
4.12809 32.5069
4.17273 33.273
4.21738 35.2146
4.26204 51.8411
4.30669 56.5501
4.35133 40.4259
4.39598 40.9266
4.44063 43.428
4.4853 46.4021
4.52995 46.577
4.5746 48.4734
4.61925 50.3999
4.6639 53.0338
4.70855 55.4624
4.75322 58.2132
4.79788 60.6456
4.84253 64.158
4.88719 68.2516
4.93184 70.9795
4.97652 77.1089
5.02118 82.7473
5.06583 89.3766
5.11049 97.8339
5.15515 118.183
5.19981 230.113
5.24449 2508.27
5.28916 13714.6
5.33382 3353.66
5.37848 206.301
5.42315 123.451
5.46783 107.791
5.5125 101.188
5.55716 97.2345
5.60183 93.1599
5.6465 91.2674
5.69117 89.964
5.73586 87.7192
5.78053 86.8956
5.8252 86.8689
5.86988 87.191
5.91455 89.0604
5.95924 94.9619
6.00392 163.626
6.0486 890.181
6.09328 4469.29
6.13795 3671.9
6.18263 239.425
6.22733 87.0384
6.27201 75.9409
6.3167 72.901
6.36138 68.3034
6.40606 64.7357
6.45075 63.5809
6.49545 61.6531
6.54014 59.9398
6.58483 59.0872
6.62952 57.8715
6.67421 58.6553
6.71892 64.0699
6.76361 56.4305
6.8083 54.6237
6.853 53.8385
6.89769 53.644
6.94239 53.1831
6.98711 52.4372
7.03181 52.2053
7.07651 52.1695
7.12121 51.8595
7.16591 51.8377
7.21063 51.3713
7.25533 51.6602
7.30004 62.0078
7.34475 56.0164
7.38945 51.5901
7.43416 51.3172
7.47889 51.6055
7.5236 57.7136
7.56831 70.9737
7.61303 56.5093
7.65774 52.9479
7.70247 53.2161
7.74719 53.149
7.79191 53.8844
7.83663 53.9971
7.88135 54.95
7.92607 55.9596
7.97081 56.6873
8.01553 57.8152
8.06026 58.8676
8.10498 60.0779
8.14971 62.1803
8.19446 63.9345
8.23919 65.6092
8.28392 68.3589
8.32865 69.7798
8.37339 74.3294
8.41812 78.1413
8.46288 86.6092
8.50761 128.73
8.55235 379.808
8.59709 1111.48
8.64183 2290.06
8.68658 1099.54
8.73134 173.316
8.77609 94.9631
8.82083 88.1158
8.86558 85.6993
8.91033 83.3446
8.9551 82.5352
8.99985 80.78
9.04461 80.2836
9.08936 79.6316
9.13412 79.1526
9.17888 79.4988
9.22365 90.2458
9.26841 110.869
9.31318 87.836
9.35794 79.911
9.4027 80.3221
9.44749 80.6264
9.49226 81.0297
9.53703 81.6154
9.5818 83.5665
9.62657 84.0579
9.67134 86.9138
9.71614 87.6587
9.76091 89.4235
9.80569 91.8142
9.85047 94.2792
9.89525 99.0201
9.94005 106.47
9.98484 147.447
10.0296 350.723
10.0744 778.419
10.1192 1767.1
10.164 1710.61
10.2088 445.968
10.2536 125.49
10.2984 103.409
10.3432 101.018
10.388 97.6862
10.4328 107.797
10.4776 162.582
10.5224 273.671
10.5672 513.107
10.612 571.582
10.6568 230.839
10.7017 103.489
10.7465 86.0624
10.7913 79.9054
10.8361 77.9482
10.8809 75.5949
10.9257 73.8204
10.9706 72.6241
11.0154 70.8088
11.0602 69.3894
11.105 68.4539
11.1499 67.2351
11.1947 67.5084
11.2395 65.3288
11.2844 64.8751
11.3292 63.5795
11.374 62.8592
11.4189 62.7048
11.4637 61.9311
11.5086 61.5022
11.5534 61.5859
11.5983 60.9566
11.6431 60.5809
11.688 60.191
11.7328 60.2207
11.7777 59.8266
11.8225 59.591
11.8674 59.9282
11.9122 62.0393
11.9571 67.0754
12.002 66.4322
12.0468 64.0986
12.0917 76.9455
12.1366 99.7648
12.1814 146.875
12.2263 203.264
12.2712 175.477
12.3161 97.4469
12.3609 64.7186
12.4058 61.4527
12.4507 61.4172
12.4956 61.2912
12.5405 61.5315
12.5853 61.9861
12.6302 62.8689
12.6751 64.0426
12.72 64.1168
12.7649 64.5932
12.8098 65.1546
12.8547 66.4684
12.8996 68.0441
12.9445 69.1102
12.9894 71.1099
13.0343 72.8788
13.0792 76.6719
13.1242 82.1809
13.1691 108.154
13.214 148.949
13.2589 230.633
13.3038 369.851
13.3487 451.868
13.3937 279.241
13.4386 126.086
13.4835 99.0404
13.5285 120.614
13.5734 157.481
13.6183 237.009
13.6633 355.798
13.7082 361.848
13.7531 205.352
13.7981 99.9965
13.843 79.3161
13.888 77.0398
13.9329 74.771
13.9779 73.2737
14.0228 72.2181
14.0678 70.7564
14.1127 71.6202
14.1577 75.0282
14.2027 73.0718
14.2476 68.7589
14.2926 67.4307
14.3376 67.3114
14.3825 67.1233
14.4275 66.4436
14.4725 66.3338
14.5175 66.3194
14.5624 66.2891
14.6074 66.7562
14.6524 67.2364
14.6974 67.7495
14.7424 68.5384
14.7874 74.5824
14.8324 89.1379
14.8774 110.538
14.9224 149.034
14.9674 208.986
15.0124 227.414
15.0574 159.163
15.1024 94.127
15.1474 71.1799
15.1924 67.9138
15.2374 66.7587
15.2824 65.8231
15.3274 65.0183
15.3725 64.4711
15.4175 64.0991
15.4625 63.7922
15.5076 63.5602
15.5526 63.5948
15.5976 63.4199
15.6426 63.9367
15.6877 68.8155
15.7327 80.0147
15.7778 95.2227
15.8228 123.489
15.8679 169.635
15.9129 202.576
15.958 169.628
16.003 104.748
16.0481 69.4452
16.0931 62.8337
16.1382 59.8844
16.1833 58.4307
16.2283 56.7866
16.2734 56.2596
16.3185 55.599
16.3636 55.2418
16.4086 54.4642
16.4537 54.1167
16.4988 53.627
16.5439 53.4312
16.589 53.2671
16.6341 52.9248
16.6792 52.4043
16.7243 52.8897
16.7694 52.669
16.8145 52.8435
16.8596 52.8238
16.9047 53.4469
16.9498 54.3415
16.9949 53.8079
17.04 54.0466
17.0851 54.9093
17.1302 57.092
17.1754 60.5369
17.2205 65.165
17.2656 72.2572
17.3108 81.8203
17.3559 82.7074
17.401 72.2532
17.4462 61.3516
17.4913 57.6263
17.5365 57.2843
17.5815 57.3543
17.6268 57.8362
17.6718 58.3378
17.7171 58.8225
17.7622 59.9976
17.8074 60.6136
17.8525 61.9762
17.8977 66.7058
17.9428 73.4396
17.9881 82.4477
18.0331 98.0984
18.0784 121.249
18.1237 142.632
18.1688 137.958
18.214 109.363
18.2591 88.2246
18.3044 88.888
18.3495 99.2781
18.3948 107.221
18.4399 98.5454
18.4852 78.7629
18.5303 65.7606
18.5756 61.3538
18.6207 60.1357
18.666 58.858
18.7112 58.2053
18.7565 57.4778
18.8016 57.3845
18.8469 56.4436
18.892 56.231
18.9374 55.6009
18.9825 55.4868
19.0278 55.0789
19.073 55.0076
19.1183 55.2984
19.1635 56.4567
19.2088 58.1217
19.254 60.7687
19.2993 65.6242
19.3447 72.0972
19.3898 76.0646
19.4352 72.0953
19.4804 63.3847
19.5257 56.1999
19.5709 53.0227
19.6163 52.5294
19.6615 52.3877
19.7068 51.888
19.752 51.8594
19.7974 51.8781
19.8426 52.5505
19.888 53.9979
19.9332 55.1801
19.9786 57.6863
20.0238 61.1828
20.0692 66.5475
20.1144 70.6207
20.1598 69.3738
20.205 64.161
20.2504 61.8695
20.2957 63.7076
20.3411 65.634
20.3863 63.9551
20.4318 58.3416
20.477 52.8696
20.5224 49.9223
20.5677 49.297
20.6131 48.792
20.6586 48.4937
20.7038 48.2516
20.7493 48.1157
20.7945 48.0428
20.84 47.9691
20.8853 47.5041
20.9307 47.3039
20.976 47.5271
21.0215 47.4493
21.0668 47.7727
21.1122 48.3531
21.1575 48.7789
21.203 49.7816
21.2483 50.5948
21.2938 50.6798
21.3391 49.2059
21.3846 48.0067
21.4299 47.4432
21.4754 47.3857
21.5207 47.5631
21.5662 47.7708
21.6116 47.8968
21.6571 49.1824
21.7024 50.1285
21.7479 51.968
21.7933 54.4246
21.8388 58.216
21.8843 62.8603
21.9297 65.3157
21.9752 64.0182
22.0206 59.8177
22.0661 56.4939
22.1115 55.9274
22.157 56.0511
22.2024 54.3581
22.248 51.2903
22.2933 49.1844
22.3389 48.0363
22.3843 47.6516
22.4299 47.5616
22.4753 47.5929
22.5208 47.4324
22.5662 47.6739
22.6118 47.5821
22.6572 47.8137
22.7028 48.3734
22.7483 49.0905
22.7939 49.8328
22.8393 51.3033
22.8849 53.3744
22.9303 55.6771
22.9759 57.6931
23.0214 57.4333
23.067 54.813
23.1126 51.0683
23.1581 48.5479
23.2037 47.8809
23.2492 47.7721
23.2948 47.7781
23.3403 48.5468
23.3859 49.4969
23.4314 50.5394
23.477 52.195
23.5225 54.5181
23.5682 57.284
23.6137 58.6997
23.6593 56.5247
23.7048 52.3098
23.7505 48.1265
23.796 46.1714
23.8417 45.1509
23.8872 44.6777
23.9329 44.3373
23.9784 43.9068
24.0241 43.8439
24.0697 43.5803
24.1154 43.2593
24.1609 42.9579
24.2066 42.9955
24.2522 42.6883
24.2979 42.3562
24.3434 42.3927
24.3892 42.1317
24.4349 42.059
24.4805 41.9996
24.5262 42.0603
24.5718 42.0305
24.6175 42.3798
24.6631 42.1975
24.7089 41.6146
24.7545 41.5666
24.8002 41.2336
24.8458 41.4046
24.8916 41.22
24.9372 41.3435
24.983 41.7471
25.0286 42.1362
25.0744 42.74
25.12 43.2673
25.1658 43.9394
25.2114 44.2628
25.2572 44.3301
25.3029 44.6489
25.3487 44.6787
25.3943 44.4088
25.4402 43.2599
25.4858 42.081
25.5316 40.8144
25.5773 40.2103
25.6231 40.1626
25.669 39.7371
25.7147 39.6244
25.7605 39.6804
25.8062 39.7149
25.8521 39.9349
25.8977 39.9053
25.9436 40.1956
25.9893 40.2094
26.0352 40.8213
26.0809 41.1655
26.1268 41.3547
26.1725 41.0423
26.2184 40.3466
26.2641 39.775
26.31 39.44
26.3557 39.4711
26.4017 39.5319
26.4474 39.878
26.4933 40.2377
26.5391 40.6825
26.585 41.2207
26.6308 41.7795
26.6767 42.1052
26.7225 41.9303
26.7684 41.3623
26.8142 40.6122
26.8601 40.1948
26.9059 39.8145
26.9519 39.0602
26.9979 38.7781
27.0437 38.3208
27.0896 38.1323
27.1354 38.138
27.1814 37.9792
27.2272 37.9715
27.2732 38.0193
27.3191 37.7986
27.3651 37.821
27.4109 37.7493
27.4569 37.9503
27.5027 38.0449
27.5488 38.1616
27.5946 37.9702
27.6407 37.6899
27.6865 37.6218
27.7326 37.374
27.7784 37.3179
27.8245 37.3646
27.8703 37.5117
27.9164 37.8738
27.9623 37.8766
28.0084 38.4307
28.0543 39.0093
28.1003 38.9638
28.1462 38.6492
28.1923 38.3171
28.2384 37.6852
28.2843 37.4528
28.3304 36.8398
28.3764 36.2224
28.4225 36.083
28.4684 35.7476
28.5145 35.4427
28.5605 35.3738
28.6066 35.1574
28.6526 35.1287
28.6987 35.11
28.7447 35.0015
28.7908 34.9181
28.8368 34.9391
28.8829 35.027
28.9289 34.8849
28.9751 34.6447
29.0211 34.4084
29.0673 34.249
29.1133 34.1139
29.1595 33.9868
29.2055 33.8214
29.2517 33.7823
29.2977 33.7656
29.3439 33.7341
29.3899 33.7896
29.4361 33.6713
29.4824 33.4685
29.5284 33.2342
29.5746 32.9166
29.6207 32.6206
29.6669 32.6197
29.713 32.4093
29.7593 32.1968
29.8053 32.2561
29.8516 32.2545
29.8977 32.1483
29.9439 32.115
29.99 32.1818
30.0363 31.9862
30.0824 32.0669
30.1287 31.8553
30.1748 32.0701
30.2211 31.9452
30.2673 31.8148
30.3136 31.9192
30.3597 31.8394
30.406 31.692
30.4522 31.6914
30.4985 31.6197
30.5447 31.7757
30.591 31.7617
30.6372 31.7391
30.6835 31.8208
30.7297 31.8734
30.7761 31.9432
30.8224 31.7474
30.8686 31.6357
30.915 31.2544
30.9612 31.1949
31.0076 30.9412
31.0538 30.7914
31.1002 30.732
31.1464 30.5688
31.1928 30.5443
31.2391 30.6182
31.2855 30.4633
31.3317 30.4484
31.3781 30.4798
31.4244 30.5457
31.4708 30.5146
31.5171 30.5381
31.5636 30.4737
31.6098 30.2112
31.6563 30.0879
31.7026 29.9778
31.7491 29.8675
31.7953 29.7574
31.8418 29.82
31.8881 29.7823
31.9346 29.9132
31.9809 29.7591
32.0275 29.6553
32.074 29.5156
32.1203 29.2892
32.1668 29.1779
32.2132 29.0221
32.2597 28.8449
32.306 28.8197
32.3526 28.6675
32.399 28.5428
32.4455 28.345
32.4919 28.3487
32.5385 28.2276
32.5848 28.1433
32.6314 28.0556
32.6778 28.0998
32.7244 27.8695
32.7708 27.7976
32.8174 27.7888
32.8638 27.6235
32.9104 27.7103
32.9569 27.6137
33.0035 27.4976
33.0499 27.4501
33.0966 27.4103
33.143 27.4737
33.1897 27.3729
33.2361 27.3199
33.2828 27.3727
33.3293 27.0481
33.3759 26.9814
33.4226 26.9076
33.4691 26.7323
33.5158 26.6141
33.5623 26.524
33.609 26.4079
33.6555 26.3227
33.7022 26.1499
33.7487 26.1506
33.7954 26.2125
33.842 26.039
33.8887 25.9236
33.9353 25.9235
33.982 25.803
34.0286 25.7811
34.0753 25.615
34.1219 25.5744
34.1687 25.5575
34.2152 25.4498
34.262 25.3285
34.3086 25.2314
34.3554 25.2395
34.402 25.0037
34.4488 24.9493
34.4954 24.9497
34.5422 24.8385
34.5889 24.6881
34.6357 24.6316
34.6825 24.593
34.7292 24.4376
34.776 24.3686
34.8227 24.4522
34.8695 24.2679
34.9162 24.2359
34.9631 24.087
35.0098 24.057
35.0566 23.9587
35.1033 24.007
35.1502 23.9463
35.1969 23.8648
35.2438 23.8383
35.2906 23.9282
35.3375 23.8009
35.3842 23.789
35.4311 23.7544
35.4779 23.6982
35.5248 23.6494
35.5716 23.4924
35.6185 23.4437
35.6653 23.3586
35.7123 23.212
35.759 23.1118
35.806 23.0921
35.8528 22.9442
35.8998 22.9293
35.9468 22.8645
35.9936 22.7531
36.0406 22.8152
36.0874 22.7227
36.1345 22.6019
36.1813 22.5415
36.2283 22.4619
36.2752 22.3531
36.3222 22.3272
36.3691 22.3106
36.4161 22.1871
36.463 22.1792
36.5101 22.1781
36.557 21.9826
36.6041 21.941
36.651 21.8553
36.6981 21.9397
36.745 21.8247
36.7921 21.7377
36.839 21.5594
36.8861 21.6226
36.9331 21.5063
36.9802 21.3982
37.0272 21.318
37.0743 21.2095
37.1213 21.1885
37.1684 21.0894
37.2154 21.0989
37.2626 20.9479
37.3098 20.9416
37.3568 20.8875
37.404 20.8418
37.451 20.6717
37.4982 20.7223
37.5452 20.5854
37.5924 20.464
37.6395 20.6163
37.6867 20.4913
37.7337 20.3825
37.781 20.2776
37.8281 20.2017
37.8753 20.0975
37.9224 20.044
37.9697 20.0166
38.0168 19.9171
38.064 19.8053
38.1111 19.8395
38.1584 19.724
38.2056 19.662
38.2529 19.6134
38.3 19.5487
38.3473 19.6038
38.3945 19.4983
38.4418 19.4131
38.489 19.3735
38.5363 19.3032
38.5837 19.2473
38.6309 19.167
38.6782 19.1041
38.7254 18.9867
38.7728 18.9714
38.82 18.8468
38.8674 18.8948
38.9146 18.7864
38.9621 18.6422
39.0093 18.6727
39.0567 18.6154
39.104 18.5351
39.1514 18.4456
39.1987 18.483
39.2461 18.4096
39.2934 18.3478
39.3409 18.1914
39.3882 18.191
39.4356 18.0884
39.483 18.0803
39.5304 17.9802
39.5778 17.9602
39.6253 17.9012
39.6726 17.8478
39.7201 17.7844
39.7675 17.7854
39.815 17.743
39.8624 17.6732
39.9099 17.5661
39.9575 17.5519
40.0049 17.4373
40.0525 17.4134
40.0999 17.3362
40.1474 17.2981
40.1949 17.175
40.2425 17.1666
40.2899 17.131
40.3375 17.064
40.385 17.0306
40.4326 16.967
40.48 16.8609
40.5277 16.8893
40.5752 16.7945
40.6228 16.6903
40.6703 16.6663
40.718 16.6463
40.7655 16.6129
40.8132 16.5361
40.8607 16.5281
40.9084 16.4534
40.9559 16.3722
41.0036 16.3552
41.0512 16.3133
41.0989 16.256
41.1465 16.146
41.1942 16.2133
41.242 16.0447
41.2896 16.0006
41.3373 15.9956
41.3849 15.9249
41.4327 15.8785
41.4803 15.7874
41.5281 15.7301
41.5758 15.6866
41.6236 15.6247
41.6712 15.5375
41.7191 15.5744
41.7667 15.4707
41.8146 15.4695
41.8622 15.3729
41.9101 15.3629
41.9578 15.2294
42.0057 15.1646
42.0534 15.1772
42.1013 15.0657
42.149 15.0718
42.1969 15.0112
42.2446 14.9242
42.2925 14.9278
42.3403 14.8878
42.3882 14.8595
42.436 14.8074
42.4839 14.6585
42.5319 14.6874
42.5797 14.6372
42.6277 14.5893
42.6755 14.4995
42.7235 14.4843
42.7713 14.4856
42.8193 14.3586
42.8671 14.3546
42.9152 14.2729
42.963 14.2313
43.0111 14.1821
43.0589 14.2095
43.107 14.0725
43.1549 14.0575
43.2029 13.9384
43.2508 13.9706
43.2989 13.8655
43.3468 13.8392
43.3949 13.7859
43.4429 13.7673
43.491 13.6709
43.5389 13.6005
43.5871 13.6436
43.635 13.5093
43.6832 13.5242
43.7312 13.4261
43.7793 13.4265
43.8273 13.3982
43.8755 13.2951
43.9237 13.3153
43.9717 13.2153
44.0199 13.2074
44.068 13.157
44.1162 13.0701
44.1642 13.0845
44.2125 13.0397
44.2606 12.964
44.3088 12.8937
44.3569 12.885
44.4052 12.8257
44.4533 12.8269
44.5016 12.7207
44.5497 12.7016
44.598 12.6351
44.6461 12.6081
44.6945 12.5591
44.7426 12.5099
44.791 12.4338
44.8391 12.4102
44.8875 12.3696
44.9357 12.3195
44.984 12.3005
45.0322 12.2297
45.0806 12.2303
45.1288 12.176
45.1773 12.1226
45.2257 12.0749
45.2739 12.0437
45.3224 11.9909
45.3706 11.9599
45.4191 11.8825
45.4673 11.8714
45.5158 11.8531
45.5641 11.8038
45.6126 11.7384
45.6609 11.6802
45.7094 11.672
45.7577 11.6098
45.8063 11.5712
45.8546 11.5355
45.9031 11.4746
45.9515 11.4703
46.0001 11.4024
46.0484 11.3636
46.097 11.3629
46.1454 11.2597
46.194 11.2362
46.2424 11.218
46.291 11.1869
46.3395 11.1247
46.3881 11.0799
46.4365 11.0645
46.4852 11.0307
46.5337 10.9903
46.5823 10.9404
46.631 10.9004
46.6795 10.8943
46.7282 10.8145
46.7767 10.732
46.8254 10.7081
46.8739 10.6499
46.9226 10.6697
46.9712 10.6038
47.0199 10.5523
47.0685 10.4875
47.1173 10.5145
47.1658 10.4258
47.2146 10.4104
47.2632 10.3582
47.312 10.324
47.3606 10.2958
47.4095 10.2547
47.4581 10.2409
47.5069 10.1581
47.5556 10.132
47.6044 10.0985
47.6531 10.0922
47.702 10.0179
47.7507 10.0184
47.7996 9.97238
47.8483 9.92153
47.8972 9.85945
47.9461 9.85463
47.9948 9.77475
48.0438 9.75773
48.0925 9.74807
48.1415 9.71098
48.1902 9.65594
48.2392 9.66072
48.288 9.62655
48.337 9.56966
48.3858 9.52708
48.4348 9.50214
48.4837 9.52124
48.5327 9.44038
48.5815 9.38441
48.6306 9.37569
48.6795 9.32926
48.7285 9.31934
48.7774 9.24879
48.8265 9.20121
48.8754 9.20556
48.9245 9.136
48.9734 9.14168
49.0226 9.11884
49.0715 9.08446
49.1206 9.01573
49.1696 8.96344
49.2188 8.9645
49.2679 8.90545
49.3169 8.87842
49.3661 8.83173
49.4151 8.79423
49.4643 8.79099
49.5134 8.79189
49.5626 8.66328
49.6117 8.70006
49.6609 8.64104
49.71 8.59709
49.7592 8.59694
49.8083 8.51926
49.8576 8.53304
49.9067 8.46791
49.956 8.44872
50.0052 8.37923
50.0545 8.37912
50.1036 8.35286
50.153 8.33676
50.2022 8.30889
50.2515 8.23499
50.3007 8.23931
50.3501 8.15816
50.3993 8.11457
50.4487 8.11131
50.498 8.09372
50.5474 8.06607
50.5966 8.0669
50.6461 8.00176
50.6955 7.96661
50.7448 7.96698
50.7943 7.91668
50.8436 7.84095
50.8931 7.85933
50.9424 7.78829
50.9919 7.78006
51.0413 7.75815
51.0908 7.72775
51.1402 7.70915
51.1897 7.66363
51.2391 7.63383
51.2887 7.60339
51.3381 7.59112
51.3877 7.56763
51.4371 7.49087
51.4867 7.44396
51.5362 7.44713
51.5858 7.44389
51.6353 7.38498
51.6849 7.3562
51.7344 7.33553
51.7841 7.33134
51.8336 7.25935
51.8833 7.23483
51.9328 7.19933
51.9826 7.163
52.0323 7.182
52.0818 7.11139
52.1316 7.09361
52.1812 7.08045
52.231 7.04905
52.2806 7.00062
52.3304 6.96593
52.38 6.94441
52.4298 6.92907
52.4794 6.86651
52.5293 6.87296
52.5789 6.81762
52.6288 6.82369
52.6785 6.78735
52.7284 6.74555
52.7781 6.70981
52.828 6.684
52.8777 6.63536
52.9276 6.62443
52.9774 6.61889
53.0273 6.59338
53.0771 6.52778
53.1271 6.52329
53.1769 6.45637
53.2269 6.4872
53.2767 6.42495
53.3267 6.38774
53.3765 6.38424
53.4266 6.35397
53.4766 6.34183
53.5265 6.29548
53.5765 6.28602
53.6264 6.24397
53.6765 6.20765
53.7264 6.18328
53.7765 6.18916
53.8265 6.12393
53.8766 6.12323
53.9266 6.07556
53.9767 6.03905
54.0267 5.99412
54.0769 6.01946
54.1269 5.91709
54.1771 5.94065
54.2271 5.9154
54.2773 5.87005
54.3274 5.83228
54.3776 5.8172
54.4277 5.79154
54.478 5.76744
54.528 5.71172
54.5783 5.70821
54.6285 5.62844
54.6788 5.59633
54.7289 5.55708
54.7792 5.51229
54.8296 5.49165
54.8798 5.40939
54.9301 5.41383
54.9803 5.39087
55.0307 5.35715
55.0809 5.28477
55.1314 5.23841
55.1816 5.25812
55.232 5.18789
55.2823 5.10085
55.3328 5.08052
55.383 5.05126
55.4335 5.02572
55.4838 4.95587
55.5344 4.91806
55.5847 4.81513
55.6352 4.85544
55.6856 4.78453
55.7361 4.78808