File: XRD/Ni3Fe_FD1055.xy
TT I
1.27165 6.8996
1.31627 6.38902
1.36089 5.85262
1.40551 6.0412
1.45013 5.08987
1.49476 5.54383
1.53938 5.74025
1.584 4.89094
1.62863 4.45915
1.67325 4.74812
1.71787 5.10572
1.7625 4.75577
1.80712 4.12986
1.85174 3.9207
1.89636 3.78379
1.94099 4.44225
1.98562 4.72376
2.03025 3.97745
2.07487 4.14993
2.11949 4.6999
2.16411 4.37469
2.20874 4.72183
2.25338 6.32445
2.298 5.37985
2.34263 5.04067
2.38725 6.1825
2.43188 5.51481
2.4765 6.76549
2.52115 7.84156
2.56577 7.98467
2.6104 8.52455
2.65503 8.4813
2.69965 8.22061
2.7443 8.26851
2.78893 8.36186
2.83356 9.09111
2.87818 8.0121
2.92281 8.88556
2.96744 8.98342
3.01209 10.4099
3.05672 10.6839
3.10135 11.8775
3.14599 12.8717
3.19062 14.3163
3.23527 14.4287
3.2799 15.2921
3.32454 16.2135
3.36917 17.1488
3.4138 18.0257
3.45844 18.895
3.50309 20.3031
3.54773 19.8707
3.59237 21.4922
3.637 27.6813
3.68164 26.8026
3.7263 24.2892
3.77094 24.5839
3.81558 25.4721
3.86022 26.5245
3.90486 27.365
3.9495 27.9305
3.99416 29.52
4.0388 30.7679
4.08344 31.8726
4.12809 32.2752
4.17273 33.4674
4.21738 35.6473
4.26204 52.186
4.30669 56.4361
4.35133 40.4582
4.39598 40.7978
4.44063 43.238
4.4853 46.3285
4.52995 46.7199
4.5746 48.9081
4.61925 50.4747
4.6639 52.7752
4.70855 55.3865
4.75322 58.3128
4.79788 61.0261
4.84253 64.1069
4.88719 67.9198
4.93184 71.9419
4.97652 76.7441
5.02118 82.9737
5.06583 89.2982
5.11049 97.9922
5.15515 118.065
5.19981 232.111
5.24449 2501.24
5.28916 13512.3
5.33382 3306.92
5.37848 211.935
5.42315 124.276
5.46783 108.396
5.5125 100.744
5.55716 97.1577
5.60183 93.1714
5.6465 90.9916
5.69117 89.8792
5.73586 88.4986
5.78053 86.947
5.8252 86.3384
5.86988 87.0165
5.91455 88.4778
5.95924 95.2413
6.00392 163.098
6.0486 894.338
6.09328 4545.24
6.13795 3610.85
6.18263 238.67
6.22733 87.5757
6.27201 75.7229
6.3167 73.3555
6.36138 68.2389
6.40606 65.3249
6.45075 63.7195
6.49545 61.9761
6.54014 60.6309
6.58483 59.2373
6.62952 57.8424
6.67421 58.3072
6.71892 64.3698
6.76361 56.5379
6.8083 54.6824
6.853 54.0934
6.89769 53.3709
6.94239 53.2316
6.98711 52.6004
7.03181 52.1055
7.07651 51.9894
7.12121 52.1322
7.16591 51.9327
7.21063 50.9651
7.25533 51.9194
7.30004 61.7396
7.34475 56.1193
7.38945 51.5871
7.43416 51.3314
7.47889 51.783
7.5236 58.5803
7.56831 74.2709
7.61303 57.0632
7.65774 52.6741
7.70247 53.2397
7.74719 53.0493
7.79191 53.7509
7.83663 54.0874
7.88135 55.0825
7.92607 55.6678
7.97081 56.8387
8.01553 57.8041
8.06026 59.1136
8.10498 60.4391
8.14971 62.3172
8.19446 63.5007
8.23919 65.6114
8.28392 68.5784
8.32865 69.982
8.37339 73.8276
8.41812 77.8536
8.46288 86.4798
8.50761 128.477
8.55235 373.642
8.59709 1090.97
8.64183 2274.12
8.68658 1103.05
8.73134 173.636
8.77609 94.909
8.82083 88.1244
8.86558 85.5842
8.91033 83.8401
8.9551 82.7032
8.99985 81.2023
9.04461 80.0118
9.08936 79.8602
9.13412 78.8242
9.17888 79.6729
9.22365 90.8495
9.26841 114.041
9.31318 89.1221
9.35794 80.1475
9.4027 79.9515
9.44749 81.0021
9.49226 81.0423
9.53703 81.8066
9.5818 83.5439
9.62657 84.3152
9.67134 86.4518
9.71614 87.6543
9.76091 89.6632
9.80569 92.1124
9.85047 94.3708
9.89525 99.033
9.94005 106.322
9.98484 147.216
10.0296 350.663
10.0744 776.023
10.1192 1762.21
10.164 1683.12
10.2088 439.675
10.2536 125.288
10.2984 103.455
10.3432 101.015
10.388 98.1987
10.4328 107.767
10.4776 161.238
10.5224 271.321
10.5672 507.524
10.612 568.559
10.6568 229.346
10.7017 104.144
10.7465 85.9182
10.7913 80.0801
10.8361 77.5175
10.8809 75.5016
10.9257 73.5962
10.9706 72.5941
11.0154 70.689
11.0602 69.3106
11.105 68.4176
11.1499 67.3494
11.1947 67.0967
11.2395 65.5849
11.2844 64.8763
11.3292 63.7389
11.374 63.1237
11.4189 62.7342
11.4637 62.0946
11.5086 61.1093
11.5534 61.3782
11.5983 60.8794
11.6431 60.7569
11.688 59.8538
11.7328 59.9383
11.7777 59.8522
11.8225 59.7894
11.8674 60.0071
11.9122 62.1334
11.9571 68.3889
12.002 66.7921
12.0468 64.3905
12.0917 76.6134
12.1366 98.8059
12.1814 146.57
12.2263 202.401
12.2712 174.846
12.3161 98.5819
12.3609 64.5886
12.4058 61.2158
12.4507 61.0155
12.4956 61.3862
12.5405 61.5716
12.5853 61.8866
12.6302 62.6572
12.6751 63.9015
12.72 64.089
12.7649 64.5273
12.8098 65.5115
12.8547 66.5956
12.8996 67.8996
12.9445 69.2567
12.9894 70.9783
13.0343 72.7876
13.0792 76.7493
13.1242 82.2832
13.1691 107.924
13.214 148.056
13.2589 229.111
13.3038 367.071
13.3487 445.809
13.3937 280.042
13.4386 127.57
13.4835 99.3275
13.5285 120.256
13.5734 156.753
13.6183 237.501
13.6633 356.279
13.7082 360.111
13.7531 206.174
13.7981 100.788
13.843 79.5357
13.888 77.1478
13.9329 74.6346
13.9779 73.2718
14.0228 71.965
14.0678 70.5595
14.1127 71.7793
14.1577 75.1727
14.2027 73.3732
14.2476 68.9602
14.2926 67.4648
14.3376 67.2901
14.3825 66.7891
14.4275 66.3743
14.4725 66.2565
14.5175 66.5066
14.5624 66.4221
14.6074 66.6115
14.6524 67.3493
14.6974 67.4186
14.7424 68.4929
14.7874 74.2759
14.8324 89.0
14.8774 110.23
14.9224 149.049
14.9674 208.13
15.0124 228.216
15.0574 160.881
15.1024 94.2648
15.1474 71.0917
15.1924 68.0669
15.2374 66.5484
15.2824 65.9424
15.3274 65.0834
15.3725 64.5716
15.4175 64.0989
15.4625 63.6679
15.5076 63.4588
15.5526 63.6742
15.5976 63.5432
15.6426 63.8518
15.6877 68.4268
15.7327 79.6454
15.7778 94.6161
15.8228 122.17
15.8679 169.442
15.9129 202.663
15.958 169.08
16.003 103.878
16.0481 69.2602
16.0931 63.0376
16.1382 59.9157
16.1833 58.1922
16.2283 56.8707
16.2734 56.4935
16.3185 55.7086
16.3636 55.0843
16.4086 54.5965
16.4537 53.9722
16.4988 53.5248
16.5439 53.5311
16.589 53.4119
16.6341 52.9772
16.6792 52.7873
16.7243 52.8922
16.7694 52.7288
16.8145 52.7849
16.8596 52.9108
16.9047 53.7277
16.9498 54.2472
16.9949 53.9759
17.04 53.8264
17.0851 54.9076
17.1302 57.0491
17.1754 60.3247
17.2205 64.7325
17.2656 72.5446
17.3108 81.9003
17.3559 82.5176
17.401 72.3217
17.4462 61.5014
17.4913 57.5452
17.5365 57.1309
17.5815 57.4659
17.6268 57.6921
17.6718 58.2918
17.7171 58.8023
17.7622 60.1302
17.8074 61.0445
17.8525 61.8931
17.8977 66.732
17.9428 73.3258
17.9881 82.1249
18.0331 97.8397
18.0784 121.339
18.1237 142.164
18.1688 137.433
18.214 108.784
18.2591 88.1779
18.3044 88.9352
18.3495 99.4594
18.3948 107.702
18.4399 98.8584
18.4852 78.9524
18.5303 66.0501
18.5756 61.4101
18.6207 60.127
18.666 58.9926
18.7112 57.9981
18.7565 57.3297
18.8016 57.0959
18.8469 56.4732
18.892 56.3401
18.9374 55.7123
18.9825 55.4093
19.0278 55.263
19.073 55.1137
19.1183 55.2891
19.1635 56.4642
19.2088 58.1174
19.254 60.6807
19.2993 65.4389
19.3447 71.9358
19.3898 76.1543
19.4352 72.3647
19.4804 63.4225
19.5257 56.2151
19.5709 53.1237
19.6163 52.5676
19.6615 52.3366
19.7068 51.6728
19.752 51.7894
19.7974 51.8979
19.8426 52.7353
19.888 53.6043
19.9332 55.1902
19.9786 57.5993
20.0238 61.0465
20.0692 66.6616
20.1144 70.5693
20.1598 69.2197
20.205 64.3109
20.2504 61.8791
20.2957 63.536
20.3411 65.677
20.3863 64.2377
20.4318 58.1101
20.477 52.9166
20.5224 50.069
20.5677 49.3629
20.6131 48.8674
20.6586 48.3589
20.7038 48.3097
20.7493 47.9004
20.7945 48.1215
20.84 47.8654
20.8853 47.5722
20.9307 47.1513
20.976 47.4469
21.0215 47.4478
21.0668 47.7064
21.1122 48.1522
21.1575 48.7878
21.203 49.6308
21.2483 50.3562
21.2938 50.6595
21.3391 49.4178
21.3846 47.977
21.4299 47.3877
21.4754 47.261
21.5207 47.4206
21.5662 47.5769
21.6116 47.7925
21.6571 48.9807
21.7024 50.1633
21.7479 51.7518
21.7933 54.1962
21.8388 57.983
21.8843 62.6348
21.9297 65.3951
21.9752 64.1022
22.0206 59.9689
22.0661 56.4031
22.1115 55.8853
22.157 56.1718
22.2024 54.3015
22.248 51.0574
22.2933 49.0031
22.3389 48.0097
22.3843 47.6652
22.4299 47.5417
22.4753 47.4701
22.5208 47.4443
22.5662 47.4087
22.6118 47.6447
22.6572 47.7413
22.7028 48.4287
22.7483 49.1402
22.7939 49.8263
22.8393 51.1783
22.8849 53.2543
22.9303 55.6616
22.9759 57.9364
23.0214 57.3694
23.067 54.7258
23.1126 50.9634
23.1581 48.6671
23.2037 47.8219
23.2492 47.7889
23.2948 47.894
23.3403 48.3988
23.3859 49.2233
23.4314 50.2703
23.477 52.0649
23.5225 54.4948
23.5682 57.1151
23.6137 58.4575
23.6593 56.5483
23.7048 52.141
23.7505 48.0933
23.796 46.0703
23.8417 45.1902
23.8872 44.5499
23.9329 44.2854
23.9784 44.0416
24.0241 43.7615
24.0697 43.5159
24.1154 43.1529
24.1609 42.8814
24.2066 42.7908
24.2522 42.63
24.2979 42.3448
24.3434 42.2783
24.3892 42.227
24.4349 42.0667
24.4805 41.9568
24.5262 42.0894
24.5718 41.9726
24.6175 42.1356
24.6631 42.0745
24.7089 41.6187
24.7545 41.4327
24.8002 41.4039
24.8458 41.3444
24.8916 41.2912
24.9372 41.3367
24.983 41.7144
25.0286 42.025
25.0744 42.6377
25.12 43.2506
25.1658 43.8222
25.2114 44.286
25.2572 44.2327
25.3029 44.4866
25.3487 44.6487
25.3943 44.325
25.4402 43.2392
25.4858 42.0659
25.5316 40.815
25.5773 40.2584
25.6231 40.1217
25.669 39.7418
25.7147 39.5458
25.7605 39.5755
25.8062 39.8288
25.8521 39.9364
25.8977 39.7891
25.9436 40.1089
25.9893 40.2474
26.0352 40.8312
26.0809 40.9645
26.1268 41.2425
26.1725 40.9475
26.2184 40.2687
26.2641 39.6436
26.31 39.4385
26.3557 39.4763
26.4017 39.4991
26.4474 39.7902
26.4933 40.0099
26.5391 40.7228
26.585 41.3056
26.6308 41.7338
26.6767 41.8545
26.7225 41.859
26.7684 41.149
26.8142 40.4924
26.8601 40.1067
26.9059 39.7443
26.9519 39.0297
26.9979 38.8011
27.0437 38.2829
27.0896 38.0799
27.1354 38.1336
27.1814 38.0443
27.2272 37.8943
27.2732 37.9682
27.3191 37.7528
27.3651 37.907
27.4109 37.756
27.4569 37.9055
27.5027 37.9773
27.5488 38.0737
27.5946 37.9324
27.6407 37.6703
27.6865 37.552
27.7326 37.1864
27.7784 37.1911
27.8245 37.3101
27.8703 37.4962
27.9164 37.8683
27.9623 37.9752
28.0084 38.5138
28.0543 38.8794
28.1003 38.8466
28.1462 38.6863
28.1923 38.2824
28.2384 37.7856
28.2843 37.2848
28.3304 36.8197
28.3764 36.2727
28.4225 35.8752
28.4684 35.6957
28.5145 35.4158
28.5605 35.2286
28.6066 35.1468
28.6526 35.0311
28.6987 35.0428
28.7447 34.8427
28.7908 34.7985
28.8368 34.8729
28.8829 34.9282
28.9289 34.8428
28.9751 34.7441
29.0211 34.3573
29.0673 34.1109
29.1133 34.0442
29.1595 33.9166
29.2055 33.8389
29.2517 33.7219
29.2977 33.7116
29.3439 33.6272
29.3899 33.7226
29.4361 33.689
29.4824 33.4895
29.5284 33.2507
29.5746 32.9321
29.6207 32.57
29.6669 32.5549
29.713 32.385
29.7593 32.3445
29.8053 32.299
29.8516 32.2234
29.8977 32.16
29.9439 32.0236
29.99 32.1339
30.0363 31.8813
30.0824 31.9957
30.1287 31.8934
30.1748 31.8374
30.2211 31.8546
30.2673 31.7563
30.3136 31.8112
30.3597 31.7207
30.406 31.6261
30.4522 31.5897
30.4985 31.5439
30.5447 31.7358
30.591 31.6421
30.6372 31.8416
30.6835 31.7408
30.7297 31.8954
30.7761 31.8761
30.8224 31.6343
30.8686 31.4936
30.915 31.1909
30.9612 31.0382
31.0076 30.8193
31.0538 30.7373
31.1002 30.7044
31.1464 30.4931
31.1928 30.4627
31.2391 30.548
31.2855 30.4204
31.3317 30.4193
31.3781 30.471
31.4244 30.4501
31.4708 30.4476
31.5171 30.4236
31.5636 30.4544
31.6098 30.178
31.6563 29.998
31.7026 29.8665
31.7491 29.6974
31.7953 29.6912
31.8418 29.8443
31.8881 29.818
31.9346 29.767
31.9809 29.6434
32.0275 29.5379
32.074 29.3797
32.1203 29.2856
32.1668 29.1715
32.2132 29.0154
32.2597 28.843
32.306 28.8124
32.3526 28.5829
32.399 28.5863
32.4455 28.3661
32.4919 28.297
32.5385 28.2609
32.5848 28.0742
32.6314 28.0686
32.6778 28.0038
32.7244 27.9017
32.7708 27.6688
32.8174 27.7865
32.8638 27.5476
32.9104 27.6387
32.9569 27.6333
33.0035 27.5487
33.0499 27.5399
33.0966 27.4627
33.143 27.4267
33.1897 27.3567
33.2361 27.3274
33.2828 27.1964
33.3293 27.0626
33.3759 27.0478
33.4226 26.8573
33.4691 26.7528
33.5158 26.6208
33.5623 26.5318
33.609 26.3143
33.6555 26.2905
33.7022 26.1714
33.7487 26.0647
33.7954 26.0741
33.842 25.962
33.8887 25.9764
33.9353 25.8742
33.982 25.641
34.0286 25.7062
34.0753 25.6733
34.1219 25.4871
34.1687 25.402
34.2152 25.3969
34.262 25.3011
34.3086 25.2287
34.3554 25.1942
34.402 24.9595
34.4488 24.948
34.4954 24.8273
34.5422 24.8439
34.5889 24.7336
34.6357 24.5284
34.6825 24.5373
34.7292 24.5778
34.776 24.3865
34.8227 24.3902
34.8695 24.2709
34.9162 24.2024
34.9631 24.037
35.0098 24.1693
35.0566 23.9967
35.1033 23.9429
35.1502 23.9318
35.1969 23.8774
35.2438 23.7332
35.2906 23.7339
35.3375 23.7592
35.3842 23.6592
35.4311 23.7214
35.4779 23.6037
35.5248 23.5519
35.5716 23.4782
35.6185 23.3551
35.6653 23.2272
35.7123 23.196
35.759 23.1235
35.806 23.0682
35.8528 22.8224
35.8998 22.8642
35.9468 22.8068
35.9936 22.7452
36.0406 22.7402
36.0874 22.6968
36.1345 22.6056
36.1813 22.5351
36.2283 22.4504
36.2752 22.3049
36.3222 22.3144
36.3691 22.2142
36.4161 22.1213
36.463 22.1304
36.5101 22.1474
36.557 22.0326
36.6041 21.8843
36.651 21.8947
36.6981 21.7787
36.745 21.7053
36.7921 21.7262
36.839 21.5072
36.8861 21.5127
36.9331 21.4398
36.9802 21.3554
37.0272 21.2746
37.0743 21.1836
37.1213 21.1629
37.1684 21.0631
37.2154 21.0941
37.2626 20.9515
37.3098 20.8826
37.3568 20.8007
37.404 20.7605
37.451 20.6849
37.4982 20.6882
37.5452 20.5737
37.5924 20.4935
37.6395 20.5517
37.6867 20.4118
37.7337 20.2903
37.781 20.2509
37.8281 20.1734
37.8753 20.1013
37.9224 20.061
37.9697 19.9274
38.0168 19.9302
38.064 19.8587
38.1111 19.7675
38.1584 19.7378
38.2056 19.6613
38.2529 19.6049
38.3 19.5088
38.3473 19.5266
38.3945 19.4404
38.4418 19.3117
38.489 19.2979
38.5363 19.2319
38.5837 19.1707
38.6309 19.1204
38.6782 18.9997
38.7254 19.0088
38.7728 18.9393
38.82 18.8422
38.8674 18.8358
38.9146 18.7611
38.9621 18.6175
39.0093 18.6383
39.0567 18.5912
39.104 18.5753
39.1514 18.4299
39.1987 18.3798
39.2461 18.3721
39.2934 18.2642
39.3409 18.2613
39.3882 18.1034
39.4356 18.1162
39.483 18.0469
39.5304 18.0261
39.5778 17.9939
39.6253 17.8651
39.6726 17.8398
39.7201 17.8438
39.7675 17.7043
39.815 17.6217
39.8624 17.6405
39.9099 17.6508
39.9575 17.4723
40.0049 17.3902
40.0525 17.3447
40.0999 17.3129
40.1474 17.3022
40.1949 17.2117
40.2425 17.1648
40.2899 17.1028
40.3375 17.0169
40.385 17.0259
40.4326 16.927
40.48 16.9272
40.5277 16.8237
40.5752 16.7757
40.6228 16.6831
40.6703 16.748
40.718 16.6309
40.7655 16.6552
40.8132 16.5039
40.8607 16.4645
40.9084 16.4351
40.9559 16.3901
41.0036 16.3844
41.0512 16.2919
41.0989 16.2654
41.1465 16.1657
41.1942 16.1035
41.242 16.0803
41.2896 15.9931
41.3373 15.9193
41.3849 15.8893
41.4327 15.8952
41.4803 15.7917
41.5281 15.7485
41.5758 15.6812
41.6236 15.6275
41.6712 15.6059
41.7191 15.5074
41.7667 15.5271
41.8146 15.4211
41.8622 15.3031
41.9101 15.3381
41.9578 15.2168
42.0057 15.2377
42.0534 15.1252
42.1013 15.0808
42.149 15.0798
42.1969 14.9916
42.2446 14.9541
42.2925 14.8834
42.3403 14.8825
42.3882 14.8504
42.436 14.6968
42.4839 14.6925
42.5319 14.6404
42.5797 14.6226
42.6277 14.5505
42.6755 14.4983
42.7235 14.4417
42.7713 14.4235
42.8193 14.3262
42.8671 14.2809
42.9152 14.2149
42.963 14.2432
43.0111 14.1669
43.0589 14.1033
43.107 14.0342
43.1549 14.0118
43.2029 13.9892
43.2508 13.9111
43.2989 13.8748
43.3468 13.7968
43.3949 13.7812
43.4429 13.7324
43.491 13.6537
43.5389 13.6452
43.5871 13.6095
43.635 13.5283
43.6832 13.5248
43.7312 13.4551
43.7793 13.3967
43.8273 13.3734
43.8755 13.2564
43.9237 13.2497
43.9717 13.2744
44.0199 13.1404
44.068 13.1094
44.1162 13.0615
44.1642 13.0607
44.2125 12.9675
44.2606 12.9157
44.3088 12.9136
44.3569 12.8568
44.4052 12.8604
44.4533 12.7645
44.5016 12.7304
44.5497 12.6547
44.598 12.621
44.6461 12.6006
44.6945 12.5545
44.7426 12.4864
44.791 12.4661
44.8391 12.3994
44.8875 12.4061
44.9357 12.3289
44.984 12.3073
45.0322 12.2389
45.0806 12.2123
45.1288 12.1588
45.1773 12.0647
45.2257 12.0699
45.2739 12.0482
45.3224 11.9471
45.3706 11.9332
45.4191 11.856
45.4673 11.8726
45.5158 11.8273
45.5641 11.8031
45.6126 11.7309
45.6609 11.6922
45.7094 11.6509
45.7577 11.5939
45.8063 11.4824
45.8546 11.5213
45.9031 11.4753
45.9515 11.4373
46.0001 11.3818
46.0484 11.3485
46.097 11.3347
46.1454 11.2933
46.194 11.2397
46.2424 11.1799
46.291 11.159
46.3395 11.1245
46.3881 11.0617
46.4365 11.0363
46.4852 10.9604
46.5337 10.9669
46.5823 10.938
46.631 10.8197
46.6795 10.8523
46.7282 10.8001
46.7767 10.7532
46.8254 10.7164
46.8739 10.6456
46.9226 10.6288
46.9712 10.5763
47.0199 10.5239
47.0685 10.5529
47.1173 10.4797
47.1658 10.4181
47.2146 10.3704
47.2632 10.3602
47.312 10.3087
47.3606 10.2664
47.4095 10.2101
47.4581 10.1905
47.5069 10.1853
47.5556 10.1099
47.6044 10.089
47.6531 10.0486
47.702 9.99592
47.7507 9.98273
47.7996 9.93605
47.8483 9.92084
47.8972 9.86815
47.9461 9.8234
47.9948 9.81233
48.0438 9.7991
48.0925 9.77592
48.1415 9.73961
48.1902 9.64033
48.2392 9.63866
48.288 9.59636
48.337 9.63598
48.3858 9.52511
48.4348 9.47261
48.4837 9.49132
48.5327 9.45251
48.5815 9.40934
48.6306 9.35252
48.6795 9.33263
48.7285 9.27671
48.7774 9.23074
48.8265 9.22901
48.8754 9.18704
48.9245 9.16476
48.9734 9.11189
49.0226 9.07886
49.0715 9.04422
49.1206 9.03235
49.1696 9.00028
49.2188 8.96186
49.2679 8.90467
49.3169 8.84515
49.3661 8.84315
49.4151 8.79576
49.4643 8.78754
49.5134 8.74252
49.5626 8.64716
49.6117 8.6403
49.6609 8.63482
49.71 8.59478
49.7592 8.55088
49.8083 8.50021
49.8576 8.49799
49.9067 8.48529
49.956 8.45281
50.0052 8.39688
50.0545 8.39297
50.1036 8.31653
50.153 8.31184
50.2022 8.30965
50.2515 8.2255
50.3007 8.19931
50.3501 8.1596
50.3993 8.14336
50.4487 8.12956
50.498 8.08457
50.5474 8.03139
50.5966 8.02881
50.6461 8.00241
50.6955 7.97342
50.7448 7.94011
50.7943 7.92158
50.8436 7.86611
50.8931 7.8601
50.9424 7.78562
50.9919 7.77519
51.0413 7.76204
51.0908 7.6941
51.1402 7.69831
51.1897 7.63361
51.2391 7.64059
51.2887 7.58785
51.3381 7.54813
51.3877 7.55879
51.4371 7.50616
51.4867 7.44812
51.5362 7.41941
51.5858 7.44151
51.6353 7.36317
51.6849 7.31442
51.7344 7.32097
51.7841 7.32165
51.8336 7.29073
51.8833 7.22923
51.9328 7.19725
51.9826 7.14603
52.0323 7.13443
52.0818 7.09256
52.1316 7.05084
52.1812 7.03787
52.231 7.03714
52.2806 6.97647
52.3304 6.98657
52.38 6.93251
52.4298 6.91619
52.4794 6.89872
52.5293 6.83487
52.5789 6.84232
52.6288 6.81872
52.6785 6.76195
52.7284 6.75596
52.7781 6.72236
52.828 6.66998
52.8777 6.66763
52.9276 6.64653
52.9774 6.60191
53.0273 6.56293
53.0771 6.52207
53.1271 6.55761
53.1769 6.44107
53.2269 6.45725
53.2767 6.40239
53.3267 6.43417
53.3765 6.37756
53.4266 6.33029
53.4766 6.28878
53.5265 6.28276
53.5765 6.26336
53.6264 6.21961
53.6765 6.2233
53.7264 6.16454
53.7765 6.19939
53.8265 6.14147
53.8766 6.12425
53.9266 6.07756
53.9767 6.04988
54.0267 5.99088
54.0769 6.00043
54.1269 5.98389
54.1771 5.9146
54.2271 5.91563
54.2773 5.85089
54.3274 5.80911
54.3776 5.7798
54.4277 5.77565
54.478 5.7464
54.528 5.70849
54.5783 5.74082
54.6285 5.67536
54.6788 5.58864
54.7289 5.59641
54.7792 5.47124
54.8296 5.47169
54.8798 5.42717
54.9301 5.40363
54.9803 5.3615
55.0307 5.3506
55.0809 5.29763
55.1314 5.27327
55.1816 5.22092
55.232 5.17159
55.2823 5.18427
55.3328 5.05194
55.383 5.01982
55.4335 4.98934
55.4838 4.91435
55.5344 4.94688
55.5847 4.89116
55.6352 4.82712
55.6856 4.77289
55.7361 4.75004