File: XRD/Ni3Fe_FD0070.xy
TT I
1.27165 27.9171
1.31627 25.3743
1.36089 25.133
1.40551 22.6549
1.45013 21.2184
1.49476 22.2474
1.53938 20.291
1.584 19.1829
1.62863 18.523
1.67325 17.1818
1.71787 18.2454
1.7625 17.032
1.80712 16.6838
1.85174 16.5807
1.89636 16.0513
1.94099 16.6664
1.98562 16.5612
2.03025 15.8679
2.07487 16.2229
2.11949 16.4231
2.16411 15.8882
2.20874 16.335
2.25338 16.2861
2.298 16.3401
2.34263 16.1899
2.38725 16.6141
2.43188 16.3823
2.4765 16.6667
2.52115 17.0406
2.56577 17.5112
2.6104 17.913
2.65503 18.6419
2.69965 20.5998
2.7443 21.4012
2.78893 23.427
2.83356 25.1436
2.87818 28.6241
2.92281 32.169
2.96744 36.4124
3.01209 42.7326
3.05672 48.7219
3.10135 53.7752
3.14599 55.6322
3.19062 51.8166
3.23527 46.6897
3.2799 39.7654
3.32454 33.6112
3.36917 30.3682
3.4138 27.4425
3.45844 25.9009
3.50309 25.2756
3.54773 24.2747
3.59237 24.0913
3.637 23.7279
3.68164 23.6524
3.7263 23.9041
3.77094 24.3411
3.81558 24.5627
3.86022 24.7085
3.90486 25.9619
3.9495 25.8209
3.99416 26.3581
4.0388 27.5839
4.08344 27.9305
4.12809 29.1946
4.17273 30.2545
4.21738 31.5095
4.26204 33.3375
4.30669 35.9236
4.35133 38.4501
4.39598 37.8768
4.44063 38.1727
4.4853 38.4754
4.52995 39.7878
4.5746 41.6707
4.61925 43.3072
4.6639 45.3849
4.70855 48.4275
4.75322 51.3271
4.79788 55.0703
4.84253 59.5511
4.88719 65.3775
4.93184 72.9692
4.97652 85.6984
5.02118 105.064
5.06583 124.486
5.11049 149.229
5.15515 209.084
5.19981 433.165
5.24449 1175.03
5.28916 2316.78
5.33382 4731.95
5.37848 2303.44
5.42315 534.701
5.46783 247.795
5.5125 173.958
5.55716 142.334
5.60183 122.732
5.6465 114.29
5.69117 109.78
5.73586 103.832
5.78053 103.324
5.8252 105.177
5.86988 112.918
5.91455 127.469
5.95924 158.783
6.00392 254.529
6.0486 496.525
6.09328 761.308
6.13795 1354.84
6.18263 1002.0
6.22733 367.167
6.27201 173.796
6.3167 112.278
6.36138 84.7338
6.40606 71.0827
6.45075 63.1335
6.49545 57.8667
6.54014 54.0663
6.58483 51.1071
6.62952 49.356
6.67421 47.5436
6.71892 45.9276
6.76361 44.8339
6.8083 43.9856
6.853 43.2997
6.89769 43.0073
6.94239 42.9664
6.98711 43.004
7.03181 43.4212
7.07651 44.4939
7.12121 44.3945
7.16591 42.6733
7.21063 41.5374
7.25533 41.1589
7.30004 40.9949
7.34475 41.0619
7.38945 41.3928
7.43416 42.0358
7.47889 45.8769
7.5236 74.0666
7.56831 187.341
7.61303 118.28
7.65774 52.4464
7.70247 44.1043
7.74719 42.0267
7.79191 41.5089
7.83663 41.3074
7.88135 41.348
7.92607 42.0581
7.97081 42.6894
8.01553 43.4217
8.06026 44.4253
8.10498 45.3636
8.14971 46.5067
8.19446 48.2477
8.23919 50.4308
8.28392 53.7287
8.32865 56.3939
8.37339 60.5933
8.41812 66.4202
8.46288 78.408
8.50761 112.111
8.55235 204.811
8.59709 250.674
8.64183 375.629
8.68658 774.855
8.73134 643.253
8.77609 242.446
8.82083 126.673
8.86558 93.0646
8.91033 80.6429
8.9551 74.1801
8.99985 71.035
9.04461 68.5924
9.08936 68.3544
9.13412 68.8562
9.17888 74.1398
9.22365 116.919
9.26841 300.684
9.31318 224.334
9.35794 87.7942
9.4027 68.3068
9.44749 64.8528
9.49226 63.0306
9.53703 62.6107
9.5818 63.1899
9.62657 62.9485
9.67134 63.4924
9.71614 64.801
9.76091 66.686
9.80569 68.8549
9.85047 71.8232
9.89525 76.7518
9.94005 86.8161
9.98484 115.089
10.0296 192.422
10.0744 223.631
10.1192 262.57
10.164 521.184
10.2088 774.899
10.2536 435.793
10.2984 180.287
10.3432 115.885
10.388 93.0137
10.4328 89.9985
10.4776 105.451
10.5224 109.725
10.5672 113.279
10.612 175.625
10.6568 273.727
10.7017 231.613
10.7465 139.912
10.7913 77.7846
10.8361 62.92
10.8809 57.8207
10.9257 54.523
10.9706 52.9798
11.0154 51.5398
11.0602 49.9376
11.105 49.1353
11.1499 47.5993
11.1947 47.563
11.2395 46.6917
11.2844 46.1346
11.3292 45.2751
11.374 44.5967
11.4189 44.4664
11.4637 43.6318
11.5086 43.4133
11.5534 43.0885
11.5983 43.0564
11.6431 43.0158
11.688 42.674
11.7328 42.9501
11.7777 43.2915
11.8225 43.6222
11.8674 44.8996
11.9122 51.3908
11.9571 84.4909
12.002 104.831
12.0468 67.6113
12.0917 55.2027
12.1366 55.5875
12.1814 55.687
12.2263 61.7863
12.2712 79.716
12.3161 94.2928
12.3609 75.114
12.4058 56.421
12.4507 49.2739
12.4956 46.2041
12.5405 44.5568
12.5853 44.0859
12.6302 43.2315
12.6751 43.7213
12.72 43.7755
12.7649 44.0681
12.8098 44.4036
12.8547 45.0468
12.8996 45.9274
12.9445 46.9445
12.9894 48.1708
13.0343 50.0228
13.0792 55.5235
13.1242 67.7231
13.1691 75.3135
13.214 81.1956
13.2589 79.8941
13.3038 83.1734
13.3487 110.267
13.3937 173.708
13.4386 194.21
13.4835 132.768
13.5285 99.15
13.5734 91.3632
13.6183 82.7122
13.6633 86.6928
13.7082 118.539
13.7531 174.715
13.7981 165.578
13.843 98.1666
13.888 69.0307
13.9329 59.0138
13.9779 55.1725
14.0228 53.0246
14.0678 52.5358
14.1127 56.4008
14.1577 79.5564
14.2027 96.0973
14.2476 69.1642
14.2926 51.9668
14.3376 48.4449
14.3825 47.0108
14.4275 46.2238
14.4725 45.794
14.5175 45.6272
14.5624 45.4705
14.6074 45.2545
14.6524 45.78
14.6974 46.0858
14.7424 46.8641
14.7874 49.1236
14.8324 54.784
14.8774 57.7532
14.9224 56.7541
14.9674 59.2524
15.0124 70.8453
15.0574 97.6883
15.1024 111.568
15.1474 86.0379
15.1924 64.1932
15.2374 52.8363
15.2824 48.1956
15.3274 46.1931
15.3725 45.0481
15.4175 44.4598
15.4625 44.2126
15.5076 43.792
15.5526 43.8126
15.5976 43.9403
15.6426 44.4611
15.6877 46.0132
15.7327 50.5755
15.7778 53.6494
15.8228 52.5276
15.8679 53.4373
15.9129 59.8912
15.958 79.1748
16.003 100.176
16.0481 94.4241
16.0931 76.7365
16.1382 60.9569
16.1833 48.3369
16.2283 43.1321
16.2734 41.0225
16.3185 39.7146
16.3636 38.9098
16.4086 38.1132
16.4537 37.5969
16.4988 37.2198
16.5439 37.2266
16.589 36.7168
16.6341 36.673
16.6792 36.2668
16.7243 36.4312
16.7694 36.3604
16.8145 36.2912
16.8596 36.641
16.9047 37.8889
16.9498 41.4873
16.9949 42.8292
17.04 39.8249
17.0851 37.748
17.1302 38.1508
17.1754 38.7707
17.2205 38.7495
17.2656 38.6089
17.3108 39.8868
17.3559 41.7095
17.401 46.4752
17.4462 49.5648
17.4913 46.0785
17.5365 41.6172
17.5815 39.58
17.6268 39.1687
17.6718 39.2517
17.7171 39.7952
17.7622 42.1562
17.8074 45.3432
17.8525 45.0034
17.8977 44.1757
17.9428 46.018
17.9881 46.7219
18.0331 46.2233
18.0784 46.6488
18.1237 50.6118
18.1688 59.6481
18.214 75.5202
18.2591 80.6559
18.3044 66.5093
18.3495 54.2753
18.3948 51.3804
18.4399 54.4626
18.4852 61.3449
18.5303 61.648
18.5756 54.1238
18.6207 48.7024
18.666 44.2054
18.7112 41.3638
18.7565 40.1494
18.8016 39.5365
18.8469 38.8338
18.892 38.5765
18.9374 38.1453
18.9825 37.8884
19.0278 37.6642
19.073 37.6964
19.1183 37.6484
19.1635 38.0036
19.2088 38.7394
19.254 39.05
19.2993 40.3885
19.3447 44.4013
19.3898 47.1312
19.4352 45.081
19.4804 45.1823
19.5257 45.0946
19.5709 42.1016
19.6163 38.891
19.6615 37.0951
19.7068 36.0038
19.752 35.6395
19.7974 35.4752
19.8426 35.55
19.888 35.5916
19.9332 36.0883
19.9786 36.0346
20.0238 35.6079
20.0692 36.1609
20.1144 37.0861
20.1598 39.0544
20.205 41.6368
20.2504 43.052
20.2957 40.6956
20.3411 38.1491
20.3863 38.1002
20.4318 39.726
20.477 40.6651
20.5224 39.0357
20.5677 36.2166
20.6131 34.4886
20.6586 33.7727
20.7038 33.5953
20.7493 33.6575
20.7945 34.8534
20.84 35.423
20.8853 34.2004
20.9307 32.7663
20.976 32.4287
21.0215 32.1773
21.0668 32.1945
21.1122 32.103
21.1575 31.9161
21.203 31.8279
21.2483 31.7586
21.2938 32.26
21.3391 32.5905
21.3846 33.1099
21.4299 33.3133
21.4754 32.8713
21.5207 32.7627
21.5662 32.3982
21.6116 32.0373
21.6571 32.3643
21.7024 32.8784
21.7479 33.0339
21.7933 32.8587
21.8388 33.0893
21.8843 33.6651
21.9297 34.3535
21.9752 35.9209
22.0206 38.4985
22.0661 40.0739
22.1115 39.0674
22.157 37.7563
22.2024 37.4755
22.248 36.8922
22.2933 36.2844
22.3389 34.8077
22.3843 33.574
22.4299 32.5995
22.4753 32.2997
22.5208 32.1675
22.5662 32.0088
22.6118 31.9363
22.6572 32.0249
22.7028 32.295
22.7483 32.5924
22.7939 33.0745
22.8393 33.2492
22.8849 33.1322
22.9303 32.7135
22.9759 33.0711
23.0214 33.6243
23.067 34.833
23.1126 36.4244
23.1581 36.5221
23.2037 34.9659
23.2492 33.5026
23.2948 32.6972
23.3403 32.6513
23.3859 33.0276
23.4314 33.3959
23.477 33.8325
23.5225 33.3228
23.5682 32.8651
23.6137 33.0712
23.6593 33.6592
23.7048 35.2479
23.7505 36.652
23.796 35.6968
23.8417 33.4696
23.8872 31.8002
23.9329 31.1688
23.9784 30.5063
24.0241 30.3968
24.0697 30.3432
24.1154 30.0154
24.1609 29.7069
24.2066 29.4143
24.2522 29.2308
24.2979 29.0299
24.3434 28.9654
24.3892 28.6524
24.4349 28.6696
24.4805 28.5542
24.5262 28.5487
24.5718 28.4806
24.6175 28.6347
24.6631 28.9847
24.7089 29.003
24.7545 28.7713
24.8002 28.3816
24.8458 28.1942
24.8916 27.95
24.9372 27.9204
24.983 27.9754
25.0286 27.9457
25.0744 27.962
25.12 27.966
25.1658 28.0697
25.2114 28.0925
25.2572 28.4039
25.3029 28.717
25.3487 28.949
25.3943 28.7681
25.4402 28.5819
25.4858 29.0796
25.5316 28.9834
25.5773 28.6151
25.6231 28.0498
25.669 27.3457
25.7147 27.281
25.7605 27.0509
25.8062 27.133
25.8521 27.287
25.8977 27.078
25.9436 26.9428
25.9893 26.6667
26.0352 26.7286
26.0809 26.6088
26.1268 26.7018
26.1725 26.7919
26.2184 27.1244
26.2641 27.3669
26.31 27.4043
26.3557 27.111
26.4017 26.6891
26.4474 26.7661
26.4933 26.6543
26.5391 26.4769
26.585 26.4897
26.6308 26.4601
26.6767 26.5506
26.7225 26.8233
26.7684 27.2287
26.8142 27.5391
26.8601 27.5016
26.9059 27.3999
26.9519 27.2095
26.9979 27.2199
27.0437 26.8666
27.0896 26.4138
27.1354 26.217
27.1814 26.0101
27.2272 25.7861
27.2732 25.7595
27.3191 25.5333
27.3651 25.6049
27.4109 25.4582
27.4569 25.3857
27.5027 25.417
27.5488 25.4936
27.5946 25.4186
27.6407 25.3455
27.6865 25.5574
27.7326 25.5447
27.7784 25.4666
27.8245 25.1654
27.8703 25.1618
27.9164 25.1125
27.9623 25.1107
28.0084 25.1746
28.0543 25.3472
28.1003 25.3348
28.1462 25.2792
28.1923 25.5002
28.2384 25.5448
28.2843 25.5199
28.3304 25.1933
28.3764 25.1383
28.4225 24.9691
28.4684 24.8327
28.5145 24.5314
28.5605 24.3466
28.6066 24.0832
28.6526 24.0349
28.6987 23.8342
28.7447 23.744
28.7908 23.629
28.8368 23.5421
28.8829 23.5049
28.9289 23.4622
28.9751 23.3586
29.0211 23.3796
29.0673 23.3166
29.1133 23.3788
29.1595 23.1405
29.2055 23.0643
29.2517 22.8943
29.2977 22.7794
29.3439 22.7086
29.3899 22.59
29.4361 22.6211
29.4824 22.5672
29.5284 22.4623
29.5746 22.5304
29.6207 22.4729
29.6669 22.2845
29.713 22.1748
29.7593 22.0093
29.8053 22.0372
29.8516 21.9597
29.8977 21.9246
29.9439 21.7679
29.99 21.8921
30.0363 21.7155
30.0824 21.8558
30.1287 21.7375
30.1748 21.7489
30.2211 21.6193
30.2673 21.5343
30.3136 21.5408
30.3597 21.552
30.406 21.5593
30.4522 21.479
30.4985 21.3958
30.5447 21.3474
30.591 21.2862
30.6372 21.2518
30.6835 21.164
30.7297 21.1877
30.7761 21.2041
30.8224 21.2369
30.8686 21.3531
30.915 21.3813
30.9612 21.3401
31.0076 21.2015
31.0538 21.1607
31.1002 21.0259
31.1464 20.8761
31.1928 20.796
31.2391 20.758
31.2855 20.7112
31.3317 20.595
31.3781 20.6791
31.4244 20.585
31.4708 20.5003
31.5171 20.5329
31.5636 20.5283
31.6098 20.5097
31.6563 20.5068
31.7026 20.4878
31.7491 20.4216
31.7953 20.2651
31.8418 20.2381
31.8881 20.1401
31.9346 20.0991
31.9809 20.0982
32.0275 20.013
32.074 19.9265
32.1203 19.9758
32.1668 19.9967
32.2132 19.8852
32.2597 19.8971
32.306 19.8014
32.3526 19.5851
32.399 19.5893
32.4455 19.4793
32.4919 19.3894
32.5385 19.3887
32.5848 19.2694
32.6314 19.1802
32.6778 19.1949
32.7244 19.1986
32.7708 18.9975
32.8174 19.0257
32.8638 18.8721
32.9104 18.969
32.9569 18.9151
33.0035 18.7872
33.0499 18.7982
33.0966 18.7842
33.143 18.6799
33.1897 18.5645
33.2361 18.5193
33.2828 18.5476
33.3293 18.4316
33.3759 18.4583
33.4226 18.4336
33.4691 18.4059
33.5158 18.3936
33.5623 18.3039
33.609 18.1423
33.6555 18.0375
33.7022 17.9748
33.7487 17.9182
33.7954 17.9201
33.842 17.7603
33.8887 17.7628
33.9353 17.7469
33.982 17.6848
34.0286 17.6359
34.0753 17.5973
34.1219 17.5625
34.1687 17.5156
34.2152 17.4661
34.262 17.4414
34.3086 17.2873
34.3554 17.1759
34.402 17.1917
34.4488 17.0838
34.4954 17.0512
34.5422 17.0597
34.5889 16.9701
34.6357 16.9111
34.6825 16.8499
34.7292 16.7139
34.776 16.7534
34.8227 16.7275
34.8695 16.637
34.9162 16.6613
34.9631 16.5472
35.0098 16.6136
35.0566 16.4224
35.1033 16.5023
35.1502 16.3632
35.1969 16.3347
35.2438 16.2696
35.2906 16.2714
35.3375 16.186
35.3842 16.1446
35.4311 16.1846
35.4779 16.0767
35.5248 16.1529
35.5716 16.0879
35.6185 16.0501
35.6653 16.0829
35.7123 15.9419
35.759 15.9882
35.806 15.8916
35.8528 15.7744
35.8998 15.7389
35.9468 15.6078
35.9936 15.6552
36.0406 15.62
36.0874 15.6074
36.1345 15.55
36.1813 15.4657
36.2283 15.447
36.2752 15.3798
36.3222 15.3678
36.3691 15.3573
36.4161 15.1616
36.463 15.2206
36.5101 15.2034
36.557 15.1195
36.6041 15.0688
36.651 15.0667
36.6981 15.0454
36.745 15.0038
36.7921 14.9751
36.839 14.8784
36.8861 14.839
36.9331 14.7865
36.9802 14.8031
37.0272 14.6451
37.0743 14.6899
37.1213 14.5855
37.1684 14.5446
37.2154 14.5164
37.2626 14.4437
37.3098 14.4354
37.3568 14.3941
37.404 14.3947
37.451 14.3051
37.4982 14.2816
37.5452 14.1555
37.5924 14.1717
37.6395 14.1814
37.6867 14.143
37.7337 14.0485
37.781 13.9809
37.8281 13.9237
37.8753 13.8738
37.9224 13.8425
37.9697 13.82
38.0168 13.7373
38.064 13.686
38.1111 13.6863
38.1584 13.6155
38.2056 13.6334
38.2529 13.5927
38.3 13.4758
38.3473 13.5232
38.3945 13.4609
38.4418 13.3998
38.489 13.3367
38.5363 13.3017
38.5837 13.2593
38.6309 13.2028
38.6782 13.1985
38.7254 13.1601
38.7728 13.1024
38.82 13.0566
38.8674 13.0175
38.9146 13.0017
38.9621 12.9932
39.0093 12.9798
39.0567 12.8811
39.104 12.853
39.1514 12.7806
39.1987 12.7709
39.2461 12.7587
39.2934 12.6444
39.3409 12.5937
39.3882 12.6131
39.4356 12.532
39.483 12.5136
39.5304 12.4975
39.5778 12.475
39.6253 12.4114
39.6726 12.3494
39.7201 12.341
39.7675 12.2656
39.815 12.2713
39.8624 12.2069
39.9099 12.1506
39.9575 12.133
40.0049 12.1337
40.0525 12.0418
40.0999 12.0376
40.1474 12.0337
40.1949 11.9741
40.2425 11.9332
40.2899 11.8742
40.3375 11.8492
40.385 11.7629
40.4326 11.7996
40.48 11.7295
40.5277 11.7224
40.5752 11.6652
40.6228 11.6463
40.6703 11.5679
40.718 11.5382
40.7655 11.5386
40.8132 11.4735
40.8607 11.4359
40.9084 11.4278
40.9559 11.4158
41.0036 11.3499
41.0512 11.2998
41.0989 11.3025
41.1465 11.2868
41.1942 11.2367
41.242 11.1433
41.2896 11.1432
41.3373 11.1208
41.3849 11.1296
41.4327 11.0413
41.4803 10.9917
41.5281 10.9667
41.5758 10.9525
41.6236 10.8642
41.6712 10.8561
41.7191 10.8009
41.7667 10.8169
41.8146 10.7723
41.8622 10.7187
41.9101 10.7167
41.9578 10.6144
42.0057 10.606
42.0534 10.6126
42.1013 10.5462
42.149 10.5182
42.1969 10.5227
42.2446 10.4022
42.2925 10.4386
42.3403 10.3552
42.3882 10.3667
42.436 10.3436
42.4839 10.2338
42.5319 10.2476
42.5797 10.189
42.6277 10.169
42.6755 10.1282
42.7235 10.0642
42.7713 10.0458
42.8193 10.0808
42.8671 10.0658
42.9152 9.98951
42.963 9.90311
43.0111 9.891
43.0589 9.87948
43.107 9.82058
43.1549 9.81368
43.2029 9.76827
43.2508 9.77785
43.2989 9.70871
43.3468 9.67451
43.3949 9.66139
43.4429 9.56963
43.491 9.5498
43.5389 9.52157
43.5871 9.50219
43.635 9.5065
43.6832 9.44113
43.7312 9.38901
43.7793 9.32154
43.8273 9.34341
43.8755 9.28892
43.9237 9.30813
43.9717 9.26641
44.0199 9.26443
44.068 9.17995
44.1162 9.18058
44.1642 9.17695
44.2125 9.0971
44.2606 9.11438
44.3088 9.01754
44.3569 9.01449
44.4052 8.97015
44.4533 8.97257
44.5016 8.93628
44.5497 8.897
44.598 8.87097
44.6461 8.81228
44.6945 8.82354
44.7426 8.74771
44.791 8.7143
44.8391 8.71366
44.8875 8.69576
44.9357 8.70609
44.984 8.60556
45.0322 8.63421
45.0806 8.53613
45.1288 8.48959
45.1773 8.4876
45.2257 8.51431
45.2739 8.46202
45.3224 8.42861
45.3706 8.39001
45.4191 8.35239
45.4673 8.34849
45.5158 8.28787
45.5641 8.29718
45.6126 8.26251
45.6609 8.24079
45.7094 8.20435
45.7577 8.17885
45.8063 8.1352
45.8546 8.0887
45.9031 8.06931
45.9515 8.0424
46.0001 8.03433
46.0484 8.0112
46.097 7.96832
46.1454 7.94628
46.194 7.91264
46.2424 7.85451
46.291 7.84104
46.3395 7.8187
46.3881 7.76514
46.4365 7.7783
46.4852 7.75399
46.5337 7.71864
46.5823 7.68719
46.631 7.63842
46.6795 7.62398
46.7282 7.59594
46.7767 7.58258
46.8254 7.54439
46.8739 7.52176
46.9226 7.45237
46.9712 7.45729
47.0199 7.4517
47.0685 7.41773
47.1173 7.36561
47.1658 7.36951
47.2146 7.32576
47.2632 7.31498
47.312 7.28293
47.3606 7.26249
47.4095 7.2391
47.4581 7.20422
47.5069 7.20632
47.5556 7.16294
47.6044 7.13444
47.6531 7.12588
47.702 7.02416
47.7507 7.03632
47.7996 7.0457
47.8483 6.99114
47.8972 6.98538
47.9461 6.94661
47.9948 6.92664
48.0438 6.90036
48.0925 6.87795
48.1415 6.84053
48.1902 6.80526
48.2392 6.82111
48.288 6.80127
48.337 6.78297
48.3858 6.74689
48.4348 6.70312
48.4837 6.71195
48.5327 6.64442
48.5815 6.62465
48.6306 6.61156
48.6795 6.5795
48.7285 6.56233
48.7774 6.53654
48.8265 6.50999
48.8754 6.50684
48.9245 6.44245
48.9734 6.48215
49.0226 6.44833
49.0715 6.41221
49.1206 6.37316
49.1696 6.35688
49.2188 6.33133
49.2679 6.28978
49.3169 6.25144
49.3661 6.25068
49.4151 6.21492
49.4643 6.20342
49.5134 6.16876
49.5626 6.17535
49.6117 6.1569
49.6609 6.12122
49.71 6.11124
49.7592 6.0982
49.8083 6.06988
49.8576 6.04666
49.9067 6.01242
49.956 5.99386
50.0052 5.99881
50.0545 5.96857
50.1036 5.90394
50.153 5.91036
50.2022 5.8976
50.2515 5.84242
50.3007 5.81984
50.3501 5.81734
50.3993 5.82441
50.4487 5.76985
50.498 5.74334
50.5474 5.74223
50.5966 5.70059
50.6461 5.70103
50.6955 5.67947
50.7448 5.6589
50.7943 5.6428
50.8436 5.63606
50.8931 5.58737
50.9424 5.56699
50.9919 5.52939
51.0413 5.54936
51.0908 5.51722
51.1402 5.50204
51.1897 5.45609
51.2391 5.45755
51.2887 5.42039
51.3381 5.40346
51.3877 5.39777
51.4371 5.36463
51.4867 5.33329
51.5362 5.31519
51.5858 5.31385
51.6353 5.2522
51.6849 5.27567
51.7344 5.21938
51.7841 5.21808
51.8336 5.18653
51.8833 5.19324
51.9328 5.15398
51.9826 5.12343
52.0323 5.11741
52.0818 5.09408
52.1316 5.04536
52.1812 5.05752
52.231 5.06678
52.2806 5.02718
52.3304 4.99196
52.38 4.99961
52.4298 4.93504
52.4794 4.91693
52.5293 4.89453
52.5789 4.88776
52.6288 4.86958
52.6785 4.87205
52.7284 4.79536
52.7781 4.78325
52.828 4.80409
52.8777 4.79333
52.9276 4.73003
52.9774 4.73759
53.0273 4.73015
53.0771 4.70191
53.1271 4.70497
53.1769 4.67761
53.2269 4.62658
53.2767 4.65461
53.3267 4.59839
53.3765 4.60537
53.4266 4.55654
53.4766 4.53826
53.5265 4.55423
53.5765 4.51925
53.6264 4.47664
53.6765 4.46958
53.7264 4.45001
53.7765 4.43279
53.8265 4.43737
53.8766 4.3976
53.9266 4.3966
53.9767 4.34683
54.0267 4.32006
54.0769 4.31499
54.1269 4.23658
54.1771 4.26736
54.2271 4.26621
54.2773 4.16854
54.3274 4.19092
54.3776 4.1463
54.4277 4.13066
54.478 4.07159
54.528 4.059
54.5783 4.01944
54.6285 3.95047
54.6788 3.94687
54.7289 3.89323
54.7792 3.88303
54.8296 3.86827
54.8798 3.79703
54.9301 3.76604
54.9803 3.78266
55.0307 3.74343
55.0809 3.67181
55.1314 3.67396
55.1816 3.60776
55.232 3.59119
55.2823 3.54772
55.3328 3.48361
55.383 3.44116
55.4335 3.50324
55.4838 3.36289
55.5344 3.37171
55.5847 3.34355
55.6352 3.30725
55.6856 3.29927
55.7361 3.31521