File: XRD/Ni3Fe_FD0682.xy
TT I
1.27165 7.61949
1.31627 6.73129
1.36089 6.84977
1.40551 6.26822
1.45013 6.03585
1.49476 5.79575
1.53938 5.66945
1.584 5.95031
1.62863 5.40058
1.67325 5.16623
1.71787 5.56479
1.7625 4.77463
1.80712 4.65277
1.85174 4.59036
1.89636 4.64146
1.94099 4.69881
1.98562 4.36206
2.03025 4.70948
2.07487 4.75271
2.11949 5.02545
2.16411 4.79716
2.20874 10.4683
2.25338 14.8837
2.298 5.61414
2.34263 4.86772
2.38725 5.70858
2.43188 6.22751
2.4765 6.45267
2.52115 6.89525
2.56577 7.63394
2.6104 8.00228
2.65503 8.17043
2.69965 7.95569
2.7443 8.4863
2.78893 8.60556
2.83356 8.6501
2.87818 8.61618
2.92281 8.96301
2.96744 9.74497
3.01209 10.1861
3.05672 11.059
3.10135 12.0276
3.14599 12.8736
3.19062 14.5361
3.23527 14.9719
3.2799 15.2041
3.32454 16.7517
3.36917 17.5209
3.4138 18.7235
3.45844 19.7561
3.50309 20.6894
3.54773 21.58
3.59237 23.0716
3.637 64.9685
3.68164 43.837
3.7263 25.7673
3.77094 26.0572
3.81558 26.5353
3.86022 27.0983
3.90486 28.7069
3.9495 29.3961
3.99416 31.0443
4.0388 31.7296
4.08344 33.297
4.12809 34.3018
4.17273 36.2158
4.21738 40.5105
4.26204 162.564
4.30669 138.398
4.35133 45.4248
4.39598 43.9042
4.44063 50.6371
4.4853 56.9827
4.52995 52.252
4.5746 53.0448
4.61925 53.0834
4.6639 55.55
4.70855 58.389
4.75322 61.4155
4.79788 65.5334
4.84253 67.8949
4.88719 72.941
4.93184 75.7741
4.97652 81.1683
5.02118 87.4747
5.06583 95.5067
5.11049 106.737
5.15515 160.566
5.19981 411.181
5.24449 3019.51
5.28916 12464.4
5.33382 2684.48
5.37848 187.722
5.42315 128.66
5.46783 115.168
5.5125 107.545
5.55716 102.277
5.60183 98.4953
5.6465 96.0244
5.69117 94.768
5.73586 92.8201
5.78053 94.1344
5.8252 93.3164
5.86988 95.0863
5.91455 95.5172
5.95924 105.313
6.00392 240.143
6.0486 1016.28
6.09328 4542.28
6.13795 3109.75
6.18263 216.568
6.22733 91.3086
6.27201 81.3208
6.3167 90.7273
6.36138 76.1856
6.40606 69.2143
6.45075 68.0921
6.49545 65.0354
6.54014 63.2297
6.58483 62.5199
6.62952 62.0273
6.67421 79.9433
6.71892 107.815
6.76361 64.2945
6.8083 58.5274
6.853 57.736
6.89769 56.5932
6.94239 56.0663
6.98711 55.4194
7.03181 55.6001
7.07651 54.9787
7.12121 54.7914
7.16591 55.1656
7.21063 55.1422
7.25533 63.6911
7.30004 126.2
7.34475 75.6396
7.38945 55.4708
7.43416 54.2011
7.47889 53.9564
7.5236 54.3126
7.56831 54.7834
7.61303 56.0487
7.65774 56.6277
7.70247 55.9471
7.74719 56.0793
7.79191 56.5644
7.83663 56.4526
7.88135 57.6041
7.92607 58.5076
7.97081 59.7829
8.01553 60.7884
8.06026 62.1674
8.10498 63.7503
8.14971 70.5122
8.19446 70.6396
8.23919 69.4052
8.28392 71.7772
8.32865 73.9828
8.37339 78.5109
8.41812 84.5642
8.46288 107.112
8.50761 182.486
8.55235 409.787
8.59709 1238.0
8.64183 2244.05
8.68658 880.042
8.73134 153.829
8.77609 98.0504
8.82083 92.2188
8.86558 90.5132
8.91033 90.1147
8.9551 89.3047
8.99985 85.0818
9.04461 83.6225
9.08936 83.1185
9.13412 82.0921
9.17888 81.7282
9.22365 82.1451
9.26841 81.9585
9.31318 83.3789
9.35794 84.4147
9.4027 83.8315
9.44749 84.1711
9.49226 84.8694
9.53703 85.7384
9.5818 88.0274
9.62657 91.814
9.67134 95.7953
9.71614 93.0942
9.76091 94.3149
9.80569 97.5906
9.85047 100.224
9.89525 116.211
9.94005 130.825
9.98484 195.506
10.0296 364.859
10.0744 852.169
10.1192 1794.79
10.164 1556.03
10.2088 362.51
10.2536 122.472
10.2984 110.406
10.3432 110.257
10.388 105.092
10.4328 123.615
10.4776 166.033
10.5224 293.067
10.5672 510.657
10.612 494.881
10.6568 193.181
10.7017 94.191
10.7465 85.9202
10.7913 83.0466
10.8361 81.0898
10.8809 78.7131
10.9257 77.5403
10.9706 77.8709
11.0154 74.5663
11.0602 72.4246
11.105 71.6618
11.1499 72.9452
11.1947 77.0041
11.2395 71.7019
11.2844 68.9377
11.3292 66.5766
11.374 65.7441
11.4189 65.195
11.4637 64.8275
11.5086 64.8398
11.5534 66.017
11.5983 64.532
11.6431 63.2842
11.688 62.8591
11.7328 62.6232
11.7777 62.6445
11.8225 62.5923
11.8674 62.2726
11.9122 62.589
11.9571 62.8539
12.002 64.0149
12.0468 69.2596
12.0917 79.8419
12.1366 105.087
12.1814 154.135
12.2263 202.946
12.2712 158.073
12.3161 89.6227
12.3609 67.7619
12.4058 64.3671
12.4507 63.7169
12.4956 64.2261
12.5405 64.4883
12.5853 64.9762
12.6302 69.9458
12.6751 73.0505
12.72 68.4166
12.7649 67.5925
12.8098 68.3849
12.8547 69.5877
12.8996 70.89
12.9445 72.5573
12.9894 74.3856
13.0343 76.0569
13.0792 79.8179
13.1242 91.8428
13.1691 114.494
13.214 153.055
13.2589 248.486
13.3038 379.381
13.3487 421.467
13.3937 251.496
13.4386 120.191
13.4835 108.204
13.5285 122.88
13.5734 163.549
13.6183 255.074
13.6633 354.105
13.7082 324.472
13.7531 170.491
13.7981 93.6322
13.843 81.4185
13.888 79.2274
13.9329 76.8785
13.9779 75.6163
14.0228 74.1079
14.0678 72.7305
14.1127 72.1182
14.1577 72.0665
14.2027 71.2701
14.2476 70.3338
14.2926 70.1791
14.3376 70.6214
14.3825 69.6817
14.4275 68.8954
14.4725 68.5226
14.5175 68.661
14.5624 68.8452
14.6074 70.188
14.6524 70.9685
14.6974 70.2815
14.7424 73.461
14.7874 80.3205
14.8324 90.6879
14.8774 113.201
14.9224 158.609
14.9674 213.4
15.0124 217.794
15.0574 140.687
15.1024 86.9211
15.1474 71.6288
15.1924 69.8737
15.2374 69.6428
15.2824 68.9599
15.3274 67.5673
15.3725 66.595
15.4175 66.4608
15.4625 65.7771
15.5076 65.9217
15.5526 65.7771
15.5976 65.6409
15.6426 67.7057
15.6877 73.4417
15.7327 80.8751
15.7778 96.6211
15.8228 129.547
15.8679 175.024
15.9129 194.706
15.958 150.354
16.003 91.3832
16.0481 66.4243
16.0931 63.3786
16.1382 61.7468
16.1833 59.9964
16.2283 58.5783
16.2734 58.125
16.3185 57.9176
16.3636 58.1091
16.4086 56.9965
16.4537 56.0317
16.4988 55.1816
16.5439 55.2158
16.589 54.8889
16.6341 54.6637
16.6792 54.2794
16.7243 54.6842
16.7694 54.643
16.8145 54.4308
16.8596 54.9119
16.9047 55.9222
16.9498 56.1992
16.9949 55.3022
17.04 55.9755
17.0851 57.0823
17.1302 58.7279
17.1754 61.968
17.2205 67.1948
17.2656 75.0961
17.3108 83.549
17.3559 81.6378
17.401 69.8785
17.4462 61.4546
17.4913 58.9615
17.5365 58.8489
17.5815 58.9572
17.6268 59.4196
17.6718 60.2961
17.7171 60.6097
17.7622 61.3502
17.8074 62.2896
17.8525 65.0676
17.8977 69.0136
17.9428 74.327
17.9881 83.8969
18.0331 102.155
18.0784 124.414
18.1237 142.381
18.1688 130.419
18.214 100.811
18.2591 85.8323
18.3044 91.3384
18.3495 101.026
18.3948 105.844
18.4399 94.4338
18.4852 75.3845
18.5303 65.0858
18.5756 61.9438
18.6207 61.0468
18.666 60.2059
18.7112 59.5804
18.7565 58.7625
18.8016 58.3655
18.8469 57.7162
18.892 57.4957
18.9374 56.9226
18.9825 56.9037
19.0278 56.8809
19.073 56.945
19.1183 57.3673
19.1635 57.9991
19.2088 59.4401
19.254 62.1491
19.2993 66.9372
19.3447 73.3186
19.3898 76.1744
19.4352 71.2112
19.4804 62.1098
19.5257 56.3056
19.5709 53.9933
19.6163 53.6548
19.6615 53.4512
19.7068 53.3173
19.752 52.9816
19.7974 53.6391
19.8426 54.5897
19.888 54.9054
19.9332 56.249
19.9786 59.1152
20.0238 62.9016
20.0692 67.5989
20.1144 69.9019
20.1598 67.7294
20.205 63.0572
20.2504 61.8335
20.2957 64.1413
20.3411 65.4675
20.3863 63.2644
20.4318 57.6033
20.477 52.7724
20.5224 51.1606
20.5677 50.4993
20.6131 49.892
20.6586 49.4662
20.7038 49.2094
20.7493 48.8556
20.7945 49.0109
20.84 48.7441
20.8853 48.5526
20.9307 48.5318
20.976 48.5707
21.0215 48.5642
21.0668 48.8419
21.1122 49.2825
21.1575 50.1184
21.203 50.9241
21.2483 51.3345
21.2938 51.2629
21.3391 49.8352
21.3846 48.6947
21.4299 48.1637
21.4754 48.3647
21.5207 48.5094
21.5662 48.8749
21.6116 49.4405
21.6571 49.7295
21.7024 50.8884
21.7479 52.7899
21.7933 55.7471
21.8388 59.5728
21.8843 63.2773
21.9297 64.8577
21.9752 62.7378
22.0206 58.8493
22.0661 56.2699
22.1115 56.1564
22.157 55.9431
22.2024 53.7795
22.248 50.8986
22.2933 49.4656
22.3389 48.9495
22.3843 48.7486
22.4299 48.607
22.4753 48.7348
22.5208 48.6052
22.5662 48.4285
22.6118 48.6591
22.6572 48.8788
22.7028 49.0742
22.7483 49.6519
22.7939 50.479
22.8393 52.0336
22.8849 54.3273
22.9303 56.3463
22.9759 57.8461
23.0214 57.1124
23.067 54.0975
23.1126 50.7697
23.1581 48.9986
23.2037 48.7468
23.2492 48.9415
23.2948 48.6799
23.3403 48.9727
23.3859 49.7555
23.4314 50.8734
23.477 52.88
23.5225 54.9831
23.5682 57.2856
23.6137 57.7644
23.6593 54.9285
23.7048 51.0028
23.7505 47.8405
23.796 46.3116
23.8417 45.932
23.8872 45.3598
23.9329 45.2413
23.9784 44.7459
24.0241 44.4531
24.0697 44.231
24.1154 44.0457
24.1609 43.8062
24.2066 43.8137
24.2522 43.7121
24.2979 43.3221
24.3434 43.1878
24.3892 43.1623
24.4349 43.1592
24.4805 42.8831
24.5262 43.0215
24.5718 42.8707
24.6175 42.7861
24.6631 42.7589
24.7089 42.3593
24.7545 42.3114
24.8002 42.2065
24.8458 42.0836
24.8916 42.1383
24.9372 42.1041
24.983 42.5261
25.0286 42.8647
25.0744 43.3257
25.12 43.7999
25.1658 44.1607
25.2114 44.7388
25.2572 44.7465
25.3029 44.8377
25.3487 44.8271
25.3943 44.3931
25.4402 43.2405
25.4858 42.1475
25.5316 41.2544
25.5773 40.8288
25.6231 40.7776
25.669 40.4481
25.7147 40.5388
25.7605 40.3361
25.8062 40.4259
25.8521 40.4774
25.8977 40.5813
25.9436 40.8615
25.9893 41.0173
26.0352 41.3343
26.0809 41.4841
26.1268 41.6558
26.1725 41.2208
26.2184 40.6071
26.2641 40.1525
26.31 40.0748
26.3557 40.0317
26.4017 40.1338
26.4474 40.3643
26.4933 40.746
26.5391 41.2139
26.585 41.7254
26.6308 42.111
26.6767 42.2464
26.7225 41.8419
26.7684 41.2016
26.8142 40.7817
26.8601 40.4352
26.9059 39.8579
26.9519 39.3673
26.9979 39.0763
27.0437 38.8153
27.0896 38.6733
27.1354 38.6886
27.1814 38.5628
27.2272 38.4626
27.2732 38.5171
27.3191 38.2878
27.3651 38.4849
27.4109 38.4371
27.4569 38.3663
27.5027 38.5126
27.5488 38.4347
27.5946 38.3186
27.6407 38.0456
27.6865 38.028
27.7326 37.8809
27.7784 37.7813
27.8245 37.8845
27.8703 37.9424
27.9164 38.3712
27.9623 38.3906
28.0084 38.7655
28.0543 39.2712
28.1003 38.9279
28.1462 38.6041
28.1923 38.3412
28.2384 37.8277
28.2843 37.5808
28.3304 37.0531
28.3764 36.5515
28.4225 36.3664
28.4684 36.1762
28.5145 35.8555
28.5605 35.7843
28.6066 35.5663
28.6526 35.4964
28.6987 35.569
28.7447 35.506
28.7908 35.3417
28.8368 35.3536
28.8829 35.4249
28.9289 35.3357
28.9751 35.1332
29.0211 34.8893
29.0673 34.5
29.1133 34.4998
29.1595 34.3682
29.2055 34.2672
29.2517 34.2808
29.2977 34.2361
29.3439 34.1538
29.3899 34.1768
29.4361 34.0708
29.4824 33.9074
29.5284 33.7191
29.5746 33.2486
29.6207 32.9825
29.6669 33.0097
29.713 32.9459
29.7593 32.7294
29.8053 32.864
29.8516 32.7105
29.8977 32.7448
29.9439 32.5537
29.99 32.4512
30.0363 32.3821
30.0824 32.3641
30.1287 32.4639
30.1748 32.3501
30.2211 32.413
30.2673 32.1893
30.3136 32.2819
30.3597 32.1658
30.406 32.1974
30.4522 32.0215
30.4985 31.9779
30.5447 32.1391
30.591 32.0473
30.6372 32.1177
30.6835 32.1925
30.7297 32.069
30.7761 32.1048
30.8224 31.8985
30.8686 31.7042
30.915 31.5527
30.9612 31.4266
31.0076 31.2474
31.0538 31.1092
31.1002 31.0489
31.1464 30.8983
31.1928 30.791
31.2391 30.9201
31.2855 30.8245
31.3317 30.8654
31.3781 30.8071
31.4244 30.9196
31.4708 30.7886
31.5171 30.7865
31.5636 30.731
31.6098 30.475
31.6563 30.2877
31.7026 30.2038
31.7491 30.0047
31.7953 30.1915
31.8418 30.0905
31.8881 30.1705
31.9346 30.1555
31.9809 29.9916
32.0275 29.767
32.074 29.7758
32.1203 29.4928
32.1668 29.4782
32.2132 29.3241
32.2597 29.1112
32.306 29.1851
32.3526 28.9052
32.399 28.9075
32.4455 28.679
32.4919 28.6237
32.5385 28.5996
32.5848 28.4407
32.6314 28.4711
32.6778 28.354
32.7244 28.2628
32.7708 28.1156
32.8174 28.1026
32.8638 27.9668
32.9104 27.9092
32.9569 27.9294
33.0035 27.8389
33.0499 27.8355
33.0966 27.6863
33.143 27.7672
33.1897 27.668
33.2361 27.5744
33.2828 27.4785
33.3293 27.3782
33.3759 27.3215
33.4226 27.0702
33.4691 27.0848
33.5158 26.912
33.5623 26.8408
33.609 26.6346
33.6555 26.6256
33.7022 26.511
33.7487 26.4559
33.7954 26.4547
33.842 26.3116
33.8887 26.3182
33.9353 26.1382
33.982 26.0667
34.0286 26.0006
34.0753 25.93
34.1219 25.8167
34.1687 25.7869
34.2152 25.7545
34.262 25.5731
34.3086 25.5023
34.3554 25.4102
34.402 25.2719
34.4488 25.2951
34.4954 25.2611
34.5422 25.0514
34.5889 24.9702
34.6357 24.8455
34.6825 24.9055
34.7292 24.7779
34.776 24.7314
34.8227 24.659
34.8695 24.5743
34.9162 24.513
34.9631 24.4482
35.0098 24.4171
35.0566 24.2689
35.1033 24.1989
35.1502 24.2656
35.1969 24.173
35.2438 24.1534
35.2906 24.0643
35.3375 24.0794
35.3842 23.9968
35.4311 23.9734
35.4779 23.8885
35.5248 23.8123
35.5716 23.7067
35.6185 23.6394
35.6653 23.5486
35.7123 23.5109
35.759 23.4681
35.806 23.352
35.8528 23.1473
35.8998 23.1978
35.9468 23.1262
35.9936 23.1086
36.0406 22.9196
36.0874 22.9153
36.1345 22.8518
36.1813 22.7859
36.2283 22.7053
36.2752 22.5595
36.3222 22.6362
36.3691 22.5133
36.4161 22.3644
36.463 22.4459
36.5101 22.4026
36.557 22.3282
36.6041 22.0629
36.651 22.0581
36.6981 22.0686
36.745 21.9976
36.7921 21.8418
36.839 21.9211
36.8861 21.7512
36.9331 21.6547
36.9802 21.5916
37.0272 21.5312
37.0743 21.4547
37.1213 21.4467
37.1684 21.3307
37.2154 21.2558
37.2626 21.259
37.3098 21.1913
37.3568 21.0712
37.404 21.0117
37.451 20.8963
37.4982 20.86
37.5452 20.7825
37.5924 20.7071
37.6395 20.8128
37.6867 20.6386
37.7337 20.4886
37.781 20.4592
37.8281 20.4283
37.8753 20.3275
37.9224 20.2835
37.9697 20.2802
38.0168 20.1595
38.064 20.1168
38.1111 20.0321
38.1584 19.9052
38.2056 19.9732
38.2529 19.8737
38.3 19.816
38.3473 19.7529
38.3945 19.6018
38.4418 19.5944
38.489 19.5596
38.5363 19.4223
38.5837 19.4083
38.6309 19.3702
38.6782 19.2314
38.7254 19.2433
38.7728 19.1254
38.82 19.0497
38.8674 19.0193
38.9146 18.9776
38.9621 18.9535
39.0093 18.9067
39.0567 18.861
39.104 18.8054
39.1514 18.6069
39.1987 18.5817
39.2461 18.6531
39.2934 18.5145
39.3409 18.4401
39.3882 18.3184
39.4356 18.3016
39.483 18.2254
39.5304 18.2038
39.5778 18.2042
39.6253 18.1563
39.6726 18.0594
39.7201 18.041
39.7675 17.9801
39.815 17.9581
39.8624 17.7839
39.9099 17.8126
39.9575 17.6919
40.0049 17.5927
40.0525 17.563
40.0999 17.5171
40.1474 17.4842
40.1949 17.3959
40.2425 17.3712
40.2899 17.2603
40.3375 17.3176
40.385 17.178
40.4326 17.1694
40.48 17.0834
40.5277 17.0843
40.5752 16.9878
40.6228 16.9078
40.6703 16.9023
40.718 16.8313
40.7655 16.7649
40.8132 16.7065
40.8607 16.7269
40.9084 16.6639
40.9559 16.554
41.0036 16.5531
41.0512 16.5027
41.0989 16.4804
41.1465 16.3453
41.1942 16.3272
41.242 16.2264
41.2896 16.2223
41.3373 16.0885
41.3849 16.0792
41.4327 16.0444
41.4803 15.9548
41.5281 15.9605
41.5758 15.8467
41.6236 15.7516
41.6712 15.7624
41.7191 15.6949
41.7667 15.6316
41.8146 15.6455
41.8622 15.5597
41.9101 15.4893
41.9578 15.4166
42.0057 15.3407
42.0534 15.3426
42.1013 15.3165
42.149 15.2858
42.1969 15.2304
42.2446 15.1523
42.2925 15.0552
42.3403 15.0274
42.3882 15.04
42.436 14.9124
42.4839 14.8983
42.5319 14.9118
42.5797 14.8044
42.6277 14.7279
42.6755 14.6481
42.7235 14.649
42.7713 14.6266
42.8193 14.5742
42.8671 14.5001
42.9152 14.4579
42.963 14.4012
43.0111 14.3504
43.0589 14.2946
43.107 14.2417
43.1549 14.2273
43.2029 14.0716
43.2508 14.1056
43.2989 14.0345
43.3468 14.0078
43.3949 13.9652
43.4429 13.9037
43.491 13.8424
43.5389 13.8247
43.5871 13.7645
43.635 13.7272
43.6832 13.6655
43.7312 13.6106
43.7793 13.5558
43.8273 13.5199
43.8755 13.5007
43.9237 13.4505
43.9717 13.3871
44.0199 13.3468
44.068 13.2677
44.1162 13.2317
44.1642 13.229
44.2125 13.1639
44.2606 13.1418
44.3088 13.0482
44.3569 13.011
44.4052 12.9881
44.4533 12.9375
44.5016 12.8932
44.5497 12.8295
44.598 12.8006
44.6461 12.7574
44.6945 12.6384
44.7426 12.653
44.791 12.6282
44.8391 12.5666
44.8875 12.5279
44.9357 12.5104
44.984 12.3895
45.0322 12.3857
45.0806 12.3787
45.1288 12.3414
45.1773 12.2493
45.2257 12.2517
45.2739 12.1804
45.3224 12.1548
45.3706 12.1157
45.4191 12.0379
45.4673 11.9902
45.5158 11.959
45.5641 11.9094
45.6126 11.8632
45.6609 11.8476
45.7094 11.7836
45.7577 11.7984
45.8063 11.6785
45.8546 11.6959
45.9031 11.6025
45.9515 11.6362
46.0001 11.5384
46.0484 11.5093
46.097 11.4708
46.1454 11.422
46.194 11.3903
46.2424 11.3177
46.291 11.2735
46.3395 11.2726
46.3881 11.1956
46.4365 11.1942
46.4852 11.1463
46.5337 11.0729
46.5823 11.04
46.631 10.9825
46.6795 10.9725
46.7282 10.9527
46.7767 10.8691
46.8254 10.8285
46.8739 10.814
46.9226 10.7818
46.9712 10.7127
47.0199 10.6664
47.0685 10.6633
47.1173 10.5876
47.1658 10.5936
47.2146 10.5312
47.2632 10.4808
47.312 10.477
47.3606 10.4339
47.4095 10.3764
47.4581 10.3556
47.5069 10.3031
47.5556 10.2571
47.6044 10.1972
47.6531 10.1789
47.702 10.1358
47.7507 10.106
47.7996 10.1123
47.8483 10.0463
47.8972 10.0266
47.9461 9.98974
47.9948 9.9104
48.0438 9.88281
48.0925 9.92176
48.1415 9.80754
48.1902 9.80421
48.2392 9.75496
48.288 9.72336
48.337 9.70972
48.3858 9.66458
48.4348 9.62643
48.4837 9.58337
48.5327 9.53112
48.5815 9.50427
48.6306 9.50844
48.6795 9.44947
48.7285 9.42446
48.7774 9.38364
48.8265 9.32614
48.8754 9.28795
48.9245 9.25852
48.9734 9.24454
49.0226 9.18451
49.0715 9.14886
49.1206 9.11164
49.1696 9.06105
49.2188 9.04131
49.2679 9.01297
49.3169 8.97489
49.3661 8.94063
49.4151 8.86583
49.4643 8.91455
49.5134 8.83501
49.5626 8.79134
49.6117 8.83355
49.6609 8.70811
49.71 8.70259
49.7592 8.69928
49.8083 8.65056
49.8576 8.59582
49.9067 8.56115
49.956 8.54809
50.0052 8.4757
50.0545 8.51357
50.1036 8.44513
50.153 8.43671
50.2022 8.41715
50.2515 8.30834
50.3007 8.27145
50.3501 8.28928
50.3993 8.25919
50.4487 8.22522
50.498 8.18437
50.5474 8.16814
50.5966 8.09258
50.6461 8.06066
50.6955 8.05653
50.7448 8.01979
50.7943 7.99821
50.8436 7.98206
50.8931 7.94506
50.9424 7.89629
50.9919 7.88017
51.0413 7.85903
51.0908 7.808
51.1402 7.81118
51.1897 7.76257
51.2391 7.68549
51.2887 7.67995
51.3381 7.64452
51.3877 7.61842
51.4371 7.62044
51.4867 7.55563
51.5362 7.53213
51.5858 7.5028
51.6353 7.46743
51.6849 7.46708
51.7344 7.40447
51.7841 7.38236
51.8336 7.35632
51.8833 7.33591
51.9328 7.27327
51.9826 7.25036
52.0323 7.25135
52.0818 7.15734
52.1316 7.16837
52.1812 7.13302
52.231 7.10768
52.2806 7.11104
52.3304 7.07787
52.38 7.03374
52.4298 6.97863
52.4794 6.96668
52.5293 6.93823
52.5789 6.92246
52.6288 6.87577
52.6785 6.8295
52.7284 6.81652
52.7781 6.82299
52.828 6.77817
52.8777 6.67829
52.9276 6.69017
52.9774 6.67089
53.0273 6.66307
53.0771 6.60973
53.1271 6.59544
53.1769 6.59393
53.2269 6.53134
53.2767 6.53018
53.3267 6.51287
53.3765 6.47188
53.4266 6.48114
53.4766 6.43145
53.5265 6.38428
53.5765 6.35574
53.6264 6.30763
53.6765 6.3204
53.7264 6.25723
53.7765 6.25525
53.8265 6.19651
53.8766 6.12897
53.9266 6.15056
53.9767 6.11378
54.0267 6.13748
54.0769 6.07504
54.1269 5.98134
54.1771 6.01248
54.2271 6.00619
54.2773 5.94739
54.3274 5.93508
54.3776 5.89456
54.4277 5.85348
54.478 5.81717
54.528 5.74269
54.5783 5.77659
54.6285 5.7336
54.6788 5.69739
54.7289 5.61709
54.7792 5.5542
54.8296 5.55725
54.8798 5.47862
54.9301 5.50117
54.9803 5.45058
55.0307 5.387
55.0809 5.37807
55.1314 5.3613
55.1816 5.24598
55.232 5.20257
55.2823 5.22098
55.3328 5.12239
55.383 5.08672
55.4335 5.03271
55.4838 5.03166
55.5344 4.97697
55.5847 4.93827
55.6352 4.93119
55.6856 4.83781
55.7361 4.82581