File: XRD/Ni3Fe_FD1017.xy
TT I
1.27165 7.25779
1.31627 6.05463
1.36089 6.58171
1.40551 6.12421
1.45013 5.63395
1.49476 5.30458
1.53938 5.21526
1.584 5.11795
1.62863 4.27008
1.67325 5.05993
1.71787 4.32686
1.7625 4.56462
1.80712 4.39228
1.85174 4.44279
1.89636 3.75726
1.94099 4.27987
1.98562 4.59404
2.03025 3.98327
2.07487 4.63467
2.11949 4.54341
2.16411 4.02178
2.20874 5.0105
2.25338 6.99197
2.298 5.42532
2.34263 5.6028
2.38725 5.83667
2.43188 6.23095
2.4765 7.35961
2.52115 7.01093
2.56577 8.22909
2.6104 8.8648
2.65503 7.95731
2.69965 8.24718
2.7443 8.02293
2.78893 8.66065
2.83356 8.59545
2.87818 9.45804
2.92281 9.39272
2.96744 9.82663
3.01209 10.2185
3.05672 11.1253
3.10135 12.2564
3.14599 12.9895
3.19062 14.1901
3.23527 15.0906
3.2799 15.4652
3.32454 16.1565
3.36917 17.4783
3.4138 18.4229
3.45844 19.3382
3.50309 20.2065
3.54773 20.4144
3.59237 21.4446
3.637 28.3306
3.68164 26.9777
3.7263 24.1252
3.77094 24.4002
3.81558 25.3124
3.86022 26.0973
3.90486 27.4454
3.9495 28.3228
3.99416 28.8872
4.0388 30.3938
4.08344 31.2566
4.12809 32.3192
4.17273 33.5582
4.21738 35.1139
4.26204 53.5086
4.30669 58.4492
4.35133 40.4674
4.39598 40.5972
4.44063 42.9327
4.4853 45.9889
4.52995 46.5446
4.5746 47.93
4.61925 50.3676
4.6639 51.8506
4.70855 54.9365
4.75322 57.7507
4.79788 60.2483
4.84253 63.4504
4.88719 67.4013
4.93184 70.9308
4.97652 75.6033
5.02118 81.9048
5.06583 88.0023
5.11049 96.2467
5.15515 115.941
5.19981 223.749
5.24449 2277.11
5.28916 13482.0
5.33382 3493.71
5.37848 240.611
5.42315 126.393
5.46783 108.368
5.5125 100.701
5.55716 96.5195
5.60183 92.1736
5.6465 90.1473
5.69117 88.6079
5.73586 86.6646
5.78053 86.1078
5.8252 85.2741
5.86988 86.0377
5.91455 87.3969
5.95924 93.3926
6.00392 156.087
6.0486 791.815
6.09328 4329.12
6.13795 3533.41
6.18263 246.234
6.22733 86.9853
6.27201 75.6321
6.3167 72.74
6.36138 68.0913
6.40606 64.4745
6.45075 62.7727
6.49545 61.1437
6.54014 59.4163
6.58483 58.1778
6.62952 57.3385
6.67421 57.8095
6.71892 64.4337
6.76361 56.2503
6.8083 53.737
6.853 53.1241
6.89769 52.8926
6.94239 52.3848
6.98711 51.7453
7.03181 51.8775
7.07651 51.5575
7.12121 51.3592
7.16591 51.2499
7.21063 50.31
7.25533 51.6947
7.30004 62.5018
7.34475 56.2449
7.38945 51.4632
7.43416 50.7797
7.47889 51.6301
7.5236 62.619
7.56831 84.6899
7.61303 59.5651
7.65774 52.8329
7.70247 52.4724
7.74719 52.6064
7.79191 53.2271
7.83663 53.3566
7.88135 54.0668
7.92607 55.1794
7.97081 56.1842
8.01553 57.1535
8.06026 58.2437
8.10498 59.9236
8.14971 61.4299
8.19446 63.0176
8.23919 64.9256
8.28392 67.3046
8.32865 69.1631
8.37339 73.2508
8.41812 76.5622
8.46288 85.0701
8.50761 123.064
8.55235 331.69
8.59709 1041.93
8.64183 2305.23
8.68658 1120.61
8.73134 182.751
8.77609 94.58
8.82083 87.6303
8.86558 84.8078
8.91033 82.6302
8.9551 81.7073
8.99985 79.9925
9.04461 79.3874
9.08936 78.9459
9.13412 78.1861
9.17888 79.516
9.22365 98.0283
9.26841 132.782
9.31318 95.3877
9.35794 80.2162
9.4027 79.4964
9.44749 79.6167
9.49226 80.0476
9.53703 80.9438
9.5818 82.0768
9.62657 83.2193
9.67134 85.0989
9.71614 86.6185
9.76091 88.185
9.80569 90.8502
9.85047 92.7949
9.89525 97.2219
9.94005 104.634
9.98484 141.002
10.0296 312.501
10.0744 718.814
10.1192 1720.8
10.164 1706.88
10.2088 461.438
10.2536 126.359
10.2984 102.212
10.3432 99.5831
10.388 96.1372
10.4328 104.905
10.4776 149.247
10.5224 253.069
10.5672 487.743
10.612 527.842
10.6568 223.481
10.7017 108.142
10.7465 87.7207
10.7913 79.281
10.8361 76.7928
10.8809 74.612
10.9257 72.8087
10.9706 71.9204
11.0154 69.8071
11.0602 68.5445
11.105 67.2031
11.1499 66.4426
11.1947 66.4795
11.2395 64.6718
11.2844 63.9936
11.3292 63.1199
11.374 62.0498
11.4189 61.7063
11.4637 61.1767
11.5086 60.5621
11.5534 60.2499
11.5983 60.4038
11.6431 59.8087
11.688 59.3731
11.7328 59.1594
11.7777 59.0984
11.8225 59.1275
11.8674 59.3021
11.9122 62.4814
11.9571 72.1265
12.002 69.4369
12.0468 64.1555
12.0917 73.403
12.1366 93.8673
12.1814 142.444
12.2263 200.68
12.2712 170.186
12.3161 94.3904
12.3609 63.9393
12.4058 60.5867
12.4507 60.5504
12.4956 60.5847
12.5405 60.446
12.5853 60.7239
12.6302 61.6832
12.6751 63.4451
12.72 62.8961
12.7649 63.4591
12.8098 64.3655
12.8547 65.5969
12.8996 66.973
12.9445 68.0285
12.9894 69.749
13.0343 71.5221
13.0792 75.8497
13.1242 82.1462
13.1691 103.202
13.214 137.407
13.2589 216.938
13.3038 359.143
13.3487 441.301
13.3937 281.141
13.4386 127.908
13.4835 96.8298
13.5285 113.965
13.5734 147.475
13.6183 227.411
13.6633 352.093
13.7082 363.234
13.7531 205.308
13.7981 100.349
13.843 78.6147
13.888 75.883
13.9329 73.677
13.9779 72.7633
14.0228 71.1503
14.0678 70.0408
14.1127 72.0007
14.1577 78.0811
14.2027 75.689
14.2476 68.8753
14.2926 66.998
14.3376 66.6591
14.3825 65.9275
14.4275 65.5056
14.4725 65.331
14.5175 65.4499
14.5624 65.3904
14.6074 65.8368
14.6524 66.2404
14.6974 66.2485
14.7424 67.7281
14.7874 72.5259
14.8324 84.6471
14.8774 104.272
14.9224 142.897
14.9674 204.689
15.0124 224.919
15.0574 159.373
15.1024 94.5031
15.1474 71.0591
15.1924 67.1344
15.2374 65.6975
15.2824 65.0149
15.3274 64.0132
15.3725 63.5706
15.4175 63.0809
15.4625 62.467
15.5076 62.5915
15.5526 62.6482
15.5976 62.3314
15.6426 62.7194
15.6877 67.0308
15.7327 75.953
15.7778 89.7621
15.8228 117.84
15.8679 166.288
15.9129 202.459
15.958 169.666
16.003 103.707
16.0481 69.7291
16.0931 63.4859
16.1382 60.0329
16.1833 57.8288
16.2283 56.2449
16.2734 55.7815
16.3185 55.0006
16.3636 54.3539
16.4086 53.618
16.4537 53.1915
16.4988 52.4973
16.5439 52.631
16.589 52.5636
16.6341 52.2281
16.6792 51.7485
16.7243 52.008
16.7694 52.0376
16.8145 52.2205
16.8596 52.2391
16.9047 53.2464
16.9498 54.2912
16.9949 53.7043
17.04 53.3617
17.0851 53.9903
17.1302 55.9554
17.1754 58.6002
17.2205 63.1776
17.2656 71.1158
17.3108 81.5643
17.3559 81.6346
17.401 71.0535
17.4462 60.6628
17.4913 56.9422
17.5365 56.3356
17.5815 56.4163
17.6268 56.8208
17.6718 57.4402
17.7171 57.8116
17.7622 59.3924
17.8074 60.2625
17.8525 60.9731
17.8977 64.8742
17.9428 70.5857
17.9881 78.4423
18.0331 94.3133
18.0784 118.501
18.1237 140.525
18.1688 137.322
18.214 108.352
18.2591 86.8274
18.3044 87.0467
18.3495 98.1288
18.3948 106.206
18.4399 98.1217
18.4852 78.7857
18.5303 65.2533
18.5756 61.0737
18.6207 59.5393
18.666 58.1992
18.7112 57.485
18.7565 56.7305
18.8016 56.1739
18.8469 55.8632
18.892 55.329
18.9374 54.8937
18.9825 54.6358
19.0278 54.2761
19.073 54.4467
19.1183 54.3483
19.1635 55.3158
19.2088 56.7955
19.254 59.4028
19.2993 64.6818
19.3447 71.7743
19.3898 75.8722
19.4352 72.0493
19.4804 63.0065
19.5257 55.6357
19.5709 52.3586
19.6163 51.9392
19.6615 51.5717
19.7068 51.0739
19.752 51.1378
19.7974 51.3356
19.8426 52.0328
19.888 52.6108
19.9332 54.0241
19.9786 56.1824
20.0238 59.9956
20.0692 65.545
20.1144 69.5104
20.1598 68.3574
20.205 63.2491
20.2504 60.4736
20.2957 62.475
20.3411 64.6996
20.3863 63.5586
20.4318 57.6987
20.477 52.4058
20.5224 49.2681
20.5677 48.7546
20.6131 48.0954
20.6586 47.6459
20.7038 47.6179
20.7493 47.4717
20.7945 47.7023
20.84 47.4576
20.8853 46.94
20.9307 46.677
20.976 46.7507
21.0215 46.7937
21.0668 47.0725
21.1122 47.4677
21.1575 47.8875
21.203 48.871
21.2483 49.6477
21.2938 49.7876
21.3391 48.6998
21.3846 47.356
21.4299 46.4903
21.4754 46.6177
21.5207 46.8651
21.5662 46.8659
21.6116 47.0464
21.6571 47.8989
21.7024 49.2266
21.7479 50.5934
21.7933 52.9796
21.8388 56.9077
21.8843 61.5642
21.9297 64.7077
21.9752 63.2894
22.0206 59.2879
22.0661 55.7004
22.1115 55.4096
22.157 55.4574
22.2024 53.8245
22.248 50.4873
22.2933 48.5672
22.3389 47.3411
22.3843 47.091
22.4299 46.9222
22.4753 46.9237
22.5208 46.6568
22.5662 46.8343
22.6118 46.9445
22.6572 46.9067
22.7028 47.4884
22.7483 48.2488
22.7939 48.8115
22.8393 50.1691
22.8849 52.3567
22.9303 54.9771
22.9759 57.0476
23.0214 57.0525
23.067 54.1983
23.1126 50.4997
23.1581 47.9658
23.2037 47.1498
23.2492 47.0288
23.2948 47.1862
23.3403 47.6286
23.3859 48.4916
23.4314 49.6273
23.477 51.2565
23.5225 53.6564
23.5682 56.5752
23.6137 57.8115
23.6593 56.0523
23.7048 51.6458
23.7505 47.6916
23.796 45.3257
23.8417 44.5605
23.8872 44.106
23.9329 43.7456
23.9784 43.2963
24.0241 43.0563
24.0697 42.9745
24.1154 42.6182
24.1609 42.3608
24.2066 42.233
24.2522 42.0874
24.2979 41.76
24.3434 41.7914
24.3892 41.4588
24.4349 41.4571
24.4805 41.5631
24.5262 41.6102
24.5718 41.4831
24.6175 41.5563
24.6631 41.4854
24.7089 41.1607
24.7545 40.913
24.8002 40.6827
24.8458 40.6892
24.8916 40.6136
24.9372 40.6797
24.983 41.1166
25.0286 41.3992
25.0744 41.9988
25.12 42.6877
25.1658 43.1817
25.2114 43.6821
25.2572 43.8161
25.3029 43.9256
25.3487 44.0749
25.3943 43.9475
25.4402 42.7848
25.4858 41.5257
25.5316 40.3562
25.5773 39.6586
25.6231 39.6463
25.669 39.1515
25.7147 39.1442
25.7605 39.1011
25.8062 39.1995
25.8521 39.405
25.8977 39.3196
25.9436 39.5037
25.9893 39.5981
26.0352 40.3284
26.0809 40.4749
26.1268 40.6376
26.1725 40.5478
26.2184 39.8248
26.2641 39.2152
26.31 38.8123
26.3557 38.8898
26.4017 38.7765
26.4474 39.1695
26.4933 39.4641
26.5391 40.0758
26.585 40.6202
26.6308 41.2066
26.6767 41.3642
26.7225 41.4392
26.7684 40.6934
26.8142 39.9928
26.8601 39.6021
26.9059 39.2198
26.9519 38.7778
26.9979 38.2466
27.0437 37.788
27.0896 37.6208
27.1354 37.646
27.1814 37.4269
27.2272 37.2123
27.2732 37.4939
27.3191 37.1508
27.3651 37.2466
27.4109 37.3274
27.4569 37.3909
27.5027 37.5259
27.5488 37.5796
27.5946 37.3756
27.6407 37.2489
27.6865 37.0439
27.7326 36.7584
27.7784 36.8748
27.8245 36.764
27.8703 36.8671
27.9164 37.1939
27.9623 37.5543
28.0084 37.8409
28.0543 38.409
28.1003 38.4962
28.1462 38.0989
28.1923 37.954
28.2384 37.2636
28.2843 36.9145
28.3304 36.4284
28.3764 35.7504
28.4225 35.4199
28.4684 35.2531
28.5145 34.9757
28.5605 34.7115
28.6066 34.5543
28.6526 34.6323
28.6987 34.5471
28.7447 34.576
28.7908 34.2925
28.8368 34.3769
28.8829 34.2812
28.9289 34.3006
28.9751 34.0625
29.0211 33.8462
29.0673 33.7103
29.1133 33.5431
29.1595 33.4247
29.2055 33.2568
29.2517 33.1732
29.2977 33.2675
29.3439 33.2605
29.3899 33.2852
29.4361 33.196
29.4824 33.0039
29.5284 32.8189
29.5746 32.4239
29.6207 32.2089
29.6669 32.0254
29.713 31.9856
29.7593 31.757
29.8053 31.9504
29.8516 31.7731
29.8977 31.6842
29.9439 31.6287
29.99 31.5464
30.0363 31.4209
30.0824 31.5472
30.1287 31.4229
30.1748 31.4788
30.2211 31.3539
30.2673 31.3221
30.3136 31.344
30.3597 31.3718
30.406 31.3028
30.4522 31.1744
30.4985 31.0472
30.5447 31.2649
30.591 31.2494
30.6372 31.4535
30.6835 31.4314
30.7297 31.4616
30.7761 31.4131
30.8224 31.234
30.8686 31.0323
30.915 30.8134
30.9612 30.6419
31.0076 30.4773
31.0538 30.3484
31.1002 30.2996
31.1464 30.1342
31.1928 30.0536
31.2391 30.1018
31.2855 30.0575
31.3317 29.908
31.3781 30.1215
31.4244 30.1373
31.4708 30.0288
31.5171 30.0737
31.5636 30.0326
31.6098 29.7444
31.6563 29.5311
31.7026 29.3842
31.7491 29.2976
31.7953 29.4243
31.8418 29.3054
31.8881 29.4131
31.9346 29.353
31.9809 29.2149
32.0275 29.1762
32.074 29.0823
32.1203 28.8267
32.1668 28.8193
32.2132 28.5728
32.2597 28.4073
32.306 28.3543
32.3526 28.1991
32.399 28.1687
32.4455 27.9229
32.4919 27.8898
32.5385 27.7922
32.5848 27.7427
32.6314 27.6007
32.6778 27.6494
32.7244 27.4536
32.7708 27.3792
32.8174 27.434
32.8638 27.1914
32.9104 27.3269
32.9569 27.2847
33.0035 27.1011
33.0499 27.1071
33.0966 27.0777
33.143 27.0593
33.1897 26.993
33.2361 26.9745
33.2828 26.8288
33.3293 26.7423
33.3759 26.6814
33.4226 26.4763
33.4691 26.4227
33.5158 26.2285
33.5623 26.1113
33.609 25.9714
33.6555 25.9251
33.7022 25.9024
33.7487 25.7643
33.7954 25.7256
33.842 25.6239
33.8887 25.6199
33.9353 25.5222
33.982 25.4254
34.0286 25.3305
34.0753 25.2172
34.1219 25.1853
34.1687 25.1082
34.2152 25.0694
34.262 24.9155
34.3086 24.9298
34.3554 24.8556
34.402 24.6797
34.4488 24.605
34.4954 24.5611
34.5422 24.45
34.5889 24.3819
34.6357 24.2335
34.6825 24.181
34.7292 24.064
34.776 23.949
34.8227 24.0321
34.8695 23.9269
34.9162 23.8795
34.9631 23.7798
35.0098 23.7928
35.0566 23.6785
35.1033 23.5977
35.1502 23.6091
35.1969 23.5073
35.2438 23.4769
35.2906 23.3859
35.3375 23.4525
35.3842 23.3965
35.4311 23.3573
35.4779 23.3053
35.5248 23.4013
35.5716 23.1644
35.6185 23.1311
35.6653 22.984
35.7123 22.9329
35.759 22.861
35.806 22.7329
35.8528 22.6321
35.8998 22.5968
35.9468 22.4792
35.9936 22.4545
36.0406 22.3947
36.0874 22.458
36.1345 22.3126
36.1813 22.1775
36.2283 22.1136
36.2752 22.0006
36.3222 22.0443
36.3691 21.9891
36.4161 21.8684
36.463 21.8748
36.5101 21.9275
36.557 21.7489
36.6041 21.6155
36.651 21.5936
36.6981 21.614
36.745 21.4099
36.7921 21.3725
36.839 21.2613
36.8861 21.1972
36.9331 21.1063
36.9802 21.0565
37.0272 20.9903
37.0743 20.8956
37.1213 20.9361
37.1684 20.851
37.2154 20.7912
37.2626 20.6579
37.3098 20.6371
37.3568 20.5639
37.404 20.5716
37.451 20.4758
37.4982 20.424
37.5452 20.3039
37.5924 20.2658
37.6395 20.33
37.6867 20.1755
37.7337 20.0475
37.781 19.9917
37.8281 19.926
37.8753 19.8369
37.9224 19.7491
37.9697 19.7577
38.0168 19.6242
38.064 19.5072
38.1111 19.6859
38.1584 19.3803
38.2056 19.4384
38.2529 19.3507
38.3 19.2819
38.3473 19.3418
38.3945 19.1372
38.4418 19.1179
38.489 19.0565
38.5363 19.0109
38.5837 18.9255
38.6309 18.7927
38.6782 18.8259
38.7254 18.7328
38.7728 18.6264
38.82 18.6417
38.8674 18.5721
38.9146 18.5305
38.9621 18.369
39.0093 18.4251
39.0567 18.341
39.104 18.235
39.1514 18.1594
39.1987 18.1926
39.2461 18.0982
39.2934 18.0521
39.3409 17.9604
39.3882 17.8832
39.4356 17.8907
39.483 17.8467
39.5304 17.7533
39.5778 17.7417
39.6253 17.6658
39.6726 17.5863
39.7201 17.5689
39.7675 17.4646
39.815 17.4769
39.8624 17.3907
39.9099 17.335
39.9575 17.2591
40.0049 17.2359
40.0525 17.1827
40.0999 17.1117
40.1474 17.0632
40.1949 16.9747
40.2425 16.9136
40.2899 16.9243
40.3375 16.776
40.385 16.76
40.4326 16.7154
40.48 16.691
40.5277 16.6226
40.5752 16.5568
40.6228 16.4721
40.6703 16.4582
40.718 16.4069
40.7655 16.3545
40.8132 16.3299
40.8607 16.3203
40.9084 16.1923
40.9559 16.1805
41.0036 16.1515
41.0512 16.0669
41.0989 16.056
41.1465 15.9491
41.1942 15.9145
41.242 15.7611
41.2896 15.7511
41.3373 15.6791
41.3849 15.6796
41.4327 15.6593
41.4803 15.5389
41.5281 15.5575
41.5758 15.4985
41.6236 15.4545
41.6712 15.3546
41.7191 15.337
41.7667 15.2285
41.8146 15.2346
41.8622 15.1852
41.9101 15.1535
41.9578 14.9838
42.0057 15.0235
42.0534 14.9486
42.1013 14.9367
42.149 14.8765
42.1969 14.7256
42.2446 14.7457
42.2925 14.7648
42.3403 14.6902
42.3882 14.6598
42.436 14.5825
42.4839 14.5337
42.5319 14.493
42.5797 14.4098
42.6277 14.3512
42.6755 14.3186
42.7235 14.2691
42.7713 14.2136
42.8193 14.1652
42.8671 14.0913
42.9152 14.0946
42.963 13.9936
43.0111 13.9816
43.0589 13.9135
43.107 13.8652
43.1549 13.7867
43.2029 13.7681
43.2508 13.7205
43.2989 13.7528
43.3468 13.6187
43.3949 13.5454
43.4429 13.617
43.491 13.5409
43.5389 13.4216
43.5871 13.4095
43.635 13.3356
43.6832 13.3398
43.7312 13.278
43.7793 13.2611
43.8273 13.1621
43.8755 13.1548
43.9237 13.0808
43.9717 13.0037
44.0199 12.9895
44.068 12.969
44.1162 12.9326
44.1642 12.8633
44.2125 12.8409
44.2606 12.7489
44.3088 12.7324
44.3569 12.6106
44.4052 12.6261
44.4533 12.5915
44.5016 12.5127
44.5497 12.5172
44.598 12.4689
44.6461 12.4362
44.6945 12.4102
44.7426 12.336
44.791 12.2898
44.8391 12.3007
44.8875 12.2064
44.9357 12.1968
44.984 12.126
45.0322 12.0657
45.0806 12.0632
45.1288 12.0394
45.1773 11.9841
45.2257 11.8979
45.2739 11.8451
45.3224 11.8339
45.3706 11.803
45.4191 11.7263
45.4673 11.7279
45.5158 11.6674
45.5641 11.5995
45.6126 11.5813
45.6609 11.5208
45.7094 11.4703
45.7577 11.4549
45.8063 11.4086
45.8546 11.394
45.9031 11.3635
45.9515 11.2759
46.0001 11.2698
46.0484 11.257
46.097 11.1664
46.1454 11.1473
46.194 11.1213
46.2424 11.019
46.291 11.003
46.3395 10.9567
46.3881 10.9264
46.4365 10.8987
46.4852 10.8511
46.5337 10.8316
46.5823 10.7658
46.631 10.7238
46.6795 10.6839
46.7282 10.6368
46.7767 10.6228
46.8254 10.5817
46.8739 10.5606
46.9226 10.4906
46.9712 10.4261
47.0199 10.3958
47.0685 10.3791
47.1173 10.3515
47.1658 10.2741
47.2146 10.2673
47.2632 10.1792
47.312 10.1822
47.3606 10.156
47.4095 10.1092
47.4581 10.0496
47.5069 10.0344
47.5556 9.97067
47.6044 9.97062
47.6531 9.92187
47.702 9.87843
47.7507 9.84856
47.7996 9.83124
47.8483 9.75532
47.8972 9.73758
47.9461 9.73882
47.9948 9.66739
48.0438 9.63241
48.0925 9.63251
48.1415 9.57815
48.1902 9.5416
48.2392 9.51756
48.288 9.47683
48.337 9.44223
48.3858 9.36035
48.4348 9.36576
48.4837 9.34022
48.5327 9.29591
48.5815 9.26224
48.6306 9.24832
48.6795 9.21845
48.7285 9.16259
48.7774 9.15737
48.8265 9.11023
48.8754 9.00438
48.9245 9.01494
48.9734 8.9992
49.0226 8.97571
49.0715 8.9535
49.1206 8.86887
49.1696 8.86329
49.2188 8.81649
49.2679 8.76403
49.3169 8.74004
49.3661 8.69172
49.4151 8.70802
49.4643 8.62349
49.5134 8.64612
49.5626 8.57853
49.6117 8.52816
49.6609 8.52323
49.71 8.50105
49.7592 8.41486
49.8083 8.4239
49.8576 8.37687
49.9067 8.37862
49.956 8.32754
50.0052 8.30103
50.0545 8.25912
50.1036 8.24009
50.153 8.18781
50.2022 8.15622
50.2515 8.12006
50.3007 8.0982
50.3501 8.08268
50.3993 8.03807
50.4487 8.0282
50.498 8.01604
50.5474 7.98374
50.5966 7.89798
50.6461 7.87895
50.6955 7.8573
50.7448 7.83509
50.7943 7.83145
50.8436 7.76262
50.8931 7.75651
50.9424 7.7137
50.9919 7.66082
51.0413 7.63562
51.0908 7.59893
51.1402 7.57133
51.1897 7.5873
51.2391 7.53753
51.2887 7.49532
51.3381 7.47066
51.3877 7.44994
51.4371 7.39171
51.4867 7.36781
51.5362 7.33455
51.5858 7.33431
51.6353 7.27399
51.6849 7.2972
51.7344 7.23628
51.7841 7.24282
51.8336 7.15107
51.8833 7.12508
51.9328 7.12878
51.9826 7.03349
52.0323 7.06639
52.0818 7.03775
52.1316 7.00249
52.1812 6.9868
52.231 6.92469
52.2806 6.88802
52.3304 6.86291
52.38 6.82958
52.4298 6.84224
52.4794 6.78927
52.5293 6.76831
52.5789 6.74635
52.6288 6.70651
52.6785 6.66207
52.7284 6.67056
52.7781 6.63233
52.828 6.59666
52.8777 6.57701
52.9276 6.5604
52.9774 6.51307
53.0273 6.44527
53.0771 6.44802
53.1271 6.47468
53.1769 6.39471
53.2269 6.41718
53.2767 6.32688
53.3267 6.32699
53.3765 6.27759
53.4266 6.25211
53.4766 6.24039
53.5265 6.16372
53.5765 6.19214
53.6264 6.1498
53.6765 6.14738
53.7264 6.12331
53.7765 6.08772
53.8265 6.03888
53.8766 6.00475
53.9266 6.01259
53.9767 5.97802
54.0267 5.90845
54.0769 5.91913
54.1269 5.87563
54.1771 5.85633
54.2271 5.86392
54.2773 5.79818
54.3274 5.78186
54.3776 5.71342
54.4277 5.74383
54.478 5.71805
54.528 5.67031
54.5783 5.63157
54.6285 5.59163
54.6788 5.58049
54.7289 5.51919
54.7792 5.48006
54.8296 5.44408
54.8798 5.36633
54.9301 5.32154
54.9803 5.31105
55.0307 5.30841
55.0809 5.23671
55.1314 5.22407
55.1816 5.14688
55.232 5.11053
55.2823 5.0534
55.3328 5.02386
55.383 4.91987
55.4335 4.93067
55.4838 4.89581
55.5344 4.84906
55.5847 4.78815
55.6352 4.73144
55.6856 4.74231
55.7361 4.68305