File: XRD/Ni3Fe_FD0035.xy
TT I
1.27165 32.3678
1.31627 32.2429
1.36089 31.1875
1.40551 29.6779
1.45013 27.7727
1.49476 26.7715
1.53938 25.8952
1.584 24.8164
1.62863 24.3761
1.67325 23.5108
1.71787 22.9807
1.7625 22.9119
1.80712 22.75
1.85174 22.5363
1.89636 22.2654
1.94099 22.4046
1.98562 22.3412
2.03025 22.14
2.07487 22.4383
2.11949 22.798
2.16411 23.5636
2.20874 24.5237
2.25338 24.3398
2.298 23.8242
2.34263 23.8601
2.38725 23.538
2.43188 23.2048
2.4765 23.4966
2.52115 23.4482
2.56577 23.9474
2.6104 25.1644
2.65503 25.887
2.69965 26.8132
2.7443 28.5343
2.78893 30.6859
2.83356 33.0885
2.87818 37.602
2.92281 41.7053
2.96744 47.4679
3.01209 55.1692
3.05672 64.6022
3.10135 74.3524
3.14599 79.818
3.19062 78.8569
3.23527 72.1272
3.2799 61.4311
3.32454 49.967
3.36917 42.7333
3.4138 37.7612
3.45844 34.9024
3.50309 33.6103
3.54773 33.5055
3.59237 34.7095
3.637 36.5633
3.68164 36.8452
3.7263 35.6494
3.77094 33.4594
3.81558 31.8472
3.86022 30.7062
3.90486 31.4805
3.9495 31.4124
3.99416 32.2581
4.0388 33.9992
4.08344 36.2096
4.12809 39.6066
4.17273 45.7263
4.21738 55.9213
4.26204 68.1272
4.30669 73.8938
4.35133 67.4237
4.39598 58.2859
4.44063 52.3164
4.4853 50.3022
4.52995 47.5531
4.5746 45.2104
4.61925 44.1977
4.6639 43.7277
4.70855 44.8928
4.75322 46.131
4.79788 48.7969
4.84253 52.4957
4.88719 56.7054
4.93184 63.2451
4.97652 71.8156
5.02118 88.9987
5.06583 112.832
5.11049 139.508
5.15515 189.201
5.19981 299.143
5.24449 640.892
5.28916 1354.57
5.33382 3560.4
5.37848 3503.01
5.42315 996.874
5.46783 340.023
5.5125 206.318
5.55716 154.599
5.60183 126.711
5.6465 113.199
5.69117 107.423
5.73586 100.844
5.78053 97.6048
5.8252 98.3926
5.86988 104.148
5.91455 114.827
5.95924 135.3
6.00392 184.234
6.0486 299.723
6.09328 510.211
6.13795 914.144
6.18263 1267.92
6.22733 653.052
6.27201 271.504
6.3167 151.539
6.36138 102.869
6.40606 80.0276
6.45075 68.3303
6.49545 60.7626
6.54014 55.7414
6.58483 53.4807
6.62952 52.5234
6.67421 52.8663
6.71892 54.3905
6.76361 53.6142
6.8083 49.8654
6.853 46.6926
6.89769 44.3236
6.94239 42.8455
6.98711 41.6187
7.03181 41.1068
7.07651 41.0896
7.12121 42.4383
7.16591 43.879
7.21063 46.9319
7.25533 52.636
7.30004 62.7859
7.34475 65.4913
7.38945 57.4052
7.43416 49.5415
7.47889 46.5116
7.5236 53.4446
7.56831 111.971
7.61303 157.769
7.65774 68.4854
7.70247 44.0474
7.74719 39.4783
7.79191 38.3714
7.83663 37.5374
7.88135 37.5118
7.92607 37.5497
7.97081 38.0256
8.01553 38.5793
8.06026 39.4554
8.10498 40.5397
8.14971 41.6769
8.19446 43.0301
8.23919 44.9828
8.28392 46.5011
8.32865 48.5588
8.37339 52.6534
8.41812 57.5728
8.46288 66.714
8.50761 81.1532
8.55235 114.06
8.59709 177.514
8.64183 240.215
8.68658 455.647
8.73134 789.846
8.77609 536.412
8.82083 225.308
8.86558 121.5
8.91033 90.3676
8.9551 77.2199
8.99985 69.9672
9.04461 65.4375
9.08936 62.4665
9.13412 61.2081
9.17888 62.9155
9.22365 73.377
9.26841 155.485
9.31318 278.895
9.35794 137.688
9.4027 69.5121
9.44749 58.6053
9.49226 55.2255
9.53703 53.8729
9.5818 54.0137
9.62657 53.9662
9.67134 55.061
9.71614 56.2775
9.76091 57.1947
9.80569 59.1379
9.85047 61.9372
9.89525 66.5818
9.94005 73.0818
9.98484 84.7135
10.0296 108.829
10.0744 155.988
10.1192 197.949
10.164 282.513
10.2088 584.129
10.2536 790.067
10.2984 435.349
10.3432 197.964
10.388 116.933
10.4328 90.882
10.4776 83.8025
10.5224 89.5442
10.5672 95.5965
10.612 110.599
10.6568 181.918
10.7017 282.579
10.7465 235.851
10.7913 122.406
10.8361 68.6641
10.8809 55.0466
10.9257 49.6865
10.9706 47.1017
11.0154 45.5128
11.0602 44.3541
11.105 43.6216
11.1499 42.667
11.1947 42.8012
11.2395 42.8006
11.2844 42.132
11.3292 41.1202
11.374 39.8996
11.4189 39.1029
11.4637 38.7909
11.5086 38.2413
11.5534 38.3862
11.5983 38.2506
11.6431 38.1878
11.688 37.7254
11.7328 37.4657
11.7777 37.6978
11.8225 37.7507
11.8674 38.5041
11.9122 40.9737
11.9571 50.2433
12.002 85.5123
12.0468 92.6389
12.0917 57.3071
12.1366 47.6601
12.1814 48.8226
12.2263 51.3542
12.2712 59.369
12.3161 77.515
12.3609 94.6421
12.4058 80.3307
12.4507 58.2458
12.4956 48.1144
12.5405 43.5747
12.5853 41.5436
12.6302 41.0187
12.6751 41.2151
12.72 41.608
12.7649 41.146
12.8098 40.0742
12.8547 39.8235
12.8996 40.0144
12.9445 40.2296
12.9894 40.9031
13.0343 41.9702
13.0792 44.1831
13.1242 49.8164
13.1691 61.2517
13.214 64.5374
13.2589 67.3248
13.3038 71.8772
13.3487 79.8688
13.3937 107.547
13.4386 171.461
13.4835 215.937
13.5285 161.415
13.5734 106.584
13.6183 87.8867
13.6633 80.7972
13.7082 85.6695
13.7531 113.889
13.7981 178.794
13.843 195.024
13.888 124.588
13.9329 74.9974
13.9779 57.8196
14.0228 50.5621
14.0678 47.4232
14.1127 46.9446
14.1577 51.8939
14.2027 76.5954
14.2476 91.3324
14.2926 63.6738
14.3376 46.4996
14.3825 42.2574
14.4275 40.953
14.4725 40.0394
14.5175 39.8266
14.5624 39.3617
14.6074 39.4292
14.6524 39.7161
14.6974 39.7169
14.7424 40.1736
14.7874 40.4404
14.8324 42.4425
14.8774 45.7823
14.9224 49.585
14.9674 51.1421
15.0124 54.7717
15.0574 66.1431
15.1024 92.8789
15.1474 121.506
15.1924 108.949
15.2374 75.3661
15.2824 55.7713
15.3274 46.9211
15.3725 43.4884
15.4175 41.5859
15.4625 40.3655
15.5076 39.9051
15.5526 39.6916
15.5976 39.4637
15.6426 39.2372
15.6877 39.6339
15.7327 40.9337
15.7778 43.5169
15.8228 46.936
15.8679 48.8249
15.9129 50.3913
15.958 57.895
16.003 74.6079
16.0481 105.977
16.0931 118.845
16.1382 98.18
16.1833 72.0675
16.2283 51.3296
16.2734 42.651
16.3185 38.9133
16.3636 37.1686
16.4086 35.9617
16.4537 35.2736
16.4988 34.3718
16.5439 33.9273
16.589 33.3599
16.6341 33.0787
16.6792 32.6927
16.7243 32.7575
16.7694 32.5763
16.8145 32.5916
16.8596 32.9255
16.9047 33.1387
16.9498 34.6613
16.9949 38.4352
17.04 41.1456
17.0851 37.6501
17.1302 34.6531
17.1754 34.2204
17.2205 34.6696
17.2656 35.0134
17.3108 35.5059
17.3559 35.9355
17.401 38.2533
17.4462 42.725
17.4913 49.0248
17.5365 49.84
17.5815 43.3772
17.6268 38.499
17.6718 36.4704
17.7171 35.9054
17.7622 36.3867
17.8074 38.4289
17.8525 41.9554
17.8977 42.7875
17.9428 40.4416
17.9881 40.7532
18.0331 42.6093
18.0784 43.4084
18.1237 44.3368
18.1688 47.2415
18.214 55.5468
18.2591 72.4935
18.3044 92.9737
18.3495 90.7064
18.3948 69.7692
18.4399 56.7737
18.4852 55.1829
18.5303 62.5919
18.5756 70.392
18.6207 67.0898
18.666 55.8376
18.7112 46.8661
18.7565 40.5433
18.8016 37.9038
18.8469 36.5549
18.892 35.7313
18.9374 35.1723
18.9825 34.8943
19.0278 34.4763
19.073 34.3152
19.1183 34.3169
19.1635 34.152
19.2088 34.6511
19.254 35.3748
19.2993 36.2675
19.3447 37.5825
19.3898 42.3538
19.4352 47.6773
19.4804 47.1935
19.5257 45.4958
19.5709 47.0064
19.6163 46.6786
19.6615 41.9334
19.7068 37.2123
19.752 34.7142
19.7974 33.4474
19.8426 32.8862
19.888 32.4758
19.9332 32.7354
19.9786 32.9412
20.0238 33.099
20.0692 33.0215
20.1144 33.3511
20.1598 34.4742
20.205 36.131
20.2504 39.5917
20.2957 44.1736
20.3411 45.3376
20.3863 41.9627
20.4318 38.8391
20.477 38.9074
20.5224 41.8514
20.5677 43.1722
20.6131 40.1114
20.6586 35.4901
20.7038 33.1283
20.7493 31.7722
20.7945 31.6958
20.84 32.7774
20.8853 34.383
20.9307 33.7356
20.976 31.2486
21.0215 29.9329
21.0668 29.8158
21.1122 29.6034
21.1575 29.5208
21.203 29.4159
21.2483 29.3351
21.2938 29.4251
21.3391 29.4962
21.3846 30.0442
21.4299 31.1325
21.4754 32.3316
21.5207 32.5178
21.5662 31.7153
21.6116 30.8762
21.6571 30.0609
21.7024 29.9297
21.7479 30.4986
21.7933 30.8346
21.8388 31.1544
21.8843 31.3976
21.9297 31.7907
21.9752 32.79
22.0206 34.9315
22.0661 37.7456
22.1115 42.0218
22.157 45.2565
22.2024 44.432
22.248 41.5019
22.2933 39.8412
22.3389 38.7484
22.3843 37.7342
22.4299 35.7264
22.4753 33.4172
22.5208 31.9716
22.5662 31.1159
22.6118 30.6552
22.6572 30.3315
22.7028 30.3737
22.7483 30.3273
22.7939 30.4466
22.8393 31.2704
22.8849 32.1901
22.9303 32.2933
22.9759 31.9825
23.0214 31.4116
23.067 32.2142
23.1126 33.4464
23.1581 36.1011
23.2037 39.4866
23.2492 40.1605
23.2948 37.1886
23.3403 34.1038
23.3859 32.4817
23.4314 32.21
23.477 32.9209
23.5225 33.9592
23.5682 34.1352
23.6137 33.1391
23.6593 32.572
23.7048 33.2872
23.7505 35.1016
23.796 38.3383
23.8417 41.2595
23.8872 40.0581
23.9329 36.0914
23.9784 32.5072
24.0241 30.6083
24.0697 29.7449
24.1154 29.232
24.1609 29.1933
24.2066 28.7362
24.2522 28.2243
24.2979 27.71
24.3434 27.4663
24.3892 27.2501
24.4349 27.1994
24.4805 27.0299
24.5262 27.0328
24.5718 26.8755
24.6175 26.8255
24.6631 27.0465
24.7089 27.4177
24.7545 27.9843
24.8002 28.2092
24.8458 27.6998
24.8916 26.9546
24.9372 26.7216
24.983 26.7134
25.0286 26.5711
25.0744 26.5596
25.12 26.497
25.1658 26.5295
25.2114 26.7195
25.2572 27.0888
25.3029 27.5539
25.3487 28.329
25.3943 29.0885
25.4402 29.4761
25.4858 29.4625
25.5316 29.4973
25.5773 30.1079
25.6231 30.9342
25.669 30.0511
25.7147 28.7039
25.7605 27.4014
25.8062 26.7895
25.8521 26.536
25.8977 26.7554
25.9436 26.9528
25.9893 26.5312
26.0352 26.3174
26.0809 25.7343
26.1268 25.7929
26.1725 25.9325
26.2184 25.9899
26.2641 26.2655
26.31 26.9578
26.3557 27.7881
26.4017 28.0174
26.4474 27.5654
26.4933 27.02
26.5391 26.4548
26.585 26.1958
26.6308 26.0744
26.6767 25.9231
26.7225 26.1092
26.7684 26.4852
26.8142 26.8862
26.8601 27.6768
26.9059 28.7881
26.9519 29.301
26.9979 29.3328
27.0437 28.8444
27.0896 28.5251
27.1354 27.9614
27.1814 26.8047
27.2272 26.0095
27.2732 25.5702
27.3191 25.2618
27.3651 25.0407
27.4109 24.7733
27.4569 24.8437
27.5027 24.7047
27.5488 24.7712
27.5946 24.8902
27.6407 24.9048
27.6865 24.945
27.7326 24.8886
27.7784 25.2236
27.8245 25.3919
27.8703 25.3994
27.9164 25.214
27.9623 24.8161
28.0084 24.85
28.0543 25.0758
28.1003 25.296
28.1462 25.6084
28.1923 25.7886
28.2384 25.6646
28.2843 26.0532
28.3304 26.9014
28.3764 27.1968
28.4225 27.0144
28.4684 26.5005
28.5145 25.9213
28.5605 25.6721
28.6066 25.2011
28.6526 24.7047
28.6987 24.2499
28.7447 23.7919
28.7908 23.3955
28.8368 23.2171
28.8829 23.0156
28.9289 22.9799
28.9751 22.8614
29.0211 22.8926
29.0673 22.7125
29.1133 22.891
29.1595 23.1712
29.2055 23.1924
29.2517 23.2034
29.2977 22.9396
29.3439 22.5628
29.3899 22.3099
29.4361 22.2084
29.4824 22.0999
29.5284 22.1743
29.5746 22.1472
29.6207 22.1446
29.6669 22.3471
29.713 22.5347
29.7593 22.3491
29.8053 22.1791
29.8516 21.7781
29.8977 21.6298
29.9439 21.324
29.99 21.3831
30.0363 21.2973
30.0824 21.2859
30.1287 21.3195
30.1748 21.5503
30.2211 21.5452
30.2673 21.3382
30.3136 21.21
30.3597 21.1019
30.406 21.1087
30.4522 21.1736
30.4985 21.325
30.5447 21.4216
30.591 21.3273
30.6372 21.3277
30.6835 21.1954
30.7297 21.0524
30.7761 21.0304
30.8224 21.0078
30.8686 21.2839
30.915 21.2328
30.9612 21.6214
31.0076 21.9031
31.0538 22.0165
31.1002 22.0677
31.1464 21.8034
31.1928 21.6748
31.2391 21.4111
31.2855 21.1434
31.3317 20.7872
31.3781 20.7176
31.4244 20.5921
31.4708 20.4943
31.5171 20.5125
31.5636 20.5584
31.6098 20.4809
31.6563 20.5241
31.7026 20.6443
31.7491 20.697
31.7953 20.8919
31.8418 20.9095
31.8881 20.8618
31.9346 20.5539
31.9809 20.3895
32.0275 20.086
32.074 20.1572
32.1203 20.1888
32.1668 20.264
32.2132 20.328
32.2597 20.3987
32.306 20.4665
32.3526 20.3348
32.399 20.1453
32.4455 19.888
32.4919 19.8436
32.5385 19.6163
32.5848 19.4314
32.6314 19.3649
32.6778 19.2044
32.7244 19.036
32.7708 18.9648
32.8174 18.9202
32.8638 18.8238
32.9104 18.8422
32.9569 18.8216
33.0035 18.7827
33.0499 18.8444
33.0966 18.7807
33.143 18.7226
33.1897 18.5383
33.2361 18.505
33.2828 18.5123
33.3293 18.452
33.3759 18.5475
33.4226 18.4965
33.4691 18.62
33.5158 18.6504
33.5623 18.6891
33.609 18.6718
33.6555 18.6192
33.7022 18.4488
33.7487 18.3352
33.7954 18.0953
33.842 17.9655
33.8887 17.9003
33.9353 17.828
33.982 17.7582
34.0286 17.7187
34.0753 17.6696
34.1219 17.6101
34.1687 17.5969
34.2152 17.566
34.262 17.5137
34.3086 17.4412
34.3554 17.3519
34.402 17.2695
34.4488 17.1807
34.4954 17.1599
34.5422 17.0408
34.5889 16.9763
34.6357 17.0203
34.6825 16.9915
34.7292 16.9085
34.776 16.8795
34.8227 16.8404
34.8695 16.7015
34.9162 16.6916
34.9631 16.5814
35.0098 16.5411
35.0566 16.4292
35.1033 16.4369
35.1502 16.3917
35.1969 16.3876
35.2438 16.3656
35.2906 16.3293
35.3375 16.3024
35.3842 16.2218
35.4311 16.1911
35.4779 16.2265
35.5248 16.2947
35.5716 16.1538
35.6185 16.1725
35.6653 16.1992
35.7123 16.3274
35.759 16.2808
35.806 16.4119
35.8528 16.3337
35.8998 16.3015
35.9468 16.193
35.9936 16.0581
36.0406 15.8853
36.0874 15.9524
36.1345 15.776
36.1813 15.6719
36.2283 15.5944
36.2752 15.48
36.3222 15.5843
36.3691 15.4329
36.4161 15.3535
36.463 15.4945
36.5101 15.4978
36.557 15.4919
36.6041 15.36
36.651 15.349
36.6981 15.1997
36.745 15.1514
36.7921 15.163
36.839 15.0761
36.8861 15.0891
36.9331 15.0728
36.9802 15.0722
37.0272 15.0018
37.0743 14.9398
37.1213 14.8827
37.1684 14.7896
37.2154 14.7335
37.2626 14.6105
37.3098 14.5862
37.3568 14.4962
37.404 14.5891
37.451 14.4727
37.4982 14.3777
37.5452 14.3262
37.5924 14.348
37.6395 14.3305
37.6867 14.306
37.7337 14.1464
37.781 14.1175
37.8281 14.0822
37.8753 13.9952
37.9224 13.9744
37.9697 13.9907
38.0168 13.9349
38.064 13.9101
38.1111 13.8303
38.1584 13.8733
38.2056 13.7694
38.2529 13.7663
38.3 13.6714
38.3473 13.645
38.3945 13.5344
38.4418 13.5141
38.489 13.4648
38.5363 13.4569
38.5837 13.389
38.6309 13.3295
38.6782 13.3948
38.7254 13.3409
38.7728 13.2627
38.82 13.1874
38.8674 13.2124
38.9146 13.1126
38.9621 13.1355
39.0093 13.0371
39.0567 13.124
39.104 13.0626
39.1514 12.9654
39.1987 12.9482
39.2461 12.901
39.2934 12.8431
39.3409 12.7409
39.3882 12.7038
39.4356 12.7167
39.483 12.684
39.5304 12.5938
39.5778 12.594
39.6253 12.5058
39.6726 12.5337
39.7201 12.476
39.7675 12.4677
39.815 12.4291
39.8624 12.3767
39.9099 12.3447
39.9575 12.2846
40.0049 12.2296
40.0525 12.2479
40.0999 12.2073
40.1474 12.2121
40.1949 12.1298
40.2425 12.1325
40.2899 12.107
40.3375 12.0597
40.385 12.0199
40.4326 11.9874
40.48 11.8824
40.5277 11.9424
40.5752 11.8505
40.6228 11.8171
40.6703 11.8037
40.718 11.7957
40.7655 11.7645
40.8132 11.6809
40.8607 11.6766
40.9084 11.6593
40.9559 11.6104
41.0036 11.5307
41.0512 11.5836
41.0989 11.594
41.1465 11.5175
41.1942 11.4699
41.242 11.3885
41.2896 11.4
41.3373 11.3174
41.3849 11.2661
41.4327 11.1889
41.4803 11.2441
41.5281 11.1671
41.5758 11.0965
41.6236 11.0862
41.6712 11.0368
41.7191 11.0036
41.7667 10.9996
41.8146 10.9662
41.8622 10.9513
41.9101 10.8997
41.9578 10.8251
42.0057 10.814
42.0534 10.7664
42.1013 10.7668
42.149 10.6953
42.1969 10.7035
42.2446 10.6881
42.2925 10.6413
42.3403 10.5717
42.3882 10.5336
42.436 10.5338
42.4839 10.4715
42.5319 10.4103
42.5797 10.4028
42.6277 10.3538
42.6755 10.3356
42.7235 10.313
42.7713 10.2768
42.8193 10.2487
42.8671 10.2153
42.9152 10.1783
42.963 10.0933
43.0111 10.0716
43.0589 10.0487
43.107 10.0299
43.1549 10.0033
43.2029 9.95549
43.2508 9.92505
43.2989 9.87016
43.3468 9.81429
43.3949 9.8168
43.4429 9.7715
43.491 9.75584
43.5389 9.68859
43.5871 9.70175
43.635 9.61838
43.6832 9.63223
43.7312 9.55284
43.7793 9.5676
43.8273 9.51465
43.8755 9.49265
43.9237 9.45796
43.9717 9.45347
44.0199 9.40175
44.068 9.37577
44.1162 9.35144
44.1642 9.33761
44.2125 9.30122
44.2606 9.27585
44.3088 9.2157
44.3569 9.18751
44.4052 9.19432
44.4533 9.12015
44.5016 9.08953
44.5497 9.09626
44.598 9.05364
44.6461 9.04112
44.6945 8.95955
44.7426 8.96333
44.791 8.8868
44.8391 8.91023
44.8875 8.89656
44.9357 8.83721
44.984 8.79578
45.0322 8.75506
45.0806 8.77689
45.1288 8.75181
45.1773 8.69612
45.2257 8.66039
45.2739 8.62383
45.3224 8.62623
45.3706 8.58789
45.4191 8.55771
45.4673 8.49786
45.5158 8.50547
45.5641 8.45978
45.6126 8.45091
45.6609 8.40655
45.7094 8.39942
45.7577 8.3234
45.8063 8.31555
45.8546 8.32074
45.9031 8.24497
45.9515 8.22598
46.0001 8.21983
46.0484 8.24559
46.097 8.20534
46.1454 8.14659
46.194 8.11284
46.2424 8.09181
46.291 8.05459
46.3395 8.03914
46.3881 7.99043
46.4365 7.95122
46.4852 7.93625
46.5337 7.92922
46.5823 7.93071
46.631 7.83837
46.6795 7.82466
46.7282 7.79366
46.7767 7.78399
46.8254 7.71037
46.8739 7.70975
46.9226 7.67884
46.9712 7.61362
47.0199 7.61942
47.0685 7.57335
47.1173 7.5474
47.1658 7.52863
47.2146 7.5153
47.2632 7.47567
47.312 7.49748
47.3606 7.45147
47.4095 7.41789
47.4581 7.41617
47.5069 7.34308
47.5556 7.32629
47.6044 7.28377
47.6531 7.24649
47.702 7.22645
47.7507 7.26378
47.7996 7.19711
47.8483 7.15405
47.8972 7.16392
47.9461 7.12744
47.9948 7.06124
48.0438 7.06758
48.0925 7.09987
48.1415 7.00678
48.1902 6.99708
48.2392 6.99276
48.288 6.94231
48.337 6.94695
48.3858 6.88305
48.4348 6.88263
48.4837 6.89363
48.5327 6.84532
48.5815 6.81666
48.6306 6.82408
48.6795 6.7687
48.7285 6.72026
48.7774 6.72361
48.8265 6.7196
48.8754 6.66692
48.9245 6.62999
48.9734 6.62194
49.0226 6.60431
49.0715 6.58157
49.1206 6.54898
49.1696 6.52046
49.2188 6.53345
49.2679 6.49055
49.3169 6.44259
49.3661 6.40245
49.4151 6.39016
49.4643 6.37713
49.5134 6.36359
49.5626 6.33422
49.6117 6.31605
49.6609 6.31189
49.71 6.25009
49.7592 6.2521
49.8083 6.21148
49.8576 6.19013
49.9067 6.16088
49.956 6.15342
50.0052 6.12444
50.0545 6.1274
50.1036 6.09144
50.153 6.06951
50.2022 6.06657
50.2515 6.0128
50.3007 5.99397
50.3501 5.9877
50.3993 5.96954
50.4487 5.91561
50.498 5.91818
50.5474 5.88546
50.5966 5.86263
50.6461 5.81949
50.6955 5.86836
50.7448 5.82024
50.7943 5.78415
50.8436 5.77236
50.8931 5.77303
50.9424 5.73628
50.9919 5.71865
51.0413 5.72434
51.0908 5.6836
51.1402 5.62714
51.1897 5.60315
51.2391 5.60414
51.2887 5.56543
51.3381 5.54949
51.3877 5.55458
51.4371 5.54364
51.4867 5.49111
51.5362 5.48858
51.5858 5.47215
51.6353 5.40571
51.6849 5.41649
51.7344 5.37589
51.7841 5.38952
51.8336 5.31835
51.8833 5.30945
51.9328 5.3099
51.9826 5.28439
52.0323 5.24378
52.0818 5.23835
52.1316 5.19937
52.1812 5.18536
52.231 5.16564
52.2806 5.14797
52.3304 5.13818
52.38 5.11789
52.4298 5.10093
52.4794 5.07481
52.5293 5.04617
52.5789 5.0041
52.6288 4.99795
52.6785 4.98242
52.7284 4.99264
52.7781 4.97024
52.828 4.91958
52.8777 4.91328
52.9276 4.93611
52.9774 4.88848
53.0273 4.84189
53.0771 4.86556
53.1271 4.83728
53.1769 4.79751
53.2269 4.79689
53.2767 4.77075
53.3267 4.76481
53.3765 4.733
53.4266 4.68487
53.4766 4.69232
53.5265 4.6559
53.5765 4.67688
53.6264 4.6206
53.6765 4.60814
53.7264 4.62229
53.7765 4.53032
53.8265 4.55685
53.8766 4.53539
53.9266 4.53831
53.9767 4.45473
54.0267 4.4733
54.0769 4.42683
54.1269 4.42103
54.1771 4.36696
54.2271 4.34972
54.2773 4.33652
54.3274 4.31224
54.3776 4.24607
54.4277 4.25317
54.478 4.20353
54.528 4.19533
54.5783 4.09359
54.6285 4.07913
54.6788 4.08568
54.7289 4.01529
54.7792 4.04544
54.8296 4.0078
54.8798 3.94431
54.9301 3.92364
54.9803 3.89927
55.0307 3.90564
55.0809 3.84366
55.1314 3.84307
55.1816 3.74446
55.232 3.73068
55.2823 3.69246
55.3328 3.64613
55.383 3.64222
55.4335 3.60826
55.4838 3.56807
55.5344 3.53503
55.5847 3.50384
55.6352 3.55897
55.6856 3.51418
55.7361 3.43678