File: XRD/Ni3Fe_FD0727.xy
TT I
1.27165 7.48789
1.31627 6.85308
1.36089 6.91497
1.40551 5.88834
1.45013 6.03886
1.49476 6.11975
1.53938 5.8943
1.584 5.58436
1.62863 5.34469
1.67325 4.61437
1.71787 4.89553
1.7625 4.40907
1.80712 4.70837
1.85174 4.24626
1.89636 4.9292
1.94099 4.98712
1.98562 4.46271
2.03025 3.98237
2.07487 4.40039
2.11949 5.2178
2.16411 4.79649
2.20874 12.6257
2.25338 19.7899
2.298 5.60334
2.34263 5.21622
2.38725 6.2905
2.43188 6.11797
2.4765 6.64758
2.52115 6.07751
2.56577 7.5808
2.6104 8.0926
2.65503 7.43362
2.69965 7.45288
2.7443 8.26004
2.78893 8.33559
2.83356 8.64672
2.87818 8.75923
2.92281 9.36882
2.96744 10.0135
3.01209 10.5206
3.05672 11.3869
3.10135 11.739
3.14599 12.6667
3.19062 14.4586
3.23527 15.4265
3.2799 15.7177
3.32454 16.6956
3.36917 17.4968
3.4138 19.2837
3.45844 19.8784
3.50309 20.878
3.54773 21.9599
3.59237 23.9251
3.637 82.0656
3.68164 52.0562
3.7263 26.0905
3.77094 26.0032
3.81558 26.6279
3.86022 27.5428
3.90486 29.0813
3.9495 29.6192
3.99416 30.5591
4.0388 31.7594
4.08344 33.5949
4.12809 34.6462
4.17273 36.4578
4.21738 42.1036
4.26204 216.773
4.30669 187.113
4.35133 47.5455
4.39598 44.6123
4.44063 52.6422
4.4853 62.358
4.52995 50.18
4.5746 51.0817
4.61925 53.129
4.6639 55.2054
4.70855 57.9137
4.75322 60.8233
4.79788 63.8336
4.84253 67.4633
4.88719 71.3137
4.93184 74.8045
4.97652 80.2977
5.02118 86.7351
5.06583 94.1805
5.11049 105.247
5.15515 164.293
5.19981 336.943
5.24449 2857.53
5.28916 12466.2
5.33382 2886.48
5.37848 184.328
5.42315 127.5
5.46783 112.995
5.5125 106.002
5.55716 101.69
5.60183 98.4751
5.6465 96.1641
5.69117 93.8989
5.73586 91.8836
5.78053 91.1128
5.8252 90.8128
5.86988 91.6175
5.91455 93.3304
5.95924 100.513
6.00392 200.293
6.0486 951.139
6.09328 4482.23
6.13795 3202.07
6.18263 234.119
6.22733 91.7175
6.27201 82.359
6.3167 97.5224
6.36138 78.5501
6.40606 68.6896
6.45075 66.8777
6.49545 64.9349
6.54014 63.7259
6.58483 62.649
6.62952 62.5065
6.67421 89.222
6.71892 128.779
6.76361 67.2163
6.8083 58.2392
6.853 57.0286
6.89769 56.8492
6.94239 56.4269
6.98711 55.4985
7.03181 55.323
7.07651 54.8467
7.12121 54.7149
7.16591 55.0684
7.21063 55.2194
7.25533 68.8648
7.30004 158.894
7.34475 84.4321
7.38945 56.0952
7.43416 54.3369
7.47889 54.364
7.5236 54.6754
7.56831 55.0469
7.61303 56.3939
7.65774 56.7468
7.70247 56.0794
7.74719 55.8644
7.79191 56.3019
7.83663 56.6781
7.88135 57.6171
7.92607 58.4391
7.97081 59.6841
8.01553 60.2951
8.06026 61.8802
8.10498 63.9619
8.14971 71.7782
8.19446 70.9451
8.23919 69.0225
8.28392 71.8175
8.32865 73.5403
8.37339 77.8365
8.41812 84.5472
8.46288 109.28
8.50761 158.514
8.55235 377.962
8.59709 1193.07
8.64183 2162.89
8.68658 957.134
8.73134 165.567
8.77609 98.8655
8.82083 92.2825
8.86558 89.3936
8.91033 89.0041
8.9551 90.2634
8.99985 84.9072
9.04461 83.287
9.08936 82.4259
9.13412 81.5765
9.17888 81.9971
9.22365 82.6552
9.26841 81.8786
9.31318 82.0158
9.35794 82.4815
9.4027 83.0474
9.44749 83.6838
9.49226 84.6018
9.53703 85.0863
9.5818 87.233
9.62657 91.2609
9.67134 97.1091
9.71614 93.2522
9.76091 93.0999
9.80569 96.0345
9.85047 99.5382
9.89525 120.488
9.94005 130.832
9.98484 173.007
10.0296 338.439
10.0744 825.243
10.1192 1764.36
10.164 1579.47
10.2088 403.734
10.2536 125.633
10.2984 111.999
10.3432 112.316
10.388 104.012
10.4328 117.137
10.4776 158.471
10.5224 286.124
10.5672 510.515
10.612 508.659
10.6568 204.375
10.7017 96.5569
10.7465 86.3523
10.7913 82.7345
10.8361 80.8315
10.8809 78.5747
10.9257 77.9202
10.9706 78.2319
11.0154 74.1406
11.0602 72.5947
11.105 71.2676
11.1499 75.181
11.1947 80.5646
11.2395 73.0353
11.2844 69.814
11.3292 67.1166
11.374 65.7139
11.4189 65.2943
11.4637 64.5798
11.5086 65.1446
11.5534 67.2477
11.5983 64.7771
11.6431 63.3953
11.688 62.7556
11.7328 62.7294
11.7777 62.6918
11.8225 62.2108
11.8674 62.1505
11.9122 62.4663
11.9571 62.5253
12.002 63.0341
12.0468 67.0336
12.0917 78.0118
12.1366 103.093
12.1814 155.825
12.2263 200.549
12.2712 163.257
12.3161 95.4527
12.3609 69.8249
12.4058 64.1726
12.4507 64.069
12.4956 64.0849
12.5405 64.254
12.5853 65.1653
12.6302 71.9179
12.6751 76.3055
12.72 68.9889
12.7649 67.5428
12.8098 68.279
12.8547 69.3529
12.8996 70.6504
12.9445 71.9527
12.9894 73.7366
13.0343 75.3008
13.0792 78.3847
13.1242 86.9608
13.1691 109.843
13.214 147.354
13.2589 241.433
13.3038 370.173
13.3487 412.547
13.3937 264.234
13.4386 126.26
13.4835 104.324
13.5285 119.105
13.5734 159.234
13.6183 251.385
13.6633 342.629
13.7082 330.273
13.7531 183.781
13.7981 97.5122
13.843 81.4792
13.888 79.2997
13.9329 76.8974
13.9779 75.7295
14.0228 73.962
14.0678 72.7718
14.1127 72.293
14.1577 71.9134
14.2027 71.2554
14.2476 70.1813
14.2926 70.0807
14.3376 71.1641
14.3825 69.7179
14.4275 68.5026
14.4725 68.3288
14.5175 68.6074
14.5624 68.8611
14.6074 70.5345
14.6524 71.1367
14.6974 70.1978
14.7424 71.5916
14.7874 77.9777
14.8324 88.2585
14.8774 111.018
14.9224 155.231
14.9674 206.7
15.0124 212.436
15.0574 147.057
15.1024 90.5927
15.1474 71.9388
15.1924 70.1657
15.2374 70.4174
15.2824 69.3952
15.3274 67.724
15.3725 66.5765
15.4175 65.972
15.4625 65.8628
15.5076 66.1938
15.5526 65.757
15.5976 65.4713
15.6426 66.3558
15.6877 71.442
15.7327 78.9914
15.7778 94.7775
15.8228 127.857
15.8679 172.4
15.9129 189.076
15.958 153.37
16.003 97.4936
16.0481 68.1654
16.0931 64.1744
16.1382 62.1124
16.1833 60.2163
16.2283 58.6671
16.2734 58.0088
16.3185 58.2396
16.3636 58.8783
16.4086 57.1776
16.4537 55.9721
16.4988 55.34
16.5439 55.0751
16.589 54.9084
16.6341 54.5468
16.6792 54.2133
16.7243 54.5968
16.7694 54.5247
16.8145 54.7572
16.8596 54.9872
16.9047 56.1539
16.9498 56.3449
16.9949 55.3465
17.04 55.6166
17.0851 56.8442
17.1302 58.4852
17.1754 61.2338
17.2205 66.5734
17.2656 74.6307
17.3108 82.0496
17.3559 81.6449
17.401 70.5247
17.4462 62.0471
17.4913 58.9199
17.5365 58.8507
17.5815 58.8935
17.6268 59.3204
17.6718 60.1037
17.7171 60.6747
17.7622 61.1176
17.8074 61.5968
17.8525 64.0101
17.8977 67.6947
17.9428 73.2174
17.9881 82.1792
18.0331 100.735
18.0784 122.584
18.1237 138.552
18.1688 130.273
18.214 103.173
18.2591 87.1993
18.3044 91.0216
18.3495 100.069
18.3948 104.991
18.4399 94.8133
18.4852 77.0467
18.5303 65.7484
18.5756 62.0073
18.6207 60.8977
18.666 60.1824
18.7112 59.477
18.7565 58.5638
18.8016 58.3612
18.8469 57.9104
18.892 57.4594
18.9374 57.0979
18.9825 56.7626
19.0278 56.6691
19.073 56.7292
19.1183 57.1401
19.1635 57.7883
19.2088 59.143
19.254 61.9801
19.2993 66.8501
19.3447 72.6179
19.3898 75.5462
19.4352 71.5155
19.4804 63.0896
19.5257 56.5277
19.5709 53.9735
19.6163 53.5779
19.6615 53.5462
19.7068 53.0851
19.752 52.9477
19.7974 53.2432
19.8426 54.2209
19.888 54.6882
19.9332 56.0488
19.9786 58.7573
20.0238 62.4308
20.0692 67.3212
20.1144 69.2696
20.1598 67.784
20.205 63.5141
20.2504 62.2699
20.2957 63.7277
20.3411 64.9829
20.3863 63.1316
20.4318 58.1614
20.477 53.5419
20.5224 51.5155
20.5677 50.6322
20.6131 49.9615
20.6586 49.5364
20.7038 49.337
20.7493 48.8056
20.7945 48.9252
20.84 48.7032
20.8853 48.4022
20.9307 48.513
20.976 48.4555
21.0215 48.3157
21.0668 48.7018
21.1122 49.3423
21.1575 49.8156
21.203 50.5939
21.2483 51.1593
21.2938 51.0856
21.3391 49.8066
21.3846 48.7263
21.4299 48.1583
21.4754 48.3238
21.5207 48.4
21.5662 48.5475
21.6116 48.9186
21.6571 49.73
21.7024 50.594
21.7479 52.3996
21.7933 55.3915
21.8388 58.9683
21.8843 62.4474
21.9297 64.4298
21.9752 62.9354
22.0206 59.3806
22.0661 56.3915
22.1115 55.9318
22.157 55.5274
22.2024 54.0228
22.248 51.3843
22.2933 49.7286
22.3389 48.8568
22.3843 48.7946
22.4299 48.668
22.4753 48.7183
22.5208 48.4936
22.5662 48.3123
22.6118 48.4492
22.6572 48.7637
22.7028 49.1092
22.7483 49.5269
22.7939 50.3116
22.8393 51.8633
22.8849 54.1123
22.9303 56.0828
22.9759 57.257
23.0214 56.7026
23.067 54.1296
23.1126 51.2344
23.1581 48.9494
23.2037 48.6997
23.2492 48.7328
23.2948 48.5597
23.3403 48.8106
23.3859 49.5948
23.4314 50.4885
23.477 52.682
23.5225 54.9042
23.5682 56.7361
23.6137 57.4686
23.6593 55.061
23.7048 51.4717
23.7505 48.3578
23.796 46.5078
23.8417 45.8151
23.8872 45.4676
23.9329 44.9955
23.9784 44.7396
24.0241 44.4931
24.0697 44.28
24.1154 43.9747
24.1609 43.8021
24.2066 43.6953
24.2522 43.5087
24.2979 43.1607
24.3434 43.151
24.3892 42.9962
24.4349 42.9846
24.4805 42.8257
24.5262 42.9097
24.5718 42.7531
24.6175 42.812
24.6631 42.6607
24.7089 42.3943
24.7545 42.2718
24.8002 42.1402
24.8458 42.116
24.8916 41.9593
24.9372 41.9911
24.983 42.3463
25.0286 42.7524
25.0744 43.2709
25.12 43.5583
25.1658 44.1307
25.2114 44.3965
25.2572 44.6098
25.3029 44.7552
25.3487 44.6352
25.3943 44.249
25.4402 43.3121
25.4858 42.3924
25.5316 41.2253
25.5773 40.7073
25.6231 40.7188
25.669 40.3348
25.7147 40.2961
25.7605 40.1613
25.8062 40.3373
25.8521 40.5384
25.8977 40.3924
25.9436 40.6824
25.9893 40.8425
26.0352 41.2685
26.0809 41.3915
26.1268 41.4859
26.1725 41.2084
26.2184 40.7215
26.2641 40.1501
26.31 40.0388
26.3557 39.9223
26.4017 39.9626
26.4474 40.2868
26.4933 40.6699
26.5391 41.2002
26.585 41.6286
26.6308 41.9568
26.6767 41.921
26.7225 41.861
26.7684 41.2784
26.8142 40.7295
26.8601 40.2954
26.9059 39.8328
26.9519 39.2545
26.9979 39.0689
27.0437 38.775
27.0896 38.5879
27.1354 38.6741
27.1814 38.3684
27.2272 38.2886
27.2732 38.3836
27.3191 38.2839
27.3651 38.4772
27.4109 38.3688
27.4569 38.4211
27.5027 38.4498
27.5488 38.4306
27.5946 38.2586
27.6407 38.0373
27.6865 37.8707
27.7326 37.8019
27.7784 37.7522
27.8245 37.5887
27.8703 37.8063
27.9164 38.1279
27.9623 38.3743
28.0084 38.6227
28.0543 38.9071
28.1003 38.8716
28.1462 38.7708
28.1923 38.2873
28.2384 37.9176
28.2843 37.4259
28.3304 37.0061
28.3764 36.5004
28.4225 36.3728
28.4684 36.1225
28.5145 35.8687
28.5605 35.775
28.6066 35.5902
28.6526 35.5255
28.6987 35.5649
28.7447 35.3365
28.7908 35.3252
28.8368 35.2078
28.8829 35.297
28.9289 35.1514
28.9751 35.0593
29.0211 34.8658
29.0673 34.4834
29.1133 34.4333
29.1595 34.3174
29.2055 34.2328
29.2517 34.1162
29.2977 34.2098
29.3439 34.1644
29.3899 34.0772
29.4361 34.0005
29.4824 33.7556
29.5284 33.6388
29.5746 33.2404
29.6207 33.0203
29.6669 32.9993
29.713 32.8638
29.7593 32.6237
29.8053 32.8299
29.8516 32.734
29.8977 32.6772
29.9439 32.5123
29.99 32.4961
30.0363 32.449
30.0824 32.3022
30.1287 32.3864
30.1748 32.2806
30.2211 32.4045
30.2673 32.1551
30.3136 32.2706
30.3597 32.1135
30.406 32.0517
30.4522 31.9412
30.4985 31.9208
30.5447 32.1327
30.591 32.0955
30.6372 32.165
30.6835 32.0103
30.7297 31.9673
30.7761 31.9757
30.8224 31.825
30.8686 31.7615
30.915 31.4657
30.9612 31.4088
31.0076 31.157
31.0538 31.0763
31.1002 31.0048
31.1464 30.8011
31.1928 30.8108
31.2391 30.8668
31.2855 30.746
31.3317 30.7787
31.3781 30.7805
31.4244 30.7686
31.4708 30.7406
31.5171 30.6764
31.5636 30.7005
31.6098 30.4142
31.6563 30.2462
31.7026 30.1842
31.7491 30.0247
31.7953 30.0678
31.8418 30.0237
31.8881 30.0641
31.9346 30.0108
31.9809 29.9242
32.0275 29.7904
32.074 29.69
32.1203 29.5286
32.1668 29.4631
32.2132 29.2596
32.2597 29.207
32.306 29.1544
32.3526 28.9227
32.399 28.7788
32.4455 28.6408
32.4919 28.7099
32.5385 28.5165
32.5848 28.4622
32.6314 28.4306
32.6778 28.3478
32.7244 28.1711
32.7708 27.9768
32.8174 27.9725
32.8638 27.8502
32.9104 27.9423
32.9569 27.9105
33.0035 27.7692
33.0499 27.7396
33.0966 27.6773
33.143 27.6697
33.1897 27.5087
33.2361 27.5351
33.2828 27.5252
33.3293 27.2928
33.3759 27.3067
33.4226 27.1182
33.4691 27.0021
33.5158 26.8969
33.5623 26.7473
33.609 26.6435
33.6555 26.5374
33.7022 26.5121
33.7487 26.3735
33.7954 26.4157
33.842 26.3159
33.8887 26.2452
33.9353 26.2255
33.982 26.1021
34.0286 25.8965
34.0753 25.9311
34.1219 25.7646
34.1687 25.7169
34.2152 25.7056
34.262 25.5859
34.3086 25.4804
34.3554 25.4189
34.402 25.2267
34.4488 25.2513
34.4954 25.1834
34.5422 25.0625
34.5889 24.9581
34.6357 24.8507
34.6825 24.8952
34.7292 24.7687
34.776 24.5471
34.8227 24.6523
34.8695 24.5651
34.9162 24.4883
34.9631 24.4212
35.0098 24.3232
35.0566 24.2277
35.1033 24.1093
35.1502 24.1759
35.1969 24.0986
35.2438 24.1162
35.2906 23.9719
35.3375 23.9823
35.3842 23.9307
35.4311 23.8171
35.4779 23.8728
35.5248 23.7719
35.5716 23.6548
35.6185 23.619
35.6653 23.5603
35.7123 23.5275
35.759 23.3476
35.806 23.3186
35.8528 23.1168
35.8998 23.1397
35.9468 23.0288
35.9936 23.0598
36.0406 22.8983
36.0874 22.9877
36.1345 22.8346
36.1813 22.6844
36.2283 22.6399
36.2752 22.5301
36.3222 22.5802
36.3691 22.4143
36.4161 22.3786
36.463 22.4004
36.5101 22.3127
36.557 22.2095
36.6041 22.0878
36.651 22.023
36.6981 22.0048
36.745 21.9759
36.7921 21.8675
36.839 21.7587
36.8861 21.7746
36.9331 21.7027
36.9802 21.569
37.0272 21.5293
37.0743 21.3555
37.1213 21.3272
37.1684 21.2926
37.2154 21.3257
37.2626 21.1559
37.3098 21.0717
37.3568 21.0684
37.404 21.0623
37.451 20.9044
37.4982 20.8876
37.5452 20.7525
37.5924 20.7253
37.6395 20.7459
37.6867 20.6968
37.7337 20.5525
37.781 20.4598
37.8281 20.4072
37.8753 20.2813
37.9224 20.2353
37.9697 20.1711
38.0168 20.1498
38.064 20.1036
38.1111 20.0595
38.1584 19.8922
38.2056 19.8606
38.2529 19.906
38.3 19.7674
38.3473 19.803
38.3945 19.6287
38.4418 19.5702
38.489 19.5297
38.5363 19.4469
38.5837 19.3524
38.6309 19.3338
38.6782 19.288
38.7254 19.1766
38.7728 19.0969
38.82 19.0754
38.8674 19.0492
38.9146 19.0066
38.9621 18.8968
39.0093 18.8952
39.0567 18.7906
39.104 18.7447
39.1514 18.6259
39.1987 18.5635
39.2461 18.5669
39.2934 18.5267
39.3409 18.396
39.3882 18.3162
39.4356 18.2465
39.483 18.2802
39.5304 18.201
39.5778 18.1469
39.6253 18.0503
39.6726 18.019
39.7201 17.9723
39.7675 17.9144
39.815 17.8516
39.8624 17.7945
39.9099 17.7693
39.9575 17.5849
40.0049 17.6153
40.0525 17.5313
40.0999 17.5224
40.1474 17.4587
40.1949 17.3684
40.2425 17.357
40.2899 17.2695
40.3375 17.1999
40.385 17.2108
40.4326 17.1453
40.48 17.0234
40.5277 17.0414
40.5752 16.958
40.6228 16.8819
40.6703 16.9075
40.718 16.794
40.7655 16.8254
40.8132 16.6665
40.8607 16.6763
40.9084 16.5818
40.9559 16.6075
41.0036 16.5244
41.0512 16.4888
41.0989 16.4294
41.1465 16.338
41.1942 16.3087
41.242 16.2005
41.2896 16.1672
41.3373 16.0771
41.3849 16.0158
41.4327 16.0063
41.4803 15.8691
41.5281 15.9141
41.5758 15.7812
41.6236 15.7615
41.6712 15.73
41.7191 15.6882
41.7667 15.5865
41.8146 15.5764
41.8622 15.5051
41.9101 15.4954
41.9578 15.3375
42.0057 15.3493
42.0534 15.3056
42.1013 15.247
42.149 15.1511
42.1969 15.1872
42.2446 15.1244
42.2925 15.0976
42.3403 15.0172
42.3882 14.9922
42.436 14.8965
42.4839 14.8695
42.5319 14.8699
42.5797 14.7618
42.6277 14.7555
42.6755 14.7049
42.7235 14.6077
42.7713 14.5809
42.8193 14.5019
42.8671 14.4406
42.9152 14.3914
42.963 14.3877
43.0111 14.2943
43.0589 14.2677
43.107 14.2494
43.1549 14.2051
43.2029 14.069
43.2508 14.1156
43.2989 14.0194
43.3468 13.968
43.3949 13.9457
43.4429 13.9329
43.491 13.885
43.5389 13.8126
43.5871 13.7334
43.635 13.6841
43.6832 13.6689
43.7312 13.5972
43.7793 13.5533
43.8273 13.548
43.8755 13.4695
43.9237 13.3943
43.9717 13.4154
44.0199 13.3141
44.068 13.2696
44.1162 13.1961
44.1642 13.1679
44.2125 13.1472
44.2606 13.0751
44.3088 13.0193
44.3569 12.9853
44.4052 12.9983
44.4533 12.9205
44.5016 12.8164
44.5497 12.8279
44.598 12.7511
44.6461 12.6938
44.6945 12.7043
44.7426 12.6445
44.791 12.5515
44.8391 12.5048
44.8875 12.4939
44.9357 12.4694
44.984 12.4109
45.0322 12.3843
45.0806 12.3804
45.1288 12.2868
45.1773 12.2739
45.2257 12.2093
45.2739 12.1748
45.3224 12.1245
45.3706 12.1026
45.4191 12.0199
45.4673 12.027
45.5158 11.9422
45.5641 11.9583
45.6126 11.8835
45.6609 11.8157
45.7094 11.7574
45.7577 11.7125
45.8063 11.6682
45.8546 11.6521
45.9031 11.5953
45.9515 11.5815
46.0001 11.5172
46.0484 11.5094
46.097 11.4094
46.1454 11.4043
46.194 11.3608
46.2424 11.3068
46.291 11.2923
46.3395 11.2392
46.3881 11.1662
46.4365 11.1851
46.4852 11.1149
46.5337 11.0634
46.5823 11.025
46.631 10.9959
46.6795 10.9973
46.7282 10.9572
46.7767 10.8617
46.8254 10.8127
46.8739 10.7919
46.9226 10.7532
46.9712 10.6621
47.0199 10.6632
47.0685 10.6576
47.1173 10.5788
47.1658 10.5395
47.2146 10.5189
47.2632 10.4542
47.312 10.4742
47.3606 10.4135
47.4095 10.3566
47.4581 10.3377
47.5069 10.2605
47.5556 10.2565
47.6044 10.1977
47.6531 10.1634
47.702 10.0869
47.7507 10.0976
47.7996 10.0637
47.8483 10.0413
47.8972 9.98786
47.9461 9.95761
47.9948 9.89407
48.0438 9.85866
48.0925 9.8387
48.1415 9.87425
48.1902 9.75489
48.2392 9.76022
48.288 9.69267
48.337 9.64488
48.3858 9.62598
48.4348 9.58281
48.4837 9.56297
48.5327 9.54369
48.5815 9.48108
48.6306 9.44893
48.6795 9.44365
48.7285 9.36704
48.7774 9.31711
48.8265 9.33021
48.8754 9.26001
48.9245 9.24907
48.9734 9.20405
49.0226 9.20982
49.0715 9.13944
49.1206 9.09325
49.1696 9.09306
49.2188 9.06836
49.2679 9.02923
49.3169 8.97698
49.3661 8.94295
49.4151 8.90656
49.4643 8.86836
49.5134 8.80962
49.5626 8.80181
49.6117 8.762
49.6609 8.70838
49.71 8.70385
49.7592 8.66002
49.8083 8.63599
49.8576 8.60958
49.9067 8.57942
49.956 8.5353
50.0052 8.48648
50.0545 8.47794
50.1036 8.45373
50.153 8.39968
50.2022 8.37607
50.2515 8.36134
50.3007 8.26204
50.3501 8.24169
50.3993 8.2467
50.4487 8.19428
50.498 8.15173
50.5474 8.14065
50.5966 8.10572
50.6461 8.10101
50.6955 8.05188
50.7448 8.0202
50.7943 8.00595
50.8436 7.97414
50.8931 7.9261
50.9424 7.91183
50.9919 7.86144
51.0413 7.85469
51.0908 7.80753
51.1402 7.78941
51.1897 7.75267
51.2391 7.73459
51.2887 7.68846
51.3381 7.65161
51.3877 7.61849
51.4371 7.59704
51.4867 7.57572
51.5362 7.50902
51.5858 7.51545
51.6353 7.45107
51.6849 7.44167
51.7344 7.38908
51.7841 7.36284
51.8336 7.39874
51.8833 7.31409
51.9328 7.31166
51.9826 7.25718
52.0323 7.22426
52.0818 7.1695
52.1316 7.14579
52.1812 7.11537
52.231 7.12403
52.2806 7.07937
52.3304 7.06323
52.38 7.00644
52.4298 6.98399
52.4794 6.94199
52.5293 6.91351
52.5789 6.88961
52.6288 6.86397
52.6785 6.83643
52.7284 6.83164
52.7781 6.73561
52.828 6.80961
52.8777 6.69974
52.9276 6.68856
52.9774 6.67199
53.0273 6.65116
53.0771 6.60134
53.1271 6.61526
53.1769 6.58158
53.2269 6.55502
53.2767 6.50656
53.3267 6.43578
53.3765 6.43501
53.4266 6.45336
53.4766 6.39308
53.5265 6.38067
53.5765 6.33832
53.6264 6.31578
53.6765 6.31638
53.7264 6.25411
53.7765 6.27034
53.8265 6.17651
53.8766 6.19118
53.9266 6.17251
53.9767 6.10793
54.0267 6.12112
54.0769 6.06983
54.1269 6.0561
54.1771 6.05818
54.2271 5.9765
54.2773 5.95449
54.3274 5.94195
54.3776 5.8869
54.4277 5.86779
54.478 5.84104
54.528 5.79626
54.5783 5.77453
54.6285 5.69123
54.6788 5.64748
54.7289 5.64857
54.7792 5.58573
54.8296 5.49059
54.8798 5.47035
54.9301 5.4542
54.9803 5.42886
55.0307 5.40483
55.0809 5.34157
55.1314 5.35823
55.1816 5.22865
55.232 5.20921
55.2823 5.21847
55.3328 5.13404
55.383 5.09335
55.4335 5.08361
55.4838 4.99216
55.5344 4.9791
55.5847 4.94832
55.6352 4.90455
55.6856 4.81693
55.7361 4.79285