File: XRD/Ni3Fe_FD0132.xy
TT I
1.27165 8.0223
1.31627 7.54378
1.36089 7.65481
1.40551 6.07043
1.45013 5.71962
1.49476 5.79355
1.53938 6.2453
1.584 6.15013
1.62863 5.92106
1.67325 5.35126
1.71787 5.90573
1.7625 5.63716
1.80712 5.41075
1.85174 5.11779
1.89636 5.09294
1.94099 5.48945
1.98562 5.31868
2.03025 4.55229
2.07487 5.16067
2.11949 4.76382
2.16411 4.62776
2.20874 4.98865
2.25338 4.13769
2.298 4.89652
2.34263 4.43108
2.38725 4.75058
2.43188 4.02904
2.4765 4.51994
2.52115 4.32002
2.56577 4.77295
2.6104 5.25844
2.65503 5.01967
2.69965 5.46551
2.7443 6.39489
2.78893 6.40927
2.83356 7.10135
2.87818 7.98565
2.92281 8.74106
2.96744 9.85536
3.01209 10.0333
3.05672 11.0517
3.10135 12.4184
3.14599 13.3932
3.19062 14.2939
3.23527 14.9313
3.2799 15.6563
3.32454 17.1564
3.36917 17.6027
3.4138 18.323
3.45844 19.412
3.50309 20.3751
3.54773 20.3966
3.59237 21.7243
3.637 22.3322
3.68164 22.9938
3.7263 24.4877
3.77094 24.7904
3.81558 25.5404
3.86022 26.3143
3.90486 27.632
3.9495 28.2505
3.99416 29.4149
4.0388 30.8042
4.08344 31.8869
4.12809 32.558
4.17273 33.5691
4.21738 35.0477
4.26204 36.1526
4.30669 37.248
4.35133 39.5626
4.39598 40.9673
4.44063 42.8078
4.4853 44.644
4.52995 46.6969
4.5746 49.2989
4.61925 51.1305
4.6639 53.5979
4.70855 56.2155
4.75322 59.3998
4.79788 62.2733
4.84253 65.9798
4.88719 69.7772
4.93184 74.9176
4.97652 82.3622
5.02118 90.7195
5.06583 101.279
5.11049 118.546
5.15515 157.458
5.19981 573.142
5.24449 3760.17
5.28916 7830.79
5.33382 6471.88
5.37848 495.172
5.42315 167.458
5.46783 128.975
5.5125 114.548
5.55716 107.717
5.60183 101.236
5.6465 98.8751
5.69117 97.8744
5.73586 95.3124
5.78053 95.1048
5.8252 95.5508
5.86988 99.0371
5.91455 105.96
5.95924 125.989
6.00392 297.182
6.0486 1391.15
6.09328 2573.15
6.13795 3923.05
6.18263 723.015
6.22733 125.85
6.27201 90.0614
6.3167 78.4207
6.36138 72.4816
6.40606 68.2823
6.45075 65.9297
6.49545 64.0422
6.54014 62.0837
6.58483 60.4938
6.62952 59.2903
6.67421 57.8627
6.71892 57.041
6.76361 56.306
6.8083 55.3336
6.853 54.3315
6.89769 54.0719
6.94239 54.0946
6.98711 52.9375
7.03181 52.8348
7.07651 52.4444
7.12121 52.1727
7.16591 51.9086
7.21063 51.5843
7.25533 51.3407
7.30004 51.5533
7.34475 51.6618
7.38945 51.9548
7.43416 51.5252
7.47889 51.7465
7.5236 55.8596
7.56831 64.7795
7.61303 55.5815
7.65774 52.9165
7.70247 53.5771
7.74719 53.8006
7.79191 54.4954
7.83663 54.3782
7.88135 55.6592
7.92607 56.5732
7.97081 57.9554
8.01553 58.7626
8.06026 60.2008
8.10498 61.3262
8.14971 63.3053
8.19446 64.9021
8.23919 67.6361
8.28392 70.3745
8.32865 72.9905
8.37339 77.8819
8.41812 83.6271
8.46288 95.6335
8.50761 174.399
8.55235 611.412
8.59709 853.224
8.64183 1413.85
8.68658 1692.24
8.73134 450.409
8.77609 118.559
8.82083 97.3315
8.86558 90.8002
8.91033 87.2504
8.9551 84.6427
8.99985 83.3092
9.04461 82.5869
9.08936 81.4804
9.13412 81.0339
9.17888 80.698
9.22365 87.56
9.26841 100.366
9.31318 87.4299
9.35794 81.7071
9.4027 81.8043
9.44749 82.3156
9.49226 82.7665
9.53703 83.9133
9.5818 85.3597
9.62657 86.9125
9.67134 87.9995
9.71614 89.9729
9.76091 92.1767
9.80569 94.7953
9.85047 98.0455
9.89525 103.875
9.94005 113.798
9.98484 187.257
10.0296 553.38
10.0744 721.571
10.1192 967.987
10.164 1620.15
10.2088 1028.81
10.2536 225.762
10.2984 116.806
10.3432 107.695
10.388 103.815
10.4328 121.004
10.4776 216.277
10.5224 256.87
10.5672 314.728
10.612 473.5
10.6568 384.349
10.7017 140.341
10.7465 90.9826
10.7913 83.1222
10.8361 80.0607
10.8809 77.6967
10.9257 75.1548
10.9706 73.965
11.0154 72.5316
11.0602 70.6505
11.105 69.4925
11.1499 67.8312
11.1947 66.9869
11.2395 66.1182
11.2844 65.7976
11.3292 64.9672
11.374 64.1236
11.4189 63.8658
11.4637 62.7511
11.5086 62.2902
11.5534 61.8917
11.5983 61.6208
11.6431 61.7014
11.688 61.2076
11.7328 60.792
11.7777 61.0339
11.8225 60.7885
11.8674 60.992
11.9122 62.0518
11.9571 66.0728
12.002 65.5825
12.0468 67.7982
12.0917 90.7124
12.1366 107.402
12.1814 114.439
12.2263 144.298
12.2712 186.653
12.3161 142.702
12.3609 75.9443
12.4058 63.9427
12.4507 63.0597
12.4956 62.5828
12.5405 62.8644
12.5853 63.0393
12.6302 63.3051
12.6751 64.0086
12.72 64.7198
12.7649 65.8081
12.8098 66.6907
12.8547 67.5602
12.8996 69.217
12.9445 70.762
12.9894 72.3646
13.0343 74.3906
13.0792 78.7527
13.1242 86.2307
13.1691 133.071
13.214 188.087
13.2589 199.424
13.3038 233.763
13.3487 334.925
13.3937 383.763
13.4386 220.372
13.4835 121.723
13.5285 155.158
13.5734 181.798
13.6183 186.346
13.6633 226.203
13.7082 320.299
13.7531 309.635
13.7981 160.262
13.843 88.3954
13.888 80.0718
13.9329 77.1812
13.9779 75.5743
14.0228 74.1191
14.0678 72.4819
14.1127 72.2963
14.1577 74.504
14.2027 72.6158
14.2476 70.1927
14.2926 68.7542
14.3376 68.6525
14.3825 68.218
14.4275 67.6181
14.4725 67.4536
14.5175 67.8529
14.5624 67.6155
14.6074 67.9648
14.6524 68.5489
14.6974 69.2013
14.7424 70.8074
14.7874 80.3649
14.8324 107.318
14.8774 120.389
14.9224 123.363
14.9674 142.065
15.0124 185.392
15.0574 206.329
15.1024 143.799
15.1474 83.6251
15.1924 70.7896
15.2374 68.4782
15.2824 67.3632
15.3274 66.5513
15.3725 65.9624
15.4175 65.5988
15.4625 65.1355
15.5076 64.8108
15.5526 64.9674
15.5976 65.2834
15.6426 66.0513
15.6877 73.2019
15.7327 95.0883
15.7778 106.919
15.8228 108.403
15.8679 119.701
15.9129 148.918
15.958 184.451
16.003 156.308
16.0481 91.5828
16.0931 66.5901
16.1382 61.7738
16.1833 59.8984
16.2283 58.3538
16.2734 57.7635
16.3185 56.9178
16.3636 56.2146
16.4086 55.3939
16.4537 55.1159
16.4988 54.6869
16.5439 54.5401
16.589 54.158
16.6341 53.893
16.6792 53.6334
16.7243 53.9273
16.7694 53.8164
16.8145 53.6966
16.8596 53.8562
16.9047 54.2481
16.9498 54.7162
16.9949 54.615
17.04 55.019
17.0851 56.3529
17.1302 60.6639
17.1754 64.2034
17.2205 64.4887
17.2656 65.6692
17.3108 70.8232
17.3559 78.0259
17.401 80.979
17.4462 71.9256
17.4913 61.5739
17.5365 58.6985
17.5815 58.6565
17.6268 58.632
17.6718 59.2859
17.7171 59.8313
17.7622 60.924
17.8074 61.7499
17.8525 63.4129
17.8977 71.5511
17.9428 83.7547
17.9881 88.0222
18.0331 89.5126
18.0784 95.1197
18.1237 111.414
18.1688 138.117
18.214 143.878
18.2591 113.039
18.3044 87.9687
18.3495 85.0446
18.3948 92.7064
18.4399 101.92
18.4852 95.7481
18.5303 77.1518
18.5756 65.0966
18.6207 61.9386
18.666 60.5424
18.7112 59.6403
18.7565 58.8558
18.8016 58.373
18.8469 57.8639
18.892 57.436
18.9374 57.044
18.9825 56.8014
19.0278 56.2552
19.073 56.3259
19.1183 56.8261
19.1635 59.208
19.2088 61.4277
19.254 61.8234
19.2993 62.2703
19.3447 64.4343
19.3898 67.8198
19.4352 73.0397
19.4804 72.4702
19.5257 64.1484
19.5709 56.3006
19.6163 53.8071
19.6615 53.5003
19.7068 52.8785
19.752 53.0607
19.7974 53.2758
19.8426 54.4853
19.888 56.4657
19.9332 57.9117
19.9786 58.1397
20.0238 58.283
20.0692 61.0983
20.1144 65.9183
20.1598 71.5462
20.205 70.9201
20.2504 65.3342
20.2957 60.6241
20.3411 60.7619
20.3863 63.7201
20.4318 64.3947
20.477 59.2467
20.5224 53.0986
20.5677 50.6682
20.6131 50.0117
20.6586 49.5732
20.7038 49.2583
20.7493 48.9495
20.7945 48.8913
20.84 48.784
20.8853 48.6828
20.9307 48.3787
20.976 48.5665
21.0215 48.6752
21.0668 49.1029
21.1122 49.2137
21.1575 49.1655
21.203 49.2301
21.2483 49.9008
21.2938 50.9463
21.3391 51.0962
21.3846 50.1691
21.4299 48.9801
21.4754 48.3174
21.5207 48.4661
21.5662 48.6528
21.6116 49.1458
21.6571 51.0569
21.7024 52.879
21.7479 53.8575
21.7933 53.9261
21.8388 55.0542
21.8843 57.6873
21.9297 61.1182
21.9752 65.0863
22.0206 65.6326
22.0661 60.7239
22.1115 56.1191
22.157 55.069
22.2024 56.0307
22.248 54.8541
22.2933 52.4172
22.3389 49.9555
22.3843 48.9249
22.4299 48.5831
22.4753 48.4752
22.5208 48.5353
22.5662 48.4637
22.6118 48.6704
22.6572 48.8608
22.7028 50.0837
22.7483 51.2251
22.7939 51.4932
22.8393 51.773
22.8849 52.1318
22.9303 52.8982
22.9759 54.3047
23.0214 56.448
23.067 57.9328
23.1126 56.0142
23.1581 52.3165
23.2037 49.6311
23.2492 48.9992
23.2948 49.4277
23.3403 50.745
23.3859 51.6311
23.4314 51.5731
23.477 51.2414
23.5225 51.8227
23.5682 52.9147
23.6137 55.0786
23.6593 57.2194
23.7048 57.2712
23.7505 53.4994
23.796 49.3344
23.8417 46.7222
23.8872 45.748
23.9329 45.5389
23.9784 44.9054
24.0241 44.618
24.0697 44.4394
24.1154 44.0791
24.1609 43.9077
24.2066 43.6366
24.2522 43.575
24.2979 43.5087
24.3434 43.2633
24.3892 43.0021
24.4349 42.9224
24.4805 42.8332
24.5262 42.8213
24.5718 42.6424
24.6175 42.6543
24.6631 42.8856
24.7089 42.4737
24.7545 42.5028
24.8002 42.1805
24.8458 42.3175
24.8916 42.2377
24.9372 42.3272
24.983 42.5635
25.0286 42.759
25.0744 43.2287
25.12 43.5507
25.1658 43.9207
25.2114 44.199
25.2572 44.6689
25.3029 44.6738
25.3487 44.4334
25.3943 44.5404
25.4402 44.7627
25.4858 44.4361
25.5316 42.957
25.5773 41.6417
25.6231 41.1639
25.669 40.5463
25.7147 40.6995
25.7605 40.3611
25.8062 40.6493
25.8521 40.8064
25.8977 40.817
25.9436 40.7857
25.9893 40.6982
26.0352 40.9662
26.0809 40.9851
26.1268 41.3613
26.1725 41.6862
26.2184 41.726
26.2641 41.3219
26.31 40.8213
26.3557 40.6143
26.4017 40.473
26.4474 40.7367
26.4933 40.5815
26.5391 40.9259
26.585 41.2247
26.6308 41.2887
26.6767 41.7968
26.7225 42.3543
26.7684 42.4401
26.8142 42.073
26.8601 41.0378
26.9059 40.6836
26.9519 40.2387
26.9979 39.9555
27.0437 39.2679
27.0896 38.9283
27.1354 38.8869
27.1814 38.7127
27.2272 38.7321
27.2732 38.5729
27.3191 38.4009
27.3651 38.4866
27.4109 38.2683
27.4569 38.4154
27.5027 38.449
27.5488 38.5062
27.5946 38.4053
27.6407 38.5823
27.6865 38.6454
27.7326 38.3674
27.7784 38.39
27.8245 38.1054
27.8703 38.0634
27.9164 38.3901
27.9623 38.2791
28.0084 38.4359
28.0543 38.618
28.1003 38.8963
28.1462 39.0629
28.1923 39.1307
28.2384 38.694
28.2843 38.1961
28.3304 37.9397
28.3764 37.3962
28.4225 37.0104
28.4684 36.5271
28.5145 36.0644
28.5605 35.8659
28.6066 35.869
28.6526 35.8577
28.6987 35.6746
28.7447 35.5232
28.7908 35.3536
28.8368 35.3741
28.8829 35.3217
28.9289 35.26
28.9751 35.1863
29.0211 35.1198
29.0673 35.0181
29.1133 34.8151
29.1595 34.5523
29.2055 34.3998
29.2517 34.2848
29.2977 34.232
29.3439 34.1608
29.3899 34.0968
29.4361 34.0823
29.4824 34.0119
29.5284 34.0408
29.5746 33.7514
29.6207 33.4402
29.6669 33.1155
29.713 32.993
29.7593 32.7922
29.8053 32.8471
29.8516 32.8104
29.8977 32.8205
29.9439 32.6403
29.99 32.5589
30.0363 32.4317
30.0824 32.5264
30.1287 32.2481
30.1748 32.3328
30.2211 32.4392
30.2673 32.2853
30.3136 32.4634
30.3597 32.3084
30.406 32.4629
30.4522 32.1127
30.4985 32.1359
30.5447 32.0116
30.591 32.0241
30.6372 32.0311
30.6835 32.0336
30.7297 32.1067
30.7761 32.2615
30.8224 32.1869
30.8686 32.1835
30.915 31.923
30.9612 31.7886
31.0076 31.5854
31.0538 31.3993
31.1002 31.2849
31.1464 31.0804
31.1928 30.9952
31.2391 31.1228
31.2855 30.8806
31.3317 30.8014
31.3781 30.892
31.4244 30.9852
31.4708 30.7698
31.5171 30.7641
31.5636 30.7695
31.6098 30.8458
31.6563 30.6751
31.7026 30.5715
31.7491 30.3305
31.7953 30.2468
31.8418 30.1477
31.8881 30.1278
31.9346 30.0367
31.9809 30.055
32.0275 30.0315
32.074 29.8195
32.1203 29.7544
32.1668 29.7169
32.2132 29.5673
32.2597 29.3796
32.306 29.3685
32.3526 29.1068
32.399 29.0469
32.4455 28.8704
32.4919 28.6583
32.5385 28.6962
32.5848 28.5948
32.6314 28.5417
32.6778 28.4716
32.7244 28.359
32.7708 28.2807
32.8174 28.2675
32.8638 28.0604
32.9104 28.1355
32.9569 28.1612
33.0035 27.8381
33.0499 27.9218
33.0966 27.8043
33.143 27.7669
33.1897 27.6782
33.2361 27.6515
33.2828 27.6595
33.3293 27.5401
33.3759 27.5285
33.4226 27.4346
33.4691 27.2596
33.5158 27.1944
33.5623 26.9624
33.609 26.795
33.6555 26.7324
33.7022 26.6
33.7487 26.5487
33.7954 26.4784
33.842 26.4299
33.8887 26.2715
33.9353 26.2654
33.982 26.2069
34.0286 26.1672
34.0753 26.083
34.1219 25.9242
34.1687 25.9095
34.2152 25.6991
34.262 25.6026
34.3086 25.559
34.3554 25.5988
34.402 25.4174
34.4488 25.2749
34.4954 25.2219
34.5422 25.2223
34.5889 25.0878
34.6357 24.9804
34.6825 24.9872
34.7292 24.8143
34.776 24.7352
34.8227 24.7636
34.8695 24.6289
34.9162 24.5837
34.9631 24.441
35.0098 24.4922
35.0566 24.4044
35.1033 24.3227
35.1502 24.2961
35.1969 24.2066
35.2438 24.1451
35.2906 24.1035
35.3375 24.052
35.3842 23.998
35.4311 23.9169
35.4779 23.907
35.5248 23.9472
35.5716 23.8082
35.6185 23.736
35.6653 23.6512
35.7123 23.5505
35.759 23.5283
35.806 23.3727
35.8528 23.2851
35.8998 23.2592
35.9468 23.0957
35.9936 23.1961
36.0406 23.0383
36.0874 22.9957
36.1345 23.0203
36.1813 22.8744
36.2283 22.7294
36.2752 22.6277
36.3222 22.6608
36.3691 22.602
36.4161 22.4636
36.463 22.4859
36.5101 22.3766
36.557 22.3752
36.6041 22.2118
36.651 22.2007
36.6981 22.1417
36.745 22.0833
36.7921 22.016
36.839 21.9495
36.8861 21.8292
36.9331 21.7856
36.9802 21.7522
37.0272 21.636
37.0743 21.5523
37.1213 21.4862
37.1684 21.4225
37.2154 21.3998
37.2626 21.3254
37.3098 21.1818
37.3568 21.1153
37.404 21.0799
37.451 20.9919
37.4982 20.9524
37.5452 20.8436
37.5924 20.7703
37.6395 20.912
37.6867 20.7915
37.7337 20.607
37.781 20.5529
37.8281 20.4868
37.8753 20.3969
37.9224 20.3049
37.9697 20.2731
38.0168 20.249
38.064 20.1831
38.1111 20.0404
38.1584 20.0411
38.2056 20.0165
38.2529 19.9315
38.3 19.8356
38.3473 19.8208
38.3945 19.6833
38.4418 19.6387
38.489 19.6007
38.5363 19.4837
38.5837 19.4648
38.6309 19.4357
38.6782 19.3295
38.7254 19.2605
38.7728 19.2398
38.82 19.0989
38.8674 19.1748
38.9146 19.1053
38.9621 18.9668
39.0093 18.9305
39.0567 18.8154
39.104 18.8181
39.1514 18.7166
39.1987 18.7248
39.2461 18.6794
39.2934 18.5251
39.3409 18.4191
39.3882 18.4471
39.4356 18.3704
39.483 18.3451
39.5304 18.3059
39.5778 18.1967
39.6253 18.1773
39.6726 18.0125
39.7201 18.0925
39.7675 17.9537
39.815 17.9054
39.8624 17.8274
39.9099 17.8102
39.9575 17.761
40.0049 17.7426
40.0525 17.6468
40.0999 17.6208
40.1474 17.5579
40.1949 17.3932
40.2425 17.3683
40.2899 17.3609
40.3375 17.2726
40.385 17.2668
40.4326 17.2395
40.48 17.1335
40.5277 17.1593
40.5752 17.013
40.6228 16.9619
40.6703 16.9693
40.718 16.8838
40.7655 16.8503
40.8132 16.7554
40.8607 16.7886
40.9084 16.7438
40.9559 16.6828
41.0036 16.566
41.0512 16.5287
41.0989 16.5112
41.1465 16.3882
41.1942 16.3443
41.242 16.2782
41.2896 16.2402
41.3373 16.181
41.3849 16.124
41.4327 16.0213
41.4803 16.0025
41.5281 15.9581
41.5758 15.8711
41.6236 15.7766
41.6712 15.8225
41.7191 15.7458
41.7667 15.7118
41.8146 15.7073
41.8622 15.5895
41.9101 15.5798
41.9578 15.4511
42.0057 15.3715
42.0534 15.365
42.1013 15.359
42.149 15.2826
42.1969 15.2119
42.2446 15.1813
42.2925 15.1552
42.3403 15.0918
42.3882 15.0007
42.436 15.0132
42.4839 14.9149
42.5319 14.9239
42.5797 14.8452
42.6277 14.7752
42.6755 14.8015
42.7235 14.6444
42.7713 14.664
42.8193 14.6264
42.8671 14.513
42.9152 14.5345
42.963 14.4399
43.0111 14.3974
43.0589 14.3468
43.107 14.2629
43.1549 14.1911
43.2029 14.1309
43.2508 14.1188
43.2989 14.0981
43.3468 14.0074
43.3949 14.0231
43.4429 13.9782
43.491 13.8859
43.5389 13.8104
43.5871 13.7851
43.635 13.7684
43.6832 13.7272
43.7312 13.6277
43.7793 13.609
43.8273 13.5707
43.8755 13.5047
43.9237 13.4862
43.9717 13.4401
44.0199 13.3702
44.068 13.3241
44.1162 13.2541
44.1642 13.2291
44.2125 13.1852
44.2606 13.1685
44.3088 13.068
44.3569 13.0351
44.4052 13.0193
44.4533 12.9612
44.5016 12.9003
44.5497 12.8881
44.598 12.8014
44.6461 12.7061
44.6945 12.7373
44.7426 12.7288
44.791 12.645
44.8391 12.6386
44.8875 12.5248
44.9357 12.4946
44.984 12.48
45.0322 12.407
45.0806 12.3694
45.1288 12.2989
45.1773 12.3192
45.2257 12.2514
45.2739 12.185
45.3224 12.1607
45.3706 12.133
45.4191 12.0568
45.4673 11.998
45.5158 11.9714
45.5641 11.9181
45.6126 11.9109
45.6609 11.838
45.7094 11.7785
45.7577 11.7495
45.8063 11.7429
45.8546 11.7307
45.9031 11.6782
45.9515 11.591
46.0001 11.54
46.0484 11.5446
46.097 11.4978
46.1454 11.4653
46.194 11.3914
46.2424 11.3941
46.291 11.3381
46.3395 11.2875
46.3881 11.2109
46.4365 11.2156
46.4852 11.1598
46.5337 11.0821
46.5823 11.0808
46.631 11.0139
46.6795 10.9823
46.7282 10.9362
46.7767 10.9039
46.8254 10.8487
46.8739 10.8094
46.9226 10.7661
46.9712 10.7195
47.0199 10.7364
47.0685 10.6631
47.1173 10.6241
47.1658 10.5826
47.2146 10.5778
47.2632 10.5303
47.312 10.4729
47.3606 10.4395
47.4095 10.3467
47.4581 10.3449
47.5069 10.3305
47.5556 10.2683
47.6044 10.2152
47.6531 10.2009
47.702 10.1563
47.7507 10.125
47.7996 10.0663
47.8483 10.0812
47.8972 10.0351
47.9461 9.99864
47.9948 9.9237
48.0438 9.94041
48.0925 9.84044
48.1415 9.86557
48.1902 9.81532
48.2392 9.78766
48.288 9.76907
48.337 9.67648
48.3858 9.68358
48.4348 9.66395
48.4837 9.61202
48.5327 9.6165
48.5815 9.54319
48.6306 9.51798
48.6795 9.50134
48.7285 9.41375
48.7774 9.39657
48.8265 9.36199
48.8754 9.33506
48.9245 9.29314
48.9734 9.24443
49.0226 9.25775
49.0715 9.18889
49.1206 9.15393
49.1696 9.08951
49.2188 9.09548
49.2679 9.05576
49.3169 9.01093
49.3661 8.94563
49.4151 8.95472
49.4643 8.92247
49.5134 8.88122
49.5626 8.80267
49.6117 8.80833
49.6609 8.78714
49.71 8.74207
49.7592 8.68471
49.8083 8.67279
49.8576 8.65616
49.9067 8.61828
49.956 8.61177
50.0052 8.57031
50.0545 8.53273
50.1036 8.47053
50.153 8.45194
50.2022 8.42105
50.2515 8.35979
50.3007 8.32397
50.3501 8.2986
50.3993 8.28116
50.4487 8.26923
50.498 8.23599
50.5474 8.21037
50.5966 8.18705
50.6461 8.15241
50.6955 8.10338
50.7448 8.07513
50.7943 8.02372
50.8436 7.99318
50.8931 7.97687
50.9424 7.9831
50.9919 7.90536
51.0413 7.88375
51.0908 7.85391
51.1402 7.81202
51.1897 7.80613
51.2391 7.75673
51.2887 7.73458
51.3381 7.65095
51.3877 7.65317
51.4371 7.62727
51.4867 7.57195
51.5362 7.55597
51.5858 7.5388
51.6353 7.47455
51.6849 7.46572
51.7344 7.43426
51.7841 7.42654
51.8336 7.36485
51.8833 7.3715
51.9328 7.30029
51.9826 7.25542
52.0323 7.25189
52.0818 7.22701
52.1316 7.18855
52.1812 7.15773
52.231 7.12423
52.2806 7.06674
52.3304 7.06556
52.38 7.07708
52.4298 7.02165
52.4794 6.97699
52.5293 6.95205
52.5789 6.9416
52.6288 6.92634
52.6785 6.84286
52.7284 6.82819
52.7781 6.81642
52.828 6.78657
52.8777 6.80057
52.9276 6.72621
52.9774 6.69362
53.0273 6.68817
53.0771 6.62851
53.1271 6.59196
53.1769 6.60492
53.2269 6.58171
53.2767 6.52547
53.3267 6.49936
53.3765 6.48721
53.4266 6.47808
53.4766 6.39401
53.5265 6.39835
53.5765 6.3587
53.6264 6.3533
53.6765 6.3184
53.7264 6.25749
53.7765 6.22036
53.8265 6.24807
53.8766 6.20238
53.9266 6.18057
53.9767 6.13265
54.0267 6.15597
54.0769 6.10845
54.1269 6.05642
54.1771 5.96452
54.2271 5.97002
54.2773 5.936
54.3274 5.9439
54.3776 5.81385
54.4277 5.83824
54.478 5.80702
54.528 5.78904
54.5783 5.68086
54.6285 5.63713
54.6788 5.62043
54.7289 5.57108
54.7792 5.51359
54.8296 5.47288
54.8798 5.47232
54.9301 5.43022
54.9803 5.37366
55.0307 5.34457
55.0809 5.23937
55.1314 5.32618
55.1816 5.21596
55.232 5.18153
55.2823 5.10176
55.3328 5.04136
55.383 4.99442
55.4335 4.91947
55.4838 4.9374
55.5344 4.9018
55.5847 4.81569
55.6352 4.80005
55.6856 4.71789
55.7361 4.72757