File: XRD/Ni3Fe_FD0009.xy
TT I
1.27165 36.9727
1.31627 36.8728
1.36089 35.3134
1.40551 32.9498
1.45013 33.1579
1.49476 31.704
1.53938 30.3144
1.584 29.631
1.62863 28.8931
1.67325 27.9213
1.71787 27.4497
1.7625 26.2525
1.80712 26.6922
1.85174 26.916
1.89636 25.725
1.94099 25.8988
1.98562 26.1413
2.03025 25.0568
2.07487 25.4022
2.11949 26.051
2.16411 25.6499
2.20874 26.643
2.25338 26.7693
2.298 26.776
2.34263 25.9877
2.38725 26.3494
2.43188 26.5511
2.4765 25.772
2.52115 26.5428
2.56577 26.6676
2.6104 27.9656
2.65503 28.207
2.69965 30.4725
2.7443 31.5354
2.78893 33.888
2.83356 36.7315
2.87818 40.3825
2.92281 43.639
2.96744 49.6031
3.01209 57.5892
3.05672 66.2356
3.10135 77.5069
3.14599 83.6169
3.19062 86.1523
3.23527 80.6962
3.2799 70.5661
3.32454 60.028
3.36917 51.5363
3.4138 45.7293
3.45844 42.1119
3.50309 40.91
3.54773 39.8198
3.59237 40.2889
3.637 40.6948
3.68164 41.0609
3.7263 42.2772
3.77094 42.2246
3.81558 41.6698
3.86022 41.7168
3.90486 42.9564
3.9495 43.9737
3.99416 45.3212
4.0388 47.4793
4.08344 50.8274
4.12809 54.5639
4.17273 59.9329
4.21738 66.5237
4.26204 73.1064
4.30669 77.7833
4.35133 80.2655
4.39598 76.9407
4.44063 73.2835
4.4853 69.1117
4.52995 65.433
4.5746 61.1915
4.61925 58.935
4.6639 55.6599
4.70855 55.2187
4.75322 55.7173
4.79788 57.8153
4.84253 60.7183
4.88719 64.3067
4.93184 70.5182
4.97652 78.4843
5.02118 91.7041
5.06583 114.657
5.11049 136.847
5.15515 172.87
5.19981 252.672
5.24449 485.724
5.28916 998.975
5.33382 2603.4
5.37848 4094.1
5.42315 1528.36
5.46783 430.526
5.5125 231.975
5.55716 164.174
5.60183 129.408
5.6465 113.518
5.69117 106.001
5.73586 99.8951
5.78053 95.8634
5.8252 94.6632
5.86988 98.516
5.91455 107.233
5.95924 122.648
6.00392 158.908
6.0486 240.227
6.09328 403.126
6.13795 688.514
6.18263 1246.46
6.22733 908.06
6.27201 370.279
6.3167 185.078
6.36138 115.86
6.40606 86.8348
6.45075 74.1042
6.49545 65.0399
6.54014 59.8868
6.58483 56.4364
6.62952 54.9609
6.67421 53.6045
6.71892 53.4226
6.76361 52.7867
6.8083 52.3284
6.853 50.8445
6.89769 50.3979
6.94239 49.5594
6.98711 48.2178
7.03181 48.8158
7.07651 49.2041
7.12121 49.8654
7.16591 51.5512
7.21063 54.1775
7.25533 57.7382
7.30004 63.7448
7.34475 69.86
7.38945 72.2322
7.43416 68.0355
7.47889 63.7934
7.5236 64.5042
7.56831 91.0382
7.61303 168.763
7.65774 103.174
7.70247 52.8827
7.74719 44.6062
7.79191 41.346
7.83663 40.2356
7.88135 39.8202
7.92607 39.2981
7.97081 39.4632
8.01553 39.713
8.06026 40.1788
8.10498 40.6295
8.14971 41.7342
8.19446 42.6692
8.23919 44.151
8.28392 46.0479
8.32865 47.9009
8.37339 51.0893
8.41812 54.9191
8.46288 61.8853
8.50761 71.9812
8.55235 92.1579
8.59709 140.928
8.64183 197.041
8.68658 304.451
8.73134 623.754
8.77609 764.236
8.82083 375.908
8.86558 165.252
8.91033 105.267
8.9551 81.6252
8.99985 71.0865
9.04461 65.198
9.08936 61.0871
9.13412 58.8964
9.17888 58.7712
9.22365 64.4309
9.26841 100.321
9.31318 238.225
9.35794 207.088
9.4027 81.2365
9.44749 56.721
9.49226 51.7294
9.53703 50.1114
9.5818 49.3575
9.62657 49.4869
9.67134 49.5728
9.71614 50.7241
9.76091 51.9591
9.80569 53.3051
9.85047 55.624
9.89525 58.9538
9.94005 63.5136
9.98484 71.4931
10.0296 86.9433
10.0744 120.603
10.1192 167.017
10.164 210.319
10.2088 370.93
10.2536 733.263
10.2984 725.477
10.3432 344.099
10.388 157.562
10.4328 102.766
10.4776 84.2268
10.5224 81.7648
10.5672 88.3466
10.612 93.5485
10.6568 124.167
10.7017 228.424
10.7465 300.935
10.7913 196.328
10.8361 91.6769
10.8809 58.384
10.9257 49.1302
10.9706 45.6264
11.0154 43.4626
11.0602 42.5649
11.105 41.6703
11.1499 40.8321
11.1947 40.6012
11.2395 40.1192
11.2844 40.1612
11.3292 39.5978
11.374 39.5726
11.4189 38.9819
11.4637 38.6302
11.5086 38.1514
11.5534 37.6105
11.5983 37.4205
11.6431 37.6113
11.688 37.0586
11.7328 37.069
11.7777 36.9115
11.8225 36.9987
11.8674 37.4713
11.9122 38.9139
11.9571 43.019
12.002 63.6562
12.0468 95.8619
12.0917 77.3093
12.1366 49.8909
12.1814 45.931
12.2263 47.6846
12.2712 51.4753
12.3161 62.5291
12.3609 85.4999
12.4058 98.3474
12.4507 77.1406
12.4956 56.271
12.5405 46.3994
12.5853 42.5813
12.6302 40.4825
12.6751 39.2658
12.72 39.3173
12.7649 39.7931
12.8098 39.5925
12.8547 39.3674
12.8996 39.1785
12.9445 38.87
12.9894 39.3078
13.0343 39.4776
13.0792 41.0485
13.1242 43.6441
13.1691 52.4558
13.214 61.7473
13.2589 61.8822
13.3038 65.4188
13.3487 70.183
13.3937 82.1526
13.4386 118.058
13.4835 194.901
13.5285 230.843
13.5734 162.596
13.6183 104.41
13.6633 85.2726
13.7082 79.4033
13.7531 87.7547
13.7981 126.52
13.843 201.604
13.888 205.569
13.9329 122.417
13.9779 71.9644
14.0228 53.8002
14.0678 46.5183
14.1127 43.888
14.1577 44.7183
14.2027 56.1804
14.2476 83.8981
14.2926 85.0408
14.3376 54.1842
14.3825 40.6393
14.4275 37.8018
14.4725 36.7223
14.5175 36.3438
14.5624 35.7847
14.6074 35.7177
14.6524 35.7533
14.6974 35.8224
14.7424 36.3835
14.7874 36.8599
14.8324 38.0808
14.8774 40.447
14.9224 44.0354
14.9674 47.4824
15.0124 49.4266
15.0574 54.602
15.1024 68.4241
15.1474 101.073
15.1924 133.899
15.2374 117.002
15.2824 77.6686
15.3274 54.3526
15.3725 45.1224
15.4175 41.1684
15.4625 39.0868
15.5076 37.8476
15.5526 37.5517
15.5976 37.1355
15.6426 36.8495
15.6877 37.0212
15.7327 37.6578
15.7778 38.9492
15.8228 42.1474
15.8679 45.6313
15.9129 47.0391
15.958 50.0507
16.003 59.0796
16.0481 80.9085
16.0931 117.643
16.1382 135.987
16.1833 110.938
16.2283 73.9335
16.2734 50.5635
16.3185 41.4472
16.3636 37.2277
16.4086 34.9525
16.4537 33.5869
16.4988 32.6713
16.5439 32.361
16.589 31.7612
16.6341 31.1367
16.6792 31.0281
16.7243 30.731
16.7694 30.7486
16.8145 30.4316
16.8596 30.6766
16.9047 30.7671
16.9498 31.4854
16.9949 33.6214
17.04 38.1308
17.0851 40.0653
17.1302 35.8117
17.1754 32.5946
17.2205 32.2762
17.2656 32.8521
17.3108 33.3719
17.3559 33.586
17.401 34.3307
17.4462 36.9605
17.4913 42.414
17.5365 50.5679
17.5815 52.2255
17.6268 44.9594
17.6718 37.9526
17.7171 34.8383
17.7622 34.0519
17.8074 34.6092
17.8525 37.3676
17.8977 41.6343
17.9428 41.4215
17.9881 38.1801
18.0331 38.7409
18.0784 40.4891
18.1237 41.8801
18.1688 43.1037
18.214 46.7903
18.2591 56.091
18.3044 76.6782
18.3495 103.124
18.3948 107.069
18.4399 82.0353
18.4852 61.4738
18.5303 57.4814
18.5756 64.6655
18.6207 77.5422
18.666 76.7237
18.7112 62.0666
18.7565 47.6365
18.8016 39.9169
18.8469 36.1752
18.892 34.5735
18.9374 33.3749
18.9825 32.8806
19.0278 32.3377
19.073 32.1044
19.1183 31.7486
19.1635 31.7909
19.2088 32.108
19.254 32.5703
19.2993 33.4778
19.3447 34.6751
19.3898 36.9238
19.4352 43.031
19.4804 48.9067
19.5257 47.936
19.5709 45.4934
19.6163 49.0056
19.6615 50.8779
19.7068 45.1463
19.752 38.6036
19.7974 34.5136
19.8426 32.573
19.888 31.3956
19.9332 30.9518
19.9786 31.0986
20.0238 31.0821
20.0692 31.4911
20.1144 31.4864
20.1598 31.9426
20.205 32.8663
20.2504 35.1791
20.2957 39.1015
20.3411 45.01
20.3863 48.9558
20.4318 45.9978
20.477 40.8745
20.5224 39.3585
20.5677 42.8726
20.6131 46.4077
20.6586 43.942
20.7038 37.3623
20.7493 32.9701
20.7945 31.1235
20.84 30.8328
20.8853 32.0946
20.9307 34.0556
20.976 33.2699
21.0215 30.0696
21.0668 28.6072
21.1122 27.9695
21.1575 27.7597
21.203 27.691
21.2483 27.6594
21.2938 27.8323
21.3391 27.5951
21.3846 27.8585
21.4299 28.4341
21.4754 29.827
21.5207 31.8045
21.5662 32.7502
21.6116 31.7055
21.6571 30.357
21.7024 29.1786
21.7479 28.7144
21.7933 29.0309
21.8388 29.4992
21.8843 29.9199
21.9297 30.2268
21.9752 30.9109
22.0206 32.3498
22.0661 34.2063
22.1115 37.7145
22.157 43.7081
22.2024 50.6524
22.248 51.9277
22.2933 48.1955
22.3389 43.7853
22.3843 41.3195
22.4299 40.621
22.4753 38.4988
22.5208 34.9603
22.5662 31.9713
22.6118 30.3601
22.6572 29.625
22.7028 29.1358
22.7483 28.8958
22.7939 28.8271
22.8393 29.3371
22.8849 30.2478
22.9303 31.5144
22.9759 31.8764
23.0214 31.2151
23.067 30.7293
23.1126 31.1333
23.1581 32.6283
23.2037 35.9795
23.2492 41.3727
23.2948 44.9245
23.3403 42.8239
23.3859 37.2487
23.4314 33.4797
23.477 32.3954
23.5225 32.9081
23.5682 34.531
23.6137 35.1532
23.6593 33.6624
23.7048 32.4566
23.7505 32.9367
23.796 35.0106
23.8417 39.391
23.8872 45.3036
23.9329 47.4648
23.9784 42.8009
24.0241 35.922
24.0697 31.7432
24.1154 29.6793
24.1609 28.935
24.2066 28.5669
24.2522 28.0171
24.2979 27.0674
24.3434 26.393
24.3892 25.9574
24.4349 25.8775
24.4805 25.6522
24.5262 25.603
24.5718 25.4554
24.6175 25.4325
24.6631 25.5679
24.7089 25.7036
24.7545 26.4072
24.8002 27.3746
24.8458 27.6344
24.8916 27.1863
24.9372 26.4748
24.983 25.9541
25.0286 25.6367
25.0744 25.5018
25.12 25.3981
25.1658 25.5373
25.2114 25.4705
25.2572 25.8571
25.3029 26.3397
25.3487 26.9791
25.3943 27.8317
25.4402 29.0856
25.4858 30.396
25.5316 30.8173
25.5773 30.6971
25.6231 31.3858
25.669 32.6866
25.7147 33.4056
25.7605 31.7084
25.8062 28.9582
25.8521 27.259
25.8977 26.3483
25.9436 26.4193
25.9893 26.5754
26.0352 26.5461
26.0809 25.7644
26.1268 25.2428
26.1725 25.069
26.2184 25.0355
26.2641 25.1864
26.31 25.7031
26.3557 26.6563
26.4017 27.9373
26.4474 29.1442
26.4933 29.0781
26.5391 28.1818
26.585 26.9791
26.6308 26.247
26.6767 25.6128
26.7225 25.6405
26.7684 25.7177
26.8142 26.0707
26.8601 26.6032
26.9059 27.7938
26.9519 29.4433
26.9979 31.6178
27.0437 32.4402
27.0896 31.9343
27.1354 31.1093
27.1814 29.9474
27.2272 28.4643
27.2732 26.8481
27.3191 25.5995
27.3651 24.9766
27.4109 24.3618
27.4569 24.2295
27.5027 24.1215
27.5488 24.1253
27.5946 23.9994
27.6407 24.122
27.6865 24.3932
27.7326 24.3204
27.7784 24.4088
27.8245 24.6187
27.8703 25.2924
27.9164 25.8897
27.9623 25.6194
28.0084 25.2962
28.0543 24.8586
28.1003 24.8295
28.1462 25.2908
28.1923 25.9748
28.2384 26.275
28.2843 26.1697
28.3304 26.5394
28.3764 27.9237
28.4225 29.4705
28.4684 30.1907
28.5145 29.1974
28.5605 28.2787
28.6066 27.71
28.6526 27.2567
28.6987 26.3841
28.7447 25.2115
28.7908 24.0933
28.8368 23.4034
28.8829 22.9279
28.9289 22.6855
28.9751 22.4488
29.0211 22.3274
29.0673 22.121
29.1133 22.1425
29.1595 22.3167
29.2055 22.5772
29.2517 23.0185
29.2977 23.3753
29.3439 23.1713
29.3899 22.7005
29.4361 22.1137
29.4824 21.8366
29.5284 21.757
29.5746 21.6672
29.6207 21.6021
29.6669 21.8552
29.713 22.1416
29.7593 22.73
29.8053 23.0212
29.8516 22.9214
29.8977 22.346
29.9439 21.7228
29.99 21.2417
30.0363 20.9405
30.0824 20.9345
30.1287 20.913
30.1748 21.0267
30.2211 21.362
30.2673 21.388
30.3136 21.4058
30.3597 21.0132
30.406 20.8075
30.4522 20.7195
30.4985 20.7749
30.5447 21.0778
30.591 21.291
30.6372 21.5748
30.6835 21.4596
30.7297 21.2553
30.7761 21.0447
30.8224 20.9019
30.8686 20.891
30.915 20.9451
30.9612 21.211
31.0076 21.6189
31.0538 22.3873
31.1002 23.2145
31.1464 23.6633
31.1928 23.737
31.2391 23.302
31.2855 22.8321
31.3317 22.0987
31.3781 21.485
31.4244 20.9058
31.4708 20.5338
31.5171 20.444
31.5636 20.3142
31.6098 20.3805
31.6563 20.4278
31.7026 20.5371
31.7491 20.7541
31.7953 20.9717
31.8418 21.4019
31.8881 21.8235
31.9346 22.0628
31.9809 21.7229
32.0275 21.2222
32.074 20.6099
32.1203 20.3269
32.1668 20.3667
32.2132 20.5137
32.2597 20.6383
32.306 20.9277
32.3526 21.3163
32.399 21.4803
32.4455 21.4758
32.4919 20.9755
32.5385 20.6311
32.5848 20.2004
32.6314 19.8762
32.6778 19.5426
32.7244 19.1797
32.7708 18.9344
32.8174 18.7771
32.8638 18.619
32.9104 18.6331
32.9569 18.6142
33.0035 18.5543
33.0499 18.6109
33.0966 18.7993
33.143 18.8851
33.1897 18.8232
33.2361 18.5437
33.2828 18.4567
33.3293 18.3674
33.3759 18.3584
33.4226 18.2991
33.4691 18.4041
33.5158 18.696
33.5623 18.9728
33.609 19.1681
33.6555 19.295
33.7022 19.4343
33.7487 19.4267
33.7954 19.2863
33.842 18.8928
33.8887 18.3402
33.9353 18.0238
33.982 17.8392
34.0286 17.8172
34.0753 17.8053
34.1219 17.6512
34.1687 17.656
34.2152 17.5597
34.262 17.5301
34.3086 17.6907
34.3554 17.7837
34.402 17.6024
34.4488 17.4373
34.4954 17.2512
34.5422 17.2004
34.5889 17.0249
34.6357 16.9592
34.6825 16.9326
34.7292 16.9958
34.776 17.1651
34.8227 17.1302
34.8695 17.0211
34.9162 16.8112
34.9631 16.6276
35.0098 16.6035
35.0566 16.4825
35.1033 16.3025
35.1502 16.2942
35.1969 16.2018
35.2438 16.2709
35.2906 16.2802
35.3375 16.2473
35.3842 16.24
35.4311 16.2502
35.4779 16.2951
35.5248 16.2575
35.5716 16.2255
35.6185 16.1765
35.6653 16.2632
35.7123 16.3576
35.759 16.527
35.806 16.7164
35.8528 16.8419
35.8998 17.1075
35.9468 17.1833
35.9936 17.1896
36.0406 16.8773
36.0874 16.6463
36.1345 16.4793
36.1813 16.2064
36.2283 16.0073
36.2752 15.7433
36.3222 15.7693
36.3691 15.6999
36.4161 15.5241
36.463 15.6019
36.5101 15.7154
36.557 15.7424
36.6041 15.7175
36.651 15.8534
36.6981 15.7431
36.745 15.6546
36.7921 15.4343
36.839 15.268
36.8861 15.1948
36.9331 15.3096
36.9802 15.2689
37.0272 15.4071
37.0743 15.5
37.1213 15.452
37.1684 15.3349
37.2154 15.2044
37.2626 15.006
37.3098 14.9059
37.3568 14.7717
37.404 14.6662
37.451 14.5999
37.4982 14.6192
37.5452 14.5591
37.5924 14.4338
37.6395 14.4263
37.6867 14.407
37.7337 14.3679
37.781 14.3081
37.8281 14.2405
37.8753 14.1504
37.9224 14.1314
37.9697 14.0888
38.0168 14.0564
38.064 14.0945
38.1111 14.1439
38.1584 14.1946
38.2056 14.1196
38.2529 14.0821
38.3 13.9313
38.3473 13.9008
38.3945 13.6912
38.4418 13.6153
38.489 13.5653
38.5363 13.5533
38.5837 13.5133
38.6309 13.4995
38.6782 13.4625
38.7254 13.484
38.7728 13.5341
38.82 13.5575
38.8674 13.5197
38.9146 13.4503
38.9621 13.3343
39.0093 13.3052
39.0567 13.2869
39.104 13.2412
39.1514 13.3124
39.1987 13.3235
39.2461 13.2528
39.2934 13.2316
39.3409 13.013
39.3882 12.9168
39.4356 12.8125
39.483 12.7841
39.5304 12.7121
39.5778 12.7224
39.6253 12.6311
39.6726 12.6446
39.7201 12.6171
39.7675 12.4906
39.815 12.5208
39.8624 12.536
39.9099 12.5025
39.9575 12.4208
40.0049 12.3972
40.0525 12.3695
40.0999 12.3256
40.1474 12.3091
40.1949 12.2637
40.2425 12.3688
40.2899 12.392
40.3375 12.4295
40.385 12.352
40.4326 12.3115
40.48 12.2185
40.5277 12.1634
40.5752 12.1431
40.6228 12.0326
40.6703 12.0466
40.718 11.9751
40.7655 11.9774
40.8132 11.9271
40.8607 11.9134
40.9084 11.8653
40.9559 11.8073
41.0036 11.7501
41.0512 11.7294
41.0989 11.7683
41.1465 11.7746
41.1942 11.7009
41.242 11.7766
41.2896 11.7483
41.3373 11.6694
41.3849 11.6532
41.4327 11.5677
41.4803 11.4794
41.5281 11.4081
41.5758 11.2934
41.6236 11.3038
41.6712 11.2154
41.7191 11.1948
41.7667 11.1814
41.8146 11.1692
41.8622 11.1048
41.9101 11.1206
41.9578 11.0393
42.0057 11.0094
42.0534 10.9699
42.1013 10.9794
42.149 10.9257
42.1969 11.0007
42.2446 11.0042
42.2925 10.9623
42.3403 10.9759
42.3882 10.9238
42.436 10.811
42.4839 10.6714
42.5319 10.7031
42.5797 10.6203
42.6277 10.5623
42.6755 10.519
42.7235 10.4458
42.7713 10.43
42.8193 10.4466
42.8671 10.3517
42.9152 10.3966
42.963 10.3004
43.0111 10.2776
43.0589 10.2244
43.107 10.131
43.1549 10.125
43.2029 10.1006
43.2508 10.0813
43.2989 10.0211
43.3468 9.99941
43.3949 9.93885
43.4429 9.92037
43.491 9.87359
43.5389 9.85092
43.5871 9.81913
43.635 9.75302
43.6832 9.7643
43.7312 9.72009
43.7793 9.66161
43.8273 9.66781
43.8755 9.5858
43.9237 9.62775
43.9717 9.55038
44.0199 9.53887
44.068 9.50874
44.1162 9.53368
44.1642 9.52031
44.2125 9.47147
44.2606 9.47498
44.3088 9.45567
44.3569 9.4335
44.4052 9.37476
44.4533 9.3247
44.5016 9.26165
44.5497 9.24183
44.598 9.19418
44.6461 9.2139
44.6945 9.16913
44.7426 9.14848
44.791 9.13135
44.8391 9.08735
44.8875 9.08929
44.9357 9.02895
44.984 8.98552
45.0322 8.95648
45.0806 8.94979
45.1288 8.9621
45.1773 8.95091
45.2257 8.82907
45.2739 8.82849
45.3224 8.8094
45.3706 8.75289
45.4191 8.70955
45.4673 8.70075
45.5158 8.64367
45.5641 8.63865
45.6126 8.56645
45.6609 8.56937
45.7094 8.52864
45.7577 8.52946
45.8063 8.47071
45.8546 8.47093
45.9031 8.43985
45.9515 8.40585
46.0001 8.36963
46.0484 8.4093
46.097 8.33465
46.1454 8.33976
46.194 8.32252
46.2424 8.26042
46.291 8.2182
46.3395 8.20529
46.3881 8.10748
46.4365 8.15065
46.4852 8.13224
46.5337 8.05183
46.5823 8.06265
46.631 8.02047
46.6795 7.96746
46.7282 7.95722
46.7767 7.92747
46.8254 7.90384
46.8739 7.87865
46.9226 7.88492
46.9712 7.80185
47.0199 7.79916
47.0685 7.74343
47.1173 7.70798
47.1658 7.67156
47.2146 7.69893
47.2632 7.64951
47.312 7.6089
47.3606 7.5853
47.4095 7.55935
47.4581 7.51752
47.5069 7.51199
47.5556 7.49389
47.6044 7.44199
47.6531 7.45738
47.702 7.38307
47.7507 7.36109
47.7996 7.32299
47.8483 7.33654
47.8972 7.33312
47.9461 7.27616
47.9948 7.25175
48.0438 7.20091
48.0925 7.24313
48.1415 7.14471
48.1902 7.13434
48.2392 7.12763
48.288 7.11965
48.337 7.04551
48.3858 7.04722
48.4348 6.99145
48.4837 6.98516
48.5327 6.97485
48.5815 6.93343
48.6306 6.90985
48.6795 6.85582
48.7285 6.84538
48.7774 6.80952
48.8265 6.81941
48.8754 6.77417
48.9245 6.7612
48.9734 6.74758
49.0226 6.72546
49.0715 6.67099
49.1206 6.6954
49.1696 6.63286
49.2188 6.59585
49.2679 6.59301
49.3169 6.54035
49.3661 6.54063
49.4151 6.53006
49.4643 6.51672
49.5134 6.49085
49.5626 6.42483
49.6117 6.4452
49.6609 6.47248
49.71 6.40192
49.7592 6.3967
49.8083 6.35947
49.8576 6.36878
49.9067 6.30365
49.956 6.30489
50.0052 6.244
50.0545 6.24345
50.1036 6.24595
50.153 6.21017
50.2022 6.17608
50.2515 6.14948
50.3007 6.12906
50.3501 6.10459
50.3993 6.11137
50.4487 6.05209
50.498 6.06341
50.5474 6.02135
50.5966 6.00458
50.6461 5.99185
50.6955 5.9925
50.7448 5.94288
50.7943 5.90023
50.8436 5.86393
50.8931 5.87694
50.9424 5.84654
50.9919 5.79361
51.0413 5.81427
51.0908 5.83099
51.1402 5.78416
51.1897 5.7484
51.2391 5.73995
51.2887 5.67792
51.3381 5.64496
51.3877 5.64399
51.4371 5.63321
51.4867 5.59608
51.5362 5.55749
51.5858 5.5737
51.6353 5.52846
51.6849 5.5082
51.7344 5.51242
51.7841 5.52346
51.8336 5.44923
51.8833 5.43227
51.9328 5.42578
51.9826 5.37423
52.0323 5.37158
52.0818 5.30948
52.1316 5.31358
52.1812 5.31451
52.231 5.26509
52.2806 5.2369
52.3304 5.22026
52.38 5.2399
52.4298 5.22886
52.4794 5.15936
52.5293 5.15419
52.5789 5.16521
52.6288 5.08988
52.6785 5.05858
52.7284 5.06818
52.7781 5.06876
52.828 5.02472
52.8777 5.02545
52.9276 5.02604
52.9774 4.96902
53.0273 4.99294
53.0771 4.9397
53.1271 4.94163
53.1769 4.88697
53.2269 4.87682
53.2767 4.88264
53.3267 4.83621
53.3765 4.8255
53.4266 4.78013
53.4766 4.76428
53.5265 4.70606
53.5765 4.75833
53.6264 4.7067
53.6765 4.67431
53.7264 4.68291
53.7765 4.67326
53.8265 4.57945
53.8766 4.60784
53.9266 4.58724
53.9767 4.57006
54.0267 4.5519
54.0769 4.52291
54.1269 4.49602
54.1771 4.46319
54.2271 4.42214
54.2773 4.388
54.3274 4.37937
54.3776 4.34723
54.4277 4.32559
54.478 4.30401
54.528 4.25602
54.5783 4.23667
54.6285 4.21817
54.6788 4.13523
54.7289 4.14704
54.7792 4.11525
54.8296 4.04808
54.8798 4.02955
54.9301 4.02396
54.9803 3.99363
55.0307 3.99083
55.0809 3.99381
55.1314 3.92165
55.1816 3.83063
55.232 3.79069
55.2823 3.77059
55.3328 3.73658
55.383 3.70664
55.4335 3.64424
55.4838 3.65114
55.5344 3.59819
55.5847 3.5563
55.6352 3.58851
55.6856 3.57581
55.7361 3.55322