File: XRD/Ni3Fe_FD0844.xy
TT I
1.27165 7.62034
1.31627 6.50861
1.36089 6.73513
1.40551 6.01703
1.45013 6.04026
1.49476 6.03602
1.53938 5.64218
1.584 5.63575
1.62863 5.39152
1.67325 5.27814
1.71787 5.05194
1.7625 5.1055
1.80712 5.6503
1.85174 4.64922
1.89636 4.96383
1.94099 5.01952
1.98562 4.86914
2.03025 4.52334
2.07487 4.34929
2.11949 4.92815
2.16411 5.20939
2.20874 12.7648
2.25338 19.2962
2.298 6.38816
2.34263 5.91608
2.38725 6.46456
2.43188 6.63124
2.4765 6.77013
2.52115 6.89891
2.56577 8.03252
2.6104 8.67816
2.65503 7.57585
2.69965 8.42054
2.7443 8.39274
2.78893 8.45576
2.83356 8.44023
2.87818 9.03627
2.92281 8.66182
2.96744 9.91719
3.01209 10.6564
3.05672 11.7081
3.10135 12.7916
3.14599 13.2911
3.19062 14.4961
3.23527 15.1465
3.2799 15.8671
3.32454 16.7381
3.36917 17.8241
3.4138 18.7721
3.45844 19.8237
3.50309 21.0551
3.54773 21.5736
3.59237 23.77
3.637 81.0098
3.68164 52.8669
3.7263 25.8789
3.77094 26.092
3.81558 26.8293
3.86022 27.5597
3.90486 28.8931
3.9495 29.7696
3.99416 30.3824
4.0388 32.2113
4.08344 33.4578
4.12809 34.4498
4.17273 36.8265
4.21738 42.2123
4.26204 215.995
4.30669 184.327
4.35133 47.2836
4.39598 44.1996
4.44063 52.0888
4.4853 61.9303
4.52995 50.2927
4.5746 50.8734
4.61925 52.9375
4.6639 54.8009
4.70855 57.5085
4.75322 60.2275
4.79788 63.5133
4.84253 66.2589
4.88719 70.8807
4.93184 74.1108
4.97652 79.4804
5.02118 85.5309
5.06583 92.7621
5.11049 102.596
5.15515 160.21
5.19981 311.838
5.24449 2618.98
5.28916 12312.0
5.33382 2679.54
5.37848 176.996
5.42315 125.087
5.46783 111.599
5.5125 104.573
5.55716 100.9
5.60183 96.5578
5.6465 95.468
5.69117 93.1069
5.73586 90.9962
5.78053 90.5688
5.8252 89.8834
5.86988 90.723
5.91455 92.3728
5.95924 98.2935
6.00392 186.979
6.0486 895.6
6.09328 4385.5
6.13795 3140.48
6.18263 227.087
6.22733 90.2662
6.27201 81.1638
6.3167 96.5733
6.36138 77.95
6.40606 67.887
6.45075 66.538
6.49545 64.525
6.54014 63.2176
6.58483 61.9864
6.62952 62.0792
6.67421 88.27
6.71892 126.648
6.76361 66.3175
6.8083 58.006
6.853 56.8263
6.89769 56.3209
6.94239 56.1303
6.98711 55.4053
7.03181 54.5182
7.07651 55.1088
7.12121 54.6595
7.16591 54.7342
7.21063 54.963
7.25533 67.8138
7.30004 155.116
7.34475 83.6968
7.38945 55.4764
7.43416 53.792
7.47889 53.6325
7.5236 54.2193
7.56831 54.5477
7.61303 56.4109
7.65774 56.3774
7.70247 55.6943
7.74719 55.5826
7.79191 55.8192
7.83663 56.4303
7.88135 57.2971
7.92607 58.2079
7.97081 59.2507
8.01553 59.8913
8.06026 61.4085
8.10498 63.1566
8.14971 71.3791
8.19446 70.3328
8.23919 68.4192
8.28392 70.5359
8.32865 73.1944
8.37339 77.3358
8.41812 83.6391
8.46288 107.873
8.50761 151.4
8.55235 356.876
8.59709 1172.68
8.64183 2188.05
8.68658 936.481
8.73134 160.057
8.77609 97.6468
8.82083 91.159
8.86558 88.6531
8.91033 88.8789
8.9551 89.5196
8.99985 84.0778
9.04461 82.6229
9.08936 81.7999
9.13412 81.0756
9.17888 80.8683
9.22365 81.6626
9.26841 81.228
9.31318 81.8433
9.35794 82.2765
9.4027 81.7859
9.44749 83.0325
9.49226 83.144
9.53703 84.8859
9.5818 85.9363
9.62657 91.0482
9.67134 96.2148
9.71614 92.3495
9.76091 93.0712
9.80569 95.4315
9.85047 98.5975
9.89525 118.574
9.94005 128.684
9.98484 163.297
10.0296 320.029
10.0744 800.946
10.1192 1775.73
10.164 1563.4
10.2088 403.482
10.2536 124.371
10.2984 110.607
10.3432 111.519
10.388 102.547
10.4328 113.989
10.4776 154.779
10.5224 282.784
10.5672 533.9
10.612 509.414
10.6568 202.055
10.7017 95.8986
10.7465 85.2669
10.7913 81.9938
10.8361 80.2508
10.8809 78.1918
10.9257 76.9193
10.9706 77.7146
11.0154 73.8229
11.0602 71.9068
11.105 71.0089
11.1499 74.6832
11.1947 79.8106
11.2395 72.7133
11.2844 68.9784
11.3292 66.3891
11.374 65.3703
11.4189 64.6109
11.4637 64.0594
11.5086 64.6389
11.5534 66.6541
11.5983 64.5626
11.6431 62.8454
11.688 62.2864
11.7328 62.1063
11.7777 62.0644
11.8225 61.4456
11.8674 61.4718
11.9122 61.9345
11.9571 61.9916
12.002 62.6893
12.0468 66.3045
12.0917 76.2702
12.1366 100.471
12.1814 156.348
12.2263 207.276
12.2712 169.592
12.3161 94.1139
12.3609 68.6944
12.4058 63.5509
12.4507 63.2379
12.4956 63.3074
12.5405 63.7217
12.5853 65.0673
12.6302 71.0563
12.6751 75.312
12.72 68.6954
12.7649 67.1345
12.8098 67.6131
12.8547 68.5715
12.8996 70.0727
12.9445 71.3749
12.9894 72.8699
13.0343 74.7083
13.0792 77.8608
13.1242 85.3462
13.1691 107.233
13.214 143.583
13.2589 239.663
13.3038 381.766
13.3487 412.045
13.3937 253.293
13.4386 121.472
13.4835 102.433
13.5285 116.188
13.5734 155.39
13.6183 250.859
13.6633 354.903
13.7082 329.753
13.7531 179.014
13.7981 96.0818
13.843 80.3769
13.888 78.4778
13.9329 76.0914
13.9779 74.8636
14.0228 73.4858
14.0678 72.0705
14.1127 71.7195
14.1577 71.5344
14.2027 70.4287
14.2476 69.7021
14.2926 69.7251
14.3376 70.4802
14.3825 69.2349
14.4275 67.8784
14.4725 67.9804
14.5175 67.9014
14.5624 67.9434
14.6074 69.9237
14.6524 70.3801
14.6974 69.6552
14.7424 70.6771
14.7874 76.5626
14.8324 86.0287
14.8774 108.579
14.9224 155.193
14.9674 213.303
15.0124 217.22
15.0574 146.724
15.1024 89.9401
15.1474 71.3092
15.1924 69.5623
15.2374 69.8419
15.2824 68.955
15.3274 67.2031
15.3725 66.0663
15.4175 65.6772
15.4625 65.2526
15.5076 65.3484
15.5526 65.4688
15.5976 64.9447
15.6426 65.6714
15.6877 70.3836
15.7327 77.4221
15.7778 92.7718
15.8228 126.117
15.8679 172.116
15.9129 190.982
15.958 150.998
16.003 94.0555
16.0481 67.2136
16.0931 63.3931
16.1382 61.5396
16.1833 59.9999
16.2283 58.1955
16.2734 57.5399
16.3185 57.7267
16.3636 58.2504
16.4086 56.7896
16.4537 55.3165
16.4988 54.5647
16.5439 54.8703
16.589 54.585
16.6341 54.0822
16.6792 53.739
16.7243 54.0137
16.7694 54.213
16.8145 54.0633
16.8596 54.4874
16.9047 55.7196
16.9498 55.9055
16.9949 54.8631
17.04 55.0226
17.0851 56.0695
17.1302 57.6752
17.1754 60.8843
17.2205 66.0177
17.2656 74.9251
17.3108 82.3913
17.3559 81.2218
17.401 69.7777
17.4462 61.3407
17.4913 58.4271
17.5365 58.4156
17.5815 58.4584
17.6268 58.8336
17.6718 59.5563
17.7171 59.9004
17.7622 60.6973
17.8074 61.0324
17.8525 63.0017
17.8977 66.8405
17.9428 72.0379
17.9881 81.2614
18.0331 99.7734
18.0784 122.391
18.1237 138.42
18.1688 127.11
18.214 101.493
18.2591 85.557
18.3044 90.4567
18.3495 100.269
18.3948 103.822
18.4399 93.2127
18.4852 75.8928
18.5303 65.0452
18.5756 61.4977
18.6207 60.4735
18.666 59.6651
18.7112 59.0891
18.7565 58.2269
18.8016 57.9686
18.8469 57.1947
18.892 57.035
18.9374 56.3382
18.9825 56.456
19.0278 56.2429
19.073 56.3181
19.1183 56.4532
19.1635 57.2468
19.2088 58.661
19.254 61.4378
19.2993 66.2325
19.3447 72.4708
19.3898 75.2947
19.4352 70.637
19.4804 62.152
19.5257 56.0708
19.5709 53.5409
19.6163 53.1905
19.6615 53.095
19.7068 52.6417
19.752 52.6265
19.7974 52.7927
19.8426 53.5607
19.888 54.2523
19.9332 55.4592
19.9786 58.1399
20.0238 62.0372
20.0692 67.0628
20.1144 69.3342
20.1598 67.4421
20.205 62.9861
20.2504 61.9093
20.2957 63.834
20.3411 65.16
20.3863 63.3709
20.4318 57.6392
20.477 53.0386
20.5224 50.9232
20.5677 50.2997
20.6131 49.7155
20.6586 49.157
20.7038 48.8077
20.7493 48.5334
20.7945 48.236
20.84 48.1443
20.8853 48.2087
20.9307 47.9354
20.976 48.0875
21.0215 48.1056
21.0668 48.4635
21.1122 49.1304
21.1575 49.6541
21.203 50.3524
21.2483 50.9082
21.2938 50.7595
21.3391 49.5536
21.3846 48.4289
21.4299 47.8969
21.4754 47.6313
21.5207 47.9275
21.5662 48.2743
21.6116 48.6064
21.6571 49.1333
21.7024 50.1322
21.7479 51.8545
21.7933 54.7287
21.8388 58.6656
21.8843 62.4217
21.9297 63.5968
21.9752 62.0181
22.0206 58.6071
22.0661 56.025
22.1115 55.6286
22.157 55.155
22.2024 53.4207
22.248 50.8126
22.2933 49.2499
22.3389 48.5908
22.3843 48.3123
22.4299 48.251
22.4753 48.4008
22.5208 47.9745
22.5662 48.0008
22.6118 48.2798
22.6572 48.2905
22.7028 48.5039
22.7483 48.9214
22.7939 49.7696
22.8393 51.3784
22.8849 53.753
22.9303 55.931
22.9759 57.1357
23.0214 56.4449
23.067 53.7194
23.1126 50.6011
23.1581 48.7018
23.2037 48.1563
23.2492 48.2401
23.2948 48.326
23.3403 48.4095
23.3859 49.1023
23.4314 50.1334
23.477 52.3222
23.5225 54.5357
23.5682 56.5095
23.6137 56.9629
23.6593 54.8107
23.7048 50.9729
23.7505 47.765
23.796 46.1396
23.8417 45.5464
23.8872 45.0771
23.9329 44.6721
23.9784 44.2784
24.0241 44.0896
24.0697 44.0762
24.1154 43.7283
24.1609 43.4775
24.2066 43.4053
24.2522 43.1946
24.2979 43.0649
24.3434 42.8827
24.3892 42.6696
24.4349 42.5471
24.4805 42.5127
24.5262 42.535
24.5718 42.3731
24.6175 42.4507
24.6631 42.3219
24.7089 42.148
24.7545 41.8905
24.8002 41.6915
24.8458 41.8599
24.8916 41.5578
24.9372 41.7218
24.983 41.9498
25.0286 42.4351
25.0744 42.9075
25.12 43.2886
25.1658 43.9229
25.2114 44.1654
25.2572 44.2653
25.3029 44.4183
25.3487 44.5612
25.3943 44.0288
25.4402 43.072
25.4858 41.9623
25.5316 41.0464
25.5773 40.5033
25.6231 40.4467
25.669 40.1346
25.7147 40.0258
25.7605 39.9746
25.8062 40.0447
25.8521 39.9316
25.8977 40.0211
25.9436 40.3657
25.9893 40.5816
26.0352 41.0249
26.0809 41.1623
26.1268 41.2721
26.1725 40.8405
26.2184 40.3781
26.2641 39.6967
26.31 39.7433
26.3557 39.5462
26.4017 39.7238
26.4474 40.0061
26.4933 40.2648
26.5391 40.8623
26.585 41.3414
26.6308 41.6104
26.6767 41.7319
26.7225 41.565
26.7684 41.0553
26.8142 40.4307
26.8601 40.0021
26.9059 39.6208
26.9519 39.0798
26.9979 38.6886
27.0437 38.3389
27.0896 38.4152
27.1354 38.2971
27.1814 38.2249
27.2272 38.062
27.2732 38.1109
27.3191 38.0478
27.3651 38.0158
27.4109 37.8971
27.4569 38.0313
27.5027 38.1516
27.5488 38.2309
27.5946 37.9595
27.6407 37.7663
27.6865 37.6287
27.7326 37.3678
27.7784 37.4447
27.8245 37.4156
27.8703 37.5591
27.9164 37.9603
27.9623 38.0522
28.0084 38.3294
28.0543 38.7854
28.1003 38.6831
28.1462 38.2821
28.1923 38.0111
28.2384 37.4751
28.2843 37.2754
28.3304 36.7747
28.3764 36.3386
28.4225 36.0403
28.4684 35.9735
28.5145 35.4599
28.5605 35.4717
28.6066 35.2922
28.6526 35.1398
28.6987 35.2813
28.7447 35.1173
28.7908 35.0341
28.8368 35.0879
28.8829 35.0653
28.9289 35.0326
28.9751 34.6841
29.0211 34.5892
29.0673 34.2088
29.1133 34.226
29.1595 33.9655
29.2055 33.9995
29.2517 33.9813
29.2977 33.9473
29.3439 33.8925
29.3899 33.895
29.4361 33.7582
29.4824 33.5618
29.5284 33.3307
29.5746 33.0931
29.6207 32.789
29.6669 32.7064
29.713 32.6551
29.7593 32.5079
29.8053 32.5273
29.8516 32.3787
29.8977 32.4613
29.9439 32.2977
29.99 32.2376
30.0363 32.2236
30.0824 32.0872
30.1287 32.1546
30.1748 32.0522
30.2211 32.0856
30.2673 31.9891
30.3136 32.1251
30.3597 31.9446
30.406 31.8245
30.4522 31.6788
30.4985 31.6623
30.5447 31.8312
30.591 31.761
30.6372 31.8152
30.6835 31.9148
30.7297 31.7398
30.7761 31.8489
30.8224 31.6481
30.8686 31.5183
30.915 31.2748
30.9612 31.1807
31.0076 30.902
31.0538 30.8544
31.1002 30.7315
31.1464 30.6186
31.1928 30.6371
31.2391 30.7006
31.2855 30.5476
31.3317 30.5546
31.3781 30.6163
31.4244 30.6014
31.4708 30.4058
31.5171 30.5481
31.5636 30.438
31.6098 30.1477
31.6563 29.9544
31.7026 29.9837
31.7491 29.7235
31.7953 29.9097
31.8418 29.7934
31.8881 29.891
31.9346 29.7094
31.9809 29.729
32.0275 29.6093
32.074 29.3572
32.1203 29.3283
32.1668 29.2253
32.2132 29.0689
32.2597 28.8566
32.306 28.8743
32.3526 28.5738
32.399 28.6382
32.4455 28.4489
32.4919 28.3068
32.5385 28.318
32.5848 28.1087
32.6314 28.2549
32.6778 28.1426
32.7244 27.9657
32.7708 27.8989
32.8174 27.9235
32.8638 27.7258
32.9104 27.7708
32.9569 27.693
33.0035 27.5316
33.0499 27.5833
33.0966 27.4329
33.143 27.5563
33.1897 27.3968
33.2361 27.3184
33.2828 27.2979
33.3293 27.0269
33.3759 27.1301
33.4226 26.9519
33.4691 26.8097
33.5158 26.6816
33.5623 26.6941
33.609 26.4799
33.6555 26.336
33.7022 26.2913
33.7487 26.2438
33.7954 26.1339
33.842 26.0963
33.8887 25.9705
33.9353 25.9041
33.982 25.8189
34.0286 25.7304
34.0753 25.7256
34.1219 25.5759
34.1687 25.5546
34.2152 25.5214
34.262 25.3721
34.3086 25.3595
34.3554 25.2145
34.402 25.0945
34.4488 25.0221
34.4954 24.9829
34.5422 24.8335
34.5889 24.7579
34.6357 24.6419
34.6825 24.6632
34.7292 24.5868
34.776 24.4328
34.8227 24.438
34.8695 24.3751
34.9162 24.2916
34.9631 24.2206
35.0098 24.2995
35.0566 24.0591
35.1033 24.0191
35.1502 23.9899
35.1969 23.924
35.2438 23.9255
35.2906 23.7926
35.3375 23.7923
35.3842 23.7304
35.4311 23.7269
35.4779 23.7533
35.5248 23.5819
35.5716 23.5095
35.6185 23.3738
35.6653 23.3909
35.7123 23.2592
35.759 23.2193
35.806 23.096
35.8528 22.9329
35.8998 23.0181
35.9468 22.8224
35.9936 22.8499
36.0406 22.7654
36.0874 22.7127
36.1345 22.5646
36.1813 22.5395
36.2283 22.4282
36.2752 22.3985
36.3222 22.4338
36.3691 22.2944
36.4161 22.1774
36.463 22.1744
36.5101 22.1666
36.557 22.1119
36.6041 21.8783
36.651 21.8957
36.6981 21.9236
36.745 21.8567
36.7921 21.7393
36.839 21.6011
36.8861 21.5348
36.9331 21.5253
36.9802 21.4539
37.0272 21.3641
37.0743 21.2801
37.1213 21.2227
37.1684 21.1604
37.2154 21.0913
37.2626 20.9756
37.3098 20.9066
37.3568 20.8567
37.404 20.8695
37.451 20.7332
37.4982 20.7419
37.5452 20.6274
37.5924 20.6091
37.6395 20.598
37.6867 20.486
37.7337 20.3404
37.781 20.2682
37.8281 20.2624
37.8753 20.1303
37.9224 20.119
37.9697 20.0236
38.0168 19.9753
38.064 19.8663
38.1111 19.8371
38.1584 19.8171
38.2056 19.6942
38.2529 19.7156
38.3 19.6237
38.3473 19.5741
38.3945 19.4992
38.4418 19.4669
38.489 19.4088
38.5363 19.2899
38.5837 19.2204
38.6309 19.2084
38.6782 19.0954
38.7254 19.0276
38.7728 19.0463
38.82 18.9635
38.8674 18.9365
38.9146 18.8263
38.9621 18.7668
39.0093 18.7807
39.0567 18.647
39.104 18.5817
39.1514 18.4682
39.1987 18.4697
39.2461 18.4479
39.2934 18.3292
39.3409 18.2256
39.3882 18.1828
39.4356 18.2069
39.483 18.1125
39.5304 18.1035
39.5778 18.0233
39.6253 17.9116
39.6726 17.8854
39.7201 17.831
39.7675 17.7755
39.815 17.7139
39.8624 17.5512
39.9099 17.6257
39.9575 17.5651
40.0049 17.4972
40.0525 17.4276
40.0999 17.3952
40.1474 17.3686
40.1949 17.2546
40.2425 17.1801
40.2899 17.2075
40.3375 17.0981
40.385 17.0196
40.4326 16.9778
40.48 16.8837
40.5277 16.9067
40.5752 16.8214
40.6228 16.7881
40.6703 16.7623
40.718 16.6855
40.7655 16.6654
40.8132 16.5348
40.8607 16.5943
40.9084 16.4908
40.9559 16.4128
41.0036 16.3713
41.0512 16.2795
41.0989 16.3098
41.1465 16.1802
41.1942 16.1546
41.242 16.0732
41.2896 16.0138
41.3373 15.9822
41.3849 15.9482
41.4327 15.8825
41.4803 15.7809
41.5281 15.8052
41.5758 15.7625
41.6236 15.6501
41.6712 15.6064
41.7191 15.5732
41.7667 15.5472
41.8146 15.527
41.8622 15.3898
41.9101 15.4118
41.9578 15.2518
42.0057 15.272
42.0534 15.2354
42.1013 15.1701
42.149 15.1376
42.1969 15.0601
42.2446 15.0058
42.2925 14.9779
42.3403 14.8866
42.3882 14.8791
42.436 14.8314
42.4839 14.7378
42.5319 14.7798
42.5797 14.6693
42.6277 14.5939
42.6755 14.5846
42.7235 14.5235
42.7713 14.432
42.8193 14.461
42.8671 14.3348
42.9152 14.3263
42.963 14.2775
43.0111 14.2072
43.0589 14.1431
43.107 14.1131
43.1549 14.0609
43.2029 14.0142
43.2508 13.9606
43.2989 13.944
43.3468 13.8843
43.3949 13.7946
43.4429 13.8011
43.491 13.7235
43.5389 13.6579
43.5871 13.5948
43.635 13.586
43.6832 13.5503
43.7312 13.5164
43.7793 13.487
43.8273 13.4005
43.8755 13.365
43.9237 13.3254
43.9717 13.2635
44.0199 13.2246
44.068 13.1894
44.1162 13.133
44.1642 13.1244
44.2125 13.0567
44.2606 12.983
44.3088 12.9551
44.3569 12.8759
44.4052 12.898
44.4533 12.829
44.5016 12.7591
44.5497 12.7519
44.598 12.7151
44.6461 12.6516
44.6945 12.6204
44.7426 12.5513
44.791 12.4931
44.8391 12.5292
44.8875 12.3847
44.9357 12.3933
44.984 12.3362
45.0322 12.2374
45.0806 12.2229
45.1288 12.2392
45.1773 12.142
45.2257 12.1269
45.2739 12.0503
45.3224 12.0559
45.3706 11.9949
45.4191 11.929
45.4673 11.9346
45.5158 11.8522
45.5641 11.8671
45.6126 11.7541
45.6609 11.7635
45.7094 11.6848
45.7577 11.6614
45.8063 11.538
45.8546 11.556
45.9031 11.5616
45.9515 11.4729
46.0001 11.4619
46.0484 11.4314
46.097 11.394
46.1454 11.2849
46.194 11.3195
46.2424 11.2458
46.291 11.2266
46.3395 11.1131
46.3881 11.0872
46.4365 11.0976
46.4852 11.019
46.5337 10.971
46.5823 10.9377
46.631 10.8598
46.6795 10.8791
46.7282 10.8298
46.7767 10.8115
46.8254 10.7324
46.8739 10.7043
46.9226 10.6618
46.9712 10.6165
47.0199 10.5701
47.0685 10.521
47.1173 10.508
47.1658 10.46
47.2146 10.4583
47.2632 10.3465
47.312 10.3777
47.3606 10.3022
47.4095 10.2586
47.4581 10.2687
47.5069 10.1845
47.5556 10.0899
47.6044 10.1319
47.6531 10.0942
47.702 10.0484
47.7507 10.0219
47.7996 9.93992
47.8483 9.954
47.8972 9.95002
47.9461 9.86813
47.9948 9.82274
48.0438 9.82709
48.0925 9.77711
48.1415 9.77261
48.1902 9.67982
48.2392 9.66898
48.288 9.59036
48.337 9.59845
48.3858 9.55496
48.4348 9.54174
48.4837 9.53788
48.5327 9.45051
48.5815 9.42739
48.6306 9.3632
48.6795 9.35672
48.7285 9.26085
48.7774 9.24522
48.8265 9.26795
48.8754 9.23421
48.9245 9.19628
48.9734 9.13041
49.0226 9.1238
49.0715 9.08314
49.1206 9.01874
49.1696 8.97226
49.2188 8.94017
49.2679 8.92197
49.3169 8.92499
49.3661 8.84831
49.4151 8.82252
49.4643 8.79874
49.5134 8.76922
49.5626 8.70462
49.6117 8.71631
49.6609 8.69875
49.71 8.61671
49.7592 8.60527
49.8083 8.55285
49.8576 8.55495
49.9067 8.49824
49.956 8.45964
50.0052 8.44353
50.0545 8.39101
50.1036 8.3778
50.153 8.33843
50.2022 8.3243
50.2515 8.27868
50.3007 8.22846
50.3501 8.25507
50.3993 8.2129
50.4487 8.17075
50.498 8.11474
50.5474 8.08547
50.5966 8.01795
50.6461 8.01588
50.6955 7.99304
50.7448 7.95214
50.7943 7.90907
50.8436 7.88255
50.8931 7.83856
50.9424 7.86678
50.9919 7.83006
51.0413 7.79015
51.0908 7.79052
51.1402 7.71988
51.1897 7.66837
51.2391 7.66925
51.2887 7.62077
51.3381 7.60901
51.3877 7.6025
51.4371 7.53521
51.4867 7.4921
51.5362 7.50203
51.5858 7.42124
51.6353 7.37035
51.6849 7.33802
51.7344 7.35189
51.7841 7.3572
51.8336 7.24937
51.8833 7.24858
51.9328 7.21088
51.9826 7.21811
52.0323 7.14841
52.0818 7.12276
52.1316 7.07676
52.1812 7.08854
52.231 7.05107
52.2806 7.02896
52.3304 6.96296
52.38 6.93296
52.4298 6.90266
52.4794 6.89528
52.5293 6.87331
52.5789 6.82957
52.6288 6.83229
52.6785 6.7867
52.7284 6.7438
52.7781 6.74918
52.828 6.69983
52.8777 6.66156
52.9276 6.61263
52.9774 6.59249
53.0273 6.58893
53.0771 6.56294
53.1271 6.53251
53.1769 6.51661
53.2269 6.4944
53.2767 6.44091
53.3267 6.44823
53.3765 6.42855
53.4266 6.36746
53.4766 6.33565
53.5265 6.32053
53.5765 6.30559
53.6264 6.24542
53.6765 6.24059
53.7264 6.20035
53.7765 6.19482
53.8265 6.15418
53.8766 6.16922
53.9266 6.12605
53.9767 6.06148
54.0267 6.04949
54.0769 6.04904
54.1269 6.00445
54.1771 5.97808
54.2271 5.94421
54.2773 5.88575
54.3274 5.87155
54.3776 5.85091
54.4277 5.81414
54.478 5.80311
54.528 5.72896
54.5783 5.71187
54.6285 5.66173
54.6788 5.60317
54.7289 5.55441
54.7792 5.59688
54.8296 5.48733
54.8798 5.43249
54.9301 5.41135
54.9803 5.42109
55.0307 5.39694
55.0809 5.328
55.1314 5.29144
55.1816 5.22206
55.232 5.15911
55.2823 5.17223
55.3328 5.11699
55.383 5.03481
55.4335 5.03823
55.4838 4.93444
55.5344 4.89208
55.5847 4.84025
55.6352 4.89771
55.6856 4.81435
55.7361 4.76932