File: XRD/Ni3Fe_FD0195.xy
TT I
1.27165 8.42653
1.31627 7.28964
1.36089 6.82265
1.40551 6.59402
1.45013 6.79114
1.49476 6.64442
1.53938 6.61473
1.584 6.15461
1.62863 6.11186
1.67325 5.82364
1.71787 6.03345
1.7625 5.26369
1.80712 5.57664
1.85174 5.29911
1.89636 5.17483
1.94099 5.2893
1.98562 5.01896
2.03025 5.1612
2.07487 5.1016
2.11949 5.05335
2.16411 4.51923
2.20874 4.64591
2.25338 4.83789
2.298 4.40443
2.34263 4.45107
2.38725 4.9665
2.43188 4.08382
2.4765 5.12101
2.52115 4.36297
2.56577 4.93531
2.6104 5.98938
2.65503 4.97124
2.69965 5.75059
2.7443 6.30679
2.78893 6.83862
2.83356 7.30534
2.87818 8.25895
2.92281 8.86046
2.96744 9.59958
3.01209 10.2269
3.05672 11.2153
3.10135 12.5001
3.14599 12.924
3.19062 13.8639
3.23527 14.9151
3.2799 16.4306
3.32454 17.3032
3.36917 18.0458
3.4138 19.2605
3.45844 20.0175
3.50309 20.955
3.54773 21.8623
3.59237 22.3499
3.637 22.9291
3.68164 24.1265
3.7263 24.8384
3.77094 25.7567
3.81558 26.7134
3.86022 27.7349
3.90486 29.1127
3.9495 29.922
3.99416 30.9887
4.0388 32.3116
4.08344 33.8634
4.12809 34.6875
4.17273 36.2396
4.21738 37.5626
4.26204 38.5289
4.30669 40.3827
4.35133 42.5315
4.39598 43.6247
4.44063 46.1356
4.4853 47.7078
4.52995 50.6062
4.5746 53.2691
4.61925 55.3187
4.6639 57.7493
4.70855 60.6234
4.75322 63.9246
4.79788 67.09
4.84253 70.8873
4.88719 75.5767
4.93184 80.7703
4.97652 88.2961
5.02118 96.6576
5.06583 107.276
5.11049 123.082
5.15515 162.335
5.19981 634.635
5.24449 4035.77
5.28916 9632.65
5.33382 4999.82
5.37848 341.794
5.42315 159.792
5.46783 130.423
5.5125 118.773
5.55716 113.089
5.60183 107.286
5.6465 105.133
5.69117 103.426
5.73586 101.11
5.78053 100.656
5.8252 100.941
5.86988 103.489
5.91455 110.438
5.95924 129.429
6.00392 329.272
6.0486 1467.31
6.09328 3307.42
6.13795 3829.78
6.18263 475.82
6.22733 115.575
6.27201 90.7619
6.3167 81.2882
6.36138 76.1779
6.40606 72.2684
6.45075 70.343
6.49545 68.4893
6.54014 66.3959
6.58483 64.6893
6.62952 63.6184
6.67421 62.1313
6.71892 61.3863
6.76361 60.2803
6.8083 59.3266
6.853 58.5015
6.89769 57.8714
6.94239 57.8766
6.98711 56.7718
7.03181 56.5199
7.07651 56.1696
7.12121 56.0009
7.16591 55.8733
7.21063 55.3191
7.25533 55.4418
7.30004 55.6307
7.34475 55.0525
7.38945 55.7565
7.43416 54.6567
7.47889 55.2989
7.5236 58.4806
7.56831 62.103
7.61303 57.7272
7.65774 56.8461
7.70247 57.3509
7.74719 57.6468
7.79191 58.2596
7.83663 58.4854
7.88135 59.8493
7.92607 60.7897
7.97081 61.9316
8.01553 63.5826
8.06026 64.8741
8.10498 65.9853
8.14971 68.0507
8.19446 69.9828
8.23919 72.7471
8.28392 75.8634
8.32865 78.3823
8.37339 83.3199
8.41812 89.4198
8.46288 102.049
8.50761 207.981
8.55235 624.576
8.59709 1020.71
8.64183 1760.78
8.68658 1375.26
8.73134 279.653
8.77609 114.183
8.82083 101.232
8.86558 95.9558
8.91033 92.8182
8.9551 90.3559
8.99985 89.1217
9.04461 87.8986
9.08936 87.4693
9.13412 86.5396
9.17888 86.3528
9.22365 91.1156
9.26841 94.7457
9.31318 89.2971
9.35794 87.4364
9.4027 87.6052
9.44749 88.4605
9.49226 89.15
9.53703 90.08
9.5818 91.6866
9.62657 92.8882
9.67134 95.0773
9.71614 97.2167
9.76091 99.3091
9.80569 102.089
9.85047 105.501
9.89525 111.246
9.94005 122.479
9.98484 222.513
10.0296 560.354
10.0744 799.411
10.1192 1274.35
10.164 1728.44
10.2088 725.366
10.2536 172.785
10.2984 119.383
10.3432 112.887
10.388 110.6
10.4328 136.6
10.4776 223.05
10.5224 280.884
10.5672 395.356
10.612 524.655
10.6568 307.401
10.7017 118.609
10.7465 93.5095
10.7913 88.0278
10.8361 85.3544
10.8809 82.4938
10.9257 80.4442
10.9706 78.8599
11.0154 77.423
11.0602 75.6777
11.105 74.3993
11.1499 72.856
11.1947 72.0573
11.2395 70.8659
11.2844 70.2728
11.3292 69.4306
11.374 68.5072
11.4189 68.2337
11.4637 67.6244
11.5086 66.6341
11.5534 66.2327
11.5983 65.8741
11.6431 66.1165
11.688 65.4029
11.7328 65.3064
11.7777 65.0283
11.8225 65.1372
11.8674 65.0229
11.9122 66.2382
11.9571 67.9061
12.002 67.8852
12.0468 73.3485
12.0917 95.584
12.1366 112.654
12.1814 133.183
12.2263 174.033
12.2712 189.388
12.3161 119.808
12.3609 73.0012
12.4058 67.295
12.4507 67.159
12.4956 66.7606
12.5405 66.9262
12.5853 67.6315
12.6302 67.7278
12.6751 68.3914
12.72 69.1072
12.7649 70.1713
12.8098 71.0433
12.8547 72.5725
12.8996 74.1583
12.9445 75.5322
12.9894 78.06
13.0343 79.9143
13.0792 83.9627
13.1242 94.4329
13.1691 144.48
13.214 188.626
13.2589 223.139
13.3038 290.219
13.3487 392.12
13.3937 341.174
13.4386 168.704
13.4835 122.791
13.5285 159.344
13.5734 184.259
13.6183 214.967
13.6633 280.031
13.7082 351.313
13.7531 258.807
13.7981 126.367
13.843 88.7263
13.888 84.2446
13.9329 81.5104
13.9779 79.9209
14.0228 78.103
14.0678 77.0098
14.1127 76.625
14.1577 76.7863
14.2027 75.61
14.2476 74.1137
14.2926 73.1901
14.3376 72.6245
14.3825 72.4617
14.4275 72.01
14.4725 71.8925
14.5175 72.3498
14.5624 72.157
14.6074 72.385
14.6524 72.9499
14.6974 73.5053
14.7424 75.6539
14.7874 88.6252
14.8324 110.566
14.8774 123.633
14.9224 139.302
14.9674 170.224
15.0124 209.3
15.0574 187.91
15.1024 117.488
15.1474 79.4145
15.1924 73.9537
15.2374 72.3144
15.2824 71.2088
15.3274 70.3956
15.3725 69.8862
15.4175 69.5993
15.4625 69.2632
15.5076 68.9474
15.5526 69.0456
15.5976 69.4456
15.6426 70.1646
15.6877 80.3852
15.7327 98.1392
15.7778 108.555
15.8228 119.118
15.8679 140.742
15.9129 173.402
15.958 179.039
16.003 128.179
16.0481 79.0598
16.0931 66.9221
16.1382 64.0778
16.1833 63.3686
16.2283 61.3391
16.2734 60.7813
16.3185 60.2418
16.3636 59.5146
16.4086 58.7731
16.4537 58.3771
16.4988 57.9187
16.5439 57.7457
16.589 57.6029
16.6341 57.3748
16.6792 56.723
16.7243 56.9351
16.7694 56.9344
16.8145 56.9241
16.8596 57.2822
16.9047 57.3975
16.9498 57.563
16.9949 57.5845
17.04 58.3443
17.0851 60.3041
17.1302 63.789
17.1754 66.8341
17.2205 68.7351
17.2656 72.0858
17.3108 78.5665
17.3559 83.6239
17.401 79.897
17.4462 69.0931
17.4913 62.8235
17.5365 61.8472
17.5815 61.9834
17.6268 62.4329
17.6718 62.7542
17.7171 63.2214
17.7622 64.2235
17.8074 65.1424
17.8525 67.7298
17.8977 76.7181
17.9428 85.5349
17.9881 89.9192
18.0331 96.9728
18.0784 108.362
18.1237 127.88
18.1688 144.107
18.214 129.242
18.2591 100.67
18.3044 89.7883
18.3495 92.9251
18.3948 102.012
18.4399 103.588
18.4852 89.0441
18.5303 72.9965
18.5756 65.9356
18.6207 64.6921
18.666 63.1008
18.7112 62.6105
18.7565 61.9118
18.8016 61.31
18.8469 60.8564
18.892 60.4155
18.9374 60.0586
18.9825 59.6886
19.0278 59.2787
19.073 59.4945
19.1183 60.1753
19.1635 62.223
19.2088 63.8344
19.254 64.8298
19.2993 66.5404
19.3447 69.3593
19.3898 73.5825
19.4352 75.5638
19.4804 70.3807
19.5257 62.1867
19.5709 57.2933
19.6163 56.5644
19.6615 56.2488
19.7068 55.8974
19.752 55.5939
19.7974 56.0665
19.8426 57.6836
19.888 59.1082
19.9332 60.0901
19.9786 61.1102
20.0238 62.5866
20.0692 66.0538
20.1144 70.8195
20.1598 73.4818
20.205 69.521
20.2504 65.0661
20.2957 63.7052
20.3411 65.0414
20.3863 67.2952
20.4318 64.1261
20.477 58.1595
20.5224 54.1671
20.5677 52.8908
20.6131 52.5132
20.6586 51.9362
20.7038 51.759
20.7493 51.5145
20.7945 51.39
20.84 51.0987
20.8853 51.0046
20.9307 50.6348
20.976 51.1934
21.0215 51.2441
21.0668 51.6417
21.1122 51.7522
21.1575 51.8235
21.203 52.1783
21.2483 52.7344
21.2938 53.6259
21.3391 52.9535
21.3846 51.7487
21.4299 51.052
21.4754 50.6144
21.5207 50.8552
21.5662 51.1809
21.6116 51.891
21.6571 53.4714
21.7024 54.9429
21.7479 55.7911
21.7933 56.8178
21.8388 58.8778
21.8843 62.07
21.9297 65.0724
21.9752 66.9458
22.0206 64.5612
22.0661 59.832
22.1115 57.4641
22.157 57.6871
22.2024 57.6943
22.248 55.4171
22.2933 52.9927
22.3389 51.5778
22.3843 51.3093
22.4299 50.7643
22.4753 50.746
22.5208 50.7926
22.5662 50.6906
22.6118 50.9132
22.6572 51.1918
22.7028 52.3057
22.7483 53.0366
22.7939 53.4122
22.8393 53.9943
22.8849 55.0242
22.9303 56.0441
22.9759 57.7859
23.0214 59.3426
23.067 58.5015
23.1126 55.4078
23.1581 52.6892
23.2037 51.2966
23.2492 51.0988
23.2948 51.81
23.3403 52.6722
23.3859 53.0816
23.4314 53.2422
23.477 53.7363
23.5225 54.8364
23.5682 56.315
23.6137 58.4292
23.6593 58.8838
23.7048 56.3627
23.7505 52.3714
23.796 49.6508
23.8417 48.3936
23.8872 47.77
23.9329 47.3094
23.9784 46.8609
24.0241 46.6856
24.0697 46.4731
24.1154 46.2747
24.1609 45.9116
24.2066 45.7869
24.2522 45.6163
24.2979 45.5147
24.3434 45.3156
24.3892 45.1847
24.4349 45.0281
24.4805 44.8198
24.5262 44.9558
24.5718 44.7372
24.6175 44.6831
24.6631 44.6035
24.7089 44.3842
24.7545 44.4414
24.8002 44.14
24.8458 44.249
24.8916 44.1265
24.9372 44.3518
24.983 44.5749
25.0286 44.8077
25.0744 45.2651
25.12 45.5114
25.1658 45.9603
25.2114 46.279
25.2572 46.3428
25.3029 46.2849
25.3487 46.2866
25.3943 46.2235
25.4402 46.0444
25.4858 45.6488
25.5316 44.4456
25.5773 43.5788
25.6231 42.7975
25.669 42.5349
25.7147 42.4127
25.7605 42.2635
25.8062 42.3817
25.8521 42.5686
25.8977 42.3603
25.9436 42.6084
25.9893 42.4992
26.0352 42.8612
26.0809 42.81
26.1268 43.2248
26.1725 43.3214
26.2184 43.0572
26.2641 42.417
26.31 42.1958
26.3557 42.1288
26.4017 42.0757
26.4474 42.3697
26.4933 42.4177
26.5391 42.7156
26.585 42.9326
26.6308 43.2056
26.6767 43.6228
26.7225 43.869
26.7684 43.6152
26.8142 42.7286
26.8601 42.4504
26.9059 42.041
26.9519 41.4765
26.9979 41.2981
27.0437 40.7092
27.0896 40.5655
27.1354 40.5669
27.1814 40.3193
27.2272 40.372
27.2732 40.3092
27.3191 40.0847
27.3651 40.151
27.4109 39.9938
27.4569 39.9998
27.5027 40.1966
27.5488 40.1747
27.5946 40.1355
27.6407 39.894
27.6865 39.9417
27.7326 39.7071
27.7784 39.8135
27.8245 39.5431
27.8703 39.7205
27.9164 39.9368
27.9623 39.9001
28.0084 39.9772
28.0543 40.3276
28.1003 40.3786
28.1462 40.4732
28.1923 40.1181
28.2384 39.7823
28.2843 39.3312
28.3304 38.8906
28.3764 38.5268
28.4225 38.1554
28.4684 37.8736
28.5145 37.5285
28.5605 37.4465
28.6066 37.3073
28.6526 37.3395
28.6987 37.1265
28.7447 37.104
28.7908 36.8152
28.8368 36.8342
28.8829 36.8529
28.9289 36.6965
28.9751 36.6591
29.0211 36.5674
29.0673 36.3584
29.1133 36.2138
29.1595 35.9777
29.2055 35.8464
29.2517 35.7849
29.2977 35.6139
29.3439 35.6214
29.3899 35.6219
29.4361 35.4633
29.4824 35.4474
29.5284 35.302
29.5746 34.8859
29.6207 34.6322
29.6669 34.5448
29.713 34.4254
29.7593 34.2155
29.8053 34.2041
29.8516 34.2002
29.8977 34.2426
29.9439 34.0088
29.99 33.9311
30.0363 33.9124
30.0824 33.8971
30.1287 33.8365
30.1748 33.724
30.2211 33.7658
30.2673 33.6962
30.3136 33.7918
30.3597 33.7778
30.406 33.7055
30.4522 33.5646
30.4985 33.4553
30.5447 33.5545
30.591 33.3921
30.6372 33.4137
30.6835 33.334
30.7297 33.5208
30.7761 33.5121
30.8224 33.3604
30.8686 33.2473
30.915 33.0365
30.9612 32.9679
31.0076 32.718
31.0538 32.6178
31.1002 32.6092
31.1464 32.3363
31.1928 32.2315
31.2391 32.3017
31.2855 32.2418
31.3317 32.2405
31.3781 32.2173
31.4244 32.2112
31.4708 31.9901
31.5171 32.0538
31.5636 32.1181
31.6098 31.9908
31.6563 31.7087
31.7026 31.6429
31.7491 31.4215
31.7953 31.4858
31.8418 31.5242
31.8881 31.3269
31.9346 31.2185
31.9809 31.3309
32.0275 31.172
32.074 31.1906
32.1203 30.8983
32.1668 30.8297
32.2132 30.6166
32.2597 30.5576
32.306 30.4482
32.3526 30.2095
32.399 30.2191
32.4455 30.0183
32.4919 29.9314
32.5385 29.9232
32.5848 29.762
32.6314 29.698
32.6778 29.6209
32.7244 29.5291
32.7708 29.4149
32.8174 29.353
32.8638 29.1719
32.9104 29.173
32.9569 29.2055
33.0035 29.0622
33.0499 28.9782
33.0966 28.9472
33.143 28.9273
33.1897 28.7814
33.2361 28.7641
33.2828 28.7555
33.3293 28.5295
33.3759 28.5861
33.4226 28.4124
33.4691 28.3344
33.5158 28.2667
33.5623 28.0685
33.609 27.8669
33.6555 27.8002
33.7022 27.7526
33.7487 27.6909
33.7954 27.6284
33.842 27.4817
33.8887 27.4012
33.9353 27.4115
33.982 27.2435
34.0286 27.2264
34.0753 27.1518
34.1219 27.0323
34.1687 26.889
34.2152 26.8429
34.262 26.7328
34.3086 26.6926
34.3554 26.5342
34.402 26.4283
34.4488 26.3811
34.4954 26.4302
34.5422 26.2469
34.5889 26.0591
34.6357 26.0612
34.6825 26.0379
34.7292 25.8978
34.776 25.7559
34.8227 25.7331
34.8695 25.6765
34.9162 25.6536
34.9631 25.5531
35.0098 25.54
35.0566 25.295
35.1033 25.3531
35.1502 25.3464
35.1969 25.1935
35.2438 25.1159
35.2906 25.0806
35.3375 24.9682
35.3842 25.0134
35.4311 24.9649
35.4779 24.9431
35.5248 24.8105
35.5716 24.7503
35.6185 24.7002
35.6653 24.6348
35.7123 24.5051
35.759 24.459
35.806 24.3975
35.8528 24.1944
35.8998 24.1158
35.9468 24.1034
35.9936 24.1177
36.0406 23.9574
36.0874 23.9348
36.1345 23.8189
36.1813 23.7939
36.2283 23.6417
36.2752 23.5778
36.3222 23.5806
36.3691 23.4682
36.4161 23.4024
36.463 23.3691
36.5101 23.4123
36.557 23.2344
36.6041 23.1097
36.651 23.1199
36.6981 23.0278
36.745 22.9818
36.7921 22.9768
36.839 22.8252
36.8861 22.7663
36.9331 22.6877
36.9802 22.5439
37.0272 22.5169
37.0743 22.4259
37.1213 22.3949
37.1684 22.2946
37.2154 22.1243
37.2626 22.2404
37.3098 22.151
37.3568 22.0733
37.404 22.0353
37.451 21.8457
37.4982 21.7986
37.5452 21.6822
37.5924 21.6838
37.6395 21.7133
37.6867 21.5867
37.7337 21.4872
37.781 21.4257
37.8281 21.4101
37.8753 21.3159
37.9224 21.154
37.9697 21.1353
38.0168 21.0475
38.064 20.95
38.1111 20.9803
38.1584 20.8933
38.2056 20.8173
38.2529 20.7342
38.3 20.6772
38.3473 20.6226
38.3945 20.5148
38.4418 20.4021
38.489 20.3391
38.5363 20.3336
38.5837 20.2716
38.6309 20.1731
38.6782 20.1157
38.7254 20.0687
38.7728 19.9979
38.82 19.9445
38.8674 19.844
38.9146 19.9216
38.9621 19.7787
39.0093 19.6452
39.0567 19.6653
39.104 19.5947
39.1514 19.4471
39.1987 19.477
39.2461 19.4215
39.2934 19.3513
39.3409 19.2928
39.3882 19.1758
39.4356 19.0968
39.483 19.0949
39.5304 18.998
39.5778 18.9753
39.6253 18.9052
39.6726 18.8401
39.7201 18.8068
39.7675 18.6874
39.815 18.7013
39.8624 18.5671
39.9099 18.586
39.9575 18.5062
40.0049 18.4643
40.0525 18.368
40.0999 18.2903
40.1474 18.2714
40.1949 18.2236
40.2425 18.1259
40.2899 18.0459
40.3375 18.0289
40.385 17.9385
40.4326 17.9287
40.48 17.8311
40.5277 17.7875
40.5752 17.7709
40.6228 17.5981
40.6703 17.6519
40.718 17.6093
40.7655 17.5546
40.8132 17.4397
40.8607 17.3825
40.9084 17.3397
40.9559 17.3413
41.0036 17.2246
41.0512 17.1742
41.0989 17.1916
41.1465 17.0601
41.1942 16.9992
41.242 16.856
41.2896 16.913
41.3373 16.8032
41.3849 16.8239
41.4327 16.7684
41.4803 16.6293
41.5281 16.5896
41.5758 16.5384
41.6236 16.509
41.6712 16.4435
41.7191 16.3654
41.7667 16.3486
41.8146 16.2736
41.8622 16.2375
41.9101 16.1842
41.9578 16.072
42.0057 16.0662
42.0534 15.9954
42.1013 15.9386
42.149 15.887
42.1969 15.8893
42.2446 15.8561
42.2925 15.7227
42.3403 15.6571
42.3882 15.6276
42.436 15.5641
42.4839 15.5155
42.5319 15.4878
42.5797 15.3961
42.6277 15.3439
42.6755 15.3464
42.7235 15.2655
42.7713 15.1934
42.8193 15.1555
42.8671 15.0925
42.9152 15.0917
42.963 15.0402
43.0111 14.9758
43.0589 14.851
43.107 14.8941
43.1549 14.8092
43.2029 14.7408
43.2508 14.7375
43.2989 14.6622
43.3468 14.5981
43.3949 14.5388
43.4429 14.4856
43.491 14.4174
43.5389 14.4478
43.5871 14.3605
43.635 14.318
43.6832 14.2495
43.7312 14.2344
43.7793 14.1519
43.8273 14.0916
43.8755 14.0251
43.9237 14.0201
43.9717 13.9967
44.0199 13.9189
44.068 13.8906
44.1162 13.8348
44.1642 13.788
44.2125 13.702
44.2606 13.6969
44.3088 13.5884
44.3569 13.6015
44.4052 13.5485
44.4533 13.4449
44.5016 13.3737
44.5497 13.3697
44.598 13.3431
44.6461 13.259
44.6945 13.2474
44.7426 13.1754
44.791 13.1291
44.8391 13.1235
44.8875 13.0012
44.9357 13.0207
44.984 12.9412
45.0322 12.9342
45.0806 12.8797
45.1288 12.8249
45.1773 12.8057
45.2257 12.7434
45.2739 12.6896
45.3224 12.6266
45.3706 12.6331
45.4191 12.5322
45.4673 12.5006
45.5158 12.4349
45.5641 12.395
45.6126 12.3506
45.6609 12.3436
45.7094 12.2448
45.7577 12.2369
45.8063 12.1694
45.8546 12.1664
45.9031 12.0763
45.9515 12.0722
46.0001 12.0392
46.0484 11.9859
46.097 11.9492
46.1454 11.915
46.194 11.8986
46.2424 11.8376
46.291 11.8187
46.3395 11.7145
46.3881 11.6743
46.4365 11.6528
46.4852 11.6113
46.5337 11.5425
46.5823 11.5305
46.631 11.4218
46.6795 11.4602
46.7282 11.3725
46.7767 11.3445
46.8254 11.2849
46.8739 11.266
46.9226 11.2458
46.9712 11.1679
47.0199 11.1484
47.0685 11.0362
47.1173 11.0382
47.1658 10.9742
47.2146 10.9841
47.2632 10.912
47.312 10.927
47.3606 10.855
47.4095 10.8175
47.4581 10.796
47.5069 10.7261
47.5556 10.6874
47.6044 10.6373
47.6531 10.5962
47.702 10.5699
47.7507 10.547
47.7996 10.5036
47.8483 10.4552
47.8972 10.4216
47.9461 10.3664
47.9948 10.3323
48.0438 10.2603
48.0925 10.3111
48.1415 10.2783
48.1902 10.1741
48.2392 10.158
48.288 10.1425
48.337 10.1026
48.3858 10.0649
48.4348 9.98592
48.4837 9.99157
48.5327 9.96648
48.5815 9.92562
48.6306 9.90807
48.6795 9.8638
48.7285 9.7988
48.7774 9.78781
48.8265 9.76389
48.8754 9.69198
48.9245 9.65273
48.9734 9.6199
49.0226 9.58895
49.0715 9.57219
49.1206 9.50348
49.1696 9.48068
49.2188 9.45149
49.2679 9.41016
49.3169 9.34974
49.3661 9.28487
49.4151 9.28296
49.4643 9.26821
49.5134 9.24535
49.5626 9.20645
49.6117 9.19022
49.6609 9.14146
49.71 9.06258
49.7592 9.01886
49.8083 8.98975
49.8576 9.02178
49.9067 8.97553
49.956 8.93652
50.0052 8.89807
50.0545 8.84855
50.1036 8.83517
50.153 8.79176
50.2022 8.774
50.2515 8.68773
50.3007 8.6884
50.3501 8.63266
50.3993 8.58129
50.4487 8.58354
50.498 8.56483
50.5474 8.49491
50.5966 8.48432
50.6461 8.45044
50.6955 8.46326
50.7448 8.39699
50.7943 8.37308
50.8436 8.33822
50.8931 8.28833
50.9424 8.24633
50.9919 8.24216
51.0413 8.19691
51.0908 8.138
51.1402 8.13229
51.1897 8.10864
51.2391 8.04514
51.2887 8.03731
51.3381 7.98845
51.3877 7.9807
51.4371 7.89496
51.4867 7.88076
51.5362 7.86853
51.5858 7.81056
51.6353 7.7887
51.6849 7.74868
51.7344 7.72399
51.7841 7.67721
51.8336 7.6486
51.8833 7.62831
51.9328 7.5668
51.9826 7.54226
52.0323 7.52371
52.0818 7.52601
52.1316 7.47688
52.1812 7.45255
52.231 7.38493
52.2806 7.36634
52.3304 7.38298
52.38 7.32835
52.4298 7.25872
52.4794 7.24379
52.5293 7.2273
52.5789 7.16464
52.6288 7.18464
52.6785 7.12039
52.7284 7.12969
52.7781 7.10111
52.828 7.04993
52.8777 7.0213
52.9276 7.00131
52.9774 6.97123
53.0273 6.95086
53.0771 6.95273
53.1271 6.87819
53.1769 6.80741
53.2269 6.843
53.2767 6.79787
53.3267 6.78367
53.3765 6.76593
53.4266 6.72332
53.4766 6.6803
53.5265 6.64093
53.5765 6.61326
53.6264 6.57484
53.6765 6.52785
53.7264 6.52296
53.7765 6.50914
53.8265 6.46104
53.8766 6.43992
53.9266 6.41433
53.9767 6.39139
54.0267 6.32965
54.0769 6.28518
54.1269 6.29244
54.1771 6.25316
54.2271 6.1819
54.2773 6.15755
54.3274 6.14893
54.3776 6.12782
54.4277 6.09053
54.478 5.9891
54.528 5.98853
54.5783 5.96963
54.6285 5.88416
54.6788 5.90525
54.7289 5.84205
54.7792 5.76914
54.8296 5.70563
54.8798 5.66438
54.9301 5.61936
54.9803 5.64812
55.0307 5.5623
55.0809 5.52629
55.1314 5.4659
55.1816 5.43116
55.232 5.38483
55.2823 5.31777
55.3328 5.25124
55.383 5.15902
55.4335 5.17031
55.4838 5.13248
55.5344 5.10119
55.5847 5.0693
55.6352 4.99855
55.6856 4.94775
55.7361 4.95236