File: XRD/Ni3Fe_FD0641.xy
TT I
1.27165 7.71207
1.31627 6.92286
1.36089 7.11842
1.40551 6.31359
1.45013 6.55665
1.49476 6.05982
1.53938 5.6544
1.584 5.50428
1.62863 5.67044
1.67325 5.70646
1.71787 5.06749
1.7625 4.71591
1.80712 4.935
1.85174 5.1801
1.89636 4.99025
1.94099 5.04988
1.98562 5.00729
2.03025 4.63603
2.07487 4.77869
2.11949 5.1661
2.16411 5.07288
2.20874 16.0839
2.25338 27.4899
2.298 6.52074
2.34263 5.54457
2.38725 5.94182
2.43188 5.49748
2.4765 6.74289
2.52115 7.41578
2.56577 7.62592
2.6104 8.37364
2.65503 8.00684
2.69965 8.09728
2.7443 8.00182
2.78893 8.26486
2.83356 8.49887
2.87818 8.53193
2.92281 9.06426
2.96744 9.38268
3.01209 10.609
3.05672 11.7281
3.10135 12.6915
3.14599 13.1554
3.19062 14.1263
3.23527 15.3574
3.2799 15.7961
3.32454 16.9279
3.36917 17.6845
3.4138 19.1109
3.45844 19.7879
3.50309 20.8232
3.54773 22.654
3.59237 24.9357
3.637 109.543
3.68164 68.5892
3.7263 26.5201
3.77094 26.3111
3.81558 26.929
3.86022 27.4208
3.90486 29.5121
3.9495 30.0532
3.99416 31.4755
4.0388 32.5872
4.08344 34.1398
4.12809 35.6428
4.17273 37.6097
4.21738 44.3514
4.26204 298.175
4.30669 260.955
4.35133 50.7245
4.39598 44.9073
4.44063 55.9313
4.4853 70.1842
4.52995 50.5956
4.5746 51.4745
4.61925 53.3806
4.6639 55.8476
4.70855 58.3591
4.75322 60.5965
4.79788 63.2801
4.84253 67.2113
4.88719 70.8869
4.93184 74.9006
4.97652 80.2824
5.02118 86.487
5.06583 94.4472
5.11049 105.587
5.15515 184.434
5.19981 336.017
5.24449 2681.33
5.28916 12622.3
5.33382 3101.81
5.37848 196.622
5.42315 131.126
5.46783 114.501
5.5125 106.323
5.55716 102.269
5.60183 99.0418
5.6465 97.1833
5.69117 94.7337
5.73586 92.082
5.78053 91.7967
5.8252 90.715
5.86988 91.4059
5.91455 93.7312
5.95924 100.737
6.00392 194.427
6.0486 922.022
6.09328 4367.26
6.13795 3536.3
6.18263 255.989
6.22733 95.2373
6.27201 84.3028
6.3167 109.295
6.36138 83.1445
6.40606 70.0625
6.45075 68.0266
6.49545 65.7351
6.54014 64.138
6.58483 63.585
6.62952 63.6289
6.67421 101.914
6.71892 164.871
6.76361 71.7922
6.8083 59.3656
6.853 58.1171
6.89769 57.5606
6.94239 56.9941
6.98711 56.4597
7.03181 56.3157
7.07651 56.1268
7.12121 55.5652
7.16591 55.9559
7.21063 56.3049
7.25533 74.2736
7.30004 212.865
7.34475 101.767
7.38945 57.7943
7.43416 55.22
7.47889 54.8801
7.5236 55.3627
7.56831 56.1423
7.61303 57.5567
7.65774 58.8148
7.70247 56.5451
7.74719 56.6827
7.79191 57.2194
7.83663 57.5497
7.88135 58.4739
7.92607 59.0606
7.97081 60.1333
8.01553 60.9042
8.06026 62.5145
8.10498 64.4542
8.14971 75.2887
8.19446 73.6461
8.23919 69.6993
8.28392 71.8071
8.32865 73.8938
8.37339 78.3613
8.41812 86.2004
8.46288 118.824
8.50761 158.427
8.55235 365.901
8.59709 1111.81
8.64183 2198.99
8.68658 1015.08
8.73134 175.331
8.77609 100.613
8.82083 93.0136
8.86558 89.9702
8.91033 90.6255
8.9551 93.4928
8.99985 85.9016
9.04461 83.8496
9.08936 82.4839
9.13412 82.1321
9.17888 81.9783
9.22365 83.1248
9.26841 82.4791
9.31318 82.8786
9.35794 82.7187
9.4027 83.4819
9.44749 84.0142
9.49226 85.0344
9.53703 85.6243
9.5818 87.2287
9.62657 92.6294
9.67134 101.103
9.71614 94.3232
9.76091 93.6845
9.80569 96.327
9.85047 100.723
9.89525 128.682
9.94005 141.62
9.98484 169.246
10.0296 326.866
10.0744 767.566
10.1192 1704.82
10.164 1639.91
10.2088 439.161
10.2536 131.055
10.2984 115.661
10.3432 118.409
10.388 105.19
10.4328 115.668
10.4776 154.985
10.5224 269.846
10.5672 500.563
10.612 521.291
10.6568 213.715
10.7017 98.9179
10.7465 87.4187
10.7913 83.6139
10.8361 81.6761
10.8809 79.2198
10.9257 79.4454
10.9706 80.0864
11.0154 75.289
11.0602 73.2443
11.105 72.1588
11.1499 77.8829
11.1947 87.5538
11.2395 76.5183
11.2844 71.5019
11.3292 67.8533
11.374 66.64
11.4189 65.9514
11.4637 65.1653
11.5086 66.1937
11.5534 69.8124
11.5983 66.2459
11.6431 64.04
11.688 63.3078
11.7328 63.1694
11.7777 63.1338
11.8225 62.6044
11.8674 62.8682
11.9122 63.0007
11.9571 63.2235
12.002 63.8945
12.0468 67.2739
12.0917 78.3321
12.1366 100.658
12.1814 147.85
12.2263 204.01
12.2712 171.064
12.3161 103.147
12.3609 72.6143
12.4058 65.4139
12.4507 64.5939
12.4956 64.9624
12.5405 64.6075
12.5853 66.0295
12.6302 75.6212
12.6751 82.3413
12.72 71.3679
12.7649 68.1326
12.8098 68.4171
12.8547 70.0209
12.8996 71.179
12.9445 72.4875
12.9894 74.4003
13.0343 75.7405
13.0792 78.7883
13.1242 86.8208
13.1691 109.382
13.214 144.542
13.2589 228.643
13.3038 360.222
13.3487 430.252
13.3937 277.126
13.4386 128.613
13.4835 104.592
13.5285 118.046
13.5734 154.701
13.6183 240.893
13.6633 345.205
13.7082 344.637
13.7531 193.931
13.7981 100.429
13.843 82.7247
13.888 80.049
13.9329 77.4644
13.9779 76.1296
14.0228 74.576
14.0678 73.3663
14.1127 72.869
14.1577 72.9081
14.2027 71.607
14.2476 70.4527
14.2926 71.0863
14.3376 72.4962
14.3825 70.7228
14.4275 68.9291
14.4725 68.7109
14.5175 69.1029
14.5624 69.3672
14.6074 71.871
14.6524 72.3767
14.6974 70.736
14.7424 71.687
14.7874 77.8634
14.8324 87.5747
14.8774 107.959
14.9224 149.776
14.9674 201.688
15.0124 218.144
15.0574 152.099
15.1024 92.9521
15.1474 72.9437
15.1924 70.8322
15.2374 71.9493
15.2824 71.444
15.3274 68.8012
15.3725 67.2129
15.4175 66.6167
15.4625 66.3236
15.5076 66.5899
15.5526 66.3966
15.5976 66.1552
15.6426 66.5517
15.6877 71.309
15.7327 78.7522
15.7778 92.8301
15.8228 122.293
15.8679 164.692
15.9129 193.459
15.958 160.672
16.003 101.018
16.0481 69.6928
16.0931 65.7422
16.1382 63.4603
16.1833 61.148
16.2283 59.4507
16.2734 58.7329
16.3185 59.249
16.3636 60.3233
16.4086 58.5408
16.4537 56.6559
16.4988 55.8889
16.5439 55.8367
16.589 55.5674
16.6341 55.1845
16.6792 54.8472
16.7243 55.2677
16.7694 55.2411
16.8145 55.2562
16.8596 55.6264
16.9047 57.5547
16.9498 57.5963
16.9949 56.1852
17.04 55.8992
17.0851 57.0219
17.1302 58.7687
17.1754 61.4255
17.2205 66.6039
17.2656 73.757
17.3108 82.532
17.3559 83.6979
17.401 72.4722
17.4462 62.6741
17.4913 59.3159
17.5365 59.3727
17.5815 59.6421
17.6268 59.8654
17.6718 60.5476
17.7171 61.245
17.7622 61.4842
17.8074 61.7968
17.8525 63.9694
17.8977 67.9531
17.9428 73.1516
17.9881 81.3168
18.0331 97.3854
18.0784 118.878
18.1237 138.5
18.1688 132.588
18.214 105.459
18.2591 86.7109
18.3044 89.7395
18.3495 99.3363
18.3948 106.309
18.4399 98.6771
18.4852 79.3613
18.5303 66.9613
18.5756 62.4413
18.6207 61.4792
18.666 60.7216
18.7112 60.0468
18.7565 59.1086
18.8016 58.7138
18.8469 58.1638
18.892 58.0574
18.9374 57.5269
18.9825 57.1958
19.0278 57.1033
19.073 57.1647
19.1183 57.6698
19.1635 58.4731
19.2088 59.6105
19.254 61.9922
19.2993 66.4218
19.3447 72.6765
19.3898 76.8172
19.4352 73.0787
19.4804 64.1864
19.5257 57.3158
19.5709 54.5485
19.6163 53.9527
19.6615 53.8549
19.7068 53.6355
19.752 53.6565
19.7974 53.7341
19.8426 54.5978
19.888 55.0232
19.9332 56.2297
19.9786 58.6291
20.0238 62.0622
20.0692 67.0139
20.1144 69.8994
20.1598 68.4664
20.205 63.7228
20.2504 62.1451
20.2957 63.6649
20.3411 65.7156
20.3863 64.5522
20.4318 59.0935
20.477 54.0962
20.5224 52.1229
20.5677 51.5101
20.6131 50.569
20.6586 49.8756
20.7038 49.8834
20.7493 49.55
20.7945 48.9564
20.84 49.1118
20.8853 48.9345
20.9307 48.6561
20.976 48.7983
21.0215 48.7029
21.0668 49.2097
21.1122 49.6235
21.1575 50.039
21.203 50.8936
21.2483 51.4266
21.2938 51.4084
21.3391 50.2484
21.3846 49.1873
21.4299 48.6397
21.4754 48.4214
21.5207 48.4847
21.5662 48.8748
21.6116 49.2212
21.6571 49.9583
21.7024 50.9096
21.7479 52.447
21.7933 55.2035
21.8388 58.5229
21.8843 62.064
21.9297 64.5054
21.9752 63.7195
22.0206 59.9156
22.0661 56.8832
22.1115 56.2066
22.157 56.084
22.2024 54.5337
22.248 51.8507
22.2933 50.0036
22.3389 49.4146
22.3843 49.2881
22.4299 49.1704
22.4753 49.0641
22.5208 48.7016
22.5662 48.7408
22.6118 48.8406
22.6572 48.9201
22.7028 49.3154
22.7483 49.8037
22.7939 50.4723
22.8393 51.919
22.8849 53.9061
22.9303 55.9684
22.9759 57.7821
23.0214 57.6662
23.067 55.2049
23.1126 51.5662
23.1581 49.5123
23.2037 48.8721
23.2492 49.1232
23.2948 48.9902
23.3403 49.0718
23.3859 49.6464
23.4314 50.8797
23.477 52.4598
23.5225 54.4868
23.5682 56.7928
23.6137 58.2568
23.6593 56.1593
23.7048 52.2684
23.7505 48.6438
23.796 47.0675
23.8417 46.1445
23.8872 45.8558
23.9329 45.4114
23.9784 45.058
24.0241 44.9437
24.0697 44.4633
24.1154 44.3757
24.1609 44.1815
24.2066 44.0854
24.2522 43.8562
24.2979 43.6043
24.3434 43.4559
24.3892 43.415
24.4349 43.2279
24.4805 43.0719
24.5262 43.2614
24.5718 43.1533
24.6175 43.2267
24.6631 42.9941
24.7089 42.7346
24.7545 42.5781
24.8002 42.244
24.8458 42.3499
24.8916 42.2157
24.9372 42.2589
24.983 42.6158
25.0286 42.8959
25.0744 43.1672
25.12 43.7186
25.1658 44.3966
25.2114 44.7262
25.2572 44.8387
25.3029 45.0063
25.3487 45.231
25.3943 44.8806
25.4402 43.7933
25.4858 42.7964
25.5316 41.6445
25.5773 41.0783
25.6231 41.0438
25.669 40.6774
25.7147 40.6814
25.7605 40.5823
25.8062 40.6225
25.8521 40.7491
25.8977 40.7525
25.9436 40.945
25.9893 41.0559
26.0352 41.6031
26.0809 41.6935
26.1268 41.9007
26.1725 41.5125
26.2184 40.992
26.2641 40.4654
26.31 40.2782
26.3557 40.3042
26.4017 40.2877
26.4474 40.5778
26.4933 40.7536
26.5391 41.4011
26.585 41.6465
26.6308 42.1279
26.6767 42.3331
26.7225 42.0617
26.7684 41.6239
26.8142 40.9239
26.8601 40.5499
26.9059 40.2304
26.9519 39.6935
26.9979 39.2607
27.0437 39.0689
27.0896 38.9395
27.1354 38.8572
27.1814 38.7572
27.2272 38.6949
27.2732 38.8093
27.3191 38.5668
27.3651 38.6605
27.4109 38.427
27.4569 38.6424
27.5027 38.6924
27.5488 38.7535
27.5946 38.4906
27.6407 38.2349
27.6865 38.2542
27.7326 37.9365
27.7784 38.0456
27.8245 37.8306
27.8703 38.1429
27.9164 38.3611
27.9623 38.4864
28.0084 38.7437
28.0543 39.2005
28.1003 39.0847
28.1462 38.895
28.1923 38.5586
28.2384 38.1313
28.2843 37.8731
28.3304 37.4458
28.3764 36.9195
28.4225 36.7159
28.4684 36.4624
28.5145 36.0961
28.5605 35.9417
28.6066 35.7643
28.6526 35.7686
28.6987 35.738
28.7447 35.5509
28.7908 35.5496
28.8368 35.6152
28.8829 35.5578
28.9289 35.4268
28.9751 35.3111
29.0211 35.1001
29.0673 34.8561
29.1133 34.6704
29.1595 34.5761
29.2055 34.3705
29.2517 34.5746
29.2977 34.374
29.3439 34.3472
29.3899 34.434
29.4361 34.3034
29.4824 34.0805
29.5284 33.9942
29.5746 33.5257
29.6207 33.2558
29.6669 33.1583
29.713 33.2545
29.7593 32.9484
29.8053 32.9719
29.8516 32.9563
29.8977 32.9407
29.9439 32.7504
29.99 32.7686
30.0363 32.6469
30.0824 32.6211
30.1287 32.4814
30.1748 32.5956
30.2211 32.5105
30.2673 32.3614
30.3136 32.4778
30.3597 32.3564
30.406 32.2938
30.4522 32.1933
30.4985 32.09
30.5447 32.2404
30.591 32.1987
30.6372 32.3397
30.6835 32.226
30.7297 32.279
30.7761 32.3306
30.8224 32.1551
30.8686 31.9288
30.915 31.6462
30.9612 31.6055
31.0076 31.4326
31.0538 31.2844
31.1002 31.2254
31.1464 31.1161
31.1928 31.0999
31.2391 31.147
31.2855 31.0221
31.3317 30.8856
31.3781 31.059
31.4244 30.9989
31.4708 30.8966
31.5171 30.9677
31.5636 30.9087
31.6098 30.659
31.6563 30.4933
31.7026 30.3724
31.7491 30.183
31.7953 30.4286
31.8418 30.3111
31.8881 30.3165
31.9346 30.3091
31.9809 30.2241
32.0275 30.0223
32.074 29.9594
32.1203 29.7332
32.1668 29.6454
32.2132 29.6457
32.2597 29.3928
32.306 29.323
32.3526 29.0783
32.399 29.0756
32.4455 28.9436
32.4919 28.796
32.5385 28.7991
32.5848 28.5571
32.6314 28.681
32.6778 28.6221
32.7244 28.4301
32.7708 28.3142
32.8174 28.3162
32.8638 28.1946
32.9104 28.1451
32.9569 28.1357
33.0035 27.9498
33.0499 27.9409
33.0966 27.8983
33.143 27.942
33.1897 27.8409
33.2361 27.6759
33.2828 27.7421
33.3293 27.5349
33.3759 27.5397
33.4226 27.3863
33.4691 27.2439
33.5158 27.1717
33.5623 27.0637
33.609 26.8737
33.6555 26.8695
33.7022 26.7247
33.7487 26.6303
33.7954 26.5556
33.842 26.5137
33.8887 26.4859
33.9353 26.3979
33.982 26.2815
34.0286 26.224
34.0753 26.0968
34.1219 26.0045
34.1687 25.9644
34.2152 25.9443
34.262 25.7705
34.3086 25.6423
34.3554 25.6485
34.402 25.52
34.4488 25.4436
34.4954 25.4042
34.5422 25.2083
34.5889 25.1889
34.6357 25.113
34.6825 25.0097
34.7292 25.0063
34.776 24.8557
34.8227 24.8507
34.8695 24.7555
34.9162 24.7512
34.9631 24.5924
35.0098 24.5917
35.0566 24.4716
35.1033 24.449
35.1502 24.4164
35.1969 24.2484
35.2438 24.3269
35.2906 24.1986
35.3375 24.1917
35.3842 24.1153
35.4311 24.1297
35.4779 24.0057
35.5248 24.0888
35.5716 23.9135
35.6185 23.8103
35.6653 23.7212
35.7123 23.6468
35.759 23.5715
35.806 23.3523
35.8528 23.3652
35.8998 23.3719
35.9468 23.274
35.9936 23.2207
36.0406 23.0657
36.0874 23.0772
36.1345 23.0294
36.1813 22.9697
36.2283 22.8057
36.2752 22.6977
36.3222 22.8057
36.3691 22.5985
36.4161 22.5369
36.463 22.4999
36.5101 22.5884
36.557 22.4164
36.6041 22.2464
36.651 22.2807
36.6981 22.2452
36.745 22.1391
36.7921 22.0539
36.839 21.9237
36.8861 21.9115
36.9331 21.8851
36.9802 21.7548
37.0272 21.716
37.0743 21.6071
37.1213 21.582
37.1684 21.6027
37.2154 21.4279
37.2626 21.3652
37.3098 21.3456
37.3568 21.297
37.404 21.1693
37.451 21.1209
37.4982 21.0563
37.5452 20.9189
37.5924 20.9718
37.6395 20.8808
37.6867 20.8701
37.7337 20.7341
37.781 20.6804
37.8281 20.5522
37.8753 20.455
37.9224 20.4535
37.9697 20.387
38.0168 20.3557
38.064 20.1965
38.1111 20.14
38.1584 20.1542
38.2056 20.0564
38.2529 20.0181
38.3 19.9147
38.3473 19.9302
38.3945 19.7974
38.4418 19.7626
38.489 19.7008
38.5363 19.6504
38.5837 19.5509
38.6309 19.5182
38.6782 19.3768
38.7254 19.339
38.7728 19.2244
38.82 19.2337
38.8674 19.1507
38.9146 19.1051
38.9621 19.0097
39.0093 19.0188
39.0567 18.9894
39.104 18.9386
39.1514 18.8502
39.1987 18.809
39.2461 18.7496
39.2934 18.6384
39.3409 18.595
39.3882 18.5096
39.4356 18.4849
39.483 18.3954
39.5304 18.3545
39.5778 18.3094
39.6253 18.1903
39.6726 18.1609
39.7201 18.1471
39.7675 18.0626
39.815 18.0538
39.8624 17.923
39.9099 17.8953
39.9575 17.8611
40.0049 17.7696
40.0525 17.6758
40.0999 17.7136
40.1474 17.5833
40.1949 17.4928
40.2425 17.4607
40.2899 17.434
40.3375 17.3385
40.385 17.3825
40.4326 17.2613
40.48 17.2242
40.5277 17.2034
40.5752 17.175
40.6228 17.0299
40.6703 16.9825
40.718 16.9469
40.7655 16.948
40.8132 16.8038
40.8607 16.8308
40.9084 16.7654
40.9559 16.6543
41.0036 16.6786
41.0512 16.5704
41.0989 16.5623
41.1465 16.4336
41.1942 16.447
41.242 16.3257
41.2896 16.2676
41.3373 16.2452
41.3849 16.24
41.4327 16.1634
41.4803 16.0756
41.5281 16.0222
41.5758 15.9853
41.6236 15.8763
41.6712 15.8275
41.7191 15.8548
41.7667 15.7791
41.8146 15.7396
41.8622 15.7159
41.9101 15.5998
41.9578 15.5505
42.0057 15.5412
42.0534 15.4372
42.1013 15.3866
42.149 15.3887
42.1969 15.2759
42.2446 15.2474
42.2925 15.1576
42.3403 15.1587
42.3882 15.1241
42.436 15.0435
42.4839 14.9736
42.5319 14.9872
42.5797 14.9087
42.6277 14.8537
42.6755 14.7769
42.7235 14.6886
42.7713 14.7004
42.8193 14.6468
42.8671 14.6421
42.9152 14.5422
42.963 14.4872
43.0111 14.4217
43.0589 14.4155
43.107 14.357
43.1549 14.2904
43.2029 14.2246
43.2508 14.1853
43.2989 14.1832
43.3468 14.1473
43.3949 14.0342
43.4429 14.0247
43.491 13.9448
43.5389 13.8973
43.5871 13.8229
43.635 13.787
43.6832 13.7478
43.7312 13.7528
43.7793 13.6483
43.8273 13.6028
43.8755 13.5882
43.9237 13.5146
43.9717 13.458
44.0199 13.4162
44.068 13.3986
44.1162 13.3227
44.1642 13.3361
44.2125 13.3105
44.2606 13.2121
44.3088 13.1311
44.3569 13.1299
44.4052 13.0739
44.4533 13.0055
44.5016 12.9388
44.5497 12.955
44.598 12.8948
44.6461 12.844
44.6945 12.8167
44.7426 12.7311
44.791 12.6906
44.8391 12.6693
44.8875 12.64
44.9357 12.5541
44.984 12.522
45.0322 12.4615
45.0806 12.4222
45.1288 12.3556
45.1773 12.3644
45.2257 12.3316
45.2739 12.2871
45.3224 12.2076
45.3706 12.2006
45.4191 12.1129
45.4673 12.1033
45.5158 12.0712
45.5641 12.0239
45.6126 12.0017
45.6609 11.9017
45.7094 11.8971
45.7577 11.8812
45.8063 11.7733
45.8546 11.8001
45.9031 11.6924
45.9515 11.6758
46.0001 11.6442
46.0484 11.5531
46.097 11.5594
46.1454 11.5067
46.194 11.508
46.2424 11.4648
46.291 11.341
46.3395 11.3389
46.3881 11.3252
46.4365 11.2665
46.4852 11.2575
46.5337 11.1561
46.5823 11.1684
46.631 11.1069
46.6795 11.0671
46.7282 11.0243
46.7767 10.9919
46.8254 10.9003
46.8739 10.8677
46.9226 10.815
46.9712 10.7933
47.0199 10.7736
47.0685 10.7343
47.1173 10.6794
47.1658 10.6591
47.2146 10.6454
47.2632 10.5917
47.312 10.5642
47.3606 10.5024
47.4095 10.4902
47.4581 10.406
47.5069 10.3649
47.5556 10.35
47.6044 10.2725
47.6531 10.2579
47.702 10.1911
47.7507 10.2045
47.7996 10.1477
47.8483 10.0925
47.8972 10.0348
47.9461 10.024
47.9948 10.0067
48.0438 9.92627
48.0925 9.92895
48.1415 9.90183
48.1902 9.86282
48.2392 9.85864
48.288 9.81121
48.337 9.78994
48.3858 9.74007
48.4348 9.69402
48.4837 9.67547
48.5327 9.61891
48.5815 9.57383
48.6306 9.5484
48.6795 9.49793
48.7285 9.45912
48.7774 9.42648
48.8265 9.45381
48.8754 9.36674
48.9245 9.34133
48.9734 9.32235
49.0226 9.29272
49.0715 9.26882
49.1206 9.20544
49.1696 9.13443
49.2188 9.13234
49.2679 9.03999
49.3169 9.06391
49.3661 9.03651
49.4151 8.98268
49.4643 8.91252
49.5134 8.94519
49.5626 8.846
49.6117 8.84389
49.6609 8.81742
49.71 8.7397
49.7592 8.7541
49.8083 8.70027
49.8576 8.64865
49.9067 8.65276
49.956 8.6263
50.0052 8.58085
50.0545 8.52006
50.1036 8.52039
50.153 8.49244
50.2022 8.45547
50.2515 8.4073
50.3007 8.34495
50.3501 8.3479
50.3993 8.29314
50.4487 8.26796
50.498 8.2677
50.5474 8.22868
50.5966 8.19944
50.6461 8.1865
50.6955 8.14149
50.7448 8.09888
50.7943 8.06077
50.8436 8.05778
50.8931 8.00168
50.9424 7.98695
50.9919 7.93668
51.0413 7.9274
51.0908 7.92039
51.1402 7.87077
51.1897 7.8093
51.2391 7.75824
51.2887 7.77001
51.3381 7.70955
51.3877 7.71817
51.4371 7.63048
51.4867 7.59626
51.5362 7.60899
51.5858 7.56506
51.6353 7.49862
51.6849 7.50919
51.7344 7.47279
51.7841 7.44403
51.8336 7.37456
51.8833 7.38104
51.9328 7.31647
51.9826 7.30243
52.0323 7.27854
52.0818 7.24996
52.1316 7.21452
52.1812 7.2051
52.231 7.17363
52.2806 7.1515
52.3304 7.12158
52.38 7.05741
52.4298 7.00249
52.4794 7.01182
52.5293 6.97205
52.5789 6.96553
52.6288 6.95906
52.6785 6.90145
52.7284 6.91609
52.7781 6.87161
52.828 6.8293
52.8777 6.80895
52.9276 6.76267
52.9774 6.72196
53.0273 6.71952
53.0771 6.69415
53.1271 6.70363
53.1769 6.58597
53.2269 6.59815
53.2767 6.55964
53.3267 6.48814
53.3765 6.54901
53.4266 6.44398
53.4766 6.46898
53.5265 6.41562
53.5765 6.40063
53.6264 6.37249
53.6765 6.39771
53.7264 6.29727
53.7765 6.3097
53.8265 6.22555
53.8766 6.22481
53.9266 6.15126
53.9767 6.20764
54.0267 6.13985
54.0769 6.08632
54.1269 6.06658
54.1771 6.06512
54.2271 6.06196
54.2773 5.9981
54.3274 5.93694
54.3776 5.97027
54.4277 5.92291
54.478 5.88994
54.528 5.82465
54.5783 5.80411
54.6285 5.79442
54.6788 5.7442
54.7289 5.68774
54.7792 5.63383
54.8296 5.56622
54.8798 5.57464
54.9301 5.53858
54.9803 5.51291
55.0307 5.43623
55.0809 5.42968
55.1314 5.42164
55.1816 5.34506
55.232 5.30935
55.2823 5.28379
55.3328 5.15351
55.383 5.11515
55.4335 5.06517
55.4838 4.99492
55.5344 5.00432
55.5847 4.98419
55.6352 4.92085
55.6856 4.86862
55.7361 4.8587