File: XRD/Ni3Fe_FD0301.xy
TT I
1.27165 7.71009
1.31627 6.95016
1.36089 7.13685
1.40551 5.93075
1.45013 6.65284
1.49476 5.79785
1.53938 6.22016
1.584 5.78411
1.62863 5.66159
1.67325 5.58221
1.71787 5.50054
1.7625 5.16666
1.80712 5.15561
1.85174 5.21542
1.89636 5.63897
1.94099 5.31851
1.98562 4.93714
2.03025 5.07987
2.07487 4.75421
2.11949 5.34905
2.16411 5.08456
2.20874 18.0819
2.25338 32.1545
2.298 6.08578
2.34263 5.06063
2.38725 5.38197
2.43188 5.48056
2.4765 5.52093
2.52115 5.3911
2.56577 5.75037
2.6104 6.744
2.65503 6.43479
2.69965 7.04434
2.7443 7.24143
2.78893 7.21962
2.83356 7.82363
2.87818 8.64774
2.92281 8.79207
2.96744 9.36541
3.01209 10.7611
3.05672 11.5663
3.10135 12.3431
3.14599 12.7602
3.19062 14.4517
3.23527 15.0902
3.2799 16.223
3.32454 17.5128
3.36917 18.231
3.4138 19.4701
3.45844 20.2777
3.50309 21.5267
3.54773 22.6984
3.59237 25.4871
3.637 126.272
3.68164 77.7418
3.7263 27.6496
3.77094 27.3547
3.81558 27.5361
3.86022 28.6171
3.90486 30.1997
3.9495 30.6135
3.99416 31.9869
4.0388 33.181
4.08344 35.2349
4.12809 36.0392
4.17273 38.9069
4.21738 47.3666
4.26204 344.361
4.30669 309.523
4.35133 53.1632
4.39598 46.5607
4.44063 58.6604
4.4853 76.34
4.52995 53.9203
4.5746 53.5323
4.61925 54.8128
4.6639 56.9953
4.70855 59.4868
4.75322 62.5686
4.79788 66.1088
4.84253 69.1532
4.88719 73.9947
4.93184 77.2059
4.97652 83.2648
5.02118 90.4234
5.06583 99.1641
5.11049 113.864
5.15515 214.651
5.19981 491.328
5.24449 2962.0
5.28916 11002.4
5.33382 4247.1
5.37848 257.641
5.42315 145.792
5.46783 123.76
5.5125 112.963
5.55716 106.999
5.60183 103.299
5.6465 100.804
5.69117 98.3048
5.73586 96.2555
5.78053 97.0167
5.8252 96.5003
5.86988 97.2748
5.91455 100.099
5.95924 111.064
6.00392 251.894
6.0486 1029.81
6.09328 3627.26
6.13795 3885.98
6.18263 370.147
6.22733 107.046
6.27201 89.9685
6.3167 119.418
6.36138 88.6376
6.40606 72.5324
6.45075 70.5633
6.49545 67.957
6.54014 66.1733
6.58483 66.0691
6.62952 66.0737
6.67421 109.536
6.71892 189.21
6.76361 75.8484
6.8083 61.3303
6.853 59.7687
6.89769 59.1416
6.94239 59.1095
6.98711 58.0874
7.03181 57.8909
7.07651 57.9025
7.12121 57.2153
7.16591 58.1984
7.21063 58.4964
7.25533 78.2222
7.30004 242.683
7.34475 113.471
7.38945 59.8429
7.43416 56.5814
7.47889 56.6081
7.5236 56.9105
7.56831 57.6023
7.61303 59.8094
7.65774 60.8363
7.70247 58.1787
7.74719 58.2571
7.79191 58.7511
7.83663 58.8476
7.88135 59.6642
7.92607 60.7646
7.97081 61.9201
8.01553 62.8179
8.06026 64.5092
8.10498 66.6525
8.14971 79.5747
8.19446 77.6799
8.23919 71.6452
8.28392 74.4237
8.32865 76.6485
8.37339 81.0792
8.41812 89.7061
8.46288 130.994
8.50761 189.724
8.55235 428.731
8.59709 981.575
8.64183 2070.0
8.68658 1281.39
8.73134 226.565
8.77609 108.217
8.82083 97.6341
8.86558 93.5085
8.91033 94.7441
8.9551 97.4775
8.99985 88.6784
9.04461 86.1568
9.08936 85.5728
9.13412 84.2137
9.17888 84.7079
9.22365 85.8467
9.26841 85.0978
9.31318 85.6132
9.35794 85.8074
9.4027 85.7303
9.44749 86.578
9.49226 87.4067
9.53703 88.477
9.5818 90.5864
9.62657 96.4725
9.67134 106.327
9.71614 97.7265
9.76091 97.1923
9.80569 100.187
9.85047 103.821
9.89525 137.001
9.94005 155.631
9.98484 196.337
10.0296 374.79
10.0744 702.419
10.1192 1483.15
10.164 1820.87
10.2088 585.523
10.2536 152.721
10.2984 122.678
10.3432 124.954
10.388 110.496
10.4328 126.15
10.4776 171.45
10.5224 252.074
10.5672 443.439
10.612 544.826
10.6568 258.667
10.7017 106.401
10.7465 90.6459
10.7913 86.4803
10.8361 84.1166
10.8809 81.9549
10.9257 81.9403
10.9706 83.7581
11.0154 78.2782
11.0602 75.4996
11.105 74.8551
11.1499 81.1475
11.1947 93.2708
11.2395 80.3807
11.2844 74.4219
11.3292 69.7974
11.374 68.7108
11.4189 67.9799
11.4637 67.3076
11.5086 68.1015
11.5534 73.3945
11.5983 68.8641
11.6431 66.2268
11.688 65.3306
11.7328 65.3811
11.7777 65.3816
11.8225 64.9246
11.8674 64.6014
11.9122 65.093
11.9571 65.3362
12.002 65.6904
12.0468 71.3036
12.0917 84.067
12.1366 101.598
12.1814 136.407
12.2263 196.994
12.2712 193.988
12.3161 117.655
12.3609 77.4149
12.4058 67.8632
12.4507 66.9917
12.4956 66.6726
12.5405 67.1581
12.5853 68.0013
12.6302 79.0469
12.6751 88.0726
12.72 74.1509
12.7649 70.2246
12.8098 70.8257
12.8547 72.033
12.8996 73.5471
12.9445 74.8506
12.9894 76.1761
13.0343 78.0444
13.0792 81.8626
13.1242 92.3478
13.1691 120.645
13.214 151.988
13.2589 210.062
13.3038 320.349
13.3487 445.155
13.3937 326.727
13.4386 149.874
13.4835 114.115
13.5285 128.754
13.5734 154.673
13.6183 212.973
13.6633 312.453
13.7082 370.915
13.7531 238.124
13.7981 112.366
13.843 85.9394
13.888 82.7026
13.9329 79.9007
13.9779 78.7395
14.0228 76.6562
14.0678 75.6095
14.1127 75.0605
14.1577 75.5809
14.2027 74.425
14.2476 73.062
14.2926 73.5123
14.3376 75.1843
14.3825 73.5121
14.4275 71.0274
14.4725 71.056
14.5175 71.0817
14.5624 71.5977
14.6074 74.5494
14.6524 75.2119
14.6974 73.3598
14.7424 74.7969
14.7874 82.5585
14.8324 93.7172
14.8774 108.47
14.9224 136.425
14.9674 187.292
15.0124 229.322
15.0574 176.454
15.1024 104.357
15.1474 76.4574
15.1924 73.4005
15.2374 75.0921
15.2824 74.1459
15.3274 71.1808
15.3725 69.4164
15.4175 68.8369
15.4625 68.1777
15.5076 68.9894
15.5526 69.0784
15.5976 68.2198
15.6426 69.1685
15.6877 75.4636
15.7327 83.8986
15.7778 94.7086
15.8228 115.214
15.8679 151.46
15.9129 193.394
15.958 180.662
16.003 116.395
16.0481 74.7096
16.0931 68.8261
16.1382 66.4703
16.1833 63.5541
16.2283 61.4406
16.2734 60.8881
16.3185 61.0716
16.3636 62.907
16.4086 60.8231
16.4537 58.5252
16.4988 57.589
16.5439 57.5192
16.589 57.2311
16.6341 56.9498
16.6792 56.5353
16.7243 57.0162
16.7694 57.3333
16.8145 56.8474
16.8596 57.4291
16.9047 59.6671
16.9498 60.0998
16.9949 58.0688
17.04 58.0991
17.0851 59.0966
17.1302 61.0883
17.1754 63.6162
17.2205 67.0125
17.2656 72.2806
17.3108 81.6797
17.3559 86.1315
17.401 77.3568
17.4462 66.3553
17.4913 61.5383
17.5365 61.0837
17.5815 61.3528
17.6268 61.7844
17.6718 62.5693
17.7171 63.2588
17.7622 63.2529
17.8074 63.9309
17.8525 66.4756
17.8977 71.4829
17.9428 77.024
17.9881 82.8361
18.0331 94.1085
18.0784 112.127
18.1237 137.348
18.1688 143.51
18.214 117.508
18.2591 92.1573
18.3044 88.3887
18.3495 96.667
18.3948 108.793
18.4399 105.481
18.4852 85.6671
18.5303 70.3632
18.5756 64.7438
18.6207 63.6587
18.666 62.7096
18.7112 61.7975
18.7565 61.2646
18.8016 60.726
18.8469 60.1078
18.892 59.8255
18.9374 59.1921
18.9825 59.3057
19.0278 59.0892
19.073 59.3301
19.1183 59.7569
19.1635 60.9999
19.2088 61.7814
19.254 63.1452
19.2993 65.8817
19.3447 72.0164
19.3898 78.2973
19.4352 77.6688
19.4804 68.8639
19.5257 60.3176
19.5709 56.5613
19.6163 55.812
19.6615 55.7137
19.7068 55.4293
19.752 55.2869
19.7974 55.5366
19.8426 56.6608
19.888 57.2611
19.9332 58.3068
19.9786 59.7644
20.0238 61.9872
20.0692 66.6593
20.1144 71.1509
20.1598 72.0369
20.205 67.4
20.2504 63.2343
20.2957 63.8233
20.3411 66.6951
20.3863 67.789
20.4318 62.6707
20.477 57.0291
20.5224 54.2269
20.5677 53.2286
20.6131 52.1672
20.6586 51.4818
20.7038 51.4577
20.7493 50.8893
20.7945 50.883
20.84 50.7922
20.8853 50.5188
20.9307 50.4145
20.976 50.33
21.0215 50.3568
21.0668 50.8432
21.1122 51.1727
21.1575 51.5295
21.203 52.3107
21.2483 52.9941
21.2938 53.3613
21.3391 52.3356
21.3846 51.0809
21.4299 50.3297
21.4754 50.0276
21.5207 50.2778
21.5662 50.4593
21.6116 51.0545
21.6571 51.7844
21.7024 52.6719
21.7479 54.069
21.7933 56.065
21.8388 58.7708
21.8843 62.4129
21.9297 66.2745
21.9752 67.2164
22.0206 63.3159
22.0661 58.6595
22.1115 57.5637
22.157 57.9086
22.2024 57.1516
22.248 54.2868
22.2933 52.2798
22.3389 51.1327
22.3843 50.9203
22.4299 51.0391
22.4753 50.8105
22.5208 50.4486
22.5662 50.41
22.6118 50.5523
22.6572 50.6715
22.7028 51.1306
22.7483 51.5911
22.7939 51.9641
22.8393 53.028
22.8849 54.4088
22.9303 56.4084
22.9759 58.9094
23.0214 60.0466
23.067 58.064
23.1126 54.2484
23.1581 51.4479
23.2037 50.7129
23.2492 50.8273
23.2948 50.7414
23.3403 50.9209
23.3859 51.5054
23.4314 52.0534
23.477 53.2631
23.5225 54.7854
23.5682 57.3216
23.6137 59.8585
23.6593 59.0475
23.7048 55.2333
23.7505 51.0545
23.796 48.8374
23.8417 47.753
23.8872 47.2866
23.9329 46.9226
23.9784 46.593
24.0241 46.2545
24.0697 46.2223
24.1154 45.951
24.1609 45.6758
24.2066 45.3847
24.2522 45.2921
24.2979 44.9029
24.3434 44.9276
24.3892 44.9536
24.4349 44.6069
24.4805 44.3962
24.5262 44.5859
24.5718 44.2799
24.6175 44.492
24.6631 44.4702
24.7089 44.2411
24.7545 44.0487
24.8002 43.7644
24.8458 43.854
24.8916 43.6686
24.9372 43.7414
24.983 43.9022
25.0286 44.2513
25.0744 44.5256
25.12 44.9642
25.1658 45.6233
25.2114 45.9415
25.2572 46.0913
25.3029 46.0241
25.3487 46.3489
25.3943 46.3577
25.4402 45.8152
25.4858 44.5982
25.5316 43.3656
25.5773 42.4271
25.6231 42.3288
25.669 42.0648
25.7147 41.8784
25.7605 42.0534
25.8062 42.0031
25.8521 42.1175
25.8977 42.0769
25.9436 42.1637
25.9893 42.0515
26.0352 42.5912
26.0809 42.6957
26.1268 43.0949
26.1725 42.9846
26.2184 42.492
26.2641 42.0464
26.31 41.6302
26.3557 41.6533
26.4017 41.6015
26.4474 41.76
26.4933 42.0032
26.5391 42.3431
26.585 42.7507
26.6308 43.3735
26.6767 43.4893
26.7225 43.5334
26.7684 43.0787
26.8142 42.6197
26.8601 42.1221
26.9059 41.6918
26.9519 41.1591
26.9979 40.7574
27.0437 40.2562
27.0896 40.1175
27.1354 40.1205
27.1814 40.0618
27.2272 39.9441
27.2732 39.9015
27.3191 39.659
27.3651 39.77
27.4109 39.6601
27.4569 39.8047
27.5027 39.8433
27.5488 39.9892
27.5946 39.7445
27.6407 39.662
27.6865 39.5444
27.7326 39.2103
27.7784 39.2028
27.8245 39.0452
27.8703 39.2078
27.9164 39.5629
27.9623 39.6171
28.0084 39.7778
28.0543 40.346
28.1003 40.2946
28.1462 40.3192
28.1923 39.8322
28.2384 39.3832
28.2843 39.1495
28.3304 38.8494
28.3764 38.0703
28.4225 37.8614
28.4684 37.5904
28.5145 37.423
28.5605 37.1571
28.6066 36.9044
28.6526 36.9391
28.6987 36.8961
28.7447 36.7651
28.7908 36.7168
28.8368 36.653
28.8829 36.6062
28.9289 36.654
28.9751 36.4775
29.0211 36.2221
29.0673 35.9994
29.1133 35.8796
29.1595 35.7399
29.2055 35.5307
29.2517 35.6468
29.2977 35.3925
29.3439 35.4684
29.3899 35.3901
29.4361 35.4467
29.4824 35.2678
29.5284 35.0809
29.5746 34.733
29.6207 34.4295
29.6669 34.2751
29.713 34.2738
29.7593 34.0793
29.8053 34.1527
29.8516 33.9392
29.8977 33.9052
29.9439 33.8581
29.99 33.7635
30.0363 33.6543
30.0824 33.7369
30.1287 33.5808
30.1748 33.6478
30.2211 33.5595
30.2673 33.5502
30.3136 33.5763
30.3597 33.5358
30.406 33.4252
30.4522 33.2868
30.4985 33.2025
30.5447 33.2691
30.591 33.2775
30.6372 33.3588
30.6835 33.1951
30.7297 33.4006
30.7761 33.2788
30.8224 33.15
30.8686 33.0545
30.915 32.8081
30.9612 32.7621
31.0076 32.4303
31.0538 32.3178
31.1002 32.2505
31.1464 32.1099
31.1928 32.0531
31.2391 32.0777
31.2855 31.8944
31.3317 31.8903
31.3781 31.8851
31.4244 31.9278
31.4708 31.8715
31.5171 31.8568
31.5636 31.9195
31.6098 31.663
31.6563 31.4641
31.7026 31.4072
31.7491 31.2156
31.7953 31.2501
31.8418 31.1813
31.8881 31.1869
31.9346 31.2052
31.9809 31.0892
32.0275 30.9932
32.074 30.9541
32.1203 30.7437
32.1668 30.6442
32.2132 30.4873
32.2597 30.4798
32.306 30.3377
32.3526 30.0579
32.399 29.9896
32.4455 29.7778
32.4919 29.7236
32.5385 29.6356
32.5848 29.4884
32.6314 29.5661
32.6778 29.4871
32.7244 29.3204
32.7708 29.2415
32.8174 29.2519
32.8638 28.982
32.9104 29.1199
32.9569 29.0799
33.0035 28.8271
33.0499 28.8373
33.0966 28.7789
33.143 28.8711
33.1897 28.683
33.2361 28.5254
33.2828 28.576
33.3293 28.4157
33.3759 28.4355
33.4226 28.3119
33.4691 28.1199
33.5158 28.0176
33.5623 27.8626
33.609 27.7876
33.6555 27.6147
33.7022 27.591
33.7487 27.4872
33.7954 27.4666
33.842 27.347
33.8887 27.2662
33.9353 27.309
33.982 27.1049
34.0286 27.0434
34.0753 26.9732
34.1219 26.854
34.1687 26.7973
34.2152 26.719
34.262 26.5542
34.3086 26.4618
34.3554 26.4525
34.402 26.3419
34.4488 26.257
34.4954 26.2086
34.5422 26.0774
34.5889 25.95
34.6357 25.9305
34.6825 25.8759
34.7292 25.8107
34.776 25.6484
34.8227 25.5566
34.8695 25.5063
34.9162 25.4968
34.9631 25.4199
35.0098 25.4407
35.0566 25.2772
35.1033 25.1317
35.1502 25.11
35.1969 25.0785
35.2438 25.0869
35.2906 24.9961
35.3375 24.9577
35.3842 24.7654
35.4311 24.8678
35.4779 24.727
35.5248 24.7353
35.5716 24.6364
35.6185 24.5584
35.6653 24.4538
35.7123 24.4341
35.759 24.3375
35.806 24.1714
35.8528 24.1473
35.8998 24.0089
35.9468 24.0281
35.9936 23.9007
36.0406 23.8598
36.0874 23.8061
36.1345 23.704
36.1813 23.6518
36.2283 23.5157
36.2752 23.4486
36.3222 23.4576
36.3691 23.3986
36.4161 23.2648
36.463 23.2282
36.5101 23.2111
36.557 23.2565
36.6041 23.0369
36.651 23.0467
36.6981 23.0045
36.745 22.8034
36.7921 22.7472
36.839 22.6691
36.8861 22.5653
36.9331 22.5824
36.9802 22.4697
37.0272 22.3259
37.0743 22.2917
37.1213 22.268
37.1684 22.1585
37.2154 22.1521
37.2626 22.0756
37.3098 21.969
37.3568 21.8789
37.404 21.8583
37.451 21.7059
37.4982 21.7337
37.5452 21.5928
37.5924 21.5794
37.6395 21.6083
37.6867 21.4659
37.7337 21.3139
37.781 21.2621
37.8281 21.2328
37.8753 21.1177
37.9224 21.0942
37.9697 20.9989
38.0168 20.9064
38.064 20.8407
38.1111 20.8166
38.1584 20.7265
38.2056 20.6839
38.2529 20.6104
38.3 20.5051
38.3473 20.5184
38.3945 20.4172
38.4418 20.3097
38.489 20.3213
38.5363 20.2234
38.5837 20.1067
38.6309 20.1607
38.6782 20.0152
38.7254 19.9706
38.7728 19.8717
38.82 19.8386
38.8674 19.8336
38.9146 19.7498
38.9621 19.6605
39.0093 19.6373
39.0567 19.5383
39.104 19.4731
39.1514 19.3827
39.1987 19.3419
39.2461 19.3029
39.2934 19.2664
39.3409 19.1766
39.3882 19.0724
39.4356 19.0217
39.483 19.0155
39.5304 18.9216
39.5778 18.9282
39.6253 18.8333
39.6726 18.8123
39.7201 18.7417
39.7675 18.666
39.815 18.6156
39.8624 18.494
39.9099 18.5012
39.9575 18.4452
40.0049 18.3539
40.0525 18.2832
40.0999 18.2586
40.1474 18.1762
40.1949 18.0756
40.2425 18.0384
40.2899 18.0281
40.3375 17.9038
40.385 17.8455
40.4326 17.8062
40.48 17.7246
40.5277 17.7526
40.5752 17.6433
40.6228 17.6038
40.6703 17.6031
40.718 17.4196
40.7655 17.381
40.8132 17.3431
40.8607 17.3627
40.9084 17.2966
40.9559 17.2707
41.0036 17.1802
41.0512 17.1154
41.0989 17.0963
41.1465 16.9992
41.1942 16.9389
41.242 16.8203
41.2896 16.8353
41.3373 16.7864
41.3849 16.7659
41.4327 16.6862
41.4803 16.5556
41.5281 16.5145
41.5758 16.4647
41.6236 16.4014
41.6712 16.3349
41.7191 16.3161
41.7667 16.2054
41.8146 16.2282
41.8622 16.1318
41.9101 16.0726
41.9578 15.9729
42.0057 15.9855
42.0534 15.9492
42.1013 15.977
42.149 15.8293
42.1969 15.79
42.2446 15.7411
42.2925 15.6557
42.3403 15.609
42.3882 15.6035
42.436 15.5781
42.4839 15.4203
42.5319 15.4287
42.5797 15.3401
42.6277 15.2842
42.6755 15.2282
42.7235 15.1686
42.7713 15.1569
42.8193 15.0817
42.8671 15.067
42.9152 14.9996
42.963 14.9397
43.0111 14.8805
43.0589 14.8377
43.107 14.8005
43.1549 14.7703
43.2029 14.6817
43.2508 14.6655
43.2989 14.5881
43.3468 14.4878
43.3949 14.4779
43.4429 14.4705
43.491 14.3753
43.5389 14.3349
43.5871 14.2758
43.635 14.2396
43.6832 14.1998
43.7312 14.1775
43.7793 14.0738
43.8273 14.0531
43.8755 13.9743
43.9237 13.9749
43.9717 13.9277
44.0199 13.8412
44.068 13.81
44.1162 13.74
44.1642 13.7132
44.2125 13.635
44.2606 13.5876
44.3088 13.5453
44.3569 13.5259
44.4052 13.4965
44.4533 13.4073
44.5016 13.3998
44.5497 13.3277
44.598 13.352
44.6461 13.2595
44.6945 13.178
44.7426 13.1545
44.791 13.0926
44.8391 13.0975
44.8875 13.0253
44.9357 12.9923
44.984 12.9081
45.0322 12.8689
45.0806 12.8091
45.1288 12.8011
45.1773 12.7494
45.2257 12.7456
45.2739 12.6566
45.3224 12.6095
45.3706 12.5456
45.4191 12.4916
45.4673 12.505
45.5158 12.4367
45.5641 12.392
45.6126 12.3477
45.6609 12.2546
45.7094 12.2287
45.7577 12.1805
45.8063 12.1423
45.8546 12.085
45.9031 12.0348
45.9515 12.0112
46.0001 11.9923
46.0484 11.9453
46.097 11.9359
46.1454 11.8889
46.194 11.8469
46.2424 11.7944
46.291 11.69
46.3395 11.6883
46.3881 11.6525
46.4365 11.6302
46.4852 11.5894
46.5337 11.5035
46.5823 11.5013
46.631 11.4375
46.6795 11.3989
46.7282 11.3336
46.7767 11.3323
46.8254 11.2282
46.8739 11.2047
46.9226 11.1781
46.9712 11.1205
47.0199 11.1482
47.0685 11.0826
47.1173 11.0227
47.1658 10.9632
47.2146 10.9441
47.2632 10.8758
47.312 10.8898
47.3606 10.7988
47.4095 10.7969
47.4581 10.7446
47.5069 10.69
47.5556 10.6651
47.6044 10.5557
47.6531 10.5693
47.702 10.5174
47.7507 10.5044
47.7996 10.4458
47.8483 10.441
47.8972 10.3983
47.9461 10.3944
47.9948 10.3109
48.0438 10.279
48.0925 10.2405
48.1415 10.2321
48.1902 10.1527
48.2392 10.1227
48.288 10.1223
48.337 10.0607
48.3858 10.0198
48.4348 9.97673
48.4837 10.0054
48.5327 9.93069
48.5815 9.86609
48.6306 9.89038
48.6795 9.78361
48.7285 9.78517
48.7774 9.74387
48.8265 9.71451
48.8754 9.6794
48.9245 9.66643
48.9734 9.56926
49.0226 9.57355
49.0715 9.52828
49.1206 9.47564
49.1696 9.41433
49.2188 9.39366
49.2679 9.38697
49.3169 9.3374
49.3661 9.30071
49.4151 9.26121
49.4643 9.23304
49.5134 9.22324
49.5626 9.10933
49.6117 9.10908
49.6609 9.10846
49.71 9.04213
49.7592 9.00738
49.8083 8.95371
49.8576 8.98731
49.9067 8.90705
49.956 8.86454
50.0052 8.84784
50.0545 8.83699
50.1036 8.80713
50.153 8.73362
50.2022 8.74727
50.2515 8.67401
50.3007 8.62457
50.3501 8.62045
50.3993 8.5865
50.4487 8.51728
50.498 8.5207
50.5474 8.49522
50.5966 8.43984
50.6461 8.39374
50.6955 8.39654
50.7448 8.36052
50.7943 8.34884
50.8436 8.30424
50.8931 8.22326
50.9424 8.25019
50.9919 8.19113
51.0413 8.17673
51.0908 8.13743
51.1402 8.1023
51.1897 8.06132
51.2391 8.02935
51.2887 8.00462
51.3381 7.93299
51.3877 7.96721
51.4371 7.90738
51.4867 7.84562
51.5362 7.84259
51.5858 7.84868
51.6353 7.77571
51.6849 7.73614
51.7344 7.69077
51.7841 7.688
51.8336 7.64252
51.8833 7.58764
51.9328 7.56159
51.9826 7.53077
52.0323 7.56402
52.0818 7.51213
52.1316 7.4575
52.1812 7.41981
52.231 7.37438
52.2806 7.32489
52.3304 7.32557
52.38 7.29758
52.4298 7.24635
52.4794 7.23824
52.5293 7.19174
52.5789 7.17766
52.6288 7.15704
52.6785 7.12566
52.7284 7.0641
52.7781 7.07143
52.828 7.01851
52.8777 6.95776
52.9276 6.94858
52.9774 6.90492
53.0273 6.9253
53.0771 6.87027
53.1271 6.85089
53.1769 6.80937
53.2269 6.80852
53.2767 6.79177
53.3267 6.70317
53.3765 6.73133
53.4266 6.73114
53.4766 6.6233
53.5265 6.62031
53.5765 6.62796
53.6264 6.60729
53.6765 6.51816
53.7264 6.52377
53.7765 6.49137
53.8265 6.46883
53.8766 6.39793
53.9266 6.39639
53.9767 6.36389
54.0267 6.32831
54.0769 6.31581
54.1269 6.30703
54.1771 6.23089
54.2271 6.20367
54.2773 6.18243
54.3274 6.17436
54.3776 6.11894
54.4277 6.05452
54.478 6.01201
54.528 6.02468
54.5783 5.92654
54.6285 5.93547
54.6788 5.8794
54.7289 5.83389
54.7792 5.7919
54.8296 5.75146
54.8798 5.68776
54.9301 5.64223
54.9803 5.65731
55.0307 5.6041
55.0809 5.55393
55.1314 5.5098
55.1816 5.45386
55.232 5.4511
55.2823 5.40751
55.3328 5.33081
55.383 5.21298
55.4335 5.25517
55.4838 5.13864
55.5344 5.1186
55.5847 5.08026
55.6352 5.03306
55.6856 4.96608
55.7361 5.00202