File: XRD/Ni3Fe_FD0621.xy
TT I
1.27165 7.33171
1.31627 6.92075
1.36089 7.17761
1.40551 6.54013
1.45013 5.52188
1.49476 5.87373
1.53938 5.51504
1.584 5.26913
1.62863 5.77268
1.67325 5.2397
1.71787 4.96031
1.7625 4.76718
1.80712 5.07949
1.85174 4.78037
1.89636 5.0952
1.94099 4.54217
1.98562 4.86076
2.03025 4.71435
2.07487 4.60127
2.11949 4.66875
2.16411 4.54333
2.20874 13.6227
2.25338 22.0665
2.298 5.55838
2.34263 5.0732
2.38725 5.85717
2.43188 6.00687
2.4765 6.64823
2.52115 6.96475
2.56577 6.96965
2.6104 8.45711
2.65503 7.59511
2.69965 7.73659
2.7443 8.33604
2.78893 7.46666
2.83356 8.52624
2.87818 8.45805
2.92281 8.55585
2.96744 9.57522
3.01209 9.73637
3.05672 10.8136
3.10135 11.9608
3.14599 12.7203
3.19062 13.9103
3.23527 14.8617
3.2799 15.3902
3.32454 16.6622
3.36917 18.0876
3.4138 19.323
3.45844 19.7521
3.50309 20.7784
3.54773 22.0911
3.59237 23.8469
3.637 92.2812
3.68164 58.9255
3.7263 26.7754
3.77094 25.8475
3.81558 26.5392
3.86022 27.5767
3.90486 28.859
3.9495 29.4968
3.99416 31.2652
4.0388 32.4465
4.08344 33.4909
4.12809 34.9037
4.17273 37.2599
4.21738 43.0061
4.26204 245.199
4.30669 214.304
4.35133 48.914
4.39598 44.1428
4.44063 54.3561
4.4853 65.5885
4.52995 50.5218
4.5746 51.1501
4.61925 53.5535
4.6639 55.8308
4.70855 58.0936
4.75322 61.0267
4.79788 64.112
4.84253 67.3402
4.88719 71.268
4.93184 75.2483
4.97652 80.9938
5.02118 87.0817
5.06583 94.5904
5.11049 106.509
5.15515 173.26
5.19981 349.896
5.24449 2867.64
5.28916 12623.2
5.33382 2998.57
5.37848 194.414
5.42315 130.072
5.46783 113.793
5.5125 107.209
5.55716 102.961
5.60183 98.8171
5.6465 97.109
5.69117 94.7028
5.73586 92.6194
5.78053 91.9421
5.8252 91.332
5.86988 92.2311
5.91455 94.3795
5.95924 101.785
6.00392 203.715
6.0486 972.447
6.09328 4389.89
6.13795 3514.78
6.18263 254.384
6.22733 94.291
6.27201 83.9941
6.3167 102.103
6.36138 81.0732
6.40606 69.2445
6.45075 67.4972
6.49545 65.7732
6.54014 64.1576
6.58483 63.2673
6.62952 63.1126
6.67421 94.2718
6.71892 144.62
6.76361 69.5838
6.8083 59.121
6.853 57.4999
6.89769 56.8149
6.94239 56.7585
6.98711 56.0373
7.03181 55.803
7.07651 55.5343
7.12121 55.8581
7.16591 55.5716
7.21063 55.6711
7.25533 70.3226
7.30004 179.245
7.34475 91.8122
7.38945 56.6621
7.43416 55.0986
7.47889 54.6493
7.5236 55.1185
7.56831 55.7403
7.61303 57.4398
7.65774 58.0062
7.70247 56.2417
7.74719 56.1552
7.79191 57.0598
7.83663 57.3858
7.88135 58.2713
7.92607 58.9433
7.97081 60.2792
8.01553 60.9199
8.06026 62.6792
8.10498 64.1503
8.14971 73.4088
8.19446 72.5912
8.23919 69.7595
8.28392 71.7955
8.32865 74.2172
8.37339 78.3564
8.41812 85.7836
8.46288 114.244
8.50761 161.696
8.55235 386.266
8.59709 1177.21
8.64183 2190.42
8.68658 992.988
8.73134 170.752
8.77609 100.374
8.82083 93.2782
8.86558 89.9682
8.91033 90.4249
8.9551 91.5058
8.99985 85.7664
9.04461 84.0112
9.08936 82.8012
9.13412 82.0135
9.17888 82.1645
9.22365 83.2077
9.26841 82.3695
9.31318 82.8217
9.35794 82.8459
9.4027 83.1321
9.44749 84.292
9.49226 84.785
9.53703 85.3697
9.5818 87.7688
9.62657 92.0288
9.67134 99.0332
9.71614 93.9161
9.76091 94.5254
9.80569 96.6621
9.85047 99.9878
9.89525 123.964
9.94005 136.417
9.98484 173.372
10.0296 339.869
10.0744 811.115
10.1192 1708.23
10.164 1599.83
10.2088 424.427
10.2536 129.818
10.2984 114.543
10.3432 115.157
10.388 104.947
10.4328 117.282
10.4776 159.036
10.5224 279.763
10.5672 503.172
10.612 494.051
10.6568 208.455
10.7017 97.5367
10.7465 87.4883
10.7913 83.6097
10.8361 81.6616
10.8809 79.2536
10.9257 78.8543
10.9706 79.4319
11.0154 75.2985
11.0602 72.9996
11.105 72.2124
11.1499 76.699
11.1947 83.5335
11.2395 74.6917
11.2844 70.565
11.3292 67.67
11.374 66.405
11.4189 65.7926
11.4637 65.2135
11.5086 65.6991
11.5534 68.4684
11.5983 65.7846
11.6431 64.126
11.688 63.4605
11.7328 63.2866
11.7777 62.9732
11.8225 62.7598
11.8674 62.5327
11.9122 63.0912
11.9571 63.2945
12.002 63.8908
12.0468 67.5669
12.0917 79.1035
12.1366 103.054
12.1814 152.996
12.2263 201.477
12.2712 167.684
12.3161 99.0221
12.3609 71.352
12.4058 65.048
12.4507 64.4771
12.4956 64.6593
12.5405 64.6701
12.5853 65.7092
12.6302 73.5568
12.6751 79.0228
12.72 70.5201
12.7649 67.9734
12.8098 68.8745
12.8547 69.8237
12.8996 71.1178
12.9445 72.4539
12.9894 74.2311
13.0343 76.1731
13.0792 78.7545
13.1242 87.6314
13.1691 111.066
13.214 148.312
13.2589 237.66
13.3038 368.725
13.3487 427.007
13.3937 273.134
13.4386 128.883
13.4835 105.534
13.5285 119.566
13.5734 158.628
13.6183 248.035
13.6633 345.818
13.7082 342.762
13.7531 194.211
13.7981 100.229
13.843 81.9711
13.888 80.0065
13.9329 77.4075
13.9779 76.5305
14.0228 74.547
14.0678 72.9585
14.1127 72.7596
14.1577 72.8755
14.2027 71.7645
14.2476 70.635
14.2926 70.8996
14.3376 71.8059
14.3825 70.6985
14.4275 69.2975
14.4725 69.1253
14.5175 69.1823
14.5624 68.9769
14.6074 71.6719
14.6524 71.9264
14.6974 70.6568
14.7424 71.9317
14.7874 78.4831
14.8324 89.0498
14.8774 110.811
14.9224 153.846
14.9674 205.933
15.0124 216.804
15.0574 152.13
15.1024 93.0989
15.1474 72.9754
15.1924 70.8012
15.2374 71.3649
15.2824 70.5595
15.3274 68.45
15.3725 67.4256
15.4175 66.6811
15.4625 66.5032
15.5076 66.7327
15.5526 66.4065
15.5976 66.0388
15.6426 66.9385
15.6877 72.0712
15.7327 79.5432
15.7778 94.9362
15.8228 126.278
15.8679 168.648
15.9129 191.516
15.958 156.452
16.003 98.9396
16.0481 69.2427
16.0931 65.1134
16.1382 63.157
16.1833 60.9536
16.2283 59.3975
16.2734 58.6042
16.3185 59.1598
16.3636 59.7707
16.4086 58.2975
16.4537 56.4505
16.4988 56.0551
16.5439 55.8248
16.589 55.5784
16.6341 54.9445
16.6792 54.8119
16.7243 55.1186
16.7694 55.3948
16.8145 54.8638
16.8596 55.4064
16.9047 57.1125
16.9498 57.2718
16.9949 56.1574
17.04 55.9401
17.0851 57.1015
17.1302 59.0136
17.1754 61.9823
17.2205 67.046
17.2656 74.5194
17.3108 82.8526
17.3559 82.9522
17.401 72.9294
17.4462 63.1927
17.4913 59.6488
17.5365 59.3933
17.5815 59.3714
17.6268 59.9236
17.6718 60.758
17.7171 61.0515
17.7622 61.6383
17.8074 62.0555
17.8525 64.3041
17.8977 68.3655
17.9428 73.8266
17.9881 82.6221
18.0331 99.8339
18.0784 121.125
18.1237 138.633
18.1688 132.217
18.214 105.229
18.2591 87.7571
18.3044 90.72
18.3495 99.9832
18.3948 105.865
18.4399 97.3097
18.4852 78.7746
18.5303 66.8355
18.5756 62.5469
18.6207 61.5809
18.666 60.8599
18.7112 60.0101
18.7565 59.3183
18.8016 58.814
18.8469 58.3501
18.892 57.9738
18.9374 57.7085
18.9825 57.2422
19.0278 57.2637
19.073 57.3137
19.1183 57.5758
19.1635 58.4939
19.2088 59.8769
19.254 62.1785
19.2993 66.7535
19.3447 72.9068
19.3898 76.5862
19.4352 72.6506
19.4804 64.1149
19.5257 57.2299
19.5709 54.4836
19.6163 54.2464
19.6615 54.0926
19.7068 53.5252
19.752 53.3539
19.7974 53.8445
19.8426 54.7252
19.888 55.2128
19.9332 56.6261
19.9786 58.9732
20.0238 62.5979
20.0692 67.4381
20.1144 69.7774
20.1598 68.394
20.205 64.0307
20.2504 62.578
20.2957 64.0911
20.3411 65.9244
20.3863 64.638
20.4318 59.0923
20.477 54.1457
20.5224 51.9388
20.5677 51.4327
20.6131 50.5004
20.6586 50.0084
20.7038 49.816
20.7493 49.3509
20.7945 49.357
20.84 49.0439
20.8853 49.0372
20.9307 48.7414
20.976 48.9189
21.0215 48.623
21.0668 49.4224
21.1122 49.5405
21.1575 50.4033
21.203 50.9409
21.2483 51.5136
21.2938 51.709
21.3391 50.2545
21.3846 49.3239
21.4299 48.6633
21.4754 48.6073
21.5207 48.7323
21.5662 49.078
21.6116 49.2966
21.6571 50.0135
21.7024 51.0325
21.7479 52.7113
21.7933 55.4197
21.8388 59.254
21.8843 62.5521
21.9297 64.6664
21.9752 63.4255
22.0206 60.1948
22.0661 57.0444
22.1115 56.2809
22.157 56.162
22.2024 54.6707
22.248 51.8774
22.2933 50.1177
22.3389 49.3999
22.3843 49.2144
22.4299 49.2178
22.4753 49.1761
22.5208 48.8147
22.5662 48.6578
22.6118 48.8696
22.6572 48.8468
22.7028 49.493
22.7483 49.8217
22.7939 50.5994
22.8393 52.0236
22.8849 54.3113
22.9303 56.3421
22.9759 57.8279
23.0214 57.428
23.067 54.9998
23.1126 51.6079
23.1581 49.5766
23.2037 49.256
23.2492 49.1211
23.2948 48.9554
23.3403 49.2672
23.3859 49.9167
23.4314 51.0532
23.477 52.8178
23.5225 54.9499
23.5682 56.9195
23.6137 57.9903
23.6593 55.8953
23.7048 52.2224
23.7505 48.6963
23.796 47.0511
23.8417 46.2477
23.8872 45.7738
23.9329 45.5007
23.9784 45.0917
24.0241 44.8476
24.0697 44.7293
24.1154 44.3195
24.1609 44.1118
24.2066 44.033
24.2522 43.9904
24.2979 43.7129
24.3434 43.6131
24.3892 43.3299
24.4349 43.3788
24.4805 43.1241
24.5262 43.2935
24.5718 43.191
24.6175 43.1217
24.6631 43.0222
24.7089 42.8905
24.7545 42.5726
24.8002 42.4987
24.8458 42.4774
24.8916 42.188
24.9372 42.2809
24.983 42.7008
25.0286 43.0441
25.0744 43.4331
25.12 44.0173
25.1658 44.5629
25.2114 44.7286
25.2572 44.9831
25.3029 45.1497
25.3487 45.1822
25.3943 44.8202
25.4402 43.7989
25.4858 42.7314
25.5316 41.6537
25.5773 41.0991
25.6231 41.0781
25.669 40.7819
25.7147 40.6549
25.7605 40.54
25.8062 40.7324
25.8521 40.8342
25.8977 40.8195
25.9436 41.3063
25.9893 41.1274
26.0352 41.7199
26.0809 41.7236
26.1268 41.877
26.1725 41.6516
26.2184 41.1057
26.2641 40.5625
26.31 40.2764
26.3557 40.3386
26.4017 40.4083
26.4474 40.5544
26.4933 40.9829
26.5391 41.5175
26.585 41.8316
26.6308 42.2265
26.6767 42.1923
26.7225 42.1341
26.7684 41.7445
26.8142 41.1519
26.8601 40.6245
26.9059 40.1816
26.9519 39.744
26.9979 39.4595
27.0437 39.0899
27.0896 38.9256
27.1354 38.941
27.1814 38.7517
27.2272 38.7044
27.2732 38.639
27.3191 38.5317
27.3651 38.6968
27.4109 38.6403
27.4569 38.6057
27.5027 38.7011
27.5488 38.7517
27.5946 38.6915
27.6407 38.4277
27.6865 38.2029
27.7326 38.1786
27.7784 38.013
27.8245 38.0232
27.8703 38.1999
27.9164 38.4457
27.9623 38.5768
28.0084 38.9084
28.0543 39.3065
28.1003 39.1488
28.1462 39.1557
28.1923 38.7873
28.2384 38.065
28.2843 37.7911
28.3304 37.5279
28.3764 36.9433
28.4225 36.6121
28.4684 36.438
28.5145 36.2063
28.5605 36.0197
28.6066 35.9075
28.6526 35.8688
28.6987 35.7386
28.7447 35.7198
28.7908 35.7255
28.8368 35.7029
28.8829 35.5506
28.9289 35.4844
28.9751 35.29
29.0211 35.2104
29.0673 34.8861
29.1133 34.7755
29.1595 34.6458
29.2055 34.4037
29.2517 34.5424
29.2977 34.4258
29.3439 34.4583
29.3899 34.4415
29.4361 34.2392
29.4824 34.2013
29.5284 33.9603
29.5746 33.6798
29.6207 33.2934
29.6669 33.2174
29.713 33.1873
29.7593 33.019
29.8053 33.1457
29.8516 32.992
29.8977 32.9018
29.9439 32.7892
29.99 32.7117
30.0363 32.5595
30.0824 32.6801
30.1287 32.6427
30.1748 32.6027
30.2211 32.5134
30.2673 32.4148
30.3136 32.5638
30.3597 32.4739
30.406 32.4556
30.4522 32.2741
30.4985 32.1761
30.5447 32.2884
30.591 32.3411
30.6372 32.4023
30.6835 32.2638
30.7297 32.3257
30.7761 32.3816
30.8224 32.1004
30.8686 32.0298
30.915 31.8227
30.9612 31.6959
31.0076 31.4212
31.0538 31.288
31.1002 31.3357
31.1464 31.0583
31.1928 31.0859
31.2391 31.1104
31.2855 31.0099
31.3317 31.005
31.3781 31.0874
31.4244 31.0295
31.4708 31.0302
31.5171 30.9356
31.5636 30.9248
31.6098 30.6978
31.6563 30.5622
31.7026 30.4376
31.7491 30.1262
31.7953 30.3524
31.8418 30.349
31.8881 30.2659
31.9346 30.2584
31.9809 30.2104
32.0275 30.0418
32.074 30.0012
32.1203 29.7331
32.1668 29.6985
32.2132 29.5997
32.2597 29.4055
32.306 29.3296
32.3526 29.2091
32.399 29.0724
32.4455 28.9242
32.4919 28.8577
32.5385 28.8258
32.5848 28.6983
32.6314 28.6297
32.6778 28.4829
32.7244 28.4475
32.7708 28.2803
32.8174 28.2697
32.8638 28.159
32.9104 28.3073
32.9569 28.1147
33.0035 28.0361
33.0499 27.9381
33.0966 27.9321
33.143 28.0597
33.1897 27.9037
33.2361 27.7406
33.2828 27.8039
33.3293 27.5425
33.3759 27.518
33.4226 27.3125
33.4691 27.1684
33.5158 27.2189
33.5623 27.0453
33.609 26.8973
33.6555 26.7769
33.7022 26.6996
33.7487 26.6531
33.7954 26.685
33.842 26.5016
33.8887 26.4948
33.9353 26.3961
33.982 26.3371
34.0286 26.1533
34.0753 26.1218
34.1219 26.1098
34.1687 25.8529
34.2152 25.9846
34.262 25.8846
34.3086 25.6898
34.3554 25.6604
34.402 25.5836
34.4488 25.4919
34.4954 25.368
34.5422 25.2497
34.5889 25.2606
34.6357 25.0742
34.6825 25.1067
34.7292 24.9803
34.776 24.9051
34.8227 24.8516
34.8695 24.7723
34.9162 24.7553
34.9631 24.601
35.0098 24.6124
35.0566 24.4795
35.1033 24.4408
35.1502 24.3731
35.1969 24.2897
35.2438 24.3515
35.2906 24.2092
35.3375 24.2617
35.3842 24.1125
35.4311 24.0524
35.4779 24.0763
35.5248 24.0247
35.5716 23.8558
35.6185 23.855
35.6653 23.7489
35.7123 23.7347
35.759 23.5477
35.806 23.4703
35.8528 23.3417
35.8998 23.3395
35.9468 23.2014
35.9936 23.2569
36.0406 23.1091
36.0874 23.0369
36.1345 23.0513
36.1813 22.9125
36.2283 22.8912
36.2752 22.7647
36.3222 22.7566
36.3691 22.6801
36.4161 22.6257
36.463 22.493
36.5101 22.5574
36.557 22.4689
36.6041 22.2831
36.651 22.3351
36.6981 22.1824
36.745 22.1504
36.7921 22.1217
36.839 22.0317
36.8861 21.9449
36.9331 21.8062
36.9802 21.7468
37.0272 21.7685
37.0743 21.6255
37.1213 21.5449
37.1684 21.5288
37.2154 21.4281
37.2626 21.4229
37.3098 21.3017
37.3568 21.3092
37.404 21.1868
37.451 21.076
37.4982 21.0239
37.5452 20.8966
37.5924 20.9583
37.6395 20.992
37.6867 20.8353
37.7337 20.6636
37.781 20.6506
37.8281 20.65
37.8753 20.5079
37.9224 20.4737
37.9697 20.3811
38.0168 20.331
38.064 20.272
38.1111 20.2283
38.1584 20.0564
38.2056 20.0428
38.2529 20.0794
38.3 20.011
38.3473 19.9765
38.3945 19.7343
38.4418 19.8197
38.489 19.7367
38.5363 19.5901
38.5837 19.575
38.6309 19.5095
38.6782 19.4821
38.7254 19.3697
38.7728 19.34
38.82 19.2977
38.8674 19.2193
38.9146 19.1405
38.9621 19.0652
39.0093 19.0344
39.0567 18.9861
39.104 18.8957
39.1514 18.7942
39.1987 18.7667
39.2461 18.7474
39.2934 18.6618
39.3409 18.5882
39.3882 18.4952
39.4356 18.4829
39.483 18.4389
39.5304 18.3759
39.5778 18.342
39.6253 18.2827
39.6726 18.1338
39.7201 18.163
39.7675 18.0494
39.815 18.057
39.8624 17.9427
39.9099 17.9642
39.9575 17.8088
40.0049 17.8305
40.0525 17.7161
40.0999 17.641
40.1474 17.6765
40.1949 17.5093
40.2425 17.4836
40.2899 17.4548
40.3375 17.4181
40.385 17.3414
40.4326 17.2901
40.48 17.1942
40.5277 17.2262
40.5752 17.1306
40.6228 17.0505
40.6703 16.986
40.718 16.9658
40.7655 16.9106
40.8132 16.8471
40.8607 16.8674
40.9084 16.8132
40.9559 16.7141
41.0036 16.662
41.0512 16.5325
41.0989 16.5563
41.1465 16.4052
41.1942 16.4452
41.242 16.3737
41.2896 16.3346
41.3373 16.2234
41.3849 16.2242
41.4327 16.1325
41.4803 16.1065
41.5281 16.0435
41.5758 15.9499
41.6236 15.9411
41.6712 15.8849
41.7191 15.8575
41.7667 15.768
41.8146 15.7595
41.8622 15.6907
41.9101 15.5964
41.9578 15.5154
42.0057 15.509
42.0534 15.4561
42.1013 15.3963
42.149 15.3411
42.1969 15.2854
42.2446 15.2574
42.2925 15.1973
42.3403 15.1496
42.3882 15.1317
42.436 15.0914
42.4839 14.9808
42.5319 14.9283
42.5797 14.9013
42.6277 14.8448
42.6755 14.8199
42.7235 14.7287
42.7713 14.7208
42.8193 14.6201
42.8671 14.5978
42.9152 14.5409
42.963 14.5175
43.0111 14.4307
43.0589 14.4349
43.107 14.3203
43.1549 14.3024
43.2029 14.2367
43.2508 14.248
43.2989 14.1186
43.3468 14.0496
43.3949 14.0845
43.4429 13.9932
43.491 13.922
43.5389 13.8917
43.5871 13.9383
43.635 13.763
43.6832 13.78
43.7312 13.7172
43.7793 13.7021
43.8273 13.6096
43.8755 13.565
43.9237 13.529
43.9717 13.4719
44.0199 13.4688
44.068 13.4205
44.1162 13.3248
44.1642 13.3374
44.2125 13.2589
44.2606 13.203
44.3088 13.1721
44.3569 13.112
44.4052 13.1024
44.4533 13.0184
44.5016 12.9821
44.5497 12.9189
44.598 12.8975
44.6461 12.8214
44.6945 12.7949
44.7426 12.766
44.791 12.6685
44.8391 12.7125
44.8875 12.5793
44.9357 12.5756
44.984 12.5609
45.0322 12.4681
45.0806 12.4347
45.1288 12.4179
45.1773 12.3518
45.2257 12.3372
45.2739 12.2572
45.3224 12.2135
45.3706 12.2
45.4191 12.1239
45.4673 12.0912
45.5158 12.0845
45.5641 12.0039
45.6126 11.9727
45.6609 11.8751
45.7094 11.8517
45.7577 11.8679
45.8063 11.718
45.8546 11.783
45.9031 11.6701
45.9515 11.6625
46.0001 11.5922
46.0484 11.6199
46.097 11.5466
46.1454 11.5361
46.194 11.4786
46.2424 11.4133
46.291 11.3796
46.3395 11.3556
46.3881 11.3248
46.4365 11.2933
46.4852 11.1873
46.5337 11.1748
46.5823 11.1279
46.631 11.1397
46.6795 11.0778
46.7282 11.0229
46.7767 10.9986
46.8254 10.9265
46.8739 10.9015
46.9226 10.8232
46.9712 10.7899
47.0199 10.7925
47.0685 10.7274
47.1173 10.7015
47.1658 10.67
47.2146 10.5882
47.2632 10.5778
47.312 10.5759
47.3606 10.4882
47.4095 10.4591
47.4581 10.4205
47.5069 10.3952
47.5556 10.3545
47.6044 10.2984
47.6531 10.2738
47.702 10.2046
47.7507 10.1868
47.7996 10.1168
47.8483 10.1366
47.8972 10.0553
47.9461 10.0629
47.9948 9.96866
48.0438 9.99969
48.0925 9.96165
48.1415 9.88584
48.1902 9.8406
48.2392 9.82868
48.288 9.80004
48.337 9.76763
48.3858 9.76126
48.4348 9.67699
48.4837 9.65956
48.5327 9.60201
48.5815 9.6074
48.6306 9.55132
48.6795 9.54585
48.7285 9.4602
48.7774 9.42408
48.8265 9.44348
48.8754 9.39273
48.9245 9.35021
48.9734 9.31675
49.0226 9.26271
49.0715 9.21334
49.1206 9.19711
49.1696 9.13956
49.2188 9.10743
49.2679 9.0618
49.3169 9.06932
49.3661 9.01551
49.4151 8.95419
49.4643 8.93576
49.5134 8.93273
49.5626 8.87899
49.6117 8.85565
49.6609 8.79165
49.71 8.76535
49.7592 8.74937
49.8083 8.69678
49.8576 8.70834
49.9067 8.59685
49.956 8.63458
50.0052 8.58636
50.0545 8.5636
50.1036 8.5367
50.153 8.48311
50.2022 8.48674
50.2515 8.43132
50.3007 8.36888
50.3501 8.31956
50.3993 8.28072
50.4487 8.30533
50.498 8.25039
50.5474 8.21593
50.5966 8.17941
50.6461 8.14421
50.6955 8.17209
50.7448 8.09432
50.7943 8.07554
50.8436 8.01512
50.8931 8.00148
50.9424 7.96716
50.9919 7.93729
51.0413 7.90669
51.0908 7.89094
51.1402 7.84204
51.1897 7.82705
51.2391 7.77419
51.2887 7.73397
51.3381 7.72539
51.3877 7.69324
51.4371 7.62439
51.4867 7.60437
51.5362 7.59569
51.5858 7.56318
51.6353 7.57341
51.6849 7.46975
51.7344 7.4971
51.7841 7.44745
51.8336 7.38311
51.8833 7.37941
51.9328 7.33565
51.9826 7.2954
52.0323 7.29025
52.0818 7.29662
52.1316 7.2647
52.1812 7.22536
52.231 7.17266
52.2806 7.09537
52.3304 7.10267
52.38 7.06968
52.4298 7.07309
52.4794 7.01196
52.5293 6.9611
52.5789 6.9887
52.6288 6.96216
52.6785 6.89151
52.7284 6.91505
52.7781 6.88693
52.828 6.80503
52.8777 6.76043
52.9276 6.77195
52.9774 6.6973
53.0273 6.72955
53.0771 6.68214
53.1271 6.61141
53.1769 6.60851
53.2269 6.59896
53.2767 6.57272
53.3267 6.52873
53.3765 6.53297
53.4266 6.50501
53.4766 6.51144
53.5265 6.40129
53.5765 6.41002
53.6264 6.39562
53.6765 6.32003
53.7264 6.2754
53.7765 6.3447
53.8265 6.26072
53.8766 6.2415
53.9266 6.22168
53.9767 6.19083
54.0267 6.14425
54.0769 6.08751
54.1269 6.10539
54.1771 6.02422
54.2271 6.02079
54.2773 5.99454
54.3274 6.00864
54.3776 5.97202
54.4277 5.8881
54.478 5.92867
54.528 5.84205
54.5783 5.77937
54.6285 5.76192
54.6788 5.71357
54.7289 5.65617
54.7792 5.66688
54.8296 5.58002
54.8798 5.54496
54.9301 5.50937
54.9803 5.47833
55.0307 5.44161
55.0809 5.41353
55.1314 5.38356
55.1816 5.34382
55.232 5.25101
55.2823 5.24074
55.3328 5.17736
55.383 5.14901
55.4335 5.12388
55.4838 4.99975
55.5344 4.96705
55.5847 4.94164
55.6352 4.9196
55.6856 4.88925
55.7361 4.8742