File: XRD/Ni3Fe_FD0569.xy
TT I
1.27165 7.4108
1.31627 6.86977
1.36089 6.57025
1.40551 6.80386
1.45013 6.12321
1.49476 5.23892
1.53938 5.94371
1.584 5.33734
1.62863 5.5257
1.67325 4.91853
1.71787 5.03791
1.7625 4.6828
1.80712 4.15044
1.85174 4.64822
1.89636 4.79261
1.94099 4.5295
1.98562 4.20077
2.03025 4.66487
2.07487 4.50688
2.11949 4.70244
2.16411 4.60161
2.20874 10.5952
2.25338 15.2843
2.298 5.04634
2.34263 5.16605
2.38725 5.43571
2.43188 5.69039
2.4765 6.46439
2.52115 6.299
2.56577 6.85274
2.6104 8.10848
2.65503 7.01108
2.69965 7.88114
2.7443 7.54846
2.78893 8.07764
2.83356 8.04895
2.87818 8.79661
2.92281 8.80497
2.96744 9.15487
3.01209 10.1144
3.05672 11.0573
3.10135 12.4017
3.14599 12.7153
3.19062 14.5638
3.23527 14.7854
3.2799 15.3535
3.32454 17.054
3.36917 17.6112
3.4138 18.7641
3.45844 19.5227
3.50309 20.9541
3.54773 21.3699
3.59237 23.3992
3.637 63.0667
3.68164 43.8053
3.7263 25.6992
3.77094 25.8929
3.81558 26.9603
3.86022 27.5145
3.90486 28.1615
3.9495 29.8524
3.99416 30.7047
4.0388 31.7703
4.08344 33.2792
4.12809 34.2993
4.17273 36.3791
4.21738 40.619
4.26204 161.946
4.30669 138.544
4.35133 45.8173
4.39598 44.5134
4.44063 50.2963
4.4853 58.3079
4.52995 51.6285
4.5746 52.9299
4.61925 53.9094
4.6639 56.1417
4.70855 58.4538
4.75322 61.4469
4.79788 65.5102
4.84253 67.9164
4.88719 72.9806
4.93184 76.589
4.97652 81.5199
5.02118 88.7078
5.06583 96.4239
5.11049 108.787
5.15515 163.937
5.19981 450.249
5.24449 3211.3
5.28916 12299.5
5.33382 2837.02
5.37848 196.856
5.42315 131.042
5.46783 115.842
5.5125 108.036
5.55716 103.307
5.60183 99.0774
5.6465 97.5599
5.69117 95.6269
5.73586 93.9423
5.78053 94.6552
5.8252 94.1627
5.86988 96.1334
5.91455 96.8257
5.95924 108.21
6.00392 261.507
6.0486 1110.85
6.09328 4483.07
6.13795 3374.22
6.18263 250.146
6.22733 93.8829
6.27201 82.5284
6.3167 91.309
6.36138 77.1083
6.40606 69.4419
6.45075 67.9531
6.49545 65.7073
6.54014 64.2098
6.58483 62.9963
6.62952 62.6333
6.67421 80.8015
6.71892 108.565
6.76361 64.5673
6.8083 58.5124
6.853 57.8921
6.89769 56.8515
6.94239 56.8774
6.98711 55.8667
7.03181 55.6045
7.07651 55.4981
7.12121 54.8511
7.16591 55.455
7.21063 55.165
7.25533 64.2802
7.30004 127.619
7.34475 76.02
7.38945 55.5577
7.43416 54.2969
7.47889 54.3393
7.5236 54.7081
7.56831 55.5352
7.61303 56.1929
7.65774 57.1679
7.70247 56.2777
7.74719 56.3718
7.79191 56.7342
7.83663 57.2684
7.88135 58.0895
7.92607 58.8722
7.97081 60.1361
8.01553 60.9692
8.06026 62.524
8.10498 64.2417
8.14971 70.8553
8.19446 70.903
8.23919 69.9301
8.28392 72.9327
8.32865 74.6381
8.37339 79.0627
8.41812 85.4819
8.46288 108.913
8.50761 191.457
8.55235 437.571
8.59709 1233.38
8.64183 2172.57
8.68658 946.49
8.73134 159.444
8.77609 99.7303
8.82083 93.6321
8.86558 90.5825
8.91033 90.2567
8.9551 89.858
8.99985 85.5883
9.04461 84.3897
9.08936 83.8131
9.13412 82.5824
9.17888 82.9287
9.22365 83.2828
9.26841 82.925
9.31318 83.5846
9.35794 84.1889
9.4027 84.4497
9.44749 84.9829
9.49226 85.5005
9.53703 86.4383
9.5818 88.4327
9.62657 92.3093
9.67134 96.1607
9.71614 94.1389
9.76091 95.043
9.80569 98.1232
9.85047 101.174
9.89525 116.956
9.94005 132.761
9.98484 205.412
10.0296 380.865
10.0744 857.176
10.1192 1704.28
10.164 1510.54
10.2088 372.345
10.2536 125.762
10.2984 112.019
10.3432 111.812
10.388 106.299
10.4328 126.421
10.4776 171.108
10.5224 298.364
10.5672 524.506
10.612 504.545
10.6568 192.511
10.7017 95.7987
10.7465 87.0947
10.7913 83.6525
10.8361 81.2008
10.8809 79.4061
10.9257 78.3276
10.9706 78.1267
11.0154 74.925
11.0602 73.145
11.105 72.0595
11.1499 74.0668
11.1947 77.6304
11.2395 72.0131
11.2844 69.6381
11.3292 67.6206
11.374 66.4477
11.4189 66.1457
11.4637 65.2441
11.5086 65.2534
11.5534 66.7118
11.5983 65.1148
11.6431 63.7075
11.688 63.1812
11.7328 63.2914
11.7777 62.9301
11.8225 63.0622
11.8674 62.7977
11.9122 63.2129
11.9571 63.4246
12.002 64.8189
12.0468 70.0663
12.0917 81.8312
12.1366 106.588
12.1814 156.342
12.2263 201.735
12.2712 159.417
12.3161 90.1455
12.3609 68.4047
12.4058 64.8198
12.4507 64.5884
12.4956 64.9414
12.5405 65.029
12.5853 65.6461
12.6302 70.3088
12.6751 73.8119
12.72 68.9416
12.7649 68.1
12.8098 68.9589
12.8547 70.0824
12.8996 71.4691
12.9445 73.2508
12.9894 75.2311
13.0343 76.8749
13.0792 80.9062
13.1242 93.7826
13.1691 117.439
13.214 158.038
13.2589 250.64
13.3038 373.72
13.3487 422.614
13.3937 252.639
13.4386 121.599
13.4835 110.323
13.5285 126.541
13.5734 167.629
13.6183 257.206
13.6633 354.437
13.7082 335.524
13.7531 181.251
13.7981 96.6677
13.843 82.3636
13.888 80.1252
13.9329 77.8474
13.9779 76.4307
14.0228 74.9246
14.0678 73.6482
14.1127 73.2262
14.1577 72.4145
14.2027 71.6086
14.2476 70.9985
14.2926 70.6766
14.3376 71.4289
14.3825 70.3963
14.4275 69.3071
14.4725 69.3103
14.5175 69.2728
14.5624 69.4155
14.6074 70.8636
14.6524 71.6036
14.6974 71.0501
14.7424 74.4797
14.7874 81.8029
14.8324 92.5986
14.8774 116.002
14.9224 157.888
14.9674 209.297
15.0124 217.246
15.0574 144.614
15.1024 88.7144
15.1474 72.6365
15.1924 70.8191
15.2374 70.5819
15.2824 69.9394
15.3274 68.1825
15.3725 67.2457
15.4175 66.7575
15.4625 66.4135
15.5076 66.713
15.5526 66.7779
15.5976 66.6311
15.6426 68.7879
15.6877 74.7231
15.7327 82.6974
15.7778 99.0743
15.8228 131.042
15.8679 172.495
15.9129 194.318
15.958 151.596
16.003 94.3142
16.0481 67.6451
16.0931 63.796
16.1382 62.1631
16.1833 60.6663
16.2283 59.3544
16.2734 58.7241
16.3185 58.5686
16.3636 58.7057
16.4086 57.6573
16.4537 56.6448
16.4988 55.7956
16.5439 55.6272
16.589 55.5425
16.6341 55.294
16.6792 54.8097
16.7243 55.162
16.7694 55.1143
16.8145 55.0206
16.8596 55.4217
16.9047 56.298
16.9498 56.5364
16.9949 56.0267
17.04 56.5974
17.0851 57.8429
17.1302 59.5495
17.1754 62.6184
17.2205 67.8918
17.2656 75.2056
17.3108 82.7467
17.3559 82.0906
17.401 71.0443
17.4462 62.2338
17.4913 59.5834
17.5365 59.5772
17.5815 59.6342
17.6268 60.0833
17.6718 60.6788
17.7171 61.3404
17.7622 61.9231
17.8074 62.9997
17.8525 65.9715
17.8977 69.8699
17.9428 75.7327
17.9881 85.1505
18.0331 102.646
18.0784 123.811
18.1237 141.486
18.1688 133.081
18.214 102.898
18.2591 87.3352
18.3044 92.0059
18.3495 101.377
18.3948 106.238
18.4399 95.3916
18.4852 76.8065
18.5303 65.9496
18.5756 62.5237
18.6207 61.6433
18.666 60.7684
18.7112 60.1285
18.7565 59.1698
18.8016 59.194
18.8469 58.5506
18.892 58.0428
18.9374 57.632
18.9825 57.4989
19.0278 57.0651
19.073 57.5907
19.1183 57.8783
19.1635 58.6196
19.2088 60.2011
19.254 63.0244
19.2993 67.412
19.3447 72.915
19.3898 76.4472
19.4352 72.0162
19.4804 63.2051
19.5257 56.7052
19.5709 54.4644
19.6163 54.4907
19.6615 54.125
19.7068 53.5404
19.752 53.7305
19.7974 54.0365
19.8426 54.9571
19.888 55.5091
19.9332 57.0892
19.9786 59.5468
20.0238 63.4609
20.0692 67.9239
20.1144 70.5757
20.1598 68.5444
20.205 63.973
20.2504 62.6521
20.2957 64.15
20.3411 65.887
20.3863 64.1352
20.4318 58.2403
20.477 53.5315
20.5224 51.766
20.5677 51.1601
20.6131 50.5147
20.6586 50.192
20.7038 49.6544
20.7493 49.4714
20.7945 49.2351
20.84 49.0756
20.8853 49.0618
20.9307 48.9679
20.976 49.1365
21.0215 49.1222
21.0668 49.3461
21.1122 49.8104
21.1575 50.4609
21.203 51.0898
21.2483 51.6858
21.2938 51.7104
21.3391 50.2305
21.3846 49.33
21.4299 48.8712
21.4754 48.8767
21.5207 49.2592
21.5662 49.1921
21.6116 49.8454
21.6571 50.6014
21.7024 51.6148
21.7479 53.5231
21.7933 56.132
21.8388 59.6727
21.8843 63.2791
21.9297 65.1063
21.9752 63.4354
22.0206 59.7987
22.0661 56.719
22.1115 56.3536
22.157 56.0557
22.2024 54.3798
22.248 51.6918
22.2933 50.1558
22.3389 49.3125
22.3843 49.1878
22.4299 48.998
22.4753 49.0683
22.5208 48.851
22.5662 48.7852
22.6118 49.1844
22.6572 49.4661
22.7028 49.7825
22.7483 50.2164
22.7939 51.007
22.8393 52.7552
22.8849 54.6968
22.9303 56.6805
22.9759 58.2732
23.0214 57.6869
23.067 54.4878
23.1126 51.2704
23.1581 49.4036
23.2037 49.1426
23.2492 49.2895
23.2948 49.2827
23.3403 49.6004
23.3859 50.4043
23.4314 51.4681
23.477 53.3562
23.5225 55.3588
23.5682 57.3784
23.6137 58.0393
23.6593 55.7446
23.7048 51.4931
23.7505 48.4469
23.796 46.9171
23.8417 46.2676
23.8872 45.7671
23.9329 45.6736
23.9784 45.3046
24.0241 44.9878
24.0697 44.7339
24.1154 44.4165
24.1609 44.2851
24.2066 44.204
24.2522 44.1604
24.2979 43.6023
24.3434 43.6641
24.3892 43.3282
24.4349 43.4138
24.4805 43.1357
24.5262 43.3802
24.5718 43.1805
24.6175 43.2304
24.6631 43.0566
24.7089 42.6618
24.7545 42.7166
24.8002 42.6329
24.8458 42.5454
24.8916 42.342
24.9372 42.5111
24.983 42.988
25.0286 43.285
25.0744 43.8011
25.12 44.1212
25.1658 44.607
25.2114 44.9257
25.2572 45.0185
25.3029 45.1969
25.3487 45.1284
25.3943 44.8517
25.4402 43.6257
25.4858 42.7661
25.5316 41.6012
25.5773 41.1007
25.6231 41.1112
25.669 40.7514
25.7147 40.8245
25.7605 40.7673
25.8062 40.6463
25.8521 40.9656
25.8977 40.8713
25.9436 41.2552
25.9893 41.4691
26.0352 41.8658
26.0809 41.8532
26.1268 42.0419
26.1725 41.5495
26.2184 40.9626
26.2641 40.5615
26.31 40.4007
26.3557 40.4728
26.4017 40.4512
26.4474 40.7535
26.4933 41.0458
26.5391 41.5612
26.585 42.1504
26.6308 42.4115
26.6767 42.4696
26.7225 42.2437
26.7684 41.6106
26.8142 41.1342
26.8601 40.7217
26.9059 40.2575
26.9519 39.814
26.9979 39.3426
27.0437 39.201
27.0896 39.0734
27.1354 39.0424
27.1814 39.0039
27.2272 38.8675
27.2732 38.7408
27.3191 38.6334
27.3651 38.6878
27.4109 38.6487
27.4569 38.8136
27.5027 38.7735
27.5488 38.7979
27.5946 38.6357
27.6407 38.4686
27.6865 38.3442
27.7326 38.0856
27.7784 38.1531
27.8245 38.0282
27.8703 38.245
27.9164 38.5825
27.9623 38.7964
28.0084 39.0218
28.0543 39.2885
28.1003 39.197
28.1462 38.949
28.1923 38.6815
28.2384 38.1905
28.2843 37.8849
28.3304 37.474
28.3764 36.8837
28.4225 36.5806
28.4684 36.549
28.5145 36.2449
28.5605 36.1133
28.6066 35.9024
28.6526 35.8971
28.6987 35.8763
28.7447 35.7976
28.7908 35.6432
28.8368 35.6261
28.8829 35.5289
28.9289 35.5421
28.9751 35.4102
29.0211 35.258
29.0673 34.8292
29.1133 34.8129
29.1595 34.5572
29.2055 34.6372
29.2517 34.6542
29.2977 34.595
29.3439 34.4336
29.3899 34.4081
29.4361 34.3387
29.4824 34.1752
29.5284 33.9726
29.5746 33.6749
29.6207 33.2987
29.6669 33.3488
29.713 33.18
29.7593 33.0604
29.8053 33.1571
29.8516 33.0312
29.8977 32.977
29.9439 32.8247
29.99 32.8963
30.0363 32.6891
30.0824 32.7962
30.1287 32.5038
30.1748 32.7035
30.2211 32.7687
30.2673 32.5142
30.3136 32.641
30.3597 32.4524
30.406 32.3145
30.4522 32.3491
30.4985 32.2171
30.5447 32.3964
30.591 32.399
30.6372 32.3773
30.6835 32.4022
30.7297 32.4172
30.7761 32.3774
30.8224 32.257
30.8686 31.9981
30.915 31.7993
30.9612 31.7187
31.0076 31.5446
31.0538 31.3795
31.1002 31.4011
31.1464 31.1393
31.1928 31.2106
31.2391 31.2519
31.2855 31.0313
31.3317 31.115
31.3781 31.1693
31.4244 31.0565
31.4708 31.0082
31.5171 30.999
31.5636 30.9929
31.6098 30.7418
31.6563 30.5247
31.7026 30.4345
31.7491 30.3859
31.7953 30.2809
31.8418 30.3737
31.8881 30.3474
31.9346 30.2859
31.9809 30.155
32.0275 30.1489
32.074 30.0134
32.1203 29.8236
32.1668 29.6992
32.2132 29.5683
32.2597 29.4213
32.306 29.3866
32.3526 29.1644
32.399 29.174
32.4455 28.8843
32.4919 28.9247
32.5385 28.8262
32.5848 28.7375
32.6314 28.6849
32.6778 28.6753
32.7244 28.4446
32.7708 28.3315
32.8174 28.3969
32.8638 28.1891
32.9104 28.2586
32.9569 28.1638
33.0035 28.0649
33.0499 27.9615
33.0966 27.9388
33.143 28.0111
33.1897 27.8282
33.2361 27.9208
33.2828 27.7789
33.3293 27.4974
33.3759 27.5713
33.4226 27.4076
33.4691 27.2973
33.5158 27.2469
33.5623 27.0744
33.609 26.9436
33.6555 26.8679
33.7022 26.7943
33.7487 26.6565
33.7954 26.6505
33.842 26.5928
33.8887 26.4776
33.9353 26.4651
33.982 26.2923
34.0286 26.1473
34.0753 26.145
34.1219 26.0744
34.1687 25.9653
34.2152 26.0317
34.262 25.8313
34.3086 25.7272
34.3554 25.7514
34.402 25.5518
34.4488 25.4185
34.4954 25.4158
34.5422 25.3375
34.5889 25.1874
34.6357 25.2128
34.6825 25.0972
34.7292 24.9639
34.776 24.9467
34.8227 24.7797
34.8695 24.8083
34.9162 24.6495
34.9631 24.6187
35.0098 24.678
35.0566 24.4912
35.1033 24.4274
35.1502 24.4217
35.1969 24.362
35.2438 24.3488
35.2906 24.2617
35.3375 24.1752
35.3842 24.126
35.4311 24.0667
35.4779 24.0989
35.5248 24.0297
35.5716 23.9456
35.6185 23.8854
35.6653 23.8017
35.7123 23.6935
35.759 23.6723
35.806 23.4774
35.8528 23.3232
35.8998 23.3541
35.9468 23.3092
35.9936 23.2034
36.0406 23.0512
36.0874 23.0943
36.1345 23.026
36.1813 22.9939
36.2283 22.8963
36.2752 22.7676
36.3222 22.784
36.3691 22.6881
36.4161 22.595
36.463 22.6594
36.5101 22.6043
36.557 22.4983
36.6041 22.3327
36.651 22.3569
36.6981 22.1948
36.745 22.1892
36.7921 22.1457
36.839 21.9926
36.8861 21.9402
36.9331 21.8781
36.9802 21.8293
37.0272 21.6673
37.0743 21.58
37.1213 21.6279
37.1684 21.554
37.2154 21.4059
37.2626 21.4244
37.3098 21.3405
37.3568 21.3213
37.404 21.2766
37.451 21.1091
37.4982 21.0662
37.5452 20.9716
37.5924 20.8862
37.6395 20.954
37.6867 20.8566
37.7337 20.7169
37.781 20.6831
37.8281 20.5918
37.8753 20.4845
37.9224 20.4442
37.9697 20.5003
38.0168 20.2566
38.064 20.222
38.1111 20.2565
38.1584 20.1198
38.2056 20.0387
38.2529 19.9966
38.3 19.9445
38.3473 19.9361
38.3945 19.8335
38.4418 19.7193
38.489 19.7159
38.5363 19.6206
38.5837 19.5512
38.6309 19.4835
38.6782 19.4575
38.7254 19.3684
38.7728 19.3273
38.82 19.2089
38.8674 19.2355
38.9146 19.176
38.9621 19.101
39.0093 19.0154
39.0567 18.9854
39.104 18.8738
39.1514 18.8366
39.1987 18.753
39.2461 18.713
39.2934 18.7032
39.3409 18.6075
39.3882 18.5022
39.4356 18.4454
39.483 18.401
39.5304 18.3596
39.5778 18.3334
39.6253 18.2585
39.6726 18.1606
39.7201 18.2199
39.7675 18.1157
39.815 18.0967
39.8624 17.89
39.9099 17.891
39.9575 17.835
40.0049 17.8193
40.0525 17.6697
40.0999 17.7366
40.1474 17.6138
40.1949 17.5586
40.2425 17.486
40.2899 17.4758
40.3375 17.4229
40.385 17.36
40.4326 17.3458
40.48 17.219
40.5277 17.1922
40.5752 17.1539
40.6228 17.0586
40.6703 17.0136
40.718 16.9314
40.7655 16.9427
40.8132 16.862
40.8607 16.8512
40.9084 16.7595
40.9559 16.6906
41.0036 16.6438
41.0512 16.629
41.0989 16.5606
41.1465 16.4973
41.1942 16.4614
41.242 16.3492
41.2896 16.3265
41.3373 16.3054
41.3849 16.1731
41.4327 16.2075
41.4803 16.0563
41.5281 16.0417
41.5758 15.9937
41.6236 15.913
41.6712 15.8786
41.7191 15.8395
41.7667 15.7527
41.8146 15.7449
41.8622 15.7014
41.9101 15.6449
41.9578 15.4975
42.0057 15.5145
42.0534 15.4672
42.1013 15.4159
42.149 15.3743
42.1969 15.3179
42.2446 15.2515
42.2925 15.2692
42.3403 15.109
42.3882 15.1496
42.436 15.0962
42.4839 15.0074
42.5319 14.9602
42.5797 14.9215
42.6277 14.8933
42.6755 14.8216
42.7235 14.7529
42.7713 14.7285
42.8193 14.6562
42.8671 14.6252
42.9152 14.5591
42.963 14.5212
43.0111 14.4344
43.0589 14.4225
43.107 14.3076
43.1549 14.3046
43.2029 14.2805
43.2508 14.1903
43.2989 14.1055
43.3468 14.0721
43.3949 14.1012
43.4429 14.0381
43.491 13.9592
43.5389 13.9431
43.5871 13.8897
43.635 13.8271
43.6832 13.794
43.7312 13.7215
43.7793 13.7017
43.8273 13.6174
43.8755 13.5822
43.9237 13.5079
43.9717 13.5278
44.0199 13.4687
44.068 13.4031
44.1162 13.3502
44.1642 13.3028
44.2125 13.256
44.2606 13.173
44.3088 13.1781
44.3569 13.085
44.4052 13.0821
44.4533 13.0484
44.5016 12.9611
44.5497 12.978
44.598 12.9547
44.6461 12.858
44.6945 12.8407
44.7426 12.7888
44.791 12.7226
44.8391 12.6831
44.8875 12.6248
44.9357 12.5878
44.984 12.5339
45.0322 12.4668
45.0806 12.456
45.1288 12.3839
45.1773 12.3606
45.2257 12.3005
45.2739 12.2774
45.3224 12.2261
45.3706 12.2298
45.4191 12.1084
45.4673 12.1035
45.5158 12.0849
45.5641 12.0106
45.6126 11.9395
45.6609 11.9017
45.7094 11.9015
45.7577 11.837
45.8063 11.7385
45.8546 11.7697
45.9031 11.6974
45.9515 11.6903
46.0001 11.6415
46.0484 11.5929
46.097 11.5797
46.1454 11.5272
46.194 11.4715
46.2424 11.4801
46.291 11.3748
46.3395 11.3563
46.3881 11.32
46.4365 11.2955
46.4852 11.2371
46.5337 11.1377
46.5823 11.1681
46.631 11.0881
46.6795 11.0537
46.7282 11.0394
46.7767 10.9556
46.8254 10.908
46.8739 10.9256
46.9226 10.8764
46.9712 10.7761
47.0199 10.7774
47.0685 10.7352
47.1173 10.6684
47.1658 10.6445
47.2146 10.6012
47.2632 10.5555
47.312 10.5823
47.3606 10.5092
47.4095 10.4537
47.4581 10.4227
47.5069 10.3771
47.5556 10.3832
47.6044 10.3083
47.6531 10.2877
47.702 10.2047
47.7507 10.1637
47.7996 10.1297
47.8483 10.1231
47.8972 10.0812
47.9461 10.0282
47.9948 10.0019
48.0438 9.96046
48.0925 9.92838
48.1415 9.91591
48.1902 9.85335
48.2392 9.83067
48.288 9.82734
48.337 9.74225
48.3858 9.67147
48.4348 9.6947
48.4837 9.6795
48.5327 9.62883
48.5815 9.57233
48.6306 9.57405
48.6795 9.55578
48.7285 9.46431
48.7774 9.45261
48.8265 9.4009
48.8754 9.35126
48.9245 9.33788
48.9734 9.29629
49.0226 9.31204
49.0715 9.23108
49.1206 9.22677
49.1696 9.17394
49.2188 9.15575
49.2679 9.08173
49.3169 9.05743
49.3661 9.00703
49.4151 8.9879
49.4643 8.94317
49.5134 8.92833
49.5626 8.84645
49.6117 8.88098
49.6609 8.81398
49.71 8.76426
49.7592 8.72237
49.8083 8.69889
49.8576 8.70667
49.9067 8.64247
49.956 8.64897
50.0052 8.57445
50.0545 8.52824
50.1036 8.50698
50.153 8.53248
50.2022 8.42104
50.2515 8.44088
50.3007 8.40044
50.3501 8.33352
50.3993 8.31876
50.4487 8.23839
50.498 8.26384
50.5474 8.22673
50.5966 8.14145
50.6461 8.19581
50.6955 8.12974
50.7448 8.10701
50.7943 8.07975
50.8436 8.01733
50.8931 8.00369
50.9424 7.94779
50.9919 7.94751
51.0413 7.92535
51.0908 7.87365
51.1402 7.86168
51.1897 7.80214
51.2391 7.79559
51.2887 7.74456
51.3381 7.706
51.3877 7.72115
51.4371 7.66829
51.4867 7.60021
51.5362 7.57431
51.5858 7.54016
51.6353 7.53633
51.6849 7.45579
51.7344 7.49206
51.7841 7.44909
51.8336 7.38378
51.8833 7.37664
51.9328 7.3585
51.9826 7.30748
52.0323 7.3093
52.0818 7.25588
52.1316 7.18327
52.1812 7.17053
52.231 7.17019
52.2806 7.1469
52.3304 7.11808
52.38 7.09547
52.4298 7.05333
52.4794 6.99457
52.5293 6.987
52.5789 6.987
52.6288 6.93682
52.6785 6.9097
52.7284 6.88025
52.7781 6.87168
52.828 6.79219
52.8777 6.79549
52.9276 6.7704
52.9774 6.76484
53.0273 6.71914
53.0771 6.67097
53.1271 6.67584
53.1769 6.61767
53.2269 6.61491
53.2767 6.5674
53.3267 6.48876
53.3765 6.51498
53.4266 6.5062
53.4766 6.43743
53.5265 6.43341
53.5765 6.41365
53.6264 6.3786
53.6765 6.33149
53.7264 6.31103
53.7765 6.25229
53.8265 6.24208
53.8766 6.20909
53.9266 6.22265
53.9767 6.19152
54.0267 6.12973
54.0769 6.14492
54.1269 6.13388
54.1771 6.02568
54.2271 6.02927
54.2773 5.99553
54.3274 5.95826
54.3776 5.96106
54.4277 5.87639
54.478 5.87243
54.528 5.82715
54.5783 5.83026
54.6285 5.78808
54.6788 5.7177
54.7289 5.72427
54.7792 5.60724
54.8296 5.58158
54.8798 5.56256
54.9301 5.53194
54.9803 5.47522
55.0307 5.45526
55.0809 5.42537
55.1314 5.41009
55.1816 5.32562
55.232 5.30145
55.2823 5.22501
55.3328 5.18118
55.383 5.10932
55.4335 5.10751
55.4838 5.06152
55.5344 5.00976
55.5847 4.93372
55.6352 4.9108
55.6856 4.86768
55.7361 4.87666