File: XRD/Ni3Fe_FD0187.xy
TT I
1.27165 7.5594
1.31627 6.74541
1.36089 7.20341
1.40551 6.19499
1.45013 7.21608
1.49476 6.84328
1.53938 6.27235
1.584 5.4622
1.62863 5.83283
1.67325 6.09301
1.71787 5.30628
1.7625 5.36805
1.80712 4.60664
1.85174 5.00037
1.89636 5.07749
1.94099 4.51356
1.98562 5.0105
2.03025 4.59555
2.07487 4.41322
2.11949 5.30244
2.16411 4.39335
2.20874 4.34786
2.25338 3.90501
2.298 4.63099
2.34263 4.67659
2.38725 4.49764
2.43188 4.29151
2.4765 4.68564
2.52115 5.09508
2.56577 4.75113
2.6104 4.99276
2.65503 5.2506
2.69965 5.26613
2.7443 6.3
2.78893 7.1132
2.83356 7.05659
2.87818 7.90078
2.92281 8.44299
2.96744 9.27378
3.01209 10.4804
3.05672 11.1583
3.10135 12.5282
3.14599 13.1023
3.19062 14.4031
3.23527 14.7174
3.2799 16.0967
3.32454 16.4783
3.36917 17.6957
3.4138 18.9023
3.45844 19.2946
3.50309 20.6897
3.54773 20.8178
3.59237 21.8393
3.637 22.4802
3.68164 23.1021
3.7263 24.1676
3.77094 25.164
3.81558 26.1727
3.86022 26.6452
3.90486 27.9178
3.9495 28.974
3.99416 29.7101
4.0388 31.2281
4.08344 31.9747
4.12809 33.2873
4.17273 34.2799
4.21738 36.0882
4.26204 36.7912
4.30669 38.2769
4.35133 40.1871
4.39598 41.9984
4.44063 44.0979
4.4853 45.2712
4.52995 47.9127
4.5746 49.6766
4.61925 52.2582
4.6639 54.3664
4.70855 57.3203
4.75322 59.946
4.79788 63.0058
4.84253 66.7083
4.88719 71.0089
4.93184 75.9366
4.97652 82.5777
5.02118 91.3159
5.06583 100.708
5.11049 116.401
5.15515 151.891
5.19981 515.046
5.24449 3764.42
5.28916 8751.8
5.33382 6105.68
5.37848 409.513
5.42315 159.446
5.46783 126.988
5.5125 113.479
5.55716 107.794
5.60183 102.25
5.6465 99.1379
5.69117 98.0849
5.73586 95.7117
5.78053 95.7927
5.8252 95.8447
5.86988 98.2113
5.91455 104.887
5.95924 122.745
6.00392 276.866
6.0486 1369.82
6.09328 2913.9
6.13795 4053.84
6.18263 658.13
6.22733 118.776
6.27201 88.7156
6.3167 78.3333
6.36138 73.11
6.40606 69.028
6.45075 66.9772
6.49545 64.902
6.54014 63.0101
6.58483 61.223
6.62952 60.3217
6.67421 58.9274
6.71892 58.15
6.76361 57.1515
6.8083 56.3169
6.853 55.4285
6.89769 55.2813
6.94239 54.7164
6.98711 53.805
7.03181 53.4821
7.07651 53.4682
7.12121 52.9951
7.16591 52.8828
7.21063 52.4957
7.25533 52.4755
7.30004 52.4239
7.34475 52.392
7.38945 52.8919
7.43416 52.3802
7.47889 52.6836
7.5236 55.9727
7.56831 61.8447
7.61303 55.5301
7.65774 53.6587
7.70247 54.3262
7.74719 54.978
7.79191 55.641
7.83663 55.6426
7.88135 56.64
7.92607 57.8226
7.97081 58.7576
8.01553 59.7182
8.06026 61.2421
8.10498 62.4923
8.14971 64.2466
8.19446 65.8699
8.23919 68.6458
8.28392 71.5322
8.32865 73.8047
8.37339 78.8858
8.41812 83.9966
8.46288 95.5749
8.50761 170.846
8.55235 590.098
8.59709 931.116
8.64183 1611.48
8.68658 1638.34
8.73134 381.385
8.77609 114.527
8.82083 97.3809
8.86558 91.6038
8.91033 88.3389
8.9551 85.8751
8.99985 84.536
9.04461 83.6851
9.08936 82.9191
9.13412 81.9009
9.17888 81.6625
9.22365 86.8696
9.26841 94.274
9.31318 86.0933
9.35794 83.1239
9.4027 82.7963
9.44749 83.6369
9.49226 84.2282
9.53703 85.0513
9.5818 86.801
9.62657 88.0261
9.67134 89.4096
9.71614 91.5143
9.76091 93.7678
9.80569 95.9139
9.85047 99.6225
9.89525 104.531
9.94005 114.334
9.98484 183.31
10.0296 534.828
10.0744 762.545
10.1192 1113.61
10.164 1720.54
10.2088 928.224
10.2536 203.223
10.2984 116.335
10.3432 108.291
10.388 105.052
10.4328 121.426
10.4776 212.419
10.5224 268.323
10.5672 349.53
10.612 512.899
10.6568 362.961
10.7017 130.005
10.7465 90.6269
10.7913 84.2992
10.8361 81.2901
10.8809 78.5584
10.9257 76.6036
10.9706 75.0085
11.0154 73.4684
11.0602 72.3281
11.105 71.0401
11.1499 69.4155
11.1947 68.3597
11.2395 67.4155
11.2844 67.1667
11.3292 66.1271
11.374 65.1052
11.4189 64.9088
11.4637 64.1005
11.5086 63.3577
11.5534 63.0982
11.5983 62.6272
11.6431 63.0607
11.688 62.3385
11.7328 62.1039
11.7777 61.8897
11.8225 61.7446
11.8674 61.957
11.9122 62.941
11.9571 65.6384
12.002 65.1411
12.0468 68.0208
12.0917 90.4239
12.1366 108.821
12.1814 122.744
12.2263 158.559
12.2712 194.655
12.3161 134.333
12.3609 74.143
12.4058 64.3344
12.4507 63.921
12.4956 63.8693
12.5405 63.8759
12.5853 64.2794
12.6302 64.3171
12.6751 65.3491
12.72 66.0276
12.7649 66.9939
12.8098 67.9516
12.8547 69.1734
12.8996 70.5692
12.9445 72.2038
12.9894 74.1009
13.0343 75.9533
13.0792 79.5705
13.1242 86.7329
13.1691 131.795
13.214 185.936
13.2589 211.685
13.3038 260.821
13.3487 369.005
13.3937 378.08
13.4386 200.986
13.4835 118.289
13.5285 152.975
13.5734 183.082
13.6183 201.268
13.6633 252.691
13.7082 343.29
13.7531 300.067
13.7981 148.266
13.843 88.2229
13.888 81.1227
13.9329 78.2648
13.9779 76.6767
14.0228 75.2962
14.0678 73.6579
14.1127 73.5283
14.1577 74.1952
14.2027 72.941
14.2476 70.9139
14.2926 70.0889
14.3376 69.8227
14.3825 69.3465
14.4275 68.7172
14.4725 68.8544
14.5175 68.938
14.5624 68.9859
14.6074 69.1897
14.6524 69.7765
14.6974 70.408
14.7424 72.0859
14.7874 81.013
14.8324 106.661
14.8774 122.12
14.9224 131.854
14.9674 156.643
15.0124 200.809
15.0574 204.785
15.1024 133.204
15.1474 80.9383
15.1924 71.6223
15.2374 69.792
15.2824 68.3986
15.3274 67.5896
15.3725 67.022
15.4175 66.8495
15.4625 66.3446
15.5076 66.1521
15.5526 66.193
15.5976 66.0661
15.6426 67.0053
15.6877 74.1927
15.7327 94.8853
15.7778 107.978
15.8228 114.2
15.8679 130.942
15.9129 162.412
15.958 187.496
16.003 148.342
16.0481 86.5288
16.0931 66.3077
16.1382 62.2907
16.1833 61.1305
16.2283 59.2018
16.2734 58.779
16.3185 57.806
16.3636 57.1493
16.4086 56.4352
16.4537 56.2678
16.4988 55.6273
16.5439 55.6404
16.589 55.4202
16.6341 55.1686
16.6792 54.4913
16.7243 54.9249
16.7694 54.5404
16.8145 54.6158
16.8596 54.6075
16.9047 55.2505
16.9498 55.5024
16.9949 55.5748
17.04 55.8677
17.0851 57.0537
17.1302 61.3433
17.1754 64.8687
17.2205 66.2524
17.2656 68.5612
17.3108 74.6541
17.3559 81.4571
17.401 81.7138
17.4462 70.8171
17.4913 61.6726
17.5365 59.9852
17.5815 59.7268
17.6268 59.8162
17.6718 60.3709
17.7171 60.8076
17.7622 62.0969
17.8074 62.802
17.8525 64.4378
17.8977 72.7142
17.9428 83.7573
17.9881 89.4971
18.0331 93.3582
18.0784 101.903
18.1237 119.994
18.1688 144.262
18.214 141.238
18.2591 109.692
18.3044 89.6646
18.3495 88.6764
18.3948 97.6146
18.4399 105.041
18.4852 94.6111
18.5303 75.7166
18.5756 65.3766
18.6207 62.8003
18.666 61.3873
18.7112 60.6965
18.7565 59.8274
18.8016 59.508
18.8469 58.6976
18.892 58.4464
18.9374 57.8042
18.9825 57.7934
19.0278 57.1661
19.073 57.3063
19.1183 57.851
19.1635 60.174
19.2088 62.2935
19.254 63.1805
19.2993 64.4991
19.3447 66.6296
19.3898 70.6925
19.4352 75.0442
19.4804 72.841
19.5257 63.5148
19.5709 56.7196
19.6163 54.9071
19.6615 54.3257
19.7068 53.9951
19.752 53.8081
19.7974 54.0068
19.8426 55.1482
19.888 57.3377
19.9332 58.9082
19.9786 59.3062
20.0238 60.2031
20.0692 63.2198
20.1144 68.5894
20.1598 73.6142
20.205 71.2942
20.2504 65.7552
20.2957 62.1892
20.3411 63.1504
20.3863 65.8432
20.4318 64.6317
20.477 59.2037
20.5224 53.6464
20.5677 51.6516
20.6131 50.911
20.6586 50.3721
20.7038 50.1959
20.7493 49.6937
20.7945 49.6979
20.84 49.6002
20.8853 49.3529
20.9307 49.3149
20.976 49.2673
21.0215 49.5576
21.0668 49.9904
21.1122 50.2035
21.1575 50.1898
21.203 50.4391
21.2483 51.1112
21.2938 52.1926
21.3391 51.9306
21.3846 51.0042
21.4299 49.801
21.4754 49.1428
21.5207 49.2807
21.5662 49.5167
21.6116 49.8999
21.6571 51.8273
21.7024 53.4319
21.7479 54.8581
21.7933 55.4448
21.8388 56.9713
21.8843 59.814
21.9297 63.5713
21.9752 66.927
22.0206 66.2157
22.0661 60.9989
22.1115 57.0637
22.157 56.4726
22.2024 57.1308
22.248 55.461
22.2933 52.7291
22.3389 50.606
22.3843 49.831
22.4299 49.3907
22.4753 49.4366
22.5208 49.5354
22.5662 49.3405
22.6118 49.5521
22.6572 49.6325
22.7028 50.8978
22.7483 51.952
22.7939 52.5222
22.8393 52.8425
22.8849 53.4049
22.9303 54.3195
22.9759 55.9776
23.0214 58.3787
23.067 59.016
23.1126 56.2791
23.1581 52.6899
23.2037 50.2517
23.2492 49.5991
23.2948 50.2468
23.3403 51.4751
23.3859 52.2819
23.4314 52.4067
23.477 52.8078
23.5225 53.3896
23.5682 54.9521
23.6137 57.1121
23.6593 58.6214
23.7048 57.5105
23.7505 53.5686
23.796 49.4484
23.8417 47.3521
23.8872 46.6547
23.9329 46.3297
23.9784 45.8548
24.0241 45.514
24.0697 45.4431
24.1154 44.9144
24.1609 44.6762
24.2066 44.5402
24.2522 44.3938
24.2979 44.1919
24.3434 44.1046
24.3892 43.8162
24.4349 43.7142
24.4805 43.5369
24.5262 43.6519
24.5718 43.5323
24.6175 43.5972
24.6631 43.6771
24.7089 43.451
24.7545 43.1633
24.8002 42.8047
24.8458 42.9777
24.8916 43.043
24.9372 43.1776
24.983 43.3416
25.0286 43.6342
25.0744 44.0568
25.12 44.5488
25.1658 44.8542
25.2114 45.3393
25.2572 45.6747
25.3029 45.4576
25.3487 45.4465
25.3943 45.4447
25.4402 45.6339
25.4858 44.9166
25.5316 43.4871
25.5773 42.1814
25.6231 41.9364
25.669 41.2675
25.7147 41.4007
25.7605 41.1058
25.8062 41.3963
25.8521 41.5653
25.8977 41.5182
25.9436 41.4968
25.9893 41.3531
26.0352 41.6886
26.0809 41.8725
26.1268 42.1019
26.1725 42.564
26.2184 42.4545
26.2641 41.9645
26.31 41.3698
26.3557 41.1935
26.4017 41.3892
26.4474 41.3922
26.4933 41.5028
26.5391 41.7376
26.585 41.9901
26.6308 42.3156
26.6767 42.6913
26.7225 43.3424
26.7684 43.1359
26.8142 42.4281
26.8601 41.7277
26.9059 41.2684
26.9519 40.9487
26.9979 40.4355
27.0437 39.9757
27.0896 39.5998
27.1354 39.7525
27.1814 39.5253
27.2272 39.5569
27.2732 39.36
27.3191 39.1896
27.3651 39.3664
27.4109 38.9559
27.4569 39.1981
27.5027 39.1919
27.5488 39.3166
27.5946 39.164
27.6407 39.2952
27.6865 39.1085
27.7326 38.9151
27.7784 39.0058
27.8245 38.8276
27.8703 38.8592
27.9164 39.0319
27.9623 39.0572
28.0084 39.2474
28.0543 39.6356
28.1003 39.7886
28.1462 40.0788
28.1923 39.8533
28.2384 39.2627
28.2843 38.9563
28.3304 38.5405
28.3764 38.1804
28.4225 37.5704
28.4684 37.182
28.5145 36.6608
28.5605 36.6544
28.6066 36.4093
28.6526 36.3679
28.6987 36.4016
28.7447 36.2352
28.7908 36.0254
28.8368 35.9557
28.8829 35.8837
28.9289 35.9771
28.9751 35.895
29.0211 35.7742
29.0673 35.7162
29.1133 35.4775
29.1595 35.2356
29.2055 35.0501
29.2517 35.0093
29.2977 34.8243
29.3439 34.802
29.3899 34.791
29.4361 34.67
29.4824 34.6614
29.5284 34.7376
29.5746 34.2833
29.6207 34.0024
29.6669 33.6616
29.713 33.5567
29.7593 33.5335
29.8053 33.4889
29.8516 33.4194
29.8977 33.4306
29.9439 33.2513
29.99 33.1169
30.0363 33.0868
30.0824 33.1673
30.1287 33.0216
30.1748 32.9662
30.2211 32.9448
30.2673 32.8784
30.3136 33.0721
30.3597 33.1026
30.406 33.0333
30.4522 32.8498
30.4985 32.7133
30.5447 32.8314
30.591 32.6662
30.6372 32.7689
30.6835 32.7811
30.7297 32.8179
30.7761 32.9158
30.8224 32.8377
30.8686 32.7359
30.915 32.528
30.9612 32.3461
31.0076 32.071
31.0538 31.8972
31.1002 31.79
31.1464 31.6932
31.1928 31.6369
31.2391 31.6803
31.2855 31.4791
31.3317 31.5252
31.3781 31.5512
31.4244 31.5101
31.4708 31.3085
31.5171 31.5067
31.5636 31.6804
31.6098 31.3807
31.6563 31.264
31.7026 31.0856
31.7491 30.8778
31.7953 30.8676
31.8418 30.8124
31.8881 30.8105
31.9346 30.677
31.9809 30.6433
32.0275 30.6479
32.074 30.5237
32.1203 30.4314
32.1668 30.3553
32.2132 30.1789
32.2597 29.9454
32.306 29.8857
32.3526 29.6913
32.399 29.5584
32.4455 29.3954
32.4919 29.2903
32.5385 29.2178
32.5848 29.119
32.6314 29.05
32.6778 29.0158
32.7244 28.8799
32.7708 28.7373
32.8174 28.7194
32.8638 28.6665
32.9104 28.682
32.9569 28.6126
33.0035 28.4586
33.0499 28.4176
33.0966 28.2796
33.143 28.2726
33.1897 28.2399
33.2361 28.1063
33.2828 28.2065
33.3293 28.0815
33.3759 28.0425
33.4226 27.9643
33.4691 27.7625
33.5158 27.693
33.5623 27.5742
33.609 27.3749
33.6555 27.2327
33.7022 27.0669
33.7487 27.0641
33.7954 26.9866
33.842 26.9116
33.8887 26.8799
33.9353 26.7866
33.982 26.6807
34.0286 26.6416
34.0753 26.6285
34.1219 26.4509
34.1687 26.3242
34.2152 26.2263
34.262 26.1726
34.3086 26.049
34.3554 26.0387
34.402 25.9871
34.4488 25.8745
34.4954 25.7507
34.5422 25.7365
34.5889 25.5194
34.6357 25.4637
34.6825 25.4421
34.7292 25.3595
34.776 25.2066
34.8227 25.2264
34.8695 25.1369
34.9162 25.054
34.9631 24.953
35.0098 25.0362
35.0566 24.8212
35.1033 24.8145
35.1502 24.8124
35.1969 24.7195
35.2438 24.6973
35.2906 24.655
35.3375 24.5764
35.3842 24.4895
35.4311 24.4203
35.4779 24.496
35.5248 24.4022
35.5716 24.3458
35.6185 24.1527
35.6653 24.1195
35.7123 24.0515
35.759 24.0379
35.806 23.8448
35.8528 23.7341
35.8998 23.6576
35.9468 23.5013
35.9936 23.5656
36.0406 23.5211
36.0874 23.474
36.1345 23.3574
36.1813 23.3038
36.2283 23.218
36.2752 23.1016
36.3222 23.2201
36.3691 23.0181
36.4161 22.9211
36.463 22.8753
36.5101 22.9304
36.557 22.783
36.6041 22.6533
36.651 22.7141
36.6981 22.5545
36.745 22.5635
36.7921 22.5432
36.839 22.4
36.8861 22.2342
36.9331 22.1647
36.9802 22.1313
37.0272 22.0373
37.0743 21.9449
37.1213 21.913
37.1684 21.8433
37.2154 21.7854
37.2626 21.6687
37.3098 21.5864
37.3568 21.5604
37.404 21.5301
37.451 21.4126
37.4982 21.3948
37.5452 21.2949
37.5924 21.2606
37.6395 21.2443
37.6867 21.1504
37.7337 21.0235
37.781 20.9598
37.8281 20.8938
37.8753 20.8112
37.9224 20.7138
37.9697 20.7505
38.0168 20.5977
38.064 20.5539
38.1111 20.5179
38.1584 20.3729
38.2056 20.4021
38.2529 20.2585
38.3 20.2388
38.3473 20.1854
38.3945 20.0876
38.4418 20.0401
38.489 19.9602
38.5363 19.8654
38.5837 19.8352
38.6309 19.7799
38.6782 19.663
38.7254 19.6739
38.7728 19.5746
38.82 19.5091
38.8674 19.5233
38.9146 19.4403
38.9621 19.3642
39.0093 19.2742
39.0567 19.1501
39.104 19.1527
39.1514 19.0301
39.1987 19.0945
39.2461 19.0819
39.2934 18.9178
39.3409 18.7583
39.3882 18.8321
39.4356 18.7006
39.483 18.7045
39.5304 18.5798
39.5778 18.592
39.6253 18.5103
39.6726 18.4156
39.7201 18.4536
39.7675 18.4024
39.815 18.3414
39.8624 18.215
39.9099 18.2283
39.9575 18.0326
40.0049 18.0777
40.0525 17.9658
40.0999 17.9457
40.1474 17.8665
40.1949 17.7943
40.2425 17.7675
40.2899 17.7741
40.3375 17.6366
40.385 17.6389
40.4326 17.5498
40.48 17.4876
40.5277 17.4816
40.5752 17.4078
40.6228 17.3317
40.6703 17.2787
40.718 17.2058
40.7655 17.2236
40.8132 17.0722
40.8607 17.1118
40.9084 17.0881
40.9559 16.9883
41.0036 16.9316
41.0512 16.826
41.0989 16.7773
41.1465 16.6901
41.1942 16.6579
41.242 16.6257
41.2896 16.5702
41.3373 16.4888
41.3849 16.4424
41.4327 16.3682
41.4803 16.2827
41.5281 16.2881
41.5758 16.2239
41.6236 16.1494
41.6712 16.0786
41.7191 16.0397
41.7667 15.918
41.8146 15.9676
41.8622 15.9173
41.9101 15.8651
41.9578 15.7638
42.0057 15.7539
42.0534 15.7443
42.1013 15.5781
42.149 15.5388
42.1969 15.4876
42.2446 15.4569
42.2925 15.49
42.3403 15.3551
42.3882 15.327
42.436 15.2788
42.4839 15.2288
42.5319 15.1258
42.5797 15.1161
42.6277 15.0919
42.6755 14.9777
42.7235 14.9831
42.7713 14.8537
42.8193 14.8706
42.8671 14.8272
42.9152 14.7705
42.963 14.7185
43.0111 14.619
43.0589 14.5896
43.107 14.5155
43.1549 14.5097
43.2029 14.4286
43.2508 14.4096
43.2989 14.3326
43.3468 14.3149
43.3949 14.2065
43.4429 14.1951
43.491 14.1302
43.5389 14.0878
43.5871 14.1134
43.635 14.0359
43.6832 13.9395
43.7312 13.9138
43.7793 13.8329
43.8273 13.8548
43.8755 13.7653
43.9237 13.7087
43.9717 13.7034
44.0199 13.6246
44.068 13.5779
44.1162 13.5262
44.1642 13.493
44.2125 13.4404
44.2606 13.4285
44.3088 13.3225
44.3569 13.2806
44.4052 13.2362
44.4533 13.1974
44.5016 13.1232
44.5497 13.1523
44.598 13.0623
44.6461 12.9699
44.6945 12.9783
44.7426 12.9291
44.791 12.9062
44.8391 12.8936
44.8875 12.8076
44.9357 12.7459
44.984 12.7036
45.0322 12.6771
45.0806 12.6073
45.1288 12.5521
45.1773 12.4971
45.2257 12.5023
45.2739 12.4821
45.3224 12.3971
45.3706 12.3645
45.4191 12.2686
45.4673 12.2641
45.5158 12.2307
45.5641 12.1796
45.6126 12.1305
45.6609 12.0553
45.7094 12.0562
45.7577 12.0083
45.8063 11.9318
45.8546 11.9193
45.9031 11.8318
45.9515 11.8102
46.0001 11.7947
46.0484 11.7714
46.097 11.6868
46.1454 11.6769
46.194 11.6161
46.2424 11.5784
46.291 11.5419
46.3395 11.4959
46.3881 11.394
46.4365 11.4423
46.4852 11.3448
46.5337 11.343
46.5823 11.2886
46.631 11.2305
46.6795 11.2034
46.7282 11.1559
46.7767 11.1298
46.8254 11.072
46.8739 11.0233
46.9226 10.9946
46.9712 10.9906
47.0199 10.9207
47.0685 10.8853
47.1173 10.8093
47.1658 10.7726
47.2146 10.7367
47.2632 10.6769
47.312 10.705
47.3606 10.6023
47.4095 10.5988
47.4581 10.5555
47.5069 10.4896
47.5556 10.4656
47.6044 10.4527
47.6531 10.4126
47.702 10.3142
47.7507 10.3344
47.7996 10.3039
47.8483 10.2166
47.8972 10.2236
47.9461 10.1594
47.9948 10.1394
48.0438 10.0989
48.0925 10.0734
48.1415 10.0195
48.1902 9.98692
48.2392 9.95436
48.288 9.93075
48.337 9.92121
48.3858 9.81394
48.4348 9.83637
48.4837 9.79249
48.5327 9.74982
48.5815 9.75266
48.6306 9.71189
48.6795 9.63694
48.7285 9.61937
48.7774 9.57917
48.8265 9.53872
48.8754 9.50113
48.9245 9.46849
48.9734 9.44605
49.0226 9.42716
49.0715 9.34487
49.1206 9.31987
49.1696 9.26675
49.2188 9.25448
49.2679 9.19645
49.3169 9.17877
49.3661 9.13234
49.4151 9.11717
49.4643 9.08444
49.5134 9.05339
49.5626 8.96908
49.6117 8.99319
49.6609 8.93032
49.71 8.89162
49.7592 8.84217
49.8083 8.85256
49.8576 8.82081
49.9067 8.76881
49.956 8.75503
50.0052 8.69308
50.0545 8.67905
50.1036 8.61632
50.153 8.63635
50.2022 8.5381
50.2515 8.54575
50.3007 8.51296
50.3501 8.45191
50.3993 8.46122
50.4487 8.40473
50.498 8.36042
50.5474 8.3685
50.5966 8.3212
50.6461 8.31739
50.6955 8.22739
50.7448 8.22279
50.7943 8.18769
50.8436 8.12226
50.8931 8.11137
50.9424 8.06419
50.9919 8.05246
51.0413 8.03856
51.0908 8.00043
51.1402 7.98725
51.1897 7.91618
51.2391 7.89587
51.2887 7.851
51.3381 7.7914
51.3877 7.80641
51.4371 7.77726
51.4867 7.74564
51.5362 7.71422
51.5858 7.70134
51.6353 7.60476
51.6849 7.61488
51.7344 7.5956
51.7841 7.60918
51.8336 7.50391
51.8833 7.51253
51.9328 7.41881
51.9826 7.37892
52.0323 7.36432
52.0818 7.35527
52.1316 7.31684
52.1812 7.28809
52.231 7.25282
52.2806 7.2386
52.3304 7.23996
52.38 7.20815
52.4298 7.17381
52.4794 7.11325
52.5293 7.07945
52.5789 7.06903
52.6288 7.04328
52.6785 6.98768
52.7284 7.00929
52.7781 6.94693
52.828 6.92307
52.8777 6.91577
52.9276 6.86226
52.9774 6.8371
53.0273 6.79566
53.0771 6.77486
53.1271 6.80519
53.1769 6.68904
53.2269 6.66979
53.2767 6.64738
53.3267 6.60077
53.3765 6.63236
53.4266 6.5743
53.4766 6.5599
53.5265 6.52197
53.5765 6.52479
53.6264 6.45352
53.6765 6.43843
53.7264 6.41369
53.7765 6.40208
53.8265 6.34705
53.8766 6.28407
53.9266 6.29651
53.9767 6.25629
54.0267 6.26397
54.0769 6.1716
54.1269 6.19018
54.1771 6.11707
54.2271 6.13247
54.2773 6.05318
54.3274 6.03653
54.3776 6.00706
54.4277 5.90654
54.478 5.93267
54.528 5.8505
54.5783 5.82462
54.6285 5.79207
54.6788 5.74654
54.7289 5.73235
54.7792 5.66759
54.8296 5.60214
54.8798 5.54333
54.9301 5.54353
54.9803 5.51047
55.0307 5.47869
55.0809 5.38894
55.1314 5.39277
55.1816 5.31952
55.232 5.2703
55.2823 5.23216
55.3328 5.16833
55.383 5.12431
55.4335 5.07633
55.4838 5.00023
55.5344 5.00703
55.5847 4.93495
55.6352 4.92651
55.6856 4.8906
55.7361 4.82794