File: XRD/Ni3Fe_FD0823.xy
TT I
1.27165 7.07694
1.31627 6.56368
1.36089 6.48125
1.40551 5.9354
1.45013 6.38726
1.49476 6.22398
1.53938 6.01302
1.584 4.90277
1.62863 5.11167
1.67325 5.04104
1.71787 5.44531
1.7625 4.65956
1.80712 4.743
1.85174 5.09375
1.89636 4.30504
1.94099 4.94044
1.98562 4.81549
2.03025 4.46166
2.07487 4.54635
2.11949 5.15213
2.16411 5.19525
2.20874 7.88012
2.25338 10.7817
2.298 6.35777
2.34263 5.33593
2.38725 5.63293
2.43188 6.35191
2.4765 6.79271
2.52115 7.07594
2.56577 8.02618
2.6104 8.65981
2.65503 8.19657
2.69965 8.84025
2.7443 8.31383
2.78893 8.21389
2.83356 8.61982
2.87818 9.10948
2.92281 8.72233
2.96744 9.21302
3.01209 10.5803
3.05672 11.6675
3.10135 12.4805
3.14599 13.0261
3.19062 15.0794
3.23527 15.4405
3.2799 15.7636
3.32454 16.5367
3.36917 17.7284
3.4138 18.3474
3.45844 19.2618
3.50309 20.2784
3.54773 21.4172
3.59237 23.0235
3.637 46.1823
3.68164 35.3403
3.7263 25.3635
3.77094 25.5108
3.81558 26.9909
3.86022 27.1145
3.90486 28.795
3.9495 29.3282
3.99416 30.4581
4.0388 31.557
4.08344 32.4624
4.12809 34.0664
4.17273 35.4861
4.21738 38.999
4.26204 111.744
4.30669 98.4347
4.35133 43.9691
4.39598 43.2802
4.44063 48.0404
4.4853 53.1017
4.52995 57.7072
4.5746 57.9963
4.61925 53.4593
4.6639 55.3826
4.70855 57.9099
4.75322 61.5008
4.79788 68.5865
4.84253 68.2029
4.88719 75.6622
4.93184 76.6563
4.97652 80.3858
5.02118 86.7656
5.06583 94.5226
5.11049 106.198
5.15515 155.524
5.19981 404.067
5.24449 2867.46
5.28916 12383.9
5.33382 2470.95
5.37848 193.655
5.42315 130.3
5.46783 119.961
5.5125 113.335
5.55716 101.866
5.60183 97.7774
5.6465 95.569
5.69117 94.0513
5.73586 92.9118
5.78053 99.2451
5.8252 99.0658
5.86988 101.81
5.91455 95.1125
5.95924 104.799
6.00392 242.566
6.0486 972.302
6.09328 4559.01
6.13795 3018.42
6.18263 199.61
6.22733 89.5469
6.27201 79.8223
6.3167 82.7666
6.36138 73.4735
6.40606 69.9164
6.45075 69.8364
6.49545 64.9484
6.54014 62.9551
6.58483 62.824
6.62952 62.9334
6.67421 71.5017
6.71892 84.9654
6.76361 61.0818
6.8083 59.0736
6.853 60.1667
6.89769 56.2845
6.94239 55.7407
6.98711 55.2786
7.03181 55.6912
7.07651 54.3712
7.12121 54.5571
7.16591 56.2262
7.21063 55.3565
7.25533 59.7861
7.30004 93.8314
7.34475 65.341
7.38945 54.4536
7.43416 53.099
7.47889 53.2752
7.5236 53.5235
7.56831 54.5324
7.61303 55.0929
7.65774 55.692
7.70247 56.5026
7.74719 56.2257
7.79191 56.0626
7.83663 56.5711
7.88135 57.1327
7.92607 57.9906
7.97081 59.1822
8.01553 60.5846
8.06026 62.6355
8.10498 64.0762
8.14971 70.5949
8.19446 70.4829
8.23919 69.1233
8.28392 71.5561
8.32865 73.6677
8.37339 77.9545
8.41812 83.2644
8.46288 101.96
8.50761 178.666
8.55235 386.207
8.59709 1224.46
8.64183 2195.73
8.68658 830.352
8.73134 146.931
8.77609 96.9422
8.82083 91.7856
8.86558 92.5623
8.91033 92.1062
8.9551 89.0012
8.99985 85.0457
9.04461 83.3894
9.08936 83.9152
9.13412 82.6397
9.17888 81.5756
9.22365 81.9451
9.26841 81.2311
9.31318 84.866
9.35794 86.6718
9.4027 86.1626
9.44749 85.3452
9.49226 84.6824
9.53703 85.5604
9.5818 89.6226
9.62657 94.5308
9.67134 95.1743
9.71614 92.5617
9.76091 94.7975
9.80569 99.3669
9.85047 101.081
9.89525 110.798
9.94005 125.989
9.98484 191.256
10.0296 346.399
10.0744 843.109
10.1192 1824.26
10.164 1504.08
10.2088 349.35
10.2536 120.217
10.2984 108.322
10.3432 107.221
10.388 104.563
10.4328 121.872
10.4776 162.836
10.5224 297.402
10.5672 542.025
10.612 492.965
10.6568 182.743
10.7017 93.8165
10.7465 85.6638
10.7913 82.5551
10.8361 80.4781
10.8809 78.1707
10.9257 77.6999
10.9706 77.4933
11.0154 74.7916
11.0602 72.0101
11.105 71.0127
11.1499 71.4999
11.1947 73.1907
11.2395 69.4742
11.2844 67.773
11.3292 66.14
11.374 65.4611
11.4189 64.848
11.4637 64.157
11.5086 63.9672
11.5534 64.8693
11.5983 63.7341
11.6431 62.6807
11.688 62.1458
11.7328 62.3554
11.7777 62.3222
11.8225 62.4354
11.8674 62.0224
11.9122 62.1475
11.9571 62.5286
12.002 64.1263
12.0468 68.7431
12.0917 78.2508
12.1366 103.802
12.1814 161.993
12.2263 217.507
12.2712 162.356
12.3161 85.8871
12.3609 65.9197
12.4058 63.5988
12.4507 63.4317
12.4956 64.1037
12.5405 64.5866
12.5853 64.9387
12.6302 67.42
12.6751 69.5821
12.72 67.2715
12.7649 67.0615
12.8098 67.9195
12.8547 69.8303
12.8996 70.8911
12.9445 72.7937
12.9894 74.2837
13.0343 75.6165
13.0792 80.1453
13.1242 92.482
13.1691 111.394
13.214 149.665
13.2589 250.768
13.3038 392.039
13.3487 411.915
13.3937 232.729
13.4386 116.749
13.4835 106.26
13.5285 120.207
13.5734 161.882
13.6183 260.219
13.6633 368.101
13.7082 329.427
13.7531 168.096
13.7981 93.3897
13.843 80.7751
13.888 79.0552
13.9329 76.5905
13.9779 75.081
14.0228 73.7554
14.0678 72.2938
14.1127 71.8642
14.1577 71.017
14.2027 70.6001
14.2476 69.552
14.2926 69.4534
14.3376 69.5239
14.3825 68.856
14.4275 68.4767
14.4725 68.3265
14.5175 68.3302
14.5624 68.3102
14.6074 69.3744
14.6524 69.8739
14.6974 70.2535
14.7424 73.5186
14.7874 79.1677
14.8324 88.8026
14.8774 112.631
14.9224 160.177
14.9674 218.882
15.0124 218.586
15.0574 138.83
15.1024 85.2144
15.1474 71.1507
15.1924 69.6207
15.2374 68.7459
15.2824 67.9892
15.3274 67.0039
15.3725 66.1386
15.4175 65.7188
15.4625 65.4173
15.5076 65.3034
15.5526 65.3701
15.5976 65.3561
15.6426 67.7726
15.6877 72.5772
15.7327 79.6664
15.7778 95.7884
15.8228 130.543
15.8679 179.452
15.9129 197.913
15.958 146.632
16.003 88.3985
16.0481 65.2872
16.0931 62.4045
16.1382 60.746
16.1833 59.7384
16.2283 58.2472
16.2734 57.3812
16.3185 57.5054
16.3636 57.0797
16.4086 56.095
16.4537 55.389
16.4988 54.8215
16.5439 54.7644
16.589 54.6347
16.6341 54.1871
16.6792 53.9171
16.7243 54.2352
16.7694 54.1118
16.8145 54.0503
16.8596 54.333
16.9047 55.0187
16.9498 55.2194
16.9949 54.693
17.04 55.6612
17.0851 56.8033
17.1302 58.4077
17.1754 61.4237
17.2205 67.0324
17.2656 75.2708
17.3108 83.5247
17.3559 80.7359
17.401 68.405
17.4462 60.4715
17.4913 58.8095
17.5365 58.5704
17.5815 58.6765
17.6268 59.089
17.6718 59.7018
17.7171 59.9836
17.7622 60.8058
17.8074 61.9013
17.8525 64.8228
17.8977 68.1372
17.9428 73.3854
17.9881 82.8431
18.0331 102.206
18.0784 126.153
18.1237 141.834
18.1688 127.208
18.214 98.7073
18.2591 84.8458
18.3044 91.3076
18.3495 101.971
18.3948 105.215
18.4399 91.4041
18.4852 73.9976
18.5303 64.2704
18.5756 61.3147
18.6207 60.598
18.666 59.5873
18.7112 58.9141
18.7565 58.3027
18.8016 58.1499
18.8469 57.5254
18.892 57.2138
18.9374 56.8077
18.9825 56.4616
19.0278 56.2056
19.073 56.5416
19.1183 56.6681
19.1635 57.1288
19.2088 58.8164
19.254 61.8832
19.2993 66.7213
19.3447 72.5776
19.3898 75.1705
19.4352 69.5339
19.4804 60.9909
19.5257 55.5077
19.5709 53.5488
19.6163 53.2346
19.6615 53.2566
19.7068 52.6708
19.752 52.5964
19.7974 53.1873
19.8426 53.8721
19.888 54.4853
19.9332 55.906
19.9786 58.7283
20.0238 62.9222
20.0692 67.8408
20.1144 69.7651
20.1598 66.8928
20.205 62.066
20.2504 61.651
20.2957 63.9973
20.3411 65.2255
20.3863 62.5363
20.4318 56.65
20.477 52.3227
20.5224 50.4806
20.5677 50.0508
20.6131 49.5759
20.6586 49.1219
20.7038 48.9642
20.7493 48.5186
20.7945 48.5126
20.84 48.3331
20.8853 48.3678
20.9307 48.2257
20.976 48.1834
21.0215 48.1968
21.0668 48.2977
21.1122 48.9099
21.1575 49.7075
21.203 50.5367
21.2483 51.0923
21.2938 50.8105
21.3391 49.2806
21.3846 48.2469
21.4299 48.0
21.4754 48.0253
21.5207 48.1951
21.5662 48.5096
21.6116 48.9503
21.6571 49.6286
21.7024 50.5139
21.7479 52.3836
21.7933 55.3881
21.8388 59.2415
21.8843 63.0294
21.9297 64.1105
21.9752 61.6821
22.0206 57.8642
22.0661 55.6542
22.1115 55.7208
22.157 55.398
22.2024 53.3074
22.248 50.3581
22.2933 48.8558
22.3389 48.3013
22.3843 48.233
22.4299 48.0311
22.4753 48.2343
22.5208 48.0853
22.5662 48.0579
22.6118 48.2042
22.6572 48.4918
22.7028 48.8471
22.7483 49.2831
22.7939 49.8964
22.8393 51.8729
22.8849 54.1188
22.9303 56.1206
22.9759 57.331
23.0214 56.4641
23.067 53.2713
23.1126 49.9944
23.1581 48.5865
23.2037 48.303
23.2492 48.3738
23.2948 48.3247
23.3403 48.6303
23.3859 49.1844
23.4314 50.5965
23.477 52.4244
23.5225 54.9915
23.5682 57.0557
23.6137 57.3728
23.6593 54.3011
23.7048 50.2544
23.7505 47.336
23.796 45.9553
23.8417 45.4063
23.8872 44.9007
23.9329 44.8527
23.9784 44.3281
24.0241 44.2025
24.0697 43.8931
24.1154 43.7189
24.1609 43.4579
24.2066 43.2925
24.2522 43.217
24.2979 42.8923
24.3434 42.6825
24.3892 42.6287
24.4349 42.7065
24.4805 42.5103
24.5262 42.7298
24.5718 42.5075
24.6175 42.5443
24.6631 42.3145
24.7089 42.0358
24.7545 41.7653
24.8002 41.7446
24.8458 41.8858
24.8916 41.5537
24.9372 41.7689
24.983 42.1175
25.0286 42.4516
25.0744 42.978
25.12 43.4172
25.1658 44.1767
25.2114 44.158
25.2572 44.2753
25.3029 44.4138
25.3487 44.5011
25.3943 43.9965
25.4402 42.7579
25.4858 41.7125
25.5316 40.8868
25.5773 40.4207
25.6231 40.5001
25.669 39.9478
25.7147 40.096
25.7605 39.9454
25.8062 39.9845
25.8521 40.0916
25.8977 40.1065
25.9436 40.4341
25.9893 40.6057
26.0352 41.175
26.0809 41.3231
26.1268 41.1822
26.1725 40.9144
26.2184 40.2131
26.2641 39.7979
26.31 39.6067
26.3557 39.6102
26.4017 39.7334
26.4474 40.1181
26.4933 40.423
26.5391 40.9626
26.585 41.3948
26.6308 41.8074
26.6767 41.8491
26.7225 41.5081
26.7684 40.8763
26.8142 40.2762
26.8601 39.9968
26.9059 39.5408
26.9519 39.1304
26.9979 38.8088
27.0437 38.4047
27.0896 38.4246
27.1354 38.3392
27.1814 38.2207
27.2272 38.1146
27.2732 38.0762
27.3191 38.0856
27.3651 38.2081
27.4109 38.0779
27.4569 38.0421
27.5027 38.1185
27.5488 38.1465
27.5946 37.9853
27.6407 37.7689
27.6865 37.667
27.7326 37.5205
27.7784 37.4808
27.8245 37.5065
27.8703 37.7536
27.9164 37.9267
27.9623 38.1012
28.0084 38.3999
28.0543 38.8481
28.1003 38.6351
28.1462 38.4157
28.1923 37.9276
28.2384 37.475
28.2843 37.1959
28.3304 36.5953
28.3764 36.2232
28.4225 35.8735
28.4684 35.7765
28.5145 35.5363
28.5605 35.4614
28.6066 35.3986
28.6526 35.3152
28.6987 35.2533
28.7447 35.0267
28.7908 35.0915
28.8368 34.9699
28.8829 35.0447
28.9289 35.0179
28.9751 34.689
29.0211 34.495
29.0673 34.2339
29.1133 34.2833
29.1595 34.1255
29.2055 33.897
29.2517 33.9798
29.2977 33.9493
29.3439 33.8618
29.3899 33.812
29.4361 33.7402
29.4824 33.5128
29.5284 33.263
29.5746 32.9698
29.6207 32.7515
29.6669 32.7657
29.713 32.5918
29.7593 32.4392
29.8053 32.6467
29.8516 32.554
29.8977 32.4014
29.9439 32.2494
29.99 32.2861
30.0363 32.0194
30.0824 32.1679
30.1287 32.0629
30.1748 32.1058
30.2211 32.0586
30.2673 32.0349
30.3136 32.0729
30.3597 31.8779
30.406 31.9086
30.4522 31.7015
30.4985 31.7894
30.5447 31.8394
30.591 31.8036
30.6372 31.9217
30.6835 31.8948
30.7297 31.9221
30.7761 31.7539
30.8224 31.6448
30.8686 31.5068
30.915 31.2489
30.9612 31.232
31.0076 30.9515
31.0538 30.7202
31.1002 30.7463
31.1464 30.6605
31.1928 30.5786
31.2391 30.676
31.2855 30.5686
31.3317 30.5122
31.3781 30.663
31.4244 30.5627
31.4708 30.5409
31.5171 30.4967
31.5636 30.4356
31.6098 30.1864
31.6563 30.0128
31.7026 29.9224
31.7491 29.8108
31.7953 29.8306
31.8418 29.7328
31.8881 29.7841
31.9346 29.7469
31.9809 29.6951
32.0275 29.552
32.074 29.5003
32.1203 29.362
32.1668 29.1617
32.2132 29.0778
32.2597 28.8926
32.306 28.8238
32.3526 28.6686
32.399 28.6352
32.4455 28.4366
32.4919 28.3933
32.5385 28.3021
32.5848 28.1651
32.6314 28.1895
32.6778 28.0674
32.7244 27.997
32.7708 27.755
32.8174 27.8467
32.8638 27.7318
32.9104 27.8221
32.9569 27.7275
33.0035 27.5662
33.0499 27.5595
33.0966 27.5511
33.143 27.5256
33.1897 27.3419
33.2361 27.3271
33.2828 27.2162
33.3293 27.1189
33.3759 27.1284
33.4226 26.9484
33.4691 26.7637
33.5158 26.7028
33.5623 26.533
33.609 26.458
33.6555 26.3869
33.7022 26.322
33.7487 26.2597
33.7954 26.2512
33.842 26.1303
33.8887 26.0298
33.9353 26.0277
33.982 25.9164
34.0286 25.7173
34.0753 25.621
34.1219 25.6514
34.1687 25.5233
34.2152 25.4947
34.262 25.2995
34.3086 25.286
34.3554 25.261
34.402 25.0895
34.4488 24.9896
34.4954 24.9648
34.5422 24.8666
34.5889 24.7693
34.6357 24.7126
34.6825 24.7459
34.7292 24.4955
34.776 24.4572
34.8227 24.4949
34.8695 24.4289
34.9162 24.377
34.9631 24.2435
35.0098 24.1928
35.0566 24.1104
35.1033 24.0359
35.1502 23.9726
35.1969 23.9602
35.2438 24.0246
35.2906 23.9639
35.3375 23.7605
35.3842 23.7409
35.4311 23.7501
35.4779 23.6045
35.5248 23.6472
35.5716 23.5283
35.6185 23.3957
35.6653 23.3994
35.7123 23.342
35.759 23.3032
35.806 23.0495
35.8528 23.0206
35.8998 22.9403
35.9468 22.8857
35.9936 22.7924
36.0406 22.7417
36.0874 22.7039
36.1345 22.6624
36.1813 22.5914
36.2283 22.4343
36.2752 22.4404
36.3222 22.4107
36.3691 22.3069
36.4161 22.1959
36.463 22.2018
36.5101 22.1872
36.557 22.1104
36.6041 21.927
36.651 22.0113
36.6981 21.9176
36.745 21.8169
36.7921 21.7147
36.839 21.6107
36.8861 21.5644
36.9331 21.5569
36.9802 21.4268
37.0272 21.3174
37.0743 21.2237
37.1213 21.2732
37.1684 21.1262
37.2154 21.0728
37.2626 21.0946
37.3098 20.9791
37.3568 20.9136
37.404 20.9001
37.451 20.7839
37.4982 20.7344
37.5452 20.6089
37.5924 20.5732
37.6395 20.5941
37.6867 20.5066
37.7337 20.4341
37.781 20.2663
37.8281 20.2752
37.8753 20.1533
37.9224 20.0477
37.9697 20.0477
38.0168 19.9201
38.064 19.91
38.1111 19.86
38.1584 19.7459
38.2056 19.7431
38.2529 19.7016
38.3 19.5928
38.3473 19.5352
38.3945 19.433
38.4418 19.4561
38.489 19.2864
38.5363 19.2632
38.5837 19.2546
38.6309 19.1217
38.6782 19.0783
38.7254 19.0459
38.7728 18.9893
38.82 18.9421
38.8674 18.9258
38.9146 18.8306
38.9621 18.7878
39.0093 18.7471
39.0567 18.705
39.104 18.5778
39.1514 18.549
39.1987 18.4902
39.2461 18.423
39.2934 18.3819
39.3409 18.2438
39.3882 18.1751
39.4356 18.1518
39.483 18.0603
39.5304 17.999
39.5778 18.0518
39.6253 17.9637
39.6726 17.8918
39.7201 17.8606
39.7675 17.82
39.815 17.7961
39.8624 17.6606
39.9099 17.5965
39.9575 17.4908
40.0049 17.5026
40.0525 17.4566
40.0999 17.4278
40.1474 17.2837
40.1949 17.2868
40.2425 17.1811
40.2899 17.1152
40.3375 17.0756
40.385 17.0269
40.4326 16.9572
40.48 16.934
40.5277 16.9612
40.5752 16.8215
40.6228 16.7443
40.6703 16.7381
40.718 16.6583
40.7655 16.6236
40.8132 16.5558
40.8607 16.5102
40.9084 16.5183
40.9559 16.4399
41.0036 16.3811
41.0512 16.3504
41.0989 16.283
41.1465 16.1529
41.1942 16.1655
41.242 16.0787
41.2896 16.056
41.3373 16.0096
41.3849 15.9285
41.4327 15.8757
41.4803 15.8053
41.5281 15.7203
41.5758 15.714
41.6236 15.6536
41.6712 15.6031
41.7191 15.5951
41.7667 15.5192
41.8146 15.4903
41.8622 15.4156
41.9101 15.3486
41.9578 15.2832
42.0057 15.1906
42.0534 15.2237
42.1013 15.1059
42.149 15.0951
42.1969 15.0394
42.2446 14.9638
42.2925 14.9566
42.3403 14.8967
42.3882 14.9016
42.436 14.8009
42.4839 14.7526
42.5319 14.752
42.5797 14.6118
42.6277 14.6295
42.6755 14.5259
42.7235 14.4315
42.7713 14.4325
42.8193 14.4316
42.8671 14.365
42.9152 14.2717
42.963 14.2896
43.0111 14.2288
43.0589 14.1903
43.107 14.1017
43.1549 13.9953
43.2029 14.0032
43.2508 13.9937
43.2989 13.925
43.3468 13.8193
43.3949 13.8005
43.4429 13.816
43.491 13.737
43.5389 13.6913
43.5871 13.6379
43.635 13.5593
43.6832 13.5087
43.7312 13.5033
43.7793 13.402
43.8273 13.3799
43.8755 13.3352
43.9237 13.3017
43.9717 13.2718
44.0199 13.2043
44.068 13.2031
44.1162 13.1143
44.1642 13.0853
44.2125 13.0588
44.2606 12.9836
44.3088 12.957
44.3569 12.8899
44.4052 12.9145
44.4533 12.7787
44.5016 12.6997
44.5497 12.6706
44.598 12.6887
44.6461 12.6198
44.6945 12.5509
44.7426 12.535
44.791 12.4458
44.8391 12.4787
44.8875 12.437
44.9357 12.3694
44.984 12.3036
45.0322 12.2725
45.0806 12.2177
45.1288 12.2244
45.1773 12.1234
45.2257 12.1028
45.2739 12.0814
45.3224 12.0477
45.3706 11.9643
45.4191 11.8929
45.4673 11.8797
45.5158 11.8994
45.5641 11.7845
45.6126 11.7786
45.6609 11.7327
45.7094 11.6605
45.7577 11.603
45.8063 11.5617
45.8546 11.5797
45.9031 11.5266
45.9515 11.4691
46.0001 11.4282
46.0484 11.3939
46.097 11.3696
46.1454 11.3021
46.194 11.301
46.2424 11.2081
46.291 11.2033
46.3395 11.1658
46.3881 11.0764
46.4365 11.0731
46.4852 11.0417
46.5337 10.9746
46.5823 10.9444
46.631 10.905
46.6795 10.8799
46.7282 10.8721
46.7767 10.8375
46.8254 10.7344
46.8739 10.6977
46.9226 10.6573
46.9712 10.5975
47.0199 10.5791
47.0685 10.5251
47.1173 10.5174
47.1658 10.4869
47.2146 10.4574
47.2632 10.403
47.312 10.3718
47.3606 10.2901
47.4095 10.2887
47.4581 10.2384
47.5069 10.194
47.5556 10.1536
47.6044 10.1022
47.6531 10.112
47.702 10.047
47.7507 10.0121
47.7996 10.0139
47.8483 9.97197
47.8972 9.91903
47.9461 9.88566
47.9948 9.81722
48.0438 9.79375
48.0925 9.79275
48.1415 9.74196
48.1902 9.71495
48.2392 9.62233
48.288 9.64457
48.337 9.64087
48.3858 9.57817
48.4348 9.53709
48.4837 9.52152
48.5327 9.45584
48.5815 9.39556
48.6306 9.38405
48.6795 9.33594
48.7285 9.31375
48.7774 9.28137
48.8265 9.24348
48.8754 9.20697
48.9245 9.19666
48.9734 9.14775
49.0226 9.14361
49.0715 9.05269
49.1206 9.03273
49.1696 9.01952
49.2188 8.97093
49.2679 8.93445
49.3169 8.90345
49.3661 8.87537
49.4151 8.84014
49.4643 8.82425
49.5134 8.77035
49.5626 8.69827
49.6117 8.71736
49.6609 8.64197
49.71 8.57985
49.7592 8.60548
49.8083 8.56079
49.8576 8.51722
49.9067 8.46921
49.956 8.48509
50.0052 8.45434
50.0545 8.43511
50.1036 8.3677
50.153 8.3237
50.2022 8.33196
50.2515 8.27126
50.3007 8.20992
50.3501 8.20044
50.3993 8.18377
50.4487 8.14353
50.498 8.07743
50.5474 8.12284
50.5966 8.05704
50.6461 8.04781
50.6955 7.98297
50.7448 7.95579
50.7943 7.9269
50.8436 7.8915
50.8931 7.85666
50.9424 7.81268
50.9919 7.78031
51.0413 7.76638
51.0908 7.76888
51.1402 7.71963
51.1897 7.67229
51.2391 7.67163
51.2887 7.609
51.3381 7.54828
51.3877 7.54954
51.4371 7.47574
51.4867 7.5068
51.5362 7.48621
51.5858 7.44228
51.6353 7.40351
51.6849 7.36656
51.7344 7.33416
51.7841 7.3481
51.8336 7.26486
51.8833 7.27463
51.9328 7.20201
51.9826 7.20642
52.0323 7.1888
52.0818 7.10824
52.1316 7.10906
52.1812 7.04343
52.231 7.04298
52.2806 6.97728
52.3304 7.02091
52.38 6.93331
52.4298 6.92496
52.4794 6.89219
52.5293 6.85015
52.5789 6.82464
52.6288 6.7885
52.6785 6.79984
52.7284 6.75399
52.7781 6.71815
52.828 6.73074
52.8777 6.69357
52.9276 6.63604
52.9774 6.6238
53.0273 6.61307
53.0771 6.59055
53.1271 6.54935
53.1769 6.51517
53.2269 6.49391
53.2767 6.46383
53.3267 6.41237
53.3765 6.41677
53.4266 6.36261
53.4766 6.37019
53.5265 6.29491
53.5765 6.32957
53.6264 6.30368
53.6765 6.20015
53.7264 6.14873
53.7765 6.1836
53.8265 6.15214
53.8766 6.12831
53.9266 6.14434
53.9767 6.07415
54.0267 6.06384
54.0769 6.0767
54.1269 5.95854
54.1771 5.93481
54.2271 5.92036
54.2773 5.89225
54.3274 5.85604
54.3776 5.84655
54.4277 5.80792
54.478 5.76502
54.528 5.72032
54.5783 5.66974
54.6285 5.67115
54.6788 5.67392
54.7289 5.61157
54.7792 5.61159
54.8296 5.46714
54.8798 5.45655
54.9301 5.39686
54.9803 5.37294
55.0307 5.3364
55.0809 5.32158
55.1314 5.28549
55.1816 5.20548
55.232 5.23114
55.2823 5.19582
55.3328 5.05966
55.383 5.02998
55.4335 5.06994
55.4838 4.97093
55.5344 4.89164
55.5847 4.91302
55.6352 4.81467
55.6856 4.80941
55.7361 4.72689