File: XRD/Ni3Fe_FD0325.xy
TT I
1.27165 7.66518
1.31627 7.05393
1.36089 6.72076
1.40551 6.16363
1.45013 6.6175
1.49476 5.57297
1.53938 6.32158
1.584 5.95037
1.62863 5.19573
1.67325 5.51358
1.71787 5.28006
1.7625 5.11639
1.80712 4.48932
1.85174 4.59272
1.89636 4.71446
1.94099 4.85928
1.98562 4.12251
2.03025 4.51328
2.07487 4.66513
2.11949 5.41779
2.16411 4.82442
2.20874 13.2829
2.25338 19.5087
2.298 6.06856
2.34263 5.19786
2.38725 4.89042
2.43188 5.2515
2.4765 5.86124
2.52115 6.25384
2.56577 6.37754
2.6104 7.20388
2.65503 6.43377
2.69965 6.55749
2.7443 7.17827
2.78893 7.57344
2.83356 7.87782
2.87818 8.75639
2.92281 9.02861
2.96744 9.5273
3.01209 10.4425
3.05672 11.141
3.10135 12.4356
3.14599 12.8181
3.19062 14.0009
3.23527 14.9658
3.2799 16.2696
3.32454 16.8958
3.36917 17.7978
3.4138 19.2414
3.45844 19.912
3.50309 21.404
3.54773 22.0801
3.59237 24.1188
3.637 83.5351
3.68164 53.7125
3.7263 26.461
3.77094 26.0734
3.81558 26.9205
3.86022 27.6233
3.90486 29.582
3.9495 30.2159
3.99416 31.631
4.0388 32.6805
4.08344 34.4529
4.12809 35.6597
4.17273 37.4895
4.21738 42.9527
4.26204 220.201
4.30669 192.508
4.35133 48.6591
4.39598 45.522
4.44063 53.8443
4.4853 64.0719
4.52995 52.9202
4.5746 52.6155
4.61925 54.8294
4.6639 56.4408
4.70855 60.0587
4.75322 62.7288
4.79788 65.3133
4.84253 69.7505
4.88719 74.1239
4.93184 77.8434
4.97652 84.1976
5.02118 91.7687
5.06583 100.427
5.11049 115.281
5.15515 187.944
5.19981 538.086
5.24449 3472.9
5.28916 11408.1
5.33382 3630.98
5.37848 231.609
5.42315 140.096
5.46783 120.932
5.5125 111.136
5.55716 106.515
5.60183 102.274
5.6465 100.742
5.69117 98.2758
5.73586 96.4493
5.78053 96.3956
5.8252 96.7201
5.86988 98.0033
5.91455 101.28
5.95924 114.03
6.00392 285.98
6.0486 1193.71
6.09328 3980.42
6.13795 3494.3
6.18263 306.0
6.22733 101.28
6.27201 86.9158
6.3167 101.458
6.36138 81.6955
6.40606 71.4409
6.45075 69.6576
6.49545 67.1484
6.54014 65.444
6.58483 64.7345
6.62952 64.3195
6.67421 90.7
6.71892 133.544
6.76361 68.5472
6.8083 59.8899
6.853 59.2282
6.89769 58.3519
6.94239 57.8707
6.98711 57.1331
7.03181 56.9346
7.07651 56.6086
7.12121 56.5847
7.16591 56.6235
7.21063 56.7
7.25533 69.7426
7.30004 162.426
7.34475 88.0525
7.38945 57.6307
7.43416 55.7292
7.47889 55.8083
7.5236 56.0274
7.56831 56.5709
7.61303 58.2836
7.65774 58.5453
7.70247 57.7769
7.74719 57.9144
7.79191 58.0843
7.83663 58.5058
7.88135 59.7271
7.92607 60.3813
7.97081 61.5428
8.01553 62.5265
8.06026 63.9744
8.10498 65.3652
8.14971 74.4644
8.19446 73.9849
8.23919 71.3555
8.28392 74.1645
8.32865 76.6562
8.37339 80.8557
8.41812 88.7354
8.46288 117.717
8.50761 206.062
8.55235 469.897
8.59709 1141.75
8.64183 2101.36
8.68658 1105.58
8.73134 189.443
8.77609 104.81
8.82083 96.2962
8.86558 92.8599
8.91033 92.7356
8.9551 93.5507
8.99985 88.0529
9.04461 86.066
9.08936 85.3786
9.13412 84.4657
9.17888 84.0054
9.22365 85.4163
9.26841 84.2405
9.31318 85.6408
9.35794 85.7962
9.4027 85.9762
9.44749 86.3637
9.49226 87.0231
9.53703 88.0578
9.5818 90.3003
9.62657 94.3949
9.67134 100.27
9.71614 96.2365
9.76091 97.2736
9.80569 99.7958
9.85047 103.501
9.89525 125.382
9.94005 141.624
9.98484 215.581
10.0296 412.091
10.0744 831.639
10.1192 1620.58
10.164 1709.09
10.2088 495.0
10.2536 140.358
10.2984 117.859
10.3432 117.881
10.388 109.015
10.4328 130.949
10.4776 179.818
10.5224 286.881
10.5672 477.662
10.612 524.399
10.6568 223.372
10.7017 101.008
10.7465 89.6637
10.7913 85.9491
10.8361 83.4614
10.8809 81.5298
10.9257 80.3774
10.9706 81.0369
11.0154 76.8949
11.0602 74.6682
11.105 73.6932
11.1499 77.5111
11.1947 83.1886
11.2395 75.5781
11.2844 71.8477
11.3292 69.367
11.374 68.0189
11.4189 67.3261
11.4637 66.667
11.5086 67.0643
11.5534 69.6027
11.5983 67.1716
11.6431 65.5679
11.688 64.4829
11.7328 64.7844
11.7777 64.8189
11.8225 64.3262
11.8674 64.1375
11.9122 64.551
11.9571 65.0502
12.002 65.9037
12.0468 72.3271
12.0917 85.4493
12.1366 107.819
12.1814 149.195
12.2263 200.919
12.2712 180.871
12.3161 102.188
12.3609 72.5748
12.4058 66.8438
12.4507 66.4187
12.4956 66.161
12.5405 66.1781
12.5853 67.2547
12.6302 74.1247
12.6751 79.2395
12.72 71.5929
12.7649 69.6853
12.8098 70.3518
12.8547 71.596
12.8996 73.3149
12.9445 74.5984
12.9894 76.5973
13.0343 78.3889
13.0792 82.1461
13.1242 95.6
13.1691 124.082
13.214 162.917
13.2589 238.733
13.3038 347.822
13.3487 428.441
13.3937 288.556
13.4386 134.391
13.4835 115.514
13.5285 133.022
13.5734 168.634
13.6183 237.089
13.6633 328.828
13.7082 345.02
13.7531 204.99
13.7981 103.578
13.843 84.6149
13.888 82.4244
13.9329 79.5441
13.9779 77.9135
14.0228 76.5914
14.0678 75.0641
14.1127 74.7266
14.1577 74.3517
14.2027 73.4549
14.2476 72.5739
14.2926 72.7109
14.3376 73.3224
14.3825 72.3266
14.4275 71.0366
14.4725 70.9394
14.5175 71.0676
14.5624 71.1865
14.6074 73.0982
14.6524 73.5833
14.6974 72.6253
14.7424 75.3853
14.7874 84.6418
14.8324 96.4621
14.8774 116.262
14.9224 151.638
14.9674 198.291
15.0124 220.037
15.0574 158.24
15.1024 95.7838
15.1474 74.5935
15.1924 72.6222
15.2374 72.8047
15.2824 71.9368
15.3274 69.9874
15.3725 69.1691
15.4175 68.3478
15.4625 67.9696
15.5076 68.3961
15.5526 68.4426
15.5976 68.2124
15.6426 70.0065
15.6877 77.254
15.7327 86.1811
15.7778 100.65
15.8228 126.543
15.8679 163.001
15.9129 194.151
15.958 167.284
16.003 104.915
16.0481 70.8334
16.0931 66.4297
16.1382 64.3953
16.1833 62.5317
16.2283 60.8022
16.2734 60.225
16.3185 60.2394
16.3636 60.8478
16.4086 59.3613
16.4537 57.9229
16.4988 57.2116
16.5439 57.0009
16.589 56.8172
16.6341 56.3633
16.6792 56.2297
16.7243 56.5271
16.7694 56.5824
16.8145 56.2967
16.8596 56.7912
16.9047 58.1525
16.9498 58.4689
16.9949 57.4142
17.04 57.6852
17.0851 59.2524
17.1302 61.2385
17.1754 64.3989
17.2205 68.9339
17.2656 74.6767
17.3108 83.0186
17.3559 84.5161
17.401 74.7116
17.4462 64.6696
17.4913 61.1369
17.5365 60.8858
17.5815 60.9325
17.6268 61.5271
17.6718 62.3609
17.7171 62.8724
17.7622 63.4251
17.8074 64.0352
17.8525 67.527
17.8977 72.0887
17.9428 78.0094
17.9881 86.3647
18.0331 100.801
18.0784 118.967
18.1237 139.616
18.1688 138.601
18.214 112.215
18.2591 90.9549
18.3044 91.0986
18.3495 98.8828
18.3948 107.56
18.4399 100.08
18.4852 81.345
18.5303 68.298
18.5756 64.219
18.6207 63.144
18.666 62.3838
18.7112 61.5846
18.7565 60.8167
18.8016 60.4777
18.8469 59.9313
18.892 59.5756
18.9374 59.0669
18.9825 58.6414
19.0278 58.5929
19.073 59.0507
19.1183 59.5638
19.1635 60.3114
19.2088 62.0197
19.254 64.0548
19.2993 67.6341
19.3447 72.395
19.3898 77.4147
19.4352 75.2812
19.4804 66.2283
19.5257 58.8289
19.5709 55.9481
19.6163 55.509
19.6615 55.4967
19.7068 54.9565
19.752 54.8643
19.7974 55.4292
19.8426 56.4118
19.888 57.2359
19.9332 58.5053
19.9786 60.6402
20.0238 63.5464
20.0692 67.9677
20.1144 71.3578
20.1598 71.1485
20.205 66.1958
20.2504 63.5504
20.2957 64.6142
20.3411 66.76
20.3863 66.2657
20.4318 60.6114
20.477 55.7307
20.5224 53.0883
20.5677 52.4018
20.6131 51.6395
20.6586 51.1895
20.7038 51.1812
20.7493 50.553
20.7945 50.4659
20.84 50.3708
20.8853 50.3777
20.9307 50.0502
20.976 50.3052
21.0215 50.1485
21.0668 50.6591
21.1122 51.0867
21.1575 51.5639
21.203 52.1214
21.2483 52.7743
21.2938 53.2303
21.3391 51.9551
21.3846 50.6344
21.4299 49.902
21.4754 49.8242
21.5207 50.1589
21.5662 50.5089
21.6116 51.0562
21.6571 51.8494
21.7024 52.8674
21.7479 54.5139
21.7933 56.8333
21.8388 59.9861
21.8843 63.5061
21.9297 66.4844
21.9752 65.9799
22.0206 61.9973
22.0661 58.1759
22.1115 57.1482
22.157 57.4899
22.2024 56.115
22.248 53.2726
22.2933 51.5072
22.3389 50.7074
22.3843 50.4586
22.4299 50.5541
22.4753 50.2943
22.5208 50.2167
22.5662 50.104
22.6118 50.2255
22.6572 50.6231
22.7028 51.0905
22.7483 51.6167
22.7939 52.1637
22.8393 53.5959
22.8849 55.3538
22.9303 57.1406
22.9759 58.9442
23.0214 59.148
23.067 56.4798
23.1126 52.9203
23.1581 50.7937
23.2037 50.2373
23.2492 50.447
23.2948 50.6484
23.3403 50.906
23.3859 51.6838
23.4314 52.5236
23.477 53.8311
23.5225 55.493
23.5682 57.5978
23.6137 59.4116
23.6593 57.7876
23.7048 53.8274
23.7505 50.02
23.796 48.0183
23.8417 47.4123
23.8872 46.973
23.9329 46.557
23.9784 46.3077
24.0241 45.9863
24.0697 45.8058
24.1154 45.3537
24.1609 45.4076
24.2066 45.2335
24.2522 45.0909
24.2979 44.7803
24.3434 44.7746
24.3892 44.4442
24.4349 44.5688
24.4805 44.3082
24.5262 44.4368
24.5718 44.3382
24.6175 44.211
24.6631 44.113
24.7089 43.8365
24.7545 43.7122
24.8002 43.6223
24.8458 43.6437
24.8916 43.3821
24.9372 43.5717
24.983 44.073
25.0286 44.3228
25.0744 44.5274
25.12 45.0175
25.1658 45.8074
25.2114 45.9411
25.2572 45.9627
25.3029 45.9975
25.3487 46.0428
25.3943 46.0014
25.4402 45.0843
25.4858 43.9376
25.5316 42.8991
25.5773 42.25
25.6231 42.2339
25.669 41.8569
25.7147 41.8269
25.7605 41.7758
25.8062 41.7417
25.8521 41.8935
25.8977 41.739
25.9436 42.1732
25.9893 42.2053
26.0352 42.5369
26.0809 42.6055
26.1268 43.0637
26.1725 42.777
26.2184 42.0594
26.2641 41.6627
26.31 41.4159
26.3557 41.3261
26.4017 41.3675
26.4474 41.6844
26.4933 42.0304
26.5391 42.434
26.585 42.7265
26.6308 43.2713
26.6767 43.3919
26.7225 43.4421
26.7684 42.7045
26.8142 42.0369
26.8601 41.7062
26.9059 41.3324
26.9519 40.842
26.9979 40.4569
27.0437 40.0266
27.0896 40.0372
27.1354 40.0965
27.1814 39.825
27.2272 39.6819
27.2732 39.7887
27.3191 39.4643
27.3651 39.6847
27.4109 39.5686
27.4569 39.5606
27.5027 39.6414
27.5488 39.8824
27.5946 39.6028
27.6407 39.3203
27.6865 39.3748
27.7326 39.1137
27.7784 39.1283
27.8245 38.9854
27.8703 39.1235
27.9164 39.3582
27.9623 39.377
28.0084 39.7931
28.0543 40.1789
28.1003 40.1719
28.1462 39.9861
28.1923 39.6365
28.2384 39.1955
28.2843 38.7372
28.3304 38.4851
28.3764 37.8012
28.4225 37.622
28.4684 37.3496
28.5145 37.0027
28.5605 37.0818
28.6066 36.7829
28.6526 36.6407
28.6987 36.6831
28.7447 36.5374
28.7908 36.4836
28.8368 36.5374
28.8829 36.5034
28.9289 36.4139
28.9751 36.2955
29.0211 36.0511
29.0673 35.9289
29.1133 35.6898
29.1595 35.4632
29.2055 35.3558
29.2517 35.3207
29.2977 35.2767
29.3439 35.3241
29.3899 35.1759
29.4361 35.0563
29.4824 35.0383
29.5284 34.8263
29.5746 34.4638
29.6207 34.1689
29.6669 34.1631
29.713 34.024
29.7593 33.7818
29.8053 33.9357
29.8516 33.8446
29.8977 33.9538
29.9439 33.6045
29.99 33.5893
30.0363 33.4065
30.0824 33.5958
30.1287 33.4308
30.1748 33.3733
30.2211 33.3305
30.2673 33.2581
30.3136 33.4806
30.3597 33.2334
30.406 33.204
30.4522 33.0142
30.4985 33.0209
30.5447 33.1794
30.591 32.9986
30.6372 33.114
30.6835 33.1452
30.7297 33.152
30.7761 33.1644
30.8224 32.9413
30.8686 32.897
30.915 32.5265
30.9612 32.5962
31.0076 32.2226
31.0538 32.2212
31.1002 32.0864
31.1464 31.8678
31.1928 31.8085
31.2391 31.8882
31.2855 31.8052
31.3317 31.7878
31.3781 31.87
31.4244 31.7177
31.4708 31.75
31.5171 31.7218
31.5636 31.7195
31.6098 31.4193
31.6563 31.2848
31.7026 31.1549
31.7491 31.0029
31.7953 31.0819
31.8418 31.0293
31.8881 31.0595
31.9346 30.9562
31.9809 30.9121
32.0275 30.7522
32.074 30.7127
32.1203 30.5717
32.1668 30.4456
32.2132 30.3177
32.2597 30.1756
32.306 30.0456
32.3526 29.853
32.399 29.8527
32.4455 29.6274
32.4919 29.5663
32.5385 29.5682
32.5848 29.3482
32.6314 29.4156
32.6778 29.3372
32.7244 29.1479
32.7708 29.0136
32.8174 29.0406
32.8638 28.7988
32.9104 28.9904
32.9569 28.8733
33.0035 28.7274
33.0499 28.6508
33.0966 28.5777
33.143 28.6351
33.1897 28.4953
33.2361 28.4887
33.2828 28.4546
33.3293 28.2556
33.3759 28.2605
33.4226 28.1288
33.4691 27.9417
33.5158 27.8543
33.5623 27.6852
33.609 27.4674
33.6555 27.5033
33.7022 27.39
33.7487 27.2923
33.7954 27.237
33.842 27.2058
33.8887 27.1713
33.9353 27.0266
33.982 26.8982
34.0286 26.7983
34.0753 26.8224
34.1219 26.6432
34.1687 26.5812
34.2152 26.5665
34.262 26.4282
34.3086 26.3036
34.3554 26.2801
34.402 26.1607
34.4488 26.0764
34.4954 26.0145
34.5422 25.9864
34.5889 25.8534
34.6357 25.715
34.6825 25.7218
34.7292 25.5879
34.776 25.5412
34.8227 25.4463
34.8695 25.3774
34.9162 25.3368
34.9631 25.1928
35.0098 25.2337
35.0566 25.0884
35.1033 25.0907
35.1502 24.9362
35.1969 25.0071
35.2438 24.8752
35.2906 24.7583
35.3375 24.7674
35.3842 24.6627
35.4311 24.6912
35.4779 24.659
35.5248 24.5322
35.5716 24.459
35.6185 24.3465
35.6653 24.4045
35.7123 24.3198
35.759 24.1156
35.806 24.0637
35.8528 23.9452
35.8998 23.935
35.9468 23.8436
35.9936 23.7551
36.0406 23.7264
36.0874 23.7058
36.1345 23.5806
36.1813 23.419
36.2283 23.3875
36.2752 23.3299
36.3222 23.3596
36.3691 23.2443
36.4161 23.1101
36.463 23.0361
36.5101 23.1135
36.557 23.0713
36.6041 22.8324
36.651 22.8809
36.6981 22.817
36.745 22.7046
36.7921 22.587
36.839 22.5022
36.8861 22.4837
36.9331 22.3618
36.9802 22.3699
37.0272 22.2345
37.0743 22.1158
37.1213 22.1085
37.1684 22.1205
37.2154 22.0003
37.2626 21.9358
37.3098 21.8536
37.3568 21.702
37.404 21.7086
37.451 21.6394
37.4982 21.5499
37.5452 21.4482
37.5924 21.4059
37.6395 21.4565
37.6867 21.3405
37.7337 21.2203
37.781 21.1662
37.8281 21.1635
37.8753 20.9765
37.9224 20.9785
37.9697 20.9001
38.0168 20.8096
38.064 20.7287
38.1111 20.7009
38.1584 20.6198
38.2056 20.566
38.2529 20.5493
38.3 20.464
38.3473 20.3732
38.3945 20.354
38.4418 20.2213
38.489 20.19
38.5363 20.0483
38.5837 20.0038
38.6309 19.9603
38.6782 19.9149
38.7254 19.8454
38.7728 19.8148
38.82 19.7637
38.8674 19.6826
38.9146 19.5866
38.9621 19.5363
39.0093 19.459
39.0567 19.413
39.104 19.3663
39.1514 19.2929
39.1987 19.2555
39.2461 19.1506
39.2934 19.1201
39.3409 19.0425
39.3882 18.9544
39.4356 18.8582
39.483 18.8665
39.5304 18.8044
39.5778 18.7086
39.6253 18.7284
39.6726 18.6219
39.7201 18.5498
39.7675 18.4984
39.815 18.4212
39.8624 18.3964
39.9099 18.3464
39.9575 18.3154
40.0049 18.2043
40.0525 18.1244
40.0999 18.1083
40.1474 18.0999
40.1949 18.0105
40.2425 17.9622
40.2899 17.8602
40.3375 17.8369
40.385 17.7746
40.4326 17.6452
40.48 17.6795
40.5277 17.6475
40.5752 17.5196
40.6228 17.4236
40.6703 17.4087
40.718 17.4429
40.7655 17.265
40.8132 17.2506
40.8607 17.2492
40.9084 17.156
40.9559 17.082
41.0036 17.0996
41.0512 16.995
41.0989 16.9475
41.1465 16.8536
41.1942 16.8364
41.242 16.7541
41.2896 16.72
41.3373 16.6165
41.3849 16.6155
41.4327 16.5141
41.4803 16.4723
41.5281 16.415
41.5758 16.3445
41.6236 16.2951
41.6712 16.3133
41.7191 16.1517
41.7667 16.1753
41.8146 16.1027
41.8622 16.0586
41.9101 16.0139
41.9578 15.8794
42.0057 15.845
42.0534 15.7964
42.1013 15.7813
42.149 15.7122
42.1969 15.6365
42.2446 15.5797
42.2925 15.5837
42.3403 15.4925
42.3882 15.4686
42.436 15.4272
42.4839 15.3179
42.5319 15.3031
42.5797 15.2439
42.6277 15.1931
42.6755 15.1908
42.7235 15.0772
42.7713 15.0625
42.8193 15.006
42.8671 14.9553
42.9152 14.9191
42.963 14.8116
43.0111 14.7738
43.0589 14.7731
43.107 14.7335
43.1549 14.6988
43.2029 14.5965
43.2508 14.5634
43.2989 14.4849
43.3468 14.4394
43.3949 14.3672
43.4429 14.3564
43.491 14.2828
43.5389 14.2575
43.5871 14.2291
43.635 14.1606
43.6832 14.1222
43.7312 14.0798
43.7793 14.0333
43.8273 13.9503
43.8755 13.9015
43.9237 13.8337
43.9717 13.7939
44.0199 13.7249
44.068 13.717
44.1162 13.6252
44.1642 13.6793
44.2125 13.5804
44.2606 13.4971
44.3088 13.5204
44.3569 13.4106
44.4052 13.4256
44.4533 13.3229
44.5016 13.2737
44.5497 13.2353
44.598 13.2401
44.6461 13.1621
44.6945 13.1002
44.7426 13.0808
44.791 13.0212
44.8391 12.9623
44.8875 12.8736
44.9357 12.8868
44.984 12.856
45.0322 12.7993
45.0806 12.7061
45.1288 12.7174
45.1773 12.631
45.2257 12.5846
45.2739 12.5527
45.3224 12.5257
45.3706 12.4922
45.4191 12.3692
45.4673 12.4132
45.5158 12.3715
45.5641 12.2747
45.6126 12.219
45.6609 12.1996
45.7094 12.1516
45.7577 12.115
45.8063 12.0779
45.8546 12.051
45.9031 11.9931
45.9515 11.9473
46.0001 11.9055
46.0484 11.854
46.097 11.827
46.1454 11.7923
46.194 11.7531
46.2424 11.6978
46.291 11.6531
46.3395 11.6023
46.3881 11.5418
46.4365 11.5439
46.4852 11.4714
46.5337 11.4122
46.5823 11.3979
46.631 11.357
46.6795 11.2688
46.7282 11.2845
46.7767 11.2666
46.8254 11.1807
46.8739 11.1572
46.9226 11.1373
46.9712 11.0992
47.0199 11.0211
47.0685 10.9993
47.1173 10.9736
47.1658 10.9257
47.2146 10.8984
47.2632 10.8113
47.312 10.7779
47.3606 10.7474
47.4095 10.6871
47.4581 10.6618
47.5069 10.6321
47.5556 10.5865
47.6044 10.5323
47.6531 10.5331
47.702 10.407
47.7507 10.4196
47.7996 10.386
47.8483 10.3098
47.8972 10.3346
47.9461 10.3051
47.9948 10.2368
48.0438 10.1746
48.0925 10.1896
48.1415 10.1389
48.1902 10.0935
48.2392 10.1035
48.288 10.0456
48.337 9.9987
48.3858 9.934
48.4348 9.89453
48.4837 9.89611
48.5327 9.85728
48.5815 9.83158
48.6306 9.78126
48.6795 9.78282
48.7285 9.67188
48.7774 9.6893
48.8265 9.65371
48.8754 9.62543
48.9245 9.56738
48.9734 9.51748
49.0226 9.51565
49.0715 9.46668
49.1206 9.39661
49.1696 9.37509
49.2188 9.34585
49.2679 9.3181
49.3169 9.29359
49.3661 9.25553
49.4151 9.20951
49.4643 9.15256
49.5134 9.1122
49.5626 9.08884
49.6117 9.03775
49.6609 9.02002
49.71 8.95193
49.7592 8.95351
49.8083 8.93049
49.8576 8.93976
49.9067 8.85696
49.956 8.83012
50.0052 8.78581
50.0545 8.73941
50.1036 8.67255
50.153 8.70643
50.2022 8.67101
50.2515 8.55677
50.3007 8.58162
50.3501 8.55147
50.3993 8.48851
50.4487 8.50248
50.498 8.45887
50.5474 8.44865
50.5966 8.3887
50.6461 8.35133
50.6955 8.3429
50.7448 8.27824
50.7943 8.24993
50.8436 8.23115
50.8931 8.16323
50.9424 8.16242
50.9919 8.16969
51.0413 8.11511
51.0908 8.02276
51.1402 8.03971
51.1897 7.98925
51.2391 7.97811
51.2887 7.92594
51.3381 7.89603
51.3877 7.87793
51.4371 7.84932
51.4867 7.77476
51.5362 7.77789
51.5858 7.69261
51.6353 7.67929
51.6849 7.65543
51.7344 7.67504
51.7841 7.60653
51.8336 7.57067
51.8833 7.51391
51.9328 7.48905
51.9826 7.48478
52.0323 7.46167
52.0818 7.4191
52.1316 7.39854
52.1812 7.36771
52.231 7.32051
52.2806 7.27853
52.3304 7.29144
52.38 7.22791
52.4298 7.19041
52.4794 7.18497
52.5293 7.15466
52.5789 7.11563
52.6288 7.11645
52.6785 7.03683
52.7284 7.0241
52.7781 7.0585
52.828 6.98398
52.8777 6.98752
52.9276 6.88716
52.9774 6.92001
53.0273 6.87063
53.0771 6.82806
53.1271 6.79134
53.1769 6.76446
53.2269 6.74911
53.2767 6.69418
53.3267 6.70128
53.3765 6.66391
53.4266 6.59879
53.4766 6.6317
53.5265 6.54192
53.5765 6.57533
53.6264 6.51423
53.6765 6.48933
53.7264 6.43855
53.7765 6.46653
53.8265 6.40952
53.8766 6.37322
53.9266 6.36654
53.9767 6.32677
54.0267 6.30342
54.0769 6.28031
54.1269 6.24902
54.1771 6.15491
54.2271 6.16817
54.2773 6.12313
54.3274 6.0799
54.3776 6.04391
54.4277 6.03512
54.478 6.02833
54.528 5.96929
54.5783 5.97032
54.6285 5.86474
54.6788 5.8547
54.7289 5.84261
54.7792 5.81175
54.8296 5.73789
54.8798 5.69473
54.9301 5.62311
54.9803 5.58565
55.0307 5.57373
55.0809 5.53945
55.1314 5.51245
55.1816 5.44244
55.232 5.36777
55.2823 5.34909
55.3328 5.29377
55.383 5.22686
55.4335 5.24011
55.4838 5.11992
55.5344 5.13686
55.5847 5.08283
55.6352 5.05626
55.6856 5.01439
55.7361 4.99179