File: XRD/Ni3Fe_FD0933.xy
TT I
1.27165 7.14491
1.31627 6.70434
1.36089 6.30618
1.40551 6.30639
1.45013 5.96099
1.49476 5.81963
1.53938 5.95878
1.584 5.04963
1.62863 5.14951
1.67325 4.18814
1.71787 5.1018
1.7625 4.6431
1.80712 4.18559
1.85174 4.39541
1.89636 4.39155
1.94099 4.81624
1.98562 4.17421
2.03025 3.96988
2.07487 4.00135
2.11949 4.79145
2.16411 4.61767
2.20874 7.52196
2.25338 10.1965
2.298 5.22114
2.34263 4.63286
2.38725 5.71284
2.43188 6.30378
2.4765 6.90142
2.52115 7.01403
2.56577 8.13798
2.6104 8.69612
2.65503 8.55716
2.69965 8.84091
2.7443 8.20692
2.78893 8.16
2.83356 8.80873
2.87818 9.22218
2.92281 9.30263
2.96744 9.60436
3.01209 10.2526
3.05672 11.0675
3.10135 12.0614
3.14599 13.1356
3.19062 14.6304
3.23527 15.6291
3.2799 15.6163
3.32454 16.3594
3.36917 17.2575
3.4138 18.6329
3.45844 19.4132
3.50309 20.2244
3.54773 21.2588
3.59237 23.0703
3.637 44.5804
3.68164 34.3927
3.7263 25.1109
3.77094 25.5662
3.81558 26.2216
3.86022 27.0008
3.90486 28.2994
3.9495 29.113
3.99416 30.1365
4.0388 31.482
4.08344 32.6444
4.12809 33.6919
4.17273 35.1353
4.21738 38.054
4.26204 106.381
4.30669 92.1208
4.35133 43.2333
4.39598 42.9852
4.44063 48.2292
4.4853 52.4391
4.52995 58.4417
4.5746 59.1358
4.61925 53.5427
4.6639 54.6982
4.70855 57.8285
4.75322 61.2425
4.79788 68.6085
4.84253 67.8979
4.88719 75.6927
4.93184 76.2546
4.97652 80.1964
5.02118 85.9411
5.06583 93.3439
5.11049 104.451
5.15515 153.551
5.19981 370.247
5.24449 2774.65
5.28916 13549.2
5.33382 2681.24
5.37848 194.614
5.42315 129.897
5.46783 119.868
5.5125 113.124
5.55716 100.793
5.60183 96.8567
5.6465 94.6261
5.69117 93.6228
5.73586 92.1275
5.78053 99.2717
5.8252 99.09
5.86988 102.413
5.91455 93.5577
5.95924 102.15
6.00392 227.758
6.0486 913.507
6.09328 4666.66
6.13795 2973.87
6.18263 190.997
6.22733 87.5085
6.27201 78.6003
6.3167 81.3967
6.36138 72.721
6.40606 69.5749
6.45075 69.8014
6.49545 64.1507
6.54014 62.3815
6.58483 61.7899
6.62952 62.4107
6.67421 70.4331
6.71892 83.6521
6.76361 60.6789
6.8083 59.6228
6.853 60.1732
6.89769 55.7346
6.94239 55.3343
6.98711 54.8778
7.03181 55.1035
7.07651 54.1339
7.12121 54.1193
7.16591 55.7154
7.21063 54.8813
7.25533 58.9256
7.30004 90.2127
7.34475 64.8426
7.38945 54.0238
7.43416 52.9283
7.47889 53.1298
7.5236 53.5337
7.56831 53.9455
7.61303 54.3908
7.65774 55.2588
7.70247 56.4793
7.74719 55.9328
7.79191 55.7939
7.83663 55.6249
7.88135 56.9057
7.92607 57.4004
7.97081 58.854
8.01553 60.0866
8.06026 61.7911
8.10498 63.3163
8.14971 70.5201
8.19446 70.2716
8.23919 68.3633
8.28392 70.6328
8.32865 72.9973
8.37339 77.4964
8.41812 82.0559
8.46288 100.131
8.50761 170.668
8.55235 364.443
8.59709 1204.9
8.64183 2225.7
8.68658 835.082
8.73134 139.45
8.77609 95.7585
8.82083 91.4105
8.86558 92.4128
8.91033 92.3434
8.9551 89.0802
8.99985 84.6671
9.04461 83.3185
9.08936 83.73
9.13412 82.2741
9.17888 81.1215
9.22365 80.9335
9.26841 81.0142
9.31318 84.3352
9.35794 86.7349
9.4027 85.9486
9.44749 84.8201
9.49226 83.9224
9.53703 84.8228
9.5818 89.089
9.62657 94.5362
9.67134 94.7562
9.71614 91.5876
9.76091 94.1958
9.80569 99.3705
9.85047 100.646
9.89525 109.437
9.94005 124.304
9.98484 184.169
10.0296 329.978
10.0744 828.389
10.1192 1841.19
10.164 1454.35
10.2088 323.9
10.2536 118.133
10.2984 107.479
10.3432 106.07
10.388 103.182
10.4328 119.135
10.4776 158.128
10.5224 290.045
10.5672 547.544
10.612 480.96
10.6568 176.278
10.7017 91.9312
10.7465 84.5867
10.7913 81.5126
10.8361 79.5898
10.8809 77.4369
10.9257 76.9893
10.9706 76.9875
11.0154 74.5631
11.0602 71.7445
11.105 70.4882
11.1499 70.6463
11.1947 72.2485
11.2395 68.8468
11.2844 67.2275
11.3292 65.7673
11.374 64.9837
11.4189 64.7947
11.4637 63.5661
11.5086 63.5499
11.5534 64.1646
11.5983 63.0045
11.6431 62.4889
11.688 61.8834
11.7328 61.7431
11.7777 61.7817
11.8225 62.1004
11.8674 61.4332
11.9122 61.5095
11.9571 62.1157
12.002 63.5917
12.0468 67.4937
12.0917 77.072
12.1366 102.243
12.1814 159.612
12.2263 210.191
12.2712 152.977
12.3161 85.3126
12.3609 65.3211
12.4058 63.0835
12.4507 63.237
12.4956 63.7114
12.5405 63.9751
12.5853 64.2094
12.6302 66.4641
12.6751 68.9242
12.72 66.996
12.7649 66.7547
12.8098 67.2119
12.8547 69.305
12.8996 70.7296
12.9445 72.2589
12.9894 73.8452
13.0343 74.8497
13.0792 79.7839
13.1242 91.1803
13.1691 109.116
13.214 145.759
13.2589 246.745
13.3038 394.81
13.3487 418.044
13.3937 227.125
13.4386 114.343
13.4835 104.039
13.5285 117.54
13.5734 158.085
13.6183 259.726
13.6633 373.215
13.7082 323.591
13.7531 165.568
13.7981 91.603
13.843 80.0826
13.888 78.2916
13.9329 76.0124
13.9779 74.4975
14.0228 73.0871
14.0678 71.9759
14.1127 71.0685
14.1577 70.6899
14.2027 70.3647
14.2476 69.2183
14.2926 68.9838
14.3376 68.8649
14.3825 68.6207
14.4275 67.8705
14.4725 67.7766
14.5175 67.7874
14.5624 68.1913
14.6074 68.7312
14.6524 69.1967
14.6974 69.6772
14.7424 72.7579
14.7874 78.2087
14.8324 87.5065
14.8774 110.729
14.9224 160.0
14.9674 219.883
15.0124 212.365
15.0574 136.283
15.1024 83.682
15.1474 70.6826
15.1924 69.041
15.2374 68.4652
15.2824 67.3304
15.3274 66.0923
15.3725 65.8666
15.4175 65.3095
15.4625 64.8771
15.5076 64.7342
15.5526 64.6633
15.5976 64.7011
15.6426 67.011
15.6877 71.6365
15.7327 78.4303
15.7778 93.7157
15.8228 127.868
15.8679 177.377
15.9129 195.17
15.958 145.065
16.003 86.6851
16.0481 64.6596
16.0931 61.6526
16.1382 60.3357
16.1833 59.0888
16.2283 57.6667
16.2734 57.0825
16.3185 56.6191
16.3636 56.7689
16.4086 55.7201
16.4537 55.0072
16.4988 54.4815
16.5439 54.5632
16.589 54.1733
16.6341 53.81
16.6792 53.2975
16.7243 53.6447
16.7694 53.6417
16.8145 53.7282
16.8596 53.981
16.9047 54.3626
16.9498 54.6718
16.9949 54.4229
17.04 55.089
17.0851 56.2914
17.1302 57.4037
17.1754 60.4941
17.2205 66.2347
17.2656 74.8735
17.3108 83.1716
17.3559 80.1782
17.401 67.4394
17.4462 60.2487
17.4913 58.1684
17.5365 57.8987
17.5815 58.3036
17.6268 58.6305
17.6718 59.2396
17.7171 59.5079
17.7622 60.356
17.8074 61.5638
17.8525 64.2142
17.8977 67.3942
17.9428 72.418
17.9881 82.0947
18.0331 100.687
18.0784 126.575
18.1237 140.322
18.1688 125.197
18.214 96.3985
18.2591 83.4683
18.3044 90.6974
18.3495 101.411
18.3948 104.891
18.4399 90.47
18.4852 72.4828
18.5303 63.742
18.5756 60.7753
18.6207 60.0464
18.666 59.2483
18.7112 58.4681
18.7565 57.9246
18.8016 57.5333
18.8469 57.1324
18.892 56.9084
18.9374 56.473
18.9825 55.9361
19.0278 55.5459
19.073 56.0653
19.1183 56.2543
19.1635 56.6597
19.2088 58.0038
19.254 61.2793
19.2993 66.3018
19.3447 72.2792
19.3898 74.8528
19.4352 68.9893
19.4804 60.1745
19.5257 54.9728
19.5709 53.2003
19.6163 52.9732
19.6615 52.7541
19.7068 52.5049
19.752 52.4617
19.7974 52.8943
19.8426 53.3643
19.888 53.8467
19.9332 55.3424
19.9786 58.1643
20.0238 62.3956
20.0692 67.652
20.1144 69.2932
20.1598 66.1774
20.205 61.5904
20.2504 61.3851
20.2957 64.1656
20.3411 65.342
20.3863 62.1891
20.4318 55.9739
20.477 51.7658
20.5224 50.0814
20.5677 49.7267
20.6131 49.2886
20.6586 48.6845
20.7038 48.6873
20.7493 48.0758
20.7945 48.2233
20.84 48.0482
20.8853 47.9361
20.9307 47.867
20.976 47.7807
21.0215 47.7106
21.0668 48.2864
21.1122 48.687
21.1575 49.3564
21.203 50.2093
21.2483 50.7215
21.2938 50.4806
21.3391 48.9953
21.3846 48.0537
21.4299 47.5815
21.4754 47.7175
21.5207 47.7924
21.5662 48.2565
21.6116 48.6073
21.6571 49.1336
21.7024 50.09
21.7479 51.891
21.7933 54.828
21.8388 59.212
21.8843 63.0848
21.9297 64.0233
21.9752 61.3482
22.0206 57.3047
22.0661 55.3816
22.1115 55.6843
22.157 54.9903
22.2024 52.6965
22.248 50.136
22.2933 48.5764
22.3389 47.9702
22.3843 48.0292
22.4299 47.7443
22.4753 47.8847
22.5208 47.7781
22.5662 47.7813
22.6118 47.9619
22.6572 48.067
22.7028 48.6504
22.7483 48.8577
22.7939 49.4783
22.8393 51.3111
22.8849 53.6686
22.9303 55.8419
22.9759 57.4368
23.0214 55.9611
23.067 52.6916
23.1126 49.6764
23.1581 48.1174
23.2037 47.8673
23.2492 47.935
23.2948 47.9087
23.3403 48.1143
23.3859 48.8885
23.4314 50.1228
23.477 51.9853
23.5225 54.5691
23.5682 56.9747
23.6137 57.2599
23.6593 54.0154
23.7048 49.6595
23.7505 46.9758
23.796 45.602
23.8417 45.1264
23.8872 44.6801
23.9329 44.4123
23.9784 44.0333
24.0241 43.7501
24.0697 43.6573
24.1154 43.2886
24.1609 43.1134
24.2066 43.1202
24.2522 43.0694
24.2979 42.6462
24.3434 42.4889
24.3892 42.2957
24.4349 42.4181
24.4805 42.3295
24.5262 42.3541
24.5718 42.2857
24.6175 42.232
24.6631 42.0075
24.7089 41.6858
24.7545 41.7406
24.8002 41.5048
24.8458 41.4679
24.8916 41.2237
24.9372 41.5957
24.983 41.8416
25.0286 42.136
25.0744 42.6262
25.12 43.1905
25.1658 43.6964
25.2114 43.829
25.2572 44.0938
25.3029 44.1516
25.3487 44.3639
25.3943 43.8337
25.4402 42.4737
25.4858 41.3834
25.5316 40.5507
25.5773 40.1743
25.6231 40.1942
25.669 39.797
25.7147 39.7459
25.7605 39.8039
25.8062 39.7245
25.8521 39.9713
25.8977 39.8873
25.9436 40.3394
25.9893 40.3898
26.0352 40.9821
26.0809 41.062
26.1268 41.0539
26.1725 40.5429
26.2184 39.8634
26.2641 39.4718
26.31 39.2463
26.3557 39.4977
26.4017 39.4554
26.4474 39.739
26.4933 40.0918
26.5391 40.6058
26.585 41.2076
26.6308 41.5972
26.6767 41.5404
26.7225 41.1168
26.7684 40.5209
26.8142 40.0771
26.8601 39.8124
26.9059 39.2399
26.9519 38.8335
26.9979 38.3542
27.0437 38.2147
27.0896 38.0404
27.1354 38.0988
27.1814 37.8503
27.2272 37.8586
27.2732 37.9475
27.3191 37.6098
27.3651 37.8645
27.4109 37.7176
27.4569 37.9036
27.5027 37.9939
27.5488 38.066
27.5946 37.5623
27.6407 37.4586
27.6865 37.3915
27.7326 37.1239
27.7784 37.252
27.8245 37.1675
27.8703 37.357
27.9164 37.7578
27.9623 37.9233
28.0084 38.2314
28.0543 38.5673
28.1003 38.2584
28.1462 38.2386
28.1923 37.8361
28.2384 37.2752
28.2843 36.8987
28.3304 36.3717
28.3764 35.9403
28.4225 35.8116
28.4684 35.6588
28.5145 35.2619
28.5605 35.2102
28.6066 35.0729
28.6526 34.9609
28.6987 34.9877
28.7447 34.9197
28.7908 34.9191
28.8368 34.9137
28.8829 34.8063
28.9289 34.7555
28.9751 34.4251
29.0211 34.2917
29.0673 34.0721
29.1133 33.8804
29.1595 33.8631
29.2055 33.7123
29.2517 33.8313
29.2977 33.7205
29.3439 33.7146
29.3899 33.7146
29.4361 33.6193
29.4824 33.438
29.5284 33.1033
29.5746 32.8215
29.6207 32.5397
29.6669 32.5478
29.713 32.4051
29.7593 32.2632
29.8053 32.2495
29.8516 32.1977
29.8977 32.1451
29.9439 32.0266
29.99 32.024
30.0363 31.882
30.0824 32.0175
30.1287 31.8445
30.1748 31.8962
30.2211 31.9316
30.2673 31.7453
30.3136 31.8668
30.3597 31.7681
30.406 31.5774
30.4522 31.537
30.4985 31.4554
30.5447 31.7039
30.591 31.6972
30.6372 31.7844
30.6835 31.6474
30.7297 31.5998
30.7761 31.61
30.8224 31.5291
30.8686 31.2595
30.915 31.019
30.9612 30.9432
31.0076 30.733
31.0538 30.5937
31.1002 30.6025
31.1464 30.4533
31.1928 30.4467
31.2391 30.4764
31.2855 30.3797
31.3317 30.3566
31.3781 30.374
31.4244 30.4112
31.4708 30.2946
31.5171 30.2167
31.5636 30.1673
31.6098 29.9021
31.6563 29.8316
31.7026 29.7204
31.7491 29.6707
31.7953 29.6148
31.8418 29.662
31.8881 29.6507
31.9346 29.6371
31.9809 29.4765
32.0275 29.3766
32.074 29.3477
32.1203 29.07
32.1668 29.0201
32.2132 28.7901
32.2597 28.7627
32.306 28.6155
32.3526 28.4565
32.399 28.3782
32.4455 28.3052
32.4919 28.1563
32.5385 28.0951
32.5848 28.0081
32.6314 28.0392
32.6778 27.9344
32.7244 27.7861
32.7708 27.703
32.8174 27.6652
32.8638 27.599
32.9104 27.6553
32.9569 27.5331
33.0035 27.4424
33.0499 27.3898
33.0966 27.37
33.143 27.3461
33.1897 27.1915
33.2361 27.1743
33.2828 27.201
33.3293 26.8991
33.3759 26.8509
33.4226 26.7238
33.4691 26.6496
33.5158 26.5369
33.5623 26.3852
33.609 26.314
33.6555 26.1563
33.7022 26.1396
33.7487 26.0947
33.7954 26.1607
33.842 25.8819
33.8887 25.8891
33.9353 25.8879
33.982 25.7143
34.0286 25.5919
34.0753 25.512
34.1219 25.4253
34.1687 25.4793
34.2152 25.3742
34.262 25.2743
34.3086 25.155
34.3554 25.1044
34.402 24.9978
34.4488 24.9073
34.4954 24.8812
34.5422 24.7051
34.5889 24.5948
34.6357 24.6843
34.6825 24.4575
34.7292 24.4286
34.776 24.2161
34.8227 24.2604
34.8695 24.171
34.9162 24.2111
34.9631 24.1134
35.0098 24.027
35.0566 23.9405
35.1033 23.9388
35.1502 23.8184
35.1969 23.8053
35.2438 23.6943
35.2906 23.6937
35.3375 23.6324
35.3842 23.6101
35.4311 23.56
35.4779 23.5588
35.5248 23.4667
35.5716 23.2885
35.6185 23.2724
35.6653 23.2213
35.7123 23.1292
35.759 23.0474
35.806 22.9663
35.8528 22.8426
35.8998 22.8576
35.9468 22.7511
35.9936 22.6682
36.0406 22.6775
36.0874 22.5678
36.1345 22.4896
36.1813 22.4287
36.2283 22.3111
36.2752 22.2525
36.3222 22.2352
36.3691 22.1288
36.4161 22.2108
36.463 22.0656
36.5101 22.0722
36.557 21.985
36.6041 21.779
36.651 21.8116
36.6981 21.7247
36.745 21.6959
36.7921 21.663
36.839 21.4126
36.8861 21.3598
36.9331 21.4034
36.9802 21.314
37.0272 21.2008
37.0743 21.0571
37.1213 21.1151
37.1684 21.0642
37.2154 20.972
37.2626 20.855
37.3098 20.8322
37.3568 20.7552
37.404 20.7887
37.451 20.5854
37.4982 20.5855
37.5452 20.4197
37.5924 20.417
37.6395 20.4908
37.6867 20.3035
37.7337 20.2877
37.781 20.1656
37.8281 20.0703
37.8753 20.0356
37.9224 19.922
37.9697 19.9557
38.0168 19.8848
38.064 19.8122
38.1111 19.7389
38.1584 19.5723
38.2056 19.5979
38.2529 19.5712
38.3 19.4481
38.3473 19.5142
38.3945 19.3725
38.4418 19.378
38.489 19.2546
38.5363 19.2195
38.5837 19.084
38.6309 19.0442
38.6782 19.0177
38.7254 18.9037
38.7728 18.8023
38.82 18.7794
38.8674 18.7401
38.9146 18.7052
38.9621 18.624
39.0093 18.5545
39.0567 18.5284
39.104 18.4627
39.1514 18.3639
39.1987 18.3336
39.2461 18.2944
39.2934 18.2495
39.3409 18.1279
39.3882 18.0808
39.4356 18.0049
39.483 17.9441
39.5304 17.9173
39.5778 17.8838
39.6253 17.7815
39.6726 17.7705
39.7201 17.7519
39.7675 17.7152
39.815 17.6422
39.8624 17.4366
39.9099 17.5235
39.9575 17.4614
40.0049 17.3634
40.0525 17.282
40.0999 17.2793
40.1474 17.2076
40.1949 17.1023
40.2425 17.0886
40.2899 17.047
40.3375 16.9566
40.385 16.9389
40.4326 16.887
40.48 16.8091
40.5277 16.8345
40.5752 16.7483
40.6228 16.6523
40.6703 16.566
40.718 16.579
40.7655 16.5397
40.8132 16.4751
40.8607 16.4261
40.9084 16.3912
40.9559 16.2813
41.0036 16.2975
41.0512 16.1938
41.0989 16.1951
41.1465 16.1075
41.1942 16.0836
41.242 15.9695
41.2896 15.9206
41.3373 15.8665
41.3849 15.7891
41.4327 15.8202
41.4803 15.7141
41.5281 15.6765
41.5758 15.6249
41.6236 15.5132
41.6712 15.4877
41.7191 15.4177
41.7667 15.4756
41.8146 15.4028
41.8622 15.2975
41.9101 15.2318
41.9578 15.1747
42.0057 15.186
42.0534 15.1383
42.1013 15.0608
42.149 15.0434
42.1969 14.9479
42.2446 14.8794
42.2925 14.8496
42.3403 14.8376
42.3882 14.8441
42.436 14.7807
42.4839 14.6698
42.5319 14.5869
42.5797 14.5911
42.6277 14.5208
42.6755 14.4397
42.7235 14.386
42.7713 14.3323
42.8193 14.3325
42.8671 14.3029
42.9152 14.2558
42.963 14.1787
43.0111 14.1368
43.0589 14.0875
43.107 14.0203
43.1549 13.9734
43.2029 13.8255
43.2508 13.9276
43.2989 13.8411
43.3468 13.7375
43.3949 13.7468
43.4429 13.7139
43.491 13.6649
43.5389 13.5822
43.5871 13.5573
43.635 13.4857
43.6832 13.4719
43.7312 13.3961
43.7793 13.3468
43.8273 13.2745
43.8755 13.2558
43.9237 13.229
43.9717 13.2103
44.0199 13.1315
44.068 13.0817
44.1162 13.0053
44.1642 13.0199
44.2125 12.9426
44.2606 12.9223
44.3088 12.8506
44.3569 12.7928
44.4052 12.7808
44.4533 12.704
44.5016 12.6435
44.5497 12.6775
44.598 12.6015
44.6461 12.5407
44.6945 12.4783
44.7426 12.4621
44.791 12.3547
44.8391 12.4034
44.8875 12.3484
44.9357 12.3023
44.984 12.2232
45.0322 12.194
45.0806 12.0918
45.1288 12.1129
45.1773 12.0892
45.2257 12.0573
45.2739 12.0039
45.3224 11.9564
45.3706 11.9029
45.4191 11.8334
45.4673 11.7832
45.5158 11.7765
45.5641 11.7363
45.6126 11.6522
45.6609 11.665
45.7094 11.626
45.7577 11.5772
45.8063 11.4923
45.8546 11.5327
45.9031 11.3994
45.9515 11.4112
46.0001 11.3662
46.0484 11.3283
46.097 11.2763
46.1454 11.2506
46.194 11.1966
46.2424 11.1628
46.291 11.1253
46.3395 11.0629
46.3881 11.0148
46.4365 11.0114
46.4852 10.9623
46.5337 10.9188
46.5823 10.9176
46.631 10.8252
46.6795 10.7949
46.7282 10.7801
46.7767 10.7428
46.8254 10.6717
46.8739 10.6141
46.9226 10.6022
46.9712 10.5602
47.0199 10.5007
47.0685 10.508
47.1173 10.4405
47.1658 10.3586
47.2146 10.3594
47.2632 10.3466
47.312 10.3039
47.3606 10.2567
47.4095 10.208
47.4581 10.1784
47.5069 10.1329
47.5556 10.0871
47.6044 10.0687
47.6531 10.0087
47.702 9.98315
47.7507 9.9463
47.7996 9.89238
47.8483 9.88991
47.8972 9.86208
47.9461 9.80245
47.9948 9.73679
48.0438 9.75195
48.0925 9.71735
48.1415 9.71251
48.1902 9.59869
48.2392 9.62013
48.288 9.58207
48.337 9.53059
48.3858 9.49145
48.4348 9.5024
48.4837 9.45329
48.5327 9.42158
48.5815 9.39274
48.6306 9.35725
48.6795 9.2916
48.7285 9.2506
48.7774 9.20408
48.8265 9.21051
48.8754 9.12823
48.9245 9.11396
48.9734 9.09124
49.0226 9.04091
49.0715 8.99548
49.1206 8.99214
49.1696 8.94535
49.2188 8.91662
49.2679 8.8974
49.3169 8.86744
49.3661 8.78006
49.4151 8.80544
49.4643 8.75159
49.5134 8.72725
49.5626 8.64671
49.6117 8.63629
49.6609 8.62992
49.71 8.54285
49.7592 8.54509
49.8083 8.50695
49.8576 8.47051
49.9067 8.38973
49.956 8.42707
50.0052 8.37322
50.0545 8.37141
50.1036 8.2938
50.153 8.27923
50.2022 8.24805
50.2515 8.22996
50.3007 8.14748
50.3501 8.15137
50.3993 8.12287
50.4487 8.124
50.498 8.10163
50.5474 8.04716
50.5966 8.00319
50.6461 7.98765
50.6955 7.95846
50.7448 7.90901
50.7943 7.90427
50.8436 7.83621
50.8931 7.79748
50.9424 7.75726
50.9919 7.78894
51.0413 7.74632
51.0908 7.72787
51.1402 7.67297
51.1897 7.6404
51.2391 7.60773
51.2887 7.57286
51.3381 7.51564
51.3877 7.5202
51.4371 7.5096
51.4867 7.44056
51.5362 7.41163
51.5858 7.40953
51.6353 7.35068
51.6849 7.32034
51.7344 7.29234
51.7841 7.31077
51.8336 7.22983
51.8833 7.17454
51.9328 7.18421
51.9826 7.12803
52.0323 7.11485
52.0818 7.07346
52.1316 7.04344
52.1812 7.04395
52.231 6.96788
52.2806 6.97856
52.3304 6.93034
52.38 6.94844
52.4298 6.88884
52.4794 6.87228
52.5293 6.85768
52.5789 6.8038
52.6288 6.76522
52.6785 6.73258
52.7284 6.73865
52.7781 6.70255
52.828 6.6871
52.8777 6.61447
52.9276 6.61781
52.9774 6.62943
53.0273 6.54596
53.0771 6.5463
53.1271 6.52104
53.1769 6.47609
53.2269 6.47299
53.2767 6.43825
53.3267 6.3923
53.3765 6.3379
53.4266 6.32346
53.4766 6.28567
53.5265 6.24601
53.5765 6.26079
53.6264 6.18408
53.6765 6.20926
53.7264 6.18181
53.7765 6.13629
53.8265 6.11941
53.8766 6.08829
53.9266 6.03492
53.9767 6.02366
54.0267 5.99063
54.0769 5.94716
54.1269 5.98336
54.1771 5.94604
54.2271 5.87447
54.2773 5.86749
54.3274 5.79747
54.3776 5.79555
54.4277 5.77125
54.478 5.73367
54.528 5.73271
54.5783 5.63728
54.6285 5.65815
54.6788 5.5894
54.7289 5.62596
54.7792 5.51055
54.8296 5.42358
54.8798 5.41784
54.9301 5.40336
54.9803 5.35788
55.0307 5.34207
55.0809 5.26606
55.1314 5.27592
55.1816 5.19617
55.232 5.14478
55.2823 5.1101
55.3328 5.02519
55.383 5.01529
55.4335 4.97536
55.4838 4.95195
55.5344 4.89132
55.5847 4.82489
55.6352 4.78156
55.6856 4.78168
55.7361 4.74296