File: XRD/Ni3Fe_FD0559.xy
TT I
1.27165 7.49867
1.31627 6.33506
1.36089 6.69898
1.40551 5.75045
1.45013 5.36644
1.49476 5.88109
1.53938 5.87552
1.584 5.2316
1.62863 5.14791
1.67325 4.44264
1.71787 5.03828
1.7625 4.85179
1.80712 4.56834
1.85174 4.22609
1.89636 5.28386
1.94099 4.95948
1.98562 4.75963
2.03025 4.47914
2.07487 4.58295
2.11949 4.50154
2.16411 4.90857
2.20874 11.2638
2.25338 16.603
2.298 5.78609
2.34263 5.15718
2.38725 5.96229
2.43188 6.30824
2.4765 5.91925
2.52115 6.3062
2.56577 7.22261
2.6104 7.93222
2.65503 7.18992
2.69965 8.11987
2.7443 7.53237
2.78893 8.60681
2.83356 7.87502
2.87818 8.17826
2.92281 8.76071
2.96744 9.2238
3.01209 10.2474
3.05672 11.325
3.10135 12.5359
3.14599 12.7109
3.19062 13.5286
3.23527 14.7521
3.2799 15.247
3.32454 16.577
3.36917 17.6352
3.4138 18.8527
3.45844 19.3604
3.50309 20.4942
3.54773 21.4096
3.59237 23.6354
3.637 72.5298
3.68164 47.5173
3.7263 25.7167
3.77094 26.0533
3.81558 26.7585
3.86022 27.2134
3.90486 29.3932
3.9495 29.5799
3.99416 30.6781
4.0388 32.5496
4.08344 33.7787
4.12809 34.8296
4.17273 36.2434
4.21738 41.1622
4.26204 184.432
4.30669 156.797
4.35133 46.623
4.39598 44.0304
4.44063 51.4053
4.4853 59.5593
4.52995 50.4108
4.5746 51.8167
4.61925 53.8694
4.6639 56.0669
4.70855 58.3879
4.75322 61.4404
4.79788 64.4825
4.84253 68.1494
4.88719 72.4413
4.93184 75.9516
4.97652 81.5151
5.02118 88.1994
5.06583 96.7197
5.11049 109.03
5.15515 167.434
5.19981 424.963
5.24449 3147.06
5.28916 12240.4
5.33382 2992.4
5.37848 196.459
5.42315 129.848
5.46783 114.944
5.5125 107.672
5.55716 102.981
5.60183 99.4101
5.6465 97.6522
5.69117 95.4763
5.73586 93.4549
5.78053 93.2675
5.8252 92.7451
5.86988 94.086
5.91455 96.7476
5.95924 106.774
6.00392 247.447
6.0486 1091.14
6.09328 4456.02
6.13795 3415.91
6.18263 252.397
6.22733 93.7104
6.27201 82.822
6.3167 94.0625
6.36138 78.0799
6.40606 69.536
6.45075 67.847
6.49545 65.5253
6.54014 64.1784
6.58483 62.9456
6.62952 62.4884
6.67421 84.3884
6.71892 117.479
6.76361 65.7018
6.8083 58.7669
6.853 57.534
6.89769 56.9212
6.94239 56.437
6.98711 55.9829
7.03181 55.6674
7.07651 55.3054
7.12121 55.1807
7.16591 55.2243
7.21063 55.1357
7.25533 66.1235
7.30004 140.645
7.34475 80.3614
7.38945 56.0523
7.43416 54.5411
7.47889 54.5082
7.5236 54.7551
7.56831 55.4887
7.61303 56.7665
7.65774 56.9823
7.70247 56.1866
7.74719 56.1656
7.79191 57.2475
7.83663 57.0029
7.88135 58.0878
7.92607 58.9984
7.97081 60.2589
8.01553 61.476
8.06026 62.7163
8.10498 64.5894
8.14971 71.1818
8.19446 71.1434
8.23919 69.7868
8.28392 72.8551
8.32865 74.8264
8.37339 79.3472
8.41812 85.9163
8.46288 110.449
8.50761 184.792
8.55235 431.071
8.59709 1224.66
8.64183 2208.03
8.68658 941.212
8.73134 163.834
8.77609 99.7189
8.82083 92.8411
8.86558 90.228
8.91033 90.0411
8.9551 89.961
8.99985 85.7458
9.04461 84.1729
9.08936 83.3668
9.13412 82.838
9.17888 82.3669
9.22365 83.5781
9.26841 82.4626
9.31318 83.2378
9.35794 83.6354
9.4027 84.0309
9.44749 84.8678
9.49226 85.5701
9.53703 86.3517
9.5818 88.3937
9.62657 91.6469
9.67134 96.6341
9.71614 93.8255
9.76091 94.5778
9.80569 97.4046
9.85047 100.548
9.89525 119.239
9.94005 133.854
9.98484 197.989
10.0296 376.282
10.0744 850.872
10.1192 1710.11
10.164 1538.97
10.2088 380.878
10.2536 125.485
10.2984 112.579
10.3432 111.997
10.388 105.851
10.4328 124.523
10.4776 169.793
10.5224 293.103
10.5672 516.797
10.612 498.609
10.6568 192.922
10.7017 95.6836
10.7465 86.9991
10.7913 83.5752
10.8361 81.3754
10.8809 79.6209
10.9257 78.3435
10.9706 78.1102
11.0154 74.6931
11.0602 73.2307
11.105 72.0506
11.1499 74.6253
11.1947 79.4064
11.2395 72.662
11.2844 69.7845
11.3292 67.5767
11.374 66.4407
11.4189 66.0273
11.4637 65.1726
11.5086 65.4626
11.5534 67.105
11.5983 65.1607
11.6431 63.7986
11.688 63.3752
11.7328 63.2042
11.7777 63.3074
11.8225 62.8337
11.8674 62.6647
11.9122 63.2957
11.9571 63.3255
12.002 64.3419
12.0468 69.757
12.0917 81.4246
12.1366 105.893
12.1814 155.401
12.2263 201.583
12.2712 160.497
12.3161 91.8992
12.3609 69.2056
12.4058 64.8707
12.4507 64.4713
12.4956 64.7586
12.5405 65.0273
12.5853 65.5383
12.6302 70.8765
12.6751 75.0126
12.72 69.3605
12.7649 67.9356
12.8098 68.6981
12.8547 69.9217
12.8996 71.5904
12.9445 72.9307
12.9894 74.7509
13.0343 76.4962
13.0792 80.3647
13.1242 91.9582
13.1691 117.021
13.214 156.598
13.2589 248.373
13.3038 374.463
13.3487 426.875
13.3937 256.6
13.4386 122.223
13.4835 108.984
13.5285 125.509
13.5734 165.937
13.6183 253.818
13.6633 348.255
13.7082 337.05
13.7531 180.393
13.7981 96.3751
13.843 82.1424
13.888 79.9032
13.9329 77.4939
13.9779 76.461
14.0228 74.7817
14.0678 73.3206
14.1127 72.913
14.1577 72.6531
14.2027 71.8429
14.2476 70.9686
14.2926 70.9132
14.3376 71.4421
14.3825 70.437
14.4275 69.3031
14.4725 69.0521
14.5175 69.113
14.5624 69.4861
14.6074 71.2162
14.6524 71.5071
14.6974 71.0987
14.7424 73.6106
14.7874 81.3586
14.8324 92.1094
14.8774 115.022
14.9224 157.195
14.9674 209.149
15.0124 218.454
15.0574 144.167
15.1024 88.3486
15.1474 72.2699
15.1924 70.3987
15.2374 70.5995
15.2824 69.9112
15.3274 68.246
15.3725 67.1081
15.4175 66.8048
15.4625 66.3309
15.5076 66.5229
15.5526 66.5273
15.5976 66.4917
15.6426 68.1303
15.6877 74.2534
15.7327 82.3061
15.7778 98.3947
15.8228 130.482
15.8679 172.196
15.9129 194.913
15.958 153.396
16.003 94.6004
16.0481 67.2807
16.0931 64.2832
16.1382 62.2589
16.1833 60.7964
16.2283 59.304
16.2734 58.477
16.3185 58.6707
16.3636 58.9353
16.4086 57.6106
16.4537 56.4007
16.4988 55.6767
16.5439 55.7462
16.589 55.5408
16.6341 55.2792
16.6792 54.672
16.7243 55.1127
16.7694 55.3102
16.8145 55.0311
16.8596 55.634
16.9047 56.4925
16.9498 56.7107
16.9949 56.1203
17.04 56.5005
17.0851 57.6277
17.1302 59.5218
17.1754 62.4055
17.2205 67.8758
17.2656 75.0711
17.3108 82.3027
17.3559 81.5588
17.401 71.1116
17.4462 62.1612
17.4913 59.5005
17.5365 59.2393
17.5815 59.5892
17.6268 60.17
17.6718 60.8043
17.7171 61.189
17.7622 61.757
17.8074 62.6384
17.8525 65.451
17.8977 69.6667
17.9428 75.149
17.9881 84.7389
18.0331 102.412
18.0784 122.937
18.1237 141.304
18.1688 131.869
18.214 102.777
18.2591 87.0324
18.3044 91.5893
18.3495 101.071
18.3948 106.246
18.4399 95.3394
18.4852 76.8801
18.5303 65.9539
18.5756 62.5485
18.6207 61.4785
18.666 60.6177
18.7112 60.0253
18.7565 59.4204
18.8016 58.9206
18.8469 58.5041
18.892 58.086
18.9374 57.5694
18.9825 57.3384
19.0278 57.1798
19.073 57.4737
19.1183 58.0412
19.1635 58.637
19.2088 60.0526
19.254 63.0263
19.2993 67.2732
19.3447 73.1802
19.3898 76.3505
19.4352 72.3341
19.4804 63.0586
19.5257 56.8117
19.5709 54.4027
19.6163 54.252
19.6615 54.0477
19.7068 53.6818
19.752 53.5645
19.7974 54.0394
19.8426 54.7479
19.888 55.4328
19.9332 56.7287
19.9786 59.6048
20.0238 63.2069
20.0692 67.8157
20.1144 70.3906
20.1598 68.3048
20.205 63.8456
20.2504 62.567
20.2957 64.3883
20.3411 65.6148
20.3863 63.9955
20.4318 58.2009
20.477 53.5487
20.5224 51.749
20.5677 51.1255
20.6131 50.3626
20.6586 49.8968
20.7038 49.804
20.7493 49.3807
20.7945 49.2753
20.84 49.1037
20.8853 49.1907
20.9307 48.9127
20.976 49.1095
21.0215 49.0269
21.0668 49.5076
21.1122 49.9349
21.1575 50.4478
21.203 51.1069
21.2483 51.8268
21.2938 51.6143
21.3391 50.4034
21.3846 49.1911
21.4299 48.8033
21.4754 48.8144
21.5207 48.8247
21.5662 49.237
21.6116 49.7339
21.6571 50.5189
21.7024 51.34
21.7479 53.2601
21.7933 56.1061
21.8388 59.4396
21.8843 63.2118
21.9297 65.3018
21.9752 63.4024
22.0206 59.643
22.0661 56.9586
22.1115 56.2787
22.157 56.1136
22.2024 54.4045
22.248 51.496
22.2933 50.1482
22.3389 49.5273
22.3843 49.289
22.4299 49.1814
22.4753 49.0377
22.5208 49.0199
22.5662 48.7407
22.6118 48.8694
22.6572 49.3232
22.7028 49.7549
22.7483 50.1427
22.7939 50.909
22.8393 52.5155
22.8849 54.483
22.9303 56.6349
22.9759 58.2006
23.0214 57.5272
23.067 54.4355
23.1126 51.281
23.1581 49.4291
23.2037 49.0517
23.2492 49.179
23.2948 49.3244
23.3403 49.5913
23.3859 50.3579
23.4314 51.4222
23.477 53.3839
23.5225 55.1268
23.5682 57.4789
23.6137 58.3951
23.6593 55.5867
23.7048 51.6658
23.7505 48.3333
23.796 46.9792
23.8417 46.1889
23.8872 45.8055
23.9329 45.6261
23.9784 45.27
24.0241 45.0058
24.0697 44.6914
24.1154 44.3504
24.1609 44.2477
24.2066 43.9724
24.2522 43.962
24.2979 43.6954
24.3434 43.7494
24.3892 43.5511
24.4349 43.4061
24.4805 43.3342
24.5262 43.5297
24.5718 43.261
24.6175 43.1404
24.6631 43.1314
24.7089 42.8293
24.7545 42.6114
24.8002 42.6262
24.8458 42.5067
24.8916 42.5734
24.9372 42.5465
24.983 42.8224
25.0286 43.158
25.0744 43.6823
25.12 44.107
25.1658 44.7998
25.2114 44.9767
25.2572 45.069
25.3029 44.9715
25.3487 45.1331
25.3943 44.7984
25.4402 43.735
25.4858 42.5568
25.5316 41.7036
25.5773 41.2361
25.6231 41.1332
25.669 40.8306
25.7147 40.9207
25.7605 40.8351
25.8062 40.8011
25.8521 40.9522
25.8977 40.8097
25.9436 41.0732
25.9893 41.1928
26.0352 41.7844
26.0809 41.9918
26.1268 42.0123
26.1725 41.6009
26.2184 40.8916
26.2641 40.5247
26.31 40.4044
26.3557 40.4044
26.4017 40.4587
26.4474 40.7928
26.4933 41.1162
26.5391 41.4868
26.585 41.9752
26.6308 42.3185
26.6767 42.4748
26.7225 42.1944
26.7684 41.5671
26.8142 41.0028
26.8601 40.6995
26.9059 40.3549
26.9519 39.7897
26.9979 39.429
27.0437 39.2233
27.0896 38.9719
27.1354 39.0215
27.1814 38.771
27.2272 38.8581
27.2732 38.8168
27.3191 38.5547
27.3651 38.7925
27.4109 38.7087
27.4569 38.7837
27.5027 38.7817
27.5488 38.7985
27.5946 38.5956
27.6407 38.3973
27.6865 38.4045
27.7326 38.0821
27.7784 38.0941
27.8245 38.0592
27.8703 38.2788
27.9164 38.4835
27.9623 38.7021
28.0084 38.9299
28.0543 39.3867
28.1003 39.3828
28.1462 39.0352
28.1923 38.6823
28.2384 38.2183
28.2843 37.9435
28.3304 37.3745
28.3764 36.9405
28.4225 36.5712
28.4684 36.5721
28.5145 36.1165
28.5605 36.0306
28.6066 36.0098
28.6526 35.8994
28.6987 35.763
28.7447 35.7645
28.7908 35.6707
28.8368 35.6657
28.8829 35.6064
28.9289 35.6516
28.9751 35.3022
29.0211 35.1644
29.0673 34.8991
29.1133 34.7537
29.1595 34.6047
29.2055 34.5354
29.2517 34.592
29.2977 34.4674
29.3439 34.4847
29.3899 34.4836
29.4361 34.5
29.4824 34.1056
29.5284 33.9771
29.5746 33.6156
29.6207 33.4314
29.6669 33.2565
29.713 33.1783
29.7593 32.94
29.8053 33.1865
29.8516 32.983
29.8977 33.0419
29.9439 32.7814
29.99 32.8514
30.0363 32.6481
30.0824 32.7418
30.1287 32.5357
30.1748 32.7209
30.2211 32.6512
30.2673 32.436
30.3136 32.582
30.3597 32.4026
30.406 32.3785
30.4522 32.3092
30.4985 32.2938
30.5447 32.3917
30.591 32.3362
30.6372 32.4224
30.6835 32.3342
30.7297 32.4208
30.7761 32.4233
30.8224 32.1834
30.8686 31.9743
30.915 31.7984
30.9612 31.7229
31.0076 31.3642
31.0538 31.3577
31.1002 31.3396
31.1464 31.205
31.1928 31.1826
31.2391 31.1674
31.2855 31.0394
31.3317 31.0562
31.3781 31.233
31.4244 31.1408
31.4708 31.0945
31.5171 30.9812
31.5636 31.0933
31.6098 30.7783
31.6563 30.5925
31.7026 30.4461
31.7491 30.3441
31.7953 30.5033
31.8418 30.5289
31.8881 30.295
31.9346 30.2679
31.9809 30.1703
32.0275 30.1263
32.074 30.0569
32.1203 29.7954
32.1668 29.753
32.2132 29.5236
32.2597 29.452
32.306 29.3819
32.3526 29.1726
32.399 28.9967
32.4455 28.923
32.4919 28.7982
32.5385 28.88
32.5848 28.6011
32.6314 28.7201
32.6778 28.6752
32.7244 28.374
32.7708 28.3417
32.8174 28.3846
32.8638 28.2194
32.9104 28.2872
32.9569 28.1039
33.0035 27.9904
33.0499 28.0737
33.0966 27.96
33.143 27.9887
33.1897 27.8919
33.2361 27.8183
33.2828 27.7384
33.3293 27.489
33.3759 27.5824
33.4226 27.3896
33.4691 27.2429
33.5158 27.2941
33.5623 27.1094
33.609 26.9452
33.6555 26.8915
33.7022 26.7688
33.7487 26.7524
33.7954 26.6914
33.842 26.559
33.8887 26.5117
33.9353 26.4292
33.982 26.3578
34.0286 26.1561
34.0753 26.1298
34.1219 26.0478
34.1687 25.9948
34.2152 25.8993
34.262 25.7986
34.3086 25.6551
34.3554 25.7401
34.402 25.5968
34.4488 25.4492
34.4954 25.3912
34.5422 25.3968
34.5889 25.2489
34.6357 25.1468
34.6825 25.1175
34.7292 25.0678
34.776 24.8709
34.8227 24.7952
34.8695 24.8358
34.9162 24.7298
34.9631 24.6704
35.0098 24.6484
35.0566 24.4441
35.1033 24.4072
35.1502 24.3927
35.1969 24.3066
35.2438 24.279
35.2906 24.2293
35.3375 24.1736
35.3842 24.1213
35.4311 24.0958
35.4779 24.0957
35.5248 24.1009
35.5716 23.9261
35.6185 23.9079
35.6653 23.7705
35.7123 23.6416
35.759 23.6529
35.806 23.4242
35.8528 23.4368
35.8998 23.3803
35.9468 23.2974
35.9936 23.2482
36.0406 23.1337
36.0874 23.1235
36.1345 23.0492
36.1813 22.9818
36.2283 22.7875
36.2752 22.7734
36.3222 22.8026
36.3691 22.7417
36.4161 22.555
36.463 22.5644
36.5101 22.5068
36.557 22.5044
36.6041 22.3044
36.651 22.2979
36.6981 22.1782
36.745 22.2092
36.7921 22.0427
36.839 21.9937
36.8861 21.943
36.9331 21.8581
36.9802 21.7868
37.0272 21.7244
37.0743 21.6193
37.1213 21.5854
37.1684 21.6079
37.2154 21.4644
37.2626 21.468
37.3098 21.3606
37.3568 21.2457
37.404 21.2006
37.451 21.1224
37.4982 21.0424
37.5452 20.9526
37.5924 20.9282
37.6395 20.9629
37.6867 20.8554
37.7337 20.6668
37.781 20.6973
37.8281 20.5839
37.8753 20.549
37.9224 20.4803
37.9697 20.4344
38.0168 20.3319
38.064 20.2595
38.1111 20.1651
38.1584 20.0861
38.2056 20.0696
38.2529 20.0464
38.3 19.9368
38.3473 19.8955
38.3945 19.82
38.4418 19.7748
38.489 19.7294
38.5363 19.6323
38.5837 19.5698
38.6309 19.5483
38.6782 19.4588
38.7254 19.3926
38.7728 19.3237
38.82 19.2206
38.8674 19.2348
38.9146 19.0959
38.9621 19.0532
39.0093 19.0891
39.0567 18.946
39.104 18.8636
39.1514 18.8523
39.1987 18.821
39.2461 18.7612
39.2934 18.6655
39.3409 18.5742
39.3882 18.4951
39.4356 18.4532
39.483 18.4123
39.5304 18.3217
39.5778 18.3506
39.6253 18.256
39.6726 18.2336
39.7201 18.1757
39.7675 18.1113
39.815 18.1001
39.8624 17.951
39.9099 17.9506
39.9575 17.8728
40.0049 17.795
40.0525 17.7147
40.0999 17.7092
40.1474 17.6927
40.1949 17.5289
40.2425 17.5027
40.2899 17.5042
40.3375 17.4587
40.385 17.3014
40.4326 17.2916
40.48 17.2558
40.5277 17.2081
40.5752 17.1732
40.6228 17.0477
40.6703 17.0307
40.718 17.0071
40.7655 16.9524
40.8132 16.8221
40.8607 16.8399
40.9084 16.7506
40.9559 16.6792
41.0036 16.6638
41.0512 16.6613
41.0989 16.5948
41.1465 16.449
41.1942 16.4178
41.242 16.3098
41.2896 16.2845
41.3373 16.2646
41.3849 16.1841
41.4327 16.1714
41.4803 16.0431
41.5281 16.0459
41.5758 16.0078
41.6236 15.9604
41.6712 15.8718
41.7191 15.8309
41.7667 15.7925
41.8146 15.7557
41.8622 15.6618
41.9101 15.622
41.9578 15.5382
42.0057 15.501
42.0534 15.4336
42.1013 15.4385
42.149 15.3775
42.1969 15.2794
42.2446 15.2667
42.2925 15.2093
42.3403 15.1458
42.3882 15.1654
42.436 15.0855
42.4839 14.9846
42.5319 15.0378
42.5797 14.8921
42.6277 14.861
42.6755 14.8344
42.7235 14.7729
42.7713 14.7404
42.8193 14.6815
42.8671 14.6092
42.9152 14.5375
42.963 14.4713
43.0111 14.453
43.0589 14.3994
43.107 14.3566
43.1549 14.3564
43.2029 14.2649
43.2508 14.2254
43.2989 14.2072
43.3468 14.1324
43.3949 14.0616
43.4429 14.0464
43.491 13.9186
43.5389 13.9097
43.5871 13.8689
43.635 13.7856
43.6832 13.7758
43.7312 13.7071
43.7793 13.6876
43.8273 13.6435
43.8755 13.5006
43.9237 13.5499
43.9717 13.502
44.0199 13.4488
44.068 13.4083
44.1162 13.3135
44.1642 13.3074
44.2125 13.2967
44.2606 13.2356
44.3088 13.1799
44.3569 13.0559
44.4052 13.0748
44.4533 13.0392
44.5016 12.9514
44.5497 12.9581
44.598 12.9178
44.6461 12.8751
44.6945 12.8211
44.7426 12.7898
44.791 12.6974
44.8391 12.666
44.8875 12.6228
44.9357 12.5477
44.984 12.5129
45.0322 12.5079
45.0806 12.4299
45.1288 12.4059
45.1773 12.3203
45.2257 12.3239
45.2739 12.2942
45.3224 12.2484
45.3706 12.2206
45.4191 12.1178
45.4673 12.1076
45.5158 12.0773
45.5641 12.0266
45.6126 11.9839
45.6609 11.9222
45.7094 11.8472
45.7577 11.8555
45.8063 11.7735
45.8546 11.7393
45.9031 11.7119
45.9515 11.6361
46.0001 11.6335
46.0484 11.5994
46.097 11.556
46.1454 11.5173
46.194 11.4701
46.2424 11.4147
46.291 11.3733
46.3395 11.3413
46.3881 11.3294
46.4365 11.3076
46.4852 11.1842
46.5337 11.1853
46.5823 11.1485
46.631 11.0882
46.6795 11.0376
46.7282 11.0332
46.7767 10.9988
46.8254 10.9129
46.8739 10.8921
46.9226 10.8535
46.9712 10.7677
47.0199 10.7537
47.0685 10.7658
47.1173 10.707
47.1658 10.6112
47.2146 10.6328
47.2632 10.5799
47.312 10.5404
47.3606 10.4849
47.4095 10.4623
47.4581 10.4125
47.5069 10.3765
47.5556 10.3515
47.6044 10.2537
47.6531 10.2571
47.702 10.2197
47.7507 10.1393
47.7996 10.1403
47.8483 10.1019
47.8972 10.1145
47.9461 10.0131
47.9948 9.98496
48.0438 9.95113
48.0925 9.93239
48.1415 9.91742
48.1902 9.85189
48.2392 9.85182
48.288 9.82554
48.337 9.76551
48.3858 9.69998
48.4348 9.66541
48.4837 9.69824
48.5327 9.59735
48.5815 9.59409
48.6306 9.55936
48.6795 9.51475
48.7285 9.42041
48.7774 9.46344
48.8265 9.39435
48.8754 9.36984
48.9245 9.34476
48.9734 9.29611
49.0226 9.28533
49.0715 9.25551
49.1206 9.19533
49.1696 9.15878
49.2188 9.12407
49.2679 9.08028
49.3169 9.04436
49.3661 9.02179
49.4151 8.97214
49.4643 8.97224
49.5134 8.93835
49.5626 8.83821
49.6117 8.8312
49.6609 8.83013
49.71 8.74814
49.7592 8.75046
49.8083 8.71689
49.8576 8.72295
49.9067 8.63852
49.956 8.621
50.0052 8.56089
50.0545 8.53816
50.1036 8.52371
50.153 8.47165
50.2022 8.4666
50.2515 8.42162
50.3007 8.36956
50.3501 8.3158
50.3993 8.30966
50.4487 8.27921
50.498 8.26181
50.5474 8.25277
50.5966 8.16825
50.6461 8.14785
50.6955 8.11065
50.7448 8.07662
50.7943 8.09742
50.8436 8.03471
50.8931 7.99656
50.9424 7.95588
50.9919 7.93758
51.0413 7.92541
51.0908 7.88389
51.1402 7.8315
51.1897 7.83234
51.2391 7.76356
51.2887 7.73234
51.3381 7.69812
51.3877 7.72295
51.4371 7.66042
51.4867 7.62546
51.5362 7.59343
51.5858 7.53691
51.6353 7.50437
51.6849 7.53377
51.7344 7.4478
51.7841 7.42655
51.8336 7.39729
51.8833 7.38445
51.9328 7.31842
51.9826 7.30945
52.0323 7.27722
52.0818 7.25966
52.1316 7.21074
52.1812 7.2172
52.231 7.13316
52.2806 7.13727
52.3304 7.12257
52.38 7.05495
52.4298 7.05679
52.4794 6.99614
52.5293 6.96673
52.5789 6.95585
52.6288 6.93578
52.6785 6.86387
52.7284 6.84738
52.7781 6.8236
52.828 6.8535
52.8777 6.73268
52.9276 6.78753
52.9774 6.72862
53.0273 6.69422
53.0771 6.68963
53.1271 6.63618
53.1769 6.59747
53.2269 6.54195
53.2767 6.58719
53.3267 6.5549
53.3765 6.52233
53.4266 6.47494
53.4766 6.48088
53.5265 6.40815
53.5765 6.38474
53.6264 6.36235
53.6765 6.32039
53.7264 6.30706
53.7765 6.31424
53.8265 6.23434
53.8766 6.2057
53.9266 6.22616
53.9767 6.16327
54.0267 6.1272
54.0769 6.12213
54.1269 6.10322
54.1771 6.03782
54.2271 6.0494
54.2773 6.02682
54.3274 5.92842
54.3776 5.94219
54.4277 5.90205
54.478 5.90686
54.528 5.82256
54.5783 5.78427
54.6285 5.77997
54.6788 5.71422
54.7289 5.65767
54.7792 5.63741
54.8296 5.56733
54.8798 5.5398
54.9301 5.45189
54.9803 5.51762
55.0307 5.49291
55.0809 5.39574
55.1314 5.40913
55.1816 5.31533
55.232 5.25604
55.2823 5.27036
55.3328 5.18631
55.383 5.16802
55.4335 5.09355
55.4838 5.05971
55.5344 4.98222
55.5847 4.94986
55.6352 4.94391
55.6856 4.92268
55.7361 4.82148