File: XRD/Ni3Fe_FD0677.xy
TT I
1.27165 7.45842
1.31627 7.07871
1.36089 6.57365
1.40551 6.33129
1.45013 5.44956
1.49476 6.75582
1.53938 5.81213
1.584 5.73715
1.62863 5.09176
1.67325 5.55806
1.71787 4.69096
1.7625 4.89124
1.80712 4.95589
1.85174 4.75716
1.89636 4.38842
1.94099 5.0707
1.98562 5.11128
2.03025 4.61365
2.07487 5.20853
2.11949 4.97952
2.16411 4.92476
2.20874 11.5007
2.25338 15.5956
2.298 5.62465
2.34263 5.42877
2.38725 5.66909
2.43188 6.51437
2.4765 7.70144
2.52115 6.77562
2.56577 7.39113
2.6104 8.59543
2.65503 8.03776
2.69965 7.85881
2.7443 7.96631
2.78893 8.0731
2.83356 8.76127
2.87818 8.739
2.92281 8.8217
2.96744 9.46085
3.01209 10.6194
3.05672 11.1084
3.10135 12.3567
3.14599 12.7493
3.19062 13.9982
3.23527 14.995
3.2799 15.6557
3.32454 16.6776
3.36917 17.9267
3.4138 18.7408
3.45844 19.5094
3.50309 20.8826
3.54773 21.7951
3.59237 23.2974
3.637 68.0734
3.68164 45.3569
3.7263 25.7033
3.77094 26.0419
3.81558 26.6303
3.86022 27.0951
3.90486 28.9421
3.9495 29.794
3.99416 30.4484
4.0388 31.8487
4.08344 33.2954
4.12809 34.9549
4.17273 36.6792
4.21738 40.6204
4.26204 174.785
4.30669 149.651
4.35133 46.0345
4.39598 43.9328
4.44063 51.2025
4.4853 58.2223
4.52995 51.2946
4.5746 52.6913
4.61925 53.822
4.6639 55.6753
4.70855 58.4324
4.75322 61.3954
4.79788 65.0238
4.84253 68.0645
4.88719 72.6809
4.93184 75.6405
4.97652 81.0414
5.02118 87.6069
5.06583 95.3741
5.11049 106.806
5.15515 162.011
5.19981 400.605
5.24449 3026.62
5.28916 12519.6
5.33382 2700.03
5.37848 184.202
5.42315 128.487
5.46783 114.316
5.5125 107.012
5.55716 102.175
5.60183 98.4944
5.6465 96.7247
5.69117 94.3727
5.73586 92.8081
5.78053 93.2624
5.8252 93.0291
5.86988 94.1128
5.91455 95.3507
5.95924 105.45
6.00392 235.794
6.0486 1014.55
6.09328 4523.56
6.13795 3111.66
6.18263 219.681
6.22733 91.6459
6.27201 81.5236
6.3167 92.2151
6.36138 76.7066
6.40606 68.9521
6.45075 67.6068
6.49545 65.1358
6.54014 63.53
6.58483 62.7647
6.62952 62.6633
6.67421 83.0777
6.71892 113.054
6.76361 64.4901
6.8083 58.3922
6.853 57.743
6.89769 56.6797
6.94239 56.3329
6.98711 55.6638
7.03181 55.3308
7.07651 54.9438
7.12121 54.6649
7.16591 55.2306
7.21063 54.9851
7.25533 65.5415
7.30004 132.267
7.34475 77.4133
7.38945 55.6503
7.43416 54.0294
7.47889 54.0191
7.5236 54.815
7.56831 55.0478
7.61303 55.9471
7.65774 56.3156
7.70247 56.048
7.74719 56.0131
7.79191 56.5362
7.83663 57.0491
7.88135 57.6778
7.92607 58.9644
7.97081 59.9487
8.01553 60.971
8.06026 62.5356
8.10498 63.6525
8.14971 70.9154
8.19446 70.6156
8.23919 69.5941
8.28392 71.7049
8.32865 74.161
8.37339 78.8311
8.41812 85.3649
8.46288 107.837
8.50761 181.261
8.55235 411.39
8.59709 1226.78
8.64183 2207.06
8.68658 883.022
8.73134 152.503
8.77609 98.1719
8.82083 92.3049
8.86558 89.8817
8.91033 89.942
8.9551 89.7786
8.99985 85.0942
9.04461 83.6084
9.08936 83.328
9.13412 82.2419
9.17888 82.3296
9.22365 82.5765
9.26841 82.0639
9.31318 82.8195
9.35794 83.2624
9.4027 83.7115
9.44749 84.4733
9.49226 84.7368
9.53703 85.4317
9.5818 87.4671
9.62657 91.7124
9.67134 95.9037
9.71614 93.2545
9.76091 94.2261
9.80569 97.2555
9.85047 100.339
9.89525 117.341
9.94005 131.506
9.98484 192.913
10.0296 365.741
10.0744 847.835
10.1192 1797.68
10.164 1549.11
10.2088 366.764
10.2536 123.03
10.2984 110.858
10.3432 111.132
10.388 104.832
10.4328 122.833
10.4776 166.61
10.5224 293.532
10.5672 511.255
10.612 494.75
10.6568 193.305
10.7017 94.3952
10.7465 86.3374
10.7913 82.7035
10.8361 81.2485
10.8809 78.9248
10.9257 77.788
10.9706 77.7269
11.0154 74.4348
11.0602 72.7468
11.105 71.6092
11.1499 73.9861
11.1947 77.9952
11.2395 72.1162
11.2844 69.4311
11.3292 67.0482
11.374 65.9395
11.4189 65.4988
11.4637 64.7228
11.5086 64.8679
11.5534 66.7438
11.5983 64.6578
11.6431 63.5125
11.688 63.0041
11.7328 62.6912
11.7777 62.6673
11.8225 62.5175
11.8674 62.4061
11.9122 62.6945
11.9571 62.9421
12.002 64.2382
12.0468 68.7596
12.0917 79.8711
12.1366 104.685
12.1814 155.544
12.2263 204.992
12.2712 159.51
12.3161 89.7638
12.3609 68.3432
12.4058 64.2865
12.4507 63.8178
12.4956 64.2842
12.5405 64.4076
12.5853 65.1505
12.6302 69.989
12.6751 73.7386
12.72 68.7163
12.7649 67.5158
12.8098 68.4634
12.8547 69.656
12.8996 71.2093
12.9445 72.2742
12.9894 74.2778
13.0343 75.8705
13.0792 79.8584
13.1242 91.8251
13.1691 114.552
13.214 153.507
13.2589 249.064
13.3038 379.508
13.3487 417.696
13.3937 248.212
13.4386 119.918
13.4835 107.819
13.5285 122.956
13.5734 163.088
13.6183 255.654
13.6633 355.162
13.7082 322.496
13.7531 168.789
13.7981 93.0937
13.843 81.5189
13.888 79.4136
13.9329 76.9526
13.9779 75.7216
14.0228 74.3256
14.0678 72.8441
14.1127 72.5226
14.1577 72.0124
14.2027 71.3423
14.2476 70.3771
14.2926 70.2629
14.3376 70.8669
14.3825 69.804
14.4275 69.0715
14.4725 68.6414
14.5175 68.8896
14.5624 68.8539
14.6074 70.3726
14.6524 70.9426
14.6974 70.5542
14.7424 73.1413
14.7874 80.4286
14.8324 90.2526
14.8774 113.22
14.9224 158.022
14.9674 210.884
15.0124 214.613
15.0574 139.59
15.1024 86.5574
15.1474 71.5784
15.1924 70.3655
15.2374 70.0107
15.2824 69.3623
15.3274 67.5939
15.3725 66.8498
15.4175 66.353
15.4625 65.7454
15.5076 65.9742
15.5526 66.0709
15.5976 65.9672
15.6426 67.506
15.6877 73.3193
15.7327 80.9802
15.7778 96.8036
15.8228 129.854
15.8679 175.551
15.9129 194.279
15.958 150.144
16.003 91.4942
16.0481 66.464
16.0931 63.5158
16.1382 61.8476
16.1833 60.2372
16.2283 58.7709
16.2734 58.102
16.3185 58.3281
16.3636 58.1902
16.4086 57.0146
16.4537 55.932
16.4988 55.2996
16.5439 55.3397
16.589 55.2748
16.6341 54.8035
16.6792 54.3554
16.7243 54.6394
16.7694 54.7613
16.8145 54.777
16.8596 55.0775
16.9047 55.7707
16.9498 56.4175
16.9949 55.4391
17.04 55.8591
17.0851 57.1113
17.1302 58.7358
17.1754 61.962
17.2205 67.3137
17.2656 75.2238
17.3108 83.8317
17.3559 81.4419
17.401 69.5202
17.4462 61.364
17.4913 58.8906
17.5365 59.0757
17.5815 59.2746
17.6268 59.4103
17.6718 60.0553
17.7171 60.6589
17.7622 61.2502
17.8074 62.2641
17.8525 64.7838
17.8977 68.932
17.9428 74.0542
17.9881 83.6972
18.0331 101.614
18.0784 124.521
18.1237 142.672
18.1688 130.17
18.214 100.763
18.2591 85.6949
18.3044 91.2468
18.3495 101.15
18.3948 105.857
18.4399 94.1462
18.4852 75.3363
18.5303 65.0567
18.5756 61.8932
18.6207 61.0845
18.666 60.1083
18.7112 59.5211
18.7565 58.9482
18.8016 58.4857
18.8469 57.9049
18.892 57.6502
18.9374 57.2305
18.9825 56.8828
19.0278 56.8589
19.073 56.8622
19.1183 57.4009
19.1635 58.1305
19.2088 59.474
19.254 62.5238
19.2993 67.3431
19.3447 73.3053
19.3898 76.3862
19.4352 71.1232
19.4804 62.1496
19.5257 55.9163
19.5709 54.1288
19.6163 53.7383
19.6615 53.6479
19.7068 53.1899
19.752 53.2563
19.7974 53.6885
19.8426 54.4678
19.888 55.0554
19.9332 56.3181
19.9786 59.0617
20.0238 62.7081
20.0692 67.6376
20.1144 69.9361
20.1598 67.5194
20.205 63.1453
20.2504 62.2
20.2957 64.195
20.3411 65.553
20.3863 63.2541
20.4318 57.4158
20.477 52.9531
20.5224 51.2693
20.5677 50.6393
20.6131 50.2033
20.6586 49.4941
20.7038 49.3434
20.7493 49.0599
20.7945 49.0069
20.84 48.9097
20.8853 48.696
20.9307 48.4102
20.976 48.7889
21.0215 48.6167
21.0668 48.9476
21.1122 49.4638
21.1575 50.1587
21.203 50.8411
21.2483 51.3088
21.2938 51.3835
21.3391 49.8541
21.3846 48.52
21.4299 48.4828
21.4754 48.3012
21.5207 48.5196
21.5662 48.7282
21.6116 49.2875
21.6571 49.9238
21.7024 50.8794
21.7479 52.7744
21.7933 55.7373
21.8388 59.4273
21.8843 63.0848
21.9297 64.6726
21.9752 62.844
22.0206 58.9255
22.0661 56.361
22.1115 56.188
22.157 55.8718
22.2024 53.7585
22.248 50.9867
22.2933 49.5771
22.3389 48.8162
22.3843 48.7459
22.4299 48.676
22.4753 48.7838
22.5208 48.5487
22.5662 48.3856
22.6118 48.5875
22.6572 48.9206
22.7028 49.2104
22.7483 49.5708
22.7939 50.4836
22.8393 52.1156
22.8849 54.4463
22.9303 56.287
22.9759 57.9441
23.0214 56.9633
23.067 53.8336
23.1126 50.664
23.1581 49.0039
23.2037 48.7495
23.2492 48.8604
23.2948 48.8496
23.3403 49.0658
23.3859 49.7859
23.4314 51.1021
23.477 52.9903
23.5225 55.0811
23.5682 57.2736
23.6137 57.5898
23.6593 54.9453
23.7048 50.7447
23.7505 47.6854
23.796 46.3922
23.8417 45.8985
23.8872 45.4174
23.9329 45.1103
23.9784 44.7655
24.0241 44.5734
24.0697 44.315
24.1154 44.1024
24.1609 43.8182
24.2066 43.8313
24.2522 43.7069
24.2979 43.2767
24.3434 43.1166
24.3892 43.1078
24.4349 42.8926
24.4805 42.8798
24.5262 43.0532
24.5718 43.0287
24.6175 42.8809
24.6631 42.6228
24.7089 42.462
24.7545 42.3792
24.8002 42.0791
24.8458 42.16
24.8916 42.0376
24.9372 42.2053
24.983 42.3981
25.0286 42.7238
25.0744 43.2884
25.12 43.8141
25.1658 44.3198
25.2114 44.636
25.2572 44.6956
25.3029 44.7147
25.3487 44.9488
25.3943 44.4804
25.4402 43.2269
25.4858 42.2387
25.5316 41.3618
25.5773 40.8755
25.6231 40.8189
25.669 40.5042
25.7147 40.3282
25.7605 40.4133
25.8062 40.3739
25.8521 40.5373
25.8977 40.511
25.9436 40.7476
25.9893 40.9492
26.0352 41.3664
26.0809 41.5626
26.1268 41.6866
26.1725 41.1796
26.2184 40.6332
26.2641 40.2342
26.31 40.0451
26.3557 39.9656
26.4017 40.0208
26.4474 40.4367
26.4933 40.6688
26.5391 41.3039
26.585 41.6288
26.6308 42.1027
26.6767 42.0354
26.7225 41.7632
26.7684 41.2107
26.8142 40.6267
26.8601 40.4038
26.9059 39.994
26.9519 39.304
26.9979 39.1684
27.0437 38.8511
27.0896 38.6197
27.1354 38.7035
27.1814 38.4354
27.2272 38.3997
27.2732 38.4822
27.3191 38.3396
27.3651 38.3807
27.4109 38.4485
27.4569 38.5401
27.5027 38.4984
27.5488 38.4997
27.5946 38.3379
27.6407 38.1599
27.6865 38.0868
27.7326 37.8479
27.7784 37.9565
27.8245 37.8823
27.8703 37.9423
27.9164 38.3691
27.9623 38.2773
28.0084 38.8516
28.0543 39.2185
28.1003 38.9008
28.1462 38.6326
28.1923 38.3792
28.2384 37.9391
28.2843 37.4865
28.3304 36.9716
28.3764 36.5874
28.4225 36.285
28.4684 36.1822
28.5145 35.8111
28.5605 35.8228
28.6066 35.6476
28.6526 35.5391
28.6987 35.612
28.7447 35.3562
28.7908 35.3507
28.8368 35.3291
28.8829 35.2547
28.9289 35.2879
28.9751 35.0849
29.0211 34.7564
29.0673 34.5668
29.1133 34.5431
29.1595 34.3623
29.2055 34.3038
29.2517 34.2213
29.2977 34.2316
29.3439 34.2826
29.3899 34.1717
29.4361 34.1144
29.4824 33.939
29.5284 33.6202
29.5746 33.3623
29.6207 33.1815
29.6669 32.9649
29.713 32.8987
29.7593 32.8849
29.8053 32.8552
29.8516 32.8194
29.8977 32.7231
29.9439 32.5989
29.99 32.4757
30.0363 32.4403
30.0824 32.4495
30.1287 32.3902
30.1748 32.3948
30.2211 32.442
30.2673 32.2609
30.3136 32.3565
30.3597 32.1912
30.406 32.1352
30.4522 32.0959
30.4985 31.9961
30.5447 32.1449
30.591 32.0967
30.6372 32.2211
30.6835 32.1749
30.7297 32.2035
30.7761 32.0702
30.8224 31.9408
30.8686 31.7268
30.915 31.5333
30.9612 31.4527
31.0076 31.2399
31.0538 31.0407
31.1002 31.1716
31.1464 30.8912
31.1928 30.9257
31.2391 30.881
31.2855 30.8068
31.3317 30.7673
31.3781 30.9019
31.4244 30.96
31.4708 30.8227
31.5171 30.8331
31.5636 30.679
31.6098 30.4028
31.6563 30.2603
31.7026 30.2198
31.7491 30.0417
31.7953 30.1734
31.8418 30.0912
31.8881 30.1656
31.9346 30.0556
31.9809 29.9912
32.0275 29.8387
32.074 29.7439
32.1203 29.4857
32.1668 29.5168
32.2132 29.2749
32.2597 29.1874
32.306 29.0836
32.3526 28.9176
32.399 28.9157
32.4455 28.6784
32.4919 28.64
32.5385 28.5742
32.5848 28.3947
32.6314 28.4336
32.6778 28.3536
32.7244 28.154
32.7708 28.1585
32.8174 28.1629
32.8638 27.8714
32.9104 28.0926
32.9569 28.0032
33.0035 27.7685
33.0499 27.7973
33.0966 27.8029
33.143 27.8637
33.1897 27.7209
33.2361 27.5695
33.2828 27.538
33.3293 27.315
33.3759 27.3101
33.4226 27.1451
33.4691 27.0598
33.5158 26.9934
33.5623 26.8098
33.609 26.6384
33.6555 26.6517
33.7022 26.4795
33.7487 26.4626
33.7954 26.468
33.842 26.3518
33.8887 26.2246
33.9353 26.2023
33.982 26.0637
34.0286 25.9203
34.0753 26.0358
34.1219 25.8077
34.1687 25.8014
34.2152 25.714
34.262 25.6194
34.3086 25.4887
34.3554 25.5886
34.402 25.4423
34.4488 25.2335
34.4954 25.2889
34.5422 25.157
34.5889 24.9627
34.6357 24.8869
34.6825 24.8932
34.7292 24.8606
34.776 24.7038
34.8227 24.6639
34.8695 24.6233
34.9162 24.5453
34.9631 24.4775
35.0098 24.4308
35.0566 24.3138
35.1033 24.234
35.1502 24.2482
35.1969 24.1194
35.2438 24.112
35.2906 24.032
35.3375 24.0163
35.3842 24.0096
35.4311 23.9684
35.4779 23.9612
35.5248 23.8491
35.5716 23.7578
35.6185 23.6645
35.6653 23.5544
35.7123 23.3492
35.759 23.4713
35.806 23.3496
35.8528 23.1977
35.8998 23.1822
35.9468 23.1286
35.9936 23.0497
36.0406 22.9869
36.0874 22.9483
36.1345 22.8888
36.1813 22.7671
36.2283 22.6548
36.2752 22.6387
36.3222 22.695
36.3691 22.581
36.4161 22.4365
36.463 22.4077
36.5101 22.393
36.557 22.3172
36.6041 22.0747
36.651 22.1558
36.6981 22.0859
36.745 22.0215
36.7921 21.9262
36.839 21.8877
36.8861 21.7927
36.9331 21.7255
36.9802 21.6535
37.0272 21.6016
37.0743 21.4501
37.1213 21.4512
37.1684 21.4008
37.2154 21.3542
37.2626 21.2712
37.3098 21.1386
37.3568 21.0762
37.404 21.0662
37.451 20.957
37.4982 20.9434
37.5452 20.7619
37.5924 20.7397
37.6395 20.8725
37.6867 20.738
37.7337 20.516
37.781 20.4526
37.8281 20.4729
37.8753 20.3063
37.9224 20.2556
37.9697 20.2276
38.0168 20.2334
38.064 20.0965
38.1111 20.0811
38.1584 19.9365
38.2056 19.8912
38.2529 19.846
38.3 19.8103
38.3473 19.8267
38.3945 19.6083
38.4418 19.5985
38.489 19.6325
38.5363 19.4334
38.5837 19.4983
38.6309 19.3836
38.6782 19.2983
38.7254 19.2459
38.7728 19.1329
38.82 19.0544
38.8674 19.0685
38.9146 18.9579
38.9621 18.9189
39.0093 18.8721
39.0567 18.8275
39.104 18.7595
39.1514 18.6905
39.1987 18.6375
39.2461 18.6309
39.2934 18.5504
39.3409 18.4349
39.3882 18.4101
39.4356 18.3059
39.483 18.241
39.5304 18.2059
39.5778 18.1521
39.6253 18.133
39.6726 18.0512
39.7201 17.9654
39.7675 17.9626
39.815 17.898
39.8624 17.8178
39.9099 17.7757
39.9575 17.7561
40.0049 17.6949
40.0525 17.5807
40.0999 17.4899
40.1474 17.5064
40.1949 17.4205
40.2425 17.3108
40.2899 17.3285
40.3375 17.2934
40.385 17.2313
40.4326 17.1541
40.48 17.1072
40.5277 17.0537
40.5752 16.997
40.6228 16.8952
40.6703 16.8905
40.718 16.8491
40.7655 16.7758
40.8132 16.6999
40.8607 16.6943
40.9084 16.6521
40.9559 16.6171
41.0036 16.5567
41.0512 16.4682
41.0989 16.4586
41.1465 16.3634
41.1942 16.29
41.242 16.1945
41.2896 16.2327
41.3373 16.1035
41.3849 16.0946
41.4327 15.9973
41.4803 15.9647
41.5281 15.9587
41.5758 15.8047
41.6236 15.812
41.6712 15.7798
41.7191 15.7131
41.7667 15.6845
41.8146 15.5963
41.8622 15.5936
41.9101 15.4959
41.9578 15.4396
42.0057 15.3807
42.0534 15.3604
42.1013 15.2846
42.149 15.2654
42.1969 15.1459
42.2446 15.1423
42.2925 15.1081
42.3403 15.0411
42.3882 15.0456
42.436 14.9577
42.4839 14.8525
42.5319 14.8765
42.5797 14.8052
42.6277 14.75
42.6755 14.6623
42.7235 14.6241
42.7713 14.5839
42.8193 14.5463
42.8671 14.5008
42.9152 14.4562
42.963 14.4075
43.0111 14.3995
43.0589 14.353
43.107 14.1499
43.1549 14.2015
43.2029 14.1034
43.2508 14.0837
43.2989 14.0528
43.3468 14.0132
43.3949 13.9794
43.4429 13.9004
43.491 13.8758
43.5389 13.8251
43.5871 13.7362
43.635 13.694
43.6832 13.6955
43.7312 13.6134
43.7793 13.5367
43.8273 13.5007
43.8755 13.4683
43.9237 13.4555
43.9717 13.3745
44.0199 13.3384
44.068 13.3115
44.1162 13.2316
44.1642 13.2117
44.2125 13.1709
44.2606 13.1016
44.3088 13.0686
44.3569 13.0359
44.4052 12.9827
44.4533 12.9347
44.5016 12.83
44.5497 12.8488
44.598 12.8239
44.6461 12.7392
44.6945 12.7245
44.7426 12.7073
44.791 12.5643
44.8391 12.5768
44.8875 12.5258
44.9357 12.496
44.984 12.4092
45.0322 12.4008
45.0806 12.316
45.1288 12.3013
45.1773 12.2624
45.2257 12.2127
45.2739 12.1756
45.3224 12.1427
45.3706 12.1144
45.4191 12.0234
45.4673 12.0393
45.5158 12.0073
45.5641 11.9601
45.6126 11.9027
45.6609 11.8627
45.7094 11.7808
45.7577 11.7215
45.8063 11.6676
45.8546 11.6767
45.9031 11.6294
45.9515 11.5564
46.0001 11.5509
46.0484 11.5151
46.097 11.4528
46.1454 11.4147
46.194 11.4069
46.2424 11.3347
46.291 11.2923
46.3395 11.2804
46.3881 11.2048
46.4365 11.1957
46.4852 11.1159
46.5337 11.1038
46.5823 11.0908
46.631 11.0081
46.6795 10.9993
46.7282 10.989
46.7767 10.9122
46.8254 10.8402
46.8739 10.8287
46.9226 10.7492
46.9712 10.7189
47.0199 10.6819
47.0685 10.6685
47.1173 10.5748
47.1658 10.582
47.2146 10.5491
47.2632 10.4595
47.312 10.4719
47.3606 10.4363
47.4095 10.3681
47.4581 10.3615
47.5069 10.2989
47.5556 10.2758
47.6044 10.2295
47.6531 10.1314
47.702 10.1365
47.7507 10.108
47.7996 10.0869
47.8483 10.044
47.8972 10.0361
47.9461 9.97503
47.9948 9.90417
48.0438 9.89191
48.0925 9.87788
48.1415 9.82036
48.1902 9.78846
48.2392 9.81419
48.288 9.74623
48.337 9.69301
48.3858 9.62598
48.4348 9.62855
48.4837 9.62969
48.5327 9.55174
48.5815 9.51356
48.6306 9.47625
48.6795 9.44104
48.7285 9.39292
48.7774 9.39219
48.8265 9.35624
48.8754 9.30885
48.9245 9.25729
48.9734 9.21719
49.0226 9.20039
49.0715 9.13442
49.1206 9.09092
49.1696 9.11434
49.2188 9.03985
49.2679 9.02924
49.3169 9.01213
49.3661 8.92572
49.4151 8.9148
49.4643 8.83943
49.5134 8.86524
49.5626 8.79873
49.6117 8.78447
49.6609 8.73911
49.71 8.72246
49.7592 8.66266
49.8083 8.61664
49.8576 8.6405
49.9067 8.58799
49.956 8.56543
50.0052 8.48399
50.0545 8.47924
50.1036 8.45159
50.153 8.42822
50.2022 8.39111
50.2515 8.33644
50.3007 8.30996
50.3501 8.24607
50.3993 8.24212
50.4487 8.20521
50.498 8.21552
50.5474 8.15303
50.5966 8.09007
50.6461 8.07827
50.6955 8.05726
50.7448 8.04541
50.7943 7.98783
50.8436 7.972
50.8931 7.96064
50.9424 7.91516
50.9919 7.86773
51.0413 7.83411
51.0908 7.78425
51.1402 7.78594
51.1897 7.73523
51.2391 7.70953
51.2887 7.70524
51.3381 7.69929
51.3877 7.63398
51.4371 7.57248
51.4867 7.5342
51.5362 7.51831
51.5858 7.51103
51.6353 7.44406
51.6849 7.45286
51.7344 7.40463
51.7841 7.35337
51.8336 7.39064
51.8833 7.31925
51.9328 7.2808
51.9826 7.26066
52.0323 7.2205
52.0818 7.20638
52.1316 7.11656
52.1812 7.09813
52.231 7.08768
52.2806 7.09288
52.3304 7.04735
52.38 7.03629
52.4298 6.99155
52.4794 6.95972
52.5293 6.92
52.5789 6.88599
52.6288 6.9027
52.6785 6.84469
52.7284 6.79899
52.7781 6.78069
52.828 6.75851
52.8777 6.69848
52.9276 6.69952
52.9774 6.68391
53.0273 6.66228
53.0771 6.63469
53.1271 6.62634
53.1769 6.57571
53.2269 6.49399
53.2767 6.50012
53.3267 6.46864
53.3765 6.47932
53.4266 6.42777
53.4766 6.41201
53.5265 6.37825
53.5765 6.33162
53.6264 6.33318
53.6765 6.30916
53.7264 6.26645
53.7765 6.2654
53.8265 6.18684
53.8766 6.15745
53.9266 6.19718
53.9767 6.13158
54.0267 6.09613
54.0769 6.0943
54.1269 6.0336
54.1771 6.0073
54.2271 5.98834
54.2773 5.97864
54.3274 5.94666
54.3776 5.8646
54.4277 5.8668
54.478 5.83125
54.528 5.78482
54.5783 5.75248
54.6285 5.67321
54.6788 5.67877
54.7289 5.61019
54.7792 5.54589
54.8296 5.50482
54.8798 5.51395
54.9301 5.47695
54.9803 5.41035
55.0307 5.42279
55.0809 5.34441
55.1314 5.34404
55.1816 5.25976
55.232 5.21766
55.2823 5.1874
55.3328 5.14458
55.383 5.08392
55.4335 5.07468
55.4838 5.00077
55.5344 4.96966
55.5847 4.8712
55.6352 4.88409
55.6856 4.82391
55.7361 4.80829