File: XRD/Ni3Fe_FD0742.xy
TT I
1.27165 7.50167
1.31627 6.48938
1.36089 7.05089
1.40551 6.11229
1.45013 5.72325
1.49476 6.8799
1.53938 5.63922
1.584 4.81786
1.62863 5.17689
1.67325 5.14742
1.71787 4.85437
1.7625 4.905
1.80712 4.84459
1.85174 4.75682
1.89636 4.43365
1.94099 5.46463
1.98562 4.78613
2.03025 4.48775
2.07487 4.85748
2.11949 4.5805
2.16411 5.01289
2.20874 14.9149
2.25338 22.6304
2.298 5.86875
2.34263 6.14126
2.38725 5.91334
2.43188 6.10525
2.4765 6.71117
2.52115 7.3712
2.56577 7.20935
2.6104 7.63908
2.65503 8.25676
2.69965 8.31177
2.7443 8.08939
2.78893 7.99841
2.83356 9.40781
2.87818 8.57631
2.92281 8.8693
2.96744 9.57834
3.01209 10.498
3.05672 11.3714
3.10135 12.3521
3.14599 13.0179
3.19062 13.9702
3.23527 15.0324
3.2799 15.7804
3.32454 16.7806
3.36917 17.6113
3.4138 18.6467
3.45844 20.1475
3.50309 21.0923
3.54773 22.091
3.59237 24.0163
3.637 93.7704
3.68164 59.9667
3.7263 26.099
3.77094 26.1635
3.81558 26.6731
3.86022 27.5303
3.90486 29.0639
3.9495 30.2636
3.99416 30.8443
4.0388 32.027
4.08344 33.9179
4.12809 34.8684
4.17273 37.4141
4.21738 43.9456
4.26204 255.605
4.30669 223.609
4.35133 49.4866
4.39598 44.2359
4.44063 54.3076
4.4853 65.5378
4.52995 50.0303
4.5746 51.0587
4.61925 52.6813
4.6639 55.38
4.70855 58.0637
4.75322 60.55
4.79788 63.5123
4.84253 67.1391
4.88719 70.8092
4.93184 74.3096
4.97652 80.2918
5.02118 85.953
5.06583 92.953
5.11049 104.078
5.15515 170.012
5.19981 317.629
5.24449 2641.85
5.28916 12737.1
5.33382 2895.75
5.37848 185.247
5.42315 128.385
5.46783 112.299
5.5125 105.246
5.55716 101.193
5.60183 97.5517
5.6465 95.9154
5.69117 93.3533
5.73586 91.7843
5.78053 90.7014
5.8252 90.1673
5.86988 90.6188
5.91455 92.5954
5.95924 99.2538
6.00392 187.041
6.0486 888.805
6.09328 4561.01
6.13795 3233.2
6.18263 241.083
6.22733 92.3135
6.27201 82.4779
6.3167 102.816
6.36138 80.5595
6.40606 68.8944
6.45075 67.5401
6.49545 65.2472
6.54014 63.5263
6.58483 63.1306
6.62952 62.3892
6.67421 94.5602
6.71892 145.21
6.76361 69.2383
6.8083 58.5361
6.853 57.5193
6.89769 56.9479
6.94239 56.433
6.98711 55.9026
7.03181 55.3241
7.07651 55.2781
7.12121 55.2471
7.16591 54.7672
7.21063 55.4349
7.25533 70.8517
7.30004 181.887
7.34475 92.0303
7.38945 56.6419
7.43416 54.8686
7.47889 54.3013
7.5236 54.5191
7.56831 55.3887
7.61303 57.0301
7.65774 57.1
7.70247 55.8436
7.74719 56.045
7.79191 56.5117
7.83663 57.0623
7.88135 57.4414
7.92607 58.508
7.97081 59.3979
8.01553 60.5504
8.06026 62.0368
8.10498 63.4294
8.14971 73.3747
8.19446 71.9509
8.23919 69.115
8.28392 71.1551
8.32865 73.5539
8.37339 77.337
8.41812 84.7871
8.46288 113.133
8.50761 154.02
8.55235 364.65
8.59709 1160.87
8.64183 2167.72
8.68658 983.383
8.73134 163.565
8.77609 98.5498
8.82083 91.6766
8.86558 89.2474
8.91033 89.4657
8.9551 91.3412
8.99985 85.0048
9.04461 83.1502
9.08936 82.3398
9.13412 81.4795
9.17888 81.6387
9.22365 82.4861
9.26841 81.6798
9.31318 82.1087
9.35794 82.0334
9.4027 82.861
9.44749 83.6186
9.49226 84.2395
9.53703 85.2167
9.5818 86.902
9.62657 91.6629
9.67134 98.315
9.71614 93.1429
9.76091 93.3288
9.80569 95.8353
9.85047 99.1217
9.89525 123.74
9.94005 135.179
9.98484 163.778
10.0296 320.185
10.0744 790.228
10.1192 1772.17
10.164 1650.14
10.2088 411.195
10.2536 126.541
10.2984 112.621
10.3432 114.949
10.388 103.687
10.4328 114.291
10.4776 154.15
10.5224 274.841
10.5672 517.369
10.612 510.686
10.6568 208.933
10.7017 96.6566
10.7465 86.1179
10.7913 82.8572
10.8361 80.7907
10.8809 78.664
10.9257 78.5606
10.9706 78.7797
11.0154 74.4715
11.0602 72.3543
11.105 71.4709
11.1499 76.2687
11.1947 83.695
11.2395 74.2685
11.2844 70.234
11.3292 67.056
11.374 65.9341
11.4189 65.3759
11.4637 64.5945
11.5086 65.1464
11.5534 68.0856
11.5983 65.4946
11.6431 63.5104
11.688 62.5482
11.7328 62.6611
11.7777 62.5711
11.8225 62.0741
11.8674 62.1328
11.9122 62.5983
11.9571 62.4985
12.002 63.1778
12.0468 66.5923
12.0917 76.6718
12.1366 100.645
12.1814 151.346
12.2263 202.053
12.2712 166.772
12.3161 98.8897
12.3609 70.7029
12.4058 64.2961
12.4507 63.9743
12.4956 63.883
12.5405 64.1901
12.5853 65.464
12.6302 73.3311
12.6751 78.7973
12.72 70.0157
12.7649 67.4597
12.8098 67.6903
12.8547 69.325
12.8996 70.5274
12.9445 71.7005
12.9894 73.5054
13.0343 75.0112
13.0792 78.0138
13.1242 85.8029
13.1691 107.902
13.214 143.179
13.2589 235.031
13.3038 370.771
13.3487 417.033
13.3937 264.06
13.4386 126.185
13.4835 103.152
13.5285 116.631
13.5734 153.717
13.6183 244.8
13.6633 348.6
13.7082 336.724
13.7531 185.945
13.7981 97.9715
13.843 81.1516
13.888 79.2462
13.9329 76.7187
13.9779 75.3573
14.0228 74.0895
14.0678 72.6359
14.1127 72.2424
14.1577 72.2097
14.2027 71.2502
14.2476 70.4403
14.2926 70.2139
14.3376 71.4593
14.3825 70.0611
14.4275 68.4051
14.4725 68.1884
14.5175 68.4847
14.5624 68.5712
14.6074 70.6716
14.6524 71.3866
14.6974 69.9363
14.7424 70.9643
14.7874 77.0047
14.8324 86.4924
14.8774 108.262
14.9224 151.929
14.9674 205.877
15.0124 216.414
15.0574 151.605
15.1024 91.6207
15.1474 71.9989
15.1924 70.119
15.2374 70.9466
15.2824 69.9801
15.3274 67.6891
15.3725 66.6254
15.4175 66.2019
15.4625 65.618
15.5076 65.9661
15.5526 65.7792
15.5976 65.3196
15.6426 66.0629
15.6877 70.7346
15.7327 77.9859
15.7778 92.8196
15.8228 124.954
15.8679 171.216
15.9129 194.0
15.958 156.423
16.003 98.5121
16.0481 68.2072
16.0931 64.8175
16.1382 62.5917
16.1833 60.3577
16.2283 58.622
16.2734 58.1196
16.3185 58.4356
16.3636 59.2905
16.4086 57.4745
16.4537 56.126
16.4988 55.3001
16.5439 55.1549
16.589 54.7864
16.6341 54.406
16.6792 54.3411
16.7243 54.5281
16.7694 54.7836
16.8145 54.5547
16.8596 55.0766
16.9047 56.4841
16.9498 56.6811
16.9949 55.4845
17.04 55.2661
17.0851 56.5473
17.1302 58.2522
17.1754 61.0756
17.2205 66.1314
17.2656 74.1134
17.3108 82.5468
17.3559 82.5739
17.401 70.7704
17.4462 62.0368
17.4913 58.8697
17.5365 58.9033
17.5815 59.0484
17.6268 59.1571
17.6718 60.0986
17.7171 60.632
17.7622 60.8396
17.8074 61.5912
17.8525 63.2518
17.8977 66.9557
17.9428 72.4897
17.9881 81.1431
18.0331 98.9804
18.0784 121.475
18.1237 138.727
18.1688 130.025
18.214 102.375
18.2591 86.3428
18.3044 90.1406
18.3495 100.629
18.3948 105.709
18.4399 95.8128
18.4852 77.2198
18.5303 65.7791
18.5756 61.8242
18.6207 60.8408
18.666 60.0541
18.7112 59.2779
18.7565 58.5896
18.8016 58.5128
18.8469 57.6772
18.892 57.4998
18.9374 56.9085
18.9825 56.9483
19.0278 56.536
19.073 56.8029
19.1183 57.1104
19.1635 57.7638
19.2088 58.9044
19.254 61.57
19.2993 66.278
19.3447 72.4363
19.3898 76.1681
19.4352 71.9186
19.4804 63.2623
19.5257 56.672
19.5709 54.2226
19.6163 53.4831
19.6615 53.3112
19.7068 52.9791
19.752 53.0716
19.7974 53.4091
19.8426 53.8913
19.888 54.7201
19.9332 55.8779
19.9786 58.5467
20.0238 61.8247
20.0692 67.1521
20.1144 69.1252
20.1598 67.8164
20.205 62.9705
20.2504 61.849
20.2957 63.6709
20.3411 65.4507
20.3863 63.5809
20.4318 58.092
20.477 53.6148
20.5224 51.5522
20.5677 50.7118
20.6131 50.0682
20.6586 49.4493
20.7038 49.2697
20.7493 48.826
20.7945 48.7524
20.84 48.645
20.8853 48.418
20.9307 48.2579
20.976 48.4059
21.0215 48.3105
21.0668 48.7042
21.1122 49.2651
21.1575 49.9946
21.203 50.6456
21.2483 51.093
21.2938 51.2201
21.3391 49.8984
21.3846 48.7898
21.4299 48.1599
21.4754 48.2324
21.5207 48.212
21.5662 48.4662
21.6116 48.8467
21.6571 49.4619
21.7024 50.4153
21.7479 52.1066
21.7933 54.7952
21.8388 58.6212
21.8843 62.1898
21.9297 64.254
21.9752 62.8856
22.0206 59.4663
22.0661 56.4452
22.1115 55.6866
22.157 55.6556
22.2024 53.9607
22.248 51.2196
22.2933 49.7477
22.3389 48.8496
22.3843 48.7953
22.4299 48.6485
22.4753 48.733
22.5208 48.4639
22.5662 48.2536
22.6118 48.2948
22.6572 48.529
22.7028 48.835
22.7483 49.27
22.7939 49.994
22.8393 51.8259
22.8849 53.8203
22.9303 55.9251
22.9759 57.6379
23.0214 56.9242
23.067 54.3986
23.1126 50.9461
23.1581 49.0081
23.2037 48.5448
23.2492 48.4024
23.2948 48.4765
23.3403 48.6542
23.3859 49.3049
23.4314 50.3709
23.477 52.2449
23.5225 54.6312
23.5682 56.8749
23.6137 57.6392
23.6593 55.2033
23.7048 51.3309
23.7505 48.1664
23.796 46.4424
23.8417 45.9061
23.8872 45.3312
23.9329 44.9491
23.9784 44.5817
24.0241 44.4124
24.0697 44.2676
24.1154 43.9609
24.1609 43.81
24.2066 43.5341
24.2522 43.532
24.2979 43.2334
24.3434 43.0512
24.3892 42.9548
24.4349 42.9885
24.4805 42.6522
24.5262 42.8598
24.5718 42.8449
24.6175 42.6325
24.6631 42.58
24.7089 42.2783
24.7545 42.2979
24.8002 42.0127
24.8458 42.1056
24.8916 41.7857
24.9372 41.8697
24.983 42.2237
25.0286 42.5441
25.0744 43.0603
25.12 43.492
25.1658 44.0915
25.2114 44.4763
25.2572 44.4852
25.3029 44.6742
25.3487 44.827
25.3943 44.4173
25.4402 43.4244
25.4858 42.3221
25.5316 41.2292
25.5773 40.8108
25.6231 40.664
25.669 40.3157
25.7147 40.41
25.7605 40.2587
25.8062 40.3791
25.8521 40.5175
25.8977 40.2961
25.9436 40.6007
25.9893 40.8514
26.0352 41.3097
26.0809 41.4055
26.1268 41.474
26.1725 41.1593
26.2184 40.5835
26.2641 40.0575
26.31 39.8645
26.3557 40.0626
26.4017 39.9297
26.4474 40.2286
26.4933 40.5075
26.5391 41.0837
26.585 41.5195
26.6308 41.9335
26.6767 41.8811
26.7225 41.7108
26.7684 41.1558
26.8142 40.6293
26.8601 40.2307
26.9059 39.773
26.9519 39.3403
26.9979 38.9734
27.0437 38.6442
27.0896 38.5517
27.1354 38.5911
27.1814 38.4034
27.2272 38.2231
27.2732 38.3212
27.3191 38.1452
27.3651 38.2602
27.4109 38.1815
27.4569 38.3905
27.5027 38.4222
27.5488 38.3606
27.5946 38.1342
27.6407 37.8647
27.6865 37.9047
27.7326 37.6038
27.7784 37.7391
27.8245 37.511
27.8703 37.8187
27.9164 38.0052
27.9623 38.1568
28.0084 38.5484
28.0543 38.871
28.1003 38.7711
28.1462 38.6043
28.1923 38.32
28.2384 37.6458
28.2843 37.4996
28.3304 36.9769
28.3764 36.6125
28.4225 36.1875
28.4684 36.0934
28.5145 35.7845
28.5605 35.684
28.6066 35.545
28.6526 35.2977
28.6987 35.4053
28.7447 35.3691
28.7908 35.2103
28.8368 35.3154
28.8829 35.403
28.9289 35.1323
28.9751 34.9522
29.0211 34.7703
29.0673 34.4529
29.1133 34.3831
29.1595 34.2573
29.2055 34.1214
29.2517 34.1185
29.2977 34.1504
29.3439 34.1096
29.3899 34.0781
29.4361 33.9575
29.4824 33.803
29.5284 33.6507
29.5746 33.2863
29.6207 32.9889
29.6669 32.9906
29.713 32.7533
29.7593 32.691
29.8053 32.785
29.8516 32.6946
29.8977 32.5488
29.9439 32.452
29.99 32.4902
30.0363 32.2742
30.0824 32.4262
30.1287 32.3139
30.1748 32.4359
30.2211 32.3249
30.2673 32.1112
30.3136 32.1941
30.3597 32.0472
30.406 32.1996
30.4522 31.8656
30.4985 31.841
30.5447 32.0199
30.591 32.0086
30.6372 32.0609
30.6835 32.0488
30.7297 32.0829
30.7761 32.0722
30.8224 31.8053
30.8686 31.7242
30.915 31.4011
30.9612 31.3782
31.0076 31.1675
31.0538 30.9514
31.1002 30.9046
31.1464 30.7428
31.1928 30.8319
31.2391 30.8972
31.2855 30.6993
31.3317 30.6735
31.3781 30.8114
31.4244 30.7129
31.4708 30.7292
31.5171 30.5733
31.5636 30.6969
31.6098 30.3427
31.6563 30.2247
31.7026 30.075
31.7491 29.9881
31.7953 30.0051
31.8418 29.9865
31.8881 29.9801
31.9346 29.9715
31.9809 29.8685
32.0275 29.751
32.074 29.7617
32.1203 29.4103
32.1668 29.3447
32.2132 29.2819
32.2597 29.0584
32.306 29.0799
32.3526 28.8232
32.399 28.8291
32.4455 28.5999
32.4919 28.5503
32.5385 28.4762
32.5848 28.3712
32.6314 28.4108
32.6778 28.3279
32.7244 28.2358
32.7708 28.0129
32.8174 28.0449
32.8638 27.8417
32.9104 28.0088
32.9569 27.91
33.0035 27.7248
33.0499 27.6865
33.0966 27.659
33.143 27.6314
33.1897 27.6703
33.2361 27.5201
33.2828 27.4187
33.3293 27.2708
33.3759 27.2908
33.4226 27.1219
33.4691 26.9706
33.5158 26.8647
33.5623 26.7072
33.609 26.7153
33.6555 26.4655
33.7022 26.4614
33.7487 26.3915
33.7954 26.3328
33.842 26.2709
33.8887 26.2777
33.9353 26.1239
33.982 25.9442
34.0286 25.9404
34.0753 25.9195
34.1219 25.801
34.1687 25.712
34.2152 25.7157
34.262 25.5106
34.3086 25.4683
34.3554 25.4746
34.402 25.1844
34.4488 25.1691
34.4954 25.1354
34.5422 25.0127
34.5889 25.0387
34.6357 24.9422
34.6825 24.807
34.7292 24.7101
34.776 24.6602
34.8227 24.5357
34.8695 24.5947
34.9162 24.4989
34.9631 24.4007
35.0098 24.3597
35.0566 24.2053
35.1033 24.2201
35.1502 24.1779
35.1969 24.1359
35.2438 24.0479
35.2906 24.0094
35.3375 23.9653
35.3842 23.9223
35.4311 23.8186
35.4779 23.8362
35.5248 23.847
35.5716 23.6464
35.6185 23.6204
35.6653 23.5466
35.7123 23.3814
35.759 23.2889
35.806 23.2508
35.8528 23.1573
35.8998 23.0381
35.9468 23.0145
35.9936 23.0106
36.0406 22.894
36.0874 22.9118
36.1345 22.7713
36.1813 22.6484
36.2283 22.6734
36.2752 22.4905
36.3222 22.5781
36.3691 22.4416
36.4161 22.3011
36.463 22.3091
36.5101 22.3323
36.557 22.2386
36.6041 22.0951
36.651 22.0522
36.6981 21.9975
36.745 21.9673
36.7921 21.8535
36.839 21.7677
36.8861 21.665
36.9331 21.6337
36.9802 21.5871
37.0272 21.4859
37.0743 21.3662
37.1213 21.3597
37.1684 21.3117
37.2154 21.291
37.2626 21.1263
37.3098 21.1655
37.3568 21.0851
37.404 21.0223
37.451 20.921
37.4982 20.8579
37.5452 20.7992
37.5924 20.6551
37.6395 20.8007
37.6867 20.6027
37.7337 20.5194
37.781 20.421
37.8281 20.449
37.8753 20.3248
37.9224 20.2843
37.9697 20.1648
38.0168 20.0713
38.064 20.0075
38.1111 20.0625
38.1584 19.9384
38.2056 19.8755
38.2529 19.7645
38.3 19.7431
38.3473 19.7279
38.3945 19.66
38.4418 19.6133
38.489 19.5192
38.5363 19.4325
38.5837 19.3486
38.6309 19.3552
38.6782 19.2861
38.7254 19.2143
38.7728 19.1281
38.82 19.072
38.8674 19.0048
38.9146 18.9917
38.9621 18.8964
39.0093 18.816
39.0567 18.78
39.104 18.7059
39.1514 18.5889
39.1987 18.6134
39.2461 18.5118
39.2934 18.4872
39.3409 18.387
39.3882 18.3525
39.4356 18.2902
39.483 18.2053
39.5304 18.1508
39.5778 18.1641
39.6253 18.0544
39.6726 17.97
39.7201 17.9192
39.7675 17.9412
39.815 17.854
39.8624 17.7569
39.9099 17.7565
39.9575 17.6366
40.0049 17.656
40.0525 17.5535
40.0999 17.5434
40.1474 17.5316
40.1949 17.3822
40.2425 17.2415
40.2899 17.2507
40.3375 17.2389
40.385 17.1657
40.4326 17.1596
40.48 17.1201
40.5277 17.0326
40.5752 16.9664
40.6228 16.8547
40.6703 16.8202
40.718 16.8595
40.7655 16.7924
40.8132 16.7234
40.8607 16.686
40.9084 16.5755
40.9559 16.5467
41.0036 16.4888
41.0512 16.4295
41.0989 16.3979
41.1465 16.2747
41.1942 16.255
41.242 16.1928
41.2896 16.1533
41.3373 16.0886
41.3849 16.0449
41.4327 15.9874
41.4803 15.9318
41.5281 15.8742
41.5758 15.8034
41.6236 15.7459
41.6712 15.7322
41.7191 15.6238
41.7667 15.6482
41.8146 15.6115
41.8622 15.5434
41.9101 15.4477
41.9578 15.3956
42.0057 15.3708
42.0534 15.2886
42.1013 15.2696
42.149 15.2215
42.1969 15.1529
42.2446 15.0822
42.2925 15.058
42.3403 14.9848
42.3882 14.9644
42.436 14.9379
42.4839 14.8101
42.5319 14.8257
42.5797 14.7327
42.6277 14.7571
42.6755 14.6943
42.7235 14.6115
42.7713 14.6014
42.8193 14.5257
42.8671 14.4727
42.9152 14.3867
42.963 14.3328
43.0111 14.2949
43.0589 14.3255
43.107 14.1996
43.1549 14.1466
43.2029 14.1426
43.2508 14.1029
43.2989 13.9449
43.3468 13.9607
43.3949 13.9532
43.4429 13.8801
43.491 13.8334
43.5389 13.7905
43.5871 13.7235
43.635 13.7454
43.6832 13.6389
43.7312 13.5575
43.7793 13.5387
43.8273 13.5216
43.8755 13.4551
43.9237 13.3975
43.9717 13.3368
44.0199 13.2953
44.068 13.2667
44.1162 13.2139
44.1642 13.1408
44.2125 13.1529
44.2606 13.1054
44.3088 13.014
44.3569 13.0155
44.4052 12.9893
44.4533 12.9394
44.5016 12.8589
44.5497 12.8025
44.598 12.8061
44.6461 12.7353
44.6945 12.6711
44.7426 12.6256
44.791 12.5983
44.8391 12.5543
44.8875 12.4938
44.9357 12.4519
44.984 12.4187
45.0322 12.3647
45.0806 12.3319
45.1288 12.26
45.1773 12.2583
45.2257 12.2309
45.2739 12.1724
45.3224 12.1249
45.3706 12.0993
45.4191 11.9936
45.4673 12.0086
45.5158 11.9052
45.5641 11.8896
45.6126 11.827
45.6609 11.8047
45.7094 11.7484
45.7577 11.6822
45.8063 11.6034
45.8546 11.6496
45.9031 11.5873
45.9515 11.5932
46.0001 11.5628
46.0484 11.4787
46.097 11.4728
46.1454 11.4408
46.194 11.3695
46.2424 11.304
46.291 11.2903
46.3395 11.2146
46.3881 11.1814
46.4365 11.1903
46.4852 11.1515
46.5337 11.0656
46.5823 11.0416
46.631 10.956
46.6795 10.9475
46.7282 10.9252
46.7767 10.9103
46.8254 10.8172
46.8739 10.7878
46.9226 10.7995
46.9712 10.699
47.0199 10.6632
47.0685 10.6735
47.1173 10.5945
47.1658 10.5348
47.2146 10.4935
47.2632 10.4925
47.312 10.434
47.3606 10.391
47.4095 10.3261
47.4581 10.3531
47.5069 10.2721
47.5556 10.2146
47.6044 10.237
47.6531 10.1677
47.702 10.1165
47.7507 10.0785
47.7996 10.044
47.8483 10.0383
47.8972 9.96662
47.9461 9.92671
47.9948 9.90837
48.0438 9.86679
48.0925 9.83328
48.1415 9.80814
48.1902 9.77652
48.2392 9.73003
48.288 9.7233
48.337 9.67325
48.3858 9.63298
48.4348 9.59451
48.4837 9.60353
48.5327 9.51465
48.5815 9.4936
48.6306 9.4733
48.6795 9.46158
48.7285 9.35059
48.7774 9.38949
48.8265 9.34925
48.8754 9.27207
48.9245 9.26015
48.9734 9.24256
49.0226 9.16953
49.0715 9.12308
49.1206 9.12859
49.1696 9.04351
49.2188 9.05327
49.2679 9.01171
49.3169 8.98442
49.3661 8.92955
49.4151 8.90665
49.4643 8.85895
49.5134 8.80059
49.5626 8.81005
49.6117 8.77057
49.6609 8.72498
49.71 8.68482
49.7592 8.69404
49.8083 8.63381
49.8576 8.58487
49.9067 8.53572
49.956 8.56265
50.0052 8.4845
50.0545 8.48451
50.1036 8.40744
50.153 8.41396
50.2022 8.36285
50.2515 8.3489
50.3007 8.27436
50.3501 8.30375
50.3993 8.21583
50.4487 8.2138
50.498 8.20119
50.5474 8.10995
50.5966 8.1184
50.6461 8.06558
50.6955 8.05514
50.7448 7.99962
50.7943 8.00627
50.8436 7.97815
50.8931 7.91267
50.9424 7.89982
50.9919 7.88298
51.0413 7.88566
51.0908 7.794
51.1402 7.77784
51.1897 7.72448
51.2391 7.74156
51.2887 7.70595
51.3381 7.65971
51.3877 7.61942
51.4371 7.56617
51.4867 7.5185
51.5362 7.5295
51.5858 7.4781
51.6353 7.46485
51.6849 7.38532
51.7344 7.39172
51.7841 7.39697
51.8336 7.39196
51.8833 7.30293
51.9328 7.27772
51.9826 7.23787
52.0323 7.20867
52.0818 7.15672
52.1316 7.17533
52.1812 7.11532
52.231 7.11801
52.2806 7.07145
52.3304 7.06509
52.38 6.98504
52.4298 6.99015
52.4794 6.92626
52.5293 6.90057
52.5789 6.89205
52.6288 6.87417
52.6785 6.83169
52.7284 6.80364
52.7781 6.79143
52.828 6.72997
52.8777 6.68682
52.9276 6.69888
52.9774 6.68277
53.0273 6.68134
53.0771 6.63444
53.1271 6.60964
53.1769 6.59129
53.2269 6.55059
53.2767 6.53862
53.3267 6.47459
53.3765 6.44749
53.4266 6.41226
53.4766 6.37066
53.5265 6.3637
53.5765 6.30424
53.6264 6.33126
53.6765 6.30842
53.7264 6.24729
53.7765 6.23906
53.8265 6.20072
53.8766 6.13052
53.9266 6.15673
53.9767 6.09124
54.0267 6.15172
54.0769 6.05797
54.1269 6.06687
54.1771 6.00685
54.2271 6.01067
54.2773 5.94816
54.3274 5.96003
54.3776 5.90567
54.4277 5.86401
54.478 5.84327
54.528 5.77554
54.5783 5.71519
54.6285 5.72088
54.6788 5.67064
54.7289 5.59559
54.7792 5.5935
54.8296 5.54713
54.8798 5.5256
54.9301 5.47518
54.9803 5.4055
55.0307 5.3931
55.0809 5.35495
55.1314 5.34263
55.1816 5.24625
55.232 5.20496
55.2823 5.20134
55.3328 5.1458
55.383 5.05385
55.4335 5.02939
55.4838 5.07938
55.5344 4.96664
55.5847 4.91942
55.6352 4.89957
55.6856 4.84046
55.7361 4.8067