File: XRD/Ni3Fe_FD1079.xy
TT I
1.27165 7.12617
1.31627 5.57219
1.36089 6.18985
1.40551 5.96816
1.45013 5.59713
1.49476 5.63202
1.53938 5.27961
1.584 5.41118
1.62863 5.25737
1.67325 4.53953
1.71787 5.11111
1.7625 4.01935
1.80712 3.85982
1.85174 3.78475
1.89636 4.182
1.94099 4.66413
1.98562 4.42317
2.03025 3.86686
2.07487 4.40259
2.11949 4.60688
2.16411 4.48183
2.20874 4.56564
2.25338 5.8966
2.298 5.08052
2.34263 4.77083
2.38725 6.18038
2.43188 6.04497
2.4765 6.27433
2.52115 6.30966
2.56577 7.52327
2.6104 8.79785
2.65503 8.2459
2.69965 8.7244
2.7443 8.72684
2.78893 8.45796
2.83356 8.65861
2.87818 9.18443
2.92281 9.18459
2.96744 9.47944
3.01209 10.036
3.05672 10.5996
3.10135 12.0126
3.14599 12.7318
3.19062 13.635
3.23527 14.4115
3.2799 15.1707
3.32454 16.211
3.36917 17.131
3.4138 18.224
3.45844 19.0867
3.50309 20.0482
3.54773 20.2529
3.59237 21.25
3.637 27.5554
3.68164 26.4963
3.7263 24.0788
3.77094 24.3035
3.81558 25.4479
3.86022 26.5109
3.90486 27.7287
3.9495 28.7406
3.99416 29.1813
4.0388 30.4403
4.08344 31.6695
4.12809 32.2088
4.17273 33.6678
4.21738 35.0503
4.26204 51.5632
4.30669 56.6437
4.35133 40.4783
4.39598 40.7997
4.44063 42.9899
4.4853 46.1205
4.52995 46.6397
4.5746 48.7784
4.61925 50.5461
4.6639 52.8537
4.70855 55.0902
4.75322 58.2289
4.79788 60.6229
4.84253 63.7282
4.88719 67.9477
4.93184 71.8112
4.97652 76.8256
5.02118 82.7689
5.06583 89.1096
5.11049 97.7228
5.15515 118.232
5.19981 231.325
5.24449 2530.79
5.28916 13670.9
5.33382 3306.75
5.37848 203.244
5.42315 123.201
5.46783 107.753
5.5125 101.003
5.55716 97.3898
5.60183 93.0536
5.6465 90.998
5.69117 89.8646
5.73586 87.7889
5.78053 87.5217
5.8252 86.5951
5.86988 87.1732
5.91455 89.0933
5.95924 95.0747
6.00392 165.04
6.0486 894.073
6.09328 4461.17
6.13795 3697.62
6.18263 238.708
6.22733 87.3445
6.27201 75.9392
6.3167 72.8602
6.36138 68.5768
6.40606 64.8321
6.45075 63.6036
6.49545 62.0941
6.54014 59.9546
6.58483 59.1391
6.62952 58.0002
6.67421 58.7582
6.71892 64.0199
6.76361 56.9781
6.8083 54.6251
6.853 53.6884
6.89769 53.5984
6.94239 52.9837
6.98711 52.6375
7.03181 52.3312
7.07651 52.4681
7.12121 51.7431
7.16591 51.6946
7.21063 51.0748
7.25533 51.4347
7.30004 61.7708
7.34475 55.9576
7.38945 51.4814
7.43416 51.1986
7.47889 51.1347
7.5236 58.1765
7.56831 70.4433
7.61303 55.8817
7.65774 53.0112
7.70247 53.0128
7.74719 53.1531
7.79191 53.3645
7.83663 54.1824
7.88135 54.8729
7.92607 55.7752
7.97081 56.8584
8.01553 57.6661
8.06026 58.8792
8.10498 60.4668
8.14971 62.4444
8.19446 64.0399
8.23919 65.7545
8.28392 68.0466
8.32865 70.4149
8.37339 74.2444
8.41812 77.8139
8.46288 86.4645
8.50761 129.296
8.55235 380.967
8.59709 1116.13
8.64183 2277.16
8.68658 1095.12
8.73134 173.952
8.77609 94.8847
8.82083 88.7672
8.86558 85.9077
8.91033 83.7469
8.9551 82.48
8.99985 81.2307
9.04461 80.2733
9.08936 79.6156
9.13412 79.2182
9.17888 79.4554
9.22365 90.2194
9.26841 109.879
9.31318 87.5269
9.35794 79.8802
9.4027 80.1489
9.44749 80.6772
9.49226 81.0199
9.53703 82.1671
9.5818 83.4177
9.62657 84.53
9.67134 86.4646
9.71614 87.6509
9.76091 89.5605
9.80569 92.0338
9.85047 94.2487
9.89525 99.4016
9.94005 106.453
9.98484 148.196
10.0296 353.422
10.0744 781.339
10.1192 1768.5
10.164 1704.24
10.2088 442.787
10.2536 124.843
10.2984 103.293
10.3432 101.003
10.388 98.0871
10.4328 107.914
10.4776 163.027
10.5224 274.655
10.5672 515.314
10.612 574.465
10.6568 229.093
10.7017 102.812
10.7465 85.8404
10.7913 79.9312
10.8361 77.9388
10.8809 75.405
10.9257 73.4375
10.9706 72.7017
11.0154 70.6589
11.0602 69.441
11.105 68.3376
11.1499 67.3151
11.1947 67.1936
11.2395 65.8532
11.2844 64.5268
11.3292 63.6722
11.374 62.9038
11.4189 62.5453
11.4637 61.9646
11.5086 61.2354
11.5534 61.2308
11.5983 60.815
11.6431 60.743
11.688 60.0996
11.7328 60.2069
11.7777 59.9332
11.8225 59.63
11.8674 60.3198
11.9122 61.8682
11.9571 67.1492
12.002 65.9852
12.0468 64.1036
12.0917 77.1251
12.1366 99.7381
12.1814 147.38
12.2263 203.325
12.2712 175.008
12.3161 96.7825
12.3609 64.4452
12.4058 61.293
12.4507 61.114
12.4956 61.5901
12.5405 61.407
12.5853 62.158
12.6302 62.6587
12.6751 63.946
12.72 64.0162
12.7649 64.5318
12.8098 65.6387
12.8547 66.723
12.8996 68.0307
12.9445 69.3711
12.9894 71.1585
13.0343 72.8828
13.0792 76.5317
13.1242 82.3559
13.1691 108.5
13.214 149.469
13.2589 231.682
13.3038 370.616
13.3487 451.411
13.3937 276.893
13.4386 125.657
13.4835 99.0944
13.5285 120.714
13.5734 158.082
13.6183 237.413
13.6633 356.465
13.7082 360.035
13.7531 204.371
13.7981 100.098
13.843 79.7476
13.888 77.4522
13.9329 74.6166
13.9779 73.5058
14.0228 72.1035
14.0678 70.7676
14.1127 71.4224
14.1577 74.7353
14.2027 73.1615
14.2476 68.725
14.2926 67.5076
14.3376 67.2391
14.3825 67.1521
14.4275 66.3871
14.4725 66.2347
14.5175 66.6826
14.5624 66.4484
14.6074 66.8033
14.6524 67.4897
14.6974 67.3621
14.7424 68.5948
14.7874 74.3319
14.8324 89.2162
14.8774 110.892
14.9224 149.482
14.9674 209.002
15.0124 226.805
15.0574 158.375
15.1024 93.489
15.1474 71.0933
15.1924 67.9078
15.2374 66.6492
15.2824 65.6999
15.3274 65.0511
15.3725 64.5356
15.4175 64.2087
15.4625 63.653
15.5076 63.5266
15.5526 63.5124
15.5976 63.832
15.6426 63.9829
15.6877 68.7755
15.7327 80.1464
15.7778 95.6108
15.8228 123.541
15.8679 169.507
15.9129 202.971
15.958 169.144
16.003 104.506
16.0481 69.5841
16.0931 62.5867
16.1382 59.9353
16.1833 58.4909
16.2283 57.0691
16.2734 56.2674
16.3185 55.5485
16.3636 55.1531
16.4086 54.6652
16.4537 53.9001
16.4988 53.483
16.5439 53.4583
16.589 53.0932
16.6341 53.0034
16.6792 52.6574
16.7243 52.7993
16.7694 52.7231
16.8145 52.7861
16.8596 52.9808
16.9047 53.4589
16.9498 54.2057
16.9949 53.9199
17.04 53.9127
17.0851 54.8458
17.1302 57.1795
17.1754 60.4089
17.2205 65.0633
17.2656 72.3412
17.3108 81.8639
17.3559 82.6777
17.401 72.1798
17.4462 61.3221
17.4913 57.7529
17.5365 57.2955
17.5815 57.4571
17.6268 57.7748
17.6718 58.3131
17.7171 58.9868
17.7622 60.0841
17.8074 60.9214
17.8525 61.9689
17.8977 66.7219
17.9428 73.7238
17.9881 82.7011
18.0331 97.9661
18.0784 121.117
18.1237 142.318
18.1688 137.557
18.214 108.938
18.2591 88.172
18.3044 89.0534
18.3495 99.6033
18.3948 107.362
18.4399 98.3611
18.4852 79.0494
18.5303 65.7656
18.5756 61.3193
18.6207 60.1024
18.666 58.9839
18.7112 58.099
18.7565 57.3766
18.8016 57.0299
18.8469 56.5096
18.892 56.1509
18.9374 55.8536
18.9825 55.374
19.0278 55.0941
19.073 55.284
19.1183 55.4773
19.1635 56.4035
19.2088 58.2233
19.254 60.9629
19.2993 65.5915
19.3447 71.9602
19.3898 75.9132
19.4352 72.1976
19.4804 63.2981
19.5257 56.1633
19.5709 52.9852
19.6163 52.4741
19.6615 52.2827
19.7068 51.8371
19.752 51.9771
19.7974 52.032
19.8426 52.8045
19.888 53.8437
19.9332 55.4197
19.9786 57.7122
20.0238 61.1339
20.0692 66.6699
20.1144 70.7094
20.1598 69.03
20.205 64.0463
20.2504 62.0853
20.2957 63.6608
20.3411 65.6716
20.3863 64.0075
20.4318 58.4139
20.477 52.8327
20.5224 50.1243
20.5677 49.5423
20.6131 48.9822
20.6586 48.3529
20.7038 48.3253
20.7493 48.1485
20.7945 48.1432
20.84 48.0667
20.8853 47.5887
20.9307 47.396
20.976 47.4709
21.0215 47.5376
21.0668 47.8334
21.1122 48.2858
21.1575 48.8986
21.203 49.5881
21.2483 50.5534
21.2938 50.623
21.3391 49.1624
21.3846 47.9401
21.4299 47.4759
21.4754 47.2048
21.5207 47.5109
21.5662 47.6446
21.6116 47.8154
21.6571 48.9901
21.7024 50.2779
21.7479 51.9443
21.7933 54.4828
21.8388 57.9432
21.8843 62.8511
21.9297 65.3518
21.9752 64.0396
22.0206 59.7833
22.0661 56.4339
22.1115 55.8288
22.157 56.0177
22.2024 54.3587
22.248 51.1939
22.2933 49.0911
22.3389 47.9857
22.3843 47.7675
22.4299 47.5002
22.4753 47.4771
22.5208 47.4309
22.5662 47.6218
22.6118 47.5915
22.6572 47.7314
22.7028 48.4133
22.7483 49.1579
22.7939 49.8808
22.8393 51.3209
22.8849 53.2842
22.9303 55.7759
22.9759 57.69
23.0214 57.2141
23.067 54.7633
23.1126 51.0452
23.1581 48.6473
23.2037 48.0368
23.2492 47.7413
23.2948 47.9276
23.3403 48.5923
23.3859 49.4026
23.4314 50.4678
23.477 52.1482
23.5225 54.5677
23.5682 57.3203
23.6137 58.4201
23.6593 56.4618
23.7048 52.0319
23.7505 48.1563
23.796 46.0397
23.8417 45.287
23.8872 44.5948
23.9329 44.4259
23.9784 43.9751
24.0241 43.8386
24.0697 43.5003
24.1154 43.0457
24.1609 42.9455
24.2066 42.8207
24.2522 42.7133
24.2979 42.5933
24.3434 42.3539
24.3892 42.1647
24.4349 42.1538
24.4805 42.0241
24.5262 42.1519
24.5718 42.1118
24.6175 42.2787
24.6631 41.9827
24.7089 41.6514
24.7545 41.494
24.8002 41.2722
24.8458 41.328
24.8916 41.3251
24.9372 41.5806
24.983 41.6079
25.0286 42.1249
25.0744 42.6427
25.12 43.4024
25.1658 44.0027
25.2114 44.4204
25.2572 44.3657
25.3029 44.6981
25.3487 44.7272
25.3943 44.2884
25.4402 43.3537
25.4858 42.0234
25.5316 41.0091
25.5773 40.2414
25.6231 40.1401
25.669 39.7833
25.7147 39.718
25.7605 39.681
25.8062 39.742
25.8521 39.941
25.8977 39.8673
25.9436 40.0671
25.9893 40.3386
26.0352 41.0563
26.0809 41.1172
26.1268 41.3528
26.1725 41.1008
26.2184 40.2726
26.2641 39.6735
26.31 39.4147
26.3557 39.4269
26.4017 39.4464
26.4474 39.7891
26.4933 40.1677
26.5391 40.646
26.585 41.4464
26.6308 41.8364
26.6767 42.0066
26.7225 41.843
26.7684 41.3034
26.8142 40.478
26.8601 40.1829
26.9059 39.7368
26.9519 39.1728
26.9979 38.6488
27.0437 38.2787
27.0896 38.1871
27.1354 38.1914
27.1814 38.0191
27.2272 38.0541
27.2732 38.0049
27.3191 37.84
27.3651 37.8261
27.4109 37.8217
27.4569 38.0335
27.5027 37.9829
27.5488 38.1743
27.5946 37.917
27.6407 37.6867
27.6865 37.5749
27.7326 37.3676
27.7784 37.2663
27.8245 37.3201
27.8703 37.4148
27.9164 37.857
27.9623 38.1576
28.0084 38.3927
28.0543 38.892
28.1003 38.8545
28.1462 38.7229
28.1923 38.4481
28.2384 37.867
28.2843 37.4159
28.3304 36.9214
28.3764 36.3872
28.4225 36.0703
28.4684 35.6742
28.5145 35.234
28.5605 35.2559
28.6066 35.1668
28.6526 35.16
28.6987 35.0242
28.7447 34.9821
28.7908 34.8478
28.8368 34.8675
28.8829 34.8979
28.9289 34.7756
28.9751 34.6332
29.0211 34.4156
29.0673 34.0368
29.1133 34.0643
29.1595 33.8289
29.2055 33.7813
29.2517 33.8135
29.2977 33.8763
29.3439 33.7865
29.3899 33.7368
29.4361 33.7725
29.4824 33.5395
29.5284 33.3837
29.5746 32.8601
29.6207 32.5635
29.6669 32.407
29.713 32.326
29.7593 32.4124
29.8053 32.3055
29.8516 32.3011
29.8977 32.1006
29.9439 32.1013
29.99 32.1034
30.0363 31.961
30.0824 32.0209
30.1287 31.8358
30.1748 31.949
30.2211 31.9908
30.2673 31.7624
30.3136 31.9757
30.3597 31.8584
30.406 31.7287
30.4522 31.5394
30.4985 31.5796
30.5447 31.7306
30.591 31.7738
30.6372 31.8178
30.6835 31.7518
30.7297 31.8322
30.7761 31.8318
30.8224 31.624
30.8686 31.4899
30.915 31.3637
30.9612 31.1102
31.0076 30.982
31.0538 30.8201
31.1002 30.7304
31.1464 30.4613
31.1928 30.5949
31.2391 30.5827
31.2855 30.4566
31.3317 30.4209
31.3781 30.563
31.4244 30.527
31.4708 30.4419
31.5171 30.3925
31.5636 30.4344
31.6098 30.2597
31.6563 30.0148
31.7026 29.812
31.7491 29.6938
31.7953 29.8133
31.8418 29.7114
31.8881 29.8539
31.9346 29.7142
31.9809 29.6927
32.0275 29.6173
32.074 29.4961
32.1203 29.3033
32.1668 29.1977
32.2132 29.0499
32.2597 28.9004
32.306 28.8411
32.3526 28.6196
32.399 28.5085
32.4455 28.4363
32.4919 28.3242
32.5385 28.2773
32.5848 28.1713
32.6314 28.1107
32.6778 28.0234
32.7244 27.8894
32.7708 27.7484
32.8174 27.7354
32.8638 27.5236
32.9104 27.7271
32.9569 27.6834
33.0035 27.422
33.0499 27.4736
33.0966 27.4172
33.143 27.4972
33.1897 27.4058
33.2361 27.1849
33.2828 27.1956
33.3293 27.1323
33.3759 27.1134
33.4226 26.8539
33.4691 26.7851
33.5158 26.6625
33.5623 26.5159
33.609 26.3097
33.6555 26.2192
33.7022 26.2407
33.7487 26.161
33.7954 26.1342
33.842 26.0887
33.8887 25.9404
33.9353 25.9212
33.982 25.8009
34.0286 25.7018
34.0753 25.6507
34.1219 25.5307
34.1687 25.489
34.2152 25.3715
34.262 25.2919
34.3086 25.1824
34.3554 25.1566
34.402 25.0501
34.4488 24.9625
34.4954 24.9795
34.5422 24.8091
34.5889 24.6718
34.6357 24.614
34.6825 24.592
34.7292 24.5267
34.776 24.4728
34.8227 24.3
34.8695 24.2518
34.9162 24.2741
34.9631 24.1059
35.0098 24.1724
35.0566 24.0245
35.1033 24.0174
35.1502 23.9344
35.1969 23.9706
35.2438 23.9073
35.2906 23.7457
35.3375 23.7373
35.3842 23.6331
35.4311 23.7456
35.4779 23.712
35.5248 23.6274
35.5716 23.4748
35.6185 23.4487
35.6653 23.2872
35.7123 23.2926
35.759 23.1877
35.806 23.1361
35.8528 22.8972
35.8998 22.8418
35.9468 22.797
35.9936 22.7909
36.0406 22.7611
36.0874 22.7507
36.1345 22.6378
36.1813 22.5624
36.2283 22.3915
36.2752 22.3479
36.3222 22.279
36.3691 22.2511
36.4161 22.1903
36.463 22.1554
36.5101 22.0742
36.557 22.0031
36.6041 21.8761
36.651 21.916
36.6981 21.857
36.745 21.8093
36.7921 21.6932
36.839 21.5609
36.8861 21.5562
36.9331 21.4104
36.9802 21.4402
37.0272 21.2912
37.0743 21.1472
37.1213 21.109
37.1684 21.1112
37.2154 21.0528
37.2626 20.9846
37.3098 20.9699
37.3568 20.8463
37.404 20.7882
37.451 20.6873
37.4982 20.6356
37.5452 20.5255
37.5924 20.5265
37.6395 20.5122
37.6867 20.424
37.7337 20.3212
37.781 20.2562
37.8281 20.1582
37.8753 20.0294
37.9224 20.0848
37.9697 19.9952
38.0168 19.8364
38.064 19.8881
38.1111 19.8008
38.1584 19.6866
38.2056 19.7399
38.2529 19.6416
38.3 19.5144
38.3473 19.5699
38.3945 19.4075
38.4418 19.4335
38.489 19.3759
38.5363 19.2696
38.5837 19.1433
38.6309 19.1399
38.6782 19.0457
38.7254 19.0768
38.7728 19.007
38.82 18.8633
38.8674 18.8146
38.9146 18.6918
38.9621 18.7015
39.0093 18.6323
39.0567 18.6266
39.104 18.4706
39.1514 18.3787
39.1987 18.423
39.2461 18.3677
39.2934 18.3545
39.3409 18.2039
39.3882 18.1391
39.4356 18.0759
39.483 18.0666
39.5304 18.0175
39.5778 18.0193
39.6253 17.8543
39.6726 17.8516
39.7201 17.7971
39.7675 17.7841
39.815 17.7059
39.8624 17.66
39.9099 17.618
39.9575 17.4643
40.0049 17.4769
40.0525 17.3985
40.0999 17.3606
40.1474 17.3315
40.1949 17.2571
40.2425 17.1522
40.2899 17.1334
40.3375 17.0784
40.385 16.9546
40.4326 16.948
40.48 16.8844
40.5277 16.8731
40.5752 16.8118
40.6228 16.7153
40.6703 16.7221
40.718 16.6363
40.7655 16.6007
40.8132 16.5532
40.8607 16.526
40.9084 16.4623
40.9559 16.3594
41.0036 16.4022
41.0512 16.3322
41.0989 16.2964
41.1465 16.1593
41.1942 16.1506
41.242 16.0145
41.2896 15.9582
41.3373 15.9387
41.3849 15.8893
41.4327 15.8283
41.4803 15.7642
41.5281 15.7306
41.5758 15.7003
41.6236 15.5977
41.6712 15.5487
41.7191 15.5744
41.7667 15.4742
41.8146 15.4876
41.8622 15.3764
41.9101 15.2941
41.9578 15.2697
42.0057 15.1654
42.0534 15.1606
42.1013 15.1065
42.149 15.0611
42.1969 15.0222
42.2446 14.9603
42.2925 14.8924
42.3403 14.9023
42.3882 14.8347
42.436 14.7867
42.4839 14.7136
42.5319 14.7649
42.5797 14.6206
42.6277 14.5852
42.6755 14.5228
42.7235 14.4283
42.7713 14.4334
42.8193 14.3429
42.8671 14.3075
42.9152 14.2571
42.963 14.2512
43.0111 14.1674
43.0589 14.1226
43.107 14.0893
43.1549 14.0088
43.2029 13.9702
43.2508 13.9416
43.2989 13.8664
43.3468 13.7883
43.3949 13.793
43.4429 13.7878
43.491 13.6762
43.5389 13.6314
43.5871 13.5991
43.635 13.5805
43.6832 13.5061
43.7312 13.4313
43.7793 13.4288
43.8273 13.3499
43.8755 13.2835
43.9237 13.2458
43.9717 13.2488
44.0199 13.2241
44.068 13.1175
44.1162 13.1424
44.1642 13.0848
44.2125 13.0049
44.2606 12.9177
44.3088 12.9038
44.3569 12.9067
44.4052 12.8238
44.4533 12.7841
44.5016 12.6994
44.5497 12.6711
44.598 12.6461
44.6461 12.5789
44.6945 12.6286
44.7426 12.5038
44.791 12.4363
44.8391 12.4124
44.8875 12.3663
44.9357 12.3295
44.984 12.2814
45.0322 12.243
45.0806 12.2107
45.1288 12.1563
45.1773 12.0721
45.2257 12.0826
45.2739 11.9692
45.3224 11.9524
45.3706 11.933
45.4191 11.8503
45.4673 11.8262
45.5158 11.8128
45.5641 11.7705
45.6126 11.7557
45.6609 11.6853
45.7094 11.635
45.7577 11.6266
45.8063 11.5281
45.8546 11.5342
45.9031 11.4374
45.9515 11.4287
46.0001 11.3938
46.0484 11.34
46.097 11.3501
46.1454 11.305
46.194 11.2535
46.2424 11.1872
46.291 11.1591
46.3395 11.1186
46.3881 11.0378
46.4365 11.0637
46.4852 11.0037
46.5337 10.9492
46.5823 10.9464
46.631 10.8847
46.6795 10.8265
46.7282 10.8197
46.7767 10.7478
46.8254 10.6906
46.8739 10.6264
46.9226 10.6133
46.9712 10.6077
47.0199 10.5352
47.0685 10.5178
47.1173 10.4696
47.1658 10.4201
47.2146 10.3709
47.2632 10.3453
47.312 10.3386
47.3606 10.2789
47.4095 10.2222
47.4581 10.227
47.5069 10.1398
47.5556 10.1539
47.6044 10.0688
47.6531 10.0539
47.702 9.98987
47.7507 9.9761
47.7996 9.95071
47.8483 9.9187
47.8972 9.89109
47.9461 9.8509
47.9948 9.77871
48.0438 9.74502
48.0925 9.75682
48.1415 9.73695
48.1902 9.65794
48.2392 9.6553
48.288 9.59863
48.337 9.55937
48.3858 9.54521
48.4348 9.49737
48.4837 9.48425
48.5327 9.44863
48.5815 9.384
48.6306 9.38703
48.6795 9.3548
48.7285 9.30036
48.7774 9.21359
48.8265 9.23161
48.8754 9.16233
48.9245 9.14431
48.9734 9.15847
49.0226 9.05321
49.0715 9.06418
49.1206 9.01019
49.1696 8.98285
49.2188 8.93026
49.2679 8.89462
49.3169 8.88597
49.3661 8.84534
49.4151 8.82378
49.4643 8.77894
49.5134 8.72722
49.5626 8.67735
49.6117 8.69403
49.6609 8.6169
49.71 8.56129
49.7592 8.56864
49.8083 8.51412
49.8576 8.50791
49.9067 8.49131
49.956 8.42321
50.0052 8.40645
50.0545 8.37116
50.1036 8.3482
50.153 8.30009
50.2022 8.31182
50.2515 8.25467
50.3007 8.1854
50.3501 8.19677
50.3993 8.16738
50.4487 8.09891
50.498 8.09509
50.5474 8.03343
50.5966 8.01896
50.6461 8.0078
50.6955 7.98481
50.7448 7.93025
50.7943 7.90216
50.8436 7.85806
50.8931 7.85194
50.9424 7.796
50.9919 7.78896
51.0413 7.76868
51.0908 7.69906
51.1402 7.72856
51.1897 7.67927
51.2391 7.65849
51.2887 7.60203
51.3381 7.55373
51.3877 7.5392
51.4371 7.50294
51.4867 7.46409
51.5362 7.45615
51.5858 7.40641
51.6353 7.39532
51.6849 7.30675
51.7344 7.3225
51.7841 7.30177
51.8336 7.27702
51.8833 7.23068
51.9328 7.19579
51.9826 7.17616
52.0323 7.15876
52.0818 7.11479
52.1316 7.09642
52.1812 7.06757
52.231 7.02841
52.2806 6.99357
52.3304 6.96264
52.38 6.95641
52.4298 6.91757
52.4794 6.87624
52.5293 6.83802
52.5789 6.83015
52.6288 6.81195
52.6785 6.77929
52.7284 6.75013
52.7781 6.72111
52.828 6.72296
52.8777 6.67394
52.9276 6.62087
52.9774 6.59244
53.0273 6.59585
53.0771 6.54979
53.1271 6.54484
53.1769 6.49869
53.2269 6.46622
53.2767 6.42047
53.3267 6.40664
53.3765 6.40997
53.4266 6.34568
53.4766 6.28681
53.5265 6.28163
53.5765 6.28722
53.6264 6.24798
53.6765 6.20173
53.7264 6.17604
53.7765 6.18174
53.8265 6.16495
53.8766 6.10727
53.9266 6.09594
53.9767 6.08677
54.0267 6.02279
54.0769 6.01318
54.1269 5.95768
54.1771 5.91957
54.2271 5.88869
54.2773 5.91527
54.3274 5.84774
54.3776 5.8386
54.4277 5.81237
54.478 5.75395
54.528 5.72482
54.5783 5.70763
54.6285 5.60319
54.6788 5.5865
54.7289 5.5289
54.7792 5.52241
54.8296 5.50821
54.8798 5.48488
54.9301 5.4181
54.9803 5.41004
55.0307 5.37488
55.0809 5.30394
55.1314 5.31513
55.1816 5.21311
55.232 5.19299
55.2823 5.12483
55.3328 5.08563
55.383 5.07886
55.4335 4.98638
55.4838 4.95006
55.5344 4.90053
55.5847 4.90625
55.6352 4.81582
55.6856 4.78595
55.7361 4.71846