File: XRD/Ni3Fe_FD0686.xy
TT I
1.27165 7.45976
1.31627 7.32009
1.36089 6.64651
1.40551 6.85825
1.45013 5.91748
1.49476 6.15329
1.53938 5.83332
1.584 5.63333
1.62863 5.4302
1.67325 5.17242
1.71787 4.99536
1.7625 5.14034
1.80712 4.95096
1.85174 5.2389
1.89636 5.49381
1.94099 5.0797
1.98562 4.94857
2.03025 4.72227
2.07487 4.60996
2.11949 4.97311
2.16411 4.6993
2.20874 10.197
2.25338 14.3796
2.298 6.19508
2.34263 5.99806
2.38725 5.67149
2.43188 6.21103
2.4765 6.48134
2.52115 6.43309
2.56577 7.82627
2.6104 8.36491
2.65503 7.55255
2.69965 8.61954
2.7443 8.3665
2.78893 8.22412
2.83356 8.4659
2.87818 8.85152
2.92281 9.02611
2.96744 9.40263
3.01209 10.5001
3.05672 11.0563
3.10135 11.9519
3.14599 13.4451
3.19062 14.2975
3.23527 14.6227
3.2799 15.425
3.32454 16.951
3.36917 17.4599
3.4138 18.4151
3.45844 19.2273
3.50309 20.9124
3.54773 21.5836
3.59237 23.3157
3.637 62.4426
3.68164 42.3241
3.7263 25.0804
3.77094 26.0672
3.81558 26.297
3.86022 27.1876
3.90486 28.6469
3.9495 29.4551
3.99416 30.7372
4.0388 32.2171
4.08344 33.3902
4.12809 34.3633
4.17273 36.0708
4.21738 40.1788
4.26204 152.91
4.30669 132.938
4.35133 44.928
4.39598 43.8171
4.44063 50.2968
4.4853 56.5468
4.52995 53.4029
4.5746 53.9021
4.61925 52.9637
4.6639 55.3677
4.70855 58.3612
4.75322 61.4793
4.79788 66.0291
4.84253 68.1606
4.88719 73.5456
4.93184 76.552
4.97652 81.2727
5.02118 87.3879
5.06583 95.3592
5.11049 107.119
5.15515 159.961
5.19981 416.146
5.24449 3023.9
5.28916 12715.3
5.33382 2685.23
5.37848 190.712
5.42315 129.489
5.46783 116.424
5.5125 109.255
5.55716 102.521
5.60183 98.5453
5.6465 96.8682
5.69117 94.6957
5.73586 92.9282
5.78053 94.7585
5.8252 94.1273
5.86988 95.8042
5.91455 95.6414
5.95924 105.65
6.00392 244.309
6.0486 1018.42
6.09328 4581.3
6.13795 3140.44
6.18263 216.704
6.22733 91.6414
6.27201 80.9814
6.3167 89.2901
6.36138 76.0338
6.40606 69.2861
6.45075 68.1693
6.49545 65.1836
6.54014 63.6982
6.58483 62.9127
6.62952 62.334
6.67421 78.7029
6.71892 105.176
6.76361 63.8784
6.8083 58.617
6.853 58.1012
6.89769 56.4924
6.94239 56.314
6.98711 55.6923
7.03181 55.205
7.07651 55.3883
7.12121 54.8705
7.16591 55.5617
7.21063 55.0816
7.25533 63.212
7.30004 121.403
7.34475 74.2036
7.38945 55.4351
7.43416 53.8548
7.47889 53.6577
7.5236 54.1367
7.56831 55.0349
7.61303 55.875
7.65774 56.1613
7.70247 56.2776
7.74719 55.9958
7.79191 56.4561
7.83663 56.5941
7.88135 57.6026
7.92607 58.7059
7.97081 60.1266
8.01553 60.8734
8.06026 62.0853
8.10498 63.8724
8.14971 70.406
8.19446 70.7885
8.23919 69.2023
8.28392 71.7739
8.32865 74.2977
8.37339 78.7025
8.41812 84.7093
8.46288 106.311
8.50761 184.219
8.55235 410.388
8.59709 1233.87
8.64183 2246.34
8.68658 870.685
8.73134 153.561
8.77609 98.4075
8.82083 92.3351
8.86558 91.0547
8.91033 90.5001
8.9551 89.4282
8.99985 85.0186
9.04461 83.7183
9.08936 83.6092
9.13412 82.335
9.17888 82.2355
9.22365 82.6738
9.26841 82.2132
9.31318 83.9572
9.35794 84.6238
9.4027 84.5116
9.44749 84.7395
9.49226 84.5141
9.53703 85.8114
9.5818 88.3193
9.62657 93.0048
9.67134 95.4111
9.71614 93.0429
9.76091 94.561
9.80569 97.8976
9.85047 100.704
9.89525 115.514
9.94005 130.943
9.98484 196.848
10.0296 366.478
10.0744 852.177
10.1192 1795.98
10.164 1550.57
10.2088 361.791
10.2536 123.054
10.2984 110.092
10.3432 109.994
10.388 105.042
10.4328 123.735
10.4776 166.403
10.5224 293.353
10.5672 513.017
10.612 491.959
10.6568 193.231
10.7017 94.4507
10.7465 86.1842
10.7913 83.2918
10.8361 81.0867
10.8809 78.7712
10.9257 77.8498
10.9706 77.8153
11.0154 74.9126
11.0602 72.6545
11.105 71.3205
11.1499 73.2067
11.1947 76.5775
11.2395 71.3144
11.2844 68.8835
11.3292 66.9811
11.374 65.8958
11.4189 65.2212
11.4637 64.617
11.5086 64.5019
11.5534 66.4753
11.5983 64.4872
11.6431 63.2037
11.688 62.7966
11.7328 62.5377
11.7777 62.5764
11.8225 62.7042
11.8674 62.143
11.9122 62.9128
11.9571 63.0228
12.002 64.2433
12.0468 69.1587
12.0917 79.7517
12.1366 105.292
12.1814 154.895
12.2263 203.708
12.2712 157.052
12.3161 89.0988
12.3609 67.8276
12.4058 63.975
12.4507 64.1276
12.4956 64.4255
12.5405 64.5404
12.5853 65.5098
12.6302 69.411
12.6751 72.7426
12.72 68.7338
12.7649 67.5919
12.8098 68.4079
12.8547 69.741
12.8996 71.3864
12.9445 72.7046
12.9894 74.5915
13.0343 76.0135
13.0792 79.8642
13.1242 92.5536
13.1691 114.611
13.214 153.181
13.2589 248.263
13.3038 380.449
13.3487 421.268
13.3937 248.623
13.4386 120.146
13.4835 108.362
13.5285 123.147
13.5734 163.932
13.6183 256.303
13.6633 354.056
13.7082 325.502
13.7531 171.472
13.7981 94.0416
13.843 81.5277
13.888 79.5376
13.9329 76.9621
13.9779 75.7961
14.0228 74.2578
14.0678 72.8538
14.1127 72.5466
14.1577 71.9207
14.2027 71.3025
14.2476 70.3138
14.2926 70.0399
14.3376 70.5409
14.3825 69.7858
14.4275 68.8676
14.4725 68.6188
14.5175 68.78
14.5624 68.9845
14.6074 70.1714
14.6524 70.5457
14.6974 70.5728
14.7424 73.3521
14.7874 80.3522
14.8324 90.4865
14.8774 113.722
14.9224 159.253
14.9674 213.257
15.0124 216.479
15.0574 140.481
15.1024 86.9258
15.1474 71.8121
15.1924 69.8405
15.2374 69.9205
15.2824 69.1469
15.3274 67.4441
15.3725 66.7442
15.4175 66.231
15.4625 65.6277
15.5076 65.8338
15.5526 66.0284
15.5976 65.8681
15.6426 67.9834
15.6877 73.6413
15.7327 81.2058
15.7778 97.0117
15.8228 130.228
15.8679 175.289
15.9129 195.407
15.958 149.549
16.003 91.727
16.0481 66.5627
16.0931 63.3902
16.1382 61.502
16.1833 60.2696
16.2283 58.7418
16.2734 57.9782
16.3185 58.0656
16.3636 58.0609
16.4086 56.8619
16.4537 55.8966
16.4988 55.406
16.5439 55.2876
16.589 55.0239
16.6341 54.7693
16.6792 54.3631
16.7243 54.7545
16.7694 54.7563
16.8145 54.5288
16.8596 54.9371
16.9047 55.8824
16.9498 56.1094
16.9949 55.1981
17.04 56.0015
17.0851 57.2987
17.1302 58.6613
17.1754 61.8986
17.2205 67.1583
17.2656 75.0372
17.3108 83.3002
17.3559 81.3306
17.401 69.9397
17.4462 61.3372
17.4913 59.0135
17.5365 58.8859
17.5815 58.9707
17.6268 59.6495
17.6718 60.1728
17.7171 60.7143
17.7622 61.1848
17.8074 62.4311
17.8525 65.3055
17.8977 68.9321
17.9428 74.4262
17.9881 84.0202
18.0331 102.264
18.0784 124.835
18.1237 142.523
18.1688 130.973
18.214 101.102
18.2591 86.0749
18.3044 91.4648
18.3495 101.037
18.3948 105.668
18.4399 94.5074
18.4852 75.2194
18.5303 65.0078
18.5756 61.7647
18.6207 61.0002
18.666 60.3263
18.7112 59.5227
18.7565 58.7442
18.8016 58.574
18.8469 57.8873
18.892 57.6212
18.9374 57.1992
18.9825 56.7754
19.0278 56.8223
19.073 56.9145
19.1183 57.3306
19.1635 58.0083
19.2088 59.3786
19.254 62.474
19.2993 67.4786
19.3447 73.3513
19.3898 76.0819
19.4352 71.2059
19.4804 62.259
19.5257 56.2496
19.5709 54.1953
19.6163 53.799
19.6615 53.4889
19.7068 53.1983
19.752 53.3836
19.7974 53.8027
19.8426 54.5359
19.888 54.8344
19.9332 56.3105
19.9786 59.1487
20.0238 62.9693
20.0692 67.8369
20.1144 69.9991
20.1598 67.7426
20.205 62.9755
20.2504 62.1251
20.2957 64.063
20.3411 65.4754
20.3863 63.3181
20.4318 57.4351
20.477 52.6676
20.5224 51.1217
20.5677 50.5344
20.6131 50.0907
20.6586 49.4927
20.7038 49.399
20.7493 48.8849
20.7945 48.9209
20.84 48.7327
20.8853 48.694
20.9307 48.4802
20.976 48.6001
21.0215 48.5444
21.0668 48.9317
21.1122 49.4769
21.1575 50.1108
21.203 50.8587
21.2483 51.3437
21.2938 51.3431
21.3391 49.841
21.3846 48.8144
21.4299 48.4592
21.4754 48.3671
21.5207 48.6877
21.5662 48.9691
21.6116 49.4803
21.6571 50.0412
21.7024 50.9427
21.7479 52.7476
21.7933 55.7013
21.8388 59.3946
21.8843 63.0526
21.9297 64.7285
21.9752 62.8447
22.0206 58.9038
22.0661 56.3721
22.1115 56.0615
22.157 55.7434
22.2024 53.8223
22.248 51.1742
22.2933 49.623
22.3389 48.8707
22.3843 48.8028
22.4299 48.5959
22.4753 48.6468
22.5208 48.5065
22.5662 48.4625
22.6118 48.6676
22.6572 48.977
22.7028 49.3126
22.7483 49.7054
22.7939 50.4605
22.8393 52.171
22.8849 54.3266
22.9303 56.4153
22.9759 57.9061
23.0214 57.23
23.067 54.1527
23.1126 50.732
23.1581 49.0735
23.2037 48.6714
23.2492 48.8674
23.2948 48.9067
23.3403 49.08
23.3859 49.8698
23.4314 50.9891
23.477 53.0162
23.5225 55.1285
23.5682 57.3675
23.6137 57.8992
23.6593 54.9836
23.7048 51.0415
23.7505 47.8912
23.796 46.3244
23.8417 45.9763
23.8872 45.4907
23.9329 45.1828
23.9784 44.7397
24.0241 44.5173
24.0697 44.3479
24.1154 44.0046
24.1609 43.9118
24.2066 43.804
24.2522 43.464
24.2979 43.3295
24.3434 43.2687
24.3892 43.1303
24.4349 43.0504
24.4805 42.9345
24.5262 43.2128
24.5718 42.9923
24.6175 42.8936
24.6631 42.7055
24.7089 42.3472
24.7545 42.4261
24.8002 42.2167
24.8458 42.0889
24.8916 41.9741
24.9372 42.3615
24.983 42.7303
25.0286 42.8961
25.0744 43.394
25.12 43.8221
25.1658 44.3157
25.2114 44.7228
25.2572 44.616
25.3029 44.848
25.3487 44.8493
25.3943 44.32
25.4402 43.1522
25.4858 42.1063
25.5316 41.4375
25.5773 40.9215
25.6231 40.8531
25.669 40.4386
25.7147 40.5375
25.7605 40.5125
25.8062 40.4136
25.8521 40.5544
25.8977 40.411
25.9436 40.7594
25.9893 40.8254
26.0352 41.5247
26.0809 41.4953
26.1268 41.6795
26.1725 41.1448
26.2184 40.7151
26.2641 40.2077
26.31 40.0944
26.3557 39.9871
26.4017 40.1113
26.4474 40.3551
26.4933 40.7433
26.5391 41.2376
26.585 41.7158
26.6308 42.1827
26.6767 42.1601
26.7225 42.0209
26.7684 41.2344
26.8142 40.757
26.8601 40.4302
26.9059 39.9906
26.9519 39.4124
26.9979 39.0985
27.0437 38.8138
27.0896 38.6779
27.1354 38.8556
27.1814 38.5252
27.2272 38.5065
27.2732 38.6102
27.3191 38.3337
27.3651 38.3845
27.4109 38.4087
27.4569 38.5767
27.5027 38.5389
27.5488 38.5291
27.5946 38.3347
27.6407 38.0874
27.6865 38.0229
27.7326 37.7807
27.7784 37.8514
27.8245 37.802
27.8703 37.9762
27.9164 38.2177
27.9623 38.4408
28.0084 38.8154
28.0543 39.1492
28.1003 39.0554
28.1462 38.826
28.1923 38.3149
28.2384 37.822
28.2843 37.6081
28.3304 37.0856
28.3764 36.6094
28.4225 36.3212
28.4684 36.1188
28.5145 35.8004
28.5605 35.9018
28.6066 35.62
28.6526 35.6039
28.6987 35.6261
28.7447 35.4631
28.7908 35.3584
28.8368 35.3389
28.8829 35.4144
28.9289 35.3031
28.9751 35.1381
29.0211 34.9341
29.0673 34.5871
29.1133 34.5433
29.1595 34.3465
29.2055 34.2844
29.2517 34.2347
29.2977 34.2863
29.3439 34.1915
29.3899 34.2539
29.4361 34.0909
29.4824 33.9798
29.5284 33.5634
29.5746 33.3564
29.6207 33.0485
29.6669 33.0211
29.713 32.898
29.7593 32.9369
29.8053 32.8663
29.8516 32.7081
29.8977 32.7108
29.9439 32.5231
29.99 32.5919
30.0363 32.3714
30.0824 32.4956
30.1287 32.4851
30.1748 32.3296
30.2211 32.3604
30.2673 32.1786
30.3136 32.3375
30.3597 32.1527
30.406 32.1717
30.4522 32.1177
30.4985 32.0319
30.5447 32.1439
30.591 32.1564
30.6372 32.1503
30.6835 32.0595
30.7297 32.1792
30.7761 32.1753
30.8224 31.9637
30.8686 31.8184
30.915 31.5165
30.9612 31.4018
31.0076 31.2832
31.0538 31.2336
31.1002 31.0908
31.1464 30.9189
31.1928 30.8571
31.2391 30.9105
31.2855 30.7812
31.3317 30.7845
31.3781 30.9433
31.4244 30.921
31.4708 30.7996
31.5171 30.788
31.5636 30.7363
31.6098 30.4658
31.6563 30.257
31.7026 30.3002
31.7491 30.1053
31.7953 30.2438
31.8418 30.1833
31.8881 30.1312
31.9346 30.0328
31.9809 29.9782
32.0275 29.8195
32.074 29.8194
32.1203 29.6255
32.1668 29.4895
32.2132 29.3589
32.2597 29.2372
32.306 29.1303
32.3526 28.9553
32.399 28.9265
32.4455 28.702
32.4919 28.666
32.5385 28.6073
32.5848 28.5089
32.6314 28.5687
32.6778 28.3335
32.7244 28.1767
32.7708 28.0515
32.8174 28.1467
32.8638 27.8895
32.9104 28.0929
32.9569 27.9525
33.0035 27.9069
33.0499 27.8553
33.0966 27.8179
33.143 27.7614
33.1897 27.768
33.2361 27.6285
33.2828 27.6202
33.3293 27.3678
33.3759 27.3799
33.4226 27.1956
33.4691 27.0845
33.5158 27.0765
33.5623 26.9117
33.609 26.6762
33.6555 26.5952
33.7022 26.6211
33.7487 26.4139
33.7954 26.4546
33.842 26.3647
33.8887 26.3303
33.9353 26.2316
33.982 26.1366
34.0286 26.0195
34.0753 25.9707
34.1219 25.8237
34.1687 25.7745
34.2152 25.7466
34.262 25.6195
34.3086 25.4863
34.3554 25.49
34.402 25.3836
34.4488 25.24
34.4954 25.1811
34.5422 25.1444
34.5889 25.0605
34.6357 24.9083
34.6825 24.7849
34.7292 24.8098
34.776 24.7782
34.8227 24.6299
34.8695 24.6846
34.9162 24.4963
34.9631 24.4738
35.0098 24.4528
35.0566 24.322
35.1033 24.3109
35.1502 24.1936
35.1969 24.197
35.2438 24.1175
35.2906 24.1108
35.3375 24.02
35.3842 23.9819
35.4311 23.9154
35.4779 23.9301
35.5248 23.8787
35.5716 23.748
35.6185 23.6498
35.6653 23.5582
35.7123 23.5222
35.759 23.4554
35.806 23.2788
35.8528 23.2428
35.8998 23.1308
35.9468 23.1384
35.9936 23.0806
36.0406 22.9947
36.0874 22.9842
36.1345 22.8377
36.1813 22.7233
36.2283 22.75
36.2752 22.6147
36.3222 22.5938
36.3691 22.4685
36.4161 22.4162
36.463 22.411
36.5101 22.4186
36.557 22.2708
36.6041 22.1072
36.651 22.1728
36.6981 22.0584
36.745 21.9991
36.7921 21.9433
36.839 21.8755
36.8861 21.747
36.9331 21.7017
36.9802 21.6646
37.0272 21.6068
37.0743 21.4871
37.1213 21.3498
37.1684 21.3576
37.2154 21.2991
37.2626 21.2187
37.3098 21.1423
37.3568 21.0517
37.404 21.0647
37.451 20.9391
37.4982 20.9514
37.5452 20.8227
37.5924 20.7252
37.6395 20.8519
37.6867 20.7141
37.7337 20.5709
37.781 20.5684
37.8281 20.4134
37.8753 20.3645
37.9224 20.2812
37.9697 20.2962
38.0168 20.2066
38.064 20.0805
38.1111 20.1139
38.1584 20.0056
38.2056 19.9665
38.2529 19.9476
38.3 19.8342
38.3473 19.7366
38.3945 19.7114
38.4418 19.5723
38.489 19.5376
38.5363 19.5512
38.5837 19.4281
38.6309 19.3745
38.6782 19.3716
38.7254 19.2718
38.7728 19.2123
38.82 19.1001
38.8674 19.0626
38.9146 19.0486
38.9621 18.9844
39.0093 18.9687
39.0567 18.7984
39.104 18.7189
39.1514 18.6143
39.1987 18.6268
39.2461 18.6588
39.2934 18.5664
39.3409 18.4353
39.3882 18.3713
39.4356 18.32
39.483 18.2837
39.5304 18.2782
39.5778 18.1948
39.6253 18.1122
39.6726 18.045
39.7201 18.0413
39.7675 17.9498
39.815 17.8421
39.8624 17.8194
39.9099 17.8118
39.9575 17.6844
40.0049 17.644
40.0525 17.5992
40.0999 17.574
40.1474 17.4666
40.1949 17.4469
40.2425 17.3822
40.2899 17.3568
40.3375 17.3122
40.385 17.2084
40.4326 17.2042
40.48 17.1043
40.5277 17.134
40.5752 16.952
40.6228 16.9641
40.6703 16.8583
40.718 16.8704
40.7655 16.7878
40.8132 16.705
40.8607 16.6987
40.9084 16.6506
40.9559 16.5643
41.0036 16.5681
41.0512 16.5286
41.0989 16.4585
41.1465 16.3503
41.1942 16.3243
41.242 16.2154
41.2896 16.229
41.3373 16.1257
41.3849 16.0906
41.4327 16.0533
41.4803 15.9277
41.5281 15.8925
41.5758 15.8489
41.6236 15.809
41.6712 15.7331
41.7191 15.7257
41.7667 15.6633
41.8146 15.6529
41.8622 15.5176
41.9101 15.4792
41.9578 15.4824
42.0057 15.4302
42.0534 15.3548
42.1013 15.3006
42.149 15.2213
42.1969 15.1877
42.2446 15.1236
42.2925 15.1262
42.3403 15.0238
42.3882 15.0472
42.436 14.9644
42.4839 14.8956
42.5319 14.902
42.5797 14.7791
42.6277 14.7263
42.6755 14.6505
42.7235 14.6749
42.7713 14.5873
42.8193 14.5711
42.8671 14.497
42.9152 14.4559
42.963 14.4126
43.0111 14.2868
43.0589 14.2712
43.107 14.2364
43.1549 14.1841
43.2029 14.1626
43.2508 14.0963
43.2989 14.0704
43.3468 14.0
43.3949 13.9338
43.4429 13.9278
43.491 13.8716
43.5389 13.8004
43.5871 13.7869
43.635 13.7224
43.6832 13.6795
43.7312 13.5872
43.7793 13.5251
43.8273 13.5173
43.8755 13.4617
43.9237 13.4183
43.9717 13.4056
44.0199 13.3466
44.068 13.294
44.1162 13.2372
44.1642 13.2476
44.2125 13.2071
44.2606 13.1065
44.3088 13.0877
44.3569 13.0135
44.4052 13.0124
44.4533 12.9615
44.5016 12.8333
44.5497 12.8275
44.598 12.7981
44.6461 12.7437
44.6945 12.686
44.7426 12.6835
44.791 12.5767
44.8391 12.605
44.8875 12.5106
44.9357 12.5103
44.984 12.4171
45.0322 12.3683
45.0806 12.3587
45.1288 12.3
45.1773 12.2453
45.2257 12.1976
45.2739 12.1816
45.3224 12.1683
45.3706 12.1261
45.4191 12.02
45.4673 12.0306
45.5158 11.9845
45.5641 11.9104
45.6126 11.8697
45.6609 11.8362
45.7094 11.7895
45.7577 11.7723
45.8063 11.6936
45.8546 11.6908
45.9031 11.6583
45.9515 11.5796
46.0001 11.5211
46.0484 11.4779
46.097 11.4952
46.1454 11.404
46.194 11.3938
46.2424 11.3429
46.291 11.2701
46.3395 11.2895
46.3881 11.1902
46.4365 11.1949
46.4852 11.1772
46.5337 11.0975
46.5823 11.0919
46.631 11.0119
46.6795 11.0002
46.7282 10.9665
46.7767 10.9001
46.8254 10.8823
46.8739 10.7595
46.9226 10.7641
46.9712 10.7316
47.0199 10.7218
47.0685 10.6487
47.1173 10.6295
47.1658 10.5928
47.2146 10.5327
47.2632 10.4958
47.312 10.4832
47.3606 10.4081
47.4095 10.3973
47.4581 10.3575
47.5069 10.3092
47.5556 10.246
47.6044 10.2326
47.6531 10.1859
47.702 10.1317
47.7507 10.1516
47.7996 10.0878
47.8483 10.0684
47.8972 10.0101
47.9461 9.98367
47.9948 9.93427
48.0438 9.89578
48.0925 9.86575
48.1415 9.83105
48.1902 9.82472
48.2392 9.76714
48.288 9.73926
48.337 9.67268
48.3858 9.66166
48.4348 9.63951
48.4837 9.62835
48.5327 9.55188
48.5815 9.47594
48.6306 9.48916
48.6795 9.43185
48.7285 9.39886
48.7774 9.38158
48.8265 9.34443
48.8754 9.28889
48.9245 9.26843
48.9734 9.22985
49.0226 9.23128
49.0715 9.17112
49.1206 9.13442
49.1696 9.10231
49.2188 9.06523
49.2679 9.008
49.3169 8.99103
49.3661 8.95563
49.4151 8.92418
49.4643 8.9133
49.5134 8.84684
49.5626 8.77371
49.6117 8.81942
49.6609 8.76253
49.71 8.7019
49.7592 8.66522
49.8083 8.66295
49.8576 8.60997
49.9067 8.5571
49.956 8.53687
50.0052 8.52619
50.0545 8.52463
50.1036 8.44576
50.153 8.40179
50.2022 8.42816
50.2515 8.35689
50.3007 8.29209
50.3501 8.30999
50.3993 8.26039
50.4487 8.23485
50.498 8.18963
50.5474 8.16076
50.5966 8.11473
50.6461 8.0941
50.6955 8.07643
50.7448 8.02232
50.7943 8.00513
50.8436 7.99823
50.8931 7.95175
50.9424 7.91219
50.9919 7.88121
51.0413 7.87432
51.0908 7.81836
51.1402 7.78308
51.1897 7.7504
51.2391 7.73174
51.2887 7.65543
51.3381 7.67157
51.3877 7.63737
51.4371 7.61346
51.4867 7.53802
51.5362 7.53995
51.5858 7.49048
51.6353 7.45228
51.6849 7.4279
51.7344 7.42725
51.7841 7.42855
51.8336 7.31934
51.8833 7.33434
51.9328 7.27284
51.9826 7.23935
52.0323 7.23475
52.0818 7.19553
52.1316 7.17695
52.1812 7.12723
52.231 7.10907
52.2806 7.08378
52.3304 7.03844
52.38 7.01207
52.4298 7.01136
52.4794 6.93858
52.5293 6.9272
52.5789 6.9117
52.6288 6.85654
52.6785 6.86199
52.7284 6.82845
52.7781 6.81812
52.828 6.77272
52.8777 6.74521
52.9276 6.69955
52.9774 6.69942
53.0273 6.66178
53.0771 6.60717
53.1271 6.63121
53.1769 6.54953
53.2269 6.58137
53.2767 6.56559
53.3267 6.48719
53.3765 6.45349
53.4266 6.43758
53.4766 6.41819
53.5265 6.38578
53.5765 6.34682
53.6264 6.32754
53.6765 6.30561
53.7264 6.28429
53.7765 6.26624
53.8265 6.1907
53.8766 6.19855
53.9266 6.16153
53.9767 6.10586
54.0267 6.10603
54.0769 6.07956
54.1269 6.03949
54.1771 6.03203
54.2271 6.01073
54.2773 5.95254
54.3274 5.94325
54.3776 5.89178
54.4277 5.86969
54.478 5.8425
54.528 5.79937
54.5783 5.70515
54.6285 5.72192
54.6788 5.69502
54.7289 5.63959
54.7792 5.62029
54.8296 5.52927
54.8798 5.4739
54.9301 5.46315
54.9803 5.4407
55.0307 5.45449
55.0809 5.37217
55.1314 5.30553
55.1816 5.31404
55.232 5.27035
55.2823 5.17326
55.3328 5.14462
55.383 5.10012
55.4335 5.03232
55.4838 5.00333
55.5344 4.96691
55.5847 4.95564
55.6352 4.8758
55.6856 4.82359
55.7361 4.85349