File: XRD/Ni3Fe_FD1053.xy
TT I
1.27165 6.68358
1.31627 6.79738
1.36089 6.56356
1.40551 6.28935
1.45013 5.57038
1.49476 5.21467
1.53938 5.85318
1.584 4.92581
1.62863 4.70372
1.67325 4.43679
1.71787 4.54041
1.7625 4.66839
1.80712 4.7407
1.85174 3.56699
1.89636 4.20744
1.94099 4.96685
1.98562 4.03422
2.03025 4.17028
2.07487 3.78074
2.11949 4.65978
2.16411 4.02681
2.20874 5.40281
2.25338 6.4687
2.298 5.12777
2.34263 4.89212
2.38725 5.8626
2.43188 6.80857
2.4765 6.88681
2.52115 6.65466
2.56577 7.3071
2.6104 7.88531
2.65503 8.35285
2.69965 8.51776
2.7443 8.78321
2.78893 8.4482
2.83356 8.68955
2.87818 8.51692
2.92281 8.86831
2.96744 9.22355
3.01209 10.1529
3.05672 11.4103
3.10135 11.9983
3.14599 12.6236
3.19062 13.8327
3.23527 15.0088
3.2799 15.4643
3.32454 15.9982
3.36917 17.2637
3.4138 18.3431
3.45844 18.8617
3.50309 19.9478
3.54773 20.5838
3.59237 21.4772
3.637 27.5851
3.68164 26.8035
3.7263 24.1995
3.77094 24.6366
3.81558 25.4887
3.86022 26.4361
3.90486 27.4637
3.9495 28.2233
3.99416 29.0222
4.0388 30.2521
4.08344 31.639
4.12809 32.7411
4.17273 33.6767
4.21738 35.5808
4.26204 52.4287
4.30669 56.2325
4.35133 40.886
4.39598 40.9712
4.44063 43.3999
4.4853 46.6024
4.52995 46.5895
4.5746 48.7264
4.61925 50.5689
4.6639 52.8596
4.70855 55.1551
4.75322 58.1488
4.79788 60.6309
4.84253 64.1449
4.88719 67.8675
4.93184 71.7203
4.97652 76.8013
5.02118 83.1724
5.06583 89.3959
5.11049 97.246
5.15515 118.243
5.19981 232.848
5.24449 2506.39
5.28916 13504.8
5.33382 3274.99
5.37848 211.561
5.42315 123.966
5.46783 108.093
5.5125 100.991
5.55716 97.3515
5.60183 93.2277
5.6465 90.8443
5.69117 89.3793
5.73586 87.9837
5.78053 86.8561
5.8252 86.5206
5.86988 86.9861
5.91455 88.5615
5.95924 95.6628
6.00392 163.615
6.0486 895.759
6.09328 4566.45
6.13795 3617.45
6.18263 238.898
6.22733 87.2718
6.27201 75.7107
6.3167 72.9224
6.36138 68.604
6.40606 64.5968
6.45075 63.6434
6.49545 61.7618
6.54014 59.8172
6.58483 58.8231
6.62952 57.7124
6.67421 58.5266
6.71892 64.4433
6.76361 56.7548
6.8083 54.4265
6.853 53.9592
6.89769 53.3566
6.94239 53.1918
6.98711 52.288
7.03181 52.2091
7.07651 52.3117
7.12121 51.7413
7.16591 51.4779
7.21063 50.9928
7.25533 51.6968
7.30004 61.7938
7.34475 56.1506
7.38945 51.7916
7.43416 51.0197
7.47889 51.258
7.5236 59.0648
7.56831 73.6591
7.61303 56.9636
7.65774 52.5172
7.70247 53.1511
7.74719 53.0202
7.79191 53.8159
7.83663 53.837
7.88135 54.9864
7.92607 55.6925
7.97081 56.7871
8.01553 57.698
8.06026 58.8368
8.10498 60.0413
8.14971 62.4811
8.19446 63.8903
8.23919 65.7905
8.28392 68.2803
8.32865 70.2715
8.37339 74.1527
8.41812 77.9665
8.46288 86.6665
8.50761 128.299
8.55235 373.745
8.59709 1088.52
8.64183 2270.5
8.68658 1096.39
8.73134 176.174
8.77609 94.8382
8.82083 88.3803
8.86558 85.8216
8.91033 83.6168
8.9551 82.0166
8.99985 81.2751
9.04461 80.3269
9.08936 79.5246
9.13412 79.237
9.17888 79.2092
9.22365 91.5735
9.26841 114.487
9.31318 89.3152
9.35794 79.9594
9.4027 80.076
9.44749 80.3894
9.49226 80.9483
9.53703 81.5202
9.5818 83.2915
9.62657 84.1712
9.67134 86.4307
9.71614 87.8818
9.76091 89.6352
9.80569 91.9243
9.85047 94.081
9.89525 98.6012
9.94005 106.319
9.98484 147.941
10.0296 350.6
10.0744 776.879
10.1192 1755.82
10.164 1679.55
10.2088 440.189
10.2536 124.913
10.2984 103.299
10.3432 100.702
10.388 97.5142
10.4328 107.981
10.4776 161.506
10.5224 272.034
10.5672 505.32
10.612 566.121
10.6568 230.535
10.7017 104.021
10.7465 86.5994
10.7913 79.8415
10.8361 77.8287
10.8809 75.2835
10.9257 73.4778
10.9706 72.5722
11.0154 70.5808
11.0602 69.3402
11.105 68.3126
11.1499 67.2885
11.1947 67.326
11.2395 65.5338
11.2844 64.9512
11.3292 63.7093
11.374 63.2394
11.4189 62.7035
11.4637 62.0345
11.5086 60.9385
11.5534 61.1672
11.5983 60.8812
11.6431 60.5819
11.688 60.0376
11.7328 60.103
11.7777 59.7086
11.8225 59.5736
11.8674 60.0264
11.9122 62.1238
11.9571 68.4249
12.002 66.585
12.0468 64.3459
12.0917 77.148
12.1366 98.799
12.1814 146.659
12.2263 203.419
12.2712 174.728
12.3161 98.8132
12.3609 64.8623
12.4058 61.5627
12.4507 61.0512
12.4956 61.6305
12.5405 61.4797
12.5853 61.9719
12.6302 62.6118
12.6751 64.2421
12.72 64.0083
12.7649 64.8259
12.8098 65.3345
12.8547 66.5974
12.8996 68.1125
12.9445 68.9624
12.9894 70.9882
13.0343 72.7963
13.0792 76.4409
13.1242 82.5177
13.1691 108.136
13.214 148.61
13.2589 228.877
13.3038 366.14
13.3487 445.654
13.3937 279.951
13.4386 127.631
13.4835 99.1884
13.5285 120.559
13.5734 156.828
13.6183 237.201
13.6633 356.851
13.7082 359.321
13.7531 205.878
13.7981 100.588
13.843 79.716
13.888 76.8994
13.9329 74.811
13.9779 73.5994
14.0228 72.0363
14.0678 70.743
14.1127 72.0221
14.1577 75.6432
14.2027 73.5334
14.2476 68.7035
14.2926 67.5706
14.3376 67.3536
14.3825 67.0299
14.4275 66.3499
14.4725 66.3768
14.5175 66.3508
14.5624 66.2869
14.6074 66.6578
14.6524 67.1658
14.6974 67.3898
14.7424 68.5968
14.7874 74.2394
14.8324 88.7668
14.8774 110.125
14.9224 148.71
14.9674 208.187
15.0124 227.902
15.0574 160.742
15.1024 93.9416
15.1474 71.0853
15.1924 67.7879
15.2374 66.6952
15.2824 65.896
15.3274 65.1162
15.3725 64.3267
15.4175 64.0082
15.4625 63.5918
15.5076 63.3507
15.5526 63.5342
15.5976 63.5709
15.6426 63.963
15.6877 68.4757
15.7327 79.6293
15.7778 94.5162
15.8228 122.133
15.8679 169.333
15.9129 202.916
15.958 168.911
16.003 103.521
16.0481 69.2488
16.0931 62.9992
16.1382 59.9333
16.1833 58.2482
16.2283 56.8951
16.2734 56.4143
16.3185 55.6913
16.3636 55.3986
16.4086 54.6019
16.4537 54.146
16.4988 53.506
16.5439 53.3849
16.589 53.2494
16.6341 52.9059
16.6792 52.6914
16.7243 52.723
16.7694 52.7449
16.8145 52.7389
16.8596 52.9831
16.9047 53.6337
16.9498 54.1015
16.9949 54.0359
17.04 53.8488
17.0851 54.7468
17.1302 57.0771
17.1754 60.2335
17.2205 64.9517
17.2656 72.4119
17.3108 81.699
17.3559 82.6816
17.401 71.9275
17.4462 61.4255
17.4913 57.5406
17.5365 57.2228
17.5815 57.4503
17.6268 57.8018
17.6718 58.3253
17.7171 58.8655
17.7622 60.0424
17.8074 60.9988
17.8525 62.0091
17.8977 66.7909
17.9428 73.1598
17.9881 82.2927
18.0331 97.7054
18.0784 121.546
18.1237 141.849
18.1688 137.325
18.214 108.834
18.2591 88.2876
18.3044 89.0765
18.3495 99.3898
18.3948 107.76
18.4399 98.6692
18.4852 79.0755
18.5303 65.796
18.5756 61.3182
18.6207 60.3299
18.666 58.8396
18.7112 58.0367
18.7565 57.5313
18.8016 57.1864
18.8469 56.588
18.892 56.1853
18.9374 55.7311
18.9825 55.2391
19.0278 55.2026
19.073 55.0524
19.1183 55.3972
19.1635 56.3779
19.2088 58.2391
19.254 60.6257
19.2993 65.6991
19.3447 72.3056
19.3898 76.0852
19.4352 72.4176
19.4804 63.2798
19.5257 56.4106
19.5709 52.8678
19.6163 52.5048
19.6615 52.3582
19.7068 51.9485
19.752 51.7662
19.7974 51.8544
19.8426 52.7349
19.888 53.8036
19.9332 55.1935
19.9786 57.4458
20.0238 61.1244
20.0692 66.5559
20.1144 70.5646
20.1598 69.3457
20.205 64.1558
20.2504 61.8386
20.2957 63.6866
20.3411 65.4514
20.3863 64.135
20.4318 58.3561
20.477 52.7924
20.5224 50.1298
20.5677 49.2219
20.6131 48.9921
20.6586 48.4459
20.7038 48.1785
20.7493 48.0121
20.7945 48.092
20.84 48.0052
20.8853 47.5738
20.9307 47.2652
20.976 47.3669
21.0215 47.4227
21.0668 47.874
21.1122 48.0745
21.1575 48.6897
21.203 49.7292
21.2483 50.5016
21.2938 50.7191
21.3391 49.3858
21.3846 48.0039
21.4299 47.2148
21.4754 47.2708
21.5207 47.45
21.5662 47.5548
21.6116 47.8717
21.6571 48.7817
21.7024 49.9641
21.7479 51.8463
21.7933 54.1793
21.8388 58.2025
21.8843 62.7203
21.9297 65.4566
21.9752 64.0289
22.0206 59.6804
22.0661 56.3555
22.1115 55.9495
22.157 56.0444
22.2024 54.3363
22.248 51.0443
22.2933 48.9361
22.3389 47.8569
22.3843 47.7618
22.4299 47.5369
22.4753 47.6676
22.5208 47.3085
22.5662 47.3585
22.6118 47.5626
22.6572 47.7742
22.7028 48.3565
22.7483 48.8958
22.7939 49.8161
22.8393 51.1921
22.8849 53.3721
22.9303 55.9267
22.9759 57.8688
23.0214 57.6449
23.067 54.811
23.1126 51.0186
23.1581 48.7203
23.2037 47.78
23.2492 47.745
23.2948 47.873
23.3403 48.4947
23.3859 49.2944
23.4314 50.398
23.477 52.1242
23.5225 54.6235
23.5682 57.2467
23.6137 58.4857
23.6593 56.466
23.7048 52.0529
23.7505 48.0638
23.796 46.1221
23.8417 45.2374
23.8872 44.5708
23.9329 44.321
23.9784 44.0104
24.0241 43.7318
24.0697 43.5646
24.1154 43.1012
24.1609 42.924
24.2066 42.8263
24.2522 42.7253
24.2979 42.358
24.3434 42.345
24.3892 42.2791
24.4349 42.2867
24.4805 41.9097
24.5262 42.2077
24.5718 42.0578
24.6175 41.9222
24.6631 42.0548
24.7089 41.6499
24.7545 41.5295
24.8002 41.3855
24.8458 41.2522
24.8916 41.0788
24.9372 41.3477
24.983 41.5808
25.0286 41.9574
25.0744 42.5643
25.12 43.1715
25.1658 44.0482
25.2114 44.2818
25.2572 44.3984
25.3029 44.6102
25.3487 44.7962
25.3943 44.3549
25.4402 43.0749
25.4858 41.9022
25.5316 40.8989
25.5773 40.1923
25.6231 40.1063
25.669 39.7541
25.7147 39.8223
25.7605 39.6636
25.8062 39.7527
25.8521 39.9754
25.8977 39.7222
25.9436 40.146
25.9893 40.2464
26.0352 40.8646
26.0809 41.0021
26.1268 41.2842
26.1725 40.9531
26.2184 40.398
26.2641 39.6023
26.31 39.4315
26.3557 39.4859
26.4017 39.3725
26.4474 39.7394
26.4933 40.1131
26.5391 40.5239
26.585 41.2042
26.6308 41.758
26.6767 41.8066
26.7225 41.8063
26.7684 41.2524
26.8142 40.5191
26.8601 40.1093
26.9059 39.6935
26.9519 39.1254
26.9979 38.7408
27.0437 38.2819
27.0896 38.1163
27.1354 38.1313
27.1814 37.8923
27.2272 37.8731
27.2732 37.8165
27.3191 37.6593
27.3651 37.809
27.4109 37.8039
27.4569 37.932
27.5027 37.9943
27.5488 38.1988
27.5946 37.9623
27.6407 37.6892
27.6865 37.6002
27.7326 37.2779
27.7784 37.2732
27.8245 37.1893
27.8703 37.4243
27.9164 37.7355
27.9623 37.9065
28.0084 38.3853
28.0543 38.9877
28.1003 38.7862
28.1462 38.6725
28.1923 38.3306
28.2384 37.6884
28.2843 37.3712
28.3304 36.7635
28.3764 36.3408
28.4225 36.0179
28.4684 35.6619
28.5145 35.3281
28.5605 35.3204
28.6066 35.0242
28.6526 34.9818
28.6987 35.0683
28.7447 34.9413
28.7908 34.8519
28.8368 34.973
28.8829 34.8373
28.9289 34.854
28.9751 34.5455
29.0211 34.4271
29.0673 34.2568
29.1133 34.0175
29.1595 33.8535
29.2055 33.6792
29.2517 33.7866
29.2977 33.6756
29.3439 33.6983
29.3899 33.639
29.4361 33.6702
29.4824 33.3932
29.5284 33.2901
29.5746 32.9317
29.6207 32.6068
29.6669 32.4514
29.713 32.4455
29.7593 32.2735
29.8053 32.2722
29.8516 32.2157
29.8977 32.142
29.9439 32.1189
29.99 32.1186
30.0363 31.8006
30.0824 32.031
30.1287 31.9199
30.1748 31.8753
30.2211 31.8814
30.2673 31.7743
30.3136 31.8051
30.3597 31.8176
30.406 31.7458
30.4522 31.5473
30.4985 31.5045
30.5447 31.7394
30.591 31.5999
30.6372 31.7135
30.6835 31.8074
30.7297 31.7724
30.7761 31.7761
30.8224 31.6866
30.8686 31.4491
30.915 31.2199
30.9612 31.065
31.0076 30.8515
31.0538 30.7378
31.1002 30.6494
31.1464 30.6147
31.1928 30.5496
31.2391 30.5837
31.2855 30.4015
31.3317 30.4016
31.3781 30.4361
31.4244 30.5178
31.4708 30.4368
31.5171 30.5056
31.5636 30.4002
31.6098 30.2168
31.6563 29.9915
31.7026 29.8157
31.7491 29.6969
31.7953 29.8061
31.8418 29.8063
31.8881 29.8524
31.9346 29.7019
31.9809 29.6754
32.0275 29.5811
32.074 29.549
32.1203 29.2712
32.1668 29.0976
32.2132 28.9521
32.2597 28.8215
32.306 28.8014
32.3526 28.5827
32.399 28.5359
32.4455 28.3513
32.4919 28.3378
32.5385 28.2496
32.5848 28.0963
32.6314 28.1013
32.6778 27.924
32.7244 27.8091
32.7708 27.6445
32.8174 27.7067
32.8638 27.498
32.9104 27.6944
32.9569 27.5788
33.0035 27.4793
33.0499 27.4187
33.0966 27.3927
33.143 27.3912
33.1897 27.4036
33.2361 27.3015
33.2828 27.1922
33.3293 26.9698
33.3759 27.0211
33.4226 26.8224
33.4691 26.7039
33.5158 26.7063
33.5623 26.548
33.609 26.3556
33.6555 26.264
33.7022 26.2057
33.7487 26.1161
33.7954 26.0306
33.842 25.979
33.8887 25.927
33.9353 25.8864
33.982 25.7322
34.0286 25.675
34.0753 25.656
34.1219 25.5211
34.1687 25.4773
34.2152 25.3323
34.262 25.2386
34.3086 25.1163
34.3554 25.1821
34.402 25.0108
34.4488 24.9564
34.4954 24.8351
34.5422 24.7703
34.5889 24.6534
34.6357 24.5943
34.6825 24.5601
34.7292 24.4206
34.776 24.2786
34.8227 24.2824
34.8695 24.2068
34.9162 24.1931
34.9631 24.1374
35.0098 24.134
35.0566 24.0145
35.1033 23.8692
35.1502 23.9566
35.1969 23.8171
35.2438 23.8345
35.2906 23.828
35.3375 23.7139
35.3842 23.6682
35.4311 23.6913
35.4779 23.6805
35.5248 23.5876
35.5716 23.4454
35.6185 23.4233
35.6653 23.3278
35.7123 23.2497
35.759 23.1284
35.806 23.1131
35.8528 22.8252
35.8998 22.8748
35.9468 22.7957
35.9936 22.7466
36.0406 22.6841
36.0874 22.6764
36.1345 22.5555
36.1813 22.5146
36.2283 22.4488
36.2752 22.311
36.3222 22.3006
36.3691 22.2481
36.4161 22.1672
36.463 22.1063
36.5101 22.0952
36.557 21.9901
36.6041 21.8931
36.651 21.8584
36.6981 21.8577
36.745 21.8341
36.7921 21.6781
36.839 21.509
36.8861 21.5425
36.9331 21.4077
36.9802 21.3875
37.0272 21.3071
37.0743 21.1991
37.1213 21.2151
37.1684 21.0694
37.2154 21.0317
37.2626 20.9415
37.3098 20.9537
37.3568 20.8121
37.404 20.8369
37.451 20.6945
37.4982 20.5732
37.5452 20.5907
37.5924 20.3933
37.6395 20.5016
37.6867 20.4447
37.7337 20.3116
37.781 20.2632
37.8281 20.2248
37.8753 20.0454
37.9224 20.0013
37.9697 19.9943
38.0168 19.9055
38.064 19.8593
38.1111 19.81
38.1584 19.7167
38.2056 19.6575
38.2529 19.6478
38.3 19.5302
38.3473 19.5177
38.3945 19.4835
38.4418 19.3718
38.489 19.3002
38.5363 19.216
38.5837 19.1953
38.6309 19.0884
38.6782 18.9517
38.7254 18.9428
38.7728 18.9334
38.82 18.8321
38.8674 18.7724
38.9146 18.8012
38.9621 18.7044
39.0093 18.5903
39.0567 18.5968
39.104 18.5412
39.1514 18.3791
39.1987 18.4269
39.2461 18.3548
39.2934 18.3399
39.3409 18.2185
39.3882 18.1042
39.4356 18.0774
39.483 18.0395
39.5304 17.9913
39.5778 17.9385
39.6253 17.897
39.6726 17.8285
39.7201 17.8252
39.7675 17.7457
39.815 17.7043
39.8624 17.5946
39.9099 17.5999
39.9575 17.4721
40.0049 17.417
40.0525 17.4038
40.0999 17.2892
40.1474 17.2513
40.1949 17.1719
40.2425 17.135
40.2899 17.1108
40.3375 17.0667
40.385 17.0278
40.4326 16.9096
40.48 16.8787
40.5277 16.8638
40.5752 16.7744
40.6228 16.6673
40.6703 16.7232
40.718 16.6533
40.7655 16.5898
40.8132 16.471
40.8607 16.4976
40.9084 16.4501
40.9559 16.3611
41.0036 16.358
41.0512 16.2271
41.0989 16.2312
41.1465 16.1956
41.1942 16.1219
41.242 16.0115
41.2896 15.9465
41.3373 15.9481
41.3849 15.8828
41.4327 15.8561
41.4803 15.7099
41.5281 15.742
41.5758 15.6778
41.6236 15.6392
41.6712 15.6156
41.7191 15.5051
41.7667 15.3893
41.8146 15.4196
41.8622 15.3024
41.9101 15.3533
41.9578 15.2538
42.0057 15.2096
42.0534 15.1342
42.1013 15.1387
42.149 15.0615
42.1969 14.9551
42.2446 14.961
42.2925 14.8748
42.3403 14.8358
42.3882 14.8791
42.436 14.7896
42.4839 14.6636
42.5319 14.676
42.5797 14.6169
42.6277 14.5486
42.6755 14.4546
42.7235 14.4844
42.7713 14.3965
42.8193 14.3463
42.8671 14.2806
42.9152 14.2691
42.963 14.1881
43.0111 14.1146
43.0589 14.1046
43.107 14.0334
43.1549 14.0498
43.2029 13.9015
43.2508 13.8911
43.2989 13.8437
43.3468 13.8277
43.3949 13.7659
43.4429 13.7155
43.491 13.6642
43.5389 13.6135
43.5871 13.6219
43.635 13.5544
43.6832 13.5014
43.7312 13.4162
43.7793 13.3746
43.8273 13.3297
43.8755 13.3003
43.9237 13.2824
43.9717 13.1974
44.0199 13.1671
44.068 13.1243
44.1162 13.0972
44.1642 13.0358
44.2125 12.9752
44.2606 12.9538
44.3088 12.9193
44.3569 12.8379
44.4052 12.8434
44.4533 12.7647
44.5016 12.6924
44.5497 12.7048
44.598 12.6458
44.6461 12.6004
44.6945 12.5707
44.7426 12.4798
44.791 12.4313
44.8391 12.4443
44.8875 12.3877
44.9357 12.3378
44.984 12.313
45.0322 12.196
45.0806 12.2041
45.1288 12.1949
45.1773 12.1049
45.2257 12.0831
45.2739 12.0497
45.3224 11.9868
45.3706 11.9439
45.4191 11.8787
45.4673 11.8582
45.5158 11.8286
45.5641 11.7388
45.6126 11.69
45.6609 11.668
45.7094 11.5812
45.7577 11.6111
45.8063 11.5481
45.8546 11.5333
45.9031 11.4518
45.9515 11.3954
46.0001 11.4126
46.0484 11.3741
46.097 11.3476
46.1454 11.268
46.194 11.2395
46.2424 11.1927
46.291 11.1376
46.3395 11.1085
46.3881 11.0563
46.4365 11.0389
46.4852 10.9971
46.5337 10.9193
46.5823 10.9317
46.631 10.8846
46.6795 10.8039
46.7282 10.7744
46.7767 10.749
46.8254 10.6791
46.8739 10.6581
46.9226 10.6222
46.9712 10.5584
47.0199 10.5468
47.0685 10.4778
47.1173 10.4723
47.1658 10.4567
47.2146 10.3936
47.2632 10.3706
47.312 10.3268
47.3606 10.2943
47.4095 10.2394
47.4581 10.1928
47.5069 10.1903
47.5556 10.1311
47.6044 10.1198
47.6531 10.0765
47.702 9.98896
47.7507 9.9581
47.7996 9.91367
47.8483 9.9499
47.8972 9.8819
47.9461 9.8511
47.9948 9.74288
48.0438 9.77201
48.0925 9.75707
48.1415 9.68645
48.1902 9.64774
48.2392 9.60881
48.288 9.57052
48.337 9.52533
48.3858 9.52595
48.4348 9.49653
48.4837 9.49737
48.5327 9.41779
48.5815 9.3619
48.6306 9.35096
48.6795 9.3382
48.7285 9.2516
48.7774 9.24917
48.8265 9.24785
48.8754 9.21537
48.9245 9.15152
48.9734 9.10064
49.0226 9.13529
49.0715 9.01594
49.1206 8.98282
49.1696 8.95792
49.2188 8.98189
49.2679 8.88801
49.3169 8.8423
49.3661 8.80712
49.4151 8.78788
49.4643 8.7787
49.5134 8.72648
49.5626 8.67129
49.6117 8.68969
49.6609 8.6424
49.71 8.58957
49.7592 8.55983
49.8083 8.48809
49.8576 8.47256
49.9067 8.44808
49.956 8.47908
50.0052 8.41675
50.0545 8.38492
50.1036 8.34024
50.153 8.2951
50.2022 8.28991
50.2515 8.24346
50.3007 8.20927
50.3501 8.17401
50.3993 8.1515
50.4487 8.14327
50.498 8.10458
50.5474 8.05698
50.5966 8.03328
50.6461 7.98784
50.6955 7.95219
50.7448 7.93218
50.7943 7.91654
50.8436 7.87141
50.8931 7.82126
50.9424 7.7665
50.9919 7.76089
51.0413 7.78438
51.0908 7.72828
51.1402 7.70968
51.1897 7.65382
51.2391 7.63913
51.2887 7.5879
51.3381 7.5442
51.3877 7.5241
51.4371 7.49353
51.4867 7.42084
51.5362 7.43523
51.5858 7.44496
51.6353 7.38152
51.6849 7.33127
51.7344 7.3136
51.7841 7.28231
51.8336 7.26492
51.8833 7.20635
51.9328 7.20087
51.9826 7.11774
52.0323 7.12624
52.0818 7.0966
52.1316 7.08114
52.1812 7.04396
52.231 7.06619
52.2806 7.00147
52.3304 6.94566
52.38 6.94479
52.4298 6.90794
52.4794 6.87726
52.5293 6.85007
52.5789 6.78336
52.6288 6.83055
52.6785 6.75424
52.7284 6.73261
52.7781 6.70112
52.828 6.70913
52.8777 6.61852
52.9276 6.61522
52.9774 6.57065
53.0273 6.59608
53.0771 6.55251
53.1271 6.53151
53.1769 6.50189
53.2269 6.46382
53.2767 6.44708
53.3267 6.40081
53.3765 6.36385
53.4266 6.36497
53.4766 6.33235
53.5265 6.30842
53.5765 6.27704
53.6264 6.20526
53.6765 6.22453
53.7264 6.224
53.7765 6.16728
53.8265 6.11998
53.8766 6.09046
53.9266 6.06953
53.9767 6.06395
54.0267 6.02632
54.0769 6.04844
54.1269 5.99593
54.1771 5.92771
54.2271 5.927
54.2773 5.83608
54.3274 5.86734
54.3776 5.81015
54.4277 5.79835
54.478 5.74499
54.528 5.72477
54.5783 5.69968
54.6285 5.62623
54.6788 5.6543
54.7289 5.61352
54.7792 5.55157
54.8296 5.42611
54.8798 5.44493
54.9301 5.42334
54.9803 5.37407
55.0307 5.38557
55.0809 5.28525
55.1314 5.25054
55.1816 5.1966
55.232 5.18509
55.2823 5.14235
55.3328 5.07958
55.383 4.98396
55.4335 5.01277
55.4838 4.92092
55.5344 4.86974
55.5847 4.87019
55.6352 4.82875
55.6856 4.78617
55.7361 4.75028