File: XRD/Ni3Fe_FD0362.xy
TT I
1.27165 7.5766
1.31627 6.84139
1.36089 6.35931
1.40551 6.53281
1.45013 6.68149
1.49476 6.2909
1.53938 6.00083
1.584 5.30193
1.62863 5.55663
1.67325 5.1673
1.71787 5.09094
1.7625 4.84998
1.80712 4.93973
1.85174 5.04975
1.89636 4.64546
1.94099 5.54582
1.98562 5.03615
2.03025 4.28765
2.07487 4.49027
2.11949 4.82566
2.16411 4.39864
2.20874 9.01305
2.25338 11.7976
2.298 4.62114
2.34263 5.09844
2.38725 5.7348
2.43188 5.24937
2.4765 6.08808
2.52115 6.36096
2.56577 6.07274
2.6104 7.30856
2.65503 6.48798
2.69965 7.30063
2.7443 7.1601
2.78893 7.85099
2.83356 7.74736
2.87818 7.52539
2.92281 8.57607
2.96744 9.26606
3.01209 10.1412
3.05672 11.4772
3.10135 12.3755
3.14599 12.8178
3.19062 14.338
3.23527 14.9372
3.2799 15.9775
3.32454 16.3268
3.36917 17.7697
3.4138 19.1854
3.45844 19.0812
3.50309 20.9555
3.54773 21.8527
3.59237 23.145
3.637 53.2951
3.68164 37.9614
3.7263 26.1517
3.77094 26.1603
3.81558 26.6315
3.86022 27.2348
3.90486 29.3295
3.9495 30.1953
3.99416 31.0969
4.0388 32.5536
4.08344 33.6065
4.12809 34.5545
4.17273 36.5967
4.21738 40.3046
4.26204 126.281
4.30669 113.337
4.35133 45.8292
4.39598 44.3722
4.44063 49.4806
4.4853 55.2947
4.52995 53.2768
4.5746 53.8326
4.61925 54.8451
4.6639 57.1804
4.70855 59.7705
4.75322 62.8226
4.79788 66.6723
4.84253 69.9405
4.88719 75.0757
4.93184 78.1293
4.97652 85.1481
5.02118 92.0193
5.06583 100.878
5.11049 115.541
5.15515 169.442
5.19981 618.594
5.24449 3704.62
5.28916 11301.5
5.33382 3280.56
5.37848 221.098
5.42315 139.06
5.46783 122.201
5.5125 112.077
5.55716 106.686
5.60183 102.155
5.6465 100.046
5.69117 98.575
5.73586 96.7611
5.78053 97.8314
5.8252 98.2075
5.86988 99.5362
5.91455 102.049
5.95924 117.47
6.00392 331.765
6.0486 1286.87
6.09328 4004.31
6.13795 3342.75
6.18263 281.095
6.22733 99.366
6.27201 85.5966
6.3167 88.9073
6.36138 77.5812
6.40606 71.3101
6.45075 69.2947
6.49545 66.9184
6.54014 65.1949
6.58483 64.1589
6.62952 63.7697
6.67421 75.4016
6.71892 95.6268
6.76361 63.6209
6.8083 59.7532
6.853 58.7659
6.89769 57.5861
6.94239 57.5727
6.98711 56.5384
7.03181 57.0163
7.07651 56.2485
7.12121 55.9239
7.16591 56.6526
7.21063 55.6913
7.25533 62.2824
7.30004 106.991
7.34475 71.1422
7.38945 56.6757
7.43416 55.0372
7.47889 54.9432
7.5236 55.7337
7.56831 56.6576
7.61303 57.0103
7.65774 57.4703
7.70247 57.5967
7.74719 57.3782
7.79191 58.0247
7.83663 58.1865
7.88135 58.9979
7.92607 60.0973
7.97081 61.5245
8.01553 62.2902
8.06026 63.9643
8.10498 65.4567
8.14971 71.719
8.19446 71.2871
8.23919 71.2323
8.28392 74.1148
8.32865 76.8988
8.37339 81.4761
8.41812 88.1195
8.46288 111.06
8.50761 229.049
8.55235 509.256
8.59709 1196.36
8.64183 2090.46
8.68658 1027.38
8.73134 178.745
8.77609 104.722
8.82083 96.3304
8.86558 93.1185
8.91033 91.8084
8.9551 90.9883
8.99985 87.6924
9.04461 86.1175
9.08936 85.7921
9.13412 84.6489
9.17888 84.6861
9.22365 84.4035
9.26841 84.4949
9.31318 85.9131
9.35794 86.6852
9.4027 86.3193
9.44749 86.9672
9.49226 87.2547
9.53703 88.0342
9.5818 90.3148
9.62657 93.9343
9.67134 96.9347
9.71614 96.0562
9.76091 97.7032
9.80569 101.042
9.85047 103.584
9.89525 116.62
9.94005 136.794
9.98484 239.826
10.0296 446.504
10.0744 877.029
10.1192 1597.15
10.164 1608.1
10.2088 450.176
10.2536 134.31
10.2984 114.584
10.3432 113.034
10.388 110.015
10.4328 138.22
10.4776 189.574
10.5224 301.106
10.5672 487.747
10.612 520.012
10.6568 213.021
10.7017 99.5381
10.7465 89.3293
10.7913 85.7016
10.8361 83.3902
10.8809 81.3149
10.9257 79.5387
10.9706 79.5748
11.0154 76.6327
11.0602 74.7359
11.105 73.7707
11.1499 74.1919
11.1947 76.8351
11.2395 72.5375
11.2844 70.7503
11.3292 68.6606
11.374 67.7032
11.4189 67.2845
11.4637 66.6057
11.5086 66.4669
11.5534 67.2285
11.5983 66.0928
11.6431 65.1827
11.688 64.5279
11.7328 64.5839
11.7777 64.3331
11.8225 64.068
11.8674 64.041
11.9122 64.6023
11.9571 64.9768
12.002 66.554
12.0468 74.2228
12.0917 87.2652
12.1366 110.163
12.1814 151.533
12.2263 202.723
12.2712 170.498
12.3161 94.8581
12.3609 69.4099
12.4058 66.2403
12.4507 65.9879
12.4956 66.1086
12.5405 66.329
12.5853 67.0487
12.6302 70.2555
12.6751 73.1991
12.72 70.2013
12.7649 69.6352
12.8098 70.4609
12.8547 71.8726
12.8996 73.0532
12.9445 74.9258
12.9894 76.5615
13.0343 78.7169
13.0792 83.3663
13.1242 100.689
13.1691 128.991
13.214 169.796
13.2589 247.77
13.3038 351.282
13.3487 417.509
13.3937 275.691
13.4386 131.937
13.4835 118.924
13.5285 137.643
13.5734 175.83
13.6183 245.253
13.6633 330.389
13.7082 343.565
13.7531 198.841
13.7981 101.791
13.843 84.4298
13.888 81.9987
13.9329 79.5886
13.9779 78.1913
14.0228 76.4101
14.0678 75.1623
14.1127 74.5958
14.1577 73.9072
14.2027 73.4093
14.2476 72.6743
14.2926 72.0948
14.3376 72.5404
14.3825 71.8372
14.4275 70.7998
14.4725 70.6492
14.5175 71.037
14.5624 71.0834
14.6074 72.1315
14.6524 72.8182
14.6974 72.9057
14.7424 77.2763
14.7874 86.5525
14.8324 98.8534
14.8774 120.808
14.9224 155.322
14.9674 199.775
15.0124 216.022
15.0574 151.969
15.1024 93.2707
15.1474 74.3057
15.1924 72.3755
15.2374 71.6484
15.2824 70.7924
15.3274 69.66
15.3725 68.6648
15.4175 68.376
15.4625 68.0065
15.5076 67.7972
15.5526 68.0937
15.5976 68.2437
15.6426 71.6216
15.6877 78.9638
15.7327 88.1122
15.7778 103.508
15.8228 129.201
15.8679 164.38
15.9129 192.81
15.958 161.479
16.003 101.153
16.0481 69.6422
16.0931 64.9707
16.1382 63.2436
16.1833 62.0418
16.2283 60.4915
16.2734 59.6993
16.3185 59.6543
16.3636 59.5457
16.4086 58.3128
16.4537 57.624
16.4988 57.0306
16.5439 56.8498
16.589 56.7962
16.6341 56.3412
16.6792 56.0834
16.7243 56.1968
16.7694 56.289
16.8145 56.1775
16.8596 56.3794
16.9047 57.2269
16.9498 57.3753
16.9949 56.9951
17.04 57.9539
17.0851 59.6936
17.1302 61.2844
17.1754 64.5772
17.2205 69.1307
17.2656 75.2615
17.3108 82.7443
17.3559 83.595
17.401 73.2523
17.4462 64.1046
17.4913 60.7492
17.5365 60.9178
17.5815 60.966
17.6268 61.1472
17.6718 62.0538
17.7171 62.4346
17.7622 63.2101
17.8074 64.626
17.8525 68.688
17.8977 73.2254
17.9428 79.1255
17.9881 88.1501
18.0331 102.493
18.0784 119.943
18.1237 139.318
18.1688 136.184
18.214 110.419
18.2591 91.0045
18.3044 91.8216
18.3495 99.151
18.3948 105.959
18.4399 97.4681
18.4852 78.8184
18.5303 67.4333
18.5756 64.0586
18.6207 62.8711
18.666 62.2284
18.7112 61.2681
18.7565 60.6566
18.8016 60.3668
18.8469 59.6852
18.892 59.3268
18.9374 58.9439
18.9825 58.7774
19.0278 58.6449
19.073 58.9749
19.1183 59.6661
19.1635 60.4943
19.2088 62.0218
19.254 64.4416
19.2993 67.8387
19.3447 72.7032
19.3898 76.8923
19.4352 74.0375
19.4804 65.4325
19.5257 58.3164
19.5709 55.6059
19.6163 55.6169
19.6615 55.2897
19.7068 54.8798
19.752 54.8809
19.7974 55.7669
19.8426 56.5545
19.888 57.3204
19.9332 58.5909
19.9786 61.0799
20.0238 64.2662
20.0692 68.2712
20.1144 71.41
20.1598 70.7352
20.205 65.9071
20.2504 63.498
20.2957 64.4936
20.3411 66.6087
20.3863 65.7648
20.4318 60.1495
20.477 55.2094
20.5224 52.737
20.5677 52.1332
20.6131 51.6997
20.6586 50.9985
20.7038 50.8542
20.7493 50.4259
20.7945 50.4644
20.84 50.3708
20.8853 50.1689
20.9307 50.0515
20.976 50.2029
21.0215 50.0814
21.0668 50.4552
21.1122 50.9623
21.1575 51.5899
21.203 52.0761
21.2483 52.7039
21.2938 53.0393
21.3391 51.9276
21.3846 50.3148
21.4299 49.7957
21.4754 49.8734
21.5207 50.0563
21.5662 50.4593
21.6116 51.0875
21.6571 52.0023
21.7024 53.0609
21.7479 54.8835
21.7933 57.1693
21.8388 60.1232
21.8843 63.5247
21.9297 66.0622
21.9752 65.376
22.0206 61.4208
22.0661 57.6201
22.1115 57.1224
22.157 57.1634
22.2024 55.7533
22.248 53.0601
22.2933 51.3043
22.3389 50.4128
22.3843 50.2224
22.4299 50.0331
22.4753 49.8648
22.5208 50.0104
22.5662 49.8977
22.6118 50.2264
22.6572 50.6004
22.7028 51.2469
22.7483 51.6851
22.7939 52.4072
22.8393 53.6526
22.8849 55.2325
22.9303 57.0572
22.9759 58.8162
23.0214 58.91
23.067 56.1419
23.1126 52.6546
23.1581 50.701
23.2037 50.2151
23.2492 50.5604
23.2948 50.6651
23.3403 51.1555
23.3859 51.7731
23.4314 52.6735
23.477 54.184
23.5225 55.8916
23.5682 57.5511
23.6137 59.1586
23.6593 57.2125
23.7048 53.2362
23.7505 49.5741
23.796 47.9851
23.8417 47.3663
23.8872 46.8788
23.9329 46.6692
23.9784 46.1652
24.0241 45.7599
24.0697 45.7518
24.1154 45.373
24.1609 45.2336
24.2066 44.9407
24.2522 44.9127
24.2979 44.6563
24.3434 44.5776
24.3892 44.4349
24.4349 44.2533
24.4805 44.1189
24.5262 44.3605
24.5718 44.0853
24.6175 44.192
24.6631 44.0747
24.7089 43.6979
24.7545 43.504
24.8002 43.3428
24.8458 43.4838
24.8916 43.2805
24.9372 43.5929
24.983 43.8325
25.0286 44.2526
25.0744 44.5834
25.12 44.8842
25.1658 45.5662
25.2114 45.8953
25.2572 45.9744
25.3029 45.7027
25.3487 45.8782
25.3943 45.8642
25.4402 44.9228
25.4858 43.811
25.5316 42.5574
25.5773 42.0354
25.6231 42.0735
25.669 41.5777
25.7147 41.7555
25.7605 41.6482
25.8062 41.797
25.8521 41.9365
25.8977 41.6909
25.9436 42.0271
25.9893 42.1227
26.0352 42.5034
26.0809 42.6449
26.1268 42.9551
26.1725 42.5868
26.2184 42.1273
26.2641 41.6461
26.31 41.3206
26.3557 41.3754
26.4017 41.3656
26.4474 41.683
26.4933 41.908
26.5391 42.4684
26.585 42.7818
26.6308 43.109
26.6767 43.2694
26.7225 43.178
26.7684 42.5072
26.8142 42.0002
26.8601 41.5289
26.9059 41.194
26.9519 40.7043
26.9979 40.2526
27.0437 40.0446
27.0896 39.9101
27.1354 40.052
27.1814 39.8128
27.2272 39.6976
27.2732 39.5991
27.3191 39.5067
27.3651 39.6598
27.4109 39.4373
27.4569 39.5595
27.5027 39.6064
27.5488 39.7983
27.5946 39.5025
27.6407 39.3784
27.6865 39.1944
27.7326 39.077
27.7784 39.0777
27.8245 38.9917
27.8703 39.0355
27.9164 39.3253
27.9623 39.5305
28.0084 39.7885
28.0543 40.1579
28.1003 40.1584
28.1462 39.9406
28.1923 39.443
28.2384 38.9811
28.2843 38.7615
28.3304 38.2913
28.3764 37.6364
28.4225 37.2818
28.4684 37.2747
28.5145 37.0155
28.5605 36.8447
28.6066 36.6342
28.6526 36.5967
28.6987 36.7152
28.7447 36.3982
28.7908 36.3607
28.8368 36.4182
28.8829 36.2867
28.9289 36.2843
28.9751 36.2113
29.0211 35.8588
29.0673 35.7272
29.1133 35.4509
29.1595 35.2897
29.2055 35.3179
29.2517 35.216
29.2977 35.2496
29.3439 35.1495
29.3899 35.1244
29.4361 34.9519
29.4824 35.054
29.5284 34.6906
29.5746 34.4012
29.6207 34.1227
29.6669 34.0399
29.713 33.879
29.7593 33.8165
29.8053 33.84
29.8516 33.8053
29.8977 33.7068
29.9439 33.4303
29.99 33.4493
30.0363 33.4232
30.0824 33.4429
30.1287 33.4805
30.1748 33.1904
30.2211 33.334
30.2673 33.1577
30.3136 33.2524
30.3597 33.243
30.406 33.0743
30.4522 32.9109
30.4985 32.9185
30.5447 33.0744
30.591 33.018
30.6372 33.0733
30.6835 32.9699
30.7297 33.1166
30.7761 33.0698
30.8224 32.8339
30.8686 32.6337
30.915 32.5023
30.9612 32.2776
31.0076 32.2305
31.0538 32.1913
31.1002 32.0574
31.1464 31.7641
31.1928 31.8721
31.2391 31.8836
31.2855 31.8126
31.3317 31.8148
31.3781 31.7805
31.4244 31.7936
31.4708 31.6474
31.5171 31.613
31.5636 31.6359
31.6098 31.3144
31.6563 31.1974
31.7026 30.9741
31.7491 31.0021
31.7953 31.0161
31.8418 30.9867
31.8881 31.1074
31.9346 30.8943
31.9809 30.8998
32.0275 30.7804
32.074 30.7316
32.1203 30.3881
32.1668 30.3592
32.2132 30.2377
32.2597 30.0571
32.306 30.0242
32.3526 29.7833
32.399 29.6352
32.4455 29.5739
32.4919 29.4551
32.5385 29.4301
32.5848 29.1894
32.6314 29.3192
32.6778 29.1824
32.7244 29.0614
32.7708 28.9682
32.8174 28.8818
32.8638 28.7581
32.9104 28.8339
32.9569 28.8196
33.0035 28.6352
33.0499 28.5779
33.0966 28.6044
33.143 28.5685
33.1897 28.3648
33.2361 28.3617
33.2828 28.2869
33.3293 28.1681
33.3759 28.1342
33.4226 28.0397
33.4691 27.8315
33.5158 27.771
33.5623 27.6397
33.609 27.4528
33.6555 27.4377
33.7022 27.3303
33.7487 27.3326
33.7954 27.1701
33.842 27.1099
33.8887 27.0514
33.9353 26.9369
33.982 26.8454
34.0286 26.7947
34.0753 26.7557
34.1219 26.5921
34.1687 26.5664
34.2152 26.4121
34.262 26.3401
34.3086 26.2681
34.3554 26.2258
34.402 26.0558
34.4488 25.98
34.4954 25.9169
34.5422 25.8615
34.5889 25.7496
34.6357 25.6162
34.6825 25.5529
34.7292 25.5429
34.776 25.446
34.8227 25.3298
34.8695 25.3914
34.9162 25.1381
34.9631 25.1871
35.0098 25.1411
35.0566 24.9909
35.1033 24.9669
35.1502 24.986
35.1969 24.8754
35.2438 24.7586
35.2906 24.6999
35.3375 24.6867
35.3842 24.6414
35.4311 24.5474
35.4779 24.5906
35.5248 24.5647
35.5716 24.401
35.6185 24.3953
35.6653 24.2199
35.7123 24.1962
35.759 24.1063
35.806 23.9924
35.8528 23.8792
35.8998 23.8756
35.9468 23.6903
35.9936 23.7092
36.0406 23.6587
36.0874 23.6178
36.1345 23.5434
36.1813 23.4511
36.2283 23.2361
36.2752 23.192
36.3222 23.3209
36.3691 23.1535
36.4161 23.0605
36.463 23.0129
36.5101 23.0072
36.557 22.9014
36.6041 22.7126
36.651 22.7563
36.6981 22.7049
36.745 22.5997
36.7921 22.5276
36.839 22.4543
36.8861 22.3638
36.9331 22.3209
36.9802 22.2329
37.0272 22.1882
37.0743 22.0364
37.1213 21.9496
37.1684 21.9462
37.2154 21.9435
37.2626 21.7808
37.3098 21.8075
37.3568 21.7648
37.404 21.6654
37.451 21.5805
37.4982 21.5028
37.5452 21.4176
37.5924 21.3056
37.6395 21.4083
37.6867 21.2463
37.7337 21.1461
37.781 21.1223
37.8281 21.0082
37.8753 20.9186
37.9224 20.8804
37.9697 20.8094
38.0168 20.7506
38.064 20.6883
38.1111 20.6451
38.1584 20.57
38.2056 20.519
38.2529 20.4712
38.3 20.3129
38.3473 20.3598
38.3945 20.225
38.4418 20.2007
38.489 20.1758
38.5363 20.0082
38.5837 19.9895
38.6309 19.841
38.6782 19.8623
38.7254 19.7859
38.7728 19.6662
38.82 19.653
38.8674 19.6027
38.9146 19.5923
38.9621 19.4162
39.0093 19.3957
39.0567 19.3956
39.104 19.2423
39.1514 19.1695
39.1987 19.1628
39.2461 19.0957
39.2934 19.0146
39.3409 18.9898
39.3882 18.9361
39.4356 18.8397
39.483 18.7833
39.5304 18.7025
39.5778 18.7532
39.6253 18.6274
39.6726 18.5566
39.7201 18.5394
39.7675 18.4749
39.815 18.3614
39.8624 18.353
39.9099 18.3226
39.9575 18.254
40.0049 18.1796
40.0525 18.0957
40.0999 18.0771
40.1474 18.0034
40.1949 17.9331
40.2425 17.8377
40.2899 17.8408
40.3375 17.776
40.385 17.7177
40.4326 17.6809
40.48 17.5663
40.5277 17.5884
40.5752 17.4329
40.6228 17.4147
40.6703 17.4084
40.718 17.3392
40.7655 17.2561
40.8132 17.2074
40.8607 17.1728
40.9084 17.0756
40.9559 17.0814
41.0036 17.0086
41.0512 16.9904
41.0989 16.9281
41.1465 16.8017
41.1942 16.7408
41.242 16.6968
41.2896 16.6514
41.3373 16.5637
41.3849 16.5463
41.4327 16.4592
41.4803 16.3359
41.5281 16.3669
41.5758 16.3131
41.6236 16.2848
41.6712 16.2018
41.7191 16.1726
41.7667 16.1326
41.8146 16.0606
41.8622 15.9964
41.9101 15.9534
41.9578 15.8888
42.0057 15.8522
42.0534 15.761
42.1013 15.7679
42.149 15.6848
42.1969 15.5954
42.2446 15.6148
42.2925 15.5495
42.3403 15.452
42.3882 15.4308
42.436 15.4124
42.4839 15.2762
42.5319 15.2852
42.5797 15.1548
42.6277 15.1619
42.6755 15.0571
42.7235 15.0102
42.7713 14.9939
42.8193 14.9519
42.8671 14.9544
42.9152 14.91
42.963 14.7454
43.0111 14.7407
43.0589 14.7048
43.107 14.5867
43.1549 14.6078
43.2029 14.5484
43.2508 14.4883
43.2989 14.4688
43.3468 14.4219
43.3949 14.3726
43.4429 14.3125
43.491 14.2246
43.5389 14.163
43.5871 14.1613
43.635 14.0947
43.6832 14.0628
43.7312 14.002
43.7793 13.9198
43.8273 13.9291
43.8755 13.8285
43.9237 13.8032
43.9717 13.764
44.0199 13.7283
44.068 13.6969
44.1162 13.6074
44.1642 13.6013
44.2125 13.5049
44.2606 13.4819
44.3088 13.45
44.3569 13.3602
44.4052 13.3613
44.4533 13.2921
44.5016 13.2455
44.5497 13.224
44.598 13.1995
44.6461 13.1156
44.6945 13.0566
44.7426 13.0226
44.791 12.9865
44.8391 12.9006
44.8875 12.9056
44.9357 12.825
44.984 12.7902
45.0322 12.6756
45.0806 12.6733
45.1288 12.6865
45.1773 12.5885
45.2257 12.5745
45.2739 12.5724
45.3224 12.5208
45.3706 12.4623
45.4191 12.3404
45.4673 12.3317
45.5158 12.2694
45.5641 12.1913
45.6126 12.203
45.6609 12.1726
45.7094 12.1329
45.7577 12.0447
45.8063 12.0355
45.8546 12.0259
45.9031 11.9439
45.9515 11.951
46.0001 11.8668
46.0484 11.8276
46.097 11.7984
46.1454 11.7367
46.194 11.6831
46.2424 11.6467
46.291 11.579
46.3395 11.5638
46.3881 11.5184
46.4365 11.5388
46.4852 11.4306
46.5337 11.3976
46.5823 11.3885
46.631 11.3108
46.6795 11.2948
46.7282 11.2516
46.7767 11.1756
46.8254 11.1714
46.8739 11.1587
46.9226 11.0506
46.9712 11.0346
47.0199 10.9311
47.0685 10.9796
47.1173 10.8814
47.1658 10.8413
47.2146 10.8274
47.2632 10.7787
47.312 10.7734
47.3606 10.7142
47.4095 10.6716
47.4581 10.6525
47.5069 10.5859
47.5556 10.579
47.6044 10.4571
47.6531 10.4964
47.702 10.418
47.7507 10.3769
47.7996 10.3151
47.8483 10.3027
47.8972 10.3028
47.9461 10.2527
47.9948 10.1847
48.0438 10.1345
48.0925 10.1165
48.1415 10.0816
48.1902 10.0409
48.2392 10.0556
48.288 9.98428
48.337 9.95085
48.3858 9.9182
48.4348 9.87927
48.4837 9.85685
48.5327 9.81405
48.5815 9.74314
48.6306 9.7673
48.6795 9.69706
48.7285 9.67556
48.7774 9.58289
48.8265 9.61978
48.8754 9.53791
48.9245 9.53922
48.9734 9.47659
49.0226 9.45331
49.0715 9.39917
49.1206 9.37398
49.1696 9.3024
49.2188 9.29917
49.2679 9.28583
49.3169 9.18698
49.3661 9.22216
49.4151 9.17698
49.4643 9.16325
49.5134 9.08667
49.5626 9.04493
49.6117 9.02961
49.6609 8.99098
49.71 8.90977
49.7592 8.93753
49.8083 8.85785
49.8576 8.87594
49.9067 8.7913
49.956 8.77301
50.0052 8.75246
50.0545 8.73635
50.1036 8.68126
50.153 8.65083
50.2022 8.66527
50.2515 8.58196
50.3007 8.51585
50.3501 8.531
50.3993 8.47448
50.4487 8.45381
50.498 8.39774
50.5474 8.35962
50.5966 8.36992
50.6461 8.32443
50.6955 8.2809
50.7448 8.2723
50.7943 8.20215
50.8436 8.20103
50.8931 8.12923
50.9424 8.11076
50.9919 8.10339
51.0413 8.09346
51.0908 8.05105
51.1402 8.00238
51.1897 7.95431
51.2391 7.93359
51.2887 7.88179
51.3381 7.83943
51.3877 7.83672
51.4371 7.78669
51.4867 7.75558
51.5362 7.73694
51.5858 7.73015
51.6353 7.67576
51.6849 7.65336
51.7344 7.59484
51.7841 7.60548
51.8336 7.57924
51.8833 7.51727
51.9328 7.48584
51.9826 7.44089
52.0323 7.39796
52.0818 7.37568
52.1316 7.37164
52.1812 7.33122
52.231 7.3198
52.2806 7.28387
52.3304 7.2071
52.38 7.20238
52.4298 7.15775
52.4794 7.18693
52.5293 7.10451
52.5789 7.08533
52.6288 7.04724
52.6785 7.03097
52.7284 6.99817
52.7781 6.98199
52.828 6.91948
52.8777 6.85482
52.9276 6.88462
52.9774 6.85136
53.0273 6.84807
53.0771 6.76075
53.1271 6.75806
53.1769 6.71007
53.2269 6.73952
53.2767 6.66842
53.3267 6.62537
53.3765 6.65156
53.4266 6.59569
53.4766 6.54907
53.5265 6.54268
53.5765 6.53852
53.6264 6.48845
53.6765 6.45129
53.7264 6.40259
53.7765 6.3713
53.8265 6.40063
53.8766 6.37542
53.9266 6.32092
53.9767 6.32673
54.0267 6.28415
54.0769 6.23825
54.1269 6.20075
54.1771 6.15596
54.2271 6.10003
54.2773 6.07774
54.3274 6.07395
54.3776 6.00378
54.4277 6.042
54.478 5.96903
54.528 5.93709
54.5783 5.90356
54.6285 5.87739
54.6788 5.80928
54.7289 5.78835
54.7792 5.7872
54.8296 5.73613
54.8798 5.60633
54.9301 5.612
54.9803 5.61606
55.0307 5.55369
55.0809 5.46011
55.1314 5.49718
55.1816 5.41955
55.232 5.37223
55.2823 5.31375
55.3328 5.23098
55.383 5.2145
55.4335 5.16391
55.4838 5.10173
55.5344 5.08156
55.5847 5.05212
55.6352 4.96623
55.6856 4.98727
55.7361 4.91515