File: XRD/Ni3Fe_FD0270.xy
TT I
1.27165 8.13433
1.31627 6.90204
1.36089 7.44134
1.40551 6.51482
1.45013 6.61948
1.49476 6.67753
1.53938 6.23901
1.584 5.82062
1.62863 5.53347
1.67325 5.4004
1.71787 5.36192
1.7625 5.46909
1.80712 5.01503
1.85174 5.37863
1.89636 4.66221
1.94099 5.32793
1.98562 5.16716
2.03025 4.90032
2.07487 4.72894
2.11949 4.90528
2.16411 4.92831
2.20874 12.6473
2.25338 19.9581
2.298 5.24954
2.34263 4.64053
2.38725 4.77254
2.43188 4.9771
2.4765 4.99932
2.52115 5.32572
2.56577 6.25155
2.6104 6.56274
2.65503 6.39722
2.69965 6.61617
2.7443 6.45828
2.78893 6.98182
2.83356 7.62399
2.87818 8.6992
2.92281 8.73514
2.96744 9.57379
3.01209 10.5992
3.05672 11.3388
3.10135 12.3213
3.14599 13.4768
3.19062 13.8521
3.23527 14.783
3.2799 15.8507
3.32454 17.0058
3.36917 17.8195
3.4138 19.3114
3.45844 19.6444
3.50309 21.5434
3.54773 21.8429
3.59237 24.0897
3.637 80.6378
3.68164 54.4794
3.7263 26.676
3.77094 26.8677
3.81558 27.219
3.86022 27.9398
3.90486 29.5046
3.9495 30.4138
3.99416 31.511
4.0388 32.9877
4.08344 34.4705
4.12809 35.5473
4.17273 38.1523
4.21738 44.2568
4.26204 215.286
4.30669 192.688
4.35133 49.22
4.39598 45.6729
4.44063 53.8505
4.4853 64.8052
4.52995 53.6245
4.5746 53.7534
4.61925 55.1632
4.6639 57.5164
4.70855 60.6047
4.75322 63.0995
4.79788 66.9147
4.84253 70.6036
4.88719 75.293
4.93184 78.7768
4.97652 85.273
5.02118 92.8055
5.06583 101.827
5.11049 117.476
5.15515 190.694
5.19981 535.693
5.24449 3420.52
5.28916 10829.0
5.33382 4195.44
5.37848 266.164
5.42315 148.748
5.46783 126.585
5.5125 115.366
5.55716 109.112
5.60183 104.848
5.6465 102.755
5.69117 100.028
5.73586 97.8359
5.78053 99.1916
5.8252 99.046
5.86988 99.9427
5.91455 102.997
5.95924 116.806
6.00392 276.45
6.0486 1198.54
6.09328 3678.81
6.13795 3719.25
6.18263 377.514
6.22733 108.236
6.27201 89.8944
6.3167 102.524
6.36138 83.8546
6.40606 72.9371
6.45075 71.1559
6.49545 68.3854
6.54014 66.7656
6.58483 65.6143
6.62952 65.5111
6.67421 89.7365
6.71892 133.814
6.76361 69.5892
6.8083 60.9096
6.853 59.8598
6.89769 58.9168
6.94239 58.6711
6.98711 57.7957
7.03181 57.7631
7.07651 56.9461
7.12121 56.9145
7.16591 57.8959
7.21063 57.2259
7.25533 69.7849
7.30004 160.305
7.34475 89.0849
7.38945 58.3681
7.43416 56.357
7.47889 56.1307
7.5236 56.6071
7.56831 57.3327
7.61303 58.861
7.65774 59.0722
7.70247 58.5888
7.74719 58.2579
7.79191 58.9956
7.83663 58.722
7.88135 60.0234
7.92607 60.7703
7.97081 62.0922
8.01553 63.223
8.06026 64.8457
8.10498 66.3656
8.14971 75.0107
8.19446 74.5917
8.23919 72.6373
8.28392 75.1862
8.32865 77.579
8.37339 82.3183
8.41812 89.3061
8.46288 118.222
8.50761 196.381
8.55235 484.717
8.59709 1075.76
8.64183 1993.63
8.68658 1272.05
8.73134 234.821
8.77609 109.76
8.82083 99.027
8.86558 95.1858
8.91033 94.1872
8.9551 95.1402
8.99985 89.5077
9.04461 87.5335
9.08936 86.7734
9.13412 85.5314
9.17888 85.5398
9.22365 86.2497
9.26841 85.4935
9.31318 86.5462
9.35794 87.1971
9.4027 87.0233
9.44749 87.6331
9.49226 88.1294
9.53703 89.0815
9.5818 91.7153
9.62657 95.8797
9.67134 101.715
9.71614 97.6078
9.76091 98.3293
9.80569 101.522
9.85047 104.731
9.89525 125.971
9.94005 141.212
9.98484 206.614
10.0296 429.725
10.0744 781.735
10.1192 1474.0
10.164 1718.71
10.2088 607.787
10.2536 153.681
10.2984 120.861
10.3432 119.734
10.388 110.674
10.4328 129.958
10.4776 185.24
10.5224 273.902
10.5672 457.003
10.612 537.309
10.6568 262.54
10.7017 109.456
10.7465 91.4848
10.7913 87.3692
10.8361 84.6146
10.8809 82.5857
10.9257 82.2167
10.9706 82.1773
11.0154 78.3073
11.0602 75.9344
11.105 75.1187
11.1499 77.8052
11.1947 83.7894
11.2395 76.6785
11.2844 72.8625
11.3292 70.0781
11.374 68.8358
11.4189 68.071
11.4637 67.61
11.5086 67.5935
11.5534 70.3837
11.5983 67.8925
11.6431 66.3722
11.688 65.4236
11.7328 65.5581
11.7777 65.5178
11.8225 64.9208
11.8674 64.9339
11.9122 65.2912
11.9571 65.6881
12.002 66.5942
12.0468 71.8827
12.0917 86.8397
12.1366 106.729
12.1814 142.829
12.2263 194.609
12.2712 187.857
12.3161 114.073
12.3609 74.8039
12.4058 67.5125
12.4507 67.065
12.4956 67.3662
12.5405 67.2962
12.5853 68.0782
12.6302 74.3691
12.6751 79.6266
12.72 72.4348
12.7649 70.6806
12.8098 71.2449
12.8547 72.5437
12.8996 74.1935
12.9445 75.49
12.9894 77.3137
13.0343 78.9061
13.0792 83.1338
13.1242 93.9548
13.1691 126.816
13.214 163.732
13.2589 225.951
13.3038 327.553
13.3487 425.158
13.3937 324.138
13.4386 153.962
13.4835 116.401
13.5285 137.294
13.5734 166.819
13.6183 227.801
13.6633 316.76
13.7082 355.206
13.7531 236.243
13.7981 114.155
13.843 86.8312
13.888 83.5355
13.9329 80.7415
13.9779 79.2707
14.0228 77.6827
14.0678 76.1327
14.1127 75.652
14.1577 75.6149
14.2027 74.5631
14.2476 73.3131
14.2926 73.0468
14.3376 74.0282
14.3825 73.0501
14.4275 71.7329
14.4725 71.4538
14.5175 71.8841
14.5624 71.8555
14.6074 73.5388
14.6524 74.3809
14.6974 73.5418
14.7424 75.5056
14.7874 84.5494
14.8324 98.5131
14.8774 115.286
14.9224 145.391
14.9674 190.099
15.0124 219.502
15.0574 175.348
15.1024 105.849
15.1474 77.4781
15.1924 73.741
15.2374 74.0551
15.2824 73.1631
15.3274 70.9818
15.3725 69.8544
15.4175 69.2232
15.4625 68.9815
15.5076 69.1027
15.5526 69.0953
15.5976 68.7597
15.6426 70.1893
15.6877 77.1606
15.7327 88.1115
15.7778 100.245
15.8228 121.582
15.8679 155.712
15.9129 189.064
15.958 177.191
16.003 116.398
16.0481 74.8209
16.0931 67.4621
16.1382 65.4414
16.1833 63.2812
16.2283 61.7388
16.2734 60.7353
16.3185 60.8522
16.3636 61.3478
16.4086 60.0454
16.4537 58.4299
16.4988 57.9047
16.5439 57.7772
16.589 57.4919
16.6341 57.0983
16.6792 56.8654
16.7243 57.172
16.7694 57.0862
16.8145 57.2008
16.8596 57.6079
16.9047 58.7986
16.9498 59.0616
16.9949 57.9253
17.04 58.4674
17.0851 59.8528
17.1302 62.2722
17.1754 64.7462
17.2205 68.1883
17.2656 73.9708
17.3108 82.0119
17.3559 85.3587
17.401 77.4604
17.4462 67.0458
17.4913 62.2244
17.5365 61.5786
17.5815 61.7813
17.6268 61.9802
17.6718 62.7921
17.7171 63.4146
17.7622 63.9567
17.8074 64.5544
17.8525 67.4129
17.8977 72.8259
17.9428 79.3618
17.9881 85.7054
18.0331 98.0182
18.0784 115.375
18.1237 136.227
18.1688 142.064
18.214 119.505
18.2591 94.7918
18.3044 90.8875
18.3495 97.9673
18.3948 106.775
18.4399 102.927
18.4852 85.5294
18.5303 71.1327
18.5756 65.3672
18.6207 64.0763
18.666 62.9219
18.7112 62.3528
18.7565 61.6038
18.8016 61.1976
18.8469 60.5157
18.892 60.2351
18.9374 59.6684
18.9825 59.4883
19.0278 59.2185
19.073 59.3576
19.1183 59.9149
19.1635 61.2833
19.2088 62.6441
19.254 64.1739
19.2993 67.1371
19.3447 72.147
19.3898 77.5747
19.4352 76.9411
19.4804 69.2829
19.5257 60.9261
19.5709 56.922
19.6163 56.1895
19.6615 55.981
19.7068 55.7227
19.752 55.6377
19.7974 55.9223
19.8426 57.1085
19.888 58.0423
19.9332 58.832
19.9786 60.5187
20.0238 63.2251
20.0692 67.7573
20.1144 71.5346
20.1598 72.7096
20.205 67.9648
20.2504 64.6207
20.2957 64.7461
20.3411 66.9038
20.3863 67.2309
20.4318 62.9044
20.477 57.3839
20.5224 54.2737
20.5677 53.2963
20.6131 52.4615
20.6586 51.9288
20.7038 51.7359
20.7493 51.2717
20.7945 51.091
20.84 50.8843
20.8853 50.8961
20.9307 50.5291
20.976 50.9768
21.0215 50.8315
21.0668 51.1933
21.1122 51.5104
21.1575 51.8118
21.203 52.4292
21.2483 53.0824
21.2938 53.3897
21.3391 52.5203
21.3846 51.3798
21.4299 50.6496
21.4754 50.4039
21.5207 50.6773
21.5662 50.9375
21.6116 51.5917
21.6571 52.3415
21.7024 53.5043
21.7479 54.7114
21.7933 56.8971
21.8388 59.8735
21.8843 63.2164
21.9297 66.0938
21.9752 66.9838
22.0206 63.7654
22.0661 59.2242
22.1115 57.7447
22.157 57.9535
22.2024 57.2176
22.248 54.5944
22.2933 52.4438
22.3389 51.3032
22.3843 51.0717
22.4299 50.9785
22.4753 50.9893
22.5208 50.737
22.5662 50.5758
22.6118 50.6917
22.6572 51.1209
22.7028 51.5602
22.7483 52.0916
22.7939 52.6641
22.8393 53.7725
22.8849 55.3756
22.9303 57.037
22.9759 58.9524
23.0214 59.9954
23.067 58.0574
23.1126 54.6828
23.1581 51.8978
23.2037 51.2486
23.2492 51.0681
23.2948 51.1994
23.3403 51.5605
23.3859 51.9579
23.4314 52.7009
23.477 53.9133
23.5225 55.6455
23.5682 57.8452
23.6137 59.4743
23.6593 58.7511
23.7048 55.3454
23.7505 51.3644
23.796 48.9671
23.8417 48.0774
23.8872 47.5869
23.9329 47.1418
23.9784 46.9138
24.0241 46.549
24.0697 46.5334
24.1154 46.0458
24.1609 45.8838
24.2066 45.6579
24.2522 45.5267
24.2979 45.4333
24.3434 45.1627
24.3892 44.9844
24.4349 44.9919
24.4805 44.7839
24.5262 44.8343
24.5718 44.8161
24.6175 44.7684
24.6631 44.6778
24.7089 44.2066
24.7545 44.1495
24.8002 44.0043
24.8458 44.0736
24.8916 44.0785
24.9372 44.0517
24.983 44.2846
25.0286 44.573
25.0744 44.9354
25.12 45.4826
25.1658 45.9509
25.2114 46.3785
25.2572 46.4996
25.3029 46.3519
25.3487 46.5097
25.3943 46.3959
25.4402 45.6903
25.4858 44.8136
25.5316 43.6315
25.5773 42.6838
25.6231 42.7174
25.669 42.2294
25.7147 42.3634
25.7605 42.1426
25.8062 42.272
25.8521 42.3815
25.8977 42.3188
25.9436 42.4468
25.9893 42.6106
26.0352 43.0429
26.0809 43.0886
26.1268 43.3526
26.1725 43.2546
26.2184 42.7424
26.2641 42.2131
26.31 41.8324
26.3557 42.0
26.4017 41.7228
26.4474 42.1587
26.4933 42.2797
26.5391 42.7903
26.585 43.0839
26.6308 43.5876
26.6767 43.6955
26.7225 43.7495
26.7684 43.3219
26.8142 42.6627
26.8601 42.2446
26.9059 41.7146
26.9519 41.4163
26.9979 41.04
27.0437 40.6901
27.0896 40.4032
27.1354 40.4292
27.1814 40.1772
27.2272 40.1495
27.2732 40.1925
27.3191 40.0162
27.3651 39.9662
27.4109 39.9387
27.4569 40.0018
27.5027 40.1048
27.5488 40.2878
27.5946 40.0019
27.6407 39.955
27.6865 39.7597
27.7326 39.4762
27.7784 39.5399
27.8245 39.4982
27.8703 39.546
27.9164 39.8669
27.9623 39.8468
28.0084 40.2207
28.0543 40.3752
28.1003 40.5416
28.1462 40.4434
28.1923 40.1869
28.2384 39.6401
28.2843 39.341
28.3304 38.8645
28.3764 38.4254
28.4225 38.0972
28.4684 37.9542
28.5145 37.4544
28.5605 37.3666
28.6066 37.087
28.6526 37.0888
28.6987 37.0471
28.7447 36.9718
28.7908 36.8963
28.8368 36.8107
28.8829 36.8976
28.9289 36.7859
28.9751 36.5776
29.0211 36.4944
29.0673 36.1518
29.1133 36.0561
29.1595 35.8192
29.2055 35.7671
29.2517 35.7242
29.2977 35.7315
29.3439 35.5585
29.3899 35.6328
29.4361 35.6692
29.4824 35.409
29.5284 35.2685
29.5746 34.8828
29.6207 34.6516
29.6669 34.4207
29.713 34.3715
29.7593 34.2428
29.8053 34.331
29.8516 34.2435
29.8977 34.2105
29.9439 34.0253
29.99 33.9156
30.0363 33.8153
30.0824 33.814
30.1287 33.7718
30.1748 33.7343
30.2211 33.7718
30.2673 33.5952
30.3136 33.746
30.3597 33.6367
30.406 33.5583
30.4522 33.4824
30.4985 33.3531
30.5447 33.4821
30.591 33.5127
30.6372 33.4926
30.6835 33.4149
30.7297 33.4523
30.7761 33.4313
30.8224 33.3493
30.8686 33.1829
30.915 33.0112
30.9612 32.7706
31.0076 32.7005
31.0538 32.5283
31.1002 32.3408
31.1464 32.2321
31.1928 32.3542
31.2391 32.353
31.2855 32.1223
31.3317 32.2072
31.3781 32.1801
31.4244 32.1655
31.4708 31.9805
31.5171 31.9433
31.5636 32.0984
31.6098 31.838
31.6563 31.6256
31.7026 31.5425
31.7491 31.3751
31.7953 31.3934
31.8418 31.3452
31.8881 31.506
31.9346 31.3919
31.9809 31.3645
32.0275 31.1706
32.074 31.0713
32.1203 30.9473
32.1668 30.8287
32.2132 30.6626
32.2597 30.463
32.306 30.4612
32.3526 30.1401
32.399 30.1946
32.4455 30.0778
32.4919 29.9435
32.5385 29.808
32.5848 29.6902
32.6314 29.7308
32.6778 29.564
32.7244 29.4341
32.7708 29.3667
32.8174 29.3631
32.8638 29.1337
32.9104 29.3139
32.9569 29.2122
33.0035 29.0646
33.0499 28.9816
33.0966 28.994
33.143 28.9111
33.1897 28.8056
33.2361 28.7044
33.2828 28.7499
33.3293 28.5404
33.3759 28.4669
33.4226 28.4126
33.4691 28.2448
33.5158 28.1606
33.5623 27.971
33.609 27.9215
33.6555 27.7767
33.7022 27.718
33.7487 27.6262
33.7954 27.5317
33.842 27.4493
33.8887 27.4915
33.9353 27.4119
33.982 27.2893
34.0286 27.2353
34.0753 27.0372
34.1219 26.9559
34.1687 26.9056
34.2152 26.8426
34.262 26.7193
34.3086 26.6715
34.3554 26.5658
34.402 26.4969
34.4488 26.4263
34.4954 26.4142
34.5422 26.2827
34.5889 26.0461
34.6357 26.0038
34.6825 25.8698
34.7292 25.9016
34.776 25.82
34.8227 25.756
34.8695 25.7199
34.9162 25.6339
34.9631 25.5755
35.0098 25.4795
35.0566 25.3519
35.1033 25.2821
35.1502 25.2704
35.1969 25.1521
35.2438 25.1731
35.2906 25.1686
35.3375 25.0187
35.3842 25.0143
35.4311 24.9889
35.4779 24.9552
35.5248 24.9176
35.5716 24.6761
35.6185 24.6887
35.6653 24.6038
35.7123 24.4449
35.759 24.3857
35.806 24.3571
35.8528 24.2334
35.8998 24.1801
35.9468 24.0736
35.9936 23.9797
36.0406 23.9379
36.0874 24.0043
36.1345 23.8873
36.1813 23.7363
36.2283 23.6475
36.2752 23.5605
36.3222 23.5849
36.3691 23.4343
36.4161 23.369
36.463 23.3495
36.5101 23.3467
36.557 23.2106
36.6041 23.1063
36.651 23.1576
36.6981 23.0067
36.745 22.9444
36.7921 22.9032
36.839 22.7775
36.8861 22.6956
36.9331 22.7132
36.9802 22.6356
37.0272 22.5137
37.0743 22.3578
37.1213 22.3406
37.1684 22.3255
37.2154 22.1792
37.2626 22.1481
37.3098 22.1215
37.3568 22.0143
37.404 21.9738
37.451 21.9191
37.4982 21.7411
37.5452 21.7327
37.5924 21.6717
37.6395 21.7112
37.6867 21.5586
37.7337 21.4498
37.781 21.3851
37.8281 21.3538
37.8753 21.2449
37.9224 21.1922
37.9697 21.0037
38.0168 21.0674
38.064 21.0296
38.1111 21.0282
38.1584 20.8252
38.2056 20.7231
38.2529 20.6911
38.3 20.684
38.3473 20.6455
38.3945 20.5796
38.4418 20.5133
38.489 20.4104
38.5363 20.282
38.5837 20.2719
38.6309 20.2214
38.6782 20.1994
38.7254 20.0176
38.7728 20.0317
38.82 19.9038
38.8674 19.923
38.9146 19.8727
38.9621 19.7394
39.0093 19.7349
39.0567 19.6343
39.104 19.6239
39.1514 19.539
39.1987 19.4789
39.2461 19.4731
39.2934 19.3566
39.3409 19.2041
39.3882 19.1169
39.4356 19.1651
39.483 19.0541
39.5304 18.9935
39.5778 19.0237
39.6253 18.9717
39.6726 18.8734
39.7201 18.8509
39.7675 18.711
39.815 18.6574
39.8624 18.6234
39.9099 18.5793
39.9575 18.4771
40.0049 18.41
40.0525 18.3613
40.0999 18.3058
40.1474 18.2838
40.1949 18.249
40.2425 18.0805
40.2899 18.0275
40.3375 18.1064
40.385 17.9967
40.4326 17.8931
40.48 17.8477
40.5277 17.8251
40.5752 17.7391
40.6228 17.6014
40.6703 17.6713
40.718 17.5789
40.7655 17.5436
40.8132 17.4559
40.8607 17.4597
40.9084 17.3957
40.9559 17.3235
41.0036 17.2634
41.0512 17.1899
41.0989 17.171
41.1465 17.0783
41.1942 17.0334
41.242 16.9145
41.2896 16.915
41.3373 16.8171
41.3849 16.7592
41.4327 16.7702
41.4803 16.658
41.5281 16.6254
41.5758 16.5663
41.6236 16.5108
41.6712 16.4676
41.7191 16.4047
41.7667 16.3248
41.8146 16.2882
41.8622 16.2191
41.9101 16.1741
41.9578 16.1036
42.0057 16.0631
42.0534 16.0554
42.1013 16.0029
42.149 15.9038
42.1969 15.8555
42.2446 15.8166
42.2925 15.7894
42.3403 15.6968
42.3882 15.639
42.436 15.63
42.4839 15.5046
42.5319 15.5033
42.5797 15.426
42.6277 15.3959
42.6755 15.3103
42.7235 15.2633
42.7713 15.2342
42.8193 15.2029
42.8671 15.1366
42.9152 15.0882
42.963 14.992
43.0111 14.9576
43.0589 14.8969
43.107 14.8963
43.1549 14.8071
43.2029 14.7479
43.2508 14.706
43.2989 14.6581
43.3468 14.6079
43.3949 14.5538
43.4429 14.5436
43.491 14.4629
43.5389 14.4158
43.5871 14.3489
43.635 14.2992
43.6832 14.2308
43.7312 14.1952
43.7793 14.1894
43.8273 14.1197
43.8755 14.079
43.9237 14.0545
43.9717 14.0034
44.0199 13.9339
44.068 13.894
44.1162 13.8281
44.1642 13.7936
44.2125 13.7175
44.2606 13.6629
44.3088 13.6332
44.3569 13.6022
44.4052 13.5627
44.4533 13.5127
44.5016 13.3947
44.5497 13.4158
44.598 13.34
44.6461 13.3226
44.6945 13.2495
44.7426 13.2201
44.791 13.1602
44.8391 13.1313
44.8875 13.0799
44.9357 13.0398
44.984 12.9585
45.0322 12.9357
45.0806 12.8791
45.1288 12.8456
45.1773 12.8329
45.2257 12.7496
45.2739 12.6804
45.3224 12.6147
45.3706 12.5685
45.4191 12.5476
45.4673 12.5342
45.5158 12.4937
45.5641 12.4086
45.6126 12.4251
45.6609 12.354
45.7094 12.3143
45.7577 12.2631
45.8063 12.1561
45.8546 12.1597
45.9031 12.1063
45.9515 12.1029
46.0001 12.0365
46.0484 12.0027
46.097 11.9573
46.1454 11.9241
46.194 11.8817
46.2424 11.8296
46.291 11.7698
46.3395 11.7739
46.3881 11.6904
46.4365 11.6712
46.4852 11.6209
46.5337 11.5562
46.5823 11.5207
46.631 11.4247
46.6795 11.4406
46.7282 11.368
46.7767 11.3703
46.8254 11.3347
46.8739 11.2654
46.9226 11.2422
46.9712 11.189
47.0199 11.1242
47.0685 11.1229
47.1173 11.0969
47.1658 10.9849
47.2146 11.0068
47.2632 10.9158
47.312 10.9049
47.3606 10.8659
47.4095 10.8301
47.4581 10.7552
47.5069 10.6928
47.5556 10.683
47.6044 10.6429
47.6531 10.6316
47.702 10.6024
47.7507 10.5595
47.7996 10.5335
47.8483 10.474
47.8972 10.4125
47.9461 10.4007
47.9948 10.3524
48.0438 10.3303
48.0925 10.2785
48.1415 10.2602
48.1902 10.1869
48.2392 10.1598
48.288 10.1405
48.337 10.1063
48.3858 10.0588
48.4348 10.0226
48.4837 9.97165
48.5327 9.96277
48.5815 9.89622
48.6306 9.89985
48.6795 9.86217
48.7285 9.81493
48.7774 9.80139
48.8265 9.73968
48.8754 9.70607
48.9245 9.65885
48.9734 9.63296
49.0226 9.56329
49.0715 9.53887
49.1206 9.50162
49.1696 9.50661
49.2188 9.45512
49.2679 9.39294
49.3169 9.37694
49.3661 9.33219
49.4151 9.30608
49.4643 9.26751
49.5134 9.22705
49.5626 9.14347
49.6117 9.20884
49.6609 9.11351
49.71 9.07142
49.7592 9.05181
49.8083 8.98921
49.8576 9.00759
49.9067 8.92822
49.956 8.88737
50.0052 8.90065
50.0545 8.85874
50.1036 8.8179
50.153 8.75822
50.2022 8.74132
50.2515 8.67214
50.3007 8.64136
50.3501 8.64977
50.3993 8.58155
50.4487 8.55745
50.498 8.53013
50.5474 8.51079
50.5966 8.46734
50.6461 8.42114
50.6955 8.42038
50.7448 8.38229
50.7943 8.34261
50.8436 8.33794
50.8931 8.25718
50.9424 8.23355
50.9919 8.20787
51.0413 8.1789
51.0908 8.17404
51.1402 8.10225
51.1897 8.09444
51.2391 8.06398
51.2887 8.02091
51.3381 7.96158
51.3877 7.97581
51.4371 7.90732
51.4867 7.89234
51.5362 7.87486
51.5858 7.8269
51.6353 7.79167
51.6849 7.80021
51.7344 7.72102
51.7841 7.71058
51.8336 7.67682
51.8833 7.64362
51.9328 7.58886
51.9826 7.53143
52.0323 7.53836
52.0818 7.49088
52.1316 7.47149
52.1812 7.44955
52.231 7.39416
52.2806 7.37537
52.3304 7.40185
52.38 7.3098
52.4298 7.30219
52.4794 7.28213
52.5293 7.24182
52.5789 7.226
52.6288 7.16732
52.6785 7.11601
52.7284 7.14592
52.7781 7.1071
52.828 7.05746
52.8777 6.99614
52.9276 6.98099
52.9774 6.95952
53.0273 6.95749
53.0771 6.88107
53.1271 6.84926
53.1769 6.81996
53.2269 6.78726
53.2767 6.79308
53.3267 6.79138
53.3765 6.72342
53.4266 6.72158
53.4766 6.71564
53.5265 6.63703
53.5765 6.64274
53.6264 6.53824
53.6765 6.55175
53.7264 6.52828
53.7765 6.52063
53.8265 6.47902
53.8766 6.42551
53.9266 6.42542
53.9767 6.37987
54.0267 6.34802
54.0769 6.3654
54.1269 6.30671
54.1771 6.22887
54.2271 6.24172
54.2773 6.21596
54.3274 6.1841
54.3776 6.14026
54.4277 6.12191
54.478 6.11113
54.528 6.0549
54.5783 5.99829
54.6285 5.91954
54.6788 5.90606
54.7289 5.84909
54.7792 5.78188
54.8296 5.81107
54.8798 5.68397
54.9301 5.68424
54.9803 5.73095
55.0307 5.66575
55.0809 5.57793
55.1314 5.54467
55.1816 5.47838
55.232 5.40611
55.2823 5.4106
55.3328 5.35827
55.383 5.29507
55.4335 5.23985
55.4838 5.14707
55.5344 5.12314
55.5847 5.11534
55.6352 5.05309
55.6856 5.06329
55.7361 4.9777