File: XRD/Ni3Fe_FD0527.xy
TT I
1.27165 7.23365
1.31627 6.25171
1.36089 6.99563
1.40551 5.60038
1.45013 5.94715
1.49476 6.03403
1.53938 5.76178
1.584 5.44596
1.62863 5.64032
1.67325 5.04675
1.71787 5.74105
1.7625 5.03577
1.80712 4.91182
1.85174 4.88745
1.89636 4.56042
1.94099 4.8465
1.98562 5.45841
2.03025 4.60431
2.07487 4.48304
2.11949 4.87003
2.16411 5.19226
2.20874 15.5161
2.25338 27.7503
2.298 6.76337
2.34263 5.0949
2.38725 6.06913
2.43188 6.08537
2.4765 6.03453
2.52115 6.5541
2.56577 7.31049
2.6104 8.10453
2.65503 7.89405
2.69965 8.13239
2.7443 8.16685
2.78893 7.42617
2.83356 8.33168
2.87818 8.4025
2.92281 8.72311
2.96744 9.3853
3.01209 10.0955
3.05672 11.3236
3.10135 12.6462
3.14599 13.0472
3.19062 14.264
3.23527 15.5509
3.2799 16.0669
3.32454 17.0106
3.36917 18.4584
3.4138 19.1671
3.45844 19.7095
3.50309 20.9901
3.54773 22.0939
3.59237 24.2426
3.637 110.171
3.68164 68.7118
3.7263 26.9955
3.77094 26.4527
3.81558 27.0688
3.86022 27.8761
3.90486 28.9839
3.9495 30.3939
3.99416 31.2378
4.0388 32.7061
4.08344 34.4657
4.12809 35.2583
4.17273 37.4146
4.21738 44.8275
4.26204 299.372
4.30669 267.303
4.35133 50.8393
4.39598 45.3319
4.44063 56.2614
4.4853 71.4035
4.52995 51.1759
4.5746 52.0112
4.61925 54.1291
4.6639 56.0432
4.70855 58.4252
4.75322 61.5627
4.79788 63.9703
4.84253 67.9654
4.88719 71.7353
4.93184 75.2003
4.97652 81.1468
5.02118 87.3234
5.06583 95.2542
5.11049 107.059
5.15515 189.687
5.19981 375.203
5.24449 2756.32
5.28916 12019.7
5.33382 3350.41
5.37848 205.832
5.42315 134.181
5.46783 116.189
5.5125 107.7
5.55716 103.439
5.60183 100.114
5.6465 98.0979
5.69117 95.3954
5.73586 93.3021
5.78053 92.5307
5.8252 91.1013
5.86988 92.852
5.91455 95.177
5.95924 103.577
6.00392 207.856
6.0486 954.283
6.09328 4116.21
6.13795 3498.46
6.18263 299.131
6.22733 97.3906
6.27201 85.7162
6.3167 110.668
6.36138 84.4708
6.40606 70.182
6.45075 68.352
6.49545 66.0859
6.54014 64.5005
6.58483 64.4241
6.62952 63.7389
6.67421 101.703
6.71892 168.06
6.76361 72.2746
6.8083 59.5823
6.853 58.2877
6.89769 57.7138
6.94239 57.3129
6.98711 56.699
7.03181 56.334
7.07651 56.1858
7.12121 56.0331
7.16591 56.2901
7.21063 56.4934
7.25533 74.4909
7.30004 213.029
7.34475 103.05
7.38945 57.9035
7.43416 55.8803
7.47889 55.0489
7.5236 56.073
7.56831 56.0028
7.61303 58.4527
7.65774 59.3669
7.70247 56.9063
7.74719 57.059
7.79191 57.2904
7.83663 57.5761
7.88135 58.4694
7.92607 59.1393
7.97081 60.5165
8.01553 61.3017
8.06026 62.7032
8.10498 64.3272
8.14971 76.0934
8.19446 74.3405
8.23919 69.9276
8.28392 72.4047
8.32865 74.5796
8.37339 78.7507
8.41812 86.3322
8.46288 120.929
8.50761 165.423
8.55235 381.975
8.59709 1100.75
8.64183 2133.75
8.68658 1076.1
8.73134 194.825
8.77609 102.319
8.82083 94.3531
8.86558 90.5687
8.91033 91.4244
8.9551 94.4541
8.99985 86.6391
9.04461 84.2377
9.08936 83.2926
9.13412 82.9128
9.17888 83.2299
9.22365 83.9048
9.26841 82.9121
9.31318 83.3947
9.35794 83.1533
9.4027 83.5869
9.44749 84.5615
9.49226 85.2
9.53703 85.6398
9.5818 87.7603
9.62657 93.3359
9.67134 101.993
9.71614 94.7754
9.76091 94.7686
9.80569 96.9453
9.85047 100.753
9.89525 129.602
9.94005 143.984
9.98484 174.901
10.0296 337.105
10.0744 763.224
10.1192 1622.5
10.164 1672.92
10.2088 461.754
10.2536 135.111
10.2984 116.539
10.3432 119.094
10.388 106.565
10.4328 118.213
10.4776 158.787
10.5224 270.026
10.5672 494.615
10.612 541.646
10.6568 226.517
10.7017 100.281
10.7465 87.6955
10.7913 84.3768
10.8361 82.5219
10.8809 79.8085
10.9257 79.7161
10.9706 80.6914
11.0154 75.974
11.0602 73.5268
11.105 72.4699
11.1499 78.46
11.1947 87.9942
11.2395 77.0424
11.2844 72.2323
11.3292 67.9182
11.374 66.9466
11.4189 66.3587
11.4637 65.7467
11.5086 66.3557
11.5534 70.3419
11.5983 66.7984
11.6431 64.4425
11.688 63.703
11.7328 63.7128
11.7777 63.656
11.8225 63.2387
11.8674 63.0632
11.9122 63.5048
11.9571 63.4721
12.002 64.2553
12.0468 68.109
12.0917 79.4604
12.1366 102.551
12.1814 147.154
12.2263 203.298
12.2712 178.177
12.3161 103.917
12.3609 73.3194
12.4058 65.8981
12.4507 65.1663
12.4956 65.0814
12.5405 65.4483
12.5853 66.5542
12.6302 75.8944
12.6751 82.9901
12.72 71.5448
12.7649 68.6988
12.8098 69.1347
12.8547 70.2902
12.8996 71.4931
12.9445 72.6223
12.9894 74.493
13.0343 76.1657
13.0792 79.1956
13.1242 88.0072
13.1691 112.035
13.214 146.425
13.2589 226.57
13.3038 350.37
13.3487 436.784
13.3937 287.735
13.4386 132.078
13.4835 106.433
13.5285 120.249
13.5734 155.772
13.6183 235.408
13.6633 336.074
13.7082 348.833
13.7531 202.187
13.7981 103.464
13.843 82.8645
13.888 80.2534
13.9329 78.086
13.9779 76.6132
14.0228 75.1173
14.0678 73.9033
14.1127 73.4522
14.1577 73.285
14.2027 72.599
14.2476 71.1963
14.2926 71.4418
14.3376 72.9321
14.3825 71.2793
14.4275 69.5878
14.4725 69.3398
14.5175 69.5829
14.5624 69.6332
14.6074 72.3578
14.6524 72.93
14.6974 71.2599
14.7424 72.3138
14.7874 78.7084
14.8324 88.9092
14.8774 108.835
14.9224 147.282
14.9674 198.052
15.0124 218.925
15.0574 158.634
15.1024 95.6218
15.1474 73.8205
15.1924 71.6086
15.2374 72.3943
15.2824 71.7037
15.3274 69.1206
15.3725 67.4427
15.4175 67.0598
15.4625 66.7977
15.5076 67.0938
15.5526 66.9408
15.5976 66.4303
15.6426 67.3324
15.6877 72.4241
15.7327 79.764
15.7778 93.8175
15.8228 121.917
15.8679 164.344
15.9129 194.38
15.958 164.385
16.003 103.496
16.0481 70.5467
16.0931 66.0255
16.1382 63.8611
16.1833 61.4217
16.2283 59.8656
16.2734 59.0987
16.3185 59.7749
16.3636 60.7183
16.4086 58.7301
16.4537 56.8695
16.4988 56.2456
16.5439 56.058
16.589 55.788
16.6341 55.4159
16.6792 55.0036
16.7243 55.4511
16.7694 55.8027
16.8145 55.4514
16.8596 55.9991
16.9047 57.9851
16.9498 58.1118
16.9949 56.5558
17.04 56.489
17.0851 57.4371
17.1302 59.3161
17.1754 62.2335
17.2205 66.4821
17.2656 74.0662
17.3108 83.022
17.3559 83.1329
17.401 73.1265
17.4462 63.7383
17.4913 59.835
17.5365 59.7435
17.5815 59.7905
17.6268 60.0309
17.6718 60.9943
17.7171 61.6393
17.7622 61.9776
17.8074 62.4704
17.8525 64.4785
17.8977 68.7069
17.9428 73.8669
17.9881 81.9053
18.0331 97.153
18.0784 117.063
18.1237 137.046
18.1688 135.424
18.214 108.474
18.2591 88.4442
18.3044 89.6601
18.3495 98.8729
18.3948 106.809
18.4399 100.022
18.4852 80.7372
18.5303 67.5159
18.5756 63.0974
18.6207 62.0701
18.666 61.124
18.7112 60.299
18.7565 59.5301
18.8016 59.3101
18.8469 58.7066
18.892 58.4586
18.9374 57.6473
18.9825 57.8529
19.0278 57.5868
19.073 57.645
19.1183 58.0932
19.1635 58.9491
19.2088 60.3198
19.254 62.2202
19.2993 66.4221
19.3447 72.5773
19.3898 76.779
19.4352 73.9894
19.4804 64.7767
19.5257 58.0035
19.5709 54.8817
19.6163 54.611
19.6615 54.2875
19.7068 53.7907
19.752 53.8251
19.7974 54.0611
19.8426 54.7868
19.888 55.6425
19.9332 56.7184
19.9786 59.1402
20.0238 61.9326
20.0692 66.8518
20.1144 70.1804
20.1598 69.6375
20.205 64.5711
20.2504 62.4825
20.2957 63.5482
20.3411 65.9273
20.3863 65.3762
20.4318 59.8404
20.477 54.7916
20.5224 52.5781
20.5677 51.7596
20.6131 50.8817
20.6586 50.4266
20.7038 50.1415
20.7493 49.7428
20.7945 49.4713
20.84 49.3376
20.8853 49.1753
20.9307 49.0507
20.976 49.1713
21.0215 49.1318
21.0668 49.6435
21.1122 49.9372
21.1575 50.6662
21.203 51.1438
21.2483 51.6854
21.2938 52.1356
21.3391 50.8902
21.3846 49.8001
21.4299 49.0832
21.4754 48.9098
21.5207 49.1055
21.5662 49.0856
21.6116 49.664
21.6571 50.3509
21.7024 51.2849
21.7479 52.8055
21.7933 55.4229
21.8388 58.6124
21.8843 62.4159
21.9297 64.9995
21.9752 64.6965
22.0206 60.8711
22.0661 57.3814
22.1115 56.5632
22.157 56.617
22.2024 55.2435
22.248 52.3877
22.2933 50.75
22.3389 49.7158
22.3843 49.773
22.4299 49.5908
22.4753 49.6035
22.5208 49.2329
22.5662 48.9232
22.6118 49.231
22.6572 49.3403
22.7028 49.8659
22.7483 50.1081
22.7939 50.8407
22.8393 52.236
22.8849 54.0489
22.9303 56.2524
22.9759 58.0604
23.0214 58.3617
23.067 55.6431
23.1126 52.2612
23.1581 49.9429
23.2037 49.37
23.2492 49.2307
23.2948 49.3643
23.3403 49.5896
23.3859 50.3621
23.4314 51.1103
23.477 52.8262
23.5225 54.7268
23.5682 56.9322
23.6137 58.5909
23.6593 56.7351
23.7048 52.7401
23.7505 49.2913
23.796 47.366
23.8417 46.6266
23.8872 46.2143
23.9329 45.8184
23.9784 45.4331
24.0241 45.1575
24.0697 44.956
24.1154 44.6455
24.1609 44.5781
24.2066 44.3028
24.2522 44.3476
24.2979 44.0396
24.3434 43.8492
24.3892 43.6896
24.4349 43.7129
24.4805 43.3301
24.5262 43.4479
24.5718 43.4731
24.6175 43.4365
24.6631 43.3804
24.7089 43.0115
24.7545 42.8348
24.8002 42.7933
24.8458 42.6039
24.8916 42.4013
24.9372 42.6771
24.983 42.9338
25.0286 43.3305
25.0744 43.6887
25.12 43.9789
25.1658 44.7126
25.2114 45.0303
25.2572 45.1325
25.3029 45.2589
25.3487 45.3778
25.3943 45.2021
25.4402 44.0917
25.4858 43.202
25.5316 42.0473
25.5773 41.4157
25.6231 41.3217
25.669 41.1526
25.7147 40.8974
25.7605 40.9579
25.8062 40.9876
25.8521 41.0546
25.8977 41.0563
25.9436 41.2127
25.9893 41.2355
26.0352 41.7611
26.0809 41.8699
26.1268 42.1511
26.1725 41.8947
26.2184 41.2247
26.2641 40.6931
26.31 40.5271
26.3557 40.6579
26.4017 40.4867
26.4474 40.8469
26.4933 41.2203
26.5391 41.647
26.585 41.807
26.6308 42.3383
26.6767 42.4986
26.7225 42.4913
26.7684 41.9976
26.8142 41.3923
26.8601 41.0273
26.9059 40.5747
26.9519 40.007
26.9979 39.7603
27.0437 39.3701
27.0896 39.2649
27.1354 39.3002
27.1814 38.9918
27.2272 39.1109
27.2732 39.0209
27.3191 38.8517
27.3651 38.9465
27.4109 38.8176
27.4569 38.9141
27.5027 38.8787
27.5488 39.0317
27.5946 38.9027
27.6407 38.4454
27.6865 38.5314
27.7326 38.2728
27.7784 38.2628
27.8245 38.2802
27.8703 38.3402
27.9164 38.698
27.9623 38.5967
28.0084 39.0554
28.0543 39.4705
28.1003 39.4182
28.1462 39.3462
28.1923 38.8442
28.2384 38.527
28.2843 38.1103
28.3304 37.5417
28.3764 37.1946
28.4225 36.7932
28.4684 36.6967
28.5145 36.4091
28.5605 36.3446
28.6066 36.1513
28.6526 36.1526
28.6987 36.1198
28.7447 35.879
28.7908 35.8414
28.8368 35.8382
28.8829 35.7792
28.9289 35.7729
28.9751 35.6021
29.0211 35.3437
29.0673 35.0753
29.1133 34.9853
29.1595 34.8435
29.2055 34.8661
29.2517 34.7152
29.2977 34.6205
29.3439 34.7147
29.3899 34.7271
29.4361 34.554
29.4824 34.3147
29.5284 34.2413
29.5746 33.7574
29.6207 33.4552
29.6669 33.5567
29.713 33.5738
29.7593 33.3117
29.8053 33.3554
29.8516 33.18
29.8977 33.203
29.9439 33.0149
29.99 32.9745
30.0363 32.8245
30.0824 32.9033
30.1287 32.832
30.1748 32.9369
30.2211 32.8911
30.2673 32.6828
30.3136 32.7287
30.3597 32.7238
30.406 32.5831
30.4522 32.4735
30.4985 32.3885
30.5447 32.5678
30.591 32.4265
30.6372 32.4701
30.6835 32.5948
30.7297 32.5628
30.7761 32.528
30.8224 32.2345
30.8686 32.231
30.915 32.0485
30.9612 31.9854
31.0076 31.7113
31.0538 31.5403
31.1002 31.4909
31.1464 31.3492
31.1928 31.2607
31.2391 31.3023
31.2855 31.241
31.3317 31.2046
31.3781 31.2861
31.4244 31.2544
31.4708 31.1171
31.5171 31.1007
31.5636 31.2142
31.6098 30.9135
31.6563 30.7431
31.7026 30.6038
31.7491 30.473
31.7953 30.5137
31.8418 30.4815
31.8881 30.5592
31.9346 30.4744
31.9809 30.3996
32.0275 30.2325
32.074 30.1985
32.1203 29.9871
32.1668 29.8578
32.2132 29.8131
32.2597 29.6136
32.306 29.4955
32.3526 29.3455
32.399 29.2481
32.4455 29.049
32.4919 29.0024
32.5385 28.9658
32.5848 28.9123
32.6314 28.9075
32.6778 28.7522
32.7244 28.591
32.7708 28.4881
32.8174 28.499
32.8638 28.3327
32.9104 28.3713
32.9569 28.4389
33.0035 28.249
33.0499 28.1426
33.0966 28.0732
33.143 28.0842
33.1897 27.9729
33.2361 27.9611
33.2828 27.9261
33.3293 27.7457
33.3759 27.633
33.4226 27.5194
33.4691 27.5288
33.5158 27.3348
33.5623 27.2371
33.609 27.0823
33.6555 26.9507
33.7022 26.8456
33.7487 26.8084
33.7954 26.8232
33.842 26.6381
33.8887 26.6022
33.9353 26.4847
33.982 26.4503
34.0286 26.3467
34.0753 26.359
34.1219 26.1628
34.1687 26.1016
34.2152 26.0828
34.262 25.9189
34.3086 25.8205
34.3554 25.7552
34.402 25.7179
34.4488 25.5339
34.4954 25.55
34.5422 25.5136
34.5889 25.3564
34.6357 25.2307
34.6825 25.1446
34.7292 25.0973
34.776 25.0068
34.8227 25.0114
34.8695 24.8459
34.9162 24.9075
34.9631 24.8067
35.0098 24.7998
35.0566 24.674
35.1033 24.5954
35.1502 24.6648
35.1969 24.4706
35.2438 24.4282
35.2906 24.3189
35.3375 24.2943
35.3842 24.3107
35.4311 24.1971
35.4779 24.1594
35.5248 24.2671
35.5716 24.0804
35.6185 23.8869
35.6653 23.986
35.7123 23.8569
35.759 23.78
35.806 23.6406
35.8528 23.5193
35.8998 23.4224
35.9468 23.4014
35.9936 23.3909
36.0406 23.2621
36.0874 23.2764
36.1345 23.1303
36.1813 23.1197
36.2283 22.962
36.2752 22.8393
36.3222 22.9858
36.3691 22.7382
36.4161 22.725
36.463 22.6361
36.5101 22.6714
36.557 22.6227
36.6041 22.4494
36.651 22.4865
36.6981 22.3751
36.745 22.3487
36.7921 22.2265
36.839 22.1919
36.8861 22.0682
36.9331 22.0167
36.9802 21.9338
37.0272 21.8767
37.0743 21.7308
37.1213 21.6763
37.1684 21.5862
37.2154 21.6221
37.2626 21.5104
37.3098 21.3751
37.3568 21.3798
37.404 21.3786
37.451 21.2359
37.4982 21.207
37.5452 20.9882
37.5924 21.0385
37.6395 21.0585
37.6867 20.9245
37.7337 20.7783
37.781 20.7957
37.8281 20.7379
37.8753 20.6455
37.9224 20.5639
37.9697 20.5388
38.0168 20.4374
38.064 20.3787
38.1111 20.3103
38.1584 20.2735
38.2056 20.1986
38.2529 20.1712
38.3 20.0902
38.3473 20.0192
38.3945 19.8905
38.4418 19.9365
38.489 19.8055
38.5363 19.7578
38.5837 19.7009
38.6309 19.5469
38.6782 19.585
38.7254 19.4444
38.7728 19.4593
38.82 19.403
38.8674 19.32
38.9146 19.2868
38.9621 19.2465
39.0093 19.0904
39.0567 19.1218
39.104 18.9963
39.1514 18.9488
39.1987 18.8926
39.2461 18.9291
39.2934 18.7695
39.3409 18.6767
39.3882 18.6424
39.4356 18.5772
39.483 18.5142
39.5304 18.4096
39.5778 18.4635
39.6253 18.4052
39.6726 18.2991
39.7201 18.2934
39.7675 18.2064
39.815 18.1439
39.8624 18.0606
39.9099 18.0187
39.9575 17.9872
40.0049 17.9548
40.0525 17.8265
40.0999 17.7293
40.1474 17.78
40.1949 17.7222
40.2425 17.6184
40.2899 17.5981
40.3375 17.5122
40.385 17.5154
40.4326 17.4012
40.48 17.3487
40.5277 17.3686
40.5752 17.1964
40.6228 17.1892
40.6703 17.1412
40.718 17.006
40.7655 17.0655
40.8132 16.8855
40.8607 16.9619
40.9084 16.8331
40.9559 16.8275
41.0036 16.7832
41.0512 16.7344
41.0989 16.6949
41.1465 16.6065
41.1942 16.5664
41.242 16.375
41.2896 16.4479
41.3373 16.2923
41.3849 16.3005
41.4327 16.3074
41.4803 16.1623
41.5281 16.1771
41.5758 16.0461
41.6236 16.0133
41.6712 16.0172
41.7191 15.9175
41.7667 15.9057
41.8146 15.8667
41.8622 15.8064
41.9101 15.75
41.9578 15.6653
42.0057 15.6406
42.0534 15.5954
42.1013 15.494
42.149 15.4767
42.1969 15.4234
42.2446 15.3987
42.2925 15.3258
42.3403 15.2528
42.3882 15.2405
42.436 15.1375
42.4839 15.1157
42.5319 15.0571
42.5797 14.9864
42.6277 14.948
42.6755 14.8857
42.7235 14.8367
42.7713 14.7891
42.8193 14.7473
42.8671 14.7368
42.9152 14.6777
42.963 14.5991
43.0111 14.6005
43.0589 14.5057
43.107 14.4592
43.1549 14.3852
43.2029 14.2823
43.2508 14.363
43.2989 14.2892
43.3468 14.2411
43.3949 14.0985
43.4429 14.1271
43.491 14.051
43.5389 13.9919
43.5871 13.9601
43.635 13.9153
43.6832 13.8748
43.7312 13.784
43.7793 13.7855
43.8273 13.7275
43.8755 13.6515
43.9237 13.632
43.9717 13.6148
44.0199 13.5209
44.068 13.4498
44.1162 13.4326
44.1642 13.4164
44.2125 13.3512
44.2606 13.2937
44.3088 13.2629
44.3569 13.1555
44.4052 13.1657
44.4533 13.1365
44.5016 13.0647
44.5497 13.0154
44.598 13.0094
44.6461 12.9289
44.6945 12.8855
44.7426 12.8468
44.791 12.7647
44.8391 12.8026
44.8875 12.7325
44.9357 12.6689
44.984 12.6258
45.0322 12.5947
45.0806 12.5335
45.1288 12.5049
45.1773 12.4555
45.2257 12.4036
45.2739 12.3574
45.3224 12.3096
45.3706 12.2802
45.4191 12.2341
45.4673 12.1606
45.5158 12.1358
45.5641 12.0503
45.6126 12.0639
45.6609 11.9665
45.7094 11.9692
45.7577 11.9287
45.8063 11.8447
45.8546 11.8443
45.9031 11.7978
45.9515 11.6936
46.0001 11.716
46.0484 11.6928
46.097 11.6593
46.1454 11.6323
46.194 11.5551
46.2424 11.5091
46.291 11.4192
46.3395 11.417
46.3881 11.3762
46.4365 11.3811
46.4852 11.3003
46.5337 11.2205
46.5823 11.2429
46.631 11.1592
46.6795 11.1394
46.7282 11.0858
46.7767 11.0137
46.8254 11.0042
46.8739 10.9484
46.9226 10.9417
46.9712 10.8672
47.0199 10.8335
47.0685 10.7955
47.1173 10.7593
47.1658 10.7124
47.2146 10.6904
47.2632 10.6278
47.312 10.6063
47.3606 10.6033
47.4095 10.4752
47.4581 10.4989
47.5069 10.4343
47.5556 10.4144
47.6044 10.3763
47.6531 10.3163
47.702 10.296
47.7507 10.2646
47.7996 10.211
47.8483 10.1854
47.8972 10.1396
47.9461 10.1493
47.9948 10.0812
48.0438 10.0257
48.0925 10.0133
48.1415 9.95136
48.1902 9.92473
48.2392 9.90819
48.288 9.84897
48.337 9.82143
48.3858 9.75155
48.4348 9.75421
48.4837 9.73824
48.5327 9.71841
48.5815 9.62563
48.6306 9.63426
48.6795 9.57381
48.7285 9.56716
48.7774 9.53404
48.8265 9.48296
48.8754 9.42772
48.9245 9.41775
48.9734 9.32317
49.0226 9.38568
49.0715 9.29493
49.1206 9.29004
49.1696 9.20968
49.2188 9.19704
49.2679 9.16073
49.3169 9.09116
49.3661 9.10601
49.4151 9.05005
49.4643 9.02131
49.5134 8.98045
49.5626 8.92415
49.6117 8.92232
49.6609 8.90184
49.71 8.78755
49.7592 8.79389
49.8083 8.78643
49.8576 8.76953
49.9067 8.65317
49.956 8.66036
50.0052 8.6285
50.0545 8.63065
50.1036 8.56917
50.153 8.5561
50.2022 8.537
50.2515 8.49549
50.3007 8.45396
50.3501 8.40517
50.3993 8.37075
50.4487 8.32283
50.498 8.34495
50.5474 8.32612
50.5966 8.27108
50.6461 8.22079
50.6955 8.18763
50.7448 8.16801
50.7943 8.13449
50.8436 8.09203
50.8931 8.01656
50.9424 8.01774
50.9919 8.00467
51.0413 7.96235
51.0908 7.95919
51.1402 7.93457
51.1897 7.8701
51.2391 7.86619
51.2887 7.80502
51.3381 7.76563
51.3877 7.71792
51.4371 7.70245
51.4867 7.68018
51.5362 7.64921
51.5858 7.61399
51.6353 7.54774
51.6849 7.5574
51.7344 7.54439
51.7841 7.50416
51.8336 7.48166
51.8833 7.43125
51.9328 7.39093
51.9826 7.36852
52.0323 7.33978
52.0818 7.32491
52.1316 7.26673
52.1812 7.26047
52.231 7.21323
52.2806 7.19407
52.3304 7.17147
52.38 7.11095
52.4298 7.09616
52.4794 7.05184
52.5293 7.06063
52.5789 7.00733
52.6288 6.94497
52.6785 6.92238
52.7284 6.94852
52.7781 6.88897
52.828 6.88338
52.8777 6.8017
52.9276 6.83536
52.9774 6.78543
53.0273 6.75639
53.0771 6.77491
53.1271 6.70218
53.1769 6.69562
53.2269 6.65448
53.2767 6.56904
53.3267 6.62133
53.3765 6.55485
53.4266 6.5326
53.4766 6.51699
53.5265 6.45119
53.5765 6.4553
53.6264 6.41644
53.6765 6.37667
53.7264 6.34123
53.7765 6.35131
53.8265 6.31324
53.8766 6.26417
53.9266 6.22703
53.9767 6.21881
54.0267 6.24075
54.0769 6.17052
54.1269 6.11689
54.1771 6.11871
54.2271 6.09782
54.2773 6.01536
54.3274 6.05248
54.3776 6.0016
54.4277 5.955
54.478 5.91554
54.528 5.92664
54.5783 5.8004
54.6285 5.80525
54.6788 5.72525
54.7289 5.69806
54.7792 5.71673
54.8296 5.63151
54.8798 5.60376
54.9301 5.55159
54.9803 5.54801
55.0307 5.53368
55.0809 5.48592
55.1314 5.40808
55.1816 5.38369
55.232 5.35289
55.2823 5.2741
55.3328 5.24265
55.383 5.18073
55.4335 5.15911
55.4838 5.04211
55.5344 5.0437
55.5847 4.98522
55.6352 4.92844
55.6856 4.92921
55.7361 4.90335