File: XRD/Ni3Fe_FD0753.xy
TT I
1.27165 7.21674
1.31627 6.31233
1.36089 6.29813
1.40551 5.77307
1.45013 6.65793
1.49476 5.62376
1.53938 5.98312
1.584 5.51629
1.62863 5.33239
1.67325 5.17809
1.71787 5.06934
1.7625 4.63498
1.80712 4.58884
1.85174 5.06862
1.89636 4.98045
1.94099 5.10806
1.98562 4.88808
2.03025 4.57939
2.07487 4.44406
2.11949 5.03548
2.16411 4.95271
2.20874 14.8957
2.25338 24.7334
2.298 5.73395
2.34263 5.59772
2.38725 6.24953
2.43188 6.5577
2.4765 7.13452
2.52115 7.06721
2.56577 7.41902
2.6104 8.21594
2.65503 7.80353
2.69965 8.29836
2.7443 7.98997
2.78893 8.14565
2.83356 8.4844
2.87818 8.64051
2.92281 9.31922
2.96744 9.92508
3.01209 9.92014
3.05672 10.7776
3.10135 12.1573
3.14599 12.8333
3.19062 14.4674
3.23527 15.5528
3.2799 15.8044
3.32454 16.9251
3.36917 17.828
3.4138 19.0633
3.45844 20.3166
3.50309 21.4004
3.54773 21.7601
3.59237 24.3328
3.637 101.69
3.68164 64.4031
3.7263 26.4775
3.77094 26.3481
3.81558 26.9242
3.86022 27.7633
3.90486 29.0234
3.9495 29.706
3.99416 31.0722
4.0388 32.403
4.08344 33.4445
4.12809 34.7499
4.17273 37.4863
4.21738 43.9842
4.26204 276.451
4.30669 245.443
4.35133 49.1494
4.39598 44.6167
4.44063 55.3109
4.4853 67.9932
4.52995 50.4284
4.5746 50.681
4.61925 52.859
4.6639 55.2016
4.70855 57.6135
4.75322 60.7827
4.79788 63.1621
4.84253 66.6245
4.88719 70.0671
4.93184 73.9403
4.97652 79.4368
5.02118 85.3986
5.06583 92.0394
5.11049 103.073
5.15515 175.496
5.19981 309.264
5.24449 2549.46
5.28916 12915.7
5.33382 2969.03
5.37848 186.357
5.42315 128.374
5.46783 112.724
5.5125 104.903
5.55716 101.345
5.60183 97.7384
5.6465 95.9042
5.69117 93.1981
5.73586 90.9103
5.78053 90.2721
5.8252 89.8218
5.86988 90.3992
5.91455 92.5287
5.95924 98.0714
6.00392 181.712
6.0486 857.495
6.09328 4274.23
6.13795 3186.66
6.18263 237.003
6.22733 92.1215
6.27201 82.5942
6.3167 105.613
6.36138 82.0186
6.40606 68.9845
6.45075 66.7914
6.49545 65.0992
6.54014 63.364
6.58483 63.0507
6.62952 63.0494
6.67421 98.2008
6.71892 156.216
6.76361 70.2615
6.8083 58.3198
6.853 57.2313
6.89769 56.9867
6.94239 56.5325
6.98711 55.9074
7.03181 55.5155
7.07651 55.3248
7.12121 55.1192
7.16591 55.341
7.21063 55.7209
7.25533 72.4541
7.30004 198.828
7.34475 97.0486
7.38945 56.8908
7.43416 54.8971
7.47889 54.3755
7.5236 54.6966
7.56831 55.5075
7.61303 57.087
7.65774 57.4513
7.70247 56.1358
7.74719 56.0404
7.79191 56.3769
7.83663 56.3672
7.88135 57.4378
7.92607 58.6011
7.97081 59.2089
8.01553 60.3268
8.06026 62.1198
8.10498 63.6921
8.14971 74.1466
8.19446 72.9372
8.23919 68.8665
8.28392 71.1644
8.32865 73.1648
8.37339 77.4811
8.41812 84.436
8.46288 115.103
8.50761 151.594
8.55235 352.116
8.59709 1127.27
8.64183 2169.42
8.68658 1036.03
8.73134 164.578
8.77609 98.7523
8.82083 92.0883
8.86558 89.4414
8.91033 89.5813
8.9551 91.8949
8.99985 85.1165
9.04461 82.7515
9.08936 82.2012
9.13412 81.2653
9.17888 81.2442
9.22365 82.1408
9.26841 81.3791
9.31318 81.4501
9.35794 81.979
9.4027 82.3429
9.44749 83.2149
9.49226 83.5718
9.53703 85.2221
9.5818 86.4102
9.62657 91.4698
9.67134 98.9491
9.71614 92.7943
9.76091 92.8469
9.80569 95.4228
9.85047 98.5458
9.89525 125.644
9.94005 137.664
9.98484 161.009
10.0296 310.59
10.0744 771.768
10.1192 1757.98
10.164 1619.5
10.2088 403.648
10.2536 126.521
10.2984 113.536
10.3432 115.719
10.388 103.596
10.4328 113.483
10.4776 152.077
10.5224 271.423
10.5672 509.582
10.612 519.028
10.6568 208.518
10.7017 96.5223
10.7465 85.8452
10.7913 82.4975
10.8361 80.8059
10.8809 78.4989
10.9257 77.9911
10.9706 79.2026
11.0154 74.7816
11.0602 72.3295
11.105 71.5371
11.1499 76.5303
11.1947 85.3574
11.2395 75.1552
11.2844 70.7289
11.3292 66.7409
11.374 65.7091
11.4189 65.148
11.4637 64.3311
11.5086 65.3409
11.5534 68.6124
11.5983 65.3085
11.6431 63.2841
11.688 62.5094
11.7328 62.3778
11.7777 62.776
11.8225 62.2495
11.8674 62.0062
11.9122 62.4993
11.9571 62.6157
12.002 62.9765
12.0468 66.2348
12.0917 76.4534
12.1366 99.2372
12.1814 148.266
12.2263 207.495
12.2712 171.449
12.3161 100.332
12.3609 71.0141
12.4058 64.3343
12.4507 63.9003
12.4956 64.1021
12.5405 63.858
12.5853 65.225
12.6302 73.8778
12.6751 80.307
12.72 70.2926
12.7649 67.6217
12.8098 68.007
12.8547 69.142
12.8996 70.3118
12.9445 71.6502
12.9894 73.3784
13.0343 74.791
13.0792 77.6078
13.1242 85.2456
13.1691 106.821
13.214 141.432
13.2589 230.182
13.3038 369.52
13.3487 427.831
13.3937 269.103
13.4386 125.909
13.4835 102.894
13.5285 114.903
13.5734 151.27
13.6183 241.003
13.6633 344.828
13.7082 342.426
13.7531 188.516
13.7981 97.4434
13.843 81.1733
13.888 79.0649
13.9329 76.6268
13.9779 75.3802
14.0228 73.6478
14.0678 72.3224
14.1127 71.9713
14.1577 72.0262
14.2027 71.0221
14.2476 69.7058
14.2926 70.1273
14.3376 71.3543
14.3825 70.0587
14.4275 68.4465
14.4725 68.0312
14.5175 68.292
14.5624 68.2012
14.6074 70.9564
14.6524 71.3576
14.6974 69.929
14.7424 70.818
14.7874 76.427
14.8324 85.9562
14.8774 106.376
14.9224 149.573
14.9674 206.542
15.0124 222.913
15.0574 152.137
15.1024 92.09
15.1474 72.1667
15.1924 70.3418
15.2374 71.1756
15.2824 70.002
15.3274 68.1322
15.3725 66.3816
15.4175 65.8671
15.4625 65.546
15.5076 65.936
15.5526 65.5527
15.5976 65.223
15.6426 65.7509
15.6877 70.1826
15.7327 77.4574
15.7778 91.7763
15.8228 122.384
15.8679 168.183
15.9129 193.483
15.958 156.658
16.003 98.5587
16.0481 68.7804
16.0931 64.727
16.1382 62.5155
16.1833 60.3173
16.2283 58.497
16.2734 57.9798
16.3185 58.5422
16.3636 59.5467
16.4086 57.809
16.4537 56.0019
16.4988 55.2067
16.5439 55.1683
16.589 54.8516
16.6341 54.6206
16.6792 54.211
16.7243 54.5866
16.7694 54.6795
16.8145 54.3999
16.8596 54.9605
16.9047 56.7196
16.9498 56.7818
16.9949 55.3717
17.04 55.5218
17.0851 56.4773
17.1302 57.9581
17.1754 60.8279
17.2205 65.8546
17.2656 73.7306
17.3108 83.0691
17.3559 82.5829
17.401 71.0736
17.4462 61.9
17.4913 58.719
17.5365 58.4978
17.5815 58.7223
17.6268 59.0756
17.6718 59.8474
17.7171 60.4738
17.7622 60.8375
17.8074 61.2342
17.8525 63.0876
17.8977 66.8695
17.9428 72.0442
17.9881 80.6178
18.0331 97.3782
18.0784 119.569
18.1237 138.39
18.1688 130.925
18.214 103.112
18.2591 85.7634
18.3044 89.0631
18.3495 99.437
18.3948 105.789
18.4399 96.2189
18.4852 77.4686
18.5303 65.7787
18.5756 61.7919
18.6207 60.8311
18.666 60.16
18.7112 59.4414
18.7565 58.427
18.8016 58.2084
18.8469 57.559
18.892 57.312
18.9374 56.8367
18.9825 56.6112
19.0278 56.467
19.073 56.6333
19.1183 56.9441
19.1635 57.5371
19.2088 58.9196
19.254 61.3883
19.2993 65.6092
19.3447 72.1787
19.3898 76.4336
19.4352 72.1976
19.4804 63.2493
19.5257 56.5648
19.5709 53.8944
19.6163 53.5063
19.6615 53.3203
19.7068 52.8959
19.752 53.0405
19.7974 53.2599
19.8426 54.0462
19.888 54.6777
19.9332 55.4054
19.9786 58.0839
20.0238 61.7012
20.0692 66.6146
20.1144 69.3674
20.1598 67.8197
20.205 62.9408
20.2504 61.3337
20.2957 63.1979
20.3411 65.548
20.3863 63.8125
20.4318 58.2101
20.477 53.6923
20.5224 51.4139
20.5677 50.8688
20.6131 49.7923
20.6586 49.4249
20.7038 49.1725
20.7493 48.9358
20.7945 48.7217
20.84 48.5925
20.8853 48.3827
20.9307 48.3043
20.976 48.3289
21.0215 48.2684
21.0668 48.5908
21.1122 49.0853
21.1575 49.658
21.203 50.446
21.2483 51.0076
21.2938 51.0564
21.3391 49.6892
21.3846 48.7282
21.4299 48.1391
21.4754 47.9712
21.5207 48.1076
21.5662 48.2775
21.6116 48.6908
21.6571 49.3698
21.7024 50.1249
21.7479 51.997
21.7933 54.5286
21.8388 58.2328
21.8843 61.9685
21.9297 64.1586
21.9752 62.9581
22.0206 59.3703
22.0661 56.3847
22.1115 55.7658
22.157 55.4796
22.2024 53.9257
22.248 51.2083
22.2933 49.652
22.3389 48.7491
22.3843 48.7744
22.4299 48.6644
22.4753 48.5688
22.5208 48.3557
22.5662 48.1189
22.6118 48.1977
22.6572 48.4748
22.7028 48.6693
22.7483 49.3947
22.7939 49.8137
22.8393 51.1529
22.8849 53.4464
22.9303 55.8102
22.9759 57.6191
23.0214 57.0176
23.067 54.1904
23.1126 51.087
23.1581 48.8382
23.2037 48.5633
23.2492 48.3566
23.2948 48.3209
23.3403 48.5306
23.3859 49.2847
23.4314 50.2412
23.477 51.8992
23.5225 54.2867
23.5682 56.7906
23.6137 57.5313
23.6593 55.5895
23.7048 51.446
23.7505 48.2938
23.796 46.5482
23.8417 45.8161
23.8872 45.2122
23.9329 44.9035
23.9784 44.4705
24.0241 44.4267
24.0697 44.33
24.1154 43.8063
24.1609 43.6939
24.2066 43.5122
24.2522 43.3955
24.2979 43.1339
24.3434 43.2571
24.3892 43.0435
24.4349 42.7724
24.4805 42.6888
24.5262 42.7365
24.5718 42.6519
24.6175 42.7017
24.6631 42.483
24.7089 42.1552
24.7545 42.1704
24.8002 42.0063
24.8458 41.9583
24.8916 41.7518
24.9372 41.8392
24.983 42.2128
25.0286 42.4547
25.0744 42.7261
25.12 43.4072
25.1658 43.9607
25.2114 44.3456
25.2572 44.4928
25.3029 44.5154
25.3487 44.6646
25.3943 44.3541
25.4402 43.2813
25.4858 42.3547
25.5316 41.2845
25.5773 40.5436
25.6231 40.4918
25.669 40.2479
25.7147 40.2519
25.7605 40.1533
25.8062 40.2495
25.8521 40.4173
25.8977 40.3326
25.9436 40.5468
25.9893 40.6559
26.0352 41.1843
26.0809 41.2614
26.1268 41.6111
26.1725 41.1394
26.2184 40.398
26.2641 40.2265
26.31 39.8233
26.3557 39.8487
26.4017 39.9618
26.4474 40.1987
26.4933 40.4708
26.5391 41.0014
26.585 41.3354
26.6308 41.7989
26.6767 41.841
26.7225 41.6203
26.7684 41.2309
26.8142 40.6579
26.8601 40.0959
26.9059 39.7543
26.9519 39.1905
26.9979 39.0292
27.0437 38.6144
27.0896 38.3869
27.1354 38.5241
27.1814 38.2031
27.2272 38.3518
27.2732 38.2781
27.3191 38.0553
27.3651 38.2039
27.4109 38.03
27.4569 38.2837
27.5027 38.3613
27.5488 38.3054
27.5946 38.1358
27.6407 37.9665
27.6865 37.8469
27.7326 37.6326
27.7784 37.5457
27.8245 37.6528
27.8703 37.6151
27.9164 38.0456
27.9623 38.2112
28.0084 38.5525
28.0543 38.8381
28.1003 38.7908
28.1462 38.583
28.1923 38.2163
28.2384 37.764
28.2843 37.4118
28.3304 37.1014
28.3764 36.577
28.4225 36.1605
28.4684 36.0873
28.5145 35.754
28.5605 35.6754
28.6066 35.4224
28.6526 35.4504
28.6987 35.3656
28.7447 35.2271
28.7908 35.1823
28.8368 35.2347
28.8829 35.2589
28.9289 35.1726
28.9751 34.9172
29.0211 34.6141
29.0673 34.4113
29.1133 34.3825
29.1595 34.2476
29.2055 34.0983
29.2517 34.1328
29.2977 34.0757
29.3439 34.0712
29.3899 33.9674
29.4361 33.9542
29.4824 33.7427
29.5284 33.6466
29.5746 33.2886
29.6207 32.9547
29.6669 32.8492
29.713 32.8941
29.7593 32.7456
29.8053 32.6789
29.8516 32.4877
29.8977 32.532
29.9439 32.4077
29.99 32.3992
30.0363 32.144
30.0824 32.3027
30.1287 32.2118
30.1748 32.2063
30.2211 32.2235
30.2673 32.0826
30.3136 32.1822
30.3597 31.9455
30.406 31.9874
30.4522 31.819
30.4985 31.7503
30.5447 31.9619
30.591 31.7955
30.6372 32.0005
30.6835 31.9658
30.7297 31.9724
30.7761 31.9489
30.8224 31.7341
30.8686 31.674
30.915 31.4485
30.9612 31.3409
31.0076 31.0354
31.0538 30.8776
31.1002 30.9478
31.1464 30.7692
31.1928 30.667
31.2391 30.775
31.2855 30.6014
31.3317 30.6952
31.3781 30.654
31.4244 30.6458
31.4708 30.5775
31.5171 30.7011
31.5636 30.727
31.6098 30.3045
31.6563 30.2563
31.7026 30.0699
31.7491 29.9534
31.7953 29.9321
31.8418 29.8309
31.8881 29.9845
31.9346 29.8264
31.9809 29.9042
32.0275 29.6783
32.074 29.5284
32.1203 29.4508
32.1668 29.4354
32.2132 29.13
32.2597 29.0013
32.306 28.9484
32.3526 28.895
32.399 28.7033
32.4455 28.5662
32.4919 28.5196
32.5385 28.4947
32.5848 28.1952
32.6314 28.3423
32.6778 28.3295
32.7244 28.1265
32.7708 27.9541
32.8174 28.0705
32.8638 27.8365
32.9104 27.8727
32.9569 27.8906
33.0035 27.649
33.0499 27.6896
33.0966 27.6216
33.143 27.7212
33.1897 27.4588
33.2361 27.5451
33.2828 27.3735
33.3293 27.2784
33.3759 27.2971
33.4226 27.0866
33.4691 26.9171
33.5158 26.8904
33.5623 26.7106
33.609 26.5406
33.6555 26.514
33.7022 26.4595
33.7487 26.3657
33.7954 26.3083
33.842 26.2724
33.8887 26.213
33.9353 26.0563
33.982 25.9509
34.0286 25.9381
34.0753 25.8519
34.1219 25.7768
34.1687 25.6337
34.2152 25.6548
34.262 25.4026
34.3086 25.335
34.3554 25.3432
34.402 25.2186
34.4488 25.0794
34.4954 24.9934
34.5422 24.9753
34.5889 24.9125
34.6357 24.8362
34.6825 24.7436
34.7292 24.7038
34.776 24.579
34.8227 24.5328
34.8695 24.5487
34.9162 24.4361
34.9631 24.3385
35.0098 24.3104
35.0566 24.2394
35.1033 24.1513
35.1502 24.1279
35.1969 24.0578
35.2438 24.0137
35.2906 23.8705
35.3375 23.8611
35.3842 23.9013
35.4311 23.8191
35.4779 23.811
35.5248 23.7495
35.5716 23.6301
35.6185 23.5749
35.6653 23.4618
35.7123 23.3715
35.759 23.3341
35.806 23.137
35.8528 23.1383
35.8998 23.0458
35.9468 22.8994
35.9936 22.9349
36.0406 22.8732
36.0874 22.9051
36.1345 22.8921
36.1813 22.6338
36.2283 22.5936
36.2752 22.405
36.3222 22.516
36.3691 22.4669
36.4161 22.2059
36.463 22.2936
36.5101 22.3278
36.557 22.1057
36.6041 22.0813
36.651 22.0386
36.6981 22.0059
36.745 21.9126
36.7921 21.8454
36.839 21.7041
36.8861 21.703
36.9331 21.5824
36.9802 21.5737
37.0272 21.3974
37.0743 21.4168
37.1213 21.346
37.1684 21.3201
37.2154 21.2457
37.2626 21.1627
37.3098 21.096
37.3568 21.0385
37.404 20.9817
37.451 20.8538
37.4982 20.795
37.5452 20.7399
37.5924 20.6667
37.6395 20.6877
37.6867 20.5498
37.7337 20.4597
37.781 20.409
37.8281 20.3588
37.8753 20.3074
37.9224 20.2144
37.9697 20.1209
38.0168 20.1455
38.064 20.0255
38.1111 19.9927
38.1584 19.8804
38.2056 19.7992
38.2529 19.8264
38.3 19.7412
38.3473 19.718
38.3945 19.5771
38.4418 19.5619
38.489 19.5244
38.5363 19.3866
38.5837 19.4232
38.6309 19.3515
38.6782 19.2256
38.7254 19.1252
38.7728 19.0651
38.82 19.0397
38.8674 19.0082
38.9146 18.8916
38.9621 18.8486
39.0093 18.796
39.0567 18.7812
39.104 18.6973
39.1514 18.6391
39.1987 18.6304
39.2461 18.5504
39.2934 18.4632
39.3409 18.3584
39.3882 18.2621
39.4356 18.2763
39.483 18.2409
39.5304 18.1842
39.5778 18.1171
39.6253 18.0326
39.6726 18.0149
39.7201 17.8966
39.7675 17.8309
39.815 17.8666
39.8624 17.7922
39.9099 17.7343
39.9575 17.6603
40.0049 17.6292
40.0525 17.5378
40.0999 17.5043
40.1474 17.5201
40.1949 17.4418
40.2425 17.3145
40.2899 17.2768
40.3375 17.2345
40.385 17.159
40.4326 17.1944
40.48 17.0184
40.5277 17.0341
40.5752 16.966
40.6228 16.8508
40.6703 16.8237
40.718 16.7225
40.7655 16.7679
40.8132 16.6384
40.8607 16.6435
40.9084 16.5964
40.9559 16.5845
41.0036 16.5089
41.0512 16.4484
41.0989 16.414
41.1465 16.325
41.1942 16.2717
41.242 16.2182
41.2896 16.159
41.3373 16.0891
41.3849 16.0467
41.4327 16.0196
41.4803 15.9288
41.5281 15.8398
41.5758 15.8052
41.6236 15.7524
41.6712 15.7196
41.7191 15.6877
41.7667 15.5862
41.8146 15.5451
41.8622 15.5036
41.9101 15.4864
41.9578 15.3951
42.0057 15.4389
42.0534 15.3542
42.1013 15.2963
42.149 15.1666
42.1969 15.1395
42.2446 15.1159
42.2925 14.9987
42.3403 15.0578
42.3882 14.9932
42.436 14.9297
42.4839 14.8072
42.5319 14.7673
42.5797 14.7444
42.6277 14.7028
42.6755 14.6608
42.7235 14.5981
42.7713 14.5721
42.8193 14.5322
42.8671 14.4592
42.9152 14.43
42.963 14.3683
43.0111 14.2766
43.0589 14.2552
43.107 14.2008
43.1549 14.1701
43.2029 14.0878
43.2508 14.0665
43.2989 14.0429
43.3468 13.9352
43.3949 13.9388
43.4429 13.8992
43.491 13.8171
43.5389 13.7367
43.5871 13.7534
43.635 13.7054
43.6832 13.5946
43.7312 13.544
43.7793 13.5168
43.8273 13.47
43.8755 13.3811
43.9237 13.3838
43.9717 13.3271
44.0199 13.2954
44.068 13.2524
44.1162 13.1701
44.1642 13.1373
44.2125 13.1467
44.2606 13.0726
44.3088 12.9824
44.3569 12.9904
44.4052 12.9249
44.4533 12.8723
44.5016 12.8308
44.5497 12.7892
44.598 12.7279
44.6461 12.7418
44.6945 12.6984
44.7426 12.6174
44.791 12.5213
44.8391 12.4905
44.8875 12.5241
44.9357 12.4692
44.984 12.4144
45.0322 12.3578
45.0806 12.3291
45.1288 12.2892
45.1773 12.2365
45.2257 12.1669
45.2739 12.1728
45.3224 12.1236
45.3706 12.0435
45.4191 11.992
45.4673 11.9766
45.5158 11.9277
45.5641 11.905
45.6126 11.8724
45.6609 11.7685
45.7094 11.7476
45.7577 11.7362
45.8063 11.6593
45.8546 11.663
45.9031 11.5991
45.9515 11.5673
46.0001 11.5274
46.0484 11.4826
46.097 11.4406
46.1454 11.4237
46.194 11.4006
46.2424 11.3115
46.291 11.2691
46.3395 11.2247
46.3881 11.2133
46.4365 11.1583
46.4852 11.135
46.5337 11.0496
46.5823 11.0569
46.631 10.9558
46.6795 10.9477
46.7282 10.91
46.7767 10.8661
46.8254 10.8003
46.8739 10.7826
46.9226 10.7456
46.9712 10.723
47.0199 10.6582
47.0685 10.6234
47.1173 10.5714
47.1658 10.5387
47.2146 10.5465
47.2632 10.4825
47.312 10.4553
47.3606 10.3654
47.4095 10.3424
47.4581 10.3378
47.5069 10.2853
47.5556 10.2447
47.6044 10.1778
47.6531 10.1895
47.702 10.1022
47.7507 10.0941
47.7996 10.0599
47.8483 10.0326
47.8972 10.0155
47.9461 9.979
47.9948 9.90927
48.0438 9.86309
48.0925 9.84038
48.1415 9.80148
48.1902 9.78854
48.2392 9.73872
48.288 9.72543
48.337 9.66557
48.3858 9.62594
48.4348 9.57935
48.4837 9.59606
48.5327 9.49104
48.5815 9.45807
48.6306 9.47418
48.6795 9.41564
48.7285 9.39965
48.7774 9.33546
48.8265 9.31767
48.8754 9.27427
48.9245 9.23486
48.9734 9.17223
49.0226 9.20408
49.0715 9.13919
49.1206 9.11238
49.1696 9.04545
49.2188 9.03643
49.2679 9.01336
49.3169 8.96243
49.3661 8.89271
49.4151 8.91371
49.4643 8.85252
49.5134 8.80087
49.5626 8.74908
49.6117 8.76825
49.6609 8.74896
49.71 8.69549
49.7592 8.68023
49.8083 8.62071
49.8576 8.59441
49.9067 8.52593
49.956 8.52301
50.0052 8.48385
50.0545 8.47982
50.1036 8.43753
50.153 8.39493
50.2022 8.36257
50.2515 8.31179
50.3007 8.25782
50.3501 8.24227
50.3993 8.23259
50.4487 8.19654
50.498 8.18599
50.5474 8.15634
50.5966 8.07142
50.6461 8.06767
50.6955 8.03725
50.7448 8.00994
50.7943 7.97246
50.8436 7.93324
50.8931 7.92137
50.9424 7.88022
50.9919 7.86169
51.0413 7.80136
51.0908 7.80533
51.1402 7.76993
51.1897 7.72449
51.2391 7.73299
51.2887 7.69474
51.3381 7.65069
51.3877 7.60277
51.4371 7.59822
51.4867 7.54593
51.5362 7.54164
51.5858 7.50578
51.6353 7.42945
51.6849 7.44704
51.7344 7.39963
51.7841 7.37658
51.8336 7.33906
51.8833 7.29334
51.9328 7.27795
51.9826 7.24893
52.0323 7.19752
52.0818 7.18304
52.1316 7.17115
52.1812 7.12437
52.231 7.126
52.2806 7.07429
52.3304 7.02115
52.38 7.03612
52.4298 6.968
52.4794 6.95263
52.5293 6.90735
52.5789 6.88536
52.6288 6.87995
52.6785 6.80918
52.7284 6.80417
52.7781 6.79983
52.828 6.7511
52.8777 6.6964
52.9276 6.66526
52.9774 6.65465
53.0273 6.58027
53.0771 6.64157
53.1271 6.57786
53.1769 6.54015
53.2269 6.55195
53.2767 6.48024
53.3267 6.48552
53.3765 6.42716
53.4266 6.43261
53.4766 6.38263
53.5265 6.34302
53.5765 6.33511
53.6264 6.30134
53.6765 6.26443
53.7264 6.24892
53.7765 6.26246
53.8265 6.19228
53.8766 6.13565
53.9266 6.17071
53.9767 6.12384
54.0267 6.12367
54.0769 6.04664
54.1269 5.98931
54.1771 6.03018
54.2271 5.96221
54.2773 5.9467
54.3274 5.92398
54.3776 5.87419
54.4277 5.86904
54.478 5.82291
54.528 5.78733
54.5783 5.70549
54.6285 5.74463
54.6788 5.65719
54.7289 5.58246
54.7792 5.54238
54.8296 5.52271
54.8798 5.47443
54.9301 5.51459
54.9803 5.41867
55.0307 5.39139
55.0809 5.29808
55.1314 5.41956
55.1816 5.21421
55.232 5.2
55.2823 5.20455
55.3328 5.1161
55.383 5.0323
55.4335 5.01776
55.4838 4.98495
55.5344 4.97469
55.5847 4.96415
55.6352 4.86484
55.6856 4.85652
55.7361 4.83294