File: XRD/Ni3Fe_FD0330.xy
TT I
1.27165 7.88444
1.31627 6.70327
1.36089 7.10396
1.40551 6.44664
1.45013 5.87525
1.49476 6.84458
1.53938 6.15203
1.584 5.66656
1.62863 5.29835
1.67325 5.07548
1.71787 5.40579
1.7625 5.12963
1.80712 4.70557
1.85174 4.91444
1.89636 4.93944
1.94099 4.72424
1.98562 4.89226
2.03025 4.95732
2.07487 4.47215
2.11949 5.29946
2.16411 5.1495
2.20874 11.9881
2.25338 18.204
2.298 5.30713
2.34263 5.04387
2.38725 4.9772
2.43188 4.84045
2.4765 6.12589
2.52115 6.09367
2.56577 6.60315
2.6104 7.01905
2.65503 7.11515
2.69965 7.65783
2.7443 7.40212
2.78893 7.82611
2.83356 7.99512
2.87818 8.52569
2.92281 9.28758
2.96744 9.6758
3.01209 10.691
3.05672 11.7471
3.10135 12.4977
3.14599 12.9555
3.19062 14.2731
3.23527 14.9888
3.2799 15.6753
3.32454 16.984
3.36917 17.7158
3.4138 18.9759
3.45844 20.387
3.50309 21.3169
3.54773 22.0839
3.59237 24.2842
3.637 77.1763
3.68164 50.4376
3.7263 26.3863
3.77094 26.6497
3.81558 27.1583
3.86022 27.6446
3.90486 29.8303
3.9495 30.4242
3.99416 31.3998
4.0388 32.3486
4.08344 34.3479
4.12809 35.4069
4.17273 37.5533
4.21738 42.2429
4.26204 201.776
4.30669 175.197
4.35133 48.0099
4.39598 45.0982
4.44063 53.0943
4.4853 62.2611
4.52995 52.0064
4.5746 53.0428
4.61925 54.6126
4.6639 57.0478
4.70855 59.5663
4.75322 62.4132
4.79788 65.7562
4.84253 70.0089
4.88719 74.4955
4.93184 78.2933
4.97652 84.3357
5.02118 92.0791
5.06583 100.47
5.11049 114.826
5.15515 184.007
5.19981 553.683
5.24449 3513.56
5.28916 11379.5
5.33382 3548.42
5.37848 228.661
5.42315 139.96
5.46783 120.922
5.5125 111.062
5.55716 106.859
5.60183 102.534
5.6465 100.155
5.69117 98.5646
5.73586 96.5576
5.78053 96.3165
5.8252 96.3908
5.86988 97.9284
5.91455 101.431
5.95924 114.423
6.00392 295.15
6.0486 1226.89
6.09328 4038.13
6.13795 3476.4
6.18263 293.395
6.22733 100.809
6.27201 86.6186
6.3167 98.6929
6.36138 81.0156
6.40606 71.3131
6.45075 69.4051
6.49545 67.3756
6.54014 65.2429
6.58483 64.3438
6.62952 64.4224
6.67421 87.1554
6.71892 125.229
6.76361 67.7789
6.8083 60.1867
6.853 58.7033
6.89769 58.3721
6.94239 58.0667
6.98711 57.3515
7.03181 57.0051
7.07651 56.708
7.12121 56.3866
7.16591 56.5504
7.21063 56.6935
7.25533 67.4301
7.30004 149.824
7.34475 84.2358
7.38945 57.312
7.43416 55.4392
7.47889 55.0501
7.5236 56.0742
7.56831 56.6302
7.61303 57.8676
7.65774 58.2031
7.70247 57.5695
7.74719 57.6748
7.79191 58.1145
7.83663 58.2525
7.88135 59.3426
7.92607 60.5463
7.97081 61.8386
8.01553 62.395
8.06026 63.8232
8.10498 65.5988
8.14971 73.636
8.19446 72.9508
8.23919 71.6138
8.28392 74.1054
8.32865 76.6889
8.37339 81.1156
8.41812 88.8333
8.46288 116.841
8.50761 210.602
8.55235 480.046
8.59709 1156.52
8.64183 2131.58
8.68658 1089.34
8.73134 186.89
8.77609 105.325
8.82083 96.2421
8.86558 92.8536
8.91033 92.3193
8.9551 93.0839
8.99985 87.8423
9.04461 85.8418
9.08936 85.251
9.13412 84.0753
9.17888 84.4606
9.22365 84.9411
9.26841 84.4114
9.31318 85.3071
9.35794 85.6522
9.4027 85.887
9.44749 86.4721
9.49226 87.1942
9.53703 87.7701
9.5818 90.182
9.62657 94.1413
9.67134 99.7767
9.71614 96.1795
9.76091 97.3146
9.80569 99.8365
9.85047 103.438
9.89525 123.686
9.94005 140.485
9.98484 219.903
10.0296 420.287
10.0744 847.028
10.1192 1614.99
10.164 1687.33
10.2088 496.735
10.2536 139.821
10.2984 117.017
10.3432 116.979
10.388 109.285
10.4328 132.583
10.4776 182.568
10.5224 290.102
10.5672 481.993
10.612 525.134
10.6568 219.09
10.7017 100.974
10.7465 89.6715
10.7913 85.7733
10.8361 83.2414
10.8809 81.5456
10.9257 80.2332
10.9706 80.4738
11.0154 76.8453
11.0602 74.7862
11.105 73.8045
11.1499 76.5133
11.1947 82.305
11.2395 74.9159
11.2844 71.8273
11.3292 69.2791
11.374 67.9914
11.4189 67.7537
11.4637 66.6301
11.5086 66.7491
11.5534 69.142
11.5983 66.7938
11.6431 65.235
11.688 64.7302
11.7328 64.7342
11.7777 64.447
11.8225 64.3846
11.8674 64.1613
11.9122 64.5125
11.9571 64.4542
12.002 66.0058
12.0468 72.5301
12.0917 85.7928
12.1366 108.304
12.1814 148.467
12.2263 199.591
12.2712 178.472
12.3161 100.99
12.3609 71.8515
12.4058 66.3253
12.4507 66.1264
12.4956 66.2618
12.5405 66.5078
12.5853 67.4454
12.6302 72.9803
12.6751 77.4797
12.72 71.2648
12.7649 70.0065
12.8098 70.505
12.8547 71.8059
12.8996 73.3362
12.9445 74.7596
12.9894 76.3501
13.0343 78.4473
13.0792 82.3084
13.1242 96.3447
13.1691 125.232
13.214 164.908
13.2589 242.004
13.3038 350.233
13.3487 427.215
13.3937 285.669
13.4386 134.302
13.4835 115.703
13.5285 133.949
13.5734 170.583
13.6183 239.853
13.6633 329.848
13.7082 343.735
13.7531 204.781
13.7981 103.294
13.843 84.873
13.888 82.0988
13.9329 79.6983
13.9779 78.2064
14.0228 76.4297
14.0678 75.1267
14.1127 74.8392
14.1577 74.4011
14.2027 73.7966
14.2476 72.395
14.2926 72.6268
14.3376 73.358
14.3825 72.4442
14.4275 71.0411
14.4725 70.7043
14.5175 70.8408
14.5624 71.2865
14.6074 72.8611
14.6524 73.3316
14.6974 72.6523
14.7424 75.6411
14.7874 85.2351
14.8324 96.9138
14.8774 118.006
14.9224 152.935
14.9674 198.712
15.0124 219.303
15.0574 157.434
15.1024 95.1057
15.1474 74.5729
15.1924 72.7128
15.2374 72.519
15.2824 71.7914
15.3274 70.1339
15.3725 68.7664
15.4175 68.4276
15.4625 68.0059
15.5076 68.0607
15.5526 68.1749
15.5976 68.0253
15.6426 70.2234
15.6877 77.6802
15.7327 86.5156
15.7778 101.298
15.8228 127.497
15.8679 162.935
15.9129 192.663
15.958 166.644
16.003 103.988
16.0481 70.484
16.0931 66.0432
16.1382 64.3177
16.1833 62.1871
16.2283 60.9253
16.2734 60.1215
16.3185 60.1002
16.3636 60.383
16.4086 58.901
16.4537 58.0056
16.4988 57.0895
16.5439 57.2132
16.589 56.8724
16.6341 56.5398
16.6792 56.1718
16.7243 56.4132
16.7694 56.4546
16.8145 56.3017
16.8596 56.5598
16.9047 57.9538
16.9498 58.4333
16.9949 57.3867
17.04 57.9131
17.0851 59.5175
17.1302 61.3054
17.1754 64.2469
17.2205 68.8442
17.2656 74.8901
17.3108 82.8532
17.3559 84.3049
17.401 74.4056
17.4462 64.728
17.4913 61.0697
17.5365 60.7061
17.5815 61.0553
17.6268 61.3694
17.6718 62.1256
17.7171 62.6287
17.7622 63.2039
17.8074 64.3068
17.8525 67.664
17.8977 72.3527
17.9428 78.6626
17.9881 86.8135
18.0331 101.374
18.0784 119.247
18.1237 139.988
18.1688 138.48
18.214 111.997
18.2591 90.9835
18.3044 91.5907
18.3495 99.0826
18.3948 106.912
18.4399 99.9094
18.4852 80.9105
18.5303 68.22
18.5756 64.2269
18.6207 63.2013
18.666 62.3429
18.7112 61.5246
18.7565 60.8971
18.8016 60.5508
18.8469 59.8413
18.892 59.5339
18.9374 59.0228
18.9825 58.9317
19.0278 58.509
19.073 58.9483
19.1183 59.7817
19.1635 60.4349
19.2088 61.9941
19.254 64.2649
19.2993 67.8872
19.3447 72.7121
19.3898 77.456
19.4352 74.9764
19.4804 66.2639
19.5257 58.8378
19.5709 55.8622
19.6163 55.4872
19.6615 55.5069
19.7068 54.7845
19.752 55.0824
19.7974 55.6269
19.8426 56.6501
19.888 57.1849
19.9332 58.5115
19.9786 60.8745
20.0238 63.8184
20.0692 68.1082
20.1144 71.5144
20.1598 71.172
20.205 66.4259
20.2504 63.7402
20.2957 64.6804
20.3411 66.7718
20.3863 66.4206
20.4318 60.8282
20.477 55.5111
20.5224 53.2554
20.5677 52.6088
20.6131 51.7035
20.6586 51.1623
20.7038 51.0328
20.7493 50.583
20.7945 50.4904
20.84 50.3579
20.8853 50.2844
20.9307 50.1728
20.976 50.451
21.0215 50.4121
21.0668 50.6993
21.1122 51.1214
21.1575 51.5523
21.203 52.2162
21.2483 52.7555
21.2938 53.0218
21.3391 52.0035
21.3846 50.6874
21.4299 50.0815
21.4754 49.9592
21.5207 50.2461
21.5662 50.5195
21.6116 51.2396
21.6571 51.8178
21.7024 52.9339
21.7479 54.5431
21.7933 57.0135
21.8388 60.0836
21.8843 63.6179
21.9297 66.3855
21.9752 66.0048
22.0206 61.9921
22.0661 58.0124
22.1115 57.2877
22.157 57.4795
22.2024 56.2023
22.248 53.3567
22.2933 51.4495
22.3389 50.4466
22.3843 50.5421
22.4299 50.2832
22.4753 50.4289
22.5208 50.0946
22.5662 50.0679
22.6118 50.3474
22.6572 50.5251
22.7028 50.9902
22.7483 51.487
22.7939 52.3182
22.8393 53.7218
22.8849 55.3888
22.9303 57.1699
22.9759 59.1431
23.0214 59.2413
23.067 56.524
23.1126 52.9629
23.1581 50.8086
23.2037 50.4421
23.2492 50.6034
23.2948 50.8391
23.3403 50.9777
23.3859 51.6583
23.4314 52.7332
23.477 54.0053
23.5225 55.7096
23.5682 57.7908
23.6137 59.5134
23.6593 57.6811
23.7048 53.7705
23.7505 50.0194
23.796 48.2133
23.8417 47.4722
23.8872 47.0008
23.9329 46.6044
23.9784 46.3562
24.0241 46.13
24.0697 45.7493
24.1154 45.4254
24.1609 45.3638
24.2066 45.2293
24.2522 45.0564
24.2979 44.7798
24.3434 44.6527
24.3892 44.5611
24.4349 44.4986
24.4805 44.2586
24.5262 44.3914
24.5718 44.2872
24.6175 44.2815
24.6631 44.1007
24.7089 43.9746
24.7545 43.7131
24.8002 43.5218
24.8458 43.5443
24.8916 43.5214
24.9372 43.6059
24.983 44.0381
25.0286 44.244
25.0744 44.666
25.12 45.0
25.1658 45.6252
25.2114 45.9729
25.2572 45.9641
25.3029 45.9712
25.3487 46.176
25.3943 46.1804
25.4402 45.0173
25.4858 44.0736
25.5316 42.7752
25.5773 42.144
25.6231 42.1335
25.669 41.8114
25.7147 41.8572
25.7605 41.8215
25.8062 41.9377
25.8521 42.009
25.8977 41.8742
25.9436 42.1676
25.9893 42.1273
26.0352 42.6569
26.0809 42.6167
26.1268 42.8502
26.1725 42.6454
26.2184 42.2285
26.2641 41.8056
26.31 41.4887
26.3557 41.4655
26.4017 41.4269
26.4474 41.7586
26.4933 41.9574
26.5391 42.3977
26.585 42.7963
26.6308 43.2176
26.6767 43.4094
26.7225 43.3207
26.7684 42.6279
26.8142 42.161
26.8601 41.5838
26.9059 41.2879
26.9519 40.7125
26.9979 40.4475
27.0437 40.1809
27.0896 40.0104
27.1354 39.887
27.1814 39.9264
27.2272 39.6841
27.2732 39.7348
27.3191 39.4654
27.3651 39.7423
27.4109 39.5817
27.4569 39.6431
27.5027 39.6017
27.5488 39.791
27.5946 39.5706
27.6407 39.3637
27.6865 39.2948
27.7326 39.1326
27.7784 39.0249
27.8245 39.1399
27.8703 39.1443
27.9164 39.2982
27.9623 39.5436
28.0084 39.6968
28.0543 40.1415
28.1003 40.1755
28.1462 40.0127
28.1923 39.6713
28.2384 39.0584
28.2843 38.8205
28.3304 38.3172
28.3764 37.8925
28.4225 37.5228
28.4684 37.4094
28.5145 37.0209
28.5605 36.883
28.6066 36.7469
28.6526 36.7885
28.6987 36.6928
28.7447 36.6506
28.7908 36.4023
28.8368 36.4492
28.8829 36.4529
28.9289 36.4523
28.9751 36.2521
29.0211 35.9609
29.0673 35.7295
29.1133 35.6188
29.1595 35.5552
29.2055 35.408
29.2517 35.3344
29.2977 35.3239
29.3439 35.3318
29.3899 35.1905
29.4361 35.2065
29.4824 35.0711
29.5284 34.8811
29.5746 34.5076
29.6207 34.1127
29.6669 34.1032
29.713 33.9677
29.7593 33.9343
29.8053 33.9209
29.8516 33.8352
29.8977 33.7818
29.9439 33.5687
29.99 33.6117
30.0363 33.4387
30.0824 33.5894
30.1287 33.4076
30.1748 33.4687
30.2211 33.3468
30.2673 33.2851
30.3136 33.3455
30.3597 33.2557
30.406 33.1816
30.4522 33.0536
30.4985 33.0672
30.5447 33.1878
30.591 33.0347
30.6372 33.0684
30.6835 33.0506
30.7297 33.1093
30.7761 33.1135
30.8224 33.0397
30.8686 32.8097
30.915 32.6852
30.9612 32.4256
31.0076 32.2129
31.0538 32.1684
31.1002 32.0929
31.1464 31.8986
31.1928 31.9518
31.2391 31.8318
31.2855 31.761
31.3317 31.7346
31.3781 31.7428
31.4244 31.7843
31.4708 31.6952
31.5171 31.736
31.5636 31.7731
31.6098 31.5538
31.6563 31.2693
31.7026 31.1972
31.7491 30.9694
31.7953 31.0524
31.8418 30.947
31.8881 31.0747
31.9346 30.9244
31.9809 30.8991
32.0275 30.8086
32.074 30.7188
32.1203 30.4427
32.1668 30.3481
32.2132 30.2773
32.2597 30.1764
32.306 30.0379
32.3526 29.8191
32.399 29.8605
32.4455 29.6341
32.4919 29.538
32.5385 29.4894
32.5848 29.4464
32.6314 29.4001
32.6778 29.345
32.7244 29.191
32.7708 29.0086
32.8174 28.9775
32.8638 28.9946
32.9104 28.982
32.9569 28.8418
33.0035 28.7209
33.0499 28.729
33.0966 28.5739
33.143 28.5924
33.1897 28.4523
33.2361 28.4994
33.2828 28.3583
33.3293 28.2314
33.3759 28.2136
33.4226 28.0611
33.4691 27.9535
33.5158 27.861
33.5623 27.6814
33.609 27.6143
33.6555 27.4788
33.7022 27.4132
33.7487 27.4255
33.7954 27.2415
33.842 27.2108
33.8887 27.1336
33.9353 27.1138
33.982 26.9236
34.0286 26.8995
34.0753 26.8591
34.1219 26.7141
34.1687 26.6359
34.2152 26.5963
34.262 26.4509
34.3086 26.3348
34.3554 26.2729
34.402 26.1618
34.4488 26.0741
34.4954 26.0717
34.5422 25.9657
34.5889 25.8216
34.6357 25.7414
34.6825 25.6683
34.7292 25.659
34.776 25.4783
34.8227 25.5377
34.8695 25.3837
34.9162 25.3801
34.9631 25.2116
35.0098 25.2291
35.0566 25.0958
35.1033 25.0418
35.1502 25.0128
35.1969 25.0179
35.2438 24.855
35.2906 24.8653
35.3375 24.7546
35.3842 24.6459
35.4311 24.752
35.4779 24.6488
35.5248 24.6062
35.5716 24.5765
35.6185 24.4802
35.6653 24.2914
35.7123 24.2782
35.759 24.2472
35.806 24.1095
35.8528 23.9427
35.8998 23.898
35.9468 23.8094
35.9936 23.8251
36.0406 23.7135
36.0874 23.6597
36.1345 23.5456
36.1813 23.4738
36.2283 23.4148
36.2752 23.3906
36.3222 23.3436
36.3691 23.1974
36.4161 23.1448
36.463 23.0531
36.5101 23.0868
36.557 22.9988
36.6041 22.8849
36.651 22.8273
36.6981 22.773
36.745 22.7527
36.7921 22.6133
36.839 22.562
36.8861 22.3909
36.9331 22.4001
36.9802 22.2337
37.0272 22.232
37.0743 22.1659
37.1213 22.1409
37.1684 22.0123
37.2154 21.95
37.2626 21.9034
37.3098 21.8276
37.3568 21.7605
37.404 21.7519
37.451 21.6263
37.4982 21.5639
37.5452 21.4067
37.5924 21.4099
37.6395 21.4745
37.6867 21.3723
37.7337 21.1661
37.781 21.2151
37.8281 21.0848
37.8753 21.0025
37.9224 20.8628
37.9697 20.8604
38.0168 20.7523
38.064 20.724
38.1111 20.739
38.1584 20.6201
38.2056 20.572
38.2529 20.501
38.3 20.4314
38.3473 20.4324
38.3945 20.2566
38.4418 20.2801
38.489 20.222
38.5363 20.0851
38.5837 20.0368
38.6309 20.0026
38.6782 19.8468
38.7254 19.837
38.7728 19.6942
38.82 19.6869
38.8674 19.7139
38.9146 19.6434
38.9621 19.5153
39.0093 19.4654
39.0567 19.4315
39.104 19.3478
39.1514 19.2299
39.1987 19.2135
39.2461 19.1758
39.2934 19.0994
39.3409 18.9722
39.3882 18.9392
39.4356 18.9299
39.483 18.8398
39.5304 18.7367
39.5778 18.7448
39.6253 18.6332
39.6726 18.6302
39.7201 18.6053
39.7675 18.5213
39.815 18.5072
39.8624 18.405
39.9099 18.321
39.9575 18.247
40.0049 18.2643
40.0525 18.1455
40.0999 18.0762
40.1474 18.0631
40.1949 17.9756
40.2425 17.8909
40.2899 17.8965
40.3375 17.8252
40.385 17.8171
40.4326 17.6914
40.48 17.5739
40.5277 17.5746
40.5752 17.5457
40.6228 17.4638
40.6703 17.3773
40.718 17.3434
40.7655 17.3272
40.8132 17.2646
40.8607 17.2466
40.9084 17.211
40.9559 17.1223
41.0036 17.0339
41.0512 16.9939
41.0989 16.9803
41.1465 16.8251
41.1942 16.8295
41.242 16.7186
41.2896 16.6753
41.3373 16.6328
41.3849 16.6061
41.4327 16.5024
41.4803 16.4442
41.5281 16.4394
41.5758 16.3242
41.6236 16.288
41.6712 16.2825
41.7191 16.256
41.7667 16.1334
41.8146 16.161
41.8622 16.0385
41.9101 15.9665
41.9578 15.9404
42.0057 15.8422
42.0534 15.8318
42.1013 15.7587
42.149 15.7199
42.1969 15.652
42.2446 15.6024
42.2925 15.5957
42.3403 15.495
42.3882 15.4247
42.436 15.3895
42.4839 15.3567
42.5319 15.311
42.5797 15.272
42.6277 15.1975
42.6755 15.1863
42.7235 15.1408
42.7713 15.0438
42.8193 15.0309
42.8671 14.9269
42.9152 14.9115
42.963 14.8353
43.0111 14.7696
43.0589 14.7586
43.107 14.6761
43.1549 14.625
43.2029 14.5192
43.2508 14.5731
43.2989 14.5031
43.3468 14.4265
43.3949 14.3855
43.4429 14.3255
43.491 14.2724
43.5389 14.2002
43.5871 14.2025
43.635 14.1594
43.6832 14.1027
43.7312 14.0367
43.7793 14.0026
43.8273 13.9668
43.8755 13.8729
43.9237 13.8695
43.9717 13.8248
44.0199 13.7437
44.068 13.7682
44.1162 13.6264
44.1642 13.6282
44.2125 13.5783
44.2606 13.5141
44.3088 13.464
44.3569 13.395
44.4052 13.4275
44.4533 13.3349
44.5016 13.2409
44.5497 13.2144
44.598 13.23
44.6461 13.0952
44.6945 13.0904
44.7426 13.0865
44.791 12.9532
44.8391 13.0092
44.8875 12.9426
44.9357 12.8954
44.984 12.8283
45.0322 12.7824
45.0806 12.7487
45.1288 12.695
45.1773 12.6689
45.2257 12.6082
45.2739 12.6193
45.3224 12.5101
45.3706 12.4798
45.4191 12.4168
45.4673 12.392
45.5158 12.3422
45.5641 12.3234
45.6126 12.2912
45.6609 12.2078
45.7094 12.1467
45.7577 12.0937
45.8063 12.0451
45.8546 12.0714
45.9031 11.9678
45.9515 11.9477
46.0001 11.9359
46.0484 11.8532
46.097 11.8101
46.1454 11.8373
46.194 11.7336
46.2424 11.6789
46.291 11.6611
46.3395 11.5744
46.3881 11.5599
46.4365 11.5497
46.4852 11.437
46.5337 11.4151
46.5823 11.4118
46.631 11.3792
46.6795 11.3342
46.7282 11.2801
46.7767 11.2093
46.8254 11.1467
46.8739 11.1247
46.9226 11.0793
46.9712 11.0526
47.0199 11.0264
47.0685 10.9714
47.1173 10.9338
47.1658 10.8909
47.2146 10.8522
47.2632 10.8063
47.312 10.7737
47.3606 10.7073
47.4095 10.6944
47.4581 10.6528
47.5069 10.6325
47.5556 10.5632
47.6044 10.5351
47.6531 10.4969
47.702 10.4492
47.7507 10.4295
47.7996 10.3713
47.8483 10.3489
47.8972 10.3268
47.9461 10.2933
47.9948 10.2357
48.0438 10.1867
48.0925 10.2011
48.1415 10.1271
48.1902 10.061
48.2392 10.0981
48.288 10.0339
48.337 9.9698
48.3858 9.98751
48.4348 9.93442
48.4837 9.91218
48.5327 9.87538
48.5815 9.77634
48.6306 9.78696
48.6795 9.75035
48.7285 9.68963
48.7774 9.68776
48.8265 9.68294
48.8754 9.5708
48.9245 9.57175
48.9734 9.49213
49.0226 9.47818
49.0715 9.44709
49.1206 9.41918
49.1696 9.38822
49.2188 9.35771
49.2679 9.32011
49.3169 9.26031
49.3661 9.23186
49.4151 9.18774
49.4643 9.15914
49.5134 9.13324
49.5626 9.09762
49.6117 9.0574
49.6609 9.0268
49.71 8.98437
49.7592 8.97686
49.8083 8.87807
49.8576 8.89188
49.9067 8.82289
49.956 8.80765
50.0052 8.79719
50.0545 8.72764
50.1036 8.71095
50.153 8.69774
50.2022 8.66426
50.2515 8.60728
50.3007 8.57809
50.3501 8.55036
50.3993 8.50165
50.4487 8.49584
50.498 8.46358
50.5474 8.43035
50.5966 8.38838
50.6461 8.32787
50.6955 8.28273
50.7448 8.29677
50.7943 8.24782
50.8436 8.22264
50.8931 8.18771
50.9424 8.17497
50.9919 8.14757
51.0413 8.10408
51.0908 8.06274
51.1402 8.02139
51.1897 7.99627
51.2391 7.99151
51.2887 7.9417
51.3381 7.85956
51.3877 7.87062
51.4371 7.8151
51.4867 7.82063
51.5362 7.75378
51.5858 7.7568
51.6353 7.70746
51.6849 7.68182
51.7344 7.65439
51.7841 7.60196
51.8336 7.58414
51.8833 7.53486
51.9328 7.49174
51.9826 7.4436
52.0323 7.43721
52.0818 7.39199
52.1316 7.3678
52.1812 7.34326
52.231 7.36885
52.2806 7.26387
52.3304 7.23828
52.38 7.25643
52.4298 7.21334
52.4794 7.16961
52.5293 7.12518
52.5789 7.13287
52.6288 7.0749
52.6785 7.05024
52.7284 6.98651
52.7781 6.99126
52.828 6.96518
52.8777 6.90891
52.9276 6.91993
52.9774 6.86013
53.0273 6.86782
53.0771 6.81573
53.1271 6.78262
53.1769 6.78416
53.2269 6.77158
53.2767 6.73086
53.3267 6.69502
53.3765 6.68288
53.4266 6.66448
53.4766 6.57619
53.5265 6.54573
53.5765 6.49693
53.6264 6.50079
53.6765 6.49929
53.7264 6.46455
53.7765 6.44477
53.8265 6.3683
53.8766 6.38532
53.9266 6.33937
53.9767 6.33526
54.0267 6.29906
54.0769 6.24351
54.1269 6.24299
54.1771 6.17154
54.2271 6.17439
54.2773 6.13857
54.3274 6.12046
54.3776 6.06174
54.4277 6.04673
54.478 5.99481
54.528 5.95295
54.5783 5.86966
54.6285 5.88168
54.6788 5.86051
54.7289 5.77618
54.7792 5.75481
54.8296 5.72313
54.8798 5.67714
54.9301 5.6078
54.9803 5.56089
55.0307 5.56094
55.0809 5.52294
55.1314 5.47699
55.1816 5.49841
55.232 5.42489
55.2823 5.34696
55.3328 5.27246
55.383 5.21752
55.4335 5.24014
55.4838 5.15053
55.5344 5.09759
55.5847 5.10391
55.6352 5.04493
55.6856 5.03954
55.7361 4.9734