File: XRD/Ni3Fe_FD0251.xy
TT I
1.27165 7.93747
1.31627 6.90912
1.36089 6.65021
1.40551 6.8484
1.45013 6.35427
1.49476 5.99687
1.53938 6.42035
1.584 5.51374
1.62863 5.25092
1.67325 5.77309
1.71787 5.20212
1.7625 5.27953
1.80712 5.2186
1.85174 5.02911
1.89636 5.06107
1.94099 5.02115
1.98562 5.12798
2.03025 4.55522
2.07487 4.69713
2.11949 4.59031
2.16411 4.4825
2.20874 4.716
2.25338 4.18637
2.298 4.37285
2.34263 4.54149
2.38725 4.49834
2.43188 5.00514
2.4765 5.69639
2.52115 5.70043
2.56577 5.7532
2.6104 6.53074
2.65503 6.14723
2.69965 6.66501
2.7443 6.74385
2.78893 6.74844
2.83356 7.97415
2.87818 7.79106
2.92281 8.20818
2.96744 9.56257
3.01209 10.0023
3.05672 10.7525
3.10135 11.7893
3.14599 12.9615
3.19062 14.0218
3.23527 14.5946
3.2799 16.1212
3.32454 16.8559
3.36917 17.6611
3.4138 19.1905
3.45844 19.6597
3.50309 21.1381
3.54773 21.2917
3.59237 22.7815
3.637 23.2866
3.68164 23.6907
3.7263 25.1653
3.77094 25.5611
3.81558 26.7531
3.86022 27.7472
3.90486 29.2545
3.9495 29.9178
3.99416 31.1011
4.0388 32.3343
4.08344 33.925
4.12809 35.0536
4.17273 35.9925
4.21738 38.0343
4.26204 39.3715
4.30669 40.0068
4.35133 43.0141
4.39598 44.1998
4.44063 46.7242
4.4853 48.4213
4.52995 53.5818
4.5746 54.6213
4.61925 55.5916
4.6639 57.9334
4.70855 61.2666
4.75322 63.9957
4.79788 68.1551
4.84253 71.3393
4.88719 77.7296
4.93184 81.8179
4.97652 87.8312
5.02118 96.292
5.06583 106.535
5.11049 122.994
5.15515 168.062
5.19981 884.003
5.24449 3971.73
5.28916 10556.8
5.33382 3941.6
5.37848 262.462
5.42315 151.76
5.46783 128.564
5.5125 118.027
5.55716 111.619
5.60183 105.885
5.6465 103.639
5.69117 101.893
5.73586 100.358
5.78053 102.175
5.8252 102.517
5.86988 104.69
5.91455 109.204
5.95924 132.108
6.00392 442.686
6.0486 1427.58
6.09328 3741.52
6.13795 3622.06
6.18263 343.412
6.22733 107.686
6.27201 88.4539
6.3167 80.6205
6.36138 75.5922
6.40606 72.9927
6.45075 70.8408
6.49545 68.4272
6.54014 66.5505
6.58483 65.1373
6.62952 64.2087
6.67421 62.1345
6.71892 61.5344
6.76361 60.5824
6.8083 59.9048
6.853 59.3198
6.89769 58.5734
6.94239 58.2412
6.98711 57.2265
7.03181 57.1277
7.07651 56.9301
7.12121 56.2727
7.16591 56.0892
7.21063 55.7274
7.25533 55.1774
7.30004 55.6614
7.34475 55.6833
7.38945 56.0992
7.43416 55.3224
7.47889 55.3682
7.5236 56.3466
7.56831 57.1449
7.61303 56.8674
7.65774 56.9618
7.70247 57.8713
7.74719 58.1018
7.79191 58.7256
7.83663 58.9638
7.88135 60.2664
7.92607 61.1245
7.97081 62.3447
8.01553 63.2485
8.06026 65.2893
8.10498 66.3352
8.14971 69.4153
8.19446 70.1698
8.23919 72.9858
8.28392 75.8488
8.32865 78.9268
8.37339 84.0367
8.41812 89.9451
8.46288 111.219
8.50761 289.966
8.55235 579.88
8.59709 1089.92
8.64183 2001.57
8.68658 1162.05
8.73134 206.125
8.77609 109.318
8.82083 99.4492
8.86558 96.1353
8.91033 93.4312
8.9551 90.6059
8.99985 88.6918
9.04461 88.0355
9.08936 87.8612
9.13412 86.4351
9.17888 86.362
9.22365 86.3334
9.26841 86.4794
9.31318 88.4021
9.35794 88.0408
9.4027 88.245
9.44749 88.9012
9.49226 89.5604
9.53703 90.6097
9.5818 93.2903
9.62657 94.5911
9.67134 95.5453
9.71614 97.492
9.76091 100.079
9.80569 103.497
9.85047 106.63
9.89525 112.173
9.94005 137.897
9.98484 301.947
10.0296 513.057
10.0744 815.683
10.1192 1492.73
10.164 1705.14
10.2088 517.857
10.2536 145.259
10.2984 116.856
10.3432 112.175
10.388 115.081
10.4328 158.285
10.4776 210.349
10.5224 285.731
10.5672 453.348
10.612 527.263
10.6568 244.097
10.7017 105.633
10.7465 91.8352
10.7913 87.8312
10.8361 85.2276
10.8809 83.0065
10.9257 80.7713
10.9706 79.5071
11.0154 77.6884
11.0602 75.8241
11.105 74.4682
11.1499 72.9551
11.1947 71.8801
11.2395 71.0591
11.2844 70.6336
11.3292 69.7442
11.374 68.9041
11.4189 68.3078
11.4637 67.5695
11.5086 66.8151
11.5534 66.3431
11.5983 66.0245
11.6431 66.2109
11.688 65.4329
11.7328 65.387
11.7777 65.191
11.8225 65.3891
11.8674 64.958
11.9122 65.766
11.9571 66.3647
12.002 68.6589
12.0468 79.4683
12.0917 93.4992
12.1366 109.514
12.1814 142.123
12.2263 196.555
12.2712 183.678
12.3161 102.341
12.3609 69.4462
12.4058 66.9623
12.4507 66.8733
12.4956 67.2736
12.5405 67.2895
12.5853 67.9021
12.6302 68.0273
12.6751 68.6177
12.72 69.7189
12.7649 70.8082
12.8098 71.6821
12.8547 72.7845
12.8996 74.5689
12.9445 76.3353
12.9894 78.1632
13.0343 80.6315
13.0792 86.4198
13.1242 111.285
13.1691 145.792
13.214 175.29
13.2589 233.114
13.3038 327.318
13.3487 421.342
13.3937 301.315
13.4386 146.522
13.4835 132.719
13.5285 152.009
13.5734 176.51
13.6183 229.773
13.6633 316.922
13.7082 359.602
13.7531 223.682
13.7981 109.69
13.843 86.6503
13.888 83.8597
13.9329 80.9963
13.9779 79.7162
14.0228 77.9352
14.0678 76.7027
14.1127 75.9519
14.1577 75.1275
14.2027 74.3038
14.2476 73.8284
14.2926 73.2753
14.3376 72.8101
14.3825 72.5984
14.4275 72.1411
14.4725 72.2207
14.5175 72.5299
14.5624 71.9927
14.6074 72.7954
14.6524 73.4022
14.6974 74.4453
14.7424 81.3089
14.7874 94.583
14.8324 106.259
14.8774 120.083
14.9224 146.902
14.9674 190.05
15.0124 221.063
15.0574 166.784
15.1024 99.2712
15.1474 76.4284
15.1924 73.524
15.2374 72.2722
15.2824 71.3167
15.3274 70.3577
15.3725 69.7698
15.4175 69.5406
15.4625 69.2827
15.5076 69.031
15.5526 69.068
15.5976 69.8241
15.6426 74.9905
15.6877 85.8378
15.7327 93.9912
15.7778 104.284
15.8228 123.425
15.8679 154.228
15.9129 189.239
15.958 168.98
16.003 108.018
16.0481 71.9675
16.0931 65.4928
16.1382 63.4922
16.1833 62.8578
16.2283 61.629
16.2734 60.8472
16.3185 60.2549
16.3636 59.2774
16.4086 58.8173
16.4537 58.1168
16.4988 57.8217
16.5439 57.6423
16.589 57.408
16.6341 57.2901
16.6792 56.9103
16.7243 57.1338
16.7694 56.9809
16.8145 56.8866
16.8596 57.2852
16.9047 57.3814
16.9498 57.5425
16.9949 57.6772
17.04 59.0475
17.0851 61.5299
17.1302 63.5209
17.1754 65.5594
17.2205 69.2367
17.2656 74.2115
17.3108 82.674
17.3559 85.5477
17.401 76.5887
17.4462 66.3461
17.4913 62.1287
17.5365 61.9236
17.5815 62.2075
17.6268 62.3871
17.6718 63.0447
17.7171 63.4782
17.7622 64.5195
17.8074 66.4618
17.8525 72.1518
17.8977 77.7408
17.9428 82.5064
17.9881 88.5077
18.0331 99.6382
18.0784 116.289
18.1237 138.965
18.1688 142.63
18.214 116.257
18.2591 93.0411
18.3044 90.5866
18.3495 97.4579
18.3948 106.894
18.4399 101.304
18.4852 82.9008
18.5303 69.7359
18.5756 65.1355
18.6207 64.2019
18.666 63.1035
18.7112 62.4598
18.7565 61.6565
18.8016 61.3099
18.8469 60.62
18.892 60.4522
18.9374 59.7842
18.9825 59.5661
19.0278 59.5578
19.073 60.1243
19.1183 61.149
19.1635 61.5737
19.2088 62.761
19.254 64.8034
19.2993 67.4479
19.3447 71.63
19.3898 76.7137
19.4352 75.7236
19.4804 67.4406
19.5257 59.8844
19.5709 56.8992
19.6163 56.4703
19.6615 56.3353
19.7068 55.8214
19.752 55.9704
19.7974 57.0085
19.8426 58.0539
19.888 58.6757
19.9332 59.4645
19.9786 61.4848
20.0238 63.9944
20.0692 68.442
20.1144 72.548
20.1598 72.7336
20.205 67.9002
20.2504 64.3687
20.2957 64.7704
20.3411 66.934
20.3863 67.0601
20.4318 61.8249
20.477 56.4404
20.5224 53.3515
20.5677 52.7005
20.6131 52.3124
20.6586 51.9761
20.7038 51.7406
20.7493 51.088
20.7945 51.1596
20.84 51.0237
20.8853 50.8958
20.9307 50.9684
20.976 51.2467
21.0215 51.1297
21.0668 51.3732
21.1122 51.6638
21.1575 51.9358
21.203 52.4664
21.2483 53.2967
21.2938 53.8785
21.3391 52.5281
21.3846 51.359
21.4299 50.8861
21.4754 50.6576
21.5207 51.1474
21.5662 51.6533
21.6116 52.553
21.6571 53.4058
21.7024 54.0428
21.7479 55.6645
21.7933 57.5437
21.8388 60.1872
21.8843 63.6088
21.9297 66.8183
21.9752 66.6481
22.0206 62.5571
22.0661 58.4723
22.1115 57.5376
22.157 58.236
22.2024 57.1465
22.248 54.2478
22.2933 52.3224
22.3389 51.3096
22.3843 50.9386
22.4299 50.7559
22.4753 50.7535
22.5208 50.8844
22.5662 50.724
22.6118 51.3404
22.6572 51.7815
22.7028 52.2717
22.7483 52.7628
22.7939 53.1089
22.8393 54.1548
22.8849 55.4495
22.9303 57.2145
22.9759 59.2495
23.0214 59.7399
23.067 57.5804
23.1126 53.9914
23.1581 51.7939
23.2037 51.3248
23.2492 51.7361
23.2948 51.9612
23.3403 52.1226
23.3859 52.5045
23.4314 53.1156
23.477 54.3088
23.5225 55.6558
23.5682 57.7244
23.6137 59.8841
23.6593 58.3794
23.7048 54.7365
23.7505 50.8645
23.796 48.75
23.8417 48.0817
23.8872 47.6261
23.9329 47.3224
23.9784 46.9737
24.0241 46.6133
24.0697 46.4271
24.1154 46.0494
24.1609 46.0798
24.2066 45.8088
24.2522 45.4832
24.2979 45.3821
24.3434 45.1791
24.3892 44.9715
24.4349 45.0738
24.4805 44.6433
24.5262 44.8874
24.5718 44.7747
24.6175 44.847
24.6631 44.8031
24.7089 44.2806
24.7545 44.2905
24.8002 44.117
24.8458 44.3339
24.8916 44.1661
24.9372 44.2533
24.983 44.6226
25.0286 44.8646
25.0744 45.267
25.12 45.5418
25.1658 46.1265
25.2114 46.3666
25.2572 46.4661
25.3029 46.2054
25.3487 46.5258
25.3943 46.4398
25.4402 45.7548
25.4858 44.6628
25.5316 43.415
25.5773 42.7635
25.6231 42.7712
25.669 42.3465
25.7147 42.3666
25.7605 42.3233
25.8062 42.2107
25.8521 42.6049
25.8977 42.4269
25.9436 42.5574
25.9893 42.5599
26.0352 43.0282
26.0809 43.1062
26.1268 43.4166
26.1725 43.2106
26.2184 42.884
26.2641 42.3828
26.31 41.9342
26.3557 42.1099
26.4017 41.9913
26.4474 42.4273
26.4933 42.4042
26.5391 42.8545
26.585 43.174
26.6308 43.5822
26.6767 43.861
26.7225 43.7374
26.7684 43.1595
26.8142 42.7131
26.8601 42.2208
26.9059 41.8444
26.9519 41.2634
26.9979 41.0143
27.0437 40.649
27.0896 40.5594
27.1354 40.5441
27.1814 40.3145
27.2272 40.377
27.2732 40.4096
27.3191 40.0272
27.3651 40.1031
27.4109 40.0163
27.4569 40.1847
27.5027 40.2086
27.5488 40.2996
27.5946 40.2287
27.6407 39.9778
27.6865 39.972
27.7326 39.7368
27.7784 39.572
27.8245 39.5996
27.8703 39.6263
27.9164 39.726
27.9623 39.9195
28.0084 40.079
28.0543 40.6879
28.1003 40.5752
28.1462 40.3866
28.1923 40.057
28.2384 39.5553
28.2843 39.2847
28.3304 38.8207
28.3764 38.3034
28.4225 38.0268
28.4684 37.865
28.5145 37.5833
28.5605 37.3902
28.6066 37.1783
28.6526 37.1652
28.6987 37.0314
28.7447 37.0373
28.7908 36.8086
28.8368 36.8756
28.8829 36.8821
28.9289 36.8457
28.9751 36.642
29.0211 36.5369
29.0673 36.2385
29.1133 36.044
29.1595 35.9411
29.2055 35.8819
29.2517 35.7555
29.2977 35.7203
29.3439 35.6129
29.3899 35.6715
29.4361 35.5901
29.4824 35.417
29.5284 35.2209
29.5746 34.8691
29.6207 34.5004
29.6669 34.4782
29.713 34.4885
29.7593 34.3166
29.8053 34.351
29.8516 34.1936
29.8977 34.1471
29.9439 33.9808
29.99 33.9286
30.0363 33.8577
30.0824 33.9291
30.1287 33.7191
30.1748 33.9157
30.2211 33.8303
30.2673 33.623
30.3136 33.7149
30.3597 33.6538
30.406 33.6026
30.4522 33.5039
30.4985 33.5485
30.5447 33.5184
30.591 33.361
30.6372 33.4726
30.6835 33.4506
30.7297 33.6606
30.7761 33.4902
30.8224 33.3417
30.8686 33.256
30.915 33.0159
30.9612 32.8336
31.0076 32.6988
31.0538 32.5649
31.1002 32.5496
31.1464 32.3805
31.1928 32.3049
31.2391 32.2654
31.2855 32.2775
31.3317 32.1427
31.3781 32.2828
31.4244 32.1946
31.4708 32.0715
31.5171 32.1385
31.5636 32.1171
31.6098 31.8715
31.6563 31.7512
31.7026 31.5379
31.7491 31.4622
31.7953 31.4826
31.8418 31.4291
31.8881 31.4037
31.9346 31.2943
31.9809 31.2643
32.0275 31.1932
32.074 31.1009
32.1203 30.9275
32.1668 30.8991
32.2132 30.6331
32.2597 30.4742
32.306 30.448
32.3526 30.2504
32.399 30.2126
32.4455 29.9766
32.4919 29.981
32.5385 29.9385
32.5848 29.6626
32.6314 29.7781
32.6778 29.6555
32.7244 29.523
32.7708 29.3943
32.8174 29.367
32.8638 29.203
32.9104 29.2976
32.9569 29.2314
33.0035 29.1105
33.0499 29.0962
33.0966 28.9952
33.143 28.8974
33.1897 28.8279
33.2361 28.7848
33.2828 28.6788
33.3293 28.6401
33.3759 28.6453
33.4226 28.311
33.4691 28.2447
33.5158 28.2546
33.5623 28.0393
33.609 27.8747
33.6555 27.762
33.7022 27.6975
33.7487 27.6243
33.7954 27.5977
33.842 27.5321
33.8887 27.4558
33.9353 27.3939
33.982 27.3006
34.0286 27.1826
34.0753 27.1388
34.1219 27.0545
34.1687 26.9506
34.2152 26.8249
34.262 26.7246
34.3086 26.6752
34.3554 26.6112
34.402 26.4791
34.4488 26.4159
34.4954 26.3418
34.5422 26.2612
34.5889 26.1015
34.6357 26.0882
34.6825 25.9373
34.7292 25.9458
34.776 25.8389
34.8227 25.7072
34.8695 25.6628
34.9162 25.6296
34.9631 25.4761
35.0098 25.5827
35.0566 25.2935
35.1033 25.272
35.1502 25.3755
35.1969 25.1955
35.2438 25.2055
35.2906 25.0857
35.3375 25.0889
35.3842 24.9453
35.4311 25.0301
35.4779 24.9136
35.5248 24.8565
35.5716 24.7696
35.6185 24.6805
35.6653 24.6373
35.7123 24.5732
35.759 24.4979
35.806 24.316
35.8528 24.2181
35.8998 24.1543
35.9468 24.0789
35.9936 24.0937
36.0406 23.9497
36.0874 23.9143
36.1345 23.8144
36.1813 23.7767
36.2283 23.6991
36.2752 23.6012
36.3222 23.635
36.3691 23.5856
36.4161 23.3362
36.463 23.4049
36.5101 23.3442
36.557 23.3257
36.6041 23.0731
36.651 23.1099
36.6981 23.0617
36.745 22.9522
36.7921 22.8581
36.839 22.7507
36.8861 22.706
36.9331 22.6347
36.9802 22.614
37.0272 22.434
37.0743 22.4155
37.1213 22.3808
37.1684 22.3395
37.2154 22.2436
37.2626 22.1618
37.3098 22.087
37.3568 22.0591
37.404 22.0131
37.451 21.8643
37.4982 21.8586
37.5452 21.7386
37.5924 21.716
37.6395 21.7579
37.6867 21.6371
37.7337 21.5232
37.781 21.4321
37.8281 21.3065
37.8753 21.2085
37.9224 21.1969
37.9697 21.0337
38.0168 21.1025
38.064 21.0211
38.1111 21.003
38.1584 20.8475
38.2056 20.7589
38.2529 20.7053
38.3 20.6478
38.3473 20.6372
38.3945 20.5056
38.4418 20.5095
38.489 20.3957
38.5363 20.3342
38.5837 20.3065
38.6309 20.1814
38.6782 20.1462
38.7254 20.0739
38.7728 20.0072
38.82 19.9217
38.8674 19.9292
38.9146 19.8959
38.9621 19.752
39.0093 19.7445
39.0567 19.6081
39.104 19.6118
39.1514 19.5011
39.1987 19.4912
39.2461 19.3882
39.2934 19.2859
39.3409 19.2417
39.3882 19.2387
39.4356 19.169
39.483 19.0283
39.5304 19.0144
39.5778 18.9536
39.6253 18.8739
39.6726 18.8375
39.7201 18.8768
39.7675 18.7957
39.815 18.7231
39.8624 18.6087
39.9099 18.5694
39.9575 18.4549
40.0049 18.434
40.0525 18.3524
40.0999 18.3266
40.1474 18.2558
40.1949 18.1366
40.2425 18.1208
40.2899 18.0475
40.3375 17.9808
40.385 17.9511
40.4326 17.9439
40.48 17.8487
40.5277 17.8379
40.5752 17.7584
40.6228 17.645
40.6703 17.651
40.718 17.6091
40.7655 17.5495
40.8132 17.4594
40.8607 17.4243
40.9084 17.3579
40.9559 17.2949
41.0036 17.2428
41.0512 17.1478
41.0989 17.2322
41.1465 17.0925
41.1942 16.996
41.242 16.9222
41.2896 16.8839
41.3373 16.7978
41.3849 16.7845
41.4327 16.7036
41.4803 16.6643
41.5281 16.5918
41.5758 16.558
41.6236 16.479
41.6712 16.4375
41.7191 16.4093
41.7667 16.3358
41.8146 16.3393
41.8622 16.2679
41.9101 16.19
41.9578 16.0574
42.0057 16.0967
42.0534 16.0225
42.1013 15.9865
42.149 15.8975
42.1969 15.816
42.2446 15.8151
42.2925 15.7232
42.3403 15.7046
42.3882 15.6535
42.436 15.5947
42.4839 15.5512
42.5319 15.5209
42.5797 15.4189
42.6277 15.3578
42.6755 15.3469
42.7235 15.258
42.7713 15.2064
42.8193 15.1843
42.8671 15.1337
42.9152 15.1189
42.963 15.065
43.0111 14.9418
43.0589 14.9136
43.107 14.824
43.1549 14.8109
43.2029 14.7183
43.2508 14.6789
43.2989 14.6297
43.3468 14.533
43.3949 14.5579
43.4429 14.5233
43.491 14.4585
43.5389 14.3661
43.5871 14.3094
43.635 14.2575
43.6832 14.2712
43.7312 14.1857
43.7793 14.1369
43.8273 14.1147
43.8755 14.0608
43.9237 14.0161
43.9717 13.9952
44.0199 13.9391
44.068 13.8763
44.1162 13.8321
44.1642 13.7945
44.2125 13.7241
44.2606 13.667
44.3088 13.5937
44.3569 13.5871
44.4052 13.5476
44.4533 13.4138
44.5016 13.4143
44.5497 13.4031
44.598 13.3266
44.6461 13.3063
44.6945 13.2545
44.7426 13.1754
44.791 13.1253
44.8391 13.1104
44.8875 13.0417
44.9357 13.0613
44.984 12.9526
45.0322 12.8766
45.0806 12.8949
45.1288 12.8411
45.1773 12.774
45.2257 12.7379
45.2739 12.6663
45.3224 12.6989
45.3706 12.6077
45.4191 12.5395
45.4673 12.4925
45.5158 12.4688
45.5641 12.425
45.6126 12.3562
45.6609 12.3254
45.7094 12.2697
45.7577 12.2221
45.8063 12.1845
45.8546 12.2118
45.9031 12.0872
45.9515 12.0877
46.0001 11.9895
46.0484 11.9874
46.097 11.9549
46.1454 11.8613
46.194 11.8393
46.2424 11.7975
46.291 11.7636
46.3395 11.7436
46.3881 11.6374
46.4365 11.6653
46.4852 11.5936
46.5337 11.5661
46.5823 11.5475
46.631 11.4496
46.6795 11.3959
46.7282 11.4128
46.7767 11.3484
46.8254 11.3208
46.8739 11.2731
46.9226 11.203
46.9712 11.1438
47.0199 11.1517
47.0685 11.0748
47.1173 11.0462
47.1658 11.0296
47.2146 10.997
47.2632 10.8875
47.312 10.8738
47.3606 10.8258
47.4095 10.7985
47.4581 10.7396
47.5069 10.7268
47.5556 10.6506
47.6044 10.6192
47.6531 10.5855
47.702 10.5388
47.7507 10.5312
47.7996 10.4794
47.8483 10.4746
47.8972 10.3955
47.9461 10.3705
47.9948 10.3143
48.0438 10.3464
48.0925 10.2617
48.1415 10.2812
48.1902 10.2177
48.2392 10.154
48.288 10.1149
48.337 10.0585
48.3858 10.0289
48.4348 9.99382
48.4837 10.0265
48.5327 9.93267
48.5815 9.89534
48.6306 9.85726
48.6795 9.82203
48.7285 9.80736
48.7774 9.75244
48.8265 9.75145
48.8754 9.68474
48.9245 9.63812
48.9734 9.63724
49.0226 9.58233
49.0715 9.56192
49.1206 9.51066
49.1696 9.44286
49.2188 9.42964
49.2679 9.41325
49.3169 9.34592
49.3661 9.33382
49.4151 9.30493
49.4643 9.29147
49.5134 9.19866
49.5626 9.1789
49.6117 9.16832
49.6609 9.08648
49.71 9.05071
49.7592 9.05112
49.8083 9.0026
49.8576 8.9995
49.9067 8.94034
49.956 8.89074
50.0052 8.88202
50.0545 8.85175
50.1036 8.81552
50.153 8.79484
50.2022 8.76245
50.2515 8.68043
50.3007 8.65679
50.3501 8.66024
50.3993 8.59835
50.4487 8.56479
50.498 8.5246
50.5474 8.47447
50.5966 8.45867
50.6461 8.46169
50.6955 8.40289
50.7448 8.34046
50.7943 8.3462
50.8436 8.30193
50.8931 8.25873
50.9424 8.23394
50.9919 8.19165
51.0413 8.15037
51.0908 8.12315
51.1402 8.11745
51.1897 8.05334
51.2391 8.02552
51.2887 8.04211
51.3381 7.98781
51.3877 7.94801
51.4371 7.86836
51.4867 7.88089
51.5362 7.82969
51.5858 7.83056
51.6353 7.77608
51.6849 7.77664
51.7344 7.70495
51.7841 7.71126
51.8336 7.64643
51.8833 7.61278
51.9328 7.62549
51.9826 7.53643
52.0323 7.48782
52.0818 7.50201
52.1316 7.42135
52.1812 7.4515
52.231 7.40016
52.2806 7.36511
52.3304 7.33972
52.38 7.31114
52.4298 7.27227
52.4794 7.25396
52.5293 7.21537
52.5789 7.21636
52.6288 7.16333
52.6785 7.13833
52.7284 7.09314
52.7781 7.05385
52.828 7.00986
52.8777 7.04321
52.9276 6.97597
52.9774 6.95544
53.0273 6.97762
53.0771 6.92317
53.1271 6.87098
53.1769 6.83988
53.2269 6.81919
53.2767 6.78138
53.3267 6.73023
53.3765 6.70292
53.4266 6.71184
53.4766 6.64029
53.5265 6.62703
53.5765 6.61619
53.6264 6.56787
53.6765 6.55601
53.7264 6.48878
53.7765 6.4752
53.8265 6.48313
53.8766 6.40371
53.9266 6.41992
53.9767 6.38118
54.0267 6.35602
54.0769 6.33311
54.1269 6.25965
54.1771 6.23888
54.2271 6.22906
54.2773 6.18624
54.3274 6.17239
54.3776 6.07268
54.4277 6.08127
54.478 6.047
54.528 5.99582
54.5783 5.96237
54.6285 5.91168
54.6788 5.87017
54.7289 5.80449
54.7792 5.80027
54.8296 5.76081
54.8798 5.71863
54.9301 5.66584
54.9803 5.67839
55.0307 5.6527
55.0809 5.51947
55.1314 5.54841
55.1816 5.41581
55.232 5.4488
55.2823 5.39484
55.3328 5.30444
55.383 5.29531
55.4335 5.22568
55.4838 5.1867
55.5344 5.11115
55.5847 5.06353
55.6352 5.09359
55.6856 5.03755
55.7361 4.9426