File: XRD/Ni3Fe_FD0515.xy
TT I
1.27165 7.58214
1.31627 6.98226
1.36089 6.82543
1.40551 6.24298
1.45013 6.22239
1.49476 6.33645
1.53938 5.68486
1.584 5.4625
1.62863 5.82198
1.67325 5.02252
1.71787 5.67136
1.7625 4.92603
1.80712 5.44861
1.85174 4.99342
1.89636 5.22647
1.94099 5.09331
1.98562 4.93359
2.03025 5.22112
2.07487 4.65201
2.11949 5.41227
2.16411 4.92988
2.20874 15.9462
2.25338 25.4114
2.298 5.9215
2.34263 4.94681
2.38725 6.629
2.43188 6.04341
2.4765 6.99121
2.52115 6.67603
2.56577 8.06192
2.6104 8.21243
2.65503 7.16852
2.69965 7.68566
2.7443 7.79421
2.78893 8.1558
2.83356 8.44591
2.87818 8.57334
2.92281 8.86444
2.96744 9.72142
3.01209 9.74048
3.05672 11.6664
3.10135 12.7423
3.14599 13.5681
3.19062 14.2628
3.23527 14.8951
3.2799 16.2914
3.32454 17.0001
3.36917 18.0482
3.4138 19.2787
3.45844 20.0273
3.50309 21.4075
3.54773 22.4166
3.59237 24.4358
3.637 102.136
3.68164 63.834
3.7263 27.0787
3.77094 26.473
3.81558 27.5206
3.86022 28.5212
3.90486 29.32
3.9495 30.2685
3.99416 31.4111
4.0388 32.833
4.08344 34.5017
4.12809 35.0418
4.17273 38.0034
4.21738 43.9205
4.26204 271.692
4.30669 240.069
4.35133 50.1533
4.39598 45.1431
4.44063 55.9776
4.4853 68.0811
4.52995 51.26
4.5746 51.8591
4.61925 53.7662
4.6639 56.284
4.70855 58.7744
4.75322 61.7822
4.79788 64.4281
4.84253 67.7033
4.88719 71.835
4.93184 75.8114
4.97652 81.7751
5.02118 88.3301
5.06583 95.6965
5.11049 107.62
5.15515 183.31
5.19981 384.949
5.24449 2894.55
5.28916 11905.2
5.33382 3271.13
5.37848 205.745
5.42315 134.184
5.46783 116.363
5.5125 108.019
5.55716 103.362
5.60183 99.7637
5.6465 98.5067
5.69117 95.1303
5.73586 93.5204
5.78053 92.6178
5.8252 92.1157
5.86988 93.4296
5.91455 95.753
5.95924 104.095
6.00392 213.421
6.0486 1000.23
6.09328 4121.49
6.13795 3463.63
6.18263 294.872
6.22733 97.2183
6.27201 85.2967
6.3167 107.315
6.36138 82.7076
6.40606 69.9842
6.45075 68.3272
6.49545 66.6105
6.54014 64.6121
6.58483 64.0311
6.62952 64.0785
6.67421 98.4309
6.71892 154.984
6.76361 70.7402
6.8083 59.6921
6.853 58.222
6.89769 57.4631
6.94239 57.7297
6.98711 56.873
7.03181 56.4501
7.07651 56.2917
7.12121 56.1761
7.16591 55.9991
7.21063 56.6034
7.25533 72.9478
7.30004 194.828
7.34475 97.1755
7.38945 57.5908
7.43416 55.3418
7.47889 55.2539
7.5236 55.6947
7.56831 56.234
7.61303 58.3401
7.65774 58.4996
7.70247 56.8059
7.74719 56.8762
7.79191 57.3144
7.83663 57.6035
7.88135 58.2673
7.92607 59.3058
7.97081 60.6324
8.01553 61.5106
8.06026 62.896
8.10498 64.7529
8.14971 74.84
8.19446 73.894
8.23919 70.1052
8.28392 72.6623
8.32865 75.2349
8.37339 78.8775
8.41812 86.4463
8.46288 117.97
8.50761 166.999
8.55235 391.663
8.59709 1133.13
8.64183 2115.3
8.68658 1068.03
8.73134 185.225
8.77609 102.398
8.82083 94.3636
8.86558 90.8867
8.91033 91.3002
8.9551 93.3729
8.99985 86.349
9.04461 84.6057
9.08936 83.8878
9.13412 82.6857
9.17888 83.0175
9.22365 83.5873
9.26841 82.8893
9.31318 83.3837
9.35794 83.5074
9.4027 83.8559
9.44749 84.6993
9.49226 85.5541
9.53703 86.5941
9.5818 88.7338
9.62657 93.104
9.67134 100.655
9.71614 95.3351
9.76091 95.3013
9.80569 97.8908
9.85047 100.851
9.89525 127.358
9.94005 140.907
9.98484 179.222
10.0296 347.402
10.0744 784.855
10.1192 1649.96
10.164 1651.62
10.2088 450.651
10.2536 135.502
10.2984 116.312
10.3432 117.881
10.388 106.878
10.4328 119.837
10.4776 161.742
10.5224 276.685
10.5672 491.096
10.612 519.586
10.6568 227.141
10.7017 100.325
10.7465 87.7307
10.7913 84.4037
10.8361 82.0183
10.8809 79.7977
10.9257 79.5661
10.9706 80.6014
11.0154 75.9235
11.0602 73.8939
11.105 72.8619
11.1499 77.9646
11.1947 86.2158
11.2395 76.3165
11.2844 71.404
11.3292 68.2236
11.374 67.1613
11.4189 66.6291
11.4637 65.5657
11.5086 66.4984
11.5534 69.6919
11.5983 66.865
11.6431 64.5731
11.688 63.4141
11.7328 63.5997
11.7777 63.8724
11.8225 63.27
11.8674 63.1213
11.9122 63.5559
11.9571 63.8238
12.002 64.1039
12.0468 68.4421
12.0917 80.1765
12.1366 103.438
12.1814 149.867
12.2263 202.027
12.2712 176.174
12.3161 103.333
12.3609 72.7535
12.4058 66.0554
12.4507 65.2816
12.4956 65.1427
12.5405 65.2639
12.5853 66.4545
12.6302 74.9778
12.6751 81.3765
12.72 71.551
12.7649 68.8605
12.8098 69.0709
12.8547 70.8466
12.8996 71.705
12.9445 73.1101
12.9894 74.7914
13.0343 76.4765
13.0792 79.635
13.1242 88.8203
13.1691 113.427
13.214 149.874
13.2589 232.57
13.3038 355.28
13.3487 431.857
13.3937 285.937
13.4386 132.152
13.4835 107.116
13.5285 121.893
13.5734 157.958
13.6183 239.518
13.6633 333.746
13.7082 343.801
13.7531 202.576
13.7981 103.17
13.843 83.5418
13.888 80.3283
13.9329 77.9651
13.9779 76.7651
14.0228 75.1314
14.0678 74.1399
14.1127 73.4244
14.1577 73.6912
14.2027 72.4026
14.2476 71.2476
14.2926 71.3501
14.3376 72.9208
14.3825 71.2106
14.4275 69.6721
14.4725 69.4685
14.5175 69.4996
14.5624 70.1628
14.6074 72.2211
14.6524 72.8339
14.6974 71.4526
14.7424 72.7502
14.7874 79.416
14.8324 89.8866
14.8774 110.702
14.9224 150.278
14.9674 199.94
15.0124 217.138
15.0574 156.447
15.1024 95.0819
15.1474 73.9245
15.1924 71.5151
15.2374 72.3107
15.2824 71.3643
15.3274 69.1228
15.3725 67.7397
15.4175 67.2858
15.4625 66.6692
15.5076 67.2088
15.5526 66.9586
15.5976 66.596
15.6426 67.5033
15.6877 72.852
15.7327 80.7628
15.7778 95.2859
15.8228 124.953
15.8679 166.473
15.9129 192.37
15.958 161.972
16.003 103.467
16.0481 70.4664
16.0931 66.0591
16.1382 64.0099
16.1833 61.4931
16.2283 59.8024
16.2734 59.2777
16.3185 59.5466
16.3636 60.5601
16.4086 59.013
16.4537 56.9214
16.4988 56.1706
16.5439 56.3366
16.589 55.9822
16.6341 55.6069
16.6792 55.0485
16.7243 55.5861
16.7694 55.5113
16.8145 55.6617
16.8596 55.8423
16.9047 57.7568
16.9498 58.1252
16.9949 56.5194
17.04 56.4672
17.0851 57.7016
17.1302 59.3801
17.1754 62.1723
17.2205 66.9989
17.2656 74.047
17.3108 81.7991
17.3559 82.3488
17.401 72.7296
17.4462 63.6289
17.4913 60.0453
17.5365 59.8277
17.5815 60.0434
17.6268 60.2373
17.6718 61.0903
17.7171 61.7517
17.7622 62.0132
17.8074 62.575
17.8525 64.7196
17.8977 68.9928
17.9428 74.6985
17.9881 82.7546
18.0331 98.7143
18.0784 118.838
18.1237 137.623
18.1688 134.502
18.214 107.957
18.2591 88.8795
18.3044 90.4865
18.3495 99.654
18.3948 106.519
18.4399 99.7178
18.4852 80.9724
18.5303 67.8472
18.5756 63.1475
18.6207 62.1232
18.666 61.1391
18.7112 60.4255
18.7565 59.8106
18.8016 59.4068
18.8469 58.8976
18.892 58.469
18.9374 57.9974
18.9825 57.8539
19.0278 57.7326
19.073 57.5292
19.1183 58.2544
19.1635 59.0476
19.2088 60.4924
19.254 62.8565
19.2993 66.8705
19.3447 72.7453
19.3898 76.928
19.4352 74.0335
19.4804 65.0419
19.5257 57.9629
19.5709 54.8912
19.6163 54.7351
19.6615 54.4224
19.7068 53.9434
19.752 53.9079
19.7974 54.2657
19.8426 55.1506
19.888 55.7735
19.9332 57.1696
19.9786 59.2185
20.0238 62.4858
20.0692 67.2314
20.1144 70.3835
20.1598 69.33
20.205 64.8169
20.2504 62.9333
20.2957 63.9515
20.3411 65.9804
20.3863 65.1365
20.4318 59.7573
20.477 54.8634
20.5224 52.5151
20.5677 51.8386
20.6131 50.8946
20.6586 50.3736
20.7038 50.3674
20.7493 49.7731
20.7945 49.6472
20.84 49.359
20.8853 49.4291
20.9307 49.1751
20.976 49.4514
21.0215 49.2872
21.0668 49.5348
21.1122 50.1678
21.1575 50.6141
21.203 51.369
21.2483 51.9259
21.2938 52.1045
21.3391 50.9738
21.3846 49.6811
21.4299 49.0981
21.4754 48.9603
21.5207 49.0975
21.5662 49.5414
21.6116 49.8113
21.6571 50.4573
21.7024 51.4151
21.7479 53.2312
21.7933 55.8155
21.8388 58.9942
21.8843 62.6633
21.9297 64.945
21.9752 64.3959
22.0206 61.2322
22.0661 57.3822
22.1115 56.3394
22.157 56.6024
22.2024 55.2897
22.248 52.3575
22.2933 50.705
22.3389 49.8626
22.3843 49.71
22.4299 49.6077
22.4753 49.6124
22.5208 49.4816
22.5662 49.0087
22.6118 49.2747
22.6572 49.5251
22.7028 49.8068
22.7483 50.1746
22.7939 50.8776
22.8393 52.2871
22.8849 54.4226
22.9303 56.2066
22.9759 58.1854
23.0214 57.919
23.067 55.5563
23.1126 52.2747
23.1581 49.8392
23.2037 49.3881
23.2492 49.4088
23.2948 49.4621
23.3403 49.6082
23.3859 50.4279
23.4314 51.1395
23.477 53.0475
23.5225 54.9185
23.5682 57.11
23.6137 58.2928
23.6593 56.5253
23.7048 52.9253
23.7505 49.5029
23.796 47.3782
23.8417 46.8645
23.8872 46.2132
23.9329 45.7673
23.9784 45.3934
24.0241 45.2916
24.0697 45.0261
24.1154 44.681
24.1609 44.6046
24.2066 44.4464
24.2522 44.2609
24.2979 44.0395
24.3434 43.9155
24.3892 43.8034
24.4349 43.7283
24.4805 43.4867
24.5262 43.4652
24.5718 43.4534
24.6175 43.4534
24.6631 43.2768
24.7089 43.1451
24.7545 42.9212
24.8002 42.7392
24.8458 42.786
24.8916 42.5779
24.9372 42.8044
24.983 43.1735
25.0286 43.1675
25.0744 43.7289
25.12 44.148
25.1658 44.8099
25.2114 45.0191
25.2572 45.2276
25.3029 45.4859
25.3487 45.5812
25.3943 45.2003
25.4402 44.3483
25.4858 43.2723
25.5316 42.0876
25.5773 41.6055
25.6231 41.5117
25.669 41.1164
25.7147 41.133
25.7605 40.9009
25.8062 41.1336
25.8521 41.3263
25.8977 41.0816
25.9436 41.3811
25.9893 41.4052
26.0352 41.9611
26.0809 42.0168
26.1268 42.1105
26.1725 41.9434
26.2184 41.3205
26.2641 40.9348
26.31 40.631
26.3557 40.7207
26.4017 40.7798
26.4474 40.9944
26.4933 41.2788
26.5391 41.7162
26.585 42.194
26.6308 42.6064
26.6767 42.7632
26.7225 42.513
26.7684 41.981
26.8142 41.4712
26.8601 40.9682
26.9059 40.7129
26.9519 40.1017
26.9979 39.6925
27.0437 39.4428
27.0896 39.2764
27.1354 39.2504
27.1814 39.1254
27.2272 39.0717
27.2732 38.9702
27.3191 38.8569
27.3651 38.9715
27.4109 38.8754
27.4569 38.9179
27.5027 38.9852
27.5488 39.0913
27.5946 38.9607
27.6407 38.6631
27.6865 38.7114
27.7326 38.4049
27.7784 38.3365
27.8245 38.2514
27.8703 38.5541
27.9164 38.7516
27.9623 38.8451
28.0084 39.0637
28.0543 39.5878
28.1003 39.5673
28.1462 39.3877
28.1923 39.0517
28.2384 38.426
28.2843 38.1207
28.3304 37.7328
28.3764 37.3603
28.4225 36.8578
28.4684 36.6827
28.5145 36.4068
28.5605 36.207
28.6066 36.2145
28.6526 36.1402
28.6987 36.0687
28.7447 35.9686
28.7908 35.8314
28.8368 35.9593
28.8829 35.8517
28.9289 35.8007
28.9751 35.6354
29.0211 35.4176
29.0673 35.0832
29.1133 35.0858
29.1595 34.9049
29.2055 34.804
29.2517 34.7661
29.2977 34.7038
29.3439 34.7766
29.3899 34.5409
29.4361 34.4551
29.4824 34.5111
29.5284 34.1806
29.5746 33.8681
29.6207 33.5655
29.6669 33.4766
29.713 33.3932
29.7593 33.3052
29.8053 33.3224
29.8516 33.2362
29.8977 33.152
29.9439 32.9601
29.99 32.9797
30.0363 32.9357
30.0824 32.9506
30.1287 32.6754
30.1748 32.9042
30.2211 32.9394
30.2673 32.6695
30.3136 32.7163
30.3597 32.6359
30.406 32.556
30.4522 32.6018
30.4985 32.3609
30.5447 32.5011
30.591 32.3966
30.6372 32.573
30.6835 32.5291
30.7297 32.6119
30.7761 32.6277
30.8224 32.4719
30.8686 32.2118
30.915 32.0609
30.9612 32.0122
31.0076 31.6945
31.0538 31.5665
31.1002 31.5263
31.1464 31.3836
31.1928 31.3178
31.2391 31.399
31.2855 31.1785
31.3317 31.1726
31.3781 31.3221
31.4244 31.2894
31.4708 31.1849
31.5171 31.2216
31.5636 31.035
31.6098 30.8771
31.6563 30.8309
31.7026 30.6577
31.7491 30.4683
31.7953 30.4946
31.8418 30.5769
31.8881 30.4979
31.9346 30.4025
31.9809 30.4741
32.0275 30.3157
32.074 30.1967
32.1203 30.0812
32.1668 29.9173
32.2132 29.729
32.2597 29.6085
32.306 29.5714
32.3526 29.3837
32.399 29.2886
32.4455 29.1644
32.4919 29.0522
32.5385 29.0863
32.5848 28.8184
32.6314 28.8938
32.6778 28.7726
32.7244 28.6367
32.7708 28.4815
32.8174 28.5156
32.8638 28.369
32.9104 28.4189
32.9569 28.4406
33.0035 28.215
33.0499 28.1557
33.0966 28.1366
33.143 28.1948
33.1897 28.1106
33.2361 27.9763
33.2828 27.9602
33.3293 27.8322
33.3759 27.7332
33.4226 27.574
33.4691 27.5278
33.5158 27.4053
33.5623 27.3008
33.609 27.1219
33.6555 27.0266
33.7022 26.9508
33.7487 26.8461
33.7954 26.8078
33.842 26.7162
33.8887 26.6759
33.9353 26.6438
33.982 26.4603
34.0286 26.4339
34.0753 26.3581
34.1219 26.2457
34.1687 26.2007
34.2152 26.1273
34.262 26.0701
34.3086 25.8565
34.3554 25.8085
34.402 25.7328
34.4488 25.5809
34.4954 25.5785
34.5422 25.6117
34.5889 25.3838
34.6357 25.2817
34.6825 25.3581
34.7292 25.1706
34.776 25.1598
34.8227 25.1075
34.8695 25.0139
34.9162 24.9218
34.9631 24.8181
35.0098 24.838
35.0566 24.719
35.1033 24.5869
35.1502 24.5981
35.1969 24.572
35.2438 24.4299
35.2906 24.427
35.3375 24.3883
35.3842 24.2789
35.4311 24.2122
35.4779 24.2724
35.5248 24.1756
35.5716 24.064
35.6185 23.9929
35.6653 23.9225
35.7123 23.8313
35.759 23.7857
35.806 23.6961
35.8528 23.5578
35.8998 23.5581
35.9468 23.4087
35.9936 23.3637
36.0406 23.3529
36.0874 23.3406
36.1345 23.2183
36.1813 23.116
36.2283 22.9622
36.2752 22.9309
36.3222 22.9481
36.3691 22.8541
36.4161 22.6757
36.463 22.7426
36.5101 22.7901
36.557 22.6059
36.6041 22.5228
36.651 22.5306
36.6981 22.4174
36.745 22.3694
36.7921 22.2547
36.839 22.1574
36.8861 22.1712
36.9331 21.9822
36.9802 21.9895
37.0272 21.7871
37.0743 21.765
37.1213 21.7636
37.1684 21.6829
37.2154 21.7247
37.2626 21.5041
37.3098 21.5369
37.3568 21.4426
37.404 21.4401
37.451 21.285
37.4982 21.2567
37.5452 21.1386
37.5924 21.0795
37.6395 21.0942
37.6867 21.0341
37.7337 20.8296
37.781 20.79
37.8281 20.7108
37.8753 20.6383
37.9224 20.639
37.9697 20.5885
38.0168 20.4606
38.064 20.3981
38.1111 20.3786
38.1584 20.2801
38.2056 20.215
38.2529 20.1833
38.3 20.1364
38.3473 20.0555
38.3945 19.9357
38.4418 19.8946
38.489 19.8783
38.5363 19.7851
38.5837 19.7094
38.6309 19.6144
38.6782 19.604
38.7254 19.4869
38.7728 19.4873
38.82 19.4262
38.8674 19.3706
38.9146 19.2926
38.9621 19.2074
39.0093 19.178
39.0567 19.1034
39.104 19.0968
39.1514 18.9801
39.1987 18.9071
39.2461 18.8762
39.2934 18.8526
39.3409 18.7328
39.3882 18.6492
39.4356 18.6625
39.483 18.5653
39.5304 18.4793
39.5778 18.4565
39.6253 18.3898
39.6726 18.4042
39.7201 18.3206
39.7675 18.1949
39.815 18.1416
39.8624 18.1948
39.9099 18.0379
39.9575 17.9484
40.0049 17.9001
40.0525 17.8615
40.0999 17.7977
40.1474 17.7728
40.1949 17.6807
40.2425 17.6246
40.2899 17.5945
40.3375 17.5311
40.385 17.4475
40.4326 17.4518
40.48 17.3808
40.5277 17.3155
40.5752 17.2563
40.6228 17.2101
40.6703 17.107
40.718 17.1137
40.7655 17.0611
40.8132 16.916
40.8607 16.9721
40.9084 16.8982
40.9559 16.8321
41.0036 16.7645
41.0512 16.7476
41.0989 16.6761
41.1465 16.5706
41.1942 16.5727
41.242 16.4865
41.2896 16.4319
41.3373 16.4055
41.3849 16.341
41.4327 16.3031
41.4803 16.1823
41.5281 16.1431
41.5758 16.1931
41.6236 16.0184
41.6712 16.0016
41.7191 15.9147
41.7667 15.9048
41.8146 15.8238
41.8622 15.8794
41.9101 15.737
41.9578 15.6558
42.0057 15.6495
42.0534 15.5845
42.1013 15.5804
42.149 15.4836
42.1969 15.4062
42.2446 15.4024
42.2925 15.3511
42.3403 15.2694
42.3882 15.2405
42.436 15.182
42.4839 15.0888
42.5319 15.0352
42.5797 14.9981
42.6277 14.9602
42.6755 14.9269
42.7235 14.8546
42.7713 14.7794
42.8193 14.8138
42.8671 14.6738
42.9152 14.6737
42.963 14.6117
43.0111 14.5493
43.0589 14.4764
43.107 14.4456
43.1549 14.3945
43.2029 14.3133
43.2508 14.336
43.2989 14.2687
43.3468 14.1834
43.3949 14.136
43.4429 14.1421
43.491 14.0802
43.5389 14.0545
43.5871 13.9712
43.635 13.852
43.6832 13.8864
43.7312 13.8298
43.7793 13.8032
43.8273 13.7376
43.8755 13.7201
43.9237 13.6197
43.9717 13.554
44.0199 13.5992
44.068 13.5297
44.1162 13.4364
44.1642 13.4013
44.2125 13.3366
44.2606 13.3131
44.3088 13.257
44.3569 13.2399
44.4052 13.2208
44.4533 13.1308
44.5016 13.0467
44.5497 13.0278
44.598 12.9897
44.6461 12.9788
44.6945 12.8753
44.7426 12.8578
44.791 12.7463
44.8391 12.773
44.8875 12.7541
44.9357 12.712
44.984 12.6185
45.0322 12.6038
45.0806 12.517
45.1288 12.5004
45.1773 12.4584
45.2257 12.3867
45.2739 12.3556
45.3224 12.3297
45.3706 12.2681
45.4191 12.2106
45.4673 12.1678
45.5158 12.1482
45.5641 12.0731
45.6126 12.077
45.6609 12.0145
45.7094 11.9205
45.7577 11.949
45.8063 11.8453
45.8546 11.8329
45.9031 11.7981
45.9515 11.7487
46.0001 11.7343
46.0484 11.7215
46.097 11.6114
46.1454 11.5975
46.194 11.5774
46.2424 11.525
46.291 11.4387
46.3395 11.4202
46.3881 11.3681
46.4365 11.3688
46.4852 11.3109
46.5337 11.2548
46.5823 11.2908
46.631 11.1961
46.6795 11.0972
46.7282 11.1427
46.7767 11.082
46.8254 11.0083
46.8739 10.9878
46.9226 10.8852
46.9712 10.8954
47.0199 10.882
47.0685 10.8106
47.1173 10.7527
47.1658 10.6964
47.2146 10.6682
47.2632 10.6555
47.312 10.5882
47.3606 10.5877
47.4095 10.5394
47.4581 10.4711
47.5069 10.4741
47.5556 10.403
47.6044 10.3684
47.6531 10.3844
47.702 10.3201
47.7507 10.3016
47.7996 10.2446
47.8483 10.1887
47.8972 10.1857
47.9461 10.1199
47.9948 10.078
48.0438 10.0324
48.0925 10.0037
48.1415 9.97091
48.1902 9.95085
48.2392 9.95645
48.288 9.9164
48.337 9.8296
48.3858 9.82682
48.4348 9.76768
48.4837 9.77022
48.5327 9.72916
48.5815 9.6787
48.6306 9.65467
48.6795 9.6036
48.7285 9.55422
48.7774 9.497
48.8265 9.53052
48.8754 9.42757
48.9245 9.40822
48.9734 9.35293
49.0226 9.3528
49.0715 9.27979
49.1206 9.31231
49.1696 9.24042
49.2188 9.22106
49.2679 9.13759
49.3169 9.11126
49.3661 9.11852
49.4151 9.04315
49.4643 9.04048
49.5134 9.01259
49.5626 8.9402
49.6117 8.93947
49.6609 8.91403
49.71 8.80169
49.7592 8.83734
49.8083 8.77271
49.8576 8.78365
49.9067 8.71126
49.956 8.70467
50.0052 8.66918
50.0545 8.61895
50.1036 8.60562
50.153 8.55169
50.2022 8.5128
50.2515 8.48787
50.3007 8.43685
50.3501 8.38392
50.3993 8.39532
50.4487 8.33251
50.498 8.31874
50.5474 8.30524
50.5966 8.24028
50.6461 8.2243
50.6955 8.19167
50.7448 8.17658
50.7943 8.13991
50.8436 8.09411
50.8931 8.06563
50.9424 8.04513
50.9919 7.99765
51.0413 7.9823
51.0908 7.91591
51.1402 7.92361
51.1897 7.89535
51.2391 7.83046
51.2887 7.81278
51.3381 7.80498
51.3877 7.77378
51.4371 7.68988
51.4867 7.67186
51.5362 7.66648
51.5858 7.63086
51.6353 7.5639
51.6849 7.54482
51.7344 7.51792
51.7841 7.47841
51.8336 7.4267
51.8833 7.44312
51.9328 7.40124
51.9826 7.34552
52.0323 7.32538
52.0818 7.29625
52.1316 7.2752
52.1812 7.25134
52.231 7.20608
52.2806 7.17372
52.3304 7.18963
52.38 7.14314
52.4298 7.06433
52.4794 7.0863
52.5293 7.00212
52.5789 7.02584
52.6288 6.99286
52.6785 6.94047
52.7284 6.93654
52.7781 6.91277
52.828 6.85164
52.8777 6.82352
52.9276 6.80198
52.9774 6.78941
53.0273 6.77704
53.0771 6.74988
53.1271 6.71201
53.1769 6.63389
53.2269 6.64302
53.2767 6.6113
53.3267 6.59473
53.3765 6.57963
53.4266 6.53711
53.4766 6.50394
53.5265 6.4477
53.5765 6.45308
53.6264 6.39083
53.6765 6.40111
53.7264 6.38069
53.7765 6.32941
53.8265 6.28997
53.8766 6.26628
53.9266 6.24033
53.9767 6.23476
54.0267 6.17986
54.0769 6.13429
54.1269 6.12063
54.1771 6.0685
54.2271 6.10423
54.2773 5.9984
54.3274 6.01317
54.3776 5.97996
54.4277 5.92256
54.478 5.92513
54.528 5.9107
54.5783 5.85101
54.6285 5.78726
54.6788 5.76213
54.7289 5.69071
54.7792 5.68227
54.8296 5.60901
54.8798 5.59303
54.9301 5.56935
54.9803 5.55665
55.0307 5.47503
55.0809 5.44718
55.1314 5.41339
55.1816 5.3763
55.232 5.29756
55.2823 5.2656
55.3328 5.20157
55.383 5.15865
55.4335 5.08763
55.4838 5.07886
55.5344 5.01691
55.5847 4.9542
55.6352 4.9624
55.6856 4.92246
55.7361 4.91717