File: XRD/Ni3Fe_FD0822.xy
TT I
1.27165 7.035
1.31627 6.5772
1.36089 5.95279
1.40551 5.90301
1.45013 5.875
1.49476 6.113
1.53938 5.68232
1.584 4.85052
1.62863 5.52389
1.67325 5.29991
1.71787 4.5817
1.7625 4.72742
1.80712 4.78798
1.85174 4.59009
1.89636 5.07914
1.94099 4.6616
1.98562 4.73066
2.03025 4.33411
2.07487 4.2321
2.11949 5.06197
2.16411 5.14948
2.20874 7.63758
2.25338 10.3017
2.298 5.61465
2.34263 5.47209
2.38725 5.75875
2.43188 6.53666
2.4765 6.97022
2.52115 7.2273
2.56577 7.58202
2.6104 8.97697
2.65503 7.49884
2.69965 8.53619
2.7443 8.70031
2.78893 8.38526
2.83356 8.38891
2.87818 9.02729
2.92281 9.17525
2.96744 10.2235
3.01209 10.1197
3.05672 11.1802
3.10135 12.6668
3.14599 12.7068
3.19062 14.4019
3.23527 15.1556
3.2799 15.6514
3.32454 16.1575
3.36917 17.33
3.4138 18.4915
3.45844 19.2328
3.50309 20.3318
3.54773 21.4299
3.59237 22.4058
3.637 46.8044
3.68164 35.3148
3.7263 25.1876
3.77094 25.6104
3.81558 26.2151
3.86022 26.9341
3.90486 28.605
3.9495 29.3436
3.99416 30.4114
4.0388 31.7185
4.08344 32.8784
4.12809 33.7582
4.17273 35.8922
4.21738 38.6938
4.26204 112.447
4.30669 99.0162
4.35133 43.9659
4.39598 43.3136
4.44063 47.9283
4.4853 53.0027
4.52995 57.6126
4.5746 58.4748
4.61925 53.8189
4.6639 54.9348
4.70855 57.9225
4.75322 61.6137
4.79788 68.7225
4.84253 68.3158
4.88719 75.0774
4.93184 76.7809
4.97652 80.5578
5.02118 86.6603
5.06583 94.2836
5.11049 105.764
5.15515 155.557
5.19981 403.001
5.24449 2877.15
5.28916 12358.2
5.33382 2456.48
5.37848 193.32
5.42315 129.942
5.46783 119.199
5.5125 113.038
5.55716 101.759
5.60183 96.9392
5.6465 95.2938
5.69117 93.7188
5.73586 92.4595
5.78053 98.2543
5.8252 98.8496
5.86988 101.459
5.91455 94.7334
5.95924 103.661
6.00392 241.72
6.0486 967.766
6.09328 4570.51
6.13795 3009.68
6.18263 202.354
6.22733 89.0797
6.27201 79.5283
6.3167 82.921
6.36138 73.5037
6.40606 69.6198
6.45075 69.6835
6.49545 64.6508
6.54014 62.7175
6.58483 62.532
6.62952 62.5989
6.67421 71.6197
6.71892 85.6545
6.76361 61.2611
6.8083 59.0368
6.853 59.8345
6.89769 56.3214
6.94239 55.6174
6.98711 55.1141
7.03181 55.0764
7.07651 54.195
7.12121 54.0385
7.16591 56.2498
7.21063 54.8428
7.25533 59.3918
7.30004 94.4887
7.34475 65.6366
7.38945 54.4498
7.43416 53.2321
7.47889 53.0352
7.5236 53.6154
7.56831 54.5261
7.61303 54.9486
7.65774 55.5718
7.70247 56.7111
7.74719 55.8368
7.79191 55.8092
7.83663 56.1312
7.88135 57.2693
7.92607 58.0941
7.97081 59.0863
8.01553 60.2204
8.06026 62.3276
8.10498 63.9699
8.14971 71.2385
8.19446 70.4101
8.23919 68.8365
8.28392 71.6463
8.32865 73.4842
8.37339 77.8221
8.41812 82.9893
8.46288 101.506
8.50761 178.678
8.55235 384.287
8.59709 1224.34
8.64183 2222.26
8.68658 835.43
8.73134 147.045
8.77609 96.8325
8.82083 91.4214
8.86558 92.6233
8.91033 92.0379
8.9551 89.0776
8.99985 84.5557
9.04461 83.4694
9.08936 83.7511
9.13412 82.7368
9.17888 81.6584
9.22365 81.8438
9.26841 81.2316
9.31318 84.8701
9.35794 86.9424
9.4027 86.1898
9.44749 85.103
9.49226 84.2077
9.53703 85.0557
9.5818 89.032
9.62657 94.5237
9.67134 94.9168
9.71614 91.9014
9.76091 94.3132
9.80569 99.2485
9.85047 100.929
9.89525 110.86
9.94005 126.047
9.98484 190.758
10.0296 345.874
10.0744 840.398
10.1192 1828.91
10.164 1504.04
10.2088 349.319
10.2536 120.203
10.2984 107.97
10.3432 107.056
10.388 104.589
10.4328 121.567
10.4776 162.741
10.5224 295.818
10.5672 539.45
10.612 493.018
10.6568 184.094
10.7017 93.5484
10.7465 85.4253
10.7913 82.4261
10.8361 80.2332
10.8809 77.7522
10.9257 77.3185
10.9706 77.4112
11.0154 74.7696
11.0602 72.2146
11.105 70.7234
11.1499 71.2842
11.1947 72.9471
11.2395 69.2082
11.2844 67.858
11.3292 66.2287
11.374 65.4603
11.4189 64.8301
11.4637 64.0391
11.5086 64.1681
11.5534 64.8201
11.5983 63.3715
11.6431 62.7823
11.688 62.3284
11.7328 62.0041
11.7777 62.2428
11.8225 62.1496
11.8674 62.1066
11.9122 62.1796
11.9571 62.4646
12.002 63.8914
12.0468 68.4675
12.0917 78.1574
12.1366 103.334
12.1814 161.332
12.2263 215.438
12.2712 162.44
12.3161 86.3357
12.3609 66.3867
12.4058 63.2792
12.4507 63.6362
12.4956 64.1816
12.5405 64.5005
12.5853 64.7867
12.6302 67.5648
12.6751 69.9151
12.72 67.415
12.7649 67.0353
12.8098 67.7587
12.8547 69.3579
12.8996 70.8684
12.9445 72.5566
12.9894 74.1392
13.0343 75.6138
13.0792 80.1417
13.1242 92.1864
13.1691 111.318
13.214 149.559
13.2589 249.458
13.3038 392.917
13.3487 412.674
13.3937 233.434
13.4386 117.415
13.4835 105.879
13.5285 120.471
13.5734 161.604
13.6183 259.179
13.6633 366.257
13.7082 327.765
13.7531 168.934
13.7981 93.2944
13.843 80.8059
13.888 78.8795
13.9329 76.6586
13.9779 75.3042
14.0228 73.7748
14.0678 72.3575
14.1127 71.7186
14.1577 71.1834
14.2027 70.7463
14.2476 69.8614
14.2926 69.5017
14.3376 69.4767
14.3825 68.9843
14.4275 68.4422
14.4725 68.1177
14.5175 68.1249
14.5624 68.2501
14.6074 69.2715
14.6524 69.7402
14.6974 70.1561
14.7424 73.4426
14.7874 79.2464
14.8324 88.6954
14.8774 111.975
14.9224 160.151
14.9674 218.354
15.0124 218.979
15.0574 139.616
15.1024 85.5936
15.1474 71.0715
15.1924 69.667
15.2374 68.9318
15.2824 67.9451
15.3274 66.8696
15.3725 65.8805
15.4175 65.761
15.4625 65.3184
15.5076 65.2648
15.5526 65.3037
15.5976 65.4176
15.6426 67.6609
15.6877 72.6908
15.7327 79.4893
15.7778 95.2675
15.8228 130.274
15.8679 177.63
15.9129 197.179
15.958 146.59
16.003 88.7761
16.0481 65.3434
16.0931 62.0118
16.1382 60.6837
16.1833 59.4736
16.2283 58.1878
16.2734 57.6289
16.3185 57.2337
16.3636 57.0262
16.4086 56.065
16.4537 55.5191
16.4988 54.6693
16.5439 54.9339
16.589 54.4456
16.6341 54.3512
16.6792 53.725
16.7243 54.0439
16.7694 54.1658
16.8145 54.0573
16.8596 54.418
16.9047 54.8801
16.9498 55.2526
16.9949 54.7822
17.04 55.5669
17.0851 56.6071
17.1302 58.1807
17.1754 61.1804
17.2205 66.8246
17.2656 75.1654
17.3108 83.7399
17.3559 80.761
17.401 68.3707
17.4462 60.6736
17.4913 58.6285
17.5365 58.7534
17.5815 58.7689
17.6268 58.9763
17.6718 59.7109
17.7171 60.0823
17.7622 60.9439
17.8074 61.892
17.8525 64.8076
17.8977 68.027
17.9428 73.1346
17.9881 82.9557
18.0331 101.918
18.0784 125.803
18.1237 141.958
18.1688 127.021
18.214 98.742
18.2591 84.871
18.3044 91.3718
18.3495 102.185
18.3948 105.0
18.4399 91.7267
18.4852 73.9698
18.5303 64.2274
18.5756 61.4289
18.6207 60.5389
18.666 59.7534
18.7112 58.8361
18.7565 58.4119
18.8016 57.9011
18.8469 57.5202
18.892 57.1074
18.9374 56.8113
18.9825 56.3729
19.0278 56.1251
19.073 56.4458
19.1183 56.7071
19.1635 57.0394
19.2088 58.7457
19.254 61.6077
19.2993 66.645
19.3447 72.4305
19.3898 75.6971
19.4352 69.5744
19.4804 60.8801
19.5257 55.4721
19.5709 53.4804
19.6163 53.2659
19.6615 53.2615
19.7068 52.7357
19.752 52.7596
19.7974 53.2415
19.8426 53.8464
19.888 54.2212
19.9332 55.9133
19.9786 58.6086
20.0238 62.7113
20.0692 67.8025
20.1144 69.6318
20.1598 66.9653
20.205 62.4441
20.2504 61.91
20.2957 64.1216
20.3411 65.247
20.3863 62.4517
20.4318 56.4874
20.477 52.397
20.5224 50.5478
20.5677 50.0705
20.6131 49.4962
20.6586 49.0523
20.7038 49.0158
20.7493 48.6476
20.7945 48.4639
20.84 48.4482
20.8853 48.2764
20.9307 48.001
20.976 48.3158
21.0215 48.0181
21.0668 48.5617
21.1122 48.9334
21.1575 49.7394
21.203 50.5157
21.2483 50.9917
21.2938 50.798
21.3391 49.2185
21.3846 48.3383
21.4299 47.9373
21.4754 47.8291
21.5207 48.0969
21.5662 48.5627
21.6116 48.9631
21.6571 49.6491
21.7024 50.5174
21.7479 52.2616
21.7933 55.3734
21.8388 59.0625
21.8843 63.0351
21.9297 64.1413
21.9752 61.7798
22.0206 57.9585
22.0661 55.5941
22.1115 55.723
22.157 55.2338
22.2024 53.2009
22.248 50.4324
22.2933 48.9692
22.3389 48.4211
22.3843 48.3251
22.4299 48.12
22.4753 48.1588
22.5208 48.1386
22.5662 47.8342
22.6118 48.1792
22.6572 48.6104
22.7028 48.8234
22.7483 49.2354
22.7939 50.0296
22.8393 51.6272
22.8849 53.9052
22.9303 56.3241
22.9759 57.5823
23.0214 56.3239
23.067 53.3539
23.1126 50.0665
23.1581 48.6104
23.2037 48.375
23.2492 48.3797
23.2948 48.3922
23.3403 48.5014
23.3859 49.3048
23.4314 50.6706
23.477 52.4718
23.5225 54.9236
23.5682 57.1349
23.6137 57.5583
23.6593 54.3362
23.7048 50.1874
23.7505 47.2952
23.796 45.8055
23.8417 45.5192
23.8872 44.9953
23.9329 44.7306
23.9784 44.3969
24.0241 44.1622
24.0697 44.0057
24.1154 43.5947
24.1609 43.4705
24.2066 43.3479
24.2522 43.2572
24.2979 43.0485
24.3434 42.7029
24.3892 42.6808
24.4349 42.5755
24.4805 42.46
24.5262 42.7548
24.5718 42.4783
24.6175 42.4919
24.6631 42.3584
24.7089 42.1037
24.7545 41.9655
24.8002 41.8028
24.8458 41.7187
24.8916 41.6808
24.9372 41.7091
24.983 42.0859
25.0286 42.4688
25.0744 43.0202
25.12 43.3082
25.1658 44.0129
25.2114 44.262
25.2572 44.1929
25.3029 44.4571
25.3487 44.4283
25.3943 44.048
25.4402 42.7607
25.4858 41.8014
25.5316 40.8612
25.5773 40.3065
25.6231 40.3924
25.669 40.1059
25.7147 40.0919
25.7605 39.9537
25.8062 39.8962
25.8521 40.1523
25.8977 40.1787
25.9436 40.4286
25.9893 40.6898
26.0352 41.1521
26.0809 41.2216
26.1268 41.2603
26.1725 40.8204
26.2184 40.2815
26.2641 39.7888
26.31 39.7782
26.3557 39.7856
26.4017 39.738
26.4474 39.9719
26.4933 40.3188
26.5391 40.8101
26.585 41.2681
26.6308 41.6818
26.6767 41.7536
26.7225 41.5597
26.7684 40.7532
26.8142 40.3723
26.8601 40.0128
26.9059 39.6128
26.9519 39.125
26.9979 38.7307
27.0437 38.4836
27.0896 38.2085
27.1354 38.4302
27.1814 38.2404
27.2272 38.0571
27.2732 38.1324
27.3191 37.9959
27.3651 38.105
27.4109 38.0456
27.4569 38.2883
27.5027 38.3074
27.5488 38.1634
27.5946 37.9292
27.6407 37.6623
27.6865 37.5854
27.7326 37.4915
27.7784 37.4361
27.8245 37.3753
27.8703 37.6036
27.9164 37.8704
27.9623 38.1229
28.0084 38.382
28.0543 38.9267
28.1003 38.6553
28.1462 38.3525
28.1923 37.9261
28.2384 37.542
28.2843 37.1121
28.3304 36.6412
28.3764 36.2577
28.4225 35.9786
28.4684 35.7908
28.5145 35.5745
28.5605 35.3866
28.6066 35.2173
28.6526 35.3753
28.6987 35.2701
28.7447 35.1104
28.7908 35.012
28.8368 35.0981
28.8829 35.0389
28.9289 35.0076
28.9751 34.8076
29.0211 34.472
29.0673 34.1507
29.1133 34.2025
29.1595 34.1142
29.2055 33.9678
29.2517 33.8831
29.2977 33.9623
29.3439 33.9495
29.3899 33.922
29.4361 33.7962
29.4824 33.5934
29.5284 33.237
29.5746 32.9755
29.6207 32.7517
29.6669 32.6988
29.713 32.5688
29.7593 32.4558
29.8053 32.4582
29.8516 32.4712
29.8977 32.4543
29.9439 32.3574
29.99 32.2878
30.0363 32.0834
30.0824 32.1949
30.1287 32.0628
30.1748 32.1003
30.2211 32.0323
30.2673 31.9923
30.3136 31.9441
30.3597 31.8717
30.406 31.8802
30.4522 31.7457
30.4985 31.9009
30.5447 31.9342
30.591 31.8256
30.6372 31.9325
30.6835 31.8864
30.7297 31.8707
30.7761 31.7474
30.8224 31.6187
30.8686 31.4427
30.915 31.2368
30.9612 31.1335
31.0076 30.9499
31.0538 30.8387
31.1002 30.8034
31.1464 30.6103
31.1928 30.5878
31.2391 30.5626
31.2855 30.4811
31.3317 30.5681
31.3781 30.6751
31.4244 30.5874
31.4708 30.5009
31.5171 30.5365
31.5636 30.4702
31.6098 30.2336
31.6563 30.0163
31.7026 29.9684
31.7491 29.8265
31.7953 29.8279
31.8418 29.9011
31.8881 29.8446
31.9346 29.7411
31.9809 29.6799
32.0275 29.5295
32.074 29.4851
32.1203 29.2366
32.1668 29.2065
32.2132 29.0383
32.2597 28.9732
32.306 28.8872
32.3526 28.5661
32.399 28.5912
32.4455 28.5497
32.4919 28.4032
32.5385 28.3592
32.5848 28.1671
32.6314 28.1744
32.6778 28.1199
32.7244 28.0184
32.7708 27.8098
32.8174 27.8997
32.8638 27.6297
32.9104 27.82
32.9569 27.7365
33.0035 27.6021
33.0499 27.5512
33.0966 27.5244
33.143 27.5089
33.1897 27.389
33.2361 27.3
33.2828 27.166
33.3293 26.9839
33.3759 27.0368
33.4226 26.9679
33.4691 26.8436
33.5158 26.689
33.5623 26.6122
33.609 26.4874
33.6555 26.3944
33.7022 26.2526
33.7487 26.2075
33.7954 26.2383
33.842 26.1002
33.8887 26.0554
33.9353 26.0086
33.982 25.861
34.0286 25.7474
34.0753 25.774
34.1219 25.5743
34.1687 25.5534
34.2152 25.5523
34.262 25.3764
34.3086 25.3302
34.3554 25.2711
34.402 25.0349
34.4488 25.0898
34.4954 24.9538
34.5422 24.9064
34.5889 24.7867
34.6357 24.6921
34.6825 24.6493
34.7292 24.6039
34.776 24.5248
34.8227 24.4184
34.8695 24.4084
34.9162 24.3295
34.9631 24.2042
35.0098 24.2394
35.0566 24.11
35.1033 24.0201
35.1502 24.0671
35.1969 23.9677
35.2438 23.8722
35.2906 23.8456
35.3375 23.7992
35.3842 23.66
35.4311 23.7738
35.4779 23.7294
35.5248 23.6641
35.5716 23.5861
35.6185 23.534
35.6653 23.3576
35.7123 23.2824
35.759 23.2456
35.806 23.1697
35.8528 22.9697
35.8998 22.979
35.9468 22.8676
35.9936 22.9382
36.0406 22.6654
36.0874 22.7583
36.1345 22.6592
36.1813 22.6208
36.2283 22.4612
36.2752 22.3733
36.3222 22.3313
36.3691 22.3243
36.4161 22.1542
36.463 22.1815
36.5101 22.204
36.557 22.0617
36.6041 22.0118
36.651 21.9489
36.6981 21.774
36.745 21.8151
36.7921 21.7198
36.839 21.6222
36.8861 21.5339
36.9331 21.5699
36.9802 21.3556
37.0272 21.312
37.0743 21.2345
37.1213 21.2535
37.1684 21.2196
37.2154 21.1576
37.2626 21.0762
37.3098 20.9461
37.3568 20.9173
37.404 20.8578
37.451 20.7878
37.4982 20.7756
37.5452 20.5954
37.5924 20.613
37.6395 20.6484
37.6867 20.5018
37.7337 20.3469
37.781 20.2799
37.8281 20.2274
37.8753 20.203
37.9224 20.1636
37.9697 20.0679
38.0168 19.982
38.064 19.9341
38.1111 19.9469
38.1584 19.7958
38.2056 19.7348
38.2529 19.6446
38.3 19.6653
38.3473 19.5788
38.3945 19.428
38.4418 19.478
38.489 19.4165
38.5363 19.3251
38.5837 19.2516
38.6309 19.1867
38.6782 19.0952
38.7254 19.0439
38.7728 19.0489
38.82 18.9316
38.8674 18.898
38.9146 18.8516
38.9621 18.7198
39.0093 18.771
39.0567 18.6609
39.104 18.6674
39.1514 18.4502
39.1987 18.4318
39.2461 18.4588
39.2934 18.3601
39.3409 18.3019
39.3882 18.2113
39.4356 18.2103
39.483 18.1149
39.5304 17.9867
39.5778 18.0329
39.6253 17.993
39.6726 17.9438
39.7201 17.8618
39.7675 17.8104
39.815 17.7073
39.8624 17.6412
39.9099 17.6621
39.9575 17.5289
40.0049 17.4963
40.0525 17.4018
40.0999 17.3641
40.1474 17.3882
40.1949 17.2337
40.2425 17.1803
40.2899 17.1818
40.3375 17.1021
40.385 17.0618
40.4326 16.9991
40.48 16.9217
40.5277 16.8994
40.5752 16.8414
40.6228 16.8033
40.6703 16.6611
40.718 16.6565
40.7655 16.6469
40.8132 16.6081
40.8607 16.5116
40.9084 16.449
40.9559 16.4176
41.0036 16.3603
41.0512 16.3211
41.0989 16.272
41.1465 16.2268
41.1942 16.1959
41.242 16.0641
41.2896 15.9878
41.3373 15.9681
41.3849 15.9588
41.4327 15.8791
41.4803 15.7879
41.5281 15.7272
41.5758 15.7304
41.6236 15.6757
41.6712 15.6093
41.7191 15.6065
41.7667 15.5226
41.8146 15.5045
41.8622 15.4282
41.9101 15.3591
41.9578 15.326
42.0057 15.2677
42.0534 15.2047
42.1013 15.2089
42.149 15.1493
42.1969 15.0376
42.2446 15.0054
42.2925 14.9367
42.3403 14.9145
42.3882 14.8904
42.436 14.8154
42.4839 14.7086
42.5319 14.7422
42.5797 14.6509
42.6277 14.6394
42.6755 14.6097
42.7235 14.4905
42.7713 14.502
42.8193 14.4029
42.8671 14.3936
42.9152 14.3159
42.963 14.2538
43.0111 14.2293
43.0589 14.1719
43.107 14.0912
43.1549 14.098
43.2029 14.0041
43.2508 13.9664
43.2989 13.8983
43.3468 13.859
43.3949 13.8009
43.4429 13.7812
43.491 13.7466
43.5389 13.6942
43.5871 13.6638
43.635 13.6135
43.6832 13.5462
43.7312 13.4516
43.7793 13.4525
43.8273 13.377
43.8755 13.3395
43.9237 13.2982
43.9717 13.2822
44.0199 13.222
44.068 13.1612
44.1162 13.1185
44.1642 13.0953
44.2125 13.0469
44.2606 13.0032
44.3088 12.927
44.3569 12.9133
44.4052 12.8358
44.4533 12.7744
44.5016 12.7311
44.5497 12.7423
44.598 12.6712
44.6461 12.614
44.6945 12.5784
44.7426 12.5308
44.791 12.4722
44.8391 12.481
44.8875 12.4424
44.9357 12.3711
44.984 12.3453
45.0322 12.2985
45.0806 12.2473
45.1288 12.1824
45.1773 12.1286
45.2257 12.0917
45.2739 12.0699
45.3224 12.017
45.3706 11.99
45.4191 11.934
45.4673 11.8954
45.5158 11.8835
45.5641 11.7483
45.6126 11.7499
45.6609 11.7218
45.7094 11.6734
45.7577 11.6651
45.8063 11.6036
45.8546 11.5945
45.9031 11.528
45.9515 11.4705
46.0001 11.4634
46.0484 11.3986
46.097 11.3896
46.1454 11.3154
46.194 11.2967
46.2424 11.2331
46.291 11.2189
46.3395 11.1411
46.3881 11.0778
46.4365 11.0769
46.4852 11.0576
46.5337 10.9997
46.5823 11.0341
46.631 10.909
46.6795 10.8807
46.7282 10.8675
46.7767 10.7887
46.8254 10.7176
46.8739 10.717
46.9226 10.6799
46.9712 10.6454
47.0199 10.5583
47.0685 10.5617
47.1173 10.4945
47.1658 10.4378
47.2146 10.4237
47.2632 10.3701
47.312 10.3725
47.3606 10.297
47.4095 10.2446
47.4581 10.2443
47.5069 10.2062
47.5556 10.178
47.6044 10.084
47.6531 10.0893
47.702 10.0277
47.7507 10.0209
47.7996 9.97841
47.8483 9.95761
47.8972 9.93739
47.9461 9.88836
47.9948 9.82892
48.0438 9.77413
48.0925 9.76744
48.1415 9.74185
48.1902 9.69059
48.2392 9.67841
48.288 9.64726
48.337 9.58326
48.3858 9.56323
48.4348 9.54409
48.4837 9.48143
48.5327 9.48132
48.5815 9.36035
48.6306 9.40512
48.6795 9.3301
48.7285 9.35234
48.7774 9.29381
48.8265 9.26683
48.8754 9.22392
48.9245 9.14875
48.9734 9.1707
49.0226 9.11145
49.0715 9.06269
49.1206 9.08113
49.1696 9.02696
49.2188 8.96351
49.2679 8.95398
49.3169 8.89851
49.3661 8.86003
49.4151 8.81506
49.4643 8.79238
49.5134 8.7707
49.5626 8.73926
49.6117 8.73599
49.6609 8.72172
49.71 8.62303
49.7592 8.6075
49.8083 8.53831
49.8576 8.52411
49.9067 8.48459
49.956 8.46907
50.0052 8.42047
50.0545 8.41307
50.1036 8.3984
50.153 8.36111
50.2022 8.34965
50.2515 8.2836
50.3007 8.23843
50.3501 8.22087
50.3993 8.17642
50.4487 8.11812
50.498 8.15132
50.5474 8.07138
50.5966 8.03194
50.6461 8.00625
50.6955 8.01488
50.7448 7.96685
50.7943 7.92173
50.8436 7.88316
50.8931 7.87261
50.9424 7.85038
50.9919 7.80517
51.0413 7.78844
51.0908 7.7877
51.1402 7.70662
51.1897 7.64857
51.2391 7.66436
51.2887 7.62564
51.3381 7.54936
51.3877 7.54925
51.4371 7.52904
51.4867 7.45725
51.5362 7.45293
51.5858 7.43082
51.6353 7.40964
51.6849 7.37258
51.7344 7.34854
51.7841 7.34599
51.8336 7.2586
51.8833 7.25354
51.9328 7.22596
51.9826 7.19429
52.0323 7.17027
52.0818 7.16774
52.1316 7.07317
52.1812 7.12222
52.231 7.03356
52.2806 7.0134
52.3304 6.99532
52.38 6.95822
52.4298 6.90523
52.4794 6.89882
52.5293 6.86554
52.5789 6.86596
52.6288 6.83951
52.6785 6.76977
52.7284 6.78068
52.7781 6.72689
52.828 6.71548
52.8777 6.66688
52.9276 6.66802
52.9774 6.62721
53.0273 6.5719
53.0771 6.59031
53.1271 6.53963
53.1769 6.51636
53.2269 6.50055
53.2767 6.44247
53.3267 6.40222
53.3765 6.42208
53.4266 6.39481
53.4766 6.37062
53.5265 6.31189
53.5765 6.29939
53.6264 6.2675
53.6765 6.23337
53.7264 6.15443
53.7765 6.16406
53.8265 6.14563
53.8766 6.13702
53.9266 6.06861
53.9767 6.06212
54.0267 6.03749
54.0769 6.01053
54.1269 6.00044
54.1771 5.92137
54.2271 5.93636
54.2773 5.87437
54.3274 5.84375
54.3776 5.83419
54.4277 5.82355
54.478 5.76418
54.528 5.73221
54.5783 5.64518
54.6285 5.67922
54.6788 5.64062
54.7289 5.58203
54.7792 5.54225
54.8296 5.44106
54.8798 5.43865
54.9301 5.44344
54.9803 5.36264
55.0307 5.35399
55.0809 5.33716
55.1314 5.33601
55.1816 5.22151
55.232 5.15457
55.2823 5.15706
55.3328 5.09226
55.383 5.05071
55.4335 5.03016
55.4838 4.89808
55.5344 4.91319
55.5847 4.85072
55.6352 4.85441
55.6856 4.84358
55.7361 4.73227