File: XRD/Ni3Fe_FD0739.xy
TT I
1.27165 7.32818
1.31627 6.43525
1.36089 6.41102
1.40551 6.43472
1.45013 5.72702
1.49476 6.46283
1.53938 6.00276
1.584 5.15051
1.62863 4.75343
1.67325 4.56437
1.71787 5.06857
1.7625 4.55635
1.80712 5.11821
1.85174 4.34769
1.89636 4.97983
1.94099 4.91056
1.98562 4.88944
2.03025 4.3158
2.07487 4.55213
2.11949 5.13451
2.16411 4.91687
2.20874 14.4338
2.25338 22.4956
2.298 6.23619
2.34263 5.60354
2.38725 6.04525
2.43188 6.63214
2.4765 6.25402
2.52115 6.94498
2.56577 7.25737
2.6104 7.76452
2.65503 7.66876
2.69965 8.27733
2.7443 8.21857
2.78893 7.5063
2.83356 8.45178
2.87818 8.45917
2.92281 9.23193
2.96744 10.074
3.01209 10.299
3.05672 10.7754
3.10135 12.1348
3.14599 13.0468
3.19062 14.1524
3.23527 15.114
3.2799 15.7085
3.32454 16.6735
3.36917 17.6695
3.4138 19.2969
3.45844 19.8325
3.50309 21.0061
3.54773 21.5144
3.59237 24.0497
3.637 91.8324
3.68164 58.6951
3.7263 26.3045
3.77094 26.1345
3.81558 26.7029
3.86022 27.3971
3.90486 28.6805
3.9495 29.4986
3.99416 30.6366
4.0388 32.4796
4.08344 33.6855
4.12809 34.919
4.17273 37.1802
4.21738 43.0859
4.26204 246.213
4.30669 217.146
4.35133 48.386
4.39598 44.557
4.44063 53.394
4.4853 65.5328
4.52995 50.0707
4.5746 51.2357
4.61925 53.2256
4.6639 55.4169
4.70855 57.6452
4.75322 60.8051
4.79788 63.2851
4.84253 67.1159
4.88719 71.0902
4.93184 74.8694
4.97652 79.613
5.02118 86.2955
5.06583 93.2161
5.11049 104.07
5.15515 169.022
5.19981 319.3
5.24449 2681.21
5.28916 12761.3
5.33382 2895.17
5.37848 184.679
5.42315 127.571
5.46783 112.643
5.5125 105.187
5.55716 101.506
5.60183 98.1218
5.6465 96.2317
5.69117 93.4547
5.73586 91.0582
5.78053 90.6896
5.8252 90.3174
5.86988 90.7362
5.91455 92.9037
5.95924 99.5783
6.00392 187.603
6.0486 894.671
6.09328 4566.87
6.13795 3212.45
6.18263 241.747
6.22733 92.4137
6.27201 82.711
6.3167 101.25
6.36138 80.3542
6.40606 68.7898
6.45075 67.032
6.49545 65.2137
6.54014 63.495
6.58483 62.6461
6.62952 62.3202
6.67421 93.3967
6.71892 143.231
6.76361 68.4155
6.8083 58.4098
6.853 57.139
6.89769 56.6975
6.94239 56.5492
6.98711 55.6365
7.03181 55.2247
7.07651 55.1895
7.12121 55.1351
7.16591 55.4104
7.21063 55.5827
7.25533 70.5052
7.30004 177.295
7.34475 91.1197
7.38945 56.5106
7.43416 54.4046
7.47889 54.1201
7.5236 54.3604
7.56831 55.1819
7.61303 56.498
7.65774 57.3134
7.70247 55.9248
7.74719 55.873
7.79191 56.3819
7.83663 56.6773
7.88135 57.6879
7.92607 58.4635
7.97081 59.1675
8.01553 60.4896
8.06026 61.8022
8.10498 63.2703
8.14971 72.5843
8.19446 71.7829
8.23919 69.2179
8.28392 71.3296
8.32865 73.5056
8.37339 77.8049
8.41812 84.8923
8.46288 111.976
8.50761 153.86
8.55235 364.561
8.59709 1158.45
8.64183 2181.49
8.68658 980.968
8.73134 163.664
8.77609 98.773
8.82083 92.0795
8.86558 89.1811
8.91033 89.2258
8.9551 90.9294
8.99985 84.8161
9.04461 82.9297
9.08936 82.4446
9.13412 81.2982
9.17888 81.5509
9.22365 82.3957
9.26841 81.6789
9.31318 81.8847
9.35794 81.9149
9.4027 82.6485
9.44749 83.3628
9.49226 84.0079
9.53703 84.8781
9.5818 86.8719
9.62657 91.3187
9.67134 98.1501
9.71614 93.1147
9.76091 93.3706
9.80569 95.7329
9.85047 99.056
9.89525 122.97
9.94005 134.046
9.98484 164.426
10.0296 322.986
10.0744 792.836
10.1192 1756.8
10.164 1631.63
10.2088 413.029
10.2536 126.558
10.2984 112.62
10.3432 113.805
10.388 103.632
10.4328 114.904
10.4776 153.876
10.5224 276.703
10.5672 520.91
10.612 513.75
10.6568 208.945
10.7017 96.4978
10.7465 86.0677
10.7913 82.6833
10.8361 80.612
10.8809 78.5882
10.9257 78.0636
10.9706 78.5311
11.0154 74.4126
11.0602 72.4498
11.105 71.5009
11.1499 75.8626
11.1947 83.1182
11.2395 74.1396
11.2844 70.1618
11.3292 66.7812
11.374 65.7229
11.4189 65.2615
11.4637 64.6631
11.5086 65.1239
11.5534 67.9607
11.5983 65.235
11.6431 63.4476
11.688 62.4283
11.7328 62.6007
11.7777 62.3237
11.8225 62.3756
11.8674 62.1128
11.9122 62.3012
11.9571 62.3777
12.002 62.9077
12.0468 66.3814
12.0917 76.8148
12.1366 100.674
12.1814 151.703
12.2263 201.13
12.2712 165.712
12.3161 99.039
12.3609 70.6425
12.4058 64.4134
12.4507 63.9281
12.4956 64.1736
12.5405 64.0198
12.5853 65.1731
12.6302 72.9817
12.6751 78.1477
12.72 69.555
12.7649 67.7254
12.8098 67.7748
12.8547 69.2374
12.8996 70.3934
12.9445 71.816
12.9894 73.4044
13.0343 75.2146
13.0792 78.1017
13.1242 85.9396
13.1691 108.055
13.214 144.078
13.2589 235.265
13.3038 369.963
13.3487 417.278
13.3937 266.034
13.4386 126.719
13.4835 103.072
13.5285 116.49
13.5734 153.952
13.6183 246.711
13.6633 351.231
13.7082 336.848
13.7531 185.781
13.7981 98.2748
13.843 81.2165
13.888 79.1408
13.9329 76.5339
13.9779 75.2133
14.0228 74.0852
14.0678 72.5645
14.1127 72.081
14.1577 71.9327
14.2027 71.123
14.2476 69.9928
14.2926 69.9836
14.3376 71.4562
14.3825 69.8123
14.4275 68.391
14.4725 68.2422
14.5175 68.3151
14.5624 68.7938
14.6074 70.5603
14.6524 71.4042
14.6974 70.0272
14.7424 71.2615
14.7874 76.9473
14.8324 86.7897
14.8774 108.332
14.9224 151.99
14.9674 206.691
15.0124 215.398
15.0574 150.499
15.1024 91.496
15.1474 72.1371
15.1924 70.2375
15.2374 70.8121
15.2824 70.0666
15.3274 67.8044
15.3725 66.6549
15.4175 65.772
15.4625 65.8078
15.5076 65.8665
15.5526 66.0365
15.5976 65.2828
15.6426 66.0292
15.6877 70.8288
15.7327 78.1852
15.7778 92.9211
15.8228 125.593
15.8679 171.547
15.9129 193.936
15.958 156.247
16.003 98.1892
16.0481 68.0426
16.0931 64.5435
16.1382 62.5596
16.1833 60.5051
16.2283 58.7631
16.2734 58.0582
16.3185 58.4251
16.3636 59.1439
16.4086 57.3744
16.4537 55.8332
16.4988 55.241
16.5439 55.1736
16.589 55.1062
16.6341 54.7128
16.6792 54.3961
16.7243 54.4542
16.7694 54.7553
16.8145 54.5761
16.8596 55.1047
16.9047 56.4863
16.9498 56.7939
16.9949 55.4696
17.04 55.228
17.0851 56.6463
17.1302 58.1463
17.1754 61.0332
17.2205 66.1881
17.2656 74.1043
17.3108 82.2846
17.3559 82.1766
17.401 70.4511
17.4462 62.0426
17.4913 59.0347
17.5365 58.9116
17.5815 58.8305
17.6268 59.336
17.6718 60.1262
17.7171 60.4043
17.7622 60.9239
17.8074 61.2781
17.8525 63.2727
17.8977 67.0542
17.9428 72.3942
17.9881 81.1935
18.0331 99.4968
18.0784 121.825
18.1237 138.086
18.1688 129.957
18.214 102.804
18.2591 86.477
18.3044 90.3973
18.3495 100.346
18.3948 105.496
18.4399 95.6676
18.4852 77.2678
18.5303 65.8782
18.5756 61.9872
18.6207 60.7607
18.666 60.0132
18.7112 59.4599
18.7565 58.6186
18.8016 58.4011
18.8469 57.63
18.892 57.6329
18.9374 56.9628
18.9825 56.7715
19.0278 56.5078
19.073 56.5668
19.1183 57.0532
19.1635 57.6042
19.2088 59.2754
19.254 61.6237
19.2993 66.2582
19.3447 72.7275
19.3898 75.9459
19.4352 71.5402
19.4804 63.2067
19.5257 56.514
19.5709 54.0182
19.6163 53.4457
19.6615 53.5057
19.7068 53.0393
19.752 52.9486
19.7974 53.1422
19.8426 54.1066
19.888 54.6301
19.9332 55.7468
19.9786 58.4428
20.0238 62.2322
20.0692 66.8864
20.1144 69.3998
20.1598 67.6293
20.205 63.2808
20.2504 62.0329
20.2957 63.6406
20.3411 65.3613
20.3863 63.5525
20.4318 58.2971
20.477 53.5757
20.5224 51.4533
20.5677 50.8658
20.6131 49.9586
20.6586 49.3237
20.7038 49.2768
20.7493 48.8103
20.7945 48.9828
20.84 48.6602
20.8853 48.5078
20.9307 48.2064
20.976 48.4293
21.0215 48.2564
21.0668 48.7483
21.1122 49.1405
21.1575 49.8936
21.203 50.6082
21.2483 51.1237
21.2938 51.1401
21.3391 49.7621
21.3846 48.6452
21.4299 48.1492
21.4754 48.2392
21.5207 48.1331
21.5662 48.4296
21.6116 48.7824
21.6571 49.2644
21.7024 50.367
21.7479 52.2333
21.7933 55.145
21.8388 58.506
21.8843 62.3246
21.9297 64.3311
21.9752 63.0091
22.0206 59.2559
22.0661 56.4694
22.1115 55.78
22.157 55.3507
22.2024 53.9627
22.248 51.2653
22.2933 49.6839
22.3389 48.8895
22.3843 48.8599
22.4299 48.635
22.4753 48.8193
22.5208 48.3246
22.5662 48.1391
22.6118 48.3618
22.6572 48.5312
22.7028 48.8057
22.7483 49.2371
22.7939 49.9669
22.8393 51.4705
22.8849 53.7842
22.9303 55.9285
22.9759 57.4502
23.0214 57.0058
23.067 54.4548
23.1126 50.986
23.1581 49.083
23.2037 48.6457
23.2492 48.4843
23.2948 48.3406
23.3403 48.6592
23.3859 49.3141
23.4314 50.4156
23.477 52.3782
23.5225 54.5918
23.5682 56.884
23.6137 57.4783
23.6593 55.324
23.7048 51.4624
23.7505 48.1835
23.796 46.3565
23.8417 45.8016
23.8872 45.4458
23.9329 44.9728
23.9784 44.7013
24.0241 44.326
24.0697 44.3149
24.1154 44.0106
24.1609 43.7232
24.2066 43.7233
24.2522 43.3906
24.2979 43.1767
24.3434 43.045
24.3892 43.0528
24.4349 42.8791
24.4805 42.713
24.5262 42.9291
24.5718 42.8246
24.6175 42.7617
24.6631 42.5565
24.7089 42.4834
24.7545 42.1633
24.8002 42.0203
24.8458 42.1721
24.8916 41.7598
24.9372 41.9236
24.983 42.2158
25.0286 42.6577
25.0744 43.1265
25.12 43.6481
25.1658 44.0195
25.2114 44.3729
25.2572 44.5666
25.3029 44.7105
25.3487 44.8037
25.3943 44.4236
25.4402 43.338
25.4858 42.2728
25.5316 41.3135
25.5773 40.764
25.6231 40.7102
25.669 40.3364
25.7147 40.2682
25.7605 40.2336
25.8062 40.2553
25.8521 40.3242
25.8977 40.4003
25.9436 40.7101
25.9893 40.7675
26.0352 41.2245
26.0809 41.2244
26.1268 41.3826
26.1725 41.2238
26.2184 40.5932
26.2641 40.0438
26.31 39.8628
26.3557 39.9376
26.4017 39.9721
26.4474 40.1134
26.4933 40.5363
26.5391 41.0328
26.585 41.393
26.6308 41.8693
26.6767 41.7303
26.7225 41.8256
26.7684 41.2072
26.8142 40.5758
26.8601 40.2953
26.9059 39.7276
26.9519 39.4801
26.9979 39.0444
27.0437 38.619
27.0896 38.617
27.1354 38.5811
27.1814 38.5177
27.2272 38.339
27.2732 38.3443
27.3191 38.0839
27.3651 38.2792
27.4109 38.1693
27.4569 38.2502
27.5027 38.3175
27.5488 38.4082
27.5946 38.2212
27.6407 37.8667
27.6865 37.8371
27.7326 37.5988
27.7784 37.5727
27.8245 37.7357
27.8703 37.7583
27.9164 38.0515
27.9623 38.4028
28.0084 38.5519
28.0543 38.8816
28.1003 38.8492
28.1462 38.6372
28.1923 38.2659
28.2384 37.8722
28.2843 37.4524
28.3304 37.0678
28.3764 36.5238
28.4225 36.143
28.4684 36.0304
28.5145 35.7486
28.5605 35.6211
28.6066 35.5293
28.6526 35.5042
28.6987 35.473
28.7447 35.2096
28.7908 35.2937
28.8368 35.302
28.8829 35.3014
28.9289 35.1547
28.9751 35.0412
29.0211 34.7171
29.0673 34.5295
29.1133 34.564
29.1595 34.3037
29.2055 34.1432
29.2517 34.1499
29.2977 34.0936
29.3439 34.0582
29.3899 34.0843
29.4361 33.9325
29.4824 33.7756
29.5284 33.5925
29.5746 33.2539
29.6207 32.9967
29.6669 32.9172
29.713 32.8302
29.7593 32.6565
29.8053 32.7429
29.8516 32.607
29.8977 32.6593
29.9439 32.3908
29.99 32.4623
30.0363 32.2376
30.0824 32.358
30.1287 32.2647
30.1748 32.3139
30.2211 32.2609
30.2673 32.1365
30.3136 32.2863
30.3597 32.1261
30.406 32.0098
30.4522 31.8019
30.4985 31.8592
30.5447 31.9033
30.591 31.9611
30.6372 32.0009
30.6835 32.0961
30.7297 32.0018
30.7761 31.9481
30.8224 31.8909
30.8686 31.6965
30.915 31.5098
30.9612 31.3368
31.0076 31.0935
31.0538 31.0792
31.1002 30.9578
31.1464 30.7953
31.1928 30.8144
31.2391 30.9127
31.2855 30.7087
31.3317 30.6274
31.3781 30.7662
31.4244 30.8279
31.4708 30.6758
31.5171 30.525
31.5636 30.6708
31.6098 30.3538
31.6563 30.31
31.7026 30.0295
31.7491 29.9641
31.7953 30.0789
31.8418 29.9166
31.8881 30.0718
31.9346 29.9852
31.9809 29.8948
32.0275 29.7442
32.074 29.6129
32.1203 29.4516
32.1668 29.3883
32.2132 29.1907
32.2597 29.1042
32.306 29.0879
32.3526 28.8539
32.399 28.7506
32.4455 28.6266
32.4919 28.5169
32.5385 28.5667
32.5848 28.2915
32.6314 28.3174
32.6778 28.366
32.7244 28.089
32.7708 27.9631
32.8174 27.9727
32.8638 27.8706
32.9104 27.9604
32.9569 27.9044
33.0035 27.7065
33.0499 27.6569
33.0966 27.6429
33.143 27.6866
33.1897 27.6449
33.2361 27.4457
33.2828 27.4637
33.3293 27.2919
33.3759 27.3072
33.4226 27.1545
33.4691 27.0305
33.5158 26.9542
33.5623 26.7681
33.609 26.6343
33.6555 26.5534
33.7022 26.4737
33.7487 26.4414
33.7954 26.4244
33.842 26.2329
33.8887 26.244
33.9353 26.1823
33.982 26.0058
34.0286 25.9207
34.0753 25.8865
34.1219 25.7836
34.1687 25.6865
34.2152 25.654
34.262 25.5154
34.3086 25.484
34.3554 25.383
34.402 25.236
34.4488 25.2227
34.4954 25.1699
34.5422 25.0185
34.5889 25.0007
34.6357 24.8383
34.6825 24.8047
34.7292 24.7937
34.776 24.5422
34.8227 24.5504
34.8695 24.5833
34.9162 24.4961
34.9631 24.3914
35.0098 24.414
35.0566 24.1987
35.1033 24.1719
35.1502 24.1321
35.1969 24.1189
35.2438 24.0796
35.2906 24.0308
35.3375 23.9513
35.3842 23.9207
35.4311 23.8705
35.4779 23.852
35.5248 23.7828
35.5716 23.678
35.6185 23.5846
35.6653 23.4775
35.7123 23.4405
35.759 23.4055
35.806 23.2763
35.8528 23.1569
35.8998 23.1532
35.9468 23.0316
35.9936 22.9575
36.0406 22.8534
36.0874 22.9737
36.1345 22.7995
36.1813 22.7389
36.2283 22.5764
36.2752 22.5106
36.3222 22.5151
36.3691 22.44
36.4161 22.3678
36.463 22.3494
36.5101 22.3188
36.557 22.2356
36.6041 22.053
36.651 22.1101
36.6981 22.0284
36.745 21.9621
36.7921 21.9186
36.839 21.7215
36.8861 21.697
36.9331 21.5952
36.9802 21.6003
37.0272 21.5006
37.0743 21.3908
37.1213 21.3794
37.1684 21.3003
37.2154 21.2601
37.2626 21.13
37.3098 21.0838
37.3568 21.0224
37.404 20.9707
37.451 20.9051
37.4982 20.8924
37.5452 20.7678
37.5924 20.6446
37.6395 20.7698
37.6867 20.638
37.7337 20.5136
37.781 20.4319
37.8281 20.332
37.8753 20.3546
37.9224 20.2242
37.9697 20.2149
38.0168 20.0969
38.064 20.0712
38.1111 19.9682
38.1584 19.9063
38.2056 19.8698
38.2529 19.8655
38.3 19.7575
38.3473 19.7282
38.3945 19.624
38.4418 19.5832
38.489 19.5432
38.5363 19.4152
38.5837 19.3507
38.6309 19.3106
38.6782 19.2234
38.7254 19.1114
38.7728 19.1322
38.82 19.0489
38.8674 19.0698
38.9146 18.9535
38.9621 18.9106
39.0093 18.8982
39.0567 18.8222
39.104 18.6974
39.1514 18.6375
39.1987 18.6161
39.2461 18.5916
39.2934 18.4885
39.3409 18.3834
39.3882 18.3285
39.4356 18.3022
39.483 18.2826
39.5304 18.1683
39.5778 18.1504
39.6253 18.1249
39.6726 18.0257
39.7201 17.9287
39.7675 17.9404
39.815 17.8146
39.8624 17.7676
39.9099 17.727
39.9575 17.6193
40.0049 17.6259
40.0525 17.5411
40.0999 17.522
40.1474 17.4428
40.1949 17.395
40.2425 17.2964
40.2899 17.3188
40.3375 17.1712
40.385 17.1284
40.4326 17.188
40.48 17.0568
40.5277 16.9988
40.5752 16.8982
40.6228 16.8852
40.6703 16.8937
40.718 16.8069
40.7655 16.7871
40.8132 16.6952
40.8607 16.6298
40.9084 16.613
40.9559 16.5028
41.0036 16.5509
41.0512 16.4415
41.0989 16.4004
41.1465 16.2909
41.1942 16.2755
41.242 16.1863
41.2896 16.1269
41.3373 16.1447
41.3849 16.0244
41.4327 15.993
41.4803 15.9476
41.5281 15.8331
41.5758 15.8378
41.6236 15.8067
41.6712 15.758
41.7191 15.6536
41.7667 15.6339
41.8146 15.6075
41.8622 15.5961
41.9101 15.4706
41.9578 15.3766
42.0057 15.3272
42.0534 15.3478
42.1013 15.2621
42.149 15.1656
42.1969 15.1263
42.2446 15.0644
42.2925 15.0579
42.3403 14.9581
42.3882 14.9255
42.436 14.9558
42.4839 14.8351
42.5319 14.8086
42.5797 14.7799
42.6277 14.719
42.6755 14.6757
42.7235 14.5982
42.7713 14.5873
42.8193 14.5158
42.8671 14.443
42.9152 14.4477
42.963 14.307
43.0111 14.2984
43.0589 14.2962
43.107 14.1533
43.1549 14.1693
43.2029 14.0891
43.2508 14.1104
43.2989 13.9963
43.3468 13.9754
43.3949 13.9243
43.4429 13.8995
43.491 13.8343
43.5389 13.7847
43.5871 13.7591
43.635 13.6593
43.6832 13.6444
43.7312 13.5889
43.7793 13.5606
43.8273 13.4729
43.8755 13.4675
43.9237 13.3673
43.9717 13.3457
44.0199 13.3632
44.068 13.2624
44.1162 13.2421
44.1642 13.1938
44.2125 13.1584
44.2606 13.1082
44.3088 12.9993
44.3569 13.0149
44.4052 12.9533
44.4533 12.8932
44.5016 12.8483
44.5497 12.8066
44.598 12.8001
44.6461 12.74
44.6945 12.6771
44.7426 12.645
44.791 12.5685
44.8391 12.5914
44.8875 12.5108
44.9357 12.4914
44.984 12.3534
45.0322 12.3841
45.0806 12.3118
45.1288 12.2645
45.1773 12.226
45.2257 12.1895
45.2739 12.1396
45.3224 12.1223
45.3706 12.0737
45.4191 12.0132
45.4673 11.9793
45.5158 11.9861
45.5641 11.9073
45.6126 11.8697
45.6609 11.8442
45.7094 11.7575
45.7577 11.7025
45.8063 11.6989
45.8546 11.6316
45.9031 11.5772
45.9515 11.5634
46.0001 11.5383
46.0484 11.5045
46.097 11.4186
46.1454 11.4015
46.194 11.3667
46.2424 11.3271
46.291 11.2888
46.3395 11.2283
46.3881 11.199
46.4365 11.1855
46.4852 11.0985
46.5337 11.0676
46.5823 11.0427
46.631 11.0166
46.6795 10.9376
46.7282 10.9288
46.7767 10.9005
46.8254 10.8293
46.8739 10.8019
46.9226 10.7327
46.9712 10.718
47.0199 10.6595
47.0685 10.6609
47.1173 10.584
47.1658 10.5829
47.2146 10.5497
47.2632 10.4243
47.312 10.4328
47.3606 10.3857
47.4095 10.3641
47.4581 10.3275
47.5069 10.3042
47.5556 10.2131
47.6044 10.1725
47.6531 10.1447
47.702 10.1569
47.7507 10.0853
47.7996 10.0632
47.8483 10.0277
47.8972 9.99579
47.9461 9.91988
47.9948 9.89361
48.0438 9.86266
48.0925 9.85217
48.1415 9.84324
48.1902 9.73519
48.2392 9.75422
48.288 9.72737
48.337 9.67946
48.3858 9.62306
48.4348 9.57854
48.4837 9.57887
48.5327 9.54899
48.5815 9.51132
48.6306 9.50307
48.6795 9.43618
48.7285 9.40596
48.7774 9.32811
48.8265 9.31833
48.8754 9.25937
48.9245 9.26878
48.9734 9.21507
49.0226 9.18493
49.0715 9.14931
49.1206 9.11796
49.1696 9.07336
49.2188 9.03624
49.2679 9.00944
49.3169 8.99575
49.3661 8.89308
49.4151 8.89522
49.4643 8.82437
49.5134 8.82629
49.5626 8.77032
49.6117 8.77316
49.6609 8.7157
49.71 8.67612
49.7592 8.66638
49.8083 8.59642
49.8576 8.62368
49.9067 8.57406
49.956 8.53492
50.0052 8.49462
50.0545 8.47188
50.1036 8.42942
50.153 8.40807
50.2022 8.38523
50.2515 8.33336
50.3007 8.28559
50.3501 8.2716
50.3993 8.25314
50.4487 8.20972
50.498 8.17565
50.5474 8.1358
50.5966 8.10432
50.6461 8.11245
50.6955 8.06743
50.7448 8.01757
50.7943 7.9835
50.8436 7.96183
50.8931 7.93925
50.9424 7.89838
50.9919 7.84772
51.0413 7.82763
51.0908 7.78588
51.1402 7.76904
51.1897 7.73553
51.2391 7.67784
51.2887 7.67605
51.3381 7.64682
51.3877 7.5934
51.4371 7.55682
51.4867 7.52987
51.5362 7.53931
51.5858 7.51471
51.6353 7.41525
51.6849 7.40185
51.7344 7.41401
51.7841 7.38437
51.8336 7.33541
51.8833 7.30107
51.9328 7.24896
51.9826 7.23067
52.0323 7.23312
52.0818 7.22981
52.1316 7.11283
52.1812 7.13099
52.231 7.09039
52.2806 7.05597
52.3304 7.03454
52.38 7.02454
52.4298 7.00139
52.4794 6.96696
52.5293 6.90104
52.5789 6.92648
52.6288 6.86284
52.6785 6.83841
52.7284 6.82495
52.7781 6.77782
52.828 6.77279
52.8777 6.69728
52.9276 6.70425
52.9774 6.7071
53.0273 6.62401
53.0771 6.606
53.1271 6.5897
53.1769 6.56424
53.2269 6.54971
53.2767 6.51022
53.3267 6.48153
53.3765 6.42131
53.4266 6.44643
53.4766 6.40045
53.5265 6.35103
53.5765 6.35501
53.6264 6.30535
53.6765 6.31985
53.7264 6.23124
53.7765 6.22309
53.8265 6.21838
53.8766 6.16684
53.9266 6.12019
53.9767 6.12998
54.0267 6.08078
54.0769 6.05726
54.1269 6.04247
54.1771 6.01086
54.2271 5.99366
54.2773 5.89965
54.3274 5.935
54.3776 5.86277
54.4277 5.80872
54.478 5.77992
54.528 5.79335
54.5783 5.73662
54.6285 5.70259
54.6788 5.69839
54.7289 5.56979
54.7792 5.59579
54.8296 5.52064
54.8798 5.49873
54.9301 5.44386
54.9803 5.47293
55.0307 5.37826
55.0809 5.38191
55.1314 5.34978
55.1816 5.26949
55.232 5.25592
55.2823 5.17811
55.3328 5.15257
55.383 5.06029
55.4335 5.05607
55.4838 5.0077
55.5344 4.94131
55.5847 4.91052
55.6352 4.8927
55.6856 4.77617
55.7361 4.78956