File: XRD/Ni3Fe_FD0786.xy
TT I
1.27165 7.07224
1.31627 6.16717
1.36089 6.40433
1.40551 5.44691
1.45013 5.91219
1.49476 6.3765
1.53938 5.50556
1.584 5.79831
1.62863 5.4914
1.67325 5.6421
1.71787 5.33823
1.7625 4.84695
1.80712 4.62135
1.85174 4.52743
1.89636 4.23462
1.94099 5.24491
1.98562 4.69617
2.03025 4.81151
2.07487 4.69169
2.11949 5.13435
2.16411 4.88237
2.20874 11.4933
2.25338 16.9733
2.298 6.05882
2.34263 5.40618
2.38725 6.06383
2.43188 5.95338
2.4765 7.08632
2.52115 7.6834
2.56577 7.88426
2.6104 8.25777
2.65503 8.13223
2.69965 7.97635
2.7443 8.49948
2.78893 7.79325
2.83356 8.59852
2.87818 9.21158
2.92281 8.87636
2.96744 9.64343
3.01209 10.2722
3.05672 11.7803
3.10135 12.5708
3.14599 13.1048
3.19062 14.6201
3.23527 15.0914
3.2799 15.7709
3.32454 16.7648
3.36917 17.813
3.4138 18.7007
3.45844 19.4332
3.50309 20.2904
3.54773 21.6573
3.59237 23.5904
3.637 72.0125
3.68164 48.324
3.7263 25.3949
3.77094 26.0041
3.81558 26.906
3.86022 27.17
3.90486 28.7519
3.9495 29.2162
3.99416 30.6431
4.0388 32.0936
4.08344 33.5762
4.12809 34.3633
4.17273 36.3243
4.21738 41.2586
4.26204 187.509
4.30669 162.634
4.35133 46.1689
4.39598 43.7034
4.44063 51.0445
4.4853 59.7141
4.52995 50.3359
4.5746 51.59
4.61925 53.0316
4.6639 54.7394
4.70855 57.4178
4.75322 60.6583
4.79788 64.1437
4.84253 66.5336
4.88719 71.1484
4.93184 74.5823
4.97652 80.0249
5.02118 86.1688
5.06583 93.8176
5.11049 104.182
5.15515 159.449
5.19981 350.504
5.24449 2823.32
5.28916 12641.8
5.33382 2590.01
5.37848 175.506
5.42315 124.763
5.46783 111.524
5.5125 104.945
5.55716 101.108
5.60183 97.6209
5.6465 95.5519
5.69117 93.2951
5.73586 91.632
5.78053 91.4738
5.8252 90.9747
5.86988 92.0524
5.91455 93.2413
5.95924 101.953
6.00392 211.97
6.0486 952.856
6.09328 4537.77
6.13795 3151.75
6.18263 208.041
6.22733 89.7361
6.27201 80.4526
6.3167 93.1174
6.36138 76.8803
6.40606 68.2518
6.45075 66.6157
6.49545 64.2208
6.54014 63.114
6.58483 61.9453
6.62952 62.2313
6.67421 84.369
6.71892 117.885
6.76361 65.3408
6.8083 57.795
6.853 56.7351
6.89769 56.0175
6.94239 55.778
6.98711 54.9906
7.03181 54.7281
7.07651 54.5387
7.12121 54.5007
7.16591 54.6956
7.21063 54.3959
7.25533 65.9207
7.30004 140.78
7.34475 79.6425
7.38945 55.5582
7.43416 53.4368
7.47889 53.899
7.5236 54.027
7.56831 54.5556
7.61303 55.7375
7.65774 56.1565
7.70247 55.569
7.74719 55.3147
7.79191 55.9671
7.83663 56.4208
7.88135 57.1509
7.92607 58.1649
7.97081 59.0193
8.01553 60.2069
8.06026 61.4883
8.10498 63.2355
8.14971 70.3873
8.19446 70.3645
8.23919 68.7572
8.28392 71.2785
8.32865 73.3453
8.37339 77.6912
8.41812 83.9421
8.46288 107.793
8.50761 167.074
8.55235 381.337
8.59709 1208.24
8.64183 2194.09
8.68658 841.988
8.73134 148.056
8.77609 96.7728
8.82083 91.5185
8.86558 88.4128
8.91033 88.4559
8.9551 89.0241
8.99985 84.532
9.04461 82.941
9.08936 82.2945
9.13412 81.6406
9.17888 81.1394
9.22365 81.5677
9.26841 81.2955
9.31318 81.916
9.35794 82.2206
9.4027 82.2187
9.44749 83.1234
9.49226 83.3857
9.53703 84.5491
9.5818 86.6283
9.62657 90.4349
9.67134 94.9563
9.71614 91.9243
9.76091 92.9013
9.80569 95.6888
9.85047 98.8481
9.89525 116.973
9.94005 130.17
9.98484 177.635
10.0296 340.553
10.0744 819.576
10.1192 1770.61
10.164 1508.38
10.2088 345.019
10.2536 119.897
10.2984 109.579
10.3432 110.4
10.388 103.171
10.4328 118.27
10.4776 160.217
10.5224 288.797
10.5672 534.591
10.612 482.919
10.6568 184.139
10.7017 93.3973
10.7465 85.2184
10.7913 82.018
10.8361 80.0193
10.8809 77.7212
10.9257 77.0312
10.9706 76.9498
11.0154 73.6841
11.0602 71.9337
11.105 70.7237
11.1499 73.6198
11.1947 78.1408
11.2395 71.7906
11.2844 68.8004
11.3292 66.3866
11.374 65.2926
11.4189 64.4947
11.4637 64.2489
11.5086 64.3793
11.5534 66.3949
11.5983 64.3332
11.6431 62.8408
11.688 62.1673
11.7328 62.044
11.7777 62.0746
11.8225 61.5789
11.8674 61.7554
11.9122 61.9282
11.9571 62.2997
12.002 63.3023
12.0468 67.2933
12.0917 77.7177
12.1366 101.64
12.1814 157.75
12.2263 214.073
12.2712 166.738
12.3161 88.7431
12.3609 67.9197
12.4058 63.7147
12.4507 63.3943
12.4956 63.632
12.5405 63.5454
12.5853 64.4711
12.6302 70.2508
12.6751 73.7889
12.72 68.6383
12.7649 66.8147
12.8098 67.5294
12.8547 68.9319
12.8996 70.1611
12.9445 71.4907
12.9894 73.556
13.0343 75.024
13.0792 78.553
13.1242 87.98
13.1691 110.629
13.214 147.594
13.2589 243.74
13.3038 385.693
13.3487 422.897
13.3937 243.216
13.4386 117.024
13.4835 104.486
13.5285 118.898
13.5734 157.796
13.6183 254.426
13.6633 360.323
13.7082 331.775
13.7531 167.529
13.7981 92.4345
13.843 80.2985
13.888 78.5673
13.9329 76.3159
13.9779 74.8616
14.0228 73.4104
14.0678 72.2108
14.1127 71.4137
14.1577 71.4058
14.2027 70.2259
14.2476 69.6729
14.2926 69.5871
14.3376 70.1257
14.3825 69.0996
14.4275 68.1308
14.4725 67.7765
14.5175 68.1559
14.5624 68.0685
14.6074 69.6108
14.6524 70.4022
14.6974 69.832
14.7424 71.4302
14.7874 78.439
14.8324 88.1942
14.8774 110.362
14.9224 156.999
14.9674 215.071
15.0124 221.022
15.0574 142.309
15.1024 85.7258
15.1474 71.0065
15.1924 69.3577
15.2374 69.4706
15.2824 68.5189
15.3274 66.957
15.3725 66.1868
15.4175 65.3785
15.4625 65.172
15.5076 65.2358
15.5526 65.2157
15.5976 65.0748
15.6426 66.2483
15.6877 71.6301
15.7327 78.7477
15.7778 93.8337
15.8228 128.154
15.8679 178.424
15.9129 199.799
15.958 148.102
16.003 89.1897
16.0481 65.5223
16.0931 62.844
16.1382 61.253
16.1833 59.7252
16.2283 58.1203
16.2734 57.7217
16.3185 57.6072
16.3636 57.9263
16.4086 56.5879
16.4537 55.5027
16.4988 54.7832
16.5439 54.7537
16.589 54.6505
16.6341 54.1728
16.6792 53.8333
16.7243 54.3435
16.7694 54.1725
16.8145 54.0117
16.8596 54.3984
16.9047 55.4865
16.9498 55.8357
16.9949 55.0119
17.04 55.3184
17.0851 56.3511
17.1302 58.1051
17.1754 61.024
17.2205 66.5331
17.2656 75.0841
17.3108 83.3948
17.3559 81.3838
17.401 68.9106
17.4462 60.7163
17.4913 58.31
17.5365 58.3453
17.5815 58.4738
17.6268 58.8727
17.6718 59.5161
17.7171 60.0747
17.7622 60.587
17.8074 61.3372
17.8525 63.7769
17.8977 67.5545
17.9428 72.8221
17.9881 82.1849
18.0331 100.728
18.0784 125.179
18.1237 141.736
18.1688 127.303
18.214 98.585
18.2591 84.46
18.3044 90.753
18.3495 101.543
18.3948 105.816
18.4399 92.8507
18.4852 74.2543
18.5303 64.5472
18.5756 61.2485
18.6207 60.3853
18.666 59.5176
18.7112 58.9519
18.7565 58.1307
18.8016 57.947
18.8469 57.3952
18.892 56.9008
18.9374 56.4329
18.9825 56.4574
19.0278 56.258
19.073 56.2414
19.1183 56.9233
19.1635 57.3828
19.2088 58.6906
19.254 61.5702
19.2993 66.4845
19.3447 72.75
19.3898 75.9751
19.4352 70.4902
19.4804 61.2326
19.5257 55.4124
19.5709 53.3419
19.6163 53.1194
19.6615 53.114
19.7068 52.6579
19.752 52.8176
19.7974 53.1179
19.8426 53.7437
19.888 54.3814
19.9332 55.5715
19.9786 58.2069
20.0238 62.4669
20.0692 67.7135
20.1144 69.7728
20.1598 67.0953
20.205 62.1814
20.2504 61.7191
20.2957 64.1568
20.3411 65.5112
20.3863 62.9739
20.4318 56.7017
20.477 52.4461
20.5224 50.712
20.5677 50.2669
20.6131 49.6617
20.6586 49.0606
20.7038 49.0291
20.7493 48.4277
20.7945 48.2971
20.84 48.2469
20.8853 48.4027
20.9307 47.9592
20.976 48.0046
21.0215 48.1083
21.0668 48.3191
21.1122 48.9011
21.1575 49.555
21.203 50.4855
21.2483 50.9225
21.2938 50.823
21.3391 49.2667
21.3846 48.2536
21.4299 47.9592
21.4754 47.7479
21.5207 48.0403
21.5662 48.2847
21.6116 48.7315
21.6571 49.3108
21.7024 50.3113
21.7479 52.1243
21.7933 55.0051
21.8388 59.0628
21.8843 62.858
21.9297 64.2598
21.9752 61.926
22.0206 58.1816
22.0661 55.6866
22.1115 55.7177
22.157 55.289
22.2024 53.0347
22.248 50.7979
22.2933 49.0215
22.3389 48.2901
22.3843 48.3955
22.4299 48.1986
22.4753 48.3016
22.5208 48.274
22.5662 47.9156
22.6118 48.1385
22.6572 48.3069
22.7028 48.8446
22.7483 49.1865
22.7939 49.8727
22.8393 51.5757
22.8849 53.7653
22.9303 56.06
22.9759 57.5788
23.0214 56.6629
23.067 53.4722
23.1126 50.1268
23.1581 48.5917
23.2037 48.213
23.2492 48.461
23.2948 48.3989
23.3403 48.5241
23.3859 49.3381
23.4314 50.4299
23.477 52.235
23.5225 54.7315
23.5682 56.9449
23.6137 57.5533
23.6593 54.566
23.7048 50.3642
23.7505 47.5585
23.796 46.0948
23.8417 45.5597
23.8872 45.1115
23.9329 44.8393
23.9784 44.4184
24.0241 44.132
24.0697 43.8989
24.1154 43.5056
24.1609 43.4548
24.2066 43.2461
24.2522 43.2726
24.2979 42.9074
24.3434 42.8453
24.3892 42.6748
24.4349 42.5717
24.4805 42.5163
24.5262 42.5412
24.5718 42.5084
24.6175 42.4706
24.6631 42.2891
24.7089 41.9989
24.7545 41.8874
24.8002 41.698
24.8458 41.8804
24.8916 41.5267
24.9372 41.7276
24.983 42.1812
25.0286 42.5397
25.0744 42.9113
25.12 43.4608
25.1658 44.0219
25.2114 44.1272
25.2572 44.3671
25.3029 44.2936
25.3487 44.6508
25.3943 44.1934
25.4402 42.9384
25.4858 41.7427
25.5316 40.9273
25.5773 40.5834
25.6231 40.3862
25.669 40.0258
25.7147 40.2592
25.7605 40.0157
25.8062 40.0097
25.8521 40.3203
25.8977 40.217
25.9436 40.4922
25.9893 40.5205
26.0352 41.0409
26.0809 41.1926
26.1268 41.4359
26.1725 40.7743
26.2184 40.2571
26.2641 39.668
26.31 39.603
26.3557 39.7105
26.4017 39.6899
26.4474 39.9756
26.4933 40.2987
26.5391 40.8376
26.585 41.4282
26.6308 41.8284
26.6767 41.7929
26.7225 41.5537
26.7684 41.0579
26.8142 40.422
26.8601 39.9541
26.9059 39.5696
26.9519 39.0251
26.9979 38.7559
27.0437 38.3944
27.0896 38.3781
27.1354 38.3773
27.1814 38.2819
27.2272 38.0855
27.2732 38.2542
27.3191 37.9484
27.3651 38.1411
27.4109 38.0085
27.4569 38.187
27.5027 38.1009
27.5488 38.3226
27.5946 38.0696
27.6407 37.8072
27.6865 37.5806
27.7326 37.3283
27.7784 37.4643
27.8245 37.5314
27.8703 37.6015
27.9164 37.858
27.9623 37.9963
28.0084 38.4964
28.0543 38.7928
28.1003 38.6713
28.1462 38.3751
28.1923 38.0322
28.2384 37.3965
28.2843 37.0997
28.3304 36.6392
28.3764 36.1903
28.4225 35.9232
28.4684 35.7576
28.5145 35.6517
28.5605 35.4618
28.6066 35.3381
28.6526 35.1332
28.6987 35.1609
28.7447 35.1272
28.7908 35.0614
28.8368 35.1645
28.8829 34.9576
28.9289 34.924
28.9751 34.7632
29.0211 34.5188
29.0673 34.3456
29.1133 34.1832
29.1595 34.1959
29.2055 33.9642
29.2517 34.0755
29.2977 33.9514
29.3439 34.021
29.3899 33.9265
29.4361 33.7872
29.4824 33.5166
29.5284 33.3929
29.5746 33.0626
29.6207 32.8588
29.6669 32.799
29.713 32.5932
29.7593 32.5198
29.8053 32.5234
29.8516 32.4071
29.8977 32.4643
29.9439 32.2243
29.99 32.2857
30.0363 32.0878
30.0824 32.2385
30.1287 32.0451
30.1748 32.0921
30.2211 31.9966
30.2673 31.8755
30.3136 32.0892
30.3597 31.8447
30.406 31.7489
30.4522 31.7419
30.4985 31.7447
30.5447 31.845
30.591 31.8095
30.6372 31.9731
30.6835 31.8868
30.7297 31.9122
30.7761 31.7775
30.8224 31.6669
30.8686 31.5355
30.915 31.2284
30.9612 31.1766
31.0076 31.017
31.0538 30.804
31.1002 30.8508
31.1464 30.6622
31.1928 30.57
31.2391 30.6873
31.2855 30.5344
31.3317 30.5351
31.3781 30.5852
31.4244 30.5858
31.4708 30.6265
31.5171 30.5905
31.5636 30.4651
31.6098 30.1937
31.6563 29.9426
31.7026 29.9627
31.7491 29.7902
31.7953 29.8428
31.8418 29.7848
31.8881 29.9526
31.9346 29.7767
31.9809 29.7179
32.0275 29.5503
32.074 29.4536
32.1203 29.2673
32.1668 29.1784
32.2132 29.0748
32.2597 28.9273
32.306 28.8505
32.3526 28.6144
32.399 28.6608
32.4455 28.5176
32.4919 28.3474
32.5385 28.3098
32.5848 28.242
32.6314 28.2661
32.6778 28.0994
32.7244 27.9776
32.7708 27.8349
32.8174 27.8247
32.8638 27.8528
32.9104 27.8172
32.9569 27.7633
33.0035 27.5585
33.0499 27.6515
33.0966 27.5496
33.143 27.5395
33.1897 27.4016
33.2361 27.3327
33.2828 27.3099
33.3293 27.1039
33.3759 27.0743
33.4226 26.9845
33.4691 26.8605
33.5158 26.7771
33.5623 26.6634
33.609 26.4046
33.6555 26.3529
33.7022 26.3292
33.7487 26.1683
33.7954 26.194
33.842 26.0682
33.8887 26.0627
33.9353 25.9425
33.982 25.9022
34.0286 25.7488
34.0753 25.7465
34.1219 25.6667
34.1687 25.5834
34.2152 25.4413
34.262 25.3861
34.3086 25.2873
34.3554 25.2001
34.402 25.1459
34.4488 24.9868
34.4954 25.0218
34.5422 24.9841
34.5889 24.7937
34.6357 24.8038
34.6825 24.6596
34.7292 24.5726
34.776 24.4749
34.8227 24.3971
34.8695 24.3737
34.9162 24.3108
34.9631 24.258
35.0098 24.2439
35.0566 24.0847
35.1033 24.059
35.1502 23.945
35.1969 23.9513
35.2438 23.932
35.2906 23.8903
35.3375 23.8181
35.3842 23.7542
35.4311 23.8364
35.4779 23.7096
35.5248 23.5714
35.5716 23.4959
35.6185 23.52
35.6653 23.3765
35.7123 23.3375
35.759 23.2107
35.806 23.1989
35.8528 22.9973
35.8998 22.9551
35.9468 22.8843
35.9936 22.7739
36.0406 22.8246
36.0874 22.723
36.1345 22.647
36.1813 22.6501
36.2283 22.468
36.2752 22.4578
36.3222 22.4155
36.3691 22.2859
36.4161 22.2109
36.463 22.1869
36.5101 22.2093
36.557 22.1006
36.6041 21.921
36.651 21.9689
36.6981 21.821
36.745 21.8039
36.7921 21.7031
36.839 21.6766
36.8861 21.5438
36.9331 21.4749
36.9802 21.4005
37.0272 21.3505
37.0743 21.2793
37.1213 21.2777
37.1684 21.1844
37.2154 21.1643
37.2626 21.0558
37.3098 20.9173
37.3568 20.855
37.404 20.8918
37.451 20.8312
37.4982 20.751
37.5452 20.6187
37.5924 20.5077
37.6395 20.6255
37.6867 20.5363
37.7337 20.3459
37.781 20.2976
37.8281 20.2212
37.8753 20.2509
37.9224 20.1372
37.9697 20.0696
38.0168 19.984
38.064 19.9506
38.1111 19.9134
38.1584 19.8384
38.2056 19.8009
38.2529 19.7115
38.3 19.6709
38.3473 19.5691
38.3945 19.4632
38.4418 19.4928
38.489 19.4474
38.5363 19.3195
38.5837 19.2255
38.6309 19.2228
38.6782 19.1328
38.7254 19.0659
38.7728 18.9648
38.82 18.9099
38.8674 18.9189
38.9146 18.8406
38.9621 18.8067
39.0093 18.7645
39.0567 18.6493
39.104 18.6388
39.1514 18.5053
39.1987 18.5031
39.2461 18.3999
39.2934 18.356
39.3409 18.2136
39.3882 18.1892
39.4356 18.1911
39.483 18.1246
39.5304 18.0776
39.5778 18.0336
39.6253 17.9313
39.6726 17.8693
39.7201 17.8581
39.7675 17.7926
39.815 17.6942
39.8624 17.6655
39.9099 17.6256
39.9575 17.5834
40.0049 17.4671
40.0525 17.4399
40.0999 17.3928
40.1474 17.3553
40.1949 17.2396
40.2425 17.1546
40.2899 17.2176
40.3375 17.1711
40.385 16.9912
40.4326 16.9932
40.48 16.9489
40.5277 16.9696
40.5752 16.8253
40.6228 16.7892
40.6703 16.7684
40.718 16.6683
40.7655 16.6515
40.8132 16.5626
40.8607 16.5744
40.9084 16.4969
40.9559 16.4531
41.0036 16.3559
41.0512 16.3326
41.0989 16.3244
41.1465 16.1757
41.1942 16.1788
41.242 16.0622
41.2896 16.0932
41.3373 15.9621
41.3849 15.9534
41.4327 15.8942
41.4803 15.8158
41.5281 15.7675
41.5758 15.6907
41.6236 15.6599
41.6712 15.6094
41.7191 15.5426
41.7667 15.4986
41.8146 15.4567
41.8622 15.3966
41.9101 15.3646
41.9578 15.3152
42.0057 15.236
42.0534 15.1713
42.1013 15.1837
42.149 15.0817
42.1969 15.07
42.2446 15.0276
42.2925 14.9597
42.3403 14.9198
42.3882 14.8849
42.436 14.8421
42.4839 14.7742
42.5319 14.7372
42.5797 14.6734
42.6277 14.6253
42.6755 14.5831
42.7235 14.5119
42.7713 14.4761
42.8193 14.3945
42.8671 14.4049
42.9152 14.3382
42.963 14.2746
43.0111 14.2375
43.0589 14.1941
43.107 14.1645
43.1549 14.0758
43.2029 14.0039
43.2508 14.0067
43.2989 13.8946
43.3468 13.8585
43.3949 13.8322
43.4429 13.7709
43.491 13.7447
43.5389 13.7199
43.5871 13.6725
43.635 13.5761
43.6832 13.5351
43.7312 13.4969
43.7793 13.4765
43.8273 13.3759
43.8755 13.3434
43.9237 13.2925
43.9717 13.3023
44.0199 13.2053
44.068 13.1819
44.1162 13.101
44.1642 13.0824
44.2125 13.064
44.2606 12.9986
44.3088 12.9719
44.3569 12.8877
44.4052 12.8984
44.4533 12.866
44.5016 12.773
44.5497 12.746
44.598 12.6723
44.6461 12.696
44.6945 12.5686
44.7426 12.5346
44.791 12.4849
44.8391 12.503
44.8875 12.4263
44.9357 12.3816
44.984 12.3414
45.0322 12.291
45.0806 12.2577
45.1288 12.195
45.1773 12.1545
45.2257 12.1522
45.2739 12.0533
45.3224 12.0625
45.3706 12.0042
45.4191 11.9157
45.4673 11.9264
45.5158 11.878
45.5641 11.8487
45.6126 11.7891
45.6609 11.8014
45.7094 11.6648
45.7577 11.6837
45.8063 11.5955
45.8546 11.5583
45.9031 11.5159
45.9515 11.512
46.0001 11.4354
46.0484 11.3988
46.097 11.3633
46.1454 11.3765
46.194 11.2827
46.2424 11.2573
46.291 11.1907
46.3395 11.1474
46.3881 11.1022
46.4365 11.1122
46.4852 11.0746
46.5337 10.9583
46.5823 10.9491
46.631 10.933
46.6795 10.8846
46.7282 10.828
46.7767 10.8242
46.8254 10.7695
46.8739 10.7424
46.9226 10.6974
46.9712 10.6574
47.0199 10.6085
47.0685 10.5792
47.1173 10.5302
47.1658 10.5048
47.2146 10.4717
47.2632 10.3566
47.312 10.3639
47.3606 10.3221
47.4095 10.2793
47.4581 10.2265
47.5069 10.2545
47.5556 10.1694
47.6044 10.142
47.6531 10.1028
47.702 10.0669
47.7507 10.0134
47.7996 10.0066
47.8483 9.97957
47.8972 9.94172
47.9461 9.88246
47.9948 9.80317
48.0438 9.79813
48.0925 9.78592
48.1415 9.7492
48.1902 9.7071
48.2392 9.71461
48.288 9.64827
48.337 9.60575
48.3858 9.52785
48.4348 9.54093
48.4837 9.52221
48.5327 9.43373
48.5815 9.40232
48.6306 9.43549
48.6795 9.42231
48.7285 9.32336
48.7774 9.32289
48.8265 9.28054
48.8754 9.25618
48.9245 9.22457
48.9734 9.18105
49.0226 9.10505
49.0715 9.09579
49.1206 9.04942
49.1696 9.03269
49.2188 9.01438
49.2679 8.92259
49.3169 8.90989
49.3661 8.86052
49.4151 8.85645
49.4643 8.82593
49.5134 8.76908
49.5626 8.72333
49.6117 8.65953
49.6609 8.7196
49.71 8.60979
49.7592 8.58273
49.8083 8.54193
49.8576 8.58317
49.9067 8.45601
49.956 8.48475
50.0052 8.4414
50.0545 8.45821
50.1036 8.3764
50.153 8.34727
50.2022 8.30214
50.2515 8.24846
50.3007 8.23912
50.3501 8.24094
50.3993 8.21067
50.4487 8.16863
50.498 8.13658
50.5474 8.11946
50.5966 8.06917
50.6461 8.03528
50.6955 8.03145
50.7448 7.96485
50.7943 7.95028
50.8436 7.88631
50.8931 7.85768
50.9424 7.862
50.9919 7.7975
51.0413 7.81898
51.0908 7.72859
51.1402 7.75853
51.1897 7.67821
51.2391 7.66623
51.2887 7.64345
51.3381 7.58409
51.3877 7.56281
51.4371 7.52811
51.4867 7.49721
51.5362 7.47556
51.5858 7.4306
51.6353 7.36981
51.6849 7.35174
51.7344 7.36254
51.7841 7.31526
51.8336 7.2873
51.8833 7.30277
51.9328 7.23336
51.9826 7.17169
52.0323 7.1699
52.0818 7.15749
52.1316 7.09609
52.1812 7.06886
52.231 7.07094
52.2806 7.0514
52.3304 6.99751
52.38 6.95178
52.4298 6.95453
52.4794 6.92003
52.5293 6.89188
52.5789 6.86934
52.6288 6.84432
52.6785 6.76628
52.7284 6.7608
52.7781 6.74721
52.828 6.74721
52.8777 6.69717
52.9276 6.68681
52.9774 6.61321
53.0273 6.58363
53.0771 6.56964
53.1271 6.56192
53.1769 6.49285
53.2269 6.4831
53.2767 6.48284
53.3267 6.413
53.3765 6.40222
53.4266 6.41681
53.4766 6.33222
53.5265 6.2766
53.5765 6.31229
53.6264 6.26229
53.6765 6.2232
53.7264 6.18121
53.7765 6.17913
53.8265 6.15638
53.8766 6.12943
53.9266 6.10247
53.9767 6.05982
54.0267 6.07091
54.0769 6.03479
54.1269 5.97647
54.1771 5.94123
54.2271 5.94839
54.2773 5.9084
54.3274 5.88135
54.3776 5.82747
54.4277 5.82794
54.478 5.79102
54.528 5.73666
54.5783 5.72512
54.6285 5.64709
54.6788 5.65481
54.7289 5.6121
54.7792 5.51238
54.8296 5.49223
54.8798 5.46545
54.9301 5.41426
54.9803 5.38525
55.0307 5.34884
55.0809 5.33108
55.1314 5.31811
55.1816 5.22171
55.232 5.19665
55.2823 5.11499
55.3328 5.15314
55.383 5.04495
55.4335 5.02452
55.4838 4.97876
55.5344 4.89267
55.5847 4.85498
55.6352 4.78841
55.6856 4.83159
55.7361 4.76135