File: XRD/Ni3Fe_FD0509.xy
TT I
1.27165 7.3389
1.31627 6.57497
1.36089 7.0663
1.40551 6.17607
1.45013 6.53472
1.49476 5.9711
1.53938 6.14837
1.584 5.94485
1.62863 5.43854
1.67325 5.51306
1.71787 5.44638
1.7625 5.35129
1.80712 4.8285
1.85174 5.10012
1.89636 4.64991
1.94099 4.80756
1.98562 5.1333
2.03025 4.68516
2.07487 4.76911
2.11949 4.87191
2.16411 5.51911
2.20874 15.0317
2.25338 23.8534
2.298 6.2004
2.34263 5.06063
2.38725 5.95008
2.43188 5.67488
2.4765 7.27479
2.52115 6.55823
2.56577 7.17274
2.6104 8.29807
2.65503 6.46322
2.69965 8.37574
2.7443 8.28273
2.78893 8.16276
2.83356 8.50504
2.87818 8.79987
2.92281 8.51655
2.96744 9.68972
3.01209 10.4726
3.05672 11.2761
3.10135 12.5868
3.14599 12.6377
3.19062 14.4104
3.23527 15.5
3.2799 15.8002
3.32454 17.0016
3.36917 17.6174
3.4138 19.3009
3.45844 19.829
3.50309 20.9249
3.54773 22.2497
3.59237 24.3618
3.637 97.1599
3.68164 60.2927
3.7263 26.5952
3.77094 26.1759
3.81558 26.8338
3.86022 27.7332
3.90486 29.4705
3.9495 30.1623
3.99416 31.6318
4.0388 32.4772
4.08344 34.3155
4.12809 35.4644
4.17273 37.7001
4.21738 44.2595
4.26204 259.253
4.30669 222.465
4.35133 49.8606
4.39598 45.2897
4.44063 55.0809
4.4853 66.6714
4.52995 51.1165
4.5746 51.7123
4.61925 53.4447
4.6639 56.364
4.70855 58.7986
4.75322 61.6523
4.79788 64.4632
4.84253 67.9414
4.88719 72.5357
4.93184 75.8955
4.97652 81.8184
5.02118 87.9991
5.06583 96.339
5.11049 107.961
5.15515 180.795
5.19981 390.843
5.24449 2979.73
5.28916 12165.7
5.33382 3280.01
5.37848 205.088
5.42315 134.217
5.46783 117.463
5.5125 107.848
5.55716 104.205
5.60183 100.548
5.6465 98.5223
5.69117 95.9227
5.73586 93.433
5.78053 93.2054
5.8252 92.4307
5.86988 93.8113
5.91455 95.664
5.95924 104.612
6.00392 218.846
6.0486 1011.11
6.09328 4103.63
6.13795 3512.76
6.18263 294.027
6.22733 97.2547
6.27201 84.9701
6.3167 104.729
6.36138 81.8629
6.40606 70.3242
6.45075 68.104
6.49545 66.2797
6.54014 64.8873
6.58483 63.9937
6.62952 63.6241
6.67421 96.903
6.71892 148.642
6.76361 69.9378
6.8083 59.6957
6.853 58.3221
6.89769 57.6686
6.94239 57.7201
6.98711 56.6055
7.03181 56.4369
7.07651 56.3737
7.12121 56.0528
7.16591 56.4089
7.21063 56.2688
7.25533 72.1301
7.30004 186.087
7.34475 93.3389
7.38945 57.5488
7.43416 55.3137
7.47889 55.2446
7.5236 55.8111
7.56831 56.1444
7.61303 57.8944
7.65774 57.9686
7.70247 57.1284
7.74719 56.7858
7.79191 57.8189
7.83663 57.5578
7.88135 58.4874
7.92607 59.5615
7.97081 60.6408
8.01553 61.7739
8.06026 63.0124
8.10498 64.5875
8.14971 74.7906
8.19446 73.4695
8.23919 70.6772
8.28392 72.5166
8.32865 75.0561
8.37339 79.3776
8.41812 86.7007
8.46288 116.77
8.50761 169.047
8.55235 401.878
8.59709 1151.6
8.64183 2142.81
8.68658 1066.52
8.73134 180.325
8.77609 102.238
8.82083 94.5774
8.86558 90.9608
8.91033 91.0652
8.9551 93.1532
8.99985 86.7331
9.04461 84.3574
9.08936 83.8598
9.13412 82.7494
9.17888 83.0031
9.22365 83.4652
9.26841 82.8691
9.31318 83.6382
9.35794 83.9276
9.4027 84.1112
9.44749 84.7725
9.49226 85.7331
9.53703 86.498
9.5818 88.3726
9.62657 93.2829
9.67134 100.476
9.71614 94.78
9.76091 95.2639
9.80569 97.5217
9.85047 101.168
9.89525 126.368
9.94005 139.115
9.98484 180.833
10.0296 355.493
10.0744 804.078
10.1192 1650.72
10.164 1627.25
10.2088 445.364
10.2536 134.954
10.2984 115.465
10.3432 117.308
10.388 106.499
10.4328 119.932
10.4776 162.736
10.5224 281.932
10.5672 493.813
10.612 508.162
10.6568 224.217
10.7017 99.8643
10.7465 87.8806
10.7913 84.3239
10.8361 82.1927
10.8809 80.1674
10.9257 79.578
10.9706 80.2334
11.0154 75.8739
11.0602 73.8673
11.105 72.6641
11.1499 77.6025
11.1947 85.1969
11.2395 75.6132
11.2844 71.8102
11.3292 68.0137
11.374 66.9325
11.4189 66.4397
11.4637 65.836
11.5086 66.3848
11.5534 69.1666
11.5983 66.2878
11.6431 64.7425
11.688 63.7271
11.7328 63.6882
11.7777 63.6778
11.8225 63.1346
11.8674 63.0148
11.9122 63.3726
11.9571 63.5652
12.002 64.4111
12.0468 68.7145
12.0917 80.854
12.1366 104.98
12.1814 153.226
12.2263 202.109
12.2712 171.853
12.3161 102.562
12.3609 72.1162
12.4058 65.7364
12.4507 65.24
12.4956 65.4793
12.5405 65.5481
12.5853 66.402
12.6302 74.5411
12.6751 80.1033
12.72 71.1738
12.7649 68.8403
12.8098 69.2707
12.8547 70.5865
12.8996 71.9893
12.9445 73.2188
12.9894 74.8996
13.0343 76.6164
13.0792 80.0617
13.1242 89.1323
13.1691 114.369
13.214 151.693
13.2589 236.303
13.3038 359.283
13.3487 424.917
13.3937 279.607
13.4386 131.44
13.4835 107.959
13.5285 123.282
13.5734 160.348
13.6183 242.854
13.6633 333.276
13.7082 340.025
13.7531 202.551
13.7981 102.986
13.843 83.0815
13.888 80.6191
13.9329 77.9995
13.9779 77.0847
14.0228 75.4022
14.0678 73.9527
14.1127 73.205
14.1577 73.4447
14.2027 72.5176
14.2476 71.2038
14.2926 71.7373
14.3376 72.8872
14.3825 71.2401
14.4275 69.6613
14.4725 69.7051
14.5175 69.85
14.5624 69.9834
14.6074 72.2431
14.6524 72.945
14.6974 71.4196
14.7424 73.0282
14.7874 79.8689
14.8324 90.5946
14.8774 111.832
14.9224 151.655
14.9674 200.182
15.0124 216.011
15.0574 155.122
15.1024 95.2442
15.1474 73.5607
15.1924 71.7081
15.2374 72.0772
15.2824 71.1351
15.3274 69.1962
15.3725 67.9815
15.4175 67.2284
15.4625 67.0285
15.5076 67.3506
15.5526 67.1473
15.5976 66.5857
15.6426 67.6214
15.6877 73.1222
15.7327 81.2131
15.7778 96.0433
15.8228 125.545
15.8679 166.756
15.9129 191.417
15.958 159.679
16.003 102.737
16.0481 70.5447
16.0931 65.9098
16.1382 63.7291
16.1833 61.5846
16.2283 59.9589
16.2734 59.4289
16.3185 59.5536
16.3636 60.2914
16.4086 58.7119
16.4537 57.0131
16.4988 56.4086
16.5439 56.3756
16.589 56.0683
16.6341 55.6356
16.6792 55.1998
16.7243 55.685
16.7694 55.7868
16.8145 55.5331
16.8596 56.0237
16.9047 57.7031
16.9498 58.0445
16.9949 56.4117
17.04 56.4888
17.0851 57.8959
17.1302 59.696
17.1754 62.6337
17.2205 67.2575
17.2656 74.599
17.3108 81.7802
17.3559 82.3978
17.401 72.7056
17.4462 63.4281
17.4913 60.1141
17.5365 60.0173
17.5815 59.7567
17.6268 60.2806
17.6718 61.1449
17.7171 61.7603
17.7622 62.0356
17.8074 62.8221
17.8525 65.0916
17.8977 69.3663
17.9428 74.8837
17.9881 83.439
18.0331 99.5537
18.0784 119.466
18.1237 137.413
18.1688 133.529
18.214 107.412
18.2591 88.8998
18.3044 91.0812
18.3495 99.7921
18.3948 105.923
18.4399 99.2597
18.4852 80.4556
18.5303 67.8324
18.5756 63.2563
18.6207 62.4443
18.666 61.133
18.7112 60.4144
18.7565 60.0339
18.8016 59.3857
18.8469 58.7414
18.892 58.5971
18.9374 58.0235
18.9825 57.8858
19.0278 57.7538
19.073 57.8274
19.1183 58.2629
19.1635 59.0454
19.2088 60.579
19.254 62.8606
19.2993 66.9701
19.3447 72.8408
19.3898 76.6046
19.4352 73.4059
19.4804 64.6598
19.5257 58.0009
19.5709 55.0776
19.6163 54.6512
19.6615 54.5111
19.7068 53.9283
19.752 54.0453
19.7974 54.1415
19.8426 55.2285
19.888 55.7101
19.9332 56.9056
19.9786 59.4986
20.0238 62.6947
20.0692 67.2784
20.1144 70.0851
20.1598 69.3876
20.205 64.8495
20.2504 62.9024
20.2957 64.2595
20.3411 66.0569
20.3863 64.9792
20.4318 59.7623
20.477 54.8811
20.5224 52.4535
20.5677 51.726
20.6131 51.1103
20.6586 50.4849
20.7038 50.1687
20.7493 49.8442
20.7945 49.6926
20.84 49.435
20.8853 49.4588
20.9307 49.2545
20.976 49.3364
21.0215 49.3675
21.0668 49.6184
21.1122 50.1672
21.1575 50.7055
21.203 51.3532
21.2483 52.0168
21.2938 52.1846
21.3391 50.9886
21.3846 49.8449
21.4299 49.0701
21.4754 49.0391
21.5207 49.1151
21.5662 49.388
21.6116 49.8839
21.6571 50.5337
21.7024 51.5763
21.7479 53.1946
21.7933 55.9074
21.8388 59.2187
21.8843 62.7884
21.9297 64.6792
21.9752 64.2413
22.0206 60.8376
22.0661 57.4562
22.1115 56.5335
22.157 56.5169
22.2024 55.2938
22.248 52.3467
22.2933 50.7575
22.3389 49.709
22.3843 49.7304
22.4299 49.7431
22.4753 49.5309
22.5208 49.2234
22.5662 49.3359
22.6118 49.4135
22.6572 49.4908
22.7028 49.8438
22.7483 50.4208
22.7939 51.1341
22.8393 52.6183
22.8849 54.4306
22.9303 56.3783
22.9759 58.2434
23.0214 58.0145
23.067 55.4785
23.1126 52.1831
23.1581 50.0809
23.2037 49.477
23.2492 49.4296
23.2948 49.5244
23.3403 49.8961
23.3859 50.4759
23.4314 51.3343
23.477 53.0869
23.5225 55.1341
23.5682 56.9689
23.6137 58.191
23.6593 56.5524
23.7048 52.8413
23.7505 49.2907
23.796 47.5171
23.8417 46.6498
23.8872 46.1687
23.9329 45.7132
23.9784 45.3882
24.0241 45.3577
24.0697 45.0964
24.1154 44.812
24.1609 44.7849
24.2066 44.6234
24.2522 44.3312
24.2979 44.1156
24.3434 43.9685
24.3892 43.8514
24.4349 43.7031
24.4805 43.558
24.5262 43.6959
24.5718 43.6152
24.6175 43.4997
24.6631 43.1337
24.7089 43.1862
24.7545 42.8706
24.8002 42.8268
24.8458 42.847
24.8916 42.5792
24.9372 42.7935
24.983 43.0803
25.0286 43.5212
25.0744 43.8312
25.12 44.3607
25.1658 44.6904
25.2114 45.1496
25.2572 45.3291
25.3029 45.3332
25.3487 45.4291
25.3943 45.292
25.4402 44.1374
25.4858 43.1197
25.5316 42.13
25.5773 41.5197
25.6231 41.5408
25.669 40.9893
25.7147 41.2155
25.7605 40.9967
25.8062 41.0566
25.8521 41.2282
25.8977 41.1215
25.9436 41.3583
25.9893 41.6017
26.0352 41.9898
26.0809 42.0038
26.1268 42.1968
26.1725 41.9344
26.2184 41.3442
26.2641 40.8665
26.31 40.8214
26.3557 40.5459
26.4017 40.6356
26.4474 40.9599
26.4933 41.3791
26.5391 41.7923
26.585 42.1319
26.6308 42.4763
26.6767 42.78
26.7225 42.5936
26.7684 42.1504
26.8142 41.4216
26.8601 40.9619
26.9059 40.6682
26.9519 40.0444
26.9979 39.8318
27.0437 39.4347
27.0896 39.2338
27.1354 39.288
27.1814 39.0479
27.2272 38.9888
27.2732 39.2295
27.3191 38.8857
27.3651 39.0278
27.4109 38.9386
27.4569 38.982
27.5027 39.0243
27.5488 39.0282
27.5946 38.9194
27.6407 38.6719
27.6865 38.62
27.7326 38.3066
27.7784 38.5027
27.8245 38.2331
27.8703 38.4995
27.9164 38.7565
27.9623 38.924
28.0084 39.1801
28.0543 39.5278
28.1003 39.4524
28.1462 39.366
28.1923 38.9968
28.2384 38.4223
28.2843 38.2048
28.3304 37.6471
28.3764 37.2748
28.4225 36.8442
28.4684 36.7775
28.5145 36.4939
28.5605 36.3454
28.6066 36.2368
28.6526 36.1561
28.6987 36.0511
28.7447 35.9939
28.7908 35.8715
28.8368 36.0628
28.8829 35.9201
28.9289 35.7661
28.9751 35.5588
29.0211 35.4289
29.0673 35.0221
29.1133 35.0738
29.1595 34.7901
29.2055 34.7703
29.2517 34.7826
29.2977 34.7642
29.3439 34.7099
29.3899 34.7647
29.4361 34.7034
29.4824 34.4
29.5284 34.2216
29.5746 34.0294
29.6207 33.6287
29.6669 33.5295
29.713 33.5068
29.7593 33.2773
29.8053 33.418
29.8516 33.2981
29.8977 33.1713
29.9439 33.1979
29.99 33.042
30.0363 32.9702
30.0824 33.0371
30.1287 32.8704
30.1748 32.961
30.2211 32.8456
30.2673 32.6145
30.3136 32.7669
30.3597 32.7426
30.406 32.6662
30.4522 32.5562
30.4985 32.4354
30.5447 32.6794
30.591 32.5436
30.6372 32.5962
30.6835 32.5366
30.7297 32.6034
30.7761 32.6332
30.8224 32.3293
30.8686 32.1753
30.915 32.0478
30.9612 31.9429
31.0076 31.7492
31.0538 31.6476
31.1002 31.6816
31.1464 31.3037
31.1928 31.3798
31.2391 31.406
31.2855 31.253
31.3317 31.2371
31.3781 31.2988
31.4244 31.2932
31.4708 31.3452
31.5171 31.0596
31.5636 31.147
31.6098 31.0699
31.6563 30.7043
31.7026 30.6514
31.7491 30.5271
31.7953 30.5331
31.8418 30.391
31.8881 30.5749
31.9346 30.4134
31.9809 30.4523
32.0275 30.3094
32.074 30.1962
32.1203 30.08
32.1668 30.042
32.2132 29.7885
32.2597 29.6293
32.306 29.6189
32.3526 29.3488
32.399 29.3049
32.4455 29.2139
32.4919 29.1923
32.5385 28.9765
32.5848 28.8323
32.6314 28.9338
32.6778 28.8233
32.7244 28.6346
32.7708 28.5436
32.8174 28.527
32.8638 28.3189
32.9104 28.5262
32.9569 28.3597
33.0035 28.2343
33.0499 28.2827
33.0966 28.1696
33.143 28.1648
33.1897 28.062
33.2361 27.9897
33.2828 27.9145
33.3293 27.6346
33.3759 27.7972
33.4226 27.6948
33.4691 27.57
33.5158 27.3946
33.5623 27.3391
33.609 27.1527
33.6555 27.0917
33.7022 26.9295
33.7487 26.8632
33.7954 26.7837
33.842 26.6622
33.8887 26.7174
33.9353 26.582
33.982 26.4647
34.0286 26.4229
34.0753 26.3476
34.1219 26.3469
34.1687 26.1484
34.2152 26.2131
34.262 25.9602
34.3086 25.9281
34.3554 25.8335
34.402 25.7645
34.4488 25.653
34.4954 25.6372
34.5422 25.5205
34.5889 25.3688
34.6357 25.3367
34.6825 25.3179
34.7292 25.2216
34.776 25.0827
34.8227 24.9996
34.8695 25.0103
34.9162 24.9924
34.9631 24.7836
35.0098 24.7813
35.0566 24.585
35.1033 24.6808
35.1502 24.6175
35.1969 24.5918
35.2438 24.4268
35.2906 24.4009
35.3375 24.4015
35.3842 24.2741
35.4311 24.3598
35.4779 24.313
35.5248 24.1763
35.5716 24.1013
35.6185 24.0869
35.6653 23.9787
35.7123 23.8402
35.759 23.8139
35.806 23.7385
35.8528 23.489
35.8998 23.5412
35.9468 23.4175
35.9936 23.4017
36.0406 23.3809
36.0874 23.2908
36.1345 23.1895
36.1813 23.1338
36.2283 23.0076
36.2752 22.9423
36.3222 22.9615
36.3691 22.8937
36.4161 22.759
36.463 22.7837
36.5101 22.7073
36.557 22.6678
36.6041 22.5159
36.651 22.4871
36.6981 22.3929
36.745 22.3383
36.7921 22.3099
36.839 22.1785
36.8861 22.1623
36.9331 21.9307
36.9802 21.9421
37.0272 21.9052
37.0743 21.8287
37.1213 21.7495
37.1684 21.7115
37.2154 21.6332
37.2626 21.5546
37.3098 21.4827
37.3568 21.4201
37.404 21.3871
37.451 21.2992
37.4982 21.2206
37.5452 21.1413
37.5924 21.0572
37.6395 21.1454
37.6867 21.0248
37.7337 20.9629
37.781 20.8393
37.8281 20.7622
37.8753 20.639
37.9224 20.5774
37.9697 20.5896
38.0168 20.4782
38.064 20.3595
38.1111 20.4182
38.1584 20.2833
38.2056 20.223
38.2529 20.1504
38.3 20.1237
38.3473 20.0554
38.3945 19.946
38.4418 19.8863
38.489 19.8609
38.5363 19.7847
38.5837 19.7114
38.6309 19.6447
38.6782 19.6479
38.7254 19.5576
38.7728 19.4294
38.82 19.3702
38.8674 19.3441
38.9146 19.3165
38.9621 19.2996
39.0093 19.1607
39.0567 19.0412
39.104 19.0347
39.1514 18.9753
39.1987 18.9278
39.2461 18.9162
39.2934 18.8453
39.3409 18.6904
39.3882 18.6427
39.4356 18.5962
39.483 18.5528
39.5304 18.4787
39.5778 18.4707
39.6253 18.4257
39.6726 18.3603
39.7201 18.299
39.7675 18.2193
39.815 18.1459
39.8624 18.0695
39.9099 18.073
39.9575 17.9227
40.0049 17.9288
40.0525 17.8346
40.0999 17.8072
40.1474 17.8127
40.1949 17.643
40.2425 17.5816
40.2899 17.6227
40.3375 17.5723
40.385 17.5067
40.4326 17.4129
40.48 17.2991
40.5277 17.3232
40.5752 17.2584
40.6228 17.1942
40.6703 17.1236
40.718 17.1083
40.7655 17.0809
40.8132 16.9811
40.8607 16.9739
40.9084 16.9192
40.9559 16.833
41.0036 16.7497
41.0512 16.7458
41.0989 16.6663
41.1465 16.6567
41.1942 16.586
41.242 16.4558
41.2896 16.4156
41.3373 16.3779
41.3849 16.3568
41.4327 16.291
41.4803 16.2238
41.5281 16.1998
41.5758 16.1468
41.6236 15.9891
41.6712 15.9671
41.7191 15.9377
41.7667 15.8747
41.8146 15.9042
41.8622 15.7648
41.9101 15.7084
41.9578 15.6574
42.0057 15.6201
42.0534 15.5697
42.1013 15.6112
42.149 15.5037
42.1969 15.4214
42.2446 15.3766
42.2925 15.3167
42.3403 15.312
42.3882 15.2496
42.436 15.1888
42.4839 15.127
42.5319 15.0875
42.5797 15.1139
42.6277 14.9914
42.6755 14.8944
42.7235 14.8403
42.7713 14.8114
42.8193 14.8018
42.8671 14.7098
42.9152 14.6676
42.963 14.6487
43.0111 14.5442
43.0589 14.5495
43.107 14.4745
43.1549 14.4649
43.2029 14.3655
43.2508 14.3194
43.2989 14.2632
43.3468 14.1964
43.3949 14.131
43.4429 14.0994
43.491 14.0589
43.5389 14.0568
43.5871 13.9997
43.635 13.9259
43.6832 13.8824
43.7312 13.8078
43.7793 13.805
43.8273 13.7254
43.8755 13.7041
43.9237 13.6342
43.9717 13.6256
44.0199 13.5826
44.068 13.4527
44.1162 13.4309
44.1642 13.4097
44.2125 13.3747
44.2606 13.3343
44.3088 13.2659
44.3569 13.1786
44.4052 13.1936
44.4533 13.0997
44.5016 13.065
44.5497 13.0472
44.598 12.9996
44.6461 12.9599
44.6945 12.8704
44.7426 12.8373
44.791 12.7996
44.8391 12.7399
44.8875 12.7032
44.9357 12.6678
44.984 12.6155
45.0322 12.5692
45.0806 12.5044
45.1288 12.498
45.1773 12.4585
45.2257 12.3801
45.2739 12.3506
45.3224 12.3656
45.3706 12.3306
45.4191 12.1916
45.4673 12.1783
45.5158 12.1749
45.5641 12.095
45.6126 12.0652
45.6609 12.0206
45.7094 11.9291
45.7577 11.9389
45.8063 11.8362
45.8546 11.8673
45.9031 11.7576
45.9515 11.7794
46.0001 11.7468
46.0484 11.6539
46.097 11.6697
46.1454 11.5864
46.194 11.5409
46.2424 11.4945
46.291 11.4722
46.3395 11.4405
46.3881 11.3291
46.4365 11.4009
46.4852 11.3063
46.5337 11.2606
46.5823 11.2454
46.631 11.1652
46.6795 11.1103
46.7282 11.0949
46.7767 11.0517
46.8254 11.0079
46.8739 10.965
46.9226 10.9207
46.9712 10.9337
47.0199 10.8535
47.0685 10.8219
47.1173 10.7571
47.1658 10.7096
47.2146 10.6665
47.2632 10.6144
47.312 10.6414
47.3606 10.58
47.4095 10.5357
47.4581 10.497
47.5069 10.4651
47.5556 10.4284
47.6044 10.3774
47.6531 10.3282
47.702 10.3088
47.7507 10.2572
47.7996 10.2165
47.8483 10.163
47.8972 10.1358
47.9461 10.1277
47.9948 10.0451
48.0438 10.033
48.0925 10.0479
48.1415 9.9734
48.1902 9.98011
48.2392 9.90809
48.288 9.86415
48.337 9.82698
48.3858 9.76134
48.4348 9.7684
48.4837 9.73634
48.5327 9.71442
48.5815 9.67471
48.6306 9.66071
48.6795 9.60662
48.7285 9.54021
48.7774 9.47538
48.8265 9.50852
48.8754 9.45203
48.9245 9.37925
48.9734 9.4322
49.0226 9.34534
49.0715 9.28265
49.1206 9.25695
49.1696 9.2441
49.2188 9.23186
49.2679 9.16258
49.3169 9.10918
49.3661 9.09542
49.4151 9.04899
49.4643 9.0053
49.5134 9.00118
49.5626 8.92805
49.6117 8.90337
49.6609 8.91581
49.71 8.81699
49.7592 8.77607
49.8083 8.76459
49.8576 8.76296
49.9067 8.69233
49.956 8.72854
50.0052 8.63267
50.0545 8.60626
50.1036 8.61713
50.153 8.56711
50.2022 8.52798
50.2515 8.45292
50.3007 8.44464
50.3501 8.41096
50.3993 8.4272
50.4487 8.40853
50.498 8.33514
50.5474 8.28866
50.5966 8.24018
50.6461 8.22917
50.6955 8.22606
50.7448 8.1736
50.7943 8.15509
50.8436 8.0978
50.8931 8.05888
50.9424 8.0436
50.9919 7.98152
51.0413 7.96774
51.0908 7.94432
51.1402 7.91697
51.1897 7.89347
51.2391 7.8303
51.2887 7.83171
51.3381 7.76267
51.3877 7.7447
51.4371 7.74678
51.4867 7.67502
51.5362 7.69985
51.5858 7.60947
51.6353 7.59931
51.6849 7.5392
51.7344 7.54104
51.7841 7.49157
51.8336 7.47016
51.8833 7.4227
51.9328 7.39848
51.9826 7.34478
52.0323 7.40397
52.0818 7.33358
52.1316 7.22982
52.1812 7.27114
52.231 7.23587
52.2806 7.18175
52.3304 7.12257
52.38 7.1411
52.4298 7.1026
52.4794 7.07088
52.5293 7.03426
52.5789 7.0751
52.6288 6.99788
52.6785 6.92282
52.7284 6.93755
52.7781 6.88691
52.828 6.8684
52.8777 6.84081
52.9276 6.80763
52.9774 6.79975
53.0273 6.75375
53.0771 6.77028
53.1271 6.71914
53.1769 6.68043
53.2269 6.65221
53.2767 6.62298
53.3267 6.61636
53.3765 6.56029
53.4266 6.54784
53.4766 6.50066
53.5265 6.52261
53.5765 6.44111
53.6264 6.42417
53.6765 6.41858
53.7264 6.37547
53.7765 6.35022
53.8265 6.3164
53.8766 6.2859
53.9266 6.23071
53.9767 6.18503
54.0267 6.21116
54.0769 6.14782
54.1269 6.14873
54.1771 6.07517
54.2271 6.08418
54.2773 6.01792
54.3274 6.015
54.3776 5.98069
54.4277 6.01311
54.478 5.91135
54.528 5.86756
54.5783 5.80068
54.6285 5.78
54.6788 5.76626
54.7289 5.69672
54.7792 5.7215
54.8296 5.64093
54.8798 5.57093
54.9301 5.58131
54.9803 5.56889
55.0307 5.50247
55.0809 5.4221
55.1314 5.41014
55.1816 5.38437
55.232 5.31032
55.2823 5.27786
55.3328 5.23606
55.383 5.18787
55.4335 5.11381
55.4838 5.02358
55.5344 5.01454
55.5847 4.96774
55.6352 4.96489
55.6856 4.89661
55.7361 4.90186