File: XRD/Ni3Fe_FD0112.xy
TT I
1.27165 8.56057
1.31627 7.04303
1.36089 7.11989
1.40551 6.08587
1.45013 6.46785
1.49476 6.87935
1.53938 6.31052
1.584 5.65062
1.62863 5.76401
1.67325 5.80466
1.71787 5.77027
1.7625 5.75538
1.80712 5.4082
1.85174 5.18554
1.89636 5.40383
1.94099 5.52646
1.98562 5.0793
2.03025 4.97861
2.07487 5.02878
2.11949 5.06694
2.16411 5.17387
2.20874 5.04411
2.25338 4.64343
2.298 4.29048
2.34263 4.11289
2.38725 3.95489
2.43188 3.92672
2.4765 3.91626
2.52115 4.29703
2.56577 4.26998
2.6104 4.97843
2.65503 5.32843
2.69965 4.8784
2.7443 5.55237
2.78893 6.19469
2.83356 6.84791
2.87818 6.86364
2.92281 8.63324
2.96744 8.86116
3.01209 10.4707
3.05672 10.9784
3.10135 12.0542
3.14599 12.8724
3.19062 13.6444
3.23527 15.0216
3.2799 15.8744
3.32454 16.579
3.36917 16.8737
3.4138 18.7335
3.45844 18.9639
3.50309 20.3872
3.54773 20.8059
3.59237 21.587
3.637 21.9678
3.68164 22.7749
3.7263 23.913
3.77094 24.9028
3.81558 25.2738
3.86022 26.2895
3.90486 27.1755
3.9495 28.2604
3.99416 28.8579
4.0388 30.0775
4.08344 31.2925
4.12809 32.6499
4.17273 33.4688
4.21738 35.2309
4.26204 36.2666
4.30669 37.0885
4.35133 39.5951
4.39598 40.8498
4.44063 42.7337
4.4853 44.3712
4.52995 46.5252
4.5746 48.6334
4.61925 51.2722
4.6639 53.2312
4.70855 56.5408
4.75322 59.4499
4.79788 61.979
4.84253 65.8975
4.88719 70.2493
4.93184 75.7426
4.97652 82.9868
5.02118 91.7007
5.06583 103.645
5.11049 121.923
5.15515 164.54
5.19981 614.601
5.24449 3769.64
5.28916 7276.75
5.33382 6765.44
5.37848 578.26
5.42315 177.655
5.46783 133.125
5.5125 117.04
5.55716 109.539
5.60183 103.433
5.6465 100.259
5.69117 98.6084
5.73586 96.5043
5.78053 96.5404
5.8252 97.0453
5.86988 100.387
5.91455 108.865
5.95924 130.482
6.00392 314.366
6.0486 1417.33
6.09328 2385.17
6.13795 3881.26
6.18263 838.017
6.22733 135.785
6.27201 92.8546
6.3167 80.0678
6.36138 73.473
6.40606 68.7257
6.45075 66.4576
6.49545 64.2153
6.54014 62.2769
6.58483 60.4004
6.62952 59.3524
6.67421 58.1313
6.71892 56.9047
6.76361 56.2727
6.8083 55.4263
6.853 54.4213
6.89769 53.8709
6.94239 53.6705
6.98711 52.8742
7.03181 52.6311
7.07651 52.4433
7.12121 51.6255
7.16591 51.9439
7.21063 51.345
7.25533 51.4506
7.30004 51.2769
7.34475 51.7549
7.38945 51.5642
7.43416 51.2055
7.47889 51.5267
7.5236 57.0621
7.56831 69.4252
7.61303 56.6547
7.65774 52.7497
7.70247 53.3337
7.74719 53.7794
7.79191 54.2887
7.83663 54.4623
7.88135 55.4338
7.92607 56.4131
7.97081 57.5667
8.01553 58.5698
8.06026 60.363
8.10498 61.3827
8.14971 63.0896
8.19446 64.8241
8.23919 67.3273
8.28392 70.27
8.32865 73.319
8.37339 77.9709
8.41812 84.0321
8.46288 96.9478
8.50761 181.138
8.55235 630.946
8.59709 808.311
8.64183 1297.43
8.68658 1764.69
8.73134 506.153
8.77609 123.811
8.82083 99.0887
8.86558 91.8855
8.91033 87.8919
8.9551 84.9462
8.99985 83.6073
9.04461 82.7838
9.08936 81.6282
9.13412 80.7429
9.17888 81.1234
9.22365 89.5324
9.26841 107.085
9.31318 90.4233
9.35794 81.9733
9.4027 81.4425
9.44749 82.3783
9.49226 82.4886
9.53703 83.6356
9.5818 85.323
9.62657 85.9338
9.67134 87.931
9.71614 89.9187
9.76091 91.9141
9.80569 94.8604
9.85047 98.1361
9.89525 103.822
9.94005 114.714
9.98484 193.5
10.0296 570.247
10.0744 696.433
10.1192 873.962
10.164 1557.19
10.2088 1113.86
10.2536 250.344
10.2984 119.378
10.3432 108.726
10.388 104.845
10.4328 122.996
10.4776 222.052
10.5224 251.066
10.5672 289.475
10.612 461.368
10.6568 406.83
10.7017 148.666
10.7465 92.9107
10.7913 83.5384
10.8361 80.1552
10.8809 77.6138
10.9257 75.0902
10.9706 73.8196
11.0154 72.1707
11.0602 70.9909
11.105 69.6552
11.1499 67.9951
11.1947 67.3018
11.2395 66.047
11.2844 65.6402
11.3292 64.738
11.374 64.0217
11.4189 63.4456
11.4637 62.8253
11.5086 62.0868
11.5534 61.926
11.5983 61.5454
11.6431 61.6086
11.688 60.7294
11.7328 61.0839
11.7777 60.9235
11.8225 60.4665
11.8674 60.7594
11.9122 62.5048
11.9571 67.4541
12.002 67.261
12.0468 67.8472
12.0917 92.0269
12.1366 107.066
12.1814 109.839
12.2263 136.413
12.2712 184.946
12.3161 152.813
12.3609 78.7495
12.4058 64.1613
12.4507 62.909
12.4956 62.4787
12.5405 62.4996
12.5853 63.0644
12.6302 63.2307
12.6751 63.7025
12.72 64.4523
12.7649 65.4089
12.8098 66.1547
12.8547 67.5983
12.8996 68.9293
12.9445 70.6478
12.9894 72.32
13.0343 74.4862
13.0792 79.06
13.1242 87.0442
13.1691 135.922
13.214 190.876
13.2589 192.316
13.3038 216.718
13.3487 315.739
13.3937 391.197
13.4386 236.81
13.4835 125.657
13.5285 158.774
13.5734 182.938
13.6183 177.419
13.6633 209.842
13.7082 304.486
13.7531 320.762
13.7981 171.903
13.843 90.6088
13.888 80.8138
13.9329 77.173
13.9779 75.6242
14.0228 73.787
14.0678 72.2978
14.1127 72.6022
14.1577 75.2297
14.2027 74.0234
14.2476 70.5463
14.2926 68.7884
14.3376 68.4117
14.3825 67.8598
14.4275 67.5711
14.4725 67.5628
14.5175 67.4893
14.5624 67.5247
14.6074 67.9082
14.6524 68.2778
14.6974 69.1362
14.7424 70.8423
14.7874 80.702
14.8324 108.863
14.8774 120.893
14.9224 118.848
14.9674 133.585
15.0124 175.735
15.0574 207.383
15.1024 152.422
15.1474 85.3412
15.1924 71.2522
15.2374 68.8612
15.2824 67.0978
15.3274 66.4497
15.3725 66.0021
15.4175 65.558
15.4625 65.0905
15.5076 64.6992
15.5526 64.8072
15.5976 65.1093
15.6426 66.041
15.6877 73.9524
15.7327 96.4709
15.7778 108.017
15.8228 105.181
15.8679 113.006
15.9129 140.262
15.958 181.42
16.003 162.809
16.0481 95.4258
16.0931 67.6795
16.1382 62.0583
16.1833 59.8282
16.2283 58.32
16.2734 57.4029
16.3185 56.8961
16.3636 56.2803
16.4086 55.2045
16.4537 55.045
16.4988 54.4242
16.5439 54.4773
16.589 54.0909
16.6341 54.0577
16.6792 53.3839
16.7243 53.7241
16.7694 53.7141
16.8145 53.6221
16.8596 53.7078
16.9047 54.2198
16.9498 54.6497
16.9949 54.6444
17.04 54.8891
17.0851 56.4045
17.1302 60.7073
17.1754 64.2379
17.2205 64.0593
17.2656 64.8664
17.3108 69.2327
17.3559 76.4235
17.401 81.0192
17.4462 73.069
17.4913 61.8224
17.5365 58.6216
17.5815 58.4756
17.6268 58.663
17.6718 59.2073
17.7171 59.4827
17.7622 60.6652
17.8074 61.6651
17.8525 63.3652
17.8977 72.0451
17.9428 84.5519
17.9881 88.1397
18.0331 86.9659
18.0784 91.7461
18.1237 106.056
18.1688 134.507
18.214 146.534
18.2591 115.952
18.3044 87.4394
18.3495 82.6529
18.3948 89.9475
18.4399 101.367
18.4852 97.8812
18.5303 79.2384
18.5756 65.46
18.6207 61.9678
18.666 60.4941
18.7112 59.5666
18.7565 58.6712
18.8016 58.2168
18.8469 57.6075
18.892 57.1691
18.9374 56.9507
18.9825 56.5495
19.0278 56.2863
19.073 56.1598
19.1183 56.8366
19.1635 59.4378
19.2088 61.368
19.254 61.6928
19.2993 61.572
19.3447 63.4062
19.3898 66.7027
19.4352 71.824
19.4804 72.8973
19.5257 65.1797
19.5709 56.6689
19.6163 53.8808
19.6615 53.5053
19.7068 52.6961
19.752 53.0515
19.7974 52.9484
19.8426 54.2328
19.888 56.6747
19.9332 58.0876
19.9786 57.786
20.0238 57.673
20.0692 59.8677
20.1144 64.8728
20.1598 70.801
20.205 71.1582
20.2504 65.671
20.2957 60.1357
20.3411 59.7502
20.3863 63.0162
20.4318 64.2775
20.477 59.7385
20.5224 53.6893
20.5677 50.711
20.6131 49.6997
20.6586 49.4155
20.7038 49.1399
20.7493 48.8213
20.7945 48.9745
20.84 48.577
20.8853 48.5173
20.9307 48.2232
20.976 48.3017
21.0215 48.6197
21.0668 49.027
21.1122 48.9109
21.1575 48.8908
21.203 48.8152
21.2483 49.4908
21.2938 50.4188
21.3391 51.0657
21.3846 50.3318
21.4299 49.27
21.4754 48.3889
21.5207 48.2854
21.5662 48.5425
21.6116 49.0895
21.6571 50.9453
21.7024 52.824
21.7479 53.4182
21.7933 53.3402
21.8388 54.3369
21.8843 56.9024
21.9297 60.059
21.9752 64.1743
22.0206 65.4767
22.0661 61.3475
22.1115 56.0872
22.157 54.7588
22.2024 55.7156
22.248 55.1078
22.2933 52.7759
22.3389 50.0284
22.3843 48.8066
22.4299 48.3917
22.4753 48.3916
22.5208 48.3674
22.5662 48.251
22.6118 48.4979
22.6572 48.6391
22.7028 50.0423
22.7483 51.0261
22.7939 51.6432
22.8393 51.4353
22.8849 51.5667
22.9303 52.0741
22.9759 53.5113
23.0214 55.6956
23.067 57.6055
23.1126 56.527
23.1581 52.7167
23.2037 49.8407
23.2492 48.8138
23.2948 49.3595
23.3403 50.7482
23.3859 51.4718
23.4314 51.2354
23.477 50.9598
23.5225 51.1219
23.5682 52.0473
23.6137 54.1036
23.6593 56.5693
23.7048 57.3548
23.7505 54.2108
23.796 49.5561
23.8417 46.8036
23.8872 45.5996
23.9329 45.4149
23.9784 44.9569
24.0241 44.6897
24.0697 44.2044
24.1154 44.0718
24.1609 43.7346
24.2066 43.5627
24.2522 43.3678
24.2979 43.3215
24.3434 43.0632
24.3892 42.9769
24.4349 42.8496
24.4805 42.5513
24.5262 42.648
24.5718 42.4517
24.6175 42.6023
24.6631 42.7754
24.7089 42.5776
24.7545 42.4092
24.8002 42.1088
24.8458 42.1703
24.8916 42.1884
24.9372 42.3265
24.983 42.4586
25.0286 42.4937
25.0744 42.9676
25.12 43.2743
25.1658 43.8373
25.2114 43.9441
25.2572 44.5017
25.3029 44.4648
25.3487 44.2678
25.3943 44.204
25.4402 44.4449
25.4858 44.4915
25.5316 43.1466
25.5773 41.4939
25.6231 40.9529
25.669 40.456
25.7147 40.5514
25.7605 40.244
25.8062 40.6227
25.8521 40.8117
25.8977 40.6829
25.9436 40.7209
25.9893 40.5261
26.0352 40.7342
26.0809 40.5393
26.1268 41.0737
26.1725 41.3631
26.2184 41.7004
26.2641 41.3396
26.31 40.6687
26.3557 40.621
26.4017 40.4785
26.4474 40.5365
26.4933 40.4723
26.5391 40.6339
26.585 40.8082
26.6308 41.0331
26.6767 41.2648
26.7225 41.9163
26.7684 42.3751
26.8142 41.8595
26.8601 41.1379
26.9059 40.397
26.9519 40.0763
26.9979 39.8654
27.0437 39.363
27.0896 38.9401
27.1354 38.8426
27.1814 38.7035
27.2272 38.6082
27.2732 38.6254
27.3191 38.337
27.3651 38.3517
27.4109 38.2266
27.4569 38.1545
27.5027 38.3273
27.5488 38.4235
27.5946 38.2569
27.6407 38.3272
27.6865 38.5172
27.7326 38.2512
27.7784 38.3208
27.8245 38.0796
27.8703 38.0097
27.9164 38.1676
27.9623 38.1392
28.0084 38.3122
28.0543 38.4704
28.1003 38.5897
28.1462 38.9405
28.1923 38.979
28.2384 38.6343
28.2843 38.049
28.3304 37.7071
28.3764 37.3269
28.4225 36.9353
28.4684 36.4929
28.5145 36.0511
28.5605 35.9155
28.6066 35.7071
28.6526 35.6765
28.6987 35.5932
28.7447 35.449
28.7908 35.3704
28.8368 35.2353
28.8829 35.1373
28.9289 35.1268
28.9751 35.0313
29.0211 35.0001
29.0673 34.8006
29.1133 34.8143
29.1595 34.4431
29.2055 34.2791
29.2517 34.1683
29.2977 34.0834
29.3439 33.849
29.3899 33.8579
29.4361 33.8328
29.4824 33.8861
29.5284 33.9025
29.5746 33.6066
29.6207 33.2536
29.6669 32.9879
29.713 32.8787
29.7593 32.7699
29.8053 32.7114
29.8516 32.6769
29.8977 32.6863
29.9439 32.4827
29.99 32.5827
30.0363 32.4239
30.0824 32.2671
30.1287 32.1493
30.1748 32.2567
30.2211 32.2195
30.2673 32.0893
30.3136 32.3011
30.3597 32.2555
30.406 32.2397
30.4522 32.237
30.4985 31.9337
30.5447 32.066
30.591 31.8772
30.6372 31.8642
30.6835 31.9628
30.7297 31.9395
30.7761 32.0141
30.8224 31.9999
30.8686 32.0284
30.915 31.8154
30.9612 31.673
31.0076 31.4882
31.0538 31.2661
31.1002 31.2124
31.1464 30.9053
31.1928 31.02
31.2391 30.9223
31.2855 30.8004
31.3317 30.7732
31.3781 30.8215
31.4244 30.7424
31.4708 30.6527
31.5171 30.6376
31.5636 30.8012
31.6098 30.6758
31.6563 30.5307
31.7026 30.5155
31.7491 30.2373
31.7953 30.1765
31.8418 30.0454
31.8881 30.0067
31.9346 29.9625
31.9809 29.9281
32.0275 29.8542
32.074 29.885
32.1203 29.7535
32.1668 29.7166
32.2132 29.4504
32.2597 29.3396
32.306 29.3075
32.3526 28.9462
32.399 28.9851
32.4455 28.7595
32.4919 28.5768
32.5385 28.5157
32.5848 28.4105
32.6314 28.4489
32.6778 28.416
32.7244 28.2432
32.7708 28.0808
32.8174 28.1389
32.8638 27.8718
32.9104 28.1281
32.9569 27.9716
33.0035 27.7746
33.0499 27.7737
33.0966 27.7081
33.143 27.7256
33.1897 27.5054
33.2361 27.578
33.2828 27.5571
33.3293 27.4186
33.3759 27.4443
33.4226 27.2377
33.4691 27.1977
33.5158 27.1222
33.5623 26.9084
33.609 26.6658
33.6555 26.6214
33.7022 26.5247
33.7487 26.4807
33.7954 26.4305
33.842 26.3108
33.8887 26.279
33.9353 26.2382
33.982 26.0598
34.0286 26.0977
34.0753 25.8922
34.1219 25.8486
34.1687 25.858
34.2152 25.7479
34.262 25.5275
34.3086 25.4599
34.3554 25.4901
34.402 25.4359
34.4488 25.2549
34.4954 25.1814
34.5422 25.076
34.5889 25.0023
34.6357 24.9059
34.6825 24.8177
34.7292 24.7342
34.776 24.6771
34.8227 24.604
34.8695 24.5475
34.9162 24.4204
34.9631 24.5369
35.0098 24.454
35.0566 24.3151
35.1033 24.1712
35.1502 24.2248
35.1969 24.2131
35.2438 23.9996
35.2906 24.0494
35.3375 23.9362
35.3842 23.8594
35.4311 23.8506
35.4779 23.9035
35.5248 23.8549
35.5716 23.8125
35.6185 23.7138
35.6653 23.6215
35.7123 23.5965
35.759 23.5034
35.806 23.3416
35.8528 23.2597
35.8998 23.2293
35.9468 23.0882
35.9936 23.0506
36.0406 22.8555
36.0874 22.8556
36.1345 22.7419
36.1813 22.7216
36.2283 22.7381
36.2752 22.5813
36.3222 22.578
36.3691 22.4839
36.4161 22.4766
36.463 22.3346
36.5101 22.3097
36.557 22.2398
36.6041 22.1652
36.651 22.0645
36.6981 22.078
36.745 22.004
36.7921 21.9298
36.839 21.8866
36.8861 21.7982
36.9331 21.7097
36.9802 21.6012
37.0272 21.5466
37.0743 21.4097
37.1213 21.3657
37.1684 21.3372
37.2154 21.3204
37.2626 21.1225
37.3098 21.1633
37.3568 21.1033
37.404 21.029
37.451 20.9397
37.4982 20.9051
37.5452 20.7932
37.5924 20.7186
37.6395 20.8041
37.6867 20.681
37.7337 20.5566
37.781 20.4517
37.8281 20.4901
37.8753 20.3404
37.9224 20.3326
37.9697 20.1912
38.0168 20.1215
38.064 20.0549
38.1111 20.0825
38.1584 19.91
38.2056 19.8854
38.2529 19.8603
38.3 19.7318
38.3473 19.7934
38.3945 19.635
38.4418 19.6079
38.489 19.5602
38.5363 19.4599
38.5837 19.3717
38.6309 19.3267
38.6782 19.2518
38.7254 19.1629
38.7728 19.1332
38.82 19.1261
38.8674 19.1237
38.9146 19.0266
38.9621 18.9426
39.0093 18.8351
39.0567 18.7924
39.104 18.7622
39.1514 18.6532
39.1987 18.6053
39.2461 18.609
39.2934 18.4878
39.3409 18.3857
39.3882 18.2755
39.4356 18.3001
39.483 18.2452
39.5304 18.2164
39.5778 18.176
39.6253 18.1266
39.6726 17.9894
39.7201 18.0118
39.7675 17.9425
39.815 17.8766
39.8624 17.7635
39.9099 17.7375
39.9575 17.6794
40.0049 17.673
40.0525 17.5944
40.0999 17.5327
40.1474 17.5115
40.1949 17.3823
40.2425 17.3641
40.2899 17.3673
40.3375 17.2455
40.385 17.1537
40.4326 17.1605
40.48 17.0552
40.5277 17.0758
40.5752 17.0262
40.6228 16.9202
40.6703 16.8529
40.718 16.8063
40.7655 16.8342
40.8132 16.7495
40.8607 16.6874
40.9084 16.6814
40.9559 16.5808
41.0036 16.6164
41.0512 16.4471
41.0989 16.4156
41.1465 16.326
41.1942 16.334
41.242 16.2018
41.2896 16.1558
41.3373 16.1281
41.3849 16.1036
41.4327 16.0456
41.4803 15.9614
41.5281 15.9845
41.5758 15.8358
41.6236 15.7919
41.6712 15.7453
41.7191 15.6838
41.7667 15.6283
41.8146 15.6314
41.8622 15.5717
41.9101 15.5452
41.9578 15.4341
42.0057 15.3645
42.0534 15.3836
42.1013 15.3462
42.149 15.227
42.1969 15.1443
42.2446 15.1255
42.2925 15.0929
42.3403 14.9583
42.3882 15.0132
42.436 14.9682
42.4839 14.8754
42.5319 14.8676
42.5797 14.7715
42.6277 14.7593
42.6755 14.6713
42.7235 14.6114
42.7713 14.5712
42.8193 14.5669
42.8671 14.4663
42.9152 14.4168
42.963 14.3536
43.0111 14.3006
43.0589 14.2981
43.107 14.2267
43.1549 14.1914
43.2029 14.1474
43.2508 14.0936
43.2989 14.0288
43.3468 13.9357
43.3949 13.9716
43.4429 13.8961
43.491 13.8426
43.5389 13.7922
43.5871 13.7609
43.635 13.6813
43.6832 13.6853
43.7312 13.5708
43.7793 13.5206
43.8273 13.5496
43.8755 13.4735
43.9237 13.4162
43.9717 13.3551
44.0199 13.281
44.068 13.3069
44.1162 13.2255
44.1642 13.183
44.2125 13.1706
44.2606 13.0651
44.3088 13.0232
44.3569 13.0109
44.4052 12.9883
44.4533 12.8691
44.5016 12.8131
44.5497 12.8256
44.598 12.7782
44.6461 12.7113
44.6945 12.663
44.7426 12.6165
44.791 12.5854
44.8391 12.6063
44.8875 12.4908
44.9357 12.4789
44.984 12.4355
45.0322 12.348
45.0806 12.2899
45.1288 12.305
45.1773 12.2107
45.2257 12.2353
45.2739 12.1417
45.3224 12.1376
45.3706 12.0846
45.4191 12.0047
45.4673 12.0055
45.5158 11.9611
45.5641 11.8977
45.6126 11.8841
45.6609 11.8438
45.7094 11.7946
45.7577 11.7228
45.8063 11.6177
45.8546 11.6647
45.9031 11.6316
45.9515 11.5501
46.0001 11.5397
46.0484 11.5385
46.097 11.4441
46.1454 11.4057
46.194 11.3899
46.2424 11.3459
46.291 11.23
46.3395 11.249
46.3881 11.1827
46.4365 11.2069
46.4852 11.1458
46.5337 11.0667
46.5823 11.0578
46.631 11.0373
46.6795 10.9686
46.7282 10.9287
46.7767 10.8941
46.8254 10.7925
46.8739 10.7816
46.9226 10.806
46.9712 10.6841
47.0199 10.6286
47.0685 10.6569
47.1173 10.5741
47.1658 10.5726
47.2146 10.5093
47.2632 10.4741
47.312 10.449
47.3606 10.3895
47.4095 10.3531
47.4581 10.2819
47.5069 10.2845
47.5556 10.2205
47.6044 10.2058
47.6531 10.1682
47.702 10.1367
47.7507 10.1268
47.7996 10.0478
47.8483 10.0469
47.8972 10.0022
47.9461 9.95498
47.9948 9.88201
48.0438 9.86404
48.0925 9.83282
48.1415 9.82798
48.1902 9.77037
48.2392 9.78354
48.288 9.70655
48.337 9.6591
48.3858 9.59689
48.4348 9.64248
48.4837 9.5858
48.5327 9.56775
48.5815 9.52453
48.6306 9.48129
48.6795 9.4402
48.7285 9.35328
48.7774 9.35821
48.8265 9.34747
48.8754 9.32002
48.9245 9.27186
48.9734 9.1861
49.0226 9.23355
49.0715 9.18084
49.1206 9.12773
49.1696 9.09178
49.2188 9.07694
49.2679 9.00117
49.3169 9.01778
49.3661 8.92513
49.4151 8.88824
49.4643 8.88442
49.5134 8.82875
49.5626 8.83082
49.6117 8.75794
49.6609 8.74147
49.71 8.6959
49.7592 8.69507
49.8083 8.64248
49.8576 8.62106
49.9067 8.55479
49.956 8.57119
50.0052 8.48829
50.0545 8.48282
50.1036 8.48036
50.153 8.45317
50.2022 8.36614
50.2515 8.34162
50.3007 8.30014
50.3501 8.30722
50.3993 8.21085
50.4487 8.22557
50.498 8.21777
50.5474 8.17567
50.5966 8.09913
50.6461 8.09095
50.6955 8.07099
50.7448 8.04896
50.7943 7.99177
50.8436 8.02559
50.8931 7.95249
50.9424 7.92019
50.9919 7.88281
51.0413 7.85717
51.0908 7.83241
51.1402 7.81766
51.1897 7.75303
51.2391 7.74073
51.2887 7.67275
51.3381 7.69329
51.3877 7.65831
51.4371 7.62523
51.4867 7.53976
51.5362 7.54645
51.5858 7.48747
51.6353 7.47009
51.6849 7.44492
51.7344 7.41706
51.7841 7.38175
51.8336 7.38313
51.8833 7.31899
51.9328 7.28154
51.9826 7.26404
52.0323 7.23811
52.0818 7.18829
52.1316 7.17286
52.1812 7.17662
52.231 7.14745
52.2806 7.10972
52.3304 7.08413
52.38 7.01643
52.4298 6.95901
52.4794 6.94604
52.5293 6.91587
52.5789 6.9292
52.6288 6.91099
52.6785 6.83733
52.7284 6.82832
52.7781 6.7851
52.828 6.77328
52.8777 6.72903
52.9276 6.64491
52.9774 6.67172
53.0273 6.64177
53.0771 6.61743
53.1271 6.62251
53.1769 6.57375
53.2269 6.56654
53.2767 6.46623
53.3267 6.48428
53.3765 6.46146
53.4266 6.44985
53.4766 6.38909
53.5265 6.3632
53.5765 6.30925
53.6264 6.3162
53.6765 6.28176
53.7264 6.29062
53.7765 6.24064
53.8265 6.22064
53.8766 6.18572
53.9266 6.14459
53.9767 6.12152
54.0267 6.10059
54.0769 6.03575
54.1269 6.04328
54.1771 5.94637
54.2271 5.97017
54.2773 5.91711
54.3274 5.89992
54.3776 5.82131
54.4277 5.85294
54.478 5.76655
54.528 5.69932
54.5783 5.68007
54.6285 5.64397
54.6788 5.61841
54.7289 5.55602
54.7792 5.49832
54.8296 5.44387
54.8798 5.3983
54.9301 5.37532
54.9803 5.35768
55.0307 5.35546
55.0809 5.27868
55.1314 5.23733
55.1816 5.17751
55.232 5.10981
55.2823 5.06478
55.3328 5.02097
55.383 4.9663
55.4335 4.94557
55.4838 4.86629
55.5344 4.87104
55.5847 4.78849
55.6352 4.75083
55.6856 4.73068
55.7361 4.79404