File: XRD/Ni3Fe_FD0633.xy
TT I
1.27165 6.68573
1.31627 7.18224
1.36089 6.47579
1.40551 5.69927
1.45013 6.38667
1.49476 5.73399
1.53938 6.57004
1.584 5.70619
1.62863 5.44004
1.67325 5.11596
1.71787 5.72166
1.7625 5.01731
1.80712 5.05261
1.85174 4.86745
1.89636 4.23293
1.94099 5.21513
1.98562 5.42794
2.03025 4.93972
2.07487 4.39285
2.11949 5.05971
2.16411 5.07396
2.20874 14.9436
2.25338 25.8843
2.298 5.70043
2.34263 5.87791
2.38725 5.39007
2.43188 6.29581
2.4765 6.13183
2.52115 7.03397
2.56577 7.50798
2.6104 7.83767
2.65503 7.92557
2.69965 8.12096
2.7443 7.89848
2.78893 7.98796
2.83356 8.03065
2.87818 8.26503
2.92281 9.21492
2.96744 9.86859
3.01209 10.1207
3.05672 10.7454
3.10135 12.1017
3.14599 13.0603
3.19062 13.7005
3.23527 14.9408
3.2799 15.8645
3.32454 16.7037
3.36917 17.8369
3.4138 18.9005
3.45844 19.7455
3.50309 20.7953
3.54773 22.1109
3.59237 24.4794
3.637 102.691
3.68164 64.6028
3.7263 26.7638
3.77094 26.4151
3.81558 26.9333
3.86022 28.011
3.90486 29.1148
3.9495 30.3373
3.99416 31.2237
4.0388 32.6023
4.08344 33.6924
4.12809 35.0123
4.17273 37.2637
4.21738 44.1491
4.26204 277.756
4.30669 243.454
4.35133 49.788
4.39598 44.7921
4.44063 55.8185
4.4853 68.5502
4.52995 50.6037
4.5746 51.1814
4.61925 53.2858
4.6639 55.6833
4.70855 58.2717
4.75322 61.3666
4.79788 63.6998
4.84253 67.3438
4.88719 71.0205
4.93184 74.728
4.97652 80.2415
5.02118 86.9156
5.06583 93.8773
5.11049 105.498
5.15515 179.688
5.19981 340.573
5.24449 2720.05
5.28916 12443.2
5.33382 3014.22
5.37848 195.088
5.42315 130.532
5.46783 114.224
5.5125 106.344
5.55716 102.084
5.60183 98.6408
5.6465 96.9625
5.69117 94.321
5.73586 92.4548
5.78053 91.4738
5.8252 90.7321
5.86988 91.5777
5.91455 93.7737
5.95924 101.041
6.00392 197.41
6.0486 943.378
6.09328 4391.26
6.13795 3527.68
6.18263 261.611
6.22733 94.5777
6.27201 84.0792
6.3167 106.412
6.36138 82.8673
6.40606 69.2801
6.45075 67.6396
6.49545 65.7885
6.54014 64.0529
6.58483 63.2893
6.62952 63.2943
6.67421 99.1228
6.71892 157.427
6.76361 70.882
6.8083 58.8239
6.853 57.6542
6.89769 57.1735
6.94239 56.8337
6.98711 56.2292
7.03181 55.8877
7.07651 55.8111
7.12121 55.4074
7.16591 55.6384
7.21063 56.3211
7.25533 72.9887
7.30004 199.319
7.34475 97.9754
7.38945 57.33
7.43416 54.9288
7.47889 54.6863
7.5236 55.1137
7.56831 55.7622
7.61303 57.9138
7.65774 57.8489
7.70247 56.3042
7.74719 56.3989
7.79191 56.824
7.83663 57.1928
7.88135 58.3087
7.92607 58.9946
7.97081 60.3354
8.01553 61.3537
8.06026 62.6515
8.10498 64.0587
8.14971 74.2995
8.19446 73.2232
8.23919 69.3534
8.28392 72.1015
8.32865 74.1128
8.37339 78.305
8.41812 85.7135
8.46288 116.938
8.50761 157.816
8.55235 369.435
8.59709 1131.75
8.64183 2193.76
8.68658 1029.75
8.73134 174.346
8.77609 100.391
8.82083 93.0793
8.86558 89.858
8.91033 90.289
8.9551 92.7744
8.99985 85.7222
9.04461 83.4084
9.08936 82.895
9.13412 82.0466
9.17888 82.216
9.22365 83.6685
9.26841 82.1442
9.31318 82.3112
9.35794 82.6117
9.4027 83.5635
9.44749 84.2023
9.49226 84.5619
9.53703 85.5725
9.5818 87.2425
9.62657 92.6333
9.67134 99.9487
9.71614 94.2963
9.76091 94.2173
9.80569 96.2169
9.85047 99.8881
9.89525 126.604
9.94005 139.485
9.98484 169.86
10.0296 328.851
10.0744 783.396
10.1192 1707.67
10.164 1647.28
10.2088 430.883
10.2536 130.229
10.2984 115.164
10.3432 117.017
10.388 105.063
10.4328 116.261
10.4776 155.709
10.5224 271.052
10.5672 501.427
10.612 516.26
10.6568 214.227
10.7017 98.7725
10.7465 87.3078
10.7913 83.189
10.8361 81.4961
10.8809 79.204
10.9257 78.6922
10.9706 79.5956
11.0154 75.3067
11.0602 73.3016
11.105 72.3678
11.1499 77.374
11.1947 86.1402
11.2395 75.4173
11.2844 71.1346
11.3292 67.419
11.374 66.2954
11.4189 65.973
11.4637 65.3321
11.5086 65.9351
11.5534 69.3447
11.5983 65.9754
11.6431 64.3507
11.688 63.4211
11.7328 63.2302
11.7777 63.0837
11.8225 62.6186
11.8674 62.6594
11.9122 62.8969
11.9571 62.8456
12.002 63.6185
12.0468 67.3566
12.0917 78.4546
12.1366 101.458
12.1814 148.816
12.2263 202.967
12.2712 171.292
12.3161 101.381
12.3609 72.0679
12.4058 65.2113
12.4507 64.5699
12.4956 64.5228
12.5405 64.8473
12.5853 65.9069
12.6302 74.7239
12.6751 80.9142
12.72 70.7997
12.7649 67.9584
12.8098 68.5007
12.8547 69.66
12.8996 71.1687
12.9445 72.3516
12.9894 74.0196
13.0343 75.7605
13.0792 78.8007
13.1242 86.8204
13.1691 109.655
13.214 145.841
13.2589 232.422
13.3038 361.564
13.3487 429.138
13.3937 274.406
13.4386 127.68
13.4835 105.114
13.5285 118.812
13.5734 155.674
13.6183 242.133
13.6633 345.455
13.7082 344.016
13.7531 196.257
13.7981 100.568
13.843 82.3563
13.888 79.8983
13.9329 77.2224
13.9779 76.0649
14.0228 74.4289
14.0678 73.1442
14.1127 72.7464
14.1577 72.7402
14.2027 71.8065
14.2476 70.4706
14.2926 71.1201
14.3376 72.1041
14.3825 70.7853
14.4275 68.7649
14.4725 68.7721
14.5175 68.837
14.5624 69.2113
14.6074 71.6401
14.6524 72.2327
14.6974 70.5327
14.7424 71.6671
14.7874 77.9126
14.8324 87.8308
14.8774 108.764
14.9224 150.801
14.9674 203.387
15.0124 218.321
15.0574 152.591
15.1024 93.1636
15.1474 72.8534
15.1924 71.1277
15.2374 71.6593
15.2824 70.9544
15.3274 68.5762
15.3725 67.0912
15.4175 66.5416
15.4625 66.2621
15.5076 66.4608
15.5526 66.6628
15.5976 65.9988
15.6426 66.7063
15.6877 71.4041
15.7327 78.8472
15.7778 93.8304
15.8228 123.787
15.8679 165.422
15.9129 193.523
15.958 158.896
16.003 100.492
16.0481 69.3564
16.0931 65.2572
16.1382 63.2507
16.1833 61.3781
16.2283 59.3357
16.2734 58.6501
16.3185 59.2695
16.3636 59.9976
16.4086 58.3402
16.4537 56.6986
16.4988 55.5795
16.5439 55.7012
16.589 55.5135
16.6341 55.0318
16.6792 54.7011
16.7243 55.23
16.7694 55.2388
16.8145 55.132
16.8596 55.5005
16.9047 57.3747
16.9498 57.4664
16.9949 56.0167
17.04 56.0096
17.0851 57.0814
17.1302 58.643
17.1754 61.7717
17.2205 66.4258
17.2656 73.8251
17.3108 82.3813
17.3559 82.857
17.401 72.2634
17.4462 62.6706
17.4913 59.3906
17.5365 59.3669
17.5815 59.3868
17.6268 59.8826
17.6718 60.588
17.7171 61.2477
17.7622 61.3811
17.8074 62.0732
17.8525 63.836
17.8977 67.9111
17.9428 73.1843
17.9881 81.7613
18.0331 98.5589
18.0784 120.274
18.1237 139.322
18.1688 132.515
18.214 105.406
18.2591 86.9125
18.3044 90.1487
18.3495 99.7469
18.3948 105.545
18.4399 97.7583
18.4852 79.5013
18.5303 66.8749
18.5756 62.5903
18.6207 61.4415
18.666 60.5757
18.7112 59.8758
18.7565 59.3626
18.8016 58.7606
18.8469 58.2675
18.892 57.9254
18.9374 57.4194
18.9825 57.321
19.0278 57.0654
19.073 57.1006
19.1183 57.4504
19.1635 58.5565
19.2088 59.9197
19.254 62.0943
19.2993 66.6232
19.3447 72.7782
19.3898 76.6903
19.4352 72.8174
19.4804 64.063
19.5257 57.4664
19.5709 54.621
19.6163 54.0167
19.6615 53.8374
19.7068 53.7278
19.752 53.5319
19.7974 53.659
19.8426 54.7566
19.888 55.0339
19.9332 56.1093
19.9786 58.761
20.0238 62.0803
20.0692 66.9374
20.1144 69.7224
20.1598 68.5101
20.205 63.7608
20.2504 62.2723
20.2957 63.9263
20.3411 65.6411
20.3863 64.5832
20.4318 59.1663
20.477 54.1841
20.5224 52.0823
20.5677 51.2943
20.6131 50.504
20.6586 49.8403
20.7038 49.8728
20.7493 49.2091
20.7945 49.1451
20.84 49.0839
20.8853 48.881
20.9307 48.6557
20.976 48.7573
21.0215 48.7912
21.0668 49.0743
21.1122 49.5698
21.1575 50.2718
21.203 50.7985
21.2483 51.5092
21.2938 51.5586
21.3391 50.2014
21.3846 49.0921
21.4299 48.5787
21.4754 48.6074
21.5207 48.6878
21.5662 48.7794
21.6116 49.1636
21.6571 49.7988
21.7024 50.9835
21.7479 52.4626
21.7933 55.1689
21.8388 58.5733
21.8843 62.4193
21.9297 64.5565
21.9752 63.6412
22.0206 60.1055
22.0661 56.8402
22.1115 56.366
22.157 56.3839
22.2024 54.534
22.248 51.8466
22.2933 50.0722
22.3389 49.1814
22.3843 49.1886
22.4299 49.271
22.4753 49.0752
22.5208 48.7102
22.5662 48.6355
22.6118 48.7764
22.6572 49.0464
22.7028 49.3777
22.7483 49.827
22.7939 50.3267
22.8393 51.7722
22.8849 53.9186
22.9303 56.0727
22.9759 58.0275
23.0214 57.6758
23.067 54.9943
23.1126 51.518
23.1581 49.5424
23.2037 49.0506
23.2492 48.9875
23.2948 48.9661
23.3403 49.1754
23.3859 49.9123
23.4314 50.9079
23.477 52.701
23.5225 54.7328
23.5682 56.8129
23.6137 58.1685
23.6593 56.0663
23.7048 52.0856
23.7505 48.6668
23.796 46.7922
23.8417 46.2053
23.8872 45.818
23.9329 45.2906
23.9784 45.019
24.0241 44.6696
24.0697 44.7483
24.1154 44.1975
24.1609 44.3212
24.2066 44.1201
24.2522 43.9162
24.2979 43.5957
24.3434 43.4814
24.3892 43.3562
24.4349 43.272
24.4805 42.9729
24.5262 43.2026
24.5718 43.0304
24.6175 43.1222
24.6631 43.0258
24.7089 42.6369
24.7545 42.6737
24.8002 42.41
24.8458 42.2745
24.8916 42.1385
24.9372 42.3045
24.983 42.559
25.0286 43.1002
25.0744 43.3305
25.12 43.7687
25.1658 44.4272
25.2114 44.7651
25.2572 44.8863
25.3029 44.8663
25.3487 45.0359
25.3943 44.7432
25.4402 43.7987
25.4858 42.7029
25.5316 41.7722
25.5773 41.1269
25.6231 41.047
25.669 40.725
25.7147 40.6641
25.7605 40.6219
25.8062 40.6568
25.8521 40.8597
25.8977 40.7159
25.9436 41.0487
25.9893 41.1529
26.0352 41.6146
26.0809 41.6714
26.1268 41.9356
26.1725 41.5493
26.2184 40.9778
26.2641 40.4867
26.31 40.2051
26.3557 40.308
26.4017 40.2415
26.4474 40.5937
26.4933 40.872
26.5391 41.37
26.585 41.8572
26.6308 42.2066
26.6767 42.3835
26.7225 42.2222
26.7684 41.6643
26.8142 40.9339
26.8601 40.6796
26.9059 40.1541
26.9519 39.5568
26.9979 39.4326
27.0437 39.0267
27.0896 38.8481
27.1354 38.835
27.1814 38.762
27.2272 38.8028
27.2732 38.6215
27.3191 38.499
27.3651 38.5493
27.4109 38.5807
27.4569 38.5905
27.5027 38.6668
27.5488 38.6939
27.5946 38.4964
27.6407 38.4652
27.6865 38.2694
27.7326 37.9745
27.7784 37.9653
27.8245 37.9143
27.8703 38.1006
27.9164 38.3797
27.9623 38.6328
28.0084 38.9702
28.0543 39.2191
28.1003 39.0328
28.1462 38.9075
28.1923 38.6828
28.2384 38.1529
28.2843 37.8585
28.3304 37.4324
28.3764 36.9051
28.4225 36.517
28.4684 36.4267
28.5145 36.0887
28.5605 36.0919
28.6066 35.7747
28.6526 35.7259
28.6987 35.7926
28.7447 35.6821
28.7908 35.5251
28.8368 35.6447
28.8829 35.5027
28.9289 35.4927
28.9751 35.3372
29.0211 35.0845
29.0673 34.8877
29.1133 34.7559
29.1595 34.6623
29.2055 34.5157
29.2517 34.5064
29.2977 34.4696
29.3439 34.4251
29.3899 34.4166
29.4361 34.3137
29.4824 34.1678
29.5284 33.8993
29.5746 33.6016
29.6207 33.2708
29.6669 33.3009
29.713 33.1114
29.7593 32.9975
29.8053 33.0586
29.8516 32.9752
29.8977 32.9424
29.9439 32.7658
29.99 32.8046
30.0363 32.5868
30.0824 32.6194
30.1287 32.5451
30.1748 32.5643
30.2211 32.5521
30.2673 32.3537
30.3136 32.4604
30.3597 32.3479
30.406 32.3246
30.4522 32.2691
30.4985 32.1187
30.5447 32.1921
30.591 32.2206
30.6372 32.3175
30.6835 32.3176
30.7297 32.3369
30.7761 32.2873
30.8224 32.14
30.8686 31.965
30.915 31.7194
30.9612 31.6106
31.0076 31.3537
31.0538 31.3701
31.1002 31.3431
31.1464 31.0726
31.1928 31.1787
31.2391 31.1825
31.2855 31.1087
31.3317 30.95
31.3781 31.1011
31.4244 31.0479
31.4708 30.8899
31.5171 30.8438
31.5636 30.8971
31.6098 30.6562
31.6563 30.4681
31.7026 30.3548
31.7491 30.2511
31.7953 30.3515
31.8418 30.1787
31.8881 30.2508
31.9346 30.1798
31.9809 30.1716
32.0275 30.0277
32.074 29.9447
32.1203 29.7539
32.1668 29.6205
32.2132 29.5268
32.2597 29.4422
32.306 29.3391
32.3526 29.1464
32.399 29.0813
32.4455 28.862
32.4919 28.8101
32.5385 28.7938
32.5848 28.6669
32.6314 28.6575
32.6778 28.5505
32.7244 28.3634
32.7708 28.2975
32.8174 28.2317
32.8638 28.1312
32.9104 28.2593
32.9569 28.0877
33.0035 27.88
33.0499 28.0799
33.0966 27.7983
33.143 27.8473
33.1897 27.8205
33.2361 27.7368
33.2828 27.6698
33.3293 27.5364
33.3759 27.4832
33.4226 27.3857
33.4691 27.1953
33.5158 27.1431
33.5623 27.0442
33.609 26.8338
33.6555 26.8419
33.7022 26.6126
33.7487 26.5692
33.7954 26.7108
33.842 26.4387
33.8887 26.3958
33.9353 26.2635
33.982 26.3204
34.0286 26.133
34.0753 26.124
34.1219 26.0166
34.1687 25.9315
34.2152 25.8692
34.262 25.7998
34.3086 25.6742
34.3554 25.7113
34.402 25.5252
34.4488 25.4365
34.4954 25.4005
34.5422 25.3006
34.5889 25.1835
34.6357 25.0163
34.6825 25.0034
34.7292 24.9759
34.776 24.8745
34.8227 24.8158
34.8695 24.7574
34.9162 24.6755
34.9631 24.6133
35.0098 24.6754
35.0566 24.4134
35.1033 24.4146
35.1502 24.4098
35.1969 24.3103
35.2438 24.2445
35.2906 24.2415
35.3375 24.1165
35.3842 24.0946
35.4311 24.0401
35.4779 24.0985
35.5248 24.0922
35.5716 23.9401
35.6185 23.7888
35.6653 23.6901
35.7123 23.6486
35.759 23.6089
35.806 23.5144
35.8528 23.2978
35.8998 23.2554
35.9468 23.2662
35.9936 23.2049
36.0406 23.1137
36.0874 23.078
36.1345 22.9516
36.1813 22.8776
36.2283 22.8073
36.2752 22.7821
36.3222 22.7498
36.3691 22.7487
36.4161 22.4992
36.463 22.5724
36.5101 22.5831
36.557 22.4852
36.6041 22.2955
36.651 22.3904
36.6981 22.2072
36.745 22.1987
36.7921 22.0442
36.839 22.0031
36.8861 21.9579
36.9331 21.8806
36.9802 21.8001
37.0272 21.7187
37.0743 21.5802
37.1213 21.5428
37.1684 21.5422
37.2154 21.4156
37.2626 21.3628
37.3098 21.308
37.3568 21.2143
37.404 21.2287
37.451 21.0727
37.4982 21.0708
37.5452 21.0629
37.5924 20.8829
37.6395 20.9704
37.6867 20.7177
37.7337 20.679
37.781 20.5894
37.8281 20.5229
37.8753 20.488
37.9224 20.4342
37.9697 20.4351
38.0168 20.2603
38.064 20.1797
38.1111 20.2274
38.1584 20.1252
38.2056 20.0581
38.2529 20.0417
38.3 19.9028
38.3473 19.8965
38.3945 19.7855
38.4418 19.782
38.489 19.6929
38.5363 19.5019
38.5837 19.5009
38.6309 19.5126
38.6782 19.4434
38.7254 19.4492
38.7728 19.3124
38.82 19.2468
38.8674 19.1999
38.9146 19.1364
38.9621 19.086
39.0093 19.0551
39.0567 18.9275
39.104 18.8647
39.1514 18.7684
39.1987 18.7776
39.2461 18.7173
39.2934 18.6685
39.3409 18.574
39.3882 18.4617
39.4356 18.43
39.483 18.3468
39.5304 18.3579
39.5778 18.3105
39.6253 18.282
39.6726 18.2122
39.7201 18.1811
39.7675 18.1228
39.815 18.0688
39.8624 17.9556
39.9099 17.8919
39.9575 17.8159
40.0049 17.7951
40.0525 17.7168
40.0999 17.676
40.1474 17.6527
40.1949 17.5504
40.2425 17.474
40.2899 17.4232
40.3375 17.3865
40.385 17.3437
40.4326 17.2265
40.48 17.136
40.5277 17.1933
40.5752 17.0625
40.6228 17.0364
40.6703 17.0447
40.718 16.9353
40.7655 16.9186
40.8132 16.887
40.8607 16.8358
40.9084 16.7324
40.9559 16.647
41.0036 16.6304
41.0512 16.5858
41.0989 16.5304
41.1465 16.4579
41.1942 16.4043
41.242 16.3324
41.2896 16.2975
41.3373 16.3093
41.3849 16.2195
41.4327 16.1196
41.4803 16.0037
41.5281 16.0304
41.5758 15.9668
41.6236 15.8984
41.6712 15.827
41.7191 15.8755
41.7667 15.721
41.8146 15.7022
41.8622 15.6245
41.9101 15.6027
41.9578 15.5182
42.0057 15.5147
42.0534 15.4768
42.1013 15.424
42.149 15.3059
42.1969 15.281
42.2446 15.2591
42.2925 15.2245
42.3403 15.1593
42.3882 15.091
42.436 15.1186
42.4839 14.9533
42.5319 14.9425
42.5797 14.9046
42.6277 14.8382
42.6755 14.7952
42.7235 14.713
42.7713 14.7563
42.8193 14.6498
42.8671 14.5863
42.9152 14.5354
42.963 14.4842
43.0111 14.4264
43.0589 14.3712
43.107 14.3659
43.1549 14.3108
43.2029 14.2121
43.2508 14.2059
43.2989 14.1877
43.3468 14.0965
43.3949 14.0476
43.4429 14.0049
43.491 13.9248
43.5389 13.9232
43.5871 13.8715
43.635 13.8248
43.6832 13.7562
43.7312 13.7457
43.7793 13.6936
43.8273 13.6173
43.8755 13.5697
43.9237 13.5069
43.9717 13.4465
44.0199 13.4704
44.068 13.3995
44.1162 13.356
44.1642 13.2975
44.2125 13.2624
44.2606 13.219
44.3088 13.1052
44.3569 13.1016
44.4052 13.114
44.4533 13.0264
44.5016 12.9681
44.5497 12.982
44.598 12.8795
44.6461 12.8191
44.6945 12.7495
44.7426 12.7629
44.791 12.6893
44.8391 12.6559
44.8875 12.6162
44.9357 12.5949
44.984 12.5327
45.0322 12.502
45.0806 12.4632
45.1288 12.3619
45.1773 12.3347
45.2257 12.3213
45.2739 12.244
45.3224 12.1594
45.3706 12.1986
45.4191 12.1129
45.4673 12.1113
45.5158 12.0351
45.5641 11.973
45.6126 11.9407
45.6609 11.9292
45.7094 11.8625
45.7577 11.8465
45.8063 11.7777
45.8546 11.7492
45.9031 11.6959
45.9515 11.649
46.0001 11.5922
46.0484 11.5759
46.097 11.5831
46.1454 11.5127
46.194 11.4701
46.2424 11.4302
46.291 11.3578
46.3395 11.3513
46.3881 11.2905
46.4365 11.2408
46.4852 11.2183
46.5337 11.1798
46.5823 11.1912
46.631 11.0909
46.6795 11.0705
46.7282 10.9911
46.7767 10.9792
46.8254 10.9339
46.8739 10.9021
46.9226 10.8356
46.9712 10.7759
47.0199 10.7623
47.0685 10.7367
47.1173 10.6672
47.1658 10.6269
47.2146 10.6367
47.2632 10.5419
47.312 10.4948
47.3606 10.4844
47.4095 10.4608
47.4581 10.4365
47.5069 10.4109
47.5556 10.3211
47.6044 10.3001
47.6531 10.2135
47.702 10.1886
47.7507 10.1758
47.7996 10.1076
47.8483 10.1171
47.8972 10.106
47.9461 10.0338
47.9948 9.99964
48.0438 9.99424
48.0925 9.94469
48.1415 9.90563
48.1902 9.84557
48.2392 9.8248
48.288 9.80708
48.337 9.76794
48.3858 9.68237
48.4348 9.65102
48.4837 9.6523
48.5327 9.64984
48.5815 9.60428
48.6306 9.57236
48.6795 9.52582
48.7285 9.44421
48.7774 9.41657
48.8265 9.43961
48.8754 9.35108
48.9245 9.32066
48.9734 9.28836
49.0226 9.30312
49.0715 9.19654
49.1206 9.20588
49.1696 9.11895
49.2188 9.10146
49.2679 9.0988
49.3169 9.05636
49.3661 8.99793
49.4151 8.95436
49.4643 8.9522
49.5134 8.85449
49.5626 8.91508
49.6117 8.84025
49.6609 8.83724
49.71 8.76636
49.7592 8.72344
49.8083 8.68962
49.8576 8.69546
49.9067 8.60851
49.956 8.64285
50.0052 8.57971
50.0545 8.52497
50.1036 8.50055
50.153 8.48359
50.2022 8.42453
50.2515 8.43324
50.3007 8.35743
50.3501 8.32201
50.3993 8.32475
50.4487 8.28399
50.498 8.2251
50.5474 8.18843
50.5966 8.18564
50.6461 8.20617
50.6955 8.16424
50.7448 8.12075
50.7943 8.07871
50.8436 7.9952
50.8931 8.00923
50.9424 7.98583
50.9919 7.93315
51.0413 7.9379
51.0908 7.86525
51.1402 7.85112
51.1897 7.80186
51.2391 7.78507
51.2887 7.76679
51.3381 7.70326
51.3877 7.67691
51.4371 7.62918
51.4867 7.64624
51.5362 7.56942
51.5858 7.56506
51.6353 7.50333
51.6849 7.50766
51.7344 7.49624
51.7841 7.43853
51.8336 7.43499
51.8833 7.36201
51.9328 7.34785
51.9826 7.31015
52.0323 7.27457
52.0818 7.23926
52.1316 7.20752
52.1812 7.22619
52.231 7.15439
52.2806 7.11935
52.3304 7.07908
52.38 7.05199
52.4298 7.03037
52.4794 6.99759
52.5293 6.97865
52.5789 6.93901
52.6288 6.89831
52.6785 6.90743
52.7284 6.88046
52.7781 6.87381
52.828 6.83162
52.8777 6.78438
52.9276 6.75972
52.9774 6.76373
53.0273 6.72513
53.0771 6.65404
53.1271 6.66007
53.1769 6.603
53.2269 6.59719
53.2767 6.57804
53.3267 6.52866
53.3765 6.53462
53.4266 6.4591
53.4766 6.43277
53.5265 6.37673
53.5765 6.38692
53.6264 6.36427
53.6765 6.3443
53.7264 6.30401
53.7765 6.30875
53.8265 6.2157
53.8766 6.23337
53.9266 6.19591
53.9767 6.16175
54.0267 6.17273
54.0769 6.11171
54.1269 6.08595
54.1771 6.04424
54.2271 6.00232
54.2773 6.0265
54.3274 5.98635
54.3776 5.94239
54.4277 5.89211
54.478 5.87104
54.528 5.86352
54.5783 5.79705
54.6285 5.71451
54.6788 5.69451
54.7289 5.67919
54.7792 5.63825
54.8296 5.57042
54.8798 5.53545
54.9301 5.54914
54.9803 5.47611
55.0307 5.44442
55.0809 5.36226
55.1314 5.39376
55.1816 5.29625
55.232 5.25745
55.2823 5.22745
55.3328 5.18844
55.383 5.13749
55.4335 5.09257
55.4838 5.04671
55.5344 5.06789
55.5847 4.97053
55.6352 4.94949
55.6856 4.86745
55.7361 4.85574