File: XRD/Ni3Fe_FD0189.xy
TT I
1.27165 7.80468
1.31627 7.16327
1.36089 7.22169
1.40551 6.71901
1.45013 6.17462
1.49476 5.87153
1.53938 6.17591
1.584 5.84477
1.62863 5.74194
1.67325 4.7356
1.71787 5.59152
1.7625 5.329
1.80712 5.3715
1.85174 5.16757
1.89636 4.91741
1.94099 4.92949
1.98562 5.29198
2.03025 4.57261
2.07487 4.40188
2.11949 5.26346
2.16411 4.86854
2.20874 4.59927
2.25338 4.00475
2.298 4.88173
2.34263 4.7145
2.38725 4.2352
2.43188 3.81284
2.4765 4.63803
2.52115 4.15178
2.56577 5.13743
2.6104 5.51496
2.65503 5.18897
2.69965 5.95868
2.7443 6.59917
2.78893 6.5537
2.83356 7.3546
2.87818 8.16331
2.92281 8.70807
2.96744 9.21862
3.01209 10.7698
3.05672 11.3527
3.10135 12.2658
3.14599 13.4625
3.19062 14.2345
3.23527 15.0117
3.2799 16.0959
3.32454 17.3329
3.36917 17.905
3.4138 18.7754
3.45844 19.8931
3.50309 21.0463
3.54773 21.2856
3.59237 22.4016
3.637 22.5025
3.68164 23.0541
3.7263 25.0623
3.77094 25.4248
3.81558 26.5669
3.86022 27.0339
3.90486 28.4376
3.9495 29.0508
3.99416 29.9323
4.0388 31.2486
4.08344 32.8952
4.12809 33.3313
4.17273 35.3948
4.21738 36.5101
4.26204 37.2153
4.30669 39.0034
4.35133 40.8433
4.39598 42.0566
4.44063 44.0877
4.4853 46.3451
4.52995 48.493
4.5746 50.8328
4.61925 52.6051
4.6639 55.4485
4.70855 58.1587
4.75322 61.6772
4.79788 64.1533
4.84253 68.3557
4.88719 72.4413
4.93184 77.3672
4.97652 84.5648
5.02118 92.898
5.06583 103.196
5.11049 118.897
5.15515 155.697
5.19981 558.757
5.24449 3879.75
5.28916 8971.22
5.33382 5804.3
5.37848 380.654
5.42315 159.776
5.46783 127.55
5.5125 115.242
5.55716 109.535
5.60183 103.749
5.6465 101.231
5.69117 99.5357
5.73586 97.3369
5.78053 96.8842
5.8252 97.4365
5.86988 100.124
5.91455 106.839
5.95924 125.133
6.00392 296.499
6.0486 1411.4
6.09328 2997.6
6.13795 3912.46
6.18263 586.934
6.22733 116.924
6.27201 89.1711
6.3167 79.0783
6.36138 74.1915
6.40606 70.1698
6.45075 68.2793
6.49545 65.7346
6.54014 63.7992
6.58483 62.1365
6.62952 61.3564
6.67421 59.6444
6.71892 58.7703
6.76361 57.9206
6.8083 57.2987
6.853 56.267
6.89769 55.985
6.94239 55.7867
6.98711 55.0512
7.03181 54.3556
7.07651 54.3091
7.12121 53.8491
7.16591 53.6674
7.21063 52.8711
7.25533 53.3622
7.30004 53.1218
7.34475 53.34
7.38945 53.4525
7.43416 53.1388
7.47889 53.0338
7.5236 57.1605
7.56831 62.1782
7.61303 55.7931
7.65774 54.9686
7.70247 55.4561
7.74719 55.5112
7.79191 56.3991
7.83663 56.6284
7.88135 57.8118
7.92607 58.5003
7.97081 59.6556
8.01553 60.597
8.06026 62.3629
8.10498 63.5329
8.14971 65.5189
8.19446 67.1251
8.23919 69.8654
8.28392 72.817
8.32865 75.3223
8.37339 80.4419
8.41812 86.0201
8.46288 97.5715
8.50761 183.347
8.55235 608.201
8.59709 944.82
8.64183 1638.07
8.68658 1515.48
8.73134 359.456
8.77609 113.936
8.82083 98.2392
8.86558 92.9623
8.91033 89.651
8.9551 87.4599
8.99985 85.7359
9.04461 85.0096
9.08936 84.1326
9.13412 83.6347
9.17888 83.2565
9.22365 88.6356
9.26841 94.9471
9.31318 86.9379
9.35794 84.1174
9.4027 84.2199
9.44749 85.1819
9.49226 85.599
9.53703 86.337
9.5818 88.4841
9.62657 89.233
9.67134 90.9745
9.71614 93.4562
9.76091 95.0452
9.80569 97.8582
9.85047 101.408
9.89525 106.666
9.94005 116.874
9.98484 197.139
10.0296 548.339
10.0744 768.073
10.1192 1146.77
10.164 1699.94
10.2088 851.656
10.2536 190.711
10.2984 116.798
10.3432 109.11
10.388 107.271
10.4328 126.573
10.4776 217.934
10.5224 270.764
10.5672 359.484
10.612 511.02
10.6568 343.65
10.7017 125.24
10.7465 91.2456
10.7913 85.4686
10.8361 82.3022
10.8809 79.8843
10.9257 77.6886
10.9706 76.3151
11.0154 74.4598
11.0602 73.378
11.105 71.9253
11.1499 70.4517
11.1947 69.4799
11.2395 68.2261
11.2844 67.951
11.3292 67.2421
11.374 66.1591
11.4189 65.8133
11.4637 64.8965
11.5086 64.1833
11.5534 63.8508
11.5983 63.8632
11.6431 63.6923
11.688 62.848
11.7328 63.1392
11.7777 62.9585
11.8225 62.5012
11.8674 62.9555
11.9122 64.079
11.9571 66.686
12.002 66.0657
12.0468 69.7479
12.0917 92.7375
12.1366 109.636
12.1814 124.553
12.2263 162.063
12.2712 195.655
12.3161 127.423
12.3609 73.1597
12.4058 65.1276
12.4507 64.4878
12.4956 64.626
12.5405 64.6751
12.5853 65.2517
12.6302 65.3921
12.6751 66.221
12.72 67.0282
12.7649 67.9576
12.8098 68.628
12.8547 69.9367
12.8996 71.2173
12.9445 73.0438
12.9894 75.1664
13.0343 76.9859
13.0792 81.1969
13.1242 89.0127
13.1691 137.186
13.214 186.835
13.2589 213.344
13.3038 266.238
13.3487 371.664
13.3937 362.64
13.4386 187.463
13.4835 119.243
13.5285 155.914
13.5734 182.862
13.6183 203.865
13.6633 257.832
13.7082 342.616
13.7531 283.981
13.7981 139.011
13.843 87.8917
13.888 82.0865
13.9329 78.9231
13.9779 77.4882
14.0228 76.1051
14.0678 74.5844
14.1127 74.0262
14.1577 74.9263
14.2027 73.5226
14.2476 71.9548
14.2926 70.9813
14.3376 70.3173
14.3825 70.1459
14.4275 69.811
14.4725 69.8515
14.5175 69.7741
14.5624 69.78
14.6074 70.1893
14.6524 70.8883
14.6974 71.166
14.7424 73.117
14.7874 83.5067
14.8324 108.25
14.8774 122.167
14.9224 133.028
14.9674 158.794
15.0124 202.212
15.0574 197.933
15.1024 127.106
15.1474 80.4312
15.1924 72.2327
15.2374 70.4908
15.2824 69.315
15.3274 68.2848
15.3725 67.8079
15.4175 67.6143
15.4625 67.1794
15.5076 66.924
15.5526 66.9584
15.5976 67.0727
15.6426 68.0609
15.6877 76.4547
15.7327 96.1409
15.7778 107.639
15.8228 114.917
15.8679 132.61
15.9129 165.015
15.958 184.083
16.003 140.414
16.0481 83.0054
16.0931 66.2954
16.1382 62.6442
16.1833 61.3567
16.2283 59.9655
16.2734 59.2463
16.3185 58.3946
16.3636 57.8224
16.4086 56.9731
16.4537 56.6089
16.4988 56.1185
16.5439 55.983
16.589 55.8967
16.6341 55.4907
16.6792 55.115
16.7243 55.4998
16.7694 55.3764
16.8145 55.3638
16.8596 55.5386
16.9047 55.8482
16.9498 56.0417
16.9949 55.9042
17.04 56.4611
17.0851 58.1054
17.1302 62.2945
17.1754 65.2925
17.2205 66.5522
17.2656 69.3874
17.3108 75.4528
17.3559 81.8986
17.401 80.8698
17.4462 69.9654
17.4913 61.8467
17.5365 60.4738
17.5815 60.2373
17.6268 60.5675
17.6718 61.0558
17.7171 61.3631
17.7622 62.4325
17.8074 63.4163
17.8525 65.3812
17.8977 73.9738
17.9428 84.3429
17.9881 89.1352
18.0331 93.5525
18.0784 102.953
18.1237 120.958
18.1688 142.851
18.214 136.036
18.2591 105.328
18.3044 88.7042
18.3495 89.5804
18.3948 98.7658
18.4399 103.933
18.4852 92.2932
18.5303 74.3832
18.5756 65.2259
18.6207 62.9923
18.666 61.7502
18.7112 60.9192
18.7565 60.355
18.8016 59.8374
18.8469 59.1793
18.892 58.9777
18.9374 58.5535
18.9825 58.0208
19.0278 57.8871
19.073 57.9216
19.1183 58.511
19.1635 60.6754
19.2088 62.5282
19.254 63.384
19.2993 64.6992
19.3447 67.2577
19.3898 71.336
19.4352 74.9891
19.4804 71.5732
19.5257 62.8019
19.5709 56.7064
19.6163 55.1407
19.6615 54.7296
19.7068 54.3301
19.752 54.294
19.7974 54.5219
19.8426 55.8935
19.888 57.7605
19.9332 58.8539
19.9786 59.5528
20.0238 60.6725
20.0692 63.8011
20.1144 68.8497
20.1598 73.2446
20.205 70.2472
20.2504 65.2831
20.2957 62.1176
20.3411 63.5935
20.3863 65.7018
20.4318 64.2553
20.477 58.3561
20.5224 53.5707
20.5677 51.7094
20.6131 51.2508
20.6586 50.784
20.7038 50.4457
20.7493 50.167
20.7945 50.0078
20.84 49.9331
20.8853 49.8863
20.9307 49.5226
20.976 49.7641
21.0215 49.8024
21.0668 50.281
21.1122 50.4739
21.1575 50.4702
21.203 50.86
21.2483 51.4837
21.2938 52.36
21.3391 52.0174
21.3846 51.0177
21.4299 49.9767
21.4754 49.5536
21.5207 49.6449
21.5662 49.8706
21.6116 50.4049
21.6571 52.2607
21.7024 53.8926
21.7479 54.7331
21.7933 55.5175
21.8388 57.1842
21.8843 60.2526
21.9297 63.6729
21.9752 66.5541
22.0206 65.1992
22.0661 60.0883
22.1115 56.8056
22.157 56.6962
22.2024 57.0452
22.248 55.0916
22.2933 52.5645
22.3389 50.7929
22.3843 50.0811
22.4299 49.7529
22.4753 49.7269
22.5208 49.5699
22.5662 49.5727
22.6118 49.7748
22.6572 50.0079
22.7028 51.2331
22.7483 52.2316
22.7939 52.6001
22.8393 53.0047
22.8849 53.743
22.9303 54.6224
22.9759 56.259
23.0214 58.238
23.067 58.5175
23.1126 55.6039
23.1581 52.1643
23.2037 50.3017
23.2492 50.0804
23.2948 50.523
23.3403 51.6118
23.3859 52.4081
23.4314 52.5536
23.477 52.8107
23.5225 53.5217
23.5682 55.1229
23.6137 57.171
23.6593 58.4423
23.7048 56.66
23.7505 52.6566
23.796 49.0639
23.8417 47.4105
23.8872 46.8043
23.9329 46.3888
23.9784 46.0333
24.0241 45.7171
24.0697 45.5211
24.1154 45.1698
24.1609 45.0146
24.2066 44.7625
24.2522 44.6397
24.2979 44.5269
24.3434 44.2654
24.3892 44.0955
24.4349 44.1063
24.4805 43.8492
24.5262 43.9494
24.5718 43.6349
24.6175 43.6499
24.6631 43.8704
24.7089 43.538
24.7545 43.4786
24.8002 43.2451
24.8458 43.2496
24.8916 43.2474
24.9372 43.2319
24.983 43.4683
25.0286 43.8677
25.0744 44.2718
25.12 44.6723
25.1658 45.0771
25.2114 45.336
25.2572 45.569
25.3029 45.5394
25.3487 45.3577
25.3943 45.5748
25.4402 45.4061
25.4858 44.6515
25.5316 43.3501
25.5773 42.3167
25.6231 41.9559
25.669 41.4796
25.7147 41.3759
25.7605 41.5387
25.8062 41.5632
25.8521 41.6513
25.8977 41.5835
25.9436 41.711
25.9893 41.561
26.0352 41.9441
26.0809 41.9428
26.1268 42.3423
26.1725 42.5742
26.2184 42.3421
26.2641 41.6922
26.31 41.4803
26.3557 41.4244
26.4017 41.4526
26.4474 41.557
26.4933 41.5222
26.5391 41.8238
26.585 42.096
26.6308 42.4155
26.6767 42.7453
26.7225 43.2088
26.7684 43.1706
26.8142 42.3527
26.8601 41.7254
26.9059 41.2663
26.9519 40.943
26.9979 40.5305
27.0437 40.0199
27.0896 39.8095
27.1354 39.7246
27.1814 39.4998
27.2272 39.5443
27.2732 39.5126
27.3191 39.3411
27.3651 39.2469
27.4109 39.3732
27.4569 39.3358
27.5027 39.3254
27.5488 39.449
27.5946 39.3033
27.6407 39.3542
27.6865 39.301
27.7326 39.0008
27.7784 39.0219
27.8245 38.8532
27.8703 38.7873
27.9164 39.1618
27.9623 39.1034
28.0084 39.2953
28.0543 39.6954
28.1003 39.8112
28.1462 39.9689
28.1923 39.7005
28.2384 39.1929
28.2843 38.7053
28.3304 38.4518
28.3764 38.0009
28.4225 37.6234
28.4684 37.2808
28.5145 36.9216
28.5605 36.6933
28.6066 36.6385
28.6526 36.5727
28.6987 36.4405
28.7447 36.2748
28.7908 36.1617
28.8368 36.1233
28.8829 36.091
28.9289 36.1248
28.9751 35.9347
29.0211 35.9649
29.0673 35.6109
29.1133 35.4625
29.1595 35.2637
29.2055 35.0587
29.2517 35.1024
29.2977 35.0113
29.3439 34.8286
29.3899 34.8214
29.4361 34.9469
29.4824 34.8154
29.5284 34.5036
29.5746 34.367
29.6207 33.9447
29.6669 33.9483
29.713 33.715
29.7593 33.6016
29.8053 33.6028
29.8516 33.4545
29.8977 33.6128
29.9439 33.3066
29.99 33.3658
30.0363 33.2108
30.0824 33.1752
30.1287 33.1094
30.1748 32.9858
30.2211 33.0397
30.2673 32.9708
30.3136 33.1615
30.3597 33.0207
30.406 32.9405
30.4522 32.8729
30.4985 32.8237
30.5447 32.8555
30.591 32.8251
30.6372 32.7892
30.6835 32.8297
30.7297 32.8161
30.7761 32.9263
30.8224 32.8477
30.8686 32.7034
30.915 32.4608
30.9612 32.3242
31.0076 32.0932
31.0538 32.039
31.1002 31.9301
31.1464 31.6772
31.1928 31.7552
31.2391 31.7725
31.2855 31.603
31.3317 31.5461
31.3781 31.5894
31.4244 31.5277
31.4708 31.3976
31.5171 31.4712
31.5636 31.5841
31.6098 31.3276
31.6563 31.2629
31.7026 31.0924
31.7491 30.8636
31.7953 30.9341
31.8418 30.8094
31.8881 30.7713
31.9346 30.84
31.9809 30.7336
32.0275 30.6621
32.074 30.6805
32.1203 30.5015
32.1668 30.2606
32.2132 30.1451
32.2597 29.9885
32.306 29.9384
32.3526 29.7439
32.399 29.6777
32.4455 29.4363
32.4919 29.4118
32.5385 29.2972
32.5848 29.2227
32.6314 29.0829
32.6778 29.0203
32.7244 28.9415
32.7708 28.8854
32.8174 28.8255
32.8638 28.677
32.9104 28.831
32.9569 28.6808
33.0035 28.5021
33.0499 28.4793
33.0966 28.3894
33.143 28.3911
33.1897 28.2948
33.2361 28.2454
33.2828 28.2416
33.3293 28.0451
33.3759 28.0512
33.4226 27.9514
33.4691 27.79
33.5158 27.6592
33.5623 27.5134
33.609 27.3503
33.6555 27.2414
33.7022 27.1799
33.7487 27.1325
33.7954 27.0154
33.842 26.9631
33.8887 26.8551
33.9353 26.8715
33.982 26.7539
34.0286 26.7575
34.0753 26.5966
34.1219 26.4954
34.1687 26.4411
34.2152 26.3321
34.262 26.1702
34.3086 26.0668
34.3554 26.097
34.402 25.8882
34.4488 25.8592
34.4954 25.8019
34.5422 25.6639
34.5889 25.5649
34.6357 25.6003
34.6825 25.4335
34.7292 25.371
34.776 25.2952
34.8227 25.2718
34.8695 25.1902
34.9162 25.1248
34.9631 25.0471
35.0098 25.0491
35.0566 24.8682
35.1033 24.8458
35.1502 24.78
35.1969 24.7882
35.2438 24.7213
35.2906 24.6132
35.3375 24.5205
35.3842 24.5109
35.4311 24.507
35.4779 24.3835
35.5248 24.4314
35.5716 24.3075
35.6185 24.3176
35.6653 24.1779
35.7123 24.0007
35.759 23.9923
35.806 23.8565
35.8528 23.8049
35.8998 23.6799
35.9468 23.605
35.9936 23.6011
36.0406 23.5546
36.0874 23.5765
36.1345 23.3815
36.1813 23.2458
36.2283 23.2229
36.2752 23.1847
36.3222 23.1846
36.3691 23.146
36.4161 22.9993
36.463 22.8755
36.5101 22.9623
36.557 22.8774
36.6041 22.6684
36.651 22.7293
36.6981 22.6701
36.745 22.551
36.7921 22.5222
36.839 22.4252
36.8861 22.3545
36.9331 22.2191
36.9802 22.1915
37.0272 22.0685
37.0743 21.9919
37.1213 21.9489
37.1684 21.8417
37.2154 21.8527
37.2626 21.7006
37.3098 21.7003
37.3568 21.6129
37.404 21.5835
37.451 21.4607
37.4982 21.4377
37.5452 21.3171
37.5924 21.2473
37.6395 21.3148
37.6867 21.1691
37.7337 21.123
37.781 20.972
37.8281 20.9317
37.8753 20.807
37.9224 20.7621
37.9697 20.7989
38.0168 20.6201
38.064 20.587
38.1111 20.5372
38.1584 20.4291
38.2056 20.4191
38.2529 20.3979
38.3 20.3231
38.3473 20.2575
38.3945 20.1297
38.4418 20.0731
38.489 20.0113
38.5363 19.9269
38.5837 19.8067
38.6309 19.8321
38.6782 19.733
38.7254 19.6955
38.7728 19.6158
38.82 19.5572
38.8674 19.522
38.9146 19.4459
38.9621 19.3605
39.0093 19.3623
39.0567 19.2914
39.104 19.1937
39.1514 19.1067
39.1987 19.1471
39.2461 19.0536
39.2934 18.9904
39.3409 18.9089
39.3882 18.8235
39.4356 18.7553
39.483 18.6921
39.5304 18.6708
39.5778 18.6197
39.6253 18.5651
39.6726 18.5087
39.7201 18.3772
39.7675 18.4304
39.815 18.2975
39.8624 18.2279
39.9099 18.2082
39.9575 18.1102
40.0049 18.0889
40.0525 17.9661
40.0999 17.9751
40.1474 17.98
40.1949 17.7919
40.2425 17.8023
40.2899 17.728
40.3375 17.6564
40.385 17.5563
40.4326 17.5673
40.48 17.5124
40.5277 17.4762
40.5752 17.4517
40.6228 17.286
40.6703 17.2801
40.718 17.2371
40.7655 17.1791
40.8132 17.1283
40.8607 17.116
40.9084 17.0645
40.9559 16.9154
41.0036 16.917
41.0512 16.8877
41.0989 16.8686
41.1465 16.7191
41.1942 16.7351
41.242 16.5819
41.2896 16.5696
41.3373 16.5248
41.3849 16.4932
41.4327 16.4541
41.4803 16.3016
41.5281 16.3152
41.5758 16.2451
41.6236 16.1939
41.6712 16.0796
41.7191 16.0862
41.7667 16.0337
41.8146 16.0154
41.8622 15.9151
41.9101 15.8967
41.9578 15.7994
42.0057 15.7856
42.0534 15.7041
42.1013 15.6924
42.149 15.5887
42.1969 15.5389
42.2446 15.43
42.2925 15.433
42.3403 15.3951
42.3882 15.3683
42.436 15.3129
42.4839 15.2391
42.5319 15.1728
42.5797 15.0831
42.6277 15.0745
42.6755 15.0174
42.7235 14.9643
42.7713 14.964
42.8193 14.8708
42.8671 14.8127
42.9152 14.7673
42.963 14.7347
43.0111 14.6834
43.0589 14.6341
43.107 14.54
43.1549 14.5221
43.2029 14.4502
43.2508 14.4426
43.2989 14.3298
43.3468 14.2976
43.3949 14.3216
43.4429 14.1917
43.491 14.1668
43.5389 14.1373
43.5871 14.1193
43.635 14.0
43.6832 13.9947
43.7312 13.9433
43.7793 13.8324
43.8273 13.8803
43.8755 13.7642
43.9237 13.7509
43.9717 13.7004
44.0199 13.6448
44.068 13.6413
44.1162 13.6062
44.1642 13.5087
44.2125 13.4581
44.2606 13.4381
44.3088 13.3507
44.3569 13.3475
44.4052 13.3437
44.4533 13.2277
44.5016 13.1901
44.5497 13.1599
44.598 13.064
44.6461 13.066
44.6945 12.9954
44.7426 12.9946
44.791 12.9102
44.8391 12.8928
44.8875 12.8225
44.9357 12.7657
44.984 12.7221
45.0322 12.6833
45.0806 12.6241
45.1288 12.6131
45.1773 12.5543
45.2257 12.5416
45.2739 12.4643
45.3224 12.4206
45.3706 12.3634
45.4191 12.283
45.4673 12.3198
45.5158 12.2646
45.5641 12.244
45.6126 12.1409
45.6609 12.1104
45.7094 12.0426
45.7577 12.0139
45.8063 11.9332
45.8546 11.9531
45.9031 11.8741
45.9515 11.803
46.0001 11.7802
46.0484 11.8067
46.097 11.7198
46.1454 11.7351
46.194 11.6556
46.2424 11.5516
46.291 11.5205
46.3395 11.5222
46.3881 11.4378
46.4365 11.4372
46.4852 11.3829
46.5337 11.3454
46.5823 11.3045
46.631 11.2302
46.6795 11.1869
46.7282 11.1861
46.7767 11.1313
46.8254 11.0857
46.8739 11.0178
46.9226 11.0202
46.9712 10.9299
47.0199 10.929
47.0685 10.8857
47.1173 10.8468
47.1658 10.8124
47.2146 10.747
47.2632 10.7126
47.312 10.6885
47.3606 10.628
47.4095 10.6011
47.4581 10.576
47.5069 10.5578
47.5556 10.5032
47.6044 10.4449
47.6531 10.4005
47.702 10.338
47.7507 10.3218
47.7996 10.3018
47.8483 10.2447
47.8972 10.2311
47.9461 10.153
47.9948 10.1502
48.0438 10.1617
48.0925 10.0954
48.1415 10.0264
48.1902 10.0228
48.2392 9.99449
48.288 9.96021
48.337 9.93149
48.3858 9.85314
48.4348 9.83101
48.4837 9.80317
48.5327 9.75573
48.5815 9.72335
48.6306 9.73928
48.6795 9.64393
48.7285 9.5916
48.7774 9.58865
48.8265 9.55483
48.8754 9.49545
48.9245 9.48159
48.9734 9.45009
49.0226 9.44352
49.0715 9.39191
49.1206 9.3542
49.1696 9.29435
49.2188 9.29348
49.2679 9.23046
49.3169 9.2124
49.3661 9.16597
49.4151 9.13295
49.4643 9.11427
49.5134 9.06902
49.5626 8.97116
49.6117 8.98769
49.6609 8.96934
49.71 8.89002
49.7592 8.87567
49.8083 8.82742
49.8576 8.79331
49.9067 8.7687
49.956 8.75755
50.0052 8.72192
50.0545 8.70283
50.1036 8.67853
50.153 8.56682
50.2022 8.58541
50.2515 8.58799
50.3007 8.48815
50.3501 8.50084
50.3993 8.45132
50.4487 8.39811
50.498 8.39601
50.5474 8.31953
50.5966 8.33252
50.6461 8.29028
50.6955 8.25954
50.7448 8.26738
50.7943 8.1885
50.8436 8.17519
50.8931 8.14997
50.9424 8.13299
50.9919 8.06274
51.0413 8.0471
51.0908 7.99711
51.1402 7.99633
51.1897 7.96154
51.2391 7.92132
51.2887 7.86691
51.3381 7.80808
51.3877 7.82322
51.4371 7.77842
51.4867 7.7553
51.5362 7.73662
51.5858 7.66251
51.6353 7.61536
51.6849 7.64187
51.7344 7.61493
51.7841 7.55685
51.8336 7.58009
51.8833 7.48185
51.9328 7.46152
51.9826 7.42212
52.0323 7.38249
52.0818 7.36203
52.1316 7.33156
52.1812 7.33259
52.231 7.26606
52.2806 7.25593
52.3304 7.18618
52.38 7.17042
52.4298 7.15986
52.4794 7.11846
52.5293 7.08807
52.5789 7.04779
52.6288 7.0492
52.6785 7.00724
52.7284 7.01907
52.7781 6.96708
52.828 6.94186
52.8777 6.85853
52.9276 6.88318
52.9774 6.83041
53.0273 6.81121
53.0771 6.75628
53.1271 6.74498
53.1769 6.71926
53.2269 6.68905
53.2767 6.66701
53.3267 6.63282
53.3765 6.59238
53.4266 6.5945
53.4766 6.55094
53.5265 6.54039
53.5765 6.51385
53.6264 6.46138
53.6765 6.46914
53.7264 6.44936
53.7765 6.40103
53.8265 6.32377
53.8766 6.32518
53.9266 6.32965
53.9767 6.26447
54.0267 6.25203
54.0769 6.19426
54.1269 6.18214
54.1771 6.1327
54.2271 6.13565
54.2773 6.05175
54.3274 6.07968
54.3776 6.00778
54.4277 5.98357
54.478 5.92675
54.528 5.9123
54.5783 5.85693
54.6285 5.7865
54.6788 5.74267
54.7289 5.68846
54.7792 5.66556
54.8296 5.63483
54.8798 5.59047
54.9301 5.52059
54.9803 5.49756
55.0307 5.47867
55.0809 5.3843
55.1314 5.39658
55.1816 5.31091
55.232 5.28176
55.2823 5.27331
55.3328 5.17891
55.383 5.10625
55.4335 5.0788
55.4838 5.04423
55.5344 4.93724
55.5847 4.97607
55.6352 4.90833
55.6856 4.85485
55.7361 4.85798