File: XRD/Ni3Fe_FD0319.xy
TT I
1.27165 7.95554
1.31627 6.75405
1.36089 7.25764
1.40551 6.29295
1.45013 6.62023
1.49476 6.13569
1.53938 6.32682
1.584 6.14532
1.62863 5.28276
1.67325 5.46691
1.71787 5.37384
1.7625 5.39192
1.80712 4.70439
1.85174 4.85893
1.89636 5.22524
1.94099 4.88373
1.98562 4.42359
2.03025 5.1152
2.07487 4.89151
2.11949 4.89293
2.16411 5.26874
2.20874 14.3774
2.25338 22.7114
2.298 5.30093
2.34263 5.59257
2.38725 5.15127
2.43188 5.43059
2.4765 5.96307
2.52115 6.10051
2.56577 6.32448
2.6104 6.6441
2.65503 6.44532
2.69965 7.38403
2.7443 7.16283
2.78893 7.62809
2.83356 8.26323
2.87818 8.44591
2.92281 8.85433
2.96744 9.73027
3.01209 10.7534
3.05672 11.2895
3.10135 12.6824
3.14599 13.3146
3.19062 14.4202
3.23527 14.8342
3.2799 16.1385
3.32454 17.3085
3.36917 18.5225
3.4138 19.3836
3.45844 19.5645
3.50309 21.0673
3.54773 22.3415
3.59237 24.7246
3.637 94.5352
3.68164 59.016
3.7263 26.5474
3.77094 26.3983
3.81558 27.5216
3.86022 28.0815
3.90486 29.6996
3.9495 30.4162
3.99416 31.813
4.0388 33.4567
4.08344 34.0765
4.12809 35.5347
4.17273 37.5687
4.21738 43.8995
4.26204 253.173
4.30669 219.016
4.35133 50.1386
4.39598 45.6326
4.44063 55.2857
4.4853 67.0385
4.52995 52.4892
4.5746 52.9931
4.61925 54.8496
4.6639 56.9916
4.70855 59.4102
4.75322 62.8959
4.79788 66.0434
4.84253 69.2607
4.88719 73.6801
4.93184 77.9241
4.97652 84.3905
5.02118 91.5435
5.06583 100.362
5.11049 115.218
5.15515 196.238
5.19981 522.142
5.24449 3355.86
5.28916 11353.6
5.33382 3674.0
5.37848 231.395
5.42315 140.418
5.46783 121.122
5.5125 111.239
5.55716 106.386
5.60183 102.618
5.6465 100.7
5.69117 97.9894
5.73586 96.0053
5.78053 96.6771
5.8252 95.9765
5.86988 97.8439
5.91455 101.592
5.95924 113.196
6.00392 273.948
6.0486 1155.27
6.09328 3914.6
6.13795 3573.06
6.18263 308.942
6.22733 102.102
6.27201 87.5296
6.3167 105.751
6.36138 83.4491
6.40606 71.8304
6.45075 69.6987
6.49545 67.7143
6.54014 66.0702
6.58483 64.6929
6.62952 64.7889
6.67421 96.3781
6.71892 146.647
6.76361 70.1818
6.8083 60.541
6.853 59.2464
6.89769 58.6022
6.94239 58.1468
6.98711 57.517
7.03181 57.0216
7.07651 57.0471
7.12121 57.232
7.16591 57.104
7.21063 57.2518
7.25533 72.0633
7.30004 181.74
7.34475 92.9331
7.38945 58.4669
7.43416 56.1676
7.47889 55.8701
7.5236 56.2619
7.56831 57.1471
7.61303 58.7372
7.65774 59.0748
7.70247 57.9205
7.74719 57.8578
7.79191 58.2276
7.83663 58.3907
7.88135 59.5088
7.92607 60.6299
7.97081 61.4179
8.01553 62.6817
8.06026 64.0249
8.10498 65.9391
8.14971 75.596
8.19446 74.3305
8.23919 71.6924
8.28392 74.2027
8.32865 77.0844
8.37339 81.5587
8.41812 89.6812
8.46288 120.792
8.50761 198.896
8.55235 456.251
8.59709 1119.37
8.64183 2092.5
8.68658 1109.29
8.73134 193.159
8.77609 105.141
8.82083 96.7489
8.86558 93.3398
8.91033 93.1607
8.9551 94.5895
8.99985 88.0809
9.04461 86.0598
9.08936 85.4351
9.13412 84.2105
9.17888 84.7237
9.22365 85.0851
9.26841 84.5024
9.31318 85.5071
9.35794 85.5436
9.4027 85.8447
9.44749 86.6813
9.49226 87.3685
9.53703 88.1563
9.5818 90.352
9.62657 95.2241
9.67134 101.603
9.71614 96.4932
9.76091 97.3567
9.80569 99.8965
9.85047 104.043
9.89525 128.337
9.94005 144.42
9.98484 207.45
10.0296 400.895
10.0744 807.783
10.1192 1607.91
10.164 1745.89
10.2088 496.376
10.2536 139.328
10.2984 118.624
10.3432 119.219
10.388 109.52
10.4328 129.254
10.4776 176.721
10.5224 280.817
10.5672 478.149
10.612 527.308
10.6568 223.036
10.7017 101.452
10.7465 89.6846
10.7913 86.0382
10.8361 83.4421
10.8809 81.5938
10.9257 80.6366
10.9706 81.4693
11.0154 77.2245
11.0602 75.0203
11.105 73.7339
11.1499 78.4505
11.1947 85.6429
11.2395 76.6902
11.2844 72.5019
11.3292 69.6765
11.374 68.4503
11.4189 67.344
11.4637 66.9439
11.5086 67.4122
11.5534 70.3927
11.5983 67.4092
11.6431 65.3852
11.688 65.0488
11.7328 65.155
11.7777 64.9499
11.8225 64.2361
11.8674 64.2723
11.9122 65.0241
11.9571 64.8887
12.002 66.047
12.0468 71.7324
12.0917 85.1202
12.1366 106.395
12.1814 149.045
12.2263 202.773
12.2712 180.272
12.3161 103.601
12.3609 73.1913
12.4058 66.8292
12.4507 66.6192
12.4956 66.5442
12.5405 66.4846
12.5853 67.6513
12.6302 75.31
12.6751 81.3357
12.72 72.2401
12.7649 69.9588
12.8098 70.4967
12.8547 71.7959
12.8996 73.0703
12.9445 74.3743
12.9894 76.3786
13.0343 78.3589
13.0792 81.9127
13.1242 94.38
13.1691 122.884
13.214 159.773
13.2589 234.814
13.3038 346.852
13.3487 430.91
13.3937 291.489
13.4386 135.785
13.4835 114.369
13.5285 131.45
13.5734 165.735
13.6183 235.201
13.6633 329.076
13.7082 350.163
13.7531 210.079
13.7981 104.173
13.843 84.9097
13.888 82.2871
13.9329 79.7447
13.9779 78.2007
14.0228 76.8038
14.0678 75.4833
14.1127 74.7119
14.1577 74.7524
14.2027 73.4857
14.2476 72.7026
14.2926 73.1714
14.3376 73.917
14.3825 72.5433
14.4275 71.2196
14.4725 70.8163
14.5175 71.0432
14.5624 71.2257
14.6074 73.4576
14.6524 74.1924
14.6974 72.8156
14.7424 75.1653
14.7874 83.8569
14.8324 95.2238
14.8774 114.658
14.9224 149.801
14.9674 197.979
15.0124 222.506
15.0574 160.306
15.1024 96.2926
15.1474 75.1254
15.1924 72.9595
15.2374 73.5092
15.2824 72.6479
15.3274 70.3573
15.3725 69.0036
15.4175 68.6019
15.4625 67.9878
15.5076 68.372
15.5526 68.4234
15.5976 68.0163
15.6426 69.8063
15.6877 76.5812
15.7327 85.3214
15.7778 99.0624
15.8228 124.632
15.8679 161.642
15.9129 195.222
15.958 170.303
16.003 105.807
16.0481 71.002
16.0931 66.8882
16.1382 64.7317
16.1833 62.8761
16.2283 60.9974
16.2734 60.3665
16.3185 60.5139
16.3636 61.3531
16.4086 59.8682
16.4537 58.1426
16.4988 57.2846
16.5439 57.4463
16.589 56.9332
16.6341 56.7066
16.6792 56.3823
16.7243 56.7804
16.7694 56.7055
16.8145 56.7845
16.8596 57.0207
16.9047 58.4716
16.9498 58.8214
16.9949 57.5682
17.04 57.8295
17.0851 59.1945
17.1302 61.1709
17.1754 64.1478
17.2205 68.469
17.2656 74.4318
17.3108 82.7113
17.3559 84.0313
17.401 75.0241
17.4462 64.7373
17.4913 61.1606
17.5365 61.0549
17.5815 61.1772
17.6268 61.5303
17.6718 62.2917
17.7171 62.9679
17.7622 63.1581
17.8074 64.0679
17.8525 67.2337
17.8977 71.8804
17.9428 77.7678
17.9881 85.5934
18.0331 99.7531
18.0784 118.12
18.1237 139.823
18.1688 138.797
18.214 111.767
18.2591 90.7296
18.3044 90.765
18.3495 99.0126
18.3948 107.656
18.4399 100.64
18.4852 81.4715
18.5303 68.3509
18.5756 64.3924
18.6207 63.2843
18.666 62.3924
18.7112 61.7441
18.7565 60.9372
18.8016 60.6701
18.8469 59.8795
18.892 59.5859
18.9374 59.1188
18.9825 59.019
19.0278 58.7395
19.073 59.0036
19.1183 59.5593
19.1635 60.6481
19.2088 61.7571
19.254 63.822
19.2993 67.5271
19.3447 72.891
19.3898 77.8161
19.4352 75.5524
19.4804 66.4304
19.5257 58.9889
19.5709 56.0835
19.6163 55.6489
19.6615 55.4328
19.7068 55.0567
19.752 54.9091
19.7974 55.3123
19.8426 56.5869
19.888 57.0513
19.9332 58.2605
19.9786 60.2473
20.0238 63.579
20.0692 67.7467
20.1144 71.4142
20.1598 71.0744
20.205 66.2931
20.2504 63.5144
20.2957 64.2552
20.3411 66.8147
20.3863 66.5603
20.4318 61.0815
20.477 55.9436
20.5224 53.4049
20.5677 52.7035
20.6131 51.939
20.6586 51.4541
20.7038 51.1565
20.7493 50.7708
20.7945 50.6462
20.84 50.4691
20.8853 50.4513
20.9307 50.1875
20.976 50.3825
21.0215 50.1812
21.0668 50.6937
21.1122 50.9722
21.1575 51.6172
21.203 52.2107
21.2483 52.9225
21.2938 53.2585
21.3391 52.0839
21.3846 50.7487
21.4299 50.1327
21.4754 49.8918
21.5207 50.1993
21.5662 50.5183
21.6116 50.9805
21.6571 51.8148
21.7024 52.9503
21.7479 54.4826
21.7933 56.6971
21.8388 59.9689
21.8843 63.452
21.9297 66.3684
21.9752 65.9034
22.0206 62.0397
22.0661 58.2198
22.1115 57.3713
22.157 57.5225
22.2024 56.3931
22.248 53.5309
22.2933 51.6462
22.3389 50.7406
22.3843 50.7376
22.4299 50.5305
22.4753 50.5414
22.5208 50.2609
22.5662 50.0274
22.6118 50.4489
22.6572 50.638
22.7028 51.1449
22.7483 51.3947
22.7939 52.0245
22.8393 53.3763
22.8849 55.2918
22.9303 57.1208
22.9759 59.1259
23.0214 59.5388
23.067 56.9578
23.1126 53.2985
23.1581 50.8787
23.2037 50.616
23.2492 50.6053
23.2948 50.6447
23.3403 51.0405
23.3859 51.3148
23.4314 52.457
23.477 53.9013
23.5225 55.6285
23.5682 57.6925
23.6137 59.3204
23.6593 57.6872
23.7048 53.9883
23.7505 50.2348
23.796 48.2334
23.8417 47.5372
23.8872 47.089
23.9329 46.7508
23.9784 46.4096
24.0241 46.2442
24.0697 45.772
24.1154 45.6412
24.1609 45.4591
24.2066 45.3117
24.2522 45.3013
24.2979 44.8961
24.3434 44.7027
24.3892 44.4988
24.4349 44.4357
24.4805 44.3597
24.5262 44.5572
24.5718 44.319
24.6175 44.3398
24.6631 44.3058
24.7089 43.9947
24.7545 43.8176
24.8002 43.6909
24.8458 43.7643
24.8916 43.5145
24.9372 43.518
24.983 43.9167
25.0286 44.2461
25.0744 44.7872
25.12 44.9449
25.1658 45.5472
25.2114 45.9014
25.2572 46.0577
25.3029 45.9999
25.3487 46.1953
25.3943 46.0892
25.4402 45.2673
25.4858 44.0854
25.5316 42.9767
25.5773 42.3689
25.6231 42.2127
25.669 41.9189
25.7147 41.8869
25.7605 41.8432
25.8062 41.9432
25.8521 42.0474
25.8977 41.8802
25.9436 42.0632
25.9893 42.3083
26.0352 42.7487
26.0809 42.7916
26.1268 42.9616
26.1725 42.7746
26.2184 42.3309
26.2641 41.7573
26.31 41.4318
26.3557 41.4996
26.4017 41.3552
26.4474 41.8364
26.4933 42.0334
26.5391 42.4388
26.585 42.8797
26.6308 43.2827
26.6767 43.4182
26.7225 43.2955
26.7684 42.7473
26.8142 42.1605
26.8601 41.7482
26.9059 41.2912
26.9519 40.8473
26.9979 40.4178
27.0437 40.1637
27.0896 39.9522
27.1354 40.039
27.1814 39.8816
27.2272 39.7646
27.2732 39.7701
27.3191 39.517
27.3651 39.7372
27.4109 39.636
27.4569 39.6242
27.5027 39.7762
27.5488 39.844
27.5946 39.727
27.6407 39.5644
27.6865 39.4041
27.7326 38.9331
27.7784 39.1018
27.8245 39.0325
27.8703 39.2586
27.9164 39.4244
27.9623 39.4784
28.0084 39.8336
28.0543 40.1767
28.1003 40.2747
28.1462 40.146
28.1923 39.6478
28.2384 39.1761
28.2843 38.7758
28.3304 38.4314
28.3764 37.999
28.4225 37.7008
28.4684 37.5309
28.5145 37.1329
28.5605 37.0089
28.6066 36.8189
28.6526 36.7882
28.6987 36.7951
28.7447 36.6138
28.7908 36.5302
28.8368 36.4686
28.8829 36.5054
28.9289 36.3548
28.9751 36.3957
29.0211 36.0848
29.0673 35.7749
29.1133 35.6815
29.1595 35.5154
29.2055 35.3691
29.2517 35.3785
29.2977 35.2636
29.3439 35.3853
29.3899 35.2762
29.4361 35.2773
29.4824 35.1083
29.5284 34.9192
29.5746 34.4302
29.6207 34.2554
29.6669 34.0607
29.713 34.0826
29.7593 34.0616
29.8053 33.905
29.8516 33.8731
29.8977 33.8309
29.9439 33.7113
29.99 33.55
30.0363 33.3876
30.0824 33.5339
30.1287 33.4553
30.1748 33.4864
30.2211 33.4811
30.2673 33.278
30.3136 33.2888
30.3597 33.3289
30.406 33.2317
30.4522 33.0474
30.4985 33.0377
30.5447 33.1861
30.591 33.0856
30.6372 33.227
30.6835 33.2051
30.7297 33.2739
30.7761 33.1757
30.8224 33.0431
30.8686 32.8674
30.915 32.6583
30.9612 32.5702
31.0076 32.3081
31.0538 32.1906
31.1002 32.0135
31.1464 32.0111
31.1928 31.8994
31.2391 32.0298
31.2855 31.8821
31.3317 31.8307
31.3781 31.926
31.4244 31.8823
31.4708 31.7597
31.5171 31.7456
31.5636 31.9528
31.6098 31.5645
31.6563 31.3793
31.7026 31.3006
31.7491 30.9943
31.7953 31.0914
31.8418 31.1233
31.8881 31.1125
31.9346 31.0048
31.9809 31.0199
32.0275 30.8814
32.074 30.824
32.1203 30.4699
32.1668 30.5593
32.2132 30.296
32.2597 30.2039
32.306 30.1159
32.3526 29.9591
32.399 29.9252
32.4455 29.7585
32.4919 29.5684
32.5385 29.531
32.5848 29.3379
32.6314 29.3804
32.6778 29.2592
32.7244 29.1954
32.7708 29.0452
32.8174 29.162
32.8638 28.8846
32.9104 28.9148
32.9569 28.8942
33.0035 28.7889
33.0499 28.8412
33.0966 28.6852
33.143 28.5018
33.1897 28.5537
33.2361 28.4516
33.2828 28.3946
33.3293 28.2752
33.3759 28.308
33.4226 28.0594
33.4691 28.0176
33.5158 27.9071
33.5623 27.789
33.609 27.6649
33.6555 27.635
33.7022 27.4564
33.7487 27.3211
33.7954 27.3011
33.842 27.1633
33.8887 27.1832
33.9353 27.136
33.982 26.9887
34.0286 26.9509
34.0753 26.881
34.1219 26.772
34.1687 26.6703
34.2152 26.6053
34.262 26.3658
34.3086 26.3884
34.3554 26.3519
34.402 26.2409
34.4488 26.1061
34.4954 26.0896
34.5422 25.9234
34.5889 25.8251
34.6357 25.7672
34.6825 25.7278
34.7292 25.6548
34.776 25.5223
34.8227 25.4529
34.8695 25.4974
34.9162 25.3532
34.9631 25.2562
35.0098 25.2991
35.0566 25.13
35.1033 25.0711
35.1502 25.0911
35.1969 25.0052
35.2438 24.9151
35.2906 24.9017
35.3375 24.7687
35.3842 24.7132
35.4311 24.7978
35.4779 24.7466
35.5248 24.6731
35.5716 24.5113
35.6185 24.423
35.6653 24.3671
35.7123 24.3116
35.759 24.2194
35.806 24.092
35.8528 23.9646
35.8998 24.0249
35.9468 23.8485
35.9936 23.8274
36.0406 23.7353
36.0874 23.6844
36.1345 23.6576
36.1813 23.5826
36.2283 23.4015
36.2752 23.4131
36.3222 23.4244
36.3691 23.2597
36.4161 23.1424
36.463 23.1041
36.5101 23.0939
36.557 23.018
36.6041 22.8647
36.651 22.838
36.6981 22.7411
36.745 22.7191
36.7921 22.6675
36.839 22.5103
36.8861 22.4432
36.9331 22.4454
36.9802 22.3387
37.0272 22.3017
37.0743 22.198
37.1213 22.1581
37.1684 22.0419
37.2154 22.0118
37.2626 21.8886
37.3098 21.8344
37.3568 21.8048
37.404 21.8061
37.451 21.677
37.4982 21.5907
37.5452 21.4997
37.5924 21.4602
37.6395 21.4828
37.6867 21.4545
37.7337 21.2856
37.781 21.1929
37.8281 21.1271
37.8753 21.0757
37.9224 20.9624
37.9697 20.8729
38.0168 20.838
38.064 20.7523
38.1111 20.749
38.1584 20.6567
38.2056 20.6483
38.2529 20.5648
38.3 20.4432
38.3473 20.4027
38.3945 20.2611
38.4418 20.2386
38.489 20.1961
38.5363 20.0794
38.5837 20.0093
38.6309 19.9719
38.6782 19.9645
38.7254 19.8466
38.7728 19.7875
38.82 19.7335
38.8674 19.7343
38.9146 19.6538
38.9621 19.5453
39.0093 19.5007
39.0567 19.4293
39.104 19.3497
39.1514 19.2781
39.1987 19.307
39.2461 19.2469
39.2934 19.1674
39.3409 19.0196
39.3882 19.0025
39.4356 18.9471
39.483 18.94
39.5304 18.8844
39.5778 18.7583
39.6253 18.6614
39.6726 18.6605
39.7201 18.6161
39.7675 18.6176
39.815 18.4805
39.8624 18.3976
39.9099 18.3903
39.9575 18.2323
40.0049 18.2469
40.0525 18.1608
40.0999 18.2153
40.1474 18.1452
40.1949 18.0435
40.2425 17.9134
40.2899 17.9161
40.3375 17.8961
40.385 17.7587
40.4326 17.7169
40.48 17.6997
40.5277 17.6352
40.5752 17.5858
40.6228 17.5066
40.6703 17.4886
40.718 17.3569
40.7655 17.3662
40.8132 17.2108
40.8607 17.2441
40.9084 17.2374
40.9559 17.1458
41.0036 17.0964
41.0512 17.0722
41.0989 16.9735
41.1465 16.8831
41.1942 16.8074
41.242 16.753
41.2896 16.753
41.3373 16.6567
41.3849 16.6345
41.4327 16.5343
41.4803 16.5174
41.5281 16.4241
41.5758 16.3778
41.6236 16.2743
41.6712 16.2636
41.7191 16.2093
41.7667 16.1933
41.8146 16.1154
41.8622 16.1014
41.9101 15.9409
41.9578 15.9297
42.0057 15.9079
42.0534 15.8494
42.1013 15.8415
42.149 15.7473
42.1969 15.7066
42.2446 15.6759
42.2925 15.5889
42.3403 15.5089
42.3882 15.4574
42.436 15.4685
42.4839 15.3323
42.5319 15.3476
42.5797 15.2474
42.6277 15.2155
42.6755 15.17
42.7235 15.1191
42.7713 15.054
42.8193 15.0277
42.8671 14.9614
42.9152 14.8863
42.963 14.8201
43.0111 14.817
43.0589 14.7593
43.107 14.725
43.1549 14.6457
43.2029 14.5407
43.2508 14.5661
43.2989 14.5044
43.3468 14.4501
43.3949 14.4218
43.4429 14.3716
43.491 14.3345
43.5389 14.2458
43.5871 14.2039
43.635 14.1521
43.6832 14.1396
43.7312 14.088
43.7793 14.0182
43.8273 13.979
43.8755 13.9283
43.9237 13.8994
43.9717 13.8661
44.0199 13.7822
44.068 13.7463
44.1162 13.6767
44.1642 13.6295
44.2125 13.6385
44.2606 13.5835
44.3088 13.5272
44.3569 13.4327
44.4052 13.3904
44.4533 13.3303
44.5016 13.2913
44.5497 13.2326
44.598 13.2432
44.6461 13.1803
44.6945 13.1018
44.7426 13.0801
44.791 12.985
44.8391 12.9938
44.8875 12.9498
44.9357 12.916
44.984 12.8467
45.0322 12.7584
45.0806 12.7219
45.1288 12.7246
45.1773 12.6506
45.2257 12.6256
45.2739 12.5514
45.3224 12.5498
45.3706 12.5024
45.4191 12.423
45.4673 12.4491
45.5158 12.3259
45.5641 12.3123
45.6126 12.261
45.6609 12.2516
45.7094 12.2052
45.7577 12.1206
45.8063 12.058
45.8546 12.1027
45.9031 12.0172
45.9515 11.9622
46.0001 11.957
46.0484 11.9078
46.097 11.8605
46.1454 11.8025
46.194 11.7555
46.2424 11.6989
46.291 11.6559
46.3395 11.615
46.3881 11.5553
46.4365 11.5679
46.4852 11.5551
46.5337 11.4156
46.5823 11.4017
46.631 11.3576
46.6795 11.3228
46.7282 11.3608
46.7767 11.2838
46.8254 11.2109
46.8739 11.1287
46.9226 11.1407
46.9712 11.0786
47.0199 11.035
47.0685 10.991
47.1173 10.9494
47.1658 10.9103
47.2146 10.913
47.2632 10.7859
47.312 10.8162
47.3606 10.7586
47.4095 10.6859
47.4581 10.6968
47.5069 10.6484
47.5556 10.608
47.6044 10.5416
47.6531 10.5494
47.702 10.4616
47.7507 10.4495
47.7996 10.3862
47.8483 10.3921
47.8972 10.2872
47.9461 10.3001
47.9948 10.2408
48.0438 10.2493
48.0925 10.2037
48.1415 10.1665
48.1902 10.1115
48.2392 10.1216
48.288 10.0466
48.337 10.0119
48.3858 9.94766
48.4348 9.92942
48.4837 9.93227
48.5327 9.88587
48.5815 9.78344
48.6306 9.80045
48.6795 9.7301
48.7285 9.76135
48.7774 9.70193
48.8265 9.66043
48.8754 9.59339
48.9245 9.59178
48.9734 9.53827
49.0226 9.51341
49.0715 9.438
49.1206 9.43711
49.1696 9.41129
49.2188 9.37024
49.2679 9.3199
49.3169 9.26479
49.3661 9.20297
49.4151 9.23261
49.4643 9.19416
49.5134 9.14094
49.5626 9.0932
49.6117 9.10282
49.6609 9.04487
49.71 8.99114
49.7592 8.96281
49.8083 8.90937
49.8576 8.92808
49.9067 8.84199
49.956 8.80963
50.0052 8.82771
50.0545 8.76082
50.1036 8.71855
50.153 8.69374
50.2022 8.67055
50.2515 8.60578
50.3007 8.62885
50.3501 8.55107
50.3993 8.52725
50.4487 8.50821
50.498 8.47071
50.5474 8.40785
50.5966 8.39267
50.6461 8.36453
50.6955 8.34519
50.7448 8.34725
50.7943 8.28627
50.8436 8.21399
50.8931 8.21664
50.9424 8.14652
50.9919 8.1385
51.0413 8.11565
51.0908 8.05919
51.1402 8.05345
51.1897 8.01043
51.2391 8.00023
51.2887 7.95073
51.3381 7.89533
51.3877 7.90007
51.4371 7.87483
51.4867 7.77316
51.5362 7.80916
51.5858 7.74959
51.6353 7.73926
51.6849 7.66923
51.7344 7.66305
51.7841 7.638
51.8336 7.57114
51.8833 7.54295
51.9328 7.50768
51.9826 7.49817
52.0323 7.43384
52.0818 7.44188
52.1316 7.35371
52.1812 7.39351
52.231 7.32274
52.2806 7.32664
52.3304 7.2698
52.38 7.28137
52.4298 7.22548
52.4794 7.17425
52.5293 7.18742
52.5789 7.11584
52.6288 7.11321
52.6785 7.09443
52.7284 7.02705
52.7781 7.01223
52.828 7.00965
52.8777 6.9502
52.9276 6.91572
52.9774 6.90867
53.0273 6.89178
53.0771 6.86169
53.1271 6.80992
53.1769 6.73782
53.2269 6.76137
53.2767 6.74435
53.3267 6.6784
53.3765 6.6585
53.4266 6.61784
53.4766 6.58798
53.5265 6.54809
53.5765 6.55863
53.6264 6.52719
53.6765 6.49573
53.7264 6.42554
53.7765 6.45286
53.8265 6.42087
53.8766 6.38263
53.9266 6.35716
53.9767 6.3182
54.0267 6.28814
54.0769 6.25544
54.1269 6.21714
54.1771 6.20258
54.2271 6.18227
54.2773 6.12466
54.3274 6.10484
54.3776 6.08046
54.4277 6.07867
54.478 5.96752
54.528 6.00926
54.5783 5.95088
54.6285 5.91961
54.6788 5.79263
54.7289 5.79414
54.7792 5.79483
54.8296 5.74858
54.8798 5.64872
54.9301 5.65862
54.9803 5.58893
55.0307 5.60865
55.0809 5.46804
55.1314 5.50738
55.1816 5.43574
55.232 5.43703
55.2823 5.26348
55.3328 5.28373
55.383 5.26365
55.4335 5.20869
55.4838 5.13912
55.5344 5.06075
55.5847 5.11574
55.6352 5.01366
55.6856 4.99948
55.7361 4.97412