File: XRD/Ni3Fe_FD0712.xy
TT I
1.27165 7.11502
1.31627 7.30254
1.36089 6.85099
1.40551 6.46892
1.45013 6.237
1.49476 5.84223
1.53938 5.46994
1.584 5.52105
1.62863 5.02639
1.67325 4.96595
1.71787 4.97171
1.7625 5.14924
1.80712 5.09551
1.85174 4.51207
1.89636 5.09301
1.94099 4.43142
1.98562 4.69378
2.03025 4.44625
2.07487 4.30938
2.11949 4.82595
2.16411 4.13874
2.20874 7.95631
2.25338 10.7901
2.298 5.06878
2.34263 5.52088
2.38725 5.70692
2.43188 5.85979
2.4765 6.16678
2.52115 7.19009
2.56577 7.34619
2.6104 7.30667
2.65503 7.49645
2.69965 7.48593
2.7443 8.22699
2.78893 8.05629
2.83356 8.79026
2.87818 8.57992
2.92281 8.88914
2.96744 9.24911
3.01209 10.1202
3.05672 10.6674
3.10135 11.8692
3.14599 12.2729
3.19062 13.8212
3.23527 15.2136
3.2799 15.0391
3.32454 16.6331
3.36917 17.5564
3.4138 18.6181
3.45844 19.4102
3.50309 20.5159
3.54773 20.8615
3.59237 22.8619
3.637 48.4236
3.68164 35.6718
3.7263 25.2304
3.77094 25.3154
3.81558 26.4639
3.86022 27.144
3.90486 28.5248
3.9495 29.1185
3.99416 30.1232
4.0388 31.8299
4.08344 32.9897
4.12809 33.5643
4.17273 35.9829
4.21738 39.0102
4.26204 116.176
4.30669 100.59
4.35133 44.063
4.39598 43.0442
4.44063 48.3332
4.4853 53.4297
4.52995 56.5986
4.5746 57.4205
4.61925 53.5586
4.6639 55.5089
4.70855 58.316
4.75322 61.616
4.79788 68.5826
4.84253 68.2717
4.88719 74.8764
4.93184 77.007
4.97652 81.3002
5.02118 87.5936
5.06583 95.291
5.11049 107.25
5.15515 156.436
5.19981 430.736
5.24449 3056.35
5.28916 12587.0
5.33382 2645.88
5.37848 198.666
5.42315 132.083
5.46783 120.259
5.5125 112.614
5.55716 102.378
5.60183 98.4376
5.6465 96.2288
5.69117 94.5657
5.73586 93.0241
5.78053 97.9932
5.8252 98.2972
5.86988 101.613
5.91455 95.6874
5.95924 106.292
6.00392 257.871
6.0486 1034.09
6.09328 4605.99
6.13795 3085.4
6.18263 221.075
6.22733 91.0705
6.27201 80.4907
6.3167 84.092
6.36138 74.1974
6.40606 70.031
6.45075 70.2173
6.49545 65.3654
6.54014 63.1247
6.58483 62.627
6.62952 62.8931
6.67421 72.0999
6.71892 88.5956
6.76361 61.9184
6.8083 59.4427
6.853 59.8416
6.89769 56.9381
6.94239 56.0205
6.98711 55.1153
7.03181 55.5806
7.07651 55.0775
7.12121 54.6786
7.16591 56.48
7.21063 55.1874
7.25533 59.6467
7.30004 97.219
7.34475 66.6625
7.38945 54.3231
7.43416 53.7151
7.47889 53.5466
7.5236 53.8832
7.56831 54.7146
7.61303 55.3378
7.65774 56.1221
7.70247 56.4387
7.74719 56.424
7.79191 56.0619
7.83663 56.1807
7.88135 57.3386
7.92607 58.3807
7.97081 59.5166
8.01553 60.6838
8.06026 62.8275
8.10498 64.1079
8.14971 70.7345
8.19446 70.8261
8.23919 69.3297
8.28392 72.112
8.32865 74.3391
8.37339 78.2532
8.41812 83.8696
8.46288 104.263
8.50761 188.889
8.55235 410.929
8.59709 1247.45
8.64183 2160.46
8.68658 845.622
8.73134 148.681
8.77609 97.8365
8.82083 92.5077
8.86558 92.3456
8.91033 92.2385
8.9551 89.5044
8.99985 85.0073
9.04461 84.0767
9.08936 84.0402
9.13412 83.1319
9.17888 82.2787
9.22365 82.465
9.26841 82.0753
9.31318 84.8693
9.35794 86.548
9.4027 85.8399
9.44749 85.1901
9.49226 84.6695
9.53703 85.9283
9.5818 89.5898
9.62657 94.7876
9.67134 95.4333
9.71614 92.7659
9.76091 94.8564
9.80569 99.1811
9.85047 101.74
9.89525 111.943
9.94005 128.694
9.98484 200.041
10.0296 364.899
10.0744 851.301
10.1192 1812.7
10.164 1543.75
10.2088 360.99
10.2536 122.192
10.2984 109.662
10.3432 108.241
10.388 105.707
10.4328 124.403
10.4776 166.185
10.5224 295.373
10.5672 517.995
10.612 493.133
10.6568 191.181
10.7017 94.0992
10.7465 86.6552
10.7913 82.9441
10.8361 80.9607
10.8809 78.5328
10.9257 77.8848
10.9706 77.8214
11.0154 74.9919
11.0602 72.719
11.105 71.1386
11.1499 72.0225
11.1947 73.9394
11.2395 70.0335
11.2844 68.4514
11.3292 66.701
11.374 65.8954
11.4189 65.3738
11.4637 64.3973
11.5086 64.7076
11.5534 65.0944
11.5983 63.9825
11.6431 63.0666
11.688 62.8779
11.7328 62.8016
11.7777 62.5935
11.8225 62.4928
11.8674 62.3124
11.9122 62.5593
11.9571 62.8351
12.002 64.4095
12.0468 69.5989
12.0917 79.706
12.1366 105.34
12.1814 155.365
12.2263 211.641
12.2712 156.789
12.3161 87.7334
12.3609 66.7522
12.4058 64.0005
12.4507 64.122
12.4956 64.7167
12.5405 64.7787
12.5853 65.2347
12.6302 67.882
12.6751 70.6985
12.72 67.4399
12.7649 67.4196
12.8098 68.3196
12.8547 69.9603
12.8996 71.3494
12.9445 72.9673
12.9894 74.5887
13.0343 76.2
13.0792 80.5877
13.1242 94.1475
13.1691 114.404
13.214 153.244
13.2589 250.567
13.3038 381.481
13.3487 415.316
13.3937 247.269
13.4386 121.073
13.4835 108.348
13.5285 123.344
13.5734 165.793
13.6183 260.824
13.6633 359.659
13.7082 327.834
13.7531 173.121
13.7981 94.1353
13.843 81.5645
13.888 79.5572
13.9329 76.9043
13.9779 75.6352
14.0228 74.2665
14.0678 73.118
14.1127 72.3171
14.1577 71.7999
14.2027 71.2991
14.2476 70.229
14.2926 69.9074
14.3376 70.2334
14.3825 69.3691
14.4275 68.9265
14.4725 68.7267
14.5175 68.8849
14.5624 68.766
14.6074 70.0483
14.6524 70.4441
14.6974 70.7212
14.7424 74.4924
14.7874 80.7445
14.8324 90.6494
14.8774 114.56
14.9224 159.629
14.9674 213.485
15.0124 215.457
15.0574 140.283
15.1024 86.3812
15.1474 71.7651
15.1924 69.9913
15.2374 69.5614
15.2824 68.427
15.3274 67.4197
15.3725 66.5413
15.4175 66.3349
15.4625 65.8122
15.5076 65.7498
15.5526 65.7743
15.5976 65.903
15.6426 68.4021
15.6877 73.8374
15.7327 80.9707
15.7778 97.5777
15.8228 130.672
15.8679 174.722
15.9129 192.987
15.958 148.128
16.003 91.4997
16.0481 66.6186
16.0931 62.763
16.1382 61.1373
16.1833 60.0437
16.2283 58.5723
16.2734 58.0414
16.3185 57.6562
16.3636 57.8136
16.4086 56.6632
16.4537 55.8733
16.4988 55.2105
16.5439 55.3336
16.589 54.9619
16.6341 54.42
16.6792 54.2031
16.7243 54.699
16.7694 54.4309
16.8145 54.5314
16.8596 54.8762
16.9047 55.3886
16.9498 55.458
16.9949 55.4085
17.04 56.0524
17.0851 57.4675
17.1302 58.8382
17.1754 61.8274
17.2205 67.5495
17.2656 75.3993
17.3108 83.1945
17.3559 81.4918
17.401 69.684
17.4462 61.6155
17.4913 59.1343
17.5365 58.9988
17.5815 59.1835
17.6268 59.5189
17.6718 60.2367
17.7171 60.4373
17.7622 61.3638
17.8074 62.5215
17.8525 65.7779
17.8977 68.8625
17.9428 74.7851
17.9881 84.3599
18.0331 102.715
18.0784 126.089
18.1237 142.001
18.1688 130.165
18.214 100.723
18.2591 86.0408
18.3044 91.476
18.3495 101.409
18.3948 106.235
18.4399 93.3975
18.4852 74.8891
18.5303 64.96
18.5756 61.8878
18.6207 60.9969
18.666 60.1208
18.7112 59.5339
18.7565 58.8894
18.8016 58.3569
18.8469 58.0386
18.892 57.4832
18.9374 57.2822
18.9825 56.8263
19.0278 56.696
19.073 56.9387
19.1183 57.2442
19.1635 57.7007
19.2088 59.3225
19.254 62.3189
19.2993 67.1366
19.3447 73.0304
19.3898 75.9777
19.4352 70.9946
19.4804 62.182
19.5257 56.0016
19.5709 53.8345
19.6163 53.5393
19.6615 53.6306
19.7068 53.1032
19.752 53.2564
19.7974 53.687
19.8426 54.3353
19.888 54.9407
19.9332 56.5071
19.9786 59.0151
20.0238 63.0226
20.0692 67.656
20.1144 69.4949
20.1598 67.7802
20.205 63.0866
20.2504 62.1469
20.2957 64.0754
20.3411 65.5362
20.3863 63.2157
20.4318 57.3986
20.477 52.7695
20.5224 51.0875
20.5677 50.3848
20.6131 50.0933
20.6586 49.3868
20.7038 49.4082
20.7493 48.9884
20.7945 48.7786
20.84 48.6578
20.8853 48.6219
20.9307 48.6369
20.976 48.7905
21.0215 48.6577
21.0668 48.9582
21.1122 49.4327
21.1575 49.9576
21.203 50.8592
21.2483 51.2668
21.2938 51.4343
21.3391 49.8898
21.3846 48.882
21.4299 48.1651
21.4754 48.5006
21.5207 48.5469
21.5662 48.9453
21.6116 49.3869
21.6571 50.1791
21.7024 50.954
21.7479 52.8791
21.7933 55.8157
21.8388 59.5203
21.8843 63.3199
21.9297 65.119
21.9752 62.7749
22.0206 58.8775
22.0661 56.0785
22.1115 55.8185
22.157 55.9786
22.2024 54.0395
22.248 51.0619
22.2933 49.5426
22.3389 48.8817
22.3843 48.6992
22.4299 48.7053
22.4753 48.7138
22.5208 48.423
22.5662 48.4478
22.6118 48.7028
22.6572 48.8578
22.7028 49.3457
22.7483 49.7216
22.7939 50.4968
22.8393 52.2147
22.8849 54.3489
22.9303 56.2837
22.9759 57.9014
23.0214 56.9796
23.067 53.8113
23.1126 50.5254
23.1581 49.0035
23.2037 48.6859
23.2492 48.9578
23.2948 48.7677
23.3403 48.9912
23.3859 49.6115
23.4314 51.0784
23.477 52.8507
23.5225 55.1183
23.5682 57.3964
23.6137 57.8983
23.6593 54.9906
23.7048 50.9484
23.7505 47.9528
23.796 46.4497
23.8417 45.8815
23.8872 45.3202
23.9329 45.1717
23.9784 44.7903
24.0241 44.3812
24.0697 44.2689
24.1154 43.9396
24.1609 43.86
24.2066 43.6424
24.2522 43.6529
24.2979 43.138
24.3434 43.1996
24.3892 43.1522
24.4349 43.0098
24.4805 42.8206
24.5262 43.0117
24.5718 42.9106
24.6175 42.8563
24.6631 42.5504
24.7089 42.2829
24.7545 42.3434
24.8002 42.2354
24.8458 41.9784
24.8916 41.9377
24.9372 42.0936
24.983 42.6796
25.0286 42.8668
25.0744 43.276
25.12 43.699
25.1658 44.3486
25.2114 44.6235
25.2572 44.6618
25.3029 44.7122
25.3487 44.9177
25.3943 44.4946
25.4402 43.2383
25.4858 42.1639
25.5316 41.3053
25.5773 40.7289
25.6231 40.7332
25.669 40.2234
25.7147 40.3769
25.7605 40.2221
25.8062 40.4462
25.8521 40.5012
25.8977 40.4676
25.9436 40.8507
25.9893 40.8968
26.0352 41.4589
26.0809 41.4537
26.1268 41.6419
26.1725 41.2058
26.2184 40.6446
26.2641 40.3569
26.31 40.0225
26.3557 40.1095
26.4017 40.0573
26.4474 40.3288
26.4933 40.7382
26.5391 41.2546
26.585 41.6962
26.6308 42.1059
26.6767 42.188
26.7225 41.7302
26.7684 41.3138
26.8142 40.7297
26.8601 40.2708
26.9059 39.8626
26.9519 39.27
26.9979 39.1161
27.0437 38.8565
27.0896 38.622
27.1354 38.6895
27.1814 38.3742
27.2272 38.4985
27.2732 38.4551
27.3191 38.3636
27.3651 38.3519
27.4109 38.2728
27.4569 38.4952
27.5027 38.5568
27.5488 38.5947
27.5946 38.244
27.6407 38.0549
27.6865 38.0727
27.7326 37.7853
27.7784 37.7956
27.8245 37.766
27.8703 37.8368
27.9164 38.2277
27.9623 38.3075
28.0084 38.76
28.0543 39.0567
28.1003 38.9882
28.1462 38.6661
28.1923 38.2341
28.2384 37.8396
28.2843 37.4633
28.3304 37.0178
28.3764 36.4715
28.4225 36.1125
28.4684 36.2214
28.5145 35.8585
28.5605 35.8834
28.6066 35.4722
28.6526 35.3487
28.6987 35.5344
28.7447 35.4039
28.7908 35.272
28.8368 35.4221
28.8829 35.2873
28.9289 35.2739
28.9751 34.9899
29.0211 34.9062
29.0673 34.4999
29.1133 34.4273
29.1595 34.3678
29.2055 34.2785
29.2517 34.3096
29.2977 34.1994
29.3439 34.1629
29.3899 34.1541
29.4361 34.0194
29.4824 33.7821
29.5284 33.6882
29.5746 33.2737
29.6207 33.1156
29.6669 32.9524
29.713 32.9114
29.7593 32.7142
29.8053 32.7444
29.8516 32.6868
29.8977 32.6904
29.9439 32.5026
29.99 32.4688
30.0363 32.3509
30.0824 32.5859
30.1287 32.4037
30.1748 32.4134
30.2211 32.3311
30.2673 32.1926
30.3136 32.2297
30.3597 32.2143
30.406 32.1005
30.4522 31.9384
30.4985 31.9673
30.5447 32.0857
30.591 32.0536
30.6372 32.1326
30.6835 32.1219
30.7297 32.1305
30.7761 32.0716
30.8224 31.9421
30.8686 31.7594
30.915 31.5062
30.9612 31.4119
31.0076 31.2724
31.0538 31.0753
31.1002 31.0112
31.1464 30.946
31.1928 30.8617
31.2391 30.8732
31.2855 30.7372
31.3317 30.7909
31.3781 30.9085
31.4244 30.8724
31.4708 30.7752
31.5171 30.6425
31.5636 30.7223
31.6098 30.4293
31.6563 30.1773
31.7026 30.1858
31.7491 29.9747
31.7953 30.1319
31.8418 30.0585
31.8881 30.1218
31.9346 29.9914
31.9809 29.9243
32.0275 29.8065
32.074 29.8027
32.1203 29.608
32.1668 29.4617
32.2132 29.3119
32.2597 29.1737
32.306 29.136
32.3526 28.8761
32.399 28.8285
32.4455 28.7181
32.4919 28.675
32.5385 28.5365
32.5848 28.4227
32.6314 28.3535
32.6778 28.3716
32.7244 28.2521
32.7708 28.1024
32.8174 28.1075
32.8638 27.8841
32.9104 28.025
32.9569 27.9644
33.0035 27.8454
33.0499 27.7727
33.0966 27.7602
33.143 27.7851
33.1897 27.6272
33.2361 27.5254
33.2828 27.488
33.3293 27.3212
33.3759 27.2374
33.4226 27.2074
33.4691 27.0452
33.5158 26.8317
33.5623 26.8094
33.609 26.6686
33.6555 26.4941
33.7022 26.5199
33.7487 26.4023
33.7954 26.3998
33.842 26.2735
33.8887 26.3003
33.9353 26.1766
33.982 26.0411
34.0286 25.981
34.0753 25.8303
34.1219 25.9118
34.1687 25.718
34.2152 25.6007
34.262 25.5938
34.3086 25.4798
34.3554 25.5197
34.402 25.2793
34.4488 25.0931
34.4954 25.1158
34.5422 25.093
34.5889 24.9468
34.6357 24.8646
34.6825 24.8966
34.7292 24.8026
34.776 24.6849
34.8227 24.6357
34.8695 24.5727
34.9162 24.5203
34.9631 24.3091
35.0098 24.3603
35.0566 24.2768
35.1033 24.2441
35.1502 24.2056
35.1969 24.0711
35.2438 24.1265
35.2906 24.0229
35.3375 23.961
35.3842 24.011
35.4311 23.905
35.4779 23.8653
35.5248 23.8376
35.5716 23.7415
35.6185 23.6525
35.6653 23.4514
35.7123 23.5511
35.759 23.4434
35.806 23.2712
35.8528 23.1404
35.8998 23.216
35.9468 23.1006
35.9936 23.0034
36.0406 22.9731
36.0874 22.9519
36.1345 22.8117
36.1813 22.6848
36.2283 22.6677
36.2752 22.5746
36.3222 22.6158
36.3691 22.4869
36.4161 22.4397
36.463 22.3895
36.5101 22.354
36.557 22.3751
36.6041 22.1135
36.651 22.1546
36.6981 22.0195
36.745 21.9476
36.7921 21.8663
36.839 21.8473
36.8861 21.7337
36.9331 21.6394
36.9802 21.6074
37.0272 21.5531
37.0743 21.4452
37.1213 21.3505
37.1684 21.3196
37.2154 21.27
37.2626 21.2073
37.3098 21.0759
37.3568 21.06
37.404 21.0045
37.451 20.9477
37.4982 20.8758
37.5452 20.7479
37.5924 20.6965
37.6395 20.7596
37.6867 20.5868
37.7337 20.4971
37.781 20.4989
37.8281 20.3822
37.8753 20.3642
37.9224 20.2472
37.9697 20.2263
38.0168 20.1337
38.064 20.0459
38.1111 20.0405
38.1584 19.9426
38.2056 19.8973
38.2529 19.7582
38.3 19.7768
38.3473 19.7329
38.3945 19.5846
38.4418 19.6309
38.489 19.5561
38.5363 19.4277
38.5837 19.4496
38.6309 19.33
38.6782 19.3131
38.7254 19.24
38.7728 19.0825
38.82 19.0606
38.8674 18.9972
38.9146 18.9913
38.9621 18.9249
39.0093 18.8691
39.0567 18.7552
39.104 18.7431
39.1514 18.6357
39.1987 18.594
39.2461 18.6012
39.2934 18.4924
39.3409 18.4061
39.3882 18.392
39.4356 18.2644
39.483 18.2712
39.5304 18.1827
39.5778 18.2184
39.6253 18.0749
39.6726 18.0586
39.7201 18.0276
39.7675 17.9316
39.815 17.868
39.8624 17.7501
39.9099 17.7251
39.9575 17.6751
40.0049 17.624
40.0525 17.5396
40.0999 17.5111
40.1474 17.4367
40.1949 17.3888
40.2425 17.3375
40.2899 17.3219
40.3375 17.2455
40.385 17.2203
40.4326 17.1086
40.48 17.0403
40.5277 17.0583
40.5752 16.9944
40.6228 16.8992
40.6703 16.8156
40.718 16.783
40.7655 16.781
40.8132 16.6986
40.8607 16.6837
40.9084 16.6551
40.9559 16.5568
41.0036 16.5123
41.0512 16.4598
41.0989 16.4185
41.1465 16.3229
41.1942 16.2934
41.242 16.2373
41.2896 16.1418
41.3373 16.0863
41.3849 16.0882
41.4327 16.0476
41.4803 15.9681
41.5281 15.9122
41.5758 15.8631
41.6236 15.7396
41.6712 15.7555
41.7191 15.6698
41.7667 15.6335
41.8146 15.6034
41.8622 15.5233
41.9101 15.4668
41.9578 15.3889
42.0057 15.3647
42.0534 15.3279
42.1013 15.3125
42.149 15.1862
42.1969 15.168
42.2446 15.1054
42.2925 15.0686
42.3403 15.0594
42.3882 15.0027
42.436 14.9693
42.4839 14.832
42.5319 14.8442
42.5797 14.7272
42.6277 14.7441
42.6755 14.7164
42.7235 14.6088
42.7713 14.5457
42.8193 14.4814
42.8671 14.4468
42.9152 14.4209
42.963 14.3783
43.0111 14.3441
43.0589 14.2961
43.107 14.1932
43.1549 14.1587
43.2029 14.1248
43.2508 14.1216
43.2989 14.0201
43.3468 13.9588
43.3949 13.9051
43.4429 13.8501
43.491 13.8193
43.5389 13.7742
43.5871 13.6966
43.635 13.6603
43.6832 13.6818
43.7312 13.5662
43.7793 13.5235
43.8273 13.5019
43.8755 13.4367
43.9237 13.4063
43.9717 13.3582
44.0199 13.3195
44.068 13.2871
44.1162 13.2035
44.1642 13.1869
44.2125 13.1485
44.2606 13.0708
44.3088 13.006
44.3569 13.0166
44.4052 13.0161
44.4533 12.8788
44.5016 12.8271
44.5497 12.8161
44.598 12.8022
44.6461 12.7349
44.6945 12.6554
44.7426 12.6433
44.791 12.561
44.8391 12.5857
44.8875 12.5424
44.9357 12.4733
44.984 12.4844
45.0322 12.3643
45.0806 12.3253
45.1288 12.314
45.1773 12.2339
45.2257 12.2087
45.2739 12.1825
45.3224 12.1571
45.3706 12.0887
45.4191 12.0134
45.4673 11.9876
45.5158 11.9688
45.5641 11.8737
45.6126 11.8903
45.6609 11.8347
45.7094 11.7552
45.7577 11.7459
45.8063 11.6752
45.8546 11.6511
45.9031 11.5932
45.9515 11.5783
46.0001 11.5203
46.0484 11.5033
46.097 11.4641
46.1454 11.4052
46.194 11.3674
46.2424 11.3196
46.291 11.2666
46.3395 11.2319
46.3881 11.1799
46.4365 11.1778
46.4852 11.1381
46.5337 11.0871
46.5823 11.0494
46.631 11.0104
46.6795 10.9499
46.7282 10.9468
46.7767 10.8644
46.8254 10.8252
46.8739 10.7742
46.9226 10.7393
46.9712 10.7202
47.0199 10.6662
47.0685 10.6186
47.1173 10.5856
47.1658 10.5551
47.2146 10.5138
47.2632 10.434
47.312 10.4314
47.3606 10.4062
47.4095 10.3222
47.4581 10.3005
47.5069 10.2943
47.5556 10.257
47.6044 10.1551
47.6531 10.1492
47.702 10.0914
47.7507 10.0712
47.7996 10.0466
47.8483 10.0368
47.8972 10.0006
47.9461 9.9456
47.9948 9.88948
48.0438 9.88211
48.0925 9.85999
48.1415 9.8218
48.1902 9.75596
48.2392 9.76205
48.288 9.74674
48.337 9.68523
48.3858 9.62993
48.4348 9.61158
48.4837 9.57329
48.5327 9.53768
48.5815 9.49788
48.6306 9.47704
48.6795 9.40905
48.7285 9.38861
48.7774 9.34142
48.8265 9.33062
48.8754 9.3313
48.9245 9.25744
48.9734 9.23877
49.0226 9.25174
49.0715 9.13579
49.1206 9.12094
49.1696 9.0133
49.2188 9.03785
49.2679 8.99372
49.3169 8.96554
49.3661 8.92849
49.4151 8.90705
49.4643 8.85805
49.5134 8.84306
49.5626 8.75649
49.6117 8.7944
49.6609 8.70672
49.71 8.66447
49.7592 8.6797
49.8083 8.60417
49.8576 8.64667
49.9067 8.53655
49.956 8.573
50.0052 8.49356
50.0545 8.4781
50.1036 8.44657
50.153 8.39468
50.2022 8.41027
50.2515 8.3201
50.3007 8.30668
50.3501 8.23766
50.3993 8.2171
50.4487 8.21535
50.498 8.14354
50.5474 8.13097
50.5966 8.12136
50.6461 8.06851
50.6955 8.07013
50.7448 8.04143
50.7943 7.98745
50.8436 7.94996
50.8931 7.91855
50.9424 7.87011
50.9919 7.88492
51.0413 7.86919
51.0908 7.81
51.1402 7.78838
51.1897 7.73889
51.2391 7.73015
51.2887 7.68768
51.3381 7.62354
51.3877 7.60969
51.4371 7.56715
51.4867 7.516
51.5362 7.53487
51.5858 7.49894
51.6353 7.45631
51.6849 7.42578
51.7344 7.40841
51.7841 7.41372
51.8336 7.31124
51.8833 7.28692
51.9328 7.29388
51.9826 7.24753
52.0323 7.20032
52.0818 7.17549
52.1316 7.13893
52.1812 7.14124
52.231 7.10574
52.2806 7.06832
52.3304 7.0362
52.38 7.01563
52.4298 6.99135
52.4794 6.96277
52.5293 6.93037
52.5789 6.88857
52.6288 6.86257
52.6785 6.80129
52.7284 6.81261
52.7781 6.76629
52.828 6.76035
52.8777 6.71764
52.9276 6.69088
52.9774 6.69234
53.0273 6.64227
53.0771 6.64472
53.1271 6.59887
53.1769 6.56423
53.2269 6.5092
53.2767 6.44758
53.3267 6.48229
53.3765 6.44249
53.4266 6.4245
53.4766 6.39521
53.5265 6.36314
53.5765 6.28563
53.6264 6.32535
53.6765 6.28503
53.7264 6.26969
53.7765 6.18596
53.8265 6.19344
53.8766 6.21017
53.9266 6.10302
53.9767 6.12042
54.0267 6.072
54.0769 6.09538
54.1269 6.05421
54.1771 5.98052
54.2271 5.94574
54.2773 5.91278
54.3274 5.92562
54.3776 5.85915
54.4277 5.85337
54.478 5.80974
54.528 5.75934
54.5783 5.70829
54.6285 5.6638
54.6788 5.6487
54.7289 5.62099
54.7792 5.56614
54.8296 5.51527
54.8798 5.49634
54.9301 5.4532
54.9803 5.39437
55.0307 5.37335
55.0809 5.36665
55.1314 5.31041
55.1816 5.27092
55.232 5.24561
55.2823 5.21203
55.3328 5.1037
55.383 5.07413
55.4335 5.06117
55.4838 4.9887
55.5344 4.96332
55.5847 4.84504
55.6352 4.87208
55.6856 4.83844
55.7361 4.80268