File: XRD/Ni3Fe_FD0323.xy
TT I
1.27165 7.77367
1.31627 6.78641
1.36089 7.00476
1.40551 6.10362
1.45013 6.76463
1.49476 6.83473
1.53938 6.59863
1.584 5.88811
1.62863 5.04951
1.67325 5.31204
1.71787 5.39702
1.7625 4.95166
1.80712 4.81803
1.85174 4.5949
1.89636 4.54344
1.94099 4.78786
1.98562 4.78142
2.03025 4.85537
2.07487 5.00481
2.11949 4.37525
2.16411 4.78465
2.20874 13.7542
2.25338 20.0296
2.298 5.73142
2.34263 5.43331
2.38725 5.01679
2.43188 4.81349
2.4765 5.60442
2.52115 5.79886
2.56577 6.32876
2.6104 6.86188
2.65503 7.17006
2.69965 6.87232
2.7443 7.55782
2.78893 7.65629
2.83356 7.64254
2.87818 8.36428
2.92281 8.99415
2.96744 9.82125
3.01209 10.0541
3.05672 11.4807
3.10135 12.4859
3.14599 12.7531
3.19062 13.7237
3.23527 15.2429
3.2799 15.838
3.32454 16.9184
3.36917 17.604
3.4138 19.2777
3.45844 19.7904
3.50309 21.1988
3.54773 22.0906
3.59237 24.4648
3.637 87.3171
3.68164 55.6304
3.7263 26.9733
3.77094 26.3775
3.81558 27.2302
3.86022 27.8161
3.90486 29.4907
3.9495 30.0345
3.99416 31.4254
4.0388 32.9908
4.08344 34.2949
4.12809 35.4794
4.17273 38.147
4.21738 43.5088
4.26204 228.872
4.30669 199.68
4.35133 48.8845
4.39598 45.3269
4.44063 54.77
4.4853 65.0782
4.52995 51.9952
4.5746 53.6367
4.61925 54.8621
4.6639 56.8517
4.70855 59.4449
4.75322 62.8597
4.79788 65.8863
4.84253 69.221
4.88719 74.1171
4.93184 78.2233
4.97652 84.5779
5.02118 91.3902
5.06583 100.62
5.11049 115.537
5.15515 189.802
5.19981 535.17
5.24449 3465.52
5.28916 11386.0
5.33382 3612.39
5.37848 231.373
5.42315 140.52
5.46783 121.094
5.5125 110.948
5.55716 106.673
5.60183 102.571
5.6465 100.771
5.69117 98.14
5.73586 95.9072
5.78053 96.3191
5.8252 96.4416
5.86988 98.0466
5.91455 100.927
5.95924 114.487
6.00392 283.541
6.0486 1187.42
6.09328 3938.82
6.13795 3469.63
6.18263 304.149
6.22733 101.593
6.27201 87.0345
6.3167 102.944
6.36138 82.5304
6.40606 71.7362
6.45075 69.5963
6.49545 67.6692
6.54014 65.6684
6.58483 64.6119
6.62952 64.8896
6.67421 92.042
6.71892 137.303
6.76361 69.0111
6.8083 60.4202
6.853 59.321
6.89769 58.451
6.94239 57.7258
6.98711 57.5631
7.03181 57.2138
7.07651 56.7531
7.12121 56.4694
7.16591 57.0932
7.21063 56.9729
7.25533 70.435
7.30004 166.934
7.34475 89.1251
7.38945 57.7923
7.43416 56.1346
7.47889 55.7562
7.5236 56.2026
7.56831 57.0263
7.61303 58.4255
7.65774 58.3597
7.70247 57.8836
7.74719 57.6315
7.79191 58.0397
7.83663 58.5867
7.88135 59.3208
7.92607 60.3862
7.97081 61.4927
8.01553 62.8591
8.06026 64.3601
8.10498 65.9882
8.14971 74.9937
8.19446 74.1136
8.23919 71.9944
8.28392 74.1677
8.32865 76.8075
8.37339 81.8799
8.41812 89.1093
8.46288 118.761
8.50761 204.661
8.55235 467.819
8.59709 1138.0
8.64183 2093.63
8.68658 1108.27
8.73134 190.829
8.77609 105.245
8.82083 96.6181
8.86558 92.8983
8.91033 92.4548
8.9551 93.3923
8.99985 87.6869
9.04461 86.3812
9.08936 85.3619
9.13412 84.2519
9.17888 84.6532
9.22365 85.3329
9.26841 84.6644
9.31318 85.7937
9.35794 85.652
9.4027 85.9974
9.44749 86.4265
9.49226 87.4296
9.53703 88.0187
9.5818 90.2945
9.62657 94.831
9.67134 100.494
9.71614 96.3628
9.76091 97.1043
9.80569 100.129
9.85047 103.553
9.89525 126.438
9.94005 142.651
9.98484 213.916
10.0296 409.418
10.0744 826.708
10.1192 1620.74
10.164 1727.56
10.2088 497.501
10.2536 140.101
10.2984 117.434
10.3432 118.248
10.388 109.217
10.4328 130.59
10.4776 178.873
10.5224 285.333
10.5672 479.134
10.612 526.851
10.6568 222.188
10.7017 101.183
10.7465 89.6004
10.7913 86.0706
10.8361 83.3566
10.8809 81.4191
10.9257 80.9148
10.9706 81.0732
11.0154 77.0776
11.0602 75.2099
11.105 74.0234
11.1499 77.935
11.1947 84.2756
11.2395 76.0717
11.2844 71.9877
11.3292 69.2766
11.374 68.0678
11.4189 67.6533
11.4637 66.8619
11.5086 67.2402
11.5534 69.9876
11.5983 67.3659
11.6431 65.7615
11.688 64.8902
11.7328 64.8893
11.7777 64.6889
11.8225 64.4034
11.8674 64.2132
11.9122 65.001
11.9571 64.9011
12.002 65.8361
12.0468 72.2014
12.0917 85.5069
12.1366 107.445
12.1814 150.001
12.2263 201.724
12.2712 179.449
12.3161 102.242
12.3609 72.7078
12.4058 67.0561
12.4507 66.481
12.4956 66.6109
12.5405 66.5693
12.5853 67.5655
12.6302 74.2844
12.6751 79.839
12.72 71.9855
12.7649 69.6587
12.8098 70.3485
12.8547 71.7309
12.8996 73.2515
12.9445 74.8694
12.9894 76.3731
13.0343 78.3371
13.0792 82.018
13.1242 95.4934
13.1691 124.056
13.214 161.847
13.2589 237.785
13.3038 347.028
13.3487 428.323
13.3937 288.715
13.4386 134.781
13.4835 114.94
13.5285 132.779
13.5734 167.887
13.6183 236.584
13.6633 328.327
13.7082 345.858
13.7531 207.926
13.7981 103.86
13.843 84.3952
13.888 82.1411
13.9329 79.2661
13.9779 78.0262
14.0228 76.9125
14.0678 75.1416
14.1127 74.7009
14.1577 74.5633
14.2027 73.6755
14.2476 72.6501
14.2926 72.5468
14.3376 73.8111
14.3825 72.3809
14.4275 71.0775
14.4725 71.1921
14.5175 71.0664
14.5624 71.2307
14.6074 73.1149
14.6524 73.7796
14.6974 72.801
14.7424 75.3443
14.7874 84.4391
14.8324 96.0216
14.8774 116.423
14.9224 151.143
14.9674 199.152
15.0124 221.892
15.0574 158.789
15.1024 95.8834
15.1474 74.9318
15.1924 72.8086
15.2374 73.1914
15.2824 72.3613
15.3274 70.1528
15.3725 68.8634
15.4175 68.3661
15.4625 68.0647
15.5076 68.4049
15.5526 68.192
15.5976 68.008
15.6426 69.8674
15.6877 77.2014
15.7327 85.9882
15.7778 100.322
15.8228 126.239
15.8679 162.881
15.9129 195.049
15.958 168.065
16.003 104.876
16.0481 70.642
16.0931 66.5411
16.1382 64.6592
16.1833 62.4654
16.2283 60.8104
16.2734 60.069
16.3185 60.3271
16.3636 61.0991
16.4086 59.5207
16.4537 57.9402
16.4988 57.2669
16.5439 57.0513
16.589 56.8675
16.6341 56.553
16.6792 56.0504
16.7243 56.5538
16.7694 56.6797
16.8145 56.4308
16.8596 56.9864
16.9047 58.255
16.9498 58.7091
16.9949 57.5356
17.04 57.6044
17.0851 59.5765
17.1302 61.2208
17.1754 64.332
17.2205 68.7162
17.2656 74.5673
17.3108 82.6705
17.3559 83.8404
17.401 74.5103
17.4462 64.739
17.4913 61.0182
17.5365 61.1131
17.5815 61.1631
17.6268 61.5671
17.6718 62.4432
17.7171 62.9565
17.7622 63.2673
17.8074 64.1067
17.8525 67.4569
17.8977 72.1596
17.9428 77.9019
17.9881 86.2787
18.0331 100.796
18.0784 118.734
18.1237 139.72
18.1688 138.534
18.214 111.736
18.2591 90.9004
18.3044 91.1351
18.3495 99.2104
18.3948 107.328
18.4399 100.167
18.4852 80.9625
18.5303 68.3119
18.5756 64.2585
18.6207 63.2172
18.666 62.1738
18.7112 61.4274
18.7565 60.8729
18.8016 60.5587
18.8469 59.8213
18.892 59.4122
18.9374 59.1493
18.9825 58.9469
19.0278 58.5368
19.073 58.936
19.1183 59.8267
19.1635 60.4821
19.2088 61.7233
19.254 64.1553
19.2993 67.5307
19.3447 72.7463
19.3898 77.8945
19.4352 75.3543
19.4804 66.3857
19.5257 59.0326
19.5709 56.0935
19.6163 55.6901
19.6615 55.321
19.7068 55.0063
19.752 55.0031
19.7974 55.624
19.8426 56.3108
19.888 57.2205
19.9332 58.4021
19.9786 60.5553
20.0238 63.6054
20.0692 67.6242
20.1144 71.3035
20.1598 70.8923
20.205 66.3082
20.2504 63.4917
20.2957 64.5462
20.3411 66.7523
20.3863 66.4911
20.4318 61.0304
20.477 55.467
20.5224 53.2697
20.5677 52.6281
20.6131 51.8893
20.6586 51.2711
20.7038 51.2177
20.7493 50.7418
20.7945 50.5201
20.84 50.4048
20.8853 50.3524
20.9307 50.1079
20.976 50.2021
21.0215 50.3451
21.0668 50.7855
21.1122 51.0742
21.1575 51.6181
21.203 52.1038
21.2483 52.7667
21.2938 53.2215
21.3391 51.948
21.3846 50.5223
21.4299 50.1212
21.4754 50.0288
21.5207 50.0285
21.5662 50.4028
21.6116 51.0319
21.6571 51.8428
21.7024 52.793
21.7479 54.4436
21.7933 56.8321
21.8388 60.0031
21.8843 63.3166
21.9297 66.4951
21.9752 65.9832
22.0206 62.0966
22.0661 58.1384
22.1115 57.2393
22.157 57.5369
22.2024 56.3121
22.248 53.4711
22.2933 51.6158
22.3389 50.5771
22.3843 50.6272
22.4299 50.3131
22.4753 50.4113
22.5208 50.2099
22.5662 50.1318
22.6118 50.2163
22.6572 50.6073
22.7028 51.0351
22.7483 51.4996
22.7939 52.3158
22.8393 53.7134
22.8849 55.2545
22.9303 57.0639
22.9759 58.9929
23.0214 59.3223
23.067 56.68
23.1126 53.025
23.1581 50.8285
23.2037 50.5457
23.2492 50.5309
23.2948 50.6853
23.3403 51.0083
23.3859 51.5637
23.4314 52.4519
23.477 54.0141
23.5225 55.6465
23.5682 57.7072
23.6137 59.4252
23.6593 57.9005
23.7048 53.7824
23.7505 50.014
23.796 48.1773
23.8417 47.4575
23.8872 47.0484
23.9329 46.6823
23.9784 46.213
24.0241 46.0598
24.0697 45.8088
24.1154 45.6021
24.1609 45.3331
24.2066 45.1136
24.2522 45.1017
24.2979 44.8402
24.3434 44.7874
24.3892 44.6248
24.4349 44.5311
24.4805 44.2142
24.5262 44.5663
24.5718 44.1214
24.6175 44.39
24.6631 44.2448
24.7089 44.022
24.7545 43.7149
24.8002 43.5792
24.8458 43.5492
24.8916 43.363
24.9372 43.6017
24.983 43.9263
25.0286 44.3779
25.0744 44.5904
25.12 44.9662
25.1658 45.6928
25.2114 46.0803
25.2572 45.9434
25.3029 46.0846
25.3487 46.1746
25.3943 46.1345
25.4402 45.0523
25.4858 44.0832
25.5316 42.716
25.5773 42.3388
25.6231 42.1651
25.669 41.7968
25.7147 41.9558
25.7605 41.6277
25.8062 41.8359
25.8521 41.9291
25.8977 41.8043
25.9436 42.1609
25.9893 42.1479
26.0352 42.6835
26.0809 42.7679
26.1268 43.0256
26.1725 42.6007
26.2184 42.2067
26.2641 41.6669
26.31 41.5318
26.3557 41.461
26.4017 41.5091
26.4474 41.7859
26.4933 42.0659
26.5391 42.5018
26.585 42.7844
26.6308 43.1842
26.6767 43.2337
26.7225 43.2561
26.7684 42.7008
26.8142 42.2611
26.8601 41.7153
26.9059 41.3916
26.9519 40.8179
26.9979 40.4903
27.0437 40.1292
27.0896 40.0981
27.1354 40.1329
27.1814 39.9353
27.2272 39.7345
27.2732 39.7135
27.3191 39.5303
27.3651 39.6536
27.4109 39.6042
27.4569 39.6217
27.5027 39.6523
27.5488 39.864
27.5946 39.6172
27.6407 39.3159
27.6865 39.2958
27.7326 38.9992
27.7784 39.0949
27.8245 38.8795
27.8703 39.1708
27.9164 39.3779
27.9623 39.4248
28.0084 39.7576
28.0543 40.2368
28.1003 40.1706
28.1462 39.9768
28.1923 39.6979
28.2384 39.1504
28.2843 38.8173
28.3304 38.3501
28.3764 37.9535
28.4225 37.5833
28.4684 37.448
28.5145 37.0907
28.5605 36.9909
28.6066 36.8314
28.6526 36.774
28.6987 36.7486
28.7447 36.5064
28.7908 36.4918
28.8368 36.6023
28.8829 36.446
28.9289 36.3862
28.9751 36.2047
29.0211 36.0741
29.0673 35.8029
29.1133 35.6489
29.1595 35.525
29.2055 35.4342
29.2517 35.3668
29.2977 35.2216
29.3439 35.2009
29.3899 35.2968
29.4361 35.1615
29.4824 35.0536
29.5284 34.8854
29.5746 34.4945
29.6207 34.136
29.6669 34.1265
29.713 34.043
29.7593 33.8759
29.8053 33.9
29.8516 33.7166
29.8977 33.8335
29.9439 33.6544
29.99 33.5974
30.0363 33.4367
30.0824 33.503
30.1287 33.3781
30.1748 33.4377
30.2211 33.3829
30.2673 33.2205
30.3136 33.451
30.3597 33.3053
30.406 33.1406
30.4522 33.0963
30.4985 33.0365
30.5447 33.0845
30.591 33.0937
30.6372 33.1891
30.6835 33.0363
30.7297 33.1595
30.7761 33.1463
30.8224 32.9768
30.8686 32.8527
30.915 32.5341
30.9612 32.418
31.0076 32.1986
31.0538 32.1331
31.1002 32.04
31.1464 31.9071
31.1928 31.8649
31.2391 31.9229
31.2855 31.8591
31.3317 31.7896
31.3781 31.8239
31.4244 31.8243
31.4708 31.7482
31.5171 31.7704
31.5636 31.7413
31.6098 31.5512
31.6563 31.2349
31.7026 31.2033
31.7491 31.0924
31.7953 31.068
31.8418 30.9908
31.8881 31.1173
31.9346 30.9822
31.9809 30.9989
32.0275 30.8702
32.074 30.7665
32.1203 30.5366
32.1668 30.4082
32.2132 30.2863
32.2597 30.1865
32.306 30.1192
32.3526 30.0036
32.399 29.8294
32.4455 29.7686
32.4919 29.5851
32.5385 29.6095
32.5848 29.3414
32.6314 29.4301
32.6778 29.2755
32.7244 29.1955
32.7708 29.0451
32.8174 29.0288
32.8638 28.8698
32.9104 28.9855
32.9569 28.8923
33.0035 28.7256
33.0499 28.7201
33.0966 28.7344
33.143 28.6622
33.1897 28.5603
33.2361 28.4606
33.2828 28.4092
33.3293 28.2782
33.3759 28.3034
33.4226 28.0394
33.4691 27.924
33.5158 27.9042
33.5623 27.8377
33.609 27.5808
33.6555 27.4584
33.7022 27.4054
33.7487 27.4398
33.7954 27.3191
33.842 27.2057
33.8887 27.1442
33.9353 27.0244
33.982 26.8978
34.0286 26.8673
34.0753 26.7715
34.1219 26.7235
34.1687 26.7198
34.2152 26.5745
34.262 26.5083
34.3086 26.3092
34.3554 26.3712
34.402 26.1994
34.4488 26.1478
34.4954 26.0614
34.5422 25.9555
34.5889 25.826
34.6357 25.7865
34.6825 25.7024
34.7292 25.6957
34.776 25.4867
34.8227 25.4875
34.8695 25.4087
34.9162 25.3211
34.9631 25.2197
35.0098 25.2163
35.0566 25.1467
35.1033 25.0425
35.1502 25.0409
35.1969 24.9263
35.2438 24.8807
35.2906 24.8453
35.3375 24.759
35.3842 24.6936
35.4311 24.6393
35.4779 24.6382
35.5248 24.6269
35.5716 24.5194
35.6185 24.4514
35.6653 24.2773
35.7123 24.3405
35.759 24.1606
35.806 24.0839
35.8528 23.9191
35.8998 23.8885
35.9468 23.864
35.9936 23.8065
36.0406 23.6909
36.0874 23.6976
36.1345 23.61
36.1813 23.4514
36.2283 23.3678
36.2752 23.2715
36.3222 23.3382
36.3691 23.2489
36.4161 23.0293
36.463 23.1789
36.5101 23.1378
36.557 23.063
36.6041 22.9366
36.651 22.8476
36.6981 22.8118
36.745 22.7295
36.7921 22.7271
36.839 22.5323
36.8861 22.4687
36.9331 22.3627
36.9802 22.3745
37.0272 22.246
37.0743 22.141
37.1213 22.1533
37.1684 22.0546
37.2154 22.058
37.2626 21.9134
37.3098 21.8847
37.3568 21.8381
37.404 21.757
37.451 21.6349
37.4982 21.5769
37.5452 21.4832
37.5924 21.4396
37.6395 21.4346
37.6867 21.3347
37.7337 21.2413
37.781 21.2083
37.8281 21.0494
37.8753 20.9693
37.9224 21.0167
37.9697 20.9037
38.0168 20.8429
38.064 20.7187
38.1111 20.7269
38.1584 20.6527
38.2056 20.5517
38.2529 20.5026
38.3 20.4152
38.3473 20.4789
38.3945 20.2435
38.4418 20.2768
38.489 20.2217
38.5363 20.0983
38.5837 20.0366
38.6309 20.0153
38.6782 19.9923
38.7254 19.856
38.7728 19.7926
38.82 19.6817
38.8674 19.682
38.9146 19.6121
38.9621 19.5819
39.0093 19.5084
39.0567 19.4192
39.104 19.3984
39.1514 19.234
39.1987 19.2859
39.2461 19.2208
39.2934 19.2015
39.3409 19.0508
39.3882 18.9723
39.4356 18.8862
39.483 18.8676
39.5304 18.829
39.5778 18.805
39.6253 18.6752
39.6726 18.6977
39.7201 18.5961
39.7675 18.5297
39.815 18.4713
39.8624 18.359
39.9099 18.4261
39.9575 18.2895
40.0049 18.2043
40.0525 18.1461
40.0999 18.1112
40.1474 18.1458
40.1949 17.94
40.2425 17.9068
40.2899 17.8284
40.3375 17.8666
40.385 17.8212
40.4326 17.6566
40.48 17.6786
40.5277 17.6608
40.5752 17.5591
40.6228 17.4512
40.6703 17.444
40.718 17.3709
40.7655 17.3562
40.8132 17.3045
40.8607 17.2703
40.9084 17.1806
40.9559 17.1448
41.0036 17.0842
41.0512 16.9913
41.0989 16.9366
41.1465 16.9084
41.1942 16.8496
41.242 16.7835
41.2896 16.709
41.3373 16.6778
41.3849 16.6277
41.4327 16.5246
41.4803 16.4599
41.5281 16.4154
41.5758 16.3932
41.6236 16.2972
41.6712 16.2403
41.7191 16.1903
41.7667 16.1585
41.8146 16.1258
41.8622 16.1326
41.9101 15.9862
41.9578 15.9523
42.0057 15.8796
42.0534 15.8558
42.1013 15.829
42.149 15.7155
42.1969 15.6948
42.2446 15.5783
42.2925 15.5962
42.3403 15.4826
42.3882 15.5021
42.436 15.4481
42.4839 15.3735
42.5319 15.3566
42.5797 15.2394
42.6277 15.2004
42.6755 15.1718
42.7235 15.0877
42.7713 15.0861
42.8193 14.9568
42.8671 15.0025
42.9152 14.9823
42.963 14.8809
43.0111 14.778
43.0589 14.7877
43.107 14.7002
43.1549 14.6653
43.2029 14.5859
43.2508 14.541
43.2989 14.4547
43.3468 14.4296
43.3949 14.4273
43.4429 14.3422
43.491 14.3142
43.5389 14.2978
43.5871 14.2367
43.635 14.1162
43.6832 14.0983
43.7312 14.0476
43.7793 14.0086
43.8273 13.9414
43.8755 13.8953
43.9237 13.8478
43.9717 13.8315
44.0199 13.8131
44.068 13.7116
44.1162 13.6512
44.1642 13.6216
44.2125 13.6086
44.2606 13.5257
44.3088 13.5279
44.3569 13.4474
44.4052 13.4288
44.4533 13.3033
44.5016 13.2652
44.5497 13.2875
44.598 13.206
44.6461 13.1514
44.6945 13.1001
44.7426 13.0693
44.791 13.0097
44.8391 12.9572
44.8875 12.9626
44.9357 12.9074
44.984 12.8507
45.0322 12.8006
45.0806 12.7567
45.1288 12.6893
45.1773 12.6172
45.2257 12.6494
45.2739 12.5787
45.3224 12.5385
45.3706 12.5219
45.4191 12.3776
45.4673 12.4025
45.5158 12.354
45.5641 12.315
45.6126 12.2911
45.6609 12.2238
45.7094 12.1244
45.7577 12.1456
45.8063 12.0637
45.8546 12.0511
45.9031 12.0049
45.9515 11.94
46.0001 11.9157
46.0484 11.9031
46.097 11.8231
46.1454 11.8033
46.194 11.686
46.2424 11.6796
46.291 11.6469
46.3395 11.6143
46.3881 11.5173
46.4365 11.5726
46.4852 11.52
46.5337 11.4597
46.5823 11.446
46.631 11.3178
46.6795 11.3369
46.7282 11.2961
46.7767 11.2221
46.8254 11.1415
46.8739 11.137
46.9226 11.091
46.9712 11.079
47.0199 11.0449
47.0685 11.0403
47.1173 10.9312
47.1658 10.9081
47.2146 10.8807
47.2632 10.8392
47.312 10.7458
47.3606 10.7252
47.4095 10.6871
47.4581 10.6484
47.5069 10.6023
47.5556 10.5691
47.6044 10.5151
47.6531 10.4829
47.702 10.4799
47.7507 10.3984
47.7996 10.3976
47.8483 10.3764
47.8972 10.3055
47.9461 10.3182
47.9948 10.242
48.0438 10.2127
48.0925 10.1844
48.1415 10.149
48.1902 10.0868
48.2392 10.064
48.288 10.0409
48.337 9.99107
48.3858 9.94025
48.4348 9.92599
48.4837 9.91
48.5327 9.83328
48.5815 9.8229
48.6306 9.79183
48.6795 9.74862
48.7285 9.70818
48.7774 9.64725
48.8265 9.65864
48.8754 9.60019
48.9245 9.59242
48.9734 9.52635
49.0226 9.50294
49.0715 9.4895
49.1206 9.41991
49.1696 9.36832
49.2188 9.34931
49.2679 9.35655
49.3169 9.27782
49.3661 9.23821
49.4151 9.22362
49.4643 9.16805
49.5134 9.11343
49.5626 9.07827
49.6117 9.05585
49.6609 9.03626
49.71 8.95514
49.7592 8.97885
49.8083 8.92913
49.8576 8.91773
49.9067 8.86299
49.956 8.8479
50.0052 8.78844
50.0545 8.78062
50.1036 8.7562
50.153 8.697
50.2022 8.65866
50.2515 8.64021
50.3007 8.59049
50.3501 8.57123
50.3993 8.51504
50.4487 8.5187
50.498 8.46967
50.5474 8.4229
50.5966 8.36958
50.6461 8.39209
50.6955 8.37095
50.7448 8.32749
50.7943 8.2879
50.8436 8.22782
50.8931 8.19408
50.9424 8.14646
50.9919 8.09964
51.0413 8.12143
51.0908 8.05567
51.1402 8.03935
51.1897 8.00927
51.2391 7.98986
51.2887 7.93462
51.3381 7.89257
51.3877 7.84918
51.4371 7.8599
51.4867 7.7885
51.5362 7.7587
51.5858 7.75418
51.6353 7.69095
51.6849 7.68385
51.7344 7.65871
51.7841 7.60763
51.8336 7.56934
51.8833 7.56541
51.9328 7.5033
51.9826 7.497
52.0323 7.43164
52.0818 7.43608
52.1316 7.39086
52.1812 7.38384
52.231 7.30513
52.2806 7.30499
52.3304 7.28098
52.38 7.26514
52.4298 7.23899
52.4794 7.14717
52.5293 7.19642
52.5789 7.104
52.6288 7.10686
52.6785 7.07041
52.7284 7.01496
52.7781 7.02709
52.828 6.98984
52.8777 6.97887
52.9276 6.94927
52.9774 6.88976
53.0273 6.87458
53.0771 6.83208
53.1271 6.79266
53.1769 6.75226
53.2269 6.74404
53.2767 6.73314
53.3267 6.7005
53.3765 6.69167
53.4266 6.61496
53.4766 6.62845
53.5265 6.53121
53.5765 6.53
53.6264 6.52745
53.6765 6.49951
53.7264 6.47366
53.7765 6.47376
53.8265 6.40668
53.8766 6.37282
53.9266 6.37686
53.9767 6.33218
54.0267 6.29003
54.0769 6.30304
54.1269 6.26822
54.1771 6.18338
54.2271 6.19121
54.2773 6.18613
54.3274 6.1083
54.3776 6.06237
54.4277 6.0625
54.478 6.01339
54.528 5.96427
54.5783 5.91391
54.6285 5.9101
54.6788 5.84212
54.7289 5.80593
54.7792 5.77786
54.8296 5.70585
54.8798 5.6684
54.9301 5.67548
54.9803 5.61801
55.0307 5.62737
55.0809 5.56835
55.1314 5.4941
55.1816 5.4517
55.232 5.40324
55.2823 5.34021
55.3328 5.28583
55.383 5.22692
55.4335 5.23544
55.4838 5.17126
55.5344 5.16849
55.5847 5.05611
55.6352 5.01821
55.6856 4.96856
55.7361 4.93325