File: XRD/Ni3Fe_FD0791.xy
TT I
1.27165 7.12556
1.31627 6.76061
1.36089 6.22223
1.40551 5.8648
1.45013 5.78487
1.49476 5.38803
1.53938 6.38013
1.584 5.2557
1.62863 5.17708
1.67325 5.19304
1.71787 5.37308
1.7625 4.88129
1.80712 4.96462
1.85174 4.62676
1.89636 4.80627
1.94099 5.25516
1.98562 4.64723
2.03025 4.48698
2.07487 4.87493
2.11949 5.39192
2.16411 5.12099
2.20874 10.9936
2.25338 15.5032
2.298 5.51137
2.34263 5.33774
2.38725 5.71182
2.43188 6.34963
2.4765 7.10508
2.52115 7.42175
2.56577 7.5581
2.6104 8.10286
2.65503 7.61626
2.69965 8.90018
2.7443 8.70015
2.78893 7.96468
2.83356 8.41696
2.87818 8.32109
2.92281 8.82385
2.96744 9.04147
3.01209 10.3969
3.05672 11.4558
3.10135 12.5117
3.14599 12.7827
3.19062 14.1779
3.23527 14.8695
3.2799 15.9044
3.32454 17.0006
3.36917 17.8013
3.4138 18.9059
3.45844 19.3336
3.50309 20.7896
3.54773 21.2741
3.59237 23.2082
3.637 66.898
3.68164 45.4847
3.7263 25.7184
3.77094 25.6524
3.81558 26.7235
3.86022 26.9816
3.90486 28.6356
3.9495 29.7412
3.99416 30.4893
4.0388 31.9249
4.08344 33.2005
4.12809 34.5497
4.17273 36.2515
4.21738 40.4216
4.26204 173.78
4.30669 148.646
4.35133 45.5865
4.39598 43.4281
4.44063 50.7373
4.4853 58.4098
4.52995 51.311
4.5746 52.4349
4.61925 53.2285
4.6639 55.0793
4.70855 58.0566
4.75322 60.644
4.79788 64.3954
4.84253 67.2803
4.88719 72.0436
4.93184 74.8361
4.97652 80.3265
5.02118 86.7278
5.06583 93.9215
5.11049 105.191
5.15515 158.837
5.19981 362.007
5.24449 2804.32
5.28916 12403.9
5.33382 2524.43
5.37848 177.955
5.42315 125.877
5.46783 112.996
5.5125 106.25
5.55716 100.894
5.60183 97.4488
5.6465 95.6591
5.69117 93.5142
5.73586 91.6147
5.78053 92.2681
5.8252 91.808
5.86988 93.2948
5.91455 93.7247
5.95924 102.683
6.00392 219.331
6.0486 969.723
6.09328 4552.9
6.13795 3038.77
6.18263 200.952
6.22733 89.1596
6.27201 80.2403
6.3167 90.9182
6.36138 76.1401
6.40606 68.4047
6.45075 66.7488
6.49545 64.9711
6.54014 63.2895
6.58483 62.2856
6.62952 61.9151
6.67421 81.7681
6.71892 110.937
6.76361 64.0602
6.8083 58.4434
6.853 57.6725
6.89769 56.6972
6.94239 56.1141
6.98711 54.7623
7.03181 55.2483
7.07651 54.7224
7.12121 54.7665
7.16591 54.7683
7.21063 54.96
7.25533 64.8019
7.30004 132.533
7.34475 77.0844
7.38945 54.8447
7.43416 53.6531
7.47889 53.6387
7.5236 54.0734
7.56831 54.9725
7.61303 55.6428
7.65774 56.1891
7.70247 56.0665
7.74719 55.7989
7.79191 56.0877
7.83663 56.4701
7.88135 57.1508
7.92607 58.255
7.97081 59.2323
8.01553 60.185
8.06026 61.8144
8.10498 63.2508
8.14971 70.2329
8.19446 70.4367
8.23919 68.7804
8.28392 71.1373
8.32865 73.4139
8.37339 77.5174
8.41812 83.9871
8.46288 106.699
8.50761 171.748
8.55235 383.137
8.59709 1205.19
8.64183 2192.18
8.68658 874.509
8.73134 151.158
8.77609 97.0906
8.82083 91.144
8.86558 89.3336
8.91033 89.2458
8.9551 89.0094
8.99985 84.5539
9.04461 82.9956
9.08936 82.4216
9.13412 81.6123
9.17888 81.5262
9.22365 81.7291
9.26841 81.1042
9.31318 82.4047
9.35794 83.1236
9.4027 83.0995
9.44749 83.5074
9.49226 83.9859
9.53703 84.8237
9.5818 86.9374
9.62657 91.2267
9.67134 95.0222
9.71614 92.1758
9.76091 93.3111
9.80569 96.5373
9.85047 99.1994
9.89525 115.845
9.94005 128.996
9.98484 182.924
10.0296 345.131
10.0744 835.87
10.1192 1786.01
10.164 1501.29
10.2088 342.217
10.2536 120.114
10.2984 109.441
10.3432 109.664
10.388 103.602
10.4328 119.831
10.4776 161.454
10.5224 290.453
10.5672 536.65
10.612 482.678
10.6568 182.231
10.7017 93.6314
10.7465 85.3525
10.7913 82.0624
10.8361 80.2097
10.8809 78.1147
10.9257 77.1124
10.9706 77.3362
11.0154 74.0003
11.0602 71.6008
11.105 70.82
11.1499 73.2446
11.1947 77.1839
11.2395 71.5823
11.2844 68.8251
11.3292 66.3869
11.374 65.5815
11.4189 64.8559
11.4637 64.3192
11.5086 64.5205
11.5534 66.0839
11.5983 64.2953
11.6431 62.7618
11.688 62.2145
11.7328 62.1673
11.7777 62.3018
11.8225 61.8188
11.8674 61.8557
11.9122 62.1207
11.9571 62.3852
12.002 63.4515
12.0468 67.7824
12.0917 77.5849
12.1366 102.248
12.1814 157.859
12.2263 214.463
12.2712 166.403
12.3161 87.8138
12.3609 67.1756
12.4058 63.5787
12.4507 63.632
12.4956 63.7572
12.5405 63.8457
12.5853 64.7914
12.6302 69.7552
12.6751 73.3595
12.72 68.0908
12.7649 67.0791
12.8098 67.7273
12.8547 68.9905
12.8996 70.56
12.9445 71.7637
12.9894 73.7691
13.0343 75.4872
13.0792 78.8342
13.1242 89.436
13.1691 111.133
13.214 149.005
13.2589 246.795
13.3038 386.607
13.3487 419.138
13.3937 238.168
13.4386 116.766
13.4835 104.937
13.5285 119.664
13.5734 159.202
13.6183 257.083
13.6633 362.895
13.7082 328.241
13.7531 167.808
13.7981 92.6537
13.843 80.5776
13.888 78.6806
13.9329 76.3157
13.9779 75.2109
14.0228 73.5199
14.0678 72.161
14.1127 71.7837
14.1577 71.2973
14.2027 70.5624
14.2476 69.5909
14.2926 69.7056
14.3376 70.2662
14.3825 69.2701
14.4275 68.0423
14.4725 68.0705
14.5175 68.117
14.5624 68.2792
14.6074 69.7674
14.6524 70.4097
14.6974 69.9012
14.7424 72.117
14.7874 78.6618
14.8324 88.5163
14.8774 111.596
14.9224 157.874
14.9674 215.624
15.0124 220.081
15.0574 140.39
15.1024 85.442
15.1474 71.136
15.1924 69.1825
15.2374 69.1241
15.2824 68.634
15.3274 67.1149
15.3725 65.8608
15.4175 65.8036
15.4625 65.3444
15.5076 65.3364
15.5526 65.4486
15.5976 65.4848
15.6426 66.748
15.6877 72.1494
15.7327 79.1109
15.7778 94.6396
15.8228 129.035
15.8679 176.105
15.9129 196.736
15.958 146.814
16.003 89.2578
16.0481 65.6511
16.0931 62.7853
16.1382 61.2486
16.1833 59.6921
16.2283 58.174
16.2734 57.4462
16.3185 57.4542
16.3636 57.8701
16.4086 56.6209
16.4537 55.2146
16.4988 54.9548
16.5439 54.8757
16.589 54.7205
16.6341 54.1832
16.6792 53.7191
16.7243 54.2152
16.7694 53.9205
16.8145 54.0953
16.8596 54.5896
16.9047 55.4985
16.9498 55.7176
16.9949 54.9714
17.04 55.2971
17.0851 56.6511
17.1302 58.3052
17.1754 61.2935
17.2205 66.6819
17.2656 75.1187
17.3108 83.1035
17.3559 81.0921
17.401 68.7839
17.4462 60.6641
17.4913 58.3574
17.5365 58.3208
17.5815 58.6927
17.6268 58.8694
17.6718 59.7513
17.7171 60.1692
17.7622 60.7978
17.8074 61.5054
17.8525 64.2643
17.8977 67.8131
17.9428 72.9744
17.9881 82.4617
18.0331 101.262
18.0784 125.212
18.1237 141.095
18.1688 126.547
18.214 98.6335
18.2591 84.5795
18.3044 91.0174
18.3495 101.711
18.3948 106.036
18.4399 92.4212
18.4852 73.9425
18.5303 64.2744
18.5756 61.443
18.6207 60.3992
18.666 59.497
18.7112 58.9838
18.7565 58.3727
18.8016 58.0346
18.8469 57.1505
18.892 57.2876
18.9374 56.6175
18.9825 56.2714
19.0278 56.2914
19.073 56.4311
19.1183 56.8835
19.1635 57.2493
19.2088 58.6184
19.254 61.5726
19.2993 66.3816
19.3447 72.546
19.3898 75.8198
19.4352 70.2533
19.4804 61.2561
19.5257 55.4565
19.5709 53.5918
19.6163 53.1489
19.6615 53.168
19.7068 52.8214
19.752 52.8083
19.7974 53.0727
19.8426 53.9489
19.888 54.56
19.9332 55.662
19.9786 58.4752
20.0238 62.7507
20.0692 67.8873
20.1144 69.5399
20.1598 66.8513
20.205 62.3259
20.2504 61.7446
20.2957 64.1671
20.3411 65.2885
20.3863 62.9135
20.4318 56.7141
20.477 52.5464
20.5224 50.8475
20.5677 50.1858
20.6131 49.7461
20.6586 49.2553
20.7038 49.0367
20.7493 48.5667
20.7945 48.2936
20.84 48.3182
20.8853 48.1684
20.9307 48.0675
20.976 48.1707
21.0215 48.1335
21.0668 48.4866
21.1122 48.9215
21.1575 49.6952
21.203 50.5007
21.2483 51.0991
21.2938 50.8455
21.3391 49.3207
21.3846 48.4101
21.4299 48.1639
21.4754 47.8558
21.5207 47.9907
21.5662 48.259
21.6116 48.7941
21.6571 49.5416
21.7024 50.3911
21.7479 52.3689
21.7933 55.4668
21.8388 58.9903
21.8843 63.0303
21.9297 64.3317
21.9752 61.7526
22.0206 57.9879
22.0661 55.8065
22.1115 55.6926
22.157 55.4022
22.2024 53.358
22.248 50.405
22.2933 49.1281
22.3389 48.3583
22.3843 48.4549
22.4299 48.1627
22.4753 48.1912
22.5208 48.2309
22.5662 47.9615
22.6118 48.3414
22.6572 48.4632
22.7028 48.8508
22.7483 49.2706
22.7939 49.9314
22.8393 51.4965
22.8849 53.8715
22.9303 56.0802
22.9759 57.6436
23.0214 56.5698
23.067 53.2922
23.1126 50.1703
23.1581 48.4791
23.2037 48.3132
23.2492 48.3694
23.2948 48.283
23.3403 48.6021
23.3859 49.3222
23.4314 50.3319
23.477 52.4557
23.5225 54.8127
23.5682 57.1607
23.6137 57.4285
23.6593 54.3868
23.7048 50.3443
23.7505 47.3561
23.796 45.9982
23.8417 45.4748
23.8872 45.172
23.9329 44.7877
23.9784 44.3769
24.0241 44.1616
24.0697 44.1345
24.1154 43.7228
24.1609 43.5588
24.2066 43.2954
24.2522 43.3336
24.2979 43.1624
24.3434 42.8663
24.3892 42.6481
24.4349 42.5377
24.4805 42.4766
24.5262 42.7355
24.5718 42.5616
24.6175 42.5952
24.6631 42.3945
24.7089 42.0625
24.7545 41.9489
24.8002 41.9014
24.8458 41.7944
24.8916 41.6061
24.9372 41.7615
24.983 42.3083
25.0286 42.5406
25.0744 42.9809
25.12 43.3664
25.1658 44.1298
25.2114 44.2676
25.2572 44.3015
25.3029 44.5648
25.3487 44.5813
25.3943 44.0585
25.4402 42.897
25.4858 41.8194
25.5316 40.9832
25.5773 40.4693
25.6231 40.5292
25.669 40.1468
25.7147 40.0867
25.7605 40.0972
25.8062 40.0454
25.8521 40.2037
25.8977 40.1333
25.9436 40.4219
25.9893 40.7009
26.0352 41.2303
26.0809 41.2876
26.1268 41.3265
26.1725 40.8453
26.2184 40.2461
26.2641 39.8258
26.31 39.4974
26.3557 39.6738
26.4017 39.6589
26.4474 40.0515
26.4933 40.3865
26.5391 40.8724
26.585 41.5286
26.6308 41.8835
26.6767 41.8116
26.7225 41.5829
26.7684 40.929
26.8142 40.3163
26.8601 40.0171
26.9059 39.5514
26.9519 39.0221
26.9979 38.6817
27.0437 38.3855
27.0896 38.3179
27.1354 38.3422
27.1814 38.3282
27.2272 38.0377
27.2732 38.2047
27.3191 37.8923
27.3651 38.0711
27.4109 38.0797
27.4569 38.1782
27.5027 38.2012
27.5488 38.2604
27.5946 38.1446
27.6407 37.7868
27.6865 37.7046
27.7326 37.2857
27.7784 37.4259
27.8245 37.4431
27.8703 37.6306
27.9164 37.9259
27.9623 38.2118
28.0084 38.4178
28.0543 38.7661
28.1003 38.5646
28.1462 38.3559
28.1923 38.0565
28.2384 37.6364
28.2843 37.1861
28.3304 36.7358
28.3764 36.2354
28.4225 35.9708
28.4684 35.9806
28.5145 35.4632
28.5605 35.5599
28.6066 35.2543
28.6526 35.1138
28.6987 35.2796
28.7447 35.1479
28.7908 35.0345
28.8368 35.0616
28.8829 35.0678
28.9289 34.9266
28.9751 34.6866
29.0211 34.5501
29.0673 34.2753
29.1133 34.1341
29.1595 34.0393
29.2055 34.0983
29.2517 33.9564
29.2977 33.9195
29.3439 33.9831
29.3899 33.9245
29.4361 33.8148
29.4824 33.51
29.5284 33.5187
29.5746 33.1344
29.6207 32.7566
29.6669 32.7262
29.713 32.6295
29.7593 32.4762
29.8053 32.5068
29.8516 32.3799
29.8977 32.3682
29.9439 32.1996
29.99 32.248
30.0363 32.0992
30.0824 32.2178
30.1287 32.049
30.1748 32.1336
30.2211 32.1818
30.2673 31.9632
30.3136 32.0025
30.3597 31.9112
30.406 31.8368
30.4522 31.7165
30.4985 31.743
30.5447 31.8431
30.591 31.835
30.6372 31.9144
30.6835 31.8103
30.7297 31.8268
30.7761 31.7555
30.8224 31.5955
30.8686 31.5554
30.915 31.2372
30.9612 31.2131
31.0076 30.9553
31.0538 30.8315
31.1002 30.8303
31.1464 30.6101
31.1928 30.5927
31.2391 30.5719
31.2855 30.481
31.3317 30.5744
31.3781 30.5357
31.4244 30.6145
31.4708 30.481
31.5171 30.5094
31.5636 30.5104
31.6098 30.1629
31.6563 30.0179
31.7026 29.9293
31.7491 29.8499
31.7953 29.8476
31.8418 29.851
31.8881 29.883
31.9346 29.7031
31.9809 29.7664
32.0275 29.6061
32.074 29.498
32.1203 29.2883
32.1668 29.2692
32.2132 29.0814
32.2597 28.9727
32.306 28.8349
32.3526 28.6834
32.399 28.6557
32.4455 28.4487
32.4919 28.4371
32.5385 28.3445
32.5848 28.2927
32.6314 28.1058
32.6778 28.1112
32.7244 27.9722
32.7708 27.8089
32.8174 27.8316
32.8638 27.7059
32.9104 27.7014
32.9569 27.6863
33.0035 27.5511
33.0499 27.5526
33.0966 27.4993
33.143 27.5775
33.1897 27.3776
33.2361 27.2347
33.2828 27.2305
33.3293 27.1484
33.3759 27.1216
33.4226 27.0005
33.4691 26.7894
33.5158 26.7294
33.5623 26.7157
33.609 26.5102
33.6555 26.4506
33.7022 26.3308
33.7487 26.2664
33.7954 26.2303
33.842 26.1055
33.8887 26.0657
33.9353 26.0237
33.982 25.8826
34.0286 25.7852
34.0753 25.713
34.1219 25.6284
34.1687 25.5879
34.2152 25.5012
34.262 25.494
34.3086 25.2043
34.3554 25.3258
34.402 25.1553
34.4488 25.0769
34.4954 24.9581
34.5422 24.9042
34.5889 24.8016
34.6357 24.7231
34.6825 24.6402
34.7292 24.5575
34.776 24.5324
34.8227 24.4663
34.8695 24.3586
34.9162 24.3166
34.9631 24.2768
35.0098 24.2727
35.0566 24.0776
35.1033 24.0664
35.1502 24.0238
35.1969 23.9375
35.2438 23.9308
35.2906 23.9039
35.3375 23.874
35.3842 23.8165
35.4311 23.7627
35.4779 23.7036
35.5248 23.6975
35.5716 23.5171
35.6185 23.4694
35.6653 23.3316
35.7123 23.2903
35.759 23.2583
35.806 23.1003
35.8528 23.0082
35.8998 22.9966
35.9468 22.8513
35.9936 22.8605
36.0406 22.8249
36.0874 22.7697
36.1345 22.643
36.1813 22.6242
36.2283 22.525
36.2752 22.3746
36.3222 22.4038
36.3691 22.2707
36.4161 22.2752
36.463 22.2434
36.5101 22.2321
36.557 22.1443
36.6041 21.9707
36.651 21.8833
36.6981 21.9066
36.745 21.8209
36.7921 21.739
36.839 21.648
36.8861 21.547
36.9331 21.5356
36.9802 21.5679
37.0272 21.3854
37.0743 21.2811
37.1213 21.2118
37.1684 21.2003
37.2154 21.1032
37.2626 21.0683
37.3098 20.9683
37.3568 20.9094
37.404 20.9006
37.451 20.7515
37.4982 20.6899
37.5452 20.6215
37.5924 20.5731
37.6395 20.6395
37.6867 20.4962
37.7337 20.3962
37.781 20.2859
37.8281 20.2274
37.8753 20.157
37.9224 20.0663
37.9697 20.0723
38.0168 19.979
38.064 19.9398
38.1111 19.8839
38.1584 19.8772
38.2056 19.7688
38.2529 19.7024
38.3 19.6385
38.3473 19.5924
38.3945 19.4913
38.4418 19.4653
38.489 19.3864
38.5363 19.362
38.5837 19.2747
38.6309 19.2527
38.6782 19.1036
38.7254 19.0714
38.7728 19.0154
38.82 18.9449
38.8674 18.9689
38.9146 18.8385
38.9621 18.7701
39.0093 18.7558
39.0567 18.6844
39.104 18.612
39.1514 18.5248
39.1987 18.5246
39.2461 18.4646
39.2934 18.4004
39.3409 18.3116
39.3882 18.2055
39.4356 18.1819
39.483 18.078
39.5304 18.0122
39.5778 18.0096
39.6253 17.9959
39.6726 17.863
39.7201 17.9056
39.7675 17.8404
39.815 17.7607
39.8624 17.6847
39.9099 17.5671
39.9575 17.5538
40.0049 17.4966
40.0525 17.4238
40.0999 17.4714
40.1474 17.3642
40.1949 17.2996
40.2425 17.2147
40.2899 17.1561
40.3375 17.1097
40.385 17.0163
40.4326 17.0536
40.48 16.9193
40.5277 16.942
40.5752 16.9201
40.6228 16.7623
40.6703 16.7661
40.718 16.6995
40.7655 16.6508
40.8132 16.5666
40.8607 16.5676
40.9084 16.5365
40.9559 16.4357
41.0036 16.4053
41.0512 16.3381
41.0989 16.3267
41.1465 16.1818
41.1942 16.1741
41.242 16.0695
41.2896 16.066
41.3373 15.993
41.3849 15.9863
41.4327 15.9107
41.4803 15.8377
41.5281 15.8063
41.5758 15.6652
41.6236 15.6836
41.6712 15.6044
41.7191 15.5393
41.7667 15.4937
41.8146 15.4781
41.8622 15.439
41.9101 15.3784
41.9578 15.2685
42.0057 15.2683
42.0534 15.2022
42.1013 15.1501
42.149 15.0928
42.1969 15.043
42.2446 14.9984
42.2925 14.9847
42.3403 14.9265
42.3882 14.8542
42.436 14.8362
42.4839 14.6978
42.5319 14.7059
42.5797 14.6718
42.6277 14.6041
42.6755 14.5658
42.7235 14.5162
42.7713 14.5024
42.8193 14.4307
42.8671 14.3492
42.9152 14.2969
42.963 14.3125
43.0111 14.2029
43.0589 14.1657
43.107 14.1524
43.1549 14.1113
43.2029 14.0667
43.2508 13.9884
43.2989 13.9303
43.3468 13.8511
43.3949 13.8199
43.4429 13.7956
43.491 13.7558
43.5389 13.6725
43.5871 13.6686
43.635 13.6457
43.6832 13.5704
43.7312 13.4403
43.7793 13.4479
43.8273 13.3386
43.8755 13.3911
43.9237 13.2798
43.9717 13.2677
44.0199 13.25
44.068 13.1505
44.1162 13.1041
44.1642 13.1015
44.2125 13.0461
44.2606 13.0351
44.3088 12.9568
44.3569 12.9185
44.4052 12.8702
44.4533 12.8159
44.5016 12.7684
44.5497 12.7087
44.598 12.6822
44.6461 12.5905
44.6945 12.6072
44.7426 12.596
44.791 12.4846
44.8391 12.4825
44.8875 12.376
44.9357 12.3578
44.984 12.3115
45.0322 12.3009
45.0806 12.2572
45.1288 12.1839
45.1773 12.1182
45.2257 12.1096
45.2739 12.0681
45.3224 12.0424
45.3706 12.0167
45.4191 11.8947
45.4673 11.8901
45.5158 11.8496
45.5641 11.8468
45.6126 11.778
45.6609 11.7192
45.7094 11.7014
45.7577 11.6416
45.8063 11.5855
45.8546 11.6032
45.9031 11.5499
45.9515 11.4688
46.0001 11.4383
46.0484 11.428
46.097 11.3901
46.1454 11.3339
46.194 11.28
46.2424 11.2543
46.291 11.1957
46.3395 11.1659
46.3881 11.1172
46.4365 11.1494
46.4852 11.0632
46.5337 10.9986
46.5823 10.9614
46.631 10.9091
46.6795 10.8619
46.7282 10.8708
46.7767 10.835
46.8254 10.7569
46.8739 10.7038
46.9226 10.7065
46.9712 10.6559
47.0199 10.6059
47.0685 10.5312
47.1173 10.5152
47.1658 10.4987
47.2146 10.4556
47.2632 10.3784
47.312 10.4054
47.3606 10.3033
47.4095 10.2659
47.4581 10.2904
47.5069 10.2262
47.5556 10.1529
47.6044 10.1498
47.6531 10.0966
47.702 10.0716
47.7507 10.0328
47.7996 9.98299
47.8483 9.97578
47.8972 9.95199
47.9461 9.90568
47.9948 9.84863
48.0438 9.83622
48.0925 9.80313
48.1415 9.76046
48.1902 9.67972
48.2392 9.67028
48.288 9.63124
48.337 9.62554
48.3858 9.56226
48.4348 9.554
48.4837 9.5402
48.5327 9.51783
48.5815 9.40165
48.6306 9.42048
48.6795 9.34879
48.7285 9.30585
48.7774 9.28557
48.8265 9.27284
48.8754 9.21081
48.9245 9.19675
48.9734 9.16349
49.0226 9.15389
49.0715 9.0884
49.1206 9.03603
49.1696 9.00018
49.2188 8.96903
49.2679 8.95788
49.3169 8.90612
49.3661 8.84469
49.4151 8.85899
49.4643 8.84768
49.5134 8.79202
49.5626 8.73111
49.6117 8.70985
49.6609 8.66573
49.71 8.6107
49.7592 8.61063
49.8083 8.57784
49.8576 8.55129
49.9067 8.5096
49.956 8.50594
50.0052 8.44751
50.0545 8.43437
50.1036 8.40842
50.153 8.34284
50.2022 8.30659
50.2515 8.302
50.3007 8.2298
50.3501 8.17588
50.3993 8.19481
50.4487 8.16173
50.498 8.12401
50.5474 8.11813
50.5966 8.0612
50.6461 7.99503
50.6955 7.98409
50.7448 7.98833
50.7943 7.95058
50.8436 7.89986
50.8931 7.887
50.9424 7.86042
50.9919 7.83159
51.0413 7.80146
51.0908 7.78805
51.1402 7.75232
51.1897 7.70909
51.2391 7.69859
51.2887 7.62462
51.3381 7.58775
51.3877 7.59706
51.4371 7.55109
51.4867 7.49183
51.5362 7.45952
51.5858 7.43163
51.6353 7.40384
51.6849 7.35762
51.7344 7.34235
51.7841 7.32609
51.8336 7.32269
51.8833 7.27604
51.9328 7.20741
51.9826 7.19016
52.0323 7.19974
52.0818 7.12608
52.1316 7.08633
52.1812 7.1089
52.231 7.06074
52.2806 7.01165
52.3304 7.0377
52.38 6.95661
52.4298 6.92704
52.4794 6.92839
52.5293 6.881
52.5789 6.87474
52.6288 6.84228
52.6785 6.7921
52.7284 6.74611
52.7781 6.70587
52.828 6.70226
52.8777 6.68118
52.9276 6.67437
52.9774 6.6479
53.0273 6.617
53.0771 6.5582
53.1271 6.58877
53.1769 6.5263
53.2269 6.48176
53.2767 6.44072
53.3267 6.40234
53.3765 6.38655
53.4266 6.42395
53.4766 6.36327
53.5265 6.29305
53.5765 6.28228
53.6264 6.30227
53.6765 6.24839
53.7264 6.23192
53.7765 6.20827
53.8265 6.14484
53.8766 6.13755
53.9266 6.12534
53.9767 6.09639
54.0267 6.0367
54.0769 5.99707
54.1269 6.00903
54.1771 5.9685
54.2271 5.92549
54.2773 5.88818
54.3274 5.88068
54.3776 5.8308
54.4277 5.80062
54.478 5.79838
54.528 5.73948
54.5783 5.70867
54.6285 5.70633
54.6788 5.6434
54.7289 5.61838
54.7792 5.5443
54.8296 5.52822
54.8798 5.42366
54.9301 5.42407
54.9803 5.45316
55.0307 5.35733
55.0809 5.29382
55.1314 5.35037
55.1816 5.22129
55.232 5.17588
55.2823 5.18028
55.3328 5.16016
55.383 5.07681
55.4335 5.03828
55.4838 4.95676
55.5344 4.93507
55.5847 4.8971
55.6352 4.84011
55.6856 4.81479
55.7361 4.77264