File: XRD/Ni3Fe_FD0449.xy
TT I
1.27165 7.37017
1.31627 6.87591
1.36089 6.7291
1.40551 6.41021
1.45013 6.59882
1.49476 6.0628
1.53938 6.07074
1.584 5.36732
1.62863 5.39817
1.67325 4.90845
1.71787 5.78093
1.7625 5.06419
1.80712 4.79208
1.85174 5.55743
1.89636 4.98502
1.94099 4.84274
1.98562 4.37208
2.03025 4.63428
2.07487 4.78038
2.11949 4.9937
2.16411 5.23585
2.20874 11.4601
2.25338 16.5731
2.298 5.80988
2.34263 4.7994
2.38725 5.90551
2.43188 5.61177
2.4765 6.2162
2.52115 6.86735
2.56577 7.19142
2.6104 7.32592
2.65503 7.29919
2.69965 7.3553
2.7443 7.89383
2.78893 7.91285
2.83356 8.13401
2.87818 8.51254
2.92281 8.92679
2.96744 9.78613
3.01209 9.76024
3.05672 11.4928
3.10135 12.5864
3.14599 12.9548
3.19062 13.9106
3.23527 15.0968
3.2799 15.7571
3.32454 16.7766
3.36917 17.6982
3.4138 19.4301
3.45844 20.1175
3.50309 20.8033
3.54773 21.5722
3.59237 23.3293
3.637 68.7369
3.68164 45.3856
3.7263 25.875
3.77094 26.4072
3.81558 26.9909
3.86022 27.7958
3.90486 29.0238
3.9495 29.9999
3.99416 31.0729
4.0388 32.1971
4.08344 33.7025
4.12809 34.8751
4.17273 37.1766
4.21738 41.8248
4.26204 178.384
4.30669 149.66
4.35133 46.8235
4.39598 44.2222
4.44063 52.0397
4.4853 59.7761
4.52995 51.348
4.5746 52.9318
4.61925 54.5518
4.6639 56.324
4.70855 59.4178
4.75322 62.232
4.79788 65.2974
4.84253 68.9222
4.88719 73.2284
4.93184 77.3911
4.97652 83.2603
5.02118 89.9142
5.06583 98.67
5.11049 111.926
5.15515 171.161
5.19981 500.577
5.24449 3402.09
5.28916 11709.1
5.33382 2937.59
5.37848 201.944
5.42315 133.976
5.46783 116.966
5.5125 108.89
5.55716 104.908
5.60183 100.457
5.6465 99.1377
5.69117 96.8936
5.73586 95.0062
5.78053 95.0886
5.8252 94.6149
5.86988 95.7281
5.91455 98.526
5.95924 111.095
6.00392 278.645
6.0486 1191.7
6.09328 4333.38
6.13795 3297.66
6.18263 273.808
6.22733 97.0025
6.27201 84.2302
6.3167 94.4091
6.36138 78.3432
6.40606 70.4735
6.45075 68.8831
6.49545 66.6642
6.54014 64.9205
6.58483 63.842
6.62952 63.3603
6.67421 83.9762
6.71892 114.034
6.76361 65.7383
6.8083 59.3668
6.853 58.4278
6.89769 57.5991
6.94239 57.339
6.98711 56.4944
7.03181 56.2404
7.07651 55.9943
7.12121 55.733
7.16591 55.9206
7.21063 55.8606
7.25533 65.8572
7.30004 134.432
7.34475 78.4291
7.38945 56.1838
7.43416 54.7823
7.47889 54.8345
7.5236 55.3982
7.56831 56.0224
7.61303 57.2775
7.65774 57.5502
7.70247 57.0026
7.74719 56.9923
7.79191 57.4222
7.83663 57.8595
7.88135 58.5437
7.92607 59.6187
7.97081 60.8071
8.01553 61.8585
8.06026 63.4392
8.10498 65.081
8.14971 72.1937
8.19446 71.8487
8.23919 70.9
8.28392 73.3618
8.32865 75.9206
8.37339 80.4818
8.41812 87.4061
8.46288 112.545
8.50761 201.78
8.55235 461.223
8.59709 1240.21
8.64183 2142.02
8.68658 983.517
8.73134 169.12
8.77609 102.223
8.82083 94.6165
8.86558 91.951
8.91033 90.9674
8.9551 90.9704
8.99985 86.7412
9.04461 84.9741
9.08936 84.2941
9.13412 83.8924
9.17888 83.6249
9.22365 83.8035
9.26841 83.7416
9.31318 84.5889
9.35794 84.8029
9.4027 85.0005
9.44749 85.8359
9.49226 86.3968
9.53703 86.9594
9.5818 89.554
9.62657 93.212
9.67134 97.7022
9.71614 94.8537
9.76091 96.1734
9.80569 98.9595
9.85047 102.225
9.89525 120.224
9.94005 136.478
9.98484 214.616
10.0296 404.927
10.0744 873.618
10.1192 1709.72
10.164 1624.34
10.2088 413.982
10.2536 130.156
10.2984 114.186
10.3432 113.516
10.388 107.608
10.4328 130.062
10.4776 177.511
10.5224 298.361
10.5672 504.016
10.612 501.461
10.6568 205.0
10.7017 98.2412
10.7465 88.3507
10.7913 84.6546
10.8361 82.5848
10.8809 80.3904
10.9257 78.9626
10.9706 79.2887
11.0154 75.8736
11.0602 73.7777
11.105 73.1503
11.1499 75.3126
11.1947 79.6749
11.2395 73.1698
11.2844 70.9757
11.3292 68.4136
11.374 67.4771
11.4189 66.2693
11.4637 65.7769
11.5086 66.1799
11.5534 67.4558
11.5983 65.9375
11.6431 64.5767
11.688 63.7981
11.7328 63.9968
11.7777 63.8727
11.8225 63.549
11.8674 63.7348
11.9122 63.8736
11.9571 64.2808
12.002 65.5165
12.0468 71.9466
12.0917 84.3643
12.1366 109.121
12.1814 156.52
12.2263 202.092
12.2712 170.271
12.3161 94.0193
12.3609 69.702
12.4058 65.5826
12.4507 65.4763
12.4956 65.5052
12.5405 65.5766
12.5853 66.5936
12.6302 71.5208
12.6751 75.3854
12.72 70.0711
12.7649 68.9108
12.8098 69.6139
12.8547 70.9502
12.8996 72.4922
12.9445 73.8306
12.9894 75.6835
13.0343 77.5463
13.0792 81.8338
13.1242 95.925
13.1691 122.062
13.214 162.062
13.2589 249.496
13.3038 365.136
13.3487 417.455
13.3937 264.484
13.4386 125.33
13.4835 113.356
13.5285 130.534
13.5734 170.628
13.6183 252.179
13.6633 337.452
13.7082 338.159
13.7531 188.3
13.7981 98.0175
13.843 83.0496
13.888 80.8812
13.9329 78.5759
13.9779 77.2985
14.0228 75.7002
14.0678 74.4192
14.1127 73.838
14.1577 73.4555
14.2027 72.6848
14.2476 71.6726
14.2926 71.7588
14.3376 72.3406
14.3825 71.3905
14.4275 70.2259
14.4725 70.232
14.5175 70.3837
14.5624 70.2618
14.6074 71.7632
14.6524 72.4564
14.6974 71.9421
14.7424 75.0585
14.7874 83.8058
14.8324 95.2041
14.8774 117.623
14.9224 157.445
14.9674 203.674
15.0124 216.963
15.0574 149.589
15.1024 90.542
15.1474 73.6215
15.1924 71.7198
15.2374 71.5962
15.2824 70.6293
15.3274 68.9942
15.3725 67.8893
15.4175 67.7668
15.4625 67.2029
15.5076 67.4045
15.5526 67.4019
15.5976 67.2645
15.6426 69.365
15.6877 76.5276
15.7327 84.8111
15.7778 100.967
15.8228 130.486
15.8679 167.629
15.9129 190.452
15.958 155.843
16.003 96.9475
16.0481 69.0949
16.0931 65.0898
16.1382 63.1392
16.1833 61.5256
16.2283 59.9821
16.2734 59.2942
16.3185 59.4566
16.3636 59.2561
16.4086 58.2073
16.4537 57.2427
16.4988 56.1595
16.5439 56.359
16.589 56.0722
16.6341 55.9367
16.6792 55.4698
16.7243 55.9252
16.7694 55.9387
16.8145 55.7119
16.8596 56.2702
16.9047 57.1043
16.9498 57.3218
16.9949 56.4119
17.04 57.1176
17.0851 58.6283
17.1302 60.2441
17.1754 63.5421
17.2205 68.4358
17.2656 75.1999
17.3108 82.3056
17.3559 82.6581
17.401 71.7516
17.4462 62.9396
17.4913 60.2008
17.5365 60.2464
17.5815 60.3835
17.6268 60.6711
17.6718 61.538
17.7171 61.9167
17.7622 62.5705
17.8074 63.4704
17.8525 67.0034
17.8977 71.3573
17.9428 77.006
17.9881 86.518
18.0331 102.573
18.0784 120.877
18.1237 138.687
18.1688 132.371
18.214 105.098
18.2591 88.5785
18.3044 91.7259
18.3495 100.269
18.3948 106.635
18.4399 97.0205
18.4852 77.867
18.5303 66.77
18.5756 63.1352
18.6207 62.4042
18.666 61.4453
18.7112 60.7498
18.7565 60.0522
18.8016 59.7181
18.8469 59.0317
18.892 58.6273
18.9374 58.2688
18.9825 58.002
19.0278 57.8517
19.073 58.2477
19.1183 58.5027
19.1635 59.6837
19.2088 61.055
19.254 63.7078
19.2993 67.7084
19.3447 72.9997
19.3898 76.8343
19.4352 73.0085
19.4804 64.0965
19.5257 57.3829
19.5709 55.1273
19.6163 54.9148
19.6615 54.5838
19.7068 54.2257
19.752 54.2322
19.7974 54.8525
19.8426 55.6905
19.888 56.3753
19.9332 57.6739
19.9786 60.36
20.0238 63.6352
20.0692 67.8159
20.1144 70.5972
20.1598 69.1218
20.205 64.6792
20.2504 63.205
20.2957 64.3824
20.3411 66.2714
20.3863 64.7587
20.4318 59.1239
20.477 54.2599
20.5224 52.2929
20.5677 51.7089
20.6131 51.0691
20.6586 50.5647
20.7038 50.361
20.7493 49.7648
20.7945 49.762
20.84 49.8325
20.8853 49.5087
20.9307 49.4002
20.976 49.8022
21.0215 49.6553
21.0668 49.9454
21.1122 50.4816
21.1575 51.0039
21.203 51.5341
21.2483 52.1907
21.2938 52.5267
21.3391 50.9916
21.3846 49.8519
21.4299 49.2933
21.4754 49.1514
21.5207 49.4206
21.5662 49.9426
21.6116 50.4342
21.6571 51.0907
21.7024 52.2044
21.7479 53.9782
21.7933 56.649
21.8388 59.88
21.8843 63.2817
21.9297 65.338
21.9752 64.3193
22.0206 60.5417
22.0661 57.2635
22.1115 56.6364
22.157 56.8128
22.2024 55.3237
22.248 52.2271
22.2933 50.668
22.3389 49.8099
22.3843 49.9458
22.4299 49.7174
22.4753 49.7483
22.5208 49.3536
22.5662 49.2726
22.6118 49.5932
22.6572 49.8739
22.7028 50.3256
22.7483 50.8258
22.7939 51.6448
22.8393 53.1194
22.8849 54.9285
22.9303 56.6847
22.9759 58.4234
23.0214 58.0543
23.067 55.3377
23.1126 52.0842
23.1581 49.9902
23.2037 49.632
23.2492 49.9797
23.2948 49.8793
23.3403 50.1432
23.3859 50.7435
23.4314 51.9504
23.477 53.6259
23.5225 55.4947
23.5682 57.4486
23.6137 58.5426
23.6593 56.5603
23.7048 52.5383
23.7505 48.9626
23.796 47.3685
23.8417 46.7746
23.8872 46.3071
23.9329 45.9816
23.9784 45.6639
24.0241 45.4292
24.0697 45.2432
24.1154 44.8999
24.1609 44.6423
24.2066 44.7375
24.2522 44.3818
24.2979 44.2372
24.3434 44.1734
24.3892 43.8043
24.4349 43.8929
24.4805 43.7424
24.5262 43.9219
24.5718 43.5987
24.6175 43.7416
24.6631 43.6076
24.7089 43.2968
24.7545 43.1798
24.8002 43.0925
24.8458 43.0342
24.8916 42.8262
24.9372 42.9837
24.983 43.2965
25.0286 43.7079
25.0744 44.139
25.12 44.6232
25.1658 45.0274
25.2114 45.4694
25.2572 45.574
25.3029 45.2891
25.3487 45.4989
25.3943 45.2069
25.4402 44.1831
25.4858 43.1798
25.5316 42.2107
25.5773 41.5577
25.6231 41.7324
25.669 41.3784
25.7147 41.2797
25.7605 41.1824
25.8062 41.2287
25.8521 41.2677
25.8977 41.249
25.9436 41.6251
25.9893 41.7067
26.0352 42.1887
26.0809 42.133
26.1268 42.424
26.1725 42.0073
26.2184 41.5737
26.2641 41.0262
26.31 40.7565
26.3557 40.9859
26.4017 40.7979
26.4474 41.3588
26.4933 41.419
26.5391 41.8173
26.585 42.4859
26.6308 42.7392
26.6767 42.8193
26.7225 42.7788
26.7684 42.0754
26.8142 41.4722
26.8601 41.0258
26.9059 40.6879
26.9519 40.1794
26.9979 39.9101
27.0437 39.5583
27.0896 39.3958
27.1354 39.345
27.1814 39.2669
27.2272 39.2597
27.2732 39.2653
27.3191 39.0547
27.3651 39.3175
27.4109 39.0514
27.4569 39.2886
27.5027 39.2025
27.5488 39.2905
27.5946 39.0016
27.6407 38.8228
27.6865 38.7073
27.7326 38.6023
27.7784 38.4478
27.8245 38.438
27.8703 38.7805
27.9164 38.9482
27.9623 39.0718
28.0084 39.3093
28.0543 39.778
28.1003 39.6169
28.1462 39.3299
28.1923 39.0173
28.2384 38.5728
28.2843 38.2193
28.3304 37.7919
28.3764 37.342
28.4225 36.9763
28.4684 36.8349
28.5145 36.6252
28.5605 36.5286
28.6066 36.3912
28.6526 36.3005
28.6987 36.1648
28.7447 36.1285
28.7908 35.9846
28.8368 36.0518
28.8829 36.0053
28.9289 35.8064
28.9751 35.7671
29.0211 35.5147
29.0673 35.2639
29.1133 35.131
29.1595 34.9081
29.2055 34.926
29.2517 34.9497
29.2977 34.9231
29.3439 34.8254
29.3899 34.7726
29.4361 34.7024
29.4824 34.6223
29.5284 34.1949
29.5746 33.9793
29.6207 33.7317
29.6669 33.5296
29.713 33.5255
29.7593 33.4971
29.8053 33.4443
29.8516 33.3602
29.8977 33.3824
29.9439 33.25
29.99 33.1716
30.0363 32.9969
30.0824 33.045
30.1287 32.8973
30.1748 33.0427
30.2211 32.9999
30.2673 32.8071
30.3136 32.9471
30.3597 32.6978
30.406 32.7362
30.4522 32.581
30.4985 32.5
30.5447 32.7461
30.591 32.6528
30.6372 32.7258
30.6835 32.7116
30.7297 32.7168
30.7761 32.7224
30.8224 32.4652
30.8686 32.3794
30.915 32.1141
30.9612 32.0546
31.0076 31.7519
31.0538 31.6724
31.1002 31.6605
31.1464 31.4609
31.1928 31.4963
31.2391 31.4929
31.2855 31.4443
31.3317 31.3895
31.3781 31.4925
31.4244 31.4319
31.4708 31.2986
31.5171 31.2356
31.5636 31.2655
31.6098 31.0599
31.6563 30.8282
31.7026 30.7287
31.7491 30.6518
31.7953 30.7056
31.8418 30.7318
31.8881 30.7205
31.9346 30.6775
31.9809 30.4868
32.0275 30.4373
32.074 30.3528
32.1203 30.018
32.1668 29.8946
32.2132 29.8869
32.2597 29.6684
32.306 29.7168
32.3526 29.5061
32.399 29.3582
32.4455 29.3618
32.4919 29.1746
32.5385 29.0745
32.5848 28.8536
32.6314 28.9386
32.6778 28.9251
32.7244 28.7902
32.7708 28.654
32.8174 28.6805
32.8638 28.4794
32.9104 28.6366
32.9569 28.4403
33.0035 28.4068
33.0499 28.3458
33.0966 28.2877
33.143 28.329
33.1897 28.1963
33.2361 28.0537
33.2828 28.0513
33.3293 27.8453
33.3759 27.7717
33.4226 27.693
33.4691 27.5242
33.5158 27.5105
33.5623 27.3613
33.609 27.1603
33.6555 27.1216
33.7022 27.053
33.7487 26.9739
33.7954 26.8607
33.842 26.8437
33.8887 26.7738
33.9353 26.6681
33.982 26.597
34.0286 26.5005
34.0753 26.4312
34.1219 26.3494
34.1687 26.2664
34.2152 26.1846
34.262 26.067
34.3086 26.0214
34.3554 25.9682
34.402 25.8406
34.4488 25.7669
34.4954 25.6389
34.5422 25.5725
34.5889 25.4955
34.6357 25.3725
34.6825 25.3244
34.7292 25.2961
34.776 25.1668
34.8227 25.0912
34.8695 25.0114
34.9162 25.0054
34.9631 24.8969
35.0098 24.9205
35.0566 24.718
35.1033 24.684
35.1502 24.651
35.1969 24.5827
35.2438 24.5855
35.2906 24.4554
35.3375 24.4713
35.3842 24.3765
35.4311 24.442
35.4779 24.4005
35.5248 24.2221
35.5716 24.0983
35.6185 24.0597
35.6653 23.9571
35.7123 23.8736
35.759 23.826
35.806 23.689
35.8528 23.606
35.8998 23.4907
35.9468 23.4658
35.9936 23.4236
36.0406 23.401
36.0874 23.3293
36.1345 23.2356
36.1813 23.1881
36.2283 23.0916
36.2752 22.9628
36.3222 23.0364
36.3691 22.9139
36.4161 22.8158
36.463 22.8155
36.5101 22.8751
36.557 22.7762
36.6041 22.6008
36.651 22.6278
36.6981 22.4675
36.745 22.4096
36.7921 22.3029
36.839 22.2128
36.8861 22.1157
36.9331 22.1121
36.9802 22.0491
37.0272 22.0338
37.0743 21.846
37.1213 21.8235
37.1684 21.71
37.2154 21.6581
37.2626 21.6336
37.3098 21.5491
37.3568 21.511
37.404 21.4573
37.451 21.3467
37.4982 21.2896
37.5452 21.1501
37.5924 21.1294
37.6395 21.2248
37.6867 21.0454
37.7337 20.936
37.781 20.8556
37.8281 20.8431
37.8753 20.7501
37.9224 20.6583
37.9697 20.5525
38.0168 20.4862
38.064 20.4149
38.1111 20.4059
38.1584 20.3826
38.2056 20.2671
38.2529 20.2349
38.3 20.0335
38.3473 20.1235
38.3945 20.0121
38.4418 19.9841
38.489 19.9351
38.5363 19.7962
38.5837 19.7297
38.6309 19.7316
38.6782 19.6504
38.7254 19.5803
38.7728 19.5602
38.82 19.4815
38.8674 19.3761
38.9146 19.3309
38.9621 19.2311
39.0093 19.2313
39.0567 19.1987
39.104 19.0881
39.1514 19.0359
39.1987 19.0016
39.2461 18.9711
39.2934 18.8924
39.3409 18.7477
39.3882 18.6538
39.4356 18.66
39.483 18.5961
39.5304 18.5776
39.5778 18.5387
39.6253 18.4657
39.6726 18.377
39.7201 18.3388
39.7675 18.233
39.815 18.2431
39.8624 18.1905
39.9099 18.1129
39.9575 18.0352
40.0049 17.971
40.0525 17.9022
40.0999 17.8838
40.1474 17.7936
40.1949 17.7482
40.2425 17.6961
40.2899 17.6065
40.3375 17.6269
40.385 17.4785
40.4326 17.5181
40.48 17.3746
40.5277 17.4218
40.5752 17.272
40.6228 17.2348
40.6703 17.1545
40.718 17.1388
40.7655 17.0268
40.8132 16.9861
40.8607 17.0343
40.9084 16.9011
40.9559 16.8826
41.0036 16.8278
41.0512 16.7916
41.0989 16.7335
41.1465 16.6224
41.1942 16.6083
41.242 16.5945
41.2896 16.4989
41.3373 16.4202
41.3849 16.3987
41.4327 16.3278
41.4803 16.2208
41.5281 16.2069
41.5758 16.163
41.6236 16.0925
41.6712 15.9774
41.7191 16.0238
41.7667 15.8961
41.8146 15.9469
41.8622 15.8055
41.9101 15.8304
41.9578 15.7437
42.0057 15.6871
42.0534 15.6255
42.1013 15.5858
42.149 15.5143
42.1969 15.431
42.2446 15.4453
42.2925 15.3933
42.3403 15.3011
42.3882 15.2853
42.436 15.272
42.4839 15.1245
42.5319 15.1648
42.5797 15.0394
42.6277 14.9967
42.6755 14.9883
42.7235 14.9256
42.7713 14.9388
42.8193 14.7814
42.8671 14.7574
42.9152 14.6747
42.963 14.6058
43.0111 14.5285
43.0589 14.537
43.107 14.5144
43.1549 14.4777
43.2029 14.4037
43.2508 14.4013
43.2989 14.3162
43.3468 14.205
43.3949 14.2026
43.4429 14.1893
43.491 14.1075
43.5389 14.0432
43.5871 13.9963
43.635 13.9004
43.6832 13.9249
43.7312 13.8118
43.7793 13.741
43.8273 13.7732
43.8755 13.7166
43.9237 13.5972
43.9717 13.6533
44.0199 13.5902
44.068 13.5603
44.1162 13.464
44.1642 13.4363
44.2125 13.399
44.2606 13.3056
44.3088 13.2843
44.3569 13.2984
44.4052 13.2235
44.4533 13.1513
44.5016 13.0768
44.5497 13.0931
44.598 13.0652
44.6461 12.9939
44.6945 12.9316
44.7426 12.8786
44.791 12.824
44.8391 12.7893
44.8875 12.7372
44.9357 12.7143
44.984 12.6304
45.0322 12.6262
45.0806 12.5449
45.1288 12.5152
45.1773 12.4422
45.2257 12.4347
45.2739 12.4079
45.3224 12.3092
45.3706 12.3373
45.4191 12.2267
45.4673 12.2448
45.5158 12.1992
45.5641 12.1415
45.6126 12.095
45.6609 12.0747
45.7094 12.0061
45.7577 11.9332
45.8063 11.8676
45.8546 11.8872
45.9031 11.8047
45.9515 11.8003
46.0001 11.7294
46.0484 11.6916
46.097 11.6454
46.1454 11.6437
46.194 11.6012
46.2424 11.5483
46.291 11.494
46.3395 11.457
46.3881 11.3804
46.4365 11.4394
46.4852 11.3579
46.5337 11.2888
46.5823 11.254
46.631 11.2102
46.6795 11.1637
46.7282 11.1296
46.7767 11.0897
46.8254 11.0217
46.8739 11.0076
46.9226 10.9564
46.9712 10.9002
47.0199 10.8926
47.0685 10.8439
47.1173 10.7863
47.1658 10.7875
47.2146 10.6853
47.2632 10.65
47.312 10.6553
47.3606 10.5935
47.4095 10.5294
47.4581 10.4988
47.5069 10.4696
47.5556 10.4356
47.6044 10.3894
47.6531 10.3825
47.702 10.3018
47.7507 10.2643
47.7996 10.2611
47.8483 10.2154
47.8972 10.189
47.9461 10.129
47.9948 10.0791
48.0438 10.0576
48.0925 10.0605
48.1415 9.96197
48.1902 9.98016
48.2392 9.93998
48.288 9.89987
48.337 9.8333
48.3858 9.81087
48.4348 9.77716
48.4837 9.75555
48.5327 9.73161
48.5815 9.6793
48.6306 9.62478
48.6795 9.59501
48.7285 9.56817
48.7774 9.56457
48.8265 9.52239
48.8754 9.48176
48.9245 9.41632
48.9734 9.39127
49.0226 9.34171
49.0715 9.31873
49.1206 9.29343
49.1696 9.25281
49.2188 9.24974
49.2679 9.17768
49.3169 9.13472
49.3661 9.12107
49.4151 9.10615
49.4643 9.03482
49.5134 9.00457
49.5626 8.94922
49.6117 8.95224
49.6609 8.94357
49.71 8.87469
49.7592 8.84124
49.8083 8.81591
49.8576 8.79735
49.9067 8.72465
49.956 8.70971
50.0052 8.6546
50.0545 8.6389
50.1036 8.58357
50.153 8.59527
50.2022 8.53761
50.2515 8.49305
50.3007 8.44149
50.3501 8.4186
50.3993 8.40457
50.4487 8.34545
50.498 8.31644
50.5474 8.2956
50.5966 8.25805
50.6461 8.22385
50.6955 8.22356
50.7448 8.18414
50.7943 8.16548
50.8436 8.1126
50.8931 8.11099
50.9424 8.04206
50.9919 8.00956
51.0413 7.99005
51.0908 7.95998
51.1402 7.89294
51.1897 7.89905
51.2391 7.85252
51.2887 7.82579
51.3381 7.79056
51.3877 7.80538
51.4371 7.72974
51.4867 7.69559
51.5362 7.68764
51.5858 7.66716
51.6353 7.59753
51.6849 7.55499
51.7344 7.49392
51.7841 7.54403
51.8336 7.46495
51.8833 7.42453
51.9328 7.4065
51.9826 7.37281
52.0323 7.3502
52.0818 7.32822
52.1316 7.30999
52.1812 7.27301
52.231 7.24918
52.2806 7.16081
52.3304 7.19785
52.38 7.12362
52.4298 7.08582
52.4794 7.07091
52.5293 7.03177
52.5789 7.03456
52.6288 6.96748
52.6785 6.96213
52.7284 6.97502
52.7781 6.90446
52.828 6.8624
52.8777 6.87108
52.9276 6.81223
52.9774 6.75885
53.0273 6.78387
53.0771 6.7535
53.1271 6.73771
53.1769 6.68132
53.2269 6.67709
53.2767 6.61556
53.3267 6.62049
53.3765 6.56878
53.4266 6.50307
53.4766 6.502
53.5265 6.50272
53.5765 6.45626
53.6264 6.40741
53.6765 6.37578
53.7264 6.34994
53.7765 6.3523
53.8265 6.32674
53.8766 6.29403
53.9266 6.26247
53.9767 6.22687
54.0267 6.21428
54.0769 6.1727
54.1269 6.15108
54.1771 6.12382
54.2271 6.12076
54.2773 6.01861
54.3274 6.06464
54.3776 6.03345
54.4277 5.96652
54.478 5.92449
54.528 5.89325
54.5783 5.8377
54.6285 5.78247
54.6788 5.77487
54.7289 5.72477
54.7792 5.67189
54.8296 5.63979
54.8798 5.60334
54.9301 5.53153
54.9803 5.51735
55.0307 5.53926
55.0809 5.46657
55.1314 5.46342
55.1816 5.3402
55.232 5.32471
55.2823 5.30526
55.3328 5.24068
55.383 5.14826
55.4335 5.17384
55.4838 5.1152
55.5344 5.05175
55.5847 4.95841
55.6352 4.97592
55.6856 4.9365
55.7361 4.86705