File: XRD/Ni3Fe_FD0343.xy
TT I
1.27165 8.04941
1.31627 6.95565
1.36089 6.83673
1.40551 6.94435
1.45013 6.69493
1.49476 6.50372
1.53938 6.25908
1.584 5.43742
1.62863 5.18848
1.67325 5.38683
1.71787 5.25846
1.7625 4.9564
1.80712 5.20928
1.85174 5.0204
1.89636 4.83357
1.94099 5.30568
1.98562 4.96397
2.03025 4.99322
2.07487 4.49307
2.11949 4.70008
2.16411 4.95038
2.20874 10.2294
2.25338 14.8874
2.298 5.3199
2.34263 5.12505
2.38725 4.87387
2.43188 5.48259
2.4765 5.93331
2.52115 5.8765
2.56577 6.78499
2.6104 7.33309
2.65503 6.71553
2.69965 7.77821
2.7443 7.57709
2.78893 7.72937
2.83356 8.03752
2.87818 9.18778
2.92281 8.76579
2.96744 9.56901
3.01209 10.0685
3.05672 11.0131
3.10135 12.4147
3.14599 12.8608
3.19062 14.0073
3.23527 14.7893
3.2799 15.8422
3.32454 16.6965
3.36917 17.7391
3.4138 19.2869
3.45844 19.8287
3.50309 21.2944
3.54773 21.6023
3.59237 23.5328
3.637 65.304
3.68164 44.8411
3.7263 26.0815
3.77094 26.1853
3.81558 27.2152
3.86022 27.7673
3.90486 29.7878
3.9495 30.2902
3.99416 31.1521
4.0388 32.8574
4.08344 34.046
4.12809 35.5863
4.17273 37.0932
4.21738 41.5525
4.26204 164.088
4.30669 142.987
4.35133 46.9719
4.39598 45.1593
4.44063 51.1802
4.4853 59.0826
4.52995 52.0467
4.5746 53.1831
4.61925 54.9406
4.6639 57.2998
4.70855 60.1777
4.75322 62.9888
4.79788 66.4322
4.84253 69.6536
4.88719 74.33
4.93184 78.2296
4.97652 84.8271
5.02118 91.9261
5.06583 101.678
5.11049 114.98
5.15515 177.149
5.19981 589.709
5.24449 3658.14
5.28916 11424.8
5.33382 3481.91
5.37848 227.325
5.42315 139.686
5.46783 121.398
5.5125 111.405
5.55716 106.706
5.60183 102.247
5.6465 100.521
5.69117 98.5197
5.73586 96.7326
5.78053 97.4202
5.8252 96.9861
5.86988 98.5426
5.91455 101.639
5.95924 116.353
6.00392 314.354
6.0486 1277.38
6.09328 4044.11
6.13795 3410.12
6.18263 283.081
6.22733 100.082
6.27201 85.949
6.3167 93.8704
6.36138 79.2624
6.40606 71.2603
6.45075 69.5519
6.49545 67.0383
6.54014 65.526
6.58483 64.6312
6.62952 63.8472
6.67421 81.5608
6.71892 110.169
6.76361 65.8199
6.8083 59.527
6.853 59.0398
6.89769 57.8757
6.94239 57.9639
6.98711 56.7818
7.03181 56.7768
7.07651 56.424
7.12121 56.1095
7.16591 56.6077
7.21063 56.7754
7.25533 65.0384
7.30004 128.64
7.34475 77.2666
7.38945 56.6644
7.43416 55.5309
7.47889 55.6232
7.5236 55.5863
7.56831 56.6661
7.61303 57.5204
7.65774 57.8689
7.70247 57.3855
7.74719 57.3174
7.79191 58.1719
7.83663 58.2325
7.88135 59.4494
7.92607 60.1608
7.97081 61.3414
8.01553 62.7428
8.06026 64.1876
8.10498 65.4697
8.14971 72.2763
8.19446 72.3698
8.23919 72.0877
8.28392 74.0442
8.32865 76.7707
8.37339 81.7039
8.41812 88.3524
8.46288 114.02
8.50761 221.575
8.55235 496.579
8.59709 1174.06
8.64183 2103.16
8.68658 1056.84
8.73134 184.685
8.77609 104.349
8.82083 96.3198
8.86558 92.7852
8.91033 91.8984
8.9551 91.7806
8.99985 87.5944
9.04461 86.0509
9.08936 85.9689
9.13412 84.568
9.17888 84.1174
9.22365 84.849
9.26841 84.6038
9.31318 86.0102
9.35794 85.9558
9.4027 85.9504
9.44749 86.7342
9.49226 87.3667
9.53703 88.3835
9.5818 90.4494
9.62657 93.7065
9.67134 98.2566
9.71614 95.6784
9.76091 97.1921
9.80569 100.426
9.85047 103.809
9.89525 120.85
9.94005 138.54
9.98484 231.126
10.0296 437.74
10.0744 868.052
10.1192 1602.56
10.164 1653.88
10.2088 478.731
10.2536 136.447
10.2984 115.931
10.3432 114.944
10.388 110.241
10.4328 135.714
10.4776 187.093
10.5224 296.459
10.5672 486.949
10.612 526.795
10.6568 216.671
10.7017 100.989
10.7465 89.4852
10.7913 85.5389
10.8361 83.4173
10.8809 81.3548
10.9257 80.2011
10.9706 80.1153
11.0154 76.5173
11.0602 74.6903
11.105 73.5701
11.1499 75.4393
11.1947 79.587
11.2395 73.773
11.2844 71.2188
11.3292 69.0025
11.374 68.0419
11.4189 67.2761
11.4637 66.5359
11.5086 66.8387
11.5534 68.0318
11.5983 66.5023
11.6431 65.2211
11.688 64.4996
11.7328 64.4172
11.7777 64.6198
11.8225 64.257
11.8674 64.1707
11.9122 64.6535
11.9571 64.7938
12.002 66.3205
12.0468 73.6089
12.0917 86.7805
12.1366 109.577
12.1814 149.978
12.2263 197.74
12.2712 173.68
12.3161 97.3695
12.3609 70.8451
12.4058 66.1936
12.4507 65.9994
12.4956 66.038
12.5405 66.0878
12.5853 66.9725
12.6302 71.613
12.6751 75.3197
12.72 70.6264
12.7649 69.895
12.8098 70.7077
12.8547 71.8896
12.8996 73.0616
12.9445 74.653
12.9894 76.8329
13.0343 78.6356
13.0792 82.9091
13.1242 98.8245
13.1691 127.191
13.214 167.752
13.2589 246.65
13.3038 351.367
13.3487 421.749
13.3937 280.286
13.4386 132.966
13.4835 117.579
13.5285 136.045
13.5734 174.13
13.6183 244.133
13.6633 331.857
13.7082 344.002
13.7531 202.279
13.7981 102.557
13.843 84.4307
13.888 82.1223
13.9329 79.4368
13.9779 78.0604
14.0228 76.6048
14.0678 75.2947
14.1127 74.9236
14.1577 74.2191
14.2027 73.3243
14.2476 72.5502
14.2926 72.4879
14.3376 72.9024
14.3825 71.8363
14.4275 70.7485
14.4725 70.8017
14.5175 71.1358
14.5624 71.0932
14.6074 72.8214
14.6524 73.1232
14.6974 72.8539
14.7424 76.5257
14.7874 86.136
14.8324 98.1236
14.8774 119.693
14.9224 154.537
14.9674 199.536
15.0124 218.12
15.0574 155.242
15.1024 95.1201
15.1474 74.6648
15.1924 72.4975
15.2374 72.1607
15.2824 71.0775
15.3274 69.6472
15.3725 68.6665
15.4175 68.373
15.4625 67.7606
15.5076 68.4107
15.5526 68.2384
15.5976 68.1928
15.6426 70.8152
15.6877 78.5728
15.7327 87.5872
15.7778 102.842
15.8228 128.562
15.8679 162.651
15.9129 190.297
15.958 163.821
16.003 103.219
16.0481 69.9628
16.0931 65.7414
16.1382 63.8539
16.1833 62.1242
16.2283 60.5255
16.2734 60.1101
16.3185 59.9373
16.3636 59.9411
16.4086 58.7494
16.4537 57.6082
16.4988 57.0844
16.5439 57.181
16.589 56.6738
16.6341 56.4911
16.6792 56.0943
16.7243 56.5831
16.7694 56.3543
16.8145 56.2892
16.8596 56.6644
16.9047 57.6057
16.9498 57.8114
16.9949 57.2336
17.04 57.9999
17.0851 59.6242
17.1302 61.1934
17.1754 64.4601
17.2205 69.0634
17.2656 74.9679
17.3108 83.0275
17.3559 84.3891
17.401 73.912
17.4462 64.3837
17.4913 61.1421
17.5365 60.7718
17.5815 61.2128
17.6268 61.3393
17.6718 62.0445
17.7171 62.5248
17.7622 63.3141
17.8074 64.3948
17.8525 68.4337
17.8977 72.8533
17.9428 78.8953
17.9881 87.6804
18.0331 102.155
18.0784 119.805
18.1237 139.669
18.1688 137.543
18.214 110.919
18.2591 91.1523
18.3044 91.9635
18.3495 99.3751
18.3948 106.09
18.4399 98.8102
18.4852 80.113
18.5303 67.8914
18.5756 64.0688
18.6207 63.1528
18.666 62.1934
18.7112 61.4422
18.7565 60.9293
18.8016 60.3693
18.8469 59.7375
18.892 59.4156
18.9374 59.0437
18.9825 58.5805
19.0278 58.5734
19.073 59.003
19.1183 59.5295
19.1635 60.4526
19.2088 61.9393
19.254 64.5216
19.2993 67.8611
19.3447 72.4739
19.3898 76.8396
19.4352 74.6907
19.4804 65.74
19.5257 58.4572
19.5709 55.9162
19.6163 55.5374
19.6615 55.4034
19.7068 55.0037
19.752 55.0158
19.7974 55.58
19.8426 56.652
19.888 57.2232
19.9332 58.5179
19.9786 60.9356
20.0238 63.9699
20.0692 68.0438
20.1144 71.32
20.1598 70.8447
20.205 66.0704
20.2504 63.5738
20.2957 64.3952
20.3411 66.4666
20.3863 65.9007
20.4318 60.3491
20.477 55.1749
20.5224 52.8671
20.5677 52.3415
20.6131 51.7169
20.6586 51.1134
20.7038 51.0022
20.7493 50.4921
20.7945 50.3148
20.84 50.2586
20.8853 50.3179
20.9307 50.0953
20.976 50.0616
21.0215 50.1592
21.0668 50.6436
21.1122 51.0644
21.1575 51.5262
21.203 51.8534
21.2483 52.695
21.2938 53.1832
21.3391 51.7955
21.3846 50.5897
21.4299 49.9343
21.4754 49.8018
21.5207 50.0981
21.5662 50.6724
21.6116 51.243
21.6571 51.9827
21.7024 52.9593
21.7479 54.6728
21.7933 57.3246
21.8388 60.0605
21.8843 63.4725
21.9297 66.1936
21.9752 65.5902
22.0206 61.7655
22.0661 57.9881
22.1115 57.1567
22.157 57.3904
22.2024 55.9495
22.248 53.0547
22.2933 51.4998
22.3389 50.5305
22.3843 50.4517
22.4299 50.3009
22.4753 50.1729
22.5208 50.1018
22.5662 50.1987
22.6118 50.3191
22.6572 50.5894
22.7028 51.1922
22.7483 51.7043
22.7939 52.2343
22.8393 53.6964
22.8849 55.3539
22.9303 57.1385
22.9759 58.9146
23.0214 58.934
23.067 56.4395
23.1126 52.7625
23.1581 50.8341
23.2037 50.46
23.2492 50.6136
23.2948 50.661
23.3403 51.0196
23.3859 51.5051
23.4314 52.5526
23.477 54.0648
23.5225 55.7159
23.5682 57.6999
23.6137 59.1148
23.6593 57.3737
23.7048 53.4996
23.7505 49.8092
23.796 47.9361
23.8417 47.525
23.8872 46.9368
23.9329 46.618
23.9784 46.3856
24.0241 46.0494
24.0697 45.7249
24.1154 45.5063
24.1609 45.2503
24.2066 45.0035
24.2522 45.0921
24.2979 44.8002
24.3434 44.5445
24.3892 44.4775
24.4349 44.3242
24.4805 44.2106
24.5262 44.3884
24.5718 44.2791
24.6175 44.2763
24.6631 44.0483
24.7089 43.7629
24.7545 43.6923
24.8002 43.4992
24.8458 43.6127
24.8916 43.4404
24.9372 43.7003
24.983 43.9353
25.0286 44.2999
25.0744 44.6269
25.12 44.985
25.1658 45.6413
25.2114 46.0386
25.2572 46.0702
25.3029 45.8057
25.3487 45.9124
25.3943 45.8855
25.4402 45.0497
25.4858 43.8648
25.5316 42.6018
25.5773 42.144
25.6231 42.15
25.669 41.8277
25.7147 41.8185
25.7605 41.752
25.8062 41.6982
25.8521 41.9309
25.8977 41.7839
25.9436 42.176
25.9893 42.1097
26.0352 42.5268
26.0809 42.5899
26.1268 42.858
26.1725 42.5401
26.2184 42.1613
26.2641 41.5379
26.31 41.3408
26.3557 41.5266
26.4017 41.4033
26.4474 41.6957
26.4933 41.985
26.5391 42.2883
26.585 42.744
26.6308 43.2687
26.6767 43.3138
26.7225 43.1688
26.7684 42.6592
26.8142 42.1014
26.8601 41.4715
26.9059 41.2689
26.9519 40.6256
26.9979 40.4008
27.0437 40.0079
27.0896 39.826
27.1354 39.98
27.1814 39.8324
27.2272 39.7107
27.2732 39.6671
27.3191 39.4675
27.3651 39.6435
27.4109 39.6136
27.4569 39.5859
27.5027 39.731
27.5488 39.7186
27.5946 39.5523
27.6407 39.3377
27.6865 39.3094
27.7326 38.9178
27.7784 39.0854
27.8245 39.0109
27.8703 39.1935
27.9164 39.4675
27.9623 39.4024
28.0084 39.8025
28.0543 40.0832
28.1003 40.1984
28.1462 39.9595
28.1923 39.5372
28.2384 38.9697
28.2843 38.7139
28.3304 38.3284
28.3764 37.748
28.4225 37.4997
28.4684 37.2845
28.5145 36.9504
28.5605 36.9545
28.6066 36.689
28.6526 36.7068
28.6987 36.5488
28.7447 36.4981
28.7908 36.4127
28.8368 36.3852
28.8829 36.4471
28.9289 36.478
28.9751 36.2084
29.0211 35.9867
29.0673 35.7124
29.1133 35.5472
29.1595 35.4957
29.2055 35.3464
29.2517 35.3759
29.2977 35.2551
29.3439 35.3434
29.3899 35.2522
29.4361 35.0818
29.4824 34.9863
29.5284 34.6446
29.5746 34.3813
29.6207 34.1195
29.6669 33.9577
29.713 34.0002
29.7593 33.7316
29.8053 33.8436
29.8516 33.8171
29.8977 33.6199
29.9439 33.6654
29.99 33.5117
30.0363 33.389
30.0824 33.4934
30.1287 33.3321
30.1748 33.3352
30.2211 33.3807
30.2673 33.2126
30.3136 33.3292
30.3597 33.2387
30.406 33.2179
30.4522 33.0396
30.4985 32.9821
30.5447 33.0903
30.591 33.0659
30.6372 33.1137
30.6835 33.0776
30.7297 33.1838
30.7761 33.1872
30.8224 33.026
30.8686 32.7442
30.915 32.5975
30.9612 32.4294
31.0076 32.2955
31.0538 32.1199
31.1002 32.0323
31.1464 31.8324
31.1928 31.913
31.2391 31.8939
31.2855 31.7589
31.3317 31.7271
31.3781 31.8475
31.4244 31.776
31.4708 31.7939
31.5171 31.57
31.5636 31.6491
31.6098 31.5136
31.6563 31.23
31.7026 31.1651
31.7491 31.0091
31.7953 31.0386
31.8418 31.0418
31.8881 31.1023
31.9346 30.9108
31.9809 30.8954
32.0275 30.7758
32.074 30.6751
32.1203 30.4379
32.1668 30.4549
32.2132 30.1963
32.2597 30.0982
32.306 30.0021
32.3526 29.7647
32.399 29.8114
32.4455 29.5251
32.4919 29.523
32.5385 29.5101
32.5848 29.3704
32.6314 29.2948
32.6778 29.2246
32.7244 29.0795
32.7708 28.8683
32.8174 29.0141
32.8638 28.9479
32.9104 28.9081
32.9569 28.8294
33.0035 28.6326
33.0499 28.6794
33.0966 28.6427
33.143 28.6053
33.1897 28.6029
33.2361 28.3654
33.2828 28.3365
33.3293 28.1473
33.3759 28.184
33.4226 27.9647
33.4691 27.8899
33.5158 27.7566
33.5623 27.6374
33.609 27.564
33.6555 27.452
33.7022 27.2874
33.7487 27.2447
33.7954 27.261
33.842 27.1627
33.8887 27.037
33.9353 27.0632
33.982 26.8487
34.0286 26.8316
34.0753 26.7429
34.1219 26.6515
34.1687 26.5944
34.2152 26.4906
34.262 26.3917
34.3086 26.3023
34.3554 26.2356
34.402 26.1843
34.4488 26.1464
34.4954 25.9134
34.5422 25.8804
34.5889 25.79
34.6357 25.7147
34.6825 25.7031
34.7292 25.5276
34.776 25.4519
34.8227 25.3347
34.8695 25.3623
34.9162 25.2558
34.9631 25.1335
35.0098 25.173
35.0566 25.0217
35.1033 24.9446
35.1502 24.9319
35.1969 24.8308
35.2438 24.8829
35.2906 24.6995
35.3375 24.7207
35.3842 24.7177
35.4311 24.6566
35.4779 24.5787
35.5248 24.5445
35.5716 24.39
35.6185 24.3707
35.6653 24.3456
35.7123 24.1345
35.759 24.1633
35.806 24.0734
35.8528 23.9006
35.8998 23.8105
35.9468 23.7714
35.9936 23.7733
36.0406 23.6465
36.0874 23.5958
36.1345 23.6052
36.1813 23.5118
36.2283 23.3848
36.2752 23.3456
36.3222 23.2954
36.3691 23.2664
36.4161 23.1102
36.463 23.1135
36.5101 23.0347
36.557 22.9702
36.6041 22.8983
36.651 22.7421
36.6981 22.7213
36.745 22.6745
36.7921 22.5747
36.839 22.4672
36.8861 22.4226
36.9331 22.3317
36.9802 22.2355
37.0272 22.2332
37.0743 22.1472
37.1213 22.0493
37.1684 22.0208
37.2154 21.9451
37.2626 21.8749
37.3098 21.8257
37.3568 21.6838
37.404 21.7244
37.451 21.6243
37.4982 21.4751
37.5452 21.3826
37.5924 21.383
37.6395 21.4968
37.6867 21.3589
37.7337 21.166
37.781 21.0824
37.8281 21.06
37.8753 20.9807
37.9224 20.8937
37.9697 20.8747
38.0168 20.7927
38.064 20.721
38.1111 20.6447
38.1584 20.519
38.2056 20.5123
38.2529 20.4884
38.3 20.3585
38.3473 20.3619
38.3945 20.2929
38.4418 20.1803
38.489 20.2334
38.5363 20.0711
38.5837 20.0275
38.6309 19.9495
38.6782 19.8437
38.7254 19.8072
38.7728 19.7727
38.82 19.7026
38.8674 19.6453
38.9146 19.5611
38.9621 19.5329
39.0093 19.3817
39.0567 19.4074
39.104 19.2453
39.1514 19.2541
39.1987 19.2014
39.2461 19.1164
39.2934 19.1382
39.3409 19.0169
39.3882 18.9242
39.4356 18.9161
39.483 18.8372
39.5304 18.8126
39.5778 18.7996
39.6253 18.6217
39.6726 18.6031
39.7201 18.6284
39.7675 18.5387
39.815 18.4402
39.8624 18.4357
39.9099 18.3239
39.9575 18.2186
40.0049 18.2072
40.0525 18.1394
40.0999 18.1267
40.1474 18.0135
40.1949 17.9402
40.2425 17.8466
40.2899 17.837
40.3375 17.8068
40.385 17.721
40.4326 17.7291
40.48 17.6608
40.5277 17.6032
40.5752 17.5219
40.6228 17.467
40.6703 17.4449
40.718 17.2894
40.7655 17.3151
40.8132 17.1873
40.8607 17.1845
40.9084 17.1569
40.9559 17.0573
41.0036 17.0101
41.0512 17.0099
41.0989 16.9252
41.1465 16.8262
41.1942 16.7832
41.242 16.7736
41.2896 16.6273
41.3373 16.6341
41.3849 16.5523
41.4327 16.5115
41.4803 16.4447
41.5281 16.3863
41.5758 16.3317
41.6236 16.2657
41.6712 16.182
41.7191 16.184
41.7667 16.099
41.8146 16.075
41.8622 16.0066
41.9101 15.9625
41.9578 15.8679
42.0057 15.8304
42.0534 15.7666
42.1013 15.7785
42.149 15.7004
42.1969 15.6634
42.2446 15.5686
42.2925 15.5101
42.3403 15.4685
42.3882 15.4703
42.436 15.4103
42.4839 15.2987
42.5319 15.3131
42.5797 15.2368
42.6277 15.1718
42.6755 15.1361
42.7235 15.0859
42.7713 15.0232
42.8193 14.9559
42.8671 14.9269
42.9152 14.869
42.963 14.8082
43.0111 14.7746
43.0589 14.7023
43.107 14.656
43.1549 14.6017
43.2029 14.5218
43.2508 14.5099
43.2989 14.4411
43.3468 14.3868
43.3949 14.3922
43.4429 14.3417
43.491 14.2728
43.5389 14.2275
43.5871 14.163
43.635 14.1048
43.6832 14.0741
43.7312 14.0136
43.7793 13.9245
43.8273 13.9131
43.8755 13.8544
43.9237 13.7854
43.9717 13.7801
44.0199 13.7195
44.068 13.6958
44.1162 13.6016
44.1642 13.5939
44.2125 13.5428
44.2606 13.4454
44.3088 13.4708
44.3569 13.3884
44.4052 13.3782
44.4533 13.2852
44.5016 13.2487
44.5497 13.2628
44.598 13.1732
44.6461 13.1265
44.6945 13.1047
44.7426 13.0382
44.791 12.9719
44.8391 12.9412
44.8875 12.8719
44.9357 12.823
44.984 12.8198
45.0322 12.755
45.0806 12.7189
45.1288 12.7136
45.1773 12.6136
45.2257 12.5791
45.2739 12.5366
45.3224 12.435
45.3706 12.4418
45.4191 12.3533
45.4673 12.3725
45.5158 12.3033
45.5641 12.2653
45.6126 12.2361
45.6609 12.1687
45.7094 12.121
45.7577 12.0925
45.8063 12.031
45.8546 12.022
45.9031 11.9545
45.9515 11.945
46.0001 11.9026
46.0484 11.886
46.097 11.8049
46.1454 11.739
46.194 11.7314
46.2424 11.6798
46.291 11.6156
46.3395 11.5304
46.3881 11.5426
46.4365 11.5377
46.4852 11.4358
46.5337 11.4052
46.5823 11.3733
46.631 11.327
46.6795 11.3064
46.7282 11.2602
46.7767 11.2208
46.8254 11.1375
46.8739 11.1011
46.9226 11.1007
46.9712 11.0054
47.0199 10.9962
47.0685 10.9635
47.1173 10.8725
47.1658 10.8694
47.2146 10.8398
47.2632 10.7675
47.312 10.7657
47.3606 10.7195
47.4095 10.6519
47.4581 10.6432
47.5069 10.5881
47.5556 10.5362
47.6044 10.4897
47.6531 10.4698
47.702 10.4329
47.7507 10.4042
47.7996 10.3399
47.8483 10.3183
47.8972 10.285
47.9461 10.2854
47.9948 10.1997
48.0438 10.1661
48.0925 10.1476
48.1415 10.1267
48.1902 10.0937
48.2392 10.0543
48.288 9.99947
48.337 9.95491
48.3858 9.90428
48.4348 9.87409
48.4837 9.87556
48.5327 9.82501
48.5815 9.77231
48.6306 9.74701
48.6795 9.69173
48.7285 9.68146
48.7774 9.61127
48.8265 9.60814
48.8754 9.56447
48.9245 9.5719
48.9734 9.48879
49.0226 9.46391
49.0715 9.42119
49.1206 9.40261
49.1696 9.33787
49.2188 9.36055
49.2679 9.29616
49.3169 9.20995
49.3661 9.19583
49.4151 9.19547
49.4643 9.19383
49.5134 9.15904
49.5626 9.08732
49.6117 9.05784
49.6609 9.02588
49.71 8.9879
49.7592 8.92479
49.8083 8.91033
49.8576 8.89282
49.9067 8.81998
49.956 8.8286
50.0052 8.76099
50.0545 8.74936
50.1036 8.66207
50.153 8.6522
50.2022 8.64924
50.2515 8.5915
50.3007 8.5588
50.3501 8.52573
50.3993 8.49468
50.4487 8.47296
50.498 8.40375
50.5474 8.40461
50.5966 8.37019
50.6461 8.34555
50.6955 8.29053
50.7448 8.2879
50.7943 8.21579
50.8436 8.20651
50.8931 8.18242
50.9424 8.13739
50.9919 8.12695
51.0413 8.11234
51.0908 8.07452
51.1402 8.02555
51.1897 7.97144
51.2391 7.96074
51.2887 7.93687
51.3381 7.91815
51.3877 7.84323
51.4371 7.80369
51.4867 7.80281
51.5362 7.77603
51.5858 7.73667
51.6353 7.67214
51.6849 7.64547
51.7344 7.64971
51.7841 7.60429
51.8336 7.56663
51.8833 7.50901
51.9328 7.45084
51.9826 7.48166
52.0323 7.44106
52.0818 7.4015
52.1316 7.36965
52.1812 7.38374
52.231 7.29315
52.2806 7.26846
52.3304 7.30078
52.38 7.20552
52.4298 7.19804
52.4794 7.14085
52.5293 7.16458
52.5789 7.10555
52.6288 7.0819
52.6785 7.02915
52.7284 7.01944
52.7781 6.99726
52.828 6.99221
52.8777 6.91586
52.9276 6.90113
52.9774 6.87983
53.0273 6.85269
53.0771 6.81657
53.1271 6.84083
53.1769 6.72874
53.2269 6.70122
53.2767 6.70436
53.3267 6.6707
53.3765 6.65268
53.4266 6.60855
53.4766 6.5567
53.5265 6.59565
53.5765 6.52994
53.6264 6.48803
53.6765 6.48088
53.7264 6.45172
53.7765 6.39684
53.8265 6.35642
53.8766 6.35698
53.9266 6.31031
53.9767 6.29859
54.0267 6.25537
54.0769 6.23563
54.1269 6.19208
54.1771 6.1611
54.2271 6.16971
54.2773 6.10515
54.3274 6.06035
54.3776 6.05276
54.4277 5.99491
54.478 5.97935
54.528 5.8971
54.5783 5.93328
54.6285 5.87316
54.6788 5.81293
54.7289 5.76972
54.7792 5.77162
54.8296 5.7282
54.8798 5.63666
54.9301 5.64128
54.9803 5.59423
55.0307 5.56431
55.0809 5.50744
55.1314 5.51133
55.1816 5.43848
55.232 5.33586
55.2823 5.36042
55.3328 5.29481
55.383 5.20611
55.4335 5.20177
55.4838 5.14678
55.5344 5.08335
55.5847 5.04995
55.6352 5.01415
55.6856 5.0063
55.7361 4.96307