File: XRD/Ni3Fe_FD0041.xy
TT I
1.27165 32.7432
1.31627 31.1577
1.36089 30.3999
1.40551 27.9343
1.45013 27.2717
1.49476 26.7777
1.53938 26.0203
1.584 24.6517
1.62863 23.8101
1.67325 23.3057
1.71787 22.4628
1.7625 22.5301
1.80712 21.726
1.85174 21.3789
1.89636 21.7016
1.94099 21.7081
1.98562 21.5328
2.03025 21.3226
2.07487 20.8319
2.11949 21.5894
2.16411 21.6351
2.20874 22.6125
2.25338 22.8413
2.298 23.2265
2.34263 22.3128
2.38725 22.3119
2.43188 22.2215
2.4765 22.5528
2.52115 22.7591
2.56577 23.9363
2.6104 24.7834
2.65503 25.4469
2.69965 26.3221
2.7443 28.2783
2.78893 31.173
2.83356 33.098
2.87818 36.9527
2.92281 41.3606
2.96744 47.6828
3.01209 55.9056
3.05672 64.1529
3.10135 72.9005
3.14599 78.1507
3.19062 76.9236
3.23527 69.5698
3.2799 58.4145
3.32454 48.775
3.36917 41.4835
3.4138 35.5455
3.45844 32.4008
3.50309 31.1506
3.54773 29.3045
3.59237 29.2037
3.637 30.4358
3.68164 30.338
3.7263 29.4086
3.77094 28.0484
3.81558 27.3447
3.86022 26.9223
3.90486 27.9274
3.9495 27.4506
3.99416 28.3367
4.0388 29.0242
4.08344 29.9785
4.12809 31.368
4.17273 34.4173
4.21738 39.0403
4.26204 45.1276
4.30669 48.2102
4.35133 46.3676
4.39598 41.9492
4.44063 40.062
4.4853 40.2621
4.52995 40.471
4.5746 39.8713
4.61925 40.9214
4.6639 41.3627
4.70855 43.6874
4.75322 45.5251
4.79788 48.9322
4.84253 52.7115
4.88719 57.5834
4.93184 64.2726
4.97652 73.242
5.02118 90.4707
5.06583 113.126
5.11049 136.901
5.15515 183.9
5.19981 297.804
5.24449 665.093
5.28916 1444.98
5.33382 3796.27
5.37848 3485.79
5.42315 949.212
5.46783 330.795
5.5125 203.574
5.55716 153.334
5.60183 125.941
5.6465 114.139
5.69117 108.508
5.73586 101.888
5.78053 98.5695
5.8252 99.6001
5.86988 104.73
5.91455 115.718
5.95924 136.949
6.00392 188.613
6.0486 311.164
6.09328 529.643
6.13795 961.237
6.18263 1224.53
6.22733 592.582
6.27201 251.667
6.3167 142.111
6.36138 97.4636
6.40606 76.1609
6.45075 65.4642
6.49545 57.9571
6.54014 53.1069
6.58483 49.6027
6.62952 48.0857
6.67421 47.7023
6.71892 47.5034
6.76361 46.0274
6.8083 43.7385
6.853 41.8944
6.89769 41.2232
6.94239 40.3032
6.98711 39.4911
7.03181 39.5996
7.07651 39.7034
7.12121 40.206
7.16591 40.8714
7.21063 41.5049
7.25533 43.259
7.30004 47.9578
7.34475 47.9988
7.38945 43.6205
7.43416 40.9202
7.47889 41.6206
7.5236 52.8397
7.56831 137.299
7.61303 177.395
7.65774 68.196
7.70247 43.385
7.74719 39.2386
7.79191 38.0859
7.83663 37.492
7.88135 37.2963
7.92607 37.5744
7.97081 38.07
8.01553 38.5559
8.06026 39.414
8.10498 40.2277
8.14971 41.3556
8.19446 42.8499
8.23919 44.4905
8.28392 46.1285
8.32865 48.2785
8.37339 52.2846
8.41812 57.0296
8.46288 65.1593
8.50761 80.0579
8.55235 115.304
8.59709 178.693
8.64183 248.543
8.68658 497.462
8.73134 785.958
8.77609 473.143
8.82083 200.779
8.86558 113.934
8.91033 87.6524
8.9551 75.71
8.99985 69.091
9.04461 65.1847
9.08936 63.0986
9.13412 62.2401
9.17888 64.9057
9.22365 79.1277
9.26841 198.535
9.31318 328.184
9.35794 139.647
9.4027 70.5986
9.44749 59.8398
9.49226 56.8005
9.53703 54.8506
9.5818 54.7347
9.62657 55.0658
9.67134 55.52
9.71614 56.2749
9.76091 57.3748
9.80569 58.6544
9.85047 61.4453
9.89525 65.637
9.94005 71.4002
9.98484 83.3473
10.0296 110.568
10.0744 158.647
10.1192 199.794
10.164 304.713
10.2088 628.591
10.2536 742.861
10.2984 370.599
10.3432 175.556
10.388 109.159
10.4328 87.4716
10.4776 83.2307
10.5224 90.0823
10.5672 95.9406
10.612 116.026
10.6568 197.195
10.7017 284.523
10.7465 228.305
10.7913 116.483
10.8361 66.7194
10.8809 54.5344
10.9257 49.7354
10.9706 47.1398
11.0154 45.3648
11.0602 44.2879
11.105 43.3533
11.1499 42.5896
11.1947 42.0675
11.2395 41.4395
11.2844 40.9137
11.3292 40.3674
11.374 39.4418
11.4189 39.0388
11.4637 38.6099
11.5086 37.9426
11.5534 37.8458
11.5983 38.0035
11.6431 37.9105
11.688 37.5089
11.7328 37.7161
11.7777 37.8247
11.8225 37.9989
11.8674 38.9371
11.9122 41.4529
11.9571 55.5281
12.002 103.546
12.0468 100.628
12.0917 56.9317
12.1366 47.8437
12.1814 48.956
12.2263 51.5192
12.2712 60.7345
12.3161 79.9874
12.3609 91.9567
12.4058 73.81
12.4507 54.4503
12.4956 46.3332
12.5405 42.4112
12.5853 40.6062
12.6302 39.8035
12.6751 39.8658
12.72 39.7011
12.7649 39.469
12.8098 39.1853
12.8547 39.4479
12.8996 40.005
12.9445 40.476
12.9894 41.3427
13.0343 42.4937
13.0792 45.0621
13.1242 52.5768
13.1691 65.2471
13.214 66.2049
13.2589 67.8892
13.3038 71.8076
13.3487 81.7171
13.3937 114.285
13.4386 179.719
13.4835 204.03
13.5285 141.848
13.5734 97.9964
13.6183 84.6011
13.6633 79.5938
13.7082 87.9715
13.7531 121.77
13.7981 184.459
13.843 178.417
13.888 108.08
13.9329 69.3462
13.9779 56.2551
14.0228 50.5527
14.0678 47.8688
14.1127 47.8943
14.1577 55.7975
14.2027 89.767
14.2476 100.93
14.2926 63.1447
14.3376 46.5304
14.3825 42.6152
14.4275 41.3567
14.4725 40.5748
14.5175 40.0061
14.5624 39.6397
14.6074 39.8939
14.6524 39.9009
14.6974 40.1789
14.7424 40.4988
14.7874 40.8757
14.8324 43.0413
14.8774 46.5809
14.9224 50.0694
14.9674 51.7088
15.0124 56.354
15.0574 69.4959
15.1024 97.6896
15.1474 118.506
15.1924 99.037
15.2374 69.3046
15.2824 52.8558
15.3274 45.6301
15.3725 42.8709
15.4175 41.3868
15.4625 40.3482
15.5076 39.7763
15.5526 39.752
15.5976 39.4668
15.6426 39.4546
15.6877 40.0566
15.7327 41.2382
15.7778 44.0415
15.8228 47.3072
15.8679 48.7552
15.9129 51.0221
15.958 59.8455
16.003 78.4848
16.0481 107.345
16.0931 112.598
16.1382 92.7248
16.1833 68.5016
16.2283 48.9212
16.2734 41.2926
16.3185 38.3091
16.3636 36.9245
16.4086 35.7177
16.4537 34.8309
16.4988 34.0369
16.5439 33.7855
16.589 33.5263
16.6341 33.173
16.6792 32.9282
16.7243 32.8495
16.7694 32.9399
16.8145 32.6317
16.8596 32.9489
16.9047 33.3656
16.9498 35.1773
16.9949 40.6711
17.04 42.8674
17.0851 37.6798
17.1302 34.4711
17.1754 34.2818
17.2205 34.9134
17.2656 35.0985
17.3108 35.5409
17.3559 36.4475
17.401 38.9384
17.4462 43.9383
17.4913 49.2969
17.5365 47.5466
17.5815 41.5075
17.6268 37.6079
17.6718 36.4594
17.7171 36.0461
17.7622 36.6502
17.8074 39.8192
17.8525 44.0952
17.8977 43.4772
17.9428 40.6198
17.9881 40.884
18.0331 42.7128
18.0784 43.4168
18.1237 44.661
18.1688 48.3653
18.214 57.7347
18.2591 75.724
18.3044 90.7348
18.3495 81.9002
18.3948 62.8951
18.4399 54.2773
18.4852 55.1928
18.5303 63.216
18.5756 68.1296
18.6207 62.9448
18.666 53.3725
18.7112 45.3247
18.7565 39.7642
18.8016 37.6924
18.8469 36.6247
18.892 35.9044
18.9374 35.3792
18.9825 35.067
19.0278 34.6403
19.073 34.5273
19.1183 34.3065
19.1635 34.4821
19.2088 34.9552
19.254 35.566
19.2993 36.218
19.3447 38.4819
19.3898 45.0432
19.4352 50.3879
19.4804 47.2497
19.5257 44.9248
19.5709 46.2461
19.6163 44.7312
19.6615 39.8059
19.7068 36.1442
19.752 34.3665
19.7974 33.3872
19.8426 33.0779
19.888 32.6521
19.9332 32.741
19.9786 33.1011
20.0238 33.0465
20.0692 33.2487
20.1144 33.6497
20.1598 34.6663
20.205 36.5858
20.2504 40.1265
20.2957 43.9763
20.3411 43.6593
20.3863 40.0478
20.4318 38.0346
20.477 39.0267
20.5224 41.5034
20.5677 41.5344
20.6131 37.9523
20.6586 34.2191
20.7038 32.6053
20.7493 31.6428
20.7945 31.9321
20.84 33.8826
20.8853 35.63
20.9307 33.8809
20.976 31.3129
21.0215 29.9792
21.0668 29.8035
21.1122 29.7602
21.1575 29.6587
21.203 29.6319
21.2483 29.6194
21.2938 29.7052
21.3391 29.838
21.3846 30.4569
21.4299 31.4079
21.4754 32.2162
21.5207 32.2193
21.5662 31.7033
21.6116 30.8742
21.6571 30.218
21.7024 30.1318
21.7479 30.6172
21.7933 30.9099
21.8388 31.2625
21.8843 31.6153
21.9297 31.8925
21.9752 33.06
22.0206 35.0089
22.0661 38.0711
22.1115 42.1242
22.157 43.7007
22.2024 42.5935
22.248 40.6195
22.2933 39.2698
22.3389 37.8787
22.3843 36.6662
22.4299 34.3922
22.4753 32.5609
22.5208 31.3884
22.5662 30.7013
22.6118 30.5495
22.6572 30.3917
22.7028 30.328
22.7483 30.5087
22.7939 30.6563
22.8393 31.562
22.8849 32.4874
22.9303 32.4525
22.9759 31.8923
23.0214 31.6301
23.067 32.3688
23.1126 33.7771
23.1581 36.4361
23.2037 38.9959
23.2492 38.2133
23.2948 35.3043
23.3403 32.7997
23.3859 32.1694
23.4314 31.9602
23.477 33.3144
23.5225 34.5552
23.5682 34.506
23.6137 33.0337
23.6593 32.5088
23.7048 33.2545
23.7505 35.4009
23.796 38.4597
23.8417 39.7197
23.8872 37.6469
23.9329 34.0418
23.9784 31.4051
24.0241 30.1123
24.0697 29.5461
24.1154 29.4152
24.1609 29.2929
24.2066 28.916
24.2522 28.1794
24.2979 27.7818
24.3434 27.594
24.3892 27.4085
24.4349 27.3186
24.4805 26.927
24.5262 27.1152
24.5718 26.8638
24.6175 26.932
24.6631 27.1887
24.7089 27.8112
24.7545 28.557
24.8002 28.2862
24.8458 27.6261
24.8916 26.9984
24.9372 26.7355
24.983 26.8004
25.0286 26.5254
25.0744 26.589
25.12 26.406
25.1658 26.7644
25.2114 26.7947
25.2572 27.0748
25.3029 27.794
25.3487 28.5507
25.3943 28.9829
25.4402 29.1524
25.4858 29.0326
25.5316 29.0266
25.5773 29.7379
25.6231 30.22
25.669 29.1065
25.7147 27.9236
25.7605 26.9901
25.8062 26.592
25.8521 26.4649
25.8977 26.7811
25.9436 26.9718
25.9893 26.55
26.0352 26.2143
26.0809 25.6862
26.1268 25.7492
26.1725 25.8292
26.2184 26.0207
26.2641 26.4222
26.31 26.9477
26.3557 27.6225
26.4017 27.3917
26.4474 26.9253
26.4933 26.4897
26.5391 26.2348
26.585 26.0086
26.6308 25.8494
26.6767 25.8068
26.7225 26.0891
26.7684 26.3376
26.8142 26.8037
26.8601 27.6225
26.9059 28.4557
26.9519 28.6738
26.9979 28.6243
27.0437 28.3644
27.0896 28.1326
27.1354 27.4062
27.1814 26.3538
27.2272 25.7536
27.2732 25.4028
27.3191 25.0629
27.3651 25.087
27.4109 24.8767
27.4569 24.7135
27.5027 24.7303
27.5488 24.9088
27.5946 24.8265
27.6407 24.9283
27.6865 25.0298
27.7326 24.8438
27.7784 25.2138
27.8245 25.3033
27.8703 25.0066
27.9164 24.941
27.9623 24.6869
28.0084 24.7222
28.0543 25.0188
28.1003 25.4018
28.1462 25.6892
28.1923 25.6009
28.2384 25.4697
28.2843 25.9757
28.3304 26.4762
28.3764 26.4756
28.4225 26.2203
28.4684 25.8302
28.5145 25.5084
28.5605 25.1275
28.6066 24.7434
28.6526 24.434
28.6987 24.1159
28.7447 23.5921
28.7908 23.3607
28.8368 23.185
28.8829 23.0909
28.9289 22.951
28.9751 22.7824
29.0211 22.7811
29.0673 22.6448
29.1133 22.9017
29.1595 22.9499
29.2055 23.1342
29.2517 22.908
29.2977 22.5871
29.3439 22.3636
29.3899 22.2276
29.4361 22.16
29.4824 22.0826
29.5284 21.9765
29.5746 21.9704
29.6207 22.2161
29.6669 22.2653
29.713 22.2653
29.7593 22.1465
29.8053 21.8851
29.8516 21.7393
29.8977 21.5717
29.9439 21.3404
29.99 21.3088
30.0363 21.2711
30.0824 21.2576
30.1287 21.4703
30.1748 21.5493
30.2211 21.465
30.2673 21.2171
30.3136 21.0277
30.3597 21.0425
30.406 21.0305
30.4522 21.1625
30.4985 21.2195
30.5447 21.2876
30.591 21.092
30.6372 21.0025
30.6835 21.0322
30.7297 20.8776
30.7761 20.8851
30.8224 20.8986
30.8686 21.0179
30.915 21.2086
30.9612 21.4344
31.0076 21.6106
31.0538 21.6607
31.1002 21.6603
31.1464 21.4962
31.1928 21.4129
31.2391 21.1307
31.2855 20.845
31.3317 20.6923
31.3781 20.5036
31.4244 20.4655
31.4708 20.3727
31.5171 20.269
31.5636 20.361
31.6098 20.3753
31.6563 20.5293
31.7026 20.5827
31.7491 20.5076
31.7953 20.779
31.8418 20.6944
31.8881 20.5149
31.9346 20.2654
31.9809 20.1602
32.0275 20.0105
32.074 20.0818
32.1203 20.0357
32.1668 20.1908
32.2132 20.1088
32.2597 20.2632
32.306 20.1913
32.3526 20.0207
32.399 19.8758
32.4455 19.7258
32.4919 19.5717
32.5385 19.4855
32.5848 19.2914
32.6314 19.1713
32.6778 19.0813
32.7244 19.0091
32.7708 18.8317
32.8174 18.8309
32.8638 18.761
32.9104 18.7924
32.9569 18.8223
33.0035 18.7931
33.0499 18.7738
33.0966 18.8411
33.143 18.6781
33.1897 18.4516
33.2361 18.4607
33.2828 18.4277
33.3293 18.3536
33.3759 18.3632
33.4226 18.4076
33.4691 18.4431
33.5158 18.5568
33.5623 18.4913
33.609 18.4717
33.6555 18.3609
33.7022 18.2624
33.7487 18.1235
33.7954 17.9045
33.842 17.7842
33.8887 17.7165
33.9353 17.6989
33.982 17.6577
34.0286 17.5367
34.0753 17.5933
34.1219 17.5222
34.1687 17.4503
34.2152 17.4922
34.262 17.3499
34.3086 17.226
34.3554 17.1842
34.402 17.0188
34.4488 17.0615
34.4954 17.0216
34.5422 16.9342
34.5889 16.966
34.6357 16.8939
34.6825 16.8953
34.7292 16.797
34.776 16.81
34.8227 16.6641
34.8695 16.648
34.9162 16.5184
34.9631 16.471
35.0098 16.3532
35.0566 16.3696
35.1033 16.3283
35.1502 16.3531
35.1969 16.3224
35.2438 16.28
35.2906 16.2008
35.3375 16.1836
35.3842 16.2281
35.4311 16.1621
35.4779 16.1367
35.5248 16.0431
35.5716 16.0859
35.6185 16.0338
35.6653 16.1135
35.7123 16.1135
35.759 16.1839
35.806 16.1156
35.8528 16.1184
35.8998 15.994
35.9468 15.8767
35.9936 15.8132
36.0406 15.7492
36.0874 15.7128
36.1345 15.6659
36.1813 15.5651
36.2283 15.4667
36.2752 15.4249
36.3222 15.4949
36.3691 15.4079
36.4161 15.3307
36.463 15.3624
36.5101 15.3604
36.557 15.3834
36.6041 15.2376
36.651 15.1821
36.6981 15.1385
36.745 15.0555
36.7921 15.0379
36.839 14.989
36.8861 14.9428
36.9331 14.9286
36.9802 14.8994
37.0272 14.8205
37.0743 14.7722
37.1213 14.7759
37.1684 14.6655
37.2154 14.6103
37.2626 14.51
37.3098 14.521
37.3568 14.4994
37.404 14.377
37.451 14.303
37.4982 14.3137
37.5452 14.2083
37.5924 14.2109
37.6395 14.2804
37.6867 14.1486
37.7337 14.089
37.781 14.0416
37.8281 14.0333
37.8753 13.9986
37.9224 13.911
37.9697 13.897
38.0168 13.86
38.064 13.7921
38.1111 13.7373
38.1584 13.7281
38.2056 13.6331
38.2529 13.6243
38.3 13.5847
38.3473 13.5416
38.3945 13.4287
38.4418 13.445
38.489 13.4154
38.5363 13.3167
38.5837 13.3485
38.6309 13.3105
38.6782 13.2881
38.7254 13.169
38.7728 13.1711
38.82 13.1115
38.8674 13.0655
38.9146 13.0784
38.9621 13.0155
39.0093 13.0384
39.0567 12.9443
39.104 12.9699
39.1514 12.872
39.1987 12.8676
39.2461 12.8029
39.2934 12.706
39.3409 12.688
39.3882 12.6222
39.4356 12.5919
39.483 12.5524
39.5304 12.4859
39.5778 12.5005
39.6253 12.4825
39.6726 12.4448
39.7201 12.4141
39.7675 12.3179
39.815 12.3041
39.8624 12.2754
39.9099 12.1993
39.9575 12.1859
40.0049 12.1778
40.0525 12.1212
40.0999 12.1486
40.1474 12.0353
40.1949 12.0559
40.2425 12.033
40.2899 12.0044
40.3375 11.9633
40.385 11.8916
40.4326 11.843
40.48 11.8188
40.5277 11.81
40.5752 11.7734
40.6228 11.7473
40.6703 11.7344
40.718 11.7069
40.7655 11.6551
40.8132 11.6311
40.8607 11.5978
40.9084 11.5071
40.9559 11.5157
41.0036 11.5046
41.0512 11.4522
41.0989 11.4214
41.1465 11.3897
41.1942 11.4102
41.242 11.2443
41.2896 11.2506
41.3373 11.2243
41.3849 11.2182
41.4327 11.1944
41.4803 11.133
41.5281 11.0331
41.5758 11.0514
41.6236 10.9896
41.6712 10.9501
41.7191 10.9349
41.7667 10.8792
41.8146 10.8729
41.8622 10.8223
41.9101 10.8382
41.9578 10.7208
42.0057 10.7359
42.0534 10.6729
42.1013 10.7116
42.149 10.6613
42.1969 10.5798
42.2446 10.5971
42.2925 10.5301
42.3403 10.4949
42.3882 10.4815
42.436 10.4536
42.4839 10.3735
42.5319 10.3248
42.5797 10.317
42.6277 10.2529
42.6755 10.2551
42.7235 10.1793
42.7713 10.163
42.8193 10.1272
42.8671 10.1048
42.9152 10.0678
42.963 10.0272
43.0111 10.0001
43.0589 9.96009
43.107 9.92378
43.1549 9.86133
43.2029 9.89473
43.2508 9.83674
43.2989 9.78333
43.3468 9.74156
43.3949 9.71986
43.4429 9.72596
43.491 9.68636
43.5389 9.65201
43.5871 9.63107
43.635 9.57587
43.6832 9.55813
43.7312 9.50018
43.7793 9.49572
43.8273 9.43763
43.8755 9.42457
43.9237 9.36301
43.9717 9.33053
44.0199 9.30816
44.068 9.31573
44.1162 9.29204
44.1642 9.2473
44.2125 9.2278
44.2606 9.16209
44.3088 9.12034
44.3569 9.09606
44.4052 9.10139
44.4533 9.07055
44.5016 9.03121
44.5497 8.98505
44.598 8.97889
44.6461 8.93561
44.6945 8.93979
44.7426 8.91028
44.791 8.82939
44.8391 8.80754
44.8875 8.7741
44.9357 8.80747
44.984 8.76636
45.0322 8.70428
45.0806 8.68161
45.1288 8.63621
45.1773 8.62031
45.2257 8.5835
45.2739 8.53826
45.3224 8.52336
45.3706 8.48791
45.4191 8.45809
45.4673 8.42944
45.5158 8.41697
45.5641 8.38038
45.6126 8.35931
45.6609 8.31186
45.7094 8.2807
45.7577 8.28542
45.8063 8.27095
45.8546 8.19955
45.9031 8.22765
45.9515 8.16264
46.0001 8.15692
46.0484 8.1102
46.097 8.10386
46.1454 8.0612
46.194 8.02351
46.2424 7.99998
46.291 7.94841
46.3395 7.94728
46.3881 7.91157
46.4365 7.86651
46.4852 7.84203
46.5337 7.79964
46.5823 7.83652
46.631 7.78886
46.6795 7.76614
46.7282 7.72404
46.7767 7.73479
46.8254 7.65211
46.8739 7.64432
46.9226 7.65409
46.9712 7.57255
47.0199 7.56256
47.0685 7.53955
47.1173 7.50509
47.1658 7.47946
47.2146 7.44515
47.2632 7.39055
47.312 7.40739
47.3606 7.35317
47.4095 7.3633
47.4581 7.31898
47.5069 7.30524
47.5556 7.27447
47.6044 7.21154
47.6531 7.18159
47.702 7.17733
47.7507 7.14155
47.7996 7.1071
47.8483 7.11068
47.8972 7.11702
47.9461 7.09067
47.9948 7.02234
48.0438 7.01948
48.0925 6.98633
48.1415 6.95987
48.1902 6.90894
48.2392 6.94214
48.288 6.87529
48.337 6.88953
48.3858 6.84449
48.4348 6.80894
48.4837 6.82156
48.5327 6.7897
48.5815 6.74258
48.6306 6.70682
48.6795 6.69392
48.7285 6.67615
48.7774 6.68172
48.8265 6.63889
48.8754 6.5597
48.9245 6.56579
48.9734 6.55064
49.0226 6.51048
49.0715 6.45571
49.1206 6.44395
49.1696 6.46141
49.2188 6.4396
49.2679 6.42441
49.3169 6.39853
49.3661 6.3525
49.4151 6.3415
49.4643 6.35136
49.5134 6.32876
49.5626 6.25365
49.6117 6.25401
49.6609 6.2346
49.71 6.2044
49.7592 6.19815
49.8083 6.17191
49.8576 6.14235
49.9067 6.14103
49.956 6.11635
50.0052 6.10224
50.0545 6.04511
50.1036 6.04368
50.153 6.00284
50.2022 5.98533
50.2515 5.96749
50.3007 5.93513
50.3501 5.92239
50.3993 5.91751
50.4487 5.90054
50.498 5.86243
50.5474 5.83872
50.5966 5.83499
50.6461 5.78945
50.6955 5.76625
50.7448 5.74693
50.7943 5.71713
50.8436 5.72871
50.8931 5.71469
50.9424 5.65497
50.9919 5.66021
51.0413 5.61942
51.0908 5.59985
51.1402 5.5892
51.1897 5.61351
51.2391 5.54892
51.2887 5.52578
51.3381 5.51739
51.3877 5.49942
51.4371 5.44178
51.4867 5.435
51.5362 5.4286
51.5858 5.40113
51.6353 5.38405
51.6849 5.32629
51.7344 5.33076
51.7841 5.30132
51.8336 5.27884
51.8833 5.27635
51.9328 5.25152
51.9826 5.17988
52.0323 5.19759
52.0818 5.1712
52.1316 5.16658
52.1812 5.16772
52.231 5.11702
52.2806 5.09814
52.3304 5.11296
52.38 5.04522
52.4298 5.06697
52.4794 5.02814
52.5293 5.00961
52.5789 4.96554
52.6288 4.98481
52.6785 4.92111
52.7284 4.93524
52.7781 4.92516
52.828 4.90229
52.8777 4.89668
52.9276 4.84154
52.9774 4.82585
53.0273 4.81983
53.0771 4.79936
53.1271 4.80254
53.1769 4.77306
53.2269 4.7223
53.2767 4.7203
53.3267 4.72282
53.3765 4.68034
53.4266 4.66925
53.4766 4.61507
53.5265 4.60581
53.5765 4.60674
53.6264 4.54841
53.6765 4.59351
53.7264 4.54547
53.7765 4.52155
53.8265 4.49679
53.8766 4.45949
53.9266 4.49303
53.9767 4.46368
54.0267 4.40455
54.0769 4.37178
54.1269 4.32532
54.1771 4.31788
54.2271 4.30501
54.2773 4.27941
54.3274 4.26154
54.3776 4.22642
54.4277 4.18178
54.478 4.1809
54.528 4.13324
54.5783 4.07966
54.6285 4.07696
54.6788 4.06334
54.7289 4.00752
54.7792 4.0063
54.8296 3.94568
54.8798 3.93266
54.9301 3.90768
54.9803 3.87706
55.0307 3.85548
55.0809 3.78801
55.1314 3.76844
55.1816 3.72547
55.232 3.70099
55.2823 3.68214
55.3328 3.64755
55.383 3.5705
55.4335 3.56812
55.4838 3.49668
55.5344 3.51858
55.5847 3.47099
55.6352 3.41473
55.6856 3.42891
55.7361 3.43053