File: XRD/Ni3Fe_FD0170.xy
TT I
1.27165 8.36844
1.31627 7.10619
1.36089 8.10172
1.40551 5.95513
1.45013 6.57936
1.49476 5.49701
1.53938 6.06387
1.584 6.04788
1.62863 5.82948
1.67325 5.56861
1.71787 5.82153
1.7625 5.52096
1.80712 4.72241
1.85174 5.0429
1.89636 4.99608
1.94099 5.3498
1.98562 5.15498
2.03025 4.86125
2.07487 4.79819
2.11949 4.94028
2.16411 4.93391
2.20874 4.73168
2.25338 4.26754
2.298 4.27189
2.34263 4.16753
2.38725 4.59917
2.43188 4.45963
2.4765 4.43798
2.52115 4.67819
2.56577 4.41854
2.6104 5.31982
2.65503 5.39328
2.69965 4.59193
2.7443 6.27408
2.78893 6.68536
2.83356 7.54394
2.87818 8.4665
2.92281 8.98879
2.96744 9.11728
3.01209 10.498
3.05672 11.48
3.10135 12.8716
3.14599 13.1699
3.19062 14.2874
3.23527 15.3615
3.2799 16.07
3.32454 16.8899
3.36917 17.8534
3.4138 18.7758
3.45844 19.5353
3.50309 21.0003
3.54773 20.7591
3.59237 21.4967
3.637 22.5984
3.68164 23.2373
3.7263 24.3488
3.77094 24.8995
3.81558 25.889
3.86022 26.772
3.90486 28.0398
3.9495 29.143
3.99416 29.6603
4.0388 30.8262
4.08344 32.3823
4.12809 32.8622
4.17273 34.3875
4.21738 35.8657
4.26204 36.9178
4.30669 37.9293
4.35133 40.1336
4.39598 41.1177
4.44063 43.3585
4.4853 45.2943
4.52995 47.535
4.5746 49.3755
4.61925 51.689
4.6639 54.3437
4.70855 56.8872
4.75322 59.962
4.79788 62.3569
4.84253 66.5131
4.88719 70.7809
4.93184 75.7741
4.97652 82.265
5.02118 90.3491
5.06583 100.544
5.11049 116.602
5.15515 152.639
5.19981 528.615
5.24449 3749.96
5.28916 8483.62
5.33382 6139.84
5.37848 415.427
5.42315 159.663
5.46783 126.7
5.5125 113.439
5.55716 107.121
5.60183 101.656
5.6465 99.0438
5.69117 97.3011
5.73586 95.5102
5.78053 95.6732
5.8252 95.5545
5.86988 98.3678
5.91455 104.459
5.95924 122.512
6.00392 281.51
6.0486 1374.49
6.09328 2860.85
6.13795 3985.16
6.18263 645.896
6.22733 119.577
6.27201 88.6144
6.3167 78.4066
6.36138 72.683
6.40606 68.9224
6.45075 66.6643
6.49545 64.419
6.54014 62.3759
6.58483 61.2658
6.62952 60.1297
6.67421 58.9379
6.71892 57.4442
6.76361 56.818
6.8083 55.9183
6.853 55.2429
6.89769 54.7285
6.94239 54.3392
6.98711 53.938
7.03181 53.213
7.07651 52.5368
7.12121 52.7846
7.16591 52.3736
7.21063 52.3737
7.25533 52.5397
7.30004 52.3657
7.34475 52.4549
7.38945 52.878
7.43416 52.039
7.47889 52.293
7.5236 55.7938
7.56831 61.9057
7.61303 55.2385
7.65774 53.8499
7.70247 54.4401
7.74719 54.6611
7.79191 55.388
7.83663 55.3919
7.88135 56.5852
7.92607 57.2596
7.97081 58.4034
8.01553 59.4386
8.06026 60.8667
8.10498 62.3132
8.14971 63.9649
8.19446 65.4733
8.23919 68.0294
8.28392 71.188
8.32865 73.8522
8.37339 78.2318
8.41812 84.0205
8.46288 95.2649
8.50761 170.976
8.55235 592.058
8.59709 908.39
8.64183 1552.84
8.68658 1629.24
8.73134 395.691
8.77609 115.875
8.82083 97.4121
8.86558 91.2992
8.91033 88.2313
8.9551 85.4773
8.99985 84.1613
9.04461 83.5528
9.08936 82.8322
9.13412 81.7306
9.17888 81.6795
9.22365 86.8353
9.26841 95.4035
9.31318 85.9731
9.35794 83.0989
9.4027 82.7171
9.44749 83.181
9.49226 83.7534
9.53703 84.7223
9.5818 86.4511
9.62657 87.0022
9.67134 88.7039
9.71614 91.3757
9.76091 93.2162
9.80569 96.1807
9.85047 99.3446
9.89525 104.627
9.94005 114.071
9.98484 183.939
10.0296 537.817
10.0744 748.765
10.1192 1073.44
10.164 1687.39
10.2088 958.456
10.2536 210.456
10.2984 115.996
10.3432 108.144
10.388 104.587
10.4328 121.19
10.4776 212.986
10.5224 265.13
10.5672 343.129
10.612 501.216
10.6568 366.365
10.7017 134.56
10.7465 90.7605
10.7913 83.9647
10.8361 81.0084
10.8809 78.4091
10.9257 75.9359
10.9706 74.7331
11.0154 73.0561
11.0602 71.8154
11.105 70.2982
11.1499 69.2403
11.1947 68.0297
11.2395 66.8576
11.2844 66.489
11.3292 65.5421
11.374 64.8328
11.4189 64.4397
11.4637 63.7809
11.5086 62.9927
11.5534 62.7491
11.5983 62.3481
11.6431 62.2354
11.688 61.9401
11.7328 61.4971
11.7777 61.5699
11.8225 61.6066
11.8674 61.5068
11.9122 62.6922
11.9571 65.6478
12.002 65.0888
12.0468 67.9174
12.0917 90.6737
12.1366 108.443
12.1814 120.66
12.2263 155.467
12.2712 194.007
12.3161 136.063
12.3609 74.9201
12.4058 64.1533
12.4507 63.6114
12.4956 63.3912
12.5405 63.2102
12.5853 64.0501
12.6302 64.2134
12.6751 64.7797
12.72 65.3351
12.7649 66.6534
12.8098 67.0722
12.8547 68.7045
12.8996 69.9556
12.9445 71.3467
12.9894 73.5984
13.0343 75.5457
13.0792 79.4606
13.1242 86.1533
13.1691 132.275
13.214 185.749
13.2589 208.756
13.3038 254.411
13.3487 360.687
13.3937 380.88
13.4386 205.653
13.4835 118.621
13.5285 153.694
13.5734 182.421
13.6183 197.696
13.6633 246.228
13.7082 338.615
13.7531 304.315
13.7981 150.031
13.843 87.866
13.888 80.7912
13.9329 77.8516
13.9779 76.2826
14.0228 74.5863
14.0678 73.3198
14.1127 73.1986
14.1577 74.3923
14.2027 72.7051
14.2476 70.82
14.2926 69.9373
14.3376 69.6201
14.3825 68.971
14.4275 68.5729
14.4725 68.4484
14.5175 68.655
14.5624 68.6597
14.6074 68.9759
14.6524 69.3473
14.6974 70.0651
14.7424 71.6113
14.7874 80.6741
14.8324 106.539
14.8774 121.771
14.9224 129.507
14.9674 152.98
15.0124 197.041
15.0574 205.599
15.1024 135.146
15.1474 81.3292
15.1924 71.2962
15.2374 69.3897
15.2824 68.4744
15.3274 67.0565
15.3725 66.8356
15.4175 66.3773
15.4625 66.123
15.5076 65.6814
15.5526 65.9569
15.5976 66.1032
15.6426 66.7445
15.6877 73.6658
15.7327 94.6275
15.7778 107.465
15.8228 112.807
15.8679 127.71
15.9129 159.071
15.958 186.829
16.003 149.573
16.0481 87.7935
16.0931 66.1549
16.1382 61.8121
16.1833 60.6331
16.2283 58.9951
16.2734 58.2643
16.3185 57.6177
16.3636 56.9328
16.4086 56.0499
16.4537 55.9571
16.4988 55.3713
16.5439 55.4087
16.589 55.0658
16.6341 54.6891
16.6792 54.1775
16.7243 54.4309
16.7694 54.4342
16.8145 54.4338
16.8596 54.3369
16.9047 54.8987
16.9498 55.1283
16.9949 55.0883
17.04 55.4184
17.0851 57.0551
17.1302 61.1555
17.1754 64.534
17.2205 65.8156
17.2656 68.0653
17.3108 73.6581
17.3559 80.5286
17.401 81.3281
17.4462 71.2472
17.4913 61.7071
17.5365 59.3297
17.5815 59.1869
17.6268 59.7544
17.6718 60.025
17.7171 60.5977
17.7622 61.5726
17.8074 62.5533
17.8525 64.004
17.8977 72.1425
17.9428 83.8239
17.9881 88.6424
18.0331 92.1864
18.0784 100.297
18.1237 117.485
18.1688 142.746
18.214 141.649
18.2591 110.239
18.3044 88.9391
18.3495 88.0018
18.3948 96.5569
18.4399 103.985
18.4852 94.9444
18.5303 75.8498
18.5756 65.1786
18.6207 62.5756
18.666 61.2665
18.7112 60.1633
18.7565 59.3502
18.8016 59.1229
18.8469 58.404
18.892 58.1203
18.9374 57.3738
18.9825 57.1703
19.0278 56.9345
19.073 56.9719
19.1183 57.3354
19.1635 59.801
19.2088 61.9131
19.254 62.9401
19.2993 63.7262
19.3447 65.9486
19.3898 70.0204
19.4352 74.5952
19.4804 72.3808
19.5257 63.4302
19.5709 56.6413
19.6163 54.6699
19.6615 54.1763
19.7068 53.6745
19.752 53.6155
19.7974 53.8427
19.8426 55.0121
19.888 56.9811
19.9332 58.3438
19.9786 59.0602
20.0238 59.8667
20.0692 62.592
20.1144 68.0394
20.1598 73.0145
20.205 71.3231
20.2504 65.5891
20.2957 61.5598
20.3411 62.4369
20.3863 65.4792
20.4318 64.5739
20.477 59.0092
20.5224 53.324
20.5677 51.3333
20.6131 50.6855
20.6586 50.1657
20.7038 49.9211
20.7493 49.5866
20.7945 49.4569
20.84 49.2236
20.8853 49.2003
20.9307 48.7116
20.976 49.0054
21.0215 49.33
21.0668 49.7469
21.1122 49.9744
21.1575 49.9456
21.203 50.0482
21.2483 50.7959
21.2938 51.7805
21.3391 51.726
21.3846 50.7886
21.4299 49.5455
21.4754 48.9163
21.5207 49.0486
21.5662 49.2781
21.6116 49.6251
21.6571 51.6377
21.7024 53.3186
21.7479 54.3493
21.7933 54.9762
21.8388 56.4596
21.8843 59.2904
21.9297 62.909
21.9752 66.6504
22.0206 65.9702
22.0661 60.8085
22.1115 56.8028
22.157 56.2092
22.2024 56.7131
22.248 55.365
22.2933 52.6566
22.3389 50.3129
22.3843 49.6097
22.4299 49.128
22.4753 49.0929
22.5208 48.9499
22.5662 49.0787
22.6118 49.313
22.6572 49.3927
22.7028 50.5576
22.7483 51.686
22.7939 52.1283
22.8393 52.4464
22.8849 53.0793
22.9303 54.1195
22.9759 55.7573
23.0214 57.7667
23.067 58.8465
23.1126 56.2701
23.1581 52.4305
23.2037 50.1949
23.2492 49.6543
23.2948 50.1307
23.3403 51.2715
23.3859 51.9156
23.4314 52.2309
23.477 52.3254
23.5225 52.8851
23.5682 54.1687
23.6137 56.6177
23.6593 58.1884
23.7048 57.34
23.7505 53.1595
23.796 49.2503
23.8417 47.2131
23.8872 46.4118
23.9329 45.9395
23.9784 45.5771
24.0241 45.2694
24.0697 45.1064
24.1154 44.6621
24.1609 44.4533
24.2066 44.1543
24.2522 44.2482
24.2979 43.8528
24.3434 43.9037
24.3892 43.57
24.4349 43.535
24.4805 43.3346
24.5262 43.3767
24.5718 43.2353
24.6175 43.2012
24.6631 43.4753
24.7089 43.2225
24.7545 42.9294
24.8002 42.7305
24.8458 42.78
24.8916 42.6841
24.9372 42.9283
24.983 43.0376
25.0286 43.361
25.0744 43.8528
25.12 44.0481
25.1658 44.6232
25.2114 45.0005
25.2572 45.3581
25.3029 45.2878
25.3487 45.1566
25.3943 45.4003
25.4402 45.1966
25.4858 44.799
25.5316 43.3127
25.5773 42.0634
25.6231 41.6148
25.669 41.132
25.7147 41.0224
25.7605 41.0441
25.8062 41.1866
25.8521 41.5755
25.8977 41.2809
25.9436 41.4084
25.9893 41.2635
26.0352 41.556
26.0809 41.601
26.1268 42.0054
26.1725 42.4481
26.2184 42.2591
26.2641 41.7483
26.31 41.1459
26.3557 41.1272
26.4017 41.1467
26.4474 41.1333
26.4933 41.2222
26.5391 41.4942
26.585 41.7758
26.6308 42.1109
26.6767 42.4975
26.7225 43.0614
26.7684 43.0096
26.8142 42.2177
26.8601 41.5706
26.9059 41.122
26.9519 40.7217
26.9979 40.3596
27.0437 39.7631
27.0896 39.5263
27.1354 39.416
27.1814 39.2176
27.2272 39.1086
27.2732 39.2835
27.3191 39.0166
27.3651 39.0211
27.4109 38.7607
27.4569 38.9492
27.5027 38.8984
27.5488 38.9242
27.5946 38.9831
27.6407 39.0529
27.6865 39.0526
27.7326 38.8279
27.7784 38.7295
27.8245 38.6292
27.8703 38.5906
27.9164 38.7848
27.9623 38.9255
28.0084 38.9662
28.0543 39.2612
28.1003 39.5783
28.1462 39.7606
28.1923 39.709
28.2384 39.1752
28.2843 38.6802
28.3304 38.34
28.3764 37.8455
28.4225 37.4872
28.4684 37.0517
28.5145 36.5764
28.5605 36.5061
28.6066 36.367
28.6526 36.291
28.6987 36.1728
28.7447 36.0728
28.7908 35.8492
28.8368 35.7934
28.8829 35.8256
28.9289 35.7984
28.9751 35.793
29.0211 35.6774
29.0673 35.4223
29.1133 35.2829
29.1595 35.0783
29.2055 34.8379
29.2517 34.7915
29.2977 34.538
29.3439 34.5973
29.3899 34.449
29.4361 34.4837
29.4824 34.5776
29.5284 34.4292
29.5746 34.1478
29.6207 33.8226
29.6669 33.5571
29.713 33.4165
29.7593 33.3478
29.8053 33.3569
29.8516 33.1924
29.8977 33.2281
29.9439 32.9975
29.99 33.0557
30.0363 32.9188
30.0824 32.9177
30.1287 32.7656
30.1748 32.8634
30.2211 32.8277
30.2673 32.6959
30.3136 32.9157
30.3597 32.9732
30.406 32.8164
30.4522 32.6323
30.4985 32.5584
30.5447 32.646
30.591 32.572
30.6372 32.6009
30.6835 32.5563
30.7297 32.5896
30.7761 32.7602
30.8224 32.6737
30.8686 32.507
30.915 32.3404
30.9612 32.2804
31.0076 31.9759
31.0538 31.7626
31.1002 31.6235
31.1464 31.4775
31.1928 31.4342
31.2391 31.4696
31.2855 31.4054
31.3317 31.2678
31.3781 31.3121
31.4244 31.3241
31.4708 31.2434
31.5171 31.2464
31.5636 31.4452
31.6098 31.1818
31.6563 31.1194
31.7026 30.9053
31.7491 30.7392
31.7953 30.6371
31.8418 30.6358
31.8881 30.6185
31.9346 30.5102
31.9809 30.5397
32.0275 30.4873
32.074 30.4764
32.1203 30.1514
32.1668 30.0692
32.2132 29.9943
32.2597 29.7597
32.306 29.766
32.3526 29.5335
32.399 29.3975
32.4455 29.2104
32.4919 29.2128
32.5385 29.14
32.5848 28.9155
32.6314 29.0098
32.6778 28.9236
32.7244 28.7166
32.7708 28.6496
32.8174 28.5867
32.8638 28.4109
32.9104 28.5118
32.9569 28.4401
33.0035 28.3511
33.0499 28.3015
33.0966 28.1681
33.143 28.1959
33.1897 28.0607
33.2361 28.135
33.2828 28.0385
33.3293 27.8596
33.3759 27.9056
33.4226 27.7754
33.4691 27.6458
33.5158 27.5618
33.5623 27.3602
33.609 27.2627
33.6555 27.0871
33.7022 27.0222
33.7487 26.9064
33.7954 26.8528
33.842 26.7154
33.8887 26.6927
33.9353 26.6441
33.982 26.5517
34.0286 26.4554
34.0753 26.4469
34.1219 26.2778
34.1687 26.1737
34.2152 26.1354
34.262 26.013
34.3086 25.8654
34.3554 25.8964
34.402 25.7411
34.4488 25.7066
34.4954 25.6558
34.5422 25.5615
34.5889 25.3916
34.6357 25.389
34.6825 25.341
34.7292 25.1849
34.776 25.0671
34.8227 25.0881
34.8695 25.0124
34.9162 24.9636
34.9631 24.9124
35.0098 24.8171
35.0566 24.6737
35.1033 24.6483
35.1502 24.6031
35.1969 24.6166
35.2438 24.5499
35.2906 24.467
35.3375 24.3254
35.3842 24.2781
35.4311 24.261
35.4779 24.3389
35.5248 24.2537
35.5716 24.1622
35.6185 24.1781
35.6653 24.0589
35.7123 23.9395
35.759 23.8562
35.806 23.767
35.8528 23.5938
35.8998 23.5671
35.9468 23.5334
35.9936 23.4546
36.0406 23.3721
36.0874 23.3366
36.1345 23.2507
36.1813 23.1435
36.2283 23.0376
36.2752 23.0234
36.3222 22.9876
36.3691 22.9243
36.4161 22.796
36.463 22.7575
36.5101 22.7821
36.557 22.6931
36.6041 22.5058
36.651 22.5111
36.6981 22.4742
36.745 22.4247
36.7921 22.3577
36.839 22.2945
36.8861 22.1054
36.9331 22.0921
36.9802 22.089
37.0272 21.921
37.0743 21.8313
37.1213 21.8845
37.1684 21.7468
37.2154 21.6448
37.2626 21.5536
37.3098 21.4597
37.3568 21.4832
37.404 21.4659
37.451 21.2857
37.4982 21.1891
37.5452 21.2173
37.5924 21.1634
37.6395 21.1071
37.6867 21.0667
37.7337 20.9348
37.781 20.8556
37.8281 20.8181
37.8753 20.6619
37.9224 20.6846
37.9697 20.5814
38.0168 20.5436
38.064 20.4911
38.1111 20.4265
38.1584 20.3739
38.2056 20.2786
38.2529 20.2273
38.3 20.1462
38.3473 20.1303
38.3945 19.9691
38.4418 19.963
38.489 19.8843
38.5363 19.7437
38.5837 19.7282
38.6309 19.7016
38.6782 19.6257
38.7254 19.5591
38.7728 19.5343
38.82 19.4417
38.8674 19.4124
38.9146 19.3526
38.9621 19.2267
39.0093 19.1928
39.0567 19.1754
39.104 19.0601
39.1514 18.9752
39.1987 18.8781
39.2461 18.9437
39.2934 18.8274
39.3409 18.7428
39.3882 18.5972
39.4356 18.6479
39.483 18.5418
39.5304 18.4809
39.5778 18.4945
39.6253 18.4709
39.6726 18.3351
39.7201 18.2876
39.7675 18.2645
39.815 18.1803
39.8624 18.1137
39.9099 18.1119
39.9575 17.998
40.0049 17.9462
40.0525 17.8931
40.0999 17.8831
40.1474 17.8428
40.1949 17.72
40.2425 17.6834
40.2899 17.6284
40.3375 17.6212
40.385 17.5203
40.4326 17.4897
40.48 17.3568
40.5277 17.4187
40.5752 17.3085
40.6228 17.2127
40.6703 17.2251
40.718 17.1153
40.7655 17.1009
40.8132 17.0051
40.8607 17.0285
40.9084 16.9527
40.9559 16.8557
41.0036 16.861
41.0512 16.802
41.0989 16.7585
41.1465 16.5835
41.1942 16.6231
41.242 16.5206
41.2896 16.4738
41.3373 16.3721
41.3849 16.3715
41.4327 16.3369
41.4803 16.2483
41.5281 16.1558
41.5758 16.1162
41.6236 15.9879
41.6712 16.0554
41.7191 15.9328
41.7667 15.9463
41.8146 15.8984
41.8622 15.8403
41.9101 15.753
41.9578 15.6603
42.0057 15.6378
42.0534 15.6789
42.1013 15.5984
42.149 15.544
42.1969 15.4502
42.2446 15.357
42.2925 15.389
42.3403 15.2553
42.3882 15.2732
42.436 15.2137
42.4839 15.1076
42.5319 15.0987
42.5797 15.0603
42.6277 14.9662
42.6755 14.9059
42.7235 14.8506
42.7713 14.8398
42.8193 14.7712
42.8671 14.7419
42.9152 14.7023
42.963 14.59
43.0111 14.5683
43.0589 14.5375
43.107 14.4824
43.1549 14.3994
43.2029 14.3506
43.2508 14.3543
43.2989 14.2804
43.3468 14.2559
43.3949 14.1838
43.4429 14.1584
43.491 14.0908
43.5389 14.0169
43.5871 14.0017
43.635 13.9177
43.6832 13.9349
43.7312 13.8391
43.7793 13.7563
43.8273 13.7728
43.8755 13.6094
43.9237 13.6366
43.9717 13.6134
44.0199 13.5986
44.068 13.489
44.1162 13.4481
44.1642 13.435
44.2125 13.3932
44.2606 13.3133
44.3088 13.3286
44.3569 13.2497
44.4052 13.21
44.4533 13.1532
44.5016 13.0938
44.5497 13.0589
44.598 13.0427
44.6461 12.9815
44.6945 12.9241
44.7426 12.8578
44.791 12.8105
44.8391 12.8164
44.8875 12.7294
44.9357 12.7104
44.984 12.6212
45.0322 12.6322
45.0806 12.5241
45.1288 12.5007
45.1773 12.4377
45.2257 12.3643
45.2739 12.3929
45.3224 12.3178
45.3706 12.3125
45.4191 12.2259
45.4673 12.2045
45.5158 12.1411
45.5641 12.1057
45.6126 12.0332
45.6609 12.0374
45.7094 11.9627
45.7577 11.9464
45.8063 11.8552
45.8546 11.8814
45.9031 11.7985
45.9515 11.792
46.0001 11.7174
46.0484 11.7009
46.097 11.6538
46.1454 11.5714
46.194 11.5611
46.2424 11.5199
46.291 11.5102
46.3395 11.4139
46.3881 11.3958
46.4365 11.4158
46.4852 11.3249
46.5337 11.2501
46.5823 11.2661
46.631 11.1863
46.6795 11.1539
46.7282 11.1095
46.7767 11.0664
46.8254 10.9808
46.8739 10.9634
46.9226 10.9538
46.9712 10.9025
47.0199 10.8465
47.0685 10.8429
47.1173 10.7704
47.1658 10.7535
47.2146 10.7185
47.2632 10.6257
47.312 10.6568
47.3606 10.5946
47.4095 10.5364
47.4581 10.5167
47.5069 10.4564
47.5556 10.4417
47.6044 10.3977
47.6531 10.3437
47.702 10.2831
47.7507 10.2424
47.7996 10.2015
47.8483 10.2203
47.8972 10.1686
47.9461 10.1207
47.9948 10.0817
48.0438 10.0374
48.0925 10.0173
48.1415 9.98471
48.1902 9.95239
48.2392 9.91174
48.288 9.87246
48.337 9.81256
48.3858 9.77639
48.4348 9.80452
48.4837 9.77475
48.5327 9.69933
48.5815 9.65267
48.6306 9.63955
48.6795 9.56909
48.7285 9.54996
48.7774 9.5361
48.8265 9.46245
48.8754 9.4573
48.9245 9.44242
48.9734 9.3398
49.0226 9.35457
49.0715 9.32555
49.1206 9.27388
49.1696 9.19579
49.2188 9.25281
49.2679 9.17566
49.3169 9.14419
49.3661 9.08559
49.4151 9.05431
49.4643 9.03978
49.5134 8.97091
49.5626 8.9329
49.6117 8.92137
49.6609 8.89792
49.71 8.81386
49.7592 8.82642
49.8083 8.7922
49.8576 8.76029
49.9067 8.69946
49.956 8.69905
50.0052 8.63961
50.0545 8.61867
50.1036 8.59445
50.153 8.55987
50.2022 8.50089
50.2515 8.48802
50.3007 8.46997
50.3501 8.41993
50.3993 8.40122
50.4487 8.35443
50.498 8.29546
50.5474 8.26696
50.5966 8.27517
50.6461 8.24072
50.6955 8.20855
50.7448 8.13447
50.7943 8.16651
50.8436 8.11473
50.8931 8.05605
50.9424 8.05693
50.9919 7.99976
51.0413 7.97632
51.0908 7.97276
51.1402 7.93523
51.1897 7.87034
51.2391 7.85879
51.2887 7.81069
51.3381 7.79538
51.3877 7.75505
51.4371 7.69245
51.4867 7.67805
51.5362 7.66927
51.5858 7.66264
51.6353 7.60575
51.6849 7.52626
51.7344 7.5411
51.7841 7.53339
51.8336 7.49462
51.8833 7.45552
51.9328 7.39409
51.9826 7.3845
52.0323 7.32713
52.0818 7.32497
52.1316 7.2789
52.1812 7.24137
52.231 7.21359
52.2806 7.20405
52.3304 7.18476
52.38 7.14285
52.4298 7.09288
52.4794 7.0779
52.5293 7.031
52.5789 7.04571
52.6288 7.00177
52.6785 6.96634
52.7284 6.94718
52.7781 6.92619
52.828 6.88306
52.8777 6.84927
52.9276 6.83117
52.9774 6.81436
53.0273 6.77345
53.0771 6.724
53.1271 6.74225
53.1769 6.69207
53.2269 6.65186
53.2767 6.64496
53.3267 6.60511
53.3765 6.57888
53.4266 6.57433
53.4766 6.48405
53.5265 6.46926
53.5765 6.44469
53.6264 6.4295
53.6765 6.41049
53.7264 6.3748
53.7765 6.36255
53.8265 6.31628
53.8766 6.25936
53.9266 6.26168
53.9767 6.2118
54.0267 6.18787
54.0769 6.14879
54.1269 6.12283
54.1771 6.1053
54.2271 6.01137
54.2773 6.05887
54.3274 5.93923
54.3776 5.97049
54.4277 5.92632
54.478 5.87824
54.528 5.86004
54.5783 5.79259
54.6285 5.7881
54.6788 5.71894
54.7289 5.67818
54.7792 5.63891
54.8296 5.54425
54.8798 5.48755
54.9301 5.46139
54.9803 5.4969
55.0307 5.41575
55.0809 5.36268
55.1314 5.30128
55.1816 5.30598
55.232 5.20579
55.2823 5.18557
55.3328 5.12967
55.383 5.05526
55.4335 5.02997
55.4838 4.94073
55.5344 4.91268
55.5847 4.92242
55.6352 4.87574
55.6856 4.91022
55.7361 4.77235