File: XRD/Ni3Fe_FD0982.xy
TT I
1.27165 6.80936
1.31627 6.69861
1.36089 6.42315
1.40551 6.54361
1.45013 5.44831
1.49476 6.21618
1.53938 6.2088
1.584 5.24291
1.62863 5.33433
1.67325 5.26161
1.71787 4.85865
1.7625 4.31388
1.80712 5.26785
1.85174 5.02115
1.89636 4.64648
1.94099 4.30856
1.98562 4.76761
2.03025 4.61591
2.07487 4.62477
2.11949 4.99776
2.16411 5.58161
2.20874 14.0499
2.25338 24.2964
2.298 6.18018
2.34263 5.42704
2.38725 5.37043
2.43188 5.9213
2.4765 7.05687
2.52115 6.45938
2.56577 8.50455
2.6104 8.99578
2.65503 8.9076
2.69965 8.30513
2.7443 8.3386
2.78893 8.24977
2.83356 8.80369
2.87818 8.63293
2.92281 9.33878
2.96744 9.81574
3.01209 10.4627
3.05672 11.3923
3.10135 12.7219
3.14599 13.3409
3.19062 14.0044
3.23527 15.1066
3.2799 15.503
3.32454 16.5685
3.36917 17.3624
3.4138 18.8276
3.45844 19.3435
3.50309 20.6438
3.54773 21.4292
3.59237 24.1815
3.637 95.4195
3.68164 61.0563
3.7263 26.0174
3.77094 25.903
3.81558 26.6399
3.86022 27.6685
3.90486 28.6845
3.9495 29.5069
3.99416 30.6144
4.0388 32.0235
4.08344 33.1868
4.12809 34.8396
4.17273 36.8922
4.21738 42.7218
4.26204 260.652
4.30669 231.241
4.35133 48.9725
4.39598 44.4774
4.44063 53.8662
4.4853 66.0736
4.52995 49.7882
4.5746 50.1907
4.61925 52.5037
4.6639 54.6588
4.70855 57.0545
4.75322 59.539
4.79788 62.4771
4.84253 65.9193
4.88719 69.6499
4.93184 73.2212
4.97652 78.5764
5.02118 83.816
5.06583 91.0407
5.11049 100.567
5.15515 165.169
5.19981 271.73
5.24449 2291.62
5.28916 13488.5
5.33382 2769.97
5.37848 172.884
5.42315 123.624
5.46783 109.589
5.5125 103.354
5.55716 99.554
5.60183 96.3004
5.6465 94.2731
5.69117 92.0352
5.73586 89.9343
5.78053 89.1191
5.8252 88.0892
5.86988 88.6716
5.91455 90.3433
5.95924 95.9187
6.00392 166.806
6.0486 776.793
6.09328 4590.58
6.13795 3256.13
6.18263 214.213
6.22733 89.4016
6.27201 80.6601
6.3167 102.097
6.36138 80.1322
6.40606 67.7239
6.45075 66.1326
6.49545 64.562
6.54014 62.8914
6.58483 61.7755
6.62952 61.9168
6.67421 94.5559
6.71892 147.361
6.76361 68.5546
6.8083 57.8474
6.853 57.0307
6.89769 55.9867
6.94239 55.6604
6.98711 55.1836
7.03181 54.8193
7.07651 54.2495
7.12121 54.1829
7.16591 54.3406
7.21063 54.8083
7.25533 71.2419
7.30004 187.182
7.34475 93.3769
7.38945 55.7763
7.43416 53.9505
7.47889 53.4421
7.5236 53.9232
7.56831 54.823
7.61303 56.4224
7.65774 56.8441
7.70247 55.6196
7.74719 55.2545
7.79191 55.5462
7.83663 56.0629
7.88135 56.7638
7.92607 57.7049
7.97081 58.9806
8.01553 59.5165
8.06026 61.324
8.10498 62.7456
8.14971 72.4468
8.19446 71.4906
8.23919 68.2524
8.28392 70.0931
8.32865 72.1753
8.37339 76.2982
8.41812 82.993
8.46288 111.11
8.50761 140.838
8.55235 323.263
8.59709 1120.53
8.64183 2305.16
8.68658 916.245
8.73134 159.123
8.77609 96.2753
8.82083 90.483
8.86558 87.589
8.91033 88.359
8.9551 90.4152
8.99985 83.6714
9.04461 81.7573
9.08936 80.8531
9.13412 80.2749
9.17888 80.4801
9.22365 81.3741
9.26841 80.3432
9.31318 80.7802
9.35794 81.1134
9.4027 81.5526
9.44749 82.0574
9.49226 82.5748
9.53703 83.6743
9.5818 85.3843
9.62657 89.8524
9.67134 96.7684
9.71614 91.6233
9.76091 91.4458
9.80569 94.3686
9.85047 97.5838
9.89525 122.115
9.94005 133.5
9.98484 153.037
10.0296 291.359
10.0744 750.187
10.1192 1765.67
10.164 1550.58
10.2088 366.51
10.2536 122.005
10.2984 110.864
10.3432 112.905
10.388 101.869
10.4328 109.911
10.4776 144.599
10.5224 267.64
10.5672 530.506
10.612 507.813
10.6568 197.025
10.7017 94.4
10.7465 84.255
10.7913 81.54
10.8361 79.6611
10.8809 77.4313
10.9257 77.1484
10.9706 77.4979
11.0154 73.4962
11.0602 71.6183
11.105 70.6699
11.1499 75.1573
11.1947 82.9972
11.2395 73.7418
11.2844 69.2017
11.3292 66.1988
11.374 64.9293
11.4189 64.3839
11.4637 63.5825
11.5086 64.4271
11.5534 67.3925
11.5983 64.5454
11.6431 62.364
11.688 61.724
11.7328 61.8146
11.7777 61.6973
11.8225 61.1084
11.8674 61.2316
11.9122 61.4613
11.9571 61.5584
12.002 62.1644
12.0468 64.7091
12.0917 74.2545
12.1366 97.4153
12.1814 152.301
12.2263 204.204
12.2712 162.552
12.3161 95.2064
12.3609 69.5944
12.4058 63.4519
12.4507 62.9244
12.4956 63.1118
12.5405 63.3933
12.5853 64.1209
12.6302 72.556
12.6751 78.2891
12.72 68.7933
12.7649 66.526
12.8098 67.0178
12.8547 67.9709
12.8996 69.2631
12.9445 70.7839
12.9894 72.1408
13.0343 73.6258
13.0792 76.6396
13.1242 83.4356
13.1691 103.002
13.214 135.908
13.2589 229.257
13.3038 378.306
13.3487 427.528
13.3937 248.667
13.4386 119.709
13.4835 99.3565
13.5285 111.518
13.5734 147.271
13.6183 243.179
13.6633 358.416
13.7082 332.195
13.7531 177.135
13.7981 95.1461
13.843 79.9317
13.888 77.8092
13.9329 75.489
13.9779 74.196
14.0228 72.7568
14.0678 71.3599
14.1127 71.0192
14.1577 70.9756
14.2027 70.0981
14.2476 69.2071
14.2926 69.0262
14.3376 70.2272
14.3825 68.9621
14.4275 67.3232
14.4725 67.0104
14.5175 67.6556
14.5624 67.4489
14.6074 69.9442
14.6524 70.1678
14.6974 68.8241
14.7424 69.609
14.7874 74.4447
14.8324 83.5051
14.8774 104.353
14.9224 150.848
14.9674 214.063
15.0124 217.858
15.0574 147.616
15.1024 88.1457
15.1474 70.5139
15.1924 68.8492
15.2374 69.6003
15.2824 69.0638
15.3274 66.6872
15.3725 65.4494
15.4175 65.0136
15.4625 64.8491
15.5076 64.8889
15.5526 64.8644
15.5976 64.2104
15.6426 64.4512
15.6877 68.7893
15.7327 74.9612
15.7778 89.7222
15.8228 122.18
15.8679 172.647
15.9129 197.401
15.958 152.128
16.003 93.7259
16.0481 66.9441
16.0931 63.5092
16.1382 61.6745
16.1833 59.5931
16.2283 57.8885
16.2734 57.0444
16.3185 57.6474
16.3636 58.4342
16.4086 56.8286
16.4537 55.1923
16.4988 54.4063
16.5439 54.2732
16.589 54.0308
16.6341 53.8948
16.6792 53.3866
16.7243 53.6676
16.7694 53.7906
16.8145 53.7896
16.8596 54.0589
16.9047 55.7345
16.9498 55.8504
16.9949 54.5213
17.04 54.326
17.0851 55.3073
17.1302 56.7431
17.1754 59.6085
17.2205 64.8062
17.2656 72.7976
17.3108 82.4708
17.3559 80.5394
17.401 68.6605
17.4462 60.4283
17.4913 57.6037
17.5365 57.8427
17.5815 57.9911
17.6268 58.4901
17.6718 59.2972
17.7171 59.5962
17.7622 59.8077
17.8074 60.4559
17.8525 61.879
17.8977 65.5537
17.9428 70.4297
17.9881 78.9219
18.0331 96.7676
18.0784 121.311
18.1237 138.228
18.1688 125.375
18.214 99.4644
18.2591 83.2289
18.3044 88.6155
18.3495 100.128
18.3948 106.018
18.4399 93.9619
18.4852 75.602
18.5303 64.4483
18.5756 60.9905
18.6207 60.013
18.666 59.3037
18.7112 58.5775
18.7565 57.6652
18.8016 57.4205
18.8469 56.9523
18.892 56.6069
18.9374 55.9773
18.9825 55.8526
19.0278 55.5672
19.073 55.5715
19.1183 55.7917
19.1635 56.5865
19.2088 57.9722
19.254 60.151
19.2993 65.183
19.3447 71.8116
19.3898 75.3148
19.4352 70.386
19.4804 61.2769
19.5257 55.2578
19.5709 53.1559
19.6163 52.6784
19.6615 52.4297
19.7068 52.1882
19.752 52.0605
19.7974 52.3993
19.8426 52.9693
19.888 53.6205
19.9332 54.5338
19.9786 57.0334
20.0238 61.2495
20.0692 66.3081
20.1144 68.6692
20.1598 66.2243
20.205 61.7933
20.2504 60.7983
20.2957 63.3181
20.3411 64.8891
20.3863 63.0252
20.4318 57.193
20.477 52.4808
20.5224 50.5272
20.5677 49.8963
20.6131 49.2416
20.6586 48.7556
20.7038 48.482
20.7493 48.1265
20.7945 48.0224
20.84 47.8104
20.8853 47.7883
20.9307 47.4581
20.976 47.5031
21.0215 47.6748
21.0668 47.8182
21.1122 48.423
21.1575 48.9207
21.203 49.9807
21.2483 50.6133
21.2938 50.2781
21.3391 49.0423
21.3846 47.9996
21.4299 47.3563
21.4754 47.1963
21.5207 47.4931
21.5662 47.6231
21.6116 47.9519
21.6571 48.4439
21.7024 49.4681
21.7479 51.0564
21.7933 53.9062
21.8388 57.9514
21.8843 61.9021
21.9297 63.6021
21.9752 61.5322
22.0206 57.9963
22.0661 55.6496
22.1115 55.2721
22.157 54.7468
22.2024 53.0929
22.248 50.4631
22.2933 48.7782
22.3389 48.2659
22.3843 47.9907
22.4299 48.0753
22.4753 48.0211
22.5208 47.6846
22.5662 47.5198
22.6118 47.5987
22.6572 47.741
22.7028 48.1492
22.7483 48.2555
22.7939 49.1098
22.8393 50.5396
22.8849 52.9597
22.9303 55.5312
22.9759 57.133
23.0214 56.3896
23.067 53.4396
23.1126 50.008
23.1581 48.2062
23.2037 47.7986
23.2492 47.6877
23.2948 47.7039
23.3403 47.8046
23.3859 48.454
23.4314 49.5328
23.477 51.451
23.5225 54.1945
23.5682 56.3894
23.6137 56.9512
23.6593 54.3065
23.7048 50.3788
23.7505 47.3383
23.796 45.6255
23.8417 45.2544
23.8872 44.6324
23.9329 44.328
23.9784 43.8837
24.0241 43.7188
24.0697 43.6025
24.1154 43.2308
24.1609 43.0677
24.2066 42.9345
24.2522 42.7968
24.2979 42.5421
24.3434 42.4414
24.3892 42.1885
24.4349 42.2199
24.4805 42.0326
24.5262 42.3668
24.5718 42.1779
24.6175 42.0675
24.6631 41.9114
24.7089 41.6546
24.7545 41.5212
24.8002 41.3883
24.8458 41.382
24.8916 41.357
24.9372 41.1783
24.983 41.567
25.0286 41.8662
25.0744 42.3147
25.12 42.7997
25.1658 43.515
25.2114 43.7642
25.2572 43.9758
25.3029 44.1151
25.3487 44.3978
25.3943 43.6627
25.4402 42.5486
25.4858 41.544
25.5316 40.8423
25.5773 40.1041
25.6231 40.0602
25.669 39.7388
25.7147 39.6695
25.7605 39.584
25.8062 39.6135
25.8521 39.812
25.8977 39.7736
25.9436 40.0492
25.9893 40.1288
26.0352 40.7578
26.0809 40.8425
26.1268 40.9994
26.1725 40.4971
26.2184 39.942
26.2641 39.3643
26.31 39.2183
26.3557 39.2713
26.4017 39.2417
26.4474 39.5764
26.4933 39.8386
26.5391 40.2941
26.585 40.8961
26.6308 41.3917
26.6767 41.3877
26.7225 41.0607
26.7684 40.5698
26.8142 40.1142
26.8601 39.6808
26.9059 39.2236
26.9519 38.6694
26.9979 38.3815
27.0437 38.1948
27.0896 37.9133
27.1354 37.9787
27.1814 37.7944
27.2272 37.8262
27.2732 37.863
27.3191 37.4009
27.3651 37.7331
27.4109 37.5623
27.4569 37.6161
27.5027 37.849
27.5488 37.8614
27.5946 37.5354
27.6407 37.3833
27.6865 37.2556
27.7326 37.0392
27.7784 36.9691
27.8245 36.9799
27.8703 37.1698
27.9164 37.5206
27.9623 37.6678
28.0084 37.9435
28.0543 38.363
28.1003 38.2349
28.1462 38.0634
28.1923 37.7845
28.2384 37.1292
28.2843 36.888
28.3304 36.3361
28.3764 35.9399
28.4225 35.7178
28.4684 35.5473
28.5145 35.1908
28.5605 35.1378
28.6066 34.9756
28.6526 34.9371
28.6987 34.8989
28.7447 34.8308
28.7908 34.6891
28.8368 34.8768
28.8829 34.8425
28.9289 34.5395
28.9751 34.4933
29.0211 34.2024
29.0673 34.0163
29.1133 33.863
29.1595 33.8104
29.2055 33.7018
29.2517 33.6233
29.2977 33.6375
29.3439 33.5413
29.3899 33.5795
29.4361 33.5114
29.4824 33.3151
29.5284 33.039
29.5746 32.8399
29.6207 32.4533
29.6669 32.462
29.713 32.3294
29.7593 32.231
29.8053 32.2353
29.8516 32.0914
29.8977 32.1003
29.9439 31.9712
29.99 31.9455
30.0363 31.7066
30.0824 31.8882
30.1287 31.7464
30.1748 31.89
30.2211 31.8012
30.2673 31.7409
30.3136 31.6819
30.3597 31.6489
30.406 31.5461
30.4522 31.4558
30.4985 31.3441
30.5447 31.5584
30.591 31.5925
30.6372 31.6001
30.6835 31.5301
30.7297 31.7112
30.7761 31.5786
30.8224 31.3284
30.8686 31.2647
30.915 30.9896
30.9612 30.9199
31.0076 30.722
31.0538 30.4361
31.1002 30.566
31.1464 30.3629
31.1928 30.3505
31.2391 30.3254
31.2855 30.2069
31.3317 30.2293
31.3781 30.3778
31.4244 30.203
31.4708 30.1966
31.5171 30.1774
31.5636 30.1031
31.6098 29.9334
31.6563 29.7152
31.7026 29.6964
31.7491 29.546
31.7953 29.6163
31.8418 29.5098
31.8881 29.5773
31.9346 29.5222
31.9809 29.5237
32.0275 29.3501
32.074 29.3116
32.1203 29.0351
32.1668 28.9319
32.2132 28.7895
32.2597 28.7438
32.306 28.4821
32.3526 28.442
32.399 28.3741
32.4455 28.1778
32.4919 28.2016
32.5385 28.1029
32.5848 27.9925
32.6314 27.8809
32.6778 27.8908
32.7244 27.6903
32.7708 27.6306
32.8174 27.6535
32.8638 27.5512
32.9104 27.5917
32.9569 27.3844
33.0035 27.3652
33.0499 27.2745
33.0966 27.3249
33.143 27.3062
33.1897 27.1779
33.2361 27.0686
33.2828 27.0106
33.3293 26.876
33.3759 26.8331
33.4226 26.6241
33.4691 26.4875
33.5158 26.6371
33.5623 26.3156
33.609 26.2608
33.6555 26.1234
33.7022 26.1207
33.7487 26.0751
33.7954 25.9917
33.842 25.9654
33.8887 25.8759
33.9353 25.7556
33.982 25.6621
34.0286 25.487
34.0753 25.4173
34.1219 25.4118
34.1687 25.2984
34.2152 25.3107
34.262 25.2017
34.3086 25.047
34.3554 25.0042
34.402 24.9248
34.4488 24.8095
34.4954 24.8243
34.5422 24.6992
34.5889 24.6043
34.6357 24.5321
34.6825 24.4036
34.7292 24.424
34.776 24.332
34.8227 24.2427
34.8695 24.1738
34.9162 24.1471
34.9631 24.0479
35.0098 24.0324
35.0566 23.8891
35.1033 23.8989
35.1502 23.7853
35.1969 23.747
35.2438 23.6575
35.2906 23.7283
35.3375 23.6536
35.3842 23.4895
35.4311 23.5908
35.4779 23.487
35.5248 23.5108
35.5716 23.3346
35.6185 23.2639
35.6653 23.1655
35.7123 23.0794
35.759 23.0658
35.806 22.8835
35.8528 22.8045
35.8998 22.8274
35.9468 22.6361
35.9936 22.6348
36.0406 22.5698
36.0874 22.5308
36.1345 22.5064
36.1813 22.4587
36.2283 22.2891
36.2752 22.2258
36.3222 22.2533
36.3691 22.1165
36.4161 21.9875
36.463 22.0708
36.5101 22.0315
36.557 21.9902
36.6041 21.7016
36.651 21.7915
36.6981 21.6634
36.745 21.6083
36.7921 21.5356
36.839 21.4353
36.8861 21.3631
36.9331 21.3278
36.9802 21.2825
37.0272 21.2117
37.0743 21.1142
37.1213 21.0483
37.1684 20.9895
37.2154 20.9178
37.2626 20.8824
37.3098 20.8233
37.3568 20.6853
37.404 20.6928
37.451 20.5888
37.4982 20.582
37.5452 20.4998
37.5924 20.4029
37.6395 20.3921
37.6867 20.3088
37.7337 20.2057
37.781 20.1389
37.8281 20.1606
37.8753 19.9521
37.9224 19.9363
37.9697 19.9045
38.0168 19.7689
38.064 19.7378
38.1111 19.6543
38.1584 19.5934
38.2056 19.5519
38.2529 19.5611
38.3 19.4151
38.3473 19.4156
38.3945 19.2406
38.4418 19.2281
38.489 19.2036
38.5363 19.1711
38.5837 19.088
38.6309 19.0127
38.6782 18.991
38.7254 18.8835
38.7728 18.8291
38.82 18.7645
38.8674 18.8259
38.9146 18.7208
38.9621 18.6312
39.0093 18.5699
39.0567 18.5925
39.104 18.4766
39.1514 18.2767
39.1987 18.3201
39.2461 18.2861
39.2934 18.2887
39.3409 18.1507
39.3882 18.1123
39.4356 18.0349
39.483 17.9227
39.5304 17.8854
39.5778 17.9416
39.6253 17.8604
39.6726 17.7776
39.7201 17.7125
39.7675 17.6148
39.815 17.6288
39.8624 17.5311
39.9099 17.5044
39.9575 17.4214
40.0049 17.3185
40.0525 17.2851
40.0999 17.2522
40.1474 17.2277
40.1949 17.164
40.2425 17.086
40.2899 17.0782
40.3375 16.9939
40.385 16.8976
40.4326 16.8505
40.48 16.7835
40.5277 16.8284
40.5752 16.6742
40.6228 16.6446
40.6703 16.6392
40.718 16.512
40.7655 16.5611
40.8132 16.4343
40.8607 16.4425
40.9084 16.4153
40.9559 16.2781
41.0036 16.2732
41.0512 16.1876
41.0989 16.1792
41.1465 16.1166
41.1942 15.998
41.242 15.9714
41.2896 15.8981
41.3373 15.8356
41.3849 15.7877
41.4327 15.8011
41.4803 15.6937
41.5281 15.7005
41.5758 15.6198
41.6236 15.5311
41.6712 15.4636
41.7191 15.4341
41.7667 15.3666
41.8146 15.3586
41.8622 15.3263
41.9101 15.2742
41.9578 15.1644
42.0057 15.1355
42.0534 15.0794
42.1013 15.0577
42.149 15.0035
42.1969 14.9452
42.2446 14.8923
42.2925 14.8684
42.3403 14.7984
42.3882 14.7106
42.436 14.7375
42.4839 14.6238
42.5319 14.5944
42.5797 14.5603
42.6277 14.5012
42.6755 14.5257
42.7235 14.374
42.7713 14.3715
42.8193 14.343
42.8671 14.2159
42.9152 14.2098
42.963 14.145
43.0111 14.1221
43.0589 14.0413
43.107 13.9959
43.1549 13.9915
43.2029 13.9276
43.2508 13.8895
43.2989 13.7979
43.3468 13.7477
43.3949 13.754
43.4429 13.672
43.491 13.6473
43.5389 13.5994
43.5871 13.5155
43.635 13.4745
43.6832 13.4959
43.7312 13.4161
43.7793 13.3522
43.8273 13.3068
43.8755 13.2538
43.9237 13.2039
43.9717 13.1487
44.0199 13.0828
44.068 13.1452
44.1162 13.0783
44.1642 12.991
44.2125 12.9547
44.2606 12.9106
44.3088 12.8392
44.3569 12.7519
44.4052 12.7978
44.4533 12.7343
44.5016 12.6552
44.5497 12.6119
44.598 12.6041
44.6461 12.5571
44.6945 12.5194
44.7426 12.4596
44.791 12.3969
44.8391 12.3688
44.8875 12.338
44.9357 12.325
44.984 12.2748
45.0322 12.2123
45.0806 12.1923
45.1288 12.1184
45.1773 12.0695
45.2257 12.0198
45.2739 11.9771
45.3224 11.9682
45.3706 11.9152
45.4191 11.872
45.4673 11.8564
45.5158 11.7901
45.5641 11.7391
45.6126 11.6886
45.6609 11.6646
45.7094 11.6058
45.7577 11.5626
45.8063 11.4904
45.8546 11.4663
45.9031 11.3923
45.9515 11.4226
46.0001 11.3879
46.0484 11.3122
46.097 11.2671
46.1454 11.2548
46.194 11.2027
46.2424 11.153
46.291 11.1262
46.3395 11.0962
46.3881 11.0475
46.4365 11.0368
46.4852 10.9488
46.5337 10.9161
46.5823 10.8906
46.631 10.8242
46.6795 10.8366
46.7282 10.7769
46.7767 10.7175
46.8254 10.6361
46.8739 10.6027
46.9226 10.5898
46.9712 10.5691
47.0199 10.4793
47.0685 10.5093
47.1173 10.4768
47.1658 10.3986
47.2146 10.3671
47.2632 10.2988
47.312 10.3236
47.3606 10.2489
47.4095 10.2223
47.4581 10.1723
47.5069 10.1198
47.5556 10.0714
47.6044 10.0746
47.6531 10.0377
47.702 9.96628
47.7507 9.96428
47.7996 9.95114
47.8483 9.90214
47.8972 9.86654
47.9461 9.79751
47.9948 9.74531
48.0438 9.74805
48.0925 9.67567
48.1415 9.6865
48.1902 9.64469
48.2392 9.58154
48.288 9.60468
48.337 9.52441
48.3858 9.49344
48.4348 9.46518
48.4837 9.41604
48.5327 9.35832
48.5815 9.33638
48.6306 9.30087
48.6795 9.28101
48.7285 9.25344
48.7774 9.19856
48.8265 9.22013
48.8754 9.13911
48.9245 9.1494
48.9734 9.0783
49.0226 9.05876
49.0715 9.01819
49.1206 8.96658
49.1696 8.90954
49.2188 8.89876
49.2679 8.90489
49.3169 8.83126
49.3661 8.77975
49.4151 8.76993
49.4643 8.73
49.5134 8.7141
49.5626 8.64124
49.6117 8.61281
49.6609 8.63066
49.71 8.55163
49.7592 8.56493
49.8083 8.50298
49.8576 8.52082
49.9067 8.42611
49.956 8.39792
50.0052 8.36426
50.0545 8.32571
50.1036 8.30221
50.153 8.26661
50.2022 8.22622
50.2515 8.20196
50.3007 8.15893
50.3501 8.13798
50.3993 8.10957
50.4487 8.09187
50.498 8.05935
50.5474 8.0248
50.5966 7.9893
50.6461 7.97313
50.6955 7.95763
50.7448 7.9056
50.7943 7.89219
50.8436 7.84019
50.8931 7.83348
50.9424 7.79002
50.9919 7.75862
51.0413 7.73341
51.0908 7.71724
51.1402 7.64336
51.1897 7.63469
51.2391 7.60719
51.2887 7.5781
51.3381 7.52975
51.3877 7.51169
51.4371 7.4592
51.4867 7.45348
51.5362 7.41962
51.5858 7.40335
51.6353 7.38369
51.6849 7.35523
51.7344 7.33142
51.7841 7.29005
51.8336 7.23089
51.8833 7.21037
51.9328 7.16605
51.9826 7.14041
52.0323 7.12974
52.0818 7.10033
52.1316 7.04964
52.1812 7.03244
52.231 7.00252
52.2806 6.97552
52.3304 6.99647
52.38 6.90242
52.4298 6.88865
52.4794 6.86908
52.5293 6.79766
52.5789 6.79602
52.6288 6.78959
52.6785 6.73304
52.7284 6.71361
52.7781 6.71622
52.828 6.64119
52.8777 6.6392
52.9276 6.64089
52.9774 6.59003
53.0273 6.57713
53.0771 6.51702
53.1271 6.49947
53.1769 6.45099
53.2269 6.41714
53.2767 6.40639
53.3267 6.39688
53.3765 6.36771
53.4266 6.31581
53.4766 6.32491
53.5265 6.31803
53.5765 6.28005
53.6264 6.22471
53.6765 6.23306
53.7264 6.22287
53.7765 6.15069
53.8265 6.1021
53.8766 6.0313
53.9266 6.06307
53.9767 6.04934
54.0267 6.01926
54.0769 6.00549
54.1269 5.94056
54.1771 5.96507
54.2271 5.91415
54.2773 5.87382
54.3274 5.80494
54.3776 5.79308
54.4277 5.80042
54.478 5.76897
54.528 5.6961
54.5783 5.69942
54.6285 5.63765
54.6788 5.65376
54.7289 5.53702
54.7792 5.51492
54.8296 5.44824
54.8798 5.42395
54.9301 5.41432
54.9803 5.33117
55.0307 5.32982
55.0809 5.30402
55.1314 5.23251
55.1816 5.1916
55.232 5.13116
55.2823 5.12487
55.3328 5.05013
55.383 4.96151
55.4335 5.00782
55.4838 4.94174
55.5344 4.87606
55.5847 4.87444
55.6352 4.83535
55.6856 4.78418
55.7361 4.72902