File: XRD/Ni3Fe_FD0575.xy
TT I
1.27165 7.52232
1.31627 6.7475
1.36089 6.54534
1.40551 5.70282
1.45013 6.00913
1.49476 5.54525
1.53938 6.25835
1.584 5.18456
1.62863 5.26971
1.67325 5.0126
1.71787 5.04994
1.7625 4.76626
1.80712 4.68688
1.85174 5.05833
1.89636 4.97487
1.94099 5.04312
1.98562 4.72493
2.03025 4.06902
2.07487 4.76466
2.11949 4.8899
2.16411 4.66484
2.20874 9.75478
2.25338 13.7024
2.298 5.49106
2.34263 5.40036
2.38725 5.84641
2.43188 5.40026
2.4765 6.91986
2.52115 6.75754
2.56577 7.5147
2.6104 7.48428
2.65503 7.64944
2.69965 7.84755
2.7443 7.70747
2.78893 8.14734
2.83356 7.86623
2.87818 8.76108
2.92281 8.73405
2.96744 9.32277
3.01209 10.2365
3.05672 11.0649
3.10135 11.8545
3.14599 12.834
3.19062 13.917
3.23527 14.9764
3.2799 15.1967
3.32454 16.4233
3.36917 17.5479
3.4138 18.771
3.45844 19.6947
3.50309 20.8797
3.54773 21.0659
3.59237 23.0589
3.637 58.9114
3.68164 42.2105
3.7263 25.4643
3.77094 25.8393
3.81558 26.5594
3.86022 27.559
3.90486 29.0617
3.9495 29.6967
3.99416 30.3948
4.0388 32.1672
4.08344 33.9076
4.12809 34.4206
4.17273 36.1796
4.21738 40.1133
4.26204 150.288
4.30669 130.227
4.35133 45.1234
4.39598 43.8324
4.44063 50.274
4.4853 56.8817
4.52995 52.6215
4.5746 53.3968
4.61925 54.1942
4.6639 55.8791
4.70855 58.5613
4.75322 61.5678
4.79788 65.805
4.84253 68.0683
4.88719 73.2331
4.93184 76.3291
4.97652 82.2762
5.02118 88.5263
5.06583 96.7644
5.11049 109.197
5.15515 163.181
5.19981 459.634
5.24449 3196.58
5.28916 12371.3
5.33382 2846.91
5.37848 197.23
5.42315 131.685
5.46783 117.066
5.5125 109.152
5.55716 103.163
5.60183 98.789
5.6465 97.2201
5.69117 95.5505
5.73586 93.5351
5.78053 95.4071
5.8252 94.8262
5.86988 96.6676
5.91455 96.9277
5.95924 108.071
6.00392 265.92
6.0486 1106.76
6.09328 4434.74
6.13795 3360.37
6.18263 245.917
6.22733 93.6193
6.27201 82.7006
6.3167 89.1698
6.36138 76.2823
6.40606 69.6983
6.45075 68.2231
6.49545 65.942
6.54014 63.8575
6.58483 62.6543
6.62952 62.6945
6.67421 78.8298
6.71892 103.93
6.76361 63.948
6.8083 58.9398
6.853 57.8413
6.89769 57.0748
6.94239 56.8495
6.98711 55.7833
7.03181 55.5956
7.07651 55.2964
7.12121 55.3179
7.16591 55.2485
7.21063 55.4858
7.25533 63.2393
7.30004 119.695
7.34475 74.4284
7.38945 55.3595
7.43416 54.2877
7.47889 54.0335
7.5236 54.5202
7.56831 55.2301
7.61303 56.2122
7.65774 56.7611
7.70247 56.8527
7.74719 56.4978
7.79191 56.8279
7.83663 57.1754
7.88135 58.0005
7.92607 59.0123
7.97081 60.1033
8.01553 61.2067
8.06026 62.8291
8.10498 64.1316
8.14971 70.9889
8.19446 70.9271
8.23919 69.6777
8.28392 72.1727
8.32865 74.8697
8.37339 79.4488
8.41812 85.5282
8.46288 107.451
8.50761 191.986
8.55235 435.794
8.59709 1251.58
8.64183 2196.19
8.68658 943.845
8.73134 162.684
8.77609 100.033
8.82083 93.0511
8.86558 91.2399
8.91033 90.7097
8.9551 89.4372
8.99985 85.4927
9.04461 84.4618
9.08936 83.9947
9.13412 82.966
9.17888 82.1224
9.22365 83.2606
9.26841 82.5672
9.31318 84.0119
9.35794 84.6194
9.4027 84.7348
9.44749 84.8871
9.49226 85.3046
9.53703 86.6937
9.5818 88.6994
9.62657 92.4844
9.67134 96.0318
9.71614 93.8019
9.76091 95.1664
9.80569 98.2286
9.85047 101.249
9.89525 116.137
9.94005 132.493
9.98484 206.307
10.0296 380.26
10.0744 859.662
10.1192 1720.3
10.164 1550.77
10.2088 374.916
10.2536 125.428
10.2984 111.483
10.3432 111.032
10.388 106.304
10.4328 126.827
10.4776 171.247
10.5224 297.975
10.5672 524.052
10.612 498.987
10.6568 193.083
10.7017 95.6467
10.7465 87.1975
10.7913 83.7487
10.8361 81.3009
10.8809 79.0432
10.9257 78.0227
10.9706 78.4279
11.0154 75.0733
11.0602 72.8624
11.105 72.0048
11.1499 73.6056
11.1947 76.9425
11.2395 71.6451
11.2844 69.4496
11.3292 67.4595
11.374 66.615
11.4189 65.8662
11.4637 65.2235
11.5086 65.0144
11.5534 66.4353
11.5983 65.0089
11.6431 63.8843
11.688 63.2648
11.7328 63.1174
11.7777 63.027
11.8225 62.8832
11.8674 62.74
11.9122 63.0532
11.9571 63.5874
12.002 64.6522
12.0468 70.4982
12.0917 81.8947
12.1366 105.895
12.1814 155.282
12.2263 203.441
12.2712 162.081
12.3161 89.4815
12.3609 68.1599
12.4058 64.2783
12.4507 64.529
12.4956 64.9857
12.5405 64.8977
12.5853 65.5272
12.6302 69.767
12.6751 72.9322
12.72 68.9042
12.7649 67.9005
12.8098 68.6136
12.8547 70.1553
12.8996 71.5799
12.9445 73.1302
12.9894 74.7991
13.0343 76.9273
13.0792 80.748
13.1242 94.4001
13.1691 117.504
13.214 157.61
13.2589 251.504
13.3038 377.118
13.3487 425.382
13.3937 252.517
13.4386 122.157
13.4835 110.615
13.5285 126.242
13.5734 167.712
13.6183 254.328
13.6633 349.469
13.7082 333.089
13.7531 181.799
13.7981 96.3967
13.843 82.0031
13.888 80.1489
13.9329 77.778
13.9779 76.2575
14.0228 75.1906
14.0678 73.4079
14.1127 73.0034
14.1577 72.2813
14.2027 71.734
14.2476 70.7605
14.2926 70.6774
14.3376 71.0041
14.3825 70.1731
14.4275 69.3925
14.4725 69.2153
14.5175 69.3686
14.5624 69.3744
14.6074 70.7642
14.6524 71.1536
14.6974 71.1589
14.7424 74.4346
14.7874 82.0311
14.8324 92.4363
14.8774 115.749
14.9224 158.296
14.9674 209.199
15.0124 215.992
15.0574 144.381
15.1024 88.7778
15.1474 72.0837
15.1924 70.6189
15.2374 70.4266
15.2824 69.6248
15.3274 68.185
15.3725 67.1582
15.4175 66.9287
15.4625 66.6186
15.5076 66.4016
15.5526 66.6279
15.5976 66.3742
15.6426 68.786
15.6877 74.6276
15.7327 82.5622
15.7778 99.1207
15.8228 130.816
15.8679 172.866
15.9129 193.234
15.958 151.21
16.003 93.982
16.0481 67.1937
16.0931 63.8854
16.1382 62.21
16.1833 60.8338
16.2283 59.2581
16.2734 58.857
16.3185 58.265
16.3636 58.4841
16.4086 57.1157
16.4537 56.3285
16.4988 55.6532
16.5439 55.7627
16.589 55.4402
16.6341 55.1439
16.6792 54.7999
16.7243 54.8636
16.7694 55.1598
16.8145 54.8843
16.8596 55.3859
16.9047 56.091
16.9498 56.3266
16.9949 55.7387
17.04 56.3369
17.0851 57.8447
17.1302 59.4682
17.1754 62.505
17.2205 67.8036
17.2656 75.1472
17.3108 82.2818
17.3559 81.2286
17.401 70.7849
17.4462 62.0712
17.4913 59.5679
17.5365 59.4437
17.5815 59.6412
17.6268 59.956
17.6718 60.6126
17.7171 61.0837
17.7622 61.618
17.8074 62.8629
17.8525 65.9175
17.8977 69.8778
17.9428 75.6671
17.9881 85.2055
18.0331 102.737
18.0784 123.334
18.1237 141.156
18.1688 132.399
18.214 103.295
18.2591 87.2776
18.3044 91.9999
18.3495 101.35
18.3948 106.465
18.4399 95.8264
18.4852 76.8892
18.5303 65.8297
18.5756 62.4472
18.6207 61.8879
18.666 60.752
18.7112 60.0508
18.7565 59.2692
18.8016 58.9333
18.8469 58.3795
18.892 58.0332
18.9374 57.6773
18.9825 57.3583
19.0278 57.1091
19.073 57.5087
19.1183 57.7918
19.1635 58.7851
19.2088 59.9899
19.254 62.8422
19.2993 67.6442
19.3447 73.0497
19.3898 76.3024
19.4352 72.2304
19.4804 63.2087
19.5257 56.819
19.5709 54.4577
19.6163 54.2053
19.6615 53.8532
19.7068 53.4091
19.752 53.7221
19.7974 54.1878
19.8426 54.9339
19.888 55.5729
19.9332 56.9716
19.9786 59.8422
20.0238 63.4223
20.0692 67.9823
20.1144 70.308
20.1598 68.3592
20.205 63.8733
20.2504 62.5529
20.2957 64.3194
20.3411 65.7619
20.3863 64.0315
20.4318 58.4571
20.477 53.4861
20.5224 51.7054
20.5677 51.0925
20.6131 50.5206
20.6586 49.7864
20.7038 49.8647
20.7493 49.5145
20.7945 49.2949
20.84 49.1443
20.8853 48.9251
20.9307 49.1123
20.976 49.0373
21.0215 48.9037
21.0668 49.5181
21.1122 49.8832
21.1575 50.4451
21.203 51.1376
21.2483 51.8792
21.2938 51.5698
21.3391 50.3025
21.3846 49.4028
21.4299 48.7821
21.4754 48.788
21.5207 48.8919
21.5662 49.3769
21.6116 49.7463
21.6571 50.455
21.7024 51.4726
21.7479 53.3329
21.7933 56.3022
21.8388 59.5668
21.8843 63.1474
21.9297 64.9674
21.9752 63.5251
22.0206 59.5572
22.0661 56.68
22.1115 56.5357
22.157 56.3004
22.2024 54.4996
22.248 51.6902
22.2933 50.0629
22.3389 49.4314
22.3843 49.1874
22.4299 49.1605
22.4753 48.9172
22.5208 48.9724
22.5662 48.8911
22.6118 49.1793
22.6572 49.3236
22.7028 49.9427
22.7483 50.1472
22.7939 50.8573
22.8393 52.5006
22.8849 54.7303
22.9303 56.5946
22.9759 58.1866
23.0214 57.5073
23.067 54.582
23.1126 51.2396
23.1581 49.4021
23.2037 49.1795
23.2492 49.3297
23.2948 49.3701
23.3403 49.5034
23.3859 50.2779
23.4314 51.4118
23.477 53.1716
23.5225 55.1943
23.5682 57.366
23.6137 58.1741
23.6593 55.5352
23.7048 51.5983
23.7505 48.4165
23.796 46.7942
23.8417 46.1956
23.8872 45.7973
23.9329 45.4486
23.9784 44.9766
24.0241 44.8875
24.0697 44.7304
24.1154 44.4294
24.1609 44.1732
24.2066 43.9999
24.2522 43.9549
24.2979 43.7238
24.3434 43.7099
24.3892 43.3894
24.4349 43.3487
24.4805 43.2378
24.5262 43.4458
24.5718 43.167
24.6175 43.2258
24.6631 43.1286
24.7089 42.6997
24.7545 42.6433
24.8002 42.654
24.8458 42.4962
24.8916 42.4289
24.9372 42.6405
24.983 42.9526
25.0286 43.2059
25.0744 43.6971
25.12 44.0627
25.1658 44.659
25.2114 44.8764
25.2572 45.0041
25.3029 45.0733
25.3487 45.2795
25.3943 44.7924
25.4402 43.6269
25.4858 42.7075
25.5316 41.6974
25.5773 41.1157
25.6231 41.1449
25.669 40.8161
25.7147 40.7516
25.7605 40.6996
25.8062 40.6418
25.8521 40.8519
25.8977 40.923
25.9436 41.1479
25.9893 41.2776
26.0352 41.7564
26.0809 41.7871
26.1268 42.0249
26.1725 41.6178
26.2184 40.9951
26.2641 40.4611
26.31 40.444
26.3557 40.4351
26.4017 40.5147
26.4474 40.786
26.4933 41.0416
26.5391 41.5083
26.585 42.0797
26.6308 42.4137
26.6767 42.5461
26.7225 42.2104
26.7684 41.5488
26.8142 41.0775
26.8601 40.6659
26.9059 40.2978
26.9519 39.7674
26.9979 39.3669
27.0437 39.2043
27.0896 39.0184
27.1354 38.9718
27.1814 38.7645
27.2272 38.843
27.2732 38.9248
27.3191 38.5855
27.3651 38.7097
27.4109 38.6058
27.4569 38.8097
27.5027 38.7862
27.5488 38.93
27.5946 38.574
27.6407 38.5081
27.6865 38.3547
27.7326 38.0524
27.7784 38.0594
27.8245 38.1327
27.8703 38.3526
27.9164 38.5715
27.9623 38.7045
28.0084 38.9824
28.0543 39.3776
28.1003 39.2267
28.1462 38.958
28.1923 38.6295
28.2384 38.094
28.2843 37.8419
28.3304 37.3094
28.3764 36.8271
28.4225 36.6303
28.4684 36.4877
28.5145 36.2151
28.5605 36.1357
28.6066 35.9008
28.6526 35.9479
28.6987 35.7872
28.7447 35.7781
28.7908 35.7123
28.8368 35.7071
28.8829 35.6632
28.9289 35.5425
28.9751 35.3956
29.0211 35.1204
29.0673 34.9893
29.1133 34.7551
29.1595 34.7456
29.2055 34.5414
29.2517 34.5935
29.2977 34.4725
29.3439 34.4423
29.3899 34.5262
29.4361 34.3409
29.4824 34.1504
29.5284 34.0008
29.5746 33.5859
29.6207 33.3457
29.6669 33.3256
29.713 33.1682
29.7593 33.0966
29.8053 33.0715
29.8516 33.1277
29.8977 33.0193
29.9439 32.7169
29.99 32.7872
30.0363 32.6571
30.0824 32.7679
30.1287 32.6669
30.1748 32.7117
30.2211 32.6371
30.2673 32.5241
30.3136 32.5327
30.3597 32.4008
30.406 32.4906
30.4522 32.3767
30.4985 32.2333
30.5447 32.3949
30.591 32.382
30.6372 32.432
30.6835 32.2995
30.7297 32.4996
30.7761 32.3902
30.8224 32.1036
30.8686 32.1192
30.915 31.7955
30.9612 31.6756
31.0076 31.4459
31.0538 31.3579
31.1002 31.4067
31.1464 31.1898
31.1928 31.0941
31.2391 31.2455
31.2855 31.0815
31.3317 31.0843
31.3781 31.1181
31.4244 31.067
31.4708 30.9849
31.5171 31.0695
31.5636 30.9352
31.6098 30.6892
31.6563 30.5631
31.7026 30.5176
31.7491 30.3164
31.7953 30.3303
31.8418 30.2004
31.8881 30.425
31.9346 30.3438
31.9809 30.282
32.0275 30.0634
32.074 30.0195
32.1203 29.8392
32.1668 29.7399
32.2132 29.5397
32.2597 29.3757
32.306 29.3402
32.3526 29.1359
32.399 29.1265
32.4455 28.9575
32.4919 28.8551
32.5385 28.8501
32.5848 28.7447
32.6314 28.7444
32.6778 28.6536
32.7244 28.4089
32.7708 28.3289
32.8174 28.4244
32.8638 28.2371
32.9104 28.2027
32.9569 28.1159
33.0035 28.0262
33.0499 27.9834
33.0966 27.9528
33.143 27.8456
33.1897 27.9355
33.2361 27.7937
33.2828 27.7344
33.3293 27.6422
33.3759 27.5307
33.4226 27.4248
33.4691 27.3035
33.5158 27.2186
33.5623 27.0148
33.609 26.8729
33.6555 26.8264
33.7022 26.8337
33.7487 26.6214
33.7954 26.585
33.842 26.5898
33.8887 26.4934
33.9353 26.3974
33.982 26.3354
34.0286 26.2077
34.0753 26.1965
34.1219 26.0997
34.1687 25.9675
34.2152 25.9707
34.262 25.8672
34.3086 25.7326
34.3554 25.6899
34.402 25.5329
34.4488 25.5202
34.4954 25.4252
34.5422 25.2746
34.5889 25.2033
34.6357 25.1445
34.6825 25.0962
34.7292 25.0919
34.776 24.7982
34.8227 24.8008
34.8695 24.8555
34.9162 24.7105
34.9631 24.6133
35.0098 24.6835
35.0566 24.4607
35.1033 24.406
35.1502 24.4545
35.1969 24.382
35.2438 24.2314
35.2906 24.2159
35.3375 24.2293
35.3842 24.1745
35.4311 24.1533
35.4779 24.095
35.5248 23.9949
35.5716 23.9137
35.6185 23.8089
35.6653 23.6687
35.7123 23.6323
35.759 23.5702
35.806 23.5129
35.8528 23.3332
35.8998 23.3792
35.9468 23.2838
35.9936 23.2135
36.0406 23.0874
36.0874 23.1202
36.1345 23.0329
36.1813 22.911
36.2283 22.8237
36.2752 22.734
36.3222 22.7822
36.3691 22.6252
36.4161 22.5771
36.463 22.5792
36.5101 22.5288
36.557 22.4798
36.6041 22.3232
36.651 22.3463
36.6981 22.2248
36.745 22.1985
36.7921 22.134
36.839 21.9741
36.8861 21.9063
36.9331 21.8499
36.9802 21.7808
37.0272 21.7993
37.0743 21.6493
37.1213 21.6086
37.1684 21.5966
37.2154 21.4684
37.2626 21.4072
37.3098 21.3169
37.3568 21.2908
37.404 21.2291
37.451 21.1312
37.4982 21.0865
37.5452 20.9199
37.5924 20.9072
37.6395 20.9297
37.6867 20.8955
37.7337 20.7251
37.781 20.6769
37.8281 20.5679
37.8753 20.5568
37.9224 20.4791
37.9697 20.4155
38.0168 20.3233
38.064 20.2067
38.1111 20.2106
38.1584 20.0998
38.2056 20.0091
38.2529 20.004
38.3 19.9588
38.3473 19.9259
38.3945 19.7948
38.4418 19.7994
38.489 19.6824
38.5363 19.5527
38.5837 19.6258
38.6309 19.4894
38.6782 19.42
38.7254 19.3414
38.7728 19.3715
38.82 19.2751
38.8674 19.1854
38.9146 19.1638
38.9621 19.0993
39.0093 19.0032
39.0567 18.9754
39.104 18.8648
39.1514 18.8357
39.1987 18.796
39.2461 18.7139
39.2934 18.7049
39.3409 18.5335
39.3882 18.5595
39.4356 18.5036
39.483 18.4707
39.5304 18.3342
39.5778 18.353
39.6253 18.2933
39.6726 18.1839
39.7201 18.1339
39.7675 18.1405
39.815 18.0887
39.8624 17.9645
39.9099 17.9588
39.9575 17.8293
40.0049 17.7212
40.0525 17.6949
40.0999 17.729
40.1474 17.6506
40.1949 17.5571
40.2425 17.5408
40.2899 17.485
40.3375 17.424
40.385 17.3321
40.4326 17.2277
40.48 17.202
40.5277 17.2589
40.5752 17.1605
40.6228 17.0542
40.6703 17.0269
40.718 16.9499
40.7655 16.8629
40.8132 16.8467
40.8607 16.7965
40.9084 16.7547
40.9559 16.7169
41.0036 16.6593
41.0512 16.5974
41.0989 16.5198
41.1465 16.4952
41.1942 16.4753
41.242 16.3476
41.2896 16.3412
41.3373 16.2515
41.3849 16.2143
41.4327 16.087
41.4803 16.0904
41.5281 16.0195
41.5758 15.9474
41.6236 15.9092
41.6712 15.8907
41.7191 15.8535
41.7667 15.7739
41.8146 15.7845
41.8622 15.6804
41.9101 15.6036
41.9578 15.4736
42.0057 15.5155
42.0534 15.4244
42.1013 15.4165
42.149 15.3266
42.1969 15.2769
42.2446 15.2521
42.2925 15.1874
42.3403 15.1887
42.3882 15.0782
42.436 15.0719
42.4839 15.0104
42.5319 15.0019
42.5797 14.9137
42.6277 14.8115
42.6755 14.8029
42.7235 14.7537
42.7713 14.6916
42.8193 14.6229
42.8671 14.6073
42.9152 14.5364
42.963 14.4836
43.0111 14.4347
43.0589 14.4066
43.107 14.2827
43.1549 14.2991
43.2029 14.2576
43.2508 14.2146
43.2989 14.1951
43.3468 14.0799
43.3949 14.0683
43.4429 14.0316
43.491 13.9282
43.5389 13.8956
43.5871 13.8713
43.635 13.7723
43.6832 13.779
43.7312 13.704
43.7793 13.6637
43.8273 13.629
43.8755 13.5187
43.9237 13.49
43.9717 13.5009
44.0199 13.3958
44.068 13.3802
44.1162 13.3603
44.1642 13.3121
44.2125 13.3031
44.2606 13.1907
44.3088 13.1035
44.3569 13.0766
44.4052 13.0891
44.4533 13.0383
44.5016 12.9718
44.5497 12.9425
44.598 12.9046
44.6461 12.8476
44.6945 12.7942
44.7426 12.8029
44.791 12.6553
44.8391 12.6549
44.8875 12.666
44.9357 12.5925
44.984 12.5906
45.0322 12.5109
45.0806 12.4176
45.1288 12.4041
45.1773 12.3859
45.2257 12.3377
45.2739 12.2559
45.3224 12.2581
45.3706 12.2038
45.4191 12.1118
45.4673 12.0631
45.5158 12.0681
45.5641 12.0119
45.6126 11.9652
45.6609 11.9099
45.7094 11.8416
45.7577 11.8772
45.8063 11.769
45.8546 11.7938
45.9031 11.7195
45.9515 11.6972
46.0001 11.6483
46.0484 11.5868
46.097 11.5738
46.1454 11.5059
46.194 11.4588
46.2424 11.4069
46.291 11.3745
46.3395 11.3355
46.3881 11.284
46.4365 11.2598
46.4852 11.1961
46.5337 11.1449
46.5823 11.1551
46.631 11.0763
46.6795 11.0756
46.7282 11.0105
46.7767 10.99
46.8254 10.9242
46.8739 10.8672
46.9226 10.82
46.9712 10.7875
47.0199 10.7769
47.0685 10.7239
47.1173 10.718
47.1658 10.6565
47.2146 10.6334
47.2632 10.5562
47.312 10.5444
47.3606 10.4563
47.4095 10.4042
47.4581 10.4006
47.5069 10.4018
47.5556 10.3185
47.6044 10.3078
47.6531 10.2236
47.702 10.1754
47.7507 10.1605
47.7996 10.1326
47.8483 10.0893
47.8972 10.0975
47.9461 10.0543
47.9948 9.98369
48.0438 9.92909
48.0925 9.93643
48.1415 9.94478
48.1902 9.87864
48.2392 9.8043
48.288 9.81058
48.337 9.77112
48.3858 9.74677
48.4348 9.67686
48.4837 9.66251
48.5327 9.63849
48.5815 9.54259
48.6306 9.57792
48.6795 9.5203
48.7285 9.47975
48.7774 9.45512
48.8265 9.45912
48.8754 9.33528
48.9245 9.33001
48.9734 9.29112
49.0226 9.26917
49.0715 9.22377
49.1206 9.19169
49.1696 9.17396
49.2188 9.11421
49.2679 9.05747
49.3169 9.05951
49.3661 8.99547
49.4151 8.94356
49.4643 8.95102
49.5134 8.926
49.5626 8.86815
49.6117 8.84404
49.6609 8.84029
49.71 8.77967
49.7592 8.74266
49.8083 8.68609
49.8576 8.69586
49.9067 8.60977
49.956 8.61897
50.0052 8.56128
50.0545 8.53925
50.1036 8.48216
50.153 8.49804
50.2022 8.46263
50.2515 8.38597
50.3007 8.3641
50.3501 8.33063
50.3993 8.30194
50.4487 8.3155
50.498 8.25535
50.5474 8.22626
50.5966 8.16798
50.6461 8.16029
50.6955 8.12949
50.7448 8.07961
50.7943 8.07415
50.8436 8.0088
50.8931 8.00707
50.9424 7.9698
50.9919 7.9561
51.0413 7.90131
51.0908 7.87159
51.1402 7.83789
51.1897 7.80851
51.2391 7.78746
51.2887 7.74461
51.3381 7.7254
51.3877 7.69653
51.4371 7.64896
51.4867 7.60561
51.5362 7.6247
51.5858 7.57945
51.6353 7.48763
51.6849 7.49827
51.7344 7.45349
51.7841 7.45781
51.8336 7.41619
51.8833 7.40445
51.9328 7.30624
51.9826 7.31571
52.0323 7.23951
52.0818 7.25402
52.1316 7.25021
52.1812 7.1904
52.231 7.15962
52.2806 7.14376
52.3304 7.10863
52.38 7.07169
52.4298 7.03603
52.4794 7.01878
52.5293 6.96123
52.5789 6.94562
52.6288 6.95452
52.6785 6.87025
52.7284 6.89476
52.7781 6.84824
52.828 6.79964
52.8777 6.75499
52.9276 6.74488
52.9774 6.73278
53.0273 6.71836
53.0771 6.64902
53.1271 6.65829
53.1769 6.60307
53.2269 6.5869
53.2767 6.54753
53.3267 6.51584
53.3765 6.49925
53.4266 6.46046
53.4766 6.41397
53.5265 6.41275
53.5765 6.40421
53.6264 6.37649
53.6765 6.30711
53.7264 6.32285
53.7765 6.31015
53.8265 6.21823
53.8766 6.22666
53.9266 6.23877
53.9767 6.1791
54.0267 6.171
54.0769 6.09015
54.1269 6.08785
54.1771 6.04177
54.2271 6.01167
54.2773 5.9809
54.3274 5.98046
54.3776 5.92118
54.4277 5.90976
54.478 5.8508
54.528 5.81813
54.5783 5.80193
54.6285 5.75231
54.6788 5.70994
54.7289 5.71703
54.7792 5.65665
54.8296 5.56565
54.8798 5.52711
54.9301 5.51369
54.9803 5.48265
55.0307 5.44363
55.0809 5.3874
55.1314 5.40765
55.1816 5.33215
55.232 5.31756
55.2823 5.22108
55.3328 5.25981
55.383 5.1168
55.4335 5.08063
55.4838 5.00331
55.5344 5.00547
55.5847 4.93141
55.6352 4.88928
55.6856 4.89691
55.7361 4.81843