File: XRD/Ni3Fe_FD0807.xy
TT I
1.27165 6.90712
1.31627 6.5904
1.36089 6.42668
1.40551 6.2975
1.45013 6.13973
1.49476 5.81814
1.53938 6.18567
1.584 5.33382
1.62863 5.12423
1.67325 5.36599
1.71787 4.82994
1.7625 5.00128
1.80712 4.83855
1.85174 4.82397
1.89636 4.9724
1.94099 5.23445
1.98562 4.60103
2.03025 4.34847
2.07487 4.241
2.11949 4.6676
2.16411 4.69519
2.20874 8.6139
2.25338 12.7388
2.298 5.98133
2.34263 4.95944
2.38725 6.02495
2.43188 5.78399
2.4765 7.43974
2.52115 7.40064
2.56577 7.55541
2.6104 8.28845
2.65503 8.02509
2.69965 7.73912
2.7443 8.42441
2.78893 8.64238
2.83356 8.54538
2.87818 9.24244
2.92281 9.28842
2.96744 9.94923
3.01209 10.239
3.05672 10.7247
3.10135 12.3814
3.14599 13.5041
3.19062 14.3495
3.23527 14.9523
3.2799 16.1618
3.32454 16.4301
3.36917 17.9756
3.4138 18.3048
3.45844 19.3499
3.50309 20.4415
3.54773 21.0785
3.59237 23.4037
3.637 53.7239
3.68164 39.0942
3.7263 25.0928
3.77094 25.291
3.81558 26.393
3.86022 27.4005
3.90486 28.7409
3.9495 29.4303
3.99416 30.2489
4.0388 31.8266
4.08344 32.6452
4.12809 34.3669
4.17273 36.0887
4.21738 39.0233
4.26204 134.191
4.30669 115.336
4.35133 44.1693
4.39598 43.4997
4.44063 48.8996
4.4853 54.8132
4.52995 55.32
4.5746 55.8899
4.61925 53.6823
4.6639 55.3197
4.70855 57.9415
4.75322 61.4487
4.79788 67.1664
4.84253 68.1498
4.88719 73.8235
4.93184 76.2301
4.97652 80.7623
5.02118 86.5616
5.06583 94.2781
5.11049 105.879
5.15515 155.958
5.19981 393.204
5.24449 2835.71
5.28916 12329.8
5.33382 2519.29
5.37848 187.507
5.42315 128.256
5.46783 117.461
5.5125 110.051
5.55716 101.361
5.60183 97.5907
5.6465 95.6185
5.69117 93.582
5.73586 92.2749
5.78053 96.1101
5.8252 96.3506
5.86988 98.699
5.91455 94.5603
5.95924 103.451
6.00392 237.712
6.0486 975.277
6.09328 4530.45
6.13795 2990.86
6.18263 203.01
6.22733 89.4539
6.27201 79.448
6.3167 85.7426
6.36138 74.428
6.40606 69.1263
6.45075 68.5298
6.49545 64.8786
6.54014 62.8087
6.58483 62.1613
6.62952 62.5525
6.67421 75.5112
6.71892 95.0858
6.76361 62.19
6.8083 58.7615
6.853 59.0634
6.89769 56.2592
6.94239 55.8284
6.98711 55.3223
7.03181 55.4881
7.07651 54.4696
7.12121 54.568
7.16591 55.6384
7.21063 55.0668
7.25533 61.6353
7.30004 108.384
7.34475 70.3177
7.38945 54.4861
7.43416 53.3197
7.47889 53.2329
7.5236 54.0293
7.56831 54.3656
7.61303 55.0294
7.65774 55.7282
7.70247 56.4341
7.74719 56.0292
7.79191 55.8449
7.83663 56.1565
7.88135 57.1801
7.92607 58.1936
7.97081 59.1589
8.01553 60.4065
8.06026 61.9138
8.10498 63.7646
8.14971 70.6565
8.19446 70.0871
8.23919 68.8407
8.28392 71.1927
8.32865 73.6097
8.37339 77.7685
8.41812 83.2976
8.46288 103.125
8.50761 177.36
8.55235 384.981
8.59709 1209.58
8.64183 2175.16
8.68658 850.297
8.73134 146.514
8.77609 96.8642
8.82083 91.5178
8.86558 91.1172
8.91033 91.0283
8.9551 89.084
8.99985 84.531
9.04461 83.3082
9.08936 83.492
9.13412 82.2847
9.17888 81.57
9.22365 81.6362
9.26841 81.7889
9.31318 83.7189
9.35794 85.3099
9.4027 84.6864
9.44749 84.1899
9.49226 83.9666
9.53703 85.0945
9.5818 88.7803
9.62657 92.9683
9.67134 95.1112
9.71614 92.4309
9.76091 94.0531
9.80569 98.2173
9.85047 100.642
9.89525 112.763
9.94005 127.408
9.98484 189.466
10.0296 345.876
10.0744 841.924
10.1192 1821.17
10.164 1509.74
10.2088 346.888
10.2536 120.041
10.2984 108.74
10.3432 108.369
10.388 104.094
10.4328 121.879
10.4776 161.804
10.5224 292.56
10.5672 536.758
10.612 479.565
10.6568 182.452
10.7017 93.4531
10.7465 85.2362
10.7913 82.4303
10.8361 80.1814
10.8809 78.2432
10.9257 77.4094
10.9706 77.595
11.0154 74.3417
11.0602 72.2042
11.105 70.715
11.1499 71.9703
11.1947 74.786
11.2395 70.3009
11.2844 68.1607
11.3292 66.5918
11.374 65.4287
11.4189 65.1285
11.4637 64.2844
11.5086 64.079
11.5534 65.3005
11.5983 63.989
11.6431 62.6513
11.688 62.2228
11.7328 62.3281
11.7777 62.0391
11.8225 62.3924
11.8674 61.9315
11.9122 62.0554
11.9571 62.4571
12.002 64.0463
12.0468 68.4407
12.0917 78.0134
12.1366 102.662
12.1814 158.054
12.2263 216.66
12.2712 165.597
12.3161 87.589
12.3609 66.5672
12.4058 63.3379
12.4507 63.3898
12.4956 64.2847
12.5405 64.2535
12.5853 64.6542
12.6302 68.2898
12.6751 70.9815
12.72 67.6265
12.7649 66.9865
12.8098 67.7881
12.8547 69.179
12.8996 70.7059
12.9445 72.2958
12.9894 73.8189
13.0343 75.6598
13.0792 79.7054
13.1242 91.4958
13.1691 111.418
13.214 149.597
13.2589 248.646
13.3038 392.598
13.3487 414.967
13.3937 235.968
13.4386 118.189
13.4835 105.863
13.5285 119.79
13.5734 160.524
13.6183 258.317
13.6633 366.488
13.7082 329.226
13.7531 168.566
13.7981 92.769
13.843 80.5523
13.888 78.8244
13.9329 76.6291
13.9779 75.046
14.0228 73.4967
14.0678 72.3525
14.1127 71.5688
14.1577 71.2315
14.2027 70.553
14.2476 69.7798
14.2926 69.4803
14.3376 69.9904
14.3825 69.2368
14.4275 68.2067
14.4725 67.8503
14.5175 68.2292
14.5624 68.2994
14.6074 69.5768
14.6524 70.0066
14.6974 70.2012
14.7424 73.0849
14.7874 79.223
14.8324 88.67
14.8774 111.709
14.9224 159.888
14.9674 219.335
15.0124 219.226
15.0574 139.045
15.1024 85.6667
15.1474 71.0394
15.1924 69.7999
15.2374 69.2082
15.2824 68.1565
15.3274 66.7701
15.3725 65.978
15.4175 65.7393
15.4625 65.3956
15.5076 65.2439
15.5526 65.4207
15.5976 65.2714
15.6426 67.3933
15.6877 72.4558
15.7327 79.3378
15.7778 95.4364
15.8228 129.906
15.8679 178.252
15.9129 195.038
15.958 145.769
16.003 89.3378
16.0481 65.8238
16.0931 62.4746
16.1382 60.9744
16.1833 59.4807
16.2283 58.3242
16.2734 57.5567
16.3185 57.3921
16.3636 57.363
16.4086 56.3192
16.4537 55.4793
16.4988 54.8548
16.5439 54.7457
16.589 54.4842
16.6341 54.2984
16.6792 53.8622
16.7243 54.1526
16.7694 54.1296
16.8145 54.236
16.8596 54.5482
16.9047 55.1888
16.9498 55.2438
16.9949 54.7812
17.04 55.6005
17.0851 56.7494
17.1302 58.3557
17.1754 61.3132
17.2205 66.7092
17.2656 75.42
17.3108 83.4376
17.3559 80.503
17.401 68.3075
17.4462 60.7524
17.4913 58.4961
17.5365 58.5836
17.5815 58.6906
17.6268 58.9847
17.6718 59.5458
17.7171 60.2147
17.7622 60.6831
17.8074 61.8931
17.8525 64.7022
17.8977 67.8864
17.9428 73.2205
17.9881 82.6881
18.0331 101.749
18.0784 125.313
18.1237 141.663
18.1688 126.956
18.214 98.8976
18.2591 84.7664
18.3044 91.4489
18.3495 102.008
18.3948 105.646
18.4399 92.1076
18.4852 74.2212
18.5303 64.4665
18.5756 61.3784
18.6207 60.6071
18.666 59.5659
18.7112 58.8976
18.7565 58.2413
18.8016 58.2083
18.8469 57.4341
18.892 57.1889
18.9374 56.6522
18.9825 56.4739
19.0278 56.2644
19.073 56.4647
19.1183 56.9211
19.1635 57.1601
19.2088 58.8438
19.254 61.4845
19.2993 66.5252
19.3447 72.2651
19.3898 75.7542
19.4352 69.7431
19.4804 60.8235
19.5257 55.3752
19.5709 53.3598
19.6163 53.295
19.6615 53.0606
19.7068 52.7405
19.752 52.6882
19.7974 53.1999
19.8426 53.7848
19.888 54.3006
19.9332 55.6613
19.9786 58.6173
20.0238 62.7762
20.0692 68.0001
20.1144 69.7506
20.1598 66.9236
20.205 62.2706
20.2504 61.7085
20.2957 64.0439
20.3411 65.2776
20.3863 62.6149
20.4318 56.722
20.477 52.3427
20.5224 50.6981
20.5677 50.1886
20.6131 49.7123
20.6586 49.0919
20.7038 49.0936
20.7493 48.5076
20.7945 48.4285
20.84 48.3383
20.8853 48.0611
20.9307 48.1729
20.976 48.2464
21.0215 48.1228
21.0668 48.4374
21.1122 48.9906
21.1575 49.761
21.203 50.4209
21.2483 51.0866
21.2938 50.9263
21.3391 49.3864
21.3846 48.4914
21.4299 47.9273
21.4754 48.0719
21.5207 48.1626
21.5662 48.4017
21.6116 48.8885
21.6571 49.4364
21.7024 50.4752
21.7479 52.48
21.7933 55.2807
21.8388 59.3268
21.8843 62.8404
21.9297 64.2465
21.9752 61.9244
22.0206 57.9991
22.0661 55.8471
22.1115 56.1023
22.157 55.4741
22.2024 53.2648
22.248 50.4815
22.2933 49.0663
22.3389 48.5969
22.3843 48.4208
22.4299 48.2042
22.4753 48.2118
22.5208 47.9685
22.5662 47.9801
22.6118 48.3062
22.6572 48.3307
22.7028 48.8302
22.7483 49.2741
22.7939 50.0745
22.8393 51.6337
22.8849 54.1374
22.9303 56.2772
22.9759 57.4417
23.0214 56.5301
23.067 53.2995
23.1126 50.1733
23.1581 48.5609
23.2037 48.3434
23.2492 48.5059
23.2948 48.3556
23.3403 48.4967
23.3859 49.3293
23.4314 50.5635
23.477 52.4329
23.5225 54.8024
23.5682 57.1663
23.6137 57.43
23.6593 54.4225
23.7048 50.3114
23.7505 47.3871
23.796 46.0102
23.8417 45.4596
23.8872 45.0285
23.9329 44.6248
23.9784 44.3817
24.0241 44.1817
24.0697 43.8979
24.1154 43.4262
24.1609 43.4881
24.2066 43.1662
24.2522 43.1043
24.2979 43.0929
24.3434 42.7785
24.3892 42.6507
24.4349 42.6327
24.4805 42.606
24.5262 42.7612
24.5718 42.5941
24.6175 42.5979
24.6631 42.2591
24.7089 41.9834
24.7545 41.7823
24.8002 41.8126
24.8458 41.872
24.8916 41.7127
24.9372 41.7539
24.983 42.1867
25.0286 42.5351
25.0744 43.0117
25.12 43.4101
25.1658 43.9012
25.2114 44.2133
25.2572 44.3388
25.3029 44.4926
25.3487 44.6047
25.3943 43.9833
25.4402 42.7251
25.4858 41.8377
25.5316 40.8929
25.5773 40.4783
25.6231 40.4073
25.669 40.1845
25.7147 40.1965
25.7605 39.9114
25.8062 40.1174
25.8521 40.2446
25.8977 40.0671
25.9436 40.4645
25.9893 40.6266
26.0352 41.0821
26.0809 41.1946
26.1268 41.3979
26.1725 40.8179
26.2184 40.356
26.2641 39.8524
26.31 39.7194
26.3557 39.7312
26.4017 39.6768
26.4474 40.0416
26.4933 40.4353
26.5391 40.9391
26.585 41.4683
26.6308 41.7249
26.6767 41.7857
26.7225 41.4788
26.7684 40.9107
26.8142 40.3926
26.8601 40.0153
26.9059 39.4822
26.9519 39.0673
26.9979 38.7569
27.0437 38.4338
27.0896 38.2399
27.1354 38.3709
27.1814 38.1481
27.2272 38.1921
27.2732 38.1342
27.3191 37.9897
27.3651 38.1188
27.4109 38.0104
27.4569 38.1749
27.5027 38.3068
27.5488 38.1787
27.5946 37.963
27.6407 37.718
27.6865 37.6929
27.7326 37.5253
27.7784 37.5432
27.8245 37.3863
27.8703 37.5928
27.9164 37.8779
27.9623 38.0859
28.0084 38.3971
28.0543 38.8625
28.1003 38.7163
28.1462 38.3736
28.1923 38.0376
28.2384 37.5581
28.2843 37.2371
28.3304 36.7028
28.3764 36.2816
28.4225 36.1179
28.4684 35.8942
28.5145 35.4836
28.5605 35.555
28.6066 35.3217
28.6526 35.3122
28.6987 35.2374
28.7447 35.0131
28.7908 35.0431
28.8368 34.9909
28.8829 35.0286
28.9289 35.043
28.9751 34.7945
29.0211 34.5759
29.0673 34.28
29.1133 34.2381
29.1595 33.9472
29.2055 33.9285
29.2517 33.9625
29.2977 34.0073
29.3439 33.9133
29.3899 33.9098
29.4361 33.7728
29.4824 33.6067
29.5284 33.2944
29.5746 33.0841
29.6207 32.8088
29.6669 32.7392
29.713 32.6129
29.7593 32.4949
29.8053 32.4765
29.8516 32.3361
29.8977 32.3708
29.9439 32.2969
29.99 32.2866
30.0363 32.1758
30.0824 32.2004
30.1287 32.1637
30.1748 32.0182
30.2211 32.0848
30.2673 31.9351
30.3136 32.0449
30.3597 31.8939
30.406 31.8237
30.4522 31.7828
30.4985 31.7246
30.5447 31.7493
30.591 31.8284
30.6372 31.8526
30.6835 31.9058
30.7297 31.8964
30.7761 31.8607
30.8224 31.6499
30.8686 31.4529
30.915 31.2909
30.9612 31.1638
31.0076 30.9012
31.0538 30.8176
31.1002 30.7936
31.1464 30.6213
31.1928 30.6396
31.2391 30.5961
31.2855 30.5148
31.3317 30.5459
31.3781 30.6416
31.4244 30.5469
31.4708 30.4346
31.5171 30.4904
31.5636 30.443
31.6098 30.1088
31.6563 30.0037
31.7026 29.9013
31.7491 29.8428
31.7953 29.9136
31.8418 29.8441
31.8881 29.8208
31.9346 29.7496
31.9809 29.6614
32.0275 29.6311
32.074 29.4658
32.1203 29.2899
32.1668 29.1718
32.2132 29.1337
32.2597 29.0082
32.306 28.8174
32.3526 28.6573
32.399 28.6378
32.4455 28.5617
32.4919 28.4299
32.5385 28.3586
32.5848 28.193
32.6314 28.2715
32.6778 28.1211
32.7244 28.054
32.7708 27.7832
32.8174 27.794
32.8638 27.7818
32.9104 27.8015
32.9569 27.7122
33.0035 27.6204
33.0499 27.5882
33.0966 27.4226
33.143 27.605
33.1897 27.4432
33.2361 27.3454
33.2828 27.2627
33.3293 27.0982
33.3759 27.1443
33.4226 26.9487
33.4691 26.8334
33.5158 26.7404
33.5623 26.5916
33.609 26.414
33.6555 26.3005
33.7022 26.2796
33.7487 26.2324
33.7954 26.2577
33.842 26.0687
33.8887 26.1084
33.9353 26.0862
33.982 25.8854
34.0286 25.7831
34.0753 25.6152
34.1219 25.6393
34.1687 25.532
34.2152 25.4758
34.262 25.3606
34.3086 25.3969
34.3554 25.2962
34.402 25.1037
34.4488 25.0699
34.4954 24.9526
34.5422 24.9266
34.5889 24.7834
34.6357 24.6576
34.6825 24.6024
34.7292 24.5578
34.776 24.5162
34.8227 24.3731
34.8695 24.4011
34.9162 24.34
34.9631 24.2197
35.0098 24.2004
35.0566 24.1447
35.1033 24.0198
35.1502 24.1148
35.1969 23.9294
35.2438 23.9004
35.2906 23.876
35.3375 23.8102
35.3842 23.7629
35.4311 23.772
35.4779 23.6898
35.5248 23.6145
35.5716 23.528
35.6185 23.3827
35.6653 23.3038
35.7123 23.2723
35.759 23.2916
35.806 23.092
35.8528 23.0006
35.8998 22.9846
35.9468 22.8621
35.9936 22.8346
36.0406 22.7944
36.0874 22.7803
36.1345 22.6534
36.1813 22.5617
36.2283 22.4968
36.2752 22.4659
36.3222 22.4388
36.3691 22.2446
36.4161 22.1821
36.463 22.2042
36.5101 22.1849
36.557 22.128
36.6041 21.9649
36.651 21.9971
36.6981 21.8283
36.745 21.8734
36.7921 21.651
36.839 21.5832
36.8861 21.5612
36.9331 21.4895
36.9802 21.3977
37.0272 21.3645
37.0743 21.2247
37.1213 21.2394
37.1684 21.149
37.2154 21.1511
37.2626 21.0429
37.3098 20.9431
37.3568 21.0082
37.404 20.8657
37.451 20.7691
37.4982 20.6857
37.5452 20.6011
37.5924 20.5258
37.6395 20.6007
37.6867 20.5401
37.7337 20.4504
37.781 20.3021
37.8281 20.2795
37.8753 20.1849
37.9224 20.1272
37.9697 20.092
38.0168 19.971
38.064 19.9161
38.1111 19.8742
38.1584 19.8173
38.2056 19.8004
38.2529 19.746
38.3 19.6235
38.3473 19.5809
38.3945 19.542
38.4418 19.4698
38.489 19.397
38.5363 19.3399
38.5837 19.2761
38.6309 19.1585
38.6782 19.1529
38.7254 19.0635
38.7728 19.0057
38.82 18.9316
38.8674 18.8546
38.9146 18.8629
38.9621 18.7753
39.0093 18.7694
39.0567 18.6549
39.104 18.6401
39.1514 18.5318
39.1987 18.4295
39.2461 18.4544
39.2934 18.3439
39.3409 18.2928
39.3882 18.2562
39.4356 18.1109
39.483 18.0951
39.5304 18.0708
39.5778 18.0237
39.6253 17.9614
39.6726 17.9266
39.7201 17.9158
39.7675 17.8195
39.815 17.7883
39.8624 17.6713
39.9099 17.6138
39.9575 17.5746
40.0049 17.5128
40.0525 17.4461
40.0999 17.4085
40.1474 17.3506
40.1949 17.2424
40.2425 17.2093
40.2899 17.1905
40.3375 17.1453
40.385 17.0423
40.4326 17.0385
40.48 16.9779
40.5277 16.9005
40.5752 16.8391
40.6228 16.7611
40.6703 16.8126
40.718 16.7036
40.7655 16.7024
40.8132 16.5917
40.8607 16.5943
40.9084 16.5139
40.9559 16.4232
41.0036 16.3813
41.0512 16.3479
41.0989 16.3096
41.1465 16.2468
41.1942 16.1872
41.242 16.1129
41.2896 16.0792
41.3373 15.9765
41.3849 15.9693
41.4327 15.8986
41.4803 15.811
41.5281 15.804
41.5758 15.6708
41.6236 15.6693
41.6712 15.624
41.7191 15.6052
41.7667 15.4962
41.8146 15.4514
41.8622 15.401
41.9101 15.4136
41.9578 15.2846
42.0057 15.2305
42.0534 15.1919
42.1013 15.1416
42.149 15.1103
42.1969 15.0154
42.2446 15.0818
42.2925 14.9723
42.3403 14.9415
42.3882 14.9032
42.436 14.8518
42.4839 14.723
42.5319 14.7165
42.5797 14.6195
42.6277 14.6289
42.6755 14.569
42.7235 14.5319
42.7713 14.5016
42.8193 14.4377
42.8671 14.3758
42.9152 14.2913
42.963 14.2707
43.0111 14.227
43.0589 14.1673
43.107 14.1039
43.1549 14.0399
43.2029 14.0284
43.2508 13.9865
43.2989 13.9644
43.3468 13.8726
43.3949 13.8658
43.4429 13.7995
43.491 13.7274
43.5389 13.6725
43.5871 13.6688
43.635 13.6087
43.6832 13.5594
43.7312 13.5382
43.7793 13.4339
43.8273 13.4223
43.8755 13.3668
43.9237 13.3031
43.9717 13.2912
44.0199 13.2184
44.068 13.1989
44.1162 13.1629
44.1642 13.1511
44.2125 13.0113
44.2606 13.0456
44.3088 12.9512
44.3569 12.8675
44.4052 12.8724
44.4533 12.7965
44.5016 12.7211
44.5497 12.7176
44.598 12.6976
44.6461 12.6317
44.6945 12.6053
44.7426 12.4946
44.791 12.4968
44.8391 12.4412
44.8875 12.4443
44.9357 12.3874
44.984 12.3808
45.0322 12.3037
45.0806 12.2572
45.1288 12.1413
45.1773 12.1761
45.2257 12.1048
45.2739 12.0685
45.3224 12.0234
45.3706 11.9775
45.4191 11.9499
45.4673 11.9063
45.5158 11.8703
45.5641 11.8043
45.6126 11.7736
45.6609 11.7478
45.7094 11.6825
45.7577 11.6452
45.8063 11.5964
45.8546 11.5784
45.9031 11.5409
45.9515 11.4632
46.0001 11.4232
46.0484 11.3982
46.097 11.3565
46.1454 11.3366
46.194 11.2975
46.2424 11.226
46.291 11.1686
46.3395 11.18
46.3881 11.0798
46.4365 11.0902
46.4852 11.0385
46.5337 10.9932
46.5823 10.9489
46.631 10.9005
46.6795 10.8937
46.7282 10.8878
46.7767 10.7917
46.8254 10.7495
46.8739 10.7058
46.9226 10.6809
46.9712 10.6253
47.0199 10.5681
47.0685 10.5976
47.1173 10.5116
47.1658 10.5098
47.2146 10.4659
47.2632 10.3939
47.312 10.3796
47.3606 10.3404
47.4095 10.2989
47.4581 10.2467
47.5069 10.2151
47.5556 10.1789
47.6044 10.1355
47.6531 10.1097
47.702 10.0478
47.7507 10.0075
47.7996 9.95728
47.8483 9.9615
47.8972 9.93531
47.9461 9.90846
47.9948 9.83152
48.0438 9.83795
48.0925 9.78155
48.1415 9.72085
48.1902 9.71284
48.2392 9.68933
48.288 9.66907
48.337 9.54061
48.3858 9.52952
48.4348 9.55105
48.4837 9.55492
48.5327 9.43698
48.5815 9.41935
48.6306 9.41192
48.6795 9.36644
48.7285 9.31562
48.7774 9.32899
48.8265 9.2563
48.8754 9.21212
48.9245 9.16139
48.9734 9.17278
49.0226 9.15768
49.0715 9.08987
49.1206 9.08077
49.1696 9.01229
49.2188 8.99269
49.2679 8.91182
49.3169 8.9555
49.3661 8.87622
49.4151 8.85717
49.4643 8.80184
49.5134 8.74358
49.5626 8.73247
49.6117 8.72898
49.6609 8.64472
49.71 8.60106
49.7592 8.58864
49.8083 8.57235
49.8576 8.53422
49.9067 8.49294
49.956 8.4913
50.0052 8.40355
50.0545 8.42981
50.1036 8.40129
50.153 8.32756
50.2022 8.32944
50.2515 8.29098
50.3007 8.22071
50.3501 8.21932
50.3993 8.2118
50.4487 8.16467
50.498 8.13907
50.5474 8.0968
50.5966 8.02268
50.6461 8.02287
50.6955 7.99232
50.7448 7.97042
50.7943 7.92688
50.8436 7.90676
50.8931 7.88569
50.9424 7.84142
50.9919 7.78464
51.0413 7.7761
51.0908 7.77716
51.1402 7.70656
51.1897 7.65327
51.2391 7.6338
51.2887 7.63329
51.3381 7.59187
51.3877 7.55524
51.4371 7.49981
51.4867 7.49859
51.5362 7.4787
51.5858 7.44844
51.6353 7.41375
51.6849 7.36936
51.7344 7.34361
51.7841 7.32759
51.8336 7.25678
51.8833 7.27893
51.9328 7.20025
51.9826 7.20682
52.0323 7.15228
52.0818 7.15146
52.1316 7.08365
52.1812 7.09926
52.231 7.02312
52.2806 7.01169
52.3304 6.9952
52.38 6.95412
52.4298 6.92284
52.4794 6.9266
52.5293 6.89125
52.5789 6.84738
52.6288 6.82073
52.6785 6.75714
52.7284 6.79067
52.7781 6.7497
52.828 6.7227
52.8777 6.64132
52.9276 6.60986
52.9774 6.60868
53.0273 6.59593
53.0771 6.57237
53.1271 6.58015
53.1769 6.5111
53.2269 6.4845
53.2767 6.45776
53.3267 6.43318
53.3765 6.42522
53.4266 6.41494
53.4766 6.32672
53.5265 6.29556
53.5765 6.28403
53.6264 6.29082
53.6765 6.22827
53.7264 6.24627
53.7765 6.17638
53.8265 6.16787
53.8766 6.12308
53.9266 6.11756
53.9767 6.06991
54.0267 6.03461
54.0769 6.03493
54.1269 6.03069
54.1771 5.9346
54.2271 5.92802
54.2773 5.89623
54.3274 5.88826
54.3776 5.83544
54.4277 5.82445
54.478 5.78033
54.528 5.75262
54.5783 5.6757
54.6285 5.65806
54.6788 5.6113
54.7289 5.56427
54.7792 5.54828
54.8296 5.55309
54.8798 5.46001
54.9301 5.42407
54.9803 5.38431
55.0307 5.36026
55.0809 5.30536
55.1314 5.32476
55.1816 5.22094
55.232 5.16932
55.2823 5.1602
55.3328 5.09118
55.383 5.02583
55.4335 5.02977
55.4838 4.94936
55.5344 4.91422
55.5847 4.90294
55.6352 4.81371
55.6856 4.78989
55.7361 4.73703