File: XRD/Ni3Fe_FD0244.xy
TT I
1.27165 8.07095
1.31627 7.13683
1.36089 7.36864
1.40551 5.24607
1.45013 6.97345
1.49476 6.29693
1.53938 5.95611
1.584 5.71623
1.62863 5.40287
1.67325 5.96265
1.71787 5.67501
1.7625 5.66603
1.80712 4.67221
1.85174 4.77506
1.89636 5.01486
1.94099 4.95537
1.98562 4.873
2.03025 5.36999
2.07487 4.5424
2.11949 4.92345
2.16411 4.93124
2.20874 4.49165
2.25338 4.98968
2.298 4.55306
2.34263 4.89129
2.38725 4.90373
2.43188 4.9383
2.4765 5.49436
2.52115 5.41252
2.56577 5.40419
2.6104 5.91514
2.65503 6.55689
2.69965 6.62646
2.7443 6.97797
2.78893 7.29786
2.83356 8.07926
2.87818 7.64233
2.92281 8.53643
2.96744 8.97859
3.01209 10.3878
3.05672 11.1053
3.10135 12.6732
3.14599 12.9419
3.19062 14.2301
3.23527 15.0253
3.2799 15.7482
3.32454 17.013
3.36917 18.0945
3.4138 18.8619
3.45844 20.0594
3.50309 20.8121
3.54773 21.356
3.59237 22.6908
3.637 23.3929
3.68164 23.9516
3.7263 25.2142
3.77094 26.183
3.81558 27.3126
3.86022 27.8053
3.90486 28.8505
3.9495 30.148
3.99416 31.0564
4.0388 32.1147
4.08344 33.868
4.12809 34.6567
4.17273 36.1581
4.21738 37.8548
4.26204 39.0409
4.30669 40.0413
4.35133 42.7122
4.39598 44.1662
4.44063 46.3178
4.4853 49.4614
4.52995 52.6228
4.5746 54.0642
4.61925 55.9308
4.6639 58.4102
4.70855 60.997
4.75322 64.9289
4.79788 68.9215
4.84253 71.7063
4.88719 77.2426
4.93184 81.5725
4.97652 88.378
5.02118 96.0579
5.06583 106.522
5.11049 123.235
5.15515 168.635
5.19981 890.597
5.24449 3970.16
5.28916 10558.3
5.33382 4053.47
5.37848 267.861
5.42315 151.85
5.46783 128.581
5.5125 118.023
5.55716 111.927
5.60183 106.381
5.6465 104.167
5.69117 102.59
5.73586 100.769
5.78053 102.198
5.8252 102.062
5.86988 104.861
5.91455 109.759
5.95924 132.974
6.00392 446.236
6.0486 1428.98
6.09328 3719.2
6.13795 3612.82
6.18263 342.923
6.22733 108.13
6.27201 88.4093
6.3167 80.8386
6.36138 76.1971
6.40606 73.1136
6.45075 70.8561
6.49545 68.3069
6.54014 66.6015
6.58483 65.2353
6.62952 63.8726
6.67421 62.1727
6.71892 61.366
6.76361 60.7283
6.8083 59.8356
6.853 59.2825
6.89769 58.6805
6.94239 57.556
6.98711 57.4988
7.03181 57.1962
7.07651 56.7256
7.12121 56.3474
7.16591 56.8635
7.21063 55.899
7.25533 55.7075
7.30004 55.4665
7.34475 55.8097
7.38945 55.6598
7.43416 55.3344
7.47889 55.5528
7.5236 56.1085
7.56831 56.8053
7.61303 57.3081
7.65774 57.14
7.70247 58.2473
7.74719 58.3814
7.79191 59.0307
7.83663 58.8848
7.88135 60.1223
7.92607 61.3468
7.97081 62.1465
8.01553 63.621
8.06026 65.6714
8.10498 66.5873
8.14971 69.1515
8.19446 70.6977
8.23919 72.8591
8.28392 76.0745
8.32865 79.184
8.37339 83.9387
8.41812 90.0531
8.46288 111.167
8.50761 292.03
8.55235 579.962
8.59709 1081.95
8.64183 1995.31
8.68658 1162.85
8.73134 215.063
8.77609 110.482
8.82083 99.8449
8.86558 96.4034
8.91033 93.3163
8.9551 90.725
8.99985 89.0645
9.04461 88.6933
9.08936 87.7844
9.13412 86.7249
9.17888 86.3826
9.22365 86.096
9.26841 86.6537
9.31318 87.9695
9.35794 88.0504
9.4027 88.1004
9.44749 89.1931
9.49226 89.6091
9.53703 90.7095
9.5818 93.1119
9.62657 94.6517
9.67134 95.141
9.71614 97.6476
9.76091 100.176
9.80569 103.343
9.85047 106.359
9.89525 112.119
9.94005 137.768
9.98484 303.135
10.0296 511.779
10.0744 809.007
10.1192 1470.77
10.164 1696.84
10.2088 528.783
10.2536 146.779
10.2984 116.774
10.3432 112.491
10.388 115.743
10.4328 159.055
10.4776 210.307
10.5224 284.22
10.5672 449.465
10.612 538.034
10.6568 246.634
10.7017 106.797
10.7465 92.0412
10.7913 87.547
10.8361 85.1671
10.8809 82.6871
10.9257 80.895
10.9706 79.684
11.0154 77.7483
11.0602 75.9388
11.105 74.5112
11.1499 73.247
11.1947 71.821
11.2395 71.1664
11.2844 70.7687
11.3292 69.757
11.374 69.0974
11.4189 68.5041
11.4637 67.514
11.5086 66.7179
11.5534 66.5854
11.5983 66.277
11.6431 66.5544
11.688 65.8659
11.7328 65.5888
11.7777 65.1781
11.8225 65.5042
11.8674 65.4451
11.9122 66.0458
11.9571 66.0273
12.002 69.0252
12.0468 79.8928
12.0917 93.7581
12.1366 109.256
12.1814 141.125
12.2263 192.947
12.2712 182.702
12.3161 101.704
12.3609 69.6345
12.4058 66.852
12.4507 67.1489
12.4956 67.6093
12.5405 67.3884
12.5853 68.019
12.6302 68.1743
12.6751 68.7475
12.72 69.7353
12.7649 70.7125
12.8098 71.7687
12.8547 73.1437
12.8996 75.03
12.9445 76.3428
12.9894 78.5014
13.0343 80.6423
13.0792 86.5087
13.1242 111.446
13.1691 146.226
13.214 175.126
13.2589 231.5
13.3038 326.748
13.3487 422.106
13.3937 303.155
13.4386 148.341
13.4835 133.104
13.5285 152.136
13.5734 175.508
13.6183 228.649
13.6633 316.813
13.7082 360.053
13.7531 223.579
13.7981 109.285
13.843 86.7633
13.888 83.9666
13.9329 81.2756
13.9779 79.8473
14.0228 78.0484
14.0678 76.6725
14.1127 75.9459
14.1577 74.9965
14.2027 74.5618
14.2476 74.1387
14.2926 73.2365
14.3376 73.0708
14.3825 72.3502
14.4275 72.2965
14.4725 72.3285
14.5175 72.3689
14.5624 72.5283
14.6074 72.5523
14.6524 73.6043
14.6974 74.4342
14.7424 81.3017
14.7874 94.9107
14.8324 105.98
14.8774 120.302
14.9224 146.669
14.9674 189.654
15.0124 221.812
15.0574 168.317
15.1024 100.985
15.1474 76.8083
15.1924 73.8407
15.2374 72.2017
15.2824 71.4699
15.3274 70.5326
15.3725 69.9142
15.4175 69.946
15.4625 69.4877
15.5076 69.1116
15.5526 69.2595
15.5976 69.8333
15.6426 75.1174
15.6877 86.1601
15.7327 94.3669
15.7778 104.132
15.8228 122.918
15.8679 153.563
15.9129 190.834
15.958 171.885
16.003 110.153
16.0481 72.1356
16.0931 65.5208
16.1382 63.8542
16.1833 62.8248
16.2283 61.4469
16.2734 60.8912
16.3185 60.0718
16.3636 59.5056
16.4086 58.8074
16.4537 58.4826
16.4988 57.9433
16.5439 57.9299
16.589 57.3773
16.6341 57.2519
16.6792 56.9189
16.7243 57.2371
16.7694 57.1045
16.8145 56.8126
16.8596 57.2167
16.9047 57.6039
16.9498 57.5385
16.9949 57.7931
17.04 59.348
17.0851 61.6845
17.1302 63.3901
17.1754 65.8576
17.2205 68.996
17.2656 74.1692
17.3108 82.5959
17.3559 85.4241
17.401 76.9839
17.4462 66.4781
17.4913 62.4162
17.5365 61.7706
17.5815 62.0272
17.6268 62.4929
17.6718 62.9561
17.7171 63.3362
17.7622 64.4846
17.8074 66.5325
17.8525 72.2363
17.8977 78.0016
17.9428 82.3719
17.9881 88.5496
18.0331 99.3679
18.0784 116.171
18.1237 139.349
18.1688 143.101
18.214 116.995
18.2591 93.1919
18.3044 90.3999
18.3495 97.5022
18.3948 106.9
18.4399 101.396
18.4852 82.763
18.5303 69.6944
18.5756 65.1793
18.6207 64.4067
18.666 63.1931
18.7112 62.4463
18.7565 61.9113
18.8016 61.4727
18.8469 60.8572
18.892 60.6256
18.9374 60.257
18.9825 59.8897
19.0278 59.4085
19.073 60.315
19.1183 61.291
19.1635 61.8158
19.2088 62.8805
19.254 64.9131
19.2993 67.2131
19.3447 71.4031
19.3898 76.5954
19.4352 75.7891
19.4804 67.866
19.5257 60.114
19.5709 56.9935
19.6163 56.384
19.6615 56.2272
19.7068 55.8888
19.752 55.8973
19.7974 56.8361
19.8426 57.9258
19.888 58.5752
19.9332 59.4417
19.9786 61.5941
20.0238 64.0712
20.0692 68.786
20.1144 72.8065
20.1598 72.8004
20.205 67.7095
20.2504 64.2554
20.2957 64.541
20.3411 66.7588
20.3863 67.0725
20.4318 62.1531
20.477 56.396
20.5224 53.6309
20.5677 52.8221
20.6131 52.5546
20.6586 51.9689
20.7038 51.9698
20.7493 51.4766
20.7945 51.3021
20.84 51.0565
20.8853 51.0289
20.9307 51.0117
20.976 51.2742
21.0215 50.9489
21.0668 51.3246
21.1122 51.7921
21.1575 52.1208
21.203 52.4412
21.2483 53.1931
21.2938 53.9253
21.3391 52.6166
21.3846 51.5968
21.4299 50.7807
21.4754 50.7413
21.5207 50.9756
21.5662 51.7337
21.6116 52.6279
21.6571 53.2707
21.7024 54.1456
21.7479 55.5638
21.7933 57.601
21.8388 60.1866
21.8843 63.6787
21.9297 66.811
21.9752 66.8676
22.0206 63.1178
22.0661 58.505
22.1115 57.7134
22.157 58.3764
22.2024 57.1661
22.248 54.5485
22.2933 52.3486
22.3389 51.3908
22.3843 50.88
22.4299 50.742
22.4753 50.8535
22.5208 50.8745
22.5662 50.8328
22.6118 51.2973
22.6572 51.799
22.7028 52.5169
22.7483 52.6746
22.7939 53.0654
22.8393 54.1518
22.8849 55.7343
22.9303 57.0286
22.9759 59.4327
23.0214 59.8906
23.067 57.7325
23.1126 54.4
23.1581 52.0037
23.2037 51.4571
23.2492 51.6368
23.2948 51.9619
23.3403 52.1319
23.3859 52.5723
23.4314 53.307
23.477 54.1826
23.5225 55.5676
23.5682 57.6034
23.6137 59.7274
23.6593 58.6501
23.7048 54.9668
23.7505 51.1171
23.796 48.9723
23.8417 48.2077
23.8872 47.5205
23.9329 47.2494
23.9784 46.7747
24.0241 46.7031
24.0697 46.3715
24.1154 46.1612
24.1609 45.8335
24.2066 45.7989
24.2522 45.5589
24.2979 45.4311
24.3434 45.2161
24.3892 44.9958
24.4349 45.0749
24.4805 44.8964
24.5262 45.0834
24.5718 44.841
24.6175 44.8025
24.6631 44.7041
24.7089 44.4863
24.7545 44.3823
24.8002 44.3369
24.8458 44.3051
24.8916 44.2116
24.9372 44.3019
24.983 44.6938
25.0286 44.9146
25.0744 45.267
25.12 45.5852
25.1658 46.2131
25.2114 46.6565
25.2572 46.4616
25.3029 46.3463
25.3487 46.4613
25.3943 46.5614
25.4402 45.6915
25.4858 44.6251
25.5316 43.4058
25.5773 42.9323
25.6231 42.7521
25.669 42.5215
25.7147 42.5552
25.7605 42.4077
25.8062 42.4045
25.8521 42.472
25.8977 42.4413
25.9436 42.7238
25.9893 42.6231
26.0352 43.0406
26.0809 43.2253
26.1268 43.5724
26.1725 43.4068
26.2184 42.8306
26.2641 42.3806
26.31 41.9685
26.3557 42.0477
26.4017 42.0873
26.4474 42.2275
26.4933 42.4924
26.5391 42.8144
26.585 43.1047
26.6308 43.6316
26.6767 43.8349
26.7225 43.78
26.7684 43.2944
26.8142 42.6451
26.8601 42.2658
26.9059 41.9263
26.9519 41.3487
26.9979 40.9751
27.0437 40.7429
27.0896 40.494
27.1354 40.5067
27.1814 40.4998
27.2272 40.3629
27.2732 40.4048
27.3191 40.1301
27.3651 40.1888
27.4109 40.1489
27.4569 40.3262
27.5027 40.2174
27.5488 40.3391
27.5946 40.2085
27.6407 40.0317
27.6865 40.0211
27.7326 39.6008
27.7784 39.5529
27.8245 39.7315
27.8703 39.7707
27.9164 39.8961
27.9623 39.983
28.0084 40.3134
28.0543 40.6556
28.1003 40.6694
28.1462 40.5356
28.1923 40.1939
28.2384 39.6147
28.2843 39.4253
28.3304 38.9232
28.3764 38.3777
28.4225 37.9114
28.4684 37.8918
28.5145 37.6482
28.5605 37.3945
28.6066 37.3508
28.6526 37.1631
28.6987 37.1637
28.7447 37.0875
28.7908 36.9079
28.8368 36.9717
28.8829 36.8953
28.9289 36.9236
28.9751 36.6714
29.0211 36.499
29.0673 36.3179
29.1133 36.1966
29.1595 35.9493
29.2055 35.8198
29.2517 35.8469
29.2977 35.7429
29.3439 35.5837
29.3899 35.6848
29.4361 35.5786
29.4824 35.4858
29.5284 35.2774
29.5746 34.9826
29.6207 34.728
29.6669 34.5861
29.713 34.5526
29.7593 34.3696
29.8053 34.2808
29.8516 34.2638
29.8977 34.2342
29.9439 33.9511
29.99 33.973
30.0363 33.9254
30.0824 34.0088
30.1287 33.7773
30.1748 33.887
30.2211 33.859
30.2673 33.6931
30.3136 33.9038
30.3597 33.7468
30.406 33.6773
30.4522 33.5267
30.4985 33.3743
30.5447 33.4611
30.591 33.5517
30.6372 33.5687
30.6835 33.4663
30.7297 33.6453
30.7761 33.5089
30.8224 33.4406
30.8686 33.313
30.915 33.0511
30.9612 32.948
31.0076 32.7714
31.0538 32.6082
31.1002 32.4741
31.1464 32.3395
31.1928 32.2804
31.2391 32.3638
31.2855 32.2928
31.3317 32.1802
31.3781 32.2876
31.4244 32.1548
31.4708 32.1056
31.5171 32.1171
31.5636 32.1583
31.6098 31.9768
31.6563 31.8047
31.7026 31.7095
31.7491 31.4797
31.7953 31.5338
31.8418 31.3838
31.8881 31.4886
31.9346 31.4441
31.9809 31.2794
32.0275 31.188
32.074 31.1324
32.1203 30.8598
32.1668 30.9154
32.2132 30.7063
32.2597 30.5366
32.306 30.4727
32.3526 30.3399
32.399 30.2473
32.4455 30.0294
32.4919 30.0733
32.5385 29.9191
32.5848 29.8036
32.6314 29.7562
32.6778 29.6622
32.7244 29.4805
32.7708 29.413
32.8174 29.3913
32.8638 29.2547
32.9104 29.2684
32.9569 29.2521
33.0035 29.1289
33.0499 29.0636
33.0966 29.0756
33.143 29.0507
33.1897 28.9377
33.2361 28.8308
33.2828 28.8327
33.3293 28.5825
33.3759 28.6514
33.4226 28.5754
33.4691 28.3397
33.5158 28.2352
33.5623 28.2265
33.609 27.9863
33.6555 27.908
33.7022 27.8013
33.7487 27.6229
33.7954 27.6485
33.842 27.57
33.8887 27.487
33.9353 27.4675
33.982 27.3102
34.0286 27.2088
34.0753 27.1291
34.1219 27.1266
34.1687 26.9325
34.2152 26.885
34.262 26.7937
34.3086 26.7043
34.3554 26.6443
34.402 26.4518
34.4488 26.3775
34.4954 26.2805
34.5422 26.2942
34.5889 26.0654
34.6357 26.0163
34.6825 25.9843
34.7292 25.9063
34.776 25.8006
34.8227 25.7446
34.8695 25.6953
34.9162 25.572
34.9631 25.5118
35.0098 25.516
35.0566 25.4147
35.1033 25.3463
35.1502 25.2746
35.1969 25.1527
35.2438 25.2399
35.2906 25.2129
35.3375 25.1526
35.3842 25.0112
35.4311 25.0019
35.4779 24.964
35.5248 24.9184
35.5716 24.9089
35.6185 24.6008
35.6653 24.6608
35.7123 24.5435
35.759 24.513
35.806 24.3126
35.8528 24.2619
35.8998 24.2259
35.9468 24.1402
35.9936 24.1612
36.0406 23.9838
36.0874 24.0459
36.1345 23.8713
36.1813 23.8071
36.2283 23.749
36.2752 23.5856
36.3222 23.6401
36.3691 23.5477
36.4161 23.3759
36.463 23.4043
36.5101 23.3106
36.557 23.3352
36.6041 23.1848
36.651 23.102
36.6981 23.0419
36.745 22.9804
36.7921 22.9205
36.839 22.766
36.8861 22.6661
36.9331 22.7114
36.9802 22.6052
37.0272 22.5704
37.0743 22.4239
37.1213 22.317
37.1684 22.3036
37.2154 22.2266
37.2626 22.0876
37.3098 22.1553
37.3568 22.096
37.404 22.0942
37.451 21.924
37.4982 21.9441
37.5452 21.747
37.5924 21.6573
37.6395 21.7483
37.6867 21.6477
37.7337 21.5468
37.781 21.4459
37.8281 21.3934
37.8753 21.2744
37.9224 21.1785
37.9697 21.1808
38.0168 21.0792
38.064 20.9888
38.1111 21.0099
38.1584 20.8605
38.2056 20.8076
38.2529 20.7741
38.3 20.695
38.3473 20.6558
38.3945 20.5203
38.4418 20.4661
38.489 20.433
38.5363 20.3576
38.5837 20.2569
38.6309 20.215
38.6782 20.1568
38.7254 20.1283
38.7728 20.0368
38.82 19.9366
38.8674 19.9197
38.9146 19.8649
38.9621 19.7554
39.0093 19.7335
39.0567 19.7037
39.104 19.6605
39.1514 19.4652
39.1987 19.4627
39.2461 19.4779
39.2934 19.3729
39.3409 19.2489
39.3882 19.1962
39.4356 19.0967
39.483 19.0986
39.5304 19.0137
39.5778 18.9835
39.6253 18.9438
39.6726 18.8553
39.7201 18.8085
39.7675 18.8194
39.815 18.7298
39.8624 18.6396
39.9099 18.589
39.9575 18.5362
40.0049 18.4713
40.0525 18.4179
40.0999 18.3322
40.1474 18.279
40.1949 18.2145
40.2425 18.1307
40.2899 18.1118
40.3375 18.0554
40.385 18.007
40.4326 17.9215
40.48 17.8665
40.5277 17.8358
40.5752 17.7345
40.6228 17.6705
40.6703 17.6179
40.718 17.5877
40.7655 17.5537
40.8132 17.4072
40.8607 17.4793
40.9084 17.4094
40.9559 17.2891
41.0036 17.2371
41.0512 17.1966
41.0989 17.185
41.1465 17.1449
41.1942 17.0076
41.242 16.9518
41.2896 16.9174
41.3373 16.8331
41.3849 16.8378
41.4327 16.7704
41.4803 16.6587
41.5281 16.623
41.5758 16.573
41.6236 16.5526
41.6712 16.4619
41.7191 16.3839
41.7667 16.3831
41.8146 16.3324
41.8622 16.239
41.9101 16.2336
41.9578 16.1031
42.0057 16.024
42.0534 15.9885
42.1013 16.0224
42.149 15.9369
42.1969 15.829
42.2446 15.8222
42.2925 15.7756
42.3403 15.7699
42.3882 15.6586
42.436 15.6294
42.4839 15.5667
42.5319 15.5037
42.5797 15.4782
42.6277 15.4198
42.6755 15.3201
42.7235 15.2668
42.7713 15.2087
42.8193 15.1946
42.8671 15.1513
42.9152 15.1097
42.963 15.0395
43.0111 14.9673
43.0589 14.9122
43.107 14.9112
43.1549 14.8212
43.2029 14.7486
43.2508 14.7073
43.2989 14.6832
43.3468 14.6467
43.3949 14.542
43.4429 14.5025
43.491 14.4384
43.5389 14.4818
43.5871 14.4184
43.635 14.3245
43.6832 14.3266
43.7312 14.2179
43.7793 14.1808
43.8273 14.1733
43.8755 14.0653
43.9237 14.0183
43.9717 13.9981
44.0199 13.9399
44.068 13.8791
44.1162 13.8085
44.1642 13.8131
44.2125 13.7328
44.2606 13.6875
44.3088 13.6219
44.3569 13.5544
44.4052 13.5265
44.4533 13.4595
44.5016 13.4154
44.5497 13.3902
44.598 13.3602
44.6461 13.2915
44.6945 13.2026
44.7426 13.2183
44.791 13.1522
44.8391 13.1552
44.8875 13.1178
44.9357 13.0383
44.984 12.9688
45.0322 12.9349
45.0806 12.9092
45.1288 12.8628
45.1773 12.7792
45.2257 12.7504
45.2739 12.7282
45.3224 12.6853
45.3706 12.6347
45.4191 12.5618
45.4673 12.5411
45.5158 12.4921
45.5641 12.3766
45.6126 12.4268
45.6609 12.3409
45.7094 12.2748
45.7577 12.2656
45.8063 12.2184
45.8546 12.2092
45.9031 12.1248
45.9515 12.0735
46.0001 12.0305
46.0484 12.0394
46.097 11.9937
46.1454 11.944
46.194 11.8251
46.2424 11.844
46.291 11.7806
46.3395 11.7406
46.3881 11.6849
46.4365 11.6733
46.4852 11.6083
46.5337 11.5981
46.5823 11.5446
46.631 11.478
46.6795 11.4269
46.7282 11.4016
46.7767 11.3643
46.8254 11.2767
46.8739 11.2791
46.9226 11.248
46.9712 11.1946
47.0199 11.1428
47.0685 11.1214
47.1173 11.0351
47.1658 11.0206
47.2146 11.0002
47.2632 10.9513
47.312 10.8718
47.3606 10.831
47.4095 10.8099
47.4581 10.7804
47.5069 10.7654
47.5556 10.7231
47.6044 10.6897
47.6531 10.6256
47.702 10.5931
47.7507 10.5565
47.7996 10.5017
47.8483 10.469
47.8972 10.4303
47.9461 10.4177
47.9948 10.3504
48.0438 10.326
48.0925 10.2797
48.1415 10.2373
48.1902 10.2093
48.2392 10.1849
48.288 10.155
48.337 10.1206
48.3858 10.0581
48.4348 10.0581
48.4837 10.0235
48.5327 9.95231
48.5815 9.96281
48.6306 9.90705
48.6795 9.84969
48.7285 9.81424
48.7774 9.74136
48.8265 9.74166
48.8754 9.67907
48.9245 9.64479
48.9734 9.61957
49.0226 9.61021
49.0715 9.56525
49.1206 9.5182
49.1696 9.46928
49.2188 9.44798
49.2679 9.40813
49.3169 9.35624
49.3661 9.33173
49.4151 9.29314
49.4643 9.26293
49.5134 9.22908
49.5626 9.15588
49.6117 9.13701
49.6609 9.16271
49.71 9.05814
49.7592 9.0152
49.8083 9.04778
49.8576 8.98672
49.9067 8.96807
49.956 8.91182
50.0052 8.87673
50.0545 8.83352
50.1036 8.78834
50.153 8.81876
50.2022 8.7655
50.2515 8.70499
50.3007 8.65442
50.3501 8.60378
50.3993 8.60845
50.4487 8.57248
50.498 8.57023
50.5474 8.49849
50.5966 8.48997
50.6461 8.48137
50.6955 8.43757
50.7448 8.38943
50.7943 8.36612
50.8436 8.2841
50.8931 8.28296
50.9424 8.27534
50.9919 8.21378
51.0413 8.20362
51.0908 8.17937
51.1402 8.13339
51.1897 8.06623
51.2391 8.05294
51.2887 7.9981
51.3381 7.97254
51.3877 7.95715
51.4371 7.92357
51.4867 7.85799
51.5362 7.87602
51.5858 7.80923
51.6353 7.76746
51.6849 7.72058
51.7344 7.68427
51.7841 7.69651
51.8336 7.64054
51.8833 7.61537
51.9328 7.5983
51.9826 7.53122
52.0323 7.5394
52.0818 7.52771
52.1316 7.45165
52.1812 7.47943
52.231 7.38819
52.2806 7.38932
52.3304 7.31162
52.38 7.31267
52.4298 7.29824
52.4794 7.20105
52.5293 7.19682
52.5789 7.20766
52.6288 7.1598
52.6785 7.09047
52.7284 7.10172
52.7781 7.0732
52.828 7.05669
52.8777 7.00012
52.9276 7.00504
52.9774 6.97336
53.0273 6.96363
53.0771 6.87411
53.1271 6.90019
53.1769 6.85195
53.2269 6.79833
53.2767 6.77492
53.3267 6.74296
53.3765 6.71596
53.4266 6.69998
53.4766 6.6783
53.5265 6.64198
53.5765 6.61287
53.6264 6.64406
53.6765 6.52031
53.7264 6.52035
53.7765 6.53392
53.8265 6.48093
53.8766 6.44143
53.9266 6.38744
53.9767 6.35967
54.0267 6.36562
54.0769 6.35584
54.1269 6.3136
54.1771 6.26233
54.2271 6.24783
54.2773 6.11747
54.3274 6.1493
54.3776 6.1191
54.4277 6.09308
54.478 6.07649
54.528 5.99883
54.5783 5.95369
54.6285 5.92808
54.6788 5.91423
54.7289 5.82221
54.7792 5.78179
54.8296 5.73452
54.8798 5.69515
54.9301 5.68531
54.9803 5.61644
55.0307 5.62945
55.0809 5.53868
55.1314 5.52533
55.1816 5.48457
55.232 5.36088
55.2823 5.39782
55.3328 5.307
55.383 5.27712
55.4335 5.16818
55.4838 5.13334
55.5344 5.10256
55.5847 5.07853
55.6352 5.04809
55.6856 5.0632
55.7361 4.92759