File: XRD/Ni3Fe_FD0944.xy
TT I
1.27165 7.12394
1.31627 6.22238
1.36089 6.28827
1.40551 5.78027
1.45013 6.32861
1.49476 5.46863
1.53938 5.86657
1.584 5.29868
1.62863 4.78305
1.67325 5.20823
1.71787 4.84586
1.7625 4.71068
1.80712 4.11923
1.85174 4.67334
1.89636 5.0622
1.94099 4.56203
1.98562 5.04536
2.03025 4.63402
2.07487 5.12232
2.11949 4.72144
2.16411 4.97462
2.20874 7.37446
2.25338 9.4583
2.298 5.06638
2.34263 5.62884
2.38725 5.64096
2.43188 6.70163
2.4765 7.16691
2.52115 6.52958
2.56577 7.89638
2.6104 8.29481
2.65503 8.04449
2.69965 8.41438
2.7443 8.43657
2.78893 8.03678
2.83356 8.46027
2.87818 8.99343
2.92281 9.34262
2.96744 9.80184
3.01209 10.7633
3.05672 11.0975
3.10135 12.6862
3.14599 12.9301
3.19062 14.6884
3.23527 15.2271
3.2799 15.8982
3.32454 16.395
3.36917 17.2523
3.4138 18.3628
3.45844 19.3255
3.50309 20.5171
3.54773 21.3431
3.59237 23.1181
3.637 40.9998
3.68164 32.648
3.7263 24.9055
3.77094 25.7776
3.81558 26.621
3.86022 26.8944
3.90486 28.5628
3.9495 29.2909
3.99416 30.2976
4.0388 31.4776
4.08344 32.9361
4.12809 33.9729
4.17273 35.461
4.21738 38.3335
4.26204 95.6224
4.30669 84.3668
4.35133 43.4734
4.39598 43.0942
4.44063 47.6895
4.4853 51.5321
4.52995 59.6985
4.5746 60.1052
4.61925 53.2061
4.6639 55.0035
4.70855 57.9936
4.75322 61.2086
4.79788 69.3777
4.84253 67.9536
4.88719 76.2035
4.93184 76.4766
4.97652 80.1823
5.02118 85.584
5.06583 93.4314
5.11049 105.199
5.15515 152.999
5.19981 371.612
5.24449 2789.37
5.28916 13535.5
5.33382 2691.33
5.37848 198.429
5.42315 130.563
5.46783 121.236
5.5125 114.083
5.55716 100.883
5.60183 96.5229
5.6465 94.8664
5.69117 93.8598
5.73586 91.876
5.78053 100.139
5.8252 100.101
5.86988 103.893
5.91455 94.219
5.95924 102.713
6.00392 227.931
6.0486 905.984
6.09328 4642.74
6.13795 2994.49
6.18263 194.102
6.22733 87.5645
6.27201 78.5254
6.3167 80.1142
6.36138 72.6226
6.40606 69.8761
6.45075 70.1365
6.49545 64.6688
6.54014 62.6664
6.58483 62.2298
6.62952 62.6519
6.67421 68.767
6.71892 79.9606
6.76361 60.1811
6.8083 59.3553
6.853 60.5353
6.89769 55.9337
6.94239 55.3535
6.98711 55.0201
7.03181 55.4681
7.07651 54.2552
7.12121 54.0706
7.16591 55.925
7.21063 55.344
7.25533 58.215
7.30004 86.0596
7.34475 63.1493
7.38945 53.9674
7.43416 52.9098
7.47889 52.8619
7.5236 53.5652
7.56831 54.0207
7.61303 54.7202
7.65774 55.1054
7.70247 56.9508
7.74719 55.8808
7.79191 55.754
7.83663 55.945
7.88135 56.5942
7.92607 57.8093
7.97081 58.7698
8.01553 60.2992
8.06026 61.9847
8.10498 63.5484
8.14971 70.1211
8.19446 70.0714
8.23919 68.4561
8.28392 70.8021
8.32865 73.0673
8.37339 77.4377
8.41812 82.123
8.46288 98.7186
8.50761 170.598
8.55235 364.945
8.59709 1207.1
8.64183 2214.77
8.68658 825.402
8.73134 139.781
8.77609 95.8507
8.82083 91.254
8.86558 92.7512
8.91033 92.9243
8.9551 89.0111
8.99985 84.3742
9.04461 83.0943
9.08936 83.8427
9.13412 82.3592
9.17888 81.3134
9.22365 81.2204
9.26841 81.4363
9.31318 84.6669
9.35794 87.5599
9.4027 86.4381
9.44749 85.0623
9.49226 83.7714
9.53703 84.8505
9.5818 89.0086
9.62657 94.7717
9.67134 94.5012
9.71614 91.5388
9.76091 93.9686
9.80569 99.7576
9.85047 101.298
9.89525 108.334
9.94005 123.019
9.98484 185.024
10.0296 330.807
10.0744 830.538
10.1192 1848.79
10.164 1465.91
10.2088 328.931
10.2536 118.214
10.2984 106.935
10.3432 105.387
10.388 103.465
10.4328 119.806
10.4776 157.901
10.5224 289.847
10.5672 548.813
10.612 479.583
10.6568 174.528
10.7017 92.4524
10.7465 84.9769
10.7913 82.002
10.8361 80.0341
10.8809 77.7935
10.9257 77.0019
10.9706 77.0981
11.0154 74.8961
11.0602 71.9933
11.105 70.3876
11.1499 70.1913
11.1947 71.624
11.2395 68.1789
11.2844 67.0246
11.3292 65.8981
11.374 65.2266
11.4189 64.4166
11.4637 63.9518
11.5086 63.429
11.5534 63.9435
11.5983 63.1526
11.6431 62.5824
11.688 61.8755
11.7328 62.127
11.7777 61.5851
11.8225 61.9447
11.8674 61.8296
11.9122 61.6696
11.9571 62.0321
12.002 63.6258
12.0468 67.7032
12.0917 76.9941
12.1366 102.38
12.1814 160.877
12.2263 209.157
12.2712 153.752
12.3161 84.5336
12.3609 65.1058
12.4058 62.7713
12.4507 63.1478
12.4956 64.1475
12.5405 64.2597
12.5853 64.4012
12.6302 66.1561
12.6751 68.3383
12.72 66.5917
12.7649 66.6391
12.8098 67.747
12.8547 68.9632
12.8996 70.422
12.9445 72.2788
12.9894 73.7331
13.0343 75.2924
13.0792 79.3351
13.1242 91.225
13.1691 109.01
13.214 146.374
13.2589 247.582
13.3038 392.278
13.3487 418.376
13.3937 227.391
13.4386 113.876
13.4835 103.878
13.5285 118.04
13.5734 158.6
13.6183 260.43
13.6633 369.465
13.7082 321.225
13.7531 164.079
13.7981 91.1987
13.843 80.0937
13.888 78.2558
13.9329 76.1187
13.9779 74.722
14.0228 73.2844
14.0678 71.8754
14.1127 71.2112
14.1577 70.533
14.2027 70.3618
14.2476 69.3057
14.2926 68.7913
14.3376 68.8659
14.3825 68.595
14.4275 68.0902
14.4725 67.9998
14.5175 67.652
14.5624 67.9858
14.6074 68.7015
14.6524 69.3411
14.6974 69.669
14.7424 72.8216
14.7874 78.297
14.8324 87.2606
14.8774 111.097
14.9224 160.046
14.9674 220.47
15.0124 213.41
15.0574 135.432
15.1024 83.6237
15.1474 70.7205
15.1924 69.0508
15.2374 68.1492
15.2824 67.1599
15.3274 66.1721
15.3725 65.7031
15.4175 65.4711
15.4625 64.9035
15.5076 64.6612
15.5526 64.8145
15.5976 65.0254
15.6426 67.1479
15.6877 71.521
15.7327 78.6815
15.7778 94.4499
15.8228 128.758
15.8679 179.056
15.9129 196.541
15.958 143.712
16.003 86.653
16.0481 64.5796
16.0931 61.6869
16.1382 60.2459
16.1833 59.2262
16.2283 57.8232
16.2734 56.9932
16.3185 56.844
16.3636 56.4393
16.4086 55.5201
16.4537 54.9744
16.4988 54.4041
16.5439 54.4632
16.589 54.0804
16.6341 53.9306
16.6792 53.6046
16.7243 53.7862
16.7694 53.6142
16.8145 53.6009
16.8596 54.0647
16.9047 54.5296
16.9498 54.555
16.9949 54.2916
17.04 55.243
17.0851 56.221
17.1302 57.6511
17.1754 60.6969
17.2205 66.408
17.2656 75.2847
17.3108 83.2046
17.3559 80.0577
17.401 67.5706
17.4462 60.2969
17.4913 58.4412
17.5365 58.3322
17.5815 58.2447
17.6268 58.8531
17.6718 59.3535
17.7171 59.4195
17.7622 60.4931
17.8074 61.5585
17.8525 64.0944
17.8977 67.2948
17.9428 72.1837
17.9881 82.2218
18.0331 101.721
18.0784 127.006
18.1237 140.961
18.1688 125.212
18.214 96.7796
18.2591 83.7859
18.3044 90.8842
18.3495 101.66
18.3948 104.787
18.4399 90.7087
18.4852 72.7566
18.5303 63.74
18.5756 60.9719
18.6207 60.1119
18.666 59.3654
18.7112 58.5692
18.7565 57.9994
18.8016 57.775
18.8469 57.0258
18.892 56.9417
18.9374 56.5146
18.9825 55.8633
19.0278 55.8368
19.073 56.1697
19.1183 56.1932
19.1635 56.6224
19.2088 58.0937
19.254 61.2074
19.2993 66.3151
19.3447 72.3544
19.3898 74.9077
19.4352 69.1769
19.4804 60.2584
19.5257 54.7981
19.5709 52.9849
19.6163 53.0158
19.6615 52.867
19.7068 52.2727
19.752 52.4584
19.7974 52.8042
19.8426 53.5124
19.888 54.0903
19.9332 55.3476
19.9786 58.251
20.0238 62.7276
20.0692 67.5682
20.1144 69.3585
20.1598 66.3917
20.205 61.6061
20.2504 61.5244
20.2957 64.1714
20.3411 65.2751
20.3863 62.429
20.4318 56.0095
20.477 51.7463
20.5224 50.1549
20.5677 49.703
20.6131 49.1093
20.6586 48.8953
20.7038 48.5681
20.7493 48.1797
20.7945 48.0499
20.84 48.1704
20.8853 47.9467
20.9307 47.757
20.976 48.0348
21.0215 47.7482
21.0668 48.1651
21.1122 48.6647
21.1575 49.2946
21.203 50.3058
21.2483 50.8046
21.2938 50.5473
21.3391 49.0196
21.3846 48.0309
21.4299 47.6634
21.4754 47.6608
21.5207 47.679
21.5662 48.2075
21.6116 48.5793
21.6571 49.1469
21.7024 50.1056
21.7479 52.01
21.7933 55.0634
21.8388 58.8987
21.8843 63.2221
21.9297 64.0826
21.9752 61.0249
22.0206 57.4234
22.0661 55.3963
22.1115 55.5197
22.157 55.0041
22.2024 52.5781
22.248 50.1147
22.2933 48.7003
22.3389 48.1997
22.3843 47.8552
22.4299 47.6796
22.4753 47.7434
22.5208 47.6282
22.5662 47.6697
22.6118 47.9854
22.6572 48.0424
22.7028 48.3531
22.7483 48.8151
22.7939 49.5923
22.8393 51.3525
22.8849 53.6673
22.9303 55.9798
22.9759 57.3449
23.0214 55.8776
23.067 52.6996
23.1126 49.7597
23.1581 48.0655
23.2037 47.8964
23.2492 47.9249
23.2948 48.0902
23.3403 48.3077
23.3859 49.0171
23.4314 50.077
23.477 52.1026
23.5225 54.7994
23.5682 57.0845
23.6137 57.1693
23.6593 53.7662
23.7048 49.8228
23.7505 46.9375
23.796 45.7074
23.8417 45.2821
23.8872 44.7347
23.9329 44.3296
23.9784 44.0635
24.0241 43.8281
24.0697 43.5246
24.1154 43.3869
24.1609 43.2745
24.2066 42.8663
24.2522 42.9048
24.2979 42.7093
24.3434 42.4535
24.3892 42.3004
24.4349 42.4048
24.4805 42.1931
24.5262 42.4637
24.5718 42.2948
24.6175 42.2743
24.6631 42.1852
24.7089 41.73
24.7545 41.7481
24.8002 41.4314
24.8458 41.5336
24.8916 41.4515
24.9372 41.4928
24.983 41.7813
25.0286 42.1944
25.0744 42.633
25.12 43.3074
25.1658 43.7842
25.2114 43.9526
25.2572 44.22
25.3029 44.1681
25.3487 44.4131
25.3943 43.7028
25.4402 42.3814
25.4858 41.4254
25.5316 40.5574
25.5773 40.1817
25.6231 40.214
25.669 39.8865
25.7147 39.8488
25.7605 39.668
25.8062 39.6472
25.8521 39.9109
25.8977 39.9854
25.9436 40.3086
25.9893 40.4793
26.0352 40.9703
26.0809 41.0624
26.1268 41.0631
26.1725 40.4414
26.2184 39.9327
26.2641 39.43
26.31 39.4093
26.3557 39.4803
26.4017 39.3319
26.4474 39.7445
26.4933 39.9603
26.5391 40.7231
26.585 41.1848
26.6308 41.612
26.6767 41.515
26.7225 41.0497
26.7684 40.671
26.8142 40.1252
26.8601 39.8697
26.9059 39.2488
26.9519 38.7362
26.9979 38.4798
27.0437 38.1359
27.0896 38.0739
27.1354 38.1042
27.1814 37.9644
27.2272 37.9833
27.2732 37.8474
27.3191 37.7474
27.3651 37.7915
27.4109 37.7886
27.4569 37.995
27.5027 38.0189
27.5488 38.0638
27.5946 37.6922
27.6407 37.4652
27.6865 37.4334
27.7326 37.1913
27.7784 37.1328
27.8245 37.0947
27.8703 37.2565
27.9164 37.7794
27.9623 37.9719
28.0084 38.2702
28.0543 38.6082
28.1003 38.3287
28.1462 38.0716
28.1923 37.7995
28.2384 37.3003
28.2843 36.9862
28.3304 36.4662
28.3764 36.021
28.4225 35.6818
28.4684 35.7216
28.5145 35.4037
28.5605 35.2061
28.6066 35.0392
28.6526 35.1033
28.6987 35.0153
28.7447 34.9134
28.7908 34.8297
28.8368 34.8345
28.8829 34.8446
28.9289 34.7607
28.9751 34.6307
29.0211 34.2493
29.0673 34.1442
29.1133 33.9814
29.1595 33.879
29.2055 33.7505
29.2517 33.7305
29.2977 33.6624
29.3439 33.6681
29.3899 33.6533
29.4361 33.6404
29.4824 33.4011
29.5284 33.0772
29.5746 32.7436
29.6207 32.4983
29.6669 32.5307
29.713 32.4156
29.7593 32.294
29.8053 32.445
29.8516 32.2416
29.8977 32.1315
29.9439 32.1293
29.99 32.041
30.0363 31.9396
30.0824 32.038
30.1287 31.8446
30.1748 31.9411
30.2211 31.9642
30.2673 31.6528
30.3136 31.8666
30.3597 31.7248
30.406 31.5437
30.4522 31.4912
30.4985 31.524
30.5447 31.6222
30.591 31.5915
30.6372 31.7255
30.6835 31.696
30.7297 31.6943
30.7761 31.5993
30.8224 31.4618
30.8686 31.2591
30.915 31.0379
30.9612 30.9465
31.0076 30.732
31.0538 30.6451
31.1002 30.5904
31.1464 30.3591
31.1928 30.5567
31.2391 30.4355
31.2855 30.3888
31.3317 30.4087
31.3781 30.4173
31.4244 30.4067
31.4708 30.3144
31.5171 30.2858
31.5636 30.2456
31.6098 29.9685
31.6563 29.881
31.7026 29.7399
31.7491 29.6338
31.7953 29.6721
31.8418 29.6734
31.8881 29.777
31.9346 29.5775
31.9809 29.543
32.0275 29.4802
32.074 29.359
32.1203 29.1821
32.1668 28.9746
32.2132 28.8037
32.2597 28.7399
32.306 28.6457
32.3526 28.4732
32.399 28.4902
32.4455 28.3229
32.4919 28.2232
32.5385 28.1897
32.5848 28.1128
32.6314 28.0852
32.6778 27.9601
32.7244 27.7964
32.7708 27.6656
32.8174 27.705
32.8638 27.4766
32.9104 27.6394
32.9569 27.5291
33.0035 27.4448
33.0499 27.4506
33.0966 27.3199
33.143 27.3223
33.1897 27.2371
33.2361 27.2224
33.2828 27.0912
33.3293 26.946
33.3759 26.8944
33.4226 26.7459
33.4691 26.6078
33.5158 26.6311
33.5623 26.3763
33.609 26.2583
33.6555 26.2462
33.7022 26.1259
33.7487 26.1131
33.7954 26.0962
33.842 25.929
33.8887 25.921
33.9353 25.8466
33.982 25.6384
34.0286 25.5953
34.0753 25.5065
34.1219 25.4378
34.1687 25.4138
34.2152 25.3715
34.262 25.199
34.3086 25.1374
34.3554 25.0918
34.402 24.946
34.4488 24.8791
34.4954 24.8568
34.5422 24.7366
34.5889 24.6958
34.6357 24.5564
34.6825 24.4728
34.7292 24.4996
34.776 24.3106
34.8227 24.296
34.8695 24.2467
34.9162 24.1674
34.9631 24.1001
35.0098 24.1238
35.0566 23.9586
35.1033 23.8942
35.1502 23.908
35.1969 23.7784
35.2438 23.8196
35.2906 23.7358
35.3375 23.6974
35.3842 23.5926
35.4311 23.612
35.4779 23.6147
35.5248 23.5371
35.5716 23.3571
35.6185 23.227
35.6653 23.1821
35.7123 23.1414
35.759 23.0458
35.806 22.9697
35.8528 22.8892
35.8998 22.8392
35.9468 22.7297
35.9936 22.6516
36.0406 22.6307
36.0874 22.6366
36.1345 22.4764
36.1813 22.4693
36.2283 22.3084
36.2752 22.2814
36.3222 22.3089
36.3691 22.2369
36.4161 22.0872
36.463 22.0907
36.5101 22.0366
36.557 21.9859
36.6041 21.8077
36.651 21.7454
36.6981 21.7864
36.745 21.731
36.7921 21.5843
36.839 21.5135
36.8861 21.4936
36.9331 21.4087
36.9802 21.2578
37.0272 21.2695
37.0743 21.0834
37.1213 21.1216
37.1684 21.0499
37.2154 20.9583
37.2626 20.9109
37.3098 20.8255
37.3568 20.7886
37.404 20.7967
37.451 20.6304
37.4982 20.6072
37.5452 20.5216
37.5924 20.462
37.6395 20.5129
37.6867 20.3563
37.7337 20.2858
37.781 20.2151
37.8281 20.1399
37.8753 19.9983
37.9224 20.0079
37.9697 19.9424
38.0168 19.8072
38.064 19.8257
38.1111 19.7001
38.1584 19.704
38.2056 19.6028
38.2529 19.5575
38.3 19.4771
38.3473 19.4718
38.3945 19.35
38.4418 19.3639
38.489 19.2801
38.5363 19.2248
38.5837 19.1221
38.6309 19.065
38.6782 19.0287
38.7254 19.007
38.7728 18.8804
38.82 18.8437
38.8674 18.7674
38.9146 18.7344
38.9621 18.6586
39.0093 18.582
39.0567 18.5217
39.104 18.5258
39.1514 18.4038
39.1987 18.4012
39.2461 18.3128
39.2934 18.3148
39.3409 18.1842
39.3882 18.0772
39.4356 18.0586
39.483 18.0335
39.5304 17.9226
39.5778 17.9351
39.6253 17.8813
39.6726 17.7854
39.7201 17.7545
39.7675 17.6687
39.815 17.6473
39.8624 17.5061
39.9099 17.5259
39.9575 17.3898
40.0049 17.3735
40.0525 17.3563
40.0999 17.2717
40.1474 17.299
40.1949 17.2076
40.2425 17.1117
40.2899 17.0448
40.3375 17.0049
40.385 16.9365
40.4326 16.8825
40.48 16.7862
40.5277 16.8285
40.5752 16.7396
40.6228 16.6633
40.6703 16.6112
40.718 16.5281
40.7655 16.5618
40.8132 16.4183
40.8607 16.4766
40.9084 16.3807
40.9559 16.2972
41.0036 16.3136
41.0512 16.1987
41.0989 16.2435
41.1465 16.1272
41.1942 16.0681
41.242 15.9988
41.2896 15.9763
41.3373 15.8774
41.3849 15.8218
41.4327 15.7661
41.4803 15.7775
41.5281 15.6638
41.5758 15.6417
41.6236 15.5918
41.6712 15.4889
41.7191 15.4403
41.7667 15.4088
41.8146 15.4152
41.8622 15.3579
41.9101 15.2842
41.9578 15.19
42.0057 15.1708
42.0534 15.1091
42.1013 15.1271
42.149 15.0195
42.1969 15.0054
42.2446 14.9005
42.2925 14.9223
42.3403 14.7883
42.3882 14.7836
42.436 14.7462
42.4839 14.7107
42.5319 14.6623
42.5797 14.6136
42.6277 14.5327
42.6755 14.5222
42.7235 14.397
42.7713 14.3239
42.8193 14.3274
42.8671 14.2392
42.9152 14.2407
42.963 14.218
43.0111 14.0642
43.0589 14.0554
43.107 14.0215
43.1549 13.9735
43.2029 13.991
43.2508 13.9114
43.2989 13.8359
43.3468 13.803
43.3949 13.7312
43.4429 13.6862
43.491 13.6387
43.5389 13.5879
43.5871 13.5648
43.635 13.4967
43.6832 13.4702
43.7312 13.4413
43.7793 13.3519
43.8273 13.2832
43.8755 13.227
43.9237 13.2265
43.9717 13.2088
44.0199 13.1606
44.068 13.1401
44.1162 13.0529
44.1642 13.0151
44.2125 12.954
44.2606 12.9493
44.3088 12.8775
44.3569 12.8202
44.4052 12.8131
44.4533 12.6688
44.5016 12.6185
44.5497 12.7162
44.598 12.6388
44.6461 12.5223
44.6945 12.5034
44.7426 12.487
44.791 12.421
44.8391 12.3585
44.8875 12.3765
44.9357 12.3201
44.984 12.2279
45.0322 12.1518
45.0806 12.1471
45.1288 12.1223
45.1773 12.0783
45.2257 12.0441
45.2739 11.9813
45.3224 11.9391
45.3706 11.8799
45.4191 11.8767
45.4673 11.8344
45.5158 11.7923
45.5641 11.7265
45.6126 11.6948
45.6609 11.6563
45.7094 11.5584
45.7577 11.6323
45.8063 11.5076
45.8546 11.5322
45.9031 11.4308
45.9515 11.4245
46.0001 11.3557
46.0484 11.3503
46.097 11.3056
46.1454 11.2679
46.194 11.2222
46.2424 11.1728
46.291 11.0945
46.3395 11.0673
46.3881 11.0187
46.4365 11.0162
46.4852 10.9911
46.5337 10.9206
46.5823 10.8981
46.631 10.8492
46.6795 10.8018
46.7282 10.7689
46.7767 10.7446
46.8254 10.659
46.8739 10.6379
46.9226 10.6356
46.9712 10.5694
47.0199 10.54
47.0685 10.4689
47.1173 10.4608
47.1658 10.3946
47.2146 10.384
47.2632 10.3005
47.312 10.2773
47.3606 10.2279
47.4095 10.2238
47.4581 10.1726
47.5069 10.1238
47.5556 10.118
47.6044 10.0686
47.6531 10.0208
47.702 10.0203
47.7507 9.97582
47.7996 9.9436
47.8483 9.86319
47.8972 9.84571
47.9461 9.83453
47.9948 9.74913
48.0438 9.77835
48.0925 9.71394
48.1415 9.67433
48.1902 9.62168
48.2392 9.59869
48.288 9.61588
48.337 9.49667
48.3858 9.49998
48.4348 9.48548
48.4837 9.46295
48.5327 9.38716
48.5815 9.34815
48.6306 9.35119
48.6795 9.27657
48.7285 9.243
48.7774 9.23458
48.8265 9.23259
48.8754 9.19643
48.9245 9.12757
48.9734 9.07499
49.0226 9.09561
49.0715 8.98333
49.1206 8.98919
49.1696 8.9333
49.2188 8.96403
49.2679 8.89756
49.3169 8.85159
49.3661 8.82579
49.4151 8.75207
49.4643 8.73763
49.5134 8.70107
49.5626 8.6819
49.6117 8.61899
49.6609 8.5906
49.71 8.55211
49.7592 8.52372
49.8083 8.48307
49.8576 8.48782
49.9067 8.4393
49.956 8.41986
50.0052 8.36208
50.0545 8.32608
50.1036 8.29981
50.153 8.32387
50.2022 8.27019
50.2515 8.23121
50.3007 8.20048
50.3501 8.15555
50.3993 8.13912
50.4487 8.09483
50.498 8.09332
50.5474 8.0227
50.5966 8.00409
50.6461 7.95544
50.6955 7.94969
50.7448 7.92597
50.7943 7.86051
50.8436 7.83934
50.8931 7.822
50.9424 7.78071
50.9919 7.77632
51.0413 7.75912
51.0908 7.67841
51.1402 7.69273
51.1897 7.65412
51.2391 7.62305
51.2887 7.54379
51.3381 7.53855
51.3877 7.53025
51.4371 7.47853
51.4867 7.42034
51.5362 7.43582
51.5858 7.40908
51.6353 7.36767
51.6849 7.31461
51.7344 7.28245
51.7841 7.28866
51.8336 7.23467
51.8833 7.2047
51.9328 7.17407
51.9826 7.14481
52.0323 7.14582
52.0818 7.11372
52.1316 7.02657
52.1812 7.05962
52.231 6.96605
52.2806 6.9624
52.3304 6.92982
52.38 6.91464
52.4298 6.85987
52.4794 6.83765
52.5293 6.81901
52.5789 6.80648
52.6288 6.79716
52.6785 6.73837
52.7284 6.69734
52.7781 6.71335
52.828 6.65651
52.8777 6.62663
52.9276 6.58483
52.9774 6.6043
53.0273 6.57675
53.0771 6.526
53.1271 6.48067
53.1769 6.48278
53.2269 6.49354
53.2767 6.45349
53.3267 6.39896
53.3765 6.39986
53.4266 6.33853
53.4766 6.26289
53.5265 6.30838
53.5765 6.28492
53.6264 6.23631
53.6765 6.23139
53.7264 6.19168
53.7765 6.13033
53.8265 6.07227
53.8766 6.07565
53.9266 6.09491
53.9767 6.07014
54.0267 6.04365
54.0769 6.00423
54.1269 5.91413
54.1771 5.90078
54.2271 5.8976
54.2773 5.86652
54.3274 5.8352
54.3776 5.81405
54.4277 5.78197
54.478 5.72665
54.528 5.70392
54.5783 5.68467
54.6285 5.6389
54.6788 5.57649
54.7289 5.57617
54.7792 5.55224
54.8296 5.48205
54.8798 5.40654
54.9301 5.41088
54.9803 5.33944
55.0307 5.33297
55.0809 5.27383
55.1314 5.21286
55.1816 5.22408
55.232 5.16194
55.2823 5.13351
55.3328 5.08549
55.383 5.00437
55.4335 5.01291
55.4838 4.91432
55.5344 4.92079
55.5847 4.83282
55.6352 4.82743
55.6856 4.81139
55.7361 4.72464