File: XRD/Ni3Fe_FD0763.xy
TT I
1.27165 7.32527
1.31627 6.56599
1.36089 6.59248
1.40551 5.23097
1.45013 6.29808
1.49476 5.78188
1.53938 5.93522
1.584 5.28905
1.62863 5.14842
1.67325 4.92319
1.71787 4.57147
1.7625 5.07658
1.80712 4.74353
1.85174 4.80109
1.89636 4.50545
1.94099 4.5778
1.98562 4.23599
2.03025 4.96081
2.07487 4.9866
2.11949 4.54565
2.16411 5.06355
2.20874 16.5735
2.25338 28.016
2.298 7.2392
2.34263 5.54056
2.38725 6.1185
2.43188 6.34272
2.4765 7.30725
2.52115 6.87248
2.56577 7.8487
2.6104 8.33963
2.65503 7.44263
2.69965 8.49573
2.7443 8.21972
2.78893 7.98371
2.83356 8.63531
2.87818 8.9248
2.92281 9.75763
2.96744 8.95669
3.01209 10.312
3.05672 11.4145
3.10135 12.0321
3.14599 13.124
3.19062 14.5157
3.23527 15.3219
3.2799 15.3573
3.32454 17.0315
3.36917 17.7059
3.4138 19.2281
3.45844 19.6307
3.50309 21.1936
3.54773 21.9942
3.59237 24.5298
3.637 110.144
3.68164 68.4876
3.7263 26.4002
3.77094 26.3031
3.81558 26.9969
3.86022 27.7868
3.90486 29.1237
3.9495 29.9991
3.99416 30.7454
4.0388 32.2732
4.08344 33.7569
4.12809 35.0523
4.17273 37.2916
4.21738 44.6772
4.26204 294.923
4.30669 264.192
4.35133 50.4966
4.39598 44.8691
4.44063 56.1843
4.4853 70.9448
4.52995 50.3299
4.5746 51.2383
4.61925 52.9942
4.6639 55.395
4.70855 57.5724
4.75322 60.4813
4.79788 63.4618
4.84253 66.2265
4.88719 70.5347
4.93184 74.2636
4.97652 79.2885
5.02118 85.4379
5.06583 92.2976
5.11049 103.186
5.15515 178.599
5.19981 303.439
5.24449 2440.91
5.28916 12889.6
5.33382 3024.18
5.37848 188.249
5.42315 128.131
5.46783 111.969
5.5125 104.659
5.55716 100.733
5.60183 97.2129
5.6465 95.9697
5.69117 93.535
5.73586 91.5358
5.78053 90.3453
5.8252 89.4439
5.86988 90.3259
5.91455 92.0575
5.95924 98.0163
6.00392 179.3
6.0486 834.528
6.09328 4271.75
6.13795 3297.57
6.18263 243.821
6.22733 92.5128
6.27201 82.6561
6.3167 108.265
6.36138 82.9243
6.40606 68.9438
6.45075 66.7781
6.49545 65.2759
6.54014 63.9427
6.58483 62.4368
6.62952 62.6608
6.67421 100.429
6.71892 165.843
6.76361 71.4374
6.8083 58.8946
6.853 57.1889
6.89769 56.7644
6.94239 56.5203
6.98711 55.2816
7.03181 55.2676
7.07651 55.1906
7.12121 55.3282
7.16591 55.7012
7.21063 55.8755
7.25533 73.7863
7.30004 210.175
7.34475 101.205
7.38945 56.9562
7.43416 54.6785
7.47889 54.2775
7.5236 54.7986
7.56831 55.452
7.61303 57.4757
7.65774 57.9177
7.70247 55.9707
7.74719 56.086
7.79191 56.6418
7.83663 56.8721
7.88135 57.6421
7.92607 58.8646
7.97081 59.5424
8.01553 60.6802
8.06026 62.1007
8.10498 63.4828
8.14971 74.3888
8.19446 73.3689
8.23919 69.118
8.28392 71.0395
8.32865 73.1745
8.37339 77.3133
8.41812 84.4547
8.46288 117.053
8.50761 150.936
8.55235 351.703
8.59709 1094.73
8.64183 2177.39
8.68658 1029.11
8.73134 169.033
8.77609 98.8353
8.82083 91.6673
8.86558 89.066
8.91033 89.7655
8.9551 92.9112
8.99985 85.0412
9.04461 82.6266
9.08936 81.9004
9.13412 81.148
9.17888 81.2195
9.22365 82.5596
9.26841 81.5375
9.31318 81.7367
9.35794 81.8266
9.4027 82.4853
9.44749 83.3761
9.49226 83.8349
9.53703 84.8639
9.5818 86.151
9.62657 91.8673
9.67134 99.7524
9.71614 93.4924
9.76091 93.1139
9.80569 95.0208
9.85047 98.576
9.89525 127.005
9.94005 140.003
9.98484 158.91
10.0296 302.719
10.0744 748.414
10.1192 1740.66
10.164 1624.07
10.2088 405.213
10.2536 126.773
10.2984 113.729
10.3432 117.094
10.388 104.153
10.4328 112.905
10.4776 149.34
10.5224 265.529
10.5672 507.127
10.612 517.318
10.6568 211.012
10.7017 96.8719
10.7465 85.9493
10.7913 82.7563
10.8361 80.9983
10.8809 78.305
10.9257 78.3663
10.9706 79.4622
11.0154 74.6694
11.0602 72.5899
11.105 71.7935
11.1499 76.852
11.1947 86.7071
11.2395 75.8515
11.2844 71.0451
11.3292 66.9669
11.374 65.6929
11.4189 65.3525
11.4637 64.3817
11.5086 65.6297
11.5534 68.9051
11.5983 65.9271
11.6431 63.5088
11.688 62.5886
11.7328 62.6668
11.7777 62.6099
11.8225 62.1616
11.8674 62.1073
11.9122 62.6877
11.9571 62.3017
12.002 62.7297
12.0468 66.0711
12.0917 75.9594
12.1366 98.2291
12.1814 147.518
12.2263 209.918
12.2712 175.515
12.3161 101.111
12.3609 71.6783
12.4058 64.6789
12.4507 63.7485
12.4956 63.7669
12.5405 64.1729
12.5853 65.3546
12.6302 74.4804
12.6751 81.5139
12.72 70.3742
12.7649 67.4061
12.8098 67.8483
12.8547 69.0234
12.8996 70.4321
12.9445 71.6326
12.9894 73.4532
13.0343 74.9152
13.0792 77.7427
13.1242 84.8864
13.1691 106.268
13.214 139.428
13.2589 225.764
13.3038 366.044
13.3487 433.75
13.3937 273.995
13.4386 126.721
13.4835 102.059
13.5285 114.383
13.5734 148.744
13.6183 236.723
13.6633 343.907
13.7082 346.6
13.7531 189.773
13.7981 98.432
13.843 81.2319
13.888 78.8726
13.9329 76.5218
13.9779 75.5267
14.0228 73.8573
14.0678 72.3346
14.1127 72.1657
14.1577 72.2384
14.2027 70.8865
14.2476 69.7411
14.2926 70.1058
14.3376 71.721
14.3825 70.0364
14.4275 68.2981
14.4725 68.0447
14.5175 68.3995
14.5624 68.5328
14.6074 71.1005
14.6524 71.7587
14.6974 70.007
14.7424 70.8821
14.7874 76.2149
14.8324 85.1861
14.8774 105.537
14.9224 147.266
14.9674 204.057
15.0124 222.076
15.0574 151.503
15.1024 91.9721
15.1474 72.028
15.1924 70.003
15.2374 71.0823
15.2824 70.5172
15.3274 68.0152
15.3725 66.4203
15.4175 65.7952
15.4625 65.6145
15.5076 65.8497
15.5526 65.7232
15.5976 65.2783
15.6426 65.8014
15.6877 70.1267
15.7327 76.7837
15.7778 90.9158
15.8228 120.748
15.8679 165.531
15.9129 193.984
15.958 158.107
16.003 98.5245
16.0481 68.4928
16.0931 65.0746
16.1382 63.0357
16.1833 60.5377
16.2283 58.8449
16.2734 58.0847
16.3185 58.7228
16.3636 59.7399
16.4086 57.9211
16.4537 55.9211
16.4988 55.104
16.5439 55.3907
16.589 54.9217
16.6341 54.5905
16.6792 54.2456
16.7243 54.5295
16.7694 54.7517
16.8145 54.5
16.8596 55.0024
16.9047 56.946
16.9498 57.0276
16.9949 55.3937
17.04 55.3441
17.0851 56.2285
17.1302 58.052
17.1754 60.5416
17.2205 65.6562
17.2656 73.5168
17.3108 83.0153
17.3559 82.9817
17.401 71.1884
17.4462 61.6564
17.4913 58.7935
17.5365 58.6867
17.5815 58.9442
17.6268 58.9746
17.6718 59.8283
17.7171 60.5721
17.7622 60.7829
17.8074 61.1132
17.8525 62.777
17.8977 66.5534
17.9428 71.8163
17.9881 80.0024
18.0331 96.545
18.0784 119.073
18.1237 138.96
18.1688 131.851
18.214 103.778
18.2591 85.7159
18.3044 88.921
18.3495 99.2064
18.3948 105.7
18.4399 96.5464
18.4852 77.9909
18.5303 65.7963
18.5756 61.7793
18.6207 60.8219
18.666 60.0039
18.7112 59.4597
18.7565 58.6517
18.8016 58.2571
18.8469 57.7847
18.892 57.2006
18.9374 56.6838
18.9825 56.6347
19.0278 56.703
19.073 56.5585
19.1183 57.1797
19.1635 57.8257
19.2088 58.6385
19.254 61.2294
19.2993 65.3741
19.3447 72.2041
19.3898 76.7502
19.4352 72.6762
19.4804 63.3323
19.5257 56.2728
19.5709 53.9461
19.6163 53.5352
19.6615 53.4004
19.7068 53.0959
19.752 52.8304
19.7974 53.0415
19.8426 53.8751
19.888 54.4391
19.9332 55.6541
19.9786 57.8064
20.0238 61.3034
20.0692 66.4045
20.1144 69.2814
20.1598 67.8765
20.205 63.0005
20.2504 61.3937
20.2957 63.2843
20.3411 65.4354
20.3863 64.1352
20.4318 58.5515
20.477 53.3865
20.5224 51.5273
20.5677 50.9211
20.6131 49.9346
20.6586 49.3349
20.7038 49.1922
20.7493 48.8526
20.7945 48.6955
20.84 48.6196
20.8853 48.2637
20.9307 48.0108
20.976 48.1184
21.0215 48.2265
21.0668 48.6069
21.1122 49.0421
21.1575 49.541
21.203 50.31
21.2483 51.1268
21.2938 51.0073
21.3391 49.5202
21.3846 48.653
21.4299 48.091
21.4754 48.027
21.5207 48.3012
21.5662 48.261
21.6116 48.5892
21.6571 49.2336
21.7024 50.0837
21.7479 51.9314
21.7933 54.3733
21.8388 58.0589
21.8843 61.8388
21.9297 64.2918
21.9752 63.1322
22.0206 59.0999
22.0661 56.2944
22.1115 55.629
22.157 55.6125
22.2024 54.1476
22.248 51.3264
22.2933 49.5611
22.3389 48.8373
22.3843 48.8163
22.4299 48.5409
22.4753 48.6181
22.5208 48.1923
22.5662 48.1237
22.6118 48.3341
22.6572 48.3696
22.7028 48.5839
22.7483 48.9888
22.7939 49.6842
22.8393 51.117
22.8849 53.4271
22.9303 55.4844
22.9759 57.5718
23.0214 57.2477
23.067 54.4149
23.1126 50.9851
23.1581 48.9086
23.2037 48.3739
23.2492 48.4222
23.2948 48.2253
23.3403 48.4955
23.3859 49.0424
23.4314 50.1063
23.477 51.8389
23.5225 54.3452
23.5682 56.4656
23.6137 57.7695
23.6593 55.5726
23.7048 51.55
23.7505 48.2516
23.796 46.3725
23.8417 45.7267
23.8872 45.2692
23.9329 44.8902
23.9784 44.693
24.0241 44.3866
24.0697 44.091
24.1154 43.8538
24.1609 43.7975
24.2066 43.5505
24.2522 43.4427
24.2979 43.2999
24.3434 43.1391
24.3892 42.8893
24.4349 42.7932
24.4805 42.7009
24.5262 42.7125
24.5718 42.7342
24.6175 42.6328
24.6631 42.5713
24.7089 42.2973
24.7545 42.2357
24.8002 42.0306
24.8458 41.8784
24.8916 41.7034
24.9372 41.8463
24.983 42.1135
25.0286 42.4566
25.0744 43.0809
25.12 43.4109
25.1658 43.9282
25.2114 44.368
25.2572 44.486
25.3029 44.6045
25.3487 44.812
25.3943 44.3885
25.4402 43.3554
25.4858 42.2126
25.5316 41.2233
25.5773 40.7283
25.6231 40.701
25.669 40.3207
25.7147 40.3159
25.7605 40.0822
25.8062 40.2387
25.8521 40.4234
25.8977 40.2729
25.9436 40.4134
25.9893 40.6599
26.0352 41.252
26.0809 41.2453
26.1268 41.4905
26.1725 41.2018
26.2184 40.5497
26.2641 40.1422
26.31 39.8943
26.3557 39.8679
26.4017 39.8027
26.4474 40.1399
26.4933 40.4561
26.5391 40.7966
26.585 41.406
26.6308 41.7027
26.6767 41.9697
26.7225 41.8148
26.7684 41.0542
26.8142 40.5533
26.8601 40.1542
26.9059 39.8951
26.9519 39.2215
26.9979 38.9322
27.0437 38.6161
27.0896 38.403
27.1354 38.5799
27.1814 38.4023
27.2272 38.3058
27.2732 38.2248
27.3191 38.1933
27.3651 38.1556
27.4109 38.1622
27.4569 38.3075
27.5027 38.1314
27.5488 38.3338
27.5946 38.089
27.6407 37.8902
27.6865 37.7875
27.7326 37.4897
27.7784 37.5988
27.8245 37.4782
27.8703 37.6825
27.9164 37.9262
27.9623 38.0967
28.0084 38.463
28.0543 38.7454
28.1003 38.8247
28.1462 38.6291
28.1923 38.2635
28.2384 37.7541
28.2843 37.4174
28.3304 36.9384
28.3764 36.5405
28.4225 36.2402
28.4684 36.0547
28.5145 35.6878
28.5605 35.6631
28.6066 35.4468
28.6526 35.3529
28.6987 35.3113
28.7447 35.2425
28.7908 35.2755
28.8368 35.2377
28.8829 35.217
28.9289 35.0711
28.9751 34.8803
29.0211 34.6379
29.0673 34.4484
29.1133 34.3729
29.1595 34.1869
29.2055 34.102
29.2517 34.2084
29.2977 34.1306
29.3439 34.0378
29.3899 34.0493
29.4361 33.9995
29.4824 33.7104
29.5284 33.5153
29.5746 33.2396
29.6207 33.0224
29.6669 32.9278
29.713 32.7188
29.7593 32.6643
29.8053 32.7474
29.8516 32.6309
29.8977 32.5327
29.9439 32.42
29.99 32.385
30.0363 32.2613
30.0824 32.2881
30.1287 32.1975
30.1748 32.1109
30.2211 32.1426
30.2673 32.0958
30.3136 32.1645
30.3597 32.0779
30.406 31.9807
30.4522 31.8244
30.4985 31.7846
30.5447 31.9704
30.591 31.8707
30.6372 31.9965
30.6835 31.9963
30.7297 32.0748
30.7761 31.9799
30.8224 31.8657
30.8686 31.699
30.915 31.4222
30.9612 31.3244
31.0076 31.0553
31.0538 30.9754
31.1002 30.9272
31.1464 30.8023
31.1928 30.7705
31.2391 30.8209
31.2855 30.7275
31.3317 30.636
31.3781 30.7824
31.4244 30.6689
31.4708 30.5991
31.5171 30.7112
31.5636 30.5977
31.6098 30.2785
31.6563 30.1404
31.7026 30.0137
31.7491 29.967
31.7953 30.057
31.8418 29.9705
31.8881 29.9552
31.9346 29.8714
31.9809 29.7894
32.0275 29.8231
32.074 29.6604
32.1203 29.4057
32.1668 29.3238
32.2132 29.1902
32.2597 29.1024
32.306 29.0286
32.3526 28.8316
32.399 28.715
32.4455 28.5487
32.4919 28.4724
32.5385 28.5582
32.5848 28.2384
32.6314 28.2858
32.6778 28.248
32.7244 28.1103
32.7708 27.9883
32.8174 27.9761
32.8638 27.8521
32.9104 27.928
32.9569 27.8539
33.0035 27.6652
33.0499 27.6468
33.0966 27.6878
33.143 27.5689
33.1897 27.5727
33.2361 27.4024
33.2828 27.4166
33.3293 27.2815
33.3759 27.2363
33.4226 27.0418
33.4691 26.9701
33.5158 26.8968
33.5623 26.7355
33.609 26.5903
33.6555 26.5964
33.7022 26.4373
33.7487 26.3064
33.7954 26.305
33.842 26.2264
33.8887 26.128
33.9353 26.0735
33.982 25.9751
34.0286 25.9473
34.0753 25.7913
34.1219 25.7684
34.1687 25.7317
34.2152 25.6337
34.262 25.5312
34.3086 25.378
34.3554 25.3771
34.402 25.2752
34.4488 25.1481
34.4954 25.1171
34.5422 25.0298
34.5889 24.8749
34.6357 24.8458
34.6825 24.8032
34.7292 24.7578
34.776 24.6504
34.8227 24.5833
34.8695 24.5023
34.9162 24.4294
34.9631 24.2528
35.0098 24.359
35.0566 24.2091
35.1033 24.2158
35.1502 24.1114
35.1969 24.0217
35.2438 24.0031
35.2906 24.0097
35.3375 23.9352
35.3842 23.8605
35.4311 23.8577
35.4779 23.8605
35.5248 23.7317
35.5716 23.5968
35.6185 23.5608
35.6653 23.4799
35.7123 23.4309
35.759 23.3673
35.806 23.2617
35.8528 23.073
35.8998 23.1381
35.9468 22.9486
35.9936 22.9482
36.0406 22.86
36.0874 22.8982
36.1345 22.7055
36.1813 22.721
36.2283 22.5509
36.2752 22.5241
36.3222 22.5154
36.3691 22.4253
36.4161 22.3186
36.463 22.3033
36.5101 22.3464
36.557 22.2116
36.6041 22.0794
36.651 22.0284
36.6981 21.9415
36.745 21.8964
36.7921 21.8788
36.839 21.7731
36.8861 21.6547
36.9331 21.6148
36.9802 21.5183
37.0272 21.4586
37.0743 21.3653
37.1213 21.3894
37.1684 21.2743
37.2154 21.3068
37.2626 21.1572
37.3098 21.0187
37.3568 21.0119
37.404 20.9895
37.451 20.8288
37.4982 20.8411
37.5452 20.6963
37.5924 20.7334
37.6395 20.7207
37.6867 20.6161
37.7337 20.4268
37.781 20.3114
37.8281 20.4356
37.8753 20.2764
37.9224 20.2074
37.9697 20.0853
38.0168 20.1263
38.064 20.014
38.1111 20.0158
38.1584 19.8939
38.2056 19.8624
38.2529 19.7868
38.3 19.6692
38.3473 19.6708
38.3945 19.5446
38.4418 19.5516
38.489 19.4763
38.5363 19.3931
38.5837 19.3343
38.6309 19.3234
38.6782 19.2172
38.7254 19.1356
38.7728 19.0938
38.82 19.0532
38.8674 18.9756
38.9146 18.9978
38.9621 18.8855
39.0093 18.8229
39.0567 18.7381
39.104 18.6139
39.1514 18.5703
39.1987 18.5621
39.2461 18.599
39.2934 18.5228
39.3409 18.3919
39.3882 18.2916
39.4356 18.2546
39.483 18.1958
39.5304 18.1073
39.5778 18.0848
39.6253 18.0196
39.6726 17.9832
39.7201 17.937
39.7675 17.9124
39.815 17.798
39.8624 17.7788
39.9099 17.7873
39.9575 17.6528
40.0049 17.6361
40.0525 17.5262
40.0999 17.571
40.1474 17.4295
40.1949 17.3574
40.2425 17.3121
40.2899 17.3017
40.3375 17.1241
40.385 17.161
40.4326 17.0836
40.48 17.0556
40.5277 16.9585
40.5752 16.9401
40.6228 16.8617
40.6703 16.8524
40.718 16.7779
40.7655 16.6995
40.8132 16.6817
40.8607 16.6801
40.9084 16.6145
40.9559 16.4888
41.0036 16.5082
41.0512 16.3546
41.0989 16.3969
41.1465 16.2938
41.1942 16.2427
41.242 16.1559
41.2896 16.1347
41.3373 16.0457
41.3849 16.0602
41.4327 16.0131
41.4803 15.8827
41.5281 15.8936
41.5758 15.8139
41.6236 15.8161
41.6712 15.7378
41.7191 15.6029
41.7667 15.6229
41.8146 15.5732
41.8622 15.5031
41.9101 15.4112
41.9578 15.3652
42.0057 15.3466
42.0534 15.3095
42.1013 15.2102
42.149 15.1899
42.1969 15.1482
42.2446 15.0834
42.2925 15.0403
42.3403 15.007
42.3882 14.9637
42.436 14.9557
42.4839 14.7552
42.5319 14.8435
42.5797 14.7626
42.6277 14.6777
42.6755 14.6422
42.7235 14.6218
42.7713 14.5722
42.8193 14.5238
42.8671 14.4538
42.9152 14.3893
42.963 14.3822
43.0111 14.2718
43.0589 14.2687
43.107 14.1685
43.1549 14.1785
43.2029 14.1533
43.2508 14.0465
43.2989 14.046
43.3468 13.8951
43.3949 13.9472
43.4429 13.8633
43.491 13.8042
43.5389 13.7759
43.5871 13.7458
43.635 13.6798
43.6832 13.6515
43.7312 13.5527
43.7793 13.5164
43.8273 13.4755
43.8755 13.4509
43.9237 13.3796
43.9717 13.3652
44.0199 13.2941
44.068 13.2934
44.1162 13.2157
44.1642 13.2061
44.2125 13.1421
44.2606 13.1102
44.3088 12.9857
44.3569 12.9698
44.4052 12.9527
44.4533 12.9246
44.5016 12.8398
44.5497 12.8022
44.598 12.8
44.6461 12.7302
44.6945 12.6736
44.7426 12.6093
44.791 12.5985
44.8391 12.5941
44.8875 12.5003
44.9357 12.469
44.984 12.4152
45.0322 12.3598
45.0806 12.2949
45.1288 12.2661
45.1773 12.2013
45.2257 12.2015
45.2739 12.1634
45.3224 12.0976
45.3706 12.0941
45.4191 12.0186
45.4673 11.9463
45.5158 11.9604
45.5641 11.9102
45.6126 11.8652
45.6609 11.7842
45.7094 11.7566
45.7577 11.7514
45.8063 11.6397
45.8546 11.6283
45.9031 11.6314
45.9515 11.5572
46.0001 11.5077
46.0484 11.4955
46.097 11.443
46.1454 11.4123
46.194 11.3425
46.2424 11.325
46.291 11.3062
46.3395 11.2032
46.3881 11.1644
46.4365 11.1856
46.4852 11.1215
46.5337 11.0887
46.5823 11.0577
46.631 10.9428
46.6795 10.9715
46.7282 10.9104
46.7767 10.8875
46.8254 10.8146
46.8739 10.7939
46.9226 10.7329
46.9712 10.6833
47.0199 10.6809
47.0685 10.5995
47.1173 10.6223
47.1658 10.5614
47.2146 10.5332
47.2632 10.4738
47.312 10.4421
47.3606 10.4328
47.4095 10.3432
47.4581 10.3039
47.5069 10.2862
47.5556 10.2179
47.6044 10.1811
47.6531 10.1507
47.702 10.0841
47.7507 10.0806
47.7996 10.05
47.8483 10.0248
47.8972 9.9834
47.9461 9.94753
47.9948 9.93448
48.0438 9.86236
48.0925 9.82694
48.1415 9.78834
48.1902 9.74228
48.2392 9.71164
48.288 9.68725
48.337 9.67466
48.3858 9.63718
48.4348 9.5812
48.4837 9.59332
48.5327 9.52236
48.5815 9.47357
48.6306 9.48668
48.6795 9.44492
48.7285 9.35404
48.7774 9.36037
48.8265 9.31498
48.8754 9.26326
48.9245 9.24506
48.9734 9.19189
49.0226 9.18386
49.0715 9.15423
49.1206 9.09307
49.1696 9.06068
49.2188 9.04144
49.2679 9.00216
49.3169 8.99198
49.3661 8.94219
49.4151 8.90085
49.4643 8.86163
49.5134 8.81425
49.5626 8.76743
49.6117 8.80271
49.6609 8.75149
49.71 8.64365
49.7592 8.63828
49.8083 8.61566
49.8576 8.61356
49.9067 8.57448
49.956 8.53239
50.0052 8.49004
50.0545 8.47359
50.1036 8.45503
50.153 8.43777
50.2022 8.33541
50.2515 8.33247
50.3007 8.29903
50.3501 8.27309
50.3993 8.22088
50.4487 8.23093
50.498 8.18606
50.5474 8.14713
50.5966 8.11554
50.6461 8.04748
50.6955 8.04862
50.7448 8.02237
50.7943 7.99254
50.8436 7.95234
50.8931 7.94543
50.9424 7.9209
50.9919 7.86866
51.0413 7.81827
51.0908 7.81779
51.1402 7.76987
51.1897 7.78029
51.2391 7.70788
51.2887 7.65589
51.3381 7.6157
51.3877 7.65348
51.4371 7.57475
51.4867 7.55863
51.5362 7.53335
51.5858 7.44384
51.6353 7.46735
51.6849 7.43593
51.7344 7.35
51.7841 7.39781
51.8336 7.3479
51.8833 7.28557
51.9328 7.26923
51.9826 7.23357
52.0323 7.21294
52.0818 7.1694
52.1316 7.14363
52.1812 7.15516
52.231 7.10025
52.2806 7.0594
52.3304 7.08532
52.38 7.02028
52.4298 6.97668
52.4794 6.94992
52.5293 6.92711
52.5789 6.85091
52.6288 6.89004
52.6785 6.81803
52.7284 6.79763
52.7781 6.75509
52.828 6.73967
52.8777 6.72934
52.9276 6.70706
52.9774 6.68708
53.0273 6.64544
53.0771 6.6282
53.1271 6.56729
53.1769 6.5648
53.2269 6.53589
53.2767 6.50126
53.3267 6.48511
53.3765 6.45015
53.4266 6.45639
53.4766 6.37879
53.5265 6.35909
53.5765 6.35046
53.6264 6.32007
53.6765 6.2742
53.7264 6.25893
53.7765 6.23639
53.8265 6.1951
53.8766 6.1302
53.9266 6.12595
53.9767 6.13432
54.0267 6.06513
54.0769 6.04688
54.1269 6.00351
54.1771 5.98593
54.2271 5.96579
54.2773 5.92886
54.3274 5.90154
54.3776 5.84538
54.4277 5.84898
54.478 5.80117
54.528 5.78464
54.5783 5.7507
54.6285 5.69036
54.6788 5.66696
54.7289 5.62223
54.7792 5.61209
54.8296 5.55267
54.8798 5.48132
54.9301 5.45811
54.9803 5.45071
55.0307 5.41159
55.0809 5.37328
55.1314 5.37076
55.1816 5.25108
55.232 5.21788
55.2823 5.20301
55.3328 5.1616
55.383 5.05476
55.4335 5.03222
55.4838 4.94673
55.5344 4.95668
55.5847 4.93482
55.6352 4.85684
55.6856 4.87551
55.7361 4.79617