File: XRD/Ni3Fe_FD0814.xy
TT I
1.27165 7.42244
1.31627 6.76853
1.36089 6.7775
1.40551 6.69196
1.45013 5.76334
1.49476 5.60028
1.53938 5.77288
1.584 5.63484
1.62863 5.84249
1.67325 4.70493
1.71787 4.69252
1.7625 4.76145
1.80712 4.78022
1.85174 4.69665
1.89636 4.77935
1.94099 4.60279
1.98562 4.57438
2.03025 4.65932
2.07487 4.89426
2.11949 4.26607
2.16411 4.80403
2.20874 8.83005
2.25338 11.6657
2.298 6.02315
2.34263 5.27824
2.38725 5.75956
2.43188 6.87663
2.4765 7.36167
2.52115 7.59083
2.56577 8.06748
2.6104 8.8916
2.65503 7.8555
2.69965 8.45394
2.7443 8.60178
2.78893 7.97422
2.83356 8.12206
2.87818 9.07332
2.92281 9.58014
2.96744 9.94493
3.01209 10.4979
3.05672 11.2117
3.10135 12.0032
3.14599 12.9405
3.19062 13.9676
3.23527 15.0958
3.2799 15.7868
3.32454 16.5498
3.36917 17.7341
3.4138 18.2078
3.45844 19.1399
3.50309 20.2576
3.54773 21.3604
3.59237 23.1544
3.637 49.6217
3.68164 37.1813
3.7263 25.3817
3.77094 25.4903
3.81558 26.3867
3.86022 26.7797
3.90486 28.3837
3.9495 29.5651
3.99416 30.7734
4.0388 31.6286
4.08344 33.2303
4.12809 34.3601
4.17273 35.6917
4.21738 39.3125
4.26204 121.643
4.30669 108.193
4.35133 43.918
4.39598 43.3035
4.44063 48.0184
4.4853 53.9462
4.52995 56.327
4.5746 57.1774
4.61925 53.2729
4.6639 55.3265
4.70855 57.7798
4.75322 61.3509
4.79788 67.755
4.84253 67.8444
4.88719 74.4898
4.93184 76.1644
4.97652 80.8003
5.02118 86.4296
5.06583 93.9712
5.11049 105.292
5.15515 155.762
5.19981 396.745
5.24449 2849.68
5.28916 12510.1
5.33382 2465.95
5.37848 190.277
5.42315 129.088
5.46783 118.441
5.5125 112.188
5.55716 101.412
5.60183 97.455
5.6465 95.7305
5.69117 93.7526
5.73586 92.2538
5.78053 97.6085
5.8252 97.7052
5.86988 100.333
5.91455 94.1694
5.95924 103.674
6.00392 238.921
6.0486 965.621
6.09328 4593.02
6.13795 2995.01
6.18263 207.361
6.22733 89.3828
6.27201 79.5195
6.3167 84.253
6.36138 74.1187
6.40606 69.5252
6.45075 69.0311
6.49545 64.8785
6.54014 62.6904
6.58483 62.1136
6.62952 62.3992
6.67421 73.0365
6.71892 89.95
6.76361 61.4875
6.8083 58.9933
6.853 59.2464
6.89769 56.4553
6.94239 55.8293
6.98711 55.2048
7.03181 55.1918
7.07651 54.5536
7.12121 54.2575
7.16591 55.7051
7.21063 55.1454
7.25533 60.1275
7.30004 101.348
7.34475 68.4761
7.38945 54.3181
7.43416 53.2647
7.47889 53.2246
7.5236 53.9425
7.56831 54.585
7.61303 54.9682
7.65774 55.5776
7.70247 56.184
7.74719 55.9248
7.79191 55.5785
7.83663 56.1388
7.88135 57.122
7.92607 57.8722
7.97081 58.9565
8.01553 60.5092
8.06026 61.9239
8.10498 63.697
8.14971 70.5571
8.19446 70.6928
8.23919 68.6897
8.28392 70.9823
8.32865 73.3823
8.37339 77.7687
8.41812 82.9242
8.46288 102.683
8.50761 176.571
8.55235 379.773
8.59709 1215.4
8.64183 2186.38
8.68658 845.951
8.73134 147.57
8.77609 96.7449
8.82083 91.5648
8.86558 92.0073
8.91033 91.2102
8.9551 89.3149
8.99985 84.7663
9.04461 83.0575
9.08936 83.3852
9.13412 82.2329
9.17888 81.5375
9.22365 81.5307
9.26841 81.4012
9.31318 83.9437
9.35794 85.7336
9.4027 85.0746
9.44749 84.8952
9.49226 84.3177
9.53703 85.1356
9.5818 88.781
9.62657 93.8878
9.67134 94.8781
9.71614 91.7473
9.76091 94.0274
9.80569 98.7266
9.85047 101.161
9.89525 111.448
9.94005 126.513
9.98484 189.153
10.0296 341.824
10.0744 834.847
10.1192 1824.17
10.164 1517.73
10.2088 346.082
10.2536 120.417
10.2984 108.556
10.3432 107.726
10.388 104.052
10.4328 121.186
10.4776 162.285
10.5224 293.83
10.5672 536.542
10.612 488.571
10.6568 184.262
10.7017 93.443
10.7465 85.2944
10.7913 82.4005
10.8361 80.1073
10.8809 78.0788
10.9257 77.105
10.9706 77.641
11.0154 74.6869
11.0602 72.2703
11.105 70.9409
11.1499 71.6197
11.1947 73.7039
11.2395 69.7952
11.2844 68.0873
11.3292 66.2652
11.374 65.5825
11.4189 64.3883
11.4637 64.0721
11.5086 64.0805
11.5534 64.8517
11.5983 63.7431
11.6431 62.8245
11.688 62.3887
11.7328 62.0186
11.7777 62.0228
11.8225 62.139
11.8674 61.939
11.9122 62.0514
11.9571 62.2099
12.002 63.7368
12.0468 68.0536
12.0917 77.9992
12.1366 102.686
12.1814 159.915
12.2263 216.662
12.2712 165.39
12.3161 87.2251
12.3609 66.1267
12.4058 63.6641
12.4507 63.6415
12.4956 63.8371
12.5405 64.2525
12.5853 64.429
12.6302 67.8868
12.6751 70.1151
12.72 67.2365
12.7649 67.1092
12.8098 67.6956
12.8547 69.336
12.8996 70.7776
12.9445 72.3794
12.9894 73.7327
13.0343 75.1897
13.0792 79.9643
13.1242 92.048
13.1691 110.92
13.214 148.771
13.2589 247.758
13.3038 391.881
13.3487 413.339
13.3937 236.183
13.4386 117.989
13.4835 105.793
13.5285 119.593
13.5734 160.769
13.6183 257.925
13.6633 363.265
13.7082 329.255
13.7531 170.67
13.7981 92.9046
13.843 80.941
13.888 78.8491
13.9329 76.2981
13.9779 74.8685
14.0228 73.8504
14.0678 72.2729
14.1127 71.5513
14.1577 71.0559
14.2027 70.4678
14.2476 69.7372
14.2926 69.3761
14.3376 69.7487
14.3825 69.1059
14.4275 68.3545
14.4725 68.0097
14.5175 68.31
14.5624 68.2889
14.6074 69.3422
14.6524 69.9003
14.6974 69.9711
14.7424 73.0969
14.7874 79.1086
14.8324 88.417
14.8774 111.686
14.9224 160.06
14.9674 218.346
15.0124 220.101
15.0574 140.993
15.1024 86.03
15.1474 70.9351
15.1924 69.0088
15.2374 68.8473
15.2824 68.053
15.3274 66.86
15.3725 66.2579
15.4175 65.5992
15.4625 65.2114
15.5076 65.0482
15.5526 65.1402
15.5976 65.284
15.6426 67.5906
15.6877 72.5804
15.7327 79.3226
15.7778 95.2789
15.8228 129.985
15.8679 176.721
15.9129 197.146
15.958 146.341
16.003 88.6479
16.0481 65.3983
16.0931 62.3825
16.1382 60.8734
16.1833 59.3241
16.2283 58.212
16.2734 57.4705
16.3185 57.1537
16.3636 57.2477
16.4086 56.1134
16.4537 55.2078
16.4988 54.7563
16.5439 54.8503
16.589 54.5324
16.6341 54.3876
16.6792 53.7208
16.7243 54.1613
16.7694 54.1053
16.8145 54.0106
16.8596 54.2768
16.9047 54.8929
16.9498 55.2013
16.9949 54.7656
17.04 55.3312
17.0851 56.5698
17.1302 57.9259
17.1754 61.1526
17.2205 66.7919
17.2656 75.1005
17.3108 83.9262
17.3559 80.9802
17.401 68.5318
17.4462 60.6411
17.4913 58.3897
17.5365 58.4175
17.5815 58.7755
17.6268 58.9856
17.6718 59.7487
17.7171 60.0124
17.7622 60.7078
17.8074 61.6734
17.8525 64.5733
17.8977 67.8002
17.9428 73.2002
17.9881 82.4281
18.0331 101.671
18.0784 125.313
18.1237 140.938
18.1688 126.518
18.214 98.7779
18.2591 84.4472
18.3044 91.0029
18.3495 101.876
18.3948 105.097
18.4399 91.7422
18.4852 74.0157
18.5303 64.2649
18.5756 61.3074
18.6207 60.7056
18.666 59.5333
18.7112 59.0888
18.7565 58.237
18.8016 58.1119
18.8469 57.4975
18.892 57.027
18.9374 56.5869
18.9825 56.2609
19.0278 56.1694
19.073 56.4649
19.1183 56.7337
19.1635 57.1034
19.2088 58.6095
19.254 61.7264
19.2993 66.8088
19.3447 72.6751
19.3898 75.6824
19.4352 70.0845
19.4804 61.0558
19.5257 55.4128
19.5709 53.4501
19.6163 53.2643
19.6615 53.1662
19.7068 52.7223
19.752 53.033
19.7974 53.0495
19.8426 53.7832
19.888 54.3547
19.9332 55.6725
19.9786 58.5926
20.0238 62.4896
20.0692 67.8552
20.1144 69.6772
20.1598 66.8987
20.205 62.3685
20.2504 61.7916
20.2957 63.9337
20.3411 65.1026
20.3863 62.5452
20.4318 56.5663
20.477 52.367
20.5224 50.5223
20.5677 50.0654
20.6131 49.518
20.6586 48.9959
20.7038 48.8251
20.7493 48.5674
20.7945 48.3175
20.84 48.3613
20.8853 48.2387
20.9307 48.1614
20.976 48.2711
21.0215 48.06
21.0668 48.3338
21.1122 49.0375
21.1575 49.5906
21.203 50.48
21.2483 51.0472
21.2938 50.7926
21.3391 49.3553
21.3846 48.2826
21.4299 47.8492
21.4754 47.8332
21.5207 48.1269
21.5662 48.6814
21.6116 49.028
21.6571 49.3944
21.7024 50.2954
21.7479 52.1489
21.7933 55.2452
21.8388 59.1355
21.8843 62.8844
21.9297 64.1217
21.9752 61.9509
22.0206 57.9543
22.0661 55.7621
22.1115 55.7727
22.157 55.4324
22.2024 53.2529
22.248 50.6322
22.2933 49.1486
22.3389 48.4642
22.3843 48.2895
22.4299 48.2416
22.4753 48.2226
22.5208 48.1407
22.5662 48.1241
22.6118 48.3525
22.6572 48.4579
22.7028 48.6981
22.7483 49.3627
22.7939 49.9017
22.8393 51.6702
22.8849 54.0044
22.9303 56.165
22.9759 57.3802
23.0214 56.469
23.067 53.363
23.1126 50.1773
23.1581 48.4534
23.2037 48.2456
23.2492 48.304
23.2948 48.336
23.3403 48.6733
23.3859 49.1035
23.4314 50.4277
23.477 52.5585
23.5225 54.8206
23.5682 57.1471
23.6137 57.5153
23.6593 54.5447
23.7048 50.3425
23.7505 47.2382
23.796 45.9978
23.8417 45.5934
23.8872 45.0061
23.9329 44.7286
23.9784 44.4025
24.0241 44.0992
24.0697 44.0194
24.1154 43.5542
24.1609 43.5456
24.2066 43.3969
24.2522 43.094
24.2979 42.8697
24.3434 42.6533
24.3892 42.721
24.4349 42.6261
24.4805 42.3999
24.5262 42.604
24.5718 42.582
24.6175 42.5388
24.6631 42.4609
24.7089 41.9581
24.7545 41.962
24.8002 41.7039
24.8458 41.7909
24.8916 41.6729
24.9372 41.8196
24.983 42.1567
25.0286 42.4498
25.0744 42.9052
25.12 43.4311
25.1658 44.0671
25.2114 44.1117
25.2572 44.357
25.3029 44.4002
25.3487 44.5537
25.3943 44.1455
25.4402 42.8776
25.4858 41.66
25.5316 40.835
25.5773 40.5627
25.6231 40.4028
25.669 39.8581
25.7147 40.0864
25.7605 40.0528
25.8062 40.0648
25.8521 40.193
25.8977 40.1876
25.9436 40.5592
25.9893 40.598
26.0352 41.2026
26.0809 41.3513
26.1268 41.3107
26.1725 40.9557
26.2184 40.3244
26.2641 39.8836
26.31 39.5845
26.3557 39.6496
26.4017 39.6477
26.4474 40.0302
26.4933 40.3225
26.5391 40.8727
26.585 41.4376
26.6308 41.7812
26.6767 41.7169
26.7225 41.5062
26.7684 40.9338
26.8142 40.4263
26.8601 39.9522
26.9059 39.5656
26.9519 39.0088
26.9979 38.7121
27.0437 38.4042
27.0896 38.3634
27.1354 38.4514
27.1814 38.2403
27.2272 38.0536
27.2732 38.0477
27.3191 37.9515
27.3651 38.0417
27.4109 37.9271
27.4569 38.091
27.5027 38.2153
27.5488 38.0988
27.5946 37.9382
27.6407 37.7884
27.6865 37.6857
27.7326 37.4157
27.7784 37.4954
27.8245 37.4127
27.8703 37.68
27.9164 37.8946
27.9623 37.9665
28.0084 38.5017
28.0543 38.9011
28.1003 38.6876
28.1462 38.4169
28.1923 37.889
28.2384 37.589
28.2843 37.1491
28.3304 36.7013
28.3764 36.1788
28.4225 35.9079
28.4684 35.8884
28.5145 35.6485
28.5605 35.588
28.6066 35.3143
28.6526 35.3808
28.6987 35.1689
28.7447 35.2039
28.7908 35.1052
28.8368 35.1458
28.8829 34.9771
28.9289 34.9588
28.9751 34.7626
29.0211 34.491
29.0673 34.2254
29.1133 34.2082
29.1595 33.9425
29.2055 33.9317
29.2517 33.9782
29.2977 33.907
29.3439 33.9032
29.3899 33.7484
29.4361 33.8172
29.4824 33.5769
29.5284 33.4079
29.5746 33.0264
29.6207 32.7772
29.6669 32.6538
29.713 32.5889
29.7593 32.5723
29.8053 32.5218
29.8516 32.5234
29.8977 32.3551
29.9439 32.2963
29.99 32.1504
30.0363 32.1035
30.0824 32.3318
30.1287 32.1158
30.1748 32.0739
30.2211 32.0781
30.2673 31.9902
30.3136 31.9289
30.3597 31.9438
30.406 31.8543
30.4522 31.7255
30.4985 31.773
30.5447 31.8569
30.591 31.8008
30.6372 31.8508
30.6835 31.8504
30.7297 31.8804
30.7761 31.7518
30.8224 31.6228
30.8686 31.522
30.915 31.2485
30.9612 31.1271
31.0076 30.9168
31.0538 30.8879
31.1002 30.7357
31.1464 30.5935
31.1928 30.6609
31.2391 30.6324
31.2855 30.5901
31.3317 30.4889
31.3781 30.5961
31.4244 30.5844
31.4708 30.4516
31.5171 30.4832
31.5636 30.4786
31.6098 30.0989
31.6563 29.9858
31.7026 29.8344
31.7491 29.8546
31.7953 29.8263
31.8418 29.8785
31.8881 29.8332
31.9346 29.7312
31.9809 29.7294
32.0275 29.5329
32.074 29.4368
32.1203 29.2629
32.1668 29.12
32.2132 29.0616
32.2597 28.9608
32.306 28.8617
32.3526 28.6861
32.399 28.6094
32.4455 28.5083
32.4919 28.4027
32.5385 28.3506
32.5848 28.2287
32.6314 28.1238
32.6778 28.216
32.7244 27.8696
32.7708 27.8543
32.8174 27.898
32.8638 27.7134
32.9104 27.8079
32.9569 27.661
33.0035 27.5577
33.0499 27.5834
33.0966 27.5205
33.143 27.4962
33.1897 27.3864
33.2361 27.3272
33.2828 27.2289
33.3293 27.0971
33.3759 27.1183
33.4226 26.9077
33.4691 26.8465
33.5158 26.7181
33.5623 26.6514
33.609 26.4654
33.6555 26.446
33.7022 26.2873
33.7487 26.1611
33.7954 26.1703
33.842 26.1318
33.8887 25.9961
33.9353 25.9595
33.982 25.8332
34.0286 25.7632
34.0753 25.6241
34.1219 25.5991
34.1687 25.5178
34.2152 25.5252
34.262 25.3864
34.3086 25.3811
34.3554 25.2133
34.402 25.2016
34.4488 25.0392
34.4954 25.0085
34.5422 24.8476
34.5889 24.7112
34.6357 24.7444
34.6825 24.6813
34.7292 24.5362
34.776 24.5116
34.8227 24.5333
34.8695 24.4222
34.9162 24.3198
34.9631 24.2594
35.0098 24.2897
35.0566 24.0409
35.1033 24.05
35.1502 23.9478
35.1969 23.9661
35.2438 23.85
35.2906 23.8955
35.3375 23.7693
35.3842 23.7169
35.4311 23.6958
35.4779 23.6223
35.5248 23.6621
35.5716 23.5783
35.6185 23.4288
35.6653 23.367
35.7123 23.3181
35.759 23.3024
35.806 23.1095
35.8528 23.0268
35.8998 22.9634
35.9468 22.8497
35.9936 22.9049
36.0406 22.8247
36.0874 22.7645
36.1345 22.6871
36.1813 22.5922
36.2283 22.4731
36.2752 22.351
36.3222 22.4675
36.3691 22.3748
36.4161 22.1993
36.463 22.2325
36.5101 22.2096
36.557 22.0704
36.6041 21.9654
36.651 21.9431
36.6981 21.8608
36.745 21.8242
36.7921 21.716
36.839 21.6189
36.8861 21.569
36.9331 21.4949
36.9802 21.4575
37.0272 21.3423
37.0743 21.2776
37.1213 21.2665
37.1684 21.1823
37.2154 21.085
37.2626 21.0588
37.3098 20.9935
37.3568 20.8406
37.404 20.799
37.451 20.7439
37.4982 20.71
37.5452 20.6775
37.5924 20.5073
37.6395 20.6145
37.6867 20.4692
37.7337 20.3879
37.781 20.3056
37.8281 20.2293
37.8753 20.1766
37.9224 20.0891
37.9697 20.0135
38.0168 20.014
38.064 19.9126
38.1111 19.8515
38.1584 19.8047
38.2056 19.7835
38.2529 19.7546
38.3 19.5694
38.3473 19.6325
38.3945 19.456
38.4418 19.4594
38.489 19.4165
38.5363 19.2834
38.5837 19.2276
38.6309 19.1998
38.6782 19.1712
38.7254 19.0863
38.7728 18.995
38.82 18.9173
38.8674 18.9314
38.9146 18.8951
38.9621 18.7585
39.0093 18.7719
39.0567 18.5876
39.104 18.5489
39.1514 18.474
39.1987 18.491
39.2461 18.4288
39.2934 18.411
39.3409 18.3018
39.3882 18.186
39.4356 18.1942
39.483 18.0748
39.5304 18.0721
39.5778 18.0282
39.6253 17.992
39.6726 17.8557
39.7201 17.9273
39.7675 17.873
39.815 17.7736
39.8624 17.6801
39.9099 17.6788
39.9575 17.5568
40.0049 17.4769
40.0525 17.4017
40.0999 17.38
40.1474 17.3541
40.1949 17.268
40.2425 17.1153
40.2899 17.1692
40.3375 17.1093
40.385 17.0413
40.4326 16.9965
40.48 16.8875
40.5277 16.9021
40.5752 16.8233
40.6228 16.7749
40.6703 16.7595
40.718 16.671
40.7655 16.6511
40.8132 16.5659
40.8607 16.5922
40.9084 16.4905
40.9559 16.4601
41.0036 16.4044
41.0512 16.3163
41.0989 16.2603
41.1465 16.2756
41.1942 16.1641
41.242 16.087
41.2896 16.031
41.3373 16.0182
41.3849 15.9443
41.4327 15.9242
41.4803 15.8016
41.5281 15.7702
41.5758 15.6901
41.6236 15.6468
41.6712 15.5742
41.7191 15.5729
41.7667 15.5356
41.8146 15.4187
41.8622 15.3929
41.9101 15.394
41.9578 15.2899
42.0057 15.2238
42.0534 15.2028
42.1013 15.1878
42.149 15.0746
42.1969 14.9823
42.2446 15.0095
42.2925 14.9661
42.3403 14.934
42.3882 14.8715
42.436 14.857
42.4839 14.7195
42.5319 14.7173
42.5797 14.6472
42.6277 14.6229
42.6755 14.5629
42.7235 14.4578
42.7713 14.4675
42.8193 14.4417
42.8671 14.3451
42.9152 14.3322
42.963 14.2914
43.0111 14.2127
43.0589 14.2122
43.107 14.1094
43.1549 14.0597
43.2029 14.0129
43.2508 13.9653
43.2989 13.9
43.3468 13.84
43.3949 13.7889
43.4429 13.8063
43.491 13.712
43.5389 13.6962
43.5871 13.6435
43.635 13.5975
43.6832 13.5515
43.7312 13.5199
43.7793 13.4104
43.8273 13.4268
43.8755 13.3329
43.9237 13.3121
43.9717 13.3122
44.0199 13.238
44.068 13.17
44.1162 13.1049
44.1642 13.0655
44.2125 12.9948
44.2606 12.9942
44.3088 12.9148
44.3569 12.8603
44.4052 12.9176
44.4533 12.818
44.5016 12.7125
44.5497 12.7227
44.598 12.7074
44.6461 12.6552
44.6945 12.5893
44.7426 12.5628
44.791 12.4937
44.8391 12.4826
44.8875 12.4423
44.9357 12.3917
44.984 12.2723
45.0322 12.2727
45.0806 12.2618
45.1288 12.2365
45.1773 12.159
45.2257 12.1093
45.2739 12.0431
45.3224 12.0406
45.3706 11.9701
45.4191 11.9355
45.4673 11.9061
45.5158 11.8614
45.5641 11.8292
45.6126 11.7725
45.6609 11.7069
45.7094 11.6739
45.7577 11.6144
45.8063 11.58
45.8546 11.581
45.9031 11.5435
45.9515 11.4396
46.0001 11.4206
46.0484 11.3435
46.097 11.3868
46.1454 11.3069
46.194 11.2926
46.2424 11.2156
46.291 11.1931
46.3395 11.1835
46.3881 11.1164
46.4365 11.1115
46.4852 11.0497
46.5337 10.9918
46.5823 10.9449
46.631 10.8912
46.6795 10.8635
46.7282 10.8093
46.7767 10.8029
46.8254 10.7368
46.8739 10.6815
46.9226 10.6686
46.9712 10.6327
47.0199 10.5803
47.0685 10.5559
47.1173 10.5106
47.1658 10.4894
47.2146 10.4028
47.2632 10.402
47.312 10.3523
47.3606 10.3185
47.4095 10.3036
47.4581 10.2812
47.5069 10.199
47.5556 10.1536
47.6044 10.1344
47.6531 10.1013
47.702 10.0589
47.7507 9.99621
47.7996 9.93587
47.8483 9.95592
47.8972 9.95675
47.9461 9.90264
47.9948 9.82088
48.0438 9.79749
48.0925 9.79535
48.1415 9.73487
48.1902 9.7065
48.2392 9.65642
48.288 9.65612
48.337 9.58022
48.3858 9.52541
48.4348 9.51901
48.4837 9.50191
48.5327 9.50844
48.5815 9.43193
48.6306 9.40061
48.6795 9.32737
48.7285 9.3142
48.7774 9.3108
48.8265 9.27621
48.8754 9.20668
48.9245 9.17912
48.9734 9.13794
49.0226 9.10683
49.0715 9.08924
49.1206 9.08164
49.1696 8.99384
49.2188 8.97288
49.2679 8.94382
49.3169 8.87627
49.3661 8.85525
49.4151 8.82027
49.4643 8.81893
49.5134 8.76213
49.5626 8.68873
49.6117 8.68537
49.6609 8.67694
49.71 8.62613
49.7592 8.59514
49.8083 8.56145
49.8576 8.5456
49.9067 8.46826
49.956 8.48905
50.0052 8.4462
50.0545 8.42252
50.1036 8.36085
50.153 8.37563
50.2022 8.28749
50.2515 8.31293
50.3007 8.21593
50.3501 8.17317
50.3993 8.19738
50.4487 8.14186
50.498 8.13568
50.5474 8.07127
50.5966 8.06236
50.6461 8.02119
50.6955 8.00403
50.7448 8.02228
50.7943 7.92914
50.8436 7.93186
50.8931 7.88999
50.9424 7.84384
50.9919 7.80427
51.0413 7.75261
51.0908 7.76617
51.1402 7.72495
51.1897 7.6863
51.2391 7.62648
51.2887 7.64137
51.3381 7.571
51.3877 7.56613
51.4371 7.54092
51.4867 7.4955
51.5362 7.47062
51.5858 7.44241
51.6353 7.39162
51.6849 7.36375
51.7344 7.35546
51.7841 7.32535
51.8336 7.28027
51.8833 7.30122
51.9328 7.22282
51.9826 7.1537
52.0323 7.14145
52.0818 7.16197
52.1316 7.09899
52.1812 7.09182
52.231 7.06474
52.2806 6.99348
52.3304 6.99238
52.38 6.97611
52.4298 6.93086
52.4794 6.87662
52.5293 6.84035
52.5789 6.84704
52.6288 6.82684
52.6785 6.75936
52.7284 6.72351
52.7781 6.75051
52.828 6.70856
52.8777 6.66616
52.9276 6.67978
52.9774 6.60977
53.0273 6.61998
53.0771 6.59801
53.1271 6.55803
53.1769 6.51015
53.2269 6.47878
53.2767 6.46249
53.3267 6.43158
53.3765 6.43755
53.4266 6.36468
53.4766 6.36445
53.5265 6.31156
53.5765 6.28847
53.6264 6.26337
53.6765 6.2305
53.7264 6.20539
53.7765 6.18495
53.8265 6.18136
53.8766 6.1369
53.9266 6.09231
53.9767 6.10165
54.0267 6.05525
54.0769 6.02594
54.1269 5.99249
54.1771 5.99559
54.2271 5.89509
54.2773 5.87968
54.3274 5.89249
54.3776 5.84744
54.4277 5.77949
54.478 5.76103
54.528 5.75627
54.5783 5.69269
54.6285 5.69111
54.6788 5.58922
54.7289 5.61061
54.7792 5.56029
54.8296 5.49198
54.8798 5.42491
54.9301 5.39901
54.9803 5.39508
55.0307 5.41069
55.0809 5.2769
55.1314 5.3
55.1816 5.22369
55.232 5.15431
55.2823 5.16891
55.3328 5.1106
55.383 5.04134
55.4335 5.04097
55.4838 4.91999
55.5344 4.91243
55.5847 4.80858
55.6352 4.87537
55.6856 4.79975
55.7361 4.76576