File: XRD/Ni3Fe_FD0990.xy
TT I
1.27165 7.45298
1.31627 6.43144
1.36089 6.47448
1.40551 5.24316
1.45013 6.31837
1.49476 5.82771
1.53938 6.18152
1.584 5.67435
1.62863 4.7287
1.67325 5.11782
1.71787 4.99353
1.7625 4.87054
1.80712 4.63841
1.85174 4.98884
1.89636 4.6715
1.94099 4.3121
1.98562 4.35774
2.03025 4.82878
2.07487 4.30465
2.11949 5.24717
2.16411 4.63908
2.20874 15.7725
2.25338 25.4091
2.298 6.42005
2.34263 5.46501
2.38725 5.74304
2.43188 6.42447
2.4765 6.79494
2.52115 7.51168
2.56577 8.06905
2.6104 8.9579
2.65503 7.83049
2.69965 8.24348
2.7443 8.34405
2.78893 8.56533
2.83356 9.24364
2.87818 9.34156
2.92281 9.22491
2.96744 10.1662
3.01209 10.2681
3.05672 10.9493
3.10135 12.6807
3.14599 13.6567
3.19062 14.9574
3.23527 15.3977
3.2799 16.0818
3.32454 17.073
3.36917 17.8306
3.4138 18.9396
3.45844 19.9068
3.50309 20.4307
3.54773 21.3898
3.59237 24.3376
3.637 101.36
3.68164 63.8561
3.7263 26.6054
3.77094 26.2866
3.81558 26.3632
3.86022 27.4817
3.90486 28.8493
3.9495 29.7147
3.99416 30.5411
4.0388 31.8731
4.08344 33.522
4.12809 35.1534
4.17273 37.0266
4.21738 43.3475
4.26204 278.965
4.30669 242.367
4.35133 48.5505
4.39598 44.2246
4.44063 54.4814
4.4853 67.7906
4.52995 49.8365
4.5746 50.4682
4.61925 52.4584
4.6639 54.6822
4.70855 57.3913
4.75322 59.8228
4.79788 62.5569
4.84253 65.4681
4.88719 69.7308
4.93184 72.9005
4.97652 78.1271
5.02118 84.0232
5.06583 90.9895
5.11049 100.931
5.15515 168.567
5.19981 271.359
5.24449 2234.31
5.28916 13629.5
5.33382 2760.46
5.37848 172.961
5.42315 124.159
5.46783 109.722
5.5125 103.123
5.55716 99.366
5.60183 95.8251
5.6465 94.8659
5.69117 91.7937
5.73586 90.1954
5.78053 89.421
5.8252 87.8886
5.86988 88.9304
5.91455 90.205
5.95924 94.9735
6.00392 164.131
6.0486 767.97
6.09328 4576.83
6.13795 3293.72
6.18263 210.314
6.22733 89.542
6.27201 81.2408
6.3167 104.003
6.36138 80.1893
6.40606 67.9995
6.45075 66.3926
6.49545 64.4441
6.54014 63.0799
6.58483 61.959
6.62952 62.0603
6.67421 97.9958
6.71892 153.784
6.76361 69.1004
6.8083 58.2334
6.853 56.6712
6.89769 55.8599
6.94239 56.2879
6.98711 54.8725
7.03181 54.9678
7.07651 54.76
7.12121 54.4018
7.16591 54.9176
7.21063 55.2478
7.25533 72.9292
7.30004 193.812
7.34475 96.0379
7.38945 56.1229
7.43416 54.0008
7.47889 53.9443
7.5236 54.1485
7.56831 54.8274
7.61303 56.6631
7.65774 56.8288
7.70247 55.4647
7.74719 55.334
7.79191 56.3555
7.83663 56.0337
7.88135 56.8515
7.92607 57.5927
7.97081 59.006
8.01553 59.5744
8.06026 61.4047
8.10498 63.106
8.14971 73.4018
8.19446 72.057
8.23919 68.4129
8.28392 70.7622
8.32865 72.2636
8.37339 76.5004
8.41812 83.1446
8.46288 113.1
8.50761 139.699
8.55235 316.59
8.59709 1118.5
8.64183 2313.82
8.68658 921.498
8.73134 157.565
8.77609 96.5541
8.82083 90.3606
8.86558 87.6709
8.91033 88.241
8.9551 90.757
8.99985 83.7924
9.04461 82.1448
9.08936 81.2495
9.13412 80.2121
9.17888 80.6874
9.22365 81.1572
9.26841 80.5211
9.31318 80.8999
9.35794 81.3419
9.4027 81.4262
9.44749 82.0795
9.49226 82.612
9.53703 83.7584
9.5818 85.7257
9.62657 90.4005
9.67134 97.9515
9.71614 91.7661
9.76091 91.9659
9.80569 94.1934
9.85047 97.8091
9.89525 123.809
9.94005 134.703
9.98484 151.852
10.0296 288.308
10.0744 738.611
10.1192 1769.59
10.164 1557.36
10.2088 363.719
10.2536 122.05
10.2984 111.468
10.3432 113.633
10.388 102.079
10.4328 109.852
10.4776 143.845
10.5224 266.566
10.5672 535.509
10.612 511.659
10.6568 196.248
10.7017 94.4519
10.7465 84.5677
10.7913 81.1919
10.8361 79.5315
10.8809 77.7905
10.9257 77.3247
10.9706 77.7887
11.0154 73.5312
11.0602 71.6468
11.105 70.4024
11.1499 75.6914
11.1947 84.2136
11.2395 74.1793
11.2844 69.6563
11.3292 66.3048
11.374 65.1329
11.4189 64.3349
11.4637 63.8916
11.5086 64.3916
11.5534 67.8144
11.5983 64.479
11.6431 62.4681
11.688 61.5188
11.7328 61.8139
11.7777 61.8601
11.8225 61.4628
11.8674 61.455
11.9122 61.4277
11.9571 61.8129
12.002 61.9395
12.0468 64.7741
12.0917 74.1781
12.1366 97.4197
12.1814 150.829
12.2263 203.694
12.2712 160.713
12.3161 94.7685
12.3609 69.7293
12.4058 63.7334
12.4507 63.138
12.4956 63.1539
12.5405 63.4268
12.5853 64.3926
12.6302 73.5081
12.6751 79.1059
12.72 69.3677
12.7649 66.6901
12.8098 66.989
12.8547 67.9117
12.8996 69.5569
12.9445 70.6083
12.9894 72.1669
13.0343 74.0523
13.0792 76.7156
13.1242 83.2573
13.1691 102.434
13.214 135.162
13.2589 226.438
13.3038 376.673
13.3487 432.65
13.3937 249.504
13.4386 119.197
13.4835 99.0307
13.5285 111.34
13.5734 147.128
13.6183 240.917
13.6633 357.122
13.7082 332.081
13.7531 175.986
13.7981 94.4537
13.843 80.0461
13.888 77.8728
13.9329 75.2562
13.9779 74.2143
14.0228 72.856
14.0678 71.3658
14.1127 71.0554
14.1577 71.0029
14.2027 70.1312
14.2476 68.7515
14.2926 69.3949
14.3376 70.4316
14.3825 69.2139
14.4275 67.4302
14.4725 67.0694
14.5175 67.3705
14.5624 67.469
14.6074 70.0637
14.6524 70.6234
14.6974 68.8377
14.7424 69.6151
14.7874 74.5601
14.8324 83.0181
14.8774 103.515
14.9224 148.206
14.9674 210.962
15.0124 217.871
15.0574 146.214
15.1024 88.0496
15.1474 70.5247
15.1924 68.9313
15.2374 69.7609
15.2824 69.0128
15.3274 66.7926
15.3725 65.5935
15.4175 65.0418
15.4625 64.6214
15.5076 64.9638
15.5526 64.6522
15.5976 64.229
15.6426 64.6874
15.6877 68.671
15.7327 74.8854
15.7778 89.23
15.8228 120.468
15.8679 171.829
15.9129 196.487
15.958 150.708
16.003 92.8636
16.0481 66.832
16.0931 63.7269
16.1382 61.4581
16.1833 59.5055
16.2283 57.9594
16.2734 57.4258
16.3185 57.7262
16.3636 58.7184
16.4086 56.8609
16.4537 55.133
16.4988 54.4813
16.5439 54.3476
16.589 54.2442
16.6341 53.755
16.6792 53.3318
16.7243 53.8746
16.7694 53.9483
16.8145 53.7404
16.8596 54.2173
16.9047 55.9886
16.9498 56.0241
16.9949 54.696
17.04 54.5654
17.0851 55.3638
17.1302 56.9502
17.1754 59.5893
17.2205 64.6989
17.2656 73.0004
17.3108 81.8366
17.3559 80.441
17.401 68.6279
17.4462 60.3986
17.4913 57.6327
17.5365 57.7424
17.5815 57.9993
17.6268 58.1767
17.6718 59.0412
17.7171 59.5766
17.7622 59.9718
17.8074 60.2433
17.8525 61.9775
17.8977 65.4119
17.9428 70.1113
17.9881 78.4012
18.0331 96.182
18.0784 120.819
18.1237 138.399
18.1688 125.436
18.214 98.6946
18.2591 82.7331
18.3044 88.2283
18.3495 99.6888
18.3948 106.356
18.4399 93.7349
18.4852 75.0155
18.5303 64.4689
18.5756 61.0217
18.6207 59.9299
18.666 59.0516
18.7112 58.4369
18.7565 57.5977
18.8016 57.3083
18.8469 56.7735
18.892 56.4542
18.9374 55.9038
18.9825 55.7994
19.0278 55.6521
19.073 55.6878
19.1183 55.8861
19.1635 56.6282
19.2088 58.0249
19.254 60.1972
19.2993 64.9329
19.3447 71.7795
19.3898 75.1797
19.4352 70.1513
19.4804 61.4528
19.5257 55.3036
19.5709 53.1341
19.6163 52.8058
19.6615 52.736
19.7068 52.1734
19.752 52.1427
19.7974 52.353
19.8426 53.0444
19.888 53.4594
19.9332 54.5727
19.9786 57.0161
20.0238 61.0402
20.0692 66.2714
20.1144 68.5907
20.1598 66.2287
20.205 61.757
20.2504 60.5943
20.2957 63.0116
20.3411 64.7426
20.3863 62.7274
20.4318 56.9399
20.477 52.4585
20.5224 50.7719
20.5677 50.1122
20.6131 49.1899
20.6586 48.5618
20.7038 48.7146
20.7493 48.0731
20.7945 48.0622
20.84 47.7717
20.8853 47.5626
20.9307 47.4673
20.976 47.7658
21.0215 47.5894
21.0668 48.0049
21.1122 48.3439
21.1575 49.0266
21.203 50.0164
21.2483 50.4612
21.2938 50.2568
21.3391 48.9044
21.3846 47.8302
21.4299 47.2943
21.4754 47.2635
21.5207 47.4268
21.5662 47.5609
21.6116 47.8555
21.6571 48.452
21.7024 49.2112
21.7479 51.1463
21.7933 53.8624
21.8388 57.6615
21.8843 61.5504
21.9297 63.3473
21.9752 61.2444
22.0206 57.7916
22.0661 55.3245
22.1115 55.1658
22.157 54.9646
22.2024 52.9041
22.248 50.2542
22.2933 48.849
22.3389 48.0592
22.3843 48.0322
22.4299 48.0488
22.4753 47.9506
22.5208 47.5268
22.5662 47.4424
22.6118 47.5206
22.6572 47.7945
22.7028 48.1187
22.7483 48.344
22.7939 48.9729
22.8393 50.5131
22.8849 52.7551
22.9303 55.1151
22.9759 57.0527
23.0214 56.4041
23.067 53.189
23.1126 49.8964
23.1581 48.0763
23.2037 47.5785
23.2492 47.6134
23.2948 47.5494
23.3403 47.7959
23.3859 48.4638
23.4314 49.5508
23.477 51.2319
23.5225 53.9079
23.5682 56.3748
23.6137 56.9616
23.6593 54.2305
23.7048 50.2172
23.7505 47.2675
23.796 45.7192
23.8417 45.1661
23.8872 44.6509
23.9329 44.261
23.9784 44.0758
24.0241 43.707
24.0697 43.5792
24.1154 43.3394
24.1609 43.1773
24.2066 42.9746
24.2522 42.7177
24.2979 42.4948
24.3434 42.5701
24.3892 42.4371
24.4349 42.279
24.4805 42.1201
24.5262 42.3396
24.5718 42.0977
24.6175 41.9592
24.6631 41.9188
24.7089 41.6748
24.7545 41.541
24.8002 41.3246
24.8458 41.374
24.8916 41.0004
24.9372 41.2493
24.983 41.6344
25.0286 41.8334
25.0744 42.3199
25.12 42.8142
25.1658 43.458
25.2114 43.6415
25.2572 43.7667
25.3029 44.1787
25.3487 44.0471
25.3943 43.8647
25.4402 42.571
25.4858 41.5045
25.5316 40.6535
25.5773 40.1944
25.6231 40.0815
25.669 39.7135
25.7147 39.674
25.7605 39.6284
25.8062 39.7377
25.8521 39.8841
25.8977 39.7586
25.9436 39.9479
25.9893 40.0361
26.0352 40.761
26.0809 40.7318
26.1268 40.9416
26.1725 40.6378
26.2184 39.8462
26.2641 39.3646
26.31 39.2364
26.3557 39.3801
26.4017 39.1858
26.4474 39.4669
26.4933 39.7919
26.5391 40.5415
26.585 40.953
26.6308 41.3377
26.6767 41.2155
26.7225 41.1891
26.7684 40.434
26.8142 39.9688
26.8601 39.672
26.9059 39.1069
26.9519 38.6297
26.9979 38.4556
27.0437 38.0581
27.0896 37.9227
27.1354 37.8274
27.1814 37.8296
27.2272 37.7125
27.2732 37.6518
27.3191 37.6087
27.3651 37.6484
27.4109 37.545
27.4569 37.6368
27.5027 37.8273
27.5488 37.865
27.5946 37.5789
27.6407 37.3807
27.6865 37.2383
27.7326 36.9904
27.7784 37.0842
27.8245 37.0289
27.8703 37.1392
27.9164 37.5616
27.9623 37.6357
28.0084 37.9248
28.0543 38.4474
28.1003 38.141
28.1462 38.0132
28.1923 37.6221
28.2384 37.1489
28.2843 36.871
28.3304 36.4171
28.3764 36.0929
28.4225 35.666
28.4684 35.3856
28.5145 35.2937
28.5605 35.1887
28.6066 35.0574
28.6526 34.8671
28.6987 34.972
28.7447 34.8679
28.7908 34.5735
28.8368 34.7698
28.8829 34.8015
28.9289 34.657
28.9751 34.3628
29.0211 34.3204
29.0673 33.9947
29.1133 33.9106
29.1595 33.6643
29.2055 33.6709
29.2517 33.7195
29.2977 33.6769
29.3439 33.6369
29.3899 33.6194
29.4361 33.5589
29.4824 33.2143
29.5284 33.0187
29.5746 32.6594
29.6207 32.461
29.6669 32.3598
29.713 32.3775
29.7593 32.2672
29.8053 32.3014
29.8516 32.1157
29.8977 32.1664
29.9439 31.9343
29.99 31.7465
30.0363 31.8352
30.0824 31.8547
30.1287 31.838
30.1748 31.8186
30.2211 31.7725
30.2673 31.5992
30.3136 31.6707
30.3597 31.5314
30.406 31.5443
30.4522 31.2646
30.4985 31.448
30.5447 31.4904
30.591 31.4901
30.6372 31.4201
30.6835 31.461
30.7297 31.615
30.7761 31.5065
30.8224 31.1906
30.8686 31.1672
30.915 31.0182
30.9612 30.8086
31.0076 30.7018
31.0538 30.5583
31.1002 30.3856
31.1464 30.2435
31.1928 30.2633
31.2391 30.3604
31.2855 30.1697
31.3317 30.2038
31.3781 30.2656
31.4244 30.2691
31.4708 30.2384
31.5171 30.1342
31.5636 30.1021
31.6098 29.8296
31.6563 29.6401
31.7026 29.7298
31.7491 29.3984
31.7953 29.6384
31.8418 29.5373
31.8881 29.5505
31.9346 29.4647
31.9809 29.4646
32.0275 29.3746
32.074 29.277
32.1203 29.0716
32.1668 28.911
32.2132 28.7621
32.2597 28.6911
32.306 28.6155
32.3526 28.3547
32.399 28.3991
32.4455 28.1949
32.4919 28.0781
32.5385 28.1008
32.5848 27.8928
32.6314 27.9724
32.6778 27.9187
32.7244 27.6465
32.7708 27.6032
32.8174 27.6413
32.8638 27.5253
32.9104 27.5733
32.9569 27.4983
33.0035 27.3268
33.0499 27.3141
33.0966 27.2282
33.143 27.1782
33.1897 27.1668
33.2361 27.0428
33.2828 27.0167
33.3293 26.771
33.3759 26.8628
33.4226 26.6449
33.4691 26.5732
33.5158 26.5245
33.5623 26.3147
33.609 26.2315
33.6555 26.1521
33.7022 26.0768
33.7487 26.0684
33.7954 25.9542
33.842 25.8614
33.8887 25.8081
33.9353 25.7524
33.982 25.6493
34.0286 25.555
34.0753 25.5036
34.1219 25.438
34.1687 25.2948
34.2152 25.222
34.262 25.2159
34.3086 25.1069
34.3554 25.017
34.402 24.9009
34.4488 24.8114
34.4954 24.7528
34.5422 24.5809
34.5889 24.543
34.6357 24.394
34.6825 24.4875
34.7292 24.2716
34.776 24.2836
34.8227 24.2746
34.8695 24.1737
34.9162 24.1156
34.9631 23.9509
35.0098 23.9595
35.0566 23.8786
35.1033 23.7451
35.1502 23.7966
35.1969 23.6893
35.2438 23.7695
35.2906 23.6299
35.3375 23.6694
35.3842 23.5772
35.4311 23.5054
35.4779 23.5327
35.5248 23.3713
35.5716 23.3364
35.6185 23.2618
35.6653 23.169
35.7123 23.0456
35.759 23.0557
35.806 22.8921
35.8528 22.8421
35.8998 22.7295
35.9468 22.6101
35.9936 22.6591
36.0406 22.6216
36.0874 22.5309
36.1345 22.4354
36.1813 22.374
36.2283 22.3507
36.2752 22.1597
36.3222 22.1983
36.3691 22.0423
36.4161 22.0373
36.463 21.9997
36.5101 22.0505
36.557 21.8552
36.6041 21.7564
36.651 21.7125
36.6981 21.6504
36.745 21.637
36.7921 21.4924
36.839 21.4062
36.8861 21.3117
36.9331 21.3238
36.9802 21.2703
37.0272 21.1674
37.0743 21.0849
37.1213 20.979
37.1684 20.9967
37.2154 20.9341
37.2626 20.8493
37.3098 20.7599
37.3568 20.6798
37.404 20.7235
37.451 20.5812
37.4982 20.5056
37.5452 20.3923
37.5924 20.3739
37.6395 20.4521
37.6867 20.3274
37.7337 20.1733
37.781 20.0882
37.8281 20.0539
37.8753 20.0604
37.9224 19.9228
37.9697 19.8945
38.0168 19.8057
38.064 19.818
38.1111 19.7349
38.1584 19.6203
38.2056 19.5435
38.2529 19.4944
38.3 19.3955
38.3473 19.3787
38.3945 19.2865
38.4418 19.2734
38.489 19.2278
38.5363 19.1756
38.5837 19.0713
38.6309 19.0636
38.6782 19.0035
38.7254 18.8703
38.7728 18.8202
38.82 18.7477
38.8674 18.7836
38.9146 18.6717
38.9621 18.5803
39.0093 18.5706
39.0567 18.5226
39.104 18.3568
39.1514 18.3497
39.1987 18.3623
39.2461 18.2541
39.2934 18.2217
39.3409 18.1314
39.3882 18.0184
39.4356 18.0255
39.483 17.9901
39.5304 17.8814
39.5778 17.978
39.6253 17.7671
39.6726 17.7395
39.7201 17.7019
39.7675 17.6688
39.815 17.5982
39.8624 17.5256
39.9099 17.5067
39.9575 17.3676
40.0049 17.312
40.0525 17.2662
40.0999 17.2539
40.1474 17.1815
40.1949 17.1432
40.2425 17.0461
40.2899 16.9738
40.3375 16.9719
40.385 16.8888
40.4326 16.8725
40.48 16.7987
40.5277 16.8103
40.5752 16.7304
40.6228 16.6919
40.6703 16.6223
40.718 16.5521
40.7655 16.5302
40.8132 16.4324
40.8607 16.4583
40.9084 16.3576
40.9559 16.2718
41.0036 16.2459
41.0512 16.2034
41.0989 16.1929
41.1465 16.0411
41.1942 16.0351
41.242 15.9417
41.2896 15.8942
41.3373 15.8627
41.3849 15.873
41.4327 15.7767
41.4803 15.7013
41.5281 15.6555
41.5758 15.5889
41.6236 15.5002
41.6712 15.5581
41.7191 15.47
41.7667 15.368
41.8146 15.3929
41.8622 15.3019
41.9101 15.2825
41.9578 15.1195
42.0057 15.1674
42.0534 15.0871
42.1013 15.0247
42.149 15.0162
42.1969 14.9137
42.2446 14.8924
42.2925 14.8377
42.3403 14.7609
42.3882 14.7492
42.436 14.7142
42.4839 14.6423
42.5319 14.5723
42.5797 14.5489
42.6277 14.5048
42.6755 14.4766
42.7235 14.3829
42.7713 14.3919
42.8193 14.3085
42.8671 14.1984
42.9152 14.2237
42.963 14.1849
43.0111 14.0874
43.0589 14.0678
43.107 13.9806
43.1549 13.9784
43.2029 13.8876
43.2508 13.8232
43.2989 13.7829
43.3468 13.7534
43.3949 13.7392
43.4429 13.6773
43.491 13.6335
43.5389 13.6213
43.5871 13.5286
43.635 13.5176
43.6832 13.4636
43.7312 13.3728
43.7793 13.3443
43.8273 13.3344
43.8755 13.2205
43.9237 13.2195
43.9717 13.1693
44.0199 13.0655
44.068 13.0896
44.1162 13.0658
44.1642 13.0394
44.2125 12.9198
44.2606 12.9088
44.3088 12.8689
44.3569 12.7798
44.4052 12.7672
44.4533 12.6903
44.5016 12.6155
44.5497 12.5853
44.598 12.6063
44.6461 12.5679
44.6945 12.5034
44.7426 12.4394
44.791 12.3735
44.8391 12.382
44.8875 12.2767
44.9357 12.2977
44.984 12.2602
45.0322 12.1516
45.0806 12.0682
45.1288 12.0659
45.1773 12.0433
45.2257 12.0527
45.2739 11.9691
45.3224 11.8936
45.3706 11.9219
45.4191 11.8175
45.4673 11.8554
45.5158 11.7428
45.5641 11.6938
45.6126 11.7021
45.6609 11.6714
45.7094 11.5883
45.7577 11.5502
45.8063 11.4858
45.8546 11.4552
45.9031 11.4617
45.9515 11.4195
46.0001 11.3207
46.0484 11.2794
46.097 11.3141
46.1454 11.2344
46.194 11.1893
46.2424 11.1754
46.291 11.097
46.3395 11.0933
46.3881 11.0323
46.4365 11.0276
46.4852 10.9333
46.5337 10.9135
46.5823 10.8539
46.631 10.788
46.6795 10.8034
46.7282 10.7895
46.7767 10.7579
46.8254 10.6773
46.8739 10.6473
46.9226 10.5764
46.9712 10.5626
47.0199 10.5316
47.0685 10.4768
47.1173 10.4307
47.1658 10.401
47.2146 10.355
47.2632 10.3032
47.312 10.2887
47.3606 10.2491
47.4095 10.1932
47.4581 10.1527
47.5069 10.1046
47.5556 10.0964
47.6044 10.047
47.6531 10.0416
47.702 9.98463
47.7507 9.9879
47.7996 9.8738
47.8483 9.92069
47.8972 9.8204
47.9461 9.81019
47.9948 9.74566
48.0438 9.72906
48.0925 9.70071
48.1415 9.65543
48.1902 9.59544
48.2392 9.63571
48.288 9.59347
48.337 9.55863
48.3858 9.49611
48.4348 9.45509
48.4837 9.46639
48.5327 9.37366
48.5815 9.37
48.6306 9.29295
48.6795 9.26846
48.7285 9.27425
48.7774 9.23205
48.8265 9.18571
48.8754 9.15221
48.9245 9.11829
48.9734 9.05246
49.0226 9.06119
49.0715 9.02122
49.1206 9.00626
49.1696 8.9472
49.2188 8.91056
49.2679 8.88196
49.3169 8.8616
49.3661 8.79718
49.4151 8.7695
49.4643 8.73496
49.5134 8.72903
49.5626 8.62985
49.6117 8.65779
49.6609 8.62172
49.71 8.57067
49.7592 8.53486
49.8083 8.49684
49.8576 8.51462
49.9067 8.4436
49.956 8.41035
50.0052 8.39089
50.0545 8.35442
50.1036 8.2997
50.153 8.25779
50.2022 8.26923
50.2515 8.19747
50.3007 8.18272
50.3501 8.13947
50.3993 8.10706
50.4487 8.05785
50.498 8.0502
50.5474 8.01018
50.5966 7.98211
50.6461 8.0001
50.6955 7.92187
50.7448 7.92486
50.7943 7.89304
50.8436 7.82838
50.8931 7.77598
50.9424 7.78541
50.9919 7.76081
51.0413 7.74024
51.0908 7.68474
51.1402 7.66864
51.1897 7.6203
51.2391 7.62689
51.2887 7.53492
51.3381 7.57947
51.3877 7.5292
51.4371 7.47703
51.4867 7.42167
51.5362 7.43472
51.5858 7.38626
51.6353 7.31296
51.6849 7.33017
51.7344 7.31588
51.7841 7.25956
51.8336 7.19275
51.8833 7.25379
51.9328 7.17593
51.9826 7.14837
52.0323 7.11292
52.0818 7.06922
52.1316 7.01208
52.1812 7.03967
52.231 7.00767
52.2806 6.95532
52.3304 6.96552
52.38 6.89832
52.4298 6.92176
52.4794 6.89708
52.5293 6.79437
52.5789 6.8068
52.6288 6.77214
52.6785 6.75019
52.7284 6.74596
52.7781 6.71975
52.828 6.6587
52.8777 6.64068
52.9276 6.62623
52.9774 6.60267
53.0273 6.60786
53.0771 6.50211
53.1271 6.50817
53.1769 6.47535
53.2269 6.43755
53.2767 6.38923
53.3267 6.41236
53.3765 6.368
53.4266 6.35251
53.4766 6.33171
53.5265 6.24488
53.5765 6.30309
53.6264 6.27377
53.6765 6.18401
53.7264 6.22295
53.7765 6.14819
53.8265 6.10899
53.8766 6.0853
53.9266 6.06223
53.9767 6.04439
54.0267 5.99133
54.0769 5.99954
54.1269 5.92789
54.1771 5.92998
54.2271 5.88974
54.2773 5.84546
54.3274 5.8245
54.3776 5.81291
54.4277 5.72686
54.478 5.78669
54.528 5.73493
54.5783 5.65334
54.6285 5.62304
54.6788 5.57295
54.7289 5.54062
54.7792 5.49035
54.8296 5.47272
54.8798 5.38121
54.9301 5.36766
54.9803 5.36994
55.0307 5.35541
55.0809 5.27447
55.1314 5.29869
55.1816 5.19244
55.232 5.17484
55.2823 5.11209
55.3328 5.08327
55.383 5.02407
55.4335 5.00985
55.4838 4.90079
55.5344 4.87789
55.5847 4.86407
55.6352 4.83038
55.6856 4.79515
55.7361 4.69756