File: XRD/Ni3Fe_FD0779.xy
TT I
1.27165 7.09413
1.31627 6.89505
1.36089 6.45364
1.40551 6.14658
1.45013 5.69285
1.49476 6.0685
1.53938 6.00736
1.584 5.20669
1.62863 5.10676
1.67325 5.21631
1.71787 5.1053
1.7625 4.47843
1.80712 4.47901
1.85174 4.52134
1.89636 4.24581
1.94099 4.84306
1.98562 4.58636
2.03025 4.5749
2.07487 4.38363
2.11949 4.90623
2.16411 5.31777
2.20874 12.74
2.25338 20.1268
2.298 5.58164
2.34263 5.93362
2.38725 6.36749
2.43188 6.16973
2.4765 6.79505
2.52115 7.59421
2.56577 7.83288
2.6104 8.46715
2.65503 8.72396
2.69965 7.97858
2.7443 8.41666
2.78893 8.47671
2.83356 8.86585
2.87818 8.7826
2.92281 8.91251
2.96744 9.20032
3.01209 10.339
3.05672 11.2142
3.10135 12.3534
3.14599 12.9081
3.19062 14.2404
3.23527 15.0537
3.2799 15.7686
3.32454 16.3621
3.36917 17.8823
3.4138 18.9105
3.45844 19.5552
3.50309 20.8775
3.54773 21.6852
3.59237 23.8117
3.637 83.9336
3.68164 53.6744
3.7263 26.1854
3.77094 26.2302
3.81558 26.4807
3.86022 27.1292
3.90486 29.2553
3.9495 29.4822
3.99416 30.4176
4.0388 31.4446
4.08344 33.5925
4.12809 34.5006
4.17273 36.6166
4.21738 41.6972
4.26204 219.365
4.30669 190.655
4.35133 47.1951
4.39598 43.8613
4.44063 52.7485
4.4853 63.235
4.52995 50.0034
4.5746 50.8155
4.61925 52.8167
4.6639 55.0955
4.70855 57.8839
4.75322 60.3114
4.79788 63.6432
4.84253 66.434
4.88719 70.4395
4.93184 74.4097
4.97652 79.701
5.02118 86.015
5.06583 93.2622
5.11049 104.441
5.15515 165.125
5.19981 323.227
5.24449 2708.85
5.28916 13039.6
5.33382 2686.3
5.37848 176.376
5.42315 125.44
5.46783 110.702
5.5125 104.367
5.55716 100.497
5.60183 97.4592
5.6465 95.4643
5.69117 92.7132
5.73586 91.2911
5.78053 90.5955
5.8252 89.5712
5.86988 90.5853
5.91455 92.6046
5.95924 100.854
6.00392 196.612
6.0486 924.598
6.09328 4473.7
6.13795 3067.59
6.18263 208.012
6.22733 89.7454
6.27201 81.3693
6.3167 97.4622
6.36138 77.9223
6.40606 68.0202
6.45075 66.4174
6.49545 65.0059
6.54014 63.071
6.58483 62.4437
6.62952 61.9863
6.67421 89.3866
6.71892 131.518
6.76361 67.0057
6.8083 57.7931
6.853 56.7291
6.89769 55.8673
6.94239 56.0387
6.98711 55.2613
7.03181 54.9336
7.07651 54.462
7.12121 54.6322
7.16591 54.5874
7.21063 55.0328
7.25533 67.8928
7.30004 160.407
7.34475 86.059
7.38945 56.175
7.43416 53.9306
7.47889 54.0339
7.5236 54.408
7.56831 54.6679
7.61303 56.3118
7.65774 56.288
7.70247 55.6794
7.74719 55.6143
7.79191 56.4273
7.83663 56.3263
7.88135 57.5099
7.92607 58.1961
7.97081 59.3365
8.01553 60.0091
8.06026 61.6813
8.10498 63.0703
8.14971 71.6862
8.19446 71.0258
8.23919 68.8607
8.28392 71.1517
8.32865 73.0571
8.37339 77.4257
8.41812 84.0758
8.46288 110.264
8.50761 158.423
8.55235 367.585
8.59709 1191.3
8.64183 2241.81
8.68658 865.602
8.73134 148.74
8.77609 97.3402
8.82083 91.115
8.86558 88.4772
8.91033 88.3887
8.9551 89.7732
8.99985 84.5688
9.04461 82.3016
9.08936 81.8368
9.13412 80.8097
9.17888 81.4542
9.22365 81.7832
9.26841 81.111
9.31318 81.301
9.35794 81.4489
9.4027 82.264
9.44749 83.0071
9.49226 83.7618
9.53703 84.8034
9.5818 86.5737
9.62657 90.267
9.67134 96.267
9.71614 92.2678
9.76091 93.1734
9.80569 95.2974
9.85047 98.4252
9.89525 120.458
9.94005 131.898
9.98484 168.345
10.0296 326.98
10.0744 802.503
10.1192 1792.89
10.164 1529.29
10.2088 347.929
10.2536 120.523
10.2984 110.58
10.3432 112.053
10.388 103.586
10.4328 115.305
10.4776 155.471
10.5224 281.59
10.5672 536.963
10.612 491.267
10.6568 194.68
10.7017 93.9381
10.7465 85.1963
10.7913 82.2629
10.8361 80.2
10.8809 78.1098
10.9257 77.3931
10.9706 77.6015
11.0154 73.9367
11.0602 71.8309
11.105 71.0676
11.1499 74.4744
11.1947 80.8834
11.2395 72.828
11.2844 69.4607
11.3292 66.6894
11.374 65.3051
11.4189 64.7519
11.4637 64.0765
11.5086 64.7048
11.5534 67.0802
11.5983 64.7048
11.6431 62.8714
11.688 62.1315
11.7328 62.1611
11.7777 61.9346
11.8225 61.8076
11.8674 61.4825
11.9122 61.9471
11.9571 61.8329
12.002 62.7487
12.0468 66.669
12.0917 76.9399
12.1366 100.94
12.1814 157.741
12.2263 213.46
12.2712 168.458
12.3161 90.5089
12.3609 68.7905
12.4058 63.948
12.4507 63.609
12.4956 63.6467
12.5405 63.6861
12.5853 64.8351
12.6302 71.5552
12.6751 75.9492
12.72 68.6221
12.7649 66.8381
12.8098 67.5214
12.8547 68.9442
12.8996 70.2778
12.9445 71.3785
12.9894 73.3548
13.0343 74.9694
13.0792 78.0657
13.1242 86.4154
13.1691 108.923
13.214 145.089
13.2589 239.72
13.3038 386.178
13.3487 428.665
13.3937 247.006
13.4386 117.583
13.4835 102.449
13.5285 117.4
13.5734 155.58
13.6183 251.752
13.6633 359.195
13.7082 336.178
13.7531 172.057
13.7981 92.865
13.843 80.5072
13.888 78.5398
13.9329 76.1307
13.9779 74.9588
14.0228 73.2108
14.0678 72.1753
14.1127 71.7827
14.1577 71.5042
14.2027 70.8393
14.2476 69.6403
14.2926 69.4619
14.3376 70.6213
14.3825 69.1853
14.4275 67.9714
14.4725 68.0267
14.5175 67.9413
14.5624 68.214
14.6074 70.0318
14.6524 70.5776
14.6974 69.5194
14.7424 70.9245
14.7874 77.533
14.8324 87.0268
14.8774 108.78
14.9224 155.419
14.9674 215.681
15.0124 219.199
15.0574 145.228
15.1024 87.7729
15.1474 71.145
15.1924 69.4304
15.2374 70.0301
15.2824 69.1969
15.3274 67.1533
15.3725 65.9849
15.4175 65.7454
15.4625 65.3643
15.5076 65.2222
15.5526 65.3194
15.5976 65.2045
15.6426 65.8436
15.6877 70.8876
15.7327 78.3145
15.7778 93.0365
15.8228 126.431
15.8679 174.943
15.9129 197.416
15.958 150.71
16.003 91.0899
16.0481 66.0784
16.0931 63.5182
16.1382 61.736
16.1833 59.9096
16.2283 58.1518
16.2734 57.7841
16.3185 57.9071
16.3636 58.3566
16.4086 56.8713
16.4537 55.3806
16.4988 54.8684
16.5439 54.6951
16.589 54.529
16.6341 54.3437
16.6792 53.799
16.7243 54.1514
16.7694 54.1827
16.8145 54.1739
16.8596 54.5017
16.9047 55.8206
16.9498 56.1797
16.9949 54.9796
17.04 55.2041
17.0851 56.3089
17.1302 57.8525
17.1754 60.9179
17.2205 66.1695
17.2656 74.7317
17.3108 83.185
17.3559 81.2675
17.401 68.5285
17.4462 60.7005
17.4913 58.3366
17.5365 58.4278
17.5815 58.5056
17.6268 58.8683
17.6718 59.7298
17.7171 60.2717
17.7622 60.7688
17.8074 61.3226
17.8525 63.4084
17.8977 67.1707
17.9428 72.5785
17.9881 81.4874
18.0331 99.7928
18.0784 124.212
18.1237 141.991
18.1688 127.371
18.214 99.062
18.2591 84.1416
18.3044 90.0569
18.3495 101.769
18.3948 106.238
18.4399 93.4428
18.4852 74.4336
18.5303 64.5434
18.5756 61.2537
18.6207 60.4499
18.666 59.9568
18.7112 59.124
18.7565 58.1336
18.8016 58.0298
18.8469 57.4386
18.892 57.0587
18.9374 56.7683
18.9825 56.3152
19.0278 56.324
19.073 56.2494
19.1183 56.8261
19.1635 57.5089
19.2088 58.5745
19.254 61.3022
19.2993 66.4202
19.3447 73.0658
19.3898 76.4249
19.4352 70.7631
19.4804 61.4717
19.5257 55.6794
19.5709 53.4647
19.6163 53.3445
19.6615 53.0936
19.7068 52.7303
19.752 52.5124
19.7974 52.9369
19.8426 53.7528
19.888 54.3209
19.9332 55.49
19.9786 58.1175
20.0238 62.1128
20.0692 67.3312
20.1144 69.2799
20.1598 66.7091
20.205 62.3589
20.2504 61.3891
20.2957 64.0611
20.3411 65.5531
20.3863 63.0362
20.4318 56.8856
20.477 52.4147
20.5224 51.0084
20.5677 50.3017
20.6131 49.7
20.6586 48.973
20.7038 48.9534
20.7493 48.5409
20.7945 48.543
20.84 48.3479
20.8853 48.2661
20.9307 47.9844
20.976 48.0817
21.0215 48.1578
21.0668 48.4229
21.1122 48.8848
21.1575 49.5958
21.203 50.4076
21.2483 51.1192
21.2938 50.8507
21.3391 49.4495
21.3846 48.2979
21.4299 47.961
21.4754 47.9551
21.5207 48.1603
21.5662 48.2342
21.6116 48.543
21.6571 49.31
21.7024 50.1558
21.7479 52.0031
21.7933 54.8822
21.8388 58.727
21.8843 62.7757
21.9297 64.2336
21.9752 61.9578
22.0206 58.1772
22.0661 55.7928
22.1115 55.6323
22.157 55.4937
22.2024 53.3484
22.248 50.5819
22.2933 49.232
22.3389 48.5815
22.3843 48.5736
22.4299 48.2089
22.4753 48.3996
22.5208 48.0494
22.5662 47.8734
22.6118 48.2753
22.6572 48.3726
22.7028 48.7631
22.7483 48.9906
22.7939 49.9625
22.8393 51.2559
22.8849 53.7331
22.9303 55.9998
22.9759 57.7751
23.0214 56.7483
23.067 53.421
23.1126 50.2747
23.1581 48.453
23.2037 48.2722
23.2492 48.2535
23.2948 48.2546
23.3403 48.5387
23.3859 49.1469
23.4314 50.3158
23.477 52.2669
23.5225 54.8823
23.5682 57.0133
23.6137 57.8237
23.6593 54.7869
23.7048 50.5326
23.7505 47.5237
23.796 46.1257
23.8417 45.6291
23.8872 44.9922
23.9329 44.6682
23.9784 44.2599
24.0241 44.172
24.0697 43.9142
24.1154 43.668
24.1609 43.5807
24.2066 43.3695
24.2522 43.1535
24.2979 42.8571
24.3434 42.6428
24.3892 42.6888
24.4349 42.6159
24.4805 42.5004
24.5262 42.7438
24.5718 42.5442
24.6175 42.512
24.6631 42.3304
24.7089 42.114
24.7545 41.9318
24.8002 41.7517
24.8458 41.7623
24.8916 41.7103
24.9372 41.7178
24.983 42.0243
25.0286 42.2928
25.0744 42.9835
25.12 43.2829
25.1658 43.9887
25.2114 44.2379
25.2572 44.3124
25.3029 44.4977
25.3487 44.4925
25.3943 44.0707
25.4402 42.8573
25.4858 41.7721
25.5316 40.9285
25.5773 40.4529
25.6231 40.3821
25.669 40.1475
25.7147 40.1711
25.7605 39.8438
25.8062 40.0055
25.8521 40.0756
25.8977 40.1052
25.9436 40.4132
25.9893 40.603
26.0352 41.1212
26.0809 41.0832
26.1268 41.3094
26.1725 40.9857
26.2184 40.1889
26.2641 39.8115
26.31 39.6614
26.3557 39.7724
26.4017 39.7184
26.4474 40.0501
26.4933 40.3809
26.5391 40.8689
26.585 41.3293
26.6308 41.8102
26.6767 41.8348
26.7225 41.4746
26.7684 40.9806
26.8142 40.4484
26.8601 40.0251
26.9059 39.5397
26.9519 39.0865
26.9979 38.7692
27.0437 38.4453
27.0896 38.3433
27.1354 38.3124
27.1814 38.2615
27.2272 38.0657
27.2732 37.9788
27.3191 37.9285
27.3651 38.0569
27.4109 38.0294
27.4569 38.1937
27.5027 38.164
27.5488 38.2672
27.5946 38.0887
27.6407 37.7357
27.6865 37.4914
27.7326 37.506
27.7784 37.352
27.8245 37.3302
27.8703 37.6245
27.9164 37.8885
27.9623 38.0418
28.0084 38.3696
28.0543 38.8502
28.1003 38.6579
28.1462 38.3947
28.1923 38.1369
28.2384 37.6356
28.2843 37.176
28.3304 36.647
28.3764 36.2582
28.4225 36.0314
28.4684 35.7626
28.5145 35.6127
28.5605 35.4974
28.6066 35.2659
28.6526 35.2735
28.6987 35.3022
28.7447 35.1808
28.7908 35.0735
28.8368 35.0818
28.8829 34.9585
28.9289 35.027
28.9751 34.752
29.0211 34.6832
29.0673 34.2319
29.1133 34.1488
29.1595 34.0778
29.2055 34.0006
29.2517 34.0456
29.2977 33.9706
29.3439 33.9582
29.3899 33.9447
29.4361 33.7699
29.4824 33.691
29.5284 33.3866
29.5746 33.037
29.6207 32.8437
29.6669 32.7906
29.713 32.503
29.7593 32.5264
29.8053 32.5541
29.8516 32.3978
29.8977 32.403
29.9439 32.2887
29.99 32.1467
30.0363 32.1355
30.0824 32.1852
30.1287 32.0474
30.1748 32.2638
30.2211 32.196
30.2673 31.911
30.3136 31.983
30.3597 31.9292
30.406 31.797
30.4522 31.7208
30.4985 31.7064
30.5447 31.7767
30.591 31.8631
30.6372 31.943
30.6835 31.8934
30.7297 31.8961
30.7761 31.8202
30.8224 31.6508
30.8686 31.5009
30.915 31.2162
30.9612 31.201
31.0076 31.0074
31.0538 30.7377
31.1002 30.7797
31.1464 30.6333
31.1928 30.6033
31.2391 30.6844
31.2855 30.597
31.3317 30.6052
31.3781 30.5593
31.4244 30.6426
31.4708 30.5179
31.5171 30.5162
31.5636 30.3596
31.6098 30.1204
31.6563 30.0313
31.7026 29.9469
31.7491 29.8146
31.7953 29.9202
31.8418 29.8539
31.8881 29.9202
31.9346 29.7837
31.9809 29.7841
32.0275 29.6015
32.074 29.52
32.1203 29.2963
32.1668 29.2155
32.2132 29.0199
32.2597 28.8094
32.306 28.8869
32.3526 28.6205
32.399 28.6124
32.4455 28.4208
32.4919 28.4472
32.5385 28.3983
32.5848 28.1306
32.6314 28.2463
32.6778 28.0918
32.7244 28.0038
32.7708 27.8877
32.8174 27.8529
32.8638 27.7627
32.9104 27.729
32.9569 27.7152
33.0035 27.6201
33.0499 27.5145
33.0966 27.5347
33.143 27.5444
33.1897 27.4273
33.2361 27.3172
33.2828 27.3122
33.3293 27.1258
33.3759 27.1366
33.4226 26.9496
33.4691 26.9328
33.5158 26.7284
33.5623 26.6251
33.609 26.5081
33.6555 26.3973
33.7022 26.3492
33.7487 26.2604
33.7954 26.18
33.842 26.0991
33.8887 26.0571
33.9353 26.0827
33.982 25.854
34.0286 25.8823
34.0753 25.7105
34.1219 25.593
34.1687 25.5939
34.2152 25.4886
34.262 25.3541
34.3086 25.339
34.3554 25.3067
34.402 25.036
34.4488 25.0844
34.4954 24.9337
34.5422 24.9386
34.5889 24.7585
34.6357 24.7264
34.6825 24.6068
34.7292 24.6131
34.776 24.4646
34.8227 24.4369
34.8695 24.3692
34.9162 24.3036
34.9631 24.2076
35.0098 24.2747
35.0566 24.0841
35.1033 24.0375
35.1502 24.0572
35.1969 23.9231
35.2438 23.9487
35.2906 23.8601
35.3375 23.7841
35.3842 23.8083
35.4311 23.7336
35.4779 23.6582
35.5248 23.5774
35.5716 23.5399
35.6185 23.487
35.6653 23.4447
35.7123 23.3636
35.759 23.2081
35.806 23.0445
35.8528 23.0057
35.8998 23.006
35.9468 22.8922
35.9936 22.8769
36.0406 22.8066
36.0874 22.7455
36.1345 22.7241
36.1813 22.5695
36.2283 22.4478
36.2752 22.4146
36.3222 22.4487
36.3691 22.3461
36.4161 22.1791
36.463 22.2287
36.5101 22.1643
36.557 22.0992
36.6041 21.9595
36.651 21.9461
36.6981 21.9867
36.745 21.8223
36.7921 21.7528
36.839 21.6478
36.8861 21.585
36.9331 21.4803
36.9802 21.4621
37.0272 21.3477
37.0743 21.3411
37.1213 21.2737
37.1684 21.1652
37.2154 21.134
37.2626 21.0991
37.3098 21.0181
37.3568 20.8906
37.404 20.9108
37.451 20.7629
37.4982 20.7292
37.5452 20.6107
37.5924 20.5854
37.6395 20.6249
37.6867 20.5042
37.7337 20.4107
37.781 20.4001
37.8281 20.2466
37.8753 20.1284
37.9224 20.1829
37.9697 20.0769
38.0168 20.0331
38.064 19.9285
38.1111 19.8551
38.1584 19.7698
38.2056 19.7245
38.2529 19.7447
38.3 19.6577
38.3473 19.6688
38.3945 19.56
38.4418 19.4556
38.489 19.4095
38.5363 19.2969
38.5837 19.2615
38.6309 19.2143
38.6782 19.148
38.7254 19.0481
38.7728 19.0506
38.82 18.9004
38.8674 18.8988
38.9146 18.8852
38.9621 18.7336
39.0093 18.686
39.0567 18.6398
39.104 18.6746
39.1514 18.5423
39.1987 18.4816
39.2461 18.4414
39.2934 18.4088
39.3409 18.2582
39.3882 18.2112
39.4356 18.1554
39.483 18.1554
39.5304 18.0729
39.5778 18.0368
39.6253 18.0265
39.6726 17.9403
39.7201 17.8822
39.7675 17.8026
39.815 17.7488
39.8624 17.7154
39.9099 17.6183
39.9575 17.5235
40.0049 17.5738
40.0525 17.4685
40.0999 17.4171
40.1474 17.3324
40.1949 17.221
40.2425 17.3013
40.2899 17.2268
40.3375 17.1112
40.385 17.0079
40.4326 17.0407
40.48 16.9203
40.5277 16.9073
40.5752 16.8692
40.6228 16.7809
40.6703 16.7842
40.718 16.7001
40.7655 16.6899
40.8132 16.623
40.8607 16.6046
40.9084 16.5609
40.9559 16.4811
41.0036 16.3736
41.0512 16.3534
41.0989 16.3482
41.1465 16.2102
41.1942 16.2361
41.242 16.1062
41.2896 16.054
41.3373 15.9888
41.3849 15.9182
41.4327 15.8884
41.4803 15.7909
41.5281 15.8105
41.5758 15.7461
41.6236 15.6176
41.6712 15.6186
41.7191 15.586
41.7667 15.4929
41.8146 15.5111
41.8622 15.3906
41.9101 15.4174
41.9578 15.2963
42.0057 15.2476
42.0534 15.2306
42.1013 15.1786
42.149 15.1103
42.1969 15.0725
42.2446 15.0166
42.2925 15.0017
42.3403 14.8776
42.3882 14.8902
42.436 14.8241
42.4839 14.7779
42.5319 14.7156
42.5797 14.6597
42.6277 14.6582
42.6755 14.5477
42.7235 14.5288
42.7713 14.4571
42.8193 14.4322
42.8671 14.403
42.9152 14.3697
42.963 14.2724
43.0111 14.2434
43.0589 14.1593
43.107 14.1622
43.1549 14.0439
43.2029 14.056
43.2508 14.0613
43.2989 13.9475
43.3468 13.8544
43.3949 13.8285
43.4429 13.7983
43.491 13.7327
43.5389 13.703
43.5871 13.6213
43.635 13.5925
43.6832 13.5303
43.7312 13.4955
43.7793 13.4713
43.8273 13.4451
43.8755 13.3399
43.9237 13.3636
43.9717 13.3009
44.0199 13.2225
44.068 13.223
44.1162 13.1809
44.1642 13.1346
44.2125 13.1116
44.2606 13.059
44.3088 12.9933
44.3569 12.8785
44.4052 12.9094
44.4533 12.8249
44.5016 12.742
44.5497 12.7371
44.598 12.6829
44.6461 12.6395
44.6945 12.609
44.7426 12.6035
44.791 12.5168
44.8391 12.4802
44.8875 12.3991
44.9357 12.4019
44.984 12.3359
45.0322 12.2872
45.0806 12.2373
45.1288 12.2208
45.1773 12.124
45.2257 12.1383
45.2739 12.0593
45.3224 12.0417
45.3706 11.9971
45.4191 11.9561
45.4673 11.8922
45.5158 11.8621
45.5641 11.8649
45.6126 11.7917
45.6609 11.6901
45.7094 11.6701
45.7577 11.67
45.8063 11.5847
45.8546 11.565
45.9031 11.5231
45.9515 11.5538
46.0001 11.4639
46.0484 11.4359
46.097 11.3768
46.1454 11.3353
46.194 11.317
46.2424 11.2738
46.291 11.1949
46.3395 11.1692
46.3881 11.1373
46.4365 11.078
46.4852 11.0498
46.5337 11.0609
46.5823 10.9885
46.631 10.9128
46.6795 10.8783
46.7282 10.8117
46.7767 10.8575
46.8254 10.7576
46.8739 10.7216
46.9226 10.7175
46.9712 10.6503
47.0199 10.599
47.0685 10.5834
47.1173 10.5114
47.1658 10.5129
47.2146 10.4472
47.2632 10.3989
47.312 10.3671
47.3606 10.309
47.4095 10.2936
47.4581 10.2418
47.5069 10.2067
47.5556 10.1926
47.6044 10.1325
47.6531 10.0672
47.702 10.0353
47.7507 10.0637
47.7996 9.97357
47.8483 9.97858
47.8972 9.94405
47.9461 9.8876
47.9948 9.81126
48.0438 9.8105
48.0925 9.79546
48.1415 9.73598
48.1902 9.70205
48.2392 9.71142
48.288 9.65909
48.337 9.61155
48.3858 9.5985
48.4348 9.5643
48.4837 9.4999
48.5327 9.52368
48.5815 9.4677
48.6306 9.41518
48.6795 9.36168
48.7285 9.30723
48.7774 9.29466
48.8265 9.2775
48.8754 9.20731
48.9245 9.17728
48.9734 9.16981
49.0226 9.14467
49.0715 9.10623
49.1206 9.06988
49.1696 9.02268
49.2188 9.01216
49.2679 8.95621
49.3169 8.94365
49.3661 8.87084
49.4151 8.8596
49.4643 8.83311
49.5134 8.77124
49.5626 8.74128
49.6117 8.68172
49.6609 8.69732
49.71 8.6601
49.7592 8.60172
49.8083 8.57276
49.8576 8.56745
49.9067 8.49554
49.956 8.47833
50.0052 8.46475
50.0545 8.44918
50.1036 8.38274
50.153 8.37753
50.2022 8.32275
50.2515 8.31806
50.3007 8.22408
50.3501 8.22137
50.3993 8.18224
50.4487 8.15095
50.498 8.12248
50.5474 8.07968
50.5966 8.07686
50.6461 8.04254
50.6955 7.9975
50.7448 7.9966
50.7943 7.95074
50.8436 7.92888
50.8931 7.90686
50.9424 7.85358
50.9919 7.83901
51.0413 7.81268
51.0908 7.73274
51.1402 7.75424
51.1897 7.6623
51.2391 7.6965
51.2887 7.63814
51.3381 7.61133
51.3877 7.63402
51.4371 7.52374
51.4867 7.46894
51.5362 7.48803
51.5858 7.45857
51.6353 7.41334
51.6849 7.36262
51.7344 7.34765
51.7841 7.34062
51.8336 7.31777
51.8833 7.26986
51.9328 7.20718
51.9826 7.21088
52.0323 7.13477
52.0818 7.16847
52.1316 7.10151
52.1812 7.10325
52.231 7.04787
52.2806 7.00834
52.3304 6.99629
52.38 6.97478
52.4298 6.95564
52.4794 6.92446
52.5293 6.88806
52.5789 6.86088
52.6288 6.82927
52.6785 6.77721
52.7284 6.78415
52.7781 6.72075
52.828 6.69052
52.8777 6.67307
52.9276 6.63135
52.9774 6.63742
53.0273 6.58097
53.0771 6.60401
53.1271 6.59535
53.1769 6.54197
53.2269 6.50705
53.2767 6.45985
53.3267 6.4506
53.3765 6.40925
53.4266 6.41176
53.4766 6.368
53.5265 6.357
53.5765 6.32144
53.6264 6.30027
53.6765 6.26771
53.7264 6.21846
53.7765 6.18966
53.8265 6.14795
53.8766 6.14552
53.9266 6.13178
53.9767 6.10137
54.0267 6.09433
54.0769 6.02756
54.1269 5.9932
54.1771 5.99016
54.2271 5.93737
54.2773 5.93389
54.3274 5.86081
54.3776 5.8157
54.4277 5.82674
54.478 5.75497
54.528 5.69307
54.5783 5.74065
54.6285 5.69391
54.6788 5.6046
54.7289 5.56582
54.7792 5.57693
54.8296 5.50014
54.8798 5.45106
54.9301 5.40173
54.9803 5.41101
55.0307 5.37367
55.0809 5.33841
55.1314 5.34415
55.1816 5.25164
55.232 5.19485
55.2823 5.09733
55.3328 5.08264
55.383 5.04383
55.4335 5.02658
55.4838 4.96346
55.5344 4.91643
55.5847 4.88482
55.6352 4.81448
55.6856 4.81725
55.7361 4.74767