File: XRD/Ni3Fe_FD0574.xy
TT I
1.27165 7.33322
1.31627 6.63157
1.36089 6.75237
1.40551 5.81151
1.45013 6.03753
1.49476 5.9937
1.53938 5.92623
1.584 5.2843
1.62863 4.5503
1.67325 5.01583
1.71787 5.73742
1.7625 4.56647
1.80712 4.34455
1.85174 4.18403
1.89636 4.81212
1.94099 4.59134
1.98562 4.78664
2.03025 4.20936
2.07487 4.73726
2.11949 4.75188
2.16411 4.37123
2.20874 10.5713
2.25338 14.4561
2.298 5.61868
2.34263 5.39163
2.38725 5.63505
2.43188 6.24146
2.4765 6.91593
2.52115 6.66214
2.56577 7.1067
2.6104 8.09836
2.65503 7.68144
2.69965 7.76386
2.7443 7.26396
2.78893 8.48871
2.83356 8.46254
2.87818 8.63597
2.92281 9.69668
2.96744 9.56998
3.01209 10.7109
3.05672 10.7524
3.10135 12.3417
3.14599 12.6406
3.19062 14.0131
3.23527 15.1854
3.2799 15.7901
3.32454 16.4007
3.36917 17.5172
3.4138 18.4821
3.45844 19.9544
3.50309 20.2752
3.54773 21.609
3.59237 23.05
3.637 59.9234
3.68164 42.6199
3.7263 25.4833
3.77094 26.0563
3.81558 26.2666
3.86022 27.4229
3.90486 28.4733
3.9495 29.6172
3.99416 30.7483
4.0388 32.3076
4.08344 33.2494
4.12809 34.1873
4.17273 36.1532
4.21738 40.8172
4.26204 151.457
4.30669 131.078
4.35133 45.5679
4.39598 44.4078
4.44063 50.5221
4.4853 57.0509
4.52995 52.4281
4.5746 53.4209
4.61925 53.8038
4.6639 55.9463
4.70855 58.7185
4.75322 62.1276
4.79788 66.5313
4.84253 67.8971
4.88719 73.5914
4.93184 76.4171
4.97652 81.955
5.02118 88.6932
5.06583 96.3779
5.11049 109.021
5.15515 163.687
5.19981 459.033
5.24449 3210.03
5.28916 12303.4
5.33382 2823.81
5.37848 196.779
5.42315 131.676
5.46783 116.956
5.5125 109.517
5.55716 103.518
5.60183 99.167
5.6465 97.0715
5.69117 95.4072
5.73586 93.7945
5.78053 94.8521
5.8252 94.8934
5.86988 96.6357
5.91455 97.3024
5.95924 108.426
6.00392 265.36
6.0486 1109.08
6.09328 4488.24
6.13795 3389.19
6.18263 247.98
6.22733 93.7396
6.27201 82.2981
6.3167 89.7511
6.36138 76.5891
6.40606 69.8091
6.45075 68.4214
6.49545 65.4081
6.54014 63.774
6.58483 62.778
6.62952 62.5855
6.67421 78.9885
6.71892 105.304
6.76361 64.007
6.8083 58.8963
6.853 57.968
6.89769 56.8573
6.94239 56.9493
6.98711 55.6729
7.03181 55.5118
7.07651 55.3198
7.12121 55.1074
7.16591 55.4779
7.21063 55.5028
7.25533 63.5642
7.30004 121.059
7.34475 74.3813
7.38945 55.7199
7.43416 54.4468
7.47889 54.0909
7.5236 54.6445
7.56831 55.3003
7.61303 56.2464
7.65774 56.6148
7.70247 56.6408
7.74719 56.6461
7.79191 56.7402
7.83663 56.9564
7.88135 58.037
7.92607 58.7199
7.97081 59.9026
8.01553 61.1818
8.06026 62.6432
8.10498 64.2445
8.14971 70.6184
8.19446 70.5815
8.23919 70.0509
8.28392 72.2402
8.32865 75.0202
8.37339 79.2065
8.41812 85.2775
8.46288 107.645
8.50761 193.201
8.55235 437.172
8.59709 1226.84
8.64183 2173.14
8.68658 941.103
8.73134 163.437
8.77609 100.172
8.82083 93.5113
8.86558 91.0843
8.91033 90.4908
8.9551 89.773
8.99985 85.7076
9.04461 84.2077
9.08936 83.5947
9.13412 82.9239
9.17888 82.89
9.22365 82.8515
9.26841 83.1574
9.31318 83.9526
9.35794 84.3964
9.4027 84.695
9.44749 85.3273
9.49226 84.6969
9.53703 86.4272
9.5818 88.7733
9.62657 92.4654
9.67134 96.0897
9.71614 93.8989
9.76091 95.1011
9.80569 98.3829
9.85047 101.22
9.89525 116.224
9.94005 132.323
9.98484 207.528
10.0296 380.137
10.0744 856.702
10.1192 1708.22
10.164 1517.84
10.2088 371.825
10.2536 125.764
10.2984 111.652
10.3432 110.929
10.388 106.291
10.4328 126.725
10.4776 170.5
10.5224 298.407
10.5672 523.354
10.612 501.469
10.6568 192.335
10.7017 95.6451
10.7465 86.9754
10.7913 83.6723
10.8361 81.5675
10.8809 79.3261
10.9257 78.089
10.9706 78.3125
11.0154 75.2647
11.0602 73.0391
11.105 72.122
11.1499 73.7773
11.1947 76.8714
11.2395 71.7972
11.2844 69.6853
11.3292 67.509
11.374 66.1589
11.4189 65.8319
11.4637 64.9101
11.5086 65.0724
11.5534 66.5402
11.5983 65.0039
11.6431 63.8279
11.688 63.4989
11.7328 63.1878
11.7777 63.0042
11.8225 62.8417
11.8674 62.7833
11.9122 63.1847
11.9571 63.6304
12.002 64.6513
12.0468 70.1069
12.0917 82.0278
12.1366 106.346
12.1814 156.074
12.2263 201.792
12.2712 161.221
12.3161 89.8053
12.3609 68.2217
12.4058 64.8231
12.4507 64.5238
12.4956 64.8455
12.5405 65.0542
12.5853 65.5588
12.6302 70.0139
12.6751 73.0375
12.72 69.1737
12.7649 68.0239
12.8098 68.8842
12.8547 70.0771
12.8996 71.7326
12.9445 73.0558
12.9894 75.0518
13.0343 76.757
13.0792 80.7966
13.1242 94.2718
13.1691 117.684
13.214 158.159
13.2589 250.774
13.3038 373.686
13.3487 423.879
13.3937 251.779
13.4386 121.973
13.4835 110.712
13.5285 126.993
13.5734 168.134
13.6183 256.653
13.6633 353.029
13.7082 333.948
13.7531 181.767
13.7981 96.6032
13.843 82.1549
13.888 79.9412
13.9329 77.6584
13.9779 76.48
14.0228 74.982
14.0678 73.7558
14.1127 73.0109
14.1577 72.6099
14.2027 71.7407
14.2476 71.097
14.2926 70.7158
14.3376 71.227
14.3825 70.3457
14.4275 69.4105
14.4725 69.4336
14.5175 69.333
14.5624 69.3418
14.6074 70.7125
14.6524 71.6487
14.6974 71.1574
14.7424 74.4272
14.7874 82.1364
14.8324 92.4883
14.8774 116.221
14.9224 158.225
14.9674 210.449
15.0124 218.253
15.0574 145.311
15.1024 88.7336
15.1474 72.379
15.1924 70.4781
15.2374 70.412
15.2824 69.4536
15.3274 68.1505
15.3725 67.1787
15.4175 66.7261
15.4625 66.4601
15.5076 66.2724
15.5526 66.5974
15.5976 66.3474
15.6426 68.8002
15.6877 74.7695
15.7327 82.4845
15.7778 99.2224
15.8228 130.997
15.8679 172.793
15.9129 194.206
15.958 151.414
16.003 94.4289
16.0481 67.3574
16.0931 63.952
16.1382 62.1365
16.1833 60.7713
16.2283 58.982
16.2734 58.6069
16.3185 58.4885
16.3636 58.5006
16.4086 57.3412
16.4537 56.4068
16.4988 55.824
16.5439 55.8056
16.589 55.4956
16.6341 55.236
16.6792 54.6499
16.7243 55.0948
16.7694 55.0262
16.8145 55.0875
16.8596 55.3735
16.9047 56.2923
16.9498 56.6822
16.9949 56.0793
17.04 56.4627
17.0851 57.9223
17.1302 59.285
17.1754 62.628
17.2205 67.8889
17.2656 75.13
17.3108 82.9873
17.3559 81.9273
17.401 71.0546
17.4462 62.2094
17.4913 59.5815
17.5365 59.475
17.5815 59.6423
17.6268 60.253
17.6718 60.7114
17.7171 61.1444
17.7622 61.9156
17.8074 62.9956
17.8525 66.1581
17.8977 70.0127
17.9428 75.5851
17.9881 85.395
18.0331 102.977
18.0784 123.76
18.1237 141.784
18.1688 132.786
18.214 102.968
18.2591 87.4125
18.3044 92.0361
18.3495 101.326
18.3948 106.345
18.4399 95.369
18.4852 76.8011
18.5303 65.8011
18.5756 62.6832
18.6207 61.5861
18.666 60.672
18.7112 59.9397
18.7565 59.3168
18.8016 59.1161
18.8469 58.3525
18.892 58.0487
18.9374 57.6517
18.9825 57.4013
19.0278 57.3162
19.073 57.722
19.1183 58.0006
19.1635 58.489
19.2088 60.3089
19.254 63.0329
19.2993 67.4602
19.3447 72.9501
19.3898 76.3363
19.4352 72.1429
19.4804 63.1765
19.5257 56.563
19.5709 54.5076
19.6163 54.1399
19.6615 54.114
19.7068 53.7129
19.752 53.6791
19.7974 54.1757
19.8426 55.0767
19.888 55.5142
19.9332 57.0521
19.9786 59.7584
20.0238 63.487
20.0692 68.0677
20.1144 70.5078
20.1598 68.5022
20.205 63.8412
20.2504 62.6808
20.2957 64.3821
20.3411 65.9366
20.3863 63.9352
20.4318 58.3274
20.477 53.5178
20.5224 51.8607
20.5677 51.084
20.6131 50.4213
20.6586 50.0356
20.7038 49.8562
20.7493 49.4403
20.7945 49.2388
20.84 49.142
20.8853 49.0246
20.9307 49.052
20.976 49.1286
21.0215 48.9609
21.0668 49.3377
21.1122 49.9822
21.1575 50.4457
21.203 51.1492
21.2483 51.7047
21.2938 51.7148
21.3391 50.25
21.3846 49.2808
21.4299 48.7068
21.4754 48.7816
21.5207 48.8769
21.5662 49.5104
21.6116 50.0651
21.6571 50.3687
21.7024 51.5668
21.7479 53.4386
21.7933 56.3612
21.8388 59.6629
21.8843 63.4611
21.9297 65.2697
21.9752 63.6343
22.0206 59.7924
22.0661 56.711
22.1115 56.2588
22.157 56.2913
22.2024 54.3182
22.248 51.757
22.2933 50.0283
22.3389 49.3445
22.3843 49.0988
22.4299 49.2219
22.4753 49.1289
22.5208 48.984
22.5662 48.8942
22.6118 49.0502
22.6572 49.472
22.7028 49.6099
22.7483 50.2668
22.7939 50.9833
22.8393 52.784
22.8849 54.7655
22.9303 56.6361
22.9759 58.1895
23.0214 57.3976
23.067 54.3328
23.1126 51.1651
23.1581 49.3976
23.2037 49.1257
23.2492 49.3737
23.2948 49.175
23.3403 49.679
23.3859 50.3694
23.4314 51.5813
23.477 53.3214
23.5225 55.4608
23.5682 57.4099
23.6137 58.0506
23.6593 55.8304
23.7048 51.6607
23.7505 48.4653
23.796 46.8068
23.8417 46.2303
23.8872 45.8013
23.9329 45.5991
23.9784 45.1022
24.0241 44.9392
24.0697 44.672
24.1154 44.4006
24.1609 44.2898
24.2066 44.1431
24.2522 44.2304
24.2979 43.7541
24.3434 43.6609
24.3892 43.5869
24.4349 43.4657
24.4805 43.3749
24.5262 43.3527
24.5718 43.1934
24.6175 43.1894
24.6631 43.1871
24.7089 42.7988
24.7545 42.6681
24.8002 42.4423
24.8458 42.7147
24.8916 42.2874
24.9372 42.4627
24.983 43.0032
25.0286 43.3351
25.0744 43.721
25.12 44.0797
25.1658 44.7157
25.2114 45.0704
25.2572 45.1151
25.3029 45.1676
25.3487 45.1777
25.3943 44.9394
25.4402 43.6291
25.4858 42.5364
25.5316 41.7062
25.5773 41.0996
25.6231 41.2646
25.669 40.8589
25.7147 40.8373
25.7605 40.6707
25.8062 40.7079
25.8521 40.9547
25.8977 40.9068
25.9436 41.2266
25.9893 41.2739
26.0352 41.7825
26.0809 41.9174
26.1268 42.0842
26.1725 41.7961
26.2184 41.0786
26.2641 40.4378
26.31 40.3795
26.3557 40.3639
26.4017 40.4762
26.4474 40.8583
26.4933 41.1951
26.5391 41.5963
26.585 42.0917
26.6308 42.4195
26.6767 42.535
26.7225 42.2997
26.7684 41.6359
26.8142 41.0615
26.8601 40.7268
26.9059 40.3624
26.9519 39.7685
26.9979 39.4533
27.0437 39.1045
27.0896 39.0896
27.1354 39.0116
27.1814 38.8857
27.2272 38.8589
27.2732 38.8312
27.3191 38.7158
27.3651 38.896
27.4109 38.7681
27.4569 38.8475
27.5027 38.7443
27.5488 38.9555
27.5946 38.7174
27.6407 38.4642
27.6865 38.3413
27.7326 38.1165
27.7784 38.2837
27.8245 38.111
27.8703 38.3244
27.9164 38.5835
27.9623 38.807
28.0084 39.0397
28.0543 39.3875
28.1003 39.2919
28.1462 39.0439
28.1923 38.7201
28.2384 38.2575
28.2843 37.902
28.3304 37.381
28.3764 36.9276
28.4225 36.6408
28.4684 36.5265
28.5145 36.1504
28.5605 36.0257
28.6066 35.9198
28.6526 35.8815
28.6987 35.93
28.7447 35.7684
28.7908 35.69
28.8368 35.7756
28.8829 35.6715
28.9289 35.5231
28.9751 35.4162
29.0211 35.1267
29.0673 34.9499
29.1133 34.7821
29.1595 34.678
29.2055 34.59
29.2517 34.669
29.2977 34.4901
29.3439 34.5398
29.3899 34.3937
29.4361 34.3202
29.4824 34.216
29.5284 33.8998
29.5746 33.6413
29.6207 33.2922
29.6669 33.2839
29.713 33.2191
29.7593 33.1213
29.8053 33.1384
29.8516 32.9997
29.8977 32.9605
29.9439 32.8365
29.99 32.8483
30.0363 32.8139
30.0824 32.796
30.1287 32.5977
30.1748 32.6783
30.2211 32.6163
30.2673 32.5298
30.3136 32.5901
30.3597 32.5239
30.406 32.3773
30.4522 32.2913
30.4985 32.2443
30.5447 32.3949
30.591 32.3218
30.6372 32.393
30.6835 32.4383
30.7297 32.3819
30.7761 32.3718
30.8224 32.1922
30.8686 31.9972
30.915 31.9206
30.9612 31.676
31.0076 31.502
31.0538 31.4054
31.1002 31.3437
31.1464 31.2526
31.1928 31.2336
31.2391 31.2099
31.2855 31.0984
31.3317 31.0768
31.3781 31.1581
31.4244 31.1597
31.4708 31.0787
31.5171 30.9501
31.5636 31.011
31.6098 30.7232
31.6563 30.5876
31.7026 30.5521
31.7491 30.328
31.7953 30.4857
31.8418 30.3615
31.8881 30.4189
31.9346 30.2469
31.9809 30.2829
32.0275 30.109
32.074 30.0187
32.1203 29.8287
32.1668 29.7266
32.2132 29.5765
32.2597 29.5642
32.306 29.4057
32.3526 29.2016
32.399 29.0691
32.4455 28.9773
32.4919 28.8575
32.5385 28.9085
32.5848 28.6901
32.6314 28.7849
32.6778 28.5832
32.7244 28.436
32.7708 28.39
32.8174 28.4204
32.8638 28.3081
32.9104 28.208
32.9569 28.2082
33.0035 28.0868
33.0499 28.0834
33.0966 28.0256
33.143 27.9148
33.1897 27.8892
33.2361 27.8147
33.2828 27.7755
33.3293 27.6054
33.3759 27.4861
33.4226 27.408
33.4691 27.332
33.5158 27.1891
33.5623 27.1104
33.609 26.9849
33.6555 26.9129
33.7022 26.8284
33.7487 26.7038
33.7954 26.6651
33.842 26.5841
33.8887 26.4584
33.9353 26.5062
33.982 26.3423
34.0286 26.3067
34.0753 26.1388
34.1219 26.0577
34.1687 26.0136
34.2152 26.0451
34.262 25.751
34.3086 25.7335
34.3554 25.6721
34.402 25.5609
34.4488 25.4527
34.4954 25.4519
34.5422 25.3977
34.5889 25.237
34.6357 25.1948
34.6825 25.1036
34.7292 24.9915
34.776 24.9367
34.8227 24.8043
34.8695 24.7799
34.9162 24.791
34.9631 24.6697
35.0098 24.6756
35.0566 24.4622
35.1033 24.4432
35.1502 24.4349
35.1969 24.3128
35.2438 24.3285
35.2906 24.2425
35.3375 24.2768
35.3842 24.1006
35.4311 24.1065
35.4779 24.1439
35.5248 24.0769
35.5716 23.9557
35.6185 23.9138
35.6653 23.7967
35.7123 23.6983
35.759 23.6484
35.806 23.5323
35.8528 23.43
35.8998 23.3996
35.9468 23.2735
35.9936 23.2076
36.0406 23.1673
36.0874 23.1406
36.1345 23.0395
36.1813 22.8999
36.2283 22.872
36.2752 22.8156
36.3222 22.8005
36.3691 22.6777
36.4161 22.5405
36.463 22.5849
36.5101 22.566
36.557 22.4716
36.6041 22.3675
36.651 22.3653
36.6981 22.2365
36.745 22.2218
36.7921 22.1042
36.839 22.0266
36.8861 21.9594
36.9331 21.9043
36.9802 21.8327
37.0272 21.7502
37.0743 21.779
37.1213 21.6546
37.1684 21.5269
37.2154 21.5587
37.2626 21.3672
37.3098 21.3697
37.3568 21.3055
37.404 21.216
37.451 21.1076
37.4982 21.0599
37.5452 20.9873
37.5924 20.9131
37.6395 20.9996
37.6867 20.8328
37.7337 20.7606
37.781 20.7387
37.8281 20.6109
37.8753 20.5112
37.9224 20.4849
37.9697 20.398
38.0168 20.3582
38.064 20.2515
38.1111 20.2488
38.1584 20.151
38.2056 20.067
38.2529 20.063
38.3 19.9877
38.3473 19.9759
38.3945 19.8467
38.4418 19.7922
38.489 19.7657
38.5363 19.6174
38.5837 19.5526
38.6309 19.6068
38.6782 19.5364
38.7254 19.3843
38.7728 19.3577
38.82 19.2761
38.8674 19.1861
38.9146 19.1364
38.9621 19.0096
39.0093 19.0532
39.0567 18.9451
39.104 18.8898
39.1514 18.7937
39.1987 18.7597
39.2461 18.8295
39.2934 18.7563
39.3409 18.5943
39.3882 18.5437
39.4356 18.4513
39.483 18.4336
39.5304 18.3573
39.5778 18.367
39.6253 18.2689
39.6726 18.1939
39.7201 18.1724
39.7675 18.1648
39.815 18.0658
39.8624 17.9581
39.9099 18.0174
39.9575 17.8532
40.0049 17.8164
40.0525 17.7294
40.0999 17.694
40.1474 17.6562
40.1949 17.5795
40.2425 17.484
40.2899 17.5192
40.3375 17.4044
40.385 17.3215
40.4326 17.339
40.48 17.2117
40.5277 17.2549
40.5752 17.1543
40.6228 17.0794
40.6703 17.0098
40.718 16.9354
40.7655 16.9875
40.8132 16.8627
40.8607 16.8137
40.9084 16.7289
40.9559 16.7208
41.0036 16.6713
41.0512 16.6145
41.0989 16.5608
41.1465 16.497
41.1942 16.4769
41.242 16.3701
41.2896 16.3558
41.3373 16.2537
41.3849 16.2707
41.4327 16.1249
41.4803 16.0721
41.5281 16.0336
41.5758 15.9921
41.6236 15.9551
41.6712 15.8699
41.7191 15.8322
41.7667 15.8023
41.8146 15.751
41.8622 15.6408
41.9101 15.6024
41.9578 15.5715
42.0057 15.6002
42.0534 15.4464
42.1013 15.4482
42.149 15.3535
42.1969 15.306
42.2446 15.2659
42.2925 15.2355
42.3403 15.159
42.3882 15.0943
42.436 15.0573
42.4839 15.0136
42.5319 14.9567
42.5797 14.9031
42.6277 14.8372
42.6755 14.8424
42.7235 14.7401
42.7713 14.7261
42.8193 14.6331
42.8671 14.5673
42.9152 14.5638
42.963 14.5055
43.0111 14.4151
43.0589 14.3974
43.107 14.3142
43.1549 14.3335
43.2029 14.2228
43.2508 14.2428
43.2989 14.1855
43.3468 14.1142
43.3949 14.0527
43.4429 14.0604
43.491 13.9302
43.5389 13.9064
43.5871 13.8693
43.635 13.8081
43.6832 13.7711
43.7312 13.7439
43.7793 13.6473
43.8273 13.6374
43.8755 13.567
43.9237 13.5115
43.9717 13.5489
44.0199 13.4819
44.068 13.4231
44.1162 13.3398
44.1642 13.3275
44.2125 13.2822
44.2606 13.2005
44.3088 13.1778
44.3569 13.1128
44.4052 13.1271
44.4533 13.0131
44.5016 12.9468
44.5497 12.9316
44.598 12.8914
44.6461 12.8575
44.6945 12.7678
44.7426 12.7666
44.791 12.6932
44.8391 12.6507
44.8875 12.6405
44.9357 12.537
44.984 12.5173
45.0322 12.4918
45.0806 12.4374
45.1288 12.4063
45.1773 12.3296
45.2257 12.3718
45.2739 12.2905
45.3224 12.2837
45.3706 12.1725
45.4191 12.1472
45.4673 12.1107
45.5158 12.0439
45.5641 12.0165
45.6126 11.9469
45.6609 11.9601
45.7094 11.876
45.7577 11.8473
45.8063 11.7837
45.8546 11.7906
45.9031 11.6683
45.9515 11.7118
46.0001 11.6308
46.0484 11.6315
46.097 11.5746
46.1454 11.5263
46.194 11.5022
46.2424 11.5093
46.291 11.3862
46.3395 11.3446
46.3881 11.2646
46.4365 11.276
46.4852 11.1975
46.5337 11.1817
46.5823 11.1513
46.631 11.0791
46.6795 11.0422
46.7282 11.0605
46.7767 10.9885
46.8254 10.9098
46.8739 10.8854
46.9226 10.855
46.9712 10.8159
47.0199 10.7838
47.0685 10.7174
47.1173 10.6838
47.1658 10.6259
47.2146 10.6364
47.2632 10.5905
47.312 10.5651
47.3606 10.4756
47.4095 10.462
47.4581 10.4639
47.5069 10.4174
47.5556 10.3118
47.6044 10.2926
47.6531 10.2558
47.702 10.1972
47.7507 10.2077
47.7996 10.1499
47.8483 10.1237
47.8972 10.1177
47.9461 10.0477
47.9948 10.0073
48.0438 10.0131
48.0925 9.91687
48.1415 9.89573
48.1902 9.84644
48.2392 9.81601
48.288 9.81284
48.337 9.7557
48.3858 9.7266
48.4348 9.68806
48.4837 9.70413
48.5327 9.64066
48.5815 9.5692
48.6306 9.56419
48.6795 9.54983
48.7285 9.50167
48.7774 9.43396
48.8265 9.45071
48.8754 9.39406
48.9245 9.33996
48.9734 9.31271
49.0226 9.28002
49.0715 9.2244
49.1206 9.19419
49.1696 9.17952
49.2188 9.15648
49.2679 9.08582
49.3169 9.08173
49.3661 9.01335
49.4151 9.00299
49.4643 8.94824
49.5134 8.90338
49.5626 8.83474
49.6117 8.84834
49.6609 8.81966
49.71 8.78215
49.7592 8.75431
49.8083 8.70289
49.8576 8.68292
49.9067 8.65029
49.956 8.61436
50.0052 8.59156
50.0545 8.55139
50.1036 8.5046
50.153 8.43809
50.2022 8.45059
50.2515 8.43459
50.3007 8.37497
50.3501 8.32887
50.3993 8.34134
50.4487 8.27487
50.498 8.24484
50.5474 8.25531
50.5966 8.18019
50.6461 8.14722
50.6955 8.12938
50.7448 8.13186
50.7943 8.09556
50.8436 8.0556
50.8931 7.99316
50.9424 7.98748
50.9919 7.97382
51.0413 7.90544
51.0908 7.89891
51.1402 7.8462
51.1897 7.83279
51.2391 7.79175
51.2887 7.74955
51.3381 7.72422
51.3877 7.68039
51.4371 7.65561
51.4867 7.60284
51.5362 7.59289
51.5858 7.57834
51.6353 7.53141
51.6849 7.48737
51.7344 7.499
51.7841 7.42906
51.8336 7.42509
51.8833 7.38411
51.9328 7.36091
51.9826 7.29323
52.0323 7.28359
52.0818 7.23612
52.1316 7.20391
52.1812 7.21451
52.231 7.17771
52.2806 7.1251
52.3304 7.09531
52.38 7.08035
52.4298 7.06648
52.4794 6.99581
52.5293 7.02759
52.5789 6.96285
52.6288 6.94703
52.6785 6.86714
52.7284 6.90228
52.7781 6.84441
52.828 6.81501
52.8777 6.81764
52.9276 6.7474
52.9774 6.75676
53.0273 6.7082
53.0771 6.68893
53.1271 6.68553
53.1769 6.64318
53.2269 6.60134
53.2767 6.54199
53.3267 6.47004
53.3765 6.52275
53.4266 6.47209
53.4766 6.4323
53.5265 6.44234
53.5765 6.41107
53.6264 6.40415
53.6765 6.32597
53.7264 6.30706
53.7765 6.28346
53.8265 6.26641
53.8766 6.21128
53.9266 6.20436
53.9767 6.16165
54.0267 6.14779
54.0769 6.13289
54.1269 6.12911
54.1771 6.06951
54.2271 5.98498
54.2773 5.96338
54.3274 6.00577
54.3776 5.92722
54.4277 5.91426
54.478 5.86877
54.528 5.86311
54.5783 5.83042
54.6285 5.74166
54.6788 5.73026
54.7289 5.66042
54.7792 5.59594
54.8296 5.62053
54.8798 5.55837
54.9301 5.53797
54.9803 5.49445
55.0307 5.45017
55.0809 5.37231
55.1314 5.40029
55.1816 5.35168
55.232 5.21025
55.2823 5.26143
55.3328 5.17162
55.383 5.12556
55.4335 5.10548
55.4838 5.00878
55.5344 5.01368
55.5847 4.95115
55.6352 4.91569
55.6856 4.88459
55.7361 4.82521