File: XRD/Ni3Fe_FD0613.xy
TT I
1.27165 7.91561
1.31627 6.6804
1.36089 6.66784
1.40551 6.39906
1.45013 5.99777
1.49476 6.64645
1.53938 5.98072
1.584 5.07832
1.62863 6.09119
1.67325 5.7016
1.71787 5.77521
1.7625 4.83502
1.80712 4.84833
1.85174 5.21331
1.89636 4.25589
1.94099 5.01625
1.98562 4.72088
2.03025 4.35643
2.07487 4.47447
2.11949 5.33236
2.16411 4.67963
2.20874 12.7648
2.25338 20.4172
2.298 5.86214
2.34263 5.70179
2.38725 5.9459
2.43188 6.24782
2.4765 6.59996
2.52115 7.13539
2.56577 6.98183
2.6104 8.12538
2.65503 7.38447
2.69965 7.9997
2.7443 8.40154
2.78893 7.7596
2.83356 8.22602
2.87818 8.5565
2.92281 9.3385
2.96744 9.59143
3.01209 10.029
3.05672 10.8096
3.10135 12.107
3.14599 13.0045
3.19062 13.8922
3.23527 15.3413
3.2799 16.1763
3.32454 16.9999
3.36917 18.3394
3.4138 19.1765
3.45844 19.836
3.50309 20.9251
3.54773 21.7221
3.59237 23.6505
3.637 84.1508
3.68164 54.9787
3.7263 26.5915
3.77094 26.137
3.81558 26.69
3.86022 27.4865
3.90486 28.967
3.9495 29.3841
3.99416 30.9057
4.0388 32.2424
4.08344 33.7694
4.12809 35.0036
4.17273 36.611
4.21738 42.9182
4.26204 222.16
4.30669 193.052
4.35133 47.9893
4.39598 44.3921
4.44063 53.3325
4.4853 63.0586
4.52995 50.7045
4.5746 51.1686
4.61925 53.648
4.6639 55.4719
4.70855 58.3542
4.75322 61.576
4.79788 63.9117
4.84253 67.3737
4.88719 71.6182
4.93184 75.349
4.97652 81.0463
5.02118 87.3401
5.06583 94.9187
5.11049 106.239
5.15515 169.031
5.19981 359.856
5.24449 2921.26
5.28916 12499.5
5.33382 3046.11
5.37848 195.483
5.42315 130.457
5.46783 114.492
5.5125 106.744
5.55716 102.697
5.60183 99.1149
5.6465 97.0982
5.69117 94.5743
5.73586 92.7347
5.78053 92.068
5.8252 91.2085
5.86988 92.3425
5.91455 94.5327
5.95924 102.771
6.00392 209.498
6.0486 986.573
6.09328 4356.97
6.13795 3510.75
6.18263 261.456
6.22733 94.58
6.27201 83.2912
6.3167 99.4394
6.36138 80.1833
6.40606 69.1102
6.45075 67.4835
6.49545 65.836
6.54014 63.9594
6.58483 63.0581
6.62952 62.7859
6.67421 90.8523
6.71892 134.636
6.76361 68.035
6.8083 58.289
6.853 57.4183
6.89769 56.7666
6.94239 56.7092
6.98711 55.854
7.03181 55.5004
7.07651 55.2
7.12121 55.1975
7.16591 55.042
7.21063 55.611
7.25533 69.4888
7.30004 164.828
7.34475 87.0755
7.38945 56.7706
7.43416 54.9277
7.47889 54.7159
7.5236 54.946
7.56831 55.4572
7.61303 56.8135
7.65774 57.1698
7.70247 56.2315
7.74719 56.3967
7.79191 56.7917
7.83663 56.8214
7.88135 57.9718
7.92607 58.9096
7.97081 59.8941
8.01553 61.0274
8.06026 62.2026
8.10498 64.0268
8.14971 72.5405
8.19446 72.0052
8.23919 69.6122
8.28392 71.8404
8.32865 74.2098
8.37339 78.4602
8.41812 85.3279
8.46288 111.68
8.50761 164.266
8.55235 396.175
8.59709 1201.09
8.64183 2219.29
8.68658 1006.59
8.73134 179.425
8.77609 100.809
8.82083 93.1605
8.86558 90.1291
8.91033 90.0153
8.9551 90.9859
8.99985 85.7409
9.04461 83.8508
9.08936 83.2293
9.13412 82.5816
9.17888 82.1068
9.22365 82.6784
9.26841 82.1632
9.31318 82.9796
9.35794 82.9191
9.4027 83.5657
9.44749 83.9823
9.49226 84.9184
9.53703 85.4055
9.5818 87.5642
9.62657 91.8435
9.67134 98.0042
9.71614 93.8812
9.76091 94.3882
9.80569 96.8228
9.85047 100.021
9.89525 121.908
9.94005 133.758
9.98484 177.416
10.0296 344.912
10.0744 827.076
10.1192 1695.25
10.164 1585.15
10.2088 424.343
10.2536 129.43
10.2984 113.654
10.3432 114.168
10.388 104.908
10.4328 119.339
10.4776 162.413
10.5224 286.412
10.5672 502.77
10.612 490.199
10.6568 204.794
10.7017 97.6275
10.7465 86.8601
10.7913 83.5661
10.8361 81.4304
10.8809 79.2557
10.9257 78.6142
10.9706 78.8955
11.0154 75.2066
11.0602 72.857
11.105 71.9391
11.1499 75.7963
11.1947 81.8694
11.2395 73.964
11.2844 70.3354
11.3292 67.4165
11.374 66.2314
11.4189 65.7709
11.4637 65.1667
11.5086 65.5309
11.5534 68.0167
11.5983 65.5898
11.6431 63.8345
11.688 63.1698
11.7328 63.1103
11.7777 63.1057
11.8225 62.6644
11.8674 62.6122
11.9122 62.8186
11.9571 62.9417
12.002 63.9536
12.0468 67.9466
12.0917 79.4736
12.1366 103.726
12.1814 153.153
12.2263 199.695
12.2712 167.424
12.3161 97.3595
12.3609 70.5211
12.4058 64.9595
12.4507 64.4908
12.4956 64.5538
12.5405 64.7391
12.5853 65.7315
12.6302 72.5471
12.6751 77.5625
12.72 69.6653
12.7649 67.9709
12.8098 68.4759
12.8547 70.0258
12.8996 71.3099
12.9445 72.4865
12.9894 74.4701
13.0343 75.7774
13.0792 79.1255
13.1242 88.3238
13.1691 112.379
13.214 150.874
13.2589 241.987
13.3038 366.011
13.3487 421.486
13.3937 274.457
13.4386 129.18
13.4835 106.343
13.5285 120.844
13.5734 160.311
13.6183 249.905
13.6633 344.173
13.7082 340.447
13.7531 194.719
13.7981 100.319
13.843 82.2028
13.888 79.9052
13.9329 77.4907
13.9779 76.386
14.0228 74.9722
14.0678 73.3394
14.1127 72.7776
14.1577 72.64
14.2027 71.6481
14.2476 70.8352
14.2926 70.9394
14.3376 71.8182
14.3825 70.6685
14.4275 68.9636
14.4725 68.925
14.5175 69.1488
14.5624 69.3402
14.6074 71.0048
14.6524 72.0094
14.6974 70.696
14.7424 72.5029
14.7874 78.7577
14.8324 89.5255
14.8774 112.134
14.9224 155.758
14.9674 205.096
15.0124 214.635
15.0574 153.322
15.1024 93.7273
15.1474 72.8725
15.1924 70.8985
15.2374 71.0768
15.2824 70.3196
15.3274 68.2975
15.3725 67.1767
15.4175 66.7021
15.4625 66.2789
15.5076 66.3452
15.5526 66.6158
15.5976 66.0636
15.6426 66.7954
15.6877 72.4614
15.7327 80.274
15.7778 96.1968
15.8228 127.844
15.8679 168.883
15.9129 190.081
15.958 156.096
16.003 98.7749
16.0481 68.9349
16.0931 64.8195
16.1382 62.8383
16.1833 60.7171
16.2283 59.1353
16.2734 58.6834
16.3185 58.7697
16.3636 59.4216
16.4086 57.8638
16.4537 56.5271
16.4988 55.6375
16.5439 55.8423
16.589 55.5013
16.6341 55.1376
16.6792 54.818
16.7243 54.9897
16.7694 55.3143
16.8145 54.9094
16.8596 55.2693
16.9047 56.7202
16.9498 57.1319
16.9949 55.8594
17.04 55.9948
17.0851 57.2779
17.1302 58.7928
17.1754 62.0517
17.2205 67.1106
17.2656 74.7218
17.3108 81.9641
17.3559 82.3848
17.401 72.9218
17.4462 63.2646
17.4913 59.6113
17.5365 59.3082
17.5815 59.5122
17.6268 59.8203
17.6718 60.5095
17.7171 61.0064
17.7622 61.4643
17.8074 62.2978
17.8525 64.7359
17.8977 68.4436
17.9428 74.1492
17.9881 83.3727
18.0331 101.018
18.0784 122.087
18.1237 139.202
18.1688 132.822
18.214 105.8
18.2591 88.6852
18.3044 91.4361
18.3495 100.175
18.3948 105.233
18.4399 97.328
18.4852 79.153
18.5303 66.736
18.5756 62.5264
18.6207 61.6523
18.666 60.536
18.7112 59.8183
18.7565 59.3775
18.8016 59.005
18.8469 58.4152
18.892 58.1719
18.9374 57.4482
18.9825 57.1503
19.0278 57.1764
19.073 57.1399
19.1183 57.6248
19.1635 58.5615
19.2088 59.8758
19.254 62.4828
19.2993 67.0719
19.3447 72.9928
19.3898 76.0689
19.4352 72.7205
19.4804 64.5467
19.5257 57.4933
19.5709 54.6859
19.6163 54.1755
19.6615 53.9721
19.7068 53.5774
19.752 53.7999
19.7974 53.8039
19.8426 54.5398
19.888 55.3563
19.9332 56.3655
19.9786 59.0816
20.0238 62.7872
20.0692 67.3025
20.1144 69.4952
20.1598 68.4335
20.205 64.2591
20.2504 62.642
20.2957 64.1517
20.3411 65.7889
20.3863 64.5815
20.4318 59.4277
20.477 54.091
20.5224 51.9581
20.5677 51.1396
20.6131 50.5738
20.6586 49.9408
20.7038 49.8314
20.7493 49.4789
20.7945 49.1609
20.84 49.044
20.8853 48.9936
20.9307 48.6663
20.976 48.8304
21.0215 48.828
21.0668 49.2334
21.1122 49.7641
21.1575 50.2912
21.203 51.022
21.2483 51.5825
21.2938 51.4073
21.3391 50.3548
21.3846 49.0942
21.4299 48.6071
21.4754 48.6153
21.5207 48.8411
21.5662 49.0281
21.6116 49.5715
21.6571 50.0488
21.7024 50.9518
21.7479 52.9705
21.7933 55.7606
21.8388 59.1188
21.8843 62.7878
21.9297 64.3405
21.9752 63.5463
22.0206 60.3449
22.0661 57.1799
22.1115 56.3943
22.157 56.198
22.2024 54.4822
22.248 51.9605
22.2933 50.3171
22.3389 49.202
22.3843 49.2802
22.4299 49.157
22.4753 49.1418
22.5208 48.9489
22.5662 48.6549
22.6118 48.8718
22.6572 48.998
22.7028 49.6023
22.7483 49.8731
22.7939 50.7275
22.8393 52.1633
22.8849 54.5145
22.9303 56.1609
22.9759 57.698
23.0214 57.4924
23.067 55.019
23.1126 51.6914
23.1581 49.674
23.2037 49.0584
23.2492 49.1593
23.2948 49.0145
23.3403 49.2679
23.3859 49.8711
23.4314 51.0437
23.477 52.9991
23.5225 55.1321
23.5682 56.9731
23.6137 57.706
23.6593 55.8703
23.7048 52.1077
23.7505 48.9449
23.796 46.9445
23.8417 46.2212
23.8872 45.7592
23.9329 45.4066
23.9784 45.1059
24.0241 44.8919
24.0697 44.6058
24.1154 44.3351
24.1609 44.102
24.2066 43.9994
24.2522 43.8979
24.2979 43.6583
24.3434 43.515
24.3892 43.303
24.4349 43.3542
24.4805 43.1628
24.5262 43.2667
24.5718 43.0987
24.6175 43.1488
24.6631 42.9981
24.7089 42.7199
24.7545 42.4873
24.8002 42.395
24.8458 42.5512
24.8916 42.2709
24.9372 42.4311
24.983 42.7691
25.0286 43.0965
25.0744 43.486
25.12 43.9528
25.1658 44.4582
25.2114 44.8568
25.2572 44.9804
25.3029 45.072
25.3487 45.0898
25.3943 44.6236
25.4402 43.7909
25.4858 42.7679
25.5316 41.9046
25.5773 41.2198
25.6231 41.0923
25.669 40.7467
25.7147 40.6844
25.7605 40.6467
25.8062 40.651
25.8521 40.7766
25.8977 40.775
25.9436 41.2205
25.9893 41.1392
26.0352 41.6157
26.0809 41.6703
26.1268 41.8715
26.1725 41.5291
26.2184 41.0307
26.2641 40.546
26.31 40.2864
26.3557 40.335
26.4017 40.2996
26.4474 40.587
26.4933 41.0163
26.5391 41.4395
26.585 41.8897
26.6308 42.3618
26.6767 42.3931
26.7225 42.1432
26.7684 41.7741
26.8142 41.1529
26.8601 40.6914
26.9059 40.1665
26.9519 39.7866
26.9979 39.4884
27.0437 39.1296
27.0896 38.8494
27.1354 38.9902
27.1814 38.6252
27.2272 38.7671
27.2732 38.7324
27.3191 38.509
27.3651 38.7529
27.4109 38.6402
27.4569 38.748
27.5027 38.696
27.5488 38.7818
27.5946 38.5044
27.6407 38.4609
27.6865 38.343
27.7326 38.1823
27.7784 38.0445
27.8245 37.9934
27.8703 38.2132
27.9164 38.546
27.9623 38.5667
28.0084 39.0175
28.0543 39.3107
28.1003 39.2583
28.1462 39.0912
28.1923 38.6712
28.2384 38.1847
28.2843 37.7234
28.3304 37.3722
28.3764 36.9214
28.4225 36.6002
28.4684 36.5038
28.5145 36.1096
28.5605 36.1938
28.6066 35.8272
28.6526 35.862
28.6987 35.8542
28.7447 35.6722
28.7908 35.6491
28.8368 35.6443
28.8829 35.5505
28.9289 35.3728
28.9751 35.2798
29.0211 35.1626
29.0673 34.7582
29.1133 34.7948
29.1595 34.6373
29.2055 34.5129
29.2517 34.5367
29.2977 34.608
29.3439 34.4569
29.3899 34.3887
29.4361 34.2627
29.4824 34.1011
29.5284 34.0556
29.5746 33.7185
29.6207 33.2814
29.6669 33.251
29.713 33.2071
29.7593 33.02
29.8053 33.0954
29.8516 32.9238
29.8977 33.1444
29.9439 32.9064
29.99 32.682
30.0363 32.6161
30.0824 32.6679
30.1287 32.6997
30.1748 32.612
30.2211 32.5188
30.2673 32.4108
30.3136 32.6291
30.3597 32.4865
30.406 32.3953
30.4522 32.3295
30.4985 32.1374
30.5447 32.443
30.591 32.3477
30.6372 32.4172
30.6835 32.3325
30.7297 32.3539
30.7761 32.3354
30.8224 32.0329
30.8686 32.079
30.915 31.8791
30.9612 31.6513
31.0076 31.4359
31.0538 31.3656
31.1002 31.2717
31.1464 31.1209
31.1928 31.137
31.2391 31.1313
31.2855 31.0578
31.3317 31.0701
31.3781 31.0467
31.4244 31.0377
31.4708 31.031
31.5171 31.0157
31.5636 30.9189
31.6098 30.6803
31.6563 30.6174
31.7026 30.3572
31.7491 30.2922
31.7953 30.3714
31.8418 30.3506
31.8881 30.3261
31.9346 30.178
31.9809 30.2215
32.0275 30.1236
32.074 29.9815
32.1203 29.7744
32.1668 29.7265
32.2132 29.5052
32.2597 29.404
32.306 29.3807
32.3526 29.1001
32.399 28.9973
32.4455 28.932
32.4919 28.8052
32.5385 28.8309
32.5848 28.6417
32.6314 28.7385
32.6778 28.5695
32.7244 28.5172
32.7708 28.4236
32.8174 28.3521
32.8638 28.1581
32.9104 28.2226
32.9569 28.1471
33.0035 27.9687
33.0499 28.0617
33.0966 28.055
33.143 28.0785
33.1897 27.8633
33.2361 27.713
33.2828 27.7115
33.3293 27.5188
33.3759 27.5441
33.4226 27.4439
33.4691 27.3128
33.5158 27.2193
33.5623 27.0073
33.609 26.9333
33.6555 26.8758
33.7022 26.7729
33.7487 26.6452
33.7954 26.661
33.842 26.5217
33.8887 26.5078
33.9353 26.3565
33.982 26.25
34.0286 26.2006
34.0753 26.1329
34.1219 26.067
34.1687 26.017
34.2152 25.9437
34.262 25.8509
34.3086 25.6914
34.3554 25.6962
34.402 25.5547
34.4488 25.4719
34.4954 25.3561
34.5422 25.3176
34.5889 25.2123
34.6357 25.0901
34.6825 25.0911
34.7292 24.9942
34.776 24.7938
34.8227 24.7769
34.8695 24.8277
34.9162 24.7605
34.9631 24.6185
35.0098 24.6476
35.0566 24.4531
35.1033 24.4493
35.1502 24.3546
35.1969 24.3717
35.2438 24.3528
35.2906 24.2666
35.3375 24.2485
35.3842 24.0624
35.4311 24.1211
35.4779 24.1209
35.5248 24.0124
35.5716 23.9136
35.6185 23.8669
35.6653 23.7259
35.7123 23.6713
35.759 23.717
35.806 23.45
35.8528 23.3664
35.8998 23.3044
35.9468 23.237
35.9936 23.1792
36.0406 23.1595
36.0874 23.1065
36.1345 23.0467
36.1813 22.9257
36.2283 22.8774
36.2752 22.7374
36.3222 22.7546
36.3691 22.6338
36.4161 22.5187
36.463 22.553
36.5101 22.5882
36.557 22.4595
36.6041 22.307
36.651 22.2989
36.6981 22.2768
36.745 22.2515
36.7921 22.1204
36.839 22.0326
36.8861 21.9328
36.9331 21.8965
36.9802 21.8277
37.0272 21.6798
37.0743 21.6768
37.1213 21.6042
37.1684 21.4694
37.2154 21.4781
37.2626 21.4096
37.3098 21.2901
37.3568 21.2538
37.404 21.1253
37.451 21.136
37.4982 21.0101
37.5452 20.9257
37.5924 20.8269
37.6395 20.9361
37.6867 20.865
37.7337 20.6627
37.781 20.6111
37.8281 20.6618
37.8753 20.4755
37.9224 20.408
37.9697 20.3423
38.0168 20.3032
38.064 20.2259
38.1111 20.1808
38.1584 20.0887
38.2056 20.0857
38.2529 20.0347
38.3 19.9399
38.3473 19.8769
38.3945 19.8259
38.4418 19.7461
38.489 19.6916
38.5363 19.6695
38.5837 19.5879
38.6309 19.5518
38.6782 19.4463
38.7254 19.3783
38.7728 19.34
38.82 19.2591
38.8674 19.1897
38.9146 19.1973
38.9621 19.0527
39.0093 19.0313
39.0567 18.9048
39.104 18.9044
39.1514 18.8585
39.1987 18.8014
39.2461 18.7428
39.2934 18.6988
39.3409 18.5682
39.3882 18.473
39.4356 18.479
39.483 18.4251
39.5304 18.3486
39.5778 18.3841
39.6253 18.2848
39.6726 18.1406
39.7201 18.1382
39.7675 18.1339
39.815 17.9809
39.8624 17.9063
39.9099 17.966
39.9575 17.8242
40.0049 17.7694
40.0525 17.7572
40.0999 17.707
40.1474 17.6278
40.1949 17.5689
40.2425 17.5198
40.2899 17.4652
40.3375 17.3872
40.385 17.2926
40.4326 17.2966
40.48 17.2574
40.5277 17.23
40.5752 17.1302
40.6228 17.0351
40.6703 17.0799
40.718 16.9749
40.7655 16.9168
40.8132 16.8966
40.8607 16.8318
40.9084 16.8348
40.9559 16.7088
41.0036 16.6966
41.0512 16.6485
41.0989 16.5529
41.1465 16.4643
41.1942 16.4467
41.242 16.3482
41.2896 16.3528
41.3373 16.2627
41.3849 16.1892
41.4327 16.1478
41.4803 16.083
41.5281 16.0726
41.5758 16.0085
41.6236 15.9721
41.6712 15.8657
41.7191 15.8311
41.7667 15.7665
41.8146 15.7845
41.8622 15.6866
41.9101 15.659
41.9578 15.5427
42.0057 15.4873
42.0534 15.4608
42.1013 15.4363
42.149 15.3323
42.1969 15.3192
42.2446 15.3195
42.2925 15.1887
42.3403 15.1255
42.3882 15.1135
42.436 15.0681
42.4839 14.9755
42.5319 14.9728
42.5797 14.9032
42.6277 14.8676
42.6755 14.8
42.7235 14.7773
42.7713 14.7115
42.8193 14.5969
42.8671 14.5867
42.9152 14.5101
42.963 14.4997
43.0111 14.4309
43.0589 14.4397
43.107 14.3177
43.1549 14.3432
43.2029 14.2184
43.2508 14.2406
43.2989 14.1286
43.3468 14.0752
43.3949 14.0577
43.4429 13.988
43.491 13.9593
43.5389 13.9363
43.5871 13.8801
43.635 13.8194
43.6832 13.7886
43.7312 13.7311
43.7793 13.6678
43.8273 13.6197
43.8755 13.5681
43.9237 13.5316
43.9717 13.4963
44.0199 13.4127
44.068 13.3669
44.1162 13.3381
44.1642 13.3385
44.2125 13.2796
44.2606 13.2279
44.3088 13.1415
44.3569 13.1502
44.4052 13.0575
44.4533 13.0143
44.5016 12.9418
44.5497 12.9263
44.598 12.9151
44.6461 12.8492
44.6945 12.7715
44.7426 12.6851
44.791 12.6646
44.8391 12.6204
44.8875 12.6354
44.9357 12.5978
44.984 12.5644
45.0322 12.4927
45.0806 12.4349
45.1288 12.4079
45.1773 12.3234
45.2257 12.365
45.2739 12.2997
45.3224 12.2265
45.3706 12.1844
45.4191 12.1352
45.4673 12.11
45.5158 12.0706
45.5641 12.0021
45.6126 12.0108
45.6609 11.9326
45.7094 11.8835
45.7577 11.8451
45.8063 11.7726
45.8546 11.763
45.9031 11.7151
45.9515 11.7016
46.0001 11.6242
46.0484 11.5844
46.097 11.5849
46.1454 11.5524
46.194 11.4589
46.2424 11.4401
46.291 11.3671
46.3395 11.3252
46.3881 11.3095
46.4365 11.2634
46.4852 11.2162
46.5337 11.1877
46.5823 11.1329
46.631 11.083
46.6795 11.0668
46.7282 11.0501
46.7767 10.9632
46.8254 10.8925
46.8739 10.9263
46.9226 10.8985
46.9712 10.7494
47.0199 10.7331
47.0685 10.7043
47.1173 10.6796
47.1658 10.664
47.2146 10.613
47.2632 10.533
47.312 10.5698
47.3606 10.5157
47.4095 10.42
47.4581 10.4413
47.5069 10.3591
47.5556 10.3577
47.6044 10.3324
47.6531 10.2588
47.702 10.2058
47.7507 10.1733
47.7996 10.1287
47.8483 10.1156
47.8972 10.0934
47.9461 10.0285
47.9948 10.0077
48.0438 9.97305
48.0925 9.92868
48.1415 9.86828
48.1902 9.86442
48.2392 9.84435
48.288 9.81495
48.337 9.75757
48.3858 9.72535
48.4348 9.66453
48.4837 9.64767
48.5327 9.6282
48.5815 9.5863
48.6306 9.5822
48.6795 9.51933
48.7285 9.45084
48.7774 9.4498
48.8265 9.43563
48.8754 9.35597
48.9245 9.34536
48.9734 9.32239
49.0226 9.2685
49.0715 9.22007
49.1206 9.22533
49.1696 9.16533
49.2188 9.13089
49.2679 9.0769
49.3169 9.04884
49.3661 9.02788
49.4151 8.9899
49.4643 8.95721
49.5134 8.91689
49.5626 8.86666
49.6117 8.888
49.6609 8.8133
49.71 8.77017
49.7592 8.75949
49.8083 8.66758
49.8576 8.70184
49.9067 8.6428
49.956 8.62419
50.0052 8.55733
50.0545 8.57016
50.1036 8.47564
50.153 8.49385
50.2022 8.44702
50.2515 8.39281
50.3007 8.35845
50.3501 8.35773
50.3993 8.32513
50.4487 8.28589
50.498 8.24877
50.5474 8.24084
50.5966 8.14489
50.6461 8.18838
50.6955 8.16265
50.7448 8.12466
50.7943 8.02827
50.8436 8.04762
50.8931 8.01809
50.9424 7.98691
50.9919 7.95921
51.0413 7.86556
51.0908 7.88797
51.1402 7.85006
51.1897 7.80922
51.2391 7.76707
51.2887 7.75535
51.3381 7.7092
51.3877 7.69551
51.4371 7.66167
51.4867 7.60322
51.5362 7.59456
51.5858 7.58369
51.6353 7.52806
51.6849 7.47414
51.7344 7.44879
51.7841 7.45632
51.8336 7.42019
51.8833 7.40246
51.9328 7.33514
51.9826 7.30736
52.0323 7.25827
52.0818 7.26687
52.1316 7.19528
52.1812 7.1927
52.231 7.13311
52.2806 7.13702
52.3304 7.0953
52.38 7.06715
52.4298 7.03287
52.4794 7.01953
52.5293 6.99225
52.5789 6.96839
52.6288 6.92187
52.6785 6.89318
52.7284 6.87439
52.7781 6.87703
52.828 6.81629
52.8777 6.79964
52.9276 6.76332
52.9774 6.75366
53.0273 6.68529
53.0771 6.69269
53.1271 6.64216
53.1769 6.63068
53.2269 6.61032
53.2767 6.54997
53.3267 6.57164
53.3765 6.49064
53.4266 6.48901
53.4766 6.43562
53.5265 6.37001
53.5765 6.41513
53.6264 6.36125
53.6765 6.34648
53.7264 6.29019
53.7765 6.31543
53.8265 6.25445
53.8766 6.22946
53.9266 6.1822
53.9767 6.19994
54.0267 6.17632
54.0769 6.11833
54.1269 6.06777
54.1771 6.05829
54.2271 6.0283
54.2773 5.94664
54.3274 6.00329
54.3776 5.93203
54.4277 5.89658
54.478 5.90521
54.528 5.79344
54.5783 5.80146
54.6285 5.75674
54.6788 5.69546
54.7289 5.70972
54.7792 5.61921
54.8296 5.55938
54.8798 5.54521
54.9301 5.514
54.9803 5.44324
55.0307 5.46468
55.0809 5.42725
55.1314 5.42197
55.1816 5.26087
55.232 5.32164
55.2823 5.24378
55.3328 5.15588
55.383 5.14437
55.4335 5.10361
55.4838 4.99825
55.5344 5.0468
55.5847 4.92565
55.6352 4.91317
55.6856 4.8806
55.7361 4.8043