File: XRD/Ni3Fe_FD0020.xy
TT I
1.27165 34.4482
1.31627 34.8582
1.36089 33.7419
1.40551 30.3089
1.45013 30.4721
1.49476 29.0316
1.53938 28.5579
1.584 27.0006
1.62863 26.652
1.67325 25.9515
1.71787 26.1263
1.7625 24.8993
1.80712 25.054
1.85174 24.1201
1.89636 24.5379
1.94099 24.1078
1.98562 24.3992
2.03025 23.9321
2.07487 24.4105
2.11949 24.9162
2.16411 25.6827
2.20874 26.0051
2.25338 26.2064
2.298 26.5655
2.34263 25.4573
2.38725 25.2096
2.43188 25.11
2.4765 25.8487
2.52115 25.0593
2.56577 25.891
2.6104 26.5368
2.65503 27.1624
2.69965 29.2945
2.7443 30.1484
2.78893 32.9886
2.83356 35.8598
2.87818 38.6026
2.92281 43.5949
2.96744 48.5393
3.01209 57.0951
3.05672 65.6049
3.10135 75.6953
3.14599 82.7384
3.19062 83.249
3.23527 77.5557
3.2799 66.9289
3.32454 55.8055
3.36917 47.7365
3.4138 42.4031
3.45844 39.4557
3.50309 37.8773
3.54773 37.3197
3.59237 38.4024
3.637 39.9252
3.68164 40.6487
3.7263 40.5824
3.77094 39.8257
3.81558 38.9232
3.86022 38.5954
3.90486 38.9473
3.9495 40.5394
3.99416 41.1178
4.0388 44.3664
4.08344 47.5041
4.12809 52.0613
4.17273 58.3826
4.21738 67.3484
4.26204 76.8608
4.30669 81.9221
4.35133 82.094
4.39598 74.0878
4.44063 67.072
4.4853 62.2443
4.52995 57.1344
4.5746 52.9834
4.61925 50.0828
4.6639 48.2977
4.70855 48.1226
4.75322 49.4792
4.79788 51.1818
4.84253 54.0516
4.88719 58.0725
4.93184 63.9971
4.97652 72.8023
5.02118 87.2593
5.06583 109.927
5.11049 133.085
5.15515 174.045
5.19981 264.524
5.24449 532.529
5.28916 1114.07
5.33382 3027.97
5.37848 3883.34
5.42315 1256.01
5.46783 384.034
5.5125 217.635
5.55716 158.013
5.60183 126.25
5.6465 112.498
5.69117 106.25
5.73586 100.214
5.78053 96.1982
5.8252 96.2922
5.86988 100.518
5.91455 109.945
5.95924 127.953
6.00392 167.612
6.0486 261.146
6.09328 442.465
6.13795 781.493
6.18263 1302.97
6.22733 806.844
6.27201 326.71
6.3167 171.067
6.36138 111.137
6.40606 85.0424
6.45075 72.6863
6.49545 64.6949
6.54014 59.5417
6.58483 56.7815
6.62952 55.1401
6.67421 54.8662
6.71892 55.2904
6.76361 54.8013
6.8083 53.0652
6.853 51.2304
6.89769 49.1098
6.94239 47.1516
6.98711 45.9762
7.03181 45.4697
7.07651 45.5809
7.12121 46.6018
7.16591 48.5601
7.21063 50.9502
7.25533 55.3337
7.30004 63.0525
7.34475 69.5955
7.38945 69.5571
7.43416 63.0317
7.47889 58.0901
7.5236 59.2813
7.56831 95.3833
7.61303 157.843
7.65774 82.9172
7.70247 47.3758
7.74719 41.7194
7.79191 39.68
7.83663 38.5094
7.88135 38.2478
7.92607 37.8516
7.97081 38.3773
8.01553 38.5291
8.06026 39.2189
8.10498 40.014
8.14971 41.1881
8.19446 42.5006
8.23919 44.4558
8.28392 45.8633
8.32865 47.7139
8.37339 51.4525
8.41812 55.8484
8.46288 63.1152
8.50761 75.1219
8.55235 100.127
8.59709 152.983
8.64183 209.781
8.68658 360.655
8.73134 722.677
8.77609 689.019
8.82083 301.642
8.86558 142.5
8.91033 96.7792
8.9551 78.1329
8.99985 69.3962
9.04461 64.0728
9.08936 60.6077
9.13412 58.7702
9.17888 59.6559
9.22365 66.6536
9.26841 118.1
9.31318 249.83
9.35794 165.519
9.4027 71.9276
9.44749 56.4973
9.49226 52.7756
9.53703 51.3473
9.5818 50.9341
9.62657 51.1104
9.67134 51.9289
9.71614 53.5388
9.76091 54.6424
9.80569 56.3585
9.85047 58.928
9.89525 62.7563
9.94005 68.1659
9.98484 77.0071
10.0296 95.7181
10.0744 133.907
10.1192 177.833
10.164 234.324
10.2088 459.276
10.2536 811.456
10.2984 612.524
10.3432 269.488
10.388 136.22
10.4328 96.8201
10.4776 83.1418
10.5224 84.2912
10.5672 90.4992
10.612 98.3071
10.6568 145.204
10.7017 263.524
10.7465 279.385
10.7913 157.468
10.8361 77.6959
10.8809 55.8135
10.9257 49.0995
10.9706 45.9329
11.0154 44.0573
11.0602 42.9787
11.105 42.131
11.1499 41.4695
11.1947 41.3199
11.2395 41.02
11.2844 40.8714
11.3292 40.2407
11.374 39.3912
11.4189 38.9551
11.4637 38.2283
11.5086 37.6871
11.5534 37.4258
11.5983 37.3238
11.6431 37.3105
11.688 36.9704
11.7328 36.9255
11.7777 36.7664
11.8225 36.7194
11.8674 37.3215
11.9122 39.2031
11.9571 45.1446
12.002 70.7973
12.0468 92.6354
12.0917 65.0925
12.1366 47.2981
12.1814 46.4219
12.2263 48.5352
12.2712 53.9068
12.3161 68.7097
12.3609 93.2118
12.4058 94.0076
12.4507 67.9536
12.4956 51.8913
12.5405 45.1647
12.5853 41.9201
12.6302 40.4438
12.6751 40.1306
12.72 40.2292
12.7649 40.5208
12.8098 40.1119
12.8547 39.8397
12.8996 39.5221
12.9445 39.669
12.9894 39.8985
13.0343 40.6585
13.0792 42.1086
13.1242 45.706
13.1691 55.8325
13.214 61.9307
13.2589 62.9138
13.3038 67.4664
13.3487 73.1476
13.3937 91.1522
13.4386 140.638
13.4835 217.847
13.5285 208.233
13.5734 133.782
13.6183 94.2708
13.6633 81.9522
13.7082 80.515
13.7531 96.5448
13.7981 150.757
13.843 215.15
13.888 173.502
13.9329 96.7944
13.9779 63.7218
14.0228 51.6404
14.0678 46.4178
14.1127 44.9255
14.1577 47.0918
14.2027 63.5408
14.2476 86.5666
14.2926 72.5872
14.3376 48.4976
14.3825 40.5987
14.4275 38.7998
14.4725 38.1366
14.5175 37.5759
14.5624 37.1271
14.6074 37.1331
14.6524 37.2863
14.6974 37.6095
14.7424 37.935
14.7874 38.7048
14.8324 40.0192
14.8774 42.2877
14.9224 46.4035
14.9674 48.8334
15.0124 51.1035
15.0574 58.5225
15.1024 78.0887
15.1474 115.476
15.1924 130.467
15.2374 97.2508
15.2824 65.2217
15.3274 49.7477
15.3725 43.8453
15.4175 41.1156
15.4625 39.5969
15.5076 38.7301
15.5526 38.221
15.5976 37.9284
15.6426 37.8335
15.6877 38.1418
15.7327 38.9639
15.7778 40.4874
15.8228 43.8973
15.8679 46.6189
15.9129 47.9958
15.958 52.7487
16.003 64.8128
16.0481 93.3722
16.0931 126.405
16.1382 122.757
16.1833 90.3404
16.2283 61.0637
16.2734 45.9624
16.3185 39.7754
16.3636 36.9423
16.4086 35.1724
16.4537 34.1665
16.4988 33.544
16.5439 33.0726
16.589 32.4958
16.6341 32.0143
16.6792 31.7139
16.7243 31.5467
16.7694 31.5041
16.8145 31.2149
16.8596 31.4645
16.9047 31.9343
16.9498 32.7481
16.9949 35.3631
17.04 39.3056
17.0851 38.5556
17.1302 34.5396
17.1754 33.1265
17.2205 33.2366
17.2656 33.7256
17.3108 34.2487
17.3559 34.2609
17.401 35.8336
17.4462 39.1595
17.4913 46.039
17.5365 52.1838
17.5815 48.8943
17.6268 41.1434
17.6718 36.7854
17.7171 35.1421
17.7622 34.9955
17.8074 36.038
17.8525 39.4512
17.8977 42.083
17.9428 40.272
17.9881 38.7126
18.0331 40.4752
18.0784 41.7771
18.1237 42.8181
18.1688 44.4874
18.214 50.1703
18.2591 62.7716
18.3044 87.3839
18.3495 104.805
18.3948 91.7801
18.4399 67.4569
18.4852 56.8049
18.5303 58.8823
18.5756 69.3718
18.6207 76.5883
18.666 67.2828
18.7112 53.2667
18.7565 43.2654
18.8016 38.4472
18.8469 36.0338
18.892 34.961
18.9374 34.1496
18.9825 33.662
19.0278 33.237
19.073 33.0802
19.1183 32.9184
19.1635 32.9221
19.2088 33.2491
19.254 33.6707
19.2993 34.5736
19.3447 35.706
19.3898 39.0673
19.4352 45.0491
19.4804 47.9534
19.5257 45.7853
19.5709 46.2967
19.6163 49.7496
19.6615 47.9025
19.7068 41.0859
19.752 36.1269
19.7974 33.8119
19.8426 32.5198
19.888 31.9254
19.9332 31.52
19.9786 31.8438
20.0238 31.9421
20.0692 32.2472
20.1144 32.249
20.1598 32.8706
20.205 34.1024
20.2504 36.931
20.2957 41.8283
20.3411 46.9095
20.3863 46.9151
20.4318 42.1111
20.477 39.1281
20.5224 40.3068
20.5677 44.4257
20.6131 44.7868
20.6586 39.9199
20.7038 34.7241
20.7493 31.9555
20.7945 31.1
20.84 31.5991
20.8853 33.1973
20.9307 33.5682
20.976 31.9865
21.0215 29.6395
21.0668 28.8576
21.1122 28.4173
21.1575 28.4755
21.203 28.4543
21.2483 28.2622
21.2938 28.3491
21.3391 28.5976
21.3846 28.7367
21.4299 29.6487
21.4754 31.0808
21.5207 32.4415
21.5662 32.3131
21.6116 31.0838
21.6571 29.9829
21.7024 29.3878
21.7479 29.2528
21.7933 29.7329
21.8388 30.3649
21.8843 30.5617
21.9297 30.8324
21.9752 31.6242
22.0206 33.3756
22.0661 35.7762
22.1115 39.9478
22.157 46.2673
22.2024 49.7195
22.248 47.3569
22.2933 43.3596
22.3389 40.7901
22.3843 40.0776
22.4299 38.7959
22.4753 36.1847
22.5208 33.0326
22.5662 31.2434
22.6118 30.4914
22.6572 29.7502
22.7028 29.7766
22.7483 29.5153
22.7939 29.4721
22.8393 30.2668
22.8849 31.1942
22.9303 31.8075
22.9759 31.8185
23.0214 30.9617
23.067 31.249
23.1126 32.1378
23.1581 34.2717
23.2037 38.2488
23.2492 42.4465
23.2948 42.4847
23.3403 38.2309
23.3859 34.3008
23.4314 32.4957
23.477 32.3739
23.5225 33.3956
23.5682 34.2811
23.6137 34.0993
23.6593 32.7853
23.7048 32.5477
23.7505 33.8061
23.796 36.6171
23.8417 41.4388
23.8872 44.9275
23.9329 42.9325
23.9784 37.0689
24.0241 32.5922
24.0697 30.6154
24.1154 29.3035
24.1609 28.9214
24.2066 28.5356
24.2522 27.9973
24.2979 27.2821
24.3434 26.8288
24.3892 26.5819
24.4349 26.4384
24.4805 26.304
24.5262 26.3271
24.5718 26.0329
24.6175 26.1534
24.6631 26.156
24.7089 26.4156
24.7545 27.2237
24.8002 27.7387
24.8458 27.756
24.8916 27.1032
24.9372 26.5016
24.983 26.2135
25.0286 26.0498
25.0744 25.974
25.12 25.8638
25.1658 26.0216
25.2114 26.2113
25.2572 26.4109
25.3029 26.7865
25.3487 27.6328
25.3943 28.4268
25.4402 29.4576
25.4858 30.2759
25.5316 30.2614
25.5773 30.362
25.6231 31.4926
25.669 32.3671
25.7147 31.6179
25.7605 29.171
25.8062 27.4645
25.8521 26.6182
25.8977 26.433
25.9436 26.6603
25.9893 26.6016
26.0352 26.2819
26.0809 25.6854
26.1268 25.4501
26.1725 25.4621
26.2184 25.5624
26.2641 25.9217
26.31 26.3128
26.3557 27.3343
26.4017 28.4441
26.4474 28.7737
26.4933 28.007
26.5391 27.14
26.585 26.3153
26.6308 25.8668
26.6767 25.6932
26.7225 25.7668
26.7684 26.0771
26.8142 26.4512
26.8601 27.11
26.9059 28.4249
26.9519 30.0235
26.9979 31.0778
27.0437 30.8851
27.0896 30.0352
27.1354 29.3629
27.1814 28.3469
27.2272 27.1756
27.2732 26.1275
27.3191 25.3134
27.3651 24.9103
27.4109 24.5839
27.4569 24.5006
27.5027 24.4229
27.5488 24.4126
27.5946 24.5128
27.6407 24.5397
27.6865 24.7054
27.7326 24.5055
27.7784 24.7885
27.8245 25.2357
27.8703 25.6157
27.9164 25.6645
27.9623 25.1832
28.0084 24.937
28.0543 24.8764
28.1003 24.9672
28.1462 25.5115
28.1923 25.9462
28.2384 25.8969
28.2843 26.0947
28.3304 26.8298
28.3764 28.1165
28.4225 28.8375
28.4684 28.4352
28.5145 27.4542
28.5605 27.1169
28.6066 26.641
28.6526 25.9866
28.6987 25.1461
28.7447 24.2907
28.7908 23.6393
28.8368 23.2547
28.8829 23.0451
28.9289 22.7873
28.9751 22.6149
29.0211 22.6573
29.0673 22.3791
29.1133 22.6203
29.1595 22.7592
29.2055 22.9803
29.2517 23.2998
29.2977 23.2299
29.3439 22.8349
29.3899 22.4446
29.4361 21.9779
29.4824 21.8814
29.5284 21.864
29.5746 21.9058
29.6207 21.859
29.6669 22.2743
29.713 22.5953
29.7593 22.7785
29.8053 22.7868
29.8516 22.339
29.8977 21.7848
29.9439 21.4538
29.99 21.2091
30.0363 21.1003
30.0824 21.0738
30.1287 21.1061
30.1748 21.3039
30.2211 21.3624
30.2673 21.299
30.3136 21.1809
30.3597 20.9828
30.406 20.9716
30.4522 20.9405
30.4985 21.0956
30.5447 21.3251
30.591 21.4304
30.6372 21.5819
30.6835 21.2505
30.7297 21.1266
30.7761 20.9254
30.8224 20.9752
30.8686 20.9906
30.915 21.0763
30.9612 21.5303
31.0076 21.9567
31.0538 22.6028
31.1002 22.94
31.1464 22.8683
31.1928 22.667
31.2391 22.3782
31.2855 21.8656
31.3317 21.4181
31.3781 21.0436
31.4244 20.8196
31.4708 20.5443
31.5171 20.4656
31.5636 20.4827
31.6098 20.4187
31.6563 20.5496
31.7026 20.5861
31.7491 20.7525
31.7953 21.0515
31.8418 21.3872
31.8881 21.6286
31.9346 21.3034
31.9809 20.9574
32.0275 20.5368
32.074 20.3675
32.1203 20.3557
32.1668 20.3647
32.2132 20.4093
32.2597 20.5705
32.306 20.8733
32.3526 20.9261
32.399 20.9206
32.4455 20.6586
32.4919 20.2929
32.5385 20.042
32.5848 19.7489
32.6314 19.5871
32.6778 19.3148
32.7244 19.0432
32.7708 18.8947
32.8174 18.8159
32.8638 18.7867
32.9104 18.7423
32.9569 18.7825
33.0035 18.6883
33.0499 18.7919
33.0966 18.833
33.143 18.885
33.1897 18.6705
33.2361 18.4696
33.2828 18.4503
33.3293 18.3713
33.3759 18.388
33.4226 18.4634
33.4691 18.5819
33.5158 18.7717
33.5623 18.9952
33.609 18.9919
33.6555 19.0653
33.7022 19.0379
33.7487 18.9412
33.7954 18.6549
33.842 18.3374
33.8887 18.0186
33.9353 17.9419
33.982 17.7544
34.0286 17.7423
34.0753 17.7115
34.1219 17.6529
34.1687 17.568
34.2152 17.6161
34.262 17.6084
34.3086 17.6027
34.3554 17.548
34.402 17.402
34.4488 17.2394
34.4954 17.1071
34.5422 17.1066
34.5889 16.9948
34.6357 16.9278
34.6825 17.0279
34.7292 17.0641
34.776 17.0129
34.8227 16.9743
34.8695 16.8437
34.9162 16.7212
34.9631 16.5769
35.0098 16.5461
35.0566 16.3197
35.1033 16.4197
35.1502 16.3783
35.1969 16.3662
35.2438 16.2876
35.2906 16.3738
35.3375 16.2693
35.3842 16.3339
35.4311 16.2845
35.4779 16.2505
35.5248 16.2802
35.5716 16.197
35.6185 16.2397
35.6653 16.2503
35.7123 16.3921
35.759 16.4545
35.806 16.553
35.8528 16.6356
35.8998 16.8109
35.9468 16.7239
35.9936 16.5677
36.0406 16.3821
36.0874 16.2619
36.1345 16.1471
36.1813 15.8729
36.2283 15.8183
36.2752 15.6254
36.3222 15.6577
36.3691 15.5831
36.4161 15.5121
36.463 15.5221
36.5101 15.5855
36.557 15.6115
36.6041 15.5803
36.651 15.6164
36.6981 15.5222
36.745 15.4032
36.7921 15.3081
36.839 15.2076
36.8861 15.1401
36.9331 15.2274
36.9802 15.2718
37.0272 15.2694
37.0743 15.2687
37.1213 15.1726
37.1684 15.1018
37.2154 14.9535
37.2626 14.8596
37.3098 14.7655
37.3568 14.6917
37.404 14.6067
37.451 14.5273
37.4982 14.5027
37.5452 14.4497
37.5924 14.3376
37.6395 14.4349
37.6867 14.3338
37.7337 14.2805
37.781 14.2288
37.8281 14.1932
37.8753 14.1447
37.9224 14.0795
37.9697 14.0284
38.0168 14.0838
38.064 14.0453
38.1111 13.9816
38.1584 13.9565
38.2056 13.9273
38.2529 13.8663
38.3 13.8193
38.3473 13.7931
38.3945 13.6589
38.4418 13.6285
38.489 13.5359
38.5363 13.5016
38.5837 13.49
38.6309 13.4897
38.6782 13.4791
38.7254 13.493
38.7728 13.4748
38.82 13.4315
38.8674 13.3472
38.9146 13.2772
38.9621 13.2189
39.0093 13.2684
39.0567 13.1738
39.104 13.2246
39.1514 13.2149
39.1987 13.1268
39.2461 13.1019
39.2934 12.9871
39.3409 12.8802
39.3882 12.8195
39.4356 12.7948
39.483 12.7575
39.5304 12.6428
39.5778 12.6078
39.6253 12.6507
39.6726 12.5597
39.7201 12.5449
39.7675 12.5912
39.815 12.5148
39.8624 12.4685
39.9099 12.4495
39.9575 12.3802
40.0049 12.3391
40.0525 12.317
40.0999 12.2939
40.1474 12.3201
40.1949 12.3186
40.2425 12.2403
40.2899 12.2798
40.3375 12.2122
40.385 12.1785
40.4326 12.1361
40.48 12.0041
40.5277 12.1065
40.5752 12.003
40.6228 11.9273
40.6703 11.9301
40.718 11.8716
40.7655 11.8244
40.8132 11.8461
40.8607 11.7753
40.9084 11.7509
40.9559 11.7785
41.0036 11.7714
41.0512 11.6256
41.0989 11.6716
41.1465 11.6008
41.1942 11.6376
41.242 11.6226
41.2896 11.6563
41.3373 11.5384
41.3849 11.4833
41.4327 11.4005
41.4803 11.3483
41.5281 11.2663
41.5758 11.2775
41.6236 11.2006
41.6712 11.1658
41.7191 11.1516
41.7667 11.0345
41.8146 11.0819
41.8622 10.9954
41.9101 10.9727
41.9578 10.9271
42.0057 10.9241
42.0534 10.9057
42.1013 10.9297
42.149 10.9275
42.1969 10.9165
42.2446 10.8729
42.2925 10.8251
42.3403 10.7693
42.3882 10.6951
42.436 10.6661
42.4839 10.5247
42.5319 10.5321
42.5797 10.5169
42.6277 10.4894
42.6755 10.4388
42.7235 10.406
42.7713 10.3715
42.8193 10.3248
42.8671 10.3153
42.9152 10.3009
42.963 10.2498
43.0111 10.174
43.0589 10.1637
43.107 10.1132
43.1549 10.0958
43.2029 10.0376
43.2508 10.0023
43.2989 9.95579
43.3468 9.93435
43.3949 9.85759
43.4429 9.82682
43.491 9.79302
43.5389 9.75528
43.5871 9.80301
43.635 9.74812
43.6832 9.74702
43.7312 9.66459
43.7793 9.60217
43.8273 9.62347
43.8755 9.55348
43.9237 9.56314
43.9717 9.513
44.0199 9.47924
44.068 9.46615
44.1162 9.4726
44.1642 9.45403
44.2125 9.43289
44.2606 9.41175
44.3088 9.32434
44.3569 9.32934
44.4052 9.28362
44.4533 9.22189
44.5016 9.18485
44.5497 9.18675
44.598 9.1636
44.6461 9.10427
44.6945 9.09076
44.7426 9.05455
44.791 9.00192
44.8391 9.04834
44.8875 8.97351
44.9357 8.96718
44.984 8.92258
45.0322 8.91285
45.0806 8.86717
45.1288 8.82274
45.1773 8.8158
45.2257 8.77159
45.2739 8.748
45.3224 8.71878
45.3706 8.68834
45.4191 8.62909
45.4673 8.60861
45.5158 8.59205
45.5641 8.56941
45.6126 8.54083
45.6609 8.46751
45.7094 8.4739
45.7577 8.44372
45.8063 8.41007
45.8546 8.39391
45.9031 8.33992
45.9515 8.34309
46.0001 8.32641
46.0484 8.29991
46.097 8.25385
46.1454 8.24625
46.194 8.22419
46.2424 8.14829
46.291 8.14063
46.3395 8.11311
46.3881 8.08787
46.4365 8.06065
46.4852 8.04604
46.5337 7.98025
46.5823 8.01462
46.631 7.90676
46.6795 7.9235
46.7282 7.9169
46.7767 7.86495
46.8254 7.81086
46.8739 7.80024
46.9226 7.77473
46.9712 7.77754
47.0199 7.77179
47.0685 7.68967
47.1173 7.66081
47.1658 7.6322
47.2146 7.59384
47.2632 7.56778
47.312 7.55056
47.3606 7.55336
47.4095 7.46984
47.4581 7.48619
47.5069 7.41954
47.5556 7.42305
47.6044 7.4048
47.6531 7.36148
47.702 7.34672
47.7507 7.28393
47.7996 7.2973
47.8483 7.28117
47.8972 7.22902
47.9461 7.23938
47.9948 7.16712
48.0438 7.13927
48.0925 7.14229
48.1415 7.10128
48.1902 7.06401
48.2392 7.05852
48.288 7.06413
48.337 7.00909
48.3858 6.99239
48.4348 6.95478
48.4837 6.93345
48.5327 6.92579
48.5815 6.89102
48.6306 6.84727
48.6795 6.821
48.7285 6.81895
48.7774 6.79271
48.8265 6.76946
48.8754 6.72029
48.9245 6.72465
48.9734 6.69402
49.0226 6.64014
49.0715 6.62284
49.1206 6.65044
49.1696 6.61218
49.2188 6.5964
49.2679 6.5578
49.3169 6.50284
49.3661 6.50967
49.4151 6.48387
49.4643 6.45384
49.5134 6.42961
49.5626 6.40775
49.6117 6.38071
49.6609 6.34114
49.71 6.32058
49.7592 6.32133
49.8083 6.31009
49.8576 6.30128
49.9067 6.29541
49.956 6.24999
50.0052 6.22474
50.0545 6.21646
50.1036 6.19637
50.153 6.13725
50.2022 6.13572
50.2515 6.11415
50.3007 6.08137
50.3501 6.06664
50.3993 6.04073
50.4487 6.03962
50.498 5.99976
50.5474 5.97732
50.5966 5.96274
50.6461 5.92185
50.6955 5.91783
50.7448 5.87972
50.7943 5.84588
50.8436 5.8068
50.8931 5.8323
50.9424 5.77682
50.9919 5.78547
51.0413 5.7646
51.0908 5.71485
51.1402 5.71394
51.1897 5.67809
51.2391 5.66014
51.2887 5.64128
51.3381 5.60649
51.3877 5.61682
51.4371 5.56741
51.4867 5.5386
51.5362 5.56305
51.5858 5.51839
51.6353 5.50248
51.6849 5.45619
51.7344 5.46204
51.7841 5.41774
51.8336 5.39126
51.8833 5.3928
51.9328 5.38925
51.9826 5.35164
52.0323 5.32353
52.0818 5.2949
52.1316 5.26098
52.1812 5.2788
52.231 5.24147
52.2806 5.20635
52.3304 5.17651
52.38 5.18531
52.4298 5.14938
52.4794 5.15852
52.5293 5.12616
52.5789 5.09713
52.6288 5.07528
52.6785 5.0637
52.7284 5.04371
52.7781 5.00062
52.828 5.00207
52.8777 4.98717
52.9276 4.95213
52.9774 4.97593
53.0273 4.93296
53.0771 4.90282
53.1271 4.90514
53.1769 4.86
53.2269 4.84244
53.2767 4.81492
53.3267 4.79482
53.3765 4.77095
53.4266 4.75851
53.4766 4.72286
53.5265 4.68727
53.5765 4.70252
53.6264 4.70222
53.6765 4.642
53.7264 4.62031
53.7765 4.62542
53.8265 4.5632
53.8766 4.55202
53.9266 4.52574
53.9767 4.50204
54.0267 4.49567
54.0769 4.47924
54.1269 4.45936
54.1771 4.46054
54.2271 4.4303
54.2773 4.35388
54.3274 4.31415
54.3776 4.32109
54.4277 4.334
54.478 4.25252
54.528 4.21007
54.5783 4.173
54.6285 4.16729
54.6788 4.11868
54.7289 4.1037
54.7792 4.08068
54.8296 4.05564
54.8798 3.98427
54.9301 4.00599
54.9803 3.98931
55.0307 3.97723
55.0809 3.89422
55.1314 3.90164
55.1816 3.85807
55.232 3.79223
55.2823 3.7652
55.3328 3.70251
55.383 3.68707
55.4335 3.64421
55.4838 3.64202
55.5344 3.5761
55.5847 3.55235
55.6352 3.55225
55.6856 3.48599
55.7361 3.50767