File: XRD/Ni3Fe_FD0583.xy
TT I
1.27165 7.11087
1.31627 6.54496
1.36089 6.71446
1.40551 6.1365
1.45013 5.69673
1.49476 6.15305
1.53938 5.74056
1.584 5.6857
1.62863 5.69748
1.67325 5.09149
1.71787 5.32207
1.7625 4.72724
1.80712 5.08923
1.85174 5.11189
1.89636 5.18228
1.94099 4.61086
1.98562 4.90392
2.03025 4.28927
2.07487 4.40875
2.11949 4.48804
2.16411 4.55945
2.20874 9.25164
2.25338 12.9887
2.298 6.06096
2.34263 5.86501
2.38725 5.61538
2.43188 6.45313
2.4765 6.45203
2.52115 6.36164
2.56577 7.622
2.6104 8.094
2.65503 7.37977
2.69965 8.06614
2.7443 7.30399
2.78893 8.13535
2.83356 8.25028
2.87818 8.50994
2.92281 9.28002
2.96744 9.76316
3.01209 10.2129
3.05672 10.8575
3.10135 12.0087
3.14599 12.7716
3.19062 13.9804
3.23527 14.8857
3.2799 15.5653
3.32454 16.7193
3.36917 17.4486
3.4138 18.6505
3.45844 19.569
3.50309 20.8604
3.54773 21.2377
3.59237 23.2485
3.637 54.4452
3.68164 39.5319
3.7263 25.5428
3.77094 25.7237
3.81558 26.4598
3.86022 27.7199
3.90486 28.5978
3.9495 29.4932
3.99416 30.8864
4.0388 32.1896
4.08344 33.3952
4.12809 34.2157
4.17273 36.2817
4.21738 39.7398
4.26204 137.519
4.30669 120.545
4.35133 45.1644
4.39598 43.524
4.44063 49.4992
4.4853 55.7607
4.52995 53.8732
4.5746 54.8963
4.61925 53.9706
4.6639 55.6024
4.70855 58.2785
4.75322 61.9484
4.79788 66.5931
4.84253 68.3571
4.88719 73.8172
4.93184 76.6673
4.97652 82.0605
5.02118 88.4468
5.06583 96.5311
5.11049 109.302
5.15515 161.749
5.19981 472.203
5.24449 3204.56
5.28916 12245.4
5.33382 2770.74
5.37848 199.606
5.42315 132.186
5.46783 118.223
5.5125 110.15
5.55716 103.072
5.60183 98.8633
5.6465 96.8863
5.69117 95.4847
5.73586 93.7238
5.78053 96.3437
5.8252 95.9832
5.86988 97.5122
5.91455 97.3597
5.95924 109.194
6.00392 270.558
6.0486 1104.55
6.09328 4412.07
6.13795 3331.3
6.18263 240.155
6.22733 93.0866
6.27201 81.7883
6.3167 87.854
6.36138 76.0076
6.40606 69.8586
6.45075 69.0481
6.49545 65.7318
6.54014 63.808
6.58483 62.809
6.62952 62.727
6.67421 76.3188
6.71892 99.5528
6.76361 63.4808
6.8083 59.0423
6.853 58.6837
6.89769 56.7502
6.94239 56.5568
6.98711 55.6549
7.03181 55.6998
7.07651 55.2284
7.12121 55.0653
7.16591 55.7756
7.21063 55.218
7.25533 61.8943
7.30004 111.036
7.34475 71.5791
7.38945 55.1435
7.43416 54.1794
7.47889 54.1415
7.5236 54.2933
7.56831 55.2968
7.61303 56.0523
7.65774 56.4224
7.70247 56.6204
7.74719 56.4491
7.79191 56.7383
7.83663 56.9949
7.88135 57.9826
7.92607 58.7466
7.97081 60.1838
8.01553 61.3789
8.06026 62.5521
8.10498 63.937
8.14971 70.5946
8.19446 70.3728
8.23919 69.7268
8.28392 72.1323
8.32865 75.0618
8.37339 79.4562
8.41812 85.1443
8.46288 107.005
8.50761 196.354
8.55235 435.656
8.59709 1260.53
8.64183 2202.57
8.68658 934.214
8.73134 158.174
8.77609 99.53
8.82083 93.4716
8.86558 91.5964
8.91033 91.1543
8.9551 89.5583
8.99985 85.9633
9.04461 84.3126
9.08936 83.9144
9.13412 82.8184
9.17888 82.19
9.22365 82.86
9.26841 82.8037
9.31318 84.2995
9.35794 85.5241
9.4027 85.3517
9.44749 85.4516
9.49226 85.0419
9.53703 86.7258
9.5818 89.6069
9.62657 93.2019
9.67134 95.889
9.71614 93.5442
9.76091 95.5057
9.80569 99.0446
9.85047 101.429
9.89525 114.941
9.94005 132.125
9.98484 208.591
10.0296 380.815
10.0744 864.559
10.1192 1727.75
10.164 1547.13
10.2088 369.804
10.2536 125.538
10.2984 111.107
10.3432 110.153
10.388 106.533
10.4328 127.351
10.4776 172.03
10.5224 299.26
10.5672 517.614
10.612 489.042
10.6568 189.967
10.7017 95.1044
10.7465 87.1051
10.7913 83.6347
10.8361 81.0916
10.8809 79.3119
10.9257 78.0753
10.9706 78.1125
11.0154 75.2688
11.0602 73.0055
11.105 71.6646
11.1499 73.2296
11.1947 75.6974
11.2395 71.1352
11.2844 69.0255
11.3292 67.297
11.374 66.3274
11.4189 65.8806
11.4637 65.1447
11.5086 65.0129
11.5534 66.0004
11.5983 64.7092
11.6431 63.5148
11.688 63.3086
11.7328 63.021
11.7777 63.267
11.8225 62.8352
11.8674 62.8313
11.9122 63.1807
11.9571 63.608
12.002 64.803
12.0468 70.5923
12.0917 81.3943
12.1366 106.153
12.1814 155.532
12.2263 203.108
12.2712 161.952
12.3161 89.9427
12.3609 67.6191
12.4058 64.398
12.4507 64.3682
12.4956 64.7474
12.5405 64.9314
12.5853 65.5853
12.6302 69.0202
12.6751 72.1287
12.72 69.1533
12.7649 68.1879
12.8098 68.519
12.8547 70.3125
12.8996 71.6356
12.9445 73.0885
12.9894 75.0326
13.0343 76.6757
13.0792 81.0045
13.1242 95.1556
13.1691 117.484
13.214 157.542
13.2589 252.074
13.3038 375.646
13.3487 422.57
13.3937 250.414
13.4386 121.413
13.4835 110.685
13.5285 126.388
13.5734 167.96
13.6183 254.47
13.6633 349.742
13.7082 331.842
13.7531 180.831
13.7981 96.3889
13.843 82.5176
13.888 80.4233
13.9329 77.5123
13.9779 76.5546
14.0228 75.029
14.0678 73.5273
14.1127 72.8089
14.1577 72.4879
14.2027 71.7661
14.2476 70.8107
14.2926 70.7287
14.3376 70.9803
14.3825 70.1948
14.4275 69.3827
14.4725 69.3966
14.5175 69.4094
14.5624 69.5031
14.6074 70.5576
14.6524 71.0814
14.6974 71.1714
14.7424 74.9605
14.7874 82.0104
14.8324 92.6165
14.8774 116.096
14.9224 158.497
14.9674 209.745
15.0124 213.24
15.0574 142.681
15.1024 88.6084
15.1474 72.4244
15.1924 70.5264
15.2374 70.1318
15.2824 69.2834
15.3274 67.9076
15.3725 66.9795
15.4175 66.8327
15.4625 66.2093
15.5076 66.1455
15.5526 66.5242
15.5976 66.5372
15.6426 69.2011
15.6877 74.7386
15.7327 82.5249
15.7778 99.0959
15.8228 130.813
15.8679 173.341
15.9129 193.502
15.958 150.614
16.003 93.2637
16.0481 67.2792
16.0931 63.7161
16.1382 61.9187
16.1833 60.7011
16.2283 59.2569
16.2734 58.5171
16.3185 58.1113
16.3636 58.4153
16.4086 57.2118
16.4537 56.2752
16.4988 55.6919
16.5439 55.6809
16.589 55.3981
16.6341 55.1684
16.6792 54.7407
16.7243 55.115
16.7694 54.9234
16.8145 55.0246
16.8596 55.4757
16.9047 56.0498
16.9498 56.3877
16.9949 55.8185
17.04 56.4152
17.0851 57.7755
17.1302 59.3112
17.1754 62.6449
17.2205 67.9073
17.2656 75.0243
17.3108 82.3575
17.3559 81.5457
17.401 70.7404
17.4462 62.2372
17.4913 59.63
17.5365 59.5075
17.5815 59.5262
17.6268 60.0847
17.6718 60.7169
17.7171 61.0231
17.7622 61.7925
17.8074 63.024
17.8525 66.1529
17.8977 69.7927
17.9428 75.5525
17.9881 85.3731
18.0331 102.909
18.0784 123.613
18.1237 140.902
18.1688 131.642
18.214 102.886
18.2591 87.2611
18.3044 92.0345
18.3495 101.425
18.3948 106.189
18.4399 95.6157
18.4852 76.9525
18.5303 65.6638
18.5756 62.4467
18.6207 61.5841
18.666 60.5622
18.7112 59.8874
18.7565 59.1687
18.8016 59.0323
18.8469 58.2959
18.892 58.006
18.9374 57.514
18.9825 57.3261
19.0278 57.3458
19.073 57.5408
19.1183 57.9521
19.1635 58.554
19.2088 59.9834
19.254 62.9015
19.2993 67.3712
19.3447 72.862
19.3898 75.9171
19.4352 71.844
19.4804 63.0399
19.5257 56.9157
19.5709 54.4722
19.6163 54.1191
19.6615 54.2354
19.7068 53.6141
19.752 53.6866
19.7974 54.1817
19.8426 55.0766
19.888 55.4627
19.9332 56.7629
19.9786 59.8074
20.0238 63.369
20.0692 68.0014
20.1144 70.0198
20.1598 68.219
20.205 63.8862
20.2504 62.607
20.2957 64.1584
20.3411 66.0203
20.3863 64.0194
20.4318 58.1079
20.477 53.5397
20.5224 51.4849
20.5677 50.9711
20.6131 50.4488
20.6586 49.9246
20.7038 49.7566
20.7493 49.3013
20.7945 49.1294
20.84 49.2062
20.8853 49.1665
20.9307 48.8776
20.976 49.1232
21.0215 49.0075
21.0668 49.3999
21.1122 49.8094
21.1575 50.4352
21.203 51.2086
21.2483 51.8727
21.2938 51.6197
21.3391 50.1971
21.3846 49.0725
21.4299 48.765
21.4754 48.7941
21.5207 48.9923
21.5662 49.4485
21.6116 49.8058
21.6571 50.3618
21.7024 51.468
21.7479 53.409
21.7933 56.2445
21.8388 59.7893
21.8843 63.2759
21.9297 65.0402
21.9752 63.2657
22.0206 59.4011
22.0661 56.6276
22.1115 56.425
22.157 56.2116
22.2024 54.3766
22.248 51.5711
22.2933 50.011
22.3389 49.2729
22.3843 49.1836
22.4299 48.9367
22.4753 49.0212
22.5208 49.063
22.5662 48.8428
22.6118 49.0436
22.6572 49.3601
22.7028 49.7024
22.7483 50.1881
22.7939 51.0336
22.8393 52.5259
22.8849 54.5983
22.9303 56.4639
22.9759 58.2723
23.0214 57.3616
23.067 54.491
23.1126 51.1119
23.1581 49.5257
23.2037 49.1221
23.2492 49.3505
23.2948 49.2937
23.3403 49.6074
23.3859 50.2099
23.4314 51.3464
23.477 53.1941
23.5225 55.4411
23.5682 57.2258
23.6137 58.1142
23.6593 55.642
23.7048 51.535
23.7505 48.3087
23.796 46.9423
23.8417 46.1465
23.8872 45.781
23.9329 45.5531
23.9784 45.1855
24.0241 44.9399
24.0697 44.6124
24.1154 44.3592
24.1609 44.2001
24.2066 44.0319
24.2522 43.8972
24.2979 43.5729
24.3434 43.6078
24.3892 43.4465
24.4349 43.4581
24.4805 43.2416
24.5262 43.5147
24.5718 43.136
24.6175 43.1233
24.6631 43.0767
24.7089 42.6613
24.7545 42.6241
24.8002 42.5968
24.8458 42.5392
24.8916 42.3223
24.9372 42.6338
24.983 42.9472
25.0286 43.2784
25.0744 43.5714
25.12 44.0828
25.1658 44.7841
25.2114 44.9978
25.2572 45.0635
25.3029 45.0704
25.3487 45.2625
25.3943 44.7829
25.4402 43.5776
25.4858 42.586
25.5316 41.7197
25.5773 41.1225
25.6231 41.1557
25.669 40.7426
25.7147 40.7965
25.7605 40.6314
25.8062 40.7296
25.8521 40.9689
25.8977 40.9382
25.9436 41.1574
25.9893 41.2867
26.0352 41.7739
26.0809 41.8916
26.1268 41.8622
26.1725 41.5618
26.2184 40.9379
26.2641 40.4226
26.31 40.4122
26.3557 40.4263
26.4017 40.4642
26.4474 40.6474
26.4933 41.0699
26.5391 41.5822
26.585 41.8772
26.6308 42.3938
26.6767 42.5264
26.7225 42.2651
26.7684 41.6002
26.8142 41.0885
26.8601 40.6302
26.9059 40.1895
26.9519 39.7474
26.9979 39.475
27.0437 39.1788
27.0896 38.9685
27.1354 38.9714
27.1814 38.8236
27.2272 38.8248
27.2732 38.8766
27.3191 38.6121
27.3651 38.7794
27.4109 38.6808
27.4569 38.746
27.5027 38.8521
27.5488 38.8625
27.5946 38.5964
27.6407 38.496
27.6865 38.405
27.7326 38.0959
27.7784 38.1211
27.8245 38.1538
27.8703 38.3437
27.9164 38.5974
27.9623 38.6655
28.0084 38.9626
28.0543 39.3385
28.1003 39.2769
28.1462 39.0779
28.1923 38.6688
28.2384 38.1507
28.2843 37.7899
28.3304 37.3123
28.3764 36.9333
28.4225 36.6149
28.4684 36.5069
28.5145 36.0773
28.5605 36.2597
28.6066 35.997
28.6526 35.8567
28.6987 35.8356
28.7447 35.7923
28.7908 35.5869
28.8368 35.6005
28.8829 35.5886
28.9289 35.5591
28.9751 35.3452
29.0211 35.1189
29.0673 34.8986
29.1133 34.7719
29.1595 34.5786
29.2055 34.4779
29.2517 34.5931
29.2977 34.4173
29.3439 34.4065
29.3899 34.5179
29.4361 34.3653
29.4824 34.2246
29.5284 33.9517
29.5746 33.5059
29.6207 33.3505
29.6669 33.2841
29.713 33.2273
29.7593 33.0431
29.8053 33.0979
29.8516 32.9593
29.8977 32.8737
29.9439 32.7723
29.99 32.7296
30.0363 32.7288
30.0824 32.6697
30.1287 32.6386
30.1748 32.6614
30.2211 32.6551
30.2673 32.4609
30.3136 32.5176
30.3597 32.4623
30.406 32.3736
30.4522 32.423
30.4985 32.1828
30.5447 32.3628
30.591 32.2908
30.6372 32.3985
30.6835 32.3447
30.7297 32.4645
30.7761 32.1998
30.8224 32.1904
30.8686 32.0062
30.915 31.8023
30.9612 31.6348
31.0076 31.5533
31.0538 31.3154
31.1002 31.2698
31.1464 31.1474
31.1928 31.1517
31.2391 31.2587
31.2855 30.9916
31.3317 31.0009
31.3781 31.1459
31.4244 31.1419
31.4708 30.9699
31.5171 30.9776
31.5636 30.9149
31.6098 30.6765
31.6563 30.6584
31.7026 30.3899
31.7491 30.3649
31.7953 30.3614
31.8418 30.3352
31.8881 30.3368
31.9346 30.34
31.9809 30.1889
32.0275 30.0761
32.074 29.9384
32.1203 29.877
32.1668 29.767
32.2132 29.4872
32.2597 29.3534
32.306 29.3978
32.3526 29.1471
32.399 29.0601
32.4455 28.8689
32.4919 28.8532
32.5385 28.8393
32.5848 28.6971
32.6314 28.6094
32.6778 28.6211
32.7244 28.3849
32.7708 28.4098
32.8174 28.3555
32.8638 28.1819
32.9104 28.2075
32.9569 28.1954
33.0035 28.0215
33.0499 28.0023
33.0966 28.0091
33.143 28.0192
33.1897 27.8422
33.2361 27.7661
33.2828 27.6979
33.3293 27.5993
33.3759 27.57
33.4226 27.3133
33.4691 27.2396
33.5158 27.1583
33.5623 27.0627
33.609 26.8594
33.6555 26.8744
33.7022 26.7668
33.7487 26.6605
33.7954 26.6035
33.842 26.5558
33.8887 26.5663
33.9353 26.3998
33.982 26.3302
34.0286 26.2199
34.0753 26.1877
34.1219 26.0681
34.1687 25.9646
34.2152 25.9856
34.262 25.7035
34.3086 25.7254
34.3554 25.7054
34.402 25.5864
34.4488 25.514
34.4954 25.4625
34.5422 25.3137
34.5889 25.1822
34.6357 25.0842
34.6825 25.0761
34.7292 25.0682
34.776 24.8404
34.8227 24.8599
34.8695 24.8579
34.9162 24.6848
34.9631 24.6895
35.0098 24.5572
35.0566 24.5327
35.1033 24.4545
35.1502 24.4635
35.1969 24.2958
35.2438 24.3364
35.2906 24.2439
35.3375 24.1773
35.3842 24.1912
35.4311 24.0731
35.4779 24.1032
35.5248 24.0019
35.5716 23.8642
35.6185 23.8621
35.6653 23.7189
35.7123 23.6381
35.759 23.5726
35.806 23.5365
35.8528 23.3374
35.8998 23.4465
35.9468 23.2453
35.9936 23.2788
36.0406 23.1254
36.0874 23.0573
36.1345 23.1127
36.1813 22.901
36.2283 22.8166
36.2752 22.7325
36.3222 22.7761
36.3691 22.6915
36.4161 22.5623
36.463 22.607
36.5101 22.5739
36.557 22.458
36.6041 22.2713
36.651 22.3424
36.6981 22.2729
36.745 22.1626
36.7921 22.1442
36.839 22.0016
36.8861 22.0136
36.9331 21.8033
36.9802 21.8235
37.0272 21.7148
37.0743 21.6388
37.1213 21.6095
37.1684 21.499
37.2154 21.454
37.2626 21.37
37.3098 21.332
37.3568 21.2664
37.404 21.2316
37.451 21.14
37.4982 21.1284
37.5452 20.9533
37.5924 20.8377
37.6395 20.9491
37.6867 20.8297
37.7337 20.7543
37.781 20.6242
37.8281 20.6773
37.8753 20.5788
37.9224 20.4127
37.9697 20.3949
38.0168 20.328
38.064 20.2351
38.1111 20.2503
38.1584 20.1357
38.2056 20.0709
38.2529 19.9912
38.3 19.9823
38.3473 19.895
38.3945 19.8233
38.4418 19.8006
38.489 19.718
38.5363 19.6547
38.5837 19.5424
38.6309 19.4974
38.6782 19.4694
38.7254 19.3981
38.7728 19.3037
38.82 19.2411
38.8674 19.2591
38.9146 19.1697
38.9621 19.0463
39.0093 19.0951
39.0567 18.9866
39.104 18.9147
39.1514 18.7776
39.1987 18.788
39.2461 18.7741
39.2934 18.6965
39.3409 18.6131
39.3882 18.5403
39.4356 18.4625
39.483 18.4206
39.5304 18.3839
39.5778 18.4268
39.6253 18.2274
39.6726 18.2173
39.7201 18.1528
39.7675 18.1311
39.815 18.0935
39.8624 17.9951
39.9099 17.8793
39.9575 17.8836
40.0049 17.8029
40.0525 17.7293
40.0999 17.6802
40.1474 17.6619
40.1949 17.5264
40.2425 17.5103
40.2899 17.4717
40.3375 17.4297
40.385 17.3004
40.4326 17.3162
40.48 17.2054
40.5277 17.2128
40.5752 17.1545
40.6228 17.0188
40.6703 17.001
40.718 17.0084
40.7655 16.8987
40.8132 16.8456
40.8607 16.866
40.9084 16.7565
40.9559 16.7075
41.0036 16.7065
41.0512 16.5878
41.0989 16.6014
41.1465 16.4363
41.1942 16.4243
41.242 16.3247
41.2896 16.2919
41.3373 16.2223
41.3849 16.2299
41.4327 16.1788
41.4803 16.071
41.5281 16.0208
41.5758 15.9735
41.6236 15.9453
41.6712 15.8469
41.7191 15.8023
41.7667 15.766
41.8146 15.7644
41.8622 15.6841
41.9101 15.6087
41.9578 15.5498
42.0057 15.5048
42.0534 15.448
42.1013 15.4353
42.149 15.3698
42.1969 15.3034
42.2446 15.2211
42.2925 15.1781
42.3403 15.1429
42.3882 15.1123
42.436 15.1303
42.4839 14.9613
42.5319 14.9275
42.5797 14.8895
42.6277 14.8499
42.6755 14.8166
42.7235 14.788
42.7713 14.6688
42.8193 14.6527
42.8671 14.6153
42.9152 14.5335
42.963 14.4214
43.0111 14.4379
43.0589 14.4188
43.107 14.344
43.1549 14.27
43.2029 14.2846
43.2508 14.1905
43.2989 14.1725
43.3468 14.0923
43.3949 14.0545
43.4429 14.035
43.491 13.9635
43.5389 13.9118
43.5871 13.8976
43.635 13.8042
43.6832 13.746
43.7312 13.7356
43.7793 13.6996
43.8273 13.6174
43.8755 13.559
43.9237 13.4883
43.9717 13.5092
44.0199 13.402
44.068 13.4048
44.1162 13.3476
44.1642 13.3279
44.2125 13.2466
44.2606 13.21
44.3088 13.172
44.3569 13.0684
44.4052 13.0829
44.4533 12.9925
44.5016 12.9493
44.5497 12.9213
44.598 12.8533
44.6461 12.8535
44.6945 12.8474
44.7426 12.7273
44.791 12.6572
44.8391 12.6872
44.8875 12.619
44.9357 12.5694
44.984 12.5082
45.0322 12.5177
45.0806 12.4598
45.1288 12.383
45.1773 12.3245
45.2257 12.3022
45.2739 12.2758
45.3224 12.2245
45.3706 12.1837
45.4191 12.1101
45.4673 12.094
45.5158 12.0639
45.5641 11.9447
45.6126 11.9724
45.6609 11.8605
45.7094 11.887
45.7577 11.8514
45.8063 11.7556
45.8546 11.7766
45.9031 11.7015
45.9515 11.6594
46.0001 11.6424
46.0484 11.6573
46.097 11.5167
46.1454 11.5241
46.194 11.4558
46.2424 11.4486
46.291 11.3557
46.3395 11.3316
46.3881 11.2828
46.4365 11.2479
46.4852 11.1947
46.5337 11.1654
46.5823 11.1405
46.631 11.0841
46.6795 11.0165
46.7282 11.0269
46.7767 10.952
46.8254 10.9139
46.8739 10.8581
46.9226 10.8411
46.9712 10.7678
47.0199 10.7591
47.0685 10.7701
47.1173 10.6869
47.1658 10.6634
47.2146 10.6508
47.2632 10.5032
47.312 10.5525
47.3606 10.4528
47.4095 10.4498
47.4581 10.3916
47.5069 10.3859
47.5556 10.2669
47.6044 10.2552
47.6531 10.2692
47.702 10.1808
47.7507 10.1495
47.7996 10.1396
47.8483 10.1048
47.8972 10.0941
47.9461 10.0423
47.9948 9.93594
48.0438 9.96325
48.0925 9.95814
48.1415 9.88289
48.1902 9.83377
48.2392 9.83749
48.288 9.78964
48.337 9.78146
48.3858 9.70914
48.4348 9.71178
48.4837 9.63844
48.5327 9.61733
48.5815 9.57699
48.6306 9.60207
48.6795 9.50237
48.7285 9.47647
48.7774 9.40092
48.8265 9.40709
48.8754 9.34471
48.9245 9.34926
48.9734 9.30702
49.0226 9.27224
49.0715 9.23999
49.1206 9.19194
49.1696 9.17773
49.2188 9.12333
49.2679 9.07991
49.3169 9.02578
49.3661 8.98595
49.4151 8.95984
49.4643 8.97212
49.5134 8.91274
49.5626 8.87825
49.6117 8.83562
49.6609 8.81175
49.71 8.75879
49.7592 8.71866
49.8083 8.67623
49.8576 8.66078
49.9067 8.63042
49.956 8.60232
50.0052 8.56756
50.0545 8.53791
50.1036 8.51156
50.153 8.48508
50.2022 8.44404
50.2515 8.37607
50.3007 8.37259
50.3501 8.31594
50.3993 8.29953
50.4487 8.26866
50.498 8.23294
50.5474 8.22612
50.5966 8.16153
50.6461 8.16469
50.6955 8.12636
50.7448 8.0965
50.7943 8.03275
50.8436 8.03234
50.8931 7.99205
50.9424 7.98852
50.9919 7.9663
51.0413 7.92292
51.0908 7.84789
51.1402 7.85225
51.1897 7.82603
51.2391 7.76794
51.2887 7.72416
51.3381 7.68774
51.3877 7.6901
51.4371 7.66217
51.4867 7.61865
51.5362 7.56331
51.5858 7.58222
51.6353 7.52578
51.6849 7.50468
51.7344 7.46847
51.7841 7.45342
51.8336 7.38652
51.8833 7.40438
51.9328 7.33404
51.9826 7.29648
52.0323 7.2435
52.0818 7.26412
52.1316 7.19153
52.1812 7.18229
52.231 7.18619
52.2806 7.13959
52.3304 7.09149
52.38 7.10194
52.4298 7.01112
52.4794 7.03302
52.5293 6.98229
52.5789 6.98515
52.6288 6.95188
52.6785 6.87684
52.7284 6.85894
52.7781 6.8556
52.828 6.77811
52.8777 6.77349
52.9276 6.74653
52.9774 6.74064
53.0273 6.68914
53.0771 6.6783
53.1271 6.66595
53.1769 6.61543
53.2269 6.58306
53.2767 6.55822
53.3267 6.5168
53.3765 6.52345
53.4266 6.47045
53.4766 6.45603
53.5265 6.39817
53.5765 6.40427
53.6264 6.38295
53.6765 6.36864
53.7264 6.31759
53.7765 6.28309
53.8265 6.25116
53.8766 6.22814
53.9266 6.22482
53.9767 6.17644
54.0267 6.15914
54.0769 6.10296
54.1269 6.11082
54.1771 6.06328
54.2271 6.03068
54.2773 5.99317
54.3274 5.98693
54.3776 5.92994
54.4277 5.88995
54.478 5.86112
54.528 5.83735
54.5783 5.81115
54.6285 5.80577
54.6788 5.71759
54.7289 5.69405
54.7792 5.61173
54.8296 5.57333
54.8798 5.55492
54.9301 5.53339
54.9803 5.48
55.0307 5.42337
55.0809 5.40456
55.1314 5.43024
55.1816 5.26158
55.232 5.24629
55.2823 5.28454
55.3328 5.22401
55.383 5.11933
55.4335 5.0754
55.4838 5.05592
55.5344 4.97045
55.5847 4.92808
55.6352 4.95609
55.6856 4.84138
55.7361 4.85522