File: XRD/Ni3Fe_FD0847.xy
TT I
1.27165 7.12335
1.31627 6.58001
1.36089 6.24211
1.40551 6.2948
1.45013 6.23175
1.49476 6.5979
1.53938 5.99126
1.584 5.30338
1.62863 4.97504
1.67325 5.55158
1.71787 5.0192
1.7625 5.1954
1.80712 4.94694
1.85174 5.01923
1.89636 4.79322
1.94099 4.6603
1.98562 4.54815
2.03025 5.01781
2.07487 4.32078
2.11949 4.96392
2.16411 5.57322
2.20874 13.9016
2.25338 20.279
2.298 5.83308
2.34263 5.99925
2.38725 5.88809
2.43188 5.81279
2.4765 6.84297
2.52115 6.47398
2.56577 7.63764
2.6104 8.53894
2.65503 8.26566
2.69965 8.52087
2.7443 8.3057
2.78893 8.50304
2.83356 8.79043
2.87818 8.78379
2.92281 8.86323
2.96744 9.70392
3.01209 10.2902
3.05672 10.8645
3.10135 12.2682
3.14599 13.125
3.19062 14.7307
3.23527 15.3845
3.2799 15.8449
3.32454 17.1508
3.36917 17.7032
3.4138 18.7582
3.45844 19.9246
3.50309 21.2238
3.54773 21.806
3.59237 23.6376
3.637 83.2322
3.68164 54.349
3.7263 26.1376
3.77094 25.8662
3.81558 26.5927
3.86022 27.0898
3.90486 28.743
3.9495 29.7109
3.99416 30.6656
4.0388 32.0512
4.08344 33.5833
4.12809 34.4211
4.17273 37.1048
4.21738 42.2074
4.26204 223.115
4.30669 193.802
4.35133 47.5249
4.39598 43.9179
4.44063 52.5458
4.4853 62.9528
4.52995 49.6923
4.5746 50.9604
4.61925 52.8339
4.6639 54.4666
4.70855 57.6011
4.75322 60.0953
4.79788 63.3285
4.84253 66.5811
4.88719 70.5517
4.93184 74.3853
4.97652 78.9618
5.02118 85.5389
5.06583 92.5262
5.11049 102.517
5.15515 160.819
5.19981 303.417
5.24449 2563.08
5.28916 12283.9
5.33382 2677.41
5.37848 176.251
5.42315 124.966
5.46783 111.58
5.5125 104.596
5.55716 100.885
5.60183 97.0721
5.6465 95.5768
5.69117 93.2498
5.73586 90.8815
5.78053 90.5573
5.8252 90.2116
5.86988 90.441
5.91455 92.0443
5.95924 98.5103
6.00392 182.376
6.0486 871.45
6.09328 4404.22
6.13795 3113.21
6.18263 228.879
6.22733 90.1074
6.27201 80.8583
6.3167 97.3438
6.36138 78.4321
6.40606 68.2743
6.45075 66.455
6.49545 64.8428
6.54014 63.2806
6.58483 62.4029
6.62952 62.186
6.67421 89.4118
6.71892 130.459
6.76361 66.6809
6.8083 57.7935
6.853 57.1085
6.89769 55.9158
6.94239 55.8288
6.98711 54.9988
7.03181 55.1221
7.07651 54.8113
7.12121 54.6442
7.16591 55.1233
7.21063 55.0545
7.25533 68.7516
7.30004 159.165
7.34475 85.5809
7.38945 56.0107
7.43416 54.1546
7.47889 53.7497
7.5236 53.9402
7.56831 55.0934
7.61303 56.0032
7.65774 56.7658
7.70247 55.6917
7.74719 55.2494
7.79191 55.9358
7.83663 56.1062
7.88135 57.1805
7.92607 58.2722
7.97081 59.1904
8.01553 60.246
8.06026 61.7969
8.10498 62.6456
8.14971 71.5752
8.19446 70.6882
8.23919 68.5124
8.28392 70.9889
8.32865 73.0786
8.37339 77.0883
8.41812 83.9688
8.46288 109.046
8.50761 150.069
8.55235 353.02
8.59709 1165.74
8.64183 2268.87
8.68658 929.609
8.73134 168.481
8.77609 97.4392
8.82083 91.3136
8.86558 88.6484
8.91033 88.7078
8.9551 90.0796
8.99985 84.3693
9.04461 82.8491
9.08936 82.0525
9.13412 81.1268
9.17888 81.2246
9.22365 81.1659
9.26841 80.9584
9.31318 81.7699
9.35794 82.0001
9.4027 82.4927
9.44749 83.0201
9.49226 83.4676
9.53703 85.0171
9.5818 86.1717
9.62657 90.5567
9.67134 96.6032
9.71614 92.5879
9.76091 92.8129
9.80569 95.2238
9.85047 98.7119
9.89525 119.79
9.94005 129.876
9.98484 161.274
10.0296 317.94
10.0744 801.84
10.1192 1757.06
10.164 1556.69
10.2088 395.82
10.2536 124.249
10.2984 111.402
10.3432 112.328
10.388 103.034
10.4328 113.514
10.4776 153.847
10.5224 281.239
10.5672 533.902
10.612 509.365
10.6568 200.62
10.7017 95.9178
10.7465 85.4138
10.7913 82.1092
10.8361 80.0721
10.8809 78.0436
10.9257 77.3266
10.9706 77.6486
11.0154 73.8653
11.0602 72.1151
11.105 70.9317
11.1499 74.8862
11.1947 80.6969
11.2395 72.9741
11.2844 69.2666
11.3292 66.2616
11.374 65.2625
11.4189 64.6286
11.4637 64.0263
11.5086 64.4897
11.5534 66.9116
11.5983 64.4736
11.6431 62.7848
11.688 62.3522
11.7328 62.129
11.7777 61.8611
11.8225 61.65
11.8674 61.6841
11.9122 61.7148
11.9571 62.1053
12.002 62.4891
12.0468 66.157
12.0917 75.7952
12.1366 100.205
12.1814 154.663
12.2263 212.029
12.2712 169.665
12.3161 94.2396
12.3609 68.8551
12.4058 63.8041
12.4507 63.5851
12.4956 63.5938
12.5405 63.6418
12.5853 64.7505
12.6302 71.6201
12.6751 75.8164
12.72 68.781
12.7649 66.9172
12.8098 67.6399
12.8547 68.7115
12.8996 69.879
12.9445 71.3635
12.9894 73.079
13.0343 74.6445
13.0792 77.8687
13.1242 85.1724
13.1691 106.602
13.214 142.405
13.2589 238.485
13.3038 377.491
13.3487 414.286
13.3937 255.538
13.4386 121.222
13.4835 101.882
13.5285 115.31
13.5734 154.982
13.6183 251.738
13.6633 362.511
13.7082 335.003
13.7531 180.046
13.7981 96.122
13.843 80.6566
13.888 78.3185
13.9329 76.1937
13.9779 74.9311
14.0228 73.3419
14.0678 71.8116
14.1127 71.5501
14.1577 71.4581
14.2027 70.7084
14.2476 69.5602
14.2926 69.4992
14.3376 70.418
14.3825 69.3611
14.4275 67.8331
14.4725 67.8401
14.5175 67.8866
14.5624 68.2121
14.6074 69.9929
14.6524 70.5344
14.6974 69.7644
14.7424 70.5344
14.7874 76.334
14.8324 85.81
14.8774 107.744
14.9224 154.561
14.9674 215.663
15.0124 218.772
15.0574 147.025
15.1024 89.5966
15.1474 71.2266
15.1924 69.2632
15.2374 70.0612
15.2824 69.1065
15.3274 67.1004
15.3725 65.914
15.4175 65.5932
15.4625 65.1189
15.5076 65.3625
15.5526 65.3244
15.5976 64.9982
15.6426 65.5356
15.6877 70.315
15.7327 77.2071
15.7778 92.7939
15.8228 126.436
15.8679 172.506
15.9129 191.303
15.958 150.642
16.003 93.0129
16.0481 67.0429
16.0931 63.5384
16.1382 61.6657
16.1833 59.8094
16.2283 58.1215
16.2734 57.4921
16.3185 57.9274
16.3636 58.3396
16.4086 56.8117
16.4537 55.3462
16.4988 54.9802
16.5439 54.7222
16.589 54.2884
16.6341 54.128
16.6792 53.919
16.7243 54.2016
16.7694 54.1217
16.8145 54.2218
16.8596 54.607
16.9047 55.7897
16.9498 55.9933
16.9949 54.9518
17.04 55.2059
17.0851 55.981
17.1302 57.679
17.1754 60.6836
17.2205 65.835
17.2656 74.3503
17.3108 82.5275
17.3559 81.1224
17.401 70.136
17.4462 61.2723
17.4913 58.4605
17.5365 58.2079
17.5815 58.5252
17.6268 58.8222
17.6718 59.4661
17.7171 60.0932
17.7622 60.4857
17.8074 61.1318
17.8525 62.8511
17.8977 66.6466
17.9428 71.7803
17.9881 81.0712
18.0331 99.0138
18.0784 122.036
18.1237 137.447
18.1688 127.077
18.214 101.131
18.2591 85.3089
18.3044 90.8223
18.3495 100.188
18.3948 104.572
18.4399 93.7462
18.4852 75.8597
18.5303 64.9303
18.5756 61.3488
18.6207 60.5934
18.666 59.4113
18.7112 58.9768
18.7565 58.268
18.8016 57.9427
18.8469 57.2935
18.892 56.9219
18.9374 56.407
18.9825 56.2691
19.0278 56.0982
19.073 56.1871
19.1183 56.6591
19.1635 57.0656
19.2088 58.5828
19.254 61.4416
19.2993 65.9095
19.3447 72.288
19.3898 75.736
19.4352 70.9071
19.4804 62.0446
19.5257 55.7828
19.5709 53.351
19.6163 53.2368
19.6615 53.0659
19.7068 52.7794
19.752 52.6413
19.7974 52.8725
19.8426 53.7098
19.888 54.2013
19.9332 55.3283
19.9786 57.9454
20.0238 61.9059
20.0692 66.8583
20.1144 68.9575
20.1598 67.1874
20.205 62.6625
20.2504 61.9977
20.2957 63.9789
20.3411 65.1221
20.3863 62.9193
20.4318 57.4265
20.477 52.9527
20.5224 51.1641
20.5677 50.3272
20.6131 49.6332
20.6586 48.9966
20.7038 48.8327
20.7493 48.4262
20.7945 48.3399
20.84 48.3218
20.8853 47.9074
20.9307 47.8415
20.976 48.046
21.0215 47.9764
21.0668 48.5135
21.1122 48.8519
21.1575 49.5688
21.203 50.3874
21.2483 50.7365
21.2938 50.9208
21.3391 49.5222
21.3846 48.3832
21.4299 47.7675
21.4754 47.7618
21.5207 47.8439
21.5662 48.0754
21.6116 48.6657
21.6571 48.9711
21.7024 50.0377
21.7479 51.8015
21.7933 54.7009
21.8388 58.5252
21.8843 62.2468
21.9297 63.482
21.9752 61.9527
22.0206 58.592
22.0661 55.9894
22.1115 55.3682
22.157 55.034
22.2024 53.1207
22.248 50.7016
22.2933 49.1401
22.3389 48.449
22.3843 48.3603
22.4299 48.2711
22.4753 48.2187
22.5208 47.9409
22.5662 47.9488
22.6118 47.9834
22.6572 48.1031
22.7028 48.4746
22.7483 48.9282
22.7939 49.6078
22.8393 51.328
22.8849 53.4484
22.9303 55.81
22.9759 57.1413
23.0214 56.5998
23.067 53.8177
23.1126 50.4297
23.1581 48.7077
23.2037 48.1525
23.2492 48.2409
23.2948 48.079
23.3403 48.3682
23.3859 48.9433
23.4314 49.9555
23.477 52.1973
23.5225 54.5118
23.5682 56.4404
23.6137 57.1205
23.6593 54.5797
23.7048 50.7214
23.7505 47.8201
23.796 46.0559
23.8417 45.5991
23.8872 44.9689
23.9329 44.7163
23.9784 44.366
24.0241 43.9796
24.0697 43.8071
24.1154 43.5493
24.1609 43.3724
24.2066 43.3485
24.2522 43.2589
24.2979 42.9385
24.3434 42.7512
24.3892 42.6494
24.4349 42.6008
24.4805 42.3794
24.5262 42.5681
24.5718 42.4386
24.6175 42.4278
24.6631 42.1479
24.7089 42.1117
24.7545 41.9514
24.8002 41.7218
24.8458 41.6883
24.8916 41.5686
24.9372 41.7509
24.983 42.0492
25.0286 42.3777
25.0744 42.8003
25.12 43.2389
25.1658 43.9655
25.2114 44.119
25.2572 44.4333
25.3029 44.4397
25.3487 44.4876
25.3943 44.0419
25.4402 43.0227
25.4858 41.9183
25.5316 40.9347
25.5773 40.4059
25.6231 40.3923
25.669 39.9179
25.7147 39.8899
25.7605 40.119
25.8062 40.1675
25.8521 40.1606
25.8977 39.9818
25.9436 40.3907
25.9893 40.3818
26.0352 40.9338
26.0809 41.1192
26.1268 41.1577
26.1725 40.8834
26.2184 40.276
26.2641 39.8062
26.31 39.5768
26.3557 39.6943
26.4017 39.5486
26.4474 39.8592
26.4933 40.2466
26.5391 40.7784
26.585 41.3203
26.6308 41.6805
26.6767 41.6591
26.7225 41.5703
26.7684 40.9297
26.8142 40.4143
26.8601 39.9654
26.9059 39.5503
26.9519 38.9897
26.9979 38.6883
27.0437 38.2996
27.0896 38.249
27.1354 38.2856
27.1814 38.1898
27.2272 38.0887
27.2732 37.9668
27.3191 37.8184
27.3651 37.9595
27.4109 37.9234
27.4569 38.0588
27.5027 38.1099
27.5488 38.0691
27.5946 37.9007
27.6407 37.6866
27.6865 37.6459
27.7326 37.343
27.7784 37.379
27.8245 37.4111
27.8703 37.6166
27.9164 37.8208
27.9623 37.9288
28.0084 38.2882
28.0543 38.6524
28.1003 38.5525
28.1462 38.2862
28.1923 37.8758
28.2384 37.5081
28.2843 37.1558
28.3304 36.6839
28.3764 36.1183
28.4225 35.9383
28.4684 35.8418
28.5145 35.4566
28.5605 35.4634
28.6066 35.2618
28.6526 35.218
28.6987 35.2484
28.7447 35.1582
28.7908 35.0589
28.8368 35.022
28.8829 34.9788
28.9289 34.8875
28.9751 34.7786
29.0211 34.5236
29.0673 34.2483
29.1133 34.1043
29.1595 34.1735
29.2055 33.8918
29.2517 34.0418
29.2977 33.9678
29.3439 33.9486
29.3899 33.943
29.4361 33.7259
29.4824 33.4485
29.5284 33.3194
29.5746 33.0024
29.6207 32.8068
29.6669 32.6468
29.713 32.6353
29.7593 32.3553
29.8053 32.4809
29.8516 32.3546
29.8977 32.4203
29.9439 32.1905
29.99 32.2215
30.0363 32.0043
30.0824 32.2112
30.1287 32.0001
30.1748 32.0966
30.2211 32.1035
30.2673 31.8987
30.3136 32.0177
30.3597 31.8052
30.406 31.8342
30.4522 31.6716
30.4985 31.7042
30.5447 31.7761
30.591 31.8261
30.6372 31.891
30.6835 31.7939
30.7297 31.7906
30.7761 31.8339
30.8224 31.6127
30.8686 31.4837
30.915 31.2109
30.9612 31.1477
31.0076 30.873
31.0538 30.7858
31.1002 30.7816
31.1464 30.6366
31.1928 30.6262
31.2391 30.5829
31.2855 30.4775
31.3317 30.4959
31.3781 30.5559
31.4244 30.5393
31.4708 30.5108
31.5171 30.3931
31.5636 30.3788
31.6098 30.1924
31.6563 29.9527
31.7026 29.9133
31.7491 29.778
31.7953 29.8753
31.8418 29.756
31.8881 29.7622
31.9346 29.7464
31.9809 29.7208
32.0275 29.5813
32.074 29.422
32.1203 29.3376
32.1668 29.2092
32.2132 29.0514
32.2597 28.9609
32.306 28.8276
32.3526 28.6223
32.399 28.627
32.4455 28.4548
32.4919 28.4092
32.5385 28.2732
32.5848 28.1718
32.6314 28.1594
32.6778 28.0476
32.7244 27.9783
32.7708 27.7345
32.8174 27.8581
32.8638 27.7174
32.9104 27.8337
32.9569 27.6716
33.0035 27.535
33.0499 27.4915
33.0966 27.4998
33.143 27.4661
33.1897 27.4363
33.2361 27.2691
33.2828 27.2288
33.3293 27.107
33.3759 27.0483
33.4226 26.9314
33.4691 26.7645
33.5158 26.7437
33.5623 26.6227
33.609 26.4701
33.6555 26.3727
33.7022 26.3365
33.7487 26.1804
33.7954 26.1936
33.842 26.0527
33.8887 26.0503
33.9353 25.9197
33.982 25.8981
34.0286 25.8144
34.0753 25.7349
34.1219 25.6471
34.1687 25.5756
34.2152 25.5129
34.262 25.3531
34.3086 25.2965
34.3554 25.3406
34.402 25.0721
34.4488 25.0602
34.4954 24.9636
34.5422 24.8956
34.5889 24.8001
34.6357 24.7026
34.6825 24.6701
34.7292 24.5246
34.776 24.4659
34.8227 24.4856
34.8695 24.3767
34.9162 24.264
34.9631 24.2321
35.0098 24.1497
35.0566 24.1028
35.1033 24.0019
35.1502 23.9774
35.1969 23.9658
35.2438 23.8826
35.2906 23.8796
35.3375 23.7731
35.3842 23.7525
35.4311 23.6573
35.4779 23.6503
35.5248 23.6913
35.5716 23.5105
35.6185 23.4073
35.6653 23.319
35.7123 23.3471
35.759 23.2914
35.806 23.0303
35.8528 23.0142
35.8998 23.0041
35.9468 22.8687
35.9936 22.8623
36.0406 22.7403
36.0874 22.7533
36.1345 22.7067
36.1813 22.5961
36.2283 22.4288
36.2752 22.3738
36.3222 22.3607
36.3691 22.2976
36.4161 22.2136
36.463 22.1633
36.5101 22.213
36.557 22.1331
36.6041 21.8988
36.651 21.9552
36.6981 21.8121
36.745 21.817
36.7921 21.7588
36.839 21.6156
36.8861 21.509
36.9331 21.4266
36.9802 21.4076
37.0272 21.2926
37.0743 21.3001
37.1213 21.2085
37.1684 21.1654
37.2154 21.1261
37.2626 21.0362
37.3098 20.9666
37.3568 20.8964
37.404 20.8126
37.451 20.7802
37.4982 20.7084
37.5452 20.561
37.5924 20.5155
37.6395 20.663
37.6867 20.5008
37.7337 20.429
37.781 20.2547
37.8281 20.2201
37.8753 20.1409
37.9224 20.1288
37.9697 20.0392
38.0168 19.9786
38.064 19.9
38.1111 19.9309
38.1584 19.803
38.2056 19.6994
38.2529 19.7095
38.3 19.5372
38.3473 19.5812
38.3945 19.5402
38.4418 19.4582
38.489 19.335
38.5363 19.3093
38.5837 19.2455
38.6309 19.1209
38.6782 19.0904
38.7254 19.0502
38.7728 19.0083
38.82 18.8986
38.8674 18.8861
38.9146 18.7773
38.9621 18.7102
39.0093 18.7023
39.0567 18.6751
39.104 18.5641
39.1514 18.5042
39.1987 18.4894
39.2461 18.4246
39.2934 18.3222
39.3409 18.3128
39.3882 18.2261
39.4356 18.1875
39.483 18.0748
39.5304 18.0232
39.5778 17.9587
39.6253 17.9607
39.6726 17.8967
39.7201 17.8989
39.7675 17.8485
39.815 17.728
39.8624 17.6345
39.9099 17.6288
39.9575 17.5502
40.0049 17.4586
40.0525 17.4078
40.0999 17.3519
40.1474 17.2889
40.1949 17.2695
40.2425 17.24
40.2899 17.1715
40.3375 17.1269
40.385 17.0818
40.4326 16.9766
40.48 16.9019
40.5277 16.9312
40.5752 16.8182
40.6228 16.7322
40.6703 16.7024
40.718 16.6686
40.7655 16.6482
40.8132 16.5659
40.8607 16.5274
40.9084 16.4979
40.9559 16.3745
41.0036 16.3957
41.0512 16.332
41.0989 16.3284
41.1465 16.2398
41.1942 16.1606
41.242 16.0494
41.2896 16.0244
41.3373 15.9533
41.3849 15.9071
41.4327 15.9067
41.4803 15.8058
41.5281 15.79
41.5758 15.6948
41.6236 15.6552
41.6712 15.5923
41.7191 15.5495
41.7667 15.5024
41.8146 15.4627
41.8622 15.4201
41.9101 15.385
41.9578 15.2628
42.0057 15.2362
42.0534 15.1835
42.1013 15.1706
42.149 15.1112
42.1969 15.0382
42.2446 15.0004
42.2925 14.9324
42.3403 14.9165
42.3882 14.9092
42.436 14.8129
42.4839 14.7204
42.5319 14.6908
42.5797 14.6418
42.6277 14.6015
42.6755 14.4954
42.7235 14.4754
42.7713 14.5097
42.8193 14.4281
42.8671 14.4177
42.9152 14.2881
42.963 14.2154
43.0111 14.1979
43.0589 14.1793
43.107 14.068
43.1549 14.0609
43.2029 14.0401
43.2508 13.9633
43.2989 13.9295
43.3468 13.8339
43.3949 13.8418
43.4429 13.7508
43.491 13.7065
43.5389 13.7007
43.5871 13.6549
43.635 13.5972
43.6832 13.5637
43.7312 13.4775
43.7793 13.4051
43.8273 13.3955
43.8755 13.3356
43.9237 13.3261
43.9717 13.2682
44.0199 13.1988
44.068 13.1991
44.1162 13.0728
44.1642 13.1282
44.2125 13.0488
44.2606 12.987
44.3088 12.9555
44.3569 12.9079
44.4052 12.9142
44.4533 12.8131
44.5016 12.7438
44.5497 12.7037
44.598 12.6612
44.6461 12.6084
44.6945 12.5243
44.7426 12.5631
44.791 12.4864
44.8391 12.4463
44.8875 12.4234
44.9357 12.3665
44.984 12.2951
45.0322 12.2413
45.0806 12.2675
45.1288 12.1773
45.1773 12.1505
45.2257 12.0794
45.2739 12.1021
45.3224 12.0192
45.3706 11.9787
45.4191 11.891
45.4673 11.9123
45.5158 11.8274
45.5641 11.8133
45.6126 11.8059
45.6609 11.7333
45.7094 11.684
45.7577 11.6692
45.8063 11.5554
45.8546 11.5754
45.9031 11.5233
45.9515 11.5227
46.0001 11.4207
46.0484 11.4119
46.097 11.4102
46.1454 11.3368
46.194 11.2852
46.2424 11.2276
46.291 11.1794
46.3395 11.1425
46.3881 11.0914
46.4365 11.1019
46.4852 11.0267
46.5337 10.9933
46.5823 10.9802
46.631 10.9385
46.6795 10.8546
46.7282 10.8173
46.7767 10.761
46.8254 10.7455
46.8739 10.7263
46.9226 10.6588
46.9712 10.6325
47.0199 10.5625
47.0685 10.5444
47.1173 10.4849
47.1658 10.498
47.2146 10.4685
47.2632 10.3966
47.312 10.3628
47.3606 10.3232
47.4095 10.3057
47.4581 10.2563
47.5069 10.2029
47.5556 10.1837
47.6044 10.1213
47.6531 10.1045
47.702 10.0448
47.7507 10.0527
47.7996 9.99063
47.8483 9.94482
47.8972 9.94871
47.9461 9.8641
47.9948 9.87714
48.0438 9.77172
48.0925 9.76654
48.1415 9.7547
48.1902 9.70138
48.2392 9.66108
48.288 9.69588
48.337 9.55655
48.3858 9.56571
48.4348 9.52854
48.4837 9.51595
48.5327 9.44872
48.5815 9.40131
48.6306 9.37492
48.6795 9.31405
48.7285 9.314
48.7774 9.25783
48.8265 9.25368
48.8754 9.22425
48.9245 9.19163
48.9734 9.12758
49.0226 9.17342
49.0715 9.07373
49.1206 9.02331
49.1696 8.99852
49.2188 8.9614
49.2679 8.94903
49.3169 8.88781
49.3661 8.83261
49.4151 8.84789
49.4643 8.83272
49.5134 8.76667
49.5626 8.74697
49.6117 8.66613
49.6609 8.69647
49.71 8.59597
49.7592 8.61786
49.8083 8.53752
49.8576 8.53945
49.9067 8.50466
49.956 8.48069
50.0052 8.43041
50.0545 8.41606
50.1036 8.36318
50.153 8.34343
50.2022 8.29882
50.2515 8.2359
50.3007 8.22109
50.3501 8.21947
50.3993 8.18734
50.4487 8.16553
50.498 8.10109
50.5474 8.07128
50.5966 8.04496
50.6461 8.01399
50.6955 7.98573
50.7448 7.96704
50.7943 7.90582
50.8436 7.88653
50.8931 7.86468
50.9424 7.83694
50.9919 7.8063
51.0413 7.79567
51.0908 7.71213
51.1402 7.7229
51.1897 7.69185
51.2391 7.62784
51.2887 7.60686
51.3381 7.62364
51.3877 7.55539
51.4371 7.55031
51.4867 7.50193
51.5362 7.47749
51.5858 7.44568
51.6353 7.40423
51.6849 7.36109
51.7344 7.33855
51.7841 7.36724
51.8336 7.2971
51.8833 7.24501
51.9328 7.22986
51.9826 7.19385
52.0323 7.19822
52.0818 7.17058
52.1316 7.07448
52.1812 7.14126
52.231 7.05082
52.2806 7.00597
52.3304 6.99203
52.38 6.94734
52.4298 6.92764
52.4794 6.90023
52.5293 6.87006
52.5789 6.88059
52.6288 6.84103
52.6785 6.77648
52.7284 6.7784
52.7781 6.74174
52.828 6.73049
52.8777 6.67184
52.9276 6.63264
52.9774 6.58392
53.0273 6.56231
53.0771 6.56878
53.1271 6.55954
53.1769 6.49391
53.2269 6.47206
53.2767 6.45841
53.3267 6.38149
53.3765 6.41815
53.4266 6.38498
53.4766 6.31054
53.5265 6.29338
53.5765 6.30413
53.6264 6.29113
53.6765 6.28773
53.7264 6.22525
53.7765 6.19249
53.8265 6.18217
53.8766 6.12367
53.9266 6.1163
53.9767 6.08768
54.0267 6.031
54.0769 6.02864
54.1269 5.98229
54.1771 5.95335
54.2271 5.97818
54.2773 5.88204
54.3274 5.88326
54.3776 5.86807
54.4277 5.81982
54.478 5.79475
54.528 5.72508
54.5783 5.68886
54.6285 5.71285
54.6788 5.62175
54.7289 5.62662
54.7792 5.55154
54.8296 5.50448
54.8798 5.45356
54.9301 5.40206
54.9803 5.37841
55.0307 5.41179
55.0809 5.28529
55.1314 5.34538
55.1816 5.20374
55.232 5.15978
55.2823 5.13587
55.3328 5.05824
55.383 5.0305
55.4335 5.03003
55.4838 4.95752
55.5344 4.96286
55.5847 4.84886
55.6352 4.81806
55.6856 4.7906
55.7361 4.82084