File: XRD/Ni3Fe_FD1058.xy
TT I
1.27165 6.92717
1.31627 6.4024
1.36089 5.85568
1.40551 6.34681
1.45013 5.71354
1.49476 6.08576
1.53938 5.10859
1.584 5.14762
1.62863 4.7344
1.67325 4.31668
1.71787 5.11888
1.7625 4.30763
1.80712 4.05191
1.85174 4.42704
1.89636 4.02127
1.94099 4.41112
1.98562 4.45028
2.03025 4.66297
2.07487 3.70419
2.11949 4.57792
2.16411 4.27382
2.20874 4.72591
2.25338 6.19147
2.298 5.16995
2.34263 5.18841
2.38725 5.95907
2.43188 5.26053
2.4765 7.15943
2.52115 6.93713
2.56577 7.6829
2.6104 8.85643
2.65503 8.73534
2.69965 8.99709
2.7443 8.76886
2.78893 8.41782
2.83356 8.94686
2.87818 8.90301
2.92281 8.7302
2.96744 9.44813
3.01209 10.4117
3.05672 10.7636
3.10135 11.8335
3.14599 12.8572
3.19062 14.6363
3.23527 14.8977
3.2799 15.3709
3.32454 15.8549
3.36917 17.119
3.4138 18.3372
3.45844 18.7552
3.50309 19.795
3.54773 20.7719
3.59237 21.4359
3.637 28.0844
3.68164 27.03
3.7263 24.3676
3.77094 24.7022
3.81558 25.7256
3.86022 25.8364
3.90486 27.6619
3.9495 28.3148
3.99416 29.8218
4.0388 30.53
4.08344 31.8433
4.12809 32.5178
4.17273 33.7373
4.21738 35.6884
4.26204 51.9135
4.30669 56.1068
4.35133 40.4164
4.39598 41.1542
4.44063 43.2816
4.4853 46.2796
4.52995 46.9394
4.5746 48.6162
4.61925 50.3374
4.6639 52.5038
4.70855 55.5388
4.75322 57.7984
4.79788 60.833
4.84253 64.2108
4.88719 67.9986
4.93184 71.6609
4.97652 77.2633
5.02118 82.881
5.06583 89.1343
5.11049 97.693
5.15515 118.734
5.19981 232.67
5.24449 2506.15
5.28916 13502.0
5.33382 3298.31
5.37848 209.785
5.42315 123.827
5.46783 108.095
5.5125 101.348
5.55716 97.4854
5.60183 93.3489
5.6465 91.3354
5.69117 89.601
5.73586 87.9585
5.78053 87.6458
5.8252 86.1652
5.86988 87.1897
5.91455 89.0955
5.95924 95.1959
6.00392 164.076
6.0486 895.577
6.09328 4546.63
6.13795 3613.22
6.18263 238.372
6.22733 87.4269
6.27201 75.7627
6.3167 73.221
6.36138 68.7127
6.40606 64.4923
6.45075 63.65
6.49545 61.8025
6.54014 60.1108
6.58483 59.072
6.62952 58.115
6.67421 58.6704
6.71892 64.067
6.76361 56.7024
6.8083 54.8645
6.853 53.9337
6.89769 53.5717
6.94239 53.2433
6.98711 52.7719
7.03181 52.4313
7.07651 52.4737
7.12121 51.8422
7.16591 51.5408
7.21063 51.4064
7.25533 51.58
7.30004 61.6149
7.34475 55.786
7.38945 51.7087
7.43416 50.8201
7.47889 51.6075
7.5236 58.6255
7.56831 73.3275
7.61303 56.667
7.65774 52.8695
7.70247 53.1599
7.74719 53.2483
7.79191 53.7172
7.83663 54.1705
7.88135 54.8248
7.92607 55.6954
7.97081 57.0252
8.01553 57.3908
8.06026 59.0451
8.10498 60.1885
8.14971 62.5288
8.19446 64.0874
8.23919 65.5017
8.28392 68.1765
8.32865 70.2909
8.37339 74.3076
8.41812 78.0406
8.46288 86.4749
8.50761 128.65
8.55235 374.858
8.59709 1096.01
8.64183 2281.64
8.68658 1105.07
8.73134 172.352
8.77609 94.889
8.82083 88.4734
8.86558 85.772
8.91033 83.7762
8.9551 82.4094
8.99985 81.1668
9.04461 80.5798
9.08936 79.7068
9.13412 79.2343
9.17888 79.5762
9.22365 91.6119
9.26841 113.352
9.31318 89.5001
9.35794 79.8817
9.4027 80.0319
9.44749 80.6562
9.49226 80.9937
9.53703 81.8852
9.5818 83.5885
9.62657 84.2864
9.67134 86.4279
9.71614 87.9378
9.76091 89.5094
9.80569 91.7518
9.85047 93.9835
9.89525 98.8625
9.94005 106.424
9.98484 147.645
10.0296 350.918
10.0744 778.598
10.1192 1769.04
10.164 1683.98
10.2088 439.187
10.2536 124.796
10.2984 103.288
10.3432 100.428
10.388 97.6708
10.4328 107.894
10.4776 162.158
10.5224 272.373
10.5672 506.237
10.612 567.92
10.6568 227.79
10.7017 104.022
10.7465 86.5518
10.7913 80.3773
10.8361 77.6118
10.8809 75.6643
10.9257 73.4217
10.9706 72.7681
11.0154 70.5364
11.0602 69.3633
11.105 68.1279
11.1499 67.2989
11.1947 67.3332
11.2395 66.07
11.2844 65.1389
11.3292 63.7921
11.374 63.0172
11.4189 62.5261
11.4637 61.9094
11.5086 61.1925
11.5534 61.1477
11.5983 60.7357
11.6431 60.6448
11.688 60.2155
11.7328 59.795
11.7777 59.8883
11.8225 59.5873
11.8674 59.7032
11.9122 61.6654
11.9571 68.264
12.002 66.5403
12.0468 64.6179
12.0917 76.6773
12.1366 99.0242
12.1814 146.302
12.2263 202.095
12.2712 174.679
12.3161 98.2746
12.3609 64.5126
12.4058 61.3507
12.4507 61.3521
12.4956 61.4494
12.5405 61.46
12.5853 61.8826
12.6302 62.7242
12.6751 64.0021
12.72 63.9596
12.7649 64.5759
12.8098 65.2195
12.8547 66.5958
12.8996 68.0242
12.9445 69.3662
12.9894 71.0736
13.0343 72.813
13.0792 76.784
13.1242 82.5127
13.1691 107.887
13.214 148.46
13.2589 229.247
13.3038 368.435
13.3487 446.8
13.3937 279.281
13.4386 127.639
13.4835 99.2959
13.5285 120.757
13.5734 157.049
13.6183 237.815
13.6633 356.656
13.7082 360.051
13.7531 206.005
13.7981 100.215
13.843 79.4595
13.888 77.0818
13.9329 74.6692
13.9779 73.5266
14.0228 72.3743
14.0678 70.9297
14.1127 71.5445
14.1577 75.1973
14.2027 73.5385
14.2476 69.0631
14.2926 67.4528
14.3376 67.3684
14.3825 66.7194
14.4275 66.3574
14.4725 66.3734
14.5175 66.5949
14.5624 66.405
14.6074 66.6993
14.6524 66.9453
14.6974 67.5024
14.7424 68.6726
14.7874 74.517
14.8324 88.7332
14.8774 110.169
14.9224 148.733
14.9674 208.456
15.0124 228.024
15.0574 160.25
15.1024 93.9012
15.1474 71.053
15.1924 67.9855
15.2374 66.5136
15.2824 66.0609
15.3274 64.9991
15.3725 64.3401
15.4175 64.1356
15.4625 63.6658
15.5076 63.3433
15.5526 63.4974
15.5976 63.485
15.6426 63.8311
15.6877 68.7971
15.7327 79.6224
15.7778 94.8602
15.8228 122.358
15.8679 169.201
15.9129 202.593
15.958 168.862
16.003 104.1
16.0481 69.2477
16.0931 62.8863
16.1382 59.9832
16.1833 58.2488
16.2283 56.8861
16.2734 56.2956
16.3185 55.6165
16.3636 55.2682
16.4086 54.6407
16.4537 53.8704
16.4988 53.3242
16.5439 53.5512
16.589 53.2335
16.6341 52.929
16.6792 52.5423
16.7243 52.9022
16.7694 52.8144
16.8145 52.6428
16.8596 53.0435
16.9047 53.672
16.9498 54.0629
16.9949 53.9926
17.04 53.8449
17.0851 54.7951
17.1302 57.1573
17.1754 60.1065
17.2205 64.6929
17.2656 72.4216
17.3108 82.0903
17.3559 82.5706
17.401 72.2864
17.4462 61.5915
17.4913 57.5254
17.5365 57.0824
17.5815 57.463
17.6268 57.6034
17.6718 58.2713
17.7171 58.8087
17.7622 60.137
17.8074 60.9641
17.8525 61.8085
17.8977 66.4575
17.9428 73.5155
17.9881 82.0578
18.0331 98.1469
18.0784 121.545
18.1237 142.327
18.1688 137.284
18.214 108.988
18.2591 88.3836
18.3044 88.801
18.3495 99.5242
18.3948 107.751
18.4399 98.8051
18.4852 79.0545
18.5303 65.9031
18.5756 61.2525
18.6207 60.1995
18.666 58.9437
18.7112 58.1512
18.7565 57.4412
18.8016 57.2364
18.8469 56.2742
18.892 56.0112
18.9374 55.6517
18.9825 55.22
19.0278 55.0121
19.073 55.1944
19.1183 55.1735
19.1635 56.3351
19.2088 58.1242
19.254 60.6088
19.2993 65.6748
19.3447 72.2815
19.3898 76.2279
19.4352 72.1026
19.4804 63.462
19.5257 56.1313
19.5709 53.0912
19.6163 52.5094
19.6615 52.1238
19.7068 51.7942
19.752 51.7909
19.7974 51.8079
19.8426 52.6669
19.888 53.8868
19.9332 55.3333
19.9786 57.557
20.0238 60.8369
20.0692 66.4835
20.1144 70.5537
20.1598 69.0761
20.205 64.2363
20.2504 61.9876
20.2957 63.4821
20.3411 65.5425
20.3863 64.0603
20.4318 58.3524
20.477 52.9237
20.5224 50.172
20.5677 49.2836
20.6131 49.018
20.6586 48.3546
20.7038 48.3631
20.7493 47.9686
20.7945 48.1298
20.84 47.9187
20.8853 47.5543
20.9307 47.2498
20.976 47.3514
21.0215 47.4784
21.0668 47.7792
21.1122 48.2273
21.1575 48.9355
21.203 49.7465
21.2483 50.3428
21.2938 50.404
21.3391 49.3359
21.3846 48.0242
21.4299 47.3407
21.4754 47.4317
21.5207 47.6221
21.5662 47.7057
21.6116 48.0419
21.6571 48.8195
21.7024 50.08
21.7479 51.8476
21.7933 54.3155
21.8388 58.0715
21.8843 62.7962
21.9297 65.4401
21.9752 64.0627
22.0206 59.8285
22.0661 56.372
22.1115 56.0099
22.157 55.8558
22.2024 54.2217
22.248 51.1096
22.2933 49.2075
22.3389 48.1156
22.3843 47.6512
22.4299 47.5628
22.4753 47.6318
22.5208 47.5199
22.5662 47.4399
22.6118 47.6904
22.6572 47.6804
22.7028 48.3139
22.7483 49.1148
22.7939 49.8381
22.8393 51.3356
22.8849 53.3916
22.9303 55.7382
22.9759 57.7665
23.0214 57.5185
23.067 54.6399
23.1126 50.8937
23.1581 48.6384
23.2037 47.8015
23.2492 47.7193
23.2948 47.9699
23.3403 48.695
23.3859 49.4007
23.4314 50.4397
23.477 52.0888
23.5225 54.5315
23.5682 57.3792
23.6137 58.5586
23.6593 56.5668
23.7048 51.9328
23.7505 48.3326
23.796 46.0023
23.8417 45.1383
23.8872 44.5986
23.9329 44.2501
23.9784 44.0218
24.0241 43.7956
24.0697 43.638
24.1154 43.1792
24.1609 43.0817
24.2066 42.8053
24.2522 42.5946
24.2979 42.5375
24.3434 42.3548
24.3892 42.1146
24.4349 42.2587
24.4805 42.0176
24.5262 42.0886
24.5718 42.1072
24.6175 42.2265
24.6631 42.0542
24.7089 41.6387
24.7545 41.4529
24.8002 41.2542
24.8458 41.3639
24.8916 41.2054
24.9372 41.4936
24.983 41.5656
25.0286 42.035
25.0744 42.6285
25.12 43.1047
25.1658 43.779
25.2114 44.1487
25.2572 44.4855
25.3029 44.4847
25.3487 44.6597
25.3943 44.3276
25.4402 43.2603
25.4858 42.0503
25.5316 40.8385
25.5773 40.1626
25.6231 40.2084
25.669 39.7829
25.7147 39.5824
25.7605 39.5742
25.8062 39.8721
25.8521 39.9798
25.8977 39.9469
25.9436 40.0609
25.9893 40.2224
26.0352 40.9213
26.0809 41.1962
26.1268 41.3769
26.1725 40.9899
26.2184 40.4161
26.2641 39.6063
26.31 39.4171
26.3557 39.6287
26.4017 39.4992
26.4474 39.701
26.4933 40.0107
26.5391 40.5553
26.585 41.2479
26.6308 41.7643
26.6767 41.8099
26.7225 41.7307
26.7684 41.1497
26.8142 40.4901
26.8601 40.0505
26.9059 39.5713
26.9519 39.1511
26.9979 38.758
27.0437 38.2865
27.0896 38.1298
27.1354 38.0676
27.1814 37.9541
27.2272 37.8749
27.2732 38.0123
27.3191 37.7194
27.3651 37.9221
27.4109 37.7513
27.4569 37.8672
27.5027 37.9766
27.5488 37.9602
27.5946 38.0407
27.6407 37.6989
27.6865 37.6441
27.7326 37.3274
27.7784 37.4238
27.8245 37.2429
27.8703 37.4612
27.9164 37.7641
27.9623 38.0756
28.0084 38.4621
28.0543 38.9419
28.1003 38.9131
28.1462 38.8585
28.1923 38.2614
28.2384 37.8361
28.2843 37.3773
28.3304 36.8938
28.3764 36.284
28.4225 35.8952
28.4684 35.7507
28.5145 35.4298
28.5605 35.3522
28.6066 35.2136
28.6526 35.0278
28.6987 35.1328
28.7447 34.9179
28.7908 34.7021
28.8368 34.907
28.8829 34.9591
28.9289 34.8541
28.9751 34.6388
29.0211 34.5009
29.0673 34.2338
29.1133 33.9038
29.1595 33.8474
29.2055 33.7893
29.2517 33.8159
29.2977 33.7109
29.3439 33.7566
29.3899 33.7509
29.4361 33.7994
29.4824 33.5143
29.5284 33.244
29.5746 32.923
29.6207 32.6193
29.6669 32.5524
29.713 32.4653
29.7593 32.2785
29.8053 32.2729
29.8516 32.2084
29.8977 32.2
29.9439 32.0982
29.99 32.037
30.0363 31.8667
30.0824 32.0145
30.1287 31.8046
30.1748 31.8757
30.2211 31.9605
30.2673 31.8285
30.3136 31.8557
30.3597 31.8091
30.406 31.6998
30.4522 31.5352
30.4985 31.5786
30.5447 31.7167
30.591 31.6756
30.6372 31.8332
30.6835 31.7776
30.7297 31.9536
30.7761 31.7792
30.8224 31.6136
30.8686 31.4685
30.915 31.2873
30.9612 31.1313
31.0076 30.9125
31.0538 30.7472
31.1002 30.676
31.1464 30.4579
31.1928 30.5176
31.2391 30.6107
31.2855 30.4687
31.3317 30.3279
31.3781 30.54
31.4244 30.4866
31.4708 30.4002
31.5171 30.4339
31.5636 30.3659
31.6098 30.076
31.6563 29.9388
31.7026 29.9013
31.7491 29.761
31.7953 29.7667
31.8418 29.733
31.8881 29.8171
31.9346 29.6464
31.9809 29.664
32.0275 29.5751
32.074 29.4621
32.1203 29.2284
32.1668 29.2133
32.2132 28.9789
32.2597 28.8251
32.306 28.7594
32.3526 28.5934
32.399 28.5315
32.4455 28.3527
32.4919 28.331
32.5385 28.115
32.5848 28.1898
32.6314 28.0735
32.6778 28.0108
32.7244 27.8542
32.7708 27.743
32.8174 27.6904
32.8638 27.5861
32.9104 27.7775
32.9569 27.5849
33.0035 27.4871
33.0499 27.4879
33.0966 27.442
33.143 27.4506
33.1897 27.3546
33.2361 27.2916
33.2828 27.2564
33.3293 27.056
33.3759 27.0764
33.4226 26.8863
33.4691 26.7991
33.5158 26.6959
33.5623 26.5194
33.609 26.4474
33.6555 26.341
33.7022 26.1652
33.7487 26.1175
33.7954 26.2214
33.842 25.9996
33.8887 25.9021
33.9353 25.9566
33.982 25.7693
34.0286 25.7167
34.0753 25.6255
34.1219 25.4883
34.1687 25.5383
34.2152 25.4168
34.262 25.2382
34.3086 25.1908
34.3554 25.2001
34.402 25.0676
34.4488 24.8604
34.4954 24.824
34.5422 24.7716
34.5889 24.661
34.6357 24.6417
34.6825 24.5716
34.7292 24.4827
34.776 24.3896
34.8227 24.3993
34.8695 24.2357
34.9162 24.1811
34.9631 24.1428
35.0098 24.0858
35.0566 23.9681
35.1033 23.9712
35.1502 23.894
35.1969 23.8815
35.2438 23.8203
35.2906 23.7966
35.3375 23.7003
35.3842 23.6691
35.4311 23.664
35.4779 23.6768
35.5248 23.6361
35.5716 23.4668
35.6185 23.4237
35.6653 23.2458
35.7123 23.2234
35.759 23.1994
35.806 23.0302
35.8528 22.9425
35.8998 22.883
35.9468 22.8209
35.9936 22.7655
36.0406 22.694
36.0874 22.6376
36.1345 22.5949
36.1813 22.5602
36.2283 22.436
36.2752 22.1846
36.3222 22.306
36.3691 22.2275
36.4161 22.1921
36.463 22.1636
36.5101 22.1755
36.557 21.9892
36.6041 21.875
36.651 21.9201
36.6981 21.8206
36.745 21.7372
36.7921 21.6646
36.839 21.5747
36.8861 21.4982
36.9331 21.4929
36.9802 21.3519
37.0272 21.2592
37.0743 21.2394
37.1213 21.2022
37.1684 21.104
37.2154 21.0388
37.2626 20.9671
37.3098 20.937
37.3568 20.816
37.404 20.791
37.451 20.6966
37.4982 20.7041
37.5452 20.591
37.5924 20.5132
37.6395 20.5308
37.6867 20.4235
37.7337 20.3259
37.781 20.2593
37.8281 20.1914
37.8753 20.0524
37.9224 20.0267
37.9697 19.981
38.0168 19.9624
38.064 19.8344
38.1111 19.7564
38.1584 19.7478
38.2056 19.6309
38.2529 19.6369
38.3 19.5896
38.3473 19.5549
38.3945 19.4192
38.4418 19.4249
38.489 19.3393
38.5363 19.2117
38.5837 19.1687
38.6309 19.1396
38.6782 19.0195
38.7254 18.9346
38.7728 18.9463
38.82 18.8407
38.8674 18.8358
38.9146 18.7889
38.9621 18.6405
39.0093 18.6848
39.0567 18.5788
39.104 18.4893
39.1514 18.4593
39.1987 18.4701
39.2461 18.3525
39.2934 18.2916
39.3409 18.2586
39.3882 18.1462
39.4356 18.1008
39.483 18.1029
39.5304 18.0196
39.5778 17.9826
39.6253 17.8516
39.6726 17.794
39.7201 17.8348
39.7675 17.7911
39.815 17.639
39.8624 17.6354
39.9099 17.5966
39.9575 17.463
40.0049 17.4407
40.0525 17.4137
40.0999 17.3719
40.1474 17.2301
40.1949 17.1787
40.2425 17.1404
40.2899 17.1215
40.3375 17.0925
40.385 16.9893
40.4326 16.934
40.48 16.9132
40.5277 16.867
40.5752 16.783
40.6228 16.7544
40.6703 16.7207
40.718 16.6492
40.7655 16.604
40.8132 16.5262
40.8607 16.5496
40.9084 16.4556
40.9559 16.365
41.0036 16.3563
41.0512 16.307
41.0989 16.2372
41.1465 16.1492
41.1942 16.1664
41.242 16.0049
41.2896 15.9696
41.3373 15.9465
41.3849 15.9256
41.4327 15.8072
41.4803 15.7497
41.5281 15.7225
41.5758 15.6368
41.6236 15.6369
41.6712 15.5596
41.7191 15.5052
41.7667 15.4899
41.8146 15.4194
41.8622 15.3772
41.9101 15.2852
41.9578 15.2116
42.0057 15.1998
42.0534 15.1495
42.1013 15.1366
42.149 15.049
42.1969 14.9597
42.2446 15.0105
42.2925 14.9265
42.3403 14.8286
42.3882 14.8207
42.436 14.7892
42.4839 14.6894
42.5319 14.6608
42.5797 14.6126
42.6277 14.6204
42.6755 14.4912
42.7235 14.3957
42.7713 14.439
42.8193 14.3654
42.8671 14.2922
42.9152 14.2819
42.963 14.2336
43.0111 14.1586
43.0589 14.1431
43.107 14.0915
43.1549 14.0191
43.2029 13.9666
43.2508 13.9045
43.2989 13.8948
43.3468 13.7909
43.3949 13.7961
43.4429 13.7827
43.491 13.6772
43.5389 13.6428
43.5871 13.5661
43.635 13.5417
43.6832 13.4952
43.7312 13.4221
43.7793 13.4085
43.8273 13.3787
43.8755 13.3303
43.9237 13.2642
43.9717 13.2315
44.0199 13.1684
44.068 13.1566
44.1162 13.0818
44.1642 13.0443
44.2125 13.0343
44.2606 12.9417
44.3088 12.9084
44.3569 12.8593
44.4052 12.8532
44.4533 12.7455
44.5016 12.6971
44.5497 12.6873
44.598 12.6532
44.6461 12.563
44.6945 12.523
44.7426 12.5313
44.791 12.437
44.8391 12.4249
44.8875 12.3244
44.9357 12.3669
44.984 12.3427
45.0322 12.2039
45.0806 12.1963
45.1288 12.1786
45.1773 12.1286
45.2257 12.0699
45.2739 12.0261
45.3224 12.0003
45.3706 11.9135
45.4191 11.863
45.4673 11.868
45.5158 11.8227
45.5641 11.7661
45.6126 11.7203
45.6609 11.6922
45.7094 11.6562
45.7577 11.6154
45.8063 11.5159
45.8546 11.5402
45.9031 11.4794
45.9515 11.4605
46.0001 11.3893
46.0484 11.3561
46.097 11.306
46.1454 11.3171
46.194 11.2428
46.2424 11.1527
46.291 11.1867
46.3395 11.0979
46.3881 11.0605
46.4365 11.0578
46.4852 11.0163
46.5337 10.9445
46.5823 10.9333
46.631 10.8904
46.6795 10.8672
46.7282 10.7735
46.7767 10.7433
46.8254 10.6945
46.8739 10.6789
46.9226 10.6482
46.9712 10.62
47.0199 10.5427
47.0685 10.5391
47.1173 10.4467
47.1658 10.4539
47.2146 10.3837
47.2632 10.3053
47.312 10.3274
47.3606 10.3101
47.4095 10.2407
47.4581 10.2099
47.5069 10.1785
47.5556 10.0923
47.6044 10.0656
47.6531 10.0504
47.702 10.0068
47.7507 9.94556
47.7996 9.92077
47.8483 9.89722
47.8972 9.8893
47.9461 9.88624
47.9948 9.81026
48.0438 9.77605
48.0925 9.7491
48.1415 9.71909
48.1902 9.67519
48.2392 9.63412
48.288 9.62565
48.337 9.5754
48.3858 9.5573
48.4348 9.50424
48.4837 9.48364
48.5327 9.44947
48.5815 9.36969
48.6306 9.37464
48.6795 9.33977
48.7285 9.26684
48.7774 9.24008
48.8265 9.22614
48.8754 9.20662
48.9245 9.19594
48.9734 9.13643
49.0226 9.09355
49.0715 9.04296
49.1206 8.98171
49.1696 8.95924
49.2188 8.93571
49.2679 8.9147
49.3169 8.84035
49.3661 8.79795
49.4151 8.80592
49.4643 8.78142
49.5134 8.76057
49.5626 8.67327
49.6117 8.69704
49.6609 8.62403
49.71 8.61571
49.7592 8.55246
49.8083 8.55658
49.8576 8.48899
49.9067 8.48424
49.956 8.45616
50.0052 8.42178
50.0545 8.39817
50.1036 8.34636
50.153 8.34146
50.2022 8.31714
50.2515 8.23559
50.3007 8.20811
50.3501 8.17837
50.3993 8.1193
50.4487 8.10912
50.498 8.10799
50.5474 8.04076
50.5966 8.03333
50.6461 8.03786
50.6955 7.95626
50.7448 7.93826
50.7943 7.93544
50.8436 7.8537
50.8931 7.85137
50.9424 7.86464
50.9919 7.79423
51.0413 7.79277
51.0908 7.73772
51.1402 7.71923
51.1897 7.66407
51.2391 7.60275
51.2887 7.61379
51.3381 7.57792
51.3877 7.53173
51.4371 7.51386
51.4867 7.46702
51.5362 7.44114
51.5858 7.40914
51.6353 7.3356
51.6849 7.36299
51.7344 7.30248
51.7841 7.3145
51.8336 7.25452
51.8833 7.23092
51.9328 7.19401
51.9826 7.17457
52.0323 7.1459
52.0818 7.10763
52.1316 7.06454
52.1812 7.0487
52.231 7.00894
52.2806 6.98805
52.3304 6.98243
52.38 6.90973
52.4298 6.89846
52.4794 6.89032
52.5293 6.83178
52.5789 6.81894
52.6288 6.80159
52.6785 6.78127
52.7284 6.75503
52.7781 6.71846
52.828 6.68822
52.8777 6.63924
52.9276 6.6158
52.9774 6.60673
53.0273 6.51289
53.0771 6.53843
53.1271 6.51538
53.1769 6.50402
53.2269 6.45167
53.2767 6.43432
53.3267 6.41469
53.3765 6.35547
53.4266 6.33611
53.4766 6.3295
53.5265 6.27899
53.5765 6.27019
53.6264 6.24183
53.6765 6.21976
53.7264 6.21518
53.7765 6.15873
53.8265 6.1224
53.8766 6.1275
53.9266 6.08109
53.9767 6.04117
54.0267 6.05942
54.0769 6.05692
54.1269 5.97635
54.1771 5.93301
54.2271 5.92454
54.2773 5.85587
54.3274 5.86937
54.3776 5.82309
54.4277 5.80694
54.478 5.78764
54.528 5.76387
54.5783 5.66937
54.6285 5.69108
54.6788 5.62422
54.7289 5.5557
54.7792 5.53727
54.8296 5.46629
54.8798 5.42763
54.9301 5.46756
54.9803 5.3902
55.0307 5.35682
55.0809 5.30779
55.1314 5.30118
55.1816 5.20372
55.232 5.20688
55.2823 5.15639
55.3328 5.0657
55.383 4.98842
55.4335 5.03767
55.4838 4.9666
55.5344 4.87785
55.5847 4.92097
55.6352 4.81719
55.6856 4.7435
55.7361 4.76536