File: XRD/Ni3Fe_FD0862.xy
TT I
1.27165 7.01944
1.31627 6.63306
1.36089 6.29949
1.40551 6.84892
1.45013 6.08686
1.49476 5.91563
1.53938 5.3486
1.584 5.19273
1.62863 5.43633
1.67325 4.66376
1.71787 4.53011
1.7625 5.00457
1.80712 4.93445
1.85174 5.03432
1.89636 4.54133
1.94099 5.21355
1.98562 4.58044
2.03025 4.50865
2.07487 4.39367
2.11949 5.06515
2.16411 5.43533
2.20874 15.4151
2.25338 24.3633
2.298 6.15973
2.34263 5.48822
2.38725 5.95223
2.43188 6.56532
2.4765 7.52201
2.52115 7.12979
2.56577 7.82647
2.6104 8.25928
2.65503 8.67043
2.69965 8.4904
2.7443 8.16742
2.78893 8.49806
2.83356 7.90668
2.87818 8.83997
2.92281 9.75598
2.96744 9.23858
3.01209 11.0755
3.05672 10.9694
3.10135 12.4101
3.14599 12.8894
3.19062 14.7126
3.23527 15.3928
3.2799 15.982
3.32454 16.9788
3.36917 17.7101
3.4138 19.3498
3.45844 20.1192
3.50309 20.8586
3.54773 21.5619
3.59237 24.0656
3.637 95.1238
3.68164 60.8415
3.7263 26.7248
3.77094 25.9126
3.81558 27.0465
3.86022 27.3459
3.90486 28.6519
3.9495 29.8913
3.99416 30.8843
4.0388 31.9458
4.08344 33.5332
4.12809 34.6963
4.17273 36.7763
4.21738 43.3787
4.26204 256.871
4.30669 227.367
4.35133 48.9216
4.39598 44.8197
4.44063 53.9368
4.4853 65.9313
4.52995 49.5279
4.5746 50.3967
4.61925 52.2378
4.6639 54.8632
4.70855 57.6146
4.75322 60.4481
4.79788 63.2341
4.84253 66.0063
4.88719 70.1645
4.93184 73.7304
4.97652 79.4826
5.02118 84.9899
5.06583 92.0909
5.11049 102.307
5.15515 168.17
5.19981 294.876
5.24449 2451.75
5.28916 12513.4
5.33382 2769.11
5.37848 177.882
5.42315 125.448
5.46783 110.652
5.5125 103.984
5.55716 100.367
5.60183 96.7974
5.6465 95.3542
5.69117 92.7241
5.73586 90.7023
5.78053 90.4176
5.8252 89.1044
5.86988 89.6266
5.91455 91.4513
5.95924 97.0824
6.00392 174.798
6.0486 839.451
6.09328 4407.5
6.13795 3262.31
6.18263 223.509
6.22733 90.4794
6.27201 81.2924
6.3167 102.317
6.36138 80.1422
6.40606 68.1891
6.45075 66.5428
6.49545 64.974
6.54014 63.16
6.58483 62.3324
6.62952 62.1538
6.67421 94.4588
6.71892 145.718
6.76361 68.7286
6.8083 58.1169
6.853 57.0834
6.89769 56.7667
6.94239 56.0679
6.98711 55.605
7.03181 55.0352
7.07651 54.8168
7.12121 54.5179
7.16591 55.2881
7.21063 54.8838
7.25533 71.2836
7.30004 181.727
7.34475 92.5934
7.38945 56.2792
7.43416 54.3825
7.47889 54.6007
7.5236 54.2933
7.56831 55.0601
7.61303 56.7419
7.65774 57.0155
7.70247 55.4543
7.74719 55.5703
7.79191 56.1572
7.83663 56.3362
7.88135 57.0475
7.92607 58.235
7.97081 58.7649
8.01553 60.1611
8.06026 61.7316
8.10498 63.0292
8.14971 72.6573
8.19446 71.4518
8.23919 68.8429
8.28392 71.0187
8.32865 72.6662
8.37339 77.094
8.41812 83.7531
8.46288 111.772
8.50761 145.894
8.55235 338.084
8.59709 1135.76
8.64183 2235.31
8.68658 944.966
8.73134 167.519
8.77609 97.2912
8.82083 90.9816
8.86558 88.1593
8.91033 88.704
8.9551 90.8342
8.99985 84.2371
9.04461 82.3068
9.08936 81.8969
9.13412 80.6444
9.17888 80.9791
9.22365 81.754
9.26841 81.1339
9.31318 81.2252
9.35794 81.8813
9.4027 81.8864
9.44749 82.7692
9.49226 83.5029
9.53703 84.2394
9.5818 85.8801
9.62657 90.75
9.67134 97.6719
9.71614 92.3566
9.76091 92.6031
9.80569 94.4286
9.85047 98.4573
9.89525 122.67
9.94005 133.714
9.98484 157.322
10.0296 302.087
10.0744 769.394
10.1192 1778.91
10.164 1591.51
10.2088 398.709
10.2536 124.44
10.2984 111.718
10.3432 113.573
10.388 102.712
10.4328 112.388
10.4776 148.605
10.5224 269.008
10.5672 517.609
10.612 500.506
10.6568 202.577
10.7017 95.4983
10.7465 85.1067
10.7913 82.0533
10.8361 79.9439
10.8809 77.69
10.9257 77.4028
10.9706 78.0781
11.0154 73.9468
11.0602 71.792
11.105 71.1522
11.1499 75.5384
11.1947 82.9023
11.2395 73.8109
11.2844 69.6732
11.3292 66.5084
11.374 65.6401
11.4189 64.5819
11.4637 64.167
11.5086 64.7262
11.5534 67.9848
11.5983 64.9041
11.6431 62.7886
11.688 62.4982
11.7328 62.0627
11.7777 62.3751
11.8225 61.5222
11.8674 61.4985
11.9122 61.8223
11.9571 61.724
12.002 62.4966
12.0468 65.6502
12.0917 75.7257
12.1366 98.6752
12.1814 152.834
12.2263 206.563
12.2712 168.89
12.3161 96.1478
12.3609 69.8918
12.4058 63.7957
12.4507 63.3241
12.4956 63.6032
12.5405 63.8184
12.5853 64.6544
12.6302 72.6728
12.6751 78.4211
12.72 69.6879
12.7649 66.7277
12.8098 67.4766
12.8547 68.5663
12.8996 69.9316
12.9445 71.1706
12.9894 72.6902
13.0343 74.3868
13.0792 77.0973
13.1242 84.4995
13.1691 105.214
13.214 138.984
13.2589 229.932
13.3038 370.897
13.3487 422.273
13.3937 258.348
13.4386 121.557
13.4835 100.805
13.5285 113.743
13.5734 150.82
13.6183 245.866
13.6633 355.138
13.7082 338.636
13.7531 182.148
13.7981 95.8667
13.843 80.454
13.888 78.3393
13.9329 75.9091
13.9779 74.6236
14.0228 73.2253
14.0678 71.8882
14.1127 71.4712
14.1577 71.538
14.2027 70.3496
14.2476 69.1548
14.2926 69.7856
14.3376 70.779
14.3825 69.3314
14.4275 67.6806
14.4725 67.5879
14.5175 67.6396
14.5624 67.9387
14.6074 70.2784
14.6524 70.3712
14.6974 69.2424
14.7424 70.0748
14.7874 75.701
14.8324 84.3536
14.8774 105.409
14.9224 151.481
14.9674 211.453
15.0124 216.186
15.0574 147.221
15.1024 89.8294
15.1474 71.4286
15.1924 69.4963
15.2374 70.2955
15.2824 69.5629
15.3274 67.3133
15.3725 65.7156
15.4175 65.3963
15.4625 65.0447
15.5076 65.354
15.5526 65.2104
15.5976 64.5537
15.6426 65.2322
15.6877 69.4206
15.7327 76.2854
15.7778 90.6067
15.8228 123.025
15.8679 171.474
15.9129 194.906
15.958 154.427
16.003 93.1349
16.0481 67.0707
16.0931 63.774
16.1382 62.0362
16.1833 59.9284
16.2283 58.1209
16.2734 57.508
16.3185 58.0318
16.3636 58.6835
16.4086 57.176
16.4537 55.4918
16.4988 54.7384
16.5439 54.6351
16.589 54.4738
16.6341 54.2301
16.6792 53.9189
16.7243 54.0389
16.7694 54.337
16.8145 54.0429
16.8596 54.4854
16.9047 56.0204
16.9498 56.3036
16.9949 55.066
17.04 54.8627
17.0851 55.8996
17.1302 57.5299
17.1754 60.5486
17.2205 65.4688
17.2656 73.7458
17.3108 83.3629
17.3559 81.8082
17.401 70.4538
17.4462 61.0994
17.4913 58.2872
17.5365 58.0943
17.5815 58.4588
17.6268 58.4972
17.6718 59.4624
17.7171 59.7507
17.7622 60.2538
17.8074 60.7903
17.8525 62.5063
17.8977 66.3365
17.9428 71.2451
17.9881 79.7662
18.0331 97.841
18.0784 121.313
18.1237 138.422
18.1688 127.528
18.214 100.694
18.2591 84.3885
18.3044 89.5282
18.3495 100.084
18.3948 104.378
18.4399 94.2929
18.4852 76.6155
18.5303 65.1215
18.5756 61.1144
18.6207 60.1011
18.666 59.6942
18.7112 58.8923
18.7565 58.1232
18.8016 57.7857
18.8469 57.0672
18.892 56.8559
18.9374 56.3545
18.9825 56.3203
19.0278 56.2872
19.073 56.0902
19.1183 56.3511
19.1635 57.0997
19.2088 58.3295
19.254 60.927
19.2993 65.6602
19.3447 72.0628
19.3898 76.1122
19.4352 71.1005
19.4804 62.3633
19.5257 55.9758
19.5709 53.4985
19.6163 53.2551
19.6615 52.9964
19.7068 52.5638
19.752 52.4301
19.7974 52.6732
19.8426 53.3976
19.888 54.1253
19.9332 55.292
19.9786 57.6661
20.0238 61.49
20.0692 66.6997
20.1144 68.9183
20.1598 67.0857
20.205 62.386
20.2504 61.4664
20.2957 63.59
20.3411 65.2895
20.3863 63.2534
20.4318 57.7348
20.477 52.9627
20.5224 51.0381
20.5677 50.3828
20.6131 49.6599
20.6586 48.9764
20.7038 48.8383
20.7493 48.4154
20.7945 48.3659
20.84 48.166
20.8853 47.891
20.9307 48.009
20.976 47.901
21.0215 47.9137
21.0668 48.2027
21.1122 48.9344
21.1575 49.3728
21.203 50.3087
21.2483 50.8812
21.2938 50.5828
21.3391 49.4208
21.3846 48.4283
21.4299 47.658
21.4754 47.979
21.5207 47.8281
21.5662 48.0152
21.6116 48.3323
21.6571 48.8954
21.7024 50.0289
21.7479 51.6575
21.7933 54.422
21.8388 58.2539
21.8843 61.9718
21.9297 63.5881
21.9752 62.1751
22.0206 58.5498
22.0661 55.999
22.1115 55.4991
22.157 55.2845
22.2024 53.5151
22.248 50.6544
22.2933 49.2071
22.3389 48.5217
22.3843 48.5075
22.4299 48.1682
22.4753 48.3969
22.5208 48.138
22.5662 47.9986
22.6118 48.0091
22.6572 48.1737
22.7028 48.5163
22.7483 48.858
22.7939 49.6241
22.8393 51.1444
22.8849 53.3885
22.9303 55.7312
22.9759 57.2672
23.0214 56.6626
23.067 53.6664
23.1126 50.4197
23.1581 48.5748
23.2037 48.0747
23.2492 48.0587
23.2948 48.0567
23.3403 48.1427
23.3859 48.9892
23.4314 50.0301
23.477 51.8024
23.5225 54.3274
23.5682 56.4518
23.6137 57.1825
23.6593 54.8181
23.7048 50.8268
23.7505 47.7773
23.796 46.0911
23.8417 45.5391
23.8872 44.9654
23.9329 44.6957
23.9784 44.2896
24.0241 44.0101
24.0697 43.9313
24.1154 43.5842
24.1609 43.5099
24.2066 43.3613
24.2522 43.2626
24.2979 42.734
24.3434 42.7989
24.3892 42.5954
24.4349 42.5354
24.4805 42.4113
24.5262 42.7078
24.5718 42.3537
24.6175 42.3355
24.6631 42.4204
24.7089 41.9519
24.7545 41.9157
24.8002 41.7577
24.8458 41.7012
24.8916 41.5951
24.9372 41.6129
24.983 41.9386
25.0286 42.1517
25.0744 42.7396
25.12 43.2236
25.1658 43.7047
25.2114 44.1108
25.2572 44.222
25.3029 44.3627
25.3487 44.4543
25.3943 43.9639
25.4402 43.0194
25.4858 41.9119
25.5316 41.0443
25.5773 40.425
25.6231 40.3201
25.669 39.962
25.7147 39.9341
25.7605 39.8646
25.8062 39.9954
25.8521 39.9867
25.8977 39.9516
25.9436 40.3002
25.9893 40.3867
26.0352 41.0249
26.0809 41.1073
26.1268 41.2089
26.1725 40.7497
26.2184 40.3197
26.2641 39.7504
26.31 39.6411
26.3557 39.6907
26.4017 39.4718
26.4474 39.9602
26.4933 40.2209
26.5391 40.6437
26.585 41.2144
26.6308 41.4319
26.6767 41.6801
26.7225 41.3629
26.7684 40.845
26.8142 40.2681
26.8601 40.0191
26.9059 39.5116
26.9519 39.0884
26.9979 38.7441
27.0437 38.4203
27.0896 38.2297
27.1354 38.1954
27.1814 38.0931
27.2272 37.9731
27.2732 38.0598
27.3191 37.8414
27.3651 37.895
27.4109 37.9035
27.4569 38.0045
27.5027 37.9702
27.5488 38.0779
27.5946 37.8761
27.6407 37.7326
27.6865 37.6137
27.7326 37.3124
27.7784 37.4179
27.8245 37.2473
27.8703 37.5089
27.9164 37.8135
27.9623 38.0084
28.0084 38.2491
28.0543 38.7069
28.1003 38.5511
28.1462 38.2945
28.1923 38.0923
28.2384 37.4772
28.2843 37.1712
28.3304 36.7274
28.3764 36.2472
28.4225 35.9248
28.4684 35.9441
28.5145 35.5312
28.5605 35.3382
28.6066 35.2641
28.6526 35.2432
28.6987 35.1509
28.7447 35.1106
28.7908 34.8709
28.8368 35.0851
28.8829 34.9974
28.9289 34.878
28.9751 34.6672
29.0211 34.5019
29.0673 34.1774
29.1133 34.0633
29.1595 33.9376
29.2055 33.9375
29.2517 33.9288
29.2977 33.9059
29.3439 33.9323
29.3899 33.8557
29.4361 33.7785
29.4824 33.6423
29.5284 33.4011
29.5746 33.0265
29.6207 32.7498
29.6669 32.7372
29.713 32.6649
29.7593 32.5117
29.8053 32.4947
29.8516 32.3771
29.8977 32.3587
29.9439 32.2593
29.99 32.1858
30.0363 32.0766
30.0824 32.1883
30.1287 31.9778
30.1748 32.0295
30.2211 32.1091
30.2673 31.9641
30.3136 32.003
30.3597 31.8101
30.406 31.7806
30.4522 31.6897
30.4985 31.6204
30.5447 31.687
30.591 31.8296
30.6372 31.7031
30.6835 31.9156
30.7297 31.7402
30.7761 31.8246
30.8224 31.7064
30.8686 31.4688
30.915 31.2681
30.9612 31.0908
31.0076 30.8731
31.0538 30.7026
31.1002 30.6856
31.1464 30.5755
31.1928 30.4892
31.2391 30.6683
31.2855 30.5443
31.3317 30.4766
31.3781 30.5564
31.4244 30.4812
31.4708 30.4864
31.5171 30.3848
31.5636 30.3974
31.6098 30.1122
31.6563 29.9646
31.7026 29.8849
31.7491 29.661
31.7953 29.7737
31.8418 29.8699
31.8881 29.6587
31.9346 29.7638
31.9809 29.6882
32.0275 29.4462
32.074 29.5156
32.1203 29.2086
32.1668 29.1879
32.2132 29.0415
32.2597 28.7888
32.306 28.8681
32.3526 28.6253
32.399 28.6125
32.4455 28.4776
32.4919 28.3335
32.5385 28.3195
32.5848 28.1351
32.6314 28.0737
32.6778 28.0117
32.7244 27.8702
32.7708 27.894
32.8174 27.7929
32.8638 27.6709
32.9104 27.7581
32.9569 27.7376
33.0035 27.4844
33.0499 27.4004
33.0966 27.4584
33.143 27.4727
33.1897 27.4203
33.2361 27.2094
33.2828 27.2544
33.3293 27.0619
33.3759 27.034
33.4226 26.8326
33.4691 26.7556
33.5158 26.6989
33.5623 26.5484
33.609 26.4068
33.6555 26.4239
33.7022 26.2308
33.7487 26.1846
33.7954 26.1278
33.842 26.0267
33.8887 26.0526
33.9353 25.9439
33.982 25.8668
34.0286 25.7327
34.0753 25.6847
34.1219 25.6409
34.1687 25.5064
34.2152 25.4504
34.262 25.3466
34.3086 25.2494
34.3554 25.2458
34.402 25.1087
34.4488 24.961
34.4954 24.9031
34.5422 24.9064
34.5889 24.7632
34.6357 24.7273
34.6825 24.6619
34.7292 24.5283
34.776 24.4331
34.8227 24.4323
34.8695 24.3664
34.9162 24.3139
34.9631 24.2107
35.0098 24.1911
35.0566 24.1216
35.1033 23.9751
35.1502 23.9485
35.1969 23.9226
35.2438 23.8238
35.2906 23.8021
35.3375 23.7636
35.3842 23.745
35.4311 23.6686
35.4779 23.6765
35.5248 23.6055
35.5716 23.4935
35.6185 23.3835
35.6653 23.3446
35.7123 23.2682
35.759 23.1799
35.806 23.0208
35.8528 22.9559
35.8998 22.9422
35.9468 22.8958
35.9936 22.9294
36.0406 22.6623
36.0874 22.6546
36.1345 22.6161
36.1813 22.5985
36.2283 22.4306
36.2752 22.3433
36.3222 22.4192
36.3691 22.3278
36.4161 22.2075
36.463 22.1311
36.5101 22.0955
36.557 22.1166
36.6041 21.9315
36.651 21.961
36.6981 21.8887
36.745 21.7272
36.7921 21.6944
36.839 21.5923
36.8861 21.4931
36.9331 21.5518
36.9802 21.4025
37.0272 21.3801
37.0743 21.2275
37.1213 21.1982
37.1684 21.1685
37.2154 21.0524
37.2626 21.0013
37.3098 20.9056
37.3568 20.8687
37.404 20.8201
37.451 20.7404
37.4982 20.702
37.5452 20.5537
37.5924 20.497
37.6395 20.5643
37.6867 20.4728
37.7337 20.4079
37.781 20.3016
37.8281 20.1984
37.8753 20.1246
37.9224 20.069
37.9697 20.0329
38.0168 20.0291
38.064 19.9327
38.1111 19.8646
38.1584 19.85
38.2056 19.7118
38.2529 19.6233
38.3 19.5164
38.3473 19.5936
38.3945 19.4838
38.4418 19.4219
38.489 19.3522
38.5363 19.2534
38.5837 19.1661
38.6309 19.249
38.6782 19.1226
38.7254 19.0634
38.7728 18.9737
38.82 18.8727
38.8674 18.8538
38.9146 18.8923
38.9621 18.7385
39.0093 18.6559
39.0567 18.701
39.104 18.5736
39.1514 18.4069
39.1987 18.4832
39.2461 18.3694
39.2934 18.3284
39.3409 18.2571
39.3882 18.1446
39.4356 18.1773
39.483 18.1158
39.5304 18.0699
39.5778 18.0473
39.6253 17.9004
39.6726 17.8471
39.7201 17.8635
39.7675 17.8359
39.815 17.7468
39.8624 17.6378
39.9099 17.6203
39.9575 17.5733
40.0049 17.487
40.0525 17.4153
40.0999 17.4095
40.1474 17.2706
40.1949 17.284
40.2425 17.2982
40.2899 17.1356
40.3375 17.0688
40.385 17.0616
40.4326 17.0349
40.48 16.9558
40.5277 16.8591
40.5752 16.8228
40.6228 16.7762
40.6703 16.7119
40.718 16.6723
40.7655 16.6612
40.8132 16.5661
40.8607 16.5198
40.9084 16.5102
40.9559 16.4636
41.0036 16.3454
41.0512 16.3106
41.0989 16.2592
41.1465 16.2182
41.1942 16.1326
41.242 16.0923
41.2896 16.046
41.3373 16.0263
41.3849 15.8644
41.4327 15.8991
41.4803 15.7564
41.5281 15.7177
41.5758 15.7013
41.6236 15.6391
41.6712 15.5801
41.7191 15.5302
41.7667 15.4552
41.8146 15.4738
41.8622 15.4119
41.9101 15.3382
41.9578 15.2633
42.0057 15.3054
42.0534 15.1706
42.1013 15.1815
42.149 15.0661
42.1969 15.0443
42.2446 15.0189
42.2925 14.9523
42.3403 14.9018
42.3882 14.8591
42.436 14.7659
42.4839 14.7522
42.5319 14.6905
42.5797 14.6506
42.6277 14.6692
42.6755 14.5708
42.7235 14.4935
42.7713 14.4542
42.8193 14.4144
42.8671 14.3618
42.9152 14.3432
42.963 14.2582
43.0111 14.166
43.0589 14.1895
43.107 14.0967
43.1549 14.0835
43.2029 13.9797
43.2508 13.9905
43.2989 13.9641
43.3468 13.9289
43.3949 13.7801
43.4429 13.8111
43.491 13.7581
43.5389 13.6338
43.5871 13.6482
43.635 13.5861
43.6832 13.5502
43.7312 13.4216
43.7793 13.4435
43.8273 13.3799
43.8755 13.3964
43.9237 13.3236
43.9717 13.2955
44.0199 13.2167
44.068 13.1819
44.1162 13.1352
44.1642 13.1163
44.2125 13.001
44.2606 12.9719
44.3088 12.9666
44.3569 12.862
44.4052 12.8851
44.4533 12.7927
44.5016 12.7612
44.5497 12.7252
44.598 12.6998
44.6461 12.6176
44.6945 12.5683
44.7426 12.5659
44.791 12.4587
44.8391 12.4663
44.8875 12.4155
44.9357 12.4045
44.984 12.3115
45.0322 12.2716
45.0806 12.1961
45.1288 12.2095
45.1773 12.1571
45.2257 12.1246
45.2739 12.0528
45.3224 12.0226
45.3706 12.0095
45.4191 11.8977
45.4673 11.9236
45.5158 11.879
45.5641 11.814
45.6126 11.7693
45.6609 11.7514
45.7094 11.6575
45.7577 11.6211
45.8063 11.5781
45.8546 11.6078
45.9031 11.5335
45.9515 11.457
46.0001 11.4413
46.0484 11.4158
46.097 11.3538
46.1454 11.3279
46.194 11.3048
46.2424 11.144
46.291 11.1573
46.3395 11.1496
46.3881 11.0742
46.4365 11.0931
46.4852 11.001
46.5337 10.9612
46.5823 10.9844
46.631 10.8567
46.6795 10.8874
46.7282 10.8661
46.7767 10.8018
46.8254 10.7141
46.8739 10.7136
46.9226 10.6667
46.9712 10.6317
47.0199 10.6062
47.0685 10.5939
47.1173 10.5225
47.1658 10.4614
47.2146 10.4576
47.2632 10.3853
47.312 10.3263
47.3606 10.339
47.4095 10.2772
47.4581 10.227
47.5069 10.1756
47.5556 10.1757
47.6044 10.1048
47.6531 10.0697
47.702 10.0039
47.7507 10.0127
47.7996 9.97861
47.8483 9.9203
47.8972 9.90422
47.9461 9.90302
47.9948 9.85527
48.0438 9.80381
48.0925 9.77993
48.1415 9.74227
48.1902 9.6949
48.2392 9.67521
48.288 9.65932
48.337 9.60854
48.3858 9.54874
48.4348 9.51035
48.4837 9.50385
48.5327 9.47943
48.5815 9.41491
48.6306 9.39687
48.6795 9.34565
48.7285 9.31508
48.7774 9.27255
48.8265 9.23847
48.8754 9.1826
48.9245 9.1782
48.9734 9.13948
49.0226 9.12574
49.0715 9.08388
49.1206 9.02763
49.1696 8.99166
49.2188 8.94119
49.2679 8.96336
49.3169 8.91758
49.3661 8.85104
49.4151 8.81844
49.4643 8.82029
49.5134 8.78143
49.5626 8.71652
49.6117 8.71569
49.6609 8.67733
49.71 8.60485
49.7592 8.58126
49.8083 8.55886
49.8576 8.54951
49.9067 8.46814
49.956 8.45625
50.0052 8.42805
50.0545 8.44315
50.1036 8.36015
50.153 8.35797
50.2022 8.30838
50.2515 8.24961
50.3007 8.23294
50.3501 8.1599
50.3993 8.1841
50.4487 8.16575
50.498 8.09705
50.5474 8.10417
50.5966 8.08183
50.6461 8.03816
50.6955 8.0066
50.7448 7.96468
50.7943 7.89228
50.8436 7.89416
50.8931 7.88595
50.9424 7.84067
50.9919 7.78753
51.0413 7.79989
51.0908 7.7495
51.1402 7.70246
51.1897 7.69152
51.2391 7.66521
51.2887 7.60041
51.3381 7.57692
51.3877 7.54648
51.4371 7.56314
51.4867 7.50647
51.5362 7.46799
51.5858 7.45159
51.6353 7.39502
51.6849 7.39532
51.7344 7.35212
51.7841 7.31401
51.8336 7.28879
51.8833 7.26491
51.9328 7.20175
51.9826 7.20696
52.0323 7.14694
52.0818 7.12044
52.1316 7.10671
52.1812 7.09441
52.231 7.0264
52.2806 6.98414
52.3304 6.9898
52.38 6.9842
52.4298 6.90148
52.4794 6.91005
52.5293 6.8479
52.5789 6.83758
52.6288 6.84639
52.6785 6.80395
52.7284 6.75848
52.7781 6.77079
52.828 6.67746
52.8777 6.68284
52.9276 6.6384
52.9774 6.62798
53.0273 6.55701
53.0771 6.56942
53.1271 6.54108
53.1769 6.51451
53.2269 6.50063
53.2767 6.40572
53.3267 6.45905
53.3765 6.40654
53.4266 6.38304
53.4766 6.30859
53.5265 6.3311
53.5765 6.33029
53.6264 6.24767
53.6765 6.2481
53.7264 6.18964
53.7765 6.19484
53.8265 6.1647
53.8766 6.07311
53.9266 6.11681
53.9767 6.07111
54.0267 6.07582
54.0769 6.04745
54.1269 5.96218
54.1771 5.9584
54.2271 5.91971
54.2773 5.89855
54.3274 5.89647
54.3776 5.85458
54.4277 5.79798
54.478 5.78812
54.528 5.73044
54.5783 5.69207
54.6285 5.6929
54.6788 5.668
54.7289 5.53708
54.7792 5.53296
54.8296 5.46373
54.8798 5.44062
54.9301 5.47147
54.9803 5.3862
55.0307 5.38681
55.0809 5.28509
55.1314 5.31402
55.1816 5.21561
55.232 5.16025
55.2823 5.15863
55.3328 5.11555
55.383 5.01452
55.4335 5.03627
55.4838 4.90603
55.5344 4.87826
55.5847 4.90058
55.6352 4.83331
55.6856 4.79387
55.7361 4.75405