File: XRD/Ni3Fe_FD0685.xy
TT I
1.27165 7.22777
1.31627 6.48595
1.36089 6.66409
1.40551 5.92612
1.45013 5.60767
1.49476 5.96699
1.53938 5.9918
1.584 5.24163
1.62863 5.57093
1.67325 5.05354
1.71787 4.53831
1.7625 4.89955
1.80712 4.72396
1.85174 4.54683
1.89636 4.99656
1.94099 4.4606
1.98562 4.75962
2.03025 4.57935
2.07487 4.11441
2.11949 4.54943
2.16411 4.94835
2.20874 9.67254
2.25338 14.8471
2.298 5.45526
2.34263 5.71291
2.38725 5.34959
2.43188 5.69339
2.4765 6.57724
2.52115 6.7246
2.56577 7.37503
2.6104 7.93821
2.65503 7.95154
2.69965 8.11084
2.7443 8.41873
2.78893 7.75376
2.83356 8.37349
2.87818 8.48918
2.92281 9.3072
2.96744 9.95967
3.01209 10.6494
3.05672 10.8978
3.10135 11.9608
3.14599 12.7806
3.19062 14.217
3.23527 15.091
3.2799 15.5422
3.32454 17.0536
3.36917 17.9311
3.4138 18.8987
3.45844 19.4341
3.50309 20.615
3.54773 21.2032
3.59237 23.2396
3.637 62.5529
3.68164 43.2407
3.7263 25.6849
3.77094 26.117
3.81558 26.476
3.86022 26.9781
3.90486 28.9364
3.9495 29.5874
3.99416 30.6733
4.0388 31.6501
4.08344 33.4499
4.12809 34.5355
4.17273 36.1266
4.21738 40.4267
4.26204 155.555
4.30669 133.998
4.35133 45.154
4.39598 43.8423
4.44063 50.0725
4.4853 56.6637
4.52995 52.9401
4.5746 53.2251
4.61925 53.4459
4.6639 55.4813
4.70855 58.3079
4.75322 61.3705
4.79788 66.1925
4.84253 68.4197
4.88719 72.8605
4.93184 75.5853
4.97652 81.2242
5.02118 87.5488
5.06583 95.594
5.11049 107.146
5.15515 160.435
5.19981 416.181
5.24449 3027.54
5.28916 12552.1
5.33382 2696.37
5.37848 190.292
5.42315 129.551
5.46783 115.384
5.5125 108.743
5.55716 102.161
5.60183 98.3879
5.6465 96.3458
5.69117 94.9908
5.73586 92.9489
5.78053 94.9191
5.8252 94.2457
5.86988 95.997
5.91455 95.7688
5.95924 105.137
6.00392 243.374
6.0486 1019.21
6.09328 4569.14
6.13795 3108.02
6.18263 216.333
6.22733 91.4769
6.27201 80.6138
6.3167 89.274
6.36138 76.2774
6.40606 69.0728
6.45075 68.0595
6.49545 64.9082
6.54014 63.2405
6.58483 62.8784
6.62952 62.6441
6.67421 79.2935
6.71892 106.022
6.76361 63.4816
6.8083 58.9054
6.853 58.1877
6.89769 56.6259
6.94239 55.997
6.98711 55.2291
7.03181 55.5042
7.07651 54.8017
7.12121 54.8577
7.16591 55.4386
7.21063 55.0318
7.25533 63.3458
7.30004 123.883
7.34475 74.3667
7.38945 55.5711
7.43416 54.0277
7.47889 54.1162
7.5236 54.4833
7.56831 55.0456
7.61303 56.0904
7.65774 56.616
7.70247 56.2424
7.74719 55.9114
7.79191 56.5471
7.83663 56.8209
7.88135 57.3598
7.92607 58.6171
7.97081 59.5143
8.01553 60.7098
8.06026 62.4291
8.10498 63.5688
8.14971 70.8328
8.19446 70.4465
8.23919 69.4274
8.28392 71.9886
8.32865 74.3265
8.37339 78.1477
8.41812 84.8342
8.46288 106.64
8.50761 183.574
8.55235 411.198
8.59709 1243.78
8.64183 2238.42
8.68658 865.26
8.73134 152.938
8.77609 98.244
8.82083 92.2645
8.86558 90.6517
8.91033 90.3047
8.9551 89.3457
8.99985 85.2674
9.04461 83.5375
9.08936 83.3124
9.13412 82.1993
9.17888 82.1189
9.22365 82.4663
9.26841 82.006
9.31318 83.4902
9.35794 84.3275
9.4027 84.2504
9.44749 84.3775
9.49226 84.7062
9.53703 85.6244
9.5818 88.3615
9.62657 92.3693
9.67134 95.5702
9.71614 93.0858
9.76091 94.5523
9.80569 98.1338
9.85047 100.428
9.89525 115.361
9.94005 130.699
9.98484 196.502
10.0296 365.816
10.0744 854.479
10.1192 1793.85
10.164 1549.71
10.2088 359.41
10.2536 122.343
10.2984 110.58
10.3432 109.961
10.388 105.049
10.4328 123.84
10.4776 166.963
10.5224 294.164
10.5672 512.552
10.612 491.422
10.6568 193.121
10.7017 94.5558
10.7465 86.2829
10.7913 83.1705
10.8361 80.9889
10.8809 78.7503
10.9257 77.8935
10.9706 78.0943
11.0154 74.791
11.0602 72.6332
11.105 71.5333
11.1499 73.285
11.1947 76.86
11.2395 71.1902
11.2844 68.9027
11.3292 66.7597
11.374 65.9438
11.4189 65.6274
11.4637 64.7763
11.5086 64.9437
11.5534 66.1303
11.5983 64.5642
11.6431 63.5043
11.688 62.7456
11.7328 62.7577
11.7777 62.6615
11.8225 62.4485
11.8674 62.1988
11.9122 62.528
11.9571 62.988
12.002 63.9189
12.0468 69.2326
12.0917 79.8547
12.1366 105.061
12.1814 154.52
12.2263 203.523
12.2712 157.493
12.3161 88.9819
12.3609 67.672
12.4058 64.1608
12.4507 64.0133
12.4956 64.3903
12.5405 64.5203
12.5853 65.1149
12.6302 69.4707
12.6751 72.9354
12.72 68.5823
12.7649 67.6966
12.8098 68.1699
12.8547 69.9271
12.8996 71.1615
12.9445 72.7748
12.9894 74.4519
13.0343 76.1774
13.0792 80.0855
13.1242 92.7617
13.1691 114.678
13.214 153.546
13.2589 249.082
13.3038 380.792
13.3487 420.605
13.3937 248.358
13.4386 119.972
13.4835 108.252
13.5285 123.08
13.5734 163.884
13.6183 255.426
13.6633 355.452
13.7082 326.515
13.7531 170.961
13.7981 93.7071
13.843 81.1485
13.888 79.6142
13.9329 77.1256
13.9779 75.5613
14.0228 74.1686
14.0678 72.9699
14.1127 72.6017
14.1577 72.0203
14.2027 71.3068
14.2476 70.1026
14.2926 70.0986
14.3376 70.3866
14.3825 69.8381
14.4275 68.8232
14.4725 68.392
14.5175 68.626
14.5624 69.0289
14.6074 70.3264
14.6524 70.8533
14.6974 70.5767
14.7424 73.3586
14.7874 80.3431
14.8324 90.3895
14.8774 113.71
14.9224 159.234
14.9674 214.005
15.0124 217.863
15.0574 140.156
15.1024 86.8858
15.1474 71.6247
15.1924 70.1034
15.2374 69.984
15.2824 69.0534
15.3274 67.6819
15.3725 66.734
15.4175 66.2364
15.4625 65.7796
15.5076 65.887
15.5526 65.9971
15.5976 66.0272
15.6426 67.8112
15.6877 73.5845
15.7327 80.738
15.7778 96.9728
15.8228 130.008
15.8679 174.975
15.9129 194.785
15.958 149.772
16.003 91.8233
16.0481 66.5587
16.0931 63.3837
16.1382 61.7639
16.1833 60.2775
16.2283 58.7651
16.2734 58.1714
16.3185 57.8526
16.3636 58.1767
16.4086 56.7051
16.4537 55.8575
16.4988 55.2682
16.5439 55.4022
16.589 54.9878
16.6341 54.8184
16.6792 54.5001
16.7243 54.702
16.7694 54.7222
16.8145 54.5235
16.8596 54.7836
16.9047 55.6599
16.9498 56.2142
16.9949 55.4298
17.04 55.8679
17.0851 57.2175
17.1302 58.8975
17.1754 61.8778
17.2205 67.1692
17.2656 75.2069
17.3108 83.686
17.3559 81.2694
17.401 69.8802
17.4462 61.3745
17.4913 59.0827
17.5365 59.0952
17.5815 59.1731
17.6268 59.5474
17.6718 60.3942
17.7171 60.647
17.7622 61.4084
17.8074 62.4456
17.8525 65.2756
17.8977 69.025
17.9428 74.2974
17.9881 83.9702
18.0331 101.978
18.0784 125.081
18.1237 142.762
18.1688 130.559
18.214 100.93
18.2591 86.0015
18.3044 91.4256
18.3495 101.222
18.3948 105.705
18.4399 94.5222
18.4852 75.5225
18.5303 65.1992
18.5756 61.7833
18.6207 60.9574
18.666 60.3426
18.7112 59.486
18.7565 58.7781
18.8016 58.4587
18.8469 57.8287
18.892 57.6571
18.9374 57.0561
18.9825 56.9591
19.0278 56.7398
19.073 57.0338
19.1183 57.4634
19.1635 57.9925
19.2088 59.5861
19.254 62.5215
19.2993 67.2555
19.3447 73.1849
19.3898 76.0825
19.4352 71.1162
19.4804 62.2181
19.5257 56.0467
19.5709 54.068
19.6163 53.6804
19.6615 53.6952
19.7068 53.331
19.752 53.1783
19.7974 53.7888
19.8426 54.4103
19.888 55.0142
19.9332 56.3534
19.9786 59.2434
20.0238 63.0863
20.0692 67.8454
20.1144 70.0288
20.1598 67.8888
20.205 63.0361
20.2504 62.0348
20.2957 64.1515
20.3411 65.4054
20.3863 63.2806
20.4318 57.466
20.477 52.7575
20.5224 51.2153
20.5677 50.4777
20.6131 50.0578
20.6586 49.614
20.7038 49.3443
20.7493 48.9503
20.7945 48.935
20.84 48.7415
20.8853 48.6286
20.9307 48.4347
20.976 48.7482
21.0215 48.3592
21.0668 48.9697
21.1122 49.4493
21.1575 49.9093
21.203 50.7575
21.2483 51.4347
21.2938 51.3587
21.3391 49.956
21.3846 48.7152
21.4299 48.3381
21.4754 48.4725
21.5207 48.7244
21.5662 48.9414
21.6116 49.3053
21.6571 50.1064
21.7024 50.9801
21.7479 52.9334
21.7933 55.6629
21.8388 59.539
21.8843 63.0939
21.9297 64.7744
21.9752 62.7465
22.0206 58.9672
22.0661 56.2042
22.1115 55.9807
22.157 55.6513
22.2024 53.9459
22.248 51.0736
22.2933 49.5876
22.3389 48.7972
22.3843 48.7673
22.4299 48.5306
22.4753 48.6978
22.5208 48.557
22.5662 48.3225
22.6118 48.7689
22.6572 49.0369
22.7028 49.122
22.7483 49.9287
22.7939 50.5812
22.8393 52.1631
22.8849 54.3186
22.9303 56.3725
22.9759 58.0598
23.0214 57.0405
23.067 53.9402
23.1126 50.8296
23.1581 48.8629
23.2037 48.5764
23.2492 48.8487
23.2948 48.8475
23.3403 49.0986
23.3859 49.9603
23.4314 50.9034
23.477 52.7417
23.5225 55.1849
23.5682 57.2463
23.6137 57.7689
23.6593 54.9809
23.7048 50.8799
23.7505 47.7666
23.796 46.5749
23.8417 45.9512
23.8872 45.5921
23.9329 45.3044
23.9784 44.7628
24.0241 44.6136
24.0697 44.406
24.1154 44.0286
24.1609 43.8844
24.2066 43.7745
24.2522 43.6438
24.2979 43.3174
24.3434 43.1961
24.3892 43.1493
24.4349 43.095
24.4805 42.8059
24.5262 43.0775
24.5718 42.8983
24.6175 42.843
24.6631 42.8323
24.7089 42.4248
24.7545 42.4353
24.8002 42.086
24.8458 42.1803
24.8916 42.0383
24.9372 42.1154
24.983 42.4928
25.0286 42.8966
25.0744 43.3362
25.12 43.8641
25.1658 44.2539
25.2114 44.6093
25.2572 44.7286
25.3029 44.7795
25.3487 44.9675
25.3943 44.417
25.4402 43.3171
25.4858 42.2755
25.5316 41.4287
25.5773 40.7394
25.6231 40.8151
25.669 40.4419
25.7147 40.4857
25.7605 40.357
25.8062 40.529
25.8521 40.6136
25.8977 40.509
25.9436 40.8206
25.9893 41.0435
26.0352 41.4968
26.0809 41.5747
26.1268 41.6977
26.1725 41.1539
26.2184 40.6612
26.2641 40.2103
26.31 40.0795
26.3557 40.1068
26.4017 40.0706
26.4474 40.4345
26.4933 40.709
26.5391 41.1909
26.585 41.8075
26.6308 42.0875
26.6767 42.1284
26.7225 41.9391
26.7684 41.2984
26.8142 40.6379
26.8601 40.3318
26.9059 39.8029
26.9519 39.3114
26.9979 39.1118
27.0437 38.798
27.0896 38.7278
27.1354 38.7393
27.1814 38.495
27.2272 38.4279
27.2732 38.535
27.3191 38.3596
27.3651 38.4264
27.4109 38.2892
27.4569 38.4777
27.5027 38.5146
27.5488 38.484
27.5946 38.3256
27.6407 38.0035
27.6865 37.9017
27.7326 37.7982
27.7784 37.9374
27.8245 37.7953
27.8703 38.0076
27.9164 38.1439
27.9623 38.3792
28.0084 38.778
28.0543 39.1793
28.1003 38.8874
28.1462 38.7667
28.1923 38.3443
28.2384 37.8526
28.2843 37.5401
28.3304 37.1733
28.3764 36.608
28.4225 36.2151
28.4684 36.1991
28.5145 35.9327
28.5605 35.7268
28.6066 35.6868
28.6526 35.5271
28.6987 35.4905
28.7447 35.364
28.7908 35.4094
28.8368 35.3899
28.8829 35.3214
28.9289 35.3085
28.9751 35.052
29.0211 34.8715
29.0673 34.5821
29.1133 34.6021
29.1595 34.3975
29.2055 34.1008
29.2517 34.2733
29.2977 34.2318
29.3439 34.1921
29.3899 34.1207
29.4361 33.9897
29.4824 33.834
29.5284 33.6172
29.5746 33.2852
29.6207 33.1463
29.6669 33.0821
29.713 32.9237
29.7593 32.7839
29.8053 32.9494
29.8516 32.654
29.8977 32.6566
29.9439 32.6127
29.99 32.4841
30.0363 32.4569
30.0824 32.4178
30.1287 32.3381
30.1748 32.3507
30.2211 32.4327
30.2673 32.39
30.3136 32.3992
30.3597 32.1823
30.406 32.1303
30.4522 32.0567
30.4985 32.0011
30.5447 32.1446
30.591 32.149
30.6372 32.21
30.6835 32.1308
30.7297 32.198
30.7761 32.1249
30.8224 31.8486
30.8686 31.8357
30.915 31.5587
30.9612 31.4446
31.0076 31.2082
31.0538 31.0557
31.1002 31.1121
31.1464 30.9298
31.1928 30.8833
31.2391 30.9981
31.2855 30.8668
31.3317 30.8886
31.3781 30.8674
31.4244 30.8534
31.4708 30.909
31.5171 30.7776
31.5636 30.7301
31.6098 30.3485
31.6563 30.3343
31.7026 30.242
31.7491 30.0446
31.7953 30.2361
31.8418 30.1426
31.8881 30.1529
31.9346 30.0319
31.9809 29.9858
32.0275 29.8764
32.074 29.716
32.1203 29.5132
32.1668 29.5006
32.2132 29.3707
32.2597 29.2517
32.306 29.1139
32.3526 28.9711
32.399 28.9424
32.4455 28.7339
32.4919 28.6297
32.5385 28.6133
32.5848 28.3299
32.6314 28.3956
32.6778 28.3778
32.7244 28.1989
32.7708 28.0995
32.8174 28.1445
32.8638 27.9903
32.9104 28.1333
32.9569 27.988
33.0035 27.8274
33.0499 27.7528
33.0966 27.7565
33.143 27.865
33.1897 27.6298
33.2361 27.6094
33.2828 27.5512
33.3293 27.2917
33.3759 27.4264
33.4226 27.1276
33.4691 27.0235
33.5158 27.0584
33.5623 26.8278
33.609 26.6797
33.6555 26.6251
33.7022 26.5282
33.7487 26.5189
33.7954 26.4991
33.842 26.2796
33.8887 26.3208
33.9353 26.1604
33.982 26.0763
34.0286 26.0336
34.0753 25.9008
34.1219 25.9065
34.1687 25.8233
34.2152 25.7617
34.262 25.6119
34.3086 25.5736
34.3554 25.5153
34.402 25.376
34.4488 25.2618
34.4954 25.14
34.5422 25.0825
34.5889 25.0663
34.6357 24.9367
34.6825 24.8955
34.7292 24.7802
34.776 24.8267
34.8227 24.6884
34.8695 24.5882
34.9162 24.5913
34.9631 24.4332
35.0098 24.4164
35.0566 24.3032
35.1033 24.1931
35.1502 24.2519
35.1969 24.1709
35.2438 24.1999
35.2906 24.0502
35.3375 24.027
35.3842 23.9922
35.4311 23.9572
35.4779 23.9235
35.5248 23.8524
35.5716 23.8108
35.6185 23.6915
35.6653 23.5983
35.7123 23.3992
35.759 23.449
35.806 23.2807
35.8528 23.206
35.8998 23.1859
35.9468 23.0799
35.9936 23.1027
36.0406 22.9456
36.0874 22.9669
36.1345 22.9323
36.1813 22.7778
36.2283 22.6264
36.2752 22.6519
36.3222 22.568
36.3691 22.4991
36.4161 22.3793
36.463 22.4156
36.5101 22.4315
36.557 22.324
36.6041 22.2217
36.651 22.1748
36.6981 22.0794
36.745 21.9622
36.7921 21.895
36.839 21.7656
36.8861 21.7984
36.9331 21.7086
36.9802 21.5844
37.0272 21.5488
37.0743 21.4085
37.1213 21.4717
37.1684 21.417
37.2154 21.3664
37.2626 21.2227
37.3098 21.1826
37.3568 21.122
37.404 21.0879
37.451 20.964
37.4982 20.9666
37.5452 20.8302
37.5924 20.7393
37.6395 20.854
37.6867 20.6466
37.7337 20.5873
37.781 20.5303
37.8281 20.414
37.8753 20.3391
37.9224 20.3857
37.9697 20.1921
38.0168 20.1984
38.064 20.1206
38.1111 20.0982
38.1584 19.9975
38.2056 19.912
38.2529 19.9137
38.3 19.785
38.3473 19.7638
38.3945 19.6159
38.4418 19.6328
38.489 19.5923
38.5363 19.4609
38.5837 19.4552
38.6309 19.3761
38.6782 19.3159
38.7254 19.274
38.7728 19.126
38.82 19.092
38.8674 19.1027
38.9146 19.013
38.9621 18.9369
39.0093 18.8834
39.0567 18.855
39.104 18.7327
39.1514 18.7034
39.1987 18.6789
39.2461 18.6347
39.2934 18.529
39.3409 18.3884
39.3882 18.3744
39.4356 18.3382
39.483 18.2699
39.5304 18.2214
39.5778 18.1931
39.6253 18.1312
39.6726 18.0494
39.7201 18.0309
39.7675 18.0238
39.815 17.9659
39.8624 17.807
39.9099 17.8011
39.9575 17.6762
40.0049 17.7361
40.0525 17.6411
40.0999 17.5578
40.1474 17.5174
40.1949 17.4769
40.2425 17.4058
40.2899 17.3199
40.3375 17.299
40.385 17.2697
40.4326 17.174
40.48 17.1089
40.5277 17.0775
40.5752 17.066
40.6228 16.9144
40.6703 16.8911
40.718 16.8307
40.7655 16.7858
40.8132 16.7493
40.8607 16.6841
40.9084 16.6559
40.9559 16.5723
41.0036 16.5668
41.0512 16.493
41.0989 16.4549
41.1465 16.3582
41.1942 16.3366
41.242 16.2018
41.2896 16.1997
41.3373 16.1309
41.3849 16.1394
41.4327 16.0355
41.4803 15.931
41.5281 15.9451
41.5758 15.8987
41.6236 15.7571
41.6712 15.7465
41.7191 15.7211
41.7667 15.6709
41.8146 15.5939
41.8622 15.5511
41.9101 15.526
41.9578 15.4519
42.0057 15.4559
42.0534 15.3217
42.1013 15.2977
42.149 15.2181
42.1969 15.1982
42.2446 15.188
42.2925 15.1119
42.3403 15.0683
42.3882 15.0686
42.436 15.0249
42.4839 14.8767
42.5319 14.8927
42.5797 14.8144
42.6277 14.7794
42.6755 14.6919
42.7235 14.6158
42.7713 14.6148
42.8193 14.5153
42.8671 14.5054
42.9152 14.4348
42.963 14.4085
43.0111 14.2987
43.0589 14.2952
43.107 14.2605
43.1549 14.1907
43.2029 14.1468
43.2508 14.1121
43.2989 14.0612
43.3468 13.9974
43.3949 14.0036
43.4429 13.8957
43.491 13.8795
43.5389 13.8105
43.5871 13.7469
43.635 13.7104
43.6832 13.6923
43.7312 13.5915
43.7793 13.5495
43.8273 13.539
43.8755 13.4609
43.9237 13.4913
43.9717 13.4176
44.0199 13.3518
44.068 13.2832
44.1162 13.2584
44.1642 13.1792
44.2125 13.1782
44.2606 13.0926
44.3088 13.085
44.3569 13.0521
44.4052 13.0092
44.4533 12.9372
44.5016 12.8917
44.5497 12.8556
44.598 12.8081
44.6461 12.7704
44.6945 12.7467
44.7426 12.7016
44.791 12.6193
44.8391 12.5974
44.8875 12.5473
44.9357 12.4763
44.984 12.4296
45.0322 12.3622
45.0806 12.3659
45.1288 12.2978
45.1773 12.2774
45.2257 12.2159
45.2739 12.2001
45.3224 12.1343
45.3706 12.0848
45.4191 12.0728
45.4673 12.0178
45.5158 11.9748
45.5641 11.8724
45.6126 11.8784
45.6609 11.8576
45.7094 11.7892
45.7577 11.7642
45.8063 11.6809
45.8546 11.6765
45.9031 11.6317
45.9515 11.5723
46.0001 11.5467
46.0484 11.4913
46.097 11.4641
46.1454 11.4445
46.194 11.3767
46.2424 11.3451
46.291 11.3272
46.3395 11.2735
46.3881 11.1584
46.4365 11.1429
46.4852 11.1288
46.5337 11.0798
46.5823 11.0797
46.631 10.9987
46.6795 10.983
46.7282 10.9347
46.7767 10.905
46.8254 10.8355
46.8739 10.8074
46.9226 10.7797
46.9712 10.7354
47.0199 10.7119
47.0685 10.6569
47.1173 10.6208
47.1658 10.5633
47.2146 10.5385
47.2632 10.4943
47.312 10.4609
47.3606 10.4574
47.4095 10.3707
47.4581 10.3498
47.5069 10.287
47.5556 10.2547
47.6044 10.2151
47.6531 10.1969
47.702 10.116
47.7507 10.1147
47.7996 10.0497
47.8483 10.0349
47.8972 10.0406
47.9461 9.97716
47.9948 9.92816
48.0438 9.87294
48.0925 9.85178
48.1415 9.80595
48.1902 9.764
48.2392 9.77084
48.288 9.73321
48.337 9.70458
48.3858 9.63263
48.4348 9.59582
48.4837 9.60668
48.5327 9.5418
48.5815 9.50417
48.6306 9.48393
48.6795 9.42773
48.7285 9.36666
48.7774 9.39631
48.8265 9.33453
48.8754 9.26625
48.9245 9.25593
48.9734 9.22745
49.0226 9.19857
49.0715 9.15403
49.1206 9.10654
49.1696 9.08182
49.2188 9.07597
49.2679 9.01567
49.3169 8.987
49.3661 8.94269
49.4151 8.93284
49.4643 8.89492
49.5134 8.88239
49.5626 8.76759
49.6117 8.77586
49.6609 8.75966
49.71 8.68867
49.7592 8.68184
49.8083 8.62108
49.8576 8.65283
49.9067 8.57915
49.956 8.55772
50.0052 8.49566
50.0545 8.47848
50.1036 8.43348
50.153 8.40553
50.2022 8.39428
50.2515 8.31674
50.3007 8.30759
50.3501 8.27267
50.3993 8.24412
50.4487 8.22495
50.498 8.20195
50.5474 8.15466
50.5966 8.15121
50.6461 8.1207
50.6955 8.0828
50.7448 8.06755
50.7943 8.02186
50.8436 7.95997
50.8931 7.95243
50.9424 7.89069
50.9919 7.8953
51.0413 7.86173
51.0908 7.81203
51.1402 7.79455
51.1897 7.74109
51.2391 7.73566
51.2887 7.69225
51.3381 7.64811
51.3877 7.62192
51.4371 7.56259
51.4867 7.56736
51.5362 7.52404
51.5858 7.51135
51.6353 7.4458
51.6849 7.40854
51.7344 7.4089
51.7841 7.36937
51.8336 7.34424
51.8833 7.29856
51.9328 7.31428
51.9826 7.25997
52.0323 7.23841
52.0818 7.24138
52.1316 7.15946
52.1812 7.1203
52.231 7.10888
52.2806 7.05201
52.3304 7.08137
52.38 7.02913
52.4298 6.99553
52.4794 6.9272
52.5293 6.94675
52.5789 6.9395
52.6288 6.90408
52.6785 6.83589
52.7284 6.8574
52.7781 6.80396
52.828 6.78189
52.8777 6.74096
52.9276 6.69214
52.9774 6.65581
53.0273 6.65963
53.0771 6.63401
53.1271 6.61051
53.1769 6.51319
53.2269 6.54554
53.2767 6.50335
53.3267 6.5144
53.3765 6.46473
53.4266 6.41409
53.4766 6.41718
53.5265 6.34376
53.5765 6.37465
53.6264 6.32792
53.6765 6.30286
53.7264 6.25934
53.7765 6.22872
53.8265 6.18185
53.8766 6.14858
53.9266 6.14722
53.9767 6.10511
54.0267 6.10947
54.0769 6.05879
54.1269 6.01782
54.1771 6.01557
54.2271 6.00584
54.2773 5.92032
54.3274 5.92114
54.3776 5.8322
54.4277 5.82919
54.478 5.80865
54.528 5.84239
54.5783 5.73737
54.6285 5.67309
54.6788 5.68988
54.7289 5.63144
54.7792 5.63067
54.8296 5.5726
54.8798 5.48666
54.9301 5.48874
54.9803 5.4467
55.0307 5.41977
55.0809 5.35899
55.1314 5.32491
55.1816 5.27921
55.232 5.23194
55.2823 5.22678
55.3328 5.14464
55.383 5.10327
55.4335 5.06328
55.4838 5.03291
55.5344 4.95137
55.5847 4.95401
55.6352 4.88225
55.6856 4.7923
55.7361 4.77282