File: XRD/Ni3Fe_FD0050.xy
TT I
1.27165 33.0557
1.31627 31.5427
1.36089 30.0515
1.40551 28.4867
1.45013 27.1124
1.49476 26.9215
1.53938 25.2524
1.584 24.1706
1.62863 23.8017
1.67325 22.9008
1.71787 22.2618
1.7625 21.6916
1.80712 21.0925
1.85174 21.1439
1.89636 20.705
1.94099 21.3022
1.98562 21.2899
2.03025 21.2189
2.07487 20.9371
2.11949 21.4254
2.16411 20.645
2.20874 20.6915
2.25338 21.248
2.298 21.4299
2.34263 21.0451
2.38725 21.7086
2.43188 22.0654
2.4765 22.0874
2.52115 21.8584
2.56577 22.9047
2.6104 23.6517
2.65503 24.7434
2.69965 25.7082
2.7443 27.341
2.78893 30.1906
2.83356 32.4947
2.87818 37.0961
2.92281 40.6339
2.96744 46.7941
3.01209 55.4103
3.05672 63.4348
3.10135 73.7817
3.14599 77.2399
3.19062 75.1564
3.23527 67.0542
3.2799 56.5004
3.32454 46.5101
3.36917 40.0712
3.4138 34.5745
3.45844 31.091
3.50309 29.8605
3.54773 27.8859
3.59237 27.1132
3.637 26.3209
3.68164 26.4829
3.7263 25.8742
3.77094 25.9926
3.81558 25.7388
3.86022 26.104
3.90486 26.2276
3.9495 26.7119
3.99416 26.8991
4.0388 28.0777
4.08344 28.709
4.12809 29.4034
4.17273 30.2547
4.21738 32.083
4.26204 33.7358
4.30669 37.2088
4.35133 41.5225
4.39598 40.1926
4.44063 37.782
4.4853 37.2687
4.52995 38.4492
4.5746 39.3704
4.61925 40.713
4.6639 42.1731
4.70855 44.4077
4.75322 47.2444
4.79788 49.6805
4.84253 54.2454
4.88719 60.3313
4.93184 67.8622
4.97652 82.0984
5.02118 103.651
5.06583 121.91
5.11049 141.424
5.15515 185.574
5.19981 307.741
5.24449 703.356
5.28916 1590.05
5.33382 4043.93
5.37848 3222.55
5.42315 838.075
5.46783 311.348
5.5125 197.007
5.55716 151.598
5.60183 126.393
5.6465 115.27
5.69117 109.528
5.73586 102.881
5.78053 99.8681
5.8252 101.221
5.86988 106.654
5.91455 118.494
5.95924 140.696
6.00392 195.263
6.0486 326.958
6.09328 561.058
6.13795 1030.68
6.18263 1141.15
6.22733 513.712
6.27201 225.467
6.3167 132.545
6.36138 92.6848
6.40606 74.2685
6.45075 64.254
6.49545 57.5228
6.54014 52.8043
6.58483 49.2194
6.62952 47.2228
6.67421 44.8131
6.71892 43.6102
6.76361 42.7513
6.8083 41.3089
6.853 40.9756
6.89769 41.0182
6.94239 40.7
6.98711 40.6666
7.03181 42.1765
7.07651 44.6033
7.12121 46.4508
7.16591 43.5593
7.21063 40.9706
7.25533 39.3535
7.30004 39.2406
7.34475 38.7843
7.38945 39.0453
7.43416 39.7702
7.47889 42.2983
7.5236 58.0474
7.56831 162.539
7.61303 174.436
7.65774 64.9655
7.70247 43.8011
7.74719 40.1333
7.79191 38.893
7.83663 38.2977
7.88135 38.7957
7.92607 38.323
7.97081 39.1663
8.01553 39.7474
8.06026 40.5863
8.10498 41.1886
8.14971 42.3729
8.19446 43.6614
8.23919 45.8756
8.28392 48.9947
8.32865 51.7744
8.37339 55.3122
8.41812 58.9547
8.46288 66.447
8.50761 82.0128
8.55235 121.145
8.59709 183.264
8.64183 268.457
8.68658 561.109
8.73134 756.041
8.77609 388.958
8.82083 172.947
8.86558 107.143
8.91033 84.8969
8.9551 74.6333
8.99985 69.4227
9.04461 66.4076
9.08936 64.9194
9.13412 64.2699
9.17888 68.1921
9.22365 89.6741
9.26841 244.452
9.31318 331.997
9.35794 126.754
9.4027 71.0439
9.44749 61.6254
9.49226 58.4262
9.53703 56.8087
9.5818 56.6065
9.62657 56.5307
9.67134 56.8964
9.71614 57.7635
9.76091 59.0065
9.80569 60.3382
9.85047 62.8519
9.89525 66.4779
9.94005 72.8178
9.98484 85.2015
10.0296 116.684
10.0744 164.157
10.1192 207.724
10.164 344.591
10.2088 679.53
10.2536 652.259
10.2984 294.468
10.3432 151.14
10.388 101.52
10.4328 85.1882
10.4776 84.4399
10.5224 91.6417
10.5672 97.7165
10.612 126.757
10.6568 220.335
10.7017 275.297
10.7465 205.252
10.7913 103.807
10.8361 65.2102
10.8809 55.6457
10.9257 51.3579
10.9706 49.3578
11.0154 47.4424
11.0602 45.9168
11.105 44.583
11.1499 43.8129
11.1947 43.6284
11.2395 43.0874
11.2844 42.6024
11.3292 41.4869
11.374 40.5776
11.4189 40.293
11.4637 39.7228
11.5086 39.0717
11.5534 39.0491
11.5983 38.8486
11.6431 38.9086
11.688 38.65
11.7328 38.968
11.7777 39.1027
11.8225 39.4063
11.8674 40.7421
11.9122 43.8648
11.9571 64.3705
12.002 114.344
12.0468 95.1323
12.0917 55.1507
12.1366 48.9576
12.1814 50.1594
12.2263 53.8905
12.2712 65.0364
12.3161 84.5185
12.3609 87.1198
12.4058 66.626
12.4507 51.5767
12.4956 45.5934
12.5405 42.3483
12.5853 40.9177
12.6302 40.1188
12.6751 39.7292
12.72 39.7309
12.7649 40.1132
12.8098 39.981
12.8547 40.6781
12.8996 41.3255
12.9445 42.0639
12.9894 43.0621
13.0343 44.3984
13.0792 47.5458
13.1242 56.9729
13.1691 67.7628
13.214 66.5044
13.2589 68.6853
13.3038 72.8898
13.3487 86.3574
13.3937 126.294
13.4386 188.338
13.4835 181.152
13.5285 119.287
13.5734 89.8328
13.6183 81.5605
13.6633 79.3893
13.7082 93.0684
13.7531 134.846
13.7981 185.697
13.843 150.217
13.888 90.3645
13.9329 64.2522
13.9779 55.0987
14.0228 51.0574
14.0678 49.2139
14.1127 49.8609
14.1577 62.6308
14.2027 99.7543
14.2476 97.4784
14.2926 59.2799
14.3376 46.953
14.3825 43.7897
14.4275 42.6468
14.4725 41.8958
14.5175 41.394
14.5624 41.0495
14.6074 41.0672
14.6524 41.127
14.6974 41.3055
14.7424 41.7282
14.7874 42.5367
14.8324 44.9684
14.8774 48.6559
14.9224 51.36
14.9674 53.0683
15.0124 58.965
15.0574 75.6355
15.1024 103.839
15.1474 110.062
15.1924 85.202
15.2374 62.1402
15.2824 50.3689
15.3274 45.1233
15.3725 42.8626
15.4175 41.8618
15.4625 41.0014
15.5076 40.7071
15.5526 40.8295
15.5976 40.7241
15.6426 40.5213
15.6877 41.1511
15.7327 42.7054
15.7778 45.385
15.8228 48.0185
15.8679 49.5237
15.9129 52.9184
15.958 63.5451
16.003 84.6556
16.0481 106.183
16.0931 100.7
16.1382 82.5439
16.1833 61.1473
16.2283 46.0904
16.2734 40.8022
16.3185 38.4171
16.3636 37.0062
16.4086 36.0829
16.4537 35.2627
16.4988 34.915
16.5439 34.65
16.589 34.3874
16.6341 34.2809
16.6792 33.8922
16.7243 33.9406
16.7694 33.7792
16.8145 33.7373
16.8596 33.7525
16.9047 34.4426
16.9498 36.9889
16.9949 42.365
17.04 42.5385
17.0851 37.2232
17.1302 34.987
17.1754 35.1909
17.2205 35.6472
17.2656 35.6319
17.3108 36.4001
17.3559 37.4719
17.401 40.6461
17.4462 45.7593
17.4913 48.6286
17.5365 44.9345
17.5815 39.9808
17.6268 37.6343
17.6718 36.8266
17.7171 36.7207
17.7622 37.8814
17.8074 41.7923
17.8525 45.3115
17.8977 43.0206
17.9428 41.1979
17.9881 41.8594
18.0331 43.3718
18.0784 43.7938
18.1237 45.7324
18.1688 50.1887
18.214 61.4536
18.2591 78.8293
18.3044 84.3342
18.3495 70.017
18.3948 56.229
18.4399 52.4596
18.4852 55.6604
18.5303 63.6979
18.5756 63.8236
18.6207 57.1449
18.666 49.8732
18.7112 43.3093
18.7565 39.5029
18.8016 38.259
18.8469 37.1459
18.892 36.8342
18.9374 36.1415
18.9825 35.5814
19.0278 35.5368
19.073 35.2741
19.1183 35.2476
19.1635 35.31
19.2088 35.678
19.254 36.2615
19.2993 36.8622
19.3447 40.4138
19.3898 47.1139
19.4352 49.8329
19.4804 46.046
19.5257 45.2209
19.5709 44.981
19.6163 41.9105
19.6615 38.1253
19.7068 35.51
19.752 34.3011
19.7974 33.7811
19.8426 33.5369
19.888 33.3052
19.9332 33.3098
19.9786 33.496
20.0238 33.3696
20.0692 33.7331
20.1144 34.0413
20.1598 35.5519
20.205 37.725
20.2504 41.3172
20.2957 43.2373
20.3411 40.8588
20.3863 38.2056
20.4318 37.6659
20.477 39.4205
20.5224 41.0106
20.5677 39.2948
20.6131 35.8967
20.6586 33.5513
20.7038 32.537
20.7493 32.0129
20.7945 32.7628
20.84 34.9268
20.8853 35.6025
20.9307 33.3066
20.976 31.3844
21.0215 30.5625
21.0668 30.4868
21.1122 30.3196
21.1575 30.2363
21.203 29.9873
21.2483 30.0453
21.2938 30.3815
21.3391 30.4274
21.3846 31.1136
21.4299 32.0257
21.4754 32.2576
21.5207 32.0656
21.5662 31.5236
21.6116 30.9808
21.6571 30.469
21.7024 30.5297
21.7479 30.9704
21.7933 31.3813
21.8388 31.5315
21.8843 31.8231
21.9297 32.2448
21.9752 33.5854
22.0206 35.774
22.0661 38.5845
22.1115 41.3014
22.157 41.3498
22.2024 40.0277
22.248 39.0419
22.2933 37.9729
22.3389 36.7071
22.3843 35.1224
22.4299 33.1844
22.4753 31.8811
22.5208 31.4273
22.5662 30.8992
22.6118 30.7727
22.6572 30.5337
22.7028 30.747
22.7483 30.8309
22.7939 31.0485
22.8393 32.1136
22.8849 32.693
22.9303 32.4801
22.9759 31.9199
23.0214 31.8944
23.067 32.7835
23.1126 34.4871
23.1581 36.8496
23.2037 37.718
23.2492 35.9845
23.2948 33.3106
23.3403 32.1927
23.3859 31.8099
23.4314 32.2009
23.477 33.4889
23.5225 34.2663
23.5682 33.8113
23.6137 32.6549
23.6593 32.7253
23.7048 33.6962
23.7505 35.8912
23.796 37.9198
23.8417 37.6172
23.8872 34.7067
23.9329 32.1229
23.9784 30.5745
24.0241 29.8405
24.0697 29.6441
24.1154 29.4696
24.1609 29.3145
24.2066 28.8643
24.2522 28.5029
24.2979 28.0593
24.3434 27.8818
24.3892 27.658
24.4349 27.5713
24.4805 27.2781
24.5262 27.4599
24.5718 27.3319
24.6175 27.2331
24.6631 27.6949
24.7089 28.3123
24.7545 28.6432
24.8002 28.1757
24.8458 27.554
24.8916 26.9482
24.9372 26.9261
24.983 26.9414
25.0286 26.971
25.0744 26.8399
25.12 26.8367
25.1658 26.9753
25.2114 27.1719
25.2572 27.4439
25.3029 27.9723
25.3487 28.5894
25.3943 28.7158
25.4402 28.5483
25.4858 28.648
25.5316 29.0791
25.5773 29.4845
25.6231 29.2155
25.669 27.9501
25.7147 27.0732
25.7605 26.6255
25.8062 26.5698
25.8521 26.6185
25.8977 26.9252
25.9436 26.7641
25.9893 26.3805
26.0352 26.1102
26.0809 25.8301
26.1268 25.8458
26.1725 25.993
26.2184 26.1973
26.2641 26.5846
26.31 26.9998
26.3557 27.1718
26.4017 26.8542
26.4474 26.5683
26.4933 26.1925
26.5391 26.0951
26.585 25.9186
26.6308 25.9771
26.6767 25.8138
26.7225 26.102
26.7684 26.5237
26.8142 26.9929
26.8601 27.6772
26.9059 28.076
26.9519 27.8937
26.9979 27.9266
27.0437 27.7259
27.0896 27.2785
27.1354 26.6044
27.1814 25.8873
27.2272 25.5581
27.2732 25.4012
27.3191 25.1808
27.3651 25.0414
27.4109 24.9347
27.4569 24.864
27.5027 24.9208
27.5488 25.0491
27.5946 24.964
27.6407 24.91
27.6865 25.0205
27.7326 25.0166
27.7784 25.3011
27.8245 25.0946
27.8703 24.9358
27.9164 24.7469
27.9623 24.4618
28.0084 24.7462
28.0543 25.179
28.1003 25.3043
28.1462 25.4676
28.1923 25.3848
28.2384 25.5209
28.2843 25.9395
28.3304 25.935
28.3764 25.6949
28.4225 25.2336
28.4684 25.2984
28.5145 24.9135
28.5605 24.6734
28.6066 24.325
28.6526 24.0489
28.6987 23.9031
28.7447 23.4872
28.7908 23.3301
28.8368 23.1236
28.8829 23.0879
28.9289 23.0349
28.9751 22.8537
29.0211 22.8318
29.0673 22.9197
29.1133 22.9935
29.1595 23.065
29.2055 22.9033
29.2517 22.6657
29.2977 22.4235
29.3439 22.2927
29.3899 22.2601
29.4361 22.0816
29.4824 22.1087
29.5284 22.1313
29.5746 22.0928
29.6207 22.1472
29.6669 22.1473
29.713 22.0877
29.7593 21.8665
29.8053 21.7315
29.8516 21.5901
29.8977 21.5018
29.9439 21.4047
29.99 21.375
30.0363 21.2291
30.0824 21.3412
30.1287 21.4559
30.1748 21.519
30.2211 21.4055
30.2673 21.1018
30.3136 21.1219
30.3597 21.1483
30.406 21.2055
30.4522 21.1374
30.4985 21.1929
30.5447 21.1198
30.591 21.0403
30.6372 20.9091
30.6835 20.858
30.7297 20.8692
30.7761 20.906
30.8224 20.9994
30.8686 21.1036
30.915 21.1207
30.9612 21.3926
31.0076 21.3621
31.0538 21.3884
31.1002 21.3582
31.1464 21.132
31.1928 21.0036
31.2391 20.8458
31.2855 20.5231
31.3317 20.438
31.3781 20.3689
31.4244 20.3546
31.4708 20.3086
31.5171 20.3464
31.5636 20.2731
31.6098 20.3631
31.6563 20.4398
31.7026 20.3555
31.7491 20.3629
31.7953 20.5006
31.8418 20.3867
31.8881 20.1535
31.9346 20.0813
31.9809 19.8939
32.0275 19.8828
32.074 19.945
32.1203 19.9285
32.1668 20.0076
32.2132 19.9472
32.2597 19.8862
32.306 19.8457
32.3526 19.7057
32.399 19.5774
32.4455 19.5248
32.4919 19.3959
32.5385 19.3494
32.5848 19.2651
32.6314 19.0907
32.6778 18.9735
32.7244 18.9379
32.7708 18.8269
32.8174 18.8201
32.8638 18.6468
32.9104 18.7851
32.9569 18.798
33.0035 18.7321
33.0499 18.7487
33.0966 18.6353
33.143 18.5761
33.1897 18.4358
33.2361 18.4104
33.2828 18.3684
33.3293 18.3092
33.3759 18.3992
33.4226 18.2974
33.4691 18.3574
33.5158 18.3414
33.5623 18.3102
33.609 18.2645
33.6555 18.0974
33.7022 18.0199
33.7487 17.8471
33.7954 17.781
33.842 17.7286
33.8887 17.6714
33.9353 17.6262
33.982 17.5995
34.0286 17.549
34.0753 17.5469
34.1219 17.4192
34.1687 17.3779
34.2152 17.3251
34.262 17.2638
34.3086 17.1609
34.3554 17.1631
34.402 17.0748
34.4488 16.9531
34.4954 16.9373
34.5422 16.9181
34.5889 16.8171
34.6357 16.8741
34.6825 16.7871
34.7292 16.7115
34.776 16.6796
34.8227 16.6237
34.8695 16.5168
34.9162 16.4867
34.9631 16.4332
35.0098 16.4173
35.0566 16.3116
35.1033 16.2318
35.1502 16.2739
35.1969 16.269
35.2438 16.2599
35.2906 16.2222
35.3375 16.1345
35.3842 16.116
35.4311 16.059
35.4779 16.039
35.5248 16.0632
35.5716 16.0849
35.6185 16.0281
35.6653 15.9555
35.7123 16.0377
35.759 16.0892
35.806 15.9152
35.8528 15.8998
35.8998 15.7576
35.9468 15.7048
35.9936 15.6879
36.0406 15.5674
36.0874 15.4855
36.1345 15.477
36.1813 15.4644
36.2283 15.3944
36.2752 15.3692
36.3222 15.3555
36.3691 15.3353
36.4161 15.2779
36.463 15.2876
36.5101 15.2761
36.557 15.2041
36.6041 15.0459
36.651 15.059
36.6981 14.9845
36.745 14.9747
36.7921 14.9264
36.839 14.886
36.8861 14.9134
36.9331 14.8598
36.9802 14.7804
37.0272 14.6673
37.0743 14.6579
37.1213 14.6387
37.1684 14.5753
37.2154 14.4844
37.2626 14.5015
37.3098 14.4058
37.3568 14.355
37.404 14.3991
37.451 14.2844
37.4982 14.2443
37.5452 14.2052
37.5924 14.2045
37.6395 14.1678
37.6867 14.1679
37.7337 14.0271
37.781 13.9532
37.8281 13.9398
37.8753 13.8661
37.9224 13.8021
37.9697 13.7989
38.0168 13.7457
38.064 13.7245
38.1111 13.6771
38.1584 13.6379
38.2056 13.546
38.2529 13.563
38.3 13.4622
38.3473 13.4678
38.3945 13.3856
38.4418 13.3394
38.489 13.3363
38.5363 13.2641
38.5837 13.2111
38.6309 13.2688
38.6782 13.2051
38.7254 13.0846
38.7728 13.0586
38.82 13.0465
38.8674 13.0138
38.9146 12.9868
38.9621 12.9754
39.0093 12.9367
39.0567 12.9073
39.104 12.8296
39.1514 12.7458
39.1987 12.7431
39.2461 12.6651
39.2934 12.6516
39.3409 12.5653
39.3882 12.5592
39.4356 12.5206
39.483 12.4609
39.5304 12.5042
39.5778 12.3903
39.6253 12.3984
39.6726 12.3448
39.7201 12.3442
39.7675 12.2725
39.815 12.2477
39.8624 12.219
39.9099 12.225
39.9575 12.1484
40.0049 12.1099
40.0525 12.1212
40.0999 12.0848
40.1474 12.0388
40.1949 11.9782
40.2425 11.9504
40.2899 11.9087
40.3375 11.9239
40.385 11.8044
40.4326 11.8034
40.48 11.6878
40.5277 11.7738
40.5752 11.7561
40.6228 11.6282
40.6703 11.6533
40.718 11.5823
40.7655 11.5717
40.8132 11.4997
40.8607 11.4984
40.9084 11.4932
40.9559 11.4381
41.0036 11.4311
41.0512 11.3311
41.0989 11.391
41.1465 11.3403
41.1942 11.2917
41.242 11.2168
41.2896 11.1575
41.3373 11.1303
41.3849 11.1279
41.4327 11.0619
41.4803 11.02
41.5281 11.0038
41.5758 10.9681
41.6236 10.8937
41.6712 10.9128
41.7191 10.8023
41.7667 10.8495
41.8146 10.8268
41.8622 10.7443
41.9101 10.731
41.9578 10.6623
42.0057 10.6547
42.0534 10.6837
42.1013 10.6126
42.149 10.5691
42.1969 10.4844
42.2446 10.4852
42.2925 10.4304
42.3403 10.4077
42.3882 10.3678
42.436 10.3294
42.4839 10.3111
42.5319 10.2992
42.5797 10.2773
42.6277 10.2284
42.6755 10.1779
42.7235 10.1588
42.7713 10.11
42.8193 10.0766
42.8671 10.0165
42.9152 10.0208
42.963 9.96707
43.0111 9.89098
43.0589 9.89908
43.107 9.86775
43.1549 9.87841
43.2029 9.81843
43.2508 9.78188
43.2989 9.76589
43.3468 9.6681
43.3949 9.71135
43.4429 9.6624
43.491 9.63527
43.5389 9.58832
43.5871 9.53984
43.635 9.4689
43.6832 9.47732
43.7312 9.46765
43.7793 9.42896
43.8273 9.3804
43.8755 9.39939
43.9237 9.34446
43.9717 9.2901
44.0199 9.29435
44.068 9.21985
44.1162 9.20078
44.1642 9.21894
44.2125 9.14965
44.2606 9.16015
44.3088 9.09298
44.3569 9.07792
44.4052 9.05311
44.4533 9.03031
44.5016 8.96748
44.5497 8.96508
44.598 8.93805
44.6461 8.88694
44.6945 8.86311
44.7426 8.81373
44.791 8.76852
44.8391 8.78894
44.8875 8.71761
44.9357 8.68824
44.984 8.73557
45.0322 8.67112
45.0806 8.6419
45.1288 8.57127
45.1773 8.55115
45.2257 8.53648
45.2739 8.51299
45.3224 8.45069
45.3706 8.4583
45.4191 8.39533
45.4673 8.37391
45.5158 8.35667
45.5641 8.31998
45.6126 8.31886
45.6609 8.27346
45.7094 8.21246
45.7577 8.22495
45.8063 8.18175
45.8546 8.19768
45.9031 8.14205
45.9515 8.10046
46.0001 8.08414
46.0484 8.05099
46.097 8.02057
46.1454 7.9844
46.194 7.95452
46.2424 7.91811
46.291 7.9172
46.3395 7.92311
46.3881 7.85434
46.4365 7.87577
46.4852 7.828
46.5337 7.8091
46.5823 7.77026
46.631 7.72569
46.6795 7.71852
46.7282 7.69948
46.7767 7.68232
46.8254 7.61048
46.8739 7.60303
46.9226 7.5535
46.9712 7.50479
47.0199 7.51014
47.0685 7.4771
47.1173 7.48347
47.1658 7.42903
47.2146 7.42334
47.2632 7.32081
47.312 7.36267
47.3606 7.29809
47.4095 7.26233
47.4581 7.27538
47.5069 7.25733
47.5556 7.20411
47.6044 7.1667
47.6531 7.16274
47.702 7.15344
47.7507 7.12162
47.7996 7.0712
47.8483 7.07406
47.8972 7.02994
47.9461 7.05171
47.9948 7.00832
48.0438 6.95947
48.0925 6.94841
48.1415 6.91492
48.1902 6.87945
48.2392 6.85684
48.288 6.83342
48.337 6.81876
48.3858 6.80105
48.4348 6.76786
48.4837 6.76928
48.5327 6.71216
48.5815 6.68641
48.6306 6.70454
48.6795 6.65191
48.7285 6.62085
48.7774 6.61412
48.8265 6.57502
48.8754 6.56378
48.9245 6.54322
48.9734 6.5107
49.0226 6.50722
49.0715 6.48462
49.1206 6.44333
49.1696 6.39096
49.2188 6.42385
49.2679 6.38842
49.3169 6.35514
49.3661 6.28408
49.4151 6.32887
49.4643 6.2969
49.5134 6.24778
49.5626 6.2184
49.6117 6.23701
49.6609 6.20992
49.71 6.16923
49.7592 6.14864
49.8083 6.09838
49.8576 6.13022
49.9067 6.07501
49.956 6.06071
50.0052 6.03343
50.0545 5.99331
50.1036 6.01453
50.153 5.95608
50.2022 5.95512
50.2515 5.9208
50.3007 5.90278
50.3501 5.87299
50.3993 5.84444
50.4487 5.84385
50.498 5.83142
50.5474 5.81547
50.5966 5.76667
50.6461 5.74742
50.6955 5.73875
50.7448 5.71508
50.7943 5.68429
50.8436 5.69891
50.8931 5.67605
50.9424 5.62885
50.9919 5.60379
51.0413 5.59664
51.0908 5.56239
51.1402 5.54313
51.1897 5.54499
51.2391 5.49479
51.2887 5.4668
51.3381 5.48942
51.3877 5.46296
51.4371 5.44049
51.4867 5.40242
51.5362 5.37261
51.5858 5.36493
51.6353 5.35729
51.6849 5.30516
51.7344 5.31224
51.7841 5.28993
51.8336 5.27162
51.8833 5.2163
51.9328 5.21028
51.9826 5.21647
52.0323 5.18581
52.0818 5.18238
52.1316 5.13463
52.1812 5.1236
52.231 5.05714
52.2806 5.06912
52.3304 5.05338
52.38 5.06641
52.4298 5.00226
52.4794 4.97529
52.5293 4.94933
52.5789 4.97012
52.6288 4.96361
52.6785 4.90624
52.7284 4.86907
52.7781 4.89134
52.828 4.89466
52.8777 4.83264
52.9276 4.81568
52.9774 4.79521
53.0273 4.77315
53.0771 4.78696
53.1271 4.77941
53.1769 4.73637
53.2269 4.70948
53.2767 4.6923
53.3267 4.66949
53.3765 4.65768
53.4266 4.64163
53.4766 4.62028
53.5265 4.57528
53.5765 4.55623
53.6264 4.49525
53.6765 4.49304
53.7264 4.51017
53.7765 4.47059
53.8265 4.45733
53.8766 4.45313
53.9266 4.38583
53.9767 4.41396
54.0267 4.4078
54.0769 4.35915
54.1269 4.32611
54.1771 4.29546
54.2271 4.2742
54.2773 4.26926
54.3274 4.25128
54.3776 4.20737
54.4277 4.20021
54.478 4.16133
54.528 4.08814
54.5783 4.08618
54.6285 4.02538
54.6788 3.9972
54.7289 4.00907
54.7792 3.9879
54.8296 3.89444
54.8798 3.88913
54.9301 3.83488
54.9803 3.88868
55.0307 3.8254
55.0809 3.76493
55.1314 3.73578
55.1816 3.67899
55.232 3.65806
55.2823 3.66904
55.3328 3.59096
55.383 3.54633
55.4335 3.51593
55.4838 3.52708
55.5344 3.4348
55.5847 3.46069
55.6352 3.41389
55.6856 3.36115
55.7361 3.42415