File: XRD/Ni3Fe_FD0857.xy
TT I
1.27165 7.03549
1.31627 6.64942
1.36089 7.05669
1.40551 5.35271
1.45013 5.76092
1.49476 6.35062
1.53938 5.60685
1.584 5.14113
1.62863 5.25769
1.67325 5.00907
1.71787 4.9238
1.7625 4.95913
1.80712 4.85292
1.85174 4.62993
1.89636 5.0227
1.94099 5.01071
1.98562 4.85653
2.03025 4.82448
2.07487 5.0921
2.11949 5.35526
2.16411 4.63482
2.20874 14.2091
2.25338 22.5051
2.298 5.71087
2.34263 5.99832
2.38725 6.1333
2.43188 5.84822
2.4765 7.55784
2.52115 7.38305
2.56577 7.5006
2.6104 9.1177
2.65503 7.57099
2.69965 8.79955
2.7443 7.83678
2.78893 8.47882
2.83356 8.24032
2.87818 9.00968
2.92281 9.09026
2.96744 9.97412
3.01209 10.4391
3.05672 11.9194
3.10135 12.6012
3.14599 13.3993
3.19062 14.0353
3.23527 15.435
3.2799 15.8553
3.32454 16.8937
3.36917 17.8514
3.4138 18.4842
3.45844 19.6043
3.50309 21.1052
3.54773 21.6613
3.59237 23.6098
3.637 91.2559
3.68164 58.5229
3.7263 26.4149
3.77094 26.1113
3.81558 26.6552
3.86022 27.2885
3.90486 28.6551
3.9495 29.4438
3.99416 30.2176
4.0388 32.1708
4.08344 33.4457
4.12809 34.2509
4.17273 36.407
4.21738 42.4442
4.26204 246.06
4.30669 218.494
4.35133 48.3178
4.39598 44.0765
4.44063 53.2583
4.4853 65.4868
4.52995 49.7941
4.5746 50.6512
4.61925 52.2364
4.6639 54.6794
4.70855 57.3019
4.75322 60.5527
4.79788 63.004
4.84253 66.6262
4.88719 69.8058
4.93184 73.7542
4.97652 79.0202
5.02118 84.5432
5.06583 91.6227
5.11049 102.098
5.15515 165.313
5.19981 293.842
5.24449 2481.21
5.28916 12388.6
5.33382 2743.19
5.37848 177.543
5.42315 125.101
5.46783 111.007
5.5125 103.789
5.55716 100.282
5.60183 97.1867
5.6465 95.0489
5.69117 92.8121
5.73586 90.6253
5.78053 90.0337
5.8252 89.0467
5.86988 89.9271
5.91455 91.4069
5.95924 97.0024
6.00392 174.936
6.0486 834.048
6.09328 4381.73
6.13795 3241.94
6.18263 224.338
6.22733 90.3775
6.27201 81.5491
6.3167 100.382
6.36138 79.2971
6.40606 67.8976
6.45075 66.4625
6.49545 64.6557
6.54014 62.8356
6.58483 62.3308
6.62952 62.2561
6.67421 92.0146
6.71892 141.068
6.76361 68.6012
6.8083 58.1517
6.853 56.357
6.89769 56.1362
6.94239 56.1264
6.98711 55.4239
7.03181 54.8991
7.07651 54.7692
7.12121 54.3022
7.16591 54.7349
7.21063 54.8783
7.25533 69.9337
7.30004 174.618
7.34475 91.1363
7.38945 56.1582
7.43416 54.0743
7.47889 53.7882
7.5236 54.2853
7.56831 54.6527
7.61303 56.3957
7.65774 56.5154
7.70247 55.7171
7.74719 55.6098
7.79191 56.0869
7.83663 56.1976
7.88135 57.0349
7.92607 58.0981
7.97081 59.0375
8.01553 59.894
8.06026 61.2119
8.10498 62.7851
8.14971 71.9126
8.19446 71.8453
8.23919 68.3323
8.28392 70.9091
8.32865 72.9939
8.37339 76.6986
8.41812 83.4751
8.46288 110.795
8.50761 145.904
8.55235 340.509
8.59709 1128.77
8.64183 2220.19
8.68658 937.611
8.73134 168.975
8.77609 97.3008
8.82083 90.8227
8.86558 88.2714
8.91033 88.4117
8.9551 90.8317
8.99985 84.3352
9.04461 82.6663
9.08936 81.6021
9.13412 81.073
9.17888 81.1355
9.22365 81.745
9.26841 80.9667
9.31318 81.1708
9.35794 81.352
9.4027 81.9349
9.44749 82.4859
9.49226 83.2281
9.53703 84.1949
9.5818 86.0212
9.62657 90.7519
9.67134 97.2611
9.71614 92.119
9.76091 92.4408
9.80569 94.6412
9.85047 98.0947
9.89525 120.82
9.94005 132.504
9.98484 158.499
10.0296 305.048
10.0744 778.444
10.1192 1762.48
10.164 1582.22
10.2088 401.206
10.2536 124.051
10.2984 111.402
10.3432 112.759
10.388 102.585
10.4328 111.926
10.4776 149.622
10.5224 273.586
10.5672 526.037
10.612 503.801
10.6568 202.583
10.7017 95.706
10.7465 85.4151
10.7913 81.7113
10.8361 79.6789
10.8809 78.0228
10.9257 77.6282
10.9706 78.1004
11.0154 73.5391
11.0602 72.1171
11.105 70.7146
11.1499 75.0932
11.1947 82.144
11.2395 73.4189
11.2844 69.6036
11.3292 66.1829
11.374 65.139
11.4189 64.6466
11.4637 64.1257
11.5086 64.824
11.5534 67.733
11.5983 64.5867
11.6431 62.7482
11.688 61.744
11.7328 62.0502
11.7777 62.113
11.8225 61.638
11.8674 61.5004
11.9122 61.8968
11.9571 62.0231
12.002 62.4101
12.0468 65.4379
12.0917 75.3025
12.1366 98.9589
12.1814 153.188
12.2263 210.03
12.2712 167.938
12.3161 95.387
12.3609 69.4499
12.4058 63.9355
12.4507 63.1378
12.4956 63.5233
12.5405 63.3361
12.5853 64.3301
12.6302 72.0712
12.6751 77.6042
12.72 69.0244
12.7649 66.6477
12.8098 67.2422
12.8547 68.6531
12.8996 69.7187
12.9445 70.9099
12.9894 72.965
13.0343 74.4651
13.0792 77.2916
13.1242 84.3646
13.1691 105.032
13.214 140.161
13.2589 232.09
13.3038 373.789
13.3487 424.011
13.3937 260.078
13.4386 122.098
13.4835 100.881
13.5285 113.759
13.5734 151.352
13.6183 246.969
13.6633 357.728
13.7082 337.44
13.7531 183.308
13.7981 95.9903
13.843 80.5141
13.888 78.1585
13.9329 75.681
13.9779 74.5664
14.0228 73.2566
14.0678 71.9299
14.1127 71.3747
14.1577 71.4241
14.2027 70.4334
14.2476 69.4426
14.2926 69.3918
14.3376 70.609
14.3825 69.3238
14.4275 67.8092
14.4725 67.4823
14.5175 67.5829
14.5624 68.0342
14.6074 70.1756
14.6524 70.5343
14.6974 69.4305
14.7424 70.2244
14.7874 75.7856
14.8324 84.8808
14.8774 105.951
14.9224 151.843
14.9674 211.526
15.0124 218.635
15.0574 148.277
15.1024 89.729
15.1474 71.1631
15.1924 69.3447
15.2374 70.0114
15.2824 69.3179
15.3274 67.1824
15.3725 65.8473
15.4175 65.6297
15.4625 65.0648
15.5076 65.3314
15.5526 65.1939
15.5976 64.6222
15.6426 65.3123
15.6877 69.5735
15.7327 76.1635
15.7778 91.7777
15.8228 124.48
15.8679 171.073
15.9129 194.706
15.958 154.497
16.003 93.7902
16.0481 67.0782
16.0931 63.7277
16.1382 61.8442
16.1833 59.7897
16.2283 58.2253
16.2734 57.6807
16.3185 57.7674
16.3636 58.6189
16.4086 57.137
16.4537 55.5903
16.4988 54.7952
16.5439 54.7142
16.589 54.4239
16.6341 54.1475
16.6792 53.564
16.7243 54.1533
16.7694 54.1056
16.8145 54.0889
16.8596 54.3758
16.9047 55.9629
16.9498 56.2353
16.9949 54.8841
17.04 54.6933
17.0851 56.0365
17.1302 57.5545
17.1754 60.3734
17.2205 65.3155
17.2656 73.9559
17.3108 83.3158
17.3559 81.6378
17.401 70.3913
17.4462 61.1552
17.4913 58.1875
17.5365 58.416
17.5815 58.4453
17.6268 58.5287
17.6718 59.4007
17.7171 59.9057
17.7622 60.3056
17.8074 60.6389
17.8525 62.4836
17.8977 66.2802
17.9428 71.4236
17.9881 80.0114
18.0331 98.2329
18.0784 121.084
18.1237 138.042
18.1688 127.825
18.214 101.18
18.2591 84.7966
18.3044 89.683
18.3495 100.536
18.3948 104.668
18.4399 93.7688
18.4852 76.243
18.5303 65.1098
18.5756 61.4316
18.6207 60.3544
18.666 59.5379
18.7112 58.9153
18.7565 58.2035
18.8016 57.7526
18.8469 57.3189
18.892 56.8711
18.9374 56.4268
18.9825 56.1791
19.0278 56.1251
19.073 56.1309
19.1183 56.3651
19.1635 57.1134
19.2088 58.4357
19.254 60.9359
19.2993 65.9025
19.3447 72.218
19.3898 76.2612
19.4352 71.0836
19.4804 62.2828
19.5257 56.0415
19.5709 53.3463
19.6163 53.0238
19.6615 52.9374
19.7068 52.5808
19.752 52.6045
19.7974 52.6304
19.8426 53.3491
19.888 53.9915
19.9332 55.1673
19.9786 57.6426
20.0238 61.6635
20.0692 66.6469
20.1144 68.8294
20.1598 67.2369
20.205 62.4857
20.2504 61.5681
20.2957 63.8222
20.3411 65.2063
20.3863 63.2288
20.4318 57.892
20.477 53.0145
20.5224 50.8864
20.5677 50.4635
20.6131 49.4885
20.6586 49.094
20.7038 48.8255
20.7493 48.418
20.7945 48.2292
20.84 48.0156
20.8853 48.0783
20.9307 47.8092
20.976 47.9568
21.0215 47.8171
21.0668 48.2389
21.1122 48.7944
21.1575 49.4903
21.203 50.3227
21.2483 50.8291
21.2938 50.7369
21.3391 49.4093
21.3846 48.3043
21.4299 47.6946
21.4754 47.8063
21.5207 47.7586
21.5662 47.8925
21.6116 48.3742
21.6571 48.895
21.7024 49.8434
21.7479 51.5897
21.7933 54.5499
21.8388 58.3924
21.8843 62.3414
21.9297 63.8092
21.9752 62.0317
22.0206 58.69
22.0661 55.9313
22.1115 55.5464
22.157 55.2083
22.2024 53.3753
22.248 50.7464
22.2933 49.0969
22.3389 48.4682
22.3843 48.4576
22.4299 48.3357
22.4753 48.2525
22.5208 47.8469
22.5662 47.8359
22.6118 47.8847
22.6572 48.0986
22.7028 48.4553
22.7483 48.942
22.7939 49.6832
22.8393 51.0284
22.8849 53.5245
22.9303 55.7024
22.9759 57.3374
23.0214 56.9011
23.067 53.8763
23.1126 50.6395
23.1581 48.5894
23.2037 48.1078
23.2492 48.141
23.2948 48.2097
23.3403 48.1852
23.3859 48.9241
23.4314 49.9311
23.477 52.084
23.5225 54.2491
23.5682 56.7241
23.6137 57.2436
23.6593 54.984
23.7048 50.9575
23.7505 47.8102
23.796 46.2168
23.8417 45.4498
23.8872 45.0323
23.9329 44.5274
23.9784 44.2335
24.0241 44.0287
24.0697 43.7361
24.1154 43.4027
24.1609 43.4567
24.2066 43.2619
24.2522 43.0368
24.2979 42.8036
24.3434 42.6697
24.3892 42.6362
24.4349 42.5064
24.4805 42.477
24.5262 42.5898
24.5718 42.5544
24.6175 42.3393
24.6631 42.2487
24.7089 41.9635
24.7545 41.9104
24.8002 41.7601
24.8458 41.7456
24.8916 41.5335
24.9372 41.6212
24.983 41.9256
25.0286 42.2146
25.0744 42.6785
25.12 43.1586
25.1658 43.8269
25.2114 44.0404
25.2572 44.2574
25.3029 44.4654
25.3487 44.5673
25.3943 44.0234
25.4402 42.9162
25.4858 41.971
25.5316 40.9613
25.5773 40.2765
25.6231 40.4214
25.669 39.9714
25.7147 40.0769
25.7605 39.7675
25.8062 39.984
25.8521 40.138
25.8977 40.0717
25.9436 40.3248
25.9893 40.4586
26.0352 41.1244
26.0809 41.0039
26.1268 41.105
26.1725 40.8615
26.2184 40.2672
26.2641 39.627
26.31 39.627
26.3557 39.4567
26.4017 39.5681
26.4474 39.947
26.4933 40.0471
26.5391 40.7355
26.585 41.1897
26.6308 41.5002
26.6767 41.583
26.7225 41.4846
26.7684 40.8355
26.8142 40.3859
26.8601 39.9649
26.9059 39.5694
26.9519 39.0412
26.9979 38.6416
27.0437 38.37
27.0896 38.2773
27.1354 38.1907
27.1814 38.1451
27.2272 38.1175
27.2732 38.0795
27.3191 37.7278
27.3651 37.965
27.4109 37.9076
27.4569 38.1242
27.5027 38.149
27.5488 38.0352
27.5946 37.8809
27.6407 37.5612
27.6865 37.5788
27.7326 37.4605
27.7784 37.3908
27.8245 37.2789
27.8703 37.5676
27.9164 37.8001
27.9623 38.0058
28.0084 38.2702
28.0543 38.5893
28.1003 38.675
28.1462 38.4057
28.1923 38.0214
28.2384 37.5913
28.2843 37.1671
28.3304 36.6836
28.3764 36.2172
28.4225 36.0331
28.4684 35.7796
28.5145 35.5157
28.5605 35.5396
28.6066 35.1597
28.6526 35.1511
28.6987 35.246
28.7447 35.0418
28.7908 35.0289
28.8368 35.0698
28.8829 35.0766
28.9289 34.9627
28.9751 34.6765
29.0211 34.5016
29.0673 34.2472
29.1133 34.1743
29.1595 33.9628
29.2055 33.9503
29.2517 33.8732
29.2977 33.7673
29.3439 33.9608
29.3899 33.7937
29.4361 33.6258
29.4824 33.6084
29.5284 33.3894
29.5746 33.0184
29.6207 32.7988
29.6669 32.7458
29.713 32.6099
29.7593 32.4421
29.8053 32.5525
29.8516 32.4324
29.8977 32.4539
29.9439 32.1279
29.99 32.1226
30.0363 31.9954
30.0824 32.1035
30.1287 32.0438
30.1748 32.1287
30.2211 32.0357
30.2673 31.8187
30.3136 31.9156
30.3597 31.8962
30.406 31.7223
30.4522 31.6945
30.4985 31.6198
30.5447 31.7057
30.591 31.7364
30.6372 31.8265
30.6835 31.7428
30.7297 31.8927
30.7761 31.8514
30.8224 31.5906
30.8686 31.5036
30.915 31.1735
30.9612 31.1433
31.0076 30.9369
31.0538 30.7297
31.1002 30.8172
31.1464 30.6197
31.1928 30.6007
31.2391 30.6348
31.2855 30.5421
31.3317 30.5046
31.3781 30.5428
31.4244 30.4526
31.4708 30.5736
31.5171 30.3741
31.5636 30.3093
31.6098 30.0768
31.6563 30.0861
31.7026 29.935
31.7491 29.7513
31.7953 29.7656
31.8418 29.6683
31.8881 29.7824
31.9346 29.7845
31.9809 29.7122
32.0275 29.5644
32.074 29.4142
32.1203 29.2415
32.1668 29.1537
32.2132 28.9694
32.2597 28.9052
32.306 28.7719
32.3526 28.6275
32.399 28.5685
32.4455 28.4712
32.4919 28.3323
32.5385 28.2685
32.5848 28.1611
32.6314 28.0907
32.6778 28.0278
32.7244 27.904
32.7708 27.8386
32.8174 27.76
32.8638 27.629
32.9104 27.7062
32.9569 27.7157
33.0035 27.4866
33.0499 27.4957
33.0966 27.4827
33.143 27.5196
33.1897 27.4023
33.2361 27.2664
33.2828 27.2476
33.3293 26.9844
33.3759 27.0579
33.4226 26.9222
33.4691 26.7474
33.5158 26.6777
33.5623 26.579
33.609 26.452
33.6555 26.391
33.7022 26.2354
33.7487 26.195
33.7954 26.1386
33.842 26.0923
33.8887 26.0364
33.9353 25.9527
33.982 25.8148
34.0286 25.8226
34.0753 25.6215
34.1219 25.6631
34.1687 25.4631
34.2152 25.4501
34.262 25.3205
34.3086 25.295
34.3554 25.319
34.402 25.0568
34.4488 24.9793
34.4954 24.9108
34.5422 24.8722
34.5889 24.7775
34.6357 24.7247
34.6825 24.6249
34.7292 24.5367
34.776 24.5896
34.8227 24.411
34.8695 24.3546
34.9162 24.2707
34.9631 24.1587
35.0098 24.2123
35.0566 24.0594
35.1033 24.0852
35.1502 23.9572
35.1969 23.9626
35.2438 23.8711
35.2906 23.8954
35.3375 23.7719
35.3842 23.7804
35.4311 23.7553
35.4779 23.6923
35.5248 23.6799
35.5716 23.5084
35.6185 23.4215
35.6653 23.3566
35.7123 23.2972
35.759 23.2254
35.806 22.9899
35.8528 23.0079
35.8998 22.9436
35.9468 22.8378
35.9936 22.823
36.0406 22.7629
36.0874 22.7552
36.1345 22.5989
36.1813 22.5326
36.2283 22.4896
36.2752 22.3234
36.3222 22.3876
36.3691 22.239
36.4161 22.222
36.463 22.1297
36.5101 22.1649
36.557 22.1534
36.6041 21.9289
36.651 21.9633
36.6981 21.8477
36.745 21.8608
36.7921 21.697
36.839 21.5764
36.8861 21.5179
36.9331 21.5102
36.9802 21.4135
37.0272 21.3248
37.0743 21.2786
37.1213 21.2313
37.1684 21.1966
37.2154 21.0949
37.2626 20.9707
37.3098 21.0006
37.3568 20.8862
37.404 20.8501
37.451 20.7016
37.4982 20.746
37.5452 20.5683
37.5924 20.5382
37.6395 20.5687
37.6867 20.4258
37.7337 20.3811
37.781 20.2813
37.8281 20.2584
37.8753 20.0892
37.9224 20.0532
37.9697 20.0715
38.0168 19.9862
38.064 19.9143
38.1111 19.8502
38.1584 19.7784
38.2056 19.6753
38.2529 19.645
38.3 19.5828
38.3473 19.5458
38.3945 19.4174
38.4418 19.4429
38.489 19.3811
38.5363 19.2621
38.5837 19.2955
38.6309 19.1509
38.6782 19.0879
38.7254 19.0256
38.7728 19.0155
38.82 18.9136
38.8674 18.861
38.9146 18.7896
38.9621 18.8036
39.0093 18.6986
39.0567 18.6864
39.104 18.5825
39.1514 18.5222
39.1987 18.4449
39.2461 18.4225
39.2934 18.3316
39.3409 18.2439
39.3882 18.2482
39.4356 18.2053
39.483 18.1235
39.5304 18.0881
39.5778 18.0368
39.6253 17.9043
39.6726 17.8977
39.7201 17.8341
39.7675 17.8102
39.815 17.7878
39.8624 17.5891
39.9099 17.6327
39.9575 17.5288
40.0049 17.4461
40.0525 17.3971
40.0999 17.3709
40.1474 17.3242
40.1949 17.2925
40.2425 17.1371
40.2899 17.1326
40.3375 17.1327
40.385 17.0449
40.4326 16.98
40.48 16.962
40.5277 16.8962
40.5752 16.8464
40.6228 16.7522
40.6703 16.7661
40.718 16.7224
40.7655 16.6246
40.8132 16.5452
40.8607 16.5599
40.9084 16.4964
40.9559 16.4399
41.0036 16.3787
41.0512 16.2977
41.0989 16.2714
41.1465 16.2211
41.1942 16.2096
41.242 16.1
41.2896 16.0487
41.3373 16.0161
41.3849 15.9148
41.4327 15.8784
41.4803 15.8129
41.5281 15.7638
41.5758 15.7178
41.6236 15.6927
41.6712 15.6056
41.7191 15.525
41.7667 15.4581
41.8146 15.465
41.8622 15.3808
41.9101 15.3803
41.9578 15.244
42.0057 15.2623
42.0534 15.2205
42.1013 15.1794
42.149 15.0759
42.1969 15.0452
42.2446 15.0227
42.2925 14.9312
42.3403 14.9571
42.3882 14.8747
42.436 14.7612
42.4839 14.7489
42.5319 14.7287
42.5797 14.6674
42.6277 14.6038
42.6755 14.5812
42.7235 14.4812
42.7713 14.4549
42.8193 14.3697
42.8671 14.3761
42.9152 14.3069
42.963 14.2549
43.0111 14.2166
43.0589 14.1576
43.107 14.1157
43.1549 14.0978
43.2029 14.034
43.2508 14.0189
43.2989 13.8565
43.3468 13.8847
43.3949 13.8412
43.4429 13.7953
43.491 13.7865
43.5389 13.7191
43.5871 13.5981
43.635 13.5591
43.6832 13.5466
43.7312 13.5029
43.7793 13.4577
43.8273 13.4311
43.8755 13.3658
43.9237 13.2915
43.9717 13.2804
44.0199 13.24
44.068 13.2142
44.1162 13.0846
44.1642 13.0555
44.2125 13.0678
44.2606 13.0064
44.3088 12.932
44.3569 12.9235
44.4052 12.8489
44.4533 12.8334
44.5016 12.7656
44.5497 12.7602
44.598 12.7121
44.6461 12.6461
44.6945 12.6147
44.7426 12.5269
44.791 12.4518
44.8391 12.483
44.8875 12.3805
44.9357 12.3653
44.984 12.3426
45.0322 12.2456
45.0806 12.2216
45.1288 12.1764
45.1773 12.1511
45.2257 12.1263
45.2739 12.0849
45.3224 11.9877
45.3706 11.9978
45.4191 11.9157
45.4673 11.8564
45.5158 11.8529
45.5641 11.8128
45.6126 11.7727
45.6609 11.7304
45.7094 11.698
45.7577 11.6328
45.8063 11.5872
45.8546 11.5854
45.9031 11.5266
45.9515 11.4729
46.0001 11.3951
46.0484 11.4167
46.097 11.3922
46.1454 11.3175
46.194 11.2804
46.2424 11.2945
46.291 11.1874
46.3395 11.1219
46.3881 11.0554
46.4365 11.1064
46.4852 11.0676
46.5337 10.9765
46.5823 10.9562
46.631 10.898
46.6795 10.8911
46.7282 10.8412
46.7767 10.7406
46.8254 10.76
46.8739 10.7079
46.9226 10.6772
46.9712 10.6392
47.0199 10.5911
47.0685 10.5713
47.1173 10.502
47.1658 10.4568
47.2146 10.4556
47.2632 10.38
47.312 10.3788
47.3606 10.3388
47.4095 10.2762
47.4581 10.2443
47.5069 10.2194
47.5556 10.1628
47.6044 10.1594
47.6531 10.0942
47.702 10.04
47.7507 9.99895
47.7996 9.98195
47.8483 9.95153
47.8972 9.93936
47.9461 9.85245
47.9948 9.83822
48.0438 9.80044
48.0925 9.75586
48.1415 9.72956
48.1902 9.6939
48.2392 9.67483
48.288 9.63375
48.337 9.58297
48.3858 9.56448
48.4348 9.54021
48.4837 9.54123
48.5327 9.43593
48.5815 9.39303
48.6306 9.40592
48.6795 9.3682
48.7285 9.30682
48.7774 9.29514
48.8265 9.26218
48.8754 9.18398
48.9245 9.19495
48.9734 9.16654
49.0226 9.10451
49.0715 9.05912
49.1206 9.01431
49.1696 8.94456
49.2188 8.98339
49.2679 8.96716
49.3169 8.90378
49.3661 8.8576
49.4151 8.8265
49.4643 8.81275
49.5134 8.78458
49.5626 8.7071
49.6117 8.69874
49.6609 8.66437
49.71 8.6117
49.7592 8.58101
49.8083 8.56284
49.8576 8.53199
49.9067 8.46969
49.956 8.47319
50.0052 8.42398
50.0545 8.42964
50.1036 8.3549
50.153 8.34922
50.2022 8.29491
50.2515 8.29257
50.3007 8.20839
50.3501 8.20104
50.3993 8.17145
50.4487 8.12211
50.498 8.1438
50.5474 8.0673
50.5966 8.08384
50.6461 8.03873
50.6955 7.98588
50.7448 7.94774
50.7943 7.95593
50.8436 7.90406
50.8931 7.84967
50.9424 7.81993
50.9919 7.81596
51.0413 7.77082
51.0908 7.72973
51.1402 7.72768
51.1897 7.66437
51.2391 7.65695
51.2887 7.59799
51.3381 7.57266
51.3877 7.5723
51.4371 7.49961
51.4867 7.48425
51.5362 7.44754
51.5858 7.45133
51.6353 7.38624
51.6849 7.38086
51.7344 7.35453
51.7841 7.3417
51.8336 7.27705
51.8833 7.23319
51.9328 7.21175
51.9826 7.16527
52.0323 7.16594
52.0818 7.11789
52.1316 7.08603
52.1812 7.07706
52.231 7.0707
52.2806 7.02529
52.3304 7.00051
52.38 6.9114
52.4298 6.93099
52.4794 6.8764
52.5293 6.88111
52.5789 6.81913
52.6288 6.84738
52.6785 6.78225
52.7284 6.77736
52.7781 6.73214
52.828 6.72874
52.8777 6.67722
52.9276 6.65465
52.9774 6.64639
53.0273 6.57934
53.0771 6.57905
53.1271 6.58873
53.1769 6.52763
53.2269 6.50603
53.2767 6.44642
53.3267 6.45722
53.3765 6.4052
53.4266 6.36244
53.4766 6.37254
53.5265 6.32751
53.5765 6.29018
53.6264 6.30454
53.6765 6.26637
53.7264 6.26202
53.7765 6.19299
53.8265 6.15709
53.8766 6.08423
53.9266 6.06757
53.9767 6.05289
54.0267 6.07637
54.0769 5.98537
54.1269 6.02506
54.1771 5.9708
54.2271 5.96251
54.2773 5.88753
54.3274 5.91259
54.3776 5.842
54.4277 5.86596
54.478 5.76203
54.528 5.77036
54.5783 5.67092
54.6285 5.67842
54.6788 5.62416
54.7289 5.58053
54.7792 5.60148
54.8296 5.45766
54.8798 5.42663
54.9301 5.37743
54.9803 5.39267
55.0307 5.36255
55.0809 5.2927
55.1314 5.28778
55.1816 5.2478
55.232 5.15141
55.2823 5.12909
55.3328 5.12373
55.383 5.02629
55.4335 5.00387
55.4838 4.93582
55.5344 4.9344
55.5847 4.85237
55.6352 4.91452
55.6856 4.75351
55.7361 4.79344