File: XRD/Ni3Fe_FD1057.xy
TT I
1.27165 7.16245
1.31627 6.17367
1.36089 6.54204
1.40551 5.79209
1.45013 5.74314
1.49476 5.25959
1.53938 5.5989
1.584 4.83855
1.62863 4.40948
1.67325 4.53728
1.71787 4.88711
1.7625 4.47434
1.80712 4.18733
1.85174 4.49621
1.89636 3.76418
1.94099 4.4282
1.98562 4.01791
2.03025 4.47599
2.07487 4.51285
2.11949 4.23944
2.16411 4.44641
2.20874 5.04157
2.25338 6.30602
2.298 4.82626
2.34263 5.63588
2.38725 5.73631
2.43188 6.16482
2.4765 6.62379
2.52115 7.37014
2.56577 7.56282
2.6104 8.70484
2.65503 8.09698
2.69965 8.78977
2.7443 8.07023
2.78893 8.25402
2.83356 8.35013
2.87818 8.78344
2.92281 9.06838
2.96744 9.65031
3.01209 10.8692
3.05672 10.3859
3.10135 12.3932
3.14599 12.8514
3.19062 14.4244
3.23527 14.9738
3.2799 15.4575
3.32454 16.0063
3.36917 16.8124
3.4138 18.2228
3.45844 18.9588
3.50309 20.0349
3.54773 20.4858
3.59237 21.0338
3.637 27.5708
3.68164 26.6806
3.7263 23.9434
3.77094 24.6035
3.81558 25.6549
3.86022 26.2024
3.90486 27.501
3.9495 28.374
3.99416 29.1143
4.0388 30.3178
4.08344 31.0856
4.12809 32.5042
4.17273 34.0145
4.21738 35.1471
4.26204 52.4278
4.30669 55.9922
4.35133 40.4174
4.39598 40.9249
4.44063 43.0216
4.4853 46.2677
4.52995 46.703
4.5746 48.7835
4.61925 50.111
4.6639 52.5643
4.70855 55.2993
4.75322 58.1484
4.79788 60.3888
4.84253 64.2197
4.88719 67.8597
4.93184 71.5072
4.97652 76.7054
5.02118 83.3453
5.06583 89.4183
5.11049 97.9754
5.15515 118.835
5.19981 233.169
5.24449 2509.41
5.28916 13518.6
5.33382 3305.51
5.37848 210.796
5.42315 123.354
5.46783 108.245
5.5125 101.12
5.55716 97.4916
5.60183 93.088
5.6465 91.0196
5.69117 89.7796
5.73586 87.9931
5.78053 87.307
5.8252 85.9128
5.86988 86.934
5.91455 89.0199
5.95924 95.2237
6.00392 164.031
6.0486 895.488
6.09328 4520.7
6.13795 3591.42
6.18263 236.246
6.22733 87.8768
6.27201 76.0775
6.3167 73.2868
6.36138 68.9683
6.40606 65.107
6.45075 63.9404
6.49545 61.7949
6.54014 60.0484
6.58483 59.1752
6.62952 57.8616
6.67421 58.8788
6.71892 64.3777
6.76361 56.5842
6.8083 54.5369
6.853 53.6392
6.89769 53.2091
6.94239 53.0809
6.98711 52.5142
7.03181 52.349
7.07651 52.2854
7.12121 51.597
7.16591 51.7772
7.21063 51.3297
7.25533 51.8619
7.30004 61.7322
7.34475 56.3616
7.38945 51.8672
7.43416 51.0294
7.47889 51.7524
7.5236 58.8696
7.56831 74.2792
7.61303 56.6289
7.65774 52.9025
7.70247 52.9268
7.74719 53.3968
7.79191 53.8486
7.83663 53.9795
7.88135 54.7666
7.92607 55.6361
7.97081 56.8694
8.01553 58.1803
8.06026 58.6108
8.10498 60.1958
8.14971 62.1841
8.19446 63.9574
8.23919 65.5322
8.28392 68.3187
8.32865 70.6696
8.37339 73.6991
8.41812 78.0915
8.46288 86.5249
8.50761 128.718
8.55235 375.296
8.59709 1093.85
8.64183 2281.37
8.68658 1101.15
8.73134 172.696
8.77609 95.1404
8.82083 88.5429
8.86558 85.353
8.91033 84.0236
8.9551 82.7264
8.99985 81.0176
9.04461 80.2749
9.08936 79.6351
9.13412 79.0293
9.17888 79.5559
9.22365 91.0788
9.26841 113.267
9.31318 88.8742
9.35794 80.0594
9.4027 79.9453
9.44749 80.6313
9.49226 81.3771
9.53703 81.8934
9.5818 83.5003
9.62657 84.3564
9.67134 86.2465
9.71614 87.4354
9.76091 89.2156
9.80569 92.0214
9.85047 94.2339
9.89525 98.948
9.94005 106.622
9.98484 147.508
10.0296 351.598
10.0744 777.329
10.1192 1766.36
10.164 1681.25
10.2088 437.302
10.2536 125.153
10.2984 103.102
10.3432 100.817
10.388 98.1025
10.4328 107.811
10.4776 161.641
10.5224 272.687
10.5672 509.843
10.612 568.561
10.6568 228.304
10.7017 103.984
10.7465 86.2419
10.7913 80.126
10.8361 77.7929
10.8809 75.2561
10.9257 73.8234
10.9706 72.4966
11.0154 71.02
11.0602 69.2083
11.105 68.3931
11.1499 67.1817
11.1947 67.17
11.2395 65.8124
11.2844 65.2892
11.3292 63.7802
11.374 63.1212
11.4189 62.531
11.4637 62.0422
11.5086 61.4701
11.5534 61.077
11.5983 60.7669
11.6431 60.598
11.688 59.9979
11.7328 59.997
11.7777 59.7206
11.8225 59.8139
11.8674 59.8534
11.9122 62.0872
11.9571 68.1251
12.002 66.3319
12.0468 64.4115
12.0917 77.0461
12.1366 99.0772
12.1814 145.829
12.2263 202.209
12.2712 173.835
12.3161 98.0065
12.3609 64.5957
12.4058 61.5352
12.4507 61.3448
12.4956 61.4709
12.5405 61.4442
12.5853 61.8822
12.6302 62.7633
12.6751 64.2025
12.72 63.953
12.7649 64.7111
12.8098 65.281
12.8547 66.4456
12.8996 67.9773
12.9445 69.1377
12.9894 70.958
13.0343 72.815
13.0792 76.6011
13.1242 82.2754
13.1691 108.114
13.214 148.709
13.2589 229.428
13.3038 367.796
13.3487 447.354
13.3937 278.193
13.4386 127.092
13.4835 99.1237
13.5285 120.348
13.5734 156.995
13.6183 237.869
13.6633 356.375
13.7082 359.156
13.7531 205.215
13.7981 99.899
13.843 79.6492
13.888 77.0865
13.9329 75.0882
13.9779 73.6362
14.0228 72.2
14.0678 71.0278
14.1127 71.805
14.1577 75.341
14.2027 73.5139
14.2476 69.0241
14.2926 67.3144
14.3376 67.2763
14.3825 66.9268
14.4275 66.3841
14.4725 66.1444
14.5175 66.4234
14.5624 66.4305
14.6074 66.8069
14.6524 67.33
14.6974 67.3022
14.7424 68.5769
14.7874 74.4515
14.8324 88.9634
14.8774 110.257
14.9224 149.016
14.9674 208.722
15.0124 227.632
15.0574 160.104
15.1024 93.9189
15.1474 71.2478
15.1924 67.9012
15.2374 66.5714
15.2824 65.9213
15.3274 64.9984
15.3725 64.3438
15.4175 64.1451
15.4625 63.7391
15.5076 63.3591
15.5526 63.4084
15.5976 63.3456
15.6426 63.9704
15.6877 68.6566
15.7327 79.594
15.7778 94.7694
15.8228 122.441
15.8679 169.356
15.9129 202.555
15.958 168.687
16.003 103.48
16.0481 69.3184
16.0931 63.1855
16.1382 59.957
16.1833 58.4197
16.2283 56.9793
16.2734 56.2208
16.3185 55.6496
16.3636 55.2249
16.4086 54.4507
16.4537 54.1128
16.4988 53.3725
16.5439 53.4448
16.589 53.1271
16.6341 52.8488
16.6792 52.5904
16.7243 52.7769
16.7694 52.6981
16.8145 52.8105
16.8596 52.9163
16.9047 53.709
16.9498 54.2787
16.9949 53.9409
17.04 53.9422
17.0851 54.979
17.1302 56.9061
17.1754 60.1077
17.2205 64.896
17.2656 72.5798
17.3108 81.5196
17.3559 82.5105
17.401 71.9194
17.4462 61.5054
17.4913 57.6986
17.5365 57.409
17.5815 57.409
17.6268 57.665
17.6718 58.0839
17.7171 58.613
17.7622 59.8618
17.8074 60.8088
17.8525 61.8952
17.8977 66.5725
17.9428 73.4757
17.9881 82.2036
18.0331 97.9938
18.0784 121.352
18.1237 142.474
18.1688 137.61
18.214 108.82
18.2591 88.167
18.3044 88.9527
18.3495 99.1682
18.3948 107.467
18.4399 98.8355
18.4852 78.8603
18.5303 65.7839
18.5756 61.376
18.6207 60.2539
18.666 58.9954
18.7112 57.9681
18.7565 57.5244
18.8016 57.2178
18.8469 56.4759
18.892 56.1955
18.9374 55.6734
18.9825 55.3268
19.0278 54.9287
19.073 55.0964
19.1183 55.3117
19.1635 56.3708
19.2088 58.2925
19.254 60.8581
19.2993 65.7054
19.3447 72.2063
19.3898 76.0953
19.4352 72.3885
19.4804 63.3259
19.5257 56.2671
19.5709 52.9648
19.6163 52.5006
19.6615 52.2763
19.7068 51.7039
19.752 51.8485
19.7974 51.9091
19.8426 52.8973
19.888 53.6126
19.9332 55.129
19.9786 57.4886
20.0238 60.9606
20.0692 66.462
20.1144 70.3772
20.1598 69.0469
20.205 64.2364
20.2504 61.6191
20.2957 63.7225
20.3411 65.5372
20.3863 64.211
20.4318 58.2033
20.477 52.8411
20.5224 49.9842
20.5677 49.3113
20.6131 48.8486
20.6586 48.4652
20.7038 48.2605
20.7493 47.8974
20.7945 48.251
20.84 47.882
20.8853 47.6667
20.9307 47.3684
20.976 47.4568
21.0215 47.3439
21.0668 47.9404
21.1122 48.2189
21.1575 48.73
21.203 49.6244
21.2483 50.3512
21.2938 50.5636
21.3391 49.05
21.3846 47.9353
21.4299 47.4757
21.4754 47.3831
21.5207 47.5109
21.5662 47.7053
21.6116 47.8171
21.6571 48.8917
21.7024 49.9585
21.7479 51.9557
21.7933 54.0642
21.8388 58.0776
21.8843 62.7599
21.9297 65.3618
21.9752 63.8462
22.0206 59.8001
22.0661 56.4926
22.1115 55.7925
22.157 55.7714
22.2024 54.3418
22.248 51.123
22.2933 49.1264
22.3389 47.9895
22.3843 47.8112
22.4299 47.3994
22.4753 47.5007
22.5208 47.4311
22.5662 47.5366
22.6118 47.6114
22.6572 47.7312
22.7028 48.3508
22.7483 49.0508
22.7939 49.8619
22.8393 51.2491
22.8849 53.3941
22.9303 55.7268
22.9759 57.6426
23.0214 57.4425
23.067 54.6139
23.1126 51.0248
23.1581 48.5743
23.2037 47.9858
23.2492 47.7813
23.2948 47.9046
23.3403 48.5134
23.3859 49.2807
23.4314 50.4356
23.477 52.0527
23.5225 54.5312
23.5682 57.1542
23.6137 58.657
23.6593 56.309
23.7048 51.9468
23.7505 48.2531
23.796 46.1175
23.8417 45.0818
23.8872 44.722
23.9329 44.2636
23.9784 44.0267
24.0241 43.8569
24.0697 43.5234
24.1154 43.1891
24.1609 42.9336
24.2066 42.7503
24.2522 42.785
24.2979 42.4459
24.3434 42.4218
24.3892 42.1195
24.4349 42.0684
24.4805 42.0651
24.5262 42.2567
24.5718 42.2115
24.6175 41.9489
24.6631 42.0203
24.7089 41.624
24.7545 41.3919
24.8002 41.3082
24.8458 41.1975
24.8916 41.2976
24.9372 41.4818
24.983 41.7353
25.0286 42.0056
25.0744 42.6277
25.12 43.2673
25.1658 43.8311
25.2114 44.1226
25.2572 44.3621
25.3029 44.5517
25.3487 44.6314
25.3943 44.3845
25.4402 43.1917
25.4858 42.0157
25.5316 40.8956
25.5773 40.1209
25.6231 40.1802
25.669 39.7626
25.7147 39.7258
25.7605 39.5724
25.8062 39.8163
25.8521 39.8909
25.8977 39.6889
25.9436 40.2542
25.9893 40.2667
26.0352 40.6946
26.0809 41.0636
26.1268 41.2449
26.1725 41.0559
26.2184 40.3727
26.2641 39.6795
26.31 39.3483
26.3557 39.4195
26.4017 39.4675
26.4474 39.8509
26.4933 40.1551
26.5391 40.5223
26.585 41.2729
26.6308 41.7946
26.6767 41.9549
26.7225 41.7864
26.7684 41.1498
26.8142 40.5433
26.8601 40.1596
26.9059 39.6984
26.9519 39.0569
26.9979 38.6738
27.0437 38.3971
27.0896 38.1287
27.1354 38.1831
27.1814 37.971
27.2272 37.9374
27.2732 37.9375
27.3191 37.7042
27.3651 37.7543
27.4109 37.8019
27.4569 37.9246
27.5027 37.9188
27.5488 38.0599
27.5946 37.9658
27.6407 37.6631
27.6865 37.523
27.7326 37.4016
27.7784 37.417
27.8245 37.2337
27.8703 37.3635
27.9164 37.6677
27.9623 37.9579
28.0084 38.5141
28.0543 38.8826
28.1003 38.848
28.1462 38.8348
28.1923 38.2894
28.2384 37.689
28.2843 37.4276
28.3304 36.8351
28.3764 36.303
28.4225 35.7739
28.4684 35.5763
28.5145 35.3186
28.5605 35.2735
28.6066 35.1239
28.6526 35.0961
28.6987 35.1402
28.7447 34.9516
28.7908 34.8893
28.8368 34.8749
28.8829 34.9529
28.9289 34.8209
28.9751 34.6605
29.0211 34.4982
29.0673 34.1675
29.1133 33.9315
29.1595 33.8878
29.2055 33.8015
29.2517 33.8323
29.2977 33.6943
29.3439 33.722
29.3899 33.7831
29.4361 33.636
29.4824 33.4167
29.5284 33.256
29.5746 32.873
29.6207 32.6317
29.6669 32.4221
29.713 32.3709
29.7593 32.2043
29.8053 32.3245
29.8516 32.2329
29.8977 32.2412
29.9439 31.9267
29.99 31.9961
30.0363 31.9505
30.0824 32.1536
30.1287 31.9965
30.1748 32.0639
30.2211 31.9626
30.2673 31.7468
30.3136 31.7341
30.3597 31.7414
30.406 31.719
30.4522 31.5728
30.4985 31.635
30.5447 31.7308
30.591 31.7186
30.6372 31.8385
30.6835 31.8242
30.7297 31.7981
30.7761 31.8279
30.8224 31.614
30.8686 31.5525
30.915 31.3246
30.9612 31.0294
31.0076 30.9342
31.0538 30.7361
31.1002 30.5952
31.1464 30.4712
31.1928 30.5234
31.2391 30.525
31.2855 30.4218
31.3317 30.4995
31.3781 30.6047
31.4244 30.4874
31.4708 30.3063
31.5171 30.4675
31.5636 30.4827
31.6098 30.2117
31.6563 29.9403
31.7026 29.8126
31.7491 29.7828
31.7953 29.843
31.8418 29.6414
31.8881 29.8224
31.9346 29.8413
31.9809 29.7282
32.0275 29.6102
32.074 29.5006
32.1203 29.2737
32.1668 29.2289
32.2132 29.0451
32.2597 28.9887
32.306 28.7376
32.3526 28.5941
32.399 28.4401
32.4455 28.4417
32.4919 28.312
32.5385 28.1939
32.5848 28.0558
32.6314 28.0275
32.6778 27.8833
32.7244 27.918
32.7708 27.7832
32.8174 27.6504
32.8638 27.6188
32.9104 27.5736
32.9569 27.5977
33.0035 27.4674
33.0499 27.502
33.0966 27.3637
33.143 27.4242
33.1897 27.2989
33.2361 27.2539
33.2828 27.1773
33.3293 27.1035
33.3759 27.046
33.4226 26.9633
33.4691 26.7708
33.5158 26.6644
33.5623 26.5452
33.609 26.3828
33.6555 26.2407
33.7022 26.1471
33.7487 26.0472
33.7954 26.0545
33.842 26.1006
33.8887 25.8454
33.9353 25.8827
33.982 25.7121
34.0286 25.7163
34.0753 25.6134
34.1219 25.5319
34.1687 25.4462
34.2152 25.4302
34.262 25.2791
34.3086 25.1485
34.3554 25.0882
34.402 25.0263
34.4488 24.8713
34.4954 24.7385
34.5422 24.7917
34.5889 24.681
34.6357 24.6417
34.6825 24.4941
34.7292 24.3919
34.776 24.3285
34.8227 24.2753
34.8695 24.1856
34.9162 24.2168
34.9631 24.0997
35.0098 24.174
35.0566 24.0003
35.1033 23.9247
35.1502 23.8697
35.1969 23.7977
35.2438 23.8458
35.2906 23.7778
35.3375 23.7192
35.3842 23.6913
35.4311 23.689
35.4779 23.7059
35.5248 23.5729
35.5716 23.4812
35.6185 23.4037
35.6653 23.3688
35.7123 23.1643
35.759 23.1825
35.806 23.1028
35.8528 22.9191
35.8998 22.8717
35.9468 22.837
35.9936 22.7507
36.0406 22.7043
36.0874 22.7111
36.1345 22.6082
36.1813 22.483
36.2283 22.5051
36.2752 22.3016
36.3222 22.3627
36.3691 22.235
36.4161 22.1959
36.463 22.1122
36.5101 22.1441
36.557 22.0569
36.6041 21.913
36.651 21.9074
36.6981 21.786
36.745 21.788
36.7921 21.6896
36.839 21.5985
36.8861 21.5145
36.9331 21.3835
36.9802 21.3477
37.0272 21.321
37.0743 21.204
37.1213 21.1492
37.1684 21.0844
37.2154 21.03
37.2626 20.9705
37.3098 20.9111
37.3568 20.8183
37.404 20.8071
37.451 20.7448
37.4982 20.605
37.5452 20.5313
37.5924 20.5473
37.6395 20.5415
37.6867 20.4276
37.7337 20.3404
37.781 20.2414
37.8281 20.2301
37.8753 20.114
37.9224 20.0172
37.9697 19.9623
38.0168 19.8932
38.064 19.8171
38.1111 19.7807
38.1584 19.734
38.2056 19.704
38.2529 19.6509
38.3 19.5352
38.3473 19.5107
38.3945 19.3052
38.4418 19.4235
38.489 19.3129
38.5363 19.2278
38.5837 19.1841
38.6309 19.0882
38.6782 19.0203
38.7254 18.9682
38.7728 18.9415
38.82 18.894
38.8674 18.8216
38.9146 18.74
38.9621 18.7033
39.0093 18.6032
39.0567 18.554
39.104 18.4833
39.1514 18.405
39.1987 18.4238
39.2461 18.3431
39.2934 18.2415
39.3409 18.1881
39.3882 18.1544
39.4356 18.0872
39.483 18.021
39.5304 17.9483
39.5778 17.9737
39.6253 17.9039
39.6726 17.8832
39.7201 17.8147
39.7675 17.6702
39.815 17.6722
39.8624 17.5526
39.9099 17.5866
39.9575 17.4772
40.0049 17.43
40.0525 17.4
40.0999 17.3138
40.1474 17.1954
40.1949 17.2336
40.2425 17.151
40.2899 17.1175
40.3375 17.0637
40.385 16.9399
40.4326 16.9665
40.48 16.9017
40.5277 16.8906
40.5752 16.7592
40.6228 16.649
40.6703 16.6533
40.718 16.6868
40.7655 16.5875
40.8132 16.4895
40.8607 16.4788
40.9084 16.424
40.9559 16.4086
41.0036 16.3577
41.0512 16.2467
41.0989 16.253
41.1465 16.0883
41.1942 16.078
41.242 16.022
41.2896 15.9878
41.3373 15.9109
41.3849 15.9099
41.4327 15.7849
41.4803 15.749
41.5281 15.7403
41.5758 15.7135
41.6236 15.5786
41.6712 15.5439
41.7191 15.5028
41.7667 15.4274
41.8146 15.4473
41.8622 15.3383
41.9101 15.3218
41.9578 15.2116
42.0057 15.2471
42.0534 15.1351
42.1013 15.1465
42.149 15.0468
42.1969 15.0236
42.2446 14.9998
42.2925 14.8513
42.3403 14.8801
42.3882 14.8103
42.436 14.7876
42.4839 14.6986
42.5319 14.6761
42.5797 14.5815
42.6277 14.5127
42.6755 14.5511
42.7235 14.4394
42.7713 14.3506
42.8193 14.3407
42.8671 14.2869
42.9152 14.2484
42.963 14.1889
43.0111 14.1692
43.0589 14.1355
43.107 14.0736
43.1549 14.0017
43.2029 13.9805
43.2508 13.9091
43.2989 13.8549
43.3468 13.8367
43.3949 13.7819
43.4429 13.7204
43.491 13.7268
43.5389 13.6116
43.5871 13.5873
43.635 13.5229
43.6832 13.51
43.7312 13.4642
43.7793 13.3613
43.8273 13.3246
43.8755 13.3039
43.9237 13.2468
43.9717 13.2678
44.0199 13.1224
44.068 13.123
44.1162 13.0639
44.1642 13.0624
44.2125 13.0064
44.2606 12.9465
44.3088 12.8801
44.3569 12.8341
44.4052 12.835
44.4533 12.7715
44.5016 12.7313
44.5497 12.6406
44.598 12.6234
44.6461 12.5789
44.6945 12.5477
44.7426 12.5064
44.791 12.4356
44.8391 12.4196
44.8875 12.3996
44.9357 12.3202
44.984 12.3209
45.0322 12.2413
45.0806 12.1677
45.1288 12.1293
45.1773 12.1257
45.2257 12.0963
45.2739 12.0185
45.3224 12.0038
45.3706 11.9468
45.4191 11.8864
45.4673 11.8387
45.5158 11.8238
45.5641 11.7645
45.6126 11.7699
45.6609 11.6656
45.7094 11.6138
45.7577 11.6276
45.8063 11.5327
45.8546 11.5178
45.9031 11.4627
45.9515 11.4116
46.0001 11.3681
46.0484 11.396
46.097 11.3463
46.1454 11.3254
46.194 11.2539
46.2424 11.1654
46.291 11.1637
46.3395 11.1182
46.3881 11.0585
46.4365 11.042
46.4852 10.9885
46.5337 10.9545
46.5823 10.9227
46.631 10.8591
46.6795 10.85
46.7282 10.8037
46.7767 10.7483
46.8254 10.7026
46.8739 10.6483
46.9226 10.6141
46.9712 10.6067
47.0199 10.5315
47.0685 10.5123
47.1173 10.4508
47.1658 10.4278
47.2146 10.4011
47.2632 10.3416
47.312 10.3605
47.3606 10.2905
47.4095 10.2523
47.4581 10.2045
47.5069 10.1633
47.5556 10.1127
47.6044 10.1025
47.6531 10.0443
47.702 10.0236
47.7507 9.99346
47.7996 9.94191
47.8483 9.92031
47.8972 9.85116
47.9461 9.82898
47.9948 9.78955
48.0438 9.80087
48.0925 9.74438
48.1415 9.70403
48.1902 9.65691
48.2392 9.63056
48.288 9.60799
48.337 9.59515
48.3858 9.48721
48.4348 9.51516
48.4837 9.46403
48.5327 9.44638
48.5815 9.39875
48.6306 9.34493
48.6795 9.30544
48.7285 9.29432
48.7774 9.23964
48.8265 9.28011
48.8754 9.16486
48.9245 9.17204
48.9734 9.09636
49.0226 9.09211
49.0715 9.03287
49.1206 9.02488
49.1696 8.96019
49.2188 8.93692
49.2679 8.88802
49.3169 8.86238
49.3661 8.81886
49.4151 8.81731
49.4643 8.81624
49.5134 8.7253
49.5626 8.64749
49.6117 8.65768
49.6609 8.62538
49.71 8.58263
49.7592 8.5615
49.8083 8.51734
49.8576 8.49899
49.9067 8.44251
49.956 8.42142
50.0052 8.40839
50.0545 8.40749
50.1036 8.35208
50.153 8.33142
50.2022 8.26074
50.2515 8.26054
50.3007 8.17065
50.3501 8.19235
50.3993 8.16242
50.4487 8.13055
50.498 8.08036
50.5474 8.09438
50.5966 8.0119
50.6461 7.98275
50.6955 7.95776
50.7448 7.91047
50.7943 7.91542
50.8436 7.8916
50.8931 7.8181
50.9424 7.81169
50.9919 7.79224
51.0413 7.76178
51.0908 7.7326
51.1402 7.70399
51.1897 7.64723
51.2391 7.61623
51.2887 7.59358
51.3381 7.58036
51.3877 7.54547
51.4371 7.50361
51.4867 7.49031
51.5362 7.42839
51.5858 7.4109
51.6353 7.37902
51.6849 7.3469
51.7344 7.2857
51.7841 7.30939
51.8336 7.28517
51.8833 7.21822
51.9328 7.19064
51.9826 7.16424
52.0323 7.12868
52.0818 7.13741
52.1316 7.04443
52.1812 7.05429
52.231 6.96323
52.2806 7.0017
52.3304 6.9565
52.38 6.92858
52.4298 6.86773
52.4794 6.87394
52.5293 6.83653
52.5789 6.79443
52.6288 6.78207
52.6785 6.76786
52.7284 6.75238
52.7781 6.71984
52.828 6.67973
52.8777 6.6505
52.9276 6.60097
52.9774 6.5984
53.0273 6.56667
53.0771 6.52451
53.1271 6.53394
53.1769 6.4809
53.2269 6.44104
53.2767 6.43563
53.3267 6.40287
53.3765 6.38559
53.4266 6.39394
53.4766 6.31339
53.5265 6.31956
53.5765 6.28308
53.6264 6.27037
53.6765 6.2329
53.7264 6.16572
53.7765 6.17997
53.8265 6.14358
53.8766 6.08381
53.9266 6.1062
53.9767 6.02448
54.0267 6.04374
54.0769 6.02268
54.1269 5.99822
54.1771 5.94528
54.2271 5.91418
54.2773 5.86995
54.3274 5.85472
54.3776 5.85485
54.4277 5.77105
54.478 5.73702
54.528 5.76684
54.5783 5.68344
54.6285 5.614
54.6788 5.60691
54.7289 5.56343
54.7792 5.53998
54.8296 5.49515
54.8798 5.4529
54.9301 5.41258
54.9803 5.39385
55.0307 5.37693
55.0809 5.34305
55.1314 5.27342
55.1816 5.19214
55.232 5.15533
55.2823 5.13065
55.3328 5.12143
55.383 5.03489
55.4335 5.00243
55.4838 4.94632
55.5344 4.92081
55.5847 4.86348
55.6352 4.80385
55.6856 4.83208
55.7361 4.77265