File: XRD/Ni3Fe_FD1024.xy
TT I
1.27165 6.61204
1.31627 6.26187
1.36089 6.39513
1.40551 6.35577
1.45013 5.4066
1.49476 5.18599
1.53938 5.6444
1.584 4.50496
1.62863 5.00303
1.67325 4.71573
1.71787 4.37459
1.7625 4.50088
1.80712 4.54434
1.85174 4.4771
1.89636 4.11324
1.94099 4.49269
1.98562 4.54102
2.03025 3.55884
2.07487 4.23721
2.11949 4.82087
2.16411 4.57704
2.20874 4.91452
2.25338 6.14589
2.298 4.78465
2.34263 5.74933
2.38725 6.47775
2.43188 6.25507
2.4765 6.68594
2.52115 6.94228
2.56577 7.74312
2.6104 8.60356
2.65503 8.69992
2.69965 8.32015
2.7443 9.63074
2.78893 8.67424
2.83356 8.50789
2.87818 8.56707
2.92281 8.85923
2.96744 9.11625
3.01209 10.7661
3.05672 10.8783
3.10135 11.8847
3.14599 12.4291
3.19062 14.781
3.23527 14.8376
3.2799 15.3764
3.32454 16.3421
3.36917 16.8713
3.4138 18.2333
3.45844 19.005
3.50309 20.0091
3.54773 20.1916
3.59237 21.4663
3.637 28.253
3.68164 27.2835
3.7263 24.1023
3.77094 24.9167
3.81558 25.2762
3.86022 26.1091
3.90486 27.8244
3.9495 28.2726
3.99416 29.1766
4.0388 30.4726
4.08344 31.302
4.12809 32.3416
4.17273 33.4115
4.21738 35.3831
4.26204 52.8813
4.30669 57.7739
4.35133 40.8729
4.39598 40.7078
4.44063 43.233
4.4853 46.2085
4.52995 46.6837
4.5746 48.1217
4.61925 50.8044
4.6639 52.6694
4.70855 55.1136
4.75322 58.0288
4.79788 60.36
4.84253 64.0522
4.88719 67.5756
4.93184 71.0936
4.97652 76.1131
5.02118 82.7337
5.06583 89.1204
5.11049 97.5356
5.15515 117.546
5.19981 227.73
5.24449 2385.26
5.28916 13283.2
5.33382 3392.24
5.37848 229.882
5.42315 125.157
5.46783 108.269
5.5125 100.609
5.55716 96.7577
5.60183 92.4801
5.6465 90.6716
5.69117 88.9066
5.73586 87.347
5.78053 86.591
5.8252 85.9857
5.86988 86.4674
5.91455 87.8757
5.95924 93.9562
6.00392 159.562
6.0486 838.862
6.09328 4386.66
6.13795 3498.81
6.18263 246.273
6.22733 87.0917
6.27201 75.5896
6.3167 72.8932
6.36138 68.2474
6.40606 64.3966
6.45075 63.2105
6.49545 61.0407
6.54014 59.7456
6.58483 58.5253
6.62952 57.7033
6.67421 58.326
6.71892 64.1589
6.76361 56.4948
6.8083 54.2166
6.853 53.6511
6.89769 53.2498
6.94239 53.0046
6.98711 52.4431
7.03181 51.7326
7.07651 52.0727
7.12121 51.3814
7.16591 51.4565
7.21063 50.7908
7.25533 51.5541
7.30004 61.6597
7.34475 55.8716
7.38945 51.4655
7.43416 51.2464
7.47889 51.7829
7.5236 61.2542
7.56831 80.6109
7.61303 58.0646
7.65774 52.8904
7.70247 52.7581
7.74719 52.8868
7.79191 53.6098
7.83663 53.6612
7.88135 54.5877
7.92607 55.0722
7.97081 56.3386
8.01553 57.4221
8.06026 58.7159
8.10498 59.7814
8.14971 61.7506
8.19446 63.9336
8.23919 65.5792
8.28392 67.7941
8.32865 70.134
8.37339 73.4605
8.41812 76.9787
8.46288 85.8982
8.50761 126.148
8.55235 352.519
8.59709 1065.42
8.64183 2285.06
8.68658 1096.9
8.73134 179.343
8.77609 94.6124
8.82083 88.2388
8.86558 85.3005
8.91033 83.2186
8.9551 81.8593
8.99985 80.386
9.04461 79.6637
9.08936 79.2366
9.13412 78.6087
9.17888 79.6876
9.22365 95.4378
9.26841 124.668
9.31318 92.6504
9.35794 80.0247
9.4027 79.5051
9.44749 80.3006
9.49226 80.5242
9.53703 81.22
9.5818 82.7
9.62657 84.1447
9.67134 85.8492
9.71614 87.1095
9.76091 88.6454
9.80569 90.6211
9.85047 93.1268
9.89525 98.1134
9.94005 105.443
9.98484 144.508
10.0296 329.09
10.0744 744.284
10.1192 1738.9
10.164 1680.01
10.2088 449.519
10.2536 126.398
10.2984 102.481
10.3432 100.077
10.388 96.8307
10.4328 106.375
10.4776 155.121
10.5224 260.549
10.5672 495.285
10.612 532.098
10.6568 222.811
10.7017 106.988
10.7465 87.217
10.7913 79.6116
10.8361 77.1449
10.8809 75.0322
10.9257 72.9595
10.9706 72.0017
11.0154 70.2533
11.0602 68.8103
11.105 67.7741
11.1499 66.6077
11.1947 66.6727
11.2395 65.2929
11.2844 64.3512
11.3292 63.2488
11.374 62.5273
11.4189 62.0673
11.4637 61.2724
11.5086 61.0253
11.5534 60.5664
11.5983 60.3548
11.6431 60.0367
11.688 59.783
11.7328 59.5781
11.7777 59.4266
11.8225 59.3384
11.8674 59.6477
11.9122 62.3375
11.9571 70.3914
12.002 68.3824
12.0468 64.2661
12.0917 75.1558
12.1366 96.2954
12.1814 144.234
12.2263 201.467
12.2712 171.682
12.3161 94.4234
12.3609 64.2447
12.4058 60.6125
12.4507 60.769
12.4956 60.8876
12.5405 60.9125
12.5853 61.3425
12.6302 61.9575
12.6751 63.6674
12.72 63.4254
12.7649 63.8978
12.8098 64.6372
12.8547 65.8057
12.8996 67.108
12.9445 68.715
12.9894 70.3131
13.0343 72.1084
13.0792 76.4266
13.1242 82.1169
13.1691 105.004
13.214 142.252
13.2589 221.382
13.3038 359.965
13.3487 441.431
13.3937 279.31
13.4386 125.928
13.4835 97.8951
13.5285 116.925
13.5734 151.263
13.6183 231.49
13.6633 354.438
13.7082 362.328
13.7531 204.436
13.7981 100.005
13.843 79.0331
13.888 76.3796
13.9329 74.2134
13.9779 72.6218
14.0228 71.6201
14.0678 70.3091
14.1127 71.9086
14.1577 77.0591
14.2027 74.5901
14.2476 68.838
14.2926 66.9507
14.3376 66.9966
14.3825 66.5335
14.4275 65.8375
14.4725 65.7809
14.5175 65.873
14.5624 65.7253
14.6074 66.1449
14.6524 66.5152
14.6974 66.8265
14.7424 67.8697
14.7874 73.4987
14.8324 86.5679
14.8774 106.626
14.9224 144.835
14.9674 206.426
15.0124 226.825
15.0574 158.269
15.1024 93.0783
15.1474 70.7028
15.1924 67.3813
15.2374 66.2592
15.2824 65.2541
15.3274 64.2328
15.3725 63.8939
15.4175 63.6348
15.4625 63.012
15.5076 62.9257
15.5526 62.7943
15.5976 62.7787
15.6426 63.2502
15.6877 67.7658
15.7327 77.6891
15.7778 91.5516
15.8228 119.225
15.8679 166.937
15.9129 200.667
15.958 167.126
16.003 102.786
16.0481 69.2574
16.0931 63.3331
16.1382 60.0647
16.1833 57.8947
16.2283 56.6148
16.2734 55.8262
16.3185 55.0991
16.3636 54.7698
16.4086 53.9837
16.4537 53.6231
16.4988 52.9297
16.5439 53.0521
16.589 52.7202
16.6341 52.5578
16.6792 52.0968
16.7243 52.5081
16.7694 52.1808
16.8145 52.106
16.8596 52.2754
16.9047 53.4888
16.9498 54.0418
16.9949 53.7199
17.04 53.4054
17.0851 54.4172
17.1302 56.2893
17.1754 59.3352
17.2205 63.7977
17.2656 71.5484
17.3108 81.3406
17.3559 81.7953
17.401 70.8038
17.4462 61.0492
17.4913 57.1992
17.5365 56.6815
17.5815 56.7519
17.6268 57.2801
17.6718 57.7571
17.7171 58.3317
17.7622 59.5958
17.8074 60.4037
17.8525 61.4017
17.8977 65.3561
17.9428 71.6837
17.9881 79.8431
18.0331 95.7311
18.0784 118.98
18.1237 141.088
18.1688 136.974
18.214 108.447
18.2591 87.1659
18.3044 87.8054
18.3495 98.3177
18.3948 105.914
18.4399 97.408
18.4852 78.355
18.5303 65.5163
18.5756 61.1624
18.6207 59.9088
18.666 58.4244
18.7112 57.5819
18.7565 56.8229
18.8016 56.5881
18.8469 55.9872
18.892 55.7216
18.9374 55.3385
18.9825 54.7744
19.0278 54.5572
19.073 54.4625
19.1183 54.8517
19.1635 55.8082
19.2088 57.385
19.254 59.7251
19.2993 65.2445
19.3447 71.9086
19.3898 75.6498
19.4352 71.8905
19.4804 63.0129
19.5257 55.7302
19.5709 52.4466
19.6163 51.9935
19.6615 51.7487
19.7068 51.4535
19.752 51.4213
19.7974 51.5836
19.8426 52.26
19.888 53.1475
19.9332 54.438
19.9786 56.7648
20.0238 60.322
20.0692 65.9909
20.1144 69.8275
20.1598 68.5553
20.205 63.3168
20.2504 61.046
20.2957 63.0065
20.3411 64.8456
20.3863 63.9955
20.4318 58.049
20.477 52.7413
20.5224 49.5521
20.5677 48.91
20.6131 48.4163
20.6586 48.0727
20.7038 47.8551
20.7493 47.7454
20.7945 47.7533
20.84 47.7004
20.8853 47.2821
20.9307 46.7548
20.976 47.0059
21.0215 46.8111
21.0668 47.3404
21.1122 47.7943
21.1575 48.182
21.203 49.0359
21.2483 49.9515
21.2938 50.1324
21.3391 48.8157
21.3846 47.4953
21.4299 46.9027
21.4754 46.8378
21.5207 47.0451
21.5662 47.1143
21.6116 47.3572
21.6571 48.4003
21.7024 49.5697
21.7479 51.1948
21.7933 53.4413
21.8388 57.5077
21.8843 62.0454
21.9297 64.9843
21.9752 63.7308
22.0206 59.3649
22.0661 55.9368
22.1115 55.6432
22.157 55.619
22.2024 53.9517
22.248 50.7489
22.2933 48.7497
22.3389 47.578
22.3843 47.291
22.4299 46.9211
22.4753 47.0944
22.5208 47.0906
22.5662 46.9811
22.6118 47.2306
22.6572 47.2767
22.7028 47.8133
22.7483 48.6913
22.7939 49.2866
22.8393 50.6442
22.8849 52.8948
22.9303 55.2577
22.9759 57.3623
23.0214 57.3506
23.067 54.4602
23.1126 50.8726
23.1581 48.1834
23.2037 47.3655
23.2492 47.3417
23.2948 47.552
23.3403 48.0389
23.3859 48.7714
23.4314 49.814
23.477 51.4818
23.5225 54.116
23.5682 56.8474
23.6137 58.0339
23.6593 55.9617
23.7048 51.8226
23.7505 47.936
23.796 45.4825
23.8417 44.8202
23.8872 44.1509
23.9329 43.8488
23.9784 43.5536
24.0241 43.4195
24.0697 43.3854
24.1154 42.7474
24.1609 42.5797
24.2066 42.384
24.2522 42.3031
24.2979 42.0512
24.3434 41.9378
24.3892 41.6887
24.4349 41.8078
24.4805 41.7329
24.5262 41.88
24.5718 41.803
24.6175 41.6916
24.6631 41.7292
24.7089 41.2372
24.7545 40.9957
24.8002 40.9699
24.8458 40.9412
24.8916 40.735
24.9372 41.1414
24.983 41.206
25.0286 41.6407
25.0744 42.2525
25.12 42.8416
25.1658 43.5459
25.2114 43.8058
25.2572 44.0144
25.3029 44.1149
25.3487 44.2176
25.3943 44.0303
25.4402 42.8678
25.4858 41.7983
25.5316 40.4544
25.5773 39.8849
25.6231 39.8955
25.669 39.4357
25.7147 39.4242
25.7605 39.3229
25.8062 39.3599
25.8521 39.6256
25.8977 39.5935
25.9436 39.6246
25.9893 39.9203
26.0352 40.4326
26.0809 40.7704
26.1268 40.995
26.1725 40.7466
26.2184 39.95
26.2641 39.4242
26.31 39.1462
26.3557 39.1485
26.4017 39.0472
26.4474 39.3556
26.4933 39.7192
26.5391 40.2613
26.585 40.7671
26.6308 41.3871
26.6767 41.5766
26.7225 41.5422
26.7684 40.715
26.8142 40.186
26.8601 39.762
26.9059 39.5141
26.9519 38.7108
26.9979 38.4358
27.0437 37.9857
27.0896 37.7756
27.1354 37.7652
27.1814 37.6807
27.2272 37.5234
27.2732 37.5711
27.3191 37.3695
27.3651 37.5397
27.4109 37.4831
27.4569 37.725
27.5027 37.7711
27.5488 37.8766
27.5946 37.6107
27.6407 37.3832
27.6865 37.1997
27.7326 37.0052
27.7784 37.1107
27.8245 36.9375
27.8703 37.1106
27.9164 37.4103
27.9623 37.7098
28.0084 38.0981
28.0543 38.5821
28.1003 38.5335
28.1462 38.4594
28.1923 38.1583
28.2384 37.4661
28.2843 37.1496
28.3304 36.6058
28.3764 35.9049
28.4225 35.4551
28.4684 35.4404
28.5145 35.0743
28.5605 35.0993
28.6066 34.8972
28.6526 34.7658
28.6987 34.7337
28.7447 34.6119
28.7908 34.5429
28.8368 34.6024
28.8829 34.5434
28.9289 34.5622
28.9751 34.3413
29.0211 34.1428
29.0673 33.7979
29.1133 33.6618
29.1595 33.5944
29.2055 33.5718
29.2517 33.4346
29.2977 33.4065
29.3439 33.3483
29.3899 33.5655
29.4361 33.3922
29.4824 33.257
29.5284 32.986
29.5746 32.7418
29.6207 32.2934
29.6669 32.234
29.713 32.1311
29.7593 31.8507
29.8053 31.9273
29.8516 32.0676
29.8977 31.9028
29.9439 31.8769
29.99 31.8123
30.0363 31.6589
30.0824 31.8297
30.1287 31.6619
30.1748 31.6836
30.2211 31.7085
30.2673 31.5379
30.3136 31.5284
30.3597 31.4718
30.406 31.3157
30.4522 31.3261
30.4985 31.2551
30.5447 31.4782
30.591 31.3797
30.6372 31.4681
30.6835 31.4309
30.7297 31.5366
30.7761 31.5394
30.8224 31.3826
30.8686 31.2537
30.915 30.8691
30.9612 30.9082
31.0076 30.6775
31.0538 30.5022
31.1002 30.4388
31.1464 30.1425
31.1928 30.1815
31.2391 30.2564
31.2855 30.1163
31.3317 30.2208
31.3781 30.2606
31.4244 30.1592
31.4708 30.2086
31.5171 30.1547
31.5636 30.2469
31.6098 29.8313
31.6563 29.7852
31.7026 29.564
31.7491 29.435
31.7953 29.5648
31.8418 29.4495
31.8881 29.5349
31.9346 29.4789
31.9809 29.3765
32.0275 29.3243
32.074 29.2216
32.1203 29.02
32.1668 28.8816
32.2132 28.6703
32.2597 28.6839
32.306 28.4925
32.3526 28.3458
32.399 28.2178
32.4455 28.125
32.4919 27.9988
32.5385 27.9447
32.5848 27.8573
32.6314 27.8562
32.6778 27.6968
32.7244 27.5689
32.7708 27.5272
32.8174 27.5838
32.8638 27.3425
32.9104 27.4763
32.9569 27.358
33.0035 27.2959
33.0499 27.2324
33.0966 27.1836
33.143 27.1087
33.1897 27.0916
33.2361 27.0623
33.2828 27.0005
33.3293 26.8188
33.3759 26.788
33.4226 26.6479
33.4691 26.5244
33.5158 26.3907
33.5623 26.3185
33.609 26.0914
33.6555 25.9788
33.7022 25.987
33.7487 25.9027
33.7954 25.9024
33.842 25.7842
33.8887 25.6896
33.9353 25.6683
33.982 25.5603
34.0286 25.448
34.0753 25.3127
34.1219 25.2585
34.1687 25.219
34.2152 25.1864
34.262 25.0492
34.3086 24.9772
34.3554 24.9366
34.402 24.7979
34.4488 24.6644
34.4954 24.6478
34.5422 24.5679
34.5889 24.5354
34.6357 24.373
34.6825 24.3755
34.7292 24.2127
34.776 24.1188
34.8227 24.0826
34.8695 24.0924
34.9162 23.961
34.9631 23.8821
35.0098 23.9196
35.0566 23.8401
35.1033 23.7924
35.1502 23.667
35.1969 23.6598
35.2438 23.593
35.2906 23.5115
35.3375 23.5008
35.3842 23.4316
35.4311 23.4744
35.4779 23.5183
35.5248 23.4582
35.5716 23.319
35.6185 23.2418
35.6653 23.1655
35.7123 23.0302
35.759 22.9614
35.806 22.851
35.8528 22.7452
35.8998 22.7058
35.9468 22.6269
35.9936 22.5897
36.0406 22.4447
36.0874 22.5445
36.1345 22.4191
36.1813 22.3668
36.2283 22.1761
36.2752 22.1105
36.3222 22.1405
36.3691 22.0642
36.4161 21.9497
36.463 21.9908
36.5101 21.8792
36.557 21.9124
36.6041 21.7141
36.651 21.7086
36.6981 21.6645
36.745 21.611
36.7921 21.5597
36.839 21.3867
36.8861 21.3351
36.9331 21.3054
36.9802 21.1738
37.0272 21.111
37.0743 21.0213
37.1213 21.0001
37.1684 20.9456
37.2154 20.9391
37.2626 20.7577
37.3098 20.7858
37.3568 20.6814
37.404 20.5626
37.451 20.5082
37.4982 20.4562
37.5452 20.3756
37.5924 20.2821
37.6395 20.4662
37.6867 20.2013
37.7337 20.1201
37.781 20.0686
37.8281 20.0563
37.8753 19.9633
37.9224 19.8657
37.9697 19.7457
38.0168 19.6972
38.064 19.6826
38.1111 19.647
38.1584 19.5584
38.2056 19.5255
38.2529 19.4446
38.3 19.374
38.3473 19.3196
38.3945 19.2037
38.4418 19.1915
38.489 19.1183
38.5363 19.0659
38.5837 19.0432
38.6309 18.888
38.6782 18.8636
38.7254 18.8732
38.7728 18.8278
38.82 18.6956
38.8674 18.6635
38.9146 18.5947
38.9621 18.5833
39.0093 18.4658
39.0567 18.4448
39.104 18.3896
39.1514 18.3062
39.1987 18.2179
39.2461 18.2092
39.2934 18.1551
39.3409 18.047
39.3882 17.9847
39.4356 17.9127
39.483 17.8975
39.5304 17.8002
39.5778 17.7956
39.6253 17.7026
39.6726 17.6471
39.7201 17.6673
39.7675 17.5924
39.815 17.5034
39.8624 17.4063
39.9099 17.4712
39.9575 17.3774
40.0049 17.3221
40.0525 17.2276
40.0999 17.1831
40.1474 17.1769
40.1949 16.9738
40.2425 17.0014
40.2899 16.8874
40.3375 16.9093
40.385 16.8347
40.4326 16.8576
40.48 16.7434
40.5277 16.7452
40.5752 16.5963
40.6228 16.5545
40.6703 16.5713
40.718 16.4399
40.7655 16.4321
40.8132 16.3482
40.8607 16.3215
40.9084 16.3159
40.9559 16.1977
41.0036 16.1804
41.0512 16.1062
41.0989 16.0897
41.1465 16.0276
41.1942 16.0076
41.242 15.9146
41.2896 15.8876
41.3373 15.8243
41.3849 15.8227
41.4327 15.6931
41.4803 15.6118
41.5281 15.606
41.5758 15.5282
41.6236 15.5102
41.6712 15.4403
41.7191 15.4188
41.7667 15.2745
41.8146 15.315
41.8622 15.2418
41.9101 15.1871
41.9578 15.0822
42.0057 15.0934
42.0534 14.9994
42.1013 14.9668
42.149 14.9429
42.1969 14.8739
42.2446 14.7949
42.2925 14.7817
42.3403 14.7521
42.3882 14.6491
42.436 14.6419
42.4839 14.6226
42.5319 14.4751
42.5797 14.5375
42.6277 14.4656
42.6755 14.3457
42.7235 14.3334
42.7713 14.305
42.8193 14.2648
42.8671 14.2305
42.9152 14.1162
42.963 14.0594
43.0111 14.0634
43.0589 13.97
43.107 13.9605
43.1549 13.9304
43.2029 13.8551
43.2508 13.8522
43.2989 13.7881
43.3468 13.6617
43.3949 13.6393
43.4429 13.6093
43.491 13.5986
43.5389 13.5277
43.5871 13.5058
43.635 13.4024
43.6832 13.3891
43.7312 13.2747
43.7793 13.2689
43.8273 13.2523
43.8755 13.1471
43.9237 13.1592
43.9717 13.1232
44.0199 13.0721
44.068 13.0623
44.1162 12.9873
44.1642 12.9752
44.2125 12.8897
44.2606 12.8058
44.3088 12.8035
44.3569 12.7352
44.4052 12.6547
44.4533 12.6213
44.5016 12.5917
44.5497 12.5922
44.598 12.5427
44.6461 12.4629
44.6945 12.3935
44.7426 12.3966
44.791 12.3198
44.8391 12.3232
44.8875 12.2352
44.9357 12.2354
44.984 12.1528
45.0322 12.1251
45.0806 12.0897
45.1288 12.0134
45.1773 11.9747
45.2257 11.9175
45.2739 11.9005
45.3224 11.8972
45.3706 11.8543
45.4191 11.7328
45.4673 11.7555
45.5158 11.7283
45.5641 11.6623
45.6126 11.6258
45.6609 11.5826
45.7094 11.5281
45.7577 11.5426
45.8063 11.4796
45.8546 11.422
45.9031 11.3525
45.9515 11.3538
46.0001 11.2971
46.0484 11.2728
46.097 11.2037
46.1454 11.1599
46.194 11.1527
46.2424 11.1059
46.291 11.0846
46.3395 10.9996
46.3881 10.9362
46.4365 10.9466
46.4852 10.8889
46.5337 10.8598
46.5823 10.8235
46.631 10.7916
46.6795 10.7123
46.7282 10.7221
46.7767 10.7024
46.8254 10.6496
46.8739 10.5833
46.9226 10.5365
46.9712 10.4956
47.0199 10.4627
47.0685 10.4357
47.1173 10.3668
47.1658 10.3292
47.2146 10.3271
47.2632 10.2771
47.312 10.2299
47.3606 10.1764
47.4095 10.1571
47.4581 10.1565
47.5069 10.0412
47.5556 10.0164
47.6044 10.0238
47.6531 9.98641
47.702 9.92355
47.7507 9.89901
47.7996 9.84491
47.8483 9.84239
47.8972 9.79628
47.9461 9.74605
47.9948 9.71272
48.0438 9.71409
48.0925 9.64683
48.1415 9.62049
48.1902 9.58816
48.2392 9.58726
48.288 9.50687
48.337 9.49034
48.3858 9.43629
48.4348 9.41157
48.4837 9.39643
48.5327 9.30379
48.5815 9.32048
48.6306 9.30399
48.6795 9.23608
48.7285 9.16469
48.7774 9.14615
48.8265 9.15583
48.8754 9.10288
48.9245 9.05883
48.9734 9.0407
49.0226 9.02787
49.0715 8.94824
49.1206 8.92501
49.1696 8.90262
49.2188 8.86987
49.2679 8.82869
49.3169 8.7625
49.3661 8.754
49.4151 8.71686
49.4643 8.68169
49.5134 8.6634
49.5626 8.59987
49.6117 8.58282
49.6609 8.54917
49.71 8.54453
49.7592 8.46443
49.8083 8.48228
49.8576 8.48264
49.9067 8.37127
49.956 8.35694
50.0052 8.35727
50.0545 8.32751
50.1036 8.29142
50.153 8.23756
50.2022 8.24461
50.2515 8.14436
50.3007 8.11738
50.3501 8.07247
50.3993 8.07613
50.4487 8.05408
50.498 8.01212
50.5474 8.03762
50.5966 7.94992
50.6461 7.91885
50.6955 7.931
50.7448 7.84792
50.7943 7.85274
50.8436 7.81819
50.8931 7.80573
50.9424 7.74592
50.9919 7.74231
51.0413 7.7203
51.0908 7.65654
51.1402 7.63334
51.1897 7.612
51.2391 7.57832
51.2887 7.55261
51.3381 7.49898
51.3877 7.49036
51.4371 7.45575
51.4867 7.40337
51.5362 7.40671
51.5858 7.33048
51.6353 7.287
51.6849 7.27491
51.7344 7.28337
51.7841 7.25443
51.8336 7.20304
51.8833 7.19506
51.9328 7.16119
51.9826 7.07843
52.0323 7.08252
52.0818 6.97837
52.1316 6.97913
52.1812 6.97729
52.231 6.95259
52.2806 6.95193
52.3304 6.90451
52.38 6.92283
52.4298 6.81528
52.4794 6.82242
52.5293 6.79947
52.5789 6.77774
52.6288 6.75378
52.6785 6.68525
52.7284 6.71103
52.7781 6.65028
52.828 6.64254
52.8777 6.59595
52.9276 6.56691
52.9774 6.52511
53.0273 6.51378
53.0771 6.52413
53.1271 6.5061
53.1769 6.41923
53.2269 6.40143
53.2767 6.38117
53.3267 6.41159
53.3765 6.35168
53.4266 6.28952
53.4766 6.27268
53.5265 6.25039
53.5765 6.2288
53.6264 6.20438
53.6765 6.1948
53.7264 6.16397
53.7765 6.10166
53.8265 6.10664
53.8766 6.03787
53.9266 6.05041
53.9767 5.97009
54.0267 6.0179
54.0769 5.98813
54.1269 5.92827
54.1771 5.88798
54.2271 5.89334
54.2773 5.83261
54.3274 5.77912
54.3776 5.82455
54.4277 5.73219
54.478 5.70047
54.528 5.69293
54.5783 5.64107
54.6285 5.61084
54.6788 5.5603
54.7289 5.52106
54.7792 5.46986
54.8296 5.45167
54.8798 5.32604
54.9301 5.38307
54.9803 5.32719
55.0307 5.30302
55.0809 5.23139
55.1314 5.27439
55.1816 5.14616
55.232 5.18728
55.2823 5.09606
55.3328 5.05471
55.383 4.95225
55.4335 5.0077
55.4838 4.93039
55.5344 4.89679
55.5847 4.85075
55.6352 4.80712
55.6856 4.78805
55.7361 4.73838