File: XRD/Ni3Fe_FD0312.xy
TT I
1.27165 7.48314
1.31627 7.25661
1.36089 6.99135
1.40551 6.03186
1.45013 6.14352
1.49476 6.22762
1.53938 5.50598
1.584 5.90656
1.62863 5.4297
1.67325 5.74774
1.71787 5.08628
1.7625 5.05852
1.80712 5.25283
1.85174 5.02481
1.89636 5.21591
1.94099 4.51378
1.98562 4.93348
2.03025 4.50324
2.07487 4.66816
2.11949 5.02174
2.16411 4.61362
2.20874 17.3904
2.25338 30.1334
2.298 6.29135
2.34263 5.22609
2.38725 5.19222
2.43188 4.90672
2.4765 5.61212
2.52115 5.50336
2.56577 5.91482
2.6104 6.72979
2.65503 7.41172
2.69965 7.17111
2.7443 7.1453
2.78893 7.28832
2.83356 8.22693
2.87818 8.30668
2.92281 8.51055
2.96744 9.09927
3.01209 10.1362
3.05672 11.0581
3.10135 12.6016
3.14599 13.2504
3.19062 14.2893
3.23527 15.4443
3.2799 16.0749
3.32454 17.2853
3.36917 17.6083
3.4138 19.3091
3.45844 19.9245
3.50309 21.4951
3.54773 22.1431
3.59237 25.3384
3.637 120.266
3.68164 74.5665
3.7263 27.2801
3.77094 26.6936
3.81558 27.1831
3.86022 28.1806
3.90486 29.7189
3.9495 30.7633
3.99416 31.3996
4.0388 32.7388
4.08344 34.6954
4.12809 35.4404
4.17273 38.9561
4.21738 46.1404
4.26204 329.644
4.30669 295.567
4.35133 52.1723
4.39598 46.5087
4.44063 58.0049
4.4853 74.6049
4.52995 52.6926
4.5746 52.8551
4.61925 54.4213
4.6639 56.3962
4.70855 59.9877
4.75322 62.2807
4.79788 65.373
4.84253 68.5184
4.88719 73.289
4.93184 77.1957
4.97652 83.6676
5.02118 90.5922
5.06583 98.9667
5.11049 113.476
5.15515 212.332
5.19981 479.231
5.24449 2960.54
5.28916 11283.4
5.33382 3951.93
5.37848 239.664
5.42315 141.555
5.46783 121.184
5.5125 110.827
5.55716 106.001
5.60183 102.122
5.6465 100.652
5.69117 97.5336
5.73586 94.9107
5.78053 95.5218
5.8252 95.4529
5.86988 96.656
5.91455 99.6937
5.95924 110.265
6.00392 248.767
6.0486 1023.35
6.09328 3789.89
6.13795 3742.06
6.18263 326.655
6.22733 103.37
6.27201 88.5719
6.3167 116.371
6.36138 87.4561
6.40606 71.8418
6.45075 69.7547
6.49545 67.5458
6.54014 65.8112
6.58483 65.294
6.62952 65.4424
6.67421 106.271
6.71892 182.26
6.76361 75.2534
6.8083 60.8606
6.853 59.6161
6.89769 58.8168
6.94239 58.3651
6.98711 57.8557
7.03181 57.3059
7.07651 57.2566
7.12121 57.2628
7.16591 58.0622
7.21063 58.0425
7.25533 77.1205
7.30004 231.203
7.34475 111.438
7.38945 59.0411
7.43416 56.4737
7.47889 56.553
7.5236 56.6509
7.56831 57.0687
7.61303 59.5065
7.65774 60.295
7.70247 57.8738
7.74719 57.7076
7.79191 58.2813
7.83663 58.8368
7.88135 59.2948
7.92607 60.496
7.97081 61.5599
8.01553 62.4464
8.06026 64.1686
8.10498 65.8405
8.14971 78.464
8.19446 77.1573
8.23919 71.4438
8.28392 73.9249
8.32865 76.2848
8.37339 80.9179
8.41812 89.1075
8.46288 128.463
8.50761 186.053
8.55235 417.3
8.59709 1015.35
8.64183 2097.58
8.68658 1201.74
8.73134 202.286
8.77609 105.941
8.82083 96.3708
8.86558 92.7716
8.91033 93.3272
8.9551 96.9868
8.99985 87.9872
9.04461 85.6499
9.08936 85.1965
9.13412 83.9079
9.17888 84.3101
9.22365 85.0612
9.26841 84.3428
9.31318 85.3239
9.35794 85.2063
9.4027 85.1441
9.44749 86.0453
9.49226 86.6113
9.53703 87.4934
9.5818 90.0209
9.62657 95.8135
9.67134 105.376
9.71614 97.1112
9.76091 96.9487
9.80569 99.4108
9.85047 103.018
9.89525 134.565
9.94005 152.879
9.98484 193.044
10.0296 366.361
10.0744 715.397
10.1192 1547.78
10.164 1805.76
10.2088 534.247
10.2536 144.237
10.2984 120.973
10.3432 123.595
10.388 109.387
10.4328 124.987
10.4776 168.043
10.5224 256.603
10.5672 466.022
10.612 546.636
10.6568 241.54
10.7017 103.32
10.7465 89.9437
10.7913 86.1316
10.8361 83.5521
10.8809 81.4696
10.9257 81.1837
10.9706 83.2577
11.0154 77.6662
11.0602 75.1192
11.105 74.0127
11.1499 80.4624
11.1947 91.7852
11.2395 79.3433
11.2844 73.5664
11.3292 69.6692
11.374 67.7994
11.4189 67.6638
11.4637 66.739
11.5086 67.6512
11.5534 72.2068
11.5983 68.4438
11.6431 65.5427
11.688 65.0462
11.7328 64.8804
11.7777 65.1082
11.8225 64.5828
11.8674 64.4133
11.9122 64.5795
11.9571 64.8832
12.002 65.7699
12.0468 70.6903
12.0917 82.9282
12.1366 101.564
12.1814 139.651
12.2263 201.121
12.2712 190.456
12.3161 111.166
12.3609 76.112
12.4058 67.1014
12.4507 66.489
12.4956 66.4844
12.5405 66.5898
12.5853 67.7406
12.6302 77.9903
12.6751 86.721
12.72 73.8296
12.7649 70.0423
12.8098 70.3884
12.8547 71.8813
12.8996 73.0094
12.9445 74.2648
12.9894 76.4149
13.0343 78.0427
13.0792 81.2069
13.1242 91.8716
13.1691 119.392
13.214 151.159
13.2589 215.017
13.3038 335.505
13.3487 446.287
13.3937 310.421
13.4386 140.874
13.4835 112.198
13.5285 127.137
13.5734 154.946
13.6183 217.733
13.6633 324.32
13.7082 370.221
13.7531 221.334
13.7981 106.727
13.843 84.9343
13.888 82.3227
13.9329 79.3753
13.9779 78.124
14.0228 76.5082
14.0678 75.0326
14.1127 74.8289
14.1577 75.0258
14.2027 73.8145
14.2476 72.6457
14.2926 72.6928
14.3376 74.7099
14.3825 72.8938
14.4275 70.9577
14.4725 70.8156
14.5175 70.7174
14.5624 71.0847
14.6074 73.7477
14.6524 74.7313
14.6974 72.7891
14.7424 74.3359
14.7874 81.959
14.8324 92.6767
14.8774 108.69
14.9224 140.269
14.9674 192.176
15.0124 229.628
15.0574 168.599
15.1024 99.6075
15.1474 75.5148
15.1924 72.8494
15.2374 74.4415
15.2824 73.6408
15.3274 70.7536
15.3725 68.8972
15.4175 68.4947
15.4625 68.3716
15.5076 68.5204
15.5526 68.3649
15.5976 67.8192
15.6426 68.9044
15.6877 75.1805
15.7327 83.3135
15.7778 94.4101
15.8228 117.064
15.8679 157.624
15.9129 198.686
15.958 177.661
16.003 110.593
16.0481 72.841
16.0931 68.2572
16.1382 65.824
16.1833 62.8493
16.2283 61.0164
16.2734 60.2098
16.3185 61.0173
16.3636 62.3661
16.4086 60.7166
16.4537 58.1997
16.4988 57.2816
16.5439 57.3276
16.589 57.038
16.6341 56.7759
16.6792 56.3228
16.7243 56.6035
16.7694 56.7033
16.8145 56.5931
16.8596 57.2698
16.9047 59.1296
16.9498 59.6999
16.9949 57.6426
17.04 57.6875
17.0851 58.913
17.1302 60.6906
17.1754 63.5972
17.2205 66.7989
17.2656 73.3087
17.3108 82.4689
17.3559 85.5642
17.401 76.3023
17.4462 65.3057
17.4913 61.5291
17.5365 60.9067
17.5815 61.0894
17.6268 61.3727
17.6718 62.2918
17.7171 62.7939
17.7622 63.1015
17.8074 63.5452
17.8525 66.3086
17.8977 70.9276
17.9428 76.1887
17.9881 82.7862
18.0331 95.3073
18.0784 114.903
18.1237 140.802
18.1688 142.787
18.214 115.041
18.2591 90.0911
18.3044 89.0118
18.3495 98.0607
18.3948 109.008
18.4399 104.635
18.4852 83.9484
18.5303 69.3984
18.5756 64.3904
18.6207 63.3179
18.666 62.5713
18.7112 61.6111
18.7565 60.8374
18.8016 60.6455
18.8469 59.7744
18.892 59.6325
18.9374 59.0541
18.9825 59.0622
19.0278 58.8611
19.073 58.9904
19.1183 59.6107
19.1635 60.6175
19.2088 61.5135
19.254 63.0374
19.2993 66.3034
19.3447 72.5432
19.3898 78.7242
19.4352 77.1083
19.4804 67.8079
19.5257 59.5374
19.5709 56.1619
19.6163 55.7162
19.6615 55.4707
19.7068 55.0294
19.752 55.0088
19.7974 55.344
19.8426 56.3754
19.888 57.1197
19.9332 57.9528
19.9786 59.5935
20.0238 62.4256
20.0692 67.3572
20.1144 71.8194
20.1598 71.6313
20.205 66.4195
20.2504 63.1655
20.2957 63.9669
20.3411 67.1571
20.3863 67.4256
20.4318 61.8532
20.477 56.2511
20.5224 53.9099
20.5677 52.9392
20.6131 51.9316
20.6586 51.3768
20.7038 51.1835
20.7493 50.7164
20.7945 50.5109
20.84 50.4789
20.8853 50.1363
20.9307 50.0923
20.976 50.3923
21.0215 50.2743
21.0668 50.5732
21.1122 51.0072
21.1575 51.2668
21.203 52.167
21.2483 53.0336
21.2938 53.6743
21.3391 52.0987
21.3846 50.9168
21.4299 50.0571
21.4754 49.9627
21.5207 50.0751
21.5662 50.3556
21.6116 50.7047
21.6571 51.6738
21.7024 52.4955
21.7479 53.8414
21.7933 55.8394
21.8388 58.9737
21.8843 62.9916
21.9297 66.5951
21.9752 66.8612
22.0206 62.7493
22.0661 58.2325
22.1115 57.4333
22.157 57.8956
22.2024 56.8942
22.248 53.8799
22.2933 51.8095
22.3389 50.6933
22.3843 50.7826
22.4299 50.6308
22.4753 50.6894
22.5208 50.2188
22.5662 50.0456
22.6118 50.1343
22.6572 50.4814
22.7028 50.9788
22.7483 51.2889
22.7939 51.7725
22.8393 52.9247
22.8849 54.5774
22.9303 56.6462
22.9759 59.2798
23.0214 60.0799
23.067 57.5211
23.1126 53.484
23.1581 51.1592
23.2037 50.4028
23.2492 50.633
23.2948 50.5557
23.3403 50.6984
23.3859 51.4089
23.4314 51.9667
23.477 53.2483
23.5225 55.078
23.5682 57.7087
23.6137 59.8349
23.6593 58.6138
23.7048 54.5208
23.7505 50.4324
23.796 48.3163
23.8417 47.6838
23.8872 47.075
23.9329 46.7548
23.9784 46.4416
24.0241 46.3188
24.0697 45.9337
24.1154 45.6072
24.1609 45.5074
24.2066 45.3567
24.2522 45.2513
24.2979 44.9768
24.3434 44.8271
24.3892 44.5869
24.4349 44.5211
24.4805 44.322
24.5262 44.4097
24.5718 44.2693
24.6175 44.3257
24.6631 44.2281
24.7089 43.8668
24.7545 43.8727
24.8002 43.8527
24.8458 43.4252
24.8916 43.4235
24.9372 43.6014
24.983 43.797
25.0286 44.0315
25.0744 44.5199
25.12 44.7466
25.1658 45.6775
25.2114 46.0502
25.2572 46.0167
25.3029 45.9799
25.3487 46.3381
25.3943 46.29
25.4402 45.3915
25.4858 44.3092
25.5316 43.015
25.5773 42.2915
25.6231 42.3988
25.669 41.9096
25.7147 41.8497
25.7605 41.7822
25.8062 41.9728
25.8521 41.9922
25.8977 41.8548
25.9436 42.0614
25.9893 42.0474
26.0352 42.5892
26.0809 42.7398
26.1268 43.1224
26.1725 42.8862
26.2184 42.4015
26.2641 41.7768
26.31 41.5099
26.3557 41.5284
26.4017 41.4239
26.4474 41.7663
26.4933 41.9952
26.5391 42.506
26.585 42.7278
26.6308 43.1141
26.6767 43.5331
26.7225 43.5329
26.7684 42.9924
26.8142 42.2328
26.8601 41.9708
26.9059 41.3493
26.9519 40.6881
26.9979 40.4751
27.0437 40.2202
27.0896 40.0493
27.1354 40.0986
27.1814 39.8443
27.2272 39.7965
27.2732 39.8896
27.3191 39.6376
27.3651 39.686
27.4109 39.6222
27.4569 39.6789
27.5027 39.7284
27.5488 39.8892
27.5946 39.6276
27.6407 39.402
27.6865 39.3885
27.7326 39.1648
27.7784 39.1017
27.8245 39.0693
27.8703 39.0776
27.9164 39.4453
27.9623 39.4236
28.0084 39.8711
28.0543 40.2318
28.1003 40.3566
28.1462 40.1487
28.1923 39.791
28.2384 39.2956
28.2843 39.0098
28.3304 38.4949
28.3764 38.0976
28.4225 37.7023
28.4684 37.4958
28.5145 37.069
28.5605 37.0685
28.6066 36.8078
28.6526 36.726
28.6987 36.7522
28.7447 36.5803
28.7908 36.5691
28.8368 36.6271
28.8829 36.5938
28.9289 36.6646
28.9751 36.3182
29.0211 36.2947
29.0673 35.7537
29.1133 35.8011
29.1595 35.6156
29.2055 35.4429
29.2517 35.3943
29.2977 35.4059
29.3439 35.2597
29.3899 35.3139
29.4361 35.3149
29.4824 35.1977
29.5284 34.8936
29.5746 34.5815
29.6207 34.2019
29.6669 34.2291
29.713 34.1025
29.7593 33.9879
29.8053 33.94
29.8516 33.945
29.8977 33.924
29.9439 33.7444
29.99 33.65
30.0363 33.4985
30.0824 33.5744
30.1287 33.4631
30.1748 33.4607
30.2211 33.464
30.2673 33.2516
30.3136 33.3878
30.3597 33.3992
30.406 33.2948
30.4522 33.1727
30.4985 33.0329
30.5447 33.1197
30.591 33.0129
30.6372 33.0555
30.6835 33.0958
30.7297 33.3236
30.7761 33.2665
30.8224 33.1311
30.8686 32.8542
30.915 32.6549
30.9612 32.5527
31.0076 32.3945
31.0538 32.2493
31.1002 32.098
31.1464 32.002
31.1928 31.8578
31.2391 31.8822
31.2855 31.8032
31.3317 31.8953
31.3781 31.8389
31.4244 31.933
31.4708 31.8871
31.5171 31.8141
31.5636 31.9539
31.6098 31.5936
31.6563 31.3984
31.7026 31.3082
31.7491 31.0614
31.7953 31.1925
31.8418 31.1198
31.8881 31.0561
31.9346 31.0146
31.9809 31.0317
32.0275 30.8568
32.074 30.7957
32.1203 30.535
32.1668 30.6253
32.2132 30.4286
32.2597 30.2089
32.306 30.1062
32.3526 29.9274
32.399 29.912
32.4455 29.7631
32.4919 29.7629
32.5385 29.541
32.5848 29.4542
32.6314 29.448
32.6778 29.4031
32.7244 29.2126
32.7708 29.0827
32.8174 29.1818
32.8638 28.9837
32.9104 29.003
32.9569 28.8998
33.0035 28.7941
33.0499 28.7197
33.0966 28.7564
33.143 28.75
33.1897 28.6054
33.2361 28.5354
33.2828 28.4617
33.3293 28.3381
33.3759 28.3032
33.4226 28.1649
33.4691 28.0141
33.5158 27.9976
33.5623 27.7668
33.609 27.6213
33.6555 27.5794
33.7022 27.4803
33.7487 27.3901
33.7954 27.4581
33.842 27.2351
33.8887 27.2584
33.9353 27.1215
33.982 27.0513
34.0286 26.9752
34.0753 26.8178
34.1219 26.8055
34.1687 26.7007
34.2152 26.6574
34.262 26.5642
34.3086 26.4532
34.3554 26.3397
34.402 26.2307
34.4488 26.1675
34.4954 26.1159
34.5422 26.0504
34.5889 25.8804
34.6357 25.7505
34.6825 25.7908
34.7292 25.6836
34.776 25.5186
34.8227 25.5406
34.8695 25.5255
34.9162 25.3651
34.9631 25.2913
35.0098 25.2799
35.0566 25.107
35.1033 25.0972
35.1502 25.1119
35.1969 25.0012
35.2438 25.0163
35.2906 24.8273
35.3375 24.8968
35.3842 24.8383
35.4311 24.7431
35.4779 24.7137
35.5248 24.6445
35.5716 24.6042
35.6185 24.5023
35.6653 24.4015
35.7123 24.3803
35.759 24.2004
35.806 24.109
35.8528 23.9701
35.8998 24.0126
35.9468 23.8823
35.9936 23.8125
36.0406 23.7707
36.0874 23.6542
36.1345 23.6663
36.1813 23.5332
36.2283 23.527
36.2752 23.4696
36.3222 23.4194
36.3691 23.3539
36.4161 23.2138
36.463 23.1868
36.5101 23.2558
36.557 22.9676
36.6041 22.9566
36.651 22.9901
36.6981 22.8372
36.745 22.8023
36.7921 22.7153
36.839 22.5346
36.8861 22.5745
36.9331 22.5568
36.9802 22.3765
37.0272 22.302
37.0743 22.1823
37.1213 22.1377
37.1684 22.097
37.2154 22.0718
37.2626 21.9848
37.3098 21.9173
37.3568 21.8195
37.404 21.746
37.451 21.7475
37.4982 21.6451
37.5452 21.4895
37.5924 21.5072
37.6395 21.6004
37.6867 21.4202
37.7337 21.3244
37.781 21.2042
37.8281 21.1752
37.8753 21.0743
37.9224 21.0227
37.9697 20.9771
38.0168 20.8941
38.064 20.8467
38.1111 20.7796
38.1584 20.637
38.2056 20.6544
38.2529 20.5696
38.3 20.4959
38.3473 20.512
38.3945 20.3645
38.4418 20.3021
38.489 20.3525
38.5363 20.1414
38.5837 20.1255
38.6309 20.0264
38.6782 19.9534
38.7254 19.9015
38.7728 19.8536
38.82 19.8123
38.8674 19.6957
38.9146 19.6598
38.9621 19.5852
39.0093 19.5796
39.0567 19.549
39.104 19.455
39.1514 19.3174
39.1987 19.264
39.2461 19.2873
39.2934 19.199
39.3409 19.1011
39.3882 19.022
39.4356 19.0029
39.483 18.9798
39.5304 18.8728
39.5778 18.8209
39.6253 18.7149
39.6726 18.7
39.7201 18.716
39.7675 18.6343
39.815 18.536
39.8624 18.4704
39.9099 18.4119
39.9575 18.2681
40.0049 18.2575
40.0525 18.2146
40.0999 18.2114
40.1474 18.1087
40.1949 18.0429
40.2425 17.8968
40.2899 17.9953
40.3375 17.9155
40.385 17.865
40.4326 17.7931
40.48 17.7339
40.5277 17.6395
40.5752 17.6007
40.6228 17.4993
40.6703 17.4742
40.718 17.3857
40.7655 17.3751
40.8132 17.2845
40.8607 17.3796
40.9084 17.3279
40.9559 17.1803
41.0036 17.1549
41.0512 17.0166
41.0989 16.9715
41.1465 16.9483
41.1942 16.9034
41.242 16.8164
41.2896 16.7216
41.3373 16.6455
41.3849 16.6402
41.4327 16.6139
41.4803 16.5003
41.5281 16.4877
41.5758 16.4216
41.6236 16.4036
41.6712 16.3599
41.7191 16.2652
41.7667 16.207
41.8146 16.1662
41.8622 16.0764
41.9101 16.0721
41.9578 15.9582
42.0057 15.9566
42.0534 15.9061
42.1013 15.8615
42.149 15.8203
42.1969 15.7073
42.2446 15.6721
42.2925 15.637
42.3403 15.5789
42.3882 15.5509
42.436 15.4695
42.4839 15.3602
42.5319 15.3989
42.5797 15.3164
42.6277 15.2864
42.6755 15.223
42.7235 15.1288
42.7713 15.0937
42.8193 15.1148
42.8671 14.997
42.9152 14.9701
42.963 14.9341
43.0111 14.8187
43.0589 14.816
43.107 14.7611
43.1549 14.7035
43.2029 14.6123
43.2508 14.6255
43.2989 14.5361
43.3468 14.5095
43.3949 14.4399
43.4429 14.4038
43.491 14.2984
43.5389 14.2844
43.5871 14.2566
43.635 14.1986
43.6832 14.1824
43.7312 14.0454
43.7793 14.0959
43.8273 14.0675
43.8755 13.9893
43.9237 13.8817
43.9717 13.8723
44.0199 13.7924
44.068 13.8206
44.1162 13.7546
44.1642 13.6752
44.2125 13.6756
44.2606 13.6005
44.3088 13.566
44.3569 13.4927
44.4052 13.4185
44.4533 13.3925
44.5016 13.3301
44.5497 13.2734
44.598 13.2609
44.6461 13.1932
44.6945 13.177
44.7426 13.1395
44.791 13.0589
44.8391 13.0154
44.8875 12.9127
44.9357 12.9548
44.984 12.8769
45.0322 12.8559
45.0806 12.791
45.1288 12.7607
45.1773 12.7149
45.2257 12.6404
45.2739 12.6221
45.3224 12.5668
45.3706 12.5401
45.4191 12.4864
45.4673 12.4228
45.5158 12.369
45.5641 12.3424
45.6126 12.3103
45.6609 12.2837
45.7094 12.1957
45.7577 12.1688
45.8063 12.1128
45.8546 12.0883
45.9031 12.0503
45.9515 11.9769
46.0001 11.9149
46.0484 11.9488
46.097 11.8484
46.1454 11.8503
46.194 11.7904
46.2424 11.7254
46.291 11.699
46.3395 11.6568
46.3881 11.6222
46.4365 11.5987
46.4852 11.5402
46.5337 11.4436
46.5823 11.4295
46.631 11.3941
46.6795 11.3415
46.7282 11.3373
46.7767 11.2837
46.8254 11.215
46.8739 11.178
46.9226 11.1523
46.9712 11.0953
47.0199 11.0375
47.0685 11.0379
47.1173 10.9862
47.1658 10.9395
47.2146 10.9082
47.2632 10.8547
47.312 10.8602
47.3606 10.799
47.4095 10.7046
47.4581 10.685
47.5069 10.699
47.5556 10.6502
47.6044 10.556
47.6531 10.5155
47.702 10.4919
47.7507 10.4415
47.7996 10.4116
47.8483 10.4069
47.8972 10.4049
47.9461 10.328
47.9948 10.2665
48.0438 10.2247
48.0925 10.1839
48.1415 10.1946
48.1902 10.1404
48.2392 10.1077
48.288 10.0632
48.337 10.0271
48.3858 9.9998
48.4348 9.94988
48.4837 9.95928
48.5327 9.88624
48.5815 9.82415
48.6306 9.81423
48.6795 9.76608
48.7285 9.74033
48.7774 9.70391
48.8265 9.66961
48.8754 9.62297
48.9245 9.61569
48.9734 9.56862
49.0226 9.56625
49.0715 9.46206
49.1206 9.4239
49.1696 9.39299
49.2188 9.34853
49.2679 9.35126
49.3169 9.29448
49.3661 9.23966
49.4151 9.20147
49.4643 9.22322
49.5134 9.16142
49.5626 9.09228
49.6117 9.07958
49.6609 9.04719
49.71 9.03766
49.7592 8.98367
49.8083 8.90017
49.8576 8.89938
49.9067 8.88
49.956 8.8487
50.0052 8.83951
50.0545 8.81295
50.1036 8.74568
50.153 8.69293
50.2022 8.64622
50.2515 8.66924
50.3007 8.63206
50.3501 8.55535
50.3993 8.54722
50.4487 8.51854
50.498 8.46559
50.5474 8.43584
50.5966 8.38861
50.6461 8.40905
50.6955 8.34085
50.7448 8.35625
50.7943 8.2871
50.8436 8.23426
50.8931 8.20126
50.9424 8.15571
50.9919 8.1309
51.0413 8.14857
51.0908 8.13806
51.1402 8.0847
51.1897 8.02068
51.2391 8.0014
51.2887 7.94407
51.3381 7.93885
51.3877 7.89976
51.4371 7.85171
51.4867 7.83244
51.5362 7.80342
51.5858 7.76983
51.6353 7.72666
51.6849 7.69456
51.7344 7.71901
51.7841 7.64584
51.8336 7.63503
51.8833 7.59917
51.9328 7.53945
51.9826 7.50773
52.0323 7.48133
52.0818 7.45231
52.1316 7.40293
52.1812 7.38717
52.231 7.33426
52.2806 7.35441
52.3304 7.30294
52.38 7.26088
52.4298 7.26585
52.4794 7.21454
52.5293 7.12823
52.5789 7.16919
52.6288 7.12388
52.6785 7.10735
52.7284 7.07961
52.7781 7.05292
52.828 6.98415
52.8777 6.96124
52.9276 6.91862
52.9774 6.92704
53.0273 6.91497
53.0771 6.86913
53.1271 6.82831
53.1769 6.78748
53.2269 6.76149
53.2767 6.75566
53.3267 6.72935
53.3765 6.69713
53.4266 6.64098
53.4766 6.64122
53.5265 6.5976
53.5765 6.56498
53.6264 6.52148
53.6765 6.53061
53.7264 6.45015
53.7765 6.45518
53.8265 6.4487
53.8766 6.31595
53.9266 6.35986
53.9767 6.32946
54.0267 6.32429
54.0769 6.27804
54.1269 6.18437
54.1771 6.18075
54.2271 6.18552
54.2773 6.15123
54.3274 6.10756
54.3776 6.09806
54.4277 6.09422
54.478 6.04478
54.528 5.99727
54.5783 5.91434
54.6285 5.89287
54.6788 5.84436
54.7289 5.89227
54.7792 5.79486
54.8296 5.74239
54.8798 5.70153
54.9301 5.64819
54.9803 5.62535
55.0307 5.60263
55.0809 5.53566
55.1314 5.51099
55.1816 5.41866
55.232 5.39678
55.2823 5.40309
55.3328 5.3311
55.383 5.23205
55.4335 5.16913
55.4838 5.13553
55.5344 5.13377
55.5847 5.08613
55.6352 5.04065
55.6856 4.97731
55.7361 5.00941