File: XRD/Ni3Fe_FD0094.xy
TT I
1.27165 9.0721
1.31627 7.87295
1.36089 8.22979
1.40551 8.07445
1.45013 7.28467
1.49476 6.08336
1.53938 6.23414
1.584 6.13184
1.62863 6.31389
1.67325 5.66816
1.71787 6.10704
1.7625 5.78593
1.80712 5.685
1.85174 5.71788
1.89636 5.60072
1.94099 6.09458
1.98562 5.62557
2.03025 6.10142
2.07487 5.43165
2.11949 5.24003
2.16411 5.09347
2.20874 5.30949
2.25338 4.79659
2.298 4.86247
2.34263 4.25952
2.38725 4.54406
2.43188 4.03495
2.4765 4.45175
2.52115 4.118
2.56577 3.90249
2.6104 4.02801
2.65503 4.60121
2.69965 5.10513
2.7443 6.10324
2.78893 6.27865
2.83356 7.01565
2.87818 8.05074
2.92281 7.94799
2.96744 8.76546
3.01209 9.91629
3.05672 11.0249
3.10135 11.5825
3.14599 12.99
3.19062 13.8166
3.23527 14.492
3.2799 15.4786
3.32454 16.2292
3.36917 17.1663
3.4138 18.7318
3.45844 19.1386
3.50309 20.4878
3.54773 20.8973
3.59237 21.8625
3.637 22.1332
3.68164 22.8781
3.7263 23.8951
3.77094 24.6176
3.81558 25.5
3.86022 26.386
3.90486 27.6444
3.9495 28.3233
3.99416 28.9633
4.0388 30.2748
4.08344 31.1069
4.12809 32.0005
4.17273 33.9953
4.21738 34.8814
4.26204 35.9271
4.30669 37.2176
4.35133 39.1819
4.39598 40.6735
4.44063 42.444
4.4853 44.6514
4.52995 46.7065
4.5746 48.3735
4.61925 51.0949
4.6639 52.894
4.70855 55.8845
4.75322 59.3797
4.79788 62.2632
4.84253 65.5069
4.88719 70.705
4.93184 76.5216
4.97652 84.3234
5.02118 94.5595
5.06583 107.466
5.11049 127.717
5.15515 177.98
5.19981 701.449
5.24449 3774.63
5.28916 6203.08
5.33382 7365.23
5.37848 787.689
5.42315 202.07
5.46783 142.916
5.5125 123.179
5.55716 113.728
5.60183 106.367
5.6465 102.879
5.69117 100.874
5.73586 98.7034
5.78053 98.6413
5.8252 99.8439
5.86988 104.418
5.91455 114.279
5.95924 141.234
6.00392 353.232
6.0486 1443.73
6.09328 1995.27
6.13795 3794.96
6.18263 1016.83
6.22733 157.766
6.27201 99.1098
6.3167 82.5678
6.36138 75.1048
6.40606 69.796
6.45075 67.0511
6.49545 64.4681
6.54014 62.4321
6.58483 60.5505
6.62952 59.3135
6.67421 58.1034
6.71892 56.8616
6.76361 56.1043
6.8083 54.7664
6.853 53.7773
6.89769 53.5136
6.94239 53.3782
6.98711 52.5135
7.03181 52.1489
7.07651 52.0026
7.12121 52.1144
7.16591 51.6055
7.21063 51.0923
7.25533 50.8663
7.30004 51.341
7.34475 51.0559
7.38945 51.527
7.43416 51.0733
7.47889 51.7531
7.5236 60.2103
7.56831 83.4228
7.61303 61.0482
7.65774 53.4393
7.70247 53.2354
7.74719 53.4944
7.79191 54.1858
7.83663 54.2655
7.88135 55.1776
7.92607 56.0081
7.97081 57.169
8.01553 58.4826
8.06026 59.5187
8.10498 60.8746
8.14971 62.7203
8.19446 64.6326
8.23919 67.4449
8.28392 70.0405
8.32865 72.9332
8.37339 78.5082
8.41812 84.6831
8.46288 99.6275
8.50761 194.501
8.55235 661.051
8.59709 721.21
8.64183 1054.68
8.68658 1790.89
8.73134 609.044
8.77609 134.819
8.82083 102.137
8.86558 92.7582
8.91033 88.0985
8.9551 85.7135
8.99985 83.6441
9.04461 82.3434
9.08936 81.6882
9.13412 81.3427
9.17888 81.6355
9.22365 95.1356
9.26841 129.812
9.31318 100.501
9.35794 83.1618
9.4027 81.4795
9.44749 82.0199
9.49226 82.2703
9.53703 83.267
9.5818 85.1402
9.62657 85.9084
9.67134 87.2784
9.71614 89.6169
9.76091 92.1763
9.80569 94.7841
9.85047 98.6272
9.89525 104.396
9.94005 117.226
9.98484 204.786
10.0296 601.054
10.0744 652.504
10.1192 701.339
10.164 1403.21
10.2088 1258.87
10.2536 301.139
10.2984 124.894
10.3432 110.525
10.388 105.856
10.4328 125.522
10.4776 230.701
10.5224 240.122
10.5672 243.383
10.612 413.727
10.6568 449.017
10.7017 172.558
10.7465 97.7173
10.7913 83.8561
10.8361 80.0167
10.8809 77.1978
10.9257 74.9568
10.9706 73.3806
11.0154 71.3508
11.0602 70.527
11.105 68.9817
11.1499 67.6227
11.1947 66.724
11.2395 65.7029
11.2844 65.183
11.3292 64.1584
11.374 63.6235
11.4189 62.9364
11.4637 62.2586
11.5086 61.3104
11.5534 61.3033
11.5983 60.9022
11.6431 61.0403
11.688 60.4867
11.7328 60.3971
11.7777 60.2169
11.8225 60.3737
11.8674 60.4129
11.9122 62.8436
11.9571 71.9785
12.002 71.5605
12.0468 69.9598
12.0917 93.88
12.1366 106.61
12.1814 100.496
12.2263 118.839
12.2712 174.318
12.3161 162.767
12.3609 84.6016
12.4058 64.5363
12.4507 62.7666
12.4956 61.8672
12.5405 61.8645
12.5853 62.43
12.6302 62.4499
12.6751 63.0395
12.72 63.9296
12.7649 64.7515
12.8098 65.6591
12.8547 66.952
12.8996 68.7307
12.9445 69.7087
12.9894 71.8287
13.0343 74.0346
13.0792 78.9909
13.1242 88.6937
13.1691 140.731
13.214 195.053
13.2589 179.101
13.3038 184.314
13.3487 269.711
13.3937 392.456
13.4386 269.637
13.4835 136.64
13.5285 165.416
13.5734 184.08
13.6183 161.437
13.6633 177.676
13.7082 272.044
13.7531 338.653
13.7981 196.329
13.843 94.4333
13.888 80.6279
13.9329 77.1604
13.9779 75.3057
14.0228 73.2159
14.0678 72.0476
14.1127 72.8726
14.1577 78.2694
14.2027 76.7882
14.2476 71.1864
14.2926 68.5392
14.3376 67.7222
14.3825 67.4315
14.4275 66.9259
14.4725 66.8738
14.5175 67.1857
14.5624 67.0802
14.6074 67.2766
14.6524 67.841
14.6974 68.7281
14.7424 70.6032
14.7874 81.2231
14.8324 111.305
14.8774 119.749
14.9224 110.183
14.9674 117.744
15.0124 155.284
15.0574 207.416
15.1024 167.7
15.1474 91.1516
15.1924 72.2005
15.2374 68.6003
15.2824 66.9988
15.3274 65.9684
15.3725 65.336
15.4175 64.9273
15.4625 64.5131
15.5076 64.1329
15.5526 64.5078
15.5976 64.5929
15.6426 65.7188
15.6877 74.2662
15.7327 98.3665
15.7778 108.183
15.8228 99.157
15.8679 100.578
15.9129 121.805
15.958 171.128
16.003 174.645
16.0481 106.536
16.0931 70.726
16.1382 62.6036
16.1833 59.8914
16.2283 58.0949
16.2734 57.3805
16.3185 56.4295
16.3636 55.6539
16.4086 54.9347
16.4537 54.5218
16.4988 53.87
16.5439 54.0903
16.589 53.5499
16.6341 53.5782
16.6792 52.9103
16.7243 53.2766
16.7694 53.1574
16.8145 53.0617
16.8596 53.2297
16.9047 53.9963
16.9498 54.6791
16.9949 54.7549
17.04 54.413
17.0851 56.0541
17.1302 60.8187
17.1754 63.8498
17.2205 62.7164
17.2656 62.1077
17.3108 65.4068
17.3559 72.1497
17.401 80.9105
17.4462 75.6361
17.4913 63.0758
17.5365 58.4894
17.5815 57.8968
17.6268 58.2513
17.6718 58.5185
17.7171 59.1617
17.7622 60.6032
17.8074 61.5286
17.8525 63.1998
17.8977 72.291
17.9428 85.3925
17.9881 87.4289
18.0331 82.7959
18.0784 84.1077
18.1237 95.9588
18.1688 125.653
18.214 150.142
18.2591 124.285
18.3044 88.1592
18.3495 78.6744
18.3948 83.7224
18.4399 96.8933
18.4852 101.159
18.5303 83.4185
18.5756 66.7305
18.6207 61.9289
18.666 60.1217
18.7112 59.0838
18.7565 58.3187
18.8016 57.9057
18.8469 57.065
18.892 56.7265
18.9374 56.284
18.9825 55.9882
19.0278 55.7273
19.073 55.8677
19.1183 56.378
19.1635 59.3331
19.2088 61.3553
19.254 60.8637
19.2993 60.2795
19.3447 61.3468
19.3898 63.9188
19.4352 69.3797
19.4804 73.44
19.5257 67.2457
19.5709 57.6092
19.6163 53.763
19.6615 52.9289
19.7068 52.4426
19.752 52.2628
19.7974 52.461
19.8426 53.8776
19.888 56.2342
19.9332 57.5396
19.9786 56.7751
20.0238 56.3147
20.0692 58.2478
20.1144 62.3124
20.1598 68.8495
20.205 71.1898
20.2504 66.3894
20.2957 59.1048
20.3411 57.633
20.3863 60.4813
20.4318 64.1988
20.477 61.6175
20.5224 54.4472
20.5677 50.5676
20.6131 49.5992
20.6586 49.1435
20.7038 48.7561
20.7493 48.3962
20.7945 48.7895
20.84 48.4035
20.8853 48.1452
20.9307 47.682
20.976 48.0744
21.0215 48.1395
21.0668 48.6041
21.1122 48.3494
21.1575 48.0963
21.203 48.3135
21.2483 48.5088
21.2938 49.6529
21.3391 50.344
21.3846 50.1526
21.4299 48.9621
21.4754 47.9607
21.5207 47.8954
21.5662 48.0318
21.6116 48.4924
21.6571 50.7712
21.7024 52.8075
21.7479 53.0113
21.7933 52.2933
21.8388 52.7008
21.8843 54.7357
21.9297 57.6335
21.9752 61.9717
22.0206 65.1896
22.0661 62.0947
22.1115 56.2189
22.157 53.6787
22.2024 54.8092
22.248 55.2674
22.2933 53.136
22.3389 49.9527
22.3843 48.4999
22.4299 47.9711
22.4753 47.9284
22.5208 47.8614
22.5662 47.7139
22.6118 48.1239
22.6572 48.1883
22.7028 49.5641
22.7483 50.8538
22.7939 51.2148
22.8393 50.5239
22.8849 50.4568
22.9303 50.7868
22.9759 51.8026
23.0214 53.7681
23.067 56.968
23.1126 57.0714
23.1581 53.2625
23.2037 49.7779
23.2492 48.7407
23.2948 49.0885
23.3403 50.4919
23.3859 51.4271
23.4314 50.7645
23.477 50.1269
23.5225 49.9615
23.5682 50.4436
23.6137 52.0021
23.6593 55.0018
23.7048 57.3342
23.7505 55.1482
23.796 50.1477
23.8417 46.7553
23.8872 45.4457
23.9329 44.8982
23.9784 44.4726
24.0241 44.1686
24.0697 43.9237
24.1154 43.5413
24.1609 43.4341
24.2066 43.1435
24.2522 43.0366
24.2979 42.9016
24.3434 42.8277
24.3892 42.7114
24.4349 42.5165
24.4805 42.1974
24.5262 42.2792
24.5718 42.0597
24.6175 42.2864
24.6631 42.5607
24.7089 42.3015
24.7545 42.2305
24.8002 41.7748
24.8458 41.8028
24.8916 41.7361
24.9372 41.9167
24.983 42.0666
25.0286 42.0599
25.0744 42.5529
25.12 42.8297
25.1658 43.0126
25.2114 42.9831
25.2572 43.5827
25.3029 43.8245
25.3487 43.644
25.3943 43.4037
25.4402 43.9026
25.4858 44.2238
25.5316 43.29
25.5773 41.5658
25.6231 40.7064
25.669 40.0546
25.7147 40.1763
25.7605 40.0936
25.8062 40.1915
25.8521 40.3728
25.8977 40.1761
25.9436 40.0723
25.9893 40.0425
26.0352 40.1216
26.0809 39.916
26.1268 40.3864
26.1725 40.868
26.2184 41.4064
26.2641 41.1747
26.31 40.5324
26.3557 40.3504
26.4017 40.1817
26.4474 40.1912
26.4933 40.1075
26.5391 40.2254
26.585 40.2247
26.6308 40.4946
26.6767 40.5406
26.7225 41.3042
26.7684 41.9679
26.8142 41.6366
26.8601 40.8506
26.9059 40.167
26.9519 39.8625
26.9979 39.6189
27.0437 39.0387
27.0896 38.561
27.1354 38.5071
27.1814 38.2582
27.2272 38.3131
27.2732 38.2581
27.3191 38.0626
27.3651 38.0141
27.4109 37.9082
27.4569 37.8872
27.5027 37.7563
27.5488 37.888
27.5946 37.7839
27.6407 38.0491
27.6865 38.2066
27.7326 38.1597
27.7784 38.0
27.8245 37.6728
27.8703 37.5496
27.9164 37.6928
27.9623 37.6135
28.0084 37.6799
28.0543 37.8237
28.1003 37.8635
28.1462 38.3913
28.1923 38.6013
28.2384 38.2643
28.2843 37.734
28.3304 37.3811
28.3764 37.1912
28.4225 36.7365
28.4684 36.3312
28.5145 35.6898
28.5605 35.6019
28.6066 35.4136
28.6526 35.2718
28.6987 35.2193
28.7447 35.1136
28.7908 34.9164
28.8368 34.8369
28.8829 34.7801
28.9289 34.7569
28.9751 34.6761
29.0211 34.7576
29.0673 34.6443
29.1133 34.4744
29.1595 34.2275
29.2055 33.9488
29.2517 33.8753
29.2977 33.6864
29.3439 33.5799
29.3899 33.4991
29.4361 33.5062
29.4824 33.4997
29.5284 33.5492
29.5746 33.4898
29.6207 33.1539
29.6669 32.825
29.713 32.705
29.7593 32.4565
29.8053 32.4292
29.8516 32.3229
29.8977 32.2845
29.9439 32.3208
29.99 32.2509
30.0363 31.9877
30.0824 32.0517
30.1287 31.8393
30.1748 31.8935
30.2211 31.8412
30.2673 31.7536
30.3136 31.9321
30.3597 32.0007
30.406 32.0824
30.4522 31.7775
30.4985 31.5658
30.5447 31.6444
30.591 31.5164
30.6372 31.5551
30.6835 31.5025
30.7297 31.5441
30.7761 31.6857
30.8224 31.7269
30.8686 31.7603
30.915 31.6166
30.9612 31.4748
31.0076 31.1546
31.0538 31.037
31.1002 30.8703
31.1464 30.6375
31.1928 30.6569
31.2391 30.5445
31.2855 30.5146
31.3317 30.4905
31.3781 30.509
31.4244 30.2882
31.4708 30.1549
31.5171 30.3037
31.5636 30.4063
31.6098 30.4192
31.6563 30.3137
31.7026 30.1963
31.7491 29.8633
31.7953 29.8553
31.8418 29.7019
31.8881 29.6903
31.9346 29.51
31.9809 29.5901
32.0275 29.5228
32.074 29.5515
32.1203 29.3705
32.1668 29.4733
32.2132 29.1691
32.2597 29.0011
32.306 28.8619
32.3526 28.7361
32.399 28.6213
32.4455 28.4103
32.4919 28.3449
32.5385 28.2351
32.5848 28.1859
32.6314 28.2064
32.6778 28.0517
32.7244 27.8938
32.7708 27.8299
32.8174 27.8577
32.8638 27.594
32.9104 27.6996
32.9569 27.6219
33.0035 27.4476
33.0499 27.4648
33.0966 27.4147
33.143 27.3366
33.1897 27.2738
33.2361 27.1591
33.2828 27.205
33.3293 27.1249
33.3759 27.1436
33.4226 26.9809
33.4691 26.9037
33.5158 26.8742
33.5623 26.6735
33.609 26.4168
33.6555 26.3514
33.7022 26.2678
33.7487 26.099
33.7954 26.1434
33.842 25.9604
33.8887 25.9663
33.9353 25.9148
33.982 25.8833
34.0286 25.7476
34.0753 25.7115
34.1219 25.5921
34.1687 25.4736
34.2152 25.4388
34.262 25.2473
34.3086 25.2375
34.3554 25.1669
34.402 24.9733
34.4488 24.907
34.4954 24.9835
34.5422 24.8721
34.5889 24.7538
34.6357 24.6072
34.6825 24.5818
34.7292 24.4686
34.776 24.3947
34.8227 24.3267
34.8695 24.3237
34.9162 24.317
34.9631 24.2086
35.0098 24.1817
35.0566 24.0774
35.1033 23.939
35.1502 23.9478
35.1969 23.9061
35.2438 23.8549
35.2906 23.758
35.3375 23.6663
35.3842 23.5801
35.4311 23.6243
35.4779 23.5176
35.5248 23.4733
35.5716 23.4913
35.6185 23.5191
35.6653 23.4425
35.7123 23.2614
35.759 23.1817
35.806 23.1464
35.8528 22.9503
35.8998 22.8898
35.9468 22.7802
35.9936 22.7458
36.0406 22.6668
36.0874 22.6402
36.1345 22.5882
36.1813 22.4942
36.2283 22.4267
36.2752 22.3811
36.3222 22.3218
36.3691 22.237
36.4161 22.1912
36.463 22.1929
36.5101 22.0967
36.557 22.0202
36.6041 21.8768
36.651 21.9211
36.6981 21.856
36.745 21.7724
36.7921 21.7354
36.839 21.5791
36.8861 21.5411
36.9331 21.5424
36.9802 21.3981
37.0272 21.3377
37.0743 21.2406
37.1213 21.1098
37.1684 21.1087
37.2154 21.1461
37.2626 21.0018
37.3098 20.8625
37.3568 20.875
37.404 20.8422
37.451 20.8007
37.4982 20.6422
37.5452 20.557
37.5924 20.485
37.6395 20.5312
37.6867 20.4634
37.7337 20.3603
37.781 20.2476
37.8281 20.2166
37.8753 20.1559
37.9224 20.0678
37.9697 20.0223
38.0168 19.9323
38.064 19.852
38.1111 19.8667
38.1584 19.7508
38.2056 19.6253
38.2529 19.6583
38.3 19.6106
38.3473 19.5668
38.3945 19.4521
38.4418 19.4038
38.489 19.371
38.5363 19.2283
38.5837 19.1721
38.6309 19.1258
38.6782 19.0495
38.7254 18.9927
38.7728 18.9779
38.82 18.9117
38.8674 18.8764
38.9146 18.7428
38.9621 18.7424
39.0093 18.7128
39.0567 18.6032
39.104 18.5012
39.1514 18.4634
39.1987 18.3977
39.2461 18.373
39.2934 18.3323
39.3409 18.2312
39.3882 18.1258
39.4356 18.1163
39.483 18.1039
39.5304 18.0225
39.5778 18.0184
39.6253 17.8979
39.6726 17.8785
39.7201 17.8087
39.7675 17.7638
39.815 17.6939
39.8624 17.6165
39.9099 17.5941
39.9575 17.4744
40.0049 17.4388
40.0525 17.361
40.0999 17.3297
40.1474 17.2486
40.1949 17.2598
40.2425 17.1592
40.2899 17.1761
40.3375 17.1273
40.385 17.058
40.4326 16.9666
40.48 16.8659
40.5277 16.871
40.5752 16.8737
40.6228 16.7358
40.6703 16.668
40.718 16.6885
40.7655 16.5559
40.8132 16.4629
40.8607 16.5209
40.9084 16.4739
40.9559 16.3735
41.0036 16.3873
41.0512 16.3182
41.0989 16.3102
41.1465 16.184
41.1942 16.1945
41.242 16.046
41.2896 16.0121
41.3373 15.9274
41.3849 15.9667
41.4327 15.8125
41.4803 15.832
41.5281 15.7961
41.5758 15.7019
41.6236 15.6404
41.6712 15.571
41.7191 15.5615
41.7667 15.4901
41.8146 15.4774
41.8622 15.359
41.9101 15.3516
41.9578 15.2413
42.0057 15.2206
42.0534 15.233
42.1013 15.1535
42.149 15.0299
42.1969 14.971
42.2446 14.9943
42.2925 14.9263
42.3403 14.8494
42.3882 14.8557
42.436 14.7745
42.4839 14.7231
42.5319 14.7246
42.5797 14.6338
42.6277 14.5796
42.6755 14.5381
42.7235 14.4574
42.7713 14.4397
42.8193 14.3261
42.8671 14.3529
42.9152 14.3053
42.963 14.2326
43.0111 14.1336
43.0589 14.14
43.107 14.0274
43.1549 14.0333
43.2029 13.9792
43.2508 13.9717
43.2989 13.8708
43.3468 13.8074
43.3949 13.808
43.4429 13.7744
43.491 13.7373
43.5389 13.6981
43.5871 13.6104
43.635 13.5521
43.6832 13.4883
43.7312 13.467
43.7793 13.4449
43.8273 13.387
43.8755 13.3625
43.9237 13.2701
43.9717 13.2657
44.0199 13.1643
44.068 13.1705
44.1162 13.103
44.1642 13.0621
44.2125 13.0326
44.2606 12.9682
44.3088 12.9182
44.3569 12.863
44.4052 12.8632
44.4533 12.7854
44.5016 12.7141
44.5497 12.7249
44.598 12.6763
44.6461 12.5917
44.6945 12.5595
44.7426 12.5399
44.791 12.4629
44.8391 12.3965
44.8875 12.4052
44.9357 12.3636
44.984 12.2862
45.0322 12.2609
45.0806 12.2226
45.1288 12.1722
45.1773 12.1503
45.2257 12.0578
45.2739 12.0241
45.3224 12.0344
45.3706 11.9423
45.4191 11.8726
45.4673 11.8392
45.5158 11.8677
45.5641 11.7733
45.6126 11.7634
45.6609 11.6518
45.7094 11.6676
45.7577 11.6524
45.8063 11.5698
45.8546 11.5854
45.9031 11.5059
45.9515 11.4558
46.0001 11.4052
46.0484 11.3773
46.097 11.3381
46.1454 11.3286
46.194 11.2619
46.2424 11.2487
46.291 11.1719
46.3395 11.1356
46.3881 11.1026
46.4365 11.0722
46.4852 11.0005
46.5337 10.9769
46.5823 10.9259
46.631 10.8583
46.6795 10.8501
46.7282 10.8405
46.7767 10.7466
46.8254 10.7173
46.8739 10.675
46.9226 10.6167
46.9712 10.5631
47.0199 10.5824
47.0685 10.5137
47.1173 10.4814
47.1658 10.4658
47.2146 10.4043
47.2632 10.3796
47.312 10.3396
47.3606 10.3089
47.4095 10.2285
47.4581 10.2775
47.5069 10.1809
47.5556 10.1368
47.6044 10.0915
47.6531 10.0553
47.702 9.97718
47.7507 9.95692
47.7996 9.94926
47.8483 9.91256
47.8972 9.92712
47.9461 9.84855
47.9948 9.80424
48.0438 9.8053
48.0925 9.79464
48.1415 9.70881
48.1902 9.61739
48.2392 9.6645
48.288 9.59691
48.337 9.60249
48.3858 9.57063
48.4348 9.544
48.4837 9.52246
48.5327 9.46761
48.5815 9.4092
48.6306 9.40414
48.6795 9.35878
48.7285 9.34233
48.7774 9.26175
48.8265 9.25777
48.8754 9.21836
48.9245 9.14853
48.9734 9.14753
49.0226 9.15152
49.0715 9.08772
49.1206 9.05139
49.1696 9.00376
49.2188 8.99325
49.2679 8.94441
49.3169 8.92026
49.3661 8.87552
49.4151 8.81073
49.4643 8.77963
49.5134 8.76821
49.5626 8.70527
49.6117 8.7084
49.6609 8.66914
49.71 8.62445
49.7592 8.5935
49.8083 8.56373
49.8576 8.53751
49.9067 8.45926
49.956 8.48756
50.0052 8.4857
50.0545 8.38963
50.1036 8.37099
50.153 8.32818
50.2022 8.36763
50.2515 8.29202
50.3007 8.23623
50.3501 8.20434
50.3993 8.20698
50.4487 8.14098
50.498 8.11491
50.5474 8.09618
50.5966 8.05587
50.6461 8.03437
50.6955 7.99719
50.7448 7.99989
50.7943 7.9533
50.8436 7.90737
50.8931 7.87021
50.9424 7.84499
50.9919 7.79965
51.0413 7.79774
51.0908 7.73525
51.1402 7.76444
51.1897 7.74299
51.2391 7.63691
51.2887 7.6425
51.3381 7.59178
51.3877 7.55663
51.4371 7.54293
51.4867 7.52687
51.5362 7.465
51.5858 7.44388
51.6353 7.37146
51.6849 7.36384
51.7344 7.34621
51.7841 7.34312
51.8336 7.28268
51.8833 7.27915
51.9328 7.2278
51.9826 7.21465
52.0323 7.17547
52.0818 7.1449
52.1316 7.07962
52.1812 7.0934
52.231 7.0663
52.2806 7.04142
52.3304 6.99542
52.38 7.00065
52.4298 6.9337
52.4794 6.92174
52.5293 6.89113
52.5789 6.86734
52.6288 6.86708
52.6785 6.78986
52.7284 6.74658
52.7781 6.73128
52.828 6.75266
52.8777 6.66607
52.9276 6.65851
52.9774 6.64794
53.0273 6.61143
53.0771 6.59478
53.1271 6.57018
53.1769 6.48303
53.2269 6.499
53.2767 6.44984
53.3267 6.44573
53.3765 6.40004
53.4266 6.33995
53.4766 6.31108
53.5265 6.33334
53.5765 6.30587
53.6264 6.2689
53.6765 6.22155
53.7264 6.20182
53.7765 6.21591
53.8265 6.17457
53.8766 6.12479
53.9266 6.09721
53.9767 6.05982
54.0267 6.02907
54.0769 6.01594
54.1269 5.99324
54.1771 5.93613
54.2271 5.88759
54.2773 5.83606
54.3274 5.84161
54.3776 5.80726
54.4277 5.75673
54.478 5.72121
54.528 5.63247
54.5783 5.66405
54.6285 5.56248
54.6788 5.55141
54.7289 5.51012
54.7792 5.45276
54.8296 5.41905
54.8798 5.38291
54.9301 5.37745
54.9803 5.26621
55.0307 5.2264
55.0809 5.20093
55.1314 5.19702
55.1816 5.09255
55.232 5.07076
55.2823 5.03062
55.3328 4.96855
55.383 4.86618
55.4335 4.92572
55.4838 4.83949
55.5344 4.77111
55.5847 4.70453
55.6352 4.71137
55.6856 4.69693
55.7361 4.72725