File: XRD/Ni3Fe_FD0367.xy
TT I
1.27165 7.84792
1.31627 6.76134
1.36089 7.3042
1.40551 6.37734
1.45013 6.48854
1.49476 6.34638
1.53938 6.08403
1.584 5.7863
1.62863 4.97097
1.67325 5.52525
1.71787 4.52388
1.7625 5.16862
1.80712 5.37303
1.85174 4.66232
1.89636 4.85647
1.94099 4.69036
1.98562 4.22228
2.03025 4.36231
2.07487 4.01403
2.11949 4.47279
2.16411 4.91963
2.20874 8.72553
2.25338 11.278
2.298 4.94337
2.34263 4.57249
2.38725 5.27991
2.43188 5.59568
2.4765 6.35216
2.52115 6.30031
2.56577 5.89676
2.6104 6.97301
2.65503 6.74353
2.69965 7.25607
2.7443 7.65507
2.78893 7.31271
2.83356 8.07144
2.87818 8.8282
2.92281 9.35668
2.96744 9.33116
3.01209 10.2562
3.05672 10.7361
3.10135 12.4718
3.14599 12.7234
3.19062 14.2785
3.23527 15.3773
3.2799 15.8506
3.32454 17.0786
3.36917 18.0361
3.4138 19.0524
3.45844 19.6783
3.50309 20.9801
3.54773 22.0489
3.59237 23.7278
3.637 50.5382
3.68164 36.8807
3.7263 25.9037
3.77094 26.4141
3.81558 27.333
3.86022 27.8891
3.90486 29.2517
3.9495 29.705
3.99416 31.1476
4.0388 32.1474
4.08344 33.5608
4.12809 34.9684
4.17273 37.1824
4.21738 40.7004
4.26204 118.599
4.30669 105.62
4.35133 45.8139
4.39598 44.7799
4.44063 49.2088
4.4853 55.0833
4.52995 54.284
4.5746 54.1261
4.61925 54.9914
4.6639 57.3524
4.70855 60.0363
4.75322 63.3619
4.79788 67.5248
4.84253 70.0139
4.88719 75.906
4.93184 79.3208
4.97652 84.6799
5.02118 92.124
5.06583 101.062
5.11049 115.916
5.15515 169.865
5.19981 630.719
5.24449 3743.58
5.28916 11332.7
5.33382 3228.44
5.37848 221.381
5.42315 140.624
5.46783 122.744
5.5125 112.747
5.55716 106.942
5.60183 102.607
5.6465 100.648
5.69117 98.7257
5.73586 96.6826
5.78053 98.3475
5.8252 98.6085
5.86988 100.271
5.91455 102.594
5.95924 117.628
6.00392 338.815
6.0486 1306.35
6.09328 4037.43
6.13795 3277.47
6.18263 270.588
6.22733 99.4396
6.27201 85.368
6.3167 88.5052
6.36138 77.3004
6.40606 71.4681
6.45075 69.9339
6.49545 67.1776
6.54014 65.4244
6.58483 64.5737
6.62952 63.8718
6.67421 74.3683
6.71892 92.3162
6.76361 63.9521
6.8083 60.0622
6.853 59.3101
6.89769 58.1714
6.94239 57.2529
6.98711 57.02
7.03181 56.8018
7.07651 56.1369
7.12121 56.1872
7.16591 56.3794
7.21063 55.8161
7.25533 61.8135
7.30004 102.037
7.34475 69.1746
7.38945 56.4681
7.43416 55.1248
7.47889 55.4001
7.5236 55.7452
7.56831 56.4846
7.61303 56.8892
7.65774 57.3014
7.70247 57.6473
7.74719 57.5741
7.79191 57.9751
7.83663 57.9863
7.88135 59.2063
7.92607 60.1972
7.97081 61.4909
8.01553 62.4298
8.06026 64.4001
8.10498 65.9411
8.14971 71.3834
8.19446 71.6145
8.23919 71.5773
8.28392 74.5451
8.32865 77.1299
8.37339 81.8093
8.41812 88.0509
8.46288 111.542
8.50761 232.419
8.55235 514.672
8.59709 1211.82
8.64183 2097.12
8.68658 1005.28
8.73134 177.055
8.77609 104.757
8.82083 96.4644
8.86558 93.9031
8.91033 92.3919
8.9551 90.7267
8.99985 87.8235
9.04461 86.4594
9.08936 86.0152
9.13412 84.8163
9.17888 84.8746
9.22365 84.9725
9.26841 84.6754
9.31318 86.6353
9.35794 86.3594
9.4027 87.0338
9.44749 87.2732
9.49226 87.7227
9.53703 88.883
9.5818 91.3169
9.62657 94.2511
9.67134 96.6834
9.71614 96.1402
9.76091 97.8154
9.80569 101.162
9.85047 104.426
9.89525 116.337
9.94005 137.436
9.98484 242.704
10.0296 451.338
10.0744 886.782
10.1192 1610.09
10.164 1586.66
10.2088 438.234
10.2536 133.971
10.2984 114.529
10.3432 113.342
10.388 110.519
10.4328 139.036
10.4776 190.853
10.5224 304.195
10.5672 487.092
10.612 509.42
10.6568 206.858
10.7017 99.4461
10.7465 89.5411
10.7913 85.7628
10.8361 83.6272
10.8809 81.1804
10.9257 79.9185
10.9706 79.6653
11.0154 76.8378
11.0602 74.7134
11.105 73.7394
11.1499 74.1081
11.1947 76.3884
11.2395 72.3931
11.2844 70.4914
11.3292 68.8644
11.374 67.7951
11.4189 67.292
11.4637 66.8232
11.5086 66.3491
11.5534 67.157
11.5983 65.9169
11.6431 65.4806
11.688 64.8448
11.7328 64.4336
11.7777 64.4517
11.8225 64.167
11.8674 64.2568
11.9122 64.9546
11.9571 64.9027
12.002 66.8994
12.0468 74.2067
12.0917 87.4359
12.1366 110.805
12.1814 152.233
12.2263 204.058
12.2712 171.196
12.3161 93.5266
12.3609 69.6014
12.4058 66.1627
12.4507 66.1016
12.4956 66.3797
12.5405 66.4368
12.5853 66.8283
12.6302 70.0432
12.6751 72.5816
12.72 70.0159
12.7649 69.7372
12.8098 70.7069
12.8547 71.8813
12.8996 73.663
12.9445 74.8974
12.9894 77.0223
13.0343 78.7646
13.0792 83.689
13.1242 101.243
13.1691 129.44
13.214 170.801
13.2589 249.762
13.3038 353.579
13.3487 415.778
13.3937 270.65
13.4386 130.544
13.4835 119.373
13.5285 138.447
13.5734 176.515
13.6183 246.556
13.6633 331.681
13.7082 341.186
13.7531 196.037
13.7981 101.168
13.843 84.5528
13.888 82.238
13.9329 79.6159
13.9779 78.1131
14.0228 76.9574
14.0678 75.539
14.1127 74.8378
14.1577 74.0626
14.2027 73.3593
14.2476 72.4203
14.2926 72.2585
14.3376 72.4111
14.3825 71.7465
14.4275 71.2286
14.4725 71.018
14.5175 71.0998
14.5624 71.4904
14.6074 72.4198
14.6524 72.7264
14.6974 73.1447
14.7424 77.8212
14.7874 87.1369
14.8324 99.2494
14.8774 121.57
14.9224 155.498
14.9674 199.286
15.0124 214.527
15.0574 151.064
15.1024 93.0061
15.1474 74.6288
15.1924 72.6813
15.2374 71.8423
15.2824 70.819
15.3274 69.4778
15.3725 68.9511
15.4175 68.2825
15.4625 68.1536
15.5076 67.9082
15.5526 67.9137
15.5976 68.4182
15.6426 71.9118
15.6877 79.5716
15.7327 88.5252
15.7778 104.117
15.8228 129.992
15.8679 165.311
15.9129 191.896
15.958 160.477
16.003 100.831
16.0481 69.5557
16.0931 65.0595
16.1382 63.2395
16.1833 62.0337
16.2283 60.5973
16.2734 59.9372
16.3185 59.5874
16.3636 59.4253
16.4086 58.4038
16.4537 57.4957
16.4988 57.0125
16.5439 57.0745
16.589 56.7899
16.6341 56.486
16.6792 55.8964
16.7243 56.4591
16.7694 56.2229
16.8145 56.6082
16.8596 56.6815
16.9047 57.2294
16.9498 57.5297
16.9949 57.179
17.04 58.0054
17.0851 59.7743
17.1302 61.5454
17.1754 64.7644
17.2205 69.6665
17.2656 75.2408
17.3108 83.0185
17.3559 83.5158
17.401 72.8184
17.4462 64.2993
17.4913 61.0157
17.5365 60.8043
17.5815 60.9577
17.6268 61.4945
17.6718 62.1985
17.7171 62.6692
17.7622 63.5857
17.8074 64.7801
17.8525 68.916
17.8977 73.4
17.9428 79.6259
17.9881 88.2746
18.0331 102.931
18.0784 119.98
18.1237 139.09
18.1688 135.671
18.214 109.089
18.2591 90.7823
18.3044 92.0641
18.3495 99.188
18.3948 105.396
18.4399 96.9851
18.4852 78.4133
18.5303 67.3741
18.5756 64.0119
18.6207 62.9151
18.666 62.1798
18.7112 61.4138
18.7565 60.7827
18.8016 60.4093
18.8469 59.7551
18.892 59.46
18.9374 58.8999
18.9825 58.6919
19.0278 58.585
19.073 58.9278
19.1183 59.7646
19.1635 60.4674
19.2088 62.0153
19.254 64.4319
19.2993 67.8273
19.3447 72.7571
19.3898 76.6719
19.4352 73.8341
19.4804 65.078
19.5257 58.1941
19.5709 55.9306
19.6163 55.3779
19.6615 55.3137
19.7068 54.9284
19.752 55.0438
19.7974 55.5952
19.8426 56.4522
19.888 57.192
19.9332 58.6902
19.9786 61.1815
20.0238 64.235
20.0692 68.1381
20.1144 71.5411
20.1598 70.7653
20.205 65.8216
20.2504 63.4829
20.2957 64.5833
20.3411 66.6097
20.3863 65.7576
20.4318 60.0078
20.477 55.0285
20.5224 52.5366
20.5677 52.1302
20.6131 51.6494
20.6586 51.1411
20.7038 51.0432
20.7493 50.4731
20.7945 50.4052
20.84 50.2685
20.8853 50.1109
20.9307 50.0093
20.976 50.1508
21.0215 50.1001
21.0668 50.5732
21.1122 50.8867
21.1575 51.5626
21.203 51.9664
21.2483 52.7543
21.2938 53.1137
21.3391 51.7588
21.3846 50.4489
21.4299 49.8406
21.4754 49.8429
21.5207 50.3163
21.5662 50.6101
21.6116 51.3283
21.6571 52.1448
21.7024 53.0564
21.7479 54.8436
21.7933 57.4708
21.8388 60.1561
21.8843 63.6406
21.9297 65.8677
21.9752 65.1619
22.0206 61.0661
22.0661 57.6631
22.1115 57.2373
22.157 57.2133
22.2024 55.8802
22.248 52.862
22.2933 51.3034
22.3389 50.3595
22.3843 50.261
22.4299 50.2155
22.4753 50.1305
22.5208 50.1465
22.5662 49.9485
22.6118 50.3876
22.6572 50.6414
22.7028 51.1413
22.7483 51.6778
22.7939 52.5347
22.8393 53.804
22.8849 55.2309
22.9303 57.0687
22.9759 58.849
23.0214 58.8231
23.067 56.0241
23.1126 52.6323
23.1581 50.6727
23.2037 50.2647
23.2492 50.7165
23.2948 50.6441
23.3403 50.9934
23.3859 51.7581
23.4314 52.5739
23.477 54.136
23.5225 55.839
23.5682 57.4745
23.6137 59.1876
23.6593 56.9964
23.7048 52.9366
23.7505 49.5346
23.796 47.9057
23.8417 47.2503
23.8872 46.7922
23.9329 46.5038
23.9784 46.224
24.0241 45.9465
24.0697 45.643
24.1154 45.3791
24.1609 45.2576
24.2066 45.2491
24.2522 45.0474
24.2979 44.6635
24.3434 44.5441
24.3892 44.326
24.4349 44.4629
24.4805 44.0835
24.5262 44.3681
24.5718 44.1526
24.6175 43.9823
24.6631 44.1077
24.7089 43.6794
24.7545 43.7135
24.8002 43.5287
24.8458 43.5911
24.8916 43.368
24.9372 43.5038
24.983 43.9935
25.0286 44.2478
25.0744 44.4519
25.12 45.0698
25.1658 45.5524
25.2114 45.9739
25.2572 46.0043
25.3029 45.6423
25.3487 45.9823
25.3943 45.7819
25.4402 44.6994
25.4858 43.649
25.5316 42.5381
25.5773 42.0329
25.6231 42.1003
25.669 41.6826
25.7147 41.7458
25.7605 41.6784
25.8062 41.7008
25.8521 41.7874
25.8977 41.8708
25.9436 42.1428
25.9893 42.0702
26.0352 42.6075
26.0809 42.7443
26.1268 42.8504
26.1725 42.5304
26.2184 42.0507
26.2641 41.5637
26.31 41.2247
26.3557 41.3588
26.4017 41.2574
26.4474 41.6931
26.4933 42.0025
26.5391 42.3309
26.585 42.7276
26.6308 43.0218
26.6767 43.3037
26.7225 43.112
26.7684 42.5733
26.8142 41.7604
26.8601 41.5314
26.9059 41.0337
26.9519 40.6102
26.9979 40.2722
27.0437 40.0006
27.0896 39.8863
27.1354 39.9301
27.1814 39.7232
27.2272 39.787
27.2732 39.5778
27.3191 39.4687
27.3651 39.624
27.4109 39.471
27.4569 39.5735
27.5027 39.658
27.5488 39.6738
27.5946 39.4596
27.6407 39.2535
27.6865 39.2394
27.7326 38.8793
27.7784 39.1758
27.8245 39.1042
27.8703 39.0582
27.9164 39.3675
27.9623 39.3119
28.0084 39.8549
28.0543 40.2201
28.1003 40.0355
28.1462 39.954
28.1923 39.4459
28.2384 38.9113
28.2843 38.6513
28.3304 38.1369
28.3764 37.7625
28.4225 37.3784
28.4684 37.1286
28.5145 37.0997
28.5605 36.7848
28.6066 36.6785
28.6526 36.5822
28.6987 36.6512
28.7447 36.5128
28.7908 36.3534
28.8368 36.3965
28.8829 36.3575
28.9289 36.3412
28.9751 36.1453
29.0211 35.8448
29.0673 35.6448
29.1133 35.4931
29.1595 35.4151
29.2055 35.2929
29.2517 35.3257
29.2977 35.1482
29.3439 35.201
29.3899 35.1006
29.4361 35.1293
29.4824 34.8676
29.5284 34.6734
29.5746 34.2306
29.6207 34.0999
29.6669 34.0395
29.713 33.9429
29.7593 33.9194
29.8053 33.791
29.8516 33.7977
29.8977 33.6357
29.9439 33.5625
29.99 33.408
30.0363 33.3003
30.0824 33.4696
30.1287 33.3865
30.1748 33.3034
30.2211 33.4185
30.2673 33.2009
30.3136 33.2989
30.3597 33.1401
30.406 33.1024
30.4522 33.0707
30.4985 32.8484
30.5447 33.047
30.591 33.0101
30.6372 33.0551
30.6835 33.134
30.7297 33.0424
30.7761 33.0125
30.8224 32.9078
30.8686 32.6868
30.915 32.4879
30.9612 32.3866
31.0076 32.1981
31.0538 32.0623
31.1002 32.0341
31.1464 31.8085
31.1928 31.9215
31.2391 31.8616
31.2855 31.7528
31.3317 31.7969
31.3781 31.7413
31.4244 31.631
31.4708 31.6915
31.5171 31.6245
31.5636 31.6874
31.6098 31.3227
31.6563 31.2413
31.7026 30.992
31.7491 30.9491
31.7953 30.9729
31.8418 31.0299
31.8881 30.9271
31.9346 30.9249
31.9809 30.8824
32.0275 30.7187
32.074 30.6225
32.1203 30.3779
32.1668 30.3614
32.2132 30.1985
32.2597 30.1431
32.306 29.9825
32.3526 29.7272
32.399 29.7058
32.4455 29.6443
32.4919 29.4976
32.5385 29.5013
32.5848 29.2871
32.6314 29.2852
32.6778 29.26
32.7244 29.0373
32.7708 28.9061
32.8174 28.9688
32.8638 28.858
32.9104 28.8424
32.9569 28.8223
33.0035 28.6033
33.0499 28.5895
33.0966 28.5466
33.143 28.5081
33.1897 28.4969
33.2361 28.27
33.2828 28.1701
33.3293 28.1534
33.3759 28.1376
33.4226 27.9767
33.4691 27.8129
33.5158 27.7719
33.5623 27.5875
33.609 27.5414
33.6555 27.3699
33.7022 27.3283
33.7487 27.2658
33.7954 27.2358
33.842 27.1712
33.8887 27.0162
33.9353 26.9859
33.982 26.8533
34.0286 26.7232
34.0753 26.7283
34.1219 26.6475
34.1687 26.5194
34.2152 26.4378
34.262 26.3336
34.3086 26.242
34.3554 26.2328
34.402 26.0813
34.4488 25.9599
34.4954 25.9791
34.5422 25.7522
34.5889 25.6909
34.6357 25.678
34.6825 25.5857
34.7292 25.4844
34.776 25.4434
34.8227 25.3819
34.8695 25.2349
34.9162 25.1609
34.9631 25.1858
35.0098 25.1669
35.0566 25.0381
35.1033 24.9099
35.1502 24.9941
35.1969 24.8449
35.2438 24.7961
35.2906 24.7229
35.3375 24.7536
35.3842 24.5708
35.4311 24.6175
35.4779 24.5659
35.5248 24.5481
35.5716 24.4532
35.6185 24.3508
35.6653 24.2777
35.7123 24.2224
35.759 24.06
35.806 24.0345
35.8528 23.8468
35.8998 23.8033
35.9468 23.7238
35.9936 23.6876
36.0406 23.6318
36.0874 23.5729
36.1345 23.421
36.1813 23.4699
36.2283 23.311
36.2752 23.1723
36.3222 23.2407
36.3691 23.1313
36.4161 23.0399
36.463 23.0003
36.5101 23.0555
36.557 22.9659
36.6041 22.8401
36.651 22.752
36.6981 22.7297
36.745 22.5643
36.7921 22.5737
36.839 22.3837
36.8861 22.3421
36.9331 22.3091
36.9802 22.2188
37.0272 22.1666
37.0743 22.0489
37.1213 22.0313
37.1684 21.9529
37.2154 21.9317
37.2626 21.7911
37.3098 21.6476
37.3568 21.7287
37.404 21.6286
37.451 21.5306
37.4982 21.5076
37.5452 21.3913
37.5924 21.361
37.6395 21.3527
37.6867 21.2478
37.7337 21.0767
37.781 21.0717
37.8281 20.9817
37.8753 20.9494
37.9224 20.9086
37.9697 20.8019
38.0168 20.7927
38.064 20.6499
38.1111 20.6327
38.1584 20.5274
38.2056 20.418
38.2529 20.4509
38.3 20.3481
38.3473 20.3089
38.3945 20.1474
38.4418 20.1929
38.489 20.0676
38.5363 20.065
38.5837 19.9316
38.6309 19.9241
38.6782 19.8584
38.7254 19.7431
38.7728 19.6788
38.82 19.6053
38.8674 19.6295
38.9146 19.5477
38.9621 19.461
39.0093 19.3994
39.0567 19.347
39.104 19.2296
39.1514 19.1701
39.1987 19.1273
39.2461 19.1189
39.2934 19.0099
39.3409 18.937
39.3882 18.8221
39.4356 18.7974
39.483 18.7583
39.5304 18.6657
39.5778 18.6808
39.6253 18.6504
39.6726 18.5203
39.7201 18.5382
39.7675 18.4464
39.815 18.401
39.8624 18.3042
39.9099 18.3105
39.9575 18.258
40.0049 18.1348
40.0525 18.1058
40.0999 18.024
40.1474 18.0417
40.1949 17.9008
40.2425 17.8204
40.2899 17.7926
40.3375 17.719
40.385 17.7127
40.4326 17.6829
40.48 17.5312
40.5277 17.4911
40.5752 17.5244
40.6228 17.3805
40.6703 17.3343
40.718 17.2863
40.7655 17.209
40.8132 17.1321
40.8607 17.1329
40.9084 17.1676
40.9559 17.0435
41.0036 17.0127
41.0512 16.9936
41.0989 16.8749
41.1465 16.8641
41.1942 16.7408
41.242 16.6504
41.2896 16.6169
41.3373 16.5605
41.3849 16.5644
41.4327 16.4721
41.4803 16.3253
41.5281 16.3644
41.5758 16.3332
41.6236 16.1981
41.6712 16.1934
41.7191 16.1416
41.7667 16.0587
41.8146 16.0403
41.8622 15.9795
41.9101 15.9101
41.9578 15.828
42.0057 15.8477
42.0534 15.7643
42.1013 15.7255
42.149 15.6488
42.1969 15.5618
42.2446 15.6057
42.2925 15.4821
42.3403 15.4395
42.3882 15.4607
42.436 15.3589
42.4839 15.2593
42.5319 15.3281
42.5797 15.2282
42.6277 15.1356
42.6755 15.11
42.7235 15.0252
42.7713 15.0075
42.8193 14.9469
42.8671 14.8668
42.9152 14.849
42.963 14.7718
43.0111 14.7717
43.0589 14.6675
43.107 14.6104
43.1549 14.6211
43.2029 14.4909
43.2508 14.4895
43.2989 14.4082
43.3468 14.3186
43.3949 14.3441
43.4429 14.2969
43.491 14.2221
43.5389 14.2119
43.5871 14.1301
43.635 14.0913
43.6832 14.0696
43.7312 13.9898
43.7793 13.9658
43.8273 13.9279
43.8755 13.8323
43.9237 13.8072
43.9717 13.7634
44.0199 13.6425
44.068 13.6814
44.1162 13.6238
44.1642 13.5644
44.2125 13.5127
44.2606 13.4426
44.3088 13.3821
44.3569 13.393
44.4052 13.3285
44.4533 13.2789
44.5016 13.2494
44.5497 13.1905
44.598 13.1134
44.6461 13.0638
44.6945 13.0643
44.7426 12.9991
44.791 12.9135
44.8391 12.9408
44.8875 12.8685
44.9357 12.82
44.984 12.771
45.0322 12.7159
45.0806 12.673
45.1288 12.6572
45.1773 12.57
45.2257 12.5398
45.2739 12.4904
45.3224 12.489
45.3706 12.3882
45.4191 12.3814
45.4673 12.356
45.5158 12.2777
45.5641 12.2281
45.6126 12.2088
45.6609 12.1607
45.7094 12.0957
45.7577 12.0407
45.8063 12.0138
45.8546 11.9992
45.9031 11.9232
45.9515 11.8643
46.0001 11.8504
46.0484 11.8159
46.097 11.7814
46.1454 11.7228
46.194 11.729
46.2424 11.6685
46.291 11.5565
46.3395 11.518
46.3881 11.5164
46.4365 11.4859
46.4852 11.3947
46.5337 11.3787
46.5823 11.3375
46.631 11.2918
46.6795 11.2746
46.7282 11.2263
46.7767 11.1928
46.8254 11.136
46.8739 11.1321
46.9226 11.0593
46.9712 10.9992
47.0199 10.9793
47.0685 10.968
47.1173 10.9132
47.1658 10.8753
47.2146 10.8391
47.2632 10.7383
47.312 10.7116
47.3606 10.6857
47.4095 10.6568
47.4581 10.5853
47.5069 10.5723
47.5556 10.5343
47.6044 10.4856
47.6531 10.4669
47.702 10.3883
47.7507 10.37
47.7996 10.3378
47.8483 10.2915
47.8972 10.2537
47.9461 10.2225
47.9948 10.2056
48.0438 10.1152
48.0925 10.1283
48.1415 10.113
48.1902 10.0203
48.2392 10.0314
48.288 9.97721
48.337 9.97323
48.3858 9.9172
48.4348 9.86787
48.4837 9.86432
48.5327 9.78393
48.5815 9.78423
48.6306 9.72172
48.6795 9.70182
48.7285 9.66984
48.7774 9.64348
48.8265 9.5815
48.8754 9.54962
48.9245 9.48396
48.9734 9.44809
49.0226 9.50666
49.0715 9.39176
49.1206 9.36725
49.1696 9.35065
49.2188 9.30452
49.2679 9.26231
49.3169 9.2211
49.3661 9.20541
49.4151 9.16528
49.4643 9.14515
49.5134 9.09071
49.5626 9.0317
49.6117 9.01887
49.6609 8.92979
49.71 8.93232
49.7592 8.9016
49.8083 8.86947
49.8576 8.85429
49.9067 8.79149
49.956 8.81118
50.0052 8.7418
50.0545 8.66965
50.1036 8.67314
50.153 8.64448
50.2022 8.62291
50.2515 8.56042
50.3007 8.51331
50.3501 8.51598
50.3993 8.47835
50.4487 8.42598
50.498 8.43901
50.5474 8.37182
50.5966 8.33601
50.6461 8.31926
50.6955 8.29736
50.7448 8.24015
50.7943 8.22322
50.8436 8.19522
50.8931 8.14966
50.9424 8.11566
50.9919 8.09801
51.0413 8.04525
51.0908 8.03212
51.1402 8.00394
51.1897 7.94845
51.2391 7.93058
51.2887 7.86507
51.3381 7.83948
51.3877 7.87138
51.4371 7.77946
51.4867 7.77029
51.5362 7.73188
51.5858 7.68107
51.6353 7.67012
51.6849 7.65635
51.7344 7.62743
51.7841 7.61167
51.8336 7.55762
51.8833 7.52658
51.9328 7.48311
51.9826 7.42359
52.0323 7.39167
52.0818 7.37807
52.1316 7.33151
52.1812 7.36763
52.231 7.26425
52.2806 7.23721
52.3304 7.26
52.38 7.18438
52.4298 7.21562
52.4794 7.16923
52.5293 7.14001
52.5789 7.09017
52.6288 7.09723
52.6785 7.04468
52.7284 6.99155
52.7781 6.97681
52.828 6.93521
52.8777 6.89592
52.9276 6.88788
52.9774 6.85659
53.0273 6.84215
53.0771 6.77681
53.1271 6.81068
53.1769 6.73463
53.2269 6.71276
53.2767 6.64089
53.3267 6.66626
53.3765 6.65111
53.4266 6.60123
53.4766 6.58696
53.5265 6.53801
53.5765 6.52197
53.6264 6.48289
53.6765 6.45321
53.7264 6.42144
53.7765 6.40002
53.8265 6.39261
53.8766 6.35499
53.9266 6.30151
53.9767 6.28962
54.0267 6.27194
54.0769 6.23635
54.1269 6.19781
54.1771 6.1317
54.2271 6.13447
54.2773 6.089
54.3274 6.13466
54.3776 6.01909
54.4277 5.97087
54.478 5.9627
54.528 5.95278
54.5783 5.89232
54.6285 5.86882
54.6788 5.82242
54.7289 5.71858
54.7792 5.73546
54.8296 5.66079
54.8798 5.66125
54.9301 5.61479
54.9803 5.55308
55.0307 5.56772
55.0809 5.50061
55.1314 5.50137
55.1816 5.43037
55.232 5.36771
55.2823 5.32771
55.3328 5.23462
55.383 5.20762
55.4335 5.1272
55.4838 5.08074
55.5344 5.06542
55.5847 5.00249
55.6352 5.03196
55.6856 4.95351
55.7361 4.94726