File: XRD/Ni3Fe_FD0505.xy
TT I
1.27165 7.61976
1.31627 6.76116
1.36089 6.92742
1.40551 5.93343
1.45013 6.77004
1.49476 6.46628
1.53938 5.65098
1.584 5.63445
1.62863 5.50146
1.67325 5.41602
1.71787 5.00666
1.7625 4.93872
1.80712 5.02568
1.85174 5.21371
1.89636 5.04426
1.94099 4.96536
1.98562 5.01099
2.03025 4.67779
2.07487 4.84527
2.11949 5.22321
2.16411 4.8631
2.20874 14.3647
2.25338 23.1709
2.298 5.81461
2.34263 5.05935
2.38725 5.30791
2.43188 6.55685
2.4765 6.663
2.52115 6.726
2.56577 7.2808
2.6104 7.77585
2.65503 7.47065
2.69965 7.03236
2.7443 7.85098
2.78893 8.05752
2.83356 8.36528
2.87818 8.37964
2.92281 9.09399
2.96744 9.98389
3.01209 10.7331
3.05672 11.0586
3.10135 12.1751
3.14599 13.557
3.19062 14.5875
3.23527 15.2994
3.2799 15.9083
3.32454 17.2406
3.36917 18.1666
3.4138 19.0753
3.45844 20.0135
3.50309 21.6528
3.54773 22.2843
3.59237 24.3462
3.637 91.9042
3.68164 58.276
3.7263 26.4078
3.77094 26.3156
3.81558 27.0452
3.86022 28.3457
3.90486 29.3332
3.9495 30.2124
3.99416 31.5039
4.0388 32.5107
4.08344 34.4229
4.12809 35.229
4.17273 37.7092
4.21738 43.6082
4.26204 247.429
4.30669 214.895
4.35133 49.0781
4.39598 45.1173
4.44063 54.3835
4.4853 66.1645
4.52995 51.3885
4.5746 52.1302
4.61925 54.1586
4.6639 56.0468
4.70855 58.4422
4.75322 61.4806
4.79788 64.4817
4.84253 68.1459
4.88719 72.5803
4.93184 76.0267
4.97652 81.9549
5.02118 87.748
5.06583 95.9979
5.11049 108.577
5.15515 178.874
5.19981 393.282
5.24449 3044.65
5.28916 12032.8
5.33382 3307.09
5.37848 206.009
5.42315 134.229
5.46783 117.487
5.5125 108.228
5.55716 104.004
5.60183 100.472
5.6465 98.5534
5.69117 95.6793
5.73586 93.7632
5.78053 93.49
5.8252 92.6727
5.86988 93.8887
5.91455 96.3556
5.95924 104.924
6.00392 221.58
6.0486 1020.92
6.09328 4196.34
6.13795 3422.22
6.18263 292.633
6.22733 97.4684
6.27201 85.0246
6.3167 103.609
6.36138 81.5491
6.40606 70.071
6.45075 68.092
6.49545 66.2383
6.54014 64.8024
6.58483 63.6575
6.62952 63.7639
6.67421 95.3668
6.71892 143.999
6.76361 69.3559
6.8083 59.4312
6.853 58.5374
6.89769 57.9255
6.94239 57.3731
6.98711 56.459
7.03181 56.4878
7.07651 55.8319
7.12121 56.0044
7.16591 56.1933
7.21063 56.4717
7.25533 71.4763
7.30004 176.915
7.34475 91.4194
7.38945 57.5061
7.43416 55.4444
7.47889 55.3253
7.5236 55.2698
7.56831 56.0457
7.61303 58.0515
7.65774 58.0613
7.70247 57.012
7.74719 57.0906
7.79191 57.3478
7.83663 57.7072
7.88135 58.7341
7.92607 59.8412
7.97081 60.7457
8.01553 61.8663
8.06026 63.2422
8.10498 64.897
8.14971 74.2056
8.19446 73.1252
8.23919 70.4119
8.28392 72.436
8.32865 74.8895
8.37339 79.4093
8.41812 86.8552
8.46288 116.104
8.50761 170.099
8.55235 406.312
8.59709 1166.23
8.64183 2149.05
8.68658 1064.24
8.73134 180.621
8.77609 102.114
8.82083 94.3513
8.86558 91.0868
8.91033 91.082
8.9551 92.7545
8.99985 87.0082
9.04461 84.4351
9.08936 84.2341
9.13412 83.2209
9.17888 83.1819
9.22365 83.9094
9.26841 83.3368
9.31318 83.5679
9.35794 83.7
9.4027 84.017
9.44749 85.0336
9.49226 85.7164
9.53703 86.7771
9.5818 88.656
9.62657 93.0086
9.67134 99.3933
9.71614 94.8855
9.76091 95.1048
9.80569 97.589
9.85047 101.209
9.89525 125.296
9.94005 137.643
9.98484 181.809
10.0296 358.628
10.0744 814.313
10.1192 1650.63
10.164 1626.99
10.2088 447.497
10.2536 135.721
10.2984 115.701
10.3432 116.819
10.388 105.806
10.4328 120.639
10.4776 164.537
10.5224 284.01
10.5672 493.07
10.612 509.525
10.6568 223.805
10.7017 100.008
10.7465 88.1236
10.7913 84.046
10.8361 82.1672
10.8809 79.9686
10.9257 79.4724
10.9706 79.9027
11.0154 76.1528
11.0602 73.7765
11.105 72.6566
11.1499 77.162
11.1947 84.088
11.2395 75.2937
11.2844 71.4119
11.3292 68.0173
11.374 66.8982
11.4189 66.191
11.4637 65.8269
11.5086 66.1848
11.5534 69.362
11.5983 66.3302
11.6431 64.6566
11.688 63.9185
11.7328 63.5299
11.7777 63.8327
11.8225 63.2922
11.8674 63.2229
11.9122 63.3956
11.9571 63.7792
12.002 64.2829
12.0468 68.9006
12.0917 80.8602
12.1366 105.536
12.1814 153.977
12.2263 200.16
12.2712 171.155
12.3161 101.647
12.3609 72.1223
12.4058 65.5948
12.4507 65.2706
12.4956 65.2457
12.5405 65.6707
12.5853 66.4335
12.6302 73.795
12.6751 79.6328
12.72 70.797
12.7649 68.7494
12.8098 68.9473
12.8547 70.327
12.8996 71.89
12.9445 72.9337
12.9894 75.1525
13.0343 76.9169
13.0792 79.9388
13.1242 89.7174
13.1691 114.673
13.214 151.925
13.2589 237.67
13.3038 360.987
13.3487 424.8
13.3937 279.054
13.4386 131.674
13.4835 107.782
13.5285 123.418
13.5734 161.283
13.6183 245.225
13.6633 334.212
13.7082 338.877
13.7531 202.025
13.7981 103.358
13.843 83.5385
13.888 80.5516
13.9329 78.0158
13.9779 76.7628
14.0228 75.4559
14.0678 74.0106
14.1127 73.5991
14.1577 73.5505
14.2027 72.4152
14.2476 71.0984
14.2926 71.4726
14.3376 72.7488
14.3825 71.2561
14.4275 69.7364
14.4725 69.4451
14.5175 69.8548
14.5624 70.0872
14.6074 72.254
14.6524 72.4464
14.6974 71.3649
14.7424 72.896
14.7874 80.4541
14.8324 90.5004
14.8774 112.22
14.9224 152.803
14.9674 200.066
15.0124 214.107
15.0574 155.041
15.1024 95.5686
15.1474 73.6925
15.1924 71.5391
15.2374 71.756
15.2824 71.2199
15.3274 69.3109
15.3725 67.7013
15.4175 67.2966
15.4625 66.9231
15.5076 67.0663
15.5526 67.1503
15.5976 66.6752
15.6426 67.5408
15.6877 73.2132
15.7327 81.3119
15.7778 96.4721
15.8228 126.215
15.8679 166.962
15.9129 189.274
15.958 160.18
16.003 102.924
16.0481 70.4476
16.0931 65.7437
16.1382 63.4986
16.1833 61.6578
16.2283 59.6568
16.2734 59.1102
16.3185 59.3985
16.3636 60.1487
16.4086 58.6519
16.4537 56.9812
16.4988 56.443
16.5439 56.2402
16.589 55.9813
16.6341 55.7577
16.6792 55.3486
16.7243 55.6068
16.7694 55.7293
16.8145 55.7144
16.8596 55.989
16.9047 57.4346
16.9498 57.8262
16.9949 56.6133
17.04 56.4831
17.0851 57.6282
17.1302 59.3994
17.1754 62.3838
17.2205 67.3368
17.2656 74.5336
17.3108 81.6225
17.3559 82.4443
17.401 72.7658
17.4462 63.729
17.4913 60.0283
17.5365 59.6768
17.5815 60.1623
17.6268 60.2134
17.6718 61.2785
17.7171 61.6525
17.7622 62.0682
17.8074 62.5066
17.8525 64.9393
17.8977 69.273
17.9428 74.8992
17.9881 83.4633
18.0331 99.8165
18.0784 120.15
18.1237 137.608
18.1688 133.914
18.214 107.749
18.2591 89.1765
18.3044 91.1567
18.3495 99.8927
18.3948 105.625
18.4399 98.5313
18.4852 80.462
18.5303 67.6172
18.5756 63.167
18.6207 62.2103
18.666 61.1228
18.7112 60.4483
18.7565 59.846
18.8016 59.3258
18.8469 58.6657
18.892 58.5266
18.9374 57.9915
18.9825 57.7122
19.0278 57.5688
19.073 57.813
19.1183 58.359
19.1635 58.9791
19.2088 60.2057
19.254 62.7029
19.2993 66.996
19.3447 72.8046
19.3898 76.7809
19.4352 73.3913
19.4804 64.892
19.5257 57.8893
19.5709 55.0454
19.6163 54.6545
19.6615 54.5348
19.7068 53.9237
19.752 53.8158
19.7974 54.2782
19.8426 55.1905
19.888 55.9257
19.9332 57.0911
19.9786 59.5402
20.0238 62.7659
20.0692 67.1242
20.1144 70.2202
20.1598 69.2299
20.205 64.7799
20.2504 63.2363
20.2957 64.1742
20.3411 65.6561
20.3863 64.9411
20.4318 59.8387
20.477 54.6634
20.5224 52.3748
20.5677 51.6149
20.6131 50.9751
20.6586 50.4468
20.7038 50.1545
20.7493 49.7852
20.7945 49.7075
20.84 49.4645
20.8853 49.5006
20.9307 49.2562
20.976 49.2273
21.0215 49.3227
21.0668 49.764
21.1122 50.1483
21.1575 50.8705
21.203 51.5162
21.2483 51.8311
21.2938 52.0307
21.3391 50.9758
21.3846 49.872
21.4299 49.2985
21.4754 49.1895
21.5207 49.2312
21.5662 49.4389
21.6116 49.7809
21.6571 50.6569
21.7024 51.5263
21.7479 53.2404
21.7933 55.9455
21.8388 59.3031
21.8843 62.6687
21.9297 64.9843
21.9752 64.41
22.0206 61.0053
22.0661 57.4304
22.1115 56.5717
22.157 56.5143
22.2024 55.2741
22.248 52.4672
22.2933 50.7434
22.3389 49.7702
22.3843 49.7145
22.4299 49.5966
22.4753 49.6215
22.5208 49.1838
22.5662 49.0817
22.6118 49.2034
22.6572 49.5058
22.7028 49.9518
22.7483 50.4626
22.7939 51.1956
22.8393 52.5524
22.8849 54.331
22.9303 56.5122
22.9759 58.1382
23.0214 58.1068
23.067 55.3563
23.1126 52.1567
23.1581 50.0349
23.2037 49.4429
23.2492 49.4564
23.2948 49.6245
23.3403 49.8848
23.3859 50.4374
23.4314 51.5112
23.477 53.1455
23.5225 55.1419
23.5682 56.9574
23.6137 58.0134
23.6593 56.5466
23.7048 52.7534
23.7505 49.3706
23.796 47.2993
23.8417 46.6194
23.8872 46.1837
23.9329 45.7448
23.9784 45.3602
24.0241 45.3281
24.0697 45.0143
24.1154 44.6509
24.1609 44.7759
24.2066 44.3765
24.2522 44.4053
24.2979 44.075
24.3434 43.9649
24.3892 43.7634
24.4349 43.8635
24.4805 43.5849
24.5262 43.7555
24.5718 43.4209
24.6175 43.5164
24.6631 43.3828
24.7089 43.1806
24.7545 43.0155
24.8002 42.7556
24.8458 42.9509
24.8916 42.6857
24.9372 42.7465
24.983 43.1585
25.0286 43.3602
25.0744 43.8259
25.12 44.3231
25.1658 44.7866
25.2114 45.1782
25.2572 45.3388
25.3029 45.4162
25.3487 45.2629
25.3943 45.2359
25.4402 44.2563
25.4858 43.2464
25.5316 42.1569
25.5773 41.594
25.6231 41.5247
25.669 41.0444
25.7147 41.0768
25.7605 41.1395
25.8062 40.9945
25.8521 41.2382
25.8977 41.2013
25.9436 41.5286
25.9893 41.4805
26.0352 41.9436
26.0809 41.9767
26.1268 42.2375
26.1725 41.9483
26.2184 41.4359
26.2641 40.924
26.31 40.6549
26.3557 40.7038
26.4017 40.6802
26.4474 40.9406
26.4933 41.4172
26.5391 41.7619
26.585 42.0964
26.6308 42.5093
26.6767 42.6569
26.7225 42.515
26.7684 42.0637
26.8142 41.3663
26.8601 41.0195
26.9059 40.509
26.9519 40.1298
26.9979 39.7503
27.0437 39.4334
27.0896 39.1975
27.1354 39.3325
27.1814 39.2616
27.2272 38.9891
27.2732 39.151
27.3191 38.8388
27.3651 38.9651
27.4109 39.0478
27.4569 38.9447
27.5027 39.02
27.5488 39.0249
27.5946 38.7816
27.6407 38.7174
27.6865 38.7619
27.7326 38.3627
27.7784 38.4805
27.8245 38.3637
27.8703 38.5363
27.9164 38.7608
27.9623 38.9806
28.0084 39.1139
28.0543 39.484
28.1003 39.4868
28.1462 39.3885
28.1923 38.9611
28.2384 38.4171
28.2843 38.1699
28.3304 37.7902
28.3764 37.3175
28.4225 37.009
28.4684 36.7662
28.5145 36.4526
28.5605 36.401
28.6066 36.1992
28.6526 36.241
28.6987 36.0474
28.7447 35.9324
28.7908 35.8217
28.8368 35.9127
28.8829 35.9432
28.9289 35.8476
28.9751 35.5235
29.0211 35.4497
29.0673 35.1888
29.1133 34.9722
29.1595 34.9438
29.2055 34.8013
29.2517 34.9172
29.2977 34.7375
29.3439 34.6285
29.3899 34.6061
29.4361 34.5457
29.4824 34.5305
29.5284 34.2448
29.5746 33.851
29.6207 33.6407
29.6669 33.6067
29.713 33.4621
29.7593 33.3946
29.8053 33.3572
29.8516 33.2064
29.8977 33.2559
29.9439 32.963
29.99 33.0155
30.0363 32.9018
30.0824 32.9162
30.1287 32.8491
30.1748 32.9066
30.2211 32.8649
30.2673 32.6672
30.3136 32.8548
30.3597 32.7236
30.406 32.6415
30.4522 32.5715
30.4985 32.5148
30.5447 32.5928
30.591 32.478
30.6372 32.5192
30.6835 32.5537
30.7297 32.5988
30.7761 32.603
30.8224 32.5368
30.8686 32.308
30.915 32.0092
30.9612 31.9449
31.0076 31.7415
31.0538 31.6949
31.1002 31.4816
31.1464 31.3454
31.1928 31.379
31.2391 31.4606
31.2855 31.3854
31.3317 31.2365
31.3781 31.3138
31.4244 31.2996
31.4708 31.2062
31.5171 31.275
31.5636 31.0765
31.6098 30.8486
31.6563 30.7864
31.7026 30.5864
31.7491 30.4544
31.7953 30.6397
31.8418 30.4983
31.8881 30.5633
31.9346 30.5868
31.9809 30.4066
32.0275 30.3542
32.074 30.3239
32.1203 30.0397
32.1668 29.8638
32.2132 29.7162
32.2597 29.6576
32.306 29.5435
32.3526 29.3812
32.399 29.3555
32.4455 29.0962
32.4919 29.0704
32.5385 29.0186
32.5848 28.8609
32.6314 28.8868
32.6778 28.8163
32.7244 28.5924
32.7708 28.537
32.8174 28.582
32.8638 28.3741
32.9104 28.465
32.9569 28.432
33.0035 28.2811
33.0499 28.2461
33.0966 28.2032
33.143 28.1537
33.1897 28.0849
33.2361 27.9612
33.2828 27.9519
33.3293 27.6938
33.3759 27.8188
33.4226 27.6306
33.4691 27.545
33.5158 27.3321
33.5623 27.2765
33.609 27.0927
33.6555 27.002
33.7022 27.0111
33.7487 26.8778
33.7954 26.8619
33.842 26.8175
33.8887 26.776
33.9353 26.6378
33.982 26.4091
34.0286 26.4628
34.0753 26.4391
34.1219 26.3081
34.1687 26.1409
34.2152 26.1213
34.262 25.9947
34.3086 25.9343
34.3554 25.8763
34.402 25.6806
34.4488 25.6004
34.4954 25.5821
34.5422 25.5443
34.5889 25.4346
34.6357 25.319
34.6825 25.2301
34.7292 25.2167
34.776 25.0726
34.8227 24.9802
34.8695 25.0002
34.9162 24.8712
34.9631 24.8156
35.0098 24.8617
35.0566 24.634
35.1033 24.6323
35.1502 24.605
35.1969 24.5192
35.2438 24.4755
35.2906 24.3698
35.3375 24.3865
35.3842 24.2881
35.4311 24.3482
35.4779 24.2577
35.5248 24.0997
35.5716 24.0183
35.6185 24.021
35.6653 23.9736
35.7123 23.8073
35.759 23.7693
35.806 23.6669
35.8528 23.583
35.8998 23.5133
35.9468 23.365
35.9936 23.4109
36.0406 23.2717
36.0874 23.2605
36.1345 23.1623
36.1813 23.1121
36.2283 22.982
36.2752 22.9972
36.3222 22.9108
36.3691 22.8345
36.4161 22.7053
36.463 22.6572
36.5101 22.7044
36.557 22.6661
36.6041 22.461
36.651 22.4721
36.6981 22.4468
36.745 22.3803
36.7921 22.2485
36.839 22.1664
36.8861 22.0886
36.9331 22.0772
36.9802 21.8953
37.0272 21.9151
37.0743 21.7875
37.1213 21.785
37.1684 21.6772
37.2154 21.6369
37.2626 21.6166
37.3098 21.5409
37.3568 21.3563
37.404 21.3679
37.451 21.2908
37.4982 21.2446
37.5452 21.1718
37.5924 21.1108
37.6395 21.1691
37.6867 21.0555
37.7337 20.906
37.781 20.7954
37.8281 20.7172
37.8753 20.7023
37.9224 20.6315
37.9697 20.5843
38.0168 20.5306
38.064 20.4401
38.1111 20.3818
38.1584 20.3522
38.2056 20.2006
38.2529 20.1817
38.3 20.0929
38.3473 20.1106
38.3945 19.9578
38.4418 19.9651
38.489 19.873
38.5363 19.8273
38.5837 19.7634
38.6309 19.6382
38.6782 19.5751
38.7254 19.4529
38.7728 19.4907
38.82 19.3396
38.8674 19.3915
38.9146 19.2796
38.9621 19.2238
39.0093 19.1629
39.0567 19.134
39.104 19.0061
39.1514 18.9351
39.1987 18.9146
39.2461 18.8517
39.2934 18.824
39.3409 18.6811
39.3882 18.655
39.4356 18.6026
39.483 18.5922
39.5304 18.5567
39.5778 18.5027
39.6253 18.4446
39.6726 18.3005
39.7201 18.302
39.7675 18.2008
39.815 18.1537
39.8624 18.1296
39.9099 18.082
39.9575 18.0017
40.0049 17.9574
40.0525 17.8194
40.0999 17.8173
40.1474 17.8066
40.1949 17.7029
40.2425 17.6021
40.2899 17.5954
40.3375 17.5225
40.385 17.49
40.4326 17.3844
40.48 17.3791
40.5277 17.3536
40.5752 17.2744
40.6228 17.1498
40.6703 17.1574
40.718 17.0486
40.7655 17.0107
40.8132 16.9686
40.8607 16.9537
40.9084 16.8876
40.9559 16.7919
41.0036 16.8365
41.0512 16.7457
41.0989 16.6818
41.1465 16.6029
41.1942 16.568
41.242 16.4973
41.2896 16.4277
41.3373 16.4494
41.3849 16.3403
41.4327 16.3514
41.4803 16.2383
41.5281 16.2149
41.5758 16.1707
41.6236 16.1283
41.6712 16.0014
41.7191 15.967
41.7667 15.8813
41.8146 15.9247
41.8622 15.8044
41.9101 15.7178
41.9578 15.68
42.0057 15.6239
42.0534 15.5811
42.1013 15.5548
42.149 15.5084
42.1969 15.4266
42.2446 15.4364
42.2925 15.3241
42.3403 15.2714
42.3882 15.2049
42.436 15.1431
42.4839 15.1021
42.5319 15.0533
42.5797 15.014
42.6277 14.9969
42.6755 14.9601
42.7235 14.8902
42.7713 14.8419
42.8193 14.729
42.8671 14.7047
42.9152 14.6623
42.963 14.6147
43.0111 14.5527
43.0589 14.5612
43.107 14.4872
43.1549 14.4361
43.2029 14.3181
43.2508 14.3285
43.2989 14.2655
43.3468 14.1648
43.3949 14.1684
43.4429 14.138
43.491 14.023
43.5389 14.024
43.5871 13.9358
43.635 13.9537
43.6832 13.8443
43.7312 13.7774
43.7793 13.7958
43.8273 13.7263
43.8755 13.6616
43.9237 13.6523
43.9717 13.5879
44.0199 13.5503
44.068 13.4807
44.1162 13.4379
44.1642 13.4564
44.2125 13.3804
44.2606 13.2801
44.3088 13.2457
44.3569 13.2068
44.4052 13.1886
44.4533 13.1508
44.5016 13.0849
44.5497 12.9929
44.598 12.9927
44.6461 12.9273
44.6945 12.8926
44.7426 12.8762
44.791 12.7891
44.8391 12.7458
44.8875 12.7518
44.9357 12.6495
44.984 12.6271
45.0322 12.5819
45.0806 12.5655
45.1288 12.4881
45.1773 12.4205
45.2257 12.3926
45.2739 12.3871
45.3224 12.3181
45.3706 12.2785
45.4191 12.1687
45.4673 12.1792
45.5158 12.1655
45.5641 12.1215
45.6126 12.0607
45.6609 11.9981
45.7094 11.9569
45.7577 11.9326
45.8063 11.8713
45.8546 11.8237
45.9031 11.8189
45.9515 11.7601
46.0001 11.7018
46.0484 11.7112
46.097 11.6806
46.1454 11.5772
46.194 11.6204
46.2424 11.5141
46.291 11.4912
46.3395 11.4253
46.3881 11.3606
46.4365 11.3416
46.4852 11.3176
46.5337 11.2476
46.5823 11.2262
46.631 11.138
46.6795 11.1072
46.7282 11.0942
46.7767 11.1067
46.8254 10.9858
46.8739 10.9554
46.9226 10.9561
46.9712 10.9263
47.0199 10.8576
47.0685 10.8126
47.1173 10.8004
47.1658 10.7218
47.2146 10.6902
47.2632 10.6506
47.312 10.5743
47.3606 10.567
47.4095 10.5105
47.4581 10.4673
47.5069 10.4312
47.5556 10.3849
47.6044 10.3942
47.6531 10.3246
47.702 10.3175
47.7507 10.2297
47.7996 10.216
47.8483 10.1487
47.8972 10.1511
47.9461 10.1344
47.9948 10.074
48.0438 10.0336
48.0925 10.0213
48.1415 9.98012
48.1902 9.92718
48.2392 9.93122
48.288 9.88348
48.337 9.8604
48.3858 9.7706
48.4348 9.75744
48.4837 9.71467
48.5327 9.69453
48.5815 9.66511
48.6306 9.63222
48.6795 9.60521
48.7285 9.53143
48.7774 9.49734
48.8265 9.4594
48.8754 9.40353
48.9245 9.42407
48.9734 9.36388
49.0226 9.34621
49.0715 9.30395
49.1206 9.24529
49.1696 9.23733
49.2188 9.2071
49.2679 9.18897
49.3169 9.13104
49.3661 9.0916
49.4151 9.03143
49.4643 9.02295
49.5134 8.95233
49.5626 8.92839
49.6117 8.91795
49.6609 8.90385
49.71 8.84726
49.7592 8.8306
49.8083 8.7475
49.8576 8.77349
49.9067 8.70727
49.956 8.71688
50.0052 8.66853
50.0545 8.61534
50.1036 8.57403
50.153 8.60062
50.2022 8.49914
50.2515 8.47346
50.3007 8.44681
50.3501 8.40033
50.3993 8.37803
50.4487 8.38627
50.498 8.32679
50.5474 8.25111
50.5966 8.24253
50.6461 8.21391
50.6955 8.18379
50.7448 8.16341
50.7943 8.1458
50.8436 8.1213
50.8931 8.08023
50.9424 8.07688
50.9919 8.02189
51.0413 7.99869
51.0908 7.92871
51.1402 7.93283
51.1897 7.84685
51.2391 7.88158
51.2887 7.81504
51.3381 7.74483
51.3877 7.75922
51.4371 7.69339
51.4867 7.63548
51.5362 7.65629
51.5858 7.6156
51.6353 7.59007
51.6849 7.5622
51.7344 7.52767
51.7841 7.51286
51.8336 7.45721
51.8833 7.42659
51.9328 7.42783
51.9826 7.35836
52.0323 7.33807
52.0818 7.2956
52.1316 7.24829
52.1812 7.25232
52.231 7.24486
52.2806 7.20872
52.3304 7.14306
52.38 7.11633
52.4298 7.09369
52.4794 7.08884
52.5293 7.02257
52.5789 7.00211
52.6288 6.95849
52.6785 6.96456
52.7284 6.89111
52.7781 6.92944
52.828 6.89758
52.8777 6.83624
52.9276 6.83942
52.9774 6.80963
53.0273 6.75039
53.0771 6.714
53.1271 6.71399
53.1769 6.65749
53.2269 6.67268
53.2767 6.61691
53.3267 6.57897
53.3765 6.55595
53.4266 6.52494
53.4766 6.45745
53.5265 6.4723
53.5765 6.44214
53.6264 6.41663
53.6765 6.3733
53.7264 6.38202
53.7765 6.33313
53.8265 6.26982
53.8766 6.30354
53.9266 6.25279
53.9767 6.20056
54.0267 6.21665
54.0769 6.14157
54.1269 6.15148
54.1771 6.06854
54.2271 6.08739
54.2773 6.01114
54.3274 6.04483
54.3776 5.97496
54.4277 5.96321
54.478 5.98558
54.528 5.88623
54.5783 5.86666
54.6285 5.83986
54.6788 5.76247
54.7289 5.71143
54.7792 5.69619
54.8296 5.58793
54.8798 5.57579
54.9301 5.51548
54.9803 5.49888
55.0307 5.48385
55.0809 5.46809
55.1314 5.42283
55.1816 5.35624
55.232 5.32766
55.2823 5.28148
55.3328 5.25458
55.383 5.18543
55.4335 5.15931
55.4838 5.05458
55.5344 4.98358
55.5847 4.97567
55.6352 4.91049
55.6856 4.91354
55.7361 4.83843