File: XRD/Ni3Fe_FD0882.xy
TT I
1.27165 7.63279
1.31627 6.21752
1.36089 6.90942
1.40551 6.23988
1.45013 5.2146
1.49476 5.77938
1.53938 5.48896
1.584 5.37602
1.62863 5.18334
1.67325 5.02486
1.71787 5.24112
1.7625 4.81736
1.80712 4.72144
1.85174 4.63765
1.89636 4.58435
1.94099 4.93815
1.98562 5.49724
2.03025 4.68436
2.07487 4.7505
2.11949 4.86852
2.16411 4.67195
2.20874 16.4929
2.25338 28.6365
2.298 6.84371
2.34263 6.17866
2.38725 6.33562
2.43188 6.88585
2.4765 6.64377
2.52115 7.03364
2.56577 8.40497
2.6104 8.89233
2.65503 7.55147
2.69965 8.40543
2.7443 8.30089
2.78893 8.51097
2.83356 8.42928
2.87818 9.07226
2.92281 9.67992
2.96744 9.81516
3.01209 10.0734
3.05672 11.3206
3.10135 12.1074
3.14599 13.4579
3.19062 14.1329
3.23527 15.5206
3.2799 15.8189
3.32454 17.0633
3.36917 18.0696
3.4138 19.1107
3.45844 19.7218
3.50309 21.027
3.54773 21.61
3.59237 24.0575
3.637 109.405
3.68164 68.6515
3.7263 26.6608
3.77094 26.4695
3.81558 26.6179
3.86022 27.5564
3.90486 28.7721
3.9495 29.7512
3.99416 30.7301
4.0388 32.3388
4.08344 33.8382
4.12809 34.6242
4.17273 36.6974
4.21738 44.4191
4.26204 293.506
4.30669 269.118
4.35133 50.3422
4.39598 44.1791
4.44063 54.8961
4.4853 69.6568
4.52995 50.1456
4.5746 50.465
4.61925 52.0622
4.6639 54.5895
4.70855 57.2151
4.75322 60.1639
4.79788 62.3219
4.84253 66.1693
4.88719 69.8306
4.93184 73.0844
4.97652 78.6833
5.02118 84.3389
5.06583 91.0299
5.11049 101.623
5.15515 175.059
5.19981 285.858
5.24449 2312.42
5.28916 13069.3
5.33382 3010.79
5.37848 181.736
5.42315 126.117
5.46783 110.708
5.5125 103.457
5.55716 100.035
5.60183 96.5002
5.6465 95.186
5.69117 92.5519
5.73586 90.0717
5.78053 89.0809
5.8252 88.2128
5.86988 88.7251
5.91455 90.3699
5.95924 95.8474
6.00392 166.774
6.0486 791.196
6.09328 4314.24
6.13795 3314.31
6.18263 242.883
6.22733 91.1213
6.27201 82.1195
6.3167 107.084
6.36138 82.4246
6.40606 68.014
6.45075 66.6084
6.49545 64.9013
6.54014 63.1315
6.58483 62.4134
6.62952 62.3422
6.67421 99.3318
6.71892 164.871
6.76361 70.9792
6.8083 58.0394
6.853 57.128
6.89769 56.564
6.94239 56.2041
6.98711 55.1823
7.03181 55.2996
7.07651 54.7656
7.12121 54.9649
7.16591 54.989
7.21063 55.1168
7.25533 72.6054
7.30004 209.987
7.34475 101.92
7.38945 56.8347
7.43416 54.2756
7.47889 54.1817
7.5236 54.3535
7.56831 55.0021
7.61303 56.863
7.65774 57.3408
7.70247 55.8835
7.74719 55.5196
7.79191 56.1963
7.83663 56.1189
7.88135 57.0296
7.92607 57.9484
7.97081 59.1331
8.01553 60.1972
8.06026 61.8181
8.10498 62.9471
8.14971 73.7638
8.19446 72.8267
8.23919 68.6746
8.28392 70.4989
8.32865 72.5636
8.37339 76.513
8.41812 83.2754
8.46288 115.393
8.50761 142.502
8.55235 318.995
8.59709 1070.69
8.64183 2239.63
8.68658 1036.03
8.73134 178.762
8.77609 97.2643
8.82083 90.6729
8.86558 88.0516
8.91033 88.6845
8.9551 91.6939
8.99985 84.2533
9.04461 81.8838
9.08936 80.913
9.13412 80.7355
9.17888 80.831
9.22365 81.4802
9.26841 80.325
9.31318 81.1326
9.35794 81.2661
9.4027 81.4453
9.44749 82.3229
9.49226 82.8311
9.53703 84.0137
9.5818 85.6988
9.62657 90.5333
9.67134 98.8252
9.71614 92.4354
9.76091 91.9044
9.80569 94.2233
9.85047 97.7598
9.89525 125.756
9.94005 138.941
9.98484 153.283
10.0296 289.245
10.0744 721.864
10.1192 1712.92
10.164 1656.53
10.2088 419.139
10.2536 125.246
10.2984 112.503
10.3432 116.148
10.388 102.749
10.4328 110.626
10.4776 145.121
10.5224 260.329
10.5672 505.702
10.612 513.934
10.6568 205.494
10.7017 96.0785
10.7465 85.2632
10.7913 81.963
10.8361 79.9246
10.8809 77.7688
10.9257 77.8274
10.9706 78.7744
11.0154 74.1209
11.0602 71.9175
11.105 70.7921
11.1499 76.2964
11.1947 86.5213
11.2395 75.1848
11.2844 70.1687
11.3292 66.5642
11.374 65.1328
11.4189 64.5038
11.4637 63.9739
11.5086 64.7943
11.5534 68.6379
11.5983 65.3982
11.6431 62.5655
11.688 62.0128
11.7328 62.0684
11.7777 61.7158
11.8225 61.3083
11.8674 61.3439
11.9122 61.6449
11.9571 61.7023
12.002 62.4873
12.0468 64.9654
12.0917 74.8667
12.1366 96.0583
12.1814 147.351
12.2263 207.229
12.2712 171.429
12.3161 98.4163
12.3609 71.3552
12.4058 63.8623
12.4507 63.4629
12.4956 63.4168
12.5405 63.4229
12.5853 64.6783
12.6302 73.9665
12.6751 81.0544
12.72 70.1483
12.7649 66.9718
12.8098 67.0153
12.8547 68.4052
12.8996 69.7623
12.9445 70.8563
12.9894 72.2442
13.0343 74.1599
13.0792 76.7806
13.1242 83.3088
13.1691 103.648
13.214 135.913
13.2589 219.841
13.3038 368.007
13.3487 436.595
13.3937 267.704
13.4386 125.001
13.4835 100.005
13.5285 111.475
13.5734 146.249
13.6183 238.072
13.6633 352.053
13.7082 350.35
13.7531 187.521
13.7981 96.5443
13.843 80.5109
13.888 78.0547
13.9329 75.5238
13.9779 74.3886
14.0228 72.8902
14.0678 71.7523
14.1127 71.3463
14.1577 71.3941
14.2027 70.2745
14.2476 69.103
14.2926 69.4384
14.3376 71.0754
14.3825 69.4615
14.4275 67.4849
14.4725 67.6704
14.5175 67.771
14.5624 67.7912
14.6074 70.2687
14.6524 71.0864
14.6974 69.2424
14.7424 69.7145
14.7874 74.6663
14.8324 83.6556
14.8774 103.479
14.9224 146.725
14.9674 208.443
15.0124 220.043
15.0574 150.324
15.1024 90.5192
15.1474 71.1862
15.1924 69.3309
15.2374 70.613
15.2824 69.8273
15.3274 67.2584
15.3725 65.3779
15.4175 65.2604
15.4625 64.8891
15.5076 65.4767
15.5526 65.1621
15.5976 64.6383
15.6426 64.9833
15.6877 68.9304
15.7327 75.3067
15.7778 88.9046
15.8228 119.869
15.8679 166.016
15.9129 194.919
15.958 158.35
16.003 96.2072
16.0481 67.4808
16.0931 64.2403
16.1382 62.4153
16.1833 59.9588
16.2283 58.3968
16.2734 57.5114
16.3185 58.01
16.3636 58.9513
16.4086 57.2708
16.4537 55.4646
16.4988 54.6037
16.5439 54.7094
16.589 54.4037
16.6341 54.0616
16.6792 53.5096
16.7243 53.9155
16.7694 54.2452
16.8145 53.9932
16.8596 54.4169
16.9047 56.3132
16.9498 56.8168
16.9949 55.0522
17.04 54.9688
17.0851 55.6895
17.1302 56.9824
17.1754 59.7822
17.2205 64.4569
17.2656 72.8295
17.3108 82.9484
17.3559 81.7136
17.401 69.9448
17.4462 60.8061
17.4913 58.1176
17.5365 58.0576
17.5815 58.022
17.6268 58.4126
17.6718 59.4278
17.7171 60.1129
17.7622 60.319
17.8074 60.3827
17.8525 62.0276
17.8977 65.5958
17.9428 70.5619
17.9881 78.2184
18.0331 95.414
18.0784 119.142
18.1237 137.686
18.1688 130.12
18.214 102.583
18.2591 84.3525
18.3044 88.2485
18.3495 99.1475
18.3948 105.275
18.4399 95.676
18.4852 76.8051
18.5303 65.056
18.5756 61.4654
18.6207 60.2249
18.666 59.5152
18.7112 58.6545
18.7565 57.9354
18.8016 57.6611
18.8469 57.1948
18.892 56.889
18.9374 56.1835
18.9825 56.207
19.0278 56.1067
19.073 55.9886
19.1183 56.1854
19.1635 57.1036
19.2088 58.3919
19.254 60.5876
19.2993 64.9773
19.3447 71.6657
19.3898 76.4399
19.4352 72.3229
19.4804 62.7353
19.5257 56.1036
19.5709 53.3459
19.6163 53.0466
19.6615 52.9394
19.7068 52.4058
19.752 52.3756
19.7974 52.482
19.8426 53.3217
19.888 53.6755
19.9332 54.8364
19.9786 57.1291
20.0238 60.8849
20.0692 66.0098
20.1144 69.2396
20.1598 67.4675
20.205 62.358
20.2504 61.181
20.2957 63.2534
20.3411 65.3949
20.3863 63.6386
20.4318 58.0137
20.477 53.1829
20.5224 51.1283
20.5677 50.4332
20.6131 49.6355
20.6586 48.9952
20.7038 48.9376
20.7493 48.3823
20.7945 48.3061
20.84 48.1435
20.8853 47.9323
20.9307 47.7806
20.976 47.773
21.0215 47.8245
21.0668 48.3517
21.1122 48.5505
21.1575 49.2113
21.203 50.078
21.2483 50.7628
21.2938 50.6073
21.3391 49.2018
21.3846 48.2629
21.4299 47.5875
21.4754 47.6203
21.5207 47.6426
21.5662 48.0501
21.6116 48.0693
21.6571 48.6916
21.7024 49.5369
21.7479 51.4615
21.7933 54.0673
21.8388 57.6368
21.8843 61.9148
21.9297 64.0993
21.9752 62.6646
22.0206 58.8139
22.0661 55.9712
22.1115 55.6362
22.157 55.387
22.2024 53.6368
22.248 50.6704
22.2933 49.2777
22.3389 48.3885
22.3843 48.2892
22.4299 48.2944
22.4753 48.408
22.5208 47.8679
22.5662 47.7466
22.6118 47.8322
22.6572 47.9778
22.7028 48.2982
22.7483 48.638
22.7939 49.4677
22.8393 50.8196
22.8849 52.9361
22.9303 55.1368
22.9759 57.2661
23.0214 56.953
23.067 53.9103
23.1126 50.5939
23.1581 48.5214
23.2037 48.1482
23.2492 47.9862
23.2948 48.0098
23.3403 48.1599
23.3859 48.8514
23.4314 49.7535
23.477 51.5936
23.5225 53.82
23.5682 56.3186
23.6137 57.5429
23.6593 55.4023
23.7048 51.2232
23.7505 47.774
23.796 46.0913
23.8417 45.3453
23.8872 44.9526
23.9329 44.5962
23.9784 44.2622
24.0241 44.0196
24.0697 43.8989
24.1154 43.4366
24.1609 43.4486
24.2066 43.2031
24.2522 43.1648
24.2979 42.9111
24.3434 42.6913
24.3892 42.5642
24.4349 42.4897
24.4805 42.1257
24.5262 42.6102
24.5718 42.3614
24.6175 42.3607
24.6631 42.2598
24.7089 41.9162
24.7545 41.904
24.8002 41.567
24.8458 41.7606
24.8916 41.329
24.9372 41.5259
24.983 41.6994
25.0286 42.1633
25.0744 42.6174
25.12 43.0213
25.1658 43.6518
25.2114 43.9528
25.2572 44.0914
25.3029 44.2194
25.3487 44.4528
25.3943 44.1712
25.4402 42.9164
25.4858 41.7367
25.5316 40.8938
25.5773 40.2515
25.6231 40.479
25.669 39.9623
25.7147 39.8896
25.7605 39.9532
25.8062 39.9198
25.8521 40.1172
25.8977 40.0911
25.9436 40.2281
25.9893 40.3683
26.0352 40.8725
26.0809 40.922
26.1268 41.1218
26.1725 40.901
26.2184 40.2487
26.2641 39.686
26.31 39.5585
26.3557 39.3886
26.4017 39.5374
26.4474 39.8183
26.4933 40.019
26.5391 40.6893
26.585 41.108
26.6308 41.5397
26.6767 41.665
26.7225 41.5239
26.7684 40.8718
26.8142 40.2468
26.8601 39.8234
26.9059 39.537
26.9519 38.9039
26.9979 38.5859
27.0437 38.3553
27.0896 38.1921
27.1354 38.1384
27.1814 38.0572
27.2272 37.9711
27.2732 37.9875
27.3191 37.7317
27.3651 37.9392
27.4109 37.8358
27.4569 37.8826
27.5027 38.1261
27.5488 38.0995
27.5946 37.9281
27.6407 37.6634
27.6865 37.3339
27.7326 37.2644
27.7784 37.2287
27.8245 37.2069
27.8703 37.3361
27.9164 37.5656
27.9623 37.8476
28.0084 38.2162
28.0543 38.7529
28.1003 38.5276
28.1462 38.2759
28.1923 38.0044
28.2384 37.3964
28.2843 37.1583
28.3304 36.8176
28.3764 36.1913
28.4225 35.9565
28.4684 35.8624
28.5145 35.4731
28.5605 35.4544
28.6066 35.2803
28.6526 35.1109
28.6987 35.1399
28.7447 35.0325
28.7908 34.9279
28.8368 34.9458
28.8829 35.0976
28.9289 34.937
28.9751 34.603
29.0211 34.446
29.0673 34.2402
29.1133 34.0587
29.1595 33.8768
29.2055 33.7945
29.2517 33.8015
29.2977 33.8544
29.3439 33.8049
29.3899 33.8471
29.4361 33.6986
29.4824 33.5964
29.5284 33.3194
29.5746 32.9557
29.6207 32.5783
29.6669 32.6286
29.713 32.4577
29.7593 32.3237
29.8053 32.4797
29.8516 32.2915
29.8977 32.3258
29.9439 32.2343
29.99 32.0625
30.0363 31.9656
30.0824 32.0701
30.1287 31.9364
30.1748 32.0338
30.2211 32.0509
30.2673 31.8376
30.3136 31.9112
30.3597 31.8146
30.406 31.7535
30.4522 31.6734
30.4985 31.4928
30.5447 31.7091
30.591 31.7321
30.6372 31.7175
30.6835 31.8305
30.7297 31.7618
30.7761 31.771
30.8224 31.5992
30.8686 31.4725
30.915 31.2152
30.9612 31.0204
31.0076 30.8189
31.0538 30.8172
31.1002 30.6554
31.1464 30.4807
31.1928 30.5143
31.2391 30.546
31.2855 30.3796
31.3317 30.4091
31.3781 30.4655
31.4244 30.5159
31.4708 30.3849
31.5171 30.401
31.5636 30.3544
31.6098 29.9902
31.6563 30.0067
31.7026 29.8412
31.7491 29.6531
31.7953 29.7575
31.8418 29.6983
31.8881 29.7046
31.9346 29.655
31.9809 29.764
32.0275 29.5231
32.074 29.4641
32.1203 29.2979
32.1668 29.1406
32.2132 28.9754
32.2597 28.7867
32.306 28.8752
32.3526 28.6382
32.399 28.6266
32.4455 28.4378
32.4919 28.2828
32.5385 28.2473
32.5848 28.1449
32.6314 28.2106
32.6778 28.0531
32.7244 27.8631
32.7708 27.7748
32.8174 27.7064
32.8638 27.6609
32.9104 27.646
32.9569 27.6782
33.0035 27.4904
33.0499 27.4722
33.0966 27.3514
33.143 27.3838
33.1897 27.2847
33.2361 27.2743
33.2828 27.3499
33.3293 27.0455
33.3759 27.1108
33.4226 26.8317
33.4691 26.7719
33.5158 26.6697
33.5623 26.5172
33.609 26.3892
33.6555 26.3314
33.7022 26.2532
33.7487 26.2159
33.7954 26.0958
33.842 25.9636
33.8887 25.9481
33.9353 25.8933
33.982 25.8605
34.0286 25.7419
34.0753 25.7008
34.1219 25.5518
34.1687 25.4793
34.2152 25.4331
34.262 25.2865
34.3086 25.3141
34.3554 25.1844
34.402 25.1047
34.4488 24.9547
34.4954 24.9329
34.5422 24.8506
34.5889 24.642
34.6357 24.5718
34.6825 24.5422
34.7292 24.4354
34.776 24.4519
34.8227 24.3845
34.8695 24.3363
34.9162 24.262
34.9631 24.1895
35.0098 24.1791
35.0566 24.0383
35.1033 23.9923
35.1502 24.0233
35.1969 23.8471
35.2438 23.8938
35.2906 23.7761
35.3375 23.6426
35.3842 23.6475
35.4311 23.6709
35.4779 23.6254
35.5248 23.5329
35.5716 23.4641
35.6185 23.3783
35.6653 23.2765
35.7123 23.258
35.759 23.107
35.806 23.0943
35.8528 23.0063
35.8998 22.9343
35.9468 22.7995
35.9936 22.8082
36.0406 22.702
36.0874 22.6763
36.1345 22.6064
36.1813 22.5039
36.2283 22.4273
36.2752 22.3401
36.3222 22.4279
36.3691 22.2746
36.4161 22.2086
36.463 22.1968
36.5101 22.1446
36.557 22.0571
36.6041 21.8595
36.651 21.9173
36.6981 21.8364
36.745 21.7324
36.7921 21.6893
36.839 21.6408
36.8861 21.5353
36.9331 21.5003
36.9802 21.4144
37.0272 21.3627
37.0743 21.2479
37.1213 21.2171
37.1684 21.1431
37.2154 21.1447
37.2626 20.9619
37.3098 20.9722
37.3568 20.8555
37.404 20.8417
37.451 20.7638
37.4982 20.6969
37.5452 20.5661
37.5924 20.5202
37.6395 20.5674
37.6867 20.4033
37.7337 20.3962
37.781 20.2242
37.8281 20.2376
37.8753 20.1625
37.9224 20.0877
37.9697 20.012
38.0168 19.9739
38.064 19.8826
38.1111 19.8232
38.1584 19.7385
38.2056 19.6448
38.2529 19.6304
38.3 19.6221
38.3473 19.5272
38.3945 19.4443
38.4418 19.455
38.489 19.3379
38.5363 19.2742
38.5837 19.2171
38.6309 19.1941
38.6782 19.148
38.7254 19.0301
38.7728 18.9586
38.82 18.9214
38.8674 18.8924
38.9146 18.8596
38.9621 18.6659
39.0093 18.6804
39.0567 18.6028
39.104 18.5252
39.1514 18.4022
39.1987 18.456
39.2461 18.4429
39.2934 18.3094
39.3409 18.2634
39.3882 18.1857
39.4356 18.1378
39.483 18.0575
39.5304 18.0722
39.5778 18.0126
39.6253 17.9274
39.6726 17.8308
39.7201 17.868
39.7675 17.7851
39.815 17.7195
39.8624 17.6834
39.9099 17.5983
39.9575 17.5713
40.0049 17.5237
40.0525 17.3928
40.0999 17.3011
40.1474 17.3241
40.1949 17.1991
40.2425 17.2024
40.2899 17.1674
40.3375 17.1117
40.385 17.0349
40.4326 16.9793
40.48 16.8985
40.5277 16.8097
40.5752 16.8176
40.6228 16.7123
40.6703 16.6761
40.718 16.6804
40.7655 16.612
40.8132 16.5312
40.8607 16.5292
40.9084 16.414
40.9559 16.4311
41.0036 16.3858
41.0512 16.2664
41.0989 16.2102
41.1465 16.2542
41.1942 16.1057
41.242 16.0144
41.2896 16.0629
41.3373 15.9432
41.3849 15.9558
41.4327 15.8768
41.4803 15.7483
41.5281 15.7735
41.5758 15.7393
41.6236 15.6425
41.6712 15.5711
41.7191 15.531
41.7667 15.4878
41.8146 15.4858
41.8622 15.361
41.9101 15.3798
41.9578 15.2219
42.0057 15.2492
42.0534 15.216
42.1013 15.1578
42.149 15.1159
42.1969 15.0786
42.2446 14.9905
42.2925 14.9019
42.3403 14.882
42.3882 14.8774
42.436 14.7925
42.4839 14.7676
42.5319 14.6954
42.5797 14.6288
42.6277 14.5833
42.6755 14.5502
42.7235 14.4765
42.7713 14.4394
42.8193 14.4089
42.8671 14.3665
42.9152 14.2954
42.963 14.2662
43.0111 14.2178
43.0589 14.1261
43.107 14.1098
43.1549 14.0874
43.2029 13.9373
43.2508 13.9881
43.2989 13.9269
43.3468 13.8478
43.3949 13.8191
43.4429 13.7782
43.491 13.7108
43.5389 13.674
43.5871 13.5995
43.635 13.5837
43.6832 13.5368
43.7312 13.4685
43.7793 13.4186
43.8273 13.4195
43.8755 13.3465
43.9237 13.3137
43.9717 13.2502
44.0199 13.1954
44.068 13.1786
44.1162 13.1233
44.1642 13.0742
44.2125 13.0337
44.2606 12.9482
44.3088 12.9569
44.3569 12.8912
44.4052 12.8946
44.4533 12.838
44.5016 12.7361
44.5497 12.7584
44.598 12.6699
44.6461 12.6298
44.6945 12.5763
44.7426 12.5424
44.791 12.4314
44.8391 12.4673
44.8875 12.3978
44.9357 12.3056
44.984 12.3869
45.0322 12.2989
45.0806 12.2559
45.1288 12.2012
45.1773 12.1257
45.2257 12.1311
45.2739 12.0619
45.3224 12.0314
45.3706 11.9661
45.4191 11.9234
45.4673 11.9014
45.5158 11.8443
45.5641 11.8047
45.6126 11.8243
45.6609 11.772
45.7094 11.6385
45.7577 11.64
45.8063 11.549
45.8546 11.5383
45.9031 11.5052
45.9515 11.4648
46.0001 11.4361
46.0484 11.3821
46.097 11.3647
46.1454 11.3026
46.194 11.2949
46.2424 11.2033
46.291 11.2198
46.3395 11.1336
46.3881 11.0599
46.4365 11.1104
46.4852 11.0106
46.5337 10.958
46.5823 10.9463
46.631 10.8958
46.6795 10.8469
46.7282 10.8559
46.7767 10.7941
46.8254 10.7615
46.8739 10.7305
46.9226 10.6468
46.9712 10.5998
47.0199 10.5852
47.0685 10.5539
47.1173 10.5056
47.1658 10.4779
47.2146 10.4404
47.2632 10.3794
47.312 10.3418
47.3606 10.3099
47.4095 10.2446
47.4581 10.249
47.5069 10.1716
47.5556 10.1679
47.6044 10.1389
47.6531 10.087
47.702 10.032
47.7507 10.0077
47.7996 9.9667
47.8483 9.94508
47.8972 9.90845
47.9461 9.87132
47.9948 9.84087
48.0438 9.79501
48.0925 9.79674
48.1415 9.73602
48.1902 9.69214
48.2392 9.6422
48.288 9.6565
48.337 9.56252
48.3858 9.54298
48.4348 9.5161
48.4837 9.4892
48.5327 9.46662
48.5815 9.38936
48.6306 9.4085
48.6795 9.41166
48.7285 9.31111
48.7774 9.29151
48.8265 9.25707
48.8754 9.22832
48.9245 9.18235
48.9734 9.13279
49.0226 9.10712
49.0715 9.03845
49.1206 9.03375
49.1696 9.0032
49.2188 8.9914
49.2679 8.94054
49.3169 8.91531
49.3661 8.8312
49.4151 8.83541
49.4643 8.79772
49.5134 8.7787
49.5626 8.73402
49.6117 8.68062
49.6609 8.63951
49.71 8.58412
49.7592 8.58036
49.8083 8.52735
49.8576 8.51587
49.9067 8.48578
49.956 8.47383
50.0052 8.46888
50.0545 8.4164
50.1036 8.34584
50.153 8.3453
50.2022 8.29464
50.2515 8.25021
50.3007 8.24935
50.3501 8.20449
50.3993 8.19094
50.4487 8.1506
50.498 8.14249
50.5474 8.08739
50.5966 8.02124
50.6461 8.0157
50.6955 7.98248
50.7448 7.93729
50.7943 7.93439
50.8436 7.90856
50.8931 7.85873
50.9424 7.79388
50.9919 7.75953
51.0413 7.7724
51.0908 7.73914
51.1402 7.74231
51.1897 7.67211
51.2391 7.63208
51.2887 7.59177
51.3381 7.53915
51.3877 7.5966
51.4371 7.53957
51.4867 7.51613
51.5362 7.48268
51.5858 7.42521
51.6353 7.42211
51.6849 7.34036
51.7344 7.36916
51.7841 7.32841
51.8336 7.29876
51.8833 7.25144
51.9328 7.18503
51.9826 7.18903
52.0323 7.17862
52.0818 7.15138
52.1316 7.08813
52.1812 7.08575
52.231 7.05319
52.2806 7.01638
52.3304 6.98032
52.38 6.93458
52.4298 6.93171
52.4794 6.87529
52.5293 6.83608
52.5789 6.83331
52.6288 6.81842
52.6785 6.76873
52.7284 6.80194
52.7781 6.72834
52.828 6.70844
52.8777 6.68879
52.9276 6.62483
52.9774 6.63503
53.0273 6.62472
53.0771 6.5699
53.1271 6.56253
53.1769 6.54661
53.2269 6.48735
53.2767 6.44005
53.3267 6.40188
53.3765 6.41936
53.4266 6.35803
53.4766 6.34933
53.5265 6.32817
53.5765 6.26988
53.6264 6.2771
53.6765 6.24848
53.7264 6.2144
53.7765 6.22867
53.8265 6.11842
53.8766 6.14126
53.9266 6.09034
53.9767 6.07995
54.0267 6.05633
54.0769 6.00899
54.1269 5.97492
54.1771 5.94554
54.2271 5.90056
54.2773 5.89193
54.3274 5.88708
54.3776 5.80829
54.4277 5.80427
54.478 5.81235
54.528 5.77608
54.5783 5.71836
54.6285 5.62675
54.6788 5.64055
54.7289 5.58438
54.7792 5.56868
54.8296 5.5364
54.8798 5.41949
54.9301 5.46192
54.9803 5.35112
55.0307 5.41571
55.0809 5.27646
55.1314 5.28181
55.1816 5.22317
55.232 5.1645
55.2823 5.10256
55.3328 5.11376
55.383 5.05981
55.4335 5.02313
55.4838 4.9359
55.5344 4.924
55.5847 4.84169
55.6352 4.84554
55.6856 4.79896
55.7361 4.73233