File: XRD/Ni3Fe_FD0102.xy
TT I
1.27165 8.30229
1.31627 7.58347
1.36089 7.17299
1.40551 6.95787
1.45013 6.98051
1.49476 6.81782
1.53938 6.31858
1.584 5.5813
1.62863 6.03996
1.67325 5.98402
1.71787 5.63729
1.7625 5.7498
1.80712 5.6039
1.85174 5.41869
1.89636 5.31779
1.94099 5.60144
1.98562 5.82866
2.03025 5.40973
2.07487 5.53667
2.11949 5.19941
2.16411 4.48991
2.20874 4.80922
2.25338 4.75565
2.298 4.43203
2.34263 4.03808
2.38725 4.00434
2.43188 4.01464
2.4765 4.17847
2.52115 3.61716
2.56577 5.01231
2.6104 4.8
2.65503 4.47615
2.69965 5.55981
2.7443 5.57746
2.78893 5.78546
2.83356 6.79146
2.87818 7.42284
2.92281 7.74876
2.96744 8.8843
3.01209 10.1142
3.05672 11.2962
3.10135 12.3108
3.14599 12.9129
3.19062 14.2823
3.23527 14.4016
3.2799 15.6397
3.32454 16.6319
3.36917 17.1478
3.4138 18.6171
3.45844 19.0587
3.50309 20.3695
3.54773 20.8768
3.59237 21.0515
3.637 22.1971
3.68164 22.8072
3.7263 23.8025
3.77094 24.6318
3.81558 25.6233
3.86022 26.4351
3.90486 27.0623
3.9495 27.9244
3.99416 29.2874
4.0388 30.2633
4.08344 31.1614
4.12809 32.1743
4.17273 33.2608
4.21738 34.6939
4.26204 36.1672
4.30669 36.6343
4.35133 38.8391
4.39598 40.553
4.44063 42.0453
4.4853 44.4607
4.52995 46.5355
4.5746 48.0855
4.61925 50.4297
4.6639 53.0759
4.70855 56.2238
4.75322 59.2776
4.79788 61.6795
4.84253 66.0037
4.88719 69.9877
4.93184 75.4618
4.97652 83.1106
5.02118 93.1756
5.06583 104.47
5.11049 123.314
5.15515 168.994
5.19981 659.973
5.24449 3791.87
5.28916 6736.71
5.33382 7064.69
5.37848 657.617
5.42315 187.046
5.46783 136.671
5.5125 119.19
5.55716 110.748
5.60183 103.952
5.6465 101.095
5.69117 99.3563
5.73586 97.0549
5.78053 97.4352
5.8252 97.8436
5.86988 101.682
5.91455 110.73
5.95924 135.402
6.00392 333.461
6.0486 1437.03
6.09328 2193.72
6.13795 3820.1
6.18263 895.765
6.22733 144.291
6.27201 95.0977
6.3167 81.0279
6.36138 73.6664
6.40606 68.726
6.45075 66.6318
6.49545 64.0036
6.54014 62.1858
6.58483 60.421
6.62952 59.4594
6.67421 57.8221
6.71892 56.5967
6.76361 56.1249
6.8083 54.8348
6.853 54.1285
6.89769 53.4072
6.94239 53.4353
6.98711 52.6526
7.03181 52.4336
7.07651 52.0318
7.12121 51.6392
7.16591 51.3826
7.21063 50.6934
7.25533 51.1273
7.30004 51.3907
7.34475 50.9059
7.38945 51.3203
7.43416 50.866
7.47889 51.4845
7.5236 58.2637
7.56831 74.028
7.61303 58.0532
7.65774 53.2126
7.70247 53.2431
7.74719 53.279
7.79191 53.996
7.83663 54.3389
7.88135 55.4374
7.92607 56.3048
7.97081 56.822
8.01553 58.3595
8.06026 59.7487
8.10498 61.121
8.14971 62.8739
8.19446 64.4783
8.23919 66.6519
8.28392 70.0335
8.32865 72.6894
8.37339 77.4345
8.41812 84.159
8.46288 97.5747
8.50761 187.274
8.55235 646.252
8.59709 765.165
8.64183 1185.44
8.68658 1753.33
8.73134 546.272
8.77609 127.52
8.82083 99.9918
8.86558 91.9354
8.91033 87.6904
8.9551 85.0009
8.99985 83.4025
9.04461 82.2866
9.08936 81.9036
9.13412 80.7919
9.17888 81.0227
9.22365 91.3491
9.26841 115.361
9.31318 93.6619
9.35794 82.371
9.4027 81.3916
9.44749 81.8119
9.49226 82.587
9.53703 83.1215
9.5818 85.029
9.62657 85.5748
9.67134 87.4367
9.71614 89.5175
9.76091 91.6577
9.80569 94.8114
9.85047 98.0052
9.89525 103.838
9.94005 115.942
9.98484 199.102
10.0296 586.886
10.0744 674.917
10.1192 794.677
10.164 1480.03
10.2088 1168.45
10.2536 264.719
10.2984 121.072
10.3432 109.093
10.388 104.962
10.4328 123.927
10.4776 226.839
10.5224 245.362
10.5672 267.104
10.612 437.737
10.6568 418.75
10.7017 159.549
10.7465 93.9471
10.7913 83.256
10.8361 79.8976
10.8809 77.0738
10.9257 74.9419
10.9706 73.8348
11.0154 71.8773
11.0602 70.2617
11.105 69.1757
11.1499 67.3119
11.1947 66.6075
11.2395 65.5461
11.2844 64.9706
11.3292 64.3837
11.374 63.6045
11.4189 63.0657
11.4637 62.5406
11.5086 61.8111
11.5534 61.4021
11.5983 60.976
11.6431 61.2723
11.688 60.8131
11.7328 60.2093
11.7777 60.1257
11.8225 60.1562
11.8674 60.4427
11.9122 62.3283
11.9571 69.1232
12.002 68.5647
12.0468 68.4916
12.0917 92.704
12.1366 106.949
12.1814 104.793
12.2263 127.38
12.2712 180.506
12.3161 153.833
12.3609 80.4503
12.4058 63.8465
12.4507 62.7057
12.4956 62.3008
12.5405 61.8339
12.5853 62.5587
12.6302 62.7501
12.6751 63.4097
12.72 64.145
12.7649 65.0898
12.8098 65.9008
12.8547 67.1284
12.8996 68.657
12.9445 69.7326
12.9894 72.0908
13.0343 74.1424
13.0792 78.6524
13.1242 87.549
13.1691 138.092
13.214 193.621
13.2589 185.746
13.3038 201.181
13.3487 293.074
13.3937 389.083
13.4386 248.596
13.4835 129.201
13.5285 161.962
13.5734 183.376
13.6183 169.472
13.6633 195.035
13.7082 291.402
13.7531 329.888
13.7981 183.221
13.843 91.751
13.888 80.3827
13.9329 76.6577
13.9779 74.9351
14.0228 73.5276
14.0678 72.123
14.1127 72.3109
14.1577 76.5038
14.2027 74.4698
14.2476 70.5024
14.2926 68.5857
14.3376 67.7839
14.3825 67.7122
14.4275 66.925
14.4725 67.0349
14.5175 67.3351
14.5624 67.267
14.6074 67.5598
14.6524 67.7994
14.6974 68.7079
14.7424 70.6115
14.7874 80.6147
14.8324 109.767
14.8774 120.031
14.9224 114.512
14.9674 125.332
15.0124 166.239
15.0574 207.68
15.1024 157.805
15.1474 87.4371
15.1924 71.4722
15.2374 68.544
15.2824 67.1881
15.3274 65.8668
15.3725 65.4428
15.4175 65.0538
15.4625 64.6263
15.5076 64.1567
15.5526 64.5211
15.5976 64.4792
15.6426 65.6474
15.6877 73.9899
15.7327 97.2948
15.7778 107.551
15.8228 101.733
15.8679 106.965
15.9129 131.629
15.958 175.528
16.003 167.431
16.0481 100.266
16.0931 68.5081
16.1382 61.9522
16.1833 59.7261
16.2283 58.0908
16.2734 57.114
16.3185 56.5563
16.3636 55.7347
16.4086 54.9644
16.4537 54.8999
16.4988 54.2136
16.5439 54.0503
16.589 53.717
16.6341 53.6461
16.6792 53.2877
16.7243 53.2113
16.7694 53.2754
16.8145 53.1781
16.8596 53.4096
16.9047 53.913
16.9498 54.5972
16.9949 54.4882
17.04 54.5295
17.0851 55.8511
17.1302 60.601
17.1754 64.0061
17.2205 63.0835
17.2656 63.3762
17.3108 67.2567
17.3559 74.1853
17.401 80.7043
17.4462 74.0778
17.4913 61.9345
17.5365 58.5166
17.5815 58.0102
17.6268 58.3512
17.6718 58.6696
17.7171 59.3495
17.7622 60.4448
17.8074 61.4269
17.8525 63.038
17.8977 72.0354
17.9428 84.7631
17.9881 87.3118
18.0331 85.0458
18.0784 87.8326
18.1237 101.112
18.1688 130.378
18.214 147.672
18.2591 119.486
18.3044 87.2767
18.3495 80.5682
18.3948 86.926
18.4399 99.0494
18.4852 99.4907
18.5303 80.274
18.5756 65.8658
18.6207 61.6234
18.666 60.2551
18.7112 59.126
18.7565 58.3324
18.8016 57.8646
18.8469 57.1572
18.892 56.8179
18.9374 56.3155
18.9825 55.9656
19.0278 55.6376
19.073 55.8883
19.1183 56.4384
19.1635 58.8915
19.2088 61.3165
19.254 61.0161
19.2993 60.645
19.3447 62.1986
19.3898 65.0313
19.4352 70.5784
19.4804 73.06
19.5257 65.9375
19.5709 56.8031
19.6163 53.6203
19.6615 53.1254
19.7068 52.6052
19.752 52.2894
19.7974 52.6485
19.8426 53.8726
19.888 56.2565
19.9332 57.6373
19.9786 57.2491
20.0238 56.8962
20.0692 58.9831
20.1144 63.6125
20.1598 69.8467
20.205 70.7048
20.2504 65.4679
20.2957 59.3961
20.3411 58.5867
20.3863 61.8376
20.4318 64.0193
20.477 60.3693
20.5224 53.7104
20.5677 50.4765
20.6131 49.605
20.6586 49.046
20.7038 48.7845
20.7493 48.5385
20.7945 48.3847
20.84 48.3929
20.8853 48.0561
20.9307 47.9324
20.976 48.0484
21.0215 48.2414
21.0668 48.7889
21.1122 48.5504
21.1575 48.3255
21.203 48.3708
21.2483 48.9512
21.2938 49.8029
21.3391 50.3693
21.3846 50.0342
21.4299 48.7977
21.4754 48.0697
21.5207 47.8496
21.5662 48.1274
21.6116 48.51
21.6571 50.7633
21.7024 52.6185
21.7479 53.1516
21.7933 52.7889
21.8388 53.4697
21.8843 55.7447
21.9297 58.6838
21.9752 62.8577
22.0206 65.0711
22.0661 61.2359
22.1115 55.6786
22.157 54.1704
22.2024 55.2828
22.248 54.7961
22.2933 52.6987
22.3389 49.8066
22.3843 48.6139
22.4299 48.1053
22.4753 48.029
22.5208 47.9975
22.5662 47.9271
22.6118 48.2191
22.6572 48.2934
22.7028 49.6483
22.7483 50.8494
22.7939 51.1377
22.8393 50.9064
22.8849 50.8362
22.9303 51.4354
22.9759 52.5001
23.0214 54.5534
23.067 57.2938
23.1126 56.36
23.1581 52.7305
23.2037 49.3575
23.2492 48.724
23.2948 49.0408
23.3403 50.497
23.3859 51.2262
23.4314 50.9432
23.477 50.4263
23.5225 50.2851
23.5682 50.9752
23.6137 52.9301
23.6593 55.5424
23.7048 57.1435
23.7505 54.4003
23.796 49.6773
23.8417 46.4704
23.8872 45.4085
23.9329 44.9661
23.9784 44.6173
24.0241 44.3613
24.0697 44.0025
24.1154 43.7899
24.1609 43.3468
24.2066 43.4073
24.2522 43.1994
24.2979 42.8986
24.3434 42.84
24.3892 42.696
24.4349 42.6143
24.4805 42.3614
24.5262 42.3081
24.5718 42.1556
24.6175 42.331
24.6631 42.3911
24.7089 42.3452
24.7545 42.1937
24.8002 41.7665
24.8458 41.7682
24.8916 41.8142
24.9372 42.0735
24.983 42.0632
25.0286 42.3979
25.0744 42.7131
25.12 42.8571
25.1658 43.1733
25.2114 43.5149
25.2572 43.7665
25.3029 43.8455
25.3487 43.811
25.3943 43.6551
25.4402 44.0282
25.4858 44.1686
25.5316 43.0263
25.5773 41.4149
25.6231 40.7535
25.669 40.258
25.7147 40.2048
25.7605 40.0808
25.8062 40.4077
25.8521 40.5737
25.8977 40.3573
25.9436 40.2232
25.9893 40.0507
26.0352 40.3083
26.0809 40.1663
26.1268 40.6881
26.1725 41.2069
26.2184 41.4437
26.2641 41.0779
26.31 40.5667
26.3557 40.4358
26.4017 40.2018
26.4474 40.2784
26.4933 40.1604
26.5391 40.3355
26.585 40.4983
26.6308 40.6207
26.6767 40.9611
26.7225 41.4153
26.7684 41.9228
26.8142 41.6149
26.8601 40.8074
26.9059 40.2736
26.9519 39.8987
26.9979 39.6372
27.0437 39.1191
27.0896 38.6261
27.1354 38.495
27.1814 38.3446
27.2272 38.2711
27.2732 38.3467
27.3191 38.0026
27.3651 38.0988
27.4109 37.8665
27.4569 37.9772
27.5027 37.9015
27.5488 38.1114
27.5946 37.9929
27.6407 38.1071
27.6865 38.1675
27.7326 38.1189
27.7784 37.9431
27.8245 37.7763
27.8703 37.7214
27.9164 37.7139
27.9623 37.7869
28.0084 37.8269
28.0543 38.0045
28.1003 38.0253
28.1462 38.451
28.1923 38.7648
28.2384 38.3338
28.2843 37.7834
28.3304 37.3834
28.3764 37.1887
28.4225 36.6995
28.4684 36.3398
28.5145 35.8592
28.5605 35.7336
28.6066 35.3539
28.6526 35.4932
28.6987 35.3929
28.7447 35.1132
28.7908 34.903
28.8368 34.8693
28.8829 34.7992
28.9289 34.8153
28.9751 34.7916
29.0211 34.7804
29.0673 34.71
29.1133 34.5125
29.1595 34.1888
29.2055 33.9203
29.2517 33.9957
29.2977 33.7398
29.3439 33.5885
29.3899 33.5921
29.4361 33.4778
29.4824 33.6411
29.5284 33.6969
29.5746 33.505
29.6207 33.1349
29.6669 32.9055
29.713 32.6665
29.7593 32.3693
29.8053 32.5054
29.8516 32.5026
29.8977 32.5104
29.9439 32.2608
29.99 32.237
30.0363 32.0288
30.0824 32.1243
30.1287 31.8927
30.1748 31.9889
30.2211 31.9608
30.2673 31.8497
30.3136 32.0991
30.3597 31.9856
30.406 32.0424
30.4522 31.8621
30.4985 31.7723
30.5447 31.8716
30.591 31.6675
30.6372 31.6269
30.6835 31.5372
30.7297 31.7144
30.7761 31.6542
30.8224 31.7651
30.8686 31.8258
30.915 31.5981
30.9612 31.4097
31.0076 31.2695
31.0538 30.9913
31.1002 30.9911
31.1464 30.7138
31.1928 30.7341
31.2391 30.6105
31.2855 30.5308
31.3317 30.4749
31.3781 30.514
31.4244 30.493
31.4708 30.4474
31.5171 30.3783
31.5636 30.5095
31.6098 30.4738
31.6563 30.385
31.7026 30.2069
31.7491 29.9914
31.7953 29.9747
31.8418 29.8297
31.8881 29.7499
31.9346 29.6662
31.9809 29.7153
32.0275 29.5409
32.074 29.5258
32.1203 29.4279
32.1668 29.3141
32.2132 29.1847
32.2597 29.0854
32.306 29.0037
32.3526 28.753
32.399 28.6391
32.4455 28.4695
32.4919 28.4365
32.5385 28.4524
32.5848 28.2041
32.6314 28.1798
32.6778 28.1702
32.7244 27.8967
32.7708 27.8484
32.8174 27.9963
32.8638 27.7517
32.9104 27.8282
32.9569 27.7922
33.0035 27.6461
33.0499 27.563
33.0966 27.4765
33.143 27.4165
33.1897 27.3048
33.2361 27.2671
33.2828 27.3082
33.3293 27.0683
33.3759 27.1891
33.4226 27.0843
33.4691 27.0162
33.5158 26.8386
33.5623 26.7093
33.609 26.5155
33.6555 26.4377
33.7022 26.2877
33.7487 26.2254
33.7954 26.1275
33.842 26.1035
33.8887 25.9873
33.9353 25.9799
33.982 25.8939
34.0286 25.8465
34.0753 25.8024
34.1219 25.7285
34.1687 25.634
34.2152 25.5095
34.262 25.3022
34.3086 25.2274
34.3554 25.2675
34.402 25.0915
34.4488 24.9844
34.4954 25.011
34.5422 24.9088
34.5889 24.8697
34.6357 24.701
34.6825 24.5853
34.7292 24.5792
34.776 24.4176
34.8227 24.4195
34.8695 24.3737
34.9162 24.3191
34.9631 24.1269
35.0098 24.2016
35.0566 24.0832
35.1033 24.0173
35.1502 24.0215
35.1969 23.9533
35.2438 23.9188
35.2906 23.7976
35.3375 23.7704
35.3842 23.5968
35.4311 23.6506
35.4779 23.6263
35.5248 23.6551
35.5716 23.4592
35.6185 23.4326
35.6653 23.4597
35.7123 23.3499
35.759 23.2764
35.806 23.1397
35.8528 23.0123
35.8998 22.8957
35.9468 22.7919
35.9936 22.8319
36.0406 22.7129
36.0874 22.712
36.1345 22.569
36.1813 22.5542
36.2283 22.4774
36.2752 22.3574
36.3222 22.4679
36.3691 22.3035
36.4161 22.1803
36.463 22.1261
36.5101 22.1312
36.557 22.0362
36.6041 21.9443
36.651 21.8951
36.6981 21.8489
36.745 21.7962
36.7921 21.7553
36.839 21.5969
36.8861 21.5514
36.9331 21.5184
36.9802 21.4367
37.0272 21.3456
37.0743 21.2333
37.1213 21.2174
37.1684 21.1141
37.2154 21.1354
37.2626 21.06
37.3098 20.9892
37.3568 20.9196
37.404 20.93
37.451 20.7451
37.4982 20.7114
37.5452 20.5953
37.5924 20.536
37.6395 20.6197
37.6867 20.4793
37.7337 20.3385
37.781 20.3011
37.8281 20.2197
37.8753 20.1734
37.9224 20.1474
37.9697 19.9736
38.0168 19.9297
38.064 19.935
38.1111 19.8427
38.1584 19.7622
38.2056 19.6927
38.2529 19.6648
38.3 19.5917
38.3473 19.5685
38.3945 19.4174
38.4418 19.4608
38.489 19.3493
38.5363 19.2919
38.5837 19.1938
38.6309 19.1804
38.6782 19.1232
38.7254 19.0765
38.7728 19.0058
38.82 18.9064
38.8674 18.7863
38.9146 18.8955
38.9621 18.7543
39.0093 18.722
39.0567 18.6882
39.104 18.6085
39.1514 18.5219
39.1987 18.5131
39.2461 18.453
39.2934 18.3721
39.3409 18.2739
39.3882 18.1282
39.4356 18.1314
39.483 18.0771
39.5304 18.03
39.5778 18.0152
39.6253 17.9302
39.6726 17.8697
39.7201 17.8472
39.7675 17.7967
39.815 17.737
39.8624 17.7099
39.9099 17.6365
39.9575 17.5029
40.0049 17.5673
40.0525 17.4079
40.0999 17.3726
40.1474 17.335
40.1949 17.2677
40.2425 17.1977
40.2899 17.1642
40.3375 17.1504
40.385 17.0399
40.4326 17.0195
40.48 16.9358
40.5277 16.916
40.5752 16.8972
40.6228 16.7642
40.6703 16.7676
40.718 16.6697
40.7655 16.6557
40.8132 16.5631
40.8607 16.5524
40.9084 16.4349
40.9559 16.4149
41.0036 16.4426
41.0512 16.3216
41.0989 16.2959
41.1465 16.2277
41.1942 16.1978
41.242 16.0627
41.2896 16.0574
41.3373 15.9456
41.3849 15.9525
41.4327 15.8461
41.4803 15.8402
41.5281 15.8094
41.5758 15.7021
41.6236 15.6331
41.6712 15.6555
41.7191 15.546
41.7667 15.4778
41.8146 15.4594
41.8622 15.3834
41.9101 15.3639
41.9578 15.3264
42.0057 15.2575
42.0534 15.1849
42.1013 15.1987
42.149 15.1092
42.1969 15.0821
42.2446 14.9773
42.2925 14.9715
42.3403 14.8721
42.3882 14.9085
42.436 14.8082
42.4839 14.7334
42.5319 14.6922
42.5797 14.6853
42.6277 14.6083
42.6755 14.5113
42.7235 14.5472
42.7713 14.4201
42.8193 14.357
42.8671 14.3867
42.9152 14.3127
42.963 14.2978
43.0111 14.2358
43.0589 14.1276
43.107 14.1086
43.1549 14.0924
43.2029 14.0164
43.2508 13.9731
43.2989 13.8979
43.3468 13.8795
43.3949 13.7955
43.4429 13.7681
43.491 13.6993
43.5389 13.6969
43.5871 13.6494
43.635 13.5825
43.6832 13.5239
43.7312 13.4881
43.7793 13.4468
43.8273 13.3816
43.8755 13.3374
43.9237 13.3003
43.9717 13.2949
44.0199 13.2495
44.068 13.1681
44.1162 13.1372
44.1642 13.1063
44.2125 13.044
44.2606 12.9743
44.3088 12.9538
44.3569 12.9112
44.4052 12.8552
44.4533 12.7832
44.5016 12.7751
44.5497 12.6926
44.598 12.6422
44.6461 12.6198
44.6945 12.6032
44.7426 12.5023
44.791 12.4705
44.8391 12.4786
44.8875 12.418
44.9357 12.3839
44.984 12.2898
45.0322 12.2664
45.0806 12.2095
45.1288 12.1731
45.1773 12.1832
45.2257 12.1231
45.2739 12.0753
45.3224 12.0281
45.3706 11.9669
45.4191 11.891
45.4673 11.8873
45.5158 11.8561
45.5641 11.7759
45.6126 11.775
45.6609 11.6959
45.7094 11.6744
45.7577 11.6056
45.8063 11.5935
45.8546 11.57
45.9031 11.504
45.9515 11.4623
46.0001 11.4101
46.0484 11.4066
46.097 11.3597
46.1454 11.3112
46.194 11.2967
46.2424 11.2412
46.291 11.203
46.3395 11.1514
46.3881 11.1165
46.4365 11.0964
46.4852 11.0321
46.5337 10.9693
46.5823 10.9671
46.631 10.9035
46.6795 10.875
46.7282 10.8147
46.7767 10.8077
46.8254 10.7371
46.8739 10.7057
46.9226 10.6465
46.9712 10.6472
47.0199 10.5929
47.0685 10.5392
47.1173 10.5014
47.1658 10.4852
47.2146 10.4186
47.2632 10.4011
47.312 10.3862
47.3606 10.3058
47.4095 10.2676
47.4581 10.2061
47.5069 10.2243
47.5556 10.1795
47.6044 10.1328
47.6531 10.1236
47.702 10.078
47.7507 10.0035
47.7996 9.95656
47.8483 9.97249
47.8972 9.93367
47.9461 9.85597
47.9948 9.79252
48.0438 9.79316
48.0925 9.75054
48.1415 9.75418
48.1902 9.68711
48.2392 9.67075
48.288 9.65482
48.337 9.60077
48.3858 9.56697
48.4348 9.509
48.4837 9.5244
48.5327 9.47137
48.5815 9.42632
48.6306 9.40702
48.6795 9.38019
48.7285 9.29541
48.7774 9.28848
48.8265 9.24746
48.8754 9.22081
48.9245 9.19856
48.9734 9.14647
49.0226 9.15079
49.0715 9.06133
49.1206 9.04985
49.1696 8.99867
49.2188 8.98572
49.2679 8.92169
49.3169 8.8994
49.3661 8.85828
49.4151 8.84192
49.4643 8.82691
49.5134 8.78704
49.5626 8.74612
49.6117 8.67952
49.6609 8.67573
49.71 8.61619
49.7592 8.60086
49.8083 8.56371
49.8576 8.54331
49.9067 8.51313
49.956 8.47267
50.0052 8.44911
50.0545 8.42196
50.1036 8.3627
50.153 8.34526
50.2022 8.32527
50.2515 8.30127
50.3007 8.24519
50.3501 8.23672
50.3993 8.19153
50.4487 8.17564
50.498 8.13804
50.5474 8.11444
50.5966 8.08439
50.6461 7.99446
50.6955 8.02041
50.7448 7.98664
50.7943 7.95168
50.8436 7.92513
50.8931 7.87996
50.9424 7.88318
50.9919 7.81692
51.0413 7.8176
51.0908 7.75493
51.1402 7.74327
51.1897 7.6982
51.2391 7.68479
51.2887 7.62517
51.3381 7.59909
51.3877 7.59543
51.4371 7.55257
51.4867 7.49867
51.5362 7.46985
51.5858 7.4489
51.6353 7.41434
51.6849 7.39422
51.7344 7.36264
51.7841 7.33124
51.8336 7.29399
51.8833 7.25733
51.9328 7.25818
51.9826 7.17112
52.0323 7.17489
52.0818 7.13965
52.1316 7.09056
52.1812 7.11796
52.231 7.0487
52.2806 6.99311
52.3304 7.01959
52.38 6.96753
52.4298 6.93154
52.4794 6.89363
52.5293 6.85109
52.5789 6.87498
52.6288 6.85645
52.6785 6.7777
52.7284 6.82904
52.7781 6.73423
52.828 6.73501
52.8777 6.71797
52.9276 6.63329
52.9774 6.61512
53.0273 6.58966
53.0771 6.59125
53.1271 6.54256
53.1769 6.54101
53.2269 6.49516
53.2767 6.4846
53.3267 6.46458
53.3765 6.44325
53.4266 6.41856
53.4766 6.32717
53.5265 6.31365
53.5765 6.31274
53.6264 6.27823
53.6765 6.26967
53.7264 6.2105
53.7765 6.14683
53.8265 6.15866
53.8766 6.11849
53.9266 6.10097
53.9767 6.06771
54.0267 6.05551
54.0769 6.01653
54.1269 5.94243
54.1771 5.95495
54.2271 5.91855
54.2773 5.85621
54.3274 5.88761
54.3776 5.81027
54.4277 5.78041
54.478 5.72831
54.528 5.71445
54.5783 5.64491
54.6285 5.60627
54.6788 5.50117
54.7289 5.54723
54.7792 5.45837
54.8296 5.40456
54.8798 5.38427
54.9301 5.35019
54.9803 5.32349
55.0307 5.26039
55.0809 5.25459
55.1314 5.17498
55.1816 5.13366
55.232 5.10625
55.2823 5.06102
55.3328 4.94342
55.383 4.93155
55.4335 4.87763
55.4838 4.86965
55.5344 4.78629
55.5847 4.7602
55.6352 4.76337
55.6856 4.74389
55.7361 4.66246