File: XRD/Ni3Fe_FD1029.xy
TT I
1.27165 6.87877
1.31627 6.57367
1.36089 6.88146
1.40551 5.65829
1.45013 5.96017
1.49476 5.6114
1.53938 5.96774
1.584 5.01032
1.62863 5.15679
1.67325 5.14413
1.71787 5.13879
1.7625 4.3332
1.80712 4.92594
1.85174 3.98659
1.89636 4.31631
1.94099 4.44377
1.98562 4.45561
2.03025 4.16844
2.07487 3.9396
2.11949 4.96143
2.16411 4.24027
2.20874 5.51887
2.25338 6.54439
2.298 4.69588
2.34263 5.6011
2.38725 6.05362
2.43188 6.14461
2.4765 6.9939
2.52115 7.08882
2.56577 7.93635
2.6104 8.8954
2.65503 8.15606
2.69965 8.60546
2.7443 8.53999
2.78893 8.30009
2.83356 8.56447
2.87818 8.32194
2.92281 9.03488
2.96744 9.5469
3.01209 10.1004
3.05672 11.2182
3.10135 12.3314
3.14599 13.1102
3.19062 13.9967
3.23527 14.9791
3.2799 15.1456
3.32454 16.3652
3.36917 17.3084
3.4138 18.2072
3.45844 18.8123
3.50309 19.7988
3.54773 20.143
3.59237 21.316
3.637 28.0123
3.68164 27.0756
3.7263 24.2557
3.77094 24.7776
3.81558 25.0584
3.86022 25.7492
3.90486 27.6208
3.9495 27.7746
3.99416 29.2553
4.0388 30.5128
4.08344 31.3915
4.12809 32.587
4.17273 33.7876
4.21738 35.1515
4.26204 52.727
4.30669 57.4261
4.35133 40.845
4.39598 40.8056
4.44063 42.8678
4.4853 46.2014
4.52995 46.4922
4.5746 48.0084
4.61925 50.5178
4.6639 52.5906
4.70855 55.1493
4.75322 58.19
4.79788 60.8735
4.84253 63.9351
4.88719 67.4796
4.93184 70.9899
4.97652 76.7691
5.02118 82.4833
5.06583 88.8429
5.11049 97.4071
5.15515 117.543
5.19981 228.786
5.24449 2411.59
5.28916 13349.1
5.33382 3355.19
5.37848 223.603
5.42315 124.764
5.46783 108.36
5.5125 100.912
5.55716 96.8208
5.60183 92.7159
5.6465 90.7564
5.69117 89.4201
5.73586 87.387
5.78053 86.7272
5.8252 86.0885
5.86988 86.6873
5.91455 88.3868
5.95924 94.3565
6.00392 160.348
6.0486 861.274
6.09328 4481.14
6.13795 3526.6
6.18263 247.29
6.22733 87.3983
6.27201 75.5036
6.3167 72.7715
6.36138 68.5802
6.40606 64.5298
6.45075 63.3716
6.49545 61.6568
6.54014 59.648
6.58483 58.8621
6.62952 57.8345
6.67421 58.1611
6.71892 63.8356
6.76361 56.4956
6.8083 54.2985
6.853 53.7437
6.89769 53.4803
6.94239 52.858
6.98711 52.2407
7.03181 51.9813
7.07651 52.0293
7.12121 51.7155
7.16591 51.3791
7.21063 51.0612
7.25533 51.5563
7.30004 62.4834
7.34475 55.9466
7.38945 51.4484
7.43416 50.9459
7.47889 51.6799
7.5236 60.8044
7.56831 78.7531
7.61303 57.6727
7.65774 52.4266
7.70247 52.9125
7.74719 53.3491
7.79191 53.5803
7.83663 53.5413
7.88135 54.5395
7.92607 55.4777
7.97081 56.3905
8.01553 57.37
8.06026 58.5505
8.10498 59.8747
8.14971 61.8566
8.19446 63.6648
8.23919 65.2907
8.28392 67.8146
8.32865 69.9299
8.37339 73.514
8.41812 76.8161
8.46288 85.682
8.50761 125.967
8.55235 356.885
8.59709 1063.79
8.64183 2253.54
8.68658 1084.12
8.73134 177.697
8.77609 94.7696
8.82083 87.9088
8.86558 85.2707
8.91033 82.8977
8.9551 81.9464
8.99985 80.7544
9.04461 79.8151
9.08936 79.48
9.13412 78.8813
9.17888 79.6445
9.22365 94.3473
9.26841 121.962
9.31318 91.7633
9.35794 80.0659
9.4027 79.5391
9.44749 80.2577
9.49226 80.6388
9.53703 81.3589
9.5818 82.8736
9.62657 83.9228
9.67134 86.1403
9.71614 86.8837
9.76091 88.9078
9.80569 91.2682
9.85047 93.5122
9.89525 98.2175
9.94005 105.564
9.98484 144.71
10.0296 335.568
10.0744 748.906
10.1192 1739.27
10.164 1672.96
10.2088 449.604
10.2536 125.647
10.2984 102.871
10.3432 100.17
10.388 97.1972
10.4328 106.722
10.4776 156.287
10.5224 262.08
10.5672 502.029
10.612 536.497
10.6568 224.157
10.7017 106.438
10.7465 87.0163
10.7913 79.5075
10.8361 77.5898
10.8809 74.8832
10.9257 73.1175
10.9706 72.0011
11.0154 70.1008
11.0602 68.8213
11.105 67.7925
11.1499 66.5647
11.1947 67.056
11.2395 65.2436
11.2844 64.3283
11.3292 63.3196
11.374 62.6387
11.4189 62.17
11.4637 61.5591
11.5086 60.8566
11.5534 60.6544
11.5983 60.6579
11.6431 60.3671
11.688 59.6689
11.7328 59.733
11.7777 59.2076
11.8225 59.1099
11.8674 59.7496
11.9122 62.0796
11.9571 69.8531
12.002 67.8136
12.0468 64.0608
12.0917 75.9306
12.1366 97.0147
12.1814 145.627
12.2263 204.862
12.2712 174.126
12.3161 95.0137
12.3609 64.0886
12.4058 60.7704
12.4507 60.836
12.4956 60.8538
12.5405 61.0896
12.5853 61.4694
12.6302 62.3068
12.6751 64.0075
12.72 63.6853
12.7649 64.2917
12.8098 64.7714
12.8547 65.9279
12.8996 67.3448
12.9445 68.7106
12.9894 70.396
13.0343 72.2832
13.0792 76.6261
13.1242 82.0447
13.1691 105.817
13.214 143.791
13.2589 223.242
13.3038 361.444
13.3487 440.951
13.3937 280.814
13.4386 126.964
13.4835 98.1725
13.5285 117.953
13.5734 152.778
13.6183 233.326
13.6633 351.572
13.7082 363.047
13.7531 206.468
13.7981 100.27
13.843 79.2791
13.888 76.4636
13.9329 74.3395
13.9779 73.028
14.0228 71.7686
14.0678 70.6161
14.1127 72.0212
14.1577 76.4658
14.2027 74.6713
14.2476 69.1305
14.2926 67.0225
14.3376 67.1742
14.3825 66.2728
14.4275 65.9469
14.4725 66.0805
14.5175 65.9791
14.5624 65.8732
14.6074 66.2572
14.6524 66.6876
14.6974 67.2803
14.7424 68.0402
14.7874 73.7195
14.8324 87.3021
14.8774 107.474
14.9224 145.467
14.9674 207.35
15.0124 227.856
15.0574 160.309
15.1024 93.624
15.1474 70.8877
15.1924 67.5146
15.2374 66.2478
15.2824 65.3965
15.3274 64.3808
15.3725 63.9513
15.4175 63.9465
15.4625 63.2343
15.5076 63.244
15.5526 62.8359
15.5976 63.0392
15.6426 63.685
15.6877 67.9918
15.7327 78.5269
15.7778 92.4702
15.8228 120.545
15.8679 167.018
15.9129 200.059
15.958 167.461
16.003 103.226
16.0481 69.6522
16.0931 63.0359
16.1382 59.8641
16.1833 58.0973
16.2283 56.6814
16.2734 56.0925
16.3185 55.29
16.3636 54.8211
16.4086 54.1843
16.4537 53.377
16.4988 53.3809
16.5439 53.0669
16.589 52.9097
16.6341 52.7135
16.6792 52.3326
16.7243 52.6488
16.7694 52.5577
16.8145 52.4401
16.8596 52.5702
16.9047 53.4077
16.9498 54.1687
16.9949 53.7936
17.04 53.5734
17.0851 54.3865
17.1302 56.6502
17.1754 59.5502
17.2205 64.2001
17.2656 71.9577
17.3108 81.4501
17.3559 82.2752
17.401 71.5273
17.4462 61.1764
17.4913 57.4075
17.5365 56.864
17.5815 56.673
17.6268 57.3403
17.6718 57.7513
17.7171 58.5784
17.7622 59.7511
17.8074 60.7182
17.8525 61.3658
17.8977 66.1394
17.9428 72.1412
17.9881 80.2855
18.0331 96.0796
18.0784 120.021
18.1237 141.506
18.1688 137.121
18.214 108.652
18.2591 87.3765
18.3044 87.975
18.3495 98.6423
18.3948 106.446
18.4399 97.3949
18.4852 78.9311
18.5303 65.6145
18.5756 61.0777
18.6207 59.8661
18.666 58.6145
18.7112 57.7013
18.7565 57.2089
18.8016 56.8023
18.8469 56.2224
18.892 55.9031
18.9374 55.2799
18.9825 55.0196
19.0278 54.7708
19.073 54.8128
19.1183 54.879
19.1635 55.9307
19.2088 57.6723
19.254 60.0678
19.2993 65.073
19.3447 72.2149
19.3898 75.716
19.4352 72.091
19.4804 63.1994
19.5257 55.7097
19.5709 52.5533
19.6163 52.1426
19.6615 51.9827
19.7068 51.5341
19.752 51.7164
19.7974 51.7541
19.8426 52.418
19.888 53.3179
19.9332 54.7815
19.9786 56.8045
20.0238 60.5516
20.0692 66.1489
20.1144 69.8612
20.1598 68.7601
20.205 63.6692
20.2504 61.3065
20.2957 63.0084
20.3411 65.2393
20.3863 63.9815
20.4318 57.9894
20.477 52.693
20.5224 49.7707
20.5677 48.9735
20.6131 48.7228
20.6586 48.1834
20.7038 48.0449
20.7493 47.7717
20.7945 47.8101
20.84 47.7538
20.8853 47.1266
20.9307 47.0921
20.976 47.0867
21.0215 47.0306
21.0668 47.3205
21.1122 47.8671
21.1575 48.361
21.203 49.3474
21.2483 50.2737
21.2938 50.2556
21.3391 48.8412
21.3846 47.6838
21.4299 47.1587
21.4754 47.1809
21.5207 47.1862
21.5662 47.3524
21.6116 47.4652
21.6571 48.4149
21.7024 49.5309
21.7479 51.2651
21.7933 53.6341
21.8388 57.5447
21.8843 62.1518
21.9297 65.0398
21.9752 63.631
22.0206 59.5147
22.0661 55.9906
22.1115 55.8028
22.157 55.6504
22.2024 54.109
22.248 50.8942
22.2933 48.923
22.3389 47.6389
22.3843 47.4641
22.4299 47.3969
22.4753 47.1628
22.5208 47.0231
22.5662 47.2005
22.6118 47.2712
22.6572 47.3828
22.7028 47.8539
22.7483 48.6291
22.7939 49.4372
22.8393 50.7522
22.8849 52.9091
22.9303 55.4762
22.9759 57.2998
23.0214 57.0657
23.067 54.5964
23.1126 50.8275
23.1581 48.3623
23.2037 47.4817
23.2492 47.4808
23.2948 47.4649
23.3403 48.1085
23.3859 49.093
23.4314 50.0703
23.477 51.7684
23.5225 54.3856
23.5682 56.819
23.6137 58.2596
23.6593 56.0754
23.7048 51.665
23.7505 47.9621
23.796 45.7907
23.8417 44.868
23.8872 44.4292
23.9329 44.0879
23.9784 43.7355
24.0241 43.4449
24.0697 43.262
24.1154 42.9205
24.1609 42.6176
24.2066 42.5641
24.2522 42.478
24.2979 42.1606
24.3434 42.0945
24.3892 41.8192
24.4349 41.9466
24.4805 41.9084
24.5262 41.8858
24.5718 41.8492
24.6175 41.8565
24.6631 41.6918
24.7089 41.3594
24.7545 41.1346
24.8002 40.9692
24.8458 41.0062
24.8916 41.0097
24.9372 40.9971
24.983 41.3298
25.0286 41.7362
25.0744 42.2136
25.12 42.8599
25.1658 43.5039
25.2114 43.8516
25.2572 44.015
25.3029 44.2564
25.3487 44.3307
25.3943 44.1161
25.4402 43.0241
25.4858 41.6381
25.5316 40.5756
25.5773 40.0053
25.6231 39.74
25.669 39.3659
25.7147 39.4741
25.7605 39.4407
25.8062 39.3931
25.8521 39.5463
25.8977 39.6608
25.9436 39.8684
25.9893 39.9283
26.0352 40.5382
26.0809 40.8461
26.1268 41.1458
26.1725 40.7748
26.2184 40.0248
26.2641 39.4233
26.31 39.061
26.3557 39.2679
26.4017 39.2621
26.4474 39.4723
26.4933 39.7351
26.5391 40.4243
26.585 40.9111
26.6308 41.4517
26.6767 41.7354
26.7225 41.6288
26.7684 40.9587
26.8142 40.3957
26.8601 39.9102
26.9059 39.3197
26.9519 38.7971
26.9979 38.4558
27.0437 38.1355
27.0896 37.8299
27.1354 37.7881
27.1814 37.6969
27.2272 37.6172
27.2732 37.5161
27.3191 37.402
27.3651 37.572
27.4109 37.571
27.4569 37.634
27.5027 37.7305
27.5488 37.8171
27.5946 37.7154
27.6407 37.4258
27.6865 37.3544
27.7326 36.9652
27.7784 37.1145
27.8245 36.939
27.8703 37.2137
27.9164 37.4845
27.9623 37.6809
28.0084 38.1424
28.0543 38.6605
28.1003 38.6325
28.1462 38.4981
28.1923 38.1906
28.2384 37.51
28.2843 37.1765
28.3304 36.5688
28.3764 36.0435
28.4225 35.5762
28.4684 35.5231
28.5145 35.046
28.5605 35.0284
28.6066 34.9397
28.6526 34.8524
28.6987 34.9241
28.7447 34.7481
28.7908 34.5485
28.8368 34.6622
28.8829 34.6892
28.9289 34.7299
28.9751 34.4852
29.0211 34.0596
29.0673 33.8676
29.1133 33.7802
29.1595 33.6381
29.2055 33.5059
29.2517 33.4769
29.2977 33.4841
29.3439 33.5697
29.3899 33.5142
29.4361 33.4132
29.4824 33.2378
29.5284 33.1084
29.5746 32.6628
29.6207 32.4036
29.6669 32.2624
29.713 32.2236
29.7593 32.1205
29.8053 32.0239
29.8516 32.0133
29.8977 31.9553
29.9439 31.9333
29.99 31.7796
30.0363 31.7697
30.0824 31.8006
30.1287 31.6747
30.1748 31.74
30.2211 31.7327
30.2673 31.5453
30.3136 31.7037
30.3597 31.6237
30.406 31.4273
30.4522 31.4016
30.4985 31.2855
30.5447 31.5465
30.591 31.4497
30.6372 31.6492
30.6835 31.6216
30.7297 31.674
30.7761 31.6065
30.8224 31.4619
30.8686 31.2612
30.915 31.0289
30.9612 30.8953
31.0076 30.7635
31.0538 30.5698
31.1002 30.5062
31.1464 30.3506
31.1928 30.3962
31.2391 30.253
31.2855 30.1187
31.3317 30.2169
31.3781 30.2683
31.4244 30.2639
31.4708 30.3191
31.5171 30.2423
31.5636 30.2813
31.6098 29.9573
31.6563 29.7859
31.7026 29.6594
31.7491 29.578
31.7953 29.5565
31.8418 29.4921
31.8881 29.6021
31.9346 29.5075
31.9809 29.461
32.0275 29.381
32.074 29.3636
32.1203 29.0074
32.1668 28.8936
32.2132 28.8429
32.2597 28.614
32.306 28.5613
32.3526 28.3631
32.399 28.2518
32.4455 28.1298
32.4919 28.0059
32.5385 28.0841
32.5848 27.9361
32.6314 27.9614
32.6778 27.7983
32.7244 27.7262
32.7708 27.514
32.8174 27.5511
32.8638 27.4556
32.9104 27.4145
32.9569 27.412
33.0035 27.3025
33.0499 27.2481
33.0966 27.187
33.143 27.2909
33.1897 27.1218
33.2361 27.0694
33.2828 27.0321
33.3293 26.8929
33.3759 26.8754
33.4226 26.616
33.4691 26.6009
33.5158 26.479
33.5623 26.3442
33.609 26.1693
33.6555 26.0693
33.7022 25.9586
33.7487 25.937
33.7954 25.945
33.842 25.8769
33.8887 25.7288
33.9353 25.774
33.982 25.6165
34.0286 25.5252
34.0753 25.4241
34.1219 25.4079
34.1687 25.2974
34.2152 25.2721
34.262 25.0911
34.3086 25.0436
34.3554 24.9881
34.402 24.8951
34.4488 24.7658
34.4954 24.6859
34.5422 24.7085
34.5889 24.4748
34.6357 24.3792
34.6825 24.3272
34.7292 24.2929
34.776 24.1457
34.8227 24.1018
34.8695 24.0966
34.9162 24.0951
34.9631 23.9396
35.0098 23.8467
35.0566 23.8717
35.1033 23.7362
35.1502 23.7821
35.1969 23.6902
35.2438 23.5972
35.2906 23.6221
35.3375 23.4654
35.3842 23.492
35.4311 23.5658
35.4779 23.4436
35.5248 23.3529
35.5716 23.3296
35.6185 23.2918
35.6653 23.2124
35.7123 23.0542
35.759 23.0219
35.806 22.8616
35.8528 22.7896
35.8998 22.7437
35.9468 22.6361
35.9936 22.5725
36.0406 22.518
36.0874 22.5562
36.1345 22.4101
36.1813 22.3687
36.2283 22.2843
36.2752 22.1129
36.3222 22.264
36.3691 22.1521
36.4161 22.0087
36.463 21.978
36.5101 22.0025
36.557 21.8975
36.6041 21.7913
36.651 21.7367
36.6981 21.7038
36.745 21.6086
36.7921 21.5247
36.839 21.4751
36.8861 21.3335
36.9331 21.2608
36.9802 21.2142
37.0272 21.108
37.0743 21.0656
37.1213 21.1181
37.1684 20.9816
37.2154 20.9226
37.2626 20.7767
37.3098 20.813
37.3568 20.7539
37.404 20.6984
37.451 20.5011
37.4982 20.5526
37.5452 20.4417
37.5924 20.3286
37.6395 20.4334
37.6867 20.2345
37.7337 20.1958
37.781 20.1175
37.8281 20.0539
37.8753 19.9883
37.9224 19.8995
37.9697 19.7703
38.0168 19.7146
38.064 19.7186
38.1111 19.6412
38.1584 19.6245
38.2056 19.5705
38.2529 19.4884
38.3 19.4366
38.3473 19.4183
38.3945 19.2567
38.4418 19.236
38.489 19.2362
38.5363 19.0852
38.5837 19.1144
38.6309 18.9994
38.6782 18.8999
38.7254 18.7998
38.7728 18.8216
38.82 18.7807
38.8674 18.7245
38.9146 18.6507
38.9621 18.535
39.0093 18.5456
39.0567 18.4932
39.104 18.3731
39.1514 18.2487
39.1987 18.2765
39.2461 18.2364
39.2934 18.1706
39.3409 18.0497
39.3882 18.0813
39.4356 18.0158
39.483 17.8935
39.5304 17.8713
39.5778 17.8393
39.6253 17.7724
39.6726 17.688
39.7201 17.6881
39.7675 17.5811
39.815 17.5291
39.8624 17.5029
39.9099 17.5137
39.9575 17.3926
40.0049 17.3044
40.0525 17.2528
40.0999 17.2294
40.1474 17.1545
40.1949 17.0449
40.2425 17.0054
40.2899 17.0263
40.3375 16.9529
40.385 16.9124
40.4326 16.807
40.48 16.7541
40.5277 16.7819
40.5752 16.7301
40.6228 16.5532
40.6703 16.5455
40.718 16.5502
40.7655 16.491
40.8132 16.4576
40.8607 16.3645
40.9084 16.3748
40.9559 16.2866
41.0036 16.2264
41.0512 16.1636
41.0989 16.1675
41.1465 16.1089
41.1942 16.0651
41.242 15.9094
41.2896 15.8691
41.3373 15.818
41.3849 15.8016
41.4327 15.7446
41.4803 15.6454
41.5281 15.6674
41.5758 15.561
41.6236 15.5542
41.6712 15.3938
41.7191 15.3532
41.7667 15.4032
41.8146 15.3367
41.8622 15.2643
41.9101 15.2381
41.9578 15.1374
42.0057 15.1422
42.0534 15.0841
42.1013 15.0319
42.149 14.9236
42.1969 14.867
42.2446 14.8825
42.2925 14.8007
42.3403 14.746
42.3882 14.7857
42.436 14.6622
42.4839 14.6298
42.5319 14.534
42.5797 14.4747
42.6277 14.4989
42.6755 14.4245
42.7235 14.3131
42.7713 14.3532
42.8193 14.256
42.8671 14.1823
42.9152 14.1831
42.963 14.1346
43.0111 14.1536
43.0589 14.0461
43.107 13.9553
43.1549 13.9207
43.2029 13.9125
43.2508 13.7846
43.2989 13.7084
43.3468 13.7515
43.3949 13.7161
43.4429 13.6178
43.491 13.6605
43.5389 13.5546
43.5871 13.5037
43.635 13.4291
43.6832 13.4286
43.7312 13.3509
43.7793 13.2966
43.8273 13.281
43.8755 13.2351
43.9237 13.1799
43.9717 13.147
44.0199 13.0598
44.068 13.0347
44.1162 12.9982
44.1642 13.0069
44.2125 12.9139
44.2606 12.8691
44.3088 12.84
44.3569 12.8161
44.4052 12.7102
44.4533 12.6623
44.5016 12.634
44.5497 12.5971
44.598 12.5139
44.6461 12.4934
44.6945 12.4599
44.7426 12.4456
44.791 12.337
44.8391 12.372
44.8875 12.2537
44.9357 12.2239
44.984 12.1703
45.0322 12.1899
45.0806 12.1035
45.1288 12.0684
45.1773 12.0278
45.2257 12.001
45.2739 11.9277
45.3224 11.8927
45.3706 11.8589
45.4191 11.8382
45.4673 11.8241
45.5158 11.7653
45.5641 11.6661
45.6126 11.7026
45.6609 11.6201
45.7094 11.535
45.7577 11.5444
45.8063 11.4486
45.8546 11.4277
45.9031 11.3804
45.9515 11.3834
46.0001 11.3209
46.0484 11.2897
46.097 11.2933
46.1454 11.2343
46.194 11.1817
46.2424 11.1214
46.291 11.0785
46.3395 11.0851
46.3881 10.9359
46.4365 10.9743
46.4852 10.912
46.5337 10.9036
46.5823 10.8514
46.631 10.8058
46.6795 10.7702
46.7282 10.7021
46.7767 10.6845
46.8254 10.6772
46.8739 10.5927
46.9226 10.5693
46.9712 10.5373
47.0199 10.461
47.0685 10.4776
47.1173 10.3715
47.1658 10.387
47.2146 10.3706
47.2632 10.2912
47.312 10.2609
47.3606 10.222
47.4095 10.197
47.4581 10.1449
47.5069 10.0673
47.5556 10.0805
47.6044 10.0062
47.6531 10.0019
47.702 9.92063
47.7507 9.92148
47.7996 9.86346
47.8483 9.87895
47.8972 9.76389
47.9461 9.78103
47.9948 9.7481
48.0438 9.70015
48.0925 9.65564
48.1415 9.64564
48.1902 9.60416
48.2392 9.59078
48.288 9.54423
48.337 9.51054
48.3858 9.46472
48.4348 9.45841
48.4837 9.4102
48.5327 9.36743
48.5815 9.2853
48.6306 9.2926
48.6795 9.26811
48.7285 9.22251
48.7774 9.20471
48.8265 9.16279
48.8754 9.09756
48.9245 9.09496
48.9734 9.05364
49.0226 9.04806
49.0715 9.00567
49.1206 8.9576
49.1696 8.91215
49.2188 8.89051
49.2679 8.87097
49.3169 8.817
49.3661 8.78283
49.4151 8.72746
49.4643 8.7073
49.5134 8.69865
49.5626 8.6114
49.6117 8.64184
49.6609 8.59566
49.71 8.52685
49.7592 8.49514
49.8083 8.4763
49.8576 8.43822
49.9067 8.45111
49.956 8.37013
50.0052 8.33329
50.0545 8.33037
50.1036 8.26628
50.153 8.27669
50.2022 8.23804
50.2515 8.21094
50.3007 8.14763
50.3501 8.13479
50.3993 8.12421
50.4487 8.04472
50.498 8.03645
50.5474 7.97515
50.5966 7.99655
50.6461 7.93643
50.6955 7.91076
50.7448 7.90307
50.7943 7.84426
50.8436 7.81492
50.8931 7.77583
50.9424 7.7755
50.9919 7.74691
51.0413 7.70581
51.0908 7.67617
51.1402 7.6492
51.1897 7.62052
51.2391 7.55301
51.2887 7.53545
51.3381 7.52196
51.3877 7.52766
51.4371 7.46102
51.4867 7.42127
51.5362 7.36145
51.5858 7.39507
51.6353 7.34877
51.6849 7.28899
51.7344 7.26878
51.7841 7.2795
51.8336 7.22116
51.8833 7.17176
51.9328 7.15551
51.9826 7.15232
52.0323 7.06438
52.0818 7.05945
52.1316 7.03341
52.1812 7.00233
52.231 6.96318
52.2806 6.94773
52.3304 6.91844
52.38 6.87247
52.4298 6.83765
52.4794 6.84523
52.5293 6.81203
52.5789 6.78242
52.6288 6.76245
52.6785 6.72435
52.7284 6.71902
52.7781 6.65125
52.828 6.63803
52.8777 6.57818
52.9276 6.60174
52.9774 6.54991
53.0273 6.5042
53.0771 6.51627
53.1271 6.49067
53.1769 6.40477
53.2269 6.40786
53.2767 6.38397
53.3267 6.38774
53.3765 6.36832
53.4266 6.34289
53.4766 6.25373
53.5265 6.2485
53.5765 6.23869
53.6264 6.23073
53.6765 6.18989
53.7264 6.15964
53.7765 6.14386
53.8265 6.06324
53.8766 6.01122
53.9266 6.01974
53.9767 5.99529
54.0267 6.01644
54.0769 5.96195
54.1269 5.92663
54.1771 5.90836
54.2271 5.86639
54.2773 5.864
54.3274 5.8156
54.3776 5.7895
54.4277 5.75294
54.478 5.73354
54.528 5.69933
54.5783 5.66016
54.6285 5.63166
54.6788 5.54262
54.7289 5.57456
54.7792 5.46317
54.8296 5.43957
54.8798 5.38763
54.9301 5.35891
54.9803 5.36273
55.0307 5.32182
55.0809 5.29564
55.1314 5.26005
55.1816 5.1354
55.232 5.15447
55.2823 5.11142
55.3328 5.08018
55.383 4.98964
55.4335 4.99271
55.4838 4.93892
55.5344 4.87625
55.5847 4.84964
55.6352 4.79971
55.6856 4.75057
55.7361 4.7573