File: XRD/Ni3Fe_FD0941.xy
TT I
1.27165 7.42753
1.31627 6.70949
1.36089 6.86116
1.40551 5.88929
1.45013 6.52755
1.49476 5.99412
1.53938 6.11303
1.584 4.98864
1.62863 5.20687
1.67325 4.79357
1.71787 4.70003
1.7625 4.46603
1.80712 4.91873
1.85174 4.64097
1.89636 4.3287
1.94099 5.09414
1.98562 4.70247
2.03025 4.82521
2.07487 4.90848
2.11949 5.28591
2.16411 5.20195
2.20874 7.65462
2.25338 9.7434
2.298 5.31128
2.34263 5.74803
2.38725 6.33839
2.43188 6.18156
2.4765 7.38429
2.52115 7.49355
2.56577 8.1825
2.6104 8.8545
2.65503 8.06796
2.69965 8.58299
2.7443 8.31247
2.78893 8.40055
2.83356 8.85279
2.87818 8.78733
2.92281 9.61931
2.96744 10.0643
3.01209 9.949
3.05672 10.9912
3.10135 12.6455
3.14599 13.2755
3.19062 14.6828
3.23527 15.5735
3.2799 15.6523
3.32454 16.4647
3.36917 17.3274
3.4138 18.9175
3.45844 19.2821
3.50309 20.5348
3.54773 21.178
3.59237 23.0645
3.637 42.1563
3.68164 32.9301
3.7263 24.9184
3.77094 25.4796
3.81558 26.1805
3.86022 26.5986
3.90486 28.0904
3.9495 29.1675
3.99416 30.1524
4.0388 31.4402
4.08344 32.9267
4.12809 33.6465
4.17273 35.1429
4.21738 38.0375
4.26204 99.0982
4.30669 88.0493
4.35133 43.5014
4.39598 43.1185
4.44063 47.4407
4.4853 52.1035
4.52995 59.3837
4.5746 59.8098
4.61925 53.2917
4.6639 54.8875
4.70855 57.9622
4.75322 61.424
4.79788 69.2181
4.84253 67.7714
4.88719 75.9686
4.93184 76.5186
4.97652 80.0853
5.02118 85.5549
5.06583 93.699
5.11049 104.741
5.15515 153.485
5.19981 371.618
5.24449 2778.42
5.28916 13591.7
5.33382 2686.77
5.37848 197.135
5.42315 130.512
5.46783 121.09
5.5125 114.26
5.55716 101.738
5.60183 96.5497
5.6465 95.0787
5.69117 92.7437
5.73586 92.2319
5.78053 100.208
5.8252 99.9485
5.86988 103.699
5.91455 94.3814
5.95924 102.259
6.00392 228.124
6.0486 910.61
6.09328 4680.88
6.13795 2989.07
6.18263 192.316
6.22733 87.3016
6.27201 78.5421
6.3167 80.1721
6.36138 72.2401
6.40606 69.5229
6.45075 70.2074
6.49545 64.8353
6.54014 62.3648
6.58483 62.2012
6.62952 62.5541
6.67421 68.7499
6.71892 80.7404
6.76361 60.2785
6.8083 59.2965
6.853 60.384
6.89769 56.3008
6.94239 55.4942
6.98711 54.6983
7.03181 55.3751
7.07651 54.3535
7.12121 54.0055
7.16591 55.8312
7.21063 54.8732
7.25533 58.072
7.30004 86.8134
7.34475 63.5914
7.38945 54.5305
7.43416 52.7279
7.47889 52.9711
7.5236 53.3832
7.56831 54.2216
7.61303 54.4176
7.65774 55.0691
7.70247 56.6306
7.74719 55.8866
7.79191 55.5087
7.83663 56.073
7.88135 56.5797
7.92607 57.8522
7.97081 58.7554
8.01553 60.402
8.06026 62.2166
8.10498 63.3533
8.14971 70.6776
8.19446 70.4602
8.23919 68.3031
8.28392 70.9034
8.32865 73.3121
8.37339 77.4396
8.41812 82.0851
8.46288 99.3231
8.50761 171.19
8.55235 366.68
8.59709 1203.66
8.64183 2232.72
8.68658 831.235
8.73134 140.161
8.77609 95.8231
8.82083 90.916
8.86558 92.505
8.91033 92.6145
8.9551 88.7823
8.99985 84.7583
9.04461 83.0432
9.08936 83.959
9.13412 82.2096
9.17888 81.1685
9.22365 81.2127
9.26841 81.3176
9.31318 84.522
9.35794 87.5574
9.4027 85.7601
9.44749 85.1152
9.49226 83.9737
9.53703 84.946
9.5818 88.9059
9.62657 95.012
9.67134 94.5952
9.71614 91.5794
9.76091 94.0987
9.80569 99.7129
9.85047 101.097
9.89525 108.64
9.94005 123.362
9.98484 185.58
10.0296 331.424
10.0744 832.509
10.1192 1841.4
10.164 1463.38
10.2088 324.367
10.2536 117.894
10.2984 107.036
10.3432 105.795
10.388 103.34
10.4328 119.585
10.4776 157.973
10.5224 290.748
10.5672 550.115
10.612 480.894
10.6568 175.948
10.7017 91.9219
10.7465 84.7527
10.7913 82.0328
10.8361 79.953
10.8809 77.4975
10.9257 77.1206
10.9706 77.351
11.0154 74.7391
11.0602 71.7456
11.105 70.062
11.1499 70.4646
11.1947 71.7341
11.2395 68.4822
11.2844 67.1964
11.3292 65.9804
11.374 65.0574
11.4189 64.4357
11.4637 63.6927
11.5086 63.2803
11.5534 63.9649
11.5983 63.0059
11.6431 62.4482
11.688 61.7965
11.7328 61.4593
11.7777 61.8628
11.8225 62.0511
11.8674 61.6059
11.9122 61.98
11.9571 62.4231
12.002 63.5694
12.0468 67.7956
12.0917 77.182
12.1366 102.42
12.1814 159.767
12.2263 209.992
12.2712 153.74
12.3161 85.8853
12.3609 65.1866
12.4058 62.9454
12.4507 63.2131
12.4956 63.7894
12.5405 64.1315
12.5853 64.1282
12.6302 66.5232
12.6751 68.6518
12.72 66.953
12.7649 66.6991
12.8098 67.489
12.8547 69.0433
12.8996 70.4365
12.9445 72.355
12.9894 73.807
13.0343 75.1269
13.0792 79.3856
13.1242 91.2631
13.1691 109.234
13.214 146.199
13.2589 246.948
13.3038 392.53
13.3487 417.799
13.3937 226.682
13.4386 113.791
13.4835 104.101
13.5285 117.835
13.5734 158.598
13.6183 259.936
13.6633 372.809
13.7082 322.555
13.7531 165.557
13.7981 91.6207
13.843 80.2596
13.888 78.4512
13.9329 76.0403
13.9779 74.7234
14.0228 73.1726
14.0678 72.1851
14.1127 71.2639
14.1577 70.6563
14.2027 69.8948
14.2476 69.2309
14.2926 68.9275
14.3376 69.011
14.3825 68.499
14.4275 67.985
14.4725 67.8118
14.5175 67.8375
14.5624 67.7878
14.6074 68.4673
14.6524 69.0253
14.6974 69.5199
14.7424 72.8294
14.7874 78.1352
14.8324 87.6293
14.8774 111.031
14.9224 160.095
14.9674 219.079
15.0124 212.066
15.0574 135.835
15.1024 84.1725
15.1474 70.5348
15.1924 68.883
15.2374 68.3413
15.2824 67.3775
15.3274 66.1906
15.3725 65.7575
15.4175 65.3103
15.4625 64.7865
15.5076 64.4479
15.5526 64.5121
15.5976 64.8504
15.6426 67.1945
15.6877 71.6762
15.7327 78.597
15.7778 94.0468
15.8228 128.771
15.8679 177.776
15.9129 195.463
15.958 144.668
16.003 86.7314
16.0481 64.6197
16.0931 61.6346
16.1382 60.2265
16.1833 58.9995
16.2283 57.8155
16.2734 57.1562
16.3185 56.7582
16.3636 56.7892
16.4086 55.9221
16.4537 55.1162
16.4988 54.4419
16.5439 54.522
16.589 54.2146
16.6341 53.8918
16.6792 53.5661
16.7243 53.5474
16.7694 53.7903
16.8145 53.58
16.8596 53.9468
16.9047 54.5405
16.9498 54.6077
16.9949 54.5303
17.04 55.1013
17.0851 56.1048
17.1302 57.5179
17.1754 60.6923
17.2205 66.212
17.2656 74.9604
17.3108 83.1979
17.3559 80.3175
17.401 67.3746
17.4462 60.2709
17.4913 58.3596
17.5365 58.1294
17.5815 58.3792
17.6268 58.7688
17.6718 59.1791
17.7171 59.6128
17.7622 60.2808
17.8074 61.6963
17.8525 64.0696
17.8977 66.9798
17.9428 72.4707
17.9881 82.1389
18.0331 101.384
18.0784 126.815
18.1237 140.544
18.1688 125.341
18.214 96.7293
18.2591 83.4819
18.3044 90.8717
18.3495 101.688
18.3948 105.399
18.4399 90.5739
18.4852 72.8152
18.5303 63.8841
18.5756 60.967
18.6207 60.0213
18.666 59.2794
18.7112 58.3896
18.7565 58.1412
18.8016 57.643
18.8469 57.1023
18.892 56.9554
18.9374 56.1885
18.9825 56.0647
19.0278 55.8634
19.073 56.0713
19.1183 56.1588
19.1635 56.6918
19.2088 58.2026
19.254 61.3826
19.2993 66.3811
19.3447 72.2534
19.3898 74.9991
19.4352 68.972
19.4804 60.2305
19.5257 55.0289
19.5709 53.2887
19.6163 52.8847
19.6615 52.8101
19.7068 52.2816
19.752 52.3571
19.7974 52.8797
19.8426 53.6048
19.888 53.8091
19.9332 55.2197
19.9786 58.2762
20.0238 62.5558
20.0692 67.8226
20.1144 69.2708
20.1598 66.4039
20.205 61.6714
20.2504 61.3526
20.2957 64.3931
20.3411 65.2257
20.3863 62.1869
20.4318 55.9272
20.477 51.9438
20.5224 49.9585
20.5677 49.5925
20.6131 49.228
20.6586 48.7287
20.7038 48.5001
20.7493 48.1417
20.7945 48.2006
20.84 48.0867
20.8853 48.0408
20.9307 47.7228
20.976 48.0434
21.0215 47.7891
21.0668 48.2083
21.1122 48.6956
21.1575 49.27
21.203 50.2457
21.2483 50.632
21.2938 50.6066
21.3391 48.8715
21.3846 48.0095
21.4299 47.5423
21.4754 47.7643
21.5207 47.7329
21.5662 48.2543
21.6116 48.631
21.6571 48.9673
21.7024 50.0056
21.7479 52.0121
21.7933 54.867
21.8388 58.8731
21.8843 63.2445
21.9297 64.0597
21.9752 61.2583
22.0206 57.4147
22.0661 55.508
22.1115 55.6488
22.157 55.0233
22.2024 52.7985
22.248 50.0881
22.2933 48.8882
22.3389 48.1998
22.3843 47.8808
22.4299 47.7809
22.4753 47.9051
22.5208 47.8491
22.5662 47.6903
22.6118 47.9875
22.6572 48.1417
22.7028 48.4465
22.7483 48.8903
22.7939 49.55
22.8393 51.3474
22.8849 53.5318
22.9303 55.9955
22.9759 57.4087
23.0214 56.1729
23.067 52.7188
23.1126 49.6782
23.1581 48.117
23.2037 47.8915
23.2492 48.1458
23.2948 48.0552
23.3403 48.2239
23.3859 48.7839
23.4314 50.2108
23.477 52.067
23.5225 54.6914
23.5682 56.9091
23.6137 57.2001
23.6593 54.1057
23.7048 49.725
23.7505 46.8889
23.796 45.7341
23.8417 45.1306
23.8872 44.6883
23.9329 44.4459
23.9784 44.0861
24.0241 43.7808
24.0697 43.621
24.1154 43.2362
24.1609 43.1642
24.2066 42.9491
24.2522 43.0278
24.2979 42.7113
24.3434 42.5308
24.3892 42.3674
24.4349 42.4053
24.4805 42.127
24.5262 42.3498
24.5718 42.2185
24.6175 42.2545
24.6631 41.9032
24.7089 41.79
24.7545 41.6536
24.8002 41.4128
24.8458 41.459
24.8916 41.3725
24.9372 41.4999
24.983 41.8422
25.0286 42.1884
25.0744 42.7348
25.12 43.3808
25.1658 43.6645
25.2114 43.9325
25.2572 44.026
25.3029 44.4035
25.3487 44.366
25.3943 43.7206
25.4402 42.5136
25.4858 41.5906
25.5316 40.6621
25.5773 40.1862
25.6231 40.1388
25.669 39.8387
25.7147 39.8033
25.7605 39.7461
25.8062 39.7703
25.8521 39.9005
25.8977 40.0206
25.9436 40.2199
25.9893 40.3831
26.0352 40.9561
26.0809 41.0178
26.1268 41.1114
26.1725 40.6388
26.2184 39.943
26.2641 39.5558
26.31 39.5111
26.3557 39.4061
26.4017 39.3876
26.4474 39.8335
26.4933 40.0588
26.5391 40.6078
26.585 41.2015
26.6308 41.4898
26.6767 41.4648
26.7225 41.2004
26.7684 40.5303
26.8142 40.1537
26.8601 39.7852
26.9059 39.2667
26.9519 38.5214
26.9979 38.5223
27.0437 38.2248
27.0896 38.1113
27.1354 38.0164
27.1814 37.9442
27.2272 37.7975
27.2732 37.9139
27.3191 37.6492
27.3651 37.9269
27.4109 37.679
27.4569 37.8782
27.5027 37.9674
27.5488 38.0501
27.5946 37.9158
27.6407 37.5205
27.6865 37.4822
27.7326 37.2904
27.7784 37.2723
27.8245 37.1095
27.8703 37.4137
27.9164 37.7086
27.9623 37.9551
28.0084 38.2268
28.0543 38.6298
28.1003 38.3661
28.1462 38.0627
28.1923 37.7498
28.2384 37.4361
28.2843 36.9254
28.3304 36.3969
28.3764 35.9344
28.4225 35.6749
28.4684 35.4691
28.5145 35.3115
28.5605 35.1741
28.6066 35.1285
28.6526 34.9154
28.6987 35.0329
28.7447 34.9808
28.7908 34.8587
28.8368 34.9327
28.8829 34.8697
28.9289 34.7143
28.9751 34.5142
29.0211 34.242
29.0673 34.0823
29.1133 33.9213
29.1595 33.7974
29.2055 33.6447
29.2517 33.7792
29.2977 33.7413
29.3439 33.6878
29.3899 33.6669
29.4361 33.6569
29.4824 33.3052
29.5284 33.1279
29.5746 32.7756
29.6207 32.6532
29.6669 32.6408
29.713 32.3352
29.7593 32.2891
29.8053 32.2868
29.8516 32.1368
29.8977 32.2484
29.9439 32.0515
29.99 32.0469
30.0363 31.9779
30.0824 31.9717
30.1287 31.9115
30.1748 32.0023
30.2211 31.8691
30.2673 31.682
30.3136 31.7271
30.3597 31.772
30.406 31.6146
30.4522 31.5126
30.4985 31.5956
30.5447 31.7424
30.591 31.6195
30.6372 31.658
30.6835 31.7021
30.7297 31.705
30.7761 31.6347
30.8224 31.3988
30.8686 31.2444
30.915 31.0516
30.9612 30.9567
31.0076 30.765
31.0538 30.5647
31.1002 30.633
31.1464 30.4392
31.1928 30.4546
31.2391 30.4313
31.2855 30.2829
31.3317 30.3404
31.3781 30.4313
31.4244 30.4498
31.4708 30.2078
31.5171 30.3392
31.5636 30.2206
31.6098 29.9193
31.6563 29.8199
31.7026 29.6895
31.7491 29.5971
31.7953 29.6308
31.8418 29.6276
31.8881 29.6848
31.9346 29.6448
31.9809 29.5216
32.0275 29.3893
32.074 29.2817
32.1203 29.0846
32.1668 29.08
32.2132 28.8936
32.2597 28.7922
32.306 28.6272
32.3526 28.3619
32.399 28.3916
32.4455 28.3253
32.4919 28.1312
32.5385 28.1802
32.5848 27.8999
32.6314 28.0344
32.6778 27.9016
32.7244 27.8893
32.7708 27.7334
32.8174 27.6878
32.8638 27.596
32.9104 27.5625
32.9569 27.5671
33.0035 27.4651
33.0499 27.401
33.0966 27.3102
33.143 27.3179
33.1897 27.2379
33.2361 27.1493
33.2828 27.0613
33.3293 26.8964
33.3759 26.9399
33.4226 26.649
33.4691 26.5874
33.5158 26.5764
33.5623 26.4204
33.609 26.3082
33.6555 26.237
33.7022 26.153
33.7487 26.0795
33.7954 26.0333
33.842 25.965
33.8887 25.8928
33.9353 25.768
33.982 25.6554
34.0286 25.5965
34.0753 25.4939
34.1219 25.5061
34.1687 25.4555
34.2152 25.2943
34.262 25.2076
34.3086 25.129
34.3554 25.1165
34.402 24.9356
34.4488 24.851
34.4954 24.7799
34.5422 24.7003
34.5889 24.5332
34.6357 24.5022
34.6825 24.5182
34.7292 24.4166
34.776 24.3408
34.8227 24.2451
34.8695 24.2007
34.9162 24.1803
34.9631 24.0691
35.0098 24.126
35.0566 23.939
35.1033 23.8973
35.1502 23.9428
35.1969 23.7675
35.2438 23.7634
35.2906 23.696
35.3375 23.6775
35.3842 23.616
35.4311 23.6101
35.4779 23.5711
35.5248 23.5809
35.5716 23.3834
35.6185 23.2757
35.6653 23.2366
35.7123 23.1224
35.759 23.0527
35.806 22.9426
35.8528 22.8464
35.8998 22.798
35.9468 22.6731
35.9936 22.6623
36.0406 22.5791
36.0874 22.5884
36.1345 22.5386
36.1813 22.5055
36.2283 22.2731
36.2752 22.2681
36.3222 22.3207
36.3691 22.1838
36.4161 22.0995
36.463 22.059
36.5101 21.9955
36.557 21.9458
36.6041 21.8255
36.651 21.8105
36.6981 21.7079
36.745 21.7556
36.7921 21.6026
36.839 21.5064
36.8861 21.4667
36.9331 21.3606
36.9802 21.2806
37.0272 21.2228
37.0743 21.1512
37.1213 21.1353
37.1684 21.0058
37.2154 21.0168
37.2626 20.8895
37.3098 20.9384
37.3568 20.7615
37.404 20.6839
37.451 20.6146
37.4982 20.5606
37.5452 20.5329
37.5924 20.4955
37.6395 20.4342
37.6867 20.2812
37.7337 20.2294
37.781 20.184
37.8281 20.1479
37.8753 20.0565
37.9224 19.9417
37.9697 19.925
38.0168 19.8329
38.064 19.8284
38.1111 19.7659
38.1584 19.6243
38.2056 19.6123
38.2529 19.5397
38.3 19.4801
38.3473 19.5
38.3945 19.3267
38.4418 19.3583
38.489 19.2917
38.5363 19.1547
38.5837 19.0837
38.6309 19.0684
38.6782 19.0267
38.7254 18.8848
38.7728 18.8476
38.82 18.7978
38.8674 18.7968
38.9146 18.7084
38.9621 18.6004
39.0093 18.588
39.0567 18.5241
39.104 18.4571
39.1514 18.4066
39.1987 18.2974
39.2461 18.3197
39.2934 18.2331
39.3409 18.0958
39.3882 18.0639
39.4356 18.0626
39.483 18.0024
39.5304 17.9384
39.5778 17.9051
39.6253 17.8559
39.6726 17.7938
39.7201 17.7757
39.7675 17.6606
39.815 17.6415
39.8624 17.4762
39.9099 17.4999
39.9575 17.4627
40.0049 17.4451
40.0525 17.3653
40.0999 17.2135
40.1474 17.234
40.1949 17.1467
40.2425 17.0965
40.2899 17.0249
40.3375 16.9817
40.385 16.9419
40.4326 16.8663
40.48 16.8297
40.5277 16.7903
40.5752 16.7167
40.6228 16.6623
40.6703 16.6529
40.718 16.5784
40.7655 16.509
40.8132 16.4914
40.8607 16.5024
40.9084 16.2924
40.9559 16.2819
41.0036 16.2622
41.0512 16.2316
41.0989 16.1902
41.1465 16.1177
41.1942 16.1011
41.242 15.9957
41.2896 15.935
41.3373 15.9335
41.3849 15.8801
41.4327 15.8244
41.4803 15.718
41.5281 15.6629
41.5758 15.6169
41.6236 15.5487
41.6712 15.5178
41.7191 15.4667
41.7667 15.448
41.8146 15.3989
41.8622 15.3253
41.9101 15.2604
41.9578 15.1873
42.0057 15.1228
42.0534 15.1222
42.1013 15.0983
42.149 14.9566
42.1969 14.9422
42.2446 14.965
42.2925 14.8706
42.3403 14.7371
42.3882 14.8298
42.436 14.7729
42.4839 14.651
42.5319 14.6135
42.5797 14.5572
42.6277 14.4835
42.6755 14.415
42.7235 14.3533
42.7713 14.3587
42.8193 14.3497
42.8671 14.256
42.9152 14.2504
42.963 14.131
43.0111 14.1092
43.0589 14.0843
43.107 14.0298
43.1549 13.968
43.2029 13.9393
43.2508 13.9065
43.2989 13.8228
43.3468 13.7885
43.3949 13.7522
43.4429 13.6923
43.491 13.6448
43.5389 13.6324
43.5871 13.5836
43.635 13.4684
43.6832 13.433
43.7312 13.3703
43.7793 13.3454
43.8273 13.2935
43.8755 13.2187
43.9237 13.2317
43.9717 13.2098
44.0199 13.0777
44.068 13.0912
44.1162 13.0083
44.1642 12.9786
44.2125 12.99
44.2606 12.8893
44.3088 12.7712
44.3569 12.8216
44.4052 12.7922
44.4533 12.7476
44.5016 12.6878
44.5497 12.6394
44.598 12.6238
44.6461 12.5541
44.6945 12.4852
44.7426 12.4654
44.791 12.4338
44.8391 12.3824
44.8875 12.3307
44.9357 12.3107
44.984 12.2721
45.0322 12.1767
45.0806 12.1343
45.1288 12.1983
45.1773 12.0607
45.2257 12.0531
45.2739 12.0309
45.3224 11.925
45.3706 11.896
45.4191 11.8702
45.4673 11.8233
45.5158 11.7758
45.5641 11.7476
45.6126 11.6939
45.6609 11.6613
45.7094 11.6042
45.7577 11.541
45.8063 11.4987
45.8546 11.494
45.9031 11.4468
45.9515 11.3933
46.0001 11.3846
46.0484 11.3665
46.097 11.298
46.1454 11.2424
46.194 11.2349
46.2424 11.1911
46.291 11.113
46.3395 11.0849
46.3881 11.0133
46.4365 11.0117
46.4852 11.0029
46.5337 10.9438
46.5823 10.9239
46.631 10.8225
46.6795 10.7975
46.7282 10.7417
46.7767 10.7242
46.8254 10.6636
46.8739 10.6518
46.9226 10.6405
46.9712 10.5898
47.0199 10.5571
47.0685 10.5176
47.1173 10.4416
47.1658 10.432
47.2146 10.3757
47.2632 10.3385
47.312 10.3167
47.3606 10.268
47.4095 10.2166
47.4581 10.135
47.5069 10.1338
47.5556 10.1055
47.6044 10.0428
47.6531 9.9895
47.702 9.98814
47.7507 9.97569
47.7996 9.9233
47.8483 9.86193
47.8972 9.85534
47.9461 9.78764
47.9948 9.75257
48.0438 9.77151
48.0925 9.72137
48.1415 9.64246
48.1902 9.62631
48.2392 9.62926
48.288 9.59121
48.337 9.54039
48.3858 9.48364
48.4348 9.48085
48.4837 9.45488
48.5327 9.41963
48.5815 9.37114
48.6306 9.34827
48.6795 9.28051
48.7285 9.2558
48.7774 9.18762
48.8265 9.19496
48.8754 9.15033
48.9245 9.1391
48.9734 9.0517
49.0226 9.11805
49.0715 9.0263
49.1206 8.97574
49.1696 8.91525
49.2188 8.92392
49.2679 8.86353
49.3169 8.85212
49.3661 8.80633
49.4151 8.74735
49.4643 8.72497
49.5134 8.72956
49.5626 8.62103
49.6117 8.64599
49.6609 8.64595
49.71 8.54615
49.7592 8.53595
49.8083 8.50437
49.8576 8.50251
49.9067 8.43623
49.956 8.43395
50.0052 8.38832
50.0545 8.33857
50.1036 8.29351
50.153 8.25933
50.2022 8.25918
50.2515 8.18068
50.3007 8.16532
50.3501 8.15199
50.3993 8.11375
50.4487 8.07218
50.498 8.08266
50.5474 8.03361
50.5966 8.00136
50.6461 7.9832
50.6955 7.92871
50.7448 7.91616
50.7943 7.89109
50.8436 7.85067
50.8931 7.84785
50.9424 7.84057
50.9919 7.74602
51.0413 7.73987
51.0908 7.6875
51.1402 7.64523
51.1897 7.64774
51.2391 7.62889
51.2887 7.58651
51.3381 7.56153
51.3877 7.51804
51.4371 7.44902
51.4867 7.43735
51.5362 7.41713
51.5858 7.40455
51.6353 7.36683
51.6849 7.3213
51.7344 7.30236
51.7841 7.28759
51.8336 7.24078
51.8833 7.19051
51.9328 7.18525
51.9826 7.16363
52.0323 7.09066
52.0818 7.10299
52.1316 7.05738
52.1812 7.01813
52.231 6.97103
52.2806 6.97851
52.3304 6.94029
52.38 6.93779
52.4298 6.91782
52.4794 6.88117
52.5293 6.8411
52.5789 6.81184
52.6288 6.80833
52.6785 6.72007
52.7284 6.71725
52.7781 6.68844
52.828 6.69796
52.8777 6.62719
52.9276 6.59538
52.9774 6.5892
53.0273 6.54522
53.0771 6.51058
53.1271 6.51826
53.1769 6.47829
53.2269 6.46827
53.2767 6.42033
53.3267 6.39093
53.3765 6.38384
53.4266 6.36504
53.4766 6.32834
53.5265 6.27482
53.5765 6.21485
53.6264 6.26842
53.6765 6.20801
53.7264 6.16301
53.7765 6.21011
53.8265 6.1153
53.8766 6.07021
53.9266 6.09477
53.9767 6.03581
54.0267 6.01471
54.0769 6.02483
54.1269 5.94833
54.1771 5.92736
54.2271 5.89445
54.2773 5.8586
54.3274 5.86095
54.3776 5.84367
54.4277 5.76061
54.478 5.74945
54.528 5.68871
54.5783 5.6785
54.6285 5.63264
54.6788 5.57821
54.7289 5.55214
54.7792 5.55426
54.8296 5.48532
54.8798 5.41364
54.9301 5.39571
54.9803 5.30899
55.0307 5.32896
55.0809 5.33752
55.1314 5.24925
55.1816 5.19003
55.232 5.17149
55.2823 5.09286
55.3328 5.08577
55.383 5.03092
55.4335 5.00668
55.4838 4.92247
55.5344 4.91744
55.5847 4.8753
55.6352 4.77403
55.6856 4.79598
55.7361 4.7354