File: XRD/Ni3Fe_FD0646.xy
TT I
1.27165 7.63313
1.31627 6.99058
1.36089 6.8248
1.40551 5.80917
1.45013 5.80098
1.49476 6.45156
1.53938 6.12819
1.584 5.8394
1.62863 5.63516
1.67325 5.32365
1.71787 5.70208
1.7625 4.82428
1.80712 4.94181
1.85174 4.48057
1.89636 5.08775
1.94099 5.10115
1.98562 4.75796
2.03025 4.76601
2.07487 4.53791
2.11949 5.03988
2.16411 4.74531
2.20874 16.2672
2.25338 28.5031
2.298 5.89791
2.34263 5.18956
2.38725 5.94251
2.43188 6.09428
2.4765 6.45094
2.52115 6.89569
2.56577 7.92026
2.6104 7.61909
2.65503 6.92854
2.69965 8.01834
2.7443 7.34679
2.78893 8.32509
2.83356 8.2959
2.87818 8.86703
2.92281 9.01722
2.96744 10.1294
3.01209 10.9136
3.05672 11.4403
3.10135 12.8369
3.14599 12.8036
3.19062 14.5706
3.23527 15.165
3.2799 15.9037
3.32454 16.6349
3.36917 18.0039
3.4138 18.7485
3.45844 20.4527
3.50309 21.097
3.54773 22.0938
3.59237 24.8732
3.637 113.629
3.68164 70.7899
3.7263 27.0295
3.77094 26.4419
3.81558 27.3702
3.86022 27.877
3.90486 29.5289
3.9495 29.7436
3.99416 30.9899
4.0388 32.9698
4.08344 33.7854
4.12809 35.4861
4.17273 38.4004
4.21738 44.7283
4.26204 310.172
4.30669 274.246
4.35133 50.5064
4.39598 45.2921
4.44063 56.9228
4.4853 71.0446
4.52995 50.9588
4.5746 51.1213
4.61925 53.5355
4.6639 55.3172
4.70855 57.8615
4.75322 60.5573
4.79788 63.7434
4.84253 67.3189
4.88719 70.8512
4.93184 74.3424
4.97652 79.8359
5.02118 86.0474
5.06583 93.2178
5.11049 105.079
5.15515 185.854
5.19981 332.547
5.24449 2624.44
5.28916 12552.0
5.33382 3189.72
5.37848 197.434
5.42315 130.389
5.46783 113.819
5.5125 105.753
5.55716 101.697
5.60183 98.9228
5.6465 97.05
5.69117 93.6387
5.73586 92.2012
5.78053 91.2218
5.8252 90.7722
5.86988 91.1878
5.91455 93.3575
5.95924 100.142
6.00392 190.528
6.0486 907.882
6.09328 4278.51
6.13795 3492.32
6.18263 258.699
6.22733 94.7089
6.27201 84.1161
6.3167 110.854
6.36138 84.451
6.40606 69.3892
6.45075 67.7707
6.49545 65.6767
6.54014 64.1009
6.58483 63.3528
6.62952 63.2401
6.67421 102.977
6.71892 171.128
6.76361 72.4105
6.8083 59.1449
6.853 57.9369
6.89769 57.3998
6.94239 56.8327
6.98711 56.5865
7.03181 56.1527
7.07651 56.3956
7.12121 55.6858
7.16591 56.2855
7.21063 56.0767
7.25533 74.23
7.30004 220.074
7.34475 104.724
7.38945 57.5162
7.43416 54.8447
7.47889 54.868
7.5236 55.1096
7.56831 55.5616
7.61303 58.3225
7.65774 58.4636
7.70247 56.3076
7.74719 56.5232
7.79191 57.1079
7.83663 57.2801
7.88135 58.2202
7.92607 58.9241
7.97081 60.0633
8.01553 60.9423
8.06026 62.4254
8.10498 64.1323
8.14971 75.7033
8.19446 74.2673
8.23919 69.7394
8.28392 71.9692
8.32865 74.0364
8.37339 77.6632
8.41812 85.3537
8.46288 120.394
8.50761 157.087
8.55235 362.134
8.59709 1093.96
8.64183 2177.72
8.68658 1033.84
8.73134 177.658
8.77609 100.559
8.82083 93.0582
8.86558 89.9236
8.91033 90.6669
8.9551 93.4016
8.99985 85.8779
9.04461 83.3774
9.08936 82.7367
9.13412 81.9727
9.17888 82.17
9.22365 83.4081
9.26841 82.0706
9.31318 82.2938
9.35794 82.2773
9.4027 82.6495
9.44749 84.0638
9.49226 84.561
9.53703 84.9408
9.5818 87.1078
9.62657 92.6791
9.67134 101.021
9.71614 94.2437
9.76091 93.8794
9.80569 95.967
9.85047 99.8556
9.89525 128.979
9.94005 143.03
9.98484 167.106
10.0296 321.232
10.0744 757.059
10.1192 1693.94
10.164 1677.76
10.2088 444.098
10.2536 131.704
10.2984 115.769
10.3432 118.722
10.388 105.416
10.4328 114.82
10.4776 153.471
10.5224 265.749
10.5672 497.628
10.612 520.379
10.6568 213.199
10.7017 98.8477
10.7465 86.7117
10.7913 83.1722
10.8361 81.3101
10.8809 79.1657
10.9257 79.3578
10.9706 80.1378
11.0154 75.4095
11.0602 72.9389
11.105 72.4428
11.1499 78.1001
11.1947 88.3233
11.2395 76.6048
11.2844 71.6596
11.3292 67.7906
11.374 66.655
11.4189 65.6399
11.4637 65.1396
11.5086 66.1863
11.5534 69.9795
11.5983 66.6234
11.6431 63.9017
11.688 63.0118
11.7328 63.1954
11.7777 63.0537
11.8225 62.7835
11.8674 62.811
11.9122 62.8373
11.9571 63.0975
12.002 63.5558
12.0468 67.0711
12.0917 78.168
12.1366 99.7422
12.1814 146.958
12.2263 203.159
12.2712 173.58
12.3161 103.491
12.3609 73.0999
12.4058 65.0958
12.4507 64.8935
12.4956 64.7938
12.5405 64.7121
12.5853 65.9839
12.6302 75.7698
12.6751 82.7277
12.72 71.309
12.7649 68.341
12.8098 68.6977
12.8547 69.8616
12.8996 71.1976
12.9445 72.2007
12.9894 73.7805
13.0343 75.5008
13.0792 78.6144
13.1242 86.3743
13.1691 109.373
13.214 144.092
13.2589 225.189
13.3038 355.34
13.3487 432.935
13.3937 280.109
13.4386 129.418
13.4835 104.59
13.5285 117.9
13.5734 152.785
13.6183 236.321
13.6633 343.417
13.7082 352.365
13.7531 197.61
13.7981 100.776
13.843 82.2472
13.888 79.8064
13.9329 77.1268
13.9779 76.0677
14.0228 74.3135
14.0678 73.0233
14.1127 72.8988
14.1577 72.8788
14.2027 71.8197
14.2476 70.5817
14.2926 71.0249
14.3376 72.5575
14.3825 70.6772
14.4275 68.9346
14.4725 68.656
14.5175 68.9617
14.5624 69.0807
14.6074 72.0511
14.6524 72.4389
14.6974 70.688
14.7424 71.5155
14.7874 77.4785
14.8324 87.0657
14.8774 106.965
14.9224 147.395
14.9674 198.66
15.0124 219.692
15.0574 154.333
15.1024 93.7386
15.1474 73.0704
15.1924 71.0201
15.2374 72.189
15.2824 71.5819
15.3274 68.7202
15.3725 67.0267
15.4175 66.6978
15.4625 66.4106
15.5076 66.5788
15.5526 66.6121
15.5976 65.9166
15.6426 66.4217
15.6877 71.2418
15.7327 78.3185
15.7778 92.6727
15.8228 121.37
15.8679 163.658
15.9129 194.211
15.958 163.746
16.003 102.502
16.0481 69.6779
16.0931 65.7587
16.1382 63.6938
16.1833 61.2037
16.2283 59.1874
16.2734 58.6391
16.3185 59.4934
16.3636 60.3583
16.4086 58.7014
16.4537 56.5794
16.4988 55.6399
16.5439 55.6393
16.589 55.2479
16.6341 55.1442
16.6792 54.8332
16.7243 55.0667
16.7694 55.2182
16.8145 55.1588
16.8596 55.669
16.9047 57.5599
16.9498 57.9387
16.9949 56.0717
17.04 55.8196
17.0851 57.0438
17.1302 58.62
17.1754 61.6023
17.2205 65.9318
17.2656 73.551
17.3108 82.2117
17.3559 84.0685
17.401 72.7203
17.4462 62.8575
17.4913 59.2923
17.5365 59.3264
17.5815 59.3152
17.6268 59.6219
17.6718 60.7649
17.7171 61.2852
17.7622 61.33
17.8074 61.6978
17.8525 63.7291
17.8977 67.583
17.9428 72.8146
17.9881 81.0496
18.0331 96.8635
18.0784 118.56
18.1237 138.405
18.1688 133.452
18.214 106.32
18.2591 87.2886
18.3044 89.1609
18.3495 99.0005
18.3948 106.283
18.4399 99.3266
18.4852 80.0784
18.5303 66.989
18.5756 62.4923
18.6207 61.6062
18.666 60.7205
18.7112 59.8844
18.7565 59.3602
18.8016 58.9182
18.8469 58.1022
18.892 57.9696
18.9374 57.3111
18.9825 57.3248
19.0278 57.3104
19.073 57.2544
19.1183 57.5479
19.1635 58.4527
19.2088 59.5955
19.254 61.6651
19.2993 66.0059
19.3447 72.5604
19.3898 77.1435
19.4352 73.4306
19.4804 64.425
19.5257 57.4656
19.5709 54.5955
19.6163 54.0942
19.6615 53.7858
19.7068 53.4841
19.752 53.4351
19.7974 53.7109
19.8426 54.5857
19.888 55.2626
19.9332 56.5126
19.9786 58.3097
20.0238 61.7312
20.0692 66.7775
20.1144 69.9011
20.1598 68.8489
20.205 63.7705
20.2504 62.2647
20.2957 63.6729
20.3411 66.1161
20.3863 64.8664
20.4318 59.0585
20.477 54.3021
20.5224 52.1752
20.5677 51.4478
20.6131 50.5946
20.6586 49.8547
20.7038 49.7699
20.7493 49.1157
20.7945 49.1447
20.84 48.8014
20.8853 49.057
20.9307 48.7578
20.976 48.8567
21.0215 48.7899
21.0668 49.036
21.1122 49.6684
21.1575 50.1268
21.203 50.8587
21.2483 51.6514
21.2938 51.6605
21.3391 50.3998
21.3846 49.1799
21.4299 48.566
21.4754 48.5909
21.5207 48.6667
21.5662 48.7643
21.6116 49.1391
21.6571 49.7478
21.7024 50.82
21.7479 52.4916
21.7933 55.0055
21.8388 58.4938
21.8843 62.2941
21.9297 64.8397
21.9752 64.1417
22.0206 60.1839
22.0661 56.9245
22.1115 56.229
22.157 56.3296
22.2024 54.7107
22.248 51.8679
22.2933 50.2611
22.3389 49.3781
22.3843 49.1417
22.4299 49.2337
22.4753 49.0734
22.5208 48.6947
22.5662 48.6444
22.6118 48.8682
22.6572 48.762
22.7028 49.3511
22.7483 49.7149
22.7939 50.4187
22.8393 51.6961
22.8849 53.8557
22.9303 55.9638
22.9759 57.8802
23.0214 57.8033
23.067 55.5134
23.1126 51.7573
23.1581 49.6332
23.2037 48.9954
23.2492 49.1189
23.2948 49.0522
23.3403 49.0484
23.3859 49.8178
23.4314 50.6689
23.477 52.3092
23.5225 54.4394
23.5682 56.8406
23.6137 58.1751
23.6593 56.3185
23.7048 52.5007
23.7505 48.7339
23.796 46.7005
23.8417 46.2947
23.8872 45.798
23.9329 45.4034
23.9784 45.0155
24.0241 44.7649
24.0697 44.6475
24.1154 44.3462
24.1609 44.2312
24.2066 44.1442
24.2522 43.8966
24.2979 43.7893
24.3434 43.5329
24.3892 43.3675
24.4349 43.3139
24.4805 43.1012
24.5262 43.389
24.5718 42.9953
24.6175 43.0934
24.6631 43.0172
24.7089 42.6954
24.7545 42.5739
24.8002 42.3724
24.8458 42.313
24.8916 42.1865
24.9372 42.3314
24.983 42.6406
25.0286 42.9416
25.0744 43.2807
25.12 43.7436
25.1658 44.41
25.2114 44.728
25.2572 44.8575
25.3029 44.9172
25.3487 45.0349
25.3943 44.9076
25.4402 43.7771
25.4858 42.7007
25.5316 41.8729
25.5773 41.1963
25.6231 40.954
25.669 40.7597
25.7147 40.6202
25.7605 40.5816
25.8062 40.6499
25.8521 40.8286
25.8977 40.8031
25.9436 40.9617
25.9893 41.146
26.0352 41.5853
26.0809 41.5846
26.1268 41.958
26.1725 41.5637
26.2184 41.1493
26.2641 40.5028
26.31 40.1744
26.3557 40.3475
26.4017 40.1092
26.4474 40.4442
26.4933 40.901
26.5391 41.4236
26.585 41.7287
26.6308 42.1859
26.6767 42.2964
26.7225 42.1918
26.7684 41.6876
26.8142 41.0994
26.8601 40.5602
26.9059 40.2785
26.9519 39.7624
26.9979 39.4206
27.0437 38.9959
27.0896 38.9646
27.1354 38.9568
27.1814 38.7326
27.2272 38.7589
27.2732 38.6077
27.3191 38.5052
27.3651 38.6935
27.4109 38.5158
27.4569 38.5659
27.5027 38.5979
27.5488 38.6529
27.5946 38.6114
27.6407 38.4483
27.6865 38.1863
27.7326 38.0473
27.7784 38.0555
27.8245 37.8696
27.8703 38.1009
27.9164 38.2972
27.9623 38.5442
28.0084 38.8863
28.0543 39.2433
28.1003 39.112
28.1462 39.091
28.1923 38.5749
28.2384 38.1477
28.2843 37.8359
28.3304 37.3945
28.3764 36.8933
28.4225 36.5943
28.4684 36.4747
28.5145 36.1365
28.5605 36.0648
28.6066 35.7729
28.6526 35.8182
28.6987 35.7711
28.7447 35.5493
28.7908 35.5906
28.8368 35.5588
28.8829 35.5672
28.9289 35.5856
28.9751 35.3002
29.0211 35.1189
29.0673 34.9298
29.1133 34.748
29.1595 34.599
29.2055 34.3977
29.2517 34.4833
29.2977 34.3068
29.3439 34.507
29.3899 34.457
29.4361 34.28
29.4824 34.1746
29.5284 33.8537
29.5746 33.6675
29.6207 33.3874
29.6669 33.1908
29.713 33.0914
29.7593 33.0065
29.8053 33.0365
29.8516 32.9443
29.8977 32.8686
29.9439 32.7528
29.99 32.7144
30.0363 32.6056
30.0824 32.7106
30.1287 32.5302
30.1748 32.538
30.2211 32.639
30.2673 32.3613
30.3136 32.5736
30.3597 32.4104
30.406 32.3902
30.4522 32.1986
30.4985 32.1783
30.5447 32.2965
30.591 32.2866
30.6372 32.361
30.6835 32.2519
30.7297 32.3388
30.7761 32.2811
30.8224 32.0904
30.8686 31.978
30.915 31.7998
30.9612 31.7573
31.0076 31.4846
31.0538 31.3259
31.1002 31.1969
31.1464 31.1107
31.1928 31.0579
31.2391 31.0722
31.2855 31.086
31.3317 30.9765
31.3781 31.1074
31.4244 30.984
31.4708 31.0008
31.5171 31.0153
31.5636 30.9209
31.6098 30.6719
31.6563 30.4936
31.7026 30.3589
31.7491 30.2928
31.7953 30.3183
31.8418 30.2564
31.8881 30.265
31.9346 30.1577
31.9809 30.1574
32.0275 30.0588
32.074 30.0186
32.1203 29.7019
32.1668 29.7166
32.2132 29.5627
32.2597 29.3455
32.306 29.3521
32.3526 29.1519
32.399 29.045
32.4455 28.8906
32.4919 28.8139
32.5385 28.7483
32.5848 28.6419
32.6314 28.5829
32.6778 28.5415
32.7244 28.4197
32.7708 28.3328
32.8174 28.2786
32.8638 28.1269
32.9104 28.2037
32.9569 28.1338
33.0035 27.9943
33.0499 27.9797
33.0966 27.8601
33.143 27.8714
33.1897 27.8507
33.2361 27.6412
33.2828 27.7273
33.3293 27.486
33.3759 27.5398
33.4226 27.383
33.4691 27.2547
33.5158 27.1194
33.5623 27.0899
33.609 26.9033
33.6555 26.9072
33.7022 26.7299
33.7487 26.6197
33.7954 26.5998
33.842 26.4803
33.8887 26.4459
33.9353 26.298
33.982 26.2047
34.0286 26.1497
34.0753 26.1598
34.1219 25.9698
34.1687 25.9509
34.2152 25.908
34.262 25.7327
34.3086 25.6539
34.3554 25.6789
34.402 25.4556
34.4488 25.3294
34.4954 25.3789
34.5422 25.2694
34.5889 25.1587
34.6357 25.0937
34.6825 25.0828
34.7292 24.9677
34.776 24.8078
34.8227 24.7968
34.8695 24.7502
34.9162 24.6728
34.9631 24.5791
35.0098 24.6082
35.0566 24.5033
35.1033 24.4069
35.1502 24.3656
35.1969 24.2962
35.2438 24.2416
35.2906 24.1951
35.3375 24.1245
35.3842 24.012
35.4311 24.0746
35.4779 24.0407
35.5248 23.9501
35.5716 23.8416
35.6185 23.7725
35.6653 23.7163
35.7123 23.5789
35.759 23.5677
35.806 23.4639
35.8528 23.2646
35.8998 23.3123
35.9468 23.2277
35.9936 23.1597
36.0406 23.063
36.0874 23.0682
36.1345 22.9649
36.1813 22.856
36.2283 22.7596
36.2752 22.7202
36.3222 22.7415
36.3691 22.7204
36.4161 22.495
36.463 22.5297
36.5101 22.5803
36.557 22.4736
36.6041 22.2894
36.651 22.2836
36.6981 22.2385
36.745 22.1802
36.7921 22.0986
36.839 21.9347
36.8861 21.8745
36.9331 21.8643
36.9802 21.8007
37.0272 21.6839
37.0743 21.5718
37.1213 21.5352
37.1684 21.5517
37.2154 21.3931
37.2626 21.3812
37.3098 21.3047
37.3568 21.2716
37.404 21.285
37.451 21.0651
37.4982 21.0203
37.5452 20.914
37.5924 20.8718
37.6395 20.8826
37.6867 20.8257
37.7337 20.7454
37.781 20.627
37.8281 20.6195
37.8753 20.5568
37.9224 20.4277
37.9697 20.3654
38.0168 20.2649
38.064 20.2441
38.1111 20.1407
38.1584 20.0523
38.2056 19.9781
38.2529 19.996
38.3 19.9506
38.3473 19.8943
38.3945 19.7646
38.4418 19.7298
38.489 19.7036
38.5363 19.6074
38.5837 19.5438
38.6309 19.4703
38.6782 19.4506
38.7254 19.36
38.7728 19.355
38.82 19.2159
38.8674 19.1592
38.9146 19.0762
38.9621 18.9819
39.0093 19.0077
39.0567 18.8947
39.104 18.8768
39.1514 18.7774
39.1987 18.8214
39.2461 18.7881
39.2934 18.6705
39.3409 18.5611
39.3882 18.4584
39.4356 18.4164
39.483 18.448
39.5304 18.3381
39.5778 18.2807
39.6253 18.2231
39.6726 18.205
39.7201 18.1466
39.7675 18.0718
39.815 18.0036
39.8624 17.9072
39.9099 17.943
39.9575 17.8158
40.0049 17.8101
40.0525 17.6883
40.0999 17.7121
40.1474 17.6092
40.1949 17.4983
40.2425 17.4732
40.2899 17.4417
40.3375 17.3835
40.385 17.3344
40.4326 17.2767
40.48 17.2167
40.5277 17.265
40.5752 17.1607
40.6228 17.0388
40.6703 16.9925
40.718 16.9563
40.7655 16.8644
40.8132 16.7453
40.8607 16.8025
40.9084 16.7314
40.9559 16.5778
41.0036 16.6646
41.0512 16.5713
41.0989 16.5418
41.1465 16.4413
41.1942 16.4102
41.242 16.3032
41.2896 16.3059
41.3373 16.2612
41.3849 16.1661
41.4327 16.155
41.4803 16.0689
41.5281 16.0293
41.5758 15.954
41.6236 15.9087
41.6712 15.8759
41.7191 15.8599
41.7667 15.7582
41.8146 15.6769
41.8622 15.6357
41.9101 15.5604
41.9578 15.5546
42.0057 15.5169
42.0534 15.4046
42.1013 15.3677
42.149 15.3655
42.1969 15.2679
42.2446 15.1774
42.2925 15.1594
42.3403 15.1493
42.3882 15.0976
42.436 15.0692
42.4839 14.974
42.5319 14.9741
42.5797 14.9128
42.6277 14.8189
42.6755 14.7847
42.7235 14.7129
42.7713 14.7163
42.8193 14.6408
42.8671 14.5928
42.9152 14.5339
42.963 14.4948
43.0111 14.4487
43.0589 14.3573
43.107 14.3218
43.1549 14.33
43.2029 14.2758
43.2508 14.1809
43.2989 14.1622
43.3468 14.0611
43.3949 14.0748
43.4429 14.032
43.491 13.8644
43.5389 13.9003
43.5871 13.8559
43.635 13.7905
43.6832 13.7742
43.7312 13.726
43.7793 13.6517
43.8273 13.6359
43.8755 13.5546
43.9237 13.553
43.9717 13.4689
44.0199 13.456
44.068 13.3908
44.1162 13.3651
44.1642 13.2722
44.2125 13.2421
44.2606 13.2201
44.3088 13.2045
44.3569 13.1079
44.4052 13.0658
44.4533 13.0039
44.5016 12.9769
44.5497 12.929
44.598 12.8754
44.6461 12.8319
44.6945 12.7847
44.7426 12.749
44.791 12.6876
44.8391 12.698
44.8875 12.6059
44.9357 12.5553
44.984 12.5054
45.0322 12.4615
45.0806 12.3889
45.1288 12.4202
45.1773 12.3561
45.2257 12.3411
45.2739 12.2523
45.3224 12.2106
45.3706 12.2135
45.4191 12.1269
45.4673 12.0821
45.5158 12.0557
45.5641 12.0017
45.6126 11.9324
45.6609 11.8576
45.7094 11.8815
45.7577 11.8318
45.8063 11.7608
45.8546 11.7679
45.9031 11.7021
45.9515 11.6585
46.0001 11.6666
46.0484 11.6034
46.097 11.5571
46.1454 11.5452
46.194 11.5083
46.2424 11.4275
46.291 11.3583
46.3395 11.3537
46.3881 11.2909
46.4365 11.2397
46.4852 11.2205
46.5337 11.2142
46.5823 11.1771
46.631 11.0781
46.6795 11.0959
46.7282 10.9909
46.7767 10.9635
46.8254 10.9068
46.8739 10.9251
46.9226 10.8268
46.9712 10.8231
47.0199 10.8144
47.0685 10.7224
47.1173 10.636
47.1658 10.6379
47.2146 10.5886
47.2632 10.6063
47.312 10.5053
47.3606 10.4972
47.4095 10.4392
47.4581 10.4026
47.5069 10.3825
47.5556 10.3091
47.6044 10.2921
47.6531 10.2807
47.702 10.1933
47.7507 10.2005
47.7996 10.1723
47.8483 10.1602
47.8972 10.0812
47.9461 10.0476
47.9948 10.0001
48.0438 9.93743
48.0925 9.96064
48.1415 9.91394
48.1902 9.82881
48.2392 9.83492
48.288 9.8209
48.337 9.74475
48.3858 9.69338
48.4348 9.71871
48.4837 9.61896
48.5327 9.61138
48.5815 9.55548
48.6306 9.56715
48.6795 9.55281
48.7285 9.43221
48.7774 9.43097
48.8265 9.40799
48.8754 9.32974
48.9245 9.34716
48.9734 9.29525
49.0226 9.29959
49.0715 9.19282
49.1206 9.20353
49.1696 9.1556
49.2188 9.12108
49.2679 9.10815
49.3169 9.03799
49.3661 8.97971
49.4151 8.97963
49.4643 8.95112
49.5134 8.9362
49.5626 8.86136
49.6117 8.87135
49.6609 8.772
49.71 8.76816
49.7592 8.75644
49.8083 8.70146
49.8576 8.6824
49.9067 8.61286
49.956 8.59105
50.0052 8.58935
50.0545 8.52605
50.1036 8.48417
50.153 8.49133
50.2022 8.47934
50.2515 8.41412
50.3007 8.37769
50.3501 8.35263
50.3993 8.3149
50.4487 8.28952
50.498 8.26626
50.5474 8.2377
50.5966 8.17266
50.6461 8.14359
50.6955 8.11427
50.7448 8.10477
50.7943 8.03199
50.8436 8.03396
50.8931 7.99287
50.9424 7.97601
50.9919 7.91426
51.0413 7.90669
51.0908 7.88585
51.1402 7.86697
51.1897 7.83743
51.2391 7.76139
51.2887 7.7588
51.3381 7.70237
51.3877 7.71513
51.4371 7.62003
51.4867 7.61427
51.5362 7.60449
51.5858 7.54715
51.6353 7.5031
51.6849 7.45547
51.7344 7.47302
51.7841 7.45175
51.8336 7.42
51.8833 7.40319
51.9328 7.34069
51.9826 7.29345
52.0323 7.26813
52.0818 7.24837
52.1316 7.19807
52.1812 7.22151
52.231 7.14568
52.2806 7.10971
52.3304 7.09101
52.38 7.08457
52.4298 7.06381
52.4794 7.01627
52.5293 7.00881
52.5789 6.98038
52.6288 6.93432
52.6785 6.90383
52.7284 6.89899
52.7781 6.84866
52.828 6.79525
52.8777 6.78502
52.9276 6.77947
52.9774 6.73265
53.0273 6.7074
53.0771 6.66517
53.1271 6.65015
53.1769 6.5644
53.2269 6.62125
53.2767 6.5429
53.3267 6.54893
53.3765 6.52095
53.4266 6.47867
53.4766 6.46263
53.5265 6.44776
53.5765 6.36097
53.6264 6.362
53.6765 6.35064
53.7264 6.33147
53.7765 6.29325
53.8265 6.23125
53.8766 6.22887
53.9266 6.17523
53.9767 6.13467
54.0267 6.17488
54.0769 6.13144
54.1269 6.07861
54.1771 6.02662
54.2271 6.06321
54.2773 5.96838
54.3274 5.97331
54.3776 5.95022
54.4277 5.87334
54.478 5.85694
54.528 5.83733
54.5783 5.78818
54.6285 5.74419
54.6788 5.7126
54.7289 5.68535
54.7792 5.61085
54.8296 5.58757
54.8798 5.56695
54.9301 5.52933
54.9803 5.49276
55.0307 5.50276
55.0809 5.38802
55.1314 5.37115
55.1816 5.29434
55.232 5.32965
55.2823 5.27336
55.3328 5.16176
55.383 5.0825
55.4335 5.08147
55.4838 5.02171
55.5344 4.98874
55.5847 4.95807
55.6352 4.90189
55.6856 4.93433
55.7361 4.85477