File: XRD/Ni3Fe_FD0457.xy
TT I
1.27165 7.17074
1.31627 6.65833
1.36089 6.6419
1.40551 6.96011
1.45013 6.01769
1.49476 6.13731
1.53938 6.78505
1.584 5.4166
1.62863 5.41821
1.67325 4.92234
1.71787 5.32197
1.7625 4.92597
1.80712 4.85581
1.85174 4.69493
1.89636 4.53913
1.94099 4.74176
1.98562 4.6347
2.03025 4.36966
2.07487 4.38438
2.11949 4.88418
2.16411 4.36741
2.20874 10.7562
2.25338 15.7806
2.298 5.67684
2.34263 4.65261
2.38725 4.85701
2.43188 5.69574
2.4765 6.79454
2.52115 6.21181
2.56577 6.75226
2.6104 7.79881
2.65503 8.01422
2.69965 7.61381
2.7443 7.91946
2.78893 7.97361
2.83356 8.22568
2.87818 8.73581
2.92281 8.6726
2.96744 9.53741
3.01209 10.4259
3.05672 10.9593
3.10135 12.0528
3.14599 12.9856
3.19062 14.7207
3.23527 15.2433
3.2799 15.4073
3.32454 16.9758
3.36917 17.8468
3.4138 19.3067
3.45844 19.8078
3.50309 21.084
3.54773 21.6082
3.59237 23.564
3.637 63.919
3.68164 43.5962
3.7263 26.1575
3.77094 26.3462
3.81558 26.783
3.86022 27.5766
3.90486 28.9861
3.9495 29.6221
3.99416 31.1731
4.0388 32.599
4.08344 34.2104
4.12809 34.8866
4.17273 36.5288
4.21738 40.9806
4.26204 161.783
4.30669 138.11
4.35133 46.3447
4.39598 44.1331
4.44063 50.6074
4.4853 58.102
4.52995 52.0538
4.5746 52.9663
4.61925 54.3491
4.6639 56.4251
4.70855 58.6466
4.75322 62.3642
4.79788 65.8037
4.84253 68.7967
4.88719 73.5041
4.93184 77.2384
4.97652 83.1874
5.02118 89.7685
5.06583 98.4408
5.11049 111.301
5.15515 168.671
5.19981 515.412
5.24449 3449.27
5.28916 11752.1
5.33382 2974.65
5.37848 204.709
5.42315 134.025
5.46783 117.912
5.5125 109.306
5.55716 104.796
5.60183 100.255
5.6465 98.319
5.69117 96.3081
5.73586 94.5227
5.78053 95.2221
5.8252 94.7498
5.86988 96.376
5.91455 98.9328
5.95924 111.356
6.00392 285.295
6.0486 1187.82
6.09328 4203.92
6.13795 3334.8
6.18263 265.837
6.22733 96.3766
6.27201 83.7664
6.3167 91.5651
6.36138 77.5534
6.40606 70.2402
6.45075 68.4043
6.49545 66.2162
6.54014 64.6159
6.58483 63.3286
6.62952 63.0766
6.67421 79.8331
6.71892 108.134
6.76361 65.0253
6.8083 59.068
6.853 57.8734
6.89769 57.5847
6.94239 56.7969
6.98711 56.3411
7.03181 56.2345
7.07651 55.4575
7.12121 55.4589
7.16591 55.9594
7.21063 55.7144
7.25533 64.2685
7.30004 123.521
7.34475 75.8178
7.38945 56.1631
7.43416 54.8612
7.47889 54.75
7.5236 55.235
7.56831 55.3767
7.61303 57.0135
7.65774 57.0428
7.70247 56.7809
7.74719 56.6947
7.79191 57.2743
7.83663 57.4688
7.88135 58.7214
7.92607 59.6393
7.97081 60.5144
8.01553 61.51
8.06026 63.0514
8.10498 64.8095
8.14971 71.7933
8.19446 71.4002
8.23919 70.6692
8.28392 73.1396
8.32865 75.4248
8.37339 80.413
8.41812 86.5265
8.46288 111.337
8.50761 206.684
8.55235 462.489
8.59709 1227.88
8.64183 2146.82
8.68658 994.956
8.73134 171.911
8.77609 101.944
8.82083 94.2655
8.86558 91.6833
8.91033 90.9073
8.9551 90.9471
8.99985 86.3694
9.04461 85.2814
9.08936 84.4524
9.13412 83.3738
9.17888 83.3817
9.22365 84.016
9.26841 83.2288
9.31318 84.3739
9.35794 84.6261
9.4027 84.857
9.44749 85.5355
9.49226 85.7524
9.53703 86.9463
9.5818 89.4206
9.62657 92.9328
9.67134 96.7855
9.71614 94.8119
9.76091 96.1956
9.80569 99.0152
9.85047 102.014
9.89525 118.47
9.94005 135.77
9.98484 218.307
10.0296 409.121
10.0744 873.805
10.1192 1687.79
10.164 1625.96
10.2088 414.877
10.2536 130.197
10.2984 113.094
10.3432 112.796
10.388 107.84
10.4328 131.266
10.4776 178.509
10.5224 298.312
10.5672 491.281
10.612 500.358
10.6568 204.721
10.7017 97.7663
10.7465 88.1866
10.7913 84.4332
10.8361 82.2462
10.8809 80.0026
10.9257 78.9612
10.9706 79.1942
11.0154 75.5492
11.0602 73.8382
11.105 72.8318
11.1499 74.421
11.1947 78.1738
11.2395 72.9085
11.2844 70.3641
11.3292 68.2767
11.374 66.9859
11.4189 66.4178
11.4637 65.8727
11.5086 65.7918
11.5534 67.0765
11.5983 65.4799
11.6431 64.4863
11.688 63.8972
11.7328 63.8295
11.7777 63.7225
11.8225 63.4647
11.8674 63.1893
11.9122 63.7761
11.9571 63.9689
12.002 65.4815
12.0468 71.7457
12.0917 84.0037
12.1366 108.817
12.1814 155.053
12.2263 203.624
12.2712 171.884
12.3161 93.6199
12.3609 69.6851
12.4058 65.3481
12.4507 65.1368
12.4956 65.4909
12.5405 65.3024
12.5853 66.0037
12.6302 71.0096
12.6751 74.3477
12.72 69.7135
12.7649 68.7199
12.8098 69.5136
12.8547 70.7884
12.8996 72.3529
12.9445 73.7959
12.9894 75.8548
13.0343 77.5462
13.0792 81.6204
13.1242 96.3261
13.1691 122.025
13.214 162.589
13.2589 249.731
13.3038 363.609
13.3487 418.416
13.3937 264.234
13.4386 124.995
13.4835 113.489
13.5285 130.496
13.5734 170.882
13.6183 252.611
13.6633 338.068
13.7082 339.621
13.7531 189.308
13.7981 97.8168
13.843 83.0839
13.888 80.6474
13.9329 78.2472
13.9779 76.8982
14.0228 75.5848
14.0678 74.1821
14.1127 73.7196
14.1577 73.3792
14.2027 72.5645
14.2476 71.7098
14.2926 71.2889
14.3376 71.9158
14.3825 71.1161
14.4275 70.0327
14.4725 69.9129
14.5175 70.2399
14.5624 70.0847
14.6074 71.6017
14.6524 72.2071
14.6974 71.699
14.7424 75.337
14.7874 83.5853
14.8324 95.171
14.8774 117.901
14.9224 157.222
14.9674 202.687
15.0124 216.496
15.0574 148.952
15.1024 91.005
15.1474 73.3581
15.1924 71.4039
15.2374 71.3587
15.2824 70.42
15.3274 68.5016
15.3725 67.6786
15.4175 67.4842
15.4625 67.1736
15.5076 67.0341
15.5526 67.3173
15.5976 67.1052
15.6426 69.8967
15.6877 76.2135
15.7327 84.7166
15.7778 101.137
15.8228 130.53
15.8679 167.779
15.9129 191.254
15.958 156.294
16.003 96.6295
16.0481 68.5437
16.0931 64.5588
16.1382 62.7898
16.1833 61.3962
16.2283 59.9557
16.2734 59.1333
16.3185 58.9393
16.3636 59.21
16.4086 57.9422
16.4537 56.6464
16.4988 56.4471
16.5439 56.2938
16.589 55.9029
16.6341 55.6746
16.6792 55.2773
16.7243 55.5356
16.7694 55.6103
16.8145 55.4901
16.8596 56.1709
16.9047 56.711
16.9498 57.0675
16.9949 56.4644
17.04 57.0958
17.0851 58.5148
17.1302 60.2114
17.1754 63.4703
17.2205 68.7637
17.2656 75.0494
17.3108 82.2092
17.3559 82.5409
17.401 71.9276
17.4462 62.946
17.4913 59.8913
17.5365 60.2047
17.5815 60.257
17.6268 60.7119
17.6718 61.2674
17.7171 61.6671
17.7622 62.5074
17.8074 63.5443
17.8525 67.1902
17.8977 71.2493
17.9428 77.1378
17.9881 86.4295
18.0331 102.757
18.0784 121.02
18.1237 139.491
18.1688 132.93
18.214 105.763
18.2591 88.5744
18.3044 91.7506
18.3495 100.415
18.3948 106.818
18.4399 97.4843
18.4852 78.076
18.5303 66.7928
18.5756 63.0624
18.6207 62.1958
18.666 61.434
18.7112 60.718
18.7565 59.8379
18.8016 59.6033
18.8469 59.0405
18.892 58.5529
18.9374 58.2685
18.9825 57.7259
19.0278 57.9079
19.073 58.0415
19.1183 58.5197
19.1635 59.4171
19.2088 61.0392
19.254 63.5873
19.2993 67.675
19.3447 72.5916
19.3898 76.6673
19.4352 73.3606
19.4804 64.1384
19.5257 57.4428
19.5709 55.0097
19.6163 54.6713
19.6615 54.5795
19.7068 54.2196
19.752 54.2905
19.7974 54.8834
19.8426 55.6561
19.888 56.154
19.9332 57.6731
19.9786 60.3032
20.0238 63.6263
20.0692 67.8265
20.1144 70.6076
20.1598 69.312
20.205 64.865
20.2504 63.0324
20.2957 64.3319
20.3411 66.067
20.3863 64.5523
20.4318 59.0449
20.477 54.066
20.5224 52.154
20.5677 51.6433
20.6131 50.9958
20.6586 50.5299
20.7038 50.1599
20.7493 49.8679
20.7945 49.5902
20.84 49.5172
20.8853 49.6217
20.9307 49.5118
20.976 49.5386
21.0215 49.4305
21.0668 49.7248
21.1122 50.3631
21.1575 51.0467
21.203 51.5437
21.2483 52.0758
21.2938 52.3313
21.3391 50.8875
21.3846 49.7621
21.4299 49.2365
21.4754 49.2282
21.5207 49.378
21.5662 49.7407
21.6116 50.3991
21.6571 50.9555
21.7024 52.1522
21.7479 54.1052
21.7933 56.7404
21.8388 59.7744
21.8843 63.1267
21.9297 65.3233
21.9752 64.1784
22.0206 60.378
22.0661 57.0973
22.1115 56.4867
22.157 56.6883
22.2024 55.2726
22.248 52.239
22.2933 50.744
22.3389 49.7837
22.3843 49.8207
22.4299 49.6385
22.4753 49.5379
22.5208 49.2077
22.5662 49.3805
22.6118 49.7132
22.6572 49.7795
22.7028 50.1841
22.7483 50.762
22.7939 51.4296
22.8393 52.9235
22.8849 54.9032
22.9303 56.5603
22.9759 58.5016
23.0214 58.2755
23.067 55.3563
23.1126 51.9292
23.1581 50.0075
23.2037 49.6551
23.2492 49.9699
23.2948 49.9742
23.3403 50.1644
23.3859 50.8355
23.4314 51.848
23.477 53.6213
23.5225 55.549
23.5682 57.2856
23.6137 58.6081
23.6593 56.5949
23.7048 52.5137
23.7505 49.1219
23.796 47.2809
23.8417 46.7583
23.8872 46.2234
23.9329 45.9456
23.9784 45.5034
24.0241 45.3829
24.0697 45.2788
24.1154 44.892
24.1609 44.6495
24.2066 44.4719
24.2522 44.347
24.2979 44.1128
24.3434 43.9776
24.3892 43.8657
24.4349 43.8136
24.4805 43.4605
24.5262 43.7276
24.5718 43.7553
24.6175 43.5489
24.6631 43.4791
24.7089 43.3215
24.7545 43.0754
24.8002 42.8549
24.8458 42.9478
24.8916 42.9121
24.9372 42.8916
24.983 43.4587
25.0286 43.591
25.0744 44.0822
25.12 44.4976
25.1658 45.1157
25.2114 45.3455
25.2572 45.3636
25.3029 45.2899
25.3487 45.544
25.3943 45.1452
25.4402 44.0538
25.4858 43.136
25.5316 42.0486
25.5773 41.4864
25.6231 41.634
25.669 41.1705
25.7147 41.2542
25.7605 41.0947
25.8062 41.173
25.8521 41.2302
25.8977 41.3783
25.9436 41.5872
25.9893 41.6993
26.0352 42.2868
26.0809 42.2949
26.1268 42.4039
26.1725 42.0167
26.2184 41.438
26.2641 41.0267
26.31 40.7867
26.3557 40.8512
26.4017 40.8327
26.4474 41.0131
26.4933 41.5339
26.5391 41.9176
26.585 42.2732
26.6308 42.7825
26.6767 42.8658
26.7225 42.7902
26.7684 42.013
26.8142 41.4371
26.8601 41.0333
26.9059 40.7205
26.9519 40.111
26.9979 39.9063
27.0437 39.4977
27.0896 39.4135
27.1354 39.4695
27.1814 39.2815
27.2272 39.1661
27.2732 39.214
27.3191 38.9831
27.3651 39.1305
27.4109 39.0085
27.4569 39.1423
27.5027 39.2155
27.5488 39.1833
27.5946 39.057
27.6407 38.7867
27.6865 38.7294
27.7326 38.5178
27.7784 38.5194
27.8245 38.5028
27.8703 38.5653
27.9164 38.9458
27.9623 38.9412
28.0084 39.1962
28.0543 39.7287
28.1003 39.5054
28.1462 39.429
28.1923 39.0281
28.2384 38.406
28.2843 38.2459
28.3304 37.7662
28.3764 37.3496
28.4225 37.0029
28.4684 36.8179
28.5145 36.3916
28.5605 36.3653
28.6066 36.2408
28.6526 36.1705
28.6987 36.3315
28.7447 36.2156
28.7908 35.9188
28.8368 36.0807
28.8829 35.9807
28.9289 35.9284
28.9751 35.6596
29.0211 35.5567
29.0673 35.1158
29.1133 35.1287
29.1595 35.031
29.2055 34.8084
29.2517 34.8509
29.2977 34.7877
29.3439 34.8413
29.3899 34.8399
29.4361 34.8005
29.4824 34.4588
29.5284 34.3
29.5746 33.8335
29.6207 33.6602
29.6669 33.6066
29.713 33.4743
29.7593 33.4302
29.8053 33.392
29.8516 33.2935
29.8977 33.3502
29.9439 33.2012
29.99 33.0264
30.0363 32.9643
30.0824 33.1399
30.1287 32.8681
30.1748 33.0369
30.2211 32.9891
30.2673 32.7487
30.3136 32.8969
30.3597 32.8141
30.406 32.8179
30.4522 32.507
30.4985 32.6293
30.5447 32.7274
30.591 32.5485
30.6372 32.7413
30.6835 32.6819
30.7297 32.7086
30.7761 32.6734
30.8224 32.533
30.8686 32.4265
30.915 32.0529
30.9612 32.0621
31.0076 31.8108
31.0538 31.5902
31.1002 31.592
31.1464 31.3294
31.1928 31.5683
31.2391 31.5295
31.2855 31.3443
31.3317 31.3373
31.3781 31.462
31.4244 31.4559
31.4708 31.2801
31.5171 31.298
31.5636 31.232
31.6098 31.0332
31.6563 30.8718
31.7026 30.7156
31.7491 30.6866
31.7953 30.6086
31.8418 30.7006
31.8881 30.55
31.9346 30.596
31.9809 30.5182
32.0275 30.3246
32.074 30.2517
32.1203 30.1478
32.1668 30.0011
32.2132 29.8265
32.2597 29.7624
32.306 29.6058
32.3526 29.4085
32.399 29.3358
32.4455 29.3031
32.4919 29.1429
32.5385 29.1094
32.5848 28.9355
32.6314 28.9091
32.6778 28.8907
32.7244 28.7091
32.7708 28.7639
32.8174 28.498
32.8638 28.3731
32.9104 28.4723
32.9569 28.4198
33.0035 28.3684
33.0499 28.3056
33.0966 28.1781
33.143 28.258
33.1897 28.1296
33.2361 28.0554
33.2828 28.0202
33.3293 27.8266
33.3759 27.8909
33.4226 27.6486
33.4691 27.5352
33.5158 27.3529
33.5623 27.366
33.609 27.202
33.6555 27.1833
33.7022 27.017
33.7487 26.9144
33.7954 26.9054
33.842 26.8053
33.8887 26.7785
33.9353 26.6891
33.982 26.5859
34.0286 26.4758
34.0753 26.3586
34.1219 26.3675
34.1687 26.263
34.2152 26.2139
34.262 26.018
34.3086 25.9821
34.3554 25.9255
34.402 25.7979
34.4488 25.7587
34.4954 25.5879
34.5422 25.6236
34.5889 25.5219
34.6357 25.3827
34.6825 25.2818
34.7292 25.242
34.776 25.1817
34.8227 25.1023
34.8695 25.0318
34.9162 24.9983
34.9631 24.8657
35.0098 24.8219
35.0566 24.779
35.1033 24.6165
35.1502 24.6652
35.1969 24.6056
35.2438 24.4864
35.2906 24.458
35.3375 24.4254
35.3842 24.3124
35.4311 24.38
35.4779 24.3401
35.5248 24.3532
35.5716 24.0905
35.6185 24.0266
35.6653 24.0233
35.7123 23.8946
35.759 23.7884
35.806 23.7203
35.8528 23.5884
35.8998 23.5188
35.9468 23.4997
35.9936 23.4268
36.0406 23.4478
36.0874 23.312
36.1345 23.1945
36.1813 23.1127
36.2283 23.0694
36.2752 22.9964
36.3222 22.9728
36.3691 22.8953
36.4161 22.872
36.463 22.7893
36.5101 22.7709
36.557 22.639
36.6041 22.5558
36.651 22.5512
36.6981 22.5165
36.745 22.3658
36.7921 22.3094
36.839 22.1328
36.8861 22.1003
36.9331 22.0523
36.9802 22.0537
37.0272 21.9677
37.0743 21.8347
37.1213 21.7812
37.1684 21.7211
37.2154 21.6018
37.2626 21.6114
37.3098 21.4952
37.3568 21.3591
37.404 21.3898
37.451 21.3459
37.4982 21.2038
37.5452 21.1632
37.5924 21.067
37.6395 21.1356
37.6867 20.9788
37.7337 20.8822
37.781 20.8974
37.8281 20.8206
37.8753 20.6729
37.9224 20.6668
37.9697 20.5851
38.0168 20.5557
38.064 20.4267
38.1111 20.4097
38.1584 20.328
38.2056 20.2468
38.2529 20.2278
38.3 20.1069
38.3473 20.16
38.3945 19.9859
38.4418 19.9618
38.489 19.884
38.5363 19.8208
38.5837 19.7211
38.6309 19.663
38.6782 19.6409
38.7254 19.5157
38.7728 19.4861
38.82 19.4302
38.8674 19.3919
38.9146 19.3897
38.9621 19.1878
39.0093 19.1829
39.0567 19.1266
39.104 19.0758
39.1514 18.9583
39.1987 18.978
39.2461 18.9253
39.2934 18.8695
39.3409 18.7694
39.3882 18.6577
39.4356 18.6361
39.483 18.6154
39.5304 18.5589
39.5778 18.5015
39.6253 18.4717
39.6726 18.3448
39.7201 18.3438
39.7675 18.2486
39.815 18.2273
39.8624 18.1129
39.9099 18.132
39.9575 17.965
40.0049 17.9432
40.0525 17.8513
40.0999 17.8147
40.1474 17.7856
40.1949 17.7631
40.2425 17.7073
40.2899 17.6212
40.3375 17.5724
40.385 17.4946
40.4326 17.4588
40.48 17.3462
40.5277 17.3055
40.5752 17.2785
40.6228 17.1797
40.6703 17.1363
40.718 17.1011
40.7655 17.0399
40.8132 16.969
40.8607 17.0377
40.9084 16.9358
40.9559 16.9206
41.0036 16.8427
41.0512 16.7856
41.0989 16.6991
41.1465 16.6876
41.1942 16.5929
41.242 16.5039
41.2896 16.4396
41.3373 16.3595
41.3849 16.3771
41.4327 16.3142
41.4803 16.2834
41.5281 16.1579
41.5758 16.1406
41.6236 16.0321
41.6712 16.0017
41.7191 15.9486
41.7667 15.9122
41.8146 15.8678
41.8622 15.8145
41.9101 15.7908
41.9578 15.6861
42.0057 15.6713
42.0534 15.5897
42.1013 15.5794
42.149 15.463
42.1969 15.3887
42.2446 15.4012
42.2925 15.3685
42.3403 15.2575
42.3882 15.2758
42.436 15.189
42.4839 15.1373
42.5319 15.1012
42.5797 15.039
42.6277 15.0026
42.6755 15.0003
42.7235 14.8418
42.7713 14.8511
42.8193 14.7941
42.8671 14.7011
42.9152 14.6906
42.963 14.6242
43.0111 14.5617
43.0589 14.5743
43.107 14.4713
43.1549 14.4409
43.2029 14.3911
43.2508 14.3551
43.2989 14.2489
43.3468 14.2043
43.3949 14.186
43.4429 14.1735
43.491 14.0632
43.5389 14.0121
43.5871 13.959
43.635 13.9286
43.6832 13.9162
43.7312 13.8266
43.7793 13.7758
43.8273 13.7431
43.8755 13.7234
43.9237 13.6288
43.9717 13.6182
44.0199 13.5618
44.068 13.4941
44.1162 13.47
44.1642 13.4085
44.2125 13.4047
44.2606 13.2992
44.3088 13.2945
44.3569 13.2124
44.4052 13.1472
44.4533 13.1069
44.5016 13.0651
44.5497 13.0862
44.598 13.0151
44.6461 12.9407
44.6945 12.9072
44.7426 12.8171
44.791 12.7606
44.8391 12.8099
44.8875 12.69
44.9357 12.7499
44.984 12.6516
45.0322 12.6021
45.0806 12.547
45.1288 12.5106
45.1773 12.4365
45.2257 12.4333
45.2739 12.3432
45.3224 12.3334
45.3706 12.2888
45.4191 12.262
45.4673 12.2066
45.5158 12.1947
45.5641 12.0818
45.6126 12.0235
45.6609 12.0277
45.7094 11.9719
45.7577 11.9352
45.8063 11.8644
45.8546 11.8898
45.9031 11.8182
45.9515 11.783
46.0001 11.7232
46.0484 11.672
46.097 11.6505
46.1454 11.6247
46.194 11.5619
46.2424 11.5063
46.291 11.4956
46.3395 11.4607
46.3881 11.3553
46.4365 11.3758
46.4852 11.3157
46.5337 11.2239
46.5823 11.2123
46.631 11.1542
46.6795 11.1443
46.7282 11.1319
46.7767 11.0573
46.8254 11.0357
46.8739 10.9855
46.9226 10.9157
46.9712 10.8913
47.0199 10.8371
47.0685 10.8354
47.1173 10.7516
47.1658 10.7164
47.2146 10.7171
47.2632 10.6786
47.312 10.6474
47.3606 10.5373
47.4095 10.5357
47.4581 10.5122
47.5069 10.5149
47.5556 10.4244
47.6044 10.3793
47.6531 10.3128
47.702 10.3316
47.7507 10.2539
47.7996 10.2549
47.8483 10.1794
47.8972 10.2067
47.9461 10.0988
47.9948 10.0785
48.0438 10.0469
48.0925 10.0468
48.1415 9.9862
48.1902 9.93841
48.2392 9.93303
48.288 9.92875
48.337 9.83793
48.3858 9.81791
48.4348 9.77538
48.4837 9.78536
48.5327 9.70342
48.5815 9.68467
48.6306 9.66976
48.6795 9.59182
48.7285 9.54025
48.7774 9.50369
48.8265 9.48354
48.8754 9.43631
48.9245 9.43659
48.9734 9.36831
49.0226 9.38179
49.0715 9.32859
49.1206 9.29529
49.1696 9.22402
49.2188 9.22065
49.2679 9.17034
49.3169 9.1289
49.3661 9.08958
49.4151 9.05767
49.4643 9.05629
49.5134 9.00678
49.5626 8.98402
49.6117 8.9019
49.6609 8.85451
49.71 8.84515
49.7592 8.85237
49.8083 8.78886
49.8576 8.76749
49.9067 8.71066
49.956 8.68202
50.0052 8.6359
50.0545 8.59572
50.1036 8.62096
50.153 8.56004
50.2022 8.52881
50.2515 8.50436
50.3007 8.41303
50.3501 8.42297
50.3993 8.36993
50.4487 8.3487
50.498 8.32134
50.5474 8.27588
50.5966 8.23009
50.6461 8.24444
50.6955 8.20308
50.7448 8.17586
50.7943 8.14508
50.8436 8.13235
50.8931 8.06852
50.9424 8.03299
50.9919 8.0377
51.0413 7.97407
51.0908 7.95384
51.1402 7.92602
51.1897 7.87239
51.2391 7.84508
51.2887 7.81803
51.3381 7.7729
51.3877 7.74757
51.4371 7.72316
51.4867 7.6622
51.5362 7.66089
51.5858 7.63091
51.6353 7.54497
51.6849 7.56506
51.7344 7.51553
51.7841 7.49935
51.8336 7.48162
51.8833 7.47256
51.9328 7.3912
51.9826 7.32716
52.0323 7.36971
52.0818 7.33102
52.1316 7.25715
52.1812 7.21649
52.231 7.20998
52.2806 7.15926
52.3304 7.17475
52.38 7.15785
52.4298 7.12052
52.4794 7.06952
52.5293 7.03796
52.5789 7.03539
52.6288 6.99349
52.6785 6.93182
52.7284 6.93775
52.7781 6.91642
52.828 6.87728
52.8777 6.85327
52.9276 6.81546
52.9774 6.81249
53.0273 6.7803
53.0771 6.7654
53.1271 6.70285
53.1769 6.67121
53.2269 6.63836
53.2767 6.61776
53.3267 6.58898
53.3765 6.51503
53.4266 6.55086
53.4766 6.54274
53.5265 6.48139
53.5765 6.4591
53.6264 6.39905
53.6765 6.38221
53.7264 6.39043
53.7765 6.36408
53.8265 6.28003
53.8766 6.25334
53.9266 6.22386
53.9767 6.22479
54.0267 6.19729
54.0769 6.15752
54.1269 6.15537
54.1771 6.08201
54.2271 6.07778
54.2773 6.04169
54.3274 6.0469
54.3776 5.96937
54.4277 5.93598
54.478 5.91967
54.528 5.87233
54.5783 5.84318
54.6285 5.81812
54.6788 5.77269
54.7289 5.74275
54.7792 5.70945
54.8296 5.61302
54.8798 5.56394
54.9301 5.56473
54.9803 5.54302
55.0307 5.52027
55.0809 5.44382
55.1314 5.45498
55.1816 5.37962
55.232 5.34312
55.2823 5.30437
55.3328 5.18957
55.383 5.18421
55.4335 5.17004
55.4838 5.07846
55.5344 5.05593
55.5847 4.96954
55.6352 4.98188
55.6856 4.91154
55.7361 4.89783