File: XRD/Ni3Fe_FD0967.xy
TT I
1.27165 7.25651
1.31627 6.62915
1.36089 6.48348
1.40551 6.62738
1.45013 6.32586
1.49476 5.64643
1.53938 6.29942
1.584 5.36952
1.62863 5.18253
1.67325 5.548
1.71787 5.2002
1.7625 4.61451
1.80712 5.41865
1.85174 5.09213
1.89636 4.91869
1.94099 4.5681
1.98562 4.40116
2.03025 4.43119
2.07487 4.49373
2.11949 4.58582
2.16411 5.32809
2.20874 13.1163
2.25338 21.8758
2.298 6.31663
2.34263 5.88848
2.38725 6.48814
2.43188 6.54318
2.4765 7.20599
2.52115 7.19975
2.56577 8.02494
2.6104 8.30105
2.65503 8.63104
2.69965 8.27659
2.7443 8.7198
2.78893 8.40591
2.83356 8.59787
2.87818 8.45913
2.92281 9.10012
2.96744 10.2693
3.01209 10.9007
3.05672 11.8338
3.10135 12.5352
3.14599 13.5203
3.19062 14.2568
3.23527 14.8453
3.2799 15.7879
3.32454 16.4656
3.36917 17.5979
3.4138 18.5559
3.45844 19.3598
3.50309 20.6603
3.54773 21.9224
3.59237 23.888
3.637 85.5604
3.68164 54.437
3.7263 25.8482
3.77094 25.7847
3.81558 26.6237
3.86022 27.3811
3.90486 28.7305
3.9495 29.3095
3.99416 30.6286
4.0388 31.8812
4.08344 33.4542
4.12809 34.5998
4.17273 36.6622
4.21738 42.5479
4.26204 227.241
4.30669 197.077
4.35133 47.7593
4.39598 43.6845
4.44063 52.5037
4.4853 62.7574
4.52995 49.4014
4.5746 50.6483
4.61925 52.3448
4.6639 54.812
4.70855 56.9872
4.75322 60.1248
4.79788 62.9703
4.84253 66.3256
4.88719 70.201
4.93184 74.0832
4.97652 79.3701
5.02118 84.8437
5.06583 91.7753
5.11049 101.431
5.15515 161.147
5.19981 280.622
5.24449 2451.1
5.28916 13530.4
5.33382 2852.13
5.37848 173.307
5.42315 123.766
5.46783 110.4
5.5125 103.494
5.55716 99.3992
5.60183 96.6003
5.6465 95.0149
5.69117 92.3961
5.73586 90.6514
5.78053 89.9572
5.8252 89.0032
5.86988 89.3448
5.91455 90.8506
5.95924 96.7839
6.00392 174.955
6.0486 813.028
6.09328 4634.6
6.13795 3135.04
6.18263 209.159
6.22733 89.1338
6.27201 81.3086
6.3167 97.4376
6.36138 78.5738
6.40606 67.4962
6.45075 66.5004
6.49545 64.4717
6.54014 62.8612
6.58483 61.8043
6.62952 61.8192
6.67421 90.8046
6.71892 133.119
6.76361 66.6934
6.8083 57.9614
6.853 56.5442
6.89769 55.8629
6.94239 55.6564
6.98711 54.8598
7.03181 54.9104
7.07651 54.5417
7.12121 54.7003
7.16591 54.2571
7.21063 54.5949
7.25533 69.2897
7.30004 164.378
7.34475 86.5837
7.38945 55.8314
7.43416 53.8623
7.47889 53.5533
7.5236 53.8436
7.56831 54.5389
7.61303 55.6777
7.65774 56.226
7.70247 55.0664
7.74719 55.2191
7.79191 55.6588
7.83663 55.8972
7.88135 56.9511
7.92607 57.7978
7.97081 58.7097
8.01553 59.8914
8.06026 61.1324
8.10498 62.8244
8.14971 71.4045
8.19446 70.8214
8.23919 68.42
8.28392 70.6029
8.32865 72.804
8.37339 76.7926
8.41812 83.4108
8.46288 108.382
8.50761 144.372
8.55235 336.497
8.59709 1154.16
8.64183 2301.32
8.68658 913.046
8.73134 158.427
8.77609 96.388
8.82083 90.5403
8.86558 88.0853
8.91033 88.2955
8.9551 89.5614
8.99985 83.8928
9.04461 82.1173
9.08936 81.2262
9.13412 81.0071
9.17888 81.0828
9.22365 81.2799
9.26841 80.6438
9.31318 81.1501
9.35794 81.5112
9.4027 81.9465
9.44749 82.347
9.49226 82.8947
9.53703 83.8575
9.5818 85.696
9.62657 90.2432
9.67134 96.2479
9.71614 91.7962
9.76091 92.0751
9.80569 94.6445
9.85047 97.8755
9.89525 119.706
9.94005 129.355
9.98484 156.876
10.0296 302.365
10.0744 781.115
10.1192 1802.7
10.164 1512.54
10.2088 355.249
10.2536 121.813
10.2984 110.168
10.3432 111.278
10.388 101.747
10.4328 111.389
10.4776 149.997
10.5224 273.259
10.5672 527.167
10.612 497.38
10.6568 196.317
10.7017 94.551
10.7465 84.8275
10.7913 81.6563
10.8361 79.9966
10.8809 77.704
10.9257 77.1825
10.9706 77.3827
11.0154 73.6612
11.0602 71.4548
11.105 70.9591
11.1499 74.8116
11.1947 81.0928
11.2395 72.5085
11.2844 68.7465
11.3292 66.1612
11.374 65.1171
11.4189 64.4553
11.4637 63.7134
11.5086 64.2573
11.5534 66.9045
11.5983 64.3706
11.6431 62.3403
11.688 61.7132
11.7328 61.5676
11.7777 61.7524
11.8225 61.4903
11.8674 60.914
11.9122 61.5882
11.9571 61.7909
12.002 62.0404
12.0468 65.3525
12.0917 75.0386
12.1366 98.6942
12.1814 155.612
12.2263 209.468
12.2712 160.901
12.3161 94.7018
12.3609 68.971
12.4058 63.4126
12.4507 63.1009
12.4956 63.036
12.5405 63.3786
12.5853 64.5404
12.6302 71.9051
12.6751 75.7232
12.72 68.3707
12.7649 66.6707
12.8098 67.3129
12.8547 68.3398
12.8996 69.6087
12.9445 70.7718
12.9894 72.8146
13.0343 74.3913
13.0792 76.8896
13.1242 84.254
13.1691 104.408
13.214 140.122
13.2589 235.252
13.3038 381.306
13.3487 421.286
13.3937 244.913
13.4386 119.395
13.4835 99.9591
13.5285 113.024
13.5734 150.761
13.6183 248.942
13.6633 360.356
13.7082 328.085
13.7531 177.001
13.7981 94.3576
13.843 80.2955
13.888 78.0637
13.9329 75.6266
13.9779 74.4052
14.0228 73.1045
14.0678 71.7864
14.1127 71.2501
14.1577 71.1826
14.2027 70.1761
14.2476 69.1338
14.2926 69.085
14.3376 70.1627
14.3825 68.6559
14.4275 67.467
14.4725 67.3446
14.5175 67.4453
14.5624 67.9236
14.6074 69.7199
14.6524 70.1222
14.6974 69.1153
14.7424 70.1672
14.7874 74.9855
14.8324 84.6719
14.8774 106.636
14.9224 153.152
14.9674 214.835
15.0124 217.773
15.0574 145.212
15.1024 87.0557
15.1474 70.6535
15.1924 68.8758
15.2374 69.5331
15.2824 68.7468
15.3274 66.945
15.3725 65.6991
15.4175 65.2775
15.4625 64.831
15.5076 65.1366
15.5526 65.0552
15.5976 64.4887
15.6426 64.9013
15.6877 69.0452
15.7327 76.3229
15.7778 91.0448
15.8228 124.722
15.8679 174.396
15.9129 195.233
15.958 149.157
16.003 92.8783
16.0481 66.8466
16.0931 63.1529
16.1382 61.1373
16.1833 59.3734
16.2283 57.7815
16.2734 57.3856
16.3185 57.6312
16.3636 57.797
16.4086 56.5598
16.4537 55.1236
16.4988 54.6203
16.5439 54.3502
16.589 54.0662
16.6341 53.9635
16.6792 53.5935
16.7243 53.9005
16.7694 53.9853
16.8145 53.7626
16.8596 54.0903
16.9047 55.5666
16.9498 55.7664
16.9949 54.6127
17.04 54.654
17.0851 55.5522
17.1302 57.1613
17.1754 59.8733
17.2205 65.3682
17.2656 73.9362
17.3108 82.5283
17.3559 79.9435
17.401 69.0732
17.4462 60.8455
17.4913 58.0315
17.5365 57.8184
17.5815 57.9845
17.6268 58.3554
17.6718 59.1379
17.7171 59.6201
17.7622 60.1476
17.8074 60.6276
17.8525 62.3747
17.8977 65.9471
17.9428 70.9617
17.9881 80.2242
18.0331 99.0554
18.0784 123.116
18.1237 137.055
18.1688 124.705
18.214 98.8751
18.2591 83.9638
18.3044 89.8953
18.3495 101.134
18.3948 104.983
18.4399 92.9685
18.4852 74.8544
18.5303 64.4521
18.5756 61.1267
18.6207 59.9492
18.666 59.3641
18.7112 58.6695
18.7565 57.6394
18.8016 57.3795
18.8469 57.0206
18.892 56.8327
18.9374 56.1507
18.9825 56.0408
19.0278 55.7742
19.073 55.7227
19.1183 56.1088
19.1635 56.6726
19.2088 58.1353
19.254 60.5926
19.2993 65.8122
19.3447 72.0319
19.3898 75.1398
19.4352 70.045
19.4804 61.3223
19.5257 55.4481
19.5709 53.261
19.6163 52.823
19.6615 52.8769
19.7068 52.5394
19.752 52.2741
19.7974 52.3706
19.8426 53.1837
19.888 53.7669
19.9332 54.8272
19.9786 57.7477
20.0238 61.6209
20.0692 66.8888
20.1144 68.6538
20.1598 66.0882
20.205 61.9479
20.2504 61.2107
20.2957 63.6389
20.3411 65.1456
20.3863 62.3198
20.4318 56.9257
20.477 52.4595
20.5224 50.5884
20.5677 50.0168
20.6131 49.4666
20.6586 48.7698
20.7038 48.5158
20.7493 48.3173
20.7945 48.0164
20.84 47.9272
20.8853 47.8044
20.9307 47.5937
20.976 47.7183
21.0215 47.572
21.0668 48.1528
21.1122 48.575
21.1575 49.1921
21.203 50.0958
21.2483 50.527
21.2938 50.3323
21.3391 48.9569
21.3846 47.9831
21.4299 47.5503
21.4754 47.443
21.5207 47.6858
21.5662 47.9292
21.6116 48.1727
21.6571 48.562
21.7024 49.7235
21.7479 51.4808
21.7933 54.2129
21.8388 58.3084
21.8843 62.3829
21.9297 63.3879
21.9752 61.4229
22.0206 57.962
22.0661 55.6039
22.1115 55.1664
22.157 54.7294
22.2024 53.0054
22.248 50.3035
22.2933 48.8219
22.3389 48.1021
22.3843 47.8668
22.4299 47.8812
22.4753 48.0449
22.5208 47.6222
22.5662 47.5412
22.6118 47.6601
22.6572 47.8041
22.7028 48.0706
22.7483 48.5295
22.7939 49.4672
22.8393 50.9376
22.8849 53.153
22.9303 55.4744
22.9759 56.939
23.0214 56.0633
23.067 53.0864
23.1126 49.8552
23.1581 48.1999
23.2037 47.9259
23.2492 47.7954
23.2948 47.8208
23.3403 48.1132
23.3859 48.62
23.4314 49.6408
23.477 51.6052
23.5225 54.3791
23.5682 56.5708
23.6137 56.9625
23.6593 54.3182
23.7048 50.3855
23.7505 47.3861
23.796 45.8717
23.8417 45.1494
23.8872 44.6246
23.9329 44.252
23.9784 44.0409
24.0241 43.8448
24.0697 43.6392
24.1154 43.2853
24.1609 43.2093
24.2066 42.8538
24.2522 42.9882
24.2979 42.5339
24.3434 42.5046
24.3892 42.4149
24.4349 42.1694
24.4805 42.2584
24.5262 42.3899
24.5718 42.2908
24.6175 42.149
24.6631 42.0805
24.7089 41.7214
24.7545 41.6262
24.8002 41.5582
24.8458 41.5343
24.8916 41.3424
24.9372 41.3713
24.983 41.6663
25.0286 42.0746
25.0744 42.413
25.12 43.0128
25.1658 43.4852
25.2114 43.7897
25.2572 44.1213
25.3029 44.3474
25.3487 44.2725
25.3943 43.8357
25.4402 42.494
25.4858 41.4868
25.5316 40.5063
25.5773 40.1756
25.6231 40.1765
25.669 39.8766
25.7147 39.7051
25.7605 39.7141
25.8062 39.683
25.8521 39.857
25.8977 39.8388
25.9436 40.0174
25.9893 40.2496
26.0352 40.6927
26.0809 40.8731
26.1268 41.057
26.1725 40.5771
26.2184 39.7903
26.2641 39.4407
26.31 39.1994
26.3557 39.2718
26.4017 39.3464
26.4474 39.5845
26.4933 40.0924
26.5391 40.3573
26.585 41.0315
26.6308 41.3636
26.6767 41.5021
26.7225 41.1045
26.7684 40.6082
26.8142 40.2084
26.8601 39.7315
26.9059 39.0876
26.9519 38.7149
26.9979 38.4133
27.0437 38.1799
27.0896 37.9909
27.1354 38.0136
27.1814 37.8624
27.2272 37.7834
27.2732 37.8033
27.3191 37.6566
27.3651 37.7151
27.4109 37.6173
27.4569 37.7956
27.5027 37.9585
27.5488 37.8185
27.5946 37.6686
27.6407 37.3982
27.6865 37.334
27.7326 37.2277
27.7784 37.0897
27.8245 37.0811
27.8703 37.2424
27.9164 37.572
27.9623 37.7483
28.0084 38.071
28.0543 38.3855
28.1003 38.4416
28.1462 38.1449
28.1923 37.6996
28.2384 37.2311
28.2843 36.8726
28.3304 36.3908
28.3764 36.0756
28.4225 35.7074
28.4684 35.5513
28.5145 35.3703
28.5605 35.2745
28.6066 35.1058
28.6526 34.8508
28.6987 34.957
28.7447 34.7929
28.7908 34.7782
28.8368 34.8845
28.8829 34.74
28.9289 34.7379
28.9751 34.5564
29.0211 34.2927
29.0673 34.101
29.1133 33.9246
29.1595 33.7307
29.2055 33.719
29.2517 33.6813
29.2977 33.6308
29.3439 33.694
29.3899 33.7451
29.4361 33.6154
29.4824 33.3182
29.5284 33.1248
29.5746 32.7943
29.6207 32.6807
29.6669 32.4923
29.713 32.4332
29.7593 32.2301
29.8053 32.3567
29.8516 32.1367
29.8977 32.1715
29.9439 32.0299
29.99 31.837
30.0363 31.8659
30.0824 32.0063
30.1287 31.9497
30.1748 31.7663
30.2211 31.6395
30.2673 31.6998
30.3136 31.6921
30.3597 31.6776
30.406 31.5072
30.4522 31.4799
30.4985 31.4868
30.5447 31.5791
30.591 31.5749
30.6372 31.6117
30.6835 31.5636
30.7297 31.6251
30.7761 31.4954
30.8224 31.4114
30.8686 31.243
30.915 31.1542
30.9612 30.9236
31.0076 30.7629
31.0538 30.6374
31.1002 30.6296
31.1464 30.4104
31.1928 30.3626
31.2391 30.4952
31.2855 30.3245
31.3317 30.316
31.3781 30.3773
31.4244 30.3555
31.4708 30.2273
31.5171 30.2357
31.5636 30.1142
31.6098 30.0228
31.6563 29.84
31.7026 29.6672
31.7491 29.575
31.7953 29.6182
31.8418 29.6333
31.8881 29.6146
31.9346 29.5477
31.9809 29.5141
32.0275 29.3879
32.074 29.4206
32.1203 29.0481
32.1668 28.9147
32.2132 28.8981
32.2597 28.7307
32.306 28.6507
32.3526 28.4136
32.399 28.4231
32.4455 28.2383
32.4919 28.1802
32.5385 28.0809
32.5848 27.9294
32.6314 27.9708
32.6778 27.9415
32.7244 27.7656
32.7708 27.678
32.8174 27.6446
32.8638 27.5238
32.9104 27.6087
32.9569 27.447
33.0035 27.3882
33.0499 27.3352
33.0966 27.3465
33.143 27.2963
33.1897 27.1313
33.2361 27.1822
33.2828 27.1124
33.3293 26.892
33.3759 26.8687
33.4226 26.8092
33.4691 26.6228
33.5158 26.5942
33.5623 26.4268
33.609 26.2834
33.6555 26.1699
33.7022 26.0653
33.7487 26.0183
33.7954 25.9589
33.842 25.8699
33.8887 25.8067
33.9353 25.8637
33.982 25.6892
34.0286 25.514
34.0753 25.5855
34.1219 25.3986
34.1687 25.3546
34.2152 25.3151
34.262 25.2263
34.3086 25.1145
34.3554 25.1083
34.402 24.9003
34.4488 24.7985
34.4954 24.7796
34.5422 24.6754
34.5889 24.5391
34.6357 24.5568
34.6825 24.5271
34.7292 24.4385
34.776 24.34
34.8227 24.1676
34.8695 24.193
34.9162 24.166
34.9631 24.0805
35.0098 23.9873
35.0566 23.9017
35.1033 23.9171
35.1502 23.8172
35.1969 23.7695
35.2438 23.7688
35.2906 23.62
35.3375 23.6385
35.3842 23.5577
35.4311 23.5398
35.4779 23.4958
35.5248 23.444
35.5716 23.3626
35.6185 23.2414
35.6653 23.2743
35.7123 23.1198
35.759 23.1016
35.806 22.9452
35.8528 22.8337
35.8998 22.7978
35.9468 22.7185
35.9936 22.7653
36.0406 22.6036
36.0874 22.6107
36.1345 22.4543
36.1813 22.3411
36.2283 22.3317
36.2752 22.2081
36.3222 22.2621
36.3691 22.2044
36.4161 22.0554
36.463 22.0742
36.5101 22.0554
36.557 21.9272
36.6041 21.8108
36.651 21.774
36.6981 21.7034
36.745 21.6414
36.7921 21.5831
36.839 21.4571
36.8861 21.4458
36.9331 21.3523
36.9802 21.303
37.0272 21.2124
37.0743 21.0968
37.1213 21.1062
37.1684 21.0331
37.2154 20.9607
37.2626 20.8969
37.3098 20.8109
37.3568 20.8179
37.404 20.648
37.451 20.6868
37.4982 20.569
37.5452 20.4534
37.5924 20.4571
37.6395 20.519
37.6867 20.3572
37.7337 20.1664
37.781 20.2105
37.8281 20.118
37.8753 20.021
37.9224 19.912
37.9697 19.8784
38.0168 19.8422
38.064 19.7433
38.1111 19.7692
38.1584 19.7072
38.2056 19.5878
38.2529 19.607
38.3 19.4494
38.3473 19.4414
38.3945 19.3035
38.4418 19.2893
38.489 19.2603
38.5363 19.1495
38.5837 19.058
38.6309 19.0833
38.6782 18.9937
38.7254 18.9465
38.7728 18.8474
38.82 18.7609
38.8674 18.7865
38.9146 18.668
38.9621 18.6541
39.0093 18.681
39.0567 18.5514
39.104 18.3693
39.1514 18.3916
39.1987 18.4494
39.2461 18.3105
39.2934 18.2346
39.3409 18.1527
39.3882 18.0221
39.4356 18.0405
39.483 17.9808
39.5304 17.9145
39.5778 17.9412
39.6253 17.8464
39.6726 17.8535
39.7201 17.7642
39.7675 17.6434
39.815 17.614
39.8624 17.5541
39.9099 17.5428
39.9575 17.4538
40.0049 17.3717
40.0525 17.3566
40.0999 17.2322
40.1474 17.19
40.1949 17.1759
40.2425 17.1058
40.2899 17.0551
40.3375 16.9991
40.385 16.9234
40.4326 16.9395
40.48 16.7826
40.5277 16.8518
40.5752 16.7477
40.6228 16.6504
40.6703 16.5907
40.718 16.5953
40.7655 16.528
40.8132 16.4158
40.8607 16.4526
40.9084 16.3676
40.9559 16.3119
41.0036 16.287
41.0512 16.22
41.0989 16.1953
41.1465 16.1008
41.1942 16.0939
41.242 15.9387
41.2896 15.9244
41.3373 15.9085
41.3849 15.8039
41.4327 15.8042
41.4803 15.6666
41.5281 15.6559
41.5758 15.5902
41.6236 15.5054
41.6712 15.4995
41.7191 15.479
41.7667 15.4566
41.8146 15.3739
41.8622 15.3033
41.9101 15.2578
41.9578 15.1402
42.0057 15.11
42.0534 15.0794
42.1013 15.0188
42.149 15.0272
42.1969 14.9584
42.2446 14.8883
42.2925 14.8587
42.3403 14.7654
42.3882 14.7819
42.436 14.7373
42.4839 14.6715
42.5319 14.6035
42.5797 14.5447
42.6277 14.5421
42.6755 14.4891
42.7235 14.4039
42.7713 14.3683
42.8193 14.3089
42.8671 14.3139
42.9152 14.1969
42.963 14.1307
43.0111 14.1311
43.0589 14.1134
43.107 13.9962
43.1549 13.9805
43.2029 13.9212
43.2508 13.8805
43.2989 13.8099
43.3468 13.7499
43.3949 13.7826
43.4429 13.6668
43.491 13.6242
43.5389 13.6396
43.5871 13.5749
43.635 13.4795
43.6832 13.4519
43.7312 13.3888
43.7793 13.3066
43.8273 13.3234
43.8755 13.2746
43.9237 13.1854
43.9717 13.1796
44.0199 13.1347
44.068 13.1068
44.1162 13.0107
44.1642 13.0104
44.2125 12.9198
44.2606 12.9187
44.3088 12.8571
44.3569 12.8146
44.4052 12.7898
44.4533 12.7177
44.5016 12.6579
44.5497 12.6504
44.598 12.5953
44.6461 12.5826
44.6945 12.513
44.7426 12.4894
44.791 12.3916
44.8391 12.3822
44.8875 12.3411
44.9357 12.2712
44.984 12.2395
45.0322 12.2042
45.0806 12.1755
45.1288 12.1211
45.1773 12.0833
45.2257 12.0238
45.2739 11.9923
45.3224 11.966
45.3706 11.9031
45.4191 11.8416
45.4673 11.7946
45.5158 11.7668
45.5641 11.6908
45.6126 11.6795
45.6609 11.6509
45.7094 11.5882
45.7577 11.577
45.8063 11.5189
45.8546 11.474
45.9031 11.3846
45.9515 11.3654
46.0001 11.3736
46.0484 11.3516
46.097 11.2806
46.1454 11.2201
46.194 11.2064
46.2424 11.1849
46.291 11.1165
46.3395 11.0977
46.3881 11.0193
46.4365 11.023
46.4852 10.9414
46.5337 10.9497
46.5823 10.9215
46.631 10.882
46.6795 10.8227
46.7282 10.8214
46.7767 10.7222
46.8254 10.6752
46.8739 10.6267
46.9226 10.6112
46.9712 10.5518
47.0199 10.5389
47.0685 10.4873
47.1173 10.4436
47.1658 10.3619
47.2146 10.3709
47.2632 10.322
47.312 10.327
47.3606 10.2687
47.4095 10.2247
47.4581 10.205
47.5069 10.1423
47.5556 10.0908
47.6044 10.078
47.6531 10.0
47.702 9.99721
47.7507 9.94896
47.7996 9.88333
47.8483 9.89093
47.8972 9.83967
47.9461 9.79982
47.9948 9.74342
48.0438 9.75867
48.0925 9.71095
48.1415 9.67792
48.1902 9.61467
48.2392 9.60828
48.288 9.59046
48.337 9.53169
48.3858 9.50138
48.4348 9.49744
48.4837 9.43911
48.5327 9.38373
48.5815 9.38642
48.6306 9.36918
48.6795 9.28989
48.7285 9.22165
48.7774 9.23694
48.8265 9.18319
48.8754 9.13744
48.9245 9.12396
48.9734 9.08529
49.0226 9.07542
49.0715 9.02062
49.1206 8.9928
49.1696 8.9566
49.2188 8.90453
49.2679 8.89221
49.3169 8.86579
49.3661 8.82234
49.4151 8.80641
49.4643 8.73395
49.5134 8.72119
49.5626 8.6953
49.6117 8.62856
49.6609 8.64235
49.71 8.56152
49.7592 8.55454
49.8083 8.49411
49.8576 8.51495
49.9067 8.43165
49.956 8.40739
50.0052 8.38848
50.0545 8.34877
50.1036 8.29446
50.153 8.31019
50.2022 8.25266
50.2515 8.19544
50.3007 8.1649
50.3501 8.1615
50.3993 8.12175
50.4487 8.08678
50.498 8.05267
50.5474 8.06847
50.5966 8.0054
50.6461 7.99831
50.6955 7.92132
50.7448 7.91791
50.7943 7.88972
50.8436 7.86342
50.8931 7.8268
50.9424 7.81675
50.9919 7.7569
51.0413 7.71886
51.0908 7.68831
51.1402 7.69587
51.1897 7.6217
51.2391 7.63344
51.2887 7.55149
51.3381 7.54495
51.3877 7.54563
51.4371 7.49527
51.4867 7.49307
51.5362 7.38782
51.5858 7.40147
51.6353 7.32992
51.6849 7.31283
51.7344 7.2962
51.7841 7.26425
51.8336 7.27029
51.8833 7.20756
51.9328 7.18698
51.9826 7.16078
52.0323 7.08514
52.0818 7.0971
52.1316 7.08413
52.1812 7.02313
52.231 7.0287
52.2806 6.99045
52.3304 6.94812
52.38 6.94856
52.4298 6.91236
52.4794 6.86236
52.5293 6.83824
52.5789 6.795
52.6288 6.78006
52.6785 6.76383
52.7284 6.7339
52.7781 6.71781
52.828 6.65728
52.8777 6.6525
52.9276 6.6315
52.9774 6.60316
53.0273 6.57084
53.0771 6.49277
53.1271 6.54142
53.1769 6.49652
53.2269 6.45839
53.2767 6.41475
53.3267 6.39151
53.3765 6.3843
53.4266 6.36057
53.4766 6.31034
53.5265 6.29154
53.5765 6.27105
53.6264 6.22305
53.6765 6.17719
53.7264 6.1907
53.7765 6.15469
53.8265 6.11915
53.8766 6.08107
53.9266 6.0584
53.9767 6.03618
54.0267 6.01378
54.0769 5.96765
54.1269 5.98216
54.1771 5.95127
54.2271 5.85527
54.2773 5.86386
54.3274 5.79762
54.3776 5.8419
54.4277 5.74737
54.478 5.79823
54.528 5.72089
54.5783 5.70451
54.6285 5.60272
54.6788 5.60869
54.7289 5.61367
54.7792 5.49086
54.8296 5.44538
54.8798 5.44945
54.9301 5.38564
54.9803 5.33677
55.0307 5.35045
55.0809 5.26545
55.1314 5.29205
55.1816 5.16884
55.232 5.14051
55.2823 5.13154
55.3328 5.05023
55.383 5.02068
55.4335 5.03243
55.4838 4.9
55.5344 4.90112
55.5847 4.83163
55.6352 4.8121
55.6856 4.78115
55.7361 4.74123