File: XRD/Ni3Fe_FD0777.xy
TT I
1.27165 7.42048
1.31627 6.56212
1.36089 6.79112
1.40551 5.70604
1.45013 5.58276
1.49476 5.84254
1.53938 5.35211
1.584 5.01935
1.62863 5.35502
1.67325 4.60807
1.71787 4.88068
1.7625 4.27953
1.80712 5.25847
1.85174 4.04799
1.89636 4.59263
1.94099 4.99616
1.98562 4.96328
2.03025 4.2028
2.07487 4.70573
2.11949 4.88153
2.16411 5.21952
2.20874 14.1732
2.25338 21.5127
2.298 5.97272
2.34263 5.11036
2.38725 5.99292
2.43188 6.90797
2.4765 6.52677
2.52115 7.46186
2.56577 8.44237
2.6104 8.08733
2.65503 7.386
2.69965 8.09677
2.7443 8.76123
2.78893 8.04202
2.83356 8.8614
2.87818 9.20543
2.92281 8.64096
2.96744 9.64677
3.01209 10.691
3.05672 11.338
3.10135 12.5289
3.14599 13.0957
3.19062 14.2033
3.23527 15.0687
3.2799 15.7341
3.32454 16.9821
3.36917 17.7667
3.4138 19.1092
3.45844 19.4655
3.50309 20.5258
3.54773 22.0439
3.59237 23.6206
3.637 89.6112
3.68164 56.6435
3.7263 26.0218
3.77094 25.8944
3.81558 26.6933
3.86022 27.809
3.90486 28.5805
3.9495 29.6329
3.99416 30.6554
4.0388 32.1923
4.08344 33.6084
4.12809 34.7201
4.17273 36.2796
4.21738 42.1428
4.26204 235.251
4.30669 203.13
4.35133 47.8121
4.39598 44.4738
4.44063 52.8243
4.4853 63.8513
4.52995 49.6659
4.5746 50.7071
4.61925 52.8971
4.6639 54.813
4.70855 57.4401
4.75322 60.5736
4.79788 63.2602
4.84253 66.6692
4.88719 70.7374
4.93184 74.6397
4.97652 79.6134
5.02118 85.6201
5.06583 93.4389
5.11049 103.638
5.15515 167.869
5.19981 312.328
5.24449 2651.37
5.28916 13058.0
5.33382 2752.28
5.37848 177.744
5.42315 125.084
5.46783 110.918
5.5125 103.712
5.55716 100.38
5.60183 97.21
5.6465 95.361
5.69117 93.1675
5.73586 90.5463
5.78053 90.5274
5.8252 89.8608
5.86988 90.4482
5.91455 92.823
5.95924 100.354
6.00392 191.363
6.0486 903.31
6.09328 4444.28
6.13795 3119.84
6.18263 214.942
6.22733 90.4043
6.27201 81.1549
6.3167 99.4482
6.36138 78.9491
6.40606 68.334
6.45075 66.5851
6.49545 64.8807
6.54014 63.2122
6.58483 62.252
6.62952 61.842
6.67421 91.7976
6.71892 137.975
6.76361 67.5472
6.8083 57.9267
6.853 57.012
6.89769 56.4753
6.94239 55.9754
6.98711 55.5549
7.03181 54.9107
7.07651 54.6081
7.12121 54.9005
7.16591 54.7634
7.21063 54.845
7.25533 69.4049
7.30004 168.25
7.34475 88.2859
7.38945 55.7414
7.43416 54.0385
7.47889 54.0969
7.5236 54.1299
7.56831 55.0669
7.61303 56.4434
7.65774 56.5201
7.70247 55.6285
7.74719 55.6014
7.79191 56.2785
7.83663 56.5498
7.88135 57.5375
7.92607 58.2447
7.97081 59.2159
8.01553 60.4229
8.06026 61.6437
8.10498 63.3129
8.14971 72.2106
8.19446 71.2464
8.23919 69.2468
8.28392 71.2178
8.32865 73.3733
8.37339 77.531
8.41812 84.0853
8.46288 111.347
8.50761 155.809
8.55235 360.739
8.59709 1177.41
8.64183 2241.7
8.68658 877.428
8.73134 149.999
8.77609 97.2726
8.82083 90.5833
8.86558 88.3558
8.91033 88.4096
8.9551 90.1163
8.99985 84.3269
9.04461 82.5924
9.08936 82.0295
9.13412 80.6481
9.17888 81.502
9.22365 81.9844
9.26841 81.0065
9.31318 81.7836
9.35794 81.5645
9.4027 82.2592
9.44749 82.8929
9.49226 83.9119
9.53703 84.2817
9.5818 86.3712
9.62657 90.7167
9.67134 96.6015
9.71614 92.3731
9.76091 92.9808
9.80569 95.5236
9.85047 98.6477
9.89525 121.468
9.94005 132.98
9.98484 164.856
10.0296 320.502
10.0744 789.964
10.1192 1795.95
10.164 1535.36
10.2088 353.013
10.2536 121.172
10.2984 111.627
10.3432 112.212
10.388 102.835
10.4328 113.538
10.4776 153.592
10.5224 277.9
10.5672 533.951
10.612 492.99
10.6568 194.943
10.7017 93.7635
10.7465 85.8085
10.7913 82.108
10.8361 80.367
10.8809 78.1592
10.9257 77.3778
10.9706 77.9699
11.0154 74.071
11.0602 72.2137
11.105 70.7903
11.1499 75.245
11.1947 81.7821
11.2395 73.306
11.2844 69.5145
11.3292 66.4227
11.374 65.451
11.4189 64.7746
11.4637 64.1722
11.5086 64.7974
11.5534 67.4397
11.5983 64.7073
11.6431 63.0653
11.688 62.3038
11.7328 62.0785
11.7777 62.0504
11.8225 61.689
11.8674 61.5693
11.9122 62.0799
11.9571 62.628
12.002 62.8416
12.0468 66.4178
12.0917 76.3808
12.1366 100.043
12.1814 156.817
12.2263 215.75
12.2712 169.321
12.3161 92.411
12.3609 68.9746
12.4058 63.7733
12.4507 63.6104
12.4956 63.2806
12.5405 63.7253
12.5853 64.9651
12.6302 72.0826
12.6751 77.0971
12.72 69.3678
12.7649 66.9771
12.8098 67.497
12.8547 68.7478
12.8996 70.2421
12.9445 71.2064
12.9894 73.3051
13.0343 74.9025
13.0792 79.0402
13.1242 85.7357
13.1691 108.149
13.214 143.62
13.2589 237.114
13.3038 385.326
13.3487 430.234
13.3937 249.928
13.4386 118.204
13.4835 101.959
13.5285 116.485
13.5734 154.028
13.6183 248.895
13.6633 358.896
13.7082 337.614
13.7531 174.427
13.7981 93.3019
13.843 80.4799
13.888 78.5481
13.9329 76.0823
13.9779 74.9303
14.0228 73.5038
14.0678 71.9821
14.1127 71.7832
14.1577 71.6416
14.2027 70.5394
14.2476 69.5383
14.2926 69.874
14.3376 70.6682
14.3825 69.445
14.4275 67.9813
14.4725 67.7676
14.5175 68.0809
14.5624 68.3277
14.6074 70.1786
14.6524 70.9485
14.6974 69.9395
14.7424 70.7941
14.7874 76.9898
14.8324 86.7578
14.8774 108.182
14.9224 155.017
14.9674 215.113
15.0124 218.134
15.0574 143.808
15.1024 87.7655
15.1474 70.9929
15.1924 69.7569
15.2374 69.9558
15.2824 69.052
15.3274 67.1756
15.3725 66.1246
15.4175 65.4301
15.4625 65.2801
15.5076 65.5145
15.5526 65.6164
15.5976 64.982
15.6426 65.7775
15.6877 70.3961
15.7327 77.7981
15.7778 92.3452
15.8228 125.576
15.8679 174.121
15.9129 198.067
15.958 151.091
16.003 91.7141
16.0481 66.1277
16.0931 63.5588
16.1382 61.8721
16.1833 59.8477
16.2283 58.3069
16.2734 57.7086
16.3185 57.9285
16.3636 58.5805
16.4086 56.9955
16.4537 55.4906
16.4988 54.8558
16.5439 54.7726
16.589 54.6686
16.6341 54.3144
16.6792 53.878
16.7243 54.1083
16.7694 54.301
16.8145 54.1697
16.8596 54.6212
16.9047 56.1046
16.9498 56.3176
16.9949 55.0547
17.04 55.0732
17.0851 56.2098
17.1302 57.9734
17.1754 60.7487
17.2205 65.9941
17.2656 74.9129
17.3108 83.3362
17.3559 81.0502
17.401 68.4951
17.4462 60.534
17.4913 58.2855
17.5365 58.4625
17.5815 58.445
17.6268 58.7347
17.6718 59.8613
17.7171 60.1936
17.7622 60.7545
17.8074 61.2338
17.8525 63.1571
17.8977 67.2038
17.9428 72.4829
17.9881 81.1209
18.0331 99.1829
18.0784 124.237
18.1237 142.051
18.1688 128.069
18.214 99.4193
18.2591 83.9435
18.3044 90.2248
18.3495 101.459
18.3948 106.551
18.4399 93.6568
18.4852 75.0633
18.5303 64.5468
18.5756 61.26
18.6207 60.3267
18.666 59.6543
18.7112 59.0134
18.7565 58.2693
18.8016 58.0002
18.8469 57.309
18.892 56.9014
18.9374 56.6088
18.9825 56.3771
19.0278 56.3379
19.073 56.1857
19.1183 56.5734
19.1635 57.5016
19.2088 58.7212
19.254 61.1676
19.2993 65.9559
19.3447 73.2568
19.3898 76.4234
19.4352 71.0786
19.4804 61.7832
19.5257 55.7141
19.5709 53.4258
19.6163 53.2378
19.6615 53.1873
19.7068 52.7508
19.752 52.7366
19.7974 52.8605
19.8426 53.7227
19.888 54.4179
19.9332 55.4091
19.9786 58.0797
20.0238 61.7591
20.0692 67.1056
20.1144 69.4281
20.1598 67.0121
20.205 62.2818
20.2504 61.2832
20.2957 64.1018
20.3411 65.7561
20.3863 63.4095
20.4318 56.9608
20.477 52.6939
20.5224 50.9178
20.5677 50.3461
20.6131 49.7476
20.6586 48.9601
20.7038 49.0605
20.7493 48.4833
20.7945 48.5737
20.84 48.117
20.8853 48.149
20.9307 47.9754
20.976 48.2475
21.0215 48.0386
21.0668 48.4671
21.1122 48.8361
21.1575 49.5702
21.203 50.4918
21.2483 51.1189
21.2938 50.9343
21.3391 49.3443
21.3846 48.2694
21.4299 47.8955
21.4754 47.9504
21.5207 48.0315
21.5662 48.211
21.6116 48.6217
21.6571 49.3176
21.7024 50.1001
21.7479 51.8324
21.7933 54.5929
21.8388 58.8727
21.8843 62.6583
21.9297 64.3211
21.9752 62.0957
22.0206 58.4029
22.0661 55.8266
22.1115 55.8026
22.157 55.3485
22.2024 53.4034
22.248 50.5262
22.2933 49.248
22.3389 48.4869
22.3843 48.3346
22.4299 48.4256
22.4753 48.4174
22.5208 48.0832
22.5662 47.8758
22.6118 48.0465
22.6572 48.2648
22.7028 48.6996
22.7483 49.1033
22.7939 49.836
22.8393 51.212
22.8849 53.6804
22.9303 55.8748
22.9759 57.7428
23.0214 56.9594
23.067 53.8041
23.1126 50.2934
23.1581 48.5248
23.2037 48.0577
23.2492 48.167
23.2948 48.2101
23.3403 48.4898
23.3859 49.278
23.4314 50.2144
23.477 52.315
23.5225 54.7328
23.5682 56.9745
23.6137 57.6145
23.6593 54.6733
23.7048 50.6518
23.7505 47.5097
23.796 46.0091
23.8417 45.3188
23.8872 45.2017
23.9329 44.7798
23.9784 44.3324
24.0241 44.0362
24.0697 43.9572
24.1154 43.7141
24.1609 43.4812
24.2066 43.3025
24.2522 43.1304
24.2979 42.9932
24.3434 42.9425
24.3892 42.6573
24.4349 42.5478
24.4805 42.5765
24.5262 42.7229
24.5718 42.4086
24.6175 42.3303
24.6631 42.1645
24.7089 41.9903
24.7545 41.9152
24.8002 41.6906
24.8458 41.6574
24.8916 41.7362
24.9372 41.8848
24.983 42.0972
25.0286 42.4169
25.0744 42.9707
25.12 43.3986
25.1658 43.9869
25.2114 44.092
25.2572 44.3359
25.3029 44.4196
25.3487 44.5613
25.3943 44.248
25.4402 42.9519
25.4858 41.9884
25.5316 40.939
25.5773 40.3595
25.6231 40.3987
25.669 40.1297
25.7147 40.1252
25.7605 39.948
25.8062 40.0753
25.8521 40.2104
25.8977 40.0758
25.9436 40.3655
25.9893 40.3967
26.0352 40.9646
26.0809 41.1783
26.1268 41.2739
26.1725 40.8145
26.2184 40.1888
26.2641 39.776
26.31 39.6279
26.3557 39.7163
26.4017 39.7557
26.4474 40.0376
26.4933 40.378
26.5391 40.8285
26.585 41.3453
26.6308 41.8084
26.6767 41.7482
26.7225 41.597
26.7684 40.9943
26.8142 40.3713
26.8601 40.1085
26.9059 39.5782
26.9519 39.0452
26.9979 38.7803
27.0437 38.5251
27.0896 38.3051
27.1354 38.2387
27.1814 38.2767
27.2272 38.1167
27.2732 38.0283
27.3191 37.976
27.3651 38.0369
27.4109 38.0191
27.4569 38.282
27.5027 38.2254
27.5488 38.2245
27.5946 37.946
27.6407 37.7261
27.6865 37.6131
27.7326 37.4572
27.7784 37.4636
27.8245 37.4683
27.8703 37.654
27.9164 37.9556
27.9623 38.0586
28.0084 38.4211
28.0543 38.7872
28.1003 38.584
28.1462 38.4142
28.1923 38.1028
28.2384 37.4121
28.2843 37.3276
28.3304 36.6751
28.3764 36.1086
28.4225 36.1296
28.4684 35.9171
28.5145 35.658
28.5605 35.6269
28.6066 35.2699
28.6526 35.2846
28.6987 35.2383
28.7447 35.1865
28.7908 35.1258
28.8368 35.0758
28.8829 35.0056
28.9289 35.0432
28.9751 34.693
29.0211 34.5153
29.0673 34.3075
29.1133 34.2345
29.1595 34.0478
29.2055 34.0266
29.2517 34.0147
29.2977 33.918
29.3439 33.944
29.3899 33.9094
29.4361 33.8253
29.4824 33.645
29.5284 33.3901
29.5746 33.0654
29.6207 32.8407
29.6669 32.7554
29.713 32.6001
29.7593 32.5138
29.8053 32.5502
29.8516 32.5318
29.8977 32.4712
29.9439 32.2322
29.99 32.228
30.0363 32.0504
30.0824 32.1859
30.1287 32.1076
30.1748 32.0658
30.2211 32.0819
30.2673 31.9266
30.3136 32.0171
30.3597 31.916
30.406 31.7917
30.4522 31.751
30.4985 31.7431
30.5447 31.8708
30.591 31.8867
30.6372 31.9258
30.6835 31.8284
30.7297 31.9561
30.7761 31.8216
30.8224 31.5968
30.8686 31.5676
30.915 31.23
30.9612 31.1706
31.0076 30.9253
31.0538 30.8609
31.1002 30.8115
31.1464 30.6282
31.1928 30.6055
31.2391 30.6357
31.2855 30.5192
31.3317 30.5115
31.3781 30.6055
31.4244 30.6063
31.4708 30.5211
31.5171 30.4913
31.5636 30.5189
31.6098 30.1832
31.6563 29.9964
31.7026 29.974
31.7491 29.8005
31.7953 29.8337
31.8418 29.8858
31.8881 29.8666
31.9346 29.7836
31.9809 29.7535
32.0275 29.6007
32.074 29.5336
32.1203 29.2815
32.1668 29.1657
32.2132 29.0619
32.2597 28.9384
32.306 28.8208
32.3526 28.7824
32.399 28.6356
32.4455 28.5008
32.4919 28.3965
32.5385 28.3379
32.5848 28.1456
32.6314 28.2406
32.6778 28.2513
32.7244 28.0522
32.7708 27.929
32.8174 27.881
32.8638 27.7294
32.9104 27.8134
32.9569 27.7067
33.0035 27.6719
33.0499 27.5434
33.0966 27.4744
33.143 27.4756
33.1897 27.3686
33.2361 27.3033
33.2828 27.3313
33.3293 27.1166
33.3759 27.0932
33.4226 26.9382
33.4691 26.8457
33.5158 26.7468
33.5623 26.6099
33.609 26.4199
33.6555 26.3529
33.7022 26.329
33.7487 26.2824
33.7954 26.1085
33.842 26.1347
33.8887 26.1018
33.9353 26.0285
33.982 25.9165
34.0286 25.7696
34.0753 25.7813
34.1219 25.6412
34.1687 25.5187
34.2152 25.4865
34.262 25.3842
34.3086 25.2865
34.3554 25.2838
34.402 25.1694
34.4488 25.11
34.4954 24.9756
34.5422 24.845
34.5889 24.77
34.6357 24.6906
34.6825 24.7426
34.7292 24.6234
34.776 24.5673
34.8227 24.4481
34.8695 24.4364
34.9162 24.3235
34.9631 24.2981
35.0098 24.2268
35.0566 24.0087
35.1033 23.9953
35.1502 23.9675
35.1969 23.9967
35.2438 23.9535
35.2906 23.838
35.3375 23.8009
35.3842 23.7448
35.4311 23.7459
35.4779 23.7148
35.5248 23.5432
35.5716 23.6047
35.6185 23.4458
35.6653 23.3119
35.7123 23.2838
35.759 23.2577
35.806 23.0927
35.8528 22.9679
35.8998 22.9639
35.9468 22.9301
35.9936 22.9025
36.0406 22.8021
36.0874 22.7574
36.1345 22.6762
36.1813 22.6344
36.2283 22.4442
36.2752 22.3784
36.3222 22.4595
36.3691 22.3002
36.4161 22.1841
36.463 22.2157
36.5101 22.172
36.557 22.0397
36.6041 21.8857
36.651 21.957
36.6981 21.903
36.745 21.8591
36.7921 21.7464
36.839 21.6548
36.8861 21.5415
36.9331 21.5599
36.9802 21.3769
37.0272 21.3053
37.0743 21.302
37.1213 21.2229
37.1684 21.1885
37.2154 21.1055
37.2626 21.1099
37.3098 20.9864
37.3568 20.9253
37.404 20.8766
37.451 20.7876
37.4982 20.7413
37.5452 20.6162
37.5924 20.5761
37.6395 20.651
37.6867 20.4808
37.7337 20.4039
37.781 20.3569
37.8281 20.2331
37.8753 20.1561
37.9224 20.1088
37.9697 20.0606
38.0168 20.008
38.064 19.9106
38.1111 19.9296
38.1584 19.8173
38.2056 19.7667
38.2529 19.6907
38.3 19.6092
38.3473 19.5685
38.3945 19.4763
38.4418 19.4292
38.489 19.405
38.5363 19.3566
38.5837 19.2252
38.6309 19.1432
38.6782 19.1426
38.7254 19.0533
38.7728 19.0576
38.82 18.9073
38.8674 18.8631
38.9146 18.8224
38.9621 18.7244
39.0093 18.72
39.0567 18.6815
39.104 18.6354
39.1514 18.4762
39.1987 18.4856
39.2461 18.4647
39.2934 18.3945
39.3409 18.2324
39.3882 18.1815
39.4356 18.1514
39.483 18.1548
39.5304 18.0235
39.5778 18.0455
39.6253 17.9834
39.6726 17.881
39.7201 17.8925
39.7675 17.7478
39.815 17.8293
39.8624 17.6609
39.9099 17.6802
39.9575 17.5866
40.0049 17.5283
40.0525 17.4593
40.0999 17.4523
40.1474 17.2814
40.1949 17.2583
40.2425 17.273
40.2899 17.2179
40.3375 17.0981
40.385 17.0146
40.4326 16.9812
40.48 16.9241
40.5277 16.94
40.5752 16.8546
40.6228 16.845
40.6703 16.7661
40.718 16.6588
40.7655 16.7066
40.8132 16.568
40.8607 16.5934
40.9084 16.4836
40.9559 16.47
41.0036 16.4392
41.0512 16.3843
41.0989 16.3205
41.1465 16.2236
41.1942 16.2028
41.242 16.095
41.2896 16.058
41.3373 16.0472
41.3849 15.9506
41.4327 15.8921
41.4803 15.7701
41.5281 15.7858
41.5758 15.7448
41.6236 15.693
41.6712 15.6239
41.7191 15.6093
41.7667 15.5552
41.8146 15.4985
41.8622 15.4219
41.9101 15.4271
41.9578 15.2691
42.0057 15.3075
42.0534 15.2355
42.1013 15.2209
42.149 15.1629
42.1969 15.0682
42.2446 15.0373
42.2925 14.9614
42.3403 14.918
42.3882 14.898
42.436 14.8611
42.4839 14.7715
42.5319 14.7173
42.5797 14.7157
42.6277 14.6468
42.6755 14.5965
42.7235 14.5163
42.7713 14.446
42.8193 14.4301
42.8671 14.3987
42.9152 14.3032
42.963 14.2458
43.0111 14.2194
43.0589 14.1575
43.107 14.1382
43.1549 14.1172
43.2029 14.0236
43.2508 14.0418
43.2989 13.9496
43.3468 13.8885
43.3949 13.8653
43.4429 13.8237
43.491 13.7434
43.5389 13.6614
43.5871 13.6913
43.635 13.6291
43.6832 13.5469
43.7312 13.5176
43.7793 13.4702
43.8273 13.4114
43.8755 13.3466
43.9237 13.3586
43.9717 13.3125
44.0199 13.2787
44.068 13.2017
44.1162 13.1629
44.1642 13.1087
44.2125 13.0591
44.2606 13.0441
44.3088 12.9592
44.3569 12.9607
44.4052 12.879
44.4533 12.8471
44.5016 12.7536
44.5497 12.7504
44.598 12.695
44.6461 12.6445
44.6945 12.6121
44.7426 12.5514
44.791 12.4602
44.8391 12.4761
44.8875 12.4054
44.9357 12.3944
44.984 12.3518
45.0322 12.2703
45.0806 12.254
45.1288 12.2144
45.1773 12.1901
45.2257 12.1588
45.2739 12.0741
45.3224 12.0648
45.3706 12.0259
45.4191 11.9455
45.4673 11.9295
45.5158 11.8904
45.5641 11.8098
45.6126 11.7691
45.6609 11.7236
45.7094 11.6977
45.7577 11.6725
45.8063 11.5751
45.8546 11.6168
45.9031 11.5502
45.9515 11.5224
46.0001 11.4349
46.0484 11.4289
46.097 11.3949
46.1454 11.3568
46.194 11.3251
46.2424 11.2938
46.291 11.2146
46.3395 11.186
46.3881 11.0968
46.4365 11.0803
46.4852 11.0405
46.5337 10.9712
46.5823 11.0022
46.631 10.9716
46.6795 10.8592
46.7282 10.8781
46.7767 10.8278
46.8254 10.7595
46.8739 10.7323
46.9226 10.6543
46.9712 10.6626
47.0199 10.6124
47.0685 10.5442
47.1173 10.5213
47.1658 10.4926
47.2146 10.4409
47.2632 10.376
47.312 10.3918
47.3606 10.3145
47.4095 10.2787
47.4581 10.2646
47.5069 10.2147
47.5556 10.2085
47.6044 10.1589
47.6531 10.109
47.702 10.0623
47.7507 10.0285
47.7996 9.99273
47.8483 9.98388
47.8972 9.93955
47.9461 9.90651
47.9948 9.89348
48.0438 9.81858
48.0925 9.80602
48.1415 9.76586
48.1902 9.70002
48.2392 9.71308
48.288 9.65835
48.337 9.61704
48.3858 9.60317
48.4348 9.58229
48.4837 9.51239
48.5327 9.47636
48.5815 9.44954
48.6306 9.43819
48.6795 9.36698
48.7285 9.34199
48.7774 9.33461
48.8265 9.28578
48.8754 9.2281
48.9245 9.19796
48.9734 9.1563
49.0226 9.13027
49.0715 9.08368
49.1206 9.04613
49.1696 9.02291
49.2188 8.96041
49.2679 8.9684
49.3169 8.91677
49.3661 8.88924
49.4151 8.84642
49.4643 8.82418
49.5134 8.80284
49.5626 8.75689
49.6117 8.70261
49.6609 8.71128
49.71 8.6496
49.7592 8.60381
49.8083 8.60379
49.8576 8.53874
49.9067 8.47982
49.956 8.51885
50.0052 8.41743
50.0545 8.42653
50.1036 8.35606
50.153 8.35754
50.2022 8.32751
50.2515 8.2829
50.3007 8.23005
50.3501 8.23282
50.3993 8.22679
50.4487 8.17196
50.498 8.16168
50.5474 8.09952
50.5966 8.05517
50.6461 7.99168
50.6955 8.00418
50.7448 7.99977
50.7943 7.95596
50.8436 7.90547
50.8931 7.89207
50.9424 7.84397
50.9919 7.82114
51.0413 7.8199
51.0908 7.75288
51.1402 7.70933
51.1897 7.68207
51.2391 7.67615
51.2887 7.65961
51.3381 7.56431
51.3877 7.60327
51.4371 7.52477
51.4867 7.49666
51.5362 7.46714
51.5858 7.46837
51.6353 7.42231
51.6849 7.40829
51.7344 7.37164
51.7841 7.31816
51.8336 7.29439
51.8833 7.28065
51.9328 7.22676
51.9826 7.17717
52.0323 7.18523
52.0818 7.11765
52.1316 7.10922
52.1812 7.08691
52.231 7.03812
52.2806 7.03429
52.3304 7.01218
52.38 6.98716
52.4298 6.96133
52.4794 6.97078
52.5293 6.86178
52.5789 6.86316
52.6288 6.84362
52.6785 6.77197
52.7284 6.78687
52.7781 6.79565
52.828 6.7122
52.8777 6.68177
52.9276 6.68066
52.9774 6.62195
53.0273 6.60018
53.0771 6.61091
53.1271 6.55424
53.1769 6.52011
53.2269 6.51298
53.2767 6.50235
53.3267 6.45029
53.3765 6.42284
53.4266 6.42339
53.4766 6.33147
53.5265 6.2945
53.5765 6.26745
53.6264 6.23743
53.6765 6.30196
53.7264 6.24721
53.7765 6.2287
53.8265 6.20906
53.8766 6.16222
53.9266 6.12597
53.9767 6.11111
54.0267 6.0713
54.0769 6.02712
54.1269 6.00063
54.1771 5.96514
54.2271 5.95873
54.2773 5.92686
54.3274 5.84837
54.3776 5.83924
54.4277 5.79631
54.478 5.75693
54.528 5.74349
54.5783 5.73792
54.6285 5.65525
54.6788 5.65957
54.7289 5.55743
54.7792 5.5319
54.8296 5.51144
54.8798 5.47468
54.9301 5.47703
54.9803 5.45995
55.0307 5.37015
55.0809 5.33537
55.1314 5.311
55.1816 5.24063
55.232 5.19034
55.2823 5.20901
55.3328 5.10318
55.383 5.07976
55.4335 5.02674
55.4838 4.88113
55.5344 4.92933
55.5847 4.85884
55.6352 4.84903
55.6856 4.83876
55.7361 4.78947