File: XRD/Ni3Fe_FD0832.xy
TT I
1.27165 7.59151
1.31627 6.69865
1.36089 6.24843
1.40551 6.17804
1.45013 6.37608
1.49476 6.06734
1.53938 5.92996
1.584 5.483
1.62863 5.40789
1.67325 4.82505
1.71787 4.60676
1.7625 4.57493
1.80712 4.73321
1.85174 4.60822
1.89636 5.04019
1.94099 5.14271
1.98562 5.05303
2.03025 4.86663
2.07487 5.07443
2.11949 4.82828
2.16411 5.02261
2.20874 8.51077
2.25338 10.6697
2.298 5.12351
2.34263 5.45635
2.38725 6.09919
2.43188 6.37558
2.4765 7.08518
2.52115 7.46329
2.56577 7.55172
2.6104 8.51257
2.65503 7.88021
2.69965 8.28515
2.7443 8.60377
2.78893 8.46744
2.83356 8.57941
2.87818 9.07174
2.92281 9.22613
2.96744 9.8867
3.01209 10.6634
3.05672 11.4739
3.10135 12.4333
3.14599 12.9575
3.19062 14.4742
3.23527 15.2329
3.2799 15.5615
3.32454 17.0307
3.36917 17.7868
3.4138 18.5806
3.45844 19.6636
3.50309 20.9759
3.54773 21.5031
3.59237 22.9694
3.637 47.4819
3.68164 36.049
3.7263 25.7335
3.77094 25.605
3.81558 26.5443
3.86022 27.1764
3.90486 28.6668
3.9495 29.5158
3.99416 30.7561
4.0388 32.0549
4.08344 33.096
4.12809 34.648
4.17273 36.1603
4.21738 39.426
4.26204 118.573
4.30669 101.717
4.35133 45.0973
4.39598 44.1757
4.44063 48.405
4.4853 54.0218
4.52995 56.8918
4.5746 57.133
4.61925 53.6756
4.6639 55.1059
4.70855 58.1165
4.75322 61.7563
4.79788 68.3244
4.84253 68.457
4.88719 74.347
4.93184 76.1678
4.97652 80.6992
5.02118 88.299
5.06583 95.742
5.11049 106.039
5.15515 152.751
5.19981 357.779
5.24449 2797.93
5.28916 12217.2
5.33382 2632.24
5.37848 194.42
5.42315 129.863
5.46783 118.948
5.5125 111.293
5.55716 102.033
5.60183 97.7586
5.6465 95.8881
5.69117 93.8998
5.73586 92.5864
5.78053 97.7777
5.8252 97.6447
5.86988 99.8256
5.91455 94.6134
5.95924 101.644
6.00392 219.526
6.0486 961.221
6.09328 4341.66
6.13795 3054.69
6.18263 215.329
6.22733 89.8408
6.27201 80.0994
6.3167 83.5846
6.36138 74.0878
6.40606 70.182
6.45075 69.3951
6.49545 64.7275
6.54014 63.1756
6.58483 62.2001
6.62952 62.5065
6.67421 72.8816
6.71892 87.16
6.76361 61.84
6.8083 58.8677
6.853 59.5563
6.89769 56.3554
6.94239 55.9686
6.98711 55.1326
7.03181 55.4482
7.07651 54.8946
7.12121 55.2585
7.16591 56.843
7.21063 55.1864
7.25533 60.8871
7.30004 97.3268
7.34475 65.6122
7.38945 54.8493
7.43416 53.3285
7.47889 53.5872
7.5236 54.0467
7.56831 54.6717
7.61303 55.341
7.65774 55.6464
7.70247 56.7582
7.74719 55.8321
7.79191 56.1978
7.83663 56.2842
7.88135 57.5275
7.92607 58.3213
7.97081 59.1532
8.01553 60.6634
8.06026 62.4491
8.10498 64.073
8.14971 70.6693
8.19446 70.1572
8.23919 69.1179
8.28392 71.3184
8.32865 73.7574
8.37339 78.4556
8.41812 83.1143
8.46288 100.14
8.50761 166.445
8.55235 384.039
8.59709 1195.77
8.64183 2148.58
8.68658 912.798
8.73134 157.618
8.77609 98.1602
8.82083 92.2218
8.86558 92.298
8.91033 91.7878
8.9551 88.8652
8.99985 85.1616
9.04461 83.7122
9.08936 83.7417
9.13412 82.4944
9.17888 81.7621
9.22365 81.7241
9.26841 81.6791
9.31318 84.2078
9.35794 86.1629
9.4027 85.3316
9.44749 84.9889
9.49226 84.3556
9.53703 85.096
9.5818 88.6215
9.62657 93.8076
9.67134 94.4637
9.71614 92.6336
9.76091 94.9007
9.80569 98.3361
9.85047 100.832
9.89525 111.087
9.94005 122.183
9.98484 179.922
10.0296 345.885
10.0744 838.313
10.1192 1760.25
10.164 1528.73
10.2088 386.722
10.2536 123.794
10.2984 109.021
10.3432 107.353
10.388 103.431
10.4328 118.8
10.4776 162.181
10.5224 296.27
10.5672 524.594
10.612 488.478
10.6568 195.981
10.7017 95.247
10.7465 85.8963
10.7913 82.3982
10.8361 80.6756
10.8809 78.5788
10.9257 77.4824
10.9706 77.7087
11.0154 74.8686
11.0602 72.6348
11.105 70.7248
11.1499 71.9457
11.1947 73.5525
11.2395 69.6779
11.2844 68.111
11.3292 66.5225
11.374 65.8268
11.4189 65.1511
11.4637 64.3698
11.5086 64.1867
11.5534 64.7618
11.5983 63.7828
11.6431 62.836
11.688 62.3895
11.7328 62.4139
11.7777 62.5539
11.8225 62.3846
11.8674 62.2762
11.9122 62.0487
11.9571 62.5172
12.002 63.5528
12.0468 67.689
12.0917 77.539
12.1366 103.396
12.1814 156.535
12.2263 212.963
12.2712 168.614
12.3161 90.0791
12.3609 66.4052
12.4058 63.6401
12.4507 63.7479
12.4956 64.1264
12.5405 64.3878
12.5853 64.8452
12.6302 67.7228
12.6751 70.0018
12.72 67.4193
12.7649 67.001
12.8098 67.931
12.8547 69.4982
12.8996 70.9266
12.9445 72.5063
12.9894 74.0589
13.0343 75.5048
13.0792 79.4139
13.1242 89.9107
13.1691 110.646
13.214 150.305
13.2589 247.22
13.3038 382.949
13.3487 409.868
13.3937 246.008
13.4386 121.148
13.4835 104.752
13.5285 120.219
13.5734 161.773
13.6183 255.417
13.6633 357.505
13.7082 330.01
13.7531 180.921
13.7981 96.368
13.843 80.8578
13.888 78.8754
13.9329 76.4948
13.9779 75.0807
14.0228 73.8249
14.0678 72.4515
14.1127 71.9126
14.1577 71.6126
14.2027 70.5327
14.2476 69.9796
14.2926 69.6035
14.3376 69.6402
14.3825 69.109
14.4275 68.1476
14.4725 68.2839
14.5175 68.2101
14.5624 68.3192
14.6074 69.4462
14.6524 69.7699
14.6974 69.9182
14.7424 72.434
14.7874 78.2726
14.8324 88.5377
14.8774 112.33
14.9224 158.285
14.9674 212.501
15.0124 216.509
15.0574 144.581
15.1024 88.869
15.1474 71.651
15.1924 69.6327
15.2374 69.1882
15.2824 68.0761
15.3274 66.7574
15.3725 66.1703
15.4175 65.9391
15.4625 65.2761
15.5076 65.5432
15.5526 65.2501
15.5976 65.2426
15.6426 66.9724
15.6877 71.9588
15.7327 79.5985
15.7778 95.9358
15.8228 129.292
15.8679 172.485
15.9129 191.142
15.958 149.963
16.003 93.2097
16.0481 66.5118
16.0931 62.5141
16.1382 60.7898
16.1833 59.6198
16.2283 58.2544
16.2734 57.6092
16.3185 57.3742
16.3636 57.0201
16.4086 56.4103
16.4537 55.3438
16.4988 54.9022
16.5439 54.9529
16.589 54.6226
16.6341 54.3396
16.6792 53.9783
16.7243 54.2276
16.7694 54.2086
16.8145 53.9845
16.8596 54.3337
16.9047 54.9367
16.9498 55.1757
16.9949 54.6421
17.04 55.4549
17.0851 56.5112
17.1302 58.272
17.1754 61.2167
17.2205 66.8155
17.2656 74.5267
17.3108 81.5964
17.3559 80.1744
17.401 69.6358
17.4462 61.197
17.4913 58.7257
17.5365 58.6636
17.5815 58.6172
17.6268 58.8242
17.6718 59.7225
17.7171 60.0743
17.7622 60.6822
17.8074 61.7655
17.8525 64.1396
17.8977 67.6375
17.9428 73.2361
17.9881 82.8934
18.0331 101.307
18.0784 123.486
18.1237 138.172
18.1688 127.394
18.214 101.519
18.2591 85.993
18.3044 90.8922
18.3495 100.38
18.3948 104.032
18.4399 92.3292
18.4852 75.4466
18.5303 64.98
18.5756 61.529
18.6207 60.5363
18.666 59.695
18.7112 58.9147
18.7565 58.3118
18.8016 58.1552
18.8469 57.5325
18.892 57.253
18.9374 56.6687
18.9825 56.4549
19.0278 56.217
19.073 56.4823
19.1183 56.6258
19.1635 57.2896
19.2088 58.767
19.254 61.6809
19.2993 66.2374
19.3447 71.6887
19.3898 74.2868
19.4352 69.9185
19.4804 61.8231
19.5257 55.8693
19.5709 53.6145
19.6163 53.2591
19.6615 53.1037
19.7068 52.8023
19.752 52.7707
19.7974 53.1048
19.8426 53.7257
19.888 54.3348
19.9332 55.7668
19.9786 58.513
20.0238 62.2477
20.0692 67.2387
20.1144 69.1445
20.1598 67.2772
20.205 62.9324
20.2504 61.8724
20.2957 63.6538
20.3411 64.8266
20.3863 62.6619
20.4318 57.4021
20.477 52.7822
20.5224 50.6988
20.5677 50.247
20.6131 49.6233
20.6586 49.0892
20.7038 48.9935
20.7493 48.6018
20.7945 48.4866
20.84 48.3793
20.8853 48.2831
20.9307 48.2843
20.976 48.3215
21.0215 48.0225
21.0668 48.4152
21.1122 49.1334
21.1575 49.6441
21.203 50.1829
21.2483 50.925
21.2938 50.8954
21.3391 49.3898
21.3846 48.5144
21.4299 47.9046
21.4754 48.0443
21.5207 48.2231
21.5662 48.3522
21.6116 48.7835
21.6571 49.3127
21.7024 50.5045
21.7479 52.4055
21.7933 55.3025
21.8388 58.8844
21.8843 62.6943
21.9297 63.8892
21.9752 62.1156
22.0206 58.5618
22.0661 56.0241
22.1115 55.5786
22.157 55.1492
22.2024 53.3961
22.248 50.6462
22.2933 49.2698
22.3389 48.3864
22.3843 48.4338
22.4299 48.1546
22.4753 48.1452
22.5208 48.0122
22.5662 47.9629
22.6118 48.2143
22.6572 48.345
22.7028 48.6639
22.7483 49.2489
22.7939 49.9783
22.8393 51.6463
22.8849 53.8739
22.9303 55.8912
22.9759 57.1236
23.0214 56.3897
23.067 53.4817
23.1126 50.544
23.1581 48.7487
23.2037 48.2309
23.2492 48.2755
23.2948 48.3765
23.3403 48.5964
23.3859 49.2189
23.4314 50.5203
23.477 52.3507
23.5225 54.6465
23.5682 56.4516
23.6137 57.2201
23.6593 54.5978
23.7048 50.8093
23.7505 47.6731
23.796 46.0863
23.8417 45.5415
23.8872 44.9189
23.9329 44.6919
23.9784 44.3875
24.0241 43.9422
24.0697 43.8963
24.1154 43.6952
24.1609 43.5744
24.2066 43.2502
24.2522 43.2411
24.2979 42.9719
24.3434 42.7359
24.3892 42.7812
24.4349 42.6346
24.4805 42.4099
24.5262 42.7796
24.5718 42.5522
24.6175 42.3994
24.6631 42.3321
24.7089 42.075
24.7545 41.7119
24.8002 41.7846
24.8458 41.6063
24.8916 41.7183
24.9372 41.9165
24.983 42.1339
25.0286 42.4094
25.0744 43.1071
25.12 43.3298
25.1658 43.9899
25.2114 44.145
25.2572 44.3632
25.3029 44.2939
25.3487 44.405
25.3943 44.0064
25.4402 42.901
25.4858 41.9459
25.5316 41.0877
25.5773 40.4788
25.6231 40.4629
25.669 40.051
25.7147 40.1332
25.7605 40.0593
25.8062 40.0124
25.8521 40.1815
25.8977 40.0536
25.9436 40.4793
25.9893 40.5498
26.0352 41.187
26.0809 41.1823
26.1268 41.2367
26.1725 40.8504
26.2184 40.2935
26.2641 39.8528
26.31 39.6448
26.3557 39.6061
26.4017 39.6577
26.4474 40.1245
26.4933 40.3274
26.5391 40.8886
26.585 41.3621
26.6308 41.6089
26.6767 41.6667
26.7225 41.4806
26.7684 40.9695
26.8142 40.3736
26.8601 40.0855
26.9059 39.7062
26.9519 39.0135
26.9979 38.6357
27.0437 38.582
27.0896 38.3436
27.1354 38.2519
27.1814 38.2777
27.2272 38.0501
27.2732 38.0928
27.3191 37.966
27.3651 38.1319
27.4109 38.0828
27.4569 38.1899
27.5027 38.2402
27.5488 38.3117
27.5946 38.0463
27.6407 37.8593
27.6865 37.6139
27.7326 37.4718
27.7784 37.6118
27.8245 37.3373
27.8703 37.6286
27.9164 37.9186
27.9623 38.1276
28.0084 38.3794
28.0543 38.7912
28.1003 38.6056
28.1462 38.4404
28.1923 38.0413
28.2384 37.5661
28.2843 37.2015
28.3304 36.8323
28.3764 36.3063
28.4225 36.0799
28.4684 35.9319
28.5145 35.6149
28.5605 35.512
28.6066 35.3294
28.6526 35.2782
28.6987 35.2556
28.7447 35.1081
28.7908 35.0054
28.8368 35.1511
28.8829 35.1125
28.9289 34.9531
28.9751 34.7626
29.0211 34.5911
29.0673 34.3125
29.1133 34.2324
29.1595 34.0597
29.2055 33.9692
29.2517 34.0404
29.2977 33.9716
29.3439 33.8533
29.3899 33.9296
29.4361 33.7434
29.4824 33.6226
29.5284 33.3624
29.5746 33.048
29.6207 32.8434
29.6669 32.6561
29.713 32.6189
29.7593 32.5491
29.8053 32.5346
29.8516 32.4565
29.8977 32.4089
29.9439 32.2444
29.99 32.17
30.0363 32.0583
30.0824 32.1558
30.1287 32.1201
30.1748 32.1466
30.2211 32.1469
30.2673 31.8979
30.3136 32.081
30.3597 31.9679
30.406 31.8723
30.4522 31.7124
30.4985 31.6925
30.5447 31.9288
30.591 31.8533
30.6372 31.8671
30.6835 31.8974
30.7297 31.8967
30.7761 31.8296
30.8224 31.6684
30.8686 31.5047
30.915 31.1892
30.9612 31.2106
31.0076 30.9131
31.0538 30.8833
31.1002 30.7356
31.1464 30.5719
31.1928 30.6806
31.2391 30.6484
31.2855 30.4821
31.3317 30.5791
31.3781 30.5573
31.4244 30.5968
31.4708 30.6437
31.5171 30.4615
31.5636 30.3788
31.6098 30.1933
31.6563 29.9543
31.7026 29.8484
31.7491 29.8694
31.7953 29.8476
31.8418 29.8482
31.8881 29.8003
31.9346 29.8238
31.9809 29.7348
32.0275 29.5819
32.074 29.4912
32.1203 29.2354
32.1668 29.2231
32.2132 29.096
32.2597 28.9405
32.306 28.806
32.3526 28.7186
32.399 28.6053
32.4455 28.3843
32.4919 28.4485
32.5385 28.357
32.5848 28.2036
32.6314 28.2227
32.6778 28.2167
32.7244 28.0455
32.7708 27.9044
32.8174 27.8873
32.8638 27.7939
32.9104 27.79
32.9569 27.7089
33.0035 27.6649
33.0499 27.5901
33.0966 27.555
33.143 27.5467
33.1897 27.4424
33.2361 27.2622
33.2828 27.3082
33.3293 27.195
33.3759 27.0638
33.4226 26.9784
33.4691 26.8042
33.5158 26.7668
33.5623 26.677
33.609 26.4542
33.6555 26.4132
33.7022 26.2415
33.7487 26.2826
33.7954 26.2349
33.842 26.1141
33.8887 25.9872
33.9353 25.9974
33.982 25.8714
34.0286 25.788
34.0753 25.6801
34.1219 25.668
34.1687 25.6009
34.2152 25.4897
34.262 25.3561
34.3086 25.3127
34.3554 25.2933
34.402 25.1389
34.4488 24.9727
34.4954 24.9636
34.5422 24.8787
34.5889 24.887
34.6357 24.7924
34.6825 24.6525
34.7292 24.5667
34.776 24.4181
34.8227 24.4623
34.8695 24.4374
34.9162 24.3632
34.9631 24.2825
35.0098 24.2565
35.0566 24.1047
35.1033 24.0958
35.1502 23.969
35.1969 23.8977
35.2438 23.9154
35.2906 23.8486
35.3375 23.8123
35.3842 23.7503
35.4311 23.7411
35.4779 23.6532
35.5248 23.6413
35.5716 23.493
35.6185 23.4958
35.6653 23.3179
35.7123 23.3232
35.759 23.2731
35.806 23.0814
35.8528 22.9998
35.8998 22.9465
35.9468 22.8569
35.9936 22.8117
36.0406 22.7868
36.0874 22.8099
36.1345 22.6526
36.1813 22.5399
36.2283 22.4491
36.2752 22.4407
36.3222 22.3711
36.3691 22.3035
36.4161 22.1972
36.463 22.2549
36.5101 22.1743
36.557 22.1461
36.6041 21.9231
36.651 21.9817
36.6981 21.8901
36.745 21.8455
36.7921 21.714
36.839 21.6418
36.8861 21.5772
36.9331 21.469
36.9802 21.4272
37.0272 21.4035
37.0743 21.2379
37.1213 21.2628
37.1684 21.2264
37.2154 21.1513
37.2626 21.0544
37.3098 20.9264
37.3568 20.9216
37.404 20.9504
37.451 20.7392
37.4982 20.7496
37.5452 20.6426
37.5924 20.6071
37.6395 20.5851
37.6867 20.5174
37.7337 20.3777
37.781 20.2848
37.8281 20.2576
37.8753 20.2039
37.9224 20.095
37.9697 20.0589
38.0168 19.9668
38.064 19.9791
38.1111 19.9233
38.1584 19.822
38.2056 19.7135
38.2529 19.6783
38.3 19.6163
38.3473 19.6277
38.3945 19.4625
38.4418 19.4457
38.489 19.3657
38.5363 19.2972
38.5837 19.2713
38.6309 19.1779
38.6782 19.1529
38.7254 19.0365
38.7728 19.0894
38.82 18.8931
38.8674 18.8455
38.9146 18.8339
38.9621 18.7728
39.0093 18.7285
39.0567 18.5944
39.104 18.6815
39.1514 18.4816
39.1987 18.4765
39.2461 18.4254
39.2934 18.4197
39.3409 18.267
39.3882 18.2035
39.4356 18.23
39.483 18.1097
39.5304 18.049
39.5778 18.0081
39.6253 17.9557
39.6726 17.8749
39.7201 17.8629
39.7675 17.8122
39.815 17.7797
39.8624 17.6474
39.9099 17.6435
39.9575 17.4719
40.0049 17.5106
40.0525 17.4225
40.0999 17.3974
40.1474 17.305
40.1949 17.2909
40.2425 17.2073
40.2899 17.1405
40.3375 17.1278
40.385 17.0438
40.4326 16.9929
40.48 16.9338
40.5277 16.9467
40.5752 16.8699
40.6228 16.8017
40.6703 16.775
40.718 16.7462
40.7655 16.6257
40.8132 16.6158
40.8607 16.5136
40.9084 16.5523
40.9559 16.4554
41.0036 16.4231
41.0512 16.3432
41.0989 16.3057
41.1465 16.1815
41.1942 16.1932
41.242 16.0565
41.2896 16.0651
41.3373 16.0327
41.3849 15.919
41.4327 15.9127
41.4803 15.7719
41.5281 15.7805
41.5758 15.7312
41.6236 15.6318
41.6712 15.6031
41.7191 15.5719
41.7667 15.55
41.8146 15.436
41.8622 15.3914
41.9101 15.3469
41.9578 15.2295
42.0057 15.2347
42.0534 15.2072
42.1013 15.194
42.149 15.0411
42.1969 15.0837
42.2446 14.9994
42.2925 14.9976
42.3403 14.9365
42.3882 14.9213
42.436 14.8742
42.4839 14.7481
42.5319 14.7486
42.5797 14.6528
42.6277 14.5961
42.6755 14.5743
42.7235 14.4817
42.7713 14.4322
42.8193 14.4492
42.8671 14.3931
42.9152 14.3325
42.963 14.2882
43.0111 14.1604
43.0589 14.1485
43.107 14.1016
43.1549 14.1198
43.2029 14.0427
43.2508 13.9884
43.2989 13.9562
43.3468 13.8297
43.3949 13.846
43.4429 13.8169
43.491 13.7431
43.5389 13.6909
43.5871 13.6085
43.635 13.6059
43.6832 13.5689
43.7312 13.4816
43.7793 13.4308
43.8273 13.4399
43.8755 13.3701
43.9237 13.3355
43.9717 13.2711
44.0199 13.2382
44.068 13.176
44.1162 13.1092
44.1642 13.1119
44.2125 13.0363
44.2606 13.0239
44.3088 12.9492
44.3569 12.9105
44.4052 12.8584
44.4533 12.7982
44.5016 12.7649
44.5497 12.7202
44.598 12.6544
44.6461 12.5908
44.6945 12.5939
44.7426 12.4929
44.791 12.5182
44.8391 12.4664
44.8875 12.4054
44.9357 12.3876
44.984 12.3123
45.0322 12.2852
45.0806 12.2816
45.1288 12.1963
45.1773 12.133
45.2257 12.0991
45.2739 12.0968
45.3224 12.0071
45.3706 11.9639
45.4191 11.9409
45.4673 11.9133
45.5158 11.8689
45.5641 11.8169
45.6126 11.7568
45.6609 11.6875
45.7094 11.651
45.7577 11.6325
45.8063 11.608
45.8546 11.5833
45.9031 11.5085
45.9515 11.4849
46.0001 11.4196
46.0484 11.3558
46.097 11.3647
46.1454 11.328
46.194 11.2792
46.2424 11.2452
46.291 11.2152
46.3395 11.1807
46.3881 11.0792
46.4365 11.0926
46.4852 11.0676
46.5337 11.0198
46.5823 10.973
46.631 10.9027
46.6795 10.8594
46.7282 10.8483
46.7767 10.8292
46.8254 10.7737
46.8739 10.726
46.9226 10.6956
46.9712 10.6264
47.0199 10.6262
47.0685 10.5705
47.1173 10.4934
47.1658 10.4228
47.2146 10.4491
47.2632 10.409
47.312 10.3643
47.3606 10.312
47.4095 10.2885
47.4581 10.2564
47.5069 10.1886
47.5556 10.1558
47.6044 10.1262
47.6531 10.1027
47.702 10.0527
47.7507 10.0211
47.7996 9.97501
47.8483 9.96762
47.8972 9.88273
47.9461 9.88761
47.9948 9.83004
48.0438 9.79603
48.0925 9.73253
48.1415 9.70911
48.1902 9.6947
48.2392 9.66798
48.288 9.62
48.337 9.59186
48.3858 9.5339
48.4348 9.50471
48.4837 9.51079
48.5327 9.4871
48.5815 9.40937
48.6306 9.40476
48.6795 9.33254
48.7285 9.28798
48.7774 9.28701
48.8265 9.26667
48.8754 9.20241
48.9245 9.19844
48.9734 9.18331
49.0226 9.16313
49.0715 9.10291
49.1206 9.00574
49.1696 8.97881
49.2188 8.98271
49.2679 8.91388
49.3169 8.9055
49.3661 8.8481
49.4151 8.82374
49.4643 8.79836
49.5134 8.75252
49.5626 8.73442
49.6117 8.71417
49.6609 8.66313
49.71 8.63059
49.7592 8.59252
49.8083 8.54995
49.8576 8.5527
49.9067 8.50319
49.956 8.47839
50.0052 8.46811
50.0545 8.43889
50.1036 8.33764
50.153 8.35096
50.2022 8.33698
50.2515 8.27527
50.3007 8.19848
50.3501 8.20185
50.3993 8.16368
50.4487 8.18627
50.498 8.08722
50.5474 8.08465
50.5966 8.08698
50.6461 8.03706
50.6955 8.02139
50.7448 7.9509
50.7943 7.93654
50.8436 7.91419
50.8931 7.85582
50.9424 7.81708
50.9919 7.80323
51.0413 7.82177
51.0908 7.75388
51.1402 7.72334
51.1897 7.69205
51.2391 7.66966
51.2887 7.6318
51.3381 7.57809
51.3877 7.56018
51.4371 7.50561
51.4867 7.48683
51.5362 7.47487
51.5858 7.45793
51.6353 7.39286
51.6849 7.36859
51.7344 7.34129
51.7841 7.3708
51.8336 7.26785
51.8833 7.23364
51.9328 7.19902
51.9826 7.19613
52.0323 7.1689
52.0818 7.14504
52.1316 7.09159
52.1812 7.06507
52.231 7.04193
52.2806 6.996
52.3304 6.99471
52.38 6.95614
52.4298 6.91505
52.4794 6.90391
52.5293 6.93265
52.5789 6.83137
52.6288 6.8078
52.6785 6.77676
52.7284 6.79878
52.7781 6.7356
52.828 6.73288
52.8777 6.66726
52.9276 6.64741
52.9774 6.63844
53.0273 6.58451
53.0771 6.56454
53.1271 6.54848
53.1769 6.50779
53.2269 6.48815
53.2767 6.45607
53.3267 6.44388
53.3765 6.39084
53.4266 6.33961
53.4766 6.35592
53.5265 6.29478
53.5765 6.27105
53.6264 6.27174
53.6765 6.2616
53.7264 6.20605
53.7765 6.20385
53.8265 6.16923
53.8766 6.12075
53.9266 6.02923
53.9767 6.06108
54.0267 6.05159
54.0769 6.04242
54.1269 5.9782
54.1771 5.93779
54.2271 5.94921
54.2773 5.89999
54.3274 5.91687
54.3776 5.82106
54.4277 5.79996
54.478 5.7794
54.528 5.7519
54.5783 5.70954
54.6285 5.67843
54.6788 5.60783
54.7289 5.56707
54.7792 5.60224
54.8296 5.47971
54.8798 5.43859
54.9301 5.3768
54.9803 5.40921
55.0307 5.36508
55.0809 5.3613
55.1314 5.3014
55.1816 5.20627
55.232 5.19744
55.2823 5.15982
55.3328 5.09066
55.383 5.0564
55.4335 5.02044
55.4838 4.96389
55.5344 4.89752
55.5847 4.87409
55.6352 4.8454
55.6856 4.7848
55.7361 4.77136