File: XRD/Ni3Fe_FD0707.xy
TT I
1.27165 7.33846
1.31627 6.38614
1.36089 6.44341
1.40551 6.23506
1.45013 5.7301
1.49476 5.99574
1.53938 5.67661
1.584 5.32655
1.62863 5.78247
1.67325 4.86403
1.71787 4.9721
1.7625 4.44113
1.80712 5.09999
1.85174 4.74019
1.89636 4.61618
1.94099 4.8485
1.98562 4.27829
2.03025 5.18793
2.07487 4.00928
2.11949 4.69197
2.16411 4.47048
2.20874 8.75337
2.25338 11.3359
2.298 6.15107
2.34263 5.3333
2.38725 5.96225
2.43188 5.98051
2.4765 6.87765
2.52115 6.51998
2.56577 8.30505
2.6104 7.60222
2.65503 7.85038
2.69965 8.46057
2.7443 7.72726
2.78893 8.20259
2.83356 8.2196
2.87818 8.8524
2.92281 8.90047
2.96744 9.54961
3.01209 10.3005
3.05672 11.0447
3.10135 12.1561
3.14599 12.99
3.19062 14.2143
3.23527 15.2598
3.2799 15.6099
3.32454 16.8202
3.36917 17.5661
3.4138 18.7585
3.45844 19.7989
3.50309 20.8184
3.54773 21.4585
3.59237 22.7745
3.637 50.3453
3.68164 37.0113
3.7263 25.2007
3.77094 25.7477
3.81558 26.5457
3.86022 27.2094
3.90486 28.2107
3.9495 29.4618
3.99416 30.2955
4.0388 31.5242
4.08344 33.5578
4.12809 34.5485
4.17273 35.7148
4.21738 39.4325
4.26204 121.077
4.30669 104.708
4.35133 44.1936
4.39598 43.209
4.44063 49.0164
4.4853 53.8618
4.52995 56.6444
4.5746 56.7849
4.61925 53.824
4.6639 55.3677
4.70855 58.5495
4.75322 61.9452
4.79788 68.2214
4.84253 68.7529
4.88719 75.0719
4.93184 76.9996
4.97652 80.8409
5.02118 87.6188
5.06583 95.3093
5.11049 107.5
5.15515 157.373
5.19981 430.751
5.24449 3046.48
5.28916 12596.4
5.33382 2641.69
5.37848 196.806
5.42315 131.405
5.46783 119.496
5.5125 112.444
5.55716 102.845
5.60183 98.2676
5.6465 96.1146
5.69117 94.5208
5.73586 93.4293
5.78053 97.6214
5.8252 97.7193
5.86988 100.607
5.91455 95.4434
5.95924 106.298
6.00392 256.63
6.0486 1035.78
6.09328 4601.43
6.13795 3109.19
6.18263 220.823
6.22733 91.066
6.27201 80.4838
6.3167 84.9996
6.36138 74.5448
6.40606 69.5533
6.45075 69.6629
6.49545 65.1482
6.54014 63.237
6.58483 62.6126
6.62952 62.7821
6.67421 73.7057
6.71892 90.3914
6.76361 62.319
6.8083 59.3726
6.853 59.6861
6.89769 56.7489
6.94239 56.1825
6.98711 55.4552
7.03181 55.5904
7.07651 54.826
7.12121 54.3167
7.16591 56.1219
7.21063 55.1874
7.25533 60.7297
7.30004 100.36
7.34475 68.0713
7.38945 55.0464
7.43416 53.9376
7.47889 53.3973
7.5236 54.3243
7.56831 54.8971
7.61303 55.6872
7.65774 56.1778
7.70247 56.4261
7.74719 56.3199
7.79191 56.3002
7.83663 56.7778
7.88135 57.5884
7.92607 58.4675
7.97081 59.4505
8.01553 61.0324
8.06026 62.4085
8.10498 63.8931
8.14971 70.9476
8.19446 70.6585
8.23919 69.264
8.28392 71.7963
8.32865 74.0593
8.37339 78.7978
8.41812 84.1815
8.46288 104.621
8.50761 188.609
8.55235 411.873
8.59709 1251.68
8.64183 2170.62
8.68658 849.738
8.73134 149.795
8.77609 98.1014
8.82083 92.7406
8.86558 92.3618
8.91033 91.9903
8.9551 89.4635
8.99985 85.4929
9.04461 84.0958
9.08936 84.3158
9.13412 82.7423
9.17888 82.0507
9.22365 82.5565
9.26841 81.8985
9.31318 84.456
9.35794 86.2422
9.4027 85.8036
9.44749 85.1007
9.49226 84.8301
9.53703 85.7777
9.5818 89.3912
9.62657 94.0173
9.67134 95.3686
9.71614 92.9572
9.76091 94.9181
9.80569 99.2864
9.85047 101.362
9.89525 112.116
9.94005 129.661
9.98484 200.114
10.0296 365.967
10.0744 851.453
10.1192 1806.5
10.164 1539.78
10.2088 359.238
10.2536 121.834
10.2984 109.641
10.3432 108.328
10.388 105.767
10.4328 124.044
10.4776 165.928
10.5224 294.504
10.5672 515.394
10.612 494.056
10.6568 192.175
10.7017 94.0291
10.7465 86.1884
10.7913 82.965
10.8361 80.9513
10.8809 78.8644
10.9257 77.7341
10.9706 77.6014
11.0154 75.3777
11.0602 72.4983
11.105 71.423
11.1499 72.188
11.1947 74.5256
11.2395 70.2496
11.2844 68.4532
11.3292 66.5464
11.374 66.0187
11.4189 65.4241
11.4637 64.4993
11.5086 64.4865
11.5534 65.3842
11.5983 64.0369
11.6431 63.3303
11.688 62.8374
11.7328 62.5833
11.7777 62.5534
11.8225 62.4315
11.8674 62.3999
11.9122 62.3973
11.9571 62.9131
12.002 64.4471
12.0468 69.7258
12.0917 79.5543
12.1366 105.263
12.1814 155.317
12.2263 207.092
12.2712 156.436
12.3161 87.4203
12.3609 67.0012
12.4058 63.7723
12.4507 63.802
12.4956 64.4768
12.5405 64.8162
12.5853 65.255
12.6302 68.1955
12.6751 70.6619
12.72 67.9322
12.7649 67.6624
12.8098 68.2697
12.8547 70.0148
12.8996 71.2564
12.9445 72.8954
12.9894 74.407
13.0343 76.0802
13.0792 80.684
13.1242 93.8741
13.1691 114.416
13.214 153.49
13.2589 250.576
13.3038 380.755
13.3487 415.314
13.3937 249.113
13.4386 120.91
13.4835 108.605
13.5285 123.134
13.5734 165.712
13.6183 260.882
13.6633 360.714
13.7082 328.675
13.7531 173.439
13.7981 94.1175
13.843 81.4446
13.888 79.2963
13.9329 77.2894
13.9779 75.7412
14.0228 74.4002
14.0678 72.8553
14.1127 72.5966
14.1577 71.8693
14.2027 71.2164
14.2476 70.2319
14.2926 70.0261
14.3376 70.2596
14.3825 69.5697
14.4275 68.9986
14.4725 68.696
14.5175 68.9645
14.5624 68.6007
14.6074 70.0164
14.6524 70.3825
14.6974 70.5828
14.7424 74.2505
14.7874 80.4662
14.8324 90.5714
14.8774 114.435
14.9224 159.61
14.9674 212.985
15.0124 216.038
15.0574 140.153
15.1024 86.4244
15.1474 71.81
15.1924 70.1076
15.2374 69.7406
15.2824 68.6404
15.3274 67.2333
15.3725 66.658
15.4175 66.1966
15.4625 65.8615
15.5076 65.7301
15.5526 65.7291
15.5976 65.8284
15.6426 68.5266
15.6877 73.8033
15.7327 80.9898
15.7778 96.9901
15.8228 130.619
15.8679 174.489
15.9129 193.564
15.958 148.242
16.003 91.2747
16.0481 66.2665
16.0931 63.0648
16.1382 61.5033
16.1833 60.1926
16.2283 58.7826
16.2734 57.9699
16.3185 57.8223
16.3636 57.5583
16.4086 56.4954
16.4537 55.8548
16.4988 55.4
16.5439 55.3039
16.589 55.0342
16.6341 54.7819
16.6792 54.3334
16.7243 54.7215
16.7694 54.7032
16.8145 54.6765
16.8596 54.8214
16.9047 55.5089
16.9498 55.7791
16.9949 55.2771
17.04 55.809
17.0851 57.2161
17.1302 58.7726
17.1754 61.6898
17.2205 67.3387
17.2656 75.4314
17.3108 83.4445
17.3559 81.6045
17.401 69.7088
17.4462 61.5445
17.4913 59.0248
17.5365 58.9249
17.5815 58.9466
17.6268 59.4193
17.6718 60.3989
17.7171 60.5979
17.7622 61.1002
17.8074 62.5732
17.8525 65.4758
17.8977 68.6353
17.9428 74.4465
17.9881 84.1897
18.0331 102.655
18.0784 125.657
18.1237 142.358
18.1688 130.35
18.214 100.574
18.2591 85.9591
18.3044 91.5114
18.3495 101.284
18.3948 106.267
18.4399 93.567
18.4852 74.9074
18.5303 64.9572
18.5756 61.9813
18.6207 60.7876
18.666 60.258
18.7112 59.3953
18.7565 58.8214
18.8016 58.4672
18.8469 58.0523
18.892 57.6507
18.9374 57.1511
18.9825 56.8632
19.0278 56.6243
19.073 56.9824
19.1183 57.3366
19.1635 58.0134
19.2088 59.299
19.254 62.4314
19.2993 67.2896
19.3447 73.3522
19.3898 75.9063
19.4352 70.8952
19.4804 62.0034
19.5257 55.9643
19.5709 54.0189
19.6163 53.7549
19.6615 53.6712
19.7068 53.1723
19.752 53.2409
19.7974 53.7257
19.8426 54.4386
19.888 54.9451
19.9332 56.4693
19.9786 59.1436
20.0238 62.9704
20.0692 67.555
20.1144 69.6548
20.1598 67.6048
20.205 63.1637
20.2504 62.2335
20.2957 64.3606
20.3411 65.4161
20.3863 63.0762
20.4318 57.4654
20.477 53.0654
20.5224 50.9277
20.5677 50.5897
20.6131 50.0905
20.6586 49.5931
20.7038 49.1788
20.7493 48.9354
20.7945 48.6966
20.84 48.7096
20.8853 48.7711
20.9307 48.5303
20.976 48.6164
21.0215 48.573
21.0668 48.8384
21.1122 49.395
21.1575 50.2068
21.203 50.9003
21.2483 51.4312
21.2938 51.3618
21.3391 49.7027
21.3846 48.8655
21.4299 48.3305
21.4754 48.2641
21.5207 48.6352
21.5662 48.9526
21.6116 49.2957
21.6571 50.0269
21.7024 50.9487
21.7479 52.8637
21.7933 55.8169
21.8388 59.3898
21.8843 63.3471
21.9297 65.1066
21.9752 62.58
22.0206 58.7697
22.0661 56.218
22.1115 55.9951
22.157 55.6288
22.2024 53.8408
22.248 51.0325
22.2933 49.5466
22.3389 48.8929
22.3843 48.6682
22.4299 48.5428
22.4753 48.6451
22.5208 48.569
22.5662 48.2982
22.6118 48.7403
22.6572 48.9847
22.7028 49.1874
22.7483 49.62
22.7939 50.5415
22.8393 52.035
22.8849 54.3807
22.9303 56.4182
22.9759 57.7786
23.0214 57.0781
23.067 53.9749
23.1126 50.7638
23.1581 48.8828
23.2037 48.673
23.2492 48.7582
23.2948 48.7547
23.3403 48.9965
23.3859 49.7743
23.4314 50.9819
23.477 52.8593
23.5225 55.1733
23.5682 57.2177
23.6137 57.6799
23.6593 54.9911
23.7048 50.8845
23.7505 47.9624
23.796 46.2859
23.8417 45.8317
23.8872 45.5401
23.9329 44.9889
23.9784 44.8357
24.0241 44.3589
24.0697 44.347
24.1154 43.9431
24.1609 43.8813
24.2066 43.6904
24.2522 43.5457
24.2979 43.4209
24.3434 43.1766
24.3892 43.0852
24.4349 43.1488
24.4805 42.7792
24.5262 42.9181
24.5718 42.8376
24.6175 42.8499
24.6631 42.7347
24.7089 42.3665
24.7545 42.2998
24.8002 42.1346
24.8458 42.1803
24.8916 42.0955
24.9372 42.1062
24.983 42.5514
25.0286 42.8723
25.0744 43.2159
25.12 43.6828
25.1658 44.415
25.2114 44.6496
25.2572 44.7537
25.3029 44.766
25.3487 44.8989
25.3943 44.4118
25.4402 43.2837
25.4858 42.1689
25.5316 41.1251
25.5773 40.7718
25.6231 40.7593
25.669 40.57
25.7147 40.5292
25.7605 40.3977
25.8062 40.1851
25.8521 40.3833
25.8977 40.5176
25.9436 40.7433
25.9893 40.9492
26.0352 41.4096
26.0809 41.5818
26.1268 41.5829
26.1725 41.1019
26.2184 40.7064
26.2641 40.1656
26.31 40.018
26.3557 40.0537
26.4017 39.9822
26.4474 40.4178
26.4933 40.7627
26.5391 41.3457
26.585 41.6362
26.6308 42.043
26.6767 42.0249
26.7225 41.7743
26.7684 41.2235
26.8142 40.64
26.8601 40.3524
26.9059 39.9678
26.9519 39.3389
26.9979 38.9211
27.0437 38.7051
27.0896 38.739
27.1354 38.6606
27.1814 38.5358
27.2272 38.3892
27.2732 38.623
27.3191 38.1906
27.3651 38.5301
27.4109 38.3748
27.4569 38.5196
27.5027 38.5221
27.5488 38.5546
27.5946 38.2077
27.6407 38.1644
27.6865 38.0438
27.7326 37.7406
27.7784 37.774
27.8245 37.7804
27.8703 38.0074
27.9164 38.1564
27.9623 38.445
28.0084 38.7917
28.0543 39.2217
28.1003 38.9725
28.1462 38.696
28.1923 38.2657
28.2384 37.8402
28.2843 37.4393
28.3304 36.9895
28.3764 36.6313
28.4225 36.3255
28.4684 36.1174
28.5145 35.8325
28.5605 35.7972
28.6066 35.51
28.6526 35.6872
28.6987 35.5084
28.7447 35.4917
28.7908 35.2727
28.8368 35.4111
28.8829 35.348
28.9289 35.2625
28.9751 35.1042
29.0211 34.8842
29.0673 34.5404
29.1133 34.4592
29.1595 34.3473
29.2055 34.1807
29.2517 34.2061
29.2977 34.2037
29.3439 34.1046
29.3899 34.2234
29.4361 34.025
29.4824 33.8066
29.5284 33.6072
29.5746 33.2883
29.6207 33.0812
29.6669 32.9666
29.713 32.8398
29.7593 32.7866
29.8053 32.782
29.8516 32.7271
29.8977 32.7091
29.9439 32.6263
29.99 32.5101
30.0363 32.34
30.0824 32.4621
30.1287 32.346
30.1748 32.4161
30.2211 32.3876
30.2673 32.2329
30.3136 32.3734
30.3597 32.2146
30.406 32.044
30.4522 32.0396
30.4985 31.9759
30.5447 32.0725
30.591 32.1456
30.6372 32.1913
30.6835 32.0852
30.7297 32.1165
30.7761 32.0889
30.8224 31.9296
30.8686 31.8009
30.915 31.4884
30.9612 31.4809
31.0076 31.2235
31.0538 31.1284
31.1002 31.0242
31.1464 30.8488
31.1928 30.8023
31.2391 30.8595
31.2855 30.7577
31.3317 30.7196
31.3781 30.9271
31.4244 30.861
31.4708 30.7727
31.5171 30.7102
31.5636 30.6291
31.6098 30.4196
31.6563 30.3107
31.7026 30.2091
31.7491 30.0969
31.7953 30.1279
31.8418 30.0617
31.8881 30.1256
31.9346 29.999
31.9809 29.9432
32.0275 29.8409
32.074 29.7591
32.1203 29.4465
32.1668 29.4603
32.2132 29.2663
32.2597 29.2554
32.306 29.0703
32.3526 28.912
32.399 28.8494
32.4455 28.728
32.4919 28.5975
32.5385 28.7016
32.5848 28.4113
32.6314 28.4014
32.6778 28.3083
32.7244 28.2584
32.7708 28.1772
32.8174 28.0965
32.8638 27.9106
32.9104 28.0126
32.9569 27.9912
33.0035 27.7412
33.0499 27.7825
33.0966 27.8083
33.143 27.643
33.1897 27.6302
33.2361 27.5874
33.2828 27.5511
33.3293 27.3954
33.3759 27.2816
33.4226 27.1661
33.4691 27.0564
33.5158 26.9042
33.5623 26.8448
33.609 26.6018
33.6555 26.5967
33.7022 26.5668
33.7487 26.522
33.7954 26.4269
33.842 26.2806
33.8887 26.3091
33.9353 26.1201
33.982 26.0919
34.0286 25.9825
34.0753 25.9484
34.1219 25.8136
34.1687 25.7434
34.2152 25.7701
34.262 25.5607
34.3086 25.428
34.3554 25.5222
34.402 25.3238
34.4488 25.2769
34.4954 25.1211
34.5422 25.097
34.5889 25.0169
34.6357 24.845
34.6825 24.9389
34.7292 24.7985
34.776 24.6835
34.8227 24.5833
34.8695 24.5959
34.9162 24.4858
34.9631 24.4528
35.0098 24.4255
35.0566 24.3546
35.1033 24.2423
35.1502 24.2855
35.1969 24.1346
35.2438 24.1136
35.2906 24.012
35.3375 24.0512
35.3842 23.9539
35.4311 23.9362
35.4779 23.9082
35.5248 23.7912
35.5716 23.7208
35.6185 23.6224
35.6653 23.5805
35.7123 23.5107
35.759 23.3934
35.806 23.2833
35.8528 23.1341
35.8998 23.1125
35.9468 23.0441
35.9936 22.9699
36.0406 22.9888
36.0874 22.9231
36.1345 22.8512
36.1813 22.7561
36.2283 22.7069
36.2752 22.5998
36.3222 22.5855
36.3691 22.5407
36.4161 22.4029
36.463 22.4389
36.5101 22.4197
36.557 22.3322
36.6041 22.1471
36.651 22.1148
36.6981 22.0945
36.745 21.9907
36.7921 21.9601
36.839 21.8421
36.8861 21.7093
36.9331 21.6433
36.9802 21.6606
37.0272 21.5237
37.0743 21.4614
37.1213 21.387
37.1684 21.3171
37.2154 21.2597
37.2626 21.2339
37.3098 21.1169
37.3568 21.0918
37.404 21.1131
37.451 20.9075
37.4982 20.8217
37.5452 20.8089
37.5924 20.6807
37.6395 20.744
37.6867 20.6401
37.7337 20.5741
37.781 20.4439
37.8281 20.4075
37.8753 20.3389
37.9224 20.1876
37.9697 20.2743
38.0168 20.1321
38.064 20.0801
38.1111 20.0826
38.1584 19.9677
38.2056 19.8895
38.2529 19.8082
38.3 19.7427
38.3473 19.7564
38.3945 19.6585
38.4418 19.5714
38.489 19.501
38.5363 19.5027
38.5837 19.4423
38.6309 19.312
38.6782 19.259
38.7254 19.2382
38.7728 19.1409
38.82 19.1355
38.8674 19.0899
38.9146 19.0226
38.9621 18.8915
39.0093 18.8426
39.0567 18.8456
39.104 18.7561
39.1514 18.6672
39.1987 18.6099
39.2461 18.597
39.2934 18.4895
39.3409 18.464
39.3882 18.3069
39.4356 18.2972
39.483 18.2302
39.5304 18.1569
39.5778 18.2419
39.6253 18.0902
39.6726 17.9912
39.7201 17.9858
39.7675 17.9183
39.815 17.8607
39.8624 17.7446
39.9099 17.7612
39.9575 17.707
40.0049 17.6682
40.0525 17.5864
40.0999 17.5112
40.1474 17.5726
40.1949 17.3481
40.2425 17.3502
40.2899 17.2985
40.3375 17.2707
40.385 17.2626
40.4326 17.1306
40.48 17.0634
40.5277 17.031
40.5752 17.0356
40.6228 16.9644
40.6703 16.9128
40.718 16.7958
40.7655 16.7643
40.8132 16.6759
40.8607 16.7204
40.9084 16.6346
40.9559 16.553
41.0036 16.5489
41.0512 16.4428
41.0989 16.4101
41.1465 16.3514
41.1942 16.3013
41.242 16.1802
41.2896 16.1732
41.3373 16.118
41.3849 16.0907
41.4327 16.0102
41.4803 15.9361
41.5281 15.895
41.5758 15.8367
41.6236 15.8491
41.6712 15.7541
41.7191 15.7081
41.7667 15.624
41.8146 15.6605
41.8622 15.545
41.9101 15.4928
41.9578 15.3365
42.0057 15.4085
42.0534 15.405
42.1013 15.2831
42.149 15.224
42.1969 15.186
42.2446 15.1355
42.2925 15.0068
42.3403 15.0144
42.3882 14.9853
42.436 14.9201
42.4839 14.8755
42.5319 14.8164
42.5797 14.7555
42.6277 14.6965
42.6755 14.6685
42.7235 14.5689
42.7713 14.5552
42.8193 14.5162
42.8671 14.4318
42.9152 14.4453
42.963 14.371
43.0111 14.3559
43.0589 14.231
43.107 14.2148
43.1549 14.1978
43.2029 14.1159
43.2508 14.1221
43.2989 14.0028
43.3468 13.9506
43.3949 13.9271
43.4429 13.9182
43.491 13.8088
43.5389 13.7669
43.5871 13.7509
43.635 13.662
43.6832 13.6518
43.7312 13.5909
43.7793 13.5667
43.8273 13.5018
43.8755 13.4083
43.9237 13.4105
43.9717 13.3521
44.0199 13.328
44.068 13.2809
44.1162 13.1984
44.1642 13.2026
44.2125 13.1561
44.2606 13.0961
44.3088 13.0389
44.3569 13.0236
44.4052 12.9604
44.4533 12.8785
44.5016 12.8391
44.5497 12.8664
44.598 12.8194
44.6461 12.7179
44.6945 12.7262
44.7426 12.6327
44.791 12.5872
44.8391 12.5488
44.8875 12.5229
44.9357 12.4806
44.984 12.4448
45.0322 12.3595
45.0806 12.2954
45.1288 12.3028
45.1773 12.2369
45.2257 12.1313
45.2739 12.2042
45.3224 12.0779
45.3706 12.0549
45.4191 11.9812
45.4673 12.0237
45.5158 11.9568
45.5641 11.8995
45.6126 11.8847
45.6609 11.8366
45.7094 11.7783
45.7577 11.7396
45.8063 11.6797
45.8546 11.6495
45.9031 11.5988
45.9515 11.587
46.0001 11.5542
46.0484 11.4687
46.097 11.4874
46.1454 11.417
46.194 11.3421
46.2424 11.3751
46.291 11.2834
46.3395 11.2521
46.3881 11.1818
46.4365 11.1422
46.4852 11.0883
46.5337 11.0831
46.5823 11.0374
46.631 10.961
46.6795 10.929
46.7282 10.9198
46.7767 10.8939
46.8254 10.8232
46.8739 10.7942
46.9226 10.7522
46.9712 10.7092
47.0199 10.6498
47.0685 10.6153
47.1173 10.5831
47.1658 10.5562
47.2146 10.5651
47.2632 10.4685
47.312 10.4723
47.3606 10.386
47.4095 10.3561
47.4581 10.2981
47.5069 10.2523
47.5556 10.2238
47.6044 10.1905
47.6531 10.1723
47.702 10.1252
47.7507 10.1282
47.7996 10.059
47.8483 10.0602
47.8972 9.97422
47.9461 9.95418
47.9948 9.91222
48.0438 9.86436
48.0925 9.82836
48.1415 9.84463
48.1902 9.76318
48.2392 9.74837
48.288 9.71667
48.337 9.66789
48.3858 9.63069
48.4348 9.58714
48.4837 9.58518
48.5327 9.5558
48.5815 9.49932
48.6306 9.46593
48.6795 9.4346
48.7285 9.35216
48.7774 9.36799
48.8265 9.34737
48.8754 9.28282
48.9245 9.24085
48.9734 9.21771
49.0226 9.2194
49.0715 9.15197
49.1206 9.12475
49.1696 9.07472
49.2188 9.05896
49.2679 9.01922
49.3169 8.94701
49.3661 8.93565
49.4151 8.87877
49.4643 8.86818
49.5134 8.8208
49.5626 8.77262
49.6117 8.7488
49.6609 8.78444
49.71 8.69627
49.7592 8.64578
49.8083 8.59592
49.8576 8.63483
49.9067 8.5796
49.956 8.53434
50.0052 8.47753
50.0545 8.48412
50.1036 8.42138
50.153 8.41049
50.2022 8.40424
50.2515 8.31918
50.3007 8.31663
50.3501 8.29667
50.3993 8.23046
50.4487 8.25734
50.498 8.19224
50.5474 8.12486
50.5966 8.16265
50.6461 8.07205
50.6955 8.07301
50.7448 8.03028
50.7943 7.99329
50.8436 7.95936
50.8931 7.94097
50.9424 7.90555
50.9919 7.85561
51.0413 7.83388
51.0908 7.8231
51.1402 7.77013
51.1897 7.72064
51.2391 7.708
51.2887 7.65326
51.3381 7.62654
51.3877 7.63381
51.4371 7.57513
51.4867 7.55533
51.5362 7.53611
51.5858 7.49393
51.6353 7.4322
51.6849 7.41007
51.7344 7.35725
51.7841 7.36328
51.8336 7.34404
51.8833 7.31398
51.9328 7.26434
51.9826 7.19733
52.0323 7.21
52.0818 7.1897
52.1316 7.16379
52.1812 7.12692
52.231 7.08585
52.2806 7.08244
52.3304 7.00722
52.38 7.01039
52.4298 7.01338
52.4794 6.98865
52.5293 6.93784
52.5789 6.92373
52.6288 6.86443
52.6785 6.83664
52.7284 6.80943
52.7781 6.84293
52.828 6.78336
52.8777 6.72919
52.9276 6.68279
52.9774 6.66302
53.0273 6.67808
53.0771 6.63295
53.1271 6.6142
53.1769 6.57614
53.2269 6.53233
53.2767 6.48121
53.3267 6.46372
53.3765 6.45033
53.4266 6.41434
53.4766 6.40905
53.5265 6.36448
53.5765 6.35398
53.6264 6.33218
53.6765 6.28312
53.7264 6.2724
53.7765 6.26019
53.8265 6.17962
53.8766 6.17228
53.9266 6.16506
53.9767 6.10551
54.0267 6.11793
54.0769 6.07972
54.1269 6.05539
54.1771 6.02716
54.2271 5.9776
54.2773 5.9656
54.3274 5.88669
54.3776 5.91885
54.4277 5.84358
54.478 5.80926
54.528 5.81492
54.5783 5.71998
54.6285 5.70973
54.6788 5.64709
54.7289 5.63757
54.7792 5.59633
54.8296 5.52704
54.8798 5.49484
54.9301 5.48021
54.9803 5.39394
55.0307 5.4129
55.0809 5.36352
55.1314 5.34208
55.1816 5.25622
55.232 5.19938
55.2823 5.1896
55.3328 5.12162
55.383 5.07341
55.4335 5.04292
55.4838 5.02779
55.5344 4.98115
55.5847 4.95311
55.6352 4.88308
55.6856 4.88628
55.7361 4.80339