File: XRD/Ni3Fe_FD0586.xy
TT I
1.27165 7.46706
1.31627 7.00992
1.36089 7.06566
1.40551 5.87241
1.45013 6.2283
1.49476 6.14084
1.53938 5.56507
1.584 5.10728
1.62863 5.23392
1.67325 4.99273
1.71787 5.1356
1.7625 4.76536
1.80712 5.09418
1.85174 5.1577
1.89636 4.5956
1.94099 5.19007
1.98562 4.69684
2.03025 4.64059
2.07487 4.43351
2.11949 4.41652
2.16411 4.80608
2.20874 8.79353
2.25338 13.1273
2.298 5.27961
2.34263 5.391
2.38725 5.22705
2.43188 5.24951
2.4765 6.74052
2.52115 6.89583
2.56577 6.70194
2.6104 7.57563
2.65503 7.78993
2.69965 8.11415
2.7443 7.82608
2.78893 8.09161
2.83356 8.57943
2.87818 8.92011
2.92281 8.98817
2.96744 9.70586
3.01209 9.91435
3.05672 11.025
3.10135 12.4378
3.14599 12.9264
3.19062 14.5169
3.23527 15.0417
3.2799 15.9122
3.32454 16.6908
3.36917 18.0489
3.4138 18.683
3.45844 19.6081
3.50309 20.8536
3.54773 21.2633
3.59237 23.1466
3.637 53.8751
3.68164 38.8919
3.7263 25.7337
3.77094 25.8238
3.81558 26.5745
3.86022 27.7005
3.90486 28.5089
3.9495 29.4062
3.99416 30.8074
4.0388 31.9714
4.08344 33.602
4.12809 34.4809
4.17273 35.9585
4.21738 40.0062
4.26204 133.137
4.30669 116.811
4.35133 44.5095
4.39598 43.8684
4.44063 49.5548
4.4853 55.7971
4.52995 54.6364
4.5746 54.8685
4.61925 54.0163
4.6639 55.7568
4.70855 58.9741
4.75322 61.8857
4.79788 67.096
4.84253 68.8888
4.88719 74.4275
4.93184 77.0416
4.97652 82.2865
5.02118 88.8088
5.06583 97.1404
5.11049 109.199
5.15515 162.612
5.19981 477.493
5.24449 3236.28
5.28916 12270.7
5.33382 2774.88
5.37848 200.75
5.42315 132.961
5.46783 118.637
5.5125 111.092
5.55716 103.763
5.60183 99.546
5.6465 97.9831
5.69117 95.939
5.73586 93.5916
5.78053 96.6208
5.8252 96.6644
5.86988 98.9284
5.91455 97.1629
5.95924 109.258
6.00392 273.63
6.0486 1112.76
6.09328 4415.22
6.13795 3298.79
6.18263 240.18
6.22733 93.2954
6.27201 82.4429
6.3167 87.0606
6.36138 75.8855
6.40606 70.1058
6.45075 68.947
6.49545 65.9591
6.54014 63.8822
6.58483 62.9661
6.62952 63.0263
6.67421 75.9454
6.71892 97.4082
6.76361 63.5071
6.8083 59.3255
6.853 59.2012
6.89769 56.8753
6.94239 56.5334
6.98711 56.0474
7.03181 55.8381
7.07651 55.0061
7.12121 55.1597
7.16591 55.7832
7.21063 55.2592
7.25533 61.8302
7.30004 109.179
7.34475 70.8403
7.38945 55.4956
7.43416 54.0857
7.47889 54.3411
7.5236 54.75
7.56831 55.4762
7.61303 56.0879
7.65774 56.4745
7.70247 56.9764
7.74719 56.3898
7.79191 56.7837
7.83663 57.1127
7.88135 58.4101
7.92607 58.9541
7.97081 60.4821
8.01553 61.0715
8.06026 62.9516
8.10498 64.2479
8.14971 70.9219
8.19446 70.7548
8.23919 69.9835
8.28392 72.731
8.32865 75.3423
8.37339 79.6263
8.41812 85.1954
8.46288 107.661
8.50761 198.671
8.55235 440.235
8.59709 1249.81
8.64183 2202.79
8.68658 927.838
8.73134 158.474
8.77609 100.004
8.82083 93.3171
8.86558 92.2163
8.91033 91.3254
8.9551 89.8329
8.99985 86.201
9.04461 84.51
9.08936 84.5066
9.13412 83.2493
9.17888 82.8163
9.22365 82.8887
9.26841 83.0884
9.31318 84.6318
9.35794 85.8317
9.4027 85.2547
9.44749 85.6986
9.49226 85.9694
9.53703 86.6632
9.5818 89.6296
9.62657 93.5271
9.67134 95.8051
9.71614 93.8008
9.76091 95.7561
9.80569 99.2308
9.85047 102.136
9.89525 114.644
9.94005 132.471
9.98484 210.652
10.0296 382.861
10.0744 868.671
10.1192 1732.44
10.164 1545.52
10.2088 367.129
10.2536 124.638
10.2984 111.512
10.3432 110.461
10.388 107.068
10.4328 127.872
10.4776 171.949
10.5224 300.368
10.5672 518.226
10.612 481.758
10.6568 189.858
10.7017 95.0445
10.7465 87.3983
10.7913 83.7449
10.8361 81.5679
10.8809 79.3134
10.9257 78.1424
10.9706 78.3917
11.0154 75.4626
11.0602 73.3571
11.105 71.6514
11.1499 72.9889
11.1947 76.1134
11.2395 71.3576
11.2844 69.0732
11.3292 67.4435
11.374 66.7933
11.4189 66.0845
11.4637 65.6662
11.5086 65.1746
11.5534 65.8492
11.5983 64.7886
11.6431 63.5003
11.688 63.0797
11.7328 63.3223
11.7777 63.0765
11.8225 63.1744
11.8674 62.9686
11.9122 63.4354
11.9571 63.6801
12.002 64.9492
12.0468 71.0805
12.0917 81.8844
12.1366 106.864
12.1814 156.04
12.2263 202.395
12.2712 162.175
12.3161 88.9543
12.3609 67.8301
12.4058 64.9318
12.4507 64.5081
12.4956 65.1246
12.5405 65.1977
12.5853 65.8173
12.6302 69.2321
12.6751 72.2678
12.72 68.6504
12.7649 68.3105
12.8098 68.9676
12.8547 70.5473
12.8996 72.1471
12.9445 73.1462
12.9894 74.9225
13.0343 76.8632
13.0792 81.4999
13.1242 95.7796
13.1691 117.79
13.214 158.439
13.2589 254.146
13.3038 376.954
13.3487 420.977
13.3937 248.366
13.4386 121.233
13.4835 110.78
13.5285 126.92
13.5734 168.189
13.6183 255.917
13.6633 351.687
13.7082 328.504
13.7531 179.897
13.7981 96.6387
13.843 82.1823
13.888 80.1949
13.9329 77.8864
13.9779 76.3281
14.0228 74.88
14.0678 73.816
14.1127 73.1939
14.1577 72.6381
14.2027 71.7208
14.2476 70.9371
14.2926 70.7597
14.3376 70.904
14.3825 70.1833
14.4275 69.2894
14.4725 69.1897
14.5175 69.5139
14.5624 69.6309
14.6074 70.4539
14.6524 71.4531
14.6974 71.3273
14.7424 75.1852
14.7874 81.8573
14.8324 93.1344
14.8774 116.63
14.9224 159.511
14.9674 209.774
15.0124 213.896
15.0574 144.209
15.1024 88.5198
15.1474 72.3399
15.1924 70.5838
15.2374 70.1264
15.2824 69.3962
15.3274 67.8622
15.3725 67.3696
15.4175 66.9556
15.4625 66.4334
15.5076 66.365
15.5526 66.4455
15.5976 66.4087
15.6426 69.4309
15.6877 75.3093
15.7327 82.8759
15.7778 99.419
15.8228 131.17
15.8679 172.926
15.9129 192.231
15.958 150.024
16.003 92.7045
16.0481 66.9735
16.0931 63.6143
16.1382 61.9934
16.1833 60.8822
16.2283 59.2967
16.2734 58.6067
16.3185 58.2449
16.3636 58.1441
16.4086 57.0947
16.4537 56.4746
16.4988 55.8789
16.5439 55.6497
16.589 55.5393
16.6341 55.0262
16.6792 54.8209
16.7243 55.0535
16.7694 55.1751
16.8145 55.1835
16.8596 55.3261
16.9047 55.9647
16.9498 56.1403
16.9949 55.7958
17.04 56.7616
17.0851 58.014
17.1302 59.3887
17.1754 62.7053
17.2205 68.0777
17.2656 75.304
17.3108 82.3342
17.3559 81.6605
17.401 70.8738
17.4462 62.2709
17.4913 59.6566
17.5365 59.6195
17.5815 59.75
17.6268 60.1072
17.6718 60.9176
17.7171 61.259
17.7622 61.9524
17.8074 63.0364
17.8525 66.2609
17.8977 70.031
17.9428 75.4519
17.9881 85.3904
18.0331 103.113
18.0784 123.776
18.1237 141.963
18.1688 131.821
18.214 102.489
18.2591 87.2769
18.3044 92.2525
18.3495 101.47
18.3948 105.91
18.4399 95.0261
18.4852 76.494
18.5303 65.9083
18.5756 62.415
18.6207 61.6088
18.666 60.8564
18.7112 59.9864
18.7565 59.4205
18.8016 59.1932
18.8469 58.6061
18.892 58.2237
18.9374 57.5811
18.9825 57.2687
19.0278 57.0478
19.073 57.5466
19.1183 57.9565
19.1635 58.4353
19.2088 60.1951
19.254 63.148
19.2993 67.4679
19.3447 73.0032
19.3898 76.0515
19.4352 72.0028
19.4804 62.8806
19.5257 56.7938
19.5709 54.4705
19.6163 54.1632
19.6615 54.0332
19.7068 53.699
19.752 53.8259
19.7974 54.1532
19.8426 54.8957
19.888 55.6734
19.9332 56.9298
19.9786 59.7299
20.0238 63.5396
20.0692 68.1767
20.1144 70.2275
20.1598 68.0879
20.205 63.4826
20.2504 62.5642
20.2957 64.1804
20.3411 65.7871
20.3863 63.7913
20.4318 58.2583
20.477 53.5739
20.5224 51.5295
20.5677 50.8777
20.6131 50.561
20.6586 49.8758
20.7038 49.8116
20.7493 49.3084
20.7945 49.302
20.84 49.0006
20.8853 49.0666
20.9307 48.973
20.976 49.2464
21.0215 49.0973
21.0668 49.1865
21.1122 49.9275
21.1575 50.5754
21.203 51.1117
21.2483 51.7093
21.2938 51.717
21.3391 50.415
21.3846 49.2708
21.4299 48.8635
21.4754 48.6536
21.5207 49.0263
21.5662 49.4789
21.6116 49.8506
21.6571 50.4952
21.7024 51.6078
21.7479 53.335
21.7933 56.2208
21.8388 59.6293
21.8843 63.2994
21.9297 65.0716
21.9752 63.3213
22.0206 59.563
22.0661 56.6381
22.1115 56.5156
22.157 56.2025
22.2024 54.3783
22.248 51.6182
22.2933 49.979
22.3389 49.4587
22.3843 49.2958
22.4299 48.9554
22.4753 49.0444
22.5208 49.0128
22.5662 48.8204
22.6118 49.0774
22.6572 49.3836
22.7028 49.6849
22.7483 50.1612
22.7939 51.0549
22.8393 52.6804
22.8849 54.774
22.9303 56.6769
22.9759 58.1473
23.0214 57.611
23.067 54.197
23.1126 51.1379
23.1581 49.469
23.2037 49.2248
23.2492 49.5567
23.2948 49.3386
23.3403 49.6047
23.3859 50.3687
23.4314 51.4101
23.477 53.2424
23.5225 55.4024
23.5682 57.2725
23.6137 58.1869
23.6593 55.5022
23.7048 51.3615
23.7505 48.2534
23.796 46.8598
23.8417 46.3032
23.8872 45.8457
23.9329 45.5273
23.9784 45.1146
24.0241 45.0428
24.0697 44.7391
24.1154 44.3172
24.1609 44.1695
24.2066 44.2329
24.2522 44.0432
24.2979 43.6521
24.3434 43.5706
24.3892 43.4204
24.4349 43.5091
24.4805 43.2331
24.5262 43.4484
24.5718 43.1661
24.6175 43.1143
24.6631 42.9782
24.7089 42.8381
24.7545 42.5655
24.8002 42.5937
24.8458 42.5324
24.8916 42.3957
24.9372 42.5199
24.983 42.9581
25.0286 43.1829
25.0744 43.8327
25.12 44.07
25.1658 44.599
25.2114 44.9954
25.2572 45.1072
25.3029 45.0307
25.3487 45.0945
25.3943 44.8317
25.4402 43.6973
25.4858 42.6088
25.5316 41.606
25.5773 41.1671
25.6231 41.1511
25.669 40.8665
25.7147 40.8026
25.7605 40.6268
25.8062 40.8346
25.8521 40.9287
25.8977 40.8471
25.9436 41.2208
25.9893 41.3297
26.0352 41.7692
26.0809 41.9246
26.1268 42.0398
26.1725 41.6334
26.2184 41.0202
26.2641 40.5848
26.31 40.4818
26.3557 40.4573
26.4017 40.4661
26.4474 40.5713
26.4933 41.0507
26.5391 41.5079
26.585 41.9377
26.6308 42.4326
26.6767 42.4306
26.7225 42.3395
26.7684 41.6991
26.8142 41.0954
26.8601 40.6021
26.9059 40.2244
26.9519 39.6143
26.9979 39.4977
27.0437 39.1529
27.0896 38.9568
27.1354 39.1194
27.1814 38.8482
27.2272 38.7956
27.2732 38.9139
27.3191 38.6097
27.3651 38.8263
27.4109 38.7117
27.4569 38.836
27.5027 38.7949
27.5488 38.8887
27.5946 38.7071
27.6407 38.4785
27.6865 38.2901
27.7326 38.1664
27.7784 38.1079
27.8245 38.1622
27.8703 38.1627
27.9164 38.5086
27.9623 38.6572
28.0084 39.109
28.0543 39.3388
28.1003 39.2562
28.1462 38.9662
28.1923 38.7268
28.2384 38.1571
28.2843 37.759
28.3304 37.3734
28.3764 36.9598
28.4225 36.6003
28.4684 36.4726
28.5145 36.2538
28.5605 36.1132
28.6066 35.8715
28.6526 35.9675
28.6987 35.7477
28.7447 35.8676
28.7908 35.6956
28.8368 35.6562
28.8829 35.6136
28.9289 35.6167
28.9751 35.4254
29.0211 35.1596
29.0673 34.7251
29.1133 34.811
29.1595 34.6758
29.2055 34.516
29.2517 34.5457
29.2977 34.5305
29.3439 34.4653
29.3899 34.4312
29.4361 34.3583
29.4824 34.0658
29.5284 33.9469
29.5746 33.5676
29.6207 33.267
29.6669 33.2662
29.713 33.1992
29.7593 33.1327
29.8053 33.1333
29.8516 32.9821
29.8977 32.9517
29.9439 32.7525
29.99 32.7483
30.0363 32.6831
30.0824 32.8502
30.1287 32.518
30.1748 32.7046
30.2211 32.7062
30.2673 32.5624
30.3136 32.5978
30.3597 32.4774
30.406 32.3671
30.4522 32.323
30.4985 32.2856
30.5447 32.4122
30.591 32.3225
30.6372 32.4106
30.6835 32.3958
30.7297 32.3041
30.7761 32.2882
30.8224 32.1357
30.8686 32.0209
30.915 31.7713
30.9612 31.6977
31.0076 31.5518
31.0538 31.3932
31.1002 31.3699
31.1464 31.1372
31.1928 31.1849
31.2391 31.1408
31.2855 31.0409
31.3317 31.1594
31.3781 31.1105
31.4244 31.0814
31.4708 31.0062
31.5171 31.0253
31.5636 30.9221
31.6098 30.6844
31.6563 30.5355
31.7026 30.4365
31.7491 30.3159
31.7953 30.3923
31.8418 30.3047
31.8881 30.3912
31.9346 30.4049
31.9809 30.1995
32.0275 30.1193
32.074 30.0096
32.1203 29.8664
32.1668 29.7453
32.2132 29.5671
32.2597 29.3804
32.306 29.3436
32.3526 29.2145
32.399 29.1493
32.4455 28.8656
32.4919 28.8354
32.5385 28.8872
32.5848 28.6738
32.6314 28.6769
32.6778 28.6645
32.7244 28.3815
32.7708 28.3075
32.8174 28.4072
32.8638 28.1752
32.9104 28.2308
32.9569 28.2168
33.0035 28.0798
33.0499 28.044
33.0966 27.956
33.143 27.9671
33.1897 27.9226
33.2361 27.7722
33.2828 27.8655
33.3293 27.6054
33.3759 27.5032
33.4226 27.3746
33.4691 27.252
33.5158 27.1726
33.5623 27.0315
33.609 26.9487
33.6555 26.8888
33.7022 26.8498
33.7487 26.6705
33.7954 26.6932
33.842 26.5497
33.8887 26.5228
33.9353 26.3727
33.982 26.285
34.0286 26.1852
34.0753 26.1587
34.1219 26.0857
34.1687 26.0049
34.2152 25.9614
34.262 25.7807
34.3086 25.6679
34.3554 25.6682
34.402 25.5779
34.4488 25.4303
34.4954 25.3849
34.5422 25.2826
34.5889 25.2255
34.6357 25.1352
34.6825 25.1367
34.7292 25.0448
34.776 24.9247
34.8227 24.8594
34.8695 24.7529
34.9162 24.7564
34.9631 24.6691
35.0098 24.6803
35.0566 24.6137
35.1033 24.4296
35.1502 24.4793
35.1969 24.3355
35.2438 24.2599
35.2906 24.3025
35.3375 24.1555
35.3842 24.1308
35.4311 24.1022
35.4779 24.0647
35.5248 24.0623
35.5716 23.9278
35.6185 23.8216
35.6653 23.8067
35.7123 23.6779
35.759 23.6657
35.806 23.427
35.8528 23.3335
35.8998 23.3804
35.9468 23.2284
35.9936 23.2537
36.0406 23.1358
36.0874 23.1044
36.1345 23.1243
36.1813 23.0037
36.2283 22.8708
36.2752 22.8457
36.3222 22.819
36.3691 22.6789
36.4161 22.5269
36.463 22.63
36.5101 22.642
36.557 22.474
36.6041 22.3682
36.651 22.2799
36.6981 22.2708
36.745 22.2891
36.7921 22.0526
36.839 21.9749
36.8861 21.9077
36.9331 21.8854
36.9802 21.7784
37.0272 21.6844
37.0743 21.5608
37.1213 21.6089
37.1684 21.6289
37.2154 21.4613
37.2626 21.3774
37.3098 21.2799
37.3568 21.3072
37.404 21.2521
37.451 21.0977
37.4982 21.0192
37.5452 20.9336
37.5924 20.9375
37.6395 21.0278
37.6867 20.8094
37.7337 20.6756
37.781 20.6566
37.8281 20.6044
37.8753 20.5352
37.9224 20.4284
37.9697 20.3865
38.0168 20.2851
38.064 20.2684
38.1111 20.2105
38.1584 20.1549
38.2056 20.1072
38.2529 20.0628
38.3 19.97
38.3473 19.9218
38.3945 19.8222
38.4418 19.7806
38.489 19.8074
38.5363 19.6543
38.5837 19.5462
38.6309 19.4782
38.6782 19.4352
38.7254 19.3326
38.7728 19.3332
38.82 19.2512
38.8674 19.1986
38.9146 19.1161
38.9621 19.0639
39.0093 19.1001
39.0567 18.9408
39.104 18.8606
39.1514 18.7659
39.1987 18.8016
39.2461 18.7704
39.2934 18.7176
39.3409 18.5867
39.3882 18.5185
39.4356 18.4374
39.483 18.3963
39.5304 18.3811
39.5778 18.313
39.6253 18.2895
39.6726 18.1898
39.7201 18.1453
39.7675 18.0593
39.815 18.0411
39.8624 17.9766
39.9099 17.9182
39.9575 17.8822
40.0049 17.8269
40.0525 17.7533
40.0999 17.6688
40.1474 17.6351
40.1949 17.5938
40.2425 17.4764
40.2899 17.4874
40.3375 17.387
40.385 17.2983
40.4326 17.3218
40.48 17.2095
40.5277 17.2438
40.5752 17.1445
40.6228 17.0264
40.6703 16.9983
40.718 16.9556
40.7655 16.9276
40.8132 16.8304
40.8607 16.8149
40.9084 16.7424
40.9559 16.688
41.0036 16.6689
41.0512 16.6403
41.0989 16.55
41.1465 16.4488
41.1942 16.4646
41.242 16.3707
41.2896 16.3538
41.3373 16.3279
41.3849 16.2332
41.4327 16.148
41.4803 16.0965
41.5281 16.0761
41.5758 15.9539
41.6236 15.9479
41.6712 15.8887
41.7191 15.8569
41.7667 15.7885
41.8146 15.7634
41.8622 15.6762
41.9101 15.6106
41.9578 15.5292
42.0057 15.4967
42.0534 15.4748
42.1013 15.4379
42.149 15.3928
42.1969 15.2789
42.2446 15.2766
42.2925 15.1993
42.3403 15.179
42.3882 15.1176
42.436 15.0628
42.4839 15.024
42.5319 14.9171
42.5797 14.8839
42.6277 14.8615
42.6755 14.8214
42.7235 14.7158
42.7713 14.7012
42.8193 14.6957
42.8671 14.6224
42.9152 14.5658
42.963 14.4761
43.0111 14.4584
43.0589 14.4538
43.107 14.3425
43.1549 14.3239
43.2029 14.2581
43.2508 14.1699
43.2989 14.1093
43.3468 14.0729
43.3949 14.0695
43.4429 13.9752
43.491 13.9597
43.5389 13.9165
43.5871 13.8437
43.635 13.7982
43.6832 13.7949
43.7312 13.6963
43.7793 13.6858
43.8273 13.6182
43.8755 13.5719
43.9237 13.5202
43.9717 13.4797
44.0199 13.4133
44.068 13.4027
44.1162 13.3375
44.1642 13.3314
44.2125 13.2484
44.2606 13.1953
44.3088 13.1591
44.3569 13.1283
44.4052 13.051
44.4533 13.0589
44.5016 12.9459
44.5497 12.9204
44.598 12.8916
44.6461 12.865
44.6945 12.8011
44.7426 12.7643
44.791 12.6594
44.8391 12.6598
44.8875 12.6401
44.9357 12.5674
44.984 12.5269
45.0322 12.4646
45.0806 12.411
45.1288 12.4007
45.1773 12.334
45.2257 12.3098
45.2739 12.2364
45.3224 12.2115
45.3706 12.1894
45.4191 12.1406
45.4673 12.1115
45.5158 12.0869
45.5641 11.9787
45.6126 11.9678
45.6609 11.909
45.7094 11.8983
45.7577 11.8511
45.8063 11.7763
45.8546 11.7303
45.9031 11.7126
45.9515 11.6771
46.0001 11.6544
46.0484 11.6343
46.097 11.5402
46.1454 11.525
46.194 11.4864
46.2424 11.4478
46.291 11.3904
46.3395 11.3439
46.3881 11.2809
46.4365 11.2398
46.4852 11.2209
46.5337 11.1907
46.5823 11.1282
46.631 11.0751
46.6795 11.0772
46.7282 11.0158
46.7767 10.9922
46.8254 10.9235
46.8739 10.8738
46.9226 10.8268
46.9712 10.8049
47.0199 10.7291
47.0685 10.7
47.1173 10.6866
47.1658 10.6391
47.2146 10.5543
47.2632 10.5601
47.312 10.5432
47.3606 10.4843
47.4095 10.4361
47.4581 10.4249
47.5069 10.3648
47.5556 10.345
47.6044 10.2622
47.6531 10.2419
47.702 10.2052
47.7507 10.1931
47.7996 10.1255
47.8483 10.0876
47.8972 10.0799
47.9461 10.0212
47.9948 9.98139
48.0438 9.98281
48.0925 9.96988
48.1415 9.89949
48.1902 9.83722
48.2392 9.85641
48.288 9.78354
48.337 9.797
48.3858 9.71306
48.4348 9.70433
48.4837 9.67472
48.5327 9.63471
48.5815 9.56765
48.6306 9.56449
48.6795 9.49747
48.7285 9.46754
48.7774 9.43468
48.8265 9.40771
48.8754 9.40388
48.9245 9.33831
48.9734 9.30229
49.0226 9.22266
49.0715 9.3038
49.1206 9.20281
49.1696 9.16265
49.2188 9.09125
49.2679 9.08474
49.3169 9.05302
49.3661 8.98161
49.4151 8.94755
49.4643 8.95754
49.5134 8.93776
49.5626 8.86969
49.6117 8.88708
49.6609 8.81878
49.71 8.74592
49.7592 8.74153
49.8083 8.70207
49.8576 8.70737
49.9067 8.6327
49.956 8.60039
50.0052 8.57236
50.0545 8.57006
50.1036 8.48687
50.153 8.47421
50.2022 8.43375
50.2515 8.4102
50.3007 8.3562
50.3501 8.33927
50.3993 8.325
50.4487 8.29199
50.498 8.24062
50.5474 8.20595
50.5966 8.19575
50.6461 8.14218
50.6955 8.16186
50.7448 8.09204
50.7943 8.04999
50.8436 8.04408
50.8931 7.99404
50.9424 7.98523
50.9919 7.93287
51.0413 7.92274
51.0908 7.88497
51.1402 7.8507
51.1897 7.80397
51.2391 7.80023
51.2887 7.72303
51.3381 7.72532
51.3877 7.70118
51.4371 7.66589
51.4867 7.62257
51.5362 7.60716
51.5858 7.55395
51.6353 7.49318
51.6849 7.47259
51.7344 7.49048
51.7841 7.42515
51.8336 7.38449
51.8833 7.38898
51.9328 7.32237
51.9826 7.2796
52.0323 7.27959
52.0818 7.26452
52.1316 7.20888
52.1812 7.17425
52.231 7.17341
52.2806 7.12065
52.3304 7.14233
52.38 7.05288
52.4298 7.08418
52.4794 6.99912
52.5293 6.99266
52.5789 6.9423
52.6288 6.89884
52.6785 6.88631
52.7284 6.89269
52.7781 6.85622
52.828 6.83269
52.8777 6.80002
52.9276 6.75644
52.9774 6.74007
53.0273 6.69237
53.0771 6.64814
53.1271 6.65077
53.1769 6.61266
53.2269 6.58738
53.2767 6.55606
53.3267 6.51991
53.3765 6.52294
53.4266 6.48962
53.4766 6.43366
53.5265 6.37321
53.5765 6.39606
53.6264 6.39438
53.6765 6.35027
53.7264 6.29261
53.7765 6.27714
53.8265 6.22721
53.8766 6.2076
53.9266 6.20026
53.9767 6.18211
54.0267 6.15776
54.0769 6.15457
54.1269 6.07047
54.1771 6.06581
54.2271 6.02675
54.2773 5.97964
54.3274 5.98164
54.3776 5.92369
54.4277 5.90552
54.478 5.84108
54.528 5.80795
54.5783 5.80468
54.6285 5.74824
54.6788 5.68255
54.7289 5.68008
54.7792 5.64345
54.8296 5.55166
54.8798 5.55528
54.9301 5.5554
54.9803 5.52818
55.0307 5.46689
55.0809 5.35576
55.1314 5.40939
55.1816 5.34491
55.232 5.2763
55.2823 5.2123
55.3328 5.18597
55.383 5.16512
55.4335 5.07017
55.4838 5.00578
55.5344 5.00049
55.5847 4.95479
55.6352 4.93807
55.6856 4.83332
55.7361 4.8716