File: XRD/Ni3Fe_FD0163.xy
TT I
1.27165 8.20759
1.31627 7.51888
1.36089 7.18023
1.40551 6.10287
1.45013 6.51482
1.49476 6.11642
1.53938 5.58596
1.584 5.96053
1.62863 5.66718
1.67325 5.67643
1.71787 5.09602
1.7625 5.07626
1.80712 4.92077
1.85174 4.93921
1.89636 5.09027
1.94099 5.31694
1.98562 5.40846
2.03025 5.35446
2.07487 4.47852
2.11949 4.77889
2.16411 4.69181
2.20874 4.44024
2.25338 4.2625
2.298 4.84016
2.34263 3.54697
2.38725 4.59488
2.43188 4.18192
2.4765 5.17702
2.52115 4.61393
2.56577 4.80685
2.6104 5.66789
2.65503 5.19821
2.69965 5.6293
2.7443 6.05639
2.78893 6.39959
2.83356 7.28377
2.87818 7.77539
2.92281 8.64516
2.96744 9.37391
3.01209 11.0289
3.05672 11.4497
3.10135 12.4159
3.14599 13.2328
3.19062 14.3829
3.23527 15.1843
3.2799 15.8706
3.32454 16.7053
3.36917 17.2085
3.4138 18.5659
3.45844 19.5964
3.50309 20.26
3.54773 21.133
3.59237 22.1628
3.637 22.6872
3.68164 23.3151
3.7263 24.5862
3.77094 25.2123
3.81558 25.9105
3.86022 27.161
3.90486 28.2388
3.9495 28.7928
3.99416 29.4957
4.0388 30.6829
4.08344 32.0036
4.12809 33.4693
4.17273 34.0486
4.21738 35.6753
4.26204 36.5378
4.30669 37.6176
4.35133 39.8985
4.39598 41.1229
4.44063 43.0501
4.4853 45.1646
4.52995 47.6197
4.5746 49.4254
4.61925 51.7781
4.6639 54.4033
4.70855 57.069
4.75322 59.4903
4.79788 63.2284
4.84253 66.3918
4.88719 70.8721
4.93184 75.627
4.97652 82.098
5.02118 91.1109
5.06583 101.203
5.11049 117.115
5.15515 153.571
5.19981 538.184
5.24449 3782.68
5.28916 8470.58
5.33382 6187.39
5.37848 421.614
5.42315 160.974
5.46783 127.222
5.5125 113.759
5.55716 107.54
5.60183 101.92
5.6465 99.0775
5.69117 97.5222
5.73586 95.5963
5.78053 95.002
5.8252 95.7685
5.86988 98.3138
5.91455 104.906
5.95924 123.717
6.00392 284.971
6.0486 1379.12
6.09328 2780.94
6.13795 4049.72
6.18263 686.189
6.22733 121.418
6.27201 89.2657
6.3167 78.3122
6.36138 72.5171
6.40606 68.6875
6.45075 66.3316
6.49545 64.4866
6.54014 62.9871
6.58483 61.4281
6.62952 60.1716
6.67421 58.5433
6.71892 57.6221
6.76361 56.9781
6.8083 55.6858
6.853 55.1243
6.89769 54.8756
6.94239 54.3397
6.98711 53.4798
7.03181 53.3338
7.07651 53.1952
7.12121 52.6125
7.16591 52.6456
7.21063 52.3111
7.25533 52.1831
7.30004 52.4292
7.34475 52.2993
7.38945 52.6122
7.43416 51.9487
7.47889 52.1983
7.5236 55.9264
7.56831 62.9642
7.61303 55.3408
7.65774 53.5237
7.70247 54.0391
7.74719 54.6771
7.79191 55.2064
7.83663 55.5312
7.88135 56.5513
7.92607 57.2674
7.97081 58.476
8.01553 59.559
8.06026 60.7041
8.10498 61.9912
8.14971 63.9544
8.19446 65.4828
8.23919 68.1984
8.28392 71.0491
8.32865 73.746
8.37339 78.2932
8.41812 83.6475
8.46288 95.5017
8.50761 172.098
8.55235 597.952
8.59709 903.942
8.64183 1521.64
8.68658 1620.12
8.73134 385.371
8.77609 115.879
8.82083 97.2777
8.86558 91.1192
8.91033 88.1492
8.9551 85.4492
8.99985 84.0871
9.04461 83.0424
9.08936 82.2163
9.13412 81.71
9.17888 81.4058
9.22365 87.119
9.26841 96.2888
9.31318 86.7065
9.35794 82.719
9.4027 82.3349
9.44749 83.4771
9.49226 83.7334
9.53703 84.4684
9.5818 86.4348
9.62657 87.5083
9.67134 89.1372
9.71614 91.1831
9.76091 93.173
9.80569 95.8928
9.85047 99.0904
9.89525 104.039
9.94005 113.834
9.98484 185.344
10.0296 541.869
10.0744 745.525
10.1192 1061.94
10.164 1698.6
10.2088 968.064
10.2536 210.42
10.2984 116.441
10.3432 107.536
10.388 104.636
10.4328 121.383
10.4776 214.147
10.5224 264.108
10.5672 338.378
10.612 500.997
10.6568 377.29
10.7017 137.619
10.7465 91.0819
10.7913 83.6553
10.8361 80.9825
10.8809 78.2249
10.9257 76.1017
10.9706 74.6089
11.0154 73.129
11.0602 71.7994
11.105 70.4572
11.1499 68.6765
11.1947 68.2273
11.2395 67.0011
11.2844 66.3934
11.3292 65.2469
11.374 64.7447
11.4189 64.3935
11.4637 63.6842
11.5086 63.0313
11.5534 62.5535
11.5983 62.2286
11.6431 62.3758
11.688 61.8332
11.7328 61.5754
11.7777 61.372
11.8225 61.4703
11.8674 61.7256
11.9122 62.5989
11.9571 65.771
12.002 65.3366
12.0468 67.6169
12.0917 90.3834
12.1366 108.561
12.1814 119.483
12.2263 152.927
12.2712 193.799
12.3161 138.701
12.3609 74.9684
12.4058 64.2044
12.4507 63.5551
12.4956 63.2801
12.5405 63.2081
12.5853 63.9085
12.6302 63.8382
12.6751 64.6386
12.72 65.5414
12.7649 66.4609
12.8098 67.236
12.8547 68.6358
12.8996 70.0486
12.9445 71.2506
12.9894 73.5808
13.0343 75.3427
13.0792 79.5355
13.1242 86.5425
13.1691 132.761
13.214 186.602
13.2589 207.584
13.3038 250.408
13.3487 353.719
13.3937 378.189
13.4386 206.802
13.4835 118.756
13.5285 154.302
13.5734 182.666
13.6183 195.305
13.6633 243.675
13.7082 334.195
13.7531 305.189
13.7981 153.444
13.843 88.3679
13.888 80.9903
13.9329 77.6069
13.9779 76.2783
14.0228 74.5202
14.0678 73.2232
14.1127 72.6448
14.1577 74.0835
14.2027 72.6822
14.2476 70.5132
14.2926 69.6641
14.3376 69.2846
14.3825 68.6952
14.4275 68.2915
14.4725 68.4967
14.5175 68.824
14.5624 68.7047
14.6074 68.7612
14.6524 69.4427
14.6974 70.0745
14.7424 71.5785
14.7874 80.6609
14.8324 106.768
14.8774 121.188
14.9224 128.811
14.9674 151.293
15.0124 195.045
15.0574 204.344
15.1024 137.662
15.1474 81.7388
15.1924 71.5207
15.2374 69.3278
15.2824 68.1651
15.3274 66.9229
15.3725 66.6795
15.4175 66.4576
15.4625 65.8798
15.5076 65.4328
15.5526 65.5676
15.5976 65.9371
15.6426 66.6509
15.6877 73.947
15.7327 95.0909
15.7778 107.547
15.8228 112.017
15.8679 126.338
15.9129 157.373
15.958 185.997
16.003 149.472
16.0481 87.2506
16.0931 65.9562
16.1382 61.9935
16.1833 60.5725
16.2283 59.1416
16.2734 58.3948
16.3185 57.4609
16.3636 56.8349
16.4086 56.171
16.4537 55.9431
16.4988 55.093
16.5439 55.291
16.589 54.9378
16.6341 54.5927
16.6792 54.1984
16.7243 54.3358
16.7694 54.4019
16.8145 54.3102
16.8596 54.5086
16.9047 54.9004
16.9498 55.2785
16.9949 55.129
17.04 55.4838
17.0851 56.9771
17.1302 60.9003
17.1754 64.2198
17.2205 65.6285
17.2656 67.758
17.3108 73.1026
17.3559 80.2186
17.401 80.9283
17.4462 71.2455
17.4913 61.7086
17.5365 59.4155
17.5815 59.1988
17.6268 59.6594
17.6718 60.1163
17.7171 60.3644
17.7622 61.5073
17.8074 62.4109
17.8525 63.9868
17.8977 72.2173
17.9428 83.8843
17.9881 89.0002
18.0331 91.7182
18.0784 99.5457
18.1237 116.371
18.1688 141.782
18.214 141.465
18.2591 109.992
18.3044 88.772
18.3495 87.3848
18.3948 96.1565
18.4399 103.901
18.4852 94.8746
18.5303 75.9638
18.5756 64.9927
18.6207 62.2931
18.666 61.2882
18.7112 60.1498
18.7565 59.3777
18.8016 59.0828
18.8469 58.4333
18.892 58.1335
18.9374 57.5859
18.9825 57.1871
19.0278 57.0857
19.073 56.871
19.1183 57.3857
19.1635 59.7456
19.2088 61.9276
19.254 62.6332
19.2993 63.6938
19.3447 65.7607
19.3898 69.8066
19.4352 74.2321
19.4804 72.2896
19.5257 63.3676
19.5709 56.3014
19.6163 54.364
19.6615 53.9465
19.7068 53.4708
19.752 53.5104
19.7974 53.686
19.8426 54.8374
19.888 57.0156
19.9332 58.4268
19.9786 58.8015
20.0238 59.6058
20.0692 62.3806
20.1144 67.6784
20.1598 72.7332
20.205 71.0203
20.2504 65.4392
20.2957 61.3927
20.3411 62.1614
20.3863 65.1741
20.4318 64.5403
20.477 59.1982
20.5224 53.3925
20.5677 51.0541
20.6131 50.687
20.6586 50.0817
20.7038 49.7339
20.7493 49.5645
20.7945 49.3927
20.84 49.1023
20.8853 49.1326
20.9307 48.7637
20.976 49.0603
21.0215 49.1486
21.0668 49.5449
21.1122 49.6911
21.1575 49.7129
21.203 49.9027
21.2483 50.5919
21.2938 51.5843
21.3391 51.6334
21.3846 50.6158
21.4299 49.465
21.4754 48.8789
21.5207 48.8885
21.5662 49.1241
21.6116 49.6564
21.6571 51.4859
21.7024 53.1954
21.7479 54.453
21.7933 54.5728
21.8388 56.0669
21.8843 58.9745
21.9297 62.6231
21.9752 66.256
22.0206 66.0053
22.0661 60.732
22.1115 56.3674
22.157 55.8198
22.2024 56.658
22.248 55.1574
22.2933 52.613
22.3389 50.0727
22.3843 49.4048
22.4299 48.8771
22.4753 48.8214
22.5208 49.0034
22.5662 49.048
22.6118 49.1296
22.6572 49.3287
22.7028 50.3278
22.7483 51.5311
22.7939 52.0823
22.8393 52.4115
22.8849 52.9938
22.9303 53.6753
22.9759 55.363
23.0214 57.454
23.067 58.5523
23.1126 56.1122
23.1581 52.3462
23.2037 49.9479
23.2492 49.3368
23.2948 49.8466
23.3403 51.1275
23.3859 51.8805
23.4314 52.0176
23.477 52.1483
23.5225 52.7291
23.5682 53.9845
23.6137 56.1174
23.6593 58.1769
23.7048 57.2555
23.7505 53.1853
23.796 49.2549
23.8417 47.0545
23.8872 46.226
23.9329 45.7967
23.9784 45.4337
24.0241 45.1887
24.0697 44.9577
24.1154 44.4196
24.1609 44.2381
24.2066 44.2252
24.2522 44.1331
24.2979 43.7863
24.3434 43.7168
24.3892 43.4982
24.4349 43.3336
24.4805 43.0855
24.5262 43.4132
24.5718 43.0745
24.6175 43.1212
24.6631 43.2573
24.7089 43.1002
24.7545 42.8347
24.8002 42.7212
24.8458 42.6174
24.8916 42.611
24.9372 42.9214
24.983 42.9442
25.0286 43.334
25.0744 43.7378
25.12 44.1314
25.1658 44.508
25.2114 44.9891
25.2572 45.2819
25.3029 45.1562
25.3487 45.0518
25.3943 45.101
25.4402 45.1945
25.4858 44.6802
25.5316 43.2816
25.5773 41.8408
25.6231 41.5343
25.669 40.9351
25.7147 40.9823
25.7605 40.9091
25.8062 41.0866
25.8521 41.1998
25.8977 41.1974
25.9436 41.2022
25.9893 41.1555
26.0352 41.329
26.0809 41.3462
26.1268 41.8199
26.1725 42.2694
26.2184 42.1905
26.2641 41.4786
26.31 41.0883
26.3557 40.9675
26.4017 40.8676
26.4474 40.9787
26.4933 41.0535
26.5391 41.4066
26.585 41.611
26.6308 41.9719
26.6767 42.3212
26.7225 42.8336
26.7684 42.8585
26.8142 42.2675
26.8601 41.5593
26.9059 41.0459
26.9519 40.4616
26.9979 40.249
27.0437 39.5531
27.0896 39.4235
27.1354 39.2937
27.1814 39.1628
27.2272 39.2822
27.2732 39.0157
27.3191 38.9546
27.3651 38.9638
27.4109 38.7737
27.4569 38.9436
27.5027 38.8649
27.5488 38.9577
27.5946 38.9197
27.6407 39.043
27.6865 38.9464
27.7326 38.7653
27.7784 38.7018
27.8245 38.5101
27.8703 38.6152
27.9164 38.7689
27.9623 38.6939
28.0084 38.9211
28.0543 39.2066
28.1003 39.2669
28.1462 39.6089
28.1923 39.5458
28.2384 38.9235
28.2843 38.6543
28.3304 38.1412
28.3764 37.824
28.4225 37.2922
28.4684 36.9282
28.5145 36.4878
28.5605 36.2544
28.6066 36.1331
28.6526 36.0758
28.6987 36.1985
28.7447 35.8958
28.7908 35.8302
28.8368 35.8178
28.8829 35.7463
28.9289 35.6709
28.9751 35.6098
29.0211 35.5243
29.0673 35.3247
29.1133 35.2088
29.1595 34.9584
29.2055 34.7623
29.2517 34.617
29.2977 34.5103
29.3439 34.5626
29.3899 34.5213
29.4361 34.4847
29.4824 34.3667
29.5284 34.3047
29.5746 34.0388
29.6207 33.6852
29.6669 33.5261
29.713 33.4427
29.7593 33.1144
29.8053 33.1962
29.8516 33.1256
29.8977 33.0637
29.9439 33.0255
29.99 32.9813
30.0363 32.7454
30.0824 32.9935
30.1287 32.7169
30.1748 32.6366
30.2211 32.7458
30.2673 32.6566
30.3136 32.8076
30.3597 32.685
30.406 32.7985
30.4522 32.5646
30.4985 32.4734
30.5447 32.472
30.591 32.4399
30.6372 32.5153
30.6835 32.4116
30.7297 32.5463
30.7761 32.713
30.8224 32.5833
30.8686 32.4837
30.915 32.3407
30.9612 32.0528
31.0076 31.8562
31.0538 31.6432
31.1002 31.5494
31.1464 31.4885
31.1928 31.3605
31.2391 31.5074
31.2855 31.3108
31.3317 31.22
31.3781 31.2638
31.4244 31.148
31.4708 31.1451
31.5171 31.0972
31.5636 31.2417
31.6098 31.0689
31.6563 30.9276
31.7026 30.8621
31.7491 30.6032
31.7953 30.5474
31.8418 30.5922
31.8881 30.3997
31.9346 30.4697
31.9809 30.3697
32.0275 30.4033
32.074 30.3668
32.1203 30.1234
32.1668 30.0624
32.2132 29.962
32.2597 29.6052
32.306 29.6128
32.3526 29.3634
32.399 29.3075
32.4455 29.2258
32.4919 29.0163
32.5385 28.9928
32.5848 28.9332
32.6314 28.8721
32.6778 28.7857
32.7244 28.6811
32.7708 28.5105
32.8174 28.5211
32.8638 28.35
32.9104 28.5485
32.9569 28.3811
33.0035 28.1521
33.0499 28.1314
33.0966 28.0951
33.143 28.0739
33.1897 27.9103
33.2361 27.9562
33.2828 27.8929
33.3293 27.7591
33.3759 27.7723
33.4226 27.6323
33.4691 27.6021
33.5158 27.5228
33.5623 27.3106
33.609 27.1387
33.6555 26.957
33.7022 26.8585
33.7487 26.7606
33.7954 26.8079
33.842 26.7342
33.8887 26.6348
33.9353 26.5429
33.982 26.4464
34.0286 26.4348
34.0753 26.3572
34.1219 26.2343
34.1687 26.1184
34.2152 26.0992
34.262 25.9493
34.3086 25.7941
34.3554 25.8397
34.402 25.7445
34.4488 25.7037
34.4954 25.6148
34.5422 25.4812
34.5889 25.3153
34.6357 25.2196
34.6825 25.2306
34.7292 25.049
34.776 25.0371
34.8227 24.9547
34.8695 24.9703
34.9162 24.8122
34.9631 24.833
35.0098 24.7864
35.0566 24.6404
35.1033 24.6436
35.1502 24.5599
35.1969 24.5059
35.2438 24.4448
35.2906 24.3358
35.3375 24.4122
35.3842 24.2508
35.4311 24.2868
35.4779 24.2298
35.5248 24.0865
35.5716 24.0583
35.6185 24.0011
35.6653 23.9256
35.7123 23.844
35.759 23.7271
35.806 23.6977
35.8528 23.5135
35.8998 23.4574
35.9468 23.4254
35.9936 23.4125
36.0406 23.2271
36.0874 23.197
36.1345 23.1817
36.1813 23.1393
36.2283 23.0605
36.2752 22.9868
36.3222 23.0123
36.3691 22.8473
36.4161 22.7829
36.463 22.7706
36.5101 22.6486
36.557 22.5484
36.6041 22.446
36.651 22.4691
36.6981 22.3813
36.745 22.3602
36.7921 22.2998
36.839 22.1358
36.8861 22.0845
36.9331 21.9565
36.9802 21.979
37.0272 21.8022
37.0743 21.7765
37.1213 21.697
37.1684 21.5695
37.2154 21.5781
37.2626 21.4726
37.3098 21.4668
37.3568 21.3744
37.404 21.3789
37.451 21.2466
37.4982 21.2132
37.5452 21.1239
37.5924 21.0266
37.6395 21.0879
37.6867 20.8909
37.7337 20.9009
37.781 20.8248
37.8281 20.7288
37.8753 20.6409
37.9224 20.626
37.9697 20.525
38.0168 20.3879
38.064 20.4152
38.1111 20.3688
38.1584 20.2351
38.2056 20.2202
38.2529 20.1444
38.3 19.9891
38.3473 20.0291
38.3945 19.8941
38.4418 19.883
38.489 19.8857
38.5363 19.734
38.5837 19.6108
38.6309 19.7089
38.6782 19.5493
38.7254 19.5431
38.7728 19.4949
38.82 19.3167
38.8674 19.3134
38.9146 19.284
38.9621 19.2051
39.0093 19.1195
39.0567 19.0848
39.104 18.9922
39.1514 18.9522
39.1987 18.9277
39.2461 18.8918
39.2934 18.7462
39.3409 18.7001
39.3882 18.5894
39.4356 18.6022
39.483 18.5964
39.5304 18.4178
39.5778 18.3929
39.6253 18.3927
39.6726 18.2922
39.7201 18.2456
39.7675 18.1417
39.815 18.1903
39.8624 18.0369
39.9099 18.0435
39.9575 17.9283
40.0049 17.9116
40.0525 17.7907
40.0999 17.7968
40.1474 17.7357
40.1949 17.59
40.2425 17.5818
40.2899 17.5845
40.3375 17.4957
40.385 17.4472
40.4326 17.3732
40.48 17.3161
40.5277 17.3236
40.5752 17.2737
40.6228 17.1324
40.6703 17.107
40.718 17.0131
40.7655 17.0358
40.8132 17.0014
40.8607 16.9679
40.9084 16.9215
40.9559 16.832
41.0036 16.8036
41.0512 16.6654
41.0989 16.6394
41.1465 16.5178
41.1942 16.4744
41.242 16.3706
41.2896 16.3605
41.3373 16.3724
41.3849 16.2458
41.4327 16.2311
41.4803 16.1474
41.5281 16.1448
41.5758 16.1076
41.6236 16.0071
41.6712 16.0198
41.7191 15.9185
41.7667 15.8693
41.8146 15.8249
41.8622 15.7738
41.9101 15.6859
41.9578 15.6247
42.0057 15.615
42.0534 15.5034
42.1013 15.5292
42.149 15.4785
42.1969 15.4217
42.2446 15.342
42.2925 15.2792
42.3403 15.2569
42.3882 15.1867
42.436 15.1335
42.4839 15.0967
42.5319 15.0217
42.5797 15.0272
42.6277 14.9524
42.6755 14.8774
42.7235 14.8705
42.7713 14.7909
42.8193 14.742
42.8671 14.6454
42.9152 14.6419
42.963 14.6055
43.0111 14.5186
43.0589 14.4917
43.107 14.4121
43.1549 14.4066
43.2029 14.3349
43.2508 14.3062
43.2989 14.1862
43.3468 14.1767
43.3949 14.1434
43.4429 14.0816
43.491 14.0018
43.5389 13.9735
43.5871 13.9537
43.635 13.8992
43.6832 13.8704
43.7312 13.757
43.7793 13.7656
43.8273 13.7235
43.8755 13.6389
43.9237 13.6012
43.9717 13.5697
44.0199 13.5487
44.068 13.4336
44.1162 13.4602
44.1642 13.3942
44.2125 13.3695
44.2606 13.2607
44.3088 13.2599
44.3569 13.2283
44.4052 13.1511
44.4533 13.1138
44.5016 13.0058
44.5497 13.0092
44.598 12.9706
44.6461 12.895
44.6945 12.8672
44.7426 12.8078
44.791 12.78
44.8391 12.757
44.8875 12.7073
44.9357 12.6319
44.984 12.6213
45.0322 12.5812
45.0806 12.4677
45.1288 12.4634
45.1773 12.4698
45.2257 12.4002
45.2739 12.3269
45.3224 12.2398
45.3706 12.2812
45.4191 12.1902
45.4673 12.1602
45.5158 12.1076
45.5641 12.1016
45.6126 12.0324
45.6609 12.0027
45.7094 11.9556
45.7577 11.8927
45.8063 11.9015
45.8546 11.8132
45.9031 11.8164
45.9515 11.7042
46.0001 11.6906
46.0484 11.6807
46.097 11.6299
46.1454 11.5797
46.194 11.5215
46.2424 11.4582
46.291 11.4429
46.3395 11.3982
46.3881 11.3258
46.4365 11.3275
46.4852 11.2944
46.5337 11.2222
46.5823 11.2272
46.631 11.1542
46.6795 11.0988
46.7282 11.0602
46.7767 10.9933
46.8254 10.9824
46.8739 10.9393
46.9226 10.9163
46.9712 10.8826
47.0199 10.8075
47.0685 10.8197
47.1173 10.7336
47.1658 10.6833
47.2146 10.6808
47.2632 10.6339
47.312 10.6201
47.3606 10.5462
47.4095 10.5018
47.4581 10.4927
47.5069 10.403
47.5556 10.3769
47.6044 10.3686
47.6531 10.3141
47.702 10.2595
47.7507 10.2669
47.7996 10.1917
47.8483 10.1387
47.8972 10.1565
47.9461 10.0994
47.9948 10.0801
48.0438 9.99584
48.0925 9.99223
48.1415 9.97555
48.1902 9.8961
48.2392 9.92733
48.288 9.83098
48.337 9.79849
48.3858 9.78774
48.4348 9.76019
48.4837 9.74359
48.5327 9.68127
48.5815 9.62226
48.6306 9.59831
48.6795 9.57473
48.7285 9.54381
48.7774 9.5541
48.8265 9.52482
48.8754 9.45686
48.9245 9.40974
48.9734 9.35963
49.0226 9.34371
49.0715 9.27936
49.1206 9.2399
49.1696 9.17292
49.2188 9.17811
49.2679 9.15098
49.3169 9.07761
49.3661 9.08465
49.4151 9.05704
49.4643 9.01266
49.5134 8.99183
49.5626 8.92996
49.6117 8.88588
49.6609 8.88953
49.71 8.84621
49.7592 8.80195
49.8083 8.77661
49.8576 8.7285
49.9067 8.71513
49.956 8.65882
50.0052 8.65112
50.0545 8.60248
50.1036 8.56882
50.153 8.51262
50.2022 8.51802
50.2515 8.4739
50.3007 8.38697
50.3501 8.37726
50.3993 8.39861
50.4487 8.36883
50.498 8.29993
50.5474 8.28476
50.5966 8.24423
50.6461 8.17963
50.6955 8.17449
50.7448 8.16575
50.7943 8.13645
50.8436 8.106
50.8931 8.1049
50.9424 8.02733
50.9919 7.98908
51.0413 7.97382
51.0908 7.93017
51.1402 7.90829
51.1897 7.85053
51.2391 7.84845
51.2887 7.78615
51.3381 7.73817
51.3877 7.79128
51.4371 7.68254
51.4867 7.64608
51.5362 7.62731
51.5858 7.61252
51.6353 7.57918
51.6849 7.54007
51.7344 7.51027
51.7841 7.52912
51.8336 7.43364
51.8833 7.425
51.9328 7.39116
51.9826 7.33264
52.0323 7.32314
52.0818 7.30427
52.1316 7.25892
52.1812 7.25358
52.231 7.23172
52.2806 7.1348
52.3304 7.14494
52.38 7.15077
52.4298 7.09546
52.4794 7.06406
52.5293 7.0128
52.5789 7.01874
52.6288 7.00891
52.6785 6.93706
52.7284 6.92736
52.7781 6.91333
52.828 6.83421
52.8777 6.80622
52.9276 6.79292
52.9774 6.80173
53.0273 6.74779
53.0771 6.72814
53.1271 6.71188
53.1769 6.63807
53.2269 6.66309
53.2767 6.59721
53.3267 6.58999
53.3765 6.55176
53.4266 6.56551
53.4766 6.4911
53.5265 6.4558
53.5765 6.42756
53.6264 6.38153
53.6765 6.38923
53.7264 6.34394
53.7765 6.34112
53.8265 6.26257
53.8766 6.23548
53.9266 6.26895
53.9767 6.22817
54.0267 6.18553
54.0769 6.15929
54.1269 6.12172
54.1771 6.04444
54.2271 6.08186
54.2773 5.99429
54.3274 5.98456
54.3776 5.91283
54.4277 5.91006
54.478 5.89763
54.528 5.83094
54.5783 5.7877
54.6285 5.72931
54.6788 5.7166
54.7289 5.65223
54.7792 5.60613
54.8296 5.5481
54.8798 5.51462
54.9301 5.44093
54.9803 5.45896
55.0307 5.43802
55.0809 5.34318
55.1314 5.34668
55.1816 5.25666
55.232 5.19406
55.2823 5.15342
55.3328 5.134
55.383 5.04745
55.4335 5.02158
55.4838 4.98303
55.5344 4.9314
55.5847 4.9
55.6352 4.86287
55.6856 4.85059
55.7361 4.79918