File: XRD/Ni3Fe_FD0266.xy
TT I
1.27165 7.72227
1.31627 7.14366
1.36089 7.67649
1.40551 6.69124
1.45013 6.4495
1.49476 7.07469
1.53938 6.2796
1.584 5.91072
1.62863 5.04621
1.67325 6.06101
1.71787 5.7081
1.7625 4.89901
1.80712 5.33971
1.85174 4.40908
1.89636 5.07042
1.94099 4.89157
1.98562 4.64746
2.03025 5.02659
2.07487 5.07936
2.11949 5.09523
2.16411 4.63394
2.20874 11.7944
2.25338 17.4765
2.298 5.03373
2.34263 5.10717
2.38725 5.81596
2.43188 5.0063
2.4765 5.522
2.52115 6.00185
2.56577 5.9278
2.6104 6.43019
2.65503 6.51842
2.69965 6.28936
2.7443 7.15135
2.78893 6.44801
2.83356 7.75397
2.87818 8.43614
2.92281 8.34194
2.96744 9.61389
3.01209 10.5013
3.05672 11.3181
3.10135 12.4568
3.14599 12.595
3.19062 13.8228
3.23527 14.8833
3.2799 15.9554
3.32454 17.0569
3.36917 18.1367
3.4138 19.2101
3.45844 20.325
3.50309 21.0767
3.54773 22.1811
3.59237 24.3003
3.637 73.7847
3.68164 50.0914
3.7263 25.9957
3.77094 26.6253
3.81558 27.5689
3.86022 28.446
3.90486 29.5725
3.9495 30.4129
3.99416 31.4437
4.0388 32.7703
4.08344 34.6739
4.12809 35.462
4.17273 37.6098
4.21738 43.3466
4.26204 192.473
4.30669 169.489
4.35133 48.5905
4.39598 45.6918
4.44063 53.4347
4.4853 62.3869
4.52995 53.6807
4.5746 53.8876
4.61925 55.8457
4.6639 57.8141
4.70855 60.3627
4.75322 63.846
4.79788 67.0917
4.84253 70.4318
4.88719 75.3915
4.93184 79.5034
4.97652 85.9463
5.02118 93.6228
5.06583 103.211
5.11049 118.74
5.15515 186.602
5.19981 549.611
5.24449 3550.96
5.28916 10697.9
5.33382 4261.6
5.37848 267.466
5.42315 150.154
5.46783 127.28
5.5125 115.893
5.55716 109.964
5.60183 105.459
5.6465 102.913
5.69117 100.985
5.73586 98.9813
5.78053 99.2758
5.8252 99.6306
5.86988 101.133
5.91455 104.668
5.95924 117.856
6.00392 283.73
6.0486 1234.2
6.09328 3713.65
6.13795 3632.18
6.18263 365.097
6.22733 108.196
6.27201 90.0386
6.3167 100.31
6.36138 82.4936
6.40606 73.3381
6.45075 71.1965
6.49545 68.5644
6.54014 66.7582
6.58483 65.7954
6.62952 65.4913
6.67421 86.9136
6.71892 123.251
6.76361 68.486
6.8083 61.1343
6.853 60.3341
6.89769 58.7589
6.94239 58.5491
6.98711 58.0957
7.03181 57.6823
7.07651 57.2281
7.12121 57.303
7.16591 57.8596
7.21063 57.4934
7.25533 67.8938
7.30004 147.61
7.34475 84.4464
7.38945 58.1615
7.43416 56.2295
7.47889 56.0804
7.5236 56.7187
7.56831 57.772
7.61303 58.6158
7.65774 58.6469
7.70247 58.6978
7.74719 58.3565
7.79191 59.0039
7.83663 59.2651
7.88135 59.7146
7.92607 60.9377
7.97081 62.4739
8.01553 63.5666
8.06026 64.9916
8.10498 66.9462
8.14971 74.4432
8.19446 74.2059
8.23919 72.8755
8.28392 75.4234
8.32865 78.059
8.37339 82.708
8.41812 89.9679
8.46288 116.539
8.50761 198.791
8.55235 498.149
8.59709 1102.41
8.64183 2002.88
8.68658 1238.69
8.73134 231.214
8.77609 110.14
8.82083 99.4467
8.86558 95.5685
8.91033 94.4444
8.9551 94.6637
8.99985 89.1057
9.04461 87.75
9.08936 87.2283
9.13412 86.0492
9.17888 85.9061
9.22365 86.3001
9.26841 85.9586
9.31318 87.3987
9.35794 86.8711
9.4027 87.3666
9.44749 88.3299
9.49226 88.7657
9.53703 89.4851
9.5818 92.1577
9.62657 96.3889
9.67134 100.904
9.71614 98.0059
9.76091 98.8371
9.80569 101.647
9.85047 105.592
9.89525 124.505
9.94005 138.604
9.98484 209.414
10.0296 442.509
10.0744 799.533
10.1192 1477.34
10.164 1714.2
10.2088 604.097
10.2536 153.454
10.2984 120.606
10.3432 119.152
10.388 111.415
10.4328 131.246
10.4776 189.956
10.5224 281.206
10.5672 456.024
10.612 539.431
10.6568 265.967
10.7017 109.609
10.7465 91.8123
10.7913 87.8133
10.8361 84.6005
10.8809 82.8081
10.9257 81.7014
10.9706 81.504
11.0154 77.786
11.0602 75.9592
11.105 75.1325
11.1499 77.6863
11.1947 82.9368
11.2395 75.6942
11.2844 72.9134
11.3292 70.1719
11.374 69.0392
11.4189 68.1653
11.4637 67.6408
11.5086 68.1033
11.5534 69.7065
11.5983 67.9687
11.6431 66.4967
11.688 65.6978
11.7328 65.8831
11.7777 65.5673
11.8225 65.2335
11.8674 65.191
11.9122 65.7628
11.9571 65.7587
12.002 66.9134
12.0468 72.3883
12.0917 88.6348
12.1366 108.574
12.1814 144.563
12.2263 192.276
12.2712 187.112
12.3161 113.276
12.3609 74.4609
12.4058 67.5817
12.4507 67.3956
12.4956 67.4341
12.5405 67.594
12.5853 68.2099
12.6302 73.6831
12.6751 78.0045
12.72 72.1838
12.7649 70.6467
12.8098 71.3174
12.8547 72.964
12.8996 74.1143
12.9445 75.8509
12.9894 77.6803
13.0343 79.3378
13.0792 82.8436
13.1242 94.8404
13.1691 128.147
13.214 167.842
13.2589 230.241
13.3038 330.749
13.3487 421.289
13.3937 319.056
13.4386 150.734
13.4835 117.362
13.5285 139.719
13.5734 170.265
13.6183 230.597
13.6633 314.416
13.7082 355.7
13.7531 233.777
13.7981 114.582
13.843 86.9592
13.888 83.5044
13.9329 80.9223
13.9779 79.7226
14.0228 77.616
14.0678 76.445
14.1127 75.8475
14.1577 75.4606
14.2027 74.7128
14.2476 73.5773
14.2926 73.5389
14.3376 74.4165
14.3825 73.2923
14.4275 71.7941
14.4725 71.7816
14.5175 72.1462
14.5624 72.2182
14.6074 73.6388
14.6524 74.4015
14.6974 73.7796
14.7424 75.8621
14.7874 85.3168
14.8324 100.324
14.8774 116.951
14.9224 146.329
14.9674 190.107
15.0124 218.408
15.0574 176.669
15.1024 106.398
15.1474 77.7111
15.1924 74.0083
15.2374 73.94
15.2824 73.1257
15.3274 70.9973
15.3725 69.6482
15.4175 69.5402
15.4625 69.0926
15.5076 69.4548
15.5526 69.3287
15.5976 68.7884
15.6426 70.4286
15.6877 77.8558
15.7327 89.1695
15.7778 101.511
15.8228 122.659
15.8679 155.834
15.9129 188.263
15.958 175.313
16.003 115.429
16.0481 74.6165
16.0931 67.6859
16.1382 65.2529
16.1833 63.3477
16.2283 61.6338
16.2734 60.9952
16.3185 61.0133
16.3636 61.4012
16.4086 60.0257
16.4537 58.7682
16.4988 57.9108
16.5439 57.9727
16.589 57.6637
16.6341 57.3503
16.6792 56.9421
16.7243 57.4314
16.7694 57.2784
16.8145 57.0791
16.8596 57.5917
16.9047 58.7177
16.9498 58.7782
16.9949 58.0818
17.04 58.5063
17.0851 59.9382
17.1302 62.3933
17.1754 65.1124
17.2205 68.6491
17.2656 74.4463
17.3108 82.3002
17.3559 85.4522
17.401 77.5986
17.4462 67.3275
17.4913 62.3132
17.5365 61.6217
17.5815 61.9383
17.6268 62.0363
17.6718 63.0388
17.7171 63.4756
17.7622 64.0577
17.8074 64.689
17.8525 67.5323
17.8977 73.4203
17.9428 80.5083
17.9881 86.9042
18.0331 98.6601
18.0784 115.542
18.1237 135.809
18.1688 141.782
18.214 119.377
18.2591 94.5593
18.3044 91.1584
18.3495 98.0013
18.3948 106.446
18.4399 102.9
18.4852 85.5275
18.5303 70.8616
18.5756 65.4824
18.6207 64.2667
18.666 63.0661
18.7112 62.4139
18.7565 61.6235
18.8016 61.3793
18.8469 60.8521
18.892 60.4173
18.9374 59.8611
18.9825 59.7117
19.0278 59.5502
19.073 59.6529
19.1183 60.3226
19.1635 61.4552
19.2088 62.8053
19.254 64.3735
19.2993 67.5838
19.3447 72.1807
19.3898 76.9338
19.4352 76.372
19.4804 68.8768
19.5257 60.9321
19.5709 57.0214
19.6163 56.4059
19.6615 56.2539
19.7068 55.7411
19.752 55.665
19.7974 56.1648
19.8426 57.3756
19.888 58.2281
19.9332 59.406
19.9786 61.053
20.0238 63.4178
20.0692 67.7736
20.1144 71.9403
20.1598 72.5182
20.205 68.246
20.2504 64.7094
20.2957 64.7964
20.3411 66.6202
20.3863 67.0799
20.4318 62.5774
20.477 57.1547
20.5224 54.0766
20.5677 53.1566
20.6131 52.696
20.6586 51.9456
20.7038 51.8614
20.7493 51.2645
20.7945 51.1206
20.84 51.0327
20.8853 50.8615
20.9307 50.6805
20.976 50.9295
21.0215 50.9242
21.0668 51.2917
21.1122 51.462
21.1575 51.8686
21.203 52.5102
21.2483 53.2431
21.2938 53.7579
21.3391 52.6992
21.3846 51.6103
21.4299 50.8297
21.4754 50.6144
21.5207 50.8159
21.5662 51.1052
21.6116 51.6521
21.6571 52.5749
21.7024 53.8155
21.7479 55.0939
21.7933 56.963
21.8388 59.867
21.8843 63.1866
21.9297 66.1563
21.9752 66.8152
22.0206 63.4748
22.0661 59.3661
22.1115 57.9131
22.157 57.8678
22.2024 57.379
22.248 54.6587
22.2933 52.5105
22.3389 51.2775
22.3843 51.1015
22.4299 51.1141
22.4753 51.0363
22.5208 50.904
22.5662 50.7375
22.6118 50.9125
22.6572 51.0354
22.7028 51.7273
22.7483 52.2419
22.7939 52.9517
22.8393 53.6913
22.8849 55.3323
22.9303 56.9581
22.9759 58.8446
23.0214 59.7753
23.067 57.9356
23.1126 54.5269
23.1581 51.8863
23.2037 51.1357
23.2492 51.2116
23.2948 51.2811
23.3403 51.8346
23.3859 52.1995
23.4314 52.898
23.477 54.2049
23.5225 55.71
23.5682 57.5519
23.6137 59.5471
23.6593 58.7534
23.7048 55.2362
23.7505 51.4569
23.796 49.0396
23.8417 48.2319
23.8872 47.4745
23.9329 47.2748
23.9784 46.8571
24.0241 46.5201
24.0697 46.503
24.1154 46.2136
24.1609 45.9496
24.2066 45.7781
24.2522 45.5355
24.2979 45.348
24.3434 45.2418
24.3892 45.0013
24.4349 45.1081
24.4805 44.7629
24.5262 44.9565
24.5718 44.8049
24.6175 44.7301
24.6631 44.6595
24.7089 44.3701
24.7545 44.2275
24.8002 43.9542
24.8458 43.9951
24.8916 43.9465
24.9372 44.2106
24.983 44.3955
25.0286 44.7008
25.0744 45.065
25.12 45.2768
25.1658 46.0336
25.2114 46.4552
25.2572 46.4307
25.3029 46.4563
25.3487 46.3224
25.3943 46.3031
25.4402 45.7768
25.4858 44.7568
25.5316 43.4716
25.5773 42.8391
25.6231 42.759
25.669 42.4252
25.7147 42.3218
25.7605 42.154
25.8062 42.2145
25.8521 42.5055
25.8977 42.4808
25.9436 42.4754
25.9893 42.3832
26.0352 42.971
26.0809 43.048
26.1268 43.3668
26.1725 43.2991
26.2184 42.7919
26.2641 42.3152
26.31 41.9728
26.3557 41.8982
26.4017 41.8597
26.4474 42.2
26.4933 42.4516
26.5391 42.7539
26.585 43.2046
26.6308 43.4799
26.6767 43.6271
26.7225 43.8108
26.7684 43.3308
26.8142 42.6624
26.8601 42.1631
26.9059 41.8915
26.9519 41.3155
26.9979 40.9502
27.0437 40.672
27.0896 40.4672
27.1354 40.6023
27.1814 40.2446
27.2272 40.2985
27.2732 40.2753
27.3191 40.1126
27.3651 40.0598
27.4109 40.1427
27.4569 40.2271
27.5027 40.0997
27.5488 40.0699
27.5946 40.0357
27.6407 39.8577
27.6865 39.6412
27.7326 39.6096
27.7784 39.5738
27.8245 39.42
27.8703 39.6428
27.9164 39.7738
27.9623 39.9194
28.0084 40.1202
28.0543 40.5518
28.1003 40.5495
28.1462 40.5213
28.1923 40.1781
28.2384 39.583
28.2843 39.3676
28.3304 38.8399
28.3764 38.2907
28.4225 38.15
28.4684 37.9009
28.5145 37.4868
28.5605 37.4348
28.6066 37.134
28.6526 37.1666
28.6987 37.2351
28.7447 36.8873
28.7908 36.9437
28.8368 36.9505
28.8829 36.8856
28.9289 36.8112
28.9751 36.6178
29.0211 36.495
29.0673 36.2669
29.1133 36.2291
29.1595 35.8406
29.2055 35.8106
29.2517 35.8738
29.2977 35.7255
29.3439 35.6453
29.3899 35.6547
29.4361 35.4921
29.4824 35.3567
29.5284 35.3396
29.5746 35.0054
29.6207 34.6315
29.6669 34.5089
29.713 34.4312
29.7593 34.2715
29.8053 34.3092
29.8516 34.1865
29.8977 34.2291
29.9439 33.9893
29.99 34.0236
30.0363 33.8838
30.0824 33.9753
30.1287 33.8807
30.1748 33.8233
30.2211 33.7793
30.2673 33.6705
30.3136 33.7788
30.3597 33.7074
30.406 33.6748
30.4522 33.4568
30.4985 33.397
30.5447 33.5009
30.591 33.3439
30.6372 33.5322
30.6835 33.4358
30.7297 33.5915
30.7761 33.5051
30.8224 33.4605
30.8686 33.255
30.915 33.0104
30.9612 32.8882
31.0076 32.7005
31.0538 32.6068
31.1002 32.5035
31.1464 32.3089
31.1928 32.3257
31.2391 32.3499
31.2855 32.2351
31.3317 32.1874
31.3781 32.2502
31.4244 32.1478
31.4708 31.9834
31.5171 32.0319
31.5636 32.0462
31.6098 31.8915
31.6563 31.6671
31.7026 31.5737
31.7491 31.4842
31.7953 31.4898
31.8418 31.4923
31.8881 31.4105
31.9346 31.2696
31.9809 31.2424
32.0275 31.1638
32.074 31.1532
32.1203 31.0216
32.1668 30.8332
32.2132 30.707
32.2597 30.5725
32.306 30.471
32.3526 30.2117
32.399 30.2392
32.4455 30.0365
32.4919 29.9755
32.5385 29.9409
32.5848 29.7737
32.6314 29.7231
32.6778 29.6379
32.7244 29.5445
32.7708 29.3293
32.8174 29.3992
32.8638 29.2875
32.9104 29.2809
32.9569 29.1509
33.0035 29.0746
33.0499 29.0597
33.0966 28.9415
33.143 28.9807
33.1897 28.8756
33.2361 28.791
33.2828 28.7805
33.3293 28.6462
33.3759 28.5483
33.4226 28.4047
33.4691 28.2913
33.5158 28.2994
33.5623 28.1014
33.609 27.8166
33.6555 27.8705
33.7022 27.7007
33.7487 27.7054
33.7954 27.6792
33.842 27.5759
33.8887 27.5118
33.9353 27.4228
33.982 27.3093
34.0286 27.1528
34.0753 27.1314
34.1219 27.0327
34.1687 27.046
34.2152 26.8207
34.262 26.7463
34.3086 26.6623
34.3554 26.6641
34.402 26.4246
34.4488 26.5183
34.4954 26.3355
34.5422 26.3053
34.5889 26.155
34.6357 26.0489
34.6825 25.9442
34.7292 25.8944
34.776 25.7825
34.8227 25.8095
34.8695 25.6847
34.9162 25.6866
34.9631 25.5335
35.0098 25.5423
35.0566 25.4282
35.1033 25.4277
35.1502 25.3186
35.1969 25.1697
35.2438 25.1429
35.2906 25.1701
35.3375 25.1355
35.3842 24.8912
35.4311 25.0007
35.4779 24.9062
35.5248 24.8957
35.5716 24.7118
35.6185 24.7023
35.6653 24.6511
35.7123 24.6247
35.759 24.4106
35.806 24.3654
35.8528 24.2413
35.8998 24.2332
35.9468 24.0044
35.9936 24.0384
36.0406 24.0231
36.0874 24.0077
36.1345 23.884
36.1813 23.7152
36.2283 23.7131
36.2752 23.6672
36.3222 23.6035
36.3691 23.5984
36.4161 23.3212
36.463 23.4266
36.5101 23.4472
36.557 23.257
36.6041 23.1344
36.651 23.1171
36.6981 23.0843
36.745 23.0048
36.7921 22.9643
36.839 22.8592
36.8861 22.7712
36.9331 22.7314
36.9802 22.5695
37.0272 22.5609
37.0743 22.381
37.1213 22.3971
37.1684 22.2552
37.2154 22.2899
37.2626 22.2215
37.3098 22.1293
37.3568 22.0633
37.404 22.0455
37.451 21.8947
37.4982 21.8042
37.5452 21.7325
37.5924 21.7125
37.6395 21.721
37.6867 21.6118
37.7337 21.4759
37.781 21.438
37.8281 21.3948
37.8753 21.2279
37.9224 21.2102
37.9697 21.1337
38.0168 21.0951
38.064 21.0432
38.1111 21.0401
38.1584 20.9012
38.2056 20.7697
38.2529 20.789
38.3 20.7074
38.3473 20.6651
38.3945 20.4975
38.4418 20.5178
38.489 20.3874
38.5363 20.3204
38.5837 20.2723
38.6309 20.1664
38.6782 20.168
38.7254 20.0718
38.7728 20.0182
38.82 19.9839
38.8674 19.8975
38.9146 19.8606
38.9621 19.8675
39.0093 19.7634
39.0567 19.7292
39.104 19.5877
39.1514 19.5205
39.1987 19.4944
39.2461 19.3817
39.2934 19.3676
39.3409 19.2854
39.3882 19.2517
39.4356 19.1437
39.483 19.1638
39.5304 19.0618
39.5778 19.0425
39.6253 18.9518
39.6726 18.8611
39.7201 18.9
39.7675 18.8431
39.815 18.7608
39.8624 18.5913
39.9099 18.4996
39.9575 18.5156
40.0049 18.4771
40.0525 18.4313
40.0999 18.4392
40.1474 18.2837
40.1949 18.2207
40.2425 18.102
40.2899 18.1184
40.3375 18.0578
40.385 17.9882
40.4326 17.9039
40.48 17.8283
40.5277 17.8399
40.5752 17.7553
40.6228 17.7441
40.6703 17.7064
40.718 17.6263
40.7655 17.5443
40.8132 17.378
40.8607 17.3897
40.9084 17.4516
40.9559 17.328
41.0036 17.304
41.0512 17.2186
41.0989 17.2486
41.1465 17.1245
41.1942 17.0773
41.242 16.9736
41.2896 16.945
41.3373 16.8797
41.3849 16.8061
41.4327 16.7779
41.4803 16.6723
41.5281 16.6901
41.5758 16.5333
41.6236 16.5676
41.6712 16.4604
41.7191 16.4396
41.7667 16.3145
41.8146 16.333
41.8622 16.2715
41.9101 16.2336
41.9578 16.1238
42.0057 16.0604
42.0534 16.0103
42.1013 16.0211
42.149 15.944
42.1969 15.9222
42.2446 15.8742
42.2925 15.7875
42.3403 15.6935
42.3882 15.7035
42.436 15.6424
42.4839 15.5466
42.5319 15.5175
42.5797 15.4355
42.6277 15.3892
42.6755 15.3602
42.7235 15.2901
42.7713 15.2458
42.8193 15.231
42.8671 15.1356
42.9152 15.118
42.963 15.0428
43.0111 14.9627
43.0589 14.948
43.107 14.9
43.1549 14.804
43.2029 14.7652
43.2508 14.6923
43.2989 14.6378
43.3468 14.6008
43.3949 14.5713
43.4429 14.5382
43.491 14.4837
43.5389 14.4401
43.5871 14.4094
43.635 14.3557
43.6832 14.2814
43.7312 14.2226
43.7793 14.189
43.8273 14.146
43.8755 14.037
43.9237 14.0231
43.9717 14.0651
44.0199 13.9243
44.068 13.8974
44.1162 13.84
44.1642 13.8
44.2125 13.7865
44.2606 13.7202
44.3088 13.6365
44.3569 13.6009
44.4052 13.5442
44.4533 13.537
44.5016 13.4556
44.5497 13.3757
44.598 13.3285
44.6461 13.3136
44.6945 13.2702
44.7426 13.2057
44.791 13.1653
44.8391 13.15
44.8875 13.0997
44.9357 13.0638
44.984 12.9825
45.0322 12.9481
45.0806 12.8889
45.1288 12.8176
45.1773 12.7819
45.2257 12.8179
45.2739 12.7493
45.3224 12.699
45.3706 12.6132
45.4191 12.5336
45.4673 12.5175
45.5158 12.5079
45.5641 12.4485
45.6126 12.3856
45.6609 12.3382
45.7094 12.276
45.7577 12.2461
45.8063 12.1967
45.8546 12.2103
45.9031 12.0831
45.9515 12.0974
46.0001 12.0386
46.0484 12.0067
46.097 11.9354
46.1454 11.9236
46.194 11.8844
46.2424 11.7811
46.291 11.7826
46.3395 11.7793
46.3881 11.6842
46.4365 11.6816
46.4852 11.6171
46.5337 11.5792
46.5823 11.5542
46.631 11.5042
46.6795 11.4344
46.7282 11.4317
46.7767 11.3805
46.8254 11.3055
46.8739 11.3023
46.9226 11.2442
46.9712 11.1806
47.0199 11.1446
47.0685 11.0896
47.1173 11.0691
47.1658 11.0247
47.2146 11.0481
47.2632 11.0021
47.312 10.8827
47.3606 10.8477
47.4095 10.7845
47.4581 10.7846
47.5069 10.786
47.5556 10.7441
47.6044 10.6753
47.6531 10.6099
47.702 10.5631
47.7507 10.5352
47.7996 10.4972
47.8483 10.4955
47.8972 10.4406
47.9461 10.3963
47.9948 10.339
48.0438 10.2996
48.0925 10.3066
48.1415 10.2175
48.1902 10.197
48.2392 10.1689
48.288 10.13
48.337 10.1288
48.3858 10.0465
48.4348 10.0582
48.4837 10.0524
48.5327 9.98817
48.5815 9.93641
48.6306 9.89895
48.6795 9.85495
48.7285 9.80026
48.7774 9.77698
48.8265 9.80256
48.8754 9.69402
48.9245 9.69846
48.9734 9.6411
49.0226 9.61855
49.0715 9.59643
49.1206 9.53185
49.1696 9.47226
49.2188 9.43047
49.2679 9.38383
49.3169 9.3731
49.3661 9.35247
49.4151 9.30445
49.4643 9.26534
49.5134 9.24924
49.5626 9.16845
49.6117 9.20564
49.6609 9.15116
49.71 9.10603
49.7592 9.05581
49.8083 9.0448
49.8576 8.97759
49.9067 8.94403
49.956 8.8864
50.0052 8.86942
50.0545 8.87749
50.1036 8.81309
50.153 8.77611
50.2022 8.7843
50.2515 8.75772
50.3007 8.6822
50.3501 8.62521
50.3993 8.6541
50.4487 8.58831
50.498 8.56159
50.5474 8.52116
50.5966 8.44784
50.6461 8.45173
50.6955 8.43518
50.7448 8.38002
50.7943 8.35492
50.8436 8.32679
50.8931 8.30346
50.9424 8.25018
50.9919 8.22858
51.0413 8.19768
51.0908 8.15445
51.1402 8.14574
51.1897 8.11361
51.2391 8.10622
51.2887 8.03513
51.3381 7.99289
51.3877 7.96925
51.4371 7.90661
51.4867 7.85349
51.5362 7.86513
51.5858 7.81206
51.6353 7.77253
51.6849 7.74376
51.7344 7.70087
51.7841 7.69133
51.8336 7.66882
51.8833 7.64992
51.9328 7.60709
51.9826 7.56983
52.0323 7.54074
52.0818 7.51328
52.1316 7.43759
52.1812 7.46176
52.231 7.41712
52.2806 7.36949
52.3304 7.33684
52.38 7.29237
52.4298 7.29076
52.4794 7.25332
52.5293 7.23
52.5789 7.23447
52.6288 7.20714
52.6785 7.12302
52.7284 7.10461
52.7781 7.09197
52.828 7.05509
52.8777 7.01143
52.9276 6.98017
52.9774 6.96736
53.0273 6.92377
53.0771 6.90864
53.1271 6.85534
53.1769 6.83115
53.2269 6.80556
53.2767 6.7735
53.3267 6.71558
53.3765 6.7576
53.4266 6.72395
53.4766 6.63868
53.5265 6.65506
53.5765 6.61574
53.6264 6.62311
53.6765 6.60045
53.7264 6.47642
53.7765 6.48898
53.8265 6.46507
53.8766 6.42934
53.9266 6.36897
53.9767 6.38239
54.0267 6.35173
54.0769 6.30441
54.1269 6.30823
54.1771 6.2677
54.2271 6.1959
54.2773 6.20882
54.3274 6.18186
54.3776 6.13016
54.4277 6.15528
54.478 6.10493
54.528 5.96993
54.5783 5.94198
54.6285 5.94414
54.6788 5.91721
54.7289 5.84307
54.7792 5.79703
54.8296 5.73319
54.8798 5.70716
54.9301 5.67198
54.9803 5.64866
55.0307 5.62026
55.0809 5.55704
55.1314 5.552
55.1816 5.45537
55.232 5.42245
55.2823 5.36662
55.3328 5.3265
55.383 5.28167
55.4335 5.27871
55.4838 5.15701
55.5344 5.13297
55.5847 5.03556
55.6352 5.06602
55.6856 5.05479
55.7361 5.02551