File: XRD/Ni3Fe_FD0385.xy
TT I
1.27165 7.20354
1.31627 6.82055
1.36089 6.46928
1.40551 6.74257
1.45013 6.36705
1.49476 6.09905
1.53938 5.59273
1.584 5.26534
1.62863 4.97801
1.67325 5.42691
1.71787 5.45567
1.7625 4.88902
1.80712 5.30228
1.85174 5.2919
1.89636 4.80585
1.94099 4.72905
1.98562 4.67827
2.03025 4.56483
2.07487 4.50939
2.11949 4.90834
2.16411 4.42118
2.20874 13.8536
2.25338 21.7849
2.298 5.27811
2.34263 4.4171
2.38725 5.58313
2.43188 5.25357
2.4765 6.80167
2.52115 6.21468
2.56577 7.12927
2.6104 7.69888
2.65503 7.38649
2.69965 7.16883
2.7443 7.86561
2.78893 7.91517
2.83356 7.64847
2.87818 8.52805
2.92281 9.00909
2.96744 8.96013
3.01209 10.6326
3.05672 11.2467
3.10135 12.4239
3.14599 13.2276
3.19062 13.5848
3.23527 15.017
3.2799 16.3131
3.32454 17.2317
3.36917 17.766
3.4138 19.0356
3.45844 19.869
3.50309 21.2927
3.54773 21.9262
3.59237 24.5259
3.637 89.577
3.68164 57.3303
3.7263 26.6485
3.77094 26.5526
3.81558 26.7551
3.86022 27.8554
3.90486 28.8958
3.9495 29.9639
3.99416 31.3725
4.0388 32.5688
4.08344 34.2914
4.12809 35.4022
4.17273 37.8242
4.21738 44.0023
4.26204 242.883
4.30669 207.856
4.35133 49.7335
4.39598 45.4208
4.44063 54.4898
4.4853 65.6766
4.52995 52.9222
4.5746 52.9108
4.61925 54.2025
4.6639 56.6518
4.70855 59.3696
4.75322 62.7304
4.79788 65.9895
4.84253 69.4541
4.88719 73.5456
4.93184 77.8151
4.97652 83.3861
5.02118 89.8377
5.06583 98.5257
5.11049 112.244
5.15515 185.8
5.19981 462.23
5.24449 3230.19
5.28916 11542.4
5.33382 3529.21
5.37848 227.342
5.42315 138.967
5.46783 121.068
5.5125 110.657
5.55716 105.785
5.60183 101.641
5.6465 100.181
5.69117 97.4726
5.73586 95.1943
5.78053 95.4224
5.8252 95.2108
5.86988 96.8054
5.91455 99.434
5.95924 110.14
6.00392 252.3
6.0486 1127.04
6.09328 4030.42
6.13795 3511.46
6.18263 304.245
6.22733 100.643
6.27201 87.0833
6.3167 103.437
6.36138 82.6938
6.40606 71.4821
6.45075 69.4306
6.49545 67.6108
6.54014 65.4706
6.58483 64.8417
6.62952 64.5446
6.67421 94.3935
6.71892 141.098
6.76361 69.3678
6.8083 60.5453
6.853 59.2141
6.89769 58.6044
6.94239 58.1556
6.98711 57.4139
7.03181 56.5407
7.07651 56.6158
7.12121 56.6753
7.16591 56.7719
7.21063 57.0904
7.25533 71.3434
7.30004 176.188
7.34475 90.8884
7.38945 57.8097
7.43416 56.0357
7.47889 55.6803
7.5236 56.2347
7.56831 56.8984
7.61303 58.526
7.65774 58.4883
7.70247 57.5346
7.74719 57.8417
7.79191 58.162
7.83663 58.5259
7.88135 59.67
7.92607 60.0601
7.97081 61.2396
8.01553 62.3629
8.06026 64.147
8.10498 65.3106
8.14971 75.0618
8.19446 73.9238
8.23919 71.1424
8.28392 73.6929
8.32865 75.8874
8.37339 80.7596
8.41812 88.0619
8.46288 117.488
8.50761 185.412
8.55235 443.827
8.59709 1152.09
8.64183 2089.39
8.68658 1171.13
8.73134 196.573
8.77609 105.189
8.82083 96.2034
8.86558 92.7729
8.91033 92.6273
8.9551 94.0949
8.99985 88.0443
9.04461 85.7344
9.08936 85.187
9.13412 84.3664
9.17888 84.4387
9.22365 85.2462
9.26841 84.539
9.31318 85.3843
9.35794 85.4804
9.4027 85.7318
9.44749 86.3294
9.49226 86.989
9.53703 87.9911
9.5818 89.8376
9.62657 94.4232
9.67134 101.041
9.71614 96.3582
9.76091 96.7597
9.80569 99.4126
9.85047 103.174
9.89525 126.965
9.94005 140.673
9.98484 195.72
10.0296 389.406
10.0744 819.738
10.1192 1603.46
10.164 1714.39
10.2088 505.901
10.2536 142.152
10.2984 117.745
10.3432 118.378
10.388 108.568
10.4328 125.946
10.4776 173.186
10.5224 284.395
10.5672 481.981
10.612 525.811
10.6568 230.689
10.7017 102.781
10.7465 89.4438
10.7913 85.6689
10.8361 83.2802
10.8809 81.1148
10.9257 80.4295
10.9706 80.8826
11.0154 76.8089
11.0602 74.7479
11.105 73.7764
11.1499 77.9805
11.1947 84.8845
11.2395 75.7822
11.2844 72.1636
11.3292 68.922
11.374 67.9394
11.4189 67.4825
11.4637 66.7072
11.5086 66.9676
11.5534 70.0199
11.5983 67.0692
11.6431 65.6539
11.688 64.7296
11.7328 64.7059
11.7777 64.5028
11.8225 64.3233
11.8674 64.1481
11.9122 64.6363
11.9571 64.6219
12.002 65.7618
12.0468 70.4675
12.0917 83.6253
12.1366 105.843
12.1814 148.84
12.2263 196.9
12.2712 178.966
12.3161 106.731
12.3609 73.0613
12.4058 66.6835
12.4507 66.0276
12.4956 66.296
12.5405 66.3843
12.5853 67.2999
12.6302 74.6845
12.6751 80.168
12.72 71.8274
12.7649 69.56
12.8098 70.4604
12.8547 71.6383
12.8996 72.67
12.9445 74.5016
12.9894 76.0934
13.0343 77.676
13.0792 81.5218
13.1242 92.3858
13.1691 119.808
13.214 157.664
13.2589 237.395
13.3038 350.674
13.3487 425.863
13.3937 296.365
13.4386 140.743
13.4835 112.107
13.5285 129.291
13.5734 164.777
13.6183 240.221
13.6633 328.131
13.7082 347.082
13.7531 211.332
13.7981 106.314
13.843 84.6851
13.888 82.0135
13.9329 79.2554
13.9779 78.0706
14.0228 76.5735
14.0678 75.0205
14.1127 74.6171
14.1577 74.4444
14.2027 73.3741
14.2476 72.4417
14.2926 72.6565
14.3376 73.4204
14.3825 72.0784
14.4275 70.6423
14.4725 70.4501
14.5175 70.6077
14.5624 70.8837
14.6074 72.9483
14.6524 73.4447
14.6974 72.3774
14.7424 74.2179
14.7874 82.2052
14.8324 94.1734
14.8774 114.617
14.9224 151.007
14.9674 197.613
15.0124 217.877
15.0574 162.754
15.1024 99.0734
15.1474 74.9429
15.1924 72.2817
15.2374 72.841
15.2824 72.192
15.3274 70.1377
15.3725 68.7446
15.4175 68.1669
15.4625 67.9019
15.5076 68.2777
15.5526 68.2031
15.5976 67.6727
15.6426 68.8884
15.6877 75.5325
15.7327 84.1322
15.7778 98.4378
15.8228 125.609
15.8679 162.852
15.9129 188.217
15.958 167.198
16.003 107.102
16.0481 72.1693
16.0931 66.5857
16.1382 64.4592
16.1833 62.3396
16.2283 60.6417
16.2734 60.0376
16.3185 60.3311
16.3636 60.8683
16.4086 59.4881
16.4537 57.7169
16.4988 57.1166
16.5439 56.8587
16.589 56.8222
16.6341 56.3841
16.6792 55.8442
16.7243 56.2963
16.7694 56.6173
16.8145 56.4447
16.8596 56.8087
16.9047 58.2
16.9498 58.4377
16.9949 57.2765
17.04 57.365
17.0851 58.8106
17.1302 60.6921
17.1754 63.7259
17.2205 68.1478
17.2656 74.4313
17.3108 82.0831
17.3559 84.2124
17.401 74.6754
17.4462 64.6615
17.4913 61.0267
17.5365 60.6617
17.5815 60.8208
17.6268 61.3395
17.6718 61.8169
17.7171 62.5015
17.7622 62.8156
17.8074 63.8281
17.8525 66.2691
17.8977 71.1858
17.9428 77.0188
17.9881 85.2933
18.0331 100.007
18.0784 118.662
18.1237 136.706
18.1688 136.687
18.214 112.1
18.2591 90.9466
18.3044 91.1986
18.3495 98.8631
18.3948 105.751
18.4399 100.037
18.4852 81.9068
18.5303 68.7102
18.5756 64.1287
18.6207 62.8154
18.666 62.093
18.7112 61.288
18.7565 60.6262
18.8016 60.1341
18.8469 59.6245
18.892 59.2046
18.9374 58.8526
18.9825 58.5337
19.0278 58.5832
19.073 58.5503
19.1183 59.1304
19.1635 60.0644
19.2088 61.5587
19.254 63.6834
19.2993 67.4133
19.3447 72.7051
19.3898 76.6877
19.4352 74.7083
19.4804 66.498
19.5257 59.0464
19.5709 55.851
19.6163 55.6134
19.6615 55.1337
19.7068 54.755
19.752 54.6276
19.7974 55.3038
19.8426 56.1873
19.888 56.9178
19.9332 58.1352
19.9786 60.2895
20.0238 63.2654
20.0692 67.5368
20.1144 70.716
20.1598 70.7293
20.205 66.5143
20.2504 63.6954
20.2957 64.6888
20.3411 66.0819
20.3863 65.7809
20.4318 60.7421
20.477 55.8188
20.5224 53.1168
20.5677 52.6432
20.6131 51.706
20.6586 51.1782
20.7038 51.0306
20.7493 50.4124
20.7945 50.3804
20.84 50.2177
20.8853 49.9325
20.9307 49.8474
20.976 50.0158
21.0215 49.9892
21.0668 50.3294
21.1122 50.8579
21.1575 51.3358
21.203 51.8751
21.2483 52.5352
21.2938 52.9681
21.3391 51.5997
21.3846 50.6921
21.4299 49.7709
21.4754 49.8092
21.5207 49.8364
21.5662 50.1334
21.6116 50.5255
21.6571 51.3955
21.7024 52.296
21.7479 54.0077
21.7933 56.4995
21.8388 59.8016
21.8843 63.098
21.9297 65.4822
21.9752 65.2511
22.0206 61.9121
22.0661 58.1921
22.1115 57.0307
22.157 57.3617
22.2024 56.1623
22.248 53.4272
22.2933 51.6517
22.3389 50.5901
22.3843 50.5445
22.4299 50.0374
22.4753 50.1366
22.5208 49.8799
22.5662 49.7652
22.6118 49.9114
22.6572 50.3092
22.7028 50.7232
22.7483 51.1754
22.7939 51.9444
22.8393 53.2394
22.8849 55.0782
22.9303 56.7046
22.9759 58.4232
23.0214 58.7633
23.067 56.5875
23.1126 53.155
23.1581 50.9236
23.2037 50.0942
23.2492 50.2295
23.2948 50.2775
23.3403 50.4879
23.3859 51.2156
23.4314 52.1094
23.477 53.6818
23.5225 55.4579
23.5682 57.3976
23.6137 58.6916
23.6593 57.3421
23.7048 53.7539
23.7505 50.1019
23.796 48.1018
23.8417 47.3892
23.8872 46.7883
23.9329 46.5393
23.9784 46.0492
24.0241 45.9264
24.0697 45.6928
24.1154 45.4036
24.1609 45.1085
24.2066 44.9781
24.2522 44.7698
24.2979 44.5503
24.3434 44.5028
24.3892 44.2396
24.4349 44.2726
24.4805 43.9475
24.5262 44.2093
24.5718 44.1572
24.6175 44.0897
24.6631 43.938
24.7089 43.8479
24.7545 43.5506
24.8002 43.3542
24.8458 43.3862
24.8916 43.213
24.9372 43.4013
24.983 43.7458
25.0286 43.9932
25.0744 44.4193
25.12 44.8183
25.1658 45.2689
25.2114 45.7041
25.2572 46.0902
25.3029 45.8668
25.3487 45.9358
25.3943 45.7518
25.4402 44.9169
25.4858 43.7901
25.5316 42.6747
25.5773 42.1272
25.6231 42.0453
25.669 41.5871
25.7147 41.6228
25.7605 41.4657
25.8062 41.645
25.8521 41.7691
25.8977 41.6011
25.9436 41.9827
25.9893 41.9579
26.0352 42.3651
26.0809 42.5611
26.1268 42.6957
26.1725 42.4316
26.2184 41.9611
26.2641 41.583
26.31 41.3132
26.3557 41.3036
26.4017 41.3032
26.4474 41.4946
26.4933 41.7978
26.5391 42.2724
26.585 42.755
26.6308 42.9606
26.6767 43.1866
26.7225 43.0567
26.7684 42.5289
26.8142 42.1342
26.8601 41.5283
26.9059 41.084
26.9519 40.6566
26.9979 40.3365
27.0437 39.9084
27.0896 39.6898
27.1354 39.8229
27.1814 39.6896
27.2272 39.5444
27.2732 39.5727
27.3191 39.3959
27.3651 39.4362
27.4109 39.3915
27.4569 39.5463
27.5027 39.542
27.5488 39.4751
27.5946 39.3802
27.6407 39.2484
27.6865 39.2163
27.7326 38.842
27.7784 38.8207
27.8245 38.8371
27.8703 39.0384
27.9164 39.2302
27.9623 39.2592
28.0084 39.5759
28.0543 39.8074
28.1003 40.0181
28.1462 39.8611
28.1923 39.5215
28.2384 39.008
28.2843 38.7244
28.3304 38.159
28.3764 37.7074
28.4225 37.4374
28.4684 37.253
28.5145 36.8809
28.5605 36.7658
28.6066 36.5843
28.6526 36.4779
28.6987 36.4485
28.7447 36.4132
28.7908 36.5179
28.8368 36.3109
28.8829 36.465
28.9289 36.2579
28.9751 36.1756
29.0211 35.9063
29.0673 35.6206
29.1133 35.415
29.1595 35.3137
29.2055 35.2798
29.2517 35.2361
29.2977 35.0586
29.3439 35.168
29.3899 35.0147
29.4361 34.8958
29.4824 34.8615
29.5284 34.7811
29.5746 34.4352
29.6207 34.0617
29.6669 34.0258
29.713 33.8418
29.7593 33.7058
29.8053 33.805
29.8516 33.6918
29.8977 33.6281
29.9439 33.5094
29.99 33.4573
30.0363 33.2928
30.0824 33.2848
30.1287 33.2116
30.1748 33.3504
30.2211 33.2311
30.2673 33.1085
30.3136 33.2211
30.3597 33.2108
30.406 33.1243
30.4522 33.0092
30.4985 32.9732
30.5447 33.0517
30.591 33.0061
30.6372 33.0523
30.6835 33.0485
30.7297 33.0537
30.7761 32.9749
30.8224 32.7992
30.8686 32.6478
30.915 32.4183
30.9612 32.3665
31.0076 32.1283
31.0538 31.9101
31.1002 31.9192
31.1464 31.7609
31.1928 31.7731
31.2391 31.7424
31.2855 31.7117
31.3317 31.7177
31.3781 31.7261
31.4244 31.7021
31.4708 31.4759
31.5171 31.6284
31.5636 31.5666
31.6098 31.3302
31.6563 31.2274
31.7026 30.964
31.7491 30.9232
31.7953 30.9808
31.8418 30.9704
31.8881 30.9275
31.9346 30.862
31.9809 30.8733
32.0275 30.7487
32.074 30.647
32.1203 30.4673
32.1668 30.2177
32.2132 30.2196
32.2597 30.0882
32.306 29.9811
32.3526 29.6999
32.399 29.7379
32.4455 29.5403
32.4919 29.4396
32.5385 29.4202
32.5848 29.194
32.6314 29.2446
32.6778 29.1506
32.7244 29.1173
32.7708 28.9221
32.8174 28.9158
32.8638 28.7838
32.9104 28.7861
32.9569 28.7753
33.0035 28.6018
33.0499 28.5636
33.0966 28.5566
33.143 28.4466
33.1897 28.4028
33.2361 28.3482
33.2828 28.2877
33.3293 28.1768
33.3759 28.1398
33.4226 28.0001
33.4691 27.8184
33.5158 27.7218
33.5623 27.588
33.609 27.4658
33.6555 27.4066
33.7022 27.2626
33.7487 27.2345
33.7954 27.1553
33.842 27.0617
33.8887 27.0408
33.9353 26.9158
33.982 26.7921
34.0286 26.7871
34.0753 26.717
34.1219 26.63
34.1687 26.5217
34.2152 26.3924
34.262 26.3497
34.3086 26.1992
34.3554 26.2137
34.402 26.0766
34.4488 26.0312
34.4954 25.8669
34.5422 25.842
34.5889 25.7047
34.6357 25.5705
34.6825 25.544
34.7292 25.4929
34.776 25.4166
34.8227 25.314
34.8695 25.3105
34.9162 25.1617
34.9631 25.1411
35.0098 25.1443
35.0566 25.0262
35.1033 24.9457
35.1502 24.9097
35.1969 24.9108
35.2438 24.7949
35.2906 24.7185
35.3375 24.641
35.3842 24.6727
35.4311 24.5944
35.4779 24.5046
35.5248 24.4167
35.5716 24.3895
35.6185 24.2978
35.6653 24.2919
35.7123 24.1611
35.759 24.1457
35.806 23.9375
35.8528 23.8124
35.8998 23.9198
35.9468 23.6971
35.9936 23.747
36.0406 23.6632
36.0874 23.66
36.1345 23.4277
36.1813 23.3783
36.2283 23.3249
36.2752 23.2082
36.3222 23.3189
36.3691 23.1767
36.4161 23.1076
36.463 23.0735
36.5101 22.9791
36.557 22.9241
36.6041 22.8068
36.651 22.8202
36.6981 22.7072
36.745 22.7052
36.7921 22.6168
36.839 22.4016
36.8861 22.3661
36.9331 22.2671
36.9802 22.2249
37.0272 22.169
37.0743 22.095
37.1213 22.0087
37.1684 21.9781
37.2154 21.9264
37.2626 21.7944
37.3098 21.7567
37.3568 21.6649
37.404 21.6245
37.451 21.5535
37.4982 21.4365
37.5452 21.3877
37.5924 21.3205
37.6395 21.2792
37.6867 21.2796
37.7337 21.0924
37.781 21.0212
37.8281 21.0015
37.8753 20.9805
37.9224 20.7519
37.9697 20.807
38.0168 20.6639
38.064 20.6255
38.1111 20.6271
38.1584 20.5459
38.2056 20.5482
38.2529 20.4212
38.3 20.3228
38.3473 20.3
38.3945 20.2189
38.4418 20.1721
38.489 20.163
38.5363 19.9719
38.5837 19.9509
38.6309 19.8891
38.6782 19.813
38.7254 19.8003
38.7728 19.6907
38.82 19.6774
38.8674 19.5651
38.9146 19.4577
38.9621 19.4805
39.0093 19.4163
39.0567 19.3759
39.104 19.3295
39.1514 19.1822
39.1987 19.1594
39.2461 19.1106
39.2934 19.0091
39.3409 18.9288
39.3882 18.8611
39.4356 18.8286
39.483 18.8074
39.5304 18.6719
39.5778 18.7345
39.6253 18.5951
39.6726 18.5262
39.7201 18.5515
39.7675 18.494
39.815 18.404
39.8624 18.3686
39.9099 18.3222
39.9575 18.1534
40.0049 18.1767
40.0525 18.0747
40.0999 18.0136
40.1474 17.9639
40.1949 17.8843
40.2425 17.8339
40.2899 17.842
40.3375 17.7703
40.385 17.7185
40.4326 17.6421
40.48 17.5384
40.5277 17.5467
40.5752 17.4822
40.6228 17.3683
40.6703 17.3389
40.718 17.3016
40.7655 17.3032
40.8132 17.2174
40.8607 17.1398
40.9084 17.1043
40.9559 17.0175
41.0036 17.0022
41.0512 16.9097
41.0989 16.8876
41.1465 16.8198
41.1942 16.7872
41.242 16.6659
41.2896 16.7175
41.3373 16.6174
41.3849 16.6123
41.4327 16.4661
41.4803 16.4018
41.5281 16.4388
41.5758 16.3046
41.6236 16.2675
41.6712 16.2041
41.7191 16.1508
41.7667 16.0466
41.8146 16.1091
41.8622 15.9697
41.9101 15.9349
41.9578 15.8554
42.0057 15.7874
42.0534 15.7633
42.1013 15.7761
42.149 15.6874
42.1969 15.5927
42.2446 15.5474
42.2925 15.5365
42.3403 15.512
42.3882 15.4233
42.436 15.3572
42.4839 15.3273
42.5319 15.259
42.5797 15.2056
42.6277 15.1936
42.6755 15.0928
42.7235 15.0213
42.7713 15.0495
42.8193 14.9941
42.8671 14.9608
42.9152 14.8653
42.963 14.8769
43.0111 14.7036
43.0589 14.6957
43.107 14.6496
43.1549 14.5745
43.2029 14.5882
43.2508 14.5217
43.2989 14.4374
43.3468 14.363
43.3949 14.2867
43.4429 14.291
43.491 14.2121
43.5389 14.1588
43.5871 14.1703
43.635 14.0569
43.6832 14.0706
43.7312 13.9696
43.7793 13.9766
43.8273 13.8815
43.8755 13.8423
43.9237 13.8393
43.9717 13.773
44.0199 13.6879
44.068 13.6792
44.1162 13.6526
44.1642 13.5802
44.2125 13.5393
44.2606 13.4841
44.3088 13.4367
44.3569 13.3762
44.4052 13.3405
44.4533 13.2956
44.5016 13.2353
44.5497 13.1708
44.598 13.1612
44.6461 13.0967
44.6945 13.0114
44.7426 13.0068
44.791 12.9315
44.8391 12.9387
44.8875 12.857
44.9357 12.8526
44.984 12.7934
45.0322 12.758
45.0806 12.7018
45.1288 12.641
45.1773 12.575
45.2257 12.5727
45.2739 12.4961
45.3224 12.4456
45.3706 12.4311
45.4191 12.3456
45.4673 12.331
45.5158 12.2849
45.5641 12.2602
45.6126 12.2238
45.6609 12.1441
45.7094 12.0856
45.7577 12.0716
45.8063 11.9527
45.8546 11.9738
45.9031 11.957
45.9515 11.8933
46.0001 11.8422
46.0484 11.8267
46.097 11.8256
46.1454 11.7662
46.194 11.7606
46.2424 11.6522
46.291 11.594
46.3395 11.5582
46.3881 11.4827
46.4365 11.4738
46.4852 11.4601
46.5337 11.4065
46.5823 11.379
46.631 11.2382
46.6795 11.2855
46.7282 11.2486
46.7767 11.2405
46.8254 11.1121
46.8739 11.098
46.9226 11.025
46.9712 11.0502
47.0199 10.9953
47.0685 10.939
47.1173 10.8824
47.1658 10.8638
47.2146 10.8416
47.2632 10.7693
47.312 10.7421
47.3606 10.6739
47.4095 10.6421
47.4581 10.6379
47.5069 10.5564
47.5556 10.5477
47.6044 10.491
47.6531 10.4528
47.702 10.3924
47.7507 10.3846
47.7996 10.3316
47.8483 10.3281
47.8972 10.2805
47.9461 10.2295
47.9948 10.1924
48.0438 10.1205
48.0925 10.1702
48.1415 10.11
48.1902 10.0547
48.2392 10.0468
48.288 9.99353
48.337 9.95987
48.3858 9.91607
48.4348 9.89723
48.4837 9.85761
48.5327 9.82268
48.5815 9.74429
48.6306 9.75621
48.6795 9.71806
48.7285 9.62625
48.7774 9.63224
48.8265 9.62989
48.8754 9.55436
48.9245 9.49589
48.9734 9.46346
49.0226 9.47229
49.0715 9.43103
49.1206 9.32821
49.1696 9.31962
49.2188 9.31241
49.2679 9.27303
49.3169 9.19742
49.3661 9.21138
49.4151 9.15956
49.4643 9.13187
49.5134 9.08562
49.5626 9.0395
49.6117 9.0393
49.6609 9.01985
49.71 8.94919
49.7592 8.93733
49.8083 8.88481
49.8576 8.88128
49.9067 8.81873
49.956 8.77506
50.0052 8.77147
50.0545 8.72068
50.1036 8.7036
50.153 8.65885
50.2022 8.6114
50.2515 8.61055
50.3007 8.54832
50.3501 8.51966
50.3993 8.42732
50.4487 8.44858
50.498 8.42462
50.5474 8.36671
50.5966 8.34405
50.6461 8.30674
50.6955 8.32273
50.7448 8.26191
50.7943 8.20395
50.8436 8.19397
50.8931 8.18492
50.9424 8.13256
50.9919 8.10098
51.0413 8.07747
51.0908 8.01072
51.1402 8.04458
51.1897 7.98936
51.2391 7.95078
51.2887 7.9341
51.3381 7.88164
51.3877 7.85412
51.4371 7.84238
51.4867 7.74433
51.5362 7.77212
51.5858 7.71949
51.6353 7.67185
51.6849 7.66328
51.7344 7.60087
51.7841 7.60825
51.8336 7.53041
51.8833 7.52617
51.9328 7.47458
51.9826 7.43791
52.0323 7.4003
52.0818 7.39591
52.1316 7.34359
52.1812 7.32831
52.231 7.30477
52.2806 7.31701
52.3304 7.24862
52.38 7.19937
52.4298 7.1379
52.4794 7.11586
52.5293 7.13381
52.5789 7.08185
52.6288 7.03927
52.6785 6.98737
52.7284 7.03421
52.7781 7.0148
52.828 6.94752
52.8777 6.89378
52.9276 6.88645
52.9774 6.88162
53.0273 6.88788
53.0771 6.81412
53.1271 6.80341
53.1769 6.73618
53.2269 6.69354
53.2767 6.68363
53.3267 6.62777
53.3765 6.65311
53.4266 6.62083
53.4766 6.53735
53.5265 6.54072
53.5765 6.4854
53.6264 6.4775
53.6765 6.46309
53.7264 6.43275
53.7765 6.4114
53.8265 6.36367
53.8766 6.34403
53.9266 6.33068
53.9767 6.29884
54.0267 6.26537
54.0769 6.21618
54.1269 6.23999
54.1771 6.16657
54.2271 6.16697
54.2773 6.05649
54.3274 6.09264
54.3776 6.03767
54.4277 6.02583
54.478 5.95101
54.528 5.89791
54.5783 5.90738
54.6285 5.88774
54.6788 5.79984
54.7289 5.76885
54.7792 5.76291
54.8296 5.6837
54.8798 5.62762
54.9301 5.6333
54.9803 5.63235
55.0307 5.57133
55.0809 5.53261
55.1314 5.51957
55.1816 5.42203
55.232 5.37937
55.2823 5.31341
55.3328 5.24872
55.383 5.18907
55.4335 5.22293
55.4838 5.1494
55.5344 5.05604
55.5847 5.04428
55.6352 5.00512
55.6856 4.99036
55.7361 4.88567