File: XRD/Ni3Fe_FD0702.xy
TT I
1.27165 7.26495
1.31627 6.70279
1.36089 6.45017
1.40551 5.68604
1.45013 6.26074
1.49476 6.17881
1.53938 6.23629
1.584 4.66059
1.62863 5.0325
1.67325 5.24605
1.71787 5.05424
1.7625 4.74189
1.80712 5.4171
1.85174 5.05764
1.89636 4.65291
1.94099 4.86884
1.98562 4.45589
2.03025 5.08169
2.07487 4.8708
2.11949 4.60199
2.16411 4.60512
2.20874 8.98766
2.25338 12.3824
2.298 5.58262
2.34263 5.33356
2.38725 5.7016
2.43188 5.66613
2.4765 7.18391
2.52115 7.08395
2.56577 7.42491
2.6104 7.87765
2.65503 7.81099
2.69965 7.686
2.7443 8.16569
2.78893 8.44016
2.83356 8.42182
2.87818 8.88832
2.92281 9.16593
2.96744 9.94347
3.01209 10.3137
3.05672 11.3678
3.10135 11.9089
3.14599 12.853
3.19062 14.6604
3.23527 15.2346
3.2799 15.5577
3.32454 16.3517
3.36917 17.8312
3.4138 18.7303
3.45844 19.3274
3.50309 20.4573
3.54773 21.7478
3.59237 23.4719
3.637 52.8719
3.68164 37.7206
3.7263 25.3485
3.77094 26.0719
3.81558 26.3244
3.86022 27.402
3.90486 28.8589
3.9495 29.7931
3.99416 30.7191
4.0388 31.6772
4.08344 32.8795
4.12809 34.2416
4.17273 36.0285
4.21738 38.886
4.26204 126.664
4.30669 111.594
4.35133 44.143
4.39598 43.459
4.44063 48.9613
4.4853 54.304
4.52995 55.2645
4.5746 56.2267
4.61925 53.6789
4.6639 55.2048
4.70855 58.0558
4.75322 61.6622
4.79788 67.5914
4.84253 68.372
4.88719 74.556
4.93184 76.4784
4.97652 81.2719
5.02118 87.6492
5.06583 95.2587
5.11049 107.719
5.15515 158.349
5.19981 434.732
5.24449 3052.07
5.28916 12719.9
5.33382 2651.94
5.37848 195.302
5.42315 131.336
5.46783 119.068
5.5125 111.49
5.55716 102.396
5.60183 98.4919
5.6465 96.3183
5.69117 94.8318
5.73586 92.8328
5.78053 97.3302
5.8252 96.9057
5.86988 99.4801
5.91455 96.3985
5.95924 106.023
6.00392 255.222
6.0486 1044.13
6.09328 4605.15
6.13795 3116.4
6.18263 221.696
6.22733 91.0085
6.27201 80.9407
6.3167 85.8658
6.36138 74.9185
6.40606 69.8687
6.45075 69.1912
6.49545 65.4586
6.54014 63.3963
6.58483 62.7777
6.62952 62.3403
6.67421 74.8106
6.71892 94.0061
6.76361 62.3131
6.8083 59.1739
6.853 59.2632
6.89769 56.5497
6.94239 56.1039
6.98711 55.4512
7.03181 55.5077
7.07651 54.9618
7.12121 54.9929
7.16591 55.5154
7.21063 55.5852
7.25533 60.7427
7.30004 104.399
7.34475 68.7482
7.38945 54.884
7.43416 53.5867
7.47889 54.073
7.5236 54.1739
7.56831 54.8968
7.61303 55.5178
7.65774 56.2843
7.70247 56.4775
7.74719 56.3563
7.79191 56.5971
7.83663 56.5438
7.88135 57.4254
7.92607 58.809
7.97081 59.6144
8.01553 61.0304
8.06026 62.7433
8.10498 64.1212
8.14971 70.7402
8.19446 70.4917
8.23919 69.4492
8.28392 71.8267
8.32865 74.3061
8.37339 78.6403
8.41812 84.3164
8.46288 104.84
8.50761 188.58
8.55235 411.523
8.59709 1248.09
8.64183 2198.15
8.68658 852.891
8.73134 149.758
8.77609 97.9454
8.82083 92.4916
8.86558 91.7163
8.91033 91.64
8.9551 89.9431
8.99985 85.4705
9.04461 83.9759
9.08936 84.1991
9.13412 82.4889
9.17888 82.0645
9.22365 82.5129
9.26841 82.0313
9.31318 84.4765
9.35794 86.3419
9.4027 85.6274
9.44749 85.3897
9.49226 85.212
9.53703 86.009
9.5818 89.0176
9.62657 93.9638
9.67134 95.7085
9.71614 92.9459
9.76091 95.1531
9.80569 98.8535
9.85047 101.37
9.89525 112.681
9.94005 130.309
9.98484 200.303
10.0296 366.267
10.0744 855.161
10.1192 1797.67
10.164 1542.34
10.2088 356.274
10.2536 122.026
10.2984 109.78
10.3432 108.649
10.388 106.071
10.4328 124.763
10.4776 166.196
10.5224 293.981
10.5672 518.33
10.612 495.423
10.6568 193.854
10.7017 94.6508
10.7465 86.2503
10.7913 82.8878
10.8361 80.8113
10.8809 78.8472
10.9257 77.6492
10.9706 77.8306
11.0154 74.7936
11.0602 72.6674
11.105 71.4316
11.1499 72.2786
11.1947 74.808
11.2395 70.2579
11.2844 68.4921
11.3292 66.8157
11.374 65.6898
11.4189 65.407
11.4637 64.5527
11.5086 64.7594
11.5534 65.226
11.5983 64.0322
11.6431 63.3643
11.688 62.8501
11.7328 62.4603
11.7777 62.7469
11.8225 62.5026
11.8674 62.4723
11.9122 62.7049
11.9571 63.1908
12.002 64.39
12.0468 69.5907
12.0917 79.6987
12.1366 105.91
12.1814 155.81
12.2263 204.971
12.2712 156.108
12.3161 87.2757
12.3609 66.9559
12.4058 64.0517
12.4507 64.1554
12.4956 64.7463
12.5405 64.9009
12.5853 65.0788
12.6302 68.4092
12.6751 71.1584
12.72 68.0663
12.7649 67.6937
12.8098 68.2838
12.8547 69.672
12.8996 71.3249
12.9445 73.1184
12.9894 74.5748
13.0343 76.5185
13.0792 80.3691
13.1242 93.9107
13.1691 114.182
13.214 153.367
13.2589 249.865
13.3038 381.605
13.3487 415.692
13.3937 249.008
13.4386 120.455
13.4835 108.716
13.5285 123.237
13.5734 165.552
13.6183 258.989
13.6633 358.699
13.7082 328.648
13.7531 173.464
13.7981 93.885
13.843 81.2106
13.888 79.7912
13.9329 77.1472
13.9779 75.6649
14.0228 74.4661
14.0678 72.9451
14.1127 72.2387
14.1577 72.1227
14.2027 71.1983
14.2476 70.4143
14.2926 70.0047
14.3376 70.2489
14.3825 69.7063
14.4275 68.9689
14.4725 68.6739
14.5175 69.068
14.5624 69.0897
14.6074 69.8864
14.6524 70.3453
14.6974 70.8752
14.7424 74.3271
14.7874 80.8095
14.8324 90.8453
14.8774 114.633
14.9224 159.858
14.9674 212.759
15.0124 215.617
15.0574 139.602
15.1024 86.579
15.1474 71.9409
15.1924 70.0396
15.2374 69.6703
15.2824 68.9503
15.3274 67.426
15.3725 66.7599
15.4175 66.3861
15.4625 65.6947
15.5076 65.7371
15.5526 66.1231
15.5976 65.8494
15.6426 68.5695
15.6877 73.9823
15.7327 81.0807
15.7778 97.4177
15.8228 130.419
15.8679 175.384
15.9129 195.226
15.958 148.773
16.003 91.2553
16.0481 66.3813
16.0931 63.1451
16.1382 61.5407
16.1833 60.0217
16.2283 58.8248
16.2734 58.1007
16.3185 57.856
16.3636 57.5962
16.4086 56.9116
16.4537 55.8897
16.4988 55.1854
16.5439 55.1906
16.589 55.054
16.6341 54.7353
16.6792 54.496
16.7243 54.7555
16.7694 54.5978
16.8145 54.7234
16.8596 54.8932
16.9047 55.6808
16.9498 55.838
16.9949 55.4168
17.04 56.1101
17.0851 57.3696
17.1302 58.8986
17.1754 61.8645
17.2205 67.3629
17.2656 75.0754
17.3108 83.125
17.3559 81.4279
17.401 69.7529
17.4462 61.4707
17.4913 59.2296
17.5365 59.0482
17.5815 59.0519
17.6268 59.7575
17.6718 60.3687
17.7171 60.6329
17.7622 61.5451
17.8074 62.6479
17.8525 65.7143
17.8977 69.0036
17.9428 74.3584
17.9881 84.1331
18.0331 102.941
18.0784 125.606
18.1237 141.97
18.1688 130.398
18.214 101.018
18.2591 86.1998
18.3044 91.5968
18.3495 101.208
18.3948 105.769
18.4399 93.8532
18.4852 75.0174
18.5303 65.0963
18.5756 61.9548
18.6207 61.07
18.666 60.1935
18.7112 59.3827
18.7565 58.8041
18.8016 58.5894
18.8469 57.9508
18.892 57.6487
18.9374 57.3499
18.9825 56.8041
19.0278 56.555
19.073 57.2151
19.1183 57.3665
19.1635 57.9275
19.2088 59.2669
19.254 62.5471
19.2993 67.2281
19.3447 73.3173
19.3898 75.9867
19.4352 70.9674
19.4804 61.9873
19.5257 55.9384
19.5709 53.8094
19.6163 53.8627
19.6615 53.6842
19.7068 53.181
19.752 53.2133
19.7974 53.7976
19.8426 54.2623
19.888 54.9799
19.9332 56.3946
19.9786 59.113
20.0238 63.0811
20.0692 67.717
20.1144 69.5886
20.1598 67.6519
20.205 63.1154
20.2504 62.1882
20.2957 64.1192
20.3411 65.5441
20.3863 63.4365
20.4318 57.5579
20.477 52.7842
20.5224 51.0572
20.5677 50.5861
20.6131 50.1293
20.6586 49.5182
20.7038 49.345
20.7493 48.9726
20.7945 48.6174
20.84 48.8991
20.8853 48.6066
20.9307 48.7628
20.976 48.7812
21.0215 48.4948
21.0668 48.7495
21.1122 49.4909
21.1575 50.1636
21.203 50.9433
21.2483 51.3943
21.2938 51.3913
21.3391 49.7746
21.3846 48.7556
21.4299 48.2508
21.4754 48.3869
21.5207 48.6486
21.5662 49.1344
21.6116 49.4437
21.6571 50.0857
21.7024 50.9182
21.7479 53.1153
21.7933 56.0488
21.8388 59.4157
21.8843 62.9183
21.9297 64.9756
21.9752 62.8174
22.0206 58.9266
22.0661 56.2216
22.1115 56.0109
22.157 55.8627
22.2024 53.9412
22.248 51.0563
22.2933 49.557
22.3389 48.8656
22.3843 49.0164
22.4299 48.5529
22.4753 48.6079
22.5208 48.4669
22.5662 48.3364
22.6118 48.7565
22.6572 48.9718
22.7028 49.3247
22.7483 49.684
22.7939 50.5222
22.8393 52.0054
22.8849 54.4359
22.9303 56.4255
22.9759 57.9077
23.0214 56.955
23.067 53.859
23.1126 50.6356
23.1581 48.9893
23.2037 48.7594
23.2492 48.9705
23.2948 48.7834
23.3403 49.0021
23.3859 49.7877
23.4314 51.0074
23.477 53.049
23.5225 55.2335
23.5682 57.4108
23.6137 57.7743
23.6593 54.9192
23.7048 50.9972
23.7505 47.9605
23.796 46.3613
23.8417 45.936
23.8872 45.3902
23.9329 45.0533
23.9784 44.856
24.0241 44.5084
24.0697 44.3921
24.1154 43.9874
24.1609 43.8894
24.2066 43.7655
24.2522 43.5586
24.2979 43.3604
24.3434 43.2871
24.3892 42.9401
24.4349 43.1162
24.4805 42.8933
24.5262 43.1065
24.5718 42.9244
24.6175 42.8688
24.6631 42.7119
24.7089 42.2588
24.7545 42.3171
24.8002 42.0801
24.8458 42.1546
24.8916 41.9895
24.9372 42.1725
24.983 42.5482
25.0286 42.9317
25.0744 43.346
25.12 43.6603
25.1658 44.4702
25.2114 44.6776
25.2572 44.7453
25.3029 44.7234
25.3487 44.7048
25.3943 44.5003
25.4402 43.3305
25.4858 42.1468
25.5316 41.3494
25.5773 40.7746
25.6231 40.8051
25.669 40.4717
25.7147 40.3743
25.7605 40.3649
25.8062 40.2835
25.8521 40.4934
25.8977 40.5332
25.9436 40.7408
25.9893 40.9721
26.0352 41.4049
26.0809 41.6507
26.1268 41.6272
26.1725 41.3313
26.2184 40.556
26.2641 40.2554
26.31 39.9794
26.3557 40.0742
26.4017 40.0797
26.4474 40.4154
26.4933 40.7116
26.5391 41.2709
26.585 41.7675
26.6308 42.0576
26.6767 42.1351
26.7225 41.8045
26.7684 41.3056
26.8142 40.7554
26.8601 40.356
26.9059 39.954
26.9519 39.3917
26.9979 39.0362
27.0437 38.8413
27.0896 38.6044
27.1354 38.6245
27.1814 38.5577
27.2272 38.5501
27.2732 38.3665
27.3191 38.4114
27.3651 38.407
27.4109 38.3637
27.4569 38.3901
27.5027 38.4977
27.5488 38.5439
27.5946 38.2714
27.6407 38.1376
27.6865 38.0887
27.7326 37.7778
27.7784 37.777
27.8245 37.6748
27.8703 37.9839
27.9164 38.2442
27.9623 38.4869
28.0084 38.6781
28.0543 39.0946
28.1003 38.7986
28.1462 38.7712
28.1923 38.3316
28.2384 37.7885
28.2843 37.4536
28.3304 37.0208
28.3764 36.4904
28.4225 36.4121
28.4684 36.1758
28.5145 35.905
28.5605 35.8092
28.6066 35.603
28.6526 35.5837
28.6987 35.7404
28.7447 35.5152
28.7908 35.3924
28.8368 35.4296
28.8829 35.3516
28.9289 35.2439
28.9751 35.049
29.0211 34.9104
29.0673 34.6699
29.1133 34.513
29.1595 34.3592
29.2055 34.277
29.2517 34.3173
29.2977 34.2084
29.3439 34.2891
29.3899 34.2394
29.4361 34.0779
29.4824 33.9006
29.5284 33.6052
29.5746 33.3331
29.6207 33.0617
29.6669 32.9822
29.713 32.9429
29.7593 32.8259
29.8053 32.7779
29.8516 32.6957
29.8977 32.6813
29.9439 32.4993
29.99 32.437
30.0363 32.3812
30.0824 32.3688
30.1287 32.3767
30.1748 32.4657
30.2211 32.3419
30.2673 32.2818
30.3136 32.2856
30.3597 32.1922
30.406 32.0934
30.4522 32.0239
30.4985 31.9967
30.5447 32.1866
30.591 32.1256
30.6372 32.0968
30.6835 32.1378
30.7297 32.1426
30.7761 32.0793
30.8224 31.9698
30.8686 31.784
30.915 31.5948
30.9612 31.4722
31.0076 31.243
31.0538 31.0948
31.1002 31.049
31.1464 30.8695
31.1928 30.9165
31.2391 31.0078
31.2855 30.8899
31.3317 30.8878
31.3781 30.9095
31.4244 30.9044
31.4708 30.8126
31.5171 30.766
31.5636 30.7254
31.6098 30.4367
31.6563 30.2037
31.7026 30.1751
31.7491 30.0699
31.7953 30.1582
31.8418 30.1647
31.8881 30.0832
31.9346 30.0325
31.9809 29.9114
32.0275 29.8325
32.074 29.7868
32.1203 29.6428
32.1668 29.5267
32.2132 29.2798
32.2597 29.2192
32.306 29.0956
32.3526 28.8388
32.399 28.8823
32.4455 28.7825
32.4919 28.6727
32.5385 28.6007
32.5848 28.4533
32.6314 28.389
32.6778 28.3315
32.7244 28.2329
32.7708 28.0458
32.8174 28.1745
32.8638 27.9896
32.9104 28.0244
32.9569 27.9889
33.0035 27.7552
33.0499 27.771
33.0966 27.7519
33.143 27.7643
33.1897 27.6625
33.2361 27.5979
33.2828 27.5071
33.3293 27.3264
33.3759 27.3424
33.4226 27.1904
33.4691 27.0078
33.5158 26.9714
33.5623 26.8883
33.609 26.6967
33.6555 26.6415
33.7022 26.5627
33.7487 26.4753
33.7954 26.4748
33.842 26.2947
33.8887 26.2531
33.9353 26.1766
33.982 26.1484
34.0286 26.0344
34.0753 25.9601
34.1219 25.8804
34.1687 25.7971
34.2152 25.741
34.262 25.5797
34.3086 25.4451
34.3554 25.4775
34.402 25.3771
34.4488 25.2175
34.4954 25.149
34.5422 25.1261
34.5889 24.9855
34.6357 24.8877
34.6825 24.8104
34.7292 24.8032
34.776 24.6572
34.8227 24.7086
34.8695 24.5242
34.9162 24.5372
34.9631 24.3562
35.0098 24.4971
35.0566 24.2762
35.1033 24.2071
35.1502 24.2481
35.1969 24.1722
35.2438 24.1462
35.2906 24.012
35.3375 23.9906
35.3842 23.922
35.4311 23.9591
35.4779 23.9374
35.5248 23.8263
35.5716 23.7361
35.6185 23.6673
35.6653 23.5428
35.7123 23.4983
35.759 23.5036
35.806 23.3445
35.8528 23.2079
35.8998 23.1361
35.9468 23.1181
35.9936 22.9986
36.0406 22.9569
36.0874 22.9033
36.1345 22.9079
36.1813 22.6809
36.2283 22.662
36.2752 22.5668
36.3222 22.6501
36.3691 22.5094
36.4161 22.3773
36.463 22.3454
36.5101 22.3625
36.557 22.3605
36.6041 22.178
36.651 22.1497
36.6981 22.1036
36.745 21.9819
36.7921 21.9791
36.839 21.8104
36.8861 21.6927
36.9331 21.6819
36.9802 21.6391
37.0272 21.5142
37.0743 21.4304
37.1213 21.3947
37.1684 21.3602
37.2154 21.321
37.2626 21.1537
37.3098 21.1817
37.3568 21.129
37.404 21.0451
37.451 20.9298
37.4982 20.8684
37.5452 20.8121
37.5924 20.7913
37.6395 20.8273
37.6867 20.6499
37.7337 20.5062
37.781 20.4398
37.8281 20.3993
37.8753 20.3504
37.9224 20.303
37.9697 20.2924
38.0168 20.2085
38.064 20.1334
38.1111 20.028
38.1584 19.963
38.2056 19.9695
38.2529 19.9396
38.3 19.7309
38.3473 19.7628
38.3945 19.615
38.4418 19.577
38.489 19.5985
38.5363 19.4856
38.5837 19.4104
38.6309 19.3649
38.6782 19.2592
38.7254 19.2023
38.7728 19.1837
38.82 19.1325
38.8674 19.0294
38.9146 19.0656
38.9621 18.9316
39.0093 18.8859
39.0567 18.7823
39.104 18.7385
39.1514 18.6656
39.1987 18.632
39.2461 18.5668
39.2934 18.5297
39.3409 18.4482
39.3882 18.4107
39.4356 18.3506
39.483 18.276
39.5304 18.1677
39.5778 18.187
39.6253 18.1129
39.6726 18.058
39.7201 18.0054
39.7675 17.9375
39.815 17.9616
39.8624 17.834
39.9099 17.7666
39.9575 17.6667
40.0049 17.7279
40.0525 17.6485
40.0999 17.5534
40.1474 17.4843
40.1949 17.3926
40.2425 17.3699
40.2899 17.3419
40.3375 17.2375
40.385 17.2519
40.4326 17.1501
40.48 17.1156
40.5277 17.0641
40.5752 16.9783
40.6228 16.9471
40.6703 16.8656
40.718 16.8122
40.7655 16.8181
40.8132 16.7705
40.8607 16.7112
40.9084 16.6462
40.9559 16.5725
41.0036 16.547
41.0512 16.4907
41.0989 16.4143
41.1465 16.3354
41.1942 16.3024
41.242 16.2304
41.2896 16.1366
41.3373 16.1198
41.3849 16.0351
41.4327 16.0019
41.4803 15.9137
41.5281 15.932
41.5758 15.8666
41.6236 15.794
41.6712 15.7043
41.7191 15.6554
41.7667 15.6443
41.8146 15.6394
41.8622 15.5905
41.9101 15.4871
41.9578 15.402
42.0057 15.3531
42.0534 15.3438
42.1013 15.2683
42.149 15.2857
42.1969 15.1897
42.2446 15.1446
42.2925 15.0641
42.3403 15.0439
42.3882 15.0022
42.436 15.0099
42.4839 14.8565
42.5319 14.8853
42.5797 14.8185
42.6277 14.7168
42.6755 14.635
42.7235 14.6457
42.7713 14.6015
42.8193 14.5095
42.8671 14.4893
42.9152 14.4697
42.963 14.4052
43.0111 14.2855
43.0589 14.2978
43.107 14.2264
43.1549 14.2076
43.2029 14.1402
43.2508 14.0899
43.2989 14.0273
43.3468 13.9894
43.3949 13.905
43.4429 13.9254
43.491 13.8175
43.5389 13.8095
43.5871 13.7542
43.635 13.6467
43.6832 13.6755
43.7312 13.5907
43.7793 13.5788
43.8273 13.5135
43.8755 13.4808
43.9237 13.4231
43.9717 13.3718
44.0199 13.3316
44.068 13.267
44.1162 13.2228
44.1642 13.1774
44.2125 13.1481
44.2606 13.1074
44.3088 13.0576
44.3569 13.0128
44.4052 12.9893
44.4533 12.9119
44.5016 12.878
44.5497 12.8445
44.598 12.8176
44.6461 12.7601
44.6945 12.6776
44.7426 12.6666
44.791 12.5754
44.8391 12.6039
44.8875 12.5341
44.9357 12.514
44.984 12.4308
45.0322 12.3823
45.0806 12.3394
45.1288 12.2947
45.1773 12.2447
45.2257 12.2375
45.2739 12.1822
45.3224 12.1162
45.3706 12.1169
45.4191 12.0275
45.4673 11.9837
45.5158 11.9457
45.5641 11.9071
45.6126 11.9077
45.6609 11.857
45.7094 11.7438
45.7577 11.7877
45.8063 11.6773
45.8546 11.6434
45.9031 11.6011
45.9515 11.5754
46.0001 11.5519
46.0484 11.5174
46.097 11.4672
46.1454 11.4335
46.194 11.4175
46.2424 11.3416
46.291 11.2992
46.3395 11.2265
46.3881 11.1689
46.4365 11.2404
46.4852 11.1333
46.5337 11.0949
46.5823 11.084
46.631 11.0328
46.6795 10.9866
46.7282 10.9311
46.7767 10.8876
46.8254 10.8078
46.8739 10.8187
46.9226 10.7515
46.9712 10.7244
47.0199 10.7062
47.0685 10.6772
47.1173 10.5876
47.1658 10.5545
47.2146 10.5607
47.2632 10.4926
47.312 10.4311
47.3606 10.4137
47.4095 10.3673
47.4581 10.3535
47.5069 10.3595
47.5556 10.2579
47.6044 10.2428
47.6531 10.1598
47.702 10.108
47.7507 10.1047
47.7996 10.0874
47.8483 9.99516
47.8972 10.0042
47.9461 9.99865
47.9948 9.90154
48.0438 9.87128
48.0925 9.87095
48.1415 9.81459
48.1902 9.81386
48.2392 9.77111
48.288 9.71416
48.337 9.66449
48.3858 9.63137
48.4348 9.64398
48.4837 9.58672
48.5327 9.54438
48.5815 9.48686
48.6306 9.49171
48.6795 9.4561
48.7285 9.39914
48.7774 9.38479
48.8265 9.30967
48.8754 9.2762
48.9245 9.24505
48.9734 9.22917
49.0226 9.20634
49.0715 9.15058
49.1206 9.1582
49.1696 9.08683
49.2188 9.05942
49.2679 9.01401
49.3169 9.00246
49.3661 8.93019
49.4151 8.92366
49.4643 8.91524
49.5134 8.84835
49.5626 8.78015
49.6117 8.75006
49.6609 8.74808
49.71 8.68319
49.7592 8.66697
49.8083 8.62652
49.8576 8.61457
49.9067 8.55854
49.956 8.52899
50.0052 8.50695
50.0545 8.50114
50.1036 8.41429
50.153 8.40857
50.2022 8.38
50.2515 8.3752
50.3007 8.26243
50.3501 8.27642
50.3993 8.22941
50.4487 8.21382
50.498 8.17405
50.5474 8.13881
50.5966 8.10569
50.6461 8.09991
50.6955 8.06509
50.7448 8.02854
50.7943 8.03383
50.8436 7.96544
50.8931 7.96045
50.9424 7.94447
50.9919 7.87652
51.0413 7.83776
51.0908 7.80852
51.1402 7.81257
51.1897 7.72446
51.2391 7.72757
51.2887 7.71574
51.3381 7.64822
51.3877 7.63445
51.4371 7.59249
51.4867 7.5573
51.5362 7.51768
51.5858 7.48136
51.6353 7.45318
51.6849 7.42381
51.7344 7.42799
51.7841 7.38651
51.8336 7.30851
51.8833 7.30812
51.9328 7.26661
51.9826 7.24786
52.0323 7.24937
52.0818 7.22222
52.1316 7.16008
52.1812 7.12414
52.231 7.09341
52.2806 7.06895
52.3304 7.05831
52.38 7.01353
52.4298 6.99632
52.4794 6.94306
52.5293 6.93292
52.5789 6.86894
52.6288 6.87946
52.6785 6.82198
52.7284 6.84602
52.7781 6.8336
52.828 6.7657
52.8777 6.74254
52.9276 6.73823
52.9774 6.6763
53.0273 6.68623
53.0771 6.62355
53.1271 6.58031
53.1769 6.57149
53.2269 6.52851
53.2767 6.50947
53.3267 6.49024
53.3765 6.42836
53.4266 6.43617
53.4766 6.44114
53.5265 6.35942
53.5765 6.37448
53.6264 6.31873
53.6765 6.31807
53.7264 6.25517
53.7765 6.24728
53.8265 6.19002
53.8766 6.21704
53.9266 6.12328
53.9767 6.09325
54.0267 6.13189
54.0769 6.05014
54.1269 6.05387
54.1771 5.99404
54.2271 5.98634
54.2773 5.9317
54.3274 5.93956
54.3776 5.87234
54.4277 5.87471
54.478 5.81802
54.528 5.7835
54.5783 5.77801
54.6285 5.70672
54.6788 5.63518
54.7289 5.60329
54.7792 5.56654
54.8296 5.54145
54.8798 5.5243
54.9301 5.48752
54.9803 5.47338
55.0307 5.41102
55.0809 5.3773
55.1314 5.37872
55.1816 5.29806
55.232 5.24756
55.2823 5.26543
55.3328 5.12081
55.383 5.10443
55.4335 5.04758
55.4838 5.00075
55.5344 4.95132
55.5847 4.94073
55.6352 4.87502
55.6856 4.82039
55.7361 4.80466