File: XRD/Ni3Fe_FD0636.xy
TT I
1.27165 7.26528
1.31627 6.61941
1.36089 7.12148
1.40551 6.96908
1.45013 5.79917
1.49476 6.42446
1.53938 6.06538
1.584 5.62114
1.62863 5.57709
1.67325 5.50531
1.71787 5.63843
1.7625 5.14238
1.80712 4.42149
1.85174 4.9495
1.89636 5.01452
1.94099 4.49054
1.98562 4.58336
2.03025 4.33408
2.07487 4.41948
2.11949 5.05274
2.16411 5.20132
2.20874 15.6277
2.25338 25.6068
2.298 6.40342
2.34263 5.30193
2.38725 5.76851
2.43188 6.3361
2.4765 6.37262
2.52115 6.46525
2.56577 7.30233
2.6104 8.27513
2.65503 6.77256
2.69965 8.0553
2.7443 8.60301
2.78893 8.13521
2.83356 8.28518
2.87818 8.59861
2.92281 8.81863
2.96744 9.4796
3.01209 10.3265
3.05672 11.1502
3.10135 11.9552
3.14599 12.6825
3.19062 14.3758
3.23527 15.3278
3.2799 15.67
3.32454 17.0271
3.36917 17.9837
3.4138 18.8389
3.45844 19.5246
3.50309 21.1224
3.54773 22.1845
3.59237 24.2363
3.637 104.382
3.68164 66.1607
3.7263 26.8964
3.77094 26.0479
3.81558 27.2085
3.86022 27.8103
3.90486 29.2143
3.9495 29.8542
3.99416 31.1257
4.0388 32.8039
4.08344 33.5397
4.12809 34.4579
4.17273 37.5006
4.21738 44.3403
4.26204 283.531
4.30669 251.617
4.35133 50.2893
4.39598 45.0436
4.44063 55.5561
4.4853 68.7641
4.52995 50.6987
4.5746 51.6527
4.61925 53.2229
4.6639 55.4187
4.70855 58.335
4.75322 60.9961
4.79788 63.7532
4.84253 67.4837
4.88719 70.5588
4.93184 74.7505
4.97652 80.5758
5.02118 86.4908
5.06583 93.9593
5.11049 105.165
5.15515 182.052
5.19981 338.994
5.24449 2688.01
5.28916 12452.5
5.33382 3023.45
5.37848 195.248
5.42315 130.623
5.46783 114.444
5.5125 105.795
5.55716 102.695
5.60183 98.9356
5.6465 96.9686
5.69117 94.1366
5.73586 92.5366
5.78053 90.9542
5.8252 90.9154
5.86988 91.7683
5.91455 93.4298
5.95924 101.322
6.00392 195.424
6.0486 927.818
6.09328 4391.68
6.13795 3545.33
6.18263 264.335
6.22733 95.0534
6.27201 84.0713
6.3167 107.591
6.36138 83.3722
6.40606 69.4322
6.45075 67.5822
6.49545 65.7176
6.54014 64.4539
6.58483 63.2809
6.62952 63.3023
6.67421 99.8254
6.71892 160.258
6.76361 71.1555
6.8083 58.969
6.853 57.9522
6.89769 57.5818
6.94239 56.902
6.98711 56.2101
7.03181 56.2016
7.07651 55.7245
7.12121 55.7716
7.16591 55.9683
7.21063 55.9227
7.25533 72.9563
7.30004 203.908
7.34475 99.0909
7.38945 57.4184
7.43416 55.0381
7.47889 54.9747
7.5236 55.3435
7.56831 55.408
7.61303 57.4849
7.65774 58.4254
7.70247 56.287
7.74719 56.4103
7.79191 57.0057
7.83663 57.0302
7.88135 58.0227
7.92607 58.7406
7.97081 60.225
8.01553 61.2135
8.06026 62.7542
8.10498 64.4832
8.14971 74.7628
8.19446 73.5282
8.23919 69.9205
8.28392 71.6028
8.32865 74.2069
8.37339 77.965
8.41812 85.7
8.46288 117.691
8.50761 158.613
8.55235 367.152
8.59709 1126.49
8.64183 2218.78
8.68658 1033.56
8.73134 176.046
8.77609 100.451
8.82083 92.9777
8.86558 89.8691
8.91033 90.3499
8.9551 93.154
8.99985 85.6633
9.04461 83.8053
9.08936 83.0036
9.13412 81.8549
9.17888 82.3651
9.22365 82.7561
9.26841 82.4242
9.31318 82.6333
9.35794 82.8054
9.4027 82.7823
9.44749 83.7605
9.49226 84.7348
9.53703 85.8468
9.5818 87.0205
9.62657 92.1661
9.67134 100.34
9.71614 94.301
9.76091 93.7758
9.80569 96.3642
9.85047 100.06
9.89525 126.791
9.94005 140.427
9.98484 169.041
10.0296 328.121
10.0744 775.598
10.1192 1714.2
10.164 1661.64
10.2088 435.134
10.2536 130.721
10.2984 114.932
10.3432 117.423
10.388 105.05
10.4328 115.933
10.4776 154.528
10.5224 269.826
10.5672 503.696
10.612 519.234
10.6568 213.531
10.7017 99.2543
10.7465 87.2408
10.7913 83.5281
10.8361 81.5996
10.8809 79.1135
10.9257 79.0924
10.9706 80.3094
11.0154 75.1029
11.0602 73.2277
11.105 72.3175
11.1499 77.5435
11.1947 86.7453
11.2395 75.8004
11.2844 71.3746
11.3292 67.5262
11.374 66.4391
11.4189 66.0585
11.4637 65.0167
11.5086 65.9829
11.5534 69.2916
11.5983 66.3523
11.6431 63.5673
11.688 63.2122
11.7328 63.0448
11.7777 63.1582
11.8225 62.7907
11.8674 62.6963
11.9122 63.1132
11.9571 63.0762
12.002 63.4475
12.0468 66.9596
12.0917 78.4263
12.1366 100.989
12.1814 148.12
12.2263 205.461
12.2712 171.947
12.3161 101.524
12.3609 72.4242
12.4058 65.2329
12.4507 64.5975
12.4956 64.8013
12.5405 64.8331
12.5853 66.012
12.6302 74.8582
12.6751 81.474
12.72 71.0561
12.7649 67.8752
12.8098 68.2964
12.8547 69.7744
12.8996 71.0393
12.9445 72.1175
12.9894 74.0802
13.0343 75.7464
13.0792 78.7474
13.1242 86.8611
13.1691 109.901
13.214 144.97
13.2589 230.676
13.3038 361.667
13.3487 429.323
13.3937 274.941
13.4386 127.991
13.4835 104.397
13.5285 118.483
13.5734 155.104
13.6183 240.935
13.6633 345.608
13.7082 345.338
13.7531 195.787
13.7981 100.438
13.843 82.4972
13.888 79.8686
13.9329 77.2936
13.9779 76.1961
14.0228 74.4704
14.0678 73.1921
14.1127 72.8786
14.1577 72.7191
14.2027 71.8915
14.2476 70.7647
14.2926 70.7726
14.3376 72.2346
14.3825 70.6772
14.4275 68.849
14.4725 68.897
14.5175 68.9769
14.5624 69.1968
14.6074 71.9197
14.6524 71.953
14.6974 70.5341
14.7424 71.7251
14.7874 77.8951
14.8324 87.4616
14.8774 108.077
14.9224 150.326
14.9674 202.931
15.0124 217.127
15.0574 152.744
15.1024 93.3541
15.1474 72.8883
15.1924 70.8242
15.2374 71.8374
15.2824 70.8594
15.3274 68.5138
15.3725 66.9578
15.4175 66.4923
15.4625 66.121
15.5076 66.6083
15.5526 66.5094
15.5976 65.8606
15.6426 66.3849
15.6877 71.5684
15.7327 78.5959
15.7778 93.3262
15.8228 122.961
15.8679 165.129
15.9129 193.664
15.958 159.968
16.003 101.003
16.0481 69.3749
16.0931 65.3812
16.1382 63.4993
16.1833 60.9343
16.2283 59.4694
16.2734 58.5673
16.3185 59.0734
16.3636 60.2094
16.4086 58.3797
16.4537 56.5949
16.4988 55.773
16.5439 55.7653
16.589 55.25
16.6341 55.021
16.6792 54.7027
16.7243 55.1243
16.7694 55.3074
16.8145 55.1949
16.8596 55.5381
16.9047 57.1747
16.9498 57.6061
16.9949 56.0654
17.04 55.8978
17.0851 56.9473
17.1302 58.509
17.1754 61.5468
17.2205 66.4544
17.2656 73.7401
17.3108 82.3736
17.3559 82.9738
17.401 72.1215
17.4462 62.7202
17.4913 59.4434
17.5365 59.3193
17.5815 59.3711
17.6268 59.6637
17.6718 60.6506
17.7171 60.948
17.7622 61.369
17.8074 61.8427
17.8525 63.9973
17.8977 67.9158
17.9428 73.0903
17.9881 81.5279
18.0331 97.7755
18.0784 119.447
18.1237 138.233
18.1688 132.057
18.214 105.329
18.2591 87.0666
18.3044 90.2146
18.3495 99.4469
18.3948 106.006
18.4399 98.4146
18.4852 79.6423
18.5303 66.9483
18.5756 62.3535
18.6207 61.4666
18.666 60.642
18.7112 59.8809
18.7565 59.024
18.8016 58.9635
18.8469 58.3181
18.892 58.0216
18.9374 57.3092
18.9825 57.0929
19.0278 56.9777
19.073 57.1814
19.1183 57.5712
19.1635 58.4953
19.2088 59.5824
19.254 61.8878
19.2993 66.239
19.3447 72.5791
19.3898 76.633
19.4352 72.9758
19.4804 64.2046
19.5257 57.2515
19.5709 54.4637
19.6163 53.9377
19.6615 53.8433
19.7068 53.5293
19.752 53.5083
19.7974 53.7044
19.8426 54.4305
19.888 55.0307
19.9332 56.231
19.9786 58.6153
20.0238 62.0876
20.0692 66.8265
20.1144 69.8449
20.1598 68.5784
20.205 63.7277
20.2504 62.1529
20.2957 63.3932
20.3411 65.6954
20.3863 64.6054
20.4318 59.0818
20.477 54.2987
20.5224 51.9042
20.5677 51.396
20.6131 50.6372
20.6586 49.7395
20.7038 49.8982
20.7493 49.2396
20.7945 49.0205
20.84 48.9657
20.8853 49.0047
20.9307 48.6876
20.976 48.7942
21.0215 48.7207
21.0668 49.2396
21.1122 49.5698
21.1575 50.1695
21.203 50.9087
21.2483 51.6239
21.2938 51.5179
21.3391 50.1762
21.3846 49.0667
21.4299 48.5967
21.4754 48.4246
21.5207 48.7129
21.5662 48.8531
21.6116 49.2781
21.6571 49.9101
21.7024 50.7916
21.7479 52.3895
21.7933 55.1026
21.8388 58.5342
21.8843 62.3372
21.9297 64.7166
21.9752 63.6824
22.0206 60.2012
22.0661 56.6967
22.1115 56.0992
22.157 56.2663
22.2024 54.7143
22.248 51.8585
22.2933 50.1989
22.3389 49.3479
22.3843 49.0971
22.4299 49.1508
22.4753 49.2285
22.5208 48.7161
22.5662 48.5379
22.6118 48.7149
22.6572 48.9485
22.7028 49.3172
22.7483 49.8019
22.7939 50.288
22.8393 51.8129
22.8849 53.9833
22.9303 55.9786
22.9759 57.6873
23.0214 57.8131
23.067 55.0526
23.1126 51.7114
23.1581 49.5215
23.2037 49.0428
23.2492 48.9762
23.2948 48.9708
23.3403 49.2159
23.3859 49.7624
23.4314 50.63
23.477 52.5965
23.5225 54.6497
23.5682 56.8252
23.6137 58.2195
23.6593 56.1704
23.7048 52.1513
23.7505 48.7045
23.796 46.9675
23.8417 46.2215
23.8872 45.8993
23.9329 45.5233
23.9784 45.0415
24.0241 44.9356
24.0697 44.7162
24.1154 44.201
24.1609 44.1609
24.2066 43.9216
24.2522 43.8248
24.2979 43.7116
24.3434 43.4969
24.3892 43.3818
24.4349 43.2532
24.4805 43.0578
24.5262 43.1589
24.5718 43.0643
24.6175 43.0774
24.6631 42.9195
24.7089 42.7006
24.7545 42.5854
24.8002 42.4823
24.8458 42.2463
24.8916 42.2304
24.9372 42.263
24.983 42.5667
25.0286 42.8575
25.0744 43.3716
25.12 43.9102
25.1658 44.4705
25.2114 44.7084
25.2572 44.8989
25.3029 44.9457
25.3487 45.0141
25.3943 44.9074
25.4402 43.8174
25.4858 42.7399
25.5316 41.6784
25.5773 41.0515
25.6231 40.9731
25.669 40.5987
25.7147 40.6375
25.7605 40.6413
25.8062 40.6752
25.8521 40.7296
25.8977 40.8054
25.9436 40.9615
25.9893 41.1828
26.0352 41.5199
26.0809 41.676
26.1268 41.8353
26.1725 41.5357
26.2184 40.9874
26.2641 40.4199
26.31 40.1213
26.3557 40.218
26.4017 40.2207
26.4474 40.4654
26.4933 40.7752
26.5391 41.2839
26.585 41.7383
26.6308 42.1088
26.6767 42.3762
26.7225 42.1529
26.7684 41.6276
26.8142 41.0376
26.8601 40.5655
26.9059 40.142
26.9519 39.7063
26.9979 39.3007
27.0437 39.0419
27.0896 38.8287
27.1354 38.8539
27.1814 38.6683
27.2272 38.6117
27.2732 38.5913
27.3191 38.4074
27.3651 38.5833
27.4109 38.6369
27.4569 38.5173
27.5027 38.6824
27.5488 38.7603
27.5946 38.555
27.6407 38.2931
27.6865 38.2269
27.7326 38.0401
27.7784 37.9011
27.8245 38.0443
27.8703 38.1445
27.9164 38.245
27.9623 38.3899
28.0084 38.7949
28.0543 39.3089
28.1003 39.348
28.1462 38.8989
28.1923 38.651
28.2384 38.2742
28.2843 37.811
28.3304 37.3679
28.3764 36.8792
28.4225 36.585
28.4684 36.4457
28.5145 36.1834
28.5605 35.9523
28.6066 35.7811
28.6526 35.7537
28.6987 35.7018
28.7447 35.5829
28.7908 35.5353
28.8368 35.6308
28.8829 35.5537
28.9289 35.4858
28.9751 35.262
29.0211 35.1229
29.0673 34.8262
29.1133 34.7161
29.1595 34.6345
29.2055 34.3711
29.2517 34.4292
29.2977 34.3726
29.3439 34.3458
29.3899 34.3594
29.4361 34.2637
29.4824 34.173
29.5284 33.8365
29.5746 33.5
29.6207 33.2634
29.6669 33.1998
29.713 33.104
29.7593 32.8541
29.8053 33.046
29.8516 32.9502
29.8977 32.8718
29.9439 32.7561
29.99 32.7684
30.0363 32.5841
30.0824 32.5744
30.1287 32.4898
30.1748 32.5394
30.2211 32.5967
30.2673 32.2958
30.3136 32.5922
30.3597 32.4271
30.406 32.4557
30.4522 32.1186
30.4985 32.1521
30.5447 32.2218
30.591 32.1877
30.6372 32.2606
30.6835 32.3303
30.7297 32.3607
30.7761 32.2986
30.8224 32.1096
30.8686 31.9874
30.915 31.7602
30.9612 31.5901
31.0076 31.4929
31.0538 31.1974
31.1002 31.3153
31.1464 30.9749
31.1928 31.0476
31.2391 31.1124
31.2855 30.9719
31.3317 31.0197
31.3781 31.0231
31.4244 31.0277
31.4708 30.9469
31.5171 30.9924
31.5636 30.8726
31.6098 30.6746
31.6563 30.5487
31.7026 30.4354
31.7491 30.1982
31.7953 30.2812
31.8418 30.3385
31.8881 30.2236
31.9346 30.1561
31.9809 30.1423
32.0275 30.0144
32.074 29.9951
32.1203 29.7421
32.1668 29.6322
32.2132 29.5211
32.2597 29.3753
32.306 29.3734
32.3526 29.1288
32.399 29.0805
32.4455 28.8877
32.4919 28.9181
32.5385 28.6989
32.5848 28.6206
32.6314 28.6496
32.6778 28.5904
32.7244 28.2959
32.7708 28.3373
32.8174 28.2244
32.8638 28.0856
32.9104 28.2286
32.9569 28.1453
33.0035 27.866
33.0499 27.9409
33.0966 27.8878
33.143 27.8515
33.1897 27.8004
33.2361 27.6629
33.2828 27.6356
33.3293 27.5522
33.3759 27.4565
33.4226 27.378
33.4691 27.2979
33.5158 27.2066
33.5623 27.006
33.609 26.916
33.6555 26.8092
33.7022 26.6636
33.7487 26.6899
33.7954 26.6302
33.842 26.4982
33.8887 26.4575
33.9353 26.4301
33.982 26.2732
34.0286 26.1817
34.0753 26.1219
34.1219 25.9913
34.1687 25.9385
34.2152 25.8285
34.262 25.7712
34.3086 25.7023
34.3554 25.6125
34.402 25.4842
34.4488 25.3486
34.4954 25.3834
34.5422 25.3469
34.5889 25.1243
34.6357 25.0427
34.6825 24.9904
34.7292 24.9726
34.776 24.8025
34.8227 24.8196
34.8695 24.7329
34.9162 24.5736
34.9631 24.6362
35.0098 24.6116
35.0566 24.4982
35.1033 24.3864
35.1502 24.3231
35.1969 24.2702
35.2438 24.2147
35.2906 24.1959
35.3375 24.2137
35.3842 24.0951
35.4311 24.1636
35.4779 24.0697
35.5248 24.0433
35.5716 23.8853
35.6185 23.8242
35.6653 23.7031
35.7123 23.5845
35.759 23.5777
35.806 23.4627
35.8528 23.3425
35.8998 23.3377
35.9468 23.2087
35.9936 23.1759
36.0406 23.0339
36.0874 23.0837
36.1345 22.9207
36.1813 22.9016
36.2283 22.7655
36.2752 22.6829
36.3222 22.7352
36.3691 22.644
36.4161 22.5243
36.463 22.5443
36.5101 22.5449
36.557 22.4802
36.6041 22.3747
36.651 22.2822
36.6981 22.2136
36.745 22.1782
36.7921 22.1654
36.839 21.9181
36.8861 21.879
36.9331 21.8274
36.9802 21.7724
37.0272 21.7129
37.0743 21.713
37.1213 21.5158
37.1684 21.5062
37.2154 21.4843
37.2626 21.3615
37.3098 21.2859
37.3568 21.2011
37.404 21.1459
37.451 21.1772
37.4982 21.0844
37.5452 20.9586
37.5924 20.8253
37.6395 20.9636
37.6867 20.8148
37.7337 20.6632
37.781 20.6345
37.8281 20.5354
37.8753 20.4625
37.9224 20.3971
37.9697 20.3599
38.0168 20.2731
38.064 20.3015
38.1111 20.1405
38.1584 20.1064
38.2056 19.9812
38.2529 20.0378
38.3 19.9476
38.3473 19.9222
38.3945 19.7294
38.4418 19.8085
38.489 19.7286
38.5363 19.619
38.5837 19.5404
38.6309 19.5073
38.6782 19.4041
38.7254 19.3426
38.7728 19.313
38.82 19.2894
38.8674 19.2109
38.9146 19.0659
38.9621 19.1229
39.0093 19.0799
39.0567 18.9716
39.104 18.9441
39.1514 18.7988
39.1987 18.7871
39.2461 18.7519
39.2934 18.6749
39.3409 18.5452
39.3882 18.5397
39.4356 18.4815
39.483 18.4647
39.5304 18.3152
39.5778 18.3266
39.6253 18.2249
39.6726 18.1747
39.7201 18.1773
39.7675 18.0336
39.815 18.026
39.8624 17.9131
39.9099 17.9173
39.9575 17.807
40.0049 17.8357
40.0525 17.7089
40.0999 17.6721
40.1474 17.6691
40.1949 17.5936
40.2425 17.5127
40.2899 17.4032
40.3375 17.4119
40.385 17.3286
40.4326 17.3023
40.48 17.17
40.5277 17.2044
40.5752 17.0846
40.6228 17.0124
40.6703 17.015
40.718 16.9209
40.7655 16.9547
40.8132 16.8581
40.8607 16.7833
40.9084 16.7222
40.9559 16.6588
41.0036 16.606
41.0512 16.5703
41.0989 16.5698
41.1465 16.4371
41.1942 16.4764
41.242 16.3346
41.2896 16.3237
41.3373 16.2301
41.3849 16.2138
41.4327 16.1764
41.4803 16.0894
41.5281 16.0306
41.5758 15.9883
41.6236 15.9239
41.6712 15.8424
41.7191 15.7726
41.7667 15.7417
41.8146 15.7839
41.8622 15.618
41.9101 15.594
41.9578 15.5238
42.0057 15.4841
42.0534 15.4314
42.1013 15.4526
42.149 15.3719
42.1969 15.2986
42.2446 15.2662
42.2925 15.2038
42.3403 15.1778
42.3882 15.0818
42.436 15.082
42.4839 15.0128
42.5319 14.9927
42.5797 14.9329
42.6277 14.8411
42.6755 14.7837
42.7235 14.6932
42.7713 14.7283
42.8193 14.5999
42.8671 14.5942
42.9152 14.6079
42.963 14.5302
43.0111 14.4025
43.0589 14.43
43.107 14.2637
43.1549 14.3254
43.2029 14.2393
43.2508 14.2401
43.2989 14.0819
43.3468 14.0868
43.3949 14.0359
43.4429 14.0122
43.491 13.9672
43.5389 13.9214
43.5871 13.8794
43.635 13.7631
43.6832 13.7365
43.7312 13.6884
43.7793 13.5883
43.8273 13.6026
43.8755 13.548
43.9237 13.5335
43.9717 13.4785
44.0199 13.4031
44.068 13.3575
44.1162 13.3555
44.1642 13.2947
44.2125 13.2481
44.2606 13.1556
44.3088 13.1867
44.3569 13.0904
44.4052 13.1161
44.4533 12.9921
44.5016 12.9412
44.5497 12.9105
44.598 12.9257
44.6461 12.8444
44.6945 12.8289
44.7426 12.7789
44.791 12.6664
44.8391 12.6764
44.8875 12.6346
44.9357 12.5761
44.984 12.5209
45.0322 12.4753
45.0806 12.4356
45.1288 12.3469
45.1773 12.2934
45.2257 12.3171
45.2739 12.2648
45.3224 12.2452
45.3706 12.1478
45.4191 12.097
45.4673 12.1074
45.5158 12.0485
45.5641 11.9847
45.6126 11.9737
45.6609 11.8993
45.7094 11.8652
45.7577 11.8817
45.8063 11.7874
45.8546 11.7246
45.9031 11.7172
45.9515 11.6665
46.0001 11.6103
46.0484 11.6018
46.097 11.5543
46.1454 11.5172
46.194 11.431
46.2424 11.3604
46.291 11.3833
46.3395 11.3412
46.3881 11.2694
46.4365 11.2724
46.4852 11.2259
46.5337 11.1707
46.5823 11.1348
46.631 11.1078
46.6795 11.0375
46.7282 11.0422
46.7767 10.9915
46.8254 10.8889
46.8739 10.9296
46.9226 10.8176
46.9712 10.8264
47.0199 10.7426
47.0685 10.7058
47.1173 10.657
47.1658 10.6457
47.2146 10.6411
47.2632 10.5159
47.312 10.5886
47.3606 10.4691
47.4095 10.4403
47.4581 10.4001
47.5069 10.3874
47.5556 10.3262
47.6044 10.2833
47.6531 10.2759
47.702 10.2143
47.7507 10.1841
47.7996 10.1474
47.8483 10.0856
47.8972 10.0808
47.9461 10.0492
47.9948 10.0113
48.0438 9.96285
48.0925 9.92593
48.1415 9.91477
48.1902 9.81865
48.2392 9.84762
48.288 9.79973
48.337 9.74196
48.3858 9.75
48.4348 9.69338
48.4837 9.66849
48.5327 9.63631
48.5815 9.59247
48.6306 9.55278
48.6795 9.51196
48.7285 9.47559
48.7774 9.42555
48.8265 9.42524
48.8754 9.38064
48.9245 9.33519
48.9734 9.28585
49.0226 9.27755
49.0715 9.25567
49.1206 9.21736
49.1696 9.08879
49.2188 9.08954
49.2679 9.07751
49.3169 9.07426
49.3661 8.98948
49.4151 8.97657
49.4643 8.97346
49.5134 8.90927
49.5626 8.82204
49.6117 8.85686
49.6609 8.81923
49.71 8.75289
49.7592 8.75726
49.8083 8.70138
49.8576 8.71324
49.9067 8.64765
49.956 8.60226
50.0052 8.55011
50.0545 8.52897
50.1036 8.50492
50.153 8.48737
50.2022 8.48292
50.2515 8.40903
50.3007 8.3646
50.3501 8.3187
50.3993 8.32438
50.4487 8.27998
50.498 8.26041
50.5474 8.19247
50.5966 8.17325
50.6461 8.1139
50.6955 8.09513
50.7448 8.10004
50.7943 8.06992
50.8436 8.01202
50.8931 8.01518
50.9424 8.00292
50.9919 7.92849
51.0413 7.89414
51.0908 7.87629
51.1402 7.83055
51.1897 7.81807
51.2391 7.82865
51.2887 7.73552
51.3381 7.69456
51.3877 7.69571
51.4371 7.61831
51.4867 7.6321
51.5362 7.61019
51.5858 7.56965
51.6353 7.5122
51.6849 7.49625
51.7344 7.46948
51.7841 7.4275
51.8336 7.40156
51.8833 7.36528
51.9328 7.35212
51.9826 7.3409
52.0323 7.27931
52.0818 7.24255
52.1316 7.23256
52.1812 7.18525
52.231 7.19852
52.2806 7.11664
52.3304 7.10148
52.38 7.05905
52.4298 7.06697
52.4794 6.99719
52.5293 6.97063
52.5789 6.96316
52.6288 6.89803
52.6785 6.86728
52.7284 6.89796
52.7781 6.82572
52.828 6.83146
52.8777 6.7584
52.9276 6.76076
52.9774 6.73862
53.0273 6.72651
53.0771 6.68018
53.1271 6.6325
53.1769 6.61769
53.2269 6.57725
53.2767 6.57344
53.3267 6.55314
53.3765 6.53492
53.4266 6.46796
53.4766 6.42
53.5265 6.40803
53.5765 6.40334
53.6264 6.36801
53.6765 6.34505
53.7264 6.29922
53.7765 6.31737
53.8265 6.26393
53.8766 6.19064
53.9266 6.15868
53.9767 6.17506
54.0267 6.16031
54.0769 6.11062
54.1269 6.0637
54.1771 6.03677
54.2271 6.02258
54.2773 5.99557
54.3274 5.94767
54.3776 5.96596
54.4277 5.8629
54.478 5.86303
54.528 5.86137
54.5783 5.80879
54.6285 5.74237
54.6788 5.73357
54.7289 5.67471
54.7792 5.62586
54.8296 5.54363
54.8798 5.50858
54.9301 5.50019
54.9803 5.4392
55.0307 5.46311
55.0809 5.42995
55.1314 5.35576
55.1816 5.3257
55.232 5.24214
55.2823 5.19929
55.3328 5.15338
55.383 5.18129
55.4335 5.11523
55.4838 5.01154
55.5344 4.98288
55.5847 4.91969
55.6352 4.95604
55.6856 4.87343
55.7361 4.82809