File: XRD/Ni3Fe_FD0096.xy
TT I
1.27165 9.06236
1.31627 7.81095
1.36089 7.92347
1.40551 6.68209
1.45013 7.59018
1.49476 7.11576
1.53938 6.81683
1.584 6.76056
1.62863 6.16301
1.67325 6.01423
1.71787 6.62486
1.7625 6.22136
1.80712 6.00335
1.85174 5.43526
1.89636 5.66987
1.94099 5.95505
1.98562 5.57395
2.03025 5.34585
2.07487 5.67096
2.11949 5.64526
2.16411 4.67642
2.20874 4.53319
2.25338 4.54147
2.298 4.56818
2.34263 4.48554
2.38725 4.37491
2.43188 4.37223
2.4765 4.08878
2.52115 3.87635
2.56577 4.21299
2.6104 4.67012
2.65503 4.44603
2.69965 5.45301
2.7443 5.48088
2.78893 6.1966
2.83356 6.37862
2.87818 8.14809
2.92281 8.69558
2.96744 8.66718
3.01209 10.1519
3.05672 11.0329
3.10135 11.797
3.14599 13.3098
3.19062 14.0958
3.23527 14.4997
3.2799 15.454
3.32454 16.8382
3.36917 17.4211
3.4138 18.4267
3.45844 19.4756
3.50309 20.4171
3.54773 20.5088
3.59237 21.88
3.637 22.3403
3.68164 22.6785
3.7263 24.0214
3.77094 24.6135
3.81558 25.7913
3.86022 26.3631
3.90486 27.6144
3.9495 28.0007
3.99416 29.0177
4.0388 30.5762
4.08344 31.2379
4.12809 32.5151
4.17273 33.5324
4.21738 35.2014
4.26204 36.2766
4.30669 37.0928
4.35133 39.3949
4.39598 40.7191
4.44063 42.3158
4.4853 44.4749
4.52995 46.5552
4.5746 48.8614
4.61925 51.2957
4.6639 53.6816
4.70855 55.8474
4.75322 59.2528
4.79788 62.4373
4.84253 65.996
4.88719 70.5204
4.93184 76.0178
4.97652 84.345
5.02118 94.2795
5.06583 107.025
5.11049 127.306
5.15515 175.424
5.19981 691.566
5.24449 3788.07
5.28916 6329.73
5.33382 7344.48
5.37848 749.425
5.42315 197.544
5.46783 141.479
5.5125 121.819
5.55716 112.829
5.60183 105.777
5.6465 102.72
5.69117 100.745
5.73586 98.9408
5.78053 98.461
5.8252 99.5723
5.86988 103.224
5.91455 113.505
5.95924 139.37
6.00392 348.445
6.0486 1444.55
6.09328 2063.85
6.13795 3800.28
6.18263 990.133
6.22733 154.413
6.27201 98.3422
6.3167 82.3203
6.36138 74.5536
6.40606 69.7901
6.45075 66.6882
6.49545 64.4869
6.54014 62.3618
6.58483 60.3672
6.62952 59.7803
6.67421 58.0404
6.71892 56.6612
6.76361 56.2539
6.8083 54.8875
6.853 54.0634
6.89769 53.6575
6.94239 53.5159
6.98711 52.5825
7.03181 52.4128
7.07651 52.0253
7.12121 51.6949
7.16591 51.5901
7.21063 51.1356
7.25533 50.919
7.30004 50.9005
7.34475 51.3898
7.38945 51.688
7.43416 50.9039
7.47889 51.6994
7.5236 60.161
7.56831 79.9155
7.61303 60.3071
7.65774 53.3108
7.70247 53.4374
7.74719 53.7869
7.79191 54.6179
7.83663 54.3444
7.88135 55.4888
7.92607 56.3441
7.97081 57.4533
8.01553 58.3756
8.06026 60.0766
8.10498 61.2053
8.14971 63.1039
8.19446 64.7393
8.23919 67.2037
8.28392 70.2831
8.32865 73.0985
8.37339 78.2658
8.41812 84.7422
8.46288 99.1354
8.50761 193.313
8.55235 658.535
8.59709 734.68
8.64183 1095.11
8.68658 1757.04
8.73134 587.605
8.77609 132.975
8.82083 101.528
8.86558 92.5628
8.91033 88.0793
8.9551 85.2355
8.99985 83.5271
9.04461 82.5283
9.08936 81.823
9.13412 80.8752
9.17888 81.2975
9.22365 94.2405
9.26841 124.79
9.31318 98.2604
9.35794 82.8778
9.4027 81.286
9.44749 81.9541
9.49226 82.7351
9.53703 83.5768
9.5818 85.0225
9.62657 86.0762
9.67134 87.8492
9.71614 89.7615
9.76091 92.2369
9.80569 94.845
9.85047 98.4422
9.89525 104.277
9.94005 117.31
9.98484 204.435
10.0296 598.98
10.0744 660.373
10.1192 729.547
10.164 1425.38
10.2088 1221.49
10.2536 290.776
10.2984 123.683
10.3432 110.247
10.388 105.613
10.4328 125.254
10.4776 230.131
10.5224 242.006
10.5672 250.743
10.612 417.88
10.6568 437.126
10.7017 168.414
10.7465 96.5214
10.7913 83.9373
10.8361 79.9711
10.8809 77.4052
10.9257 74.9429
10.9706 73.6504
11.0154 71.6613
11.0602 70.4067
11.105 69.188
11.1499 67.679
11.1947 66.5723
11.2395 65.3791
11.2844 65.2265
11.3292 64.1778
11.374 63.8594
11.4189 62.8122
11.4637 62.369
11.5086 61.6972
11.5534 61.1701
11.5983 60.9908
11.6431 61.2198
11.688 60.7366
11.7328 60.431
11.7777 60.1598
11.8225 60.3763
11.8674 60.3735
11.9122 62.632
11.9571 70.8993
12.002 70.4899
12.0468 69.6724
12.0917 93.7958
12.1366 106.332
12.1814 101.873
12.2263 121.064
12.2712 177.147
12.3161 159.514
12.3609 83.196
12.4058 64.5406
12.4507 62.725
12.4956 62.2698
12.5405 61.914
12.5853 62.5597
12.6302 62.823
12.6751 63.2773
12.72 64.2579
12.7649 64.9129
12.8098 65.6709
12.8547 67.0678
12.8996 68.4413
12.9445 69.8876
12.9894 72.0401
13.0343 74.154
13.0792 78.6079
13.1242 88.2997
13.1691 140.139
13.214 194.929
13.2589 180.958
13.3038 189.224
13.3487 278.194
13.3937 393.401
13.4386 264.17
13.4835 133.987
13.5285 164.098
13.5734 183.915
13.6183 163.949
13.6633 183.047
13.7082 277.797
13.7531 335.174
13.7981 191.789
13.843 93.4769
13.888 80.6215
13.9329 76.6142
13.9779 75.2937
14.0228 73.5439
14.0678 72.0266
14.1127 72.6191
14.1577 77.6915
14.2027 76.2221
14.2476 70.8702
14.2926 68.463
14.3376 67.9509
14.3825 67.6311
14.4275 67.2681
14.4725 67.0385
14.5175 67.2854
14.5624 67.0509
14.6074 67.3235
14.6524 67.8361
14.6974 68.6643
14.7424 70.5031
14.7874 80.9621
14.8324 110.736
14.8774 119.694
14.9224 111.381
14.9674 120.023
15.0124 158.612
15.0574 207.894
15.1024 165.348
15.1474 90.4369
15.1924 72.1397
15.2374 68.5403
15.2824 66.8953
15.3274 65.8521
15.3725 65.4108
15.4175 65.1109
15.4625 64.5443
15.5076 64.3093
15.5526 64.2035
15.5976 64.7191
15.6426 65.9054
15.6877 74.1859
15.7327 98.2666
15.7778 108.096
15.8228 99.7971
15.8679 102.248
15.9129 124.638
15.958 172.783
16.003 172.259
16.0481 104.835
16.0931 70.1272
16.1382 62.3434
16.1833 60.0334
16.2283 57.9872
16.2734 57.1007
16.3185 56.35
16.3636 55.8757
16.4086 54.8432
16.4537 54.7073
16.4988 54.1171
16.5439 53.9455
16.589 53.7676
16.6341 53.3603
16.6792 53.1781
16.7243 53.2491
16.7694 53.1143
16.8145 53.2128
16.8596 53.4236
16.9047 54.1403
16.9498 54.5658
16.9949 54.6217
17.04 54.3708
17.0851 55.9485
17.1302 60.7628
17.1754 63.8335
17.2205 62.4996
17.2656 62.7027
17.3108 66.0006
17.3559 72.8373
17.401 81.0748
17.4462 75.0613
17.4913 62.5098
17.5365 58.3968
17.5815 57.9076
17.6268 58.1555
17.6718 58.4677
17.7171 59.1046
17.7622 60.544
17.8074 61.6281
17.8525 63.3905
17.8977 72.1613
17.9428 85.1612
17.9881 87.3418
18.0331 83.4474
18.0784 85.3121
18.1237 97.5068
18.1688 127.455
18.214 149.163
18.2591 122.841
18.3044 87.9418
18.3495 79.0835
18.3948 84.6896
18.4399 97.7033
18.4852 100.593
18.5303 82.4503
18.5756 66.3557
18.6207 61.8212
18.666 60.0054
18.7112 58.9654
18.7565 58.0508
18.8016 57.8862
18.8469 57.1794
18.892 56.8823
18.9374 56.3508
18.9825 56.099
19.0278 55.7971
19.073 55.7034
19.1183 56.4784
19.1635 59.1088
19.2088 61.2547
19.254 61.0246
19.2993 60.2165
19.3447 61.5565
19.3898 64.3039
19.4352 69.8342
19.4804 73.1123
19.5257 67.034
19.5709 57.1523
19.6163 53.8762
19.6615 53.0101
19.7068 52.5167
19.752 52.4268
19.7974 52.595
19.8426 53.7238
19.888 56.369
19.9332 57.6159
19.9786 56.8819
20.0238 56.4292
20.0692 58.431
20.1144 62.7631
20.1598 69.153
20.205 71.1416
20.2504 66.1634
20.2957 59.2328
20.3411 57.8585
20.3863 61.1865
20.4318 64.0406
20.477 61.2089
20.5224 54.1559
20.5677 50.7455
20.6131 49.4843
20.6586 49.0444
20.7038 48.8231
20.7493 48.4512
20.7945 48.6913
20.84 48.4822
20.8853 48.1185
20.9307 47.7082
20.976 47.999
21.0215 48.254
21.0668 48.6771
21.1122 48.6319
21.1575 48.2067
21.203 48.1794
21.2483 48.6685
21.2938 49.822
21.3391 50.4537
21.3846 50.1443
21.4299 49.0314
21.4754 47.9288
21.5207 47.9506
21.5662 48.221
21.6116 48.6865
21.6571 50.9116
21.7024 52.6599
21.7479 53.2775
21.7933 52.355
21.8388 52.9516
21.8843 55.0251
21.9297 57.9678
21.9752 62.4289
22.0206 65.0462
22.0661 61.7209
22.1115 56.0915
22.157 53.707
22.2024 55.1093
22.248 55.1782
22.2933 53.0852
22.3389 49.8063
22.3843 48.6184
22.4299 48.2284
22.4753 47.9869
22.5208 47.9613
22.5662 47.7909
22.6118 48.1955
22.6572 48.2815
22.7028 49.6021
22.7483 50.8047
22.7939 51.1999
22.8393 50.7854
22.8849 50.6765
22.9303 50.8555
22.9759 51.9635
23.0214 54.121
23.067 57.1673
23.1126 56.8484
23.1581 53.3989
23.2037 49.8364
23.2492 48.5705
23.2948 48.953
23.3403 50.5549
23.3859 51.426
23.4314 50.8212
23.477 49.9892
23.5225 50.0969
23.5682 50.6578
23.6137 52.3481
23.6593 55.0691
23.7048 57.2233
23.7505 54.9542
23.796 49.8135
23.8417 46.6767
23.8872 45.433
23.9329 45.0351
23.9784 44.481
24.0241 44.336
24.0697 44.13
24.1154 43.6312
24.1609 43.4195
24.2066 43.3477
24.2522 43.0959
24.2979 42.94
24.3434 42.7547
24.3892 42.6124
24.4349 42.6169
24.4805 42.1907
24.5262 42.1888
24.5718 42.1868
24.6175 42.1521
24.6631 42.3226
24.7089 42.2958
24.7545 42.2054
24.8002 41.8541
24.8458 41.8907
24.8916 41.8597
24.9372 41.9735
24.983 42.0876
25.0286 42.2776
25.0744 42.5472
25.12 42.9456
25.1658 43.146
25.2114 43.1616
25.2572 43.662
25.3029 43.8761
25.3487 43.7402
25.3943 43.5575
25.4402 44.0508
25.4858 44.2493
25.5316 43.1675
25.5773 41.6031
25.6231 40.9339
25.669 40.2814
25.7147 40.2562
25.7605 40.1777
25.8062 40.3287
25.8521 40.5506
25.8977 40.35
25.9436 40.1254
25.9893 39.9659
26.0352 40.2235
26.0809 40.2069
26.1268 40.4268
26.1725 41.0171
26.2184 41.3734
26.2641 41.1656
26.31 40.5356
26.3557 40.3312
26.4017 40.1726
26.4474 40.2852
26.4933 40.1677
26.5391 40.3478
26.585 40.3058
26.6308 40.6268
26.6767 40.6331
26.7225 41.3152
26.7684 41.7934
26.8142 41.6613
26.8601 40.7337
26.9059 40.1395
26.9519 40.02
26.9979 39.5727
27.0437 38.9608
27.0896 38.5751
27.1354 38.5274
27.1814 38.3656
27.2272 38.2766
27.2732 38.3154
27.3191 38.21
27.3651 38.0387
27.4109 37.8172
27.4569 37.929
27.5027 37.7898
27.5488 37.894
27.5946 37.8331
27.6407 38.092
27.6865 38.3138
27.7326 38.0684
27.7784 38.0321
27.8245 37.675
27.8703 37.6191
27.9164 37.8269
27.9623 37.7785
28.0084 37.7193
28.0543 37.8144
28.1003 37.8992
28.1462 38.2655
28.1923 38.6419
28.2384 38.332
28.2843 37.8225
28.3304 37.4229
28.3764 37.1625
28.4225 36.7392
28.4684 36.3633
28.5145 35.7141
28.5605 35.5109
28.6066 35.4133
28.6526 35.4153
28.6987 35.2558
28.7447 35.0899
28.7908 34.945
28.8368 34.8433
28.8829 34.6942
28.9289 34.7809
28.9751 34.6825
29.0211 34.6938
29.0673 34.6189
29.1133 34.5594
29.1595 34.381
29.2055 33.9518
29.2517 33.7482
29.2977 33.8111
29.3439 33.6182
29.3899 33.5266
29.4361 33.5072
29.4824 33.4827
29.5284 33.6694
29.5746 33.426
29.6207 33.0692
29.6669 32.8108
29.713 32.6248
29.7593 32.5011
29.8053 32.5419
29.8516 32.4249
29.8977 32.3877
29.9439 32.2479
29.99 32.1504
30.0363 32.0635
30.0824 32.0574
30.1287 31.9783
30.1748 31.9933
30.2211 31.9177
30.2673 31.6723
30.3136 32.0175
30.3597 31.9786
30.406 32.1321
30.4522 31.9321
30.4985 31.7581
30.5447 31.7271
30.591 31.6185
30.6372 31.5893
30.6835 31.5633
30.7297 31.6033
30.7761 31.6203
30.8224 31.805
30.8686 31.8184
30.915 31.5324
30.9612 31.3477
31.0076 31.1884
31.0538 31.005
31.1002 30.9169
31.1464 30.7059
31.1928 30.7084
31.2391 30.6828
31.2855 30.4516
31.3317 30.399
31.3781 30.4833
31.4244 30.4587
31.4708 30.2625
31.5171 30.3626
31.5636 30.5597
31.6098 30.3257
31.6563 30.405
31.7026 30.2283
31.7491 29.9022
31.7953 29.8534
31.8418 29.7744
31.8881 29.8057
31.9346 29.7002
31.9809 29.6178
32.0275 29.4482
32.074 29.5999
32.1203 29.5127
32.1668 29.4451
32.2132 29.1456
32.2597 29.0563
32.306 29.0019
32.3526 28.7236
32.399 28.6312
32.4455 28.5043
32.4919 28.436
32.5385 28.3044
32.5848 28.205
32.6314 28.1549
32.6778 28.1489
32.7244 28.0056
32.7708 27.8672
32.8174 27.8781
32.8638 27.6219
32.9104 27.7924
32.9569 27.7171
33.0035 27.4862
33.0499 27.5042
33.0966 27.3873
33.143 27.3761
33.1897 27.2666
33.2361 27.2131
33.2828 27.2888
33.3293 27.0293
33.3759 27.1301
33.4226 26.967
33.4691 26.9777
33.5158 26.8514
33.5623 26.7196
33.609 26.4809
33.6555 26.2964
33.7022 26.2894
33.7487 26.1326
33.7954 26.1502
33.842 26.0207
33.8887 25.9726
33.9353 25.8825
33.982 25.7661
34.0286 25.8148
34.0753 25.7429
34.1219 25.6734
34.1687 25.4636
34.2152 25.4295
34.262 25.3224
34.3086 25.1521
34.3554 25.1774
34.402 25.0785
34.4488 25.0012
34.4954 25.0086
34.5422 24.9129
34.5889 24.7562
34.6357 24.7061
34.6825 24.6704
34.7292 24.552
34.776 24.4149
34.8227 24.4113
34.8695 24.2964
34.9162 24.345
34.9631 24.2296
35.0098 24.1117
35.0566 24.1545
35.1033 24.0125
35.1502 23.9528
35.1969 23.9185
35.2438 23.9025
35.2906 23.7769
35.3375 23.7851
35.3842 23.6296
35.4311 23.6348
35.4779 23.6392
35.5248 23.505
35.5716 23.4014
35.6185 23.3626
35.6653 23.4324
35.7123 23.2759
35.759 23.1715
35.806 23.0681
35.8528 23.0743
35.8998 22.9432
35.9468 22.8075
35.9936 22.8477
36.0406 22.6396
36.0874 22.6991
36.1345 22.6602
36.1813 22.5883
36.2283 22.3588
36.2752 22.3118
36.3222 22.4029
36.3691 22.3612
36.4161 22.2103
36.463 22.1323
36.5101 22.1103
36.557 22.0038
36.6041 21.8894
36.651 21.9115
36.6981 21.8408
36.745 21.817
36.7921 21.7044
36.839 21.6707
36.8861 21.5475
36.9331 21.531
36.9802 21.4023
37.0272 21.4156
37.0743 21.2441
37.1213 21.2096
37.1684 21.155
37.2154 21.0368
37.2626 20.9301
37.3098 20.931
37.3568 20.8734
37.404 20.8768
37.451 20.7609
37.4982 20.655
37.5452 20.5911
37.5924 20.5387
37.6395 20.5222
37.6867 20.3096
37.7337 20.3472
37.781 20.2909
37.8281 20.2349
37.8753 20.2397
37.9224 20.0324
37.9697 20.0271
38.0168 19.9854
38.064 19.8713
38.1111 19.8329
38.1584 19.7765
38.2056 19.7036
38.2529 19.7049
38.3 19.6074
38.3473 19.5654
38.3945 19.4158
38.4418 19.3993
38.489 19.3688
38.5363 19.2421
38.5837 19.1744
38.6309 19.1488
38.6782 19.0891
38.7254 19.0401
38.7728 18.9757
38.82 18.882
38.8674 18.9185
38.9146 18.8112
38.9621 18.7375
39.0093 18.7275
39.0567 18.6678
39.104 18.5522
39.1514 18.5125
39.1987 18.4079
39.2461 18.4133
39.2934 18.3837
39.3409 18.1644
39.3882 18.1403
39.4356 18.1522
39.483 18.0642
39.5304 18.0444
39.5778 17.985
39.6253 17.969
39.6726 17.823
39.7201 17.8201
39.7675 17.7664
39.815 17.6997
39.8624 17.667
39.9099 17.5803
39.9575 17.5305
40.0049 17.494
40.0525 17.4164
40.0999 17.3566
40.1474 17.2919
40.1949 17.2089
40.2425 17.2006
40.2899 17.0969
40.3375 17.0658
40.385 17.0213
40.4326 16.9902
40.48 16.9028
40.5277 16.8936
40.5752 16.8804
40.6228 16.7516
40.6703 16.7421
40.718 16.6991
40.7655 16.6391
40.8132 16.5385
40.8607 16.5346
40.9084 16.5152
40.9559 16.4054
41.0036 16.3696
41.0512 16.3175
41.0989 16.2442
41.1465 16.1769
41.1942 16.1945
41.242 16.0975
41.2896 16.0656
41.3373 15.9679
41.3849 15.9598
41.4327 15.9072
41.4803 15.7898
41.5281 15.7692
41.5758 15.6877
41.6236 15.6464
41.6712 15.6152
41.7191 15.5497
41.7667 15.5132
41.8146 15.4412
41.8622 15.398
41.9101 15.3571
41.9578 15.2451
42.0057 15.2428
42.0534 15.1671
42.1013 15.1457
42.149 15.0357
42.1969 14.9843
42.2446 14.9717
42.2925 14.9455
42.3403 14.8856
42.3882 14.8686
42.436 14.8034
42.4839 14.7349
42.5319 14.7132
42.5797 14.6283
42.6277 14.5739
42.6755 14.5178
42.7235 14.4707
42.7713 14.4499
42.8193 14.4252
42.8671 14.3329
42.9152 14.3187
42.963 14.2603
43.0111 14.1589
43.0589 14.1631
43.107 14.0376
43.1549 14.0768
43.2029 14.0203
43.2508 13.9525
43.2989 13.9415
43.3468 13.8296
43.3949 13.8411
43.4429 13.7435
43.491 13.6795
43.5389 13.6463
43.5871 13.5783
43.635 13.5021
43.6832 13.5256
43.7312 13.4797
43.7793 13.475
43.8273 13.3554
43.8755 13.3139
43.9237 13.329
43.9717 13.3023
44.0199 13.2112
44.068 13.1852
44.1162 13.0918
44.1642 13.1119
44.2125 13.0692
44.2606 13.0373
44.3088 12.9475
44.3569 12.9271
44.4052 12.876
44.4533 12.7899
44.5016 12.7758
44.5497 12.7073
44.598 12.6891
44.6461 12.5766
44.6945 12.5781
44.7426 12.4934
44.791 12.4567
44.8391 12.4181
44.8875 12.387
44.9357 12.3556
44.984 12.3263
45.0322 12.2401
45.0806 12.2447
45.1288 12.209
45.1773 12.1003
45.2257 12.0976
45.2739 12.0258
45.3224 12.0141
45.3706 11.9911
45.4191 11.9164
45.4673 11.8906
45.5158 11.8237
45.5641 11.7894
45.6126 11.7677
45.6609 11.7458
45.7094 11.6435
45.7577 11.6614
45.8063 11.5478
45.8546 11.584
45.9031 11.5423
45.9515 11.5167
46.0001 11.409
46.0484 11.3927
46.097 11.3345
46.1454 11.2954
46.194 11.2758
46.2424 11.2386
46.291 11.1971
46.3395 11.1219
46.3881 11.1297
46.4365 11.0689
46.4852 11.0082
46.5337 10.9559
46.5823 10.9293
46.631 10.8528
46.6795 10.8946
46.7282 10.8049
46.7767 10.8014
46.8254 10.7214
46.8739 10.6779
46.9226 10.6288
46.9712 10.6286
47.0199 10.5922
47.0685 10.5121
47.1173 10.4922
47.1658 10.4366
47.2146 10.4375
47.2632 10.3907
47.312 10.3345
47.3606 10.2863
47.4095 10.2782
47.4581 10.2208
47.5069 10.2188
47.5556 10.1125
47.6044 10.1212
47.6531 10.0825
47.702 10.013
47.7507 10.0395
47.7996 9.97075
47.8483 9.94247
47.8972 9.93438
47.9461 9.80978
47.9948 9.8527
48.0438 9.74913
48.0925 9.76996
48.1415 9.7186
48.1902 9.66391
48.2392 9.69117
48.288 9.6408
48.337 9.62734
48.3858 9.59407
48.4348 9.49284
48.4837 9.5245
48.5327 9.46
48.5815 9.4108
48.6306 9.35389
48.6795 9.39791
48.7285 9.2999
48.7774 9.30213
48.8265 9.2496
48.8754 9.19485
48.9245 9.18811
48.9734 9.16794
49.0226 9.14907
49.0715 9.09849
49.1206 9.05489
49.1696 9.00961
49.2188 8.99637
49.2679 8.93078
49.3169 8.89311
49.3661 8.87992
49.4151 8.84982
49.4643 8.83291
49.5134 8.77989
49.5626 8.73509
49.6117 8.73253
49.6609 8.66449
49.71 8.62609
49.7592 8.60449
49.8083 8.56436
49.8576 8.55151
49.9067 8.50702
49.956 8.4723
50.0052 8.44894
50.0545 8.43671
50.1036 8.36829
50.153 8.37588
50.2022 8.34248
50.2515 8.28554
50.3007 8.23801
50.3501 8.22879
50.3993 8.17962
50.4487 8.17168
50.498 8.10847
50.5474 8.10109
50.5966 8.06595
50.6461 8.0102
50.6955 8.02488
50.7448 7.98953
50.7943 7.95292
50.8436 7.9278
50.8931 7.87397
50.9424 7.87563
50.9919 7.80934
51.0413 7.80906
51.0908 7.74022
51.1402 7.72914
51.1897 7.7103
51.2391 7.69705
51.2887 7.61379
51.3381 7.58382
51.3877 7.57257
51.4371 7.55314
51.4867 7.49182
51.5362 7.48298
51.5858 7.43655
51.6353 7.41693
51.6849 7.40482
51.7344 7.37386
51.7841 7.35282
51.8336 7.27239
51.8833 7.26348
51.9328 7.21386
51.9826 7.1703
52.0323 7.16188
52.0818 7.13533
52.1316 7.07633
52.1812 7.09408
52.231 7.04528
52.2806 6.99283
52.3304 7.01139
52.38 6.95763
52.4298 6.96567
52.4794 6.88843
52.5293 6.86713
52.5789 6.88564
52.6288 6.83302
52.6785 6.77928
52.7284 6.76413
52.7781 6.73251
52.828 6.69084
52.8777 6.68543
52.9276 6.61803
52.9774 6.64613
53.0273 6.61525
53.0771 6.60866
53.1271 6.53826
53.1769 6.50221
53.2269 6.5081
53.2767 6.44145
53.3267 6.42202
53.3765 6.43109
53.4266 6.39535
53.4766 6.32308
53.5265 6.29354
53.5765 6.29247
53.6264 6.27637
53.6765 6.23343
53.7264 6.22644
53.7765 6.22127
53.8265 6.13579
53.8766 6.10293
53.9266 6.09359
53.9767 6.04944
54.0267 6.02113
54.0769 5.98709
54.1269 5.95782
54.1771 5.90916
54.2271 5.89127
54.2773 5.82337
54.3274 5.82982
54.3776 5.72784
54.4277 5.73118
54.478 5.74122
54.528 5.68652
54.5783 5.65759
54.6285 5.59572
54.6788 5.52187
54.7289 5.49656
54.7792 5.48256
54.8296 5.38525
54.8798 5.3729
54.9301 5.37635
54.9803 5.29918
55.0307 5.29218
55.0809 5.20922
55.1314 5.24499
55.1816 5.11098
55.232 5.07043
55.2823 5.00556
55.3328 4.95933
55.383 4.90134
55.4335 4.85566
55.4838 4.87405
55.5344 4.77192
55.5847 4.73052
55.6352 4.76332
55.6856 4.68209
55.7361 4.64