File: XRD/Ni3Fe_FD0948.xy
TT I
1.27165 7.36419
1.31627 6.80485
1.36089 6.50001
1.40551 5.95304
1.45013 5.95134
1.49476 5.48316
1.53938 5.46899
1.584 5.00079
1.62863 5.39887
1.67325 4.93712
1.71787 4.93781
1.7625 5.04467
1.80712 4.65454
1.85174 4.87343
1.89636 4.83552
1.94099 4.94757
1.98562 4.68292
2.03025 3.99366
2.07487 4.62712
2.11949 5.0935
2.16411 5.07991
2.20874 7.55889
2.25338 10.6152
2.298 5.32839
2.34263 5.04258
2.38725 6.35787
2.43188 6.5111
2.4765 7.49927
2.52115 6.5458
2.56577 7.58399
2.6104 8.43946
2.65503 8.4141
2.69965 7.8377
2.7443 8.38705
2.78893 8.03466
2.83356 8.61743
2.87818 8.5601
2.92281 8.71783
2.96744 9.4493
3.01209 10.393
3.05672 11.3031
3.10135 12.3138
3.14599 13.0411
3.19062 14.4101
3.23527 15.2414
3.2799 16.0469
3.32454 16.8581
3.36917 17.2124
3.4138 18.4779
3.45844 19.3067
3.50309 19.9783
3.54773 21.264
3.59237 22.9126
3.637 46.9377
3.68164 35.5407
3.7263 25.0319
3.77094 25.6335
3.81558 26.6106
3.86022 27.318
3.90486 28.8132
3.9495 29.9061
3.99416 30.6663
4.0388 31.7367
4.08344 33.3293
4.12809 33.5347
4.17273 36.0098
4.21738 39.4194
4.26204 114.152
4.30669 98.2294
4.35133 45.128
4.39598 44.3273
4.44063 48.1233
4.4853 53.1706
4.52995 56.9879
4.5746 57.6163
4.61925 53.2321
4.6639 54.8991
4.70855 57.497
4.75322 61.3508
4.79788 68.1294
4.84253 67.4825
4.88719 74.0923
4.93184 75.4396
4.97652 80.255
5.02118 87.7701
5.06583 95.7095
5.11049 104.339
5.15515 151.986
5.19981 326.542
5.24449 2732.27
5.28916 13360.7
5.33382 2775.03
5.37848 192.879
5.42315 128.989
5.46783 119.171
5.5125 111.427
5.55716 101.539
5.60183 96.4418
5.6465 94.8505
5.69117 93.0196
5.73586 91.8258
5.78053 97.4501
5.8252 97.3003
5.86988 100.495
5.91455 93.581
5.95924 100.125
6.00392 206.269
6.0486 916.124
6.09328 4541.72
6.13795 3034.76
6.18263 206.601
6.22733 88.1349
6.27201 79.1999
6.3167 82.3758
6.36138 72.9945
6.40606 69.4535
6.45075 69.1225
6.49545 64.3084
6.54014 62.848
6.58483 62.1148
6.62952 62.2426
6.67421 72.0493
6.71892 85.9707
6.76361 61.5598
6.8083 58.7166
6.853 58.9777
6.89769 56.1323
6.94239 55.5807
6.98711 54.848
7.03181 55.3811
7.07651 54.4409
7.12121 55.2002
7.16591 56.9394
7.21063 54.8753
7.25533 60.2255
7.30004 95.9694
7.34475 65.6851
7.38945 53.9896
7.43416 53.0198
7.47889 53.2057
7.5236 53.5909
7.56831 54.4064
7.61303 54.676
7.65774 55.4687
7.70247 56.5573
7.74719 55.6276
7.79191 55.628
7.83663 55.5354
7.88135 57.1433
7.92607 57.5944
7.97081 58.6509
8.01553 60.0619
8.06026 61.8477
8.10498 63.4398
8.14971 70.2298
8.19446 70.1048
8.23919 68.4215
8.28392 70.7989
8.32865 73.4853
8.37339 78.1439
8.41812 82.6127
8.46288 97.6526
8.50761 157.929
8.55235 367.564
8.59709 1184.43
8.64183 2202.07
8.68658 905.477
8.73134 155.327
8.77609 96.774
8.82083 90.9942
8.86558 92.1345
8.91033 91.608
8.9551 88.6887
8.99985 84.2954
9.04461 82.9445
9.08936 83.5221
9.13412 82.2282
9.17888 81.3854
9.22365 81.3872
9.26841 81.3396
9.31318 83.9397
9.35794 86.7384
9.4027 85.5501
9.44749 84.3263
9.49226 83.9046
9.53703 84.9382
9.5818 88.3566
9.62657 93.6203
9.67134 94.2616
9.71614 91.5062
9.76091 93.8177
9.80569 98.8014
9.85047 100.209
9.89525 110.064
9.94005 119.954
9.98484 173.649
10.0296 330.89
10.0744 828.423
10.1192 1768.34
10.164 1484.44
10.2088 361.762
10.2536 121.659
10.2984 108.145
10.3432 106.509
10.388 102.708
10.4328 116.925
10.4776 157.975
10.5224 289.547
10.5672 532.157
10.612 478.271
10.6568 187.073
10.7017 93.3207
10.7465 85.1301
10.7913 82.0712
10.8361 79.8906
10.8809 77.7599
10.9257 77.1492
10.9706 77.3738
11.0154 74.8318
11.0602 71.93
11.105 70.5842
11.1499 71.2852
11.1947 72.8392
11.2395 69.324
11.2844 67.5359
11.3292 66.0854
11.374 65.459
11.4189 64.5151
11.4637 64.2236
11.5086 63.7614
11.5534 64.321
11.5983 63.0321
11.6431 62.5937
11.688 61.8732
11.7328 61.9408
11.7777 61.935
11.8225 61.8192
11.8674 61.5796
11.9122 61.821
11.9571 62.2286
12.002 63.0932
12.0468 66.9551
12.0917 77.422
12.1366 102.898
12.1814 157.848
12.2263 204.71
12.2712 155.956
12.3161 88.7922
12.3609 66.0151
12.4058 63.1141
12.4507 63.0138
12.4956 63.959
12.5405 64.2277
12.5853 64.1525
12.6302 66.9981
12.6751 69.2627
12.72 66.897
12.7649 66.6594
12.8098 67.2928
12.8547 69.0889
12.8996 70.4987
12.9445 71.8291
12.9894 73.5272
13.0343 75.048
13.0792 78.5145
13.1242 88.4499
13.1691 108.123
13.214 146.776
13.2589 244.43
13.3038 382.117
13.3487 416.525
13.3937 240.884
13.4386 118.003
13.4835 102.942
13.5285 117.771
13.5734 158.859
13.6183 256.611
13.6633 361.7
13.7082 323.3
13.7531 175.684
13.7981 94.2082
13.843 80.6041
13.888 78.3591
13.9329 76.0437
13.9779 74.6784
14.0228 73.3466
14.0678 71.9569
14.1127 71.5288
14.1577 70.7537
14.2027 70.4987
14.2476 69.3108
14.2926 68.982
14.3376 69.3043
14.3825 68.7343
14.4275 67.9655
14.4725 67.7104
14.5175 67.8622
14.5624 67.9499
14.6074 68.9592
14.6524 69.4703
14.6974 69.293
14.7424 71.7079
14.7874 77.4724
14.8324 87.6413
14.8774 110.759
14.9224 158.015
14.9674 213.048
15.0124 212.554
15.0574 141.972
15.1024 87.6348
15.1474 71.0961
15.1924 69.2214
15.2374 68.3353
15.2824 67.6375
15.3274 66.4303
15.3725 65.7905
15.4175 65.3783
15.4625 64.8323
15.5076 64.8926
15.5526 64.6879
15.5976 64.7191
15.6426 66.4966
15.6877 71.1011
15.7327 78.6192
15.7778 94.3396
15.8228 128.62
15.8679 174.957
15.9129 191.837
15.958 147.535
16.003 91.071
16.0481 65.8674
16.0931 62.2678
16.1382 60.3527
16.1833 59.2282
16.2283 57.7465
16.2734 57.3005
16.3185 56.988
16.3636 56.7991
16.4086 55.8719
16.4537 55.0032
16.4988 54.5249
16.5439 54.4637
16.589 54.2817
16.6341 53.9528
16.6792 53.4466
16.7243 53.7353
16.7694 53.7699
16.8145 53.7451
16.8596 54.0074
16.9047 54.5606
16.9498 54.8082
16.9949 54.2454
17.04 55.0388
17.0851 55.9851
17.1302 57.6426
17.1754 60.6938
17.2205 66.3984
17.2656 74.4982
17.3108 82.1421
17.3559 79.89
17.401 68.9801
17.4462 60.8841
17.4913 58.5982
17.5365 58.3117
17.5815 58.443
17.6268 58.8618
17.6718 59.2427
17.7171 59.6326
17.7622 60.0396
17.8074 61.265
17.8525 63.6051
17.8977 67.0949
17.9428 72.1579
17.9881 81.9298
18.0331 101.007
18.0784 123.328
18.1237 136.541
18.1688 125.212
18.214 99.7394
18.2591 84.9591
18.3044 90.3029
18.3495 100.1
18.3948 103.99
18.4399 92.0516
18.4852 74.4623
18.5303 64.4644
18.5756 61.1084
18.6207 60.2535
18.666 59.3024
18.7112 58.7936
18.7565 57.9136
18.8016 57.6725
18.8469 57.1556
18.892 56.6932
18.9374 56.3751
18.9825 56.0685
19.0278 55.8134
19.073 55.7293
19.1183 56.3643
19.1635 56.8469
19.2088 58.1725
19.254 61.2611
19.2993 66.1469
19.3447 71.4315
19.3898 74.0473
19.4352 69.567
19.4804 61.3041
19.5257 55.3647
19.5709 53.2625
19.6163 52.9357
19.6615 52.9102
19.7068 52.4754
19.752 52.5503
19.7974 52.7082
19.8426 53.3648
19.888 54.0029
19.9332 55.2064
19.9786 58.1268
20.0238 62.0732
20.0692 66.8058
20.1144 69.0053
20.1598 66.6489
20.205 62.5174
20.2504 61.6827
20.2957 63.7549
20.3411 64.6083
20.3863 62.3245
20.4318 56.5964
20.477 52.2444
20.5224 50.2994
20.5677 49.7951
20.6131 49.4329
20.6586 48.9721
20.7038 48.7266
20.7493 48.2679
20.7945 48.1891
20.84 48.0528
20.8853 47.8461
20.9307 47.8533
20.976 47.8562
21.0215 47.7343
21.0668 48.1388
21.1122 48.6381
21.1575 49.3363
21.203 50.2771
21.2483 50.6999
21.2938 50.6146
21.3391 48.9348
21.3846 48.0962
21.4299 47.633
21.4754 47.5443
21.5207 47.7641
21.5662 48.2528
21.6116 48.5504
21.6571 49.081
21.7024 50.1598
21.7479 51.7865
21.7933 54.9163
21.8388 58.5244
21.8843 62.3795
21.9297 63.4938
21.9752 61.7002
22.0206 58.0411
22.0661 55.4907
22.1115 55.3454
22.157 54.9408
22.2024 52.8593
22.248 50.326
22.2933 48.8493
22.3389 48.0332
22.3843 48.0874
22.4299 47.8769
22.4753 47.8386
22.5208 47.7244
22.5662 47.5848
22.6118 47.9107
22.6572 48.0111
22.7028 48.5441
22.7483 48.8376
22.7939 49.7048
22.8393 51.2154
22.8849 53.3091
22.9303 55.6337
22.9759 56.843
23.0214 55.9357
23.067 53.1399
23.1126 50.0502
23.1581 48.3813
23.2037 47.9697
23.2492 47.9266
23.2948 47.999
23.3403 48.4049
23.3859 48.9157
23.4314 50.1738
23.477 52.0504
23.5225 54.349
23.5682 56.4745
23.6137 56.7924
23.6593 54.1173
23.7048 50.2354
23.7505 47.3962
23.796 45.6768
23.8417 45.1959
23.8872 44.8226
23.9329 44.4005
23.9784 44.0266
24.0241 43.9154
24.0697 43.6491
24.1154 43.3191
24.1609 43.2548
24.2066 42.9492
24.2522 42.9629
24.2979 42.6253
24.3434 42.3733
24.3892 42.3607
24.4349 42.4861
24.4805 42.2703
24.5262 42.3858
24.5718 42.269
24.6175 42.1512
24.6631 41.9648
24.7089 41.6256
24.7545 41.7105
24.8002 41.4626
24.8458 41.5241
24.8916 41.5078
24.9372 41.4773
24.983 41.906
25.0286 42.0919
25.0744 42.5139
25.12 42.8454
25.1658 43.6199
25.2114 43.94
25.2572 44.0635
25.3029 44.2923
25.3487 44.2239
25.3943 43.7123
25.4402 42.6179
25.4858 41.4692
25.5316 40.8365
25.5773 40.2387
25.6231 40.1954
25.669 39.9956
25.7147 39.818
25.7605 39.6684
25.8062 39.7611
25.8521 39.9433
25.8977 39.9574
25.9436 40.2468
25.9893 40.3936
26.0352 40.8492
26.0809 40.731
26.1268 41.0715
26.1725 40.5669
26.2184 40.0952
26.2641 39.6472
26.31 39.3438
26.3557 39.3584
26.4017 39.338
26.4474 39.8003
26.4933 40.0357
26.5391 40.6056
26.585 41.1374
26.6308 41.5374
26.6767 41.5128
26.7225 41.2269
26.7684 40.6824
26.8142 40.0175
26.8601 39.7188
26.9059 39.3631
26.9519 38.83
26.9979 38.5723
27.0437 38.1749
27.0896 38.0456
27.1354 38.1078
27.1814 38.0354
27.2272 37.8684
27.2732 37.8646
27.3191 37.7569
27.3651 37.8794
27.4109 37.7506
27.4569 37.92
27.5027 38.0515
27.5488 37.9524
27.5946 37.7031
27.6407 37.5064
27.6865 37.4665
27.7326 37.1637
27.7784 37.1508
27.8245 37.2091
27.8703 37.468
27.9164 37.738
27.9623 37.7719
28.0084 38.0835
28.0543 38.6165
28.1003 38.3804
28.1462 38.1869
28.1923 37.6965
28.2384 37.2561
28.2843 36.8919
28.3304 36.5521
28.3764 36.0675
28.4225 35.6273
28.4684 35.7244
28.5145 35.4044
28.5605 35.2864
28.6066 34.9743
28.6526 35.0161
28.6987 35.1025
28.7447 34.9726
28.7908 34.8331
28.8368 34.8264
28.8829 34.7304
28.9289 34.7247
28.9751 34.5576
29.0211 34.4579
29.0673 34.159
29.1133 34.0309
29.1595 33.7986
29.2055 33.6579
29.2517 33.8535
29.2977 33.6899
29.3439 33.6933
29.3899 33.6761
29.4361 33.5197
29.4824 33.2506
29.5284 33.1851
29.5746 32.7414
29.6207 32.5818
29.6669 32.4811
29.713 32.4648
29.7593 32.2851
29.8053 32.2813
29.8516 32.1616
29.8977 32.1421
29.9439 32.0871
29.99 32.0589
30.0363 31.9971
30.0824 31.9705
30.1287 31.7781
30.1748 31.9672
30.2211 31.8767
30.2673 31.7994
30.3136 31.8966
30.3597 31.713
30.406 31.6138
30.4522 31.5394
30.4985 31.5687
30.5447 31.6722
30.591 31.5943
30.6372 31.6605
30.6835 31.6462
30.7297 31.6356
30.7761 31.6663
30.8224 31.378
30.8686 31.2706
30.915 31.0079
30.9612 31.0115
31.0076 30.6808
31.0538 30.6526
31.1002 30.6176
31.1464 30.4175
31.1928 30.4461
31.2391 30.5049
31.2855 30.2319
31.3317 30.372
31.3781 30.3918
31.4244 30.4576
31.4708 30.3142
31.5171 30.2951
31.5636 30.3036
31.6098 29.9665
31.6563 29.9106
31.7026 29.7913
31.7491 29.4691
31.7953 29.6716
31.8418 29.773
31.8881 29.667
31.9346 29.5829
31.9809 29.5437
32.0275 29.4661
32.074 29.2879
32.1203 29.1239
32.1668 29.0097
32.2132 28.8974
32.2597 28.7598
32.306 28.6548
32.3526 28.5736
32.399 28.4142
32.4455 28.2685
32.4919 28.1872
32.5385 28.2633
32.5848 28.0145
32.6314 27.9831
32.6778 27.9128
32.7244 27.8522
32.7708 27.6872
32.8174 27.6899
32.8638 27.5693
32.9104 27.638
32.9569 27.5173
33.0035 27.3698
33.0499 27.4327
33.0966 27.2817
33.143 27.3279
33.1897 27.2358
33.2361 27.1597
33.2828 27.1281
33.3293 26.9863
33.3759 26.9354
33.4226 26.7772
33.4691 26.5929
33.5158 26.5657
33.5623 26.4725
33.609 26.2703
33.6555 26.2536
33.7022 26.1554
33.7487 26.1075
33.7954 25.9313
33.842 25.9272
33.8887 25.8339
33.9353 25.8975
33.982 25.6894
34.0286 25.5801
34.0753 25.5492
34.1219 25.5638
34.1687 25.4156
34.2152 25.3977
34.262 25.2485
34.3086 25.1687
34.3554 25.1688
34.402 24.8866
34.4488 24.9163
34.4954 24.8835
34.5422 24.7188
34.5889 24.6192
34.6357 24.5384
34.6825 24.4943
34.7292 24.4769
34.776 24.2994
34.8227 24.2706
34.8695 24.2382
34.9162 24.1165
34.9631 24.0736
35.0098 24.1089
35.0566 23.9617
35.1033 23.929
35.1502 23.8832
35.1969 23.8251
35.2438 23.6948
35.2906 23.7237
35.3375 23.5731
35.3842 23.4832
35.4311 23.5803
35.4779 23.5098
35.5248 23.481
35.5716 23.3677
35.6185 23.2753
35.6653 23.1711
35.7123 23.2232
35.759 23.1125
35.806 22.9481
35.8528 22.8526
35.8998 22.8524
35.9468 22.7381
35.9936 22.7252
36.0406 22.601
36.0874 22.6941
36.1345 22.5102
36.1813 22.4126
36.2283 22.2824
36.2752 22.2547
36.3222 22.2978
36.3691 22.1916
36.4161 22.0641
36.463 22.0799
36.5101 22.0405
36.557 21.9757
36.6041 21.8402
36.651 21.7992
36.6981 21.6896
36.745 21.7096
36.7921 21.6559
36.839 21.4763
36.8861 21.3984
36.9331 21.4288
36.9802 21.2723
37.0272 21.2183
37.0743 21.1626
37.1213 21.08
37.1684 21.0146
37.2154 20.9722
37.2626 20.8587
37.3098 20.8806
37.3568 20.7743
37.404 20.7365
37.451 20.6232
37.4982 20.5867
37.5452 20.3874
37.5924 20.4823
37.6395 20.4825
37.6867 20.3703
37.7337 20.2187
37.781 20.2113
37.8281 20.0982
37.8753 20.0452
37.9224 19.9644
37.9697 19.9445
38.0168 19.8822
38.064 19.8542
38.1111 19.7856
38.1584 19.7148
38.2056 19.5756
38.2529 19.6482
38.3 19.4743
38.3473 19.4505
38.3945 19.292
38.4418 19.2699
38.489 19.2311
38.5363 19.2327
38.5837 19.1042
38.6309 19.0643
38.6782 18.9919
38.7254 18.9335
38.7728 18.8791
38.82 18.8532
38.8674 18.7531
38.9146 18.6684
38.9621 18.6805
39.0093 18.6256
39.0567 18.4924
39.104 18.4903
39.1514 18.4095
39.1987 18.3613
39.2461 18.2932
39.2934 18.3035
39.3409 18.1256
39.3882 18.0817
39.4356 18.0633
39.483 17.9618
39.5304 17.8699
39.5778 17.9347
39.6253 17.8337
39.6726 17.7539
39.7201 17.7388
39.7675 17.6556
39.815 17.6301
39.8624 17.5537
39.9099 17.4934
39.9575 17.4267
40.0049 17.4372
40.0525 17.3147
40.0999 17.3252
40.1474 17.1939
40.1949 17.1375
40.2425 17.0495
40.2899 17.099
40.3375 17.0088
40.385 16.9325
40.4326 16.9303
40.48 16.8357
40.5277 16.7752
40.5752 16.7408
40.6228 16.6419
40.6703 16.667
40.718 16.6803
40.7655 16.5743
40.8132 16.4819
40.8607 16.4248
40.9084 16.4162
40.9559 16.2896
41.0036 16.3061
41.0512 16.219
41.0989 16.1782
41.1465 16.1368
41.1942 16.0604
41.242 15.9609
41.2896 15.9236
41.3373 15.9146
41.3849 15.8834
41.4327 15.7672
41.4803 15.7411
41.5281 15.7294
41.5758 15.6031
41.6236 15.5183
41.6712 15.4943
41.7191 15.4995
41.7667 15.4539
41.8146 15.3966
41.8622 15.3244
41.9101 15.2905
41.9578 15.2007
42.0057 15.1593
42.0534 15.1558
42.1013 15.0784
42.149 14.9569
42.1969 14.937
42.2446 14.9275
42.2925 14.8765
42.3403 14.7972
42.3882 14.8031
42.436 14.7099
42.4839 14.6231
42.5319 14.6358
42.5797 14.6057
42.6277 14.509
42.6755 14.4488
42.7235 14.3934
42.7713 14.3383
42.8193 14.2813
42.8671 14.2273
42.9152 14.202
42.963 14.1715
43.0111 14.0975
43.0589 14.1259
43.107 14.0085
43.1549 13.9845
43.2029 13.908
43.2508 13.873
43.2989 13.8734
43.3468 13.7438
43.3949 13.7024
43.4429 13.6791
43.491 13.6393
43.5389 13.5901
43.5871 13.5894
43.635 13.5223
43.6832 13.4611
43.7312 13.3561
43.7793 13.391
43.8273 13.3082
43.8755 13.293
43.9237 13.2203
43.9717 13.1942
44.0199 13.1104
44.068 13.0747
44.1162 13.0572
44.1642 13.0461
44.2125 12.9976
44.2606 12.9004
44.3088 12.8858
44.3569 12.7982
44.4052 12.7856
44.4533 12.7461
44.5016 12.6602
44.5497 12.6596
44.598 12.602
44.6461 12.5832
44.6945 12.4687
44.7426 12.4203
44.791 12.415
44.8391 12.4037
44.8875 12.3309
44.9357 12.2778
44.984 12.2255
45.0322 12.232
45.0806 12.0976
45.1288 12.115
45.1773 12.0416
45.2257 12.041
45.2739 11.9495
45.3224 11.9357
45.3706 11.921
45.4191 11.864
45.4673 11.8547
45.5158 11.8035
45.5641 11.7166
45.6126 11.6892
45.6609 11.627
45.7094 11.5947
45.7577 11.5923
45.8063 11.5058
45.8546 11.476
45.9031 11.4113
45.9515 11.3607
46.0001 11.3976
46.0484 11.3161
46.097 11.3007
46.1454 11.2592
46.194 11.2457
46.2424 11.1203
46.291 11.129
46.3395 11.051
46.3881 11.0155
46.4365 11.0158
46.4852 10.9093
46.5337 10.8937
46.5823 10.8677
46.631 10.8652
46.6795 10.8378
46.7282 10.7664
46.7767 10.6946
46.8254 10.6884
46.8739 10.5952
46.9226 10.6035
46.9712 10.5527
47.0199 10.5309
47.0685 10.4588
47.1173 10.4433
47.1658 10.3992
47.2146 10.37
47.2632 10.2781
47.312 10.2951
47.3606 10.2288
47.4095 10.2312
47.4581 10.2001
47.5069 10.1297
47.5556 10.0916
47.6044 10.0787
47.6531 10.0263
47.702 9.96373
47.7507 9.94768
47.7996 9.93158
47.8483 9.88657
47.8972 9.88333
47.9461 9.78483
47.9948 9.74124
48.0438 9.70815
48.0925 9.74878
48.1415 9.67591
48.1902 9.61753
48.2392 9.61527
48.288 9.57743
48.337 9.53352
48.3858 9.45422
48.4348 9.46141
48.4837 9.49027
48.5327 9.36537
48.5815 9.35357
48.6306 9.37791
48.6795 9.3108
48.7285 9.26888
48.7774 9.24013
48.8265 9.1879
48.8754 9.17569
48.9245 9.10716
48.9734 9.07808
49.0226 9.06268
49.0715 9.03233
49.1206 8.97079
49.1696 8.96746
49.2188 8.92774
49.2679 8.8815
49.3169 8.81916
49.3661 8.82441
49.4151 8.76145
49.4643 8.76957
49.5134 8.66905
49.5626 8.63415
49.6117 8.6424
49.6609 8.60011
49.71 8.54215
49.7592 8.57143
49.8083 8.46786
49.8576 8.49005
49.9067 8.42687
49.956 8.40811
50.0052 8.39125
50.0545 8.34978
50.1036 8.29819
50.153 8.28574
50.2022 8.26896
50.2515 8.24353
50.3007 8.14132
50.3501 8.17172
50.3993 8.12095
50.4487 8.07906
50.498 8.08806
50.5474 8.01594
50.5966 7.99128
50.6461 7.96849
50.6955 7.93785
50.7448 7.9217
50.7943 7.91132
50.8436 7.83209
50.8931 7.83805
50.9424 7.78378
50.9919 7.77115
51.0413 7.72271
51.0908 7.69821
51.1402 7.68295
51.1897 7.64398
51.2391 7.6157
51.2887 7.60704
51.3381 7.56927
51.3877 7.51521
51.4371 7.46865
51.4867 7.46327
51.5362 7.39561
51.5858 7.3632
51.6353 7.37497
51.6849 7.35588
51.7344 7.24786
51.7841 7.26489
51.8336 7.21579
51.8833 7.20898
51.9328 7.1728
51.9826 7.14508
52.0323 7.11778
52.0818 7.08301
52.1316 7.06012
52.1812 7.03939
52.231 6.9902
52.2806 6.96067
52.3304 6.99762
52.38 6.9036
52.4298 6.8839
52.4794 6.84639
52.5293 6.84451
52.5789 6.82304
52.6288 6.75881
52.6785 6.73234
52.7284 6.72125
52.7781 6.7073
52.828 6.62501
52.8777 6.61842
52.9276 6.61227
52.9774 6.60862
53.0273 6.56467
53.0771 6.53851
53.1271 6.55266
53.1769 6.48006
53.2269 6.42788
53.2767 6.40742
53.3267 6.38552
53.3765 6.40337
53.4266 6.31398
53.4766 6.31615
53.5265 6.29164
53.5765 6.22004
53.6264 6.23993
53.6765 6.17339
53.7264 6.17461
53.7765 6.15114
53.8265 6.13895
53.8766 6.0604
53.9266 6.07454
53.9767 6.05272
54.0267 6.0237
54.0769 6.00509
54.1269 5.96507
54.1771 5.92178
54.2271 5.89795
54.2773 5.78586
54.3274 5.83139
54.3776 5.80029
54.4277 5.72852
54.478 5.71819
54.528 5.70982
54.5783 5.63966
54.6285 5.64736
54.6788 5.57609
54.7289 5.49289
54.7792 5.45544
54.8296 5.46069
54.8798 5.44203
54.9301 5.40722
54.9803 5.40198
55.0307 5.38
55.0809 5.25452
55.1314 5.21195
55.1816 5.21413
55.232 5.15507
55.2823 5.13149
55.3328 5.02667
55.383 5.0419
55.4335 5.00546
55.4838 4.90927
55.5344 4.92332
55.5847 4.82413
55.6352 4.80308
55.6856 4.79404
55.7361 4.74021