File: XRD/Ni3Fe_FD0946.xy
TT I
1.27165 7.26963
1.31627 6.64784
1.36089 6.24289
1.40551 5.32128
1.45013 6.50933
1.49476 5.80256
1.53938 6.00309
1.584 5.28886
1.62863 5.26992
1.67325 4.89087
1.71787 5.16149
1.7625 5.10096
1.80712 4.86797
1.85174 4.59964
1.89636 4.37044
1.94099 4.46454
1.98562 4.57939
2.03025 4.85631
2.07487 4.651
2.11949 5.13872
2.16411 4.37915
2.20874 7.15676
2.25338 9.30182
2.298 5.29491
2.34263 5.26592
2.38725 6.1701
2.43188 6.40484
2.4765 7.39522
2.52115 7.75233
2.56577 8.2552
2.6104 8.70453
2.65503 8.08897
2.69965 8.54753
2.7443 9.10034
2.78893 8.65058
2.83356 9.02242
2.87818 9.26505
2.92281 9.29563
2.96744 9.7515
3.01209 10.5602
3.05672 11.0982
3.10135 11.9422
3.14599 13.2758
3.19062 14.7452
3.23527 14.906
3.2799 15.5892
3.32454 16.5357
3.36917 17.8975
3.4138 18.6399
3.45844 18.9115
3.50309 20.6033
3.54773 21.5669
3.59237 23.2353
3.637 40.4262
3.68164 32.1963
3.7263 25.4212
3.77094 25.3742
3.81558 26.2569
3.86022 26.5386
3.90486 28.304
3.9495 29.1546
3.99416 30.0359
4.0388 31.1105
4.08344 32.6441
4.12809 33.8614
4.17273 35.1726
4.21738 38.3202
4.26204 94.3705
4.30669 83.569
4.35133 43.1789
4.39598 43.2115
4.44063 47.1961
4.4853 51.3558
4.52995 59.634
4.5746 60.3132
4.61925 53.1542
4.6639 54.9674
4.70855 58.1445
4.75322 61.3813
4.79788 69.2298
4.84253 68.0131
4.88719 76.5065
4.93184 76.4099
4.97652 79.8154
5.02118 86.1575
5.06583 93.7036
5.11049 105.21
5.15515 152.71
5.19981 371.074
5.24449 2787.86
5.28916 13530.4
5.33382 2689.34
5.37848 199.062
5.42315 130.612
5.46783 122.198
5.5125 114.927
5.55716 101.295
5.60183 96.5584
5.6465 95.0239
5.69117 92.9708
5.73586 92.2814
5.78053 100.34
5.8252 100.522
5.86988 103.73
5.91455 94.4747
5.95924 101.985
6.00392 228.902
6.0486 907.211
6.09328 4610.96
6.13795 3002.93
6.18263 195.669
6.22733 87.663
6.27201 78.591
6.3167 79.7361
6.36138 72.6174
6.40606 69.5735
6.45075 70.2725
6.49545 64.3117
6.54014 62.7996
6.58483 61.7547
6.62952 62.6989
6.67421 68.3857
6.71892 79.3886
6.76361 60.295
6.8083 59.4399
6.853 60.6151
6.89769 56.4634
6.94239 55.2327
6.98711 54.5241
7.03181 55.4687
7.07651 54.0692
7.12121 54.0824
7.16591 56.2073
7.21063 54.9112
7.25533 57.9289
7.30004 85.0027
7.34475 62.5574
7.38945 54.1353
7.43416 52.9582
7.47889 53.3171
7.5236 53.1107
7.56831 54.1075
7.61303 54.4137
7.65774 55.1003
7.70247 56.5991
7.74719 55.6921
7.79191 55.4199
7.83663 55.605
7.88135 56.9082
7.92607 57.7333
7.97081 58.9067
8.01553 60.0701
8.06026 62.0426
8.10498 63.5819
8.14971 70.6031
8.19446 70.2373
8.23919 68.5035
8.28392 70.869
8.32865 72.9612
8.37339 77.3942
8.41812 82.2116
8.46288 98.3719
8.50761 170.722
8.55235 363.224
8.59709 1204.04
8.64183 2216.63
8.68658 821.925
8.73134 140.694
8.77609 95.3651
8.82083 91.3283
8.86558 92.752
8.91033 92.7502
8.9551 88.6787
8.99985 84.2081
9.04461 83.134
9.08936 83.756
9.13412 82.6036
9.17888 80.9376
9.22365 80.571
9.26841 81.2493
9.31318 84.7661
9.35794 87.7713
9.4027 86.1861
9.44749 84.727
9.49226 83.7206
9.53703 84.9475
9.5818 89.3027
9.62657 95.1944
9.67134 94.1876
9.71614 91.2203
9.76091 94.0166
9.80569 100.124
9.85047 100.987
9.89525 108.318
9.94005 123.064
9.98484 185.758
10.0296 331.237
10.0744 829.071
10.1192 1853.36
10.164 1464.26
10.2088 327.914
10.2536 117.964
10.2984 107.204
10.3432 105.782
10.388 103.462
10.4328 119.483
10.4776 157.961
10.5224 289.084
10.5672 551.766
10.612 481.957
10.6568 174.67
10.7017 91.713
10.7465 84.8632
10.7913 81.9872
10.8361 79.7269
10.8809 77.7658
10.9257 76.8892
10.9706 77.7465
11.0154 74.9548
11.0602 71.676
11.105 70.2772
11.1499 69.9868
11.1947 71.2307
11.2395 68.4969
11.2844 67.2644
11.3292 65.5874
11.374 64.9823
11.4189 64.4798
11.4637 64.0633
11.5086 63.3519
11.5534 63.905
11.5983 62.8475
11.6431 62.2123
11.688 61.6723
11.7328 61.8417
11.7777 61.6808
11.8225 62.0041
11.8674 61.6214
11.9122 61.6348
11.9571 62.2133
12.002 63.4805
12.0468 67.4697
12.0917 77.0897
12.1366 102.145
12.1814 160.87
12.2263 209.998
12.2712 153.297
12.3161 84.3974
12.3609 65.2823
12.4058 62.7319
12.4507 63.3188
12.4956 64.0231
12.5405 64.2915
12.5853 64.4213
12.6302 66.2178
12.6751 68.0057
12.72 66.8349
12.7649 66.7825
12.8098 67.4601
12.8547 69.146
12.8996 70.8541
12.9445 72.3915
12.9894 73.8663
13.0343 74.8907
13.0792 79.5609
13.1242 90.9858
13.1691 109.338
13.214 146.263
13.2589 247.462
13.3038 390.912
13.3487 418.539
13.3937 227.67
13.4386 114.348
13.4835 104.393
13.5285 118.019
13.5734 158.436
13.6183 259.746
13.6633 367.84
13.7082 320.202
13.7531 164.726
13.7981 91.2338
13.843 80.1442
13.888 78.1392
13.9329 76.1934
13.9779 74.9152
14.0228 73.1917
14.0678 71.9653
14.1127 71.15
14.1577 70.9292
14.2027 70.0146
14.2476 69.4749
14.2926 68.6739
14.3376 68.9783
14.3825 68.7096
14.4275 67.8474
14.4725 67.7568
14.5175 67.7906
14.5624 68.0674
14.6074 68.5451
14.6524 68.9913
14.6974 69.6784
14.7424 72.8716
14.7874 78.1178
14.8324 87.3212
14.8774 111.015
14.9224 159.769
14.9674 219.794
15.0124 213.947
15.0574 135.383
15.1024 83.7619
15.1474 70.713
15.1924 68.9555
15.2374 68.3572
15.2824 67.5446
15.3274 66.2626
15.3725 65.6073
15.4175 65.3278
15.4625 64.7225
15.5076 64.5772
15.5526 64.6226
15.5976 64.8581
15.6426 66.856
15.6877 71.4583
15.7327 78.5514
15.7778 94.2637
15.8228 128.518
15.8679 178.52
15.9129 196.703
15.958 143.913
16.003 86.7133
16.0481 64.7762
16.0931 61.8207
16.1382 60.1495
16.1833 58.963
16.2283 57.621
16.2734 57.0115
16.3185 56.8883
16.3636 56.5933
16.4086 55.6659
16.4537 55.0451
16.4988 54.4747
16.5439 54.5616
16.589 54.1474
16.6341 53.8728
16.6792 53.5331
16.7243 53.8933
16.7694 53.7395
16.8145 53.6516
16.8596 54.0371
16.9047 54.5123
16.9498 54.6596
16.9949 54.3486
17.04 55.1645
17.0851 56.3747
17.1302 57.5135
17.1754 60.5801
17.2205 66.2027
17.2656 75.0823
17.3108 83.3818
17.3559 80.2036
17.401 67.7838
17.4462 60.2716
17.4913 58.2841
17.5365 58.1424
17.5815 58.31
17.6268 58.758
17.6718 59.4813
17.7171 59.5888
17.7622 60.4088
17.8074 61.5524
17.8525 64.2215
17.8977 67.4228
17.9428 72.4824
17.9881 81.9559
18.0331 101.398
18.0784 126.509
18.1237 141.065
18.1688 125.37
18.214 96.8682
18.2591 83.6376
18.3044 90.7546
18.3495 101.564
18.3948 105.081
18.4399 90.6405
18.4852 72.8953
18.5303 63.5645
18.5756 60.9657
18.6207 60.012
18.666 59.2132
18.7112 58.671
18.7565 58.0603
18.8016 57.7814
18.8469 57.19
18.892 56.8298
18.9374 56.3721
18.9825 56.1021
19.0278 55.7449
19.073 55.9036
19.1183 56.2328
19.1635 56.6571
19.2088 58.3441
19.254 61.1575
19.2993 66.2015
19.3447 72.182
19.3898 75.0575
19.4352 69.223
19.4804 60.2118
19.5257 54.9884
19.5709 52.9981
19.6163 52.8949
19.6615 52.6274
19.7068 52.4449
19.752 52.4277
19.7974 52.7689
19.8426 53.4162
19.888 53.9199
19.9332 55.1963
19.9786 58.0625
20.0238 62.4603
20.0692 67.7076
20.1144 69.4576
20.1598 66.5679
20.205 61.6339
20.2504 61.4516
20.2957 64.3721
20.3411 65.2889
20.3863 62.3554
20.4318 55.9532
20.477 51.677
20.5224 50.1261
20.5677 49.7551
20.6131 49.2904
20.6586 48.7906
20.7038 48.4998
20.7493 48.1621
20.7945 48.1011
20.84 47.8931
20.8853 47.9255
20.9307 47.7371
20.976 47.9322
21.0215 47.7635
21.0668 48.1226
21.1122 48.6938
21.1575 49.4243
21.203 50.062
21.2483 50.7345
21.2938 50.4793
21.3391 49.0464
21.3846 48.0383
21.4299 47.587
21.4754 47.5432
21.5207 47.8262
21.5662 48.1939
21.6116 48.5564
21.6571 49.032
21.7024 50.0166
21.7479 51.8487
21.7933 54.9657
21.8388 58.9979
21.8843 63.1582
21.9297 64.2053
21.9752 61.2422
22.0206 57.4006
22.0661 55.4395
22.1115 55.4957
22.157 55.1008
22.2024 52.707
22.248 50.0127
22.2933 48.6411
22.3389 48.1132
22.3843 48.0534
22.4299 47.7711
22.4753 47.8185
22.5208 47.625
22.5662 47.6987
22.6118 47.9942
22.6572 48.1221
22.7028 48.3967
22.7483 48.7642
22.7939 49.5734
22.8393 51.3354
22.8849 53.6337
22.9303 55.9402
22.9759 57.3723
23.0214 55.9885
23.067 52.8911
23.1126 49.6229
23.1581 48.0256
23.2037 47.9624
23.2492 48.0703
23.2948 48.01
23.3403 48.1465
23.3859 48.8776
23.4314 50.0871
23.477 52.2125
23.5225 54.8374
23.5682 57.0239
23.6137 57.3765
23.6593 54.0426
23.7048 49.8471
23.7505 46.8695
23.796 45.6047
23.8417 45.0307
23.8872 44.7485
23.9329 44.3348
23.9784 44.1078
24.0241 43.7441
24.0697 43.7329
24.1154 43.2639
24.1609 43.1965
24.2066 42.9847
24.2522 42.9291
24.2979 42.7656
24.3434 42.5413
24.3892 42.3959
24.4349 42.3581
24.4805 42.193
24.5262 42.3506
24.5718 42.2478
24.6175 42.1214
24.6631 42.0098
24.7089 41.8038
24.7545 41.6113
24.8002 41.4188
24.8458 41.4501
24.8916 41.3528
24.9372 41.5143
24.983 41.91
25.0286 42.1102
25.0744 42.6439
25.12 43.2497
25.1658 43.7409
25.2114 43.9546
25.2572 44.1412
25.3029 44.2383
25.3487 44.2483
25.3943 43.7502
25.4402 42.4515
25.4858 41.4937
25.5316 40.5896
25.5773 40.1381
25.6231 40.1559
25.669 39.7199
25.7147 39.781
25.7605 39.7175
25.8062 39.7511
25.8521 39.9383
25.8977 39.8148
25.9436 40.1331
25.9893 40.3807
26.0352 40.9646
26.0809 40.9299
26.1268 41.1244
26.1725 40.663
26.2184 39.9945
26.2641 39.5072
26.31 39.3881
26.3557 39.4106
26.4017 39.4504
26.4474 39.6535
26.4933 40.1656
26.5391 40.7222
26.585 41.2099
26.6308 41.5454
26.6767 41.4807
26.7225 41.0851
26.7684 40.5999
26.8142 40.0656
26.8601 39.6802
26.9059 39.2175
26.9519 38.7342
26.9979 38.5007
27.0437 38.1539
27.0896 38.1655
27.1354 38.1181
27.1814 37.9339
27.2272 37.8852
27.2732 37.9887
27.3191 37.8201
27.3651 37.7878
27.4109 37.8594
27.4569 37.8818
27.5027 37.9584
27.5488 37.9945
27.5946 37.7961
27.6407 37.6323
27.6865 37.4135
27.7326 37.1707
27.7784 37.1886
27.8245 37.1909
27.8703 37.3312
27.9164 37.5883
27.9623 37.9498
28.0084 38.177
28.0543 38.6398
28.1003 38.4752
28.1462 38.126
28.1923 37.8544
28.2384 37.3105
28.2843 36.9925
28.3304 36.4058
28.3764 36.0435
28.4225 35.7716
28.4684 35.5561
28.5145 35.4166
28.5605 35.2378
28.6066 34.9803
28.6526 34.9691
28.6987 35.0553
28.7447 34.841
28.7908 34.8223
28.8368 34.8577
28.8829 34.8113
28.9289 34.7557
28.9751 34.4891
29.0211 34.2636
29.0673 34.0559
29.1133 34.0038
29.1595 33.7986
29.2055 33.7621
29.2517 33.7622
29.2977 33.7531
29.3439 33.6703
29.3899 33.6679
29.4361 33.508
29.4824 33.3855
29.5284 33.0694
29.5746 32.8806
29.6207 32.5155
29.6669 32.5502
29.713 32.4404
29.7593 32.2532
29.8053 32.3299
29.8516 32.3446
29.8977 32.1698
29.9439 32.1056
29.99 32.0182
30.0363 31.957
30.0824 32.0257
30.1287 31.905
30.1748 31.9305
30.2211 31.8217
30.2673 31.8354
30.3136 31.8898
30.3597 31.7739
30.406 31.6735
30.4522 31.6491
30.4985 31.5025
30.5447 31.6298
30.591 31.6908
30.6372 31.6206
30.6835 31.6628
30.7297 31.7999
30.7761 31.6432
30.8224 31.4779
30.8686 31.2417
30.915 31.1636
30.9612 30.8734
31.0076 30.7375
31.0538 30.6067
31.1002 30.6492
31.1464 30.4431
31.1928 30.3885
31.2391 30.482
31.2855 30.297
31.3317 30.3738
31.3781 30.4331
31.4244 30.4812
31.4708 30.2105
31.5171 30.3529
31.5636 30.2589
31.6098 29.9846
31.6563 29.912
31.7026 29.7841
31.7491 29.6294
31.7953 29.7173
31.8418 29.667
31.8881 29.6888
31.9346 29.6992
31.9809 29.6204
32.0275 29.4319
32.074 29.2609
32.1203 29.1051
32.1668 29.0184
32.2132 28.8374
32.2597 28.801
32.306 28.6694
32.3526 28.5062
32.399 28.4901
32.4455 28.3445
32.4919 28.2192
32.5385 28.23
32.5848 28.0127
32.6314 28.0749
32.6778 27.9923
32.7244 27.6833
32.7708 27.8156
32.8174 27.6414
32.8638 27.4819
32.9104 27.6405
32.9569 27.5025
33.0035 27.3899
33.0499 27.4141
33.0966 27.3887
33.143 27.2578
33.1897 27.2373
33.2361 27.2281
33.2828 27.1606
33.3293 26.876
33.3759 26.9108
33.4226 26.769
33.4691 26.6818
33.5158 26.5247
33.5623 26.4591
33.609 26.3049
33.6555 26.2493
33.7022 26.095
33.7487 26.0252
33.7954 25.9774
33.842 25.9298
33.8887 25.9399
33.9353 25.8502
33.982 25.6978
34.0286 25.5942
34.0753 25.5537
34.1219 25.4708
34.1687 25.4871
34.2152 25.3011
34.262 25.1807
34.3086 25.2117
34.3554 25.0803
34.402 24.9561
34.4488 24.8134
34.4954 24.8342
34.5422 24.8248
34.5889 24.5626
34.6357 24.5562
34.6825 24.4477
34.7292 24.4014
34.776 24.2847
34.8227 24.2704
34.8695 24.1662
34.9162 24.0756
34.9631 24.0472
35.0098 24.1087
35.0566 23.9344
35.1033 23.8912
35.1502 23.9186
35.1969 23.7676
35.2438 23.7722
35.2906 23.6787
35.3375 23.6513
35.3842 23.6368
35.4311 23.5173
35.4779 23.5643
35.5248 23.5258
35.5716 23.4082
35.6185 23.1915
35.6653 23.207
35.7123 23.2194
35.759 23.0465
35.806 22.9391
35.8528 22.8641
35.8998 22.8686
35.9468 22.8154
35.9936 22.6826
36.0406 22.6772
36.0874 22.5119
36.1345 22.5144
36.1813 22.4801
36.2283 22.3384
36.2752 22.3244
36.3222 22.2305
36.3691 22.2242
36.4161 22.1156
36.463 22.0316
36.5101 22.0065
36.557 22.0646
36.6041 21.8861
36.651 21.8494
36.6981 21.7848
36.745 21.6725
36.7921 21.6119
36.839 21.5447
36.8861 21.4034
36.9331 21.3612
36.9802 21.2821
37.0272 21.2253
37.0743 21.1337
37.1213 21.1068
37.1684 21.0445
37.2154 20.9444
37.2626 20.9233
37.3098 20.9276
37.3568 20.7318
37.404 20.7412
37.451 20.6623
37.4982 20.5493
37.5452 20.468
37.5924 20.3794
37.6395 20.5165
37.6867 20.344
37.7337 20.2815
37.781 20.1155
37.8281 20.206
37.8753 20.0077
37.9224 20.0067
37.9697 19.8899
38.0168 19.9206
38.064 19.8621
38.1111 19.8177
38.1584 19.6594
38.2056 19.6169
38.2529 19.5321
38.3 19.4737
38.3473 19.5198
38.3945 19.3113
38.4418 19.3586
38.489 19.2738
38.5363 19.2013
38.5837 19.1022
38.6309 19.0002
38.6782 18.9786
38.7254 18.9716
38.7728 18.9057
38.82 18.8395
38.8674 18.8376
38.9146 18.7024
38.9621 18.6002
39.0093 18.5382
39.0567 18.55
39.104 18.4693
39.1514 18.3778
39.1987 18.3998
39.2461 18.2944
39.2934 18.2754
39.3409 18.1793
39.3882 18.1245
39.4356 18.0622
39.483 17.9769
39.5304 17.8981
39.5778 17.9166
39.6253 17.8133
39.6726 17.8634
39.7201 17.7455
39.7675 17.6943
39.815 17.6058
39.8624 17.4859
39.9099 17.5429
39.9575 17.5153
40.0049 17.4359
40.0525 17.3074
40.0999 17.2617
40.1474 17.2635
40.1949 17.1212
40.2425 17.0953
40.2899 17.113
40.3375 17.0077
40.385 16.9144
40.4326 16.9455
40.48 16.8221
40.5277 16.857
40.5752 16.7587
40.6228 16.6139
40.6703 16.6398
40.718 16.5425
40.7655 16.5382
40.8132 16.4807
40.8607 16.4256
40.9084 16.4249
40.9559 16.3158
41.0036 16.2744
41.0512 16.2484
41.0989 16.2244
41.1465 16.1769
41.1942 16.0684
41.242 15.9474
41.2896 15.9541
41.3373 15.8876
41.3849 15.8033
41.4327 15.7515
41.4803 15.7031
41.5281 15.6669
41.5758 15.6131
41.6236 15.6058
41.6712 15.5434
41.7191 15.4824
41.7667 15.4176
41.8146 15.4026
41.8622 15.3148
41.9101 15.2363
41.9578 15.1288
42.0057 15.1218
42.0534 15.1163
42.1013 15.0406
42.149 15.0075
42.1969 14.9627
42.2446 14.8835
42.2925 14.8804
42.3403 14.8238
42.3882 14.7749
42.436 14.7145
42.4839 14.598
42.5319 14.6125
42.5797 14.5564
42.6277 14.4951
42.6755 14.4588
42.7235 14.4207
42.7713 14.3767
42.8193 14.3417
42.8671 14.2476
42.9152 14.2325
42.963 14.1607
43.0111 14.1027
43.0589 14.068
43.107 14.0645
43.1549 13.9757
43.2029 13.9365
43.2508 13.8907
43.2989 13.8296
43.3468 13.7506
43.3949 13.7521
43.4429 13.707
43.491 13.6675
43.5389 13.5787
43.5871 13.5742
43.635 13.4905
43.6832 13.4229
43.7312 13.399
43.7793 13.3702
43.8273 13.3133
43.8755 13.2582
43.9237 13.2582
43.9717 13.1517
44.0199 13.1071
44.068 13.1097
44.1162 13.0666
44.1642 13.0437
44.2125 12.9753
44.2606 12.9441
44.3088 12.8619
44.3569 12.8081
44.4052 12.8088
44.4533 12.756
44.5016 12.6802
44.5497 12.6165
44.598 12.5873
44.6461 12.5397
44.6945 12.5136
44.7426 12.4351
44.791 12.4076
44.8391 12.3534
44.8875 12.3277
44.9357 12.307
44.984 12.2589
45.0322 12.1606
45.0806 12.1391
45.1288 12.1264
45.1773 12.0897
45.2257 12.0222
45.2739 12.0226
45.3224 11.9391
45.3706 11.9016
45.4191 11.8265
45.4673 11.8349
45.5158 11.806
45.5641 11.7587
45.6126 11.7119
45.6609 11.6512
45.7094 11.6328
45.7577 11.554
45.8063 11.5157
45.8546 11.5254
45.9031 11.4285
45.9515 11.4034
46.0001 11.3583
46.0484 11.359
46.097 11.324
46.1454 11.2418
46.194 11.2341
46.2424 11.1468
46.291 11.1652
46.3395 11.0815
46.3881 11.05
46.4365 10.9849
46.4852 10.9672
46.5337 10.9323
46.5823 10.9182
46.631 10.843
46.6795 10.7838
46.7282 10.8088
46.7767 10.7289
46.8254 10.6634
46.8739 10.6337
46.9226 10.6154
46.9712 10.5789
47.0199 10.5338
47.0685 10.4597
47.1173 10.4577
47.1658 10.4121
47.2146 10.3703
47.2632 10.3858
47.312 10.2748
47.3606 10.2597
47.4095 10.1908
47.4581 10.1786
47.5069 10.1492
47.5556 10.0725
47.6044 10.0684
47.6531 10.035
47.702 9.9862
47.7507 9.96982
47.7996 9.93269
47.8483 9.8944
47.8972 9.86926
47.9461 9.81801
47.9948 9.76232
48.0438 9.71686
48.0925 9.71178
48.1415 9.68089
48.1902 9.62483
48.2392 9.62004
48.288 9.54994
48.337 9.56362
48.3858 9.46801
48.4348 9.48271
48.4837 9.45944
48.5327 9.37971
48.5815 9.39672
48.6306 9.35097
48.6795 9.29488
48.7285 9.22563
48.7774 9.19959
48.8265 9.19735
48.8754 9.13837
48.9245 9.10276
48.9734 9.08787
49.0226 9.05872
49.0715 9.0386
49.1206 8.97804
49.1696 8.94725
49.2188 8.94398
49.2679 8.86032
49.3169 8.85209
49.3661 8.77799
49.4151 8.77469
49.4643 8.74107
49.5134 8.70892
49.5626 8.63101
49.6117 8.63372
49.6609 8.61416
49.71 8.53493
49.7592 8.54064
49.8083 8.53364
49.8576 8.47601
49.9067 8.43213
49.956 8.44744
50.0052 8.42661
50.0545 8.32904
50.1036 8.30402
50.153 8.31011
50.2022 8.29598
50.2515 8.23014
50.3007 8.17391
50.3501 8.14542
50.3993 8.12817
50.4487 8.07659
50.498 8.08538
50.5474 8.03603
50.5966 8.00371
50.6461 7.98906
50.6955 7.97095
50.7448 7.91628
50.7943 7.91037
50.8436 7.84183
50.8931 7.81406
50.9424 7.78001
50.9919 7.71996
51.0413 7.74434
51.0908 7.69333
51.1402 7.66879
51.1897 7.61396
51.2391 7.60877
51.2887 7.57383
51.3381 7.52967
51.3877 7.53785
51.4371 7.48656
51.4867 7.44475
51.5362 7.40211
51.5858 7.37258
51.6353 7.33734
51.6849 7.36149
51.7344 7.27394
51.7841 7.25595
51.8336 7.22279
51.8833 7.20546
51.9328 7.20184
51.9826 7.18728
52.0323 7.14507
52.0818 7.13541
52.1316 7.0239
52.1812 7.0324
52.231 7.00731
52.2806 6.93508
52.3304 6.95649
52.38 6.90657
52.4298 6.86593
52.4794 6.86224
52.5293 6.82854
52.5789 6.80321
52.6288 6.78871
52.6785 6.73327
52.7284 6.72627
52.7781 6.7059
52.828 6.66712
52.8777 6.6204
52.9276 6.63736
52.9774 6.57519
53.0273 6.58178
53.0771 6.55075
53.1271 6.50626
53.1769 6.4468
53.2269 6.44945
53.2767 6.41172
53.3267 6.42054
53.3765 6.36057
53.4266 6.36426
53.4766 6.30319
53.5265 6.30171
53.5765 6.28041
53.6264 6.23461
53.6765 6.18876
53.7264 6.16077
53.7765 6.16259
53.8265 6.10287
53.8766 6.11541
53.9266 6.10663
53.9767 6.00385
54.0267 5.99868
54.0769 5.98332
54.1269 5.92567
54.1771 5.90121
54.2271 5.8775
54.2773 5.83802
54.3274 5.83655
54.3776 5.79451
54.4277 5.76451
54.478 5.72729
54.528 5.68311
54.5783 5.64878
54.6285 5.64673
54.6788 5.60358
54.7289 5.50134
54.7792 5.51125
54.8296 5.49344
54.8798 5.38776
54.9301 5.42374
54.9803 5.38679
55.0307 5.34934
55.0809 5.29825
55.1314 5.28831
55.1816 5.15315
55.232 5.17834
55.2823 5.13988
55.3328 5.07194
55.383 5.0281
55.4335 4.99798
55.4838 4.94064
55.5344 4.85067
55.5847 4.83253
55.6352 4.79116
55.6856 4.77717
55.7361 4.76978