File: XRD/Ni3Fe_FD0970.xy
TT I
1.27165 7.26057
1.31627 6.72106
1.36089 6.21842
1.40551 6.24067
1.45013 6.61013
1.49476 5.7282
1.53938 5.83988
1.584 6.24423
1.62863 5.30385
1.67325 4.88053
1.71787 4.83339
1.7625 4.91255
1.80712 4.53886
1.85174 4.30664
1.89636 4.31717
1.94099 4.98652
1.98562 5.08091
2.03025 4.37818
2.07487 4.78626
2.11949 4.85966
2.16411 4.79458
2.20874 14.2271
2.25338 22.2047
2.298 6.57128
2.34263 5.29146
2.38725 6.58454
2.43188 6.75485
2.4765 7.47864
2.52115 7.55822
2.56577 8.21676
2.6104 8.9539
2.65503 8.12711
2.69965 8.68653
2.7443 8.11774
2.78893 8.35171
2.83356 8.72451
2.87818 9.31899
2.92281 8.98254
2.96744 9.53994
3.01209 10.3974
3.05672 11.1647
3.10135 12.3371
3.14599 13.0025
3.19062 15.0701
3.23527 15.2806
3.2799 15.8749
3.32454 17.0439
3.36917 17.9246
3.4138 18.7939
3.45844 20.0221
3.50309 20.5154
3.54773 21.4796
3.59237 23.991
3.637 86.7716
3.68164 56.2432
3.7263 25.9177
3.77094 26.0754
3.81558 26.7746
3.86022 27.3552
3.90486 28.5406
3.9495 29.7116
3.99416 30.42
4.0388 31.8174
4.08344 33.2547
4.12809 34.7232
4.17273 36.5714
4.21738 42.4077
4.26204 233.892
4.30669 205.706
4.35133 47.997
4.39598 44.0727
4.44063 53.2201
4.4853 63.7652
4.52995 49.463
4.5746 50.5499
4.61925 52.5854
4.6639 54.4039
4.70855 57.3361
4.75322 60.0272
4.79788 62.9762
4.84253 66.1
4.88719 69.9365
4.93184 73.735
4.97652 78.8661
5.02118 84.3562
5.06583 91.5066
5.11049 101.212
5.15515 161.091
5.19981 277.932
5.24449 2389.01
5.28916 13678.4
5.33382 2902.06
5.37848 173.733
5.42315 124.193
5.46783 110.737
5.5125 103.294
5.55716 100.184
5.60183 96.5162
5.6465 94.5664
5.69117 92.6761
5.73586 90.2205
5.78053 89.5331
5.8252 89.1468
5.86988 89.4268
5.91455 90.7691
5.95924 96.6073
6.00392 171.71
6.0486 802.364
6.09328 4607.93
6.13795 3192.48
6.18263 216.45
6.22733 88.8431
6.27201 80.6665
6.3167 98.0313
6.36138 78.6443
6.40606 67.831
6.45075 66.3722
6.49545 64.3682
6.54014 62.7147
6.58483 61.878
6.62952 61.7452
6.67421 90.9134
6.71892 136.382
6.76361 67.6359
6.8083 57.7651
6.853 56.9171
6.89769 56.2918
6.94239 56.0878
6.98711 54.6079
7.03181 54.5447
7.07651 54.7475
7.12121 54.472
7.16591 54.6103
7.21063 54.7797
7.25533 69.2157
7.30004 169.038
7.34475 87.857
7.38945 55.8917
7.43416 53.59
7.47889 53.7007
7.5236 54.2187
7.56831 54.4562
7.61303 56.0271
7.65774 56.3781
7.70247 55.3911
7.74719 55.2883
7.79191 55.7259
7.83663 55.9873
7.88135 56.8989
7.92607 57.5267
7.97081 58.8952
8.01553 59.5513
8.06026 60.857
8.10498 62.7817
8.14971 71.9155
8.19446 70.7229
8.23919 68.3941
8.28392 70.3749
8.32865 72.4375
8.37339 76.3831
8.41812 82.8245
8.46288 108.782
8.50761 142.808
8.55235 331.674
8.59709 1146.19
8.64183 2289.86
8.68658 929.199
8.73134 159.662
8.77609 96.1274
8.82083 90.4283
8.86558 87.8307
8.91033 88.0617
8.9551 89.488
8.99985 83.8934
9.04461 81.8729
9.08936 81.0704
9.13412 80.173
9.17888 80.5541
9.22365 81.375
9.26841 80.5311
9.31318 81.023
9.35794 81.2741
9.4027 81.762
9.44749 82.2786
9.49226 82.9974
9.53703 83.7887
9.5818 85.5363
9.62657 90.0894
9.67134 95.8971
9.71614 91.4535
9.76091 91.7085
9.80569 94.5482
9.85047 97.9175
9.89525 120.238
9.94005 130.481
9.98484 155.686
10.0296 299.547
10.0744 771.429
10.1192 1800.32
10.164 1532.37
10.2088 361.072
10.2536 121.821
10.2984 110.28
10.3432 111.383
10.388 101.665
10.4328 110.263
10.4776 147.881
10.5224 272.474
10.5672 524.678
10.612 497.984
10.6568 195.43
10.7017 94.6228
10.7465 84.6739
10.7913 81.5462
10.8361 79.5651
10.8809 77.4884
10.9257 76.9883
10.9706 77.4306
11.0154 73.7345
11.0602 71.4038
11.105 70.3979
11.1499 74.9057
11.1947 81.2547
11.2395 72.7761
11.2844 68.8118
11.3292 66.237
11.374 64.7963
11.4189 64.2447
11.4637 63.5447
11.5086 64.4042
11.5534 66.9854
11.5983 64.2142
11.6431 62.591
11.688 61.8747
11.7328 61.7589
11.7777 61.52
11.8225 61.1781
11.8674 61.1222
11.9122 61.5476
11.9571 61.5994
12.002 62.2689
12.0468 65.3406
12.0917 74.9596
12.1366 97.9078
12.1814 154.719
12.2263 207.304
12.2712 161.185
12.3161 94.9065
12.3609 69.3367
12.4058 63.3726
12.4507 62.9509
12.4956 63.267
12.5405 63.3883
12.5853 64.3356
12.6302 71.8891
12.6751 76.3241
12.72 68.2949
12.7649 66.4028
12.8098 66.7089
12.8547 68.1852
12.8996 69.2672
12.9445 70.7544
12.9894 72.3355
13.0343 73.9819
13.0792 77.1886
13.1242 83.4806
13.1691 103.948
13.214 138.786
13.2589 233.205
13.3038 380.162
13.3487 424.06
13.3937 245.594
13.4386 118.532
13.4835 99.51
13.5285 112.523
13.5734 150.078
13.6183 248.541
13.6633 359.607
13.7082 327.687
13.7531 177.049
13.7981 94.7921
13.843 80.0109
13.888 77.7847
13.9329 75.6505
13.9779 74.3943
14.0228 72.6029
14.0678 71.289
14.1127 70.9605
14.1577 70.8621
14.2027 69.91
14.2476 69.1366
14.2926 69.3426
14.3376 70.2694
14.3825 68.7197
14.4275 67.5096
14.4725 67.1989
14.5175 67.5253
14.5624 67.5504
14.6074 69.4896
14.6524 70.0648
14.6974 68.7152
14.7424 69.8846
14.7874 75.1242
14.8324 84.3745
14.8774 106.313
14.9224 152.144
14.9674 212.956
15.0124 217.074
15.0574 145.639
15.1024 87.8908
15.1474 70.8294
15.1924 68.936
15.2374 69.4604
15.2824 68.7342
15.3274 66.5837
15.3725 65.5107
15.4175 65.0197
15.4625 64.579
15.5076 65.0322
15.5526 64.7402
15.5976 64.4617
15.6426 64.7361
15.6877 69.0703
15.7327 76.1026
15.7778 90.8597
15.8228 124.489
15.8679 175.167
15.9129 196.878
15.958 150.808
16.003 94.0429
16.0481 66.8631
16.0931 63.1499
16.1382 61.605
16.1833 59.3464
16.2283 57.8825
16.2734 57.2945
16.3185 57.5283
16.3636 58.072
16.4086 56.6335
16.4537 54.9951
16.4988 54.3471
16.5439 54.3802
16.589 53.9384
16.6341 53.8792
16.6792 53.5442
16.7243 53.754
16.7694 53.8642
16.8145 53.7245
16.8596 54.1153
16.9047 55.4567
16.9498 55.8629
16.9949 54.5591
17.04 54.5932
17.0851 55.4154
17.1302 57.0643
17.1754 59.9205
17.2205 65.2526
17.2656 73.7588
17.3108 82.6279
17.3559 80.2871
17.401 69.0776
17.4462 60.6773
17.4913 57.8647
17.5365 57.7632
17.5815 58.0747
17.6268 58.3979
17.6718 59.0779
17.7171 59.5137
17.7622 59.8056
17.8074 60.3272
17.8525 62.0956
17.8977 65.597
17.9428 70.6709
17.9881 79.8084
18.0331 98.3054
18.0784 123.373
18.1237 137.796
18.1688 124.931
18.214 99.1976
18.2591 83.8948
18.3044 89.4649
18.3495 101.119
18.3948 105.931
18.4399 93.8275
18.4852 75.269
18.5303 64.6037
18.5756 61.0594
18.6207 60.0046
18.666 59.3453
18.7112 58.5128
18.7565 57.8533
18.8016 57.3547
18.8469 56.748
18.892 56.7888
18.9374 56.2379
18.9825 55.867
19.0278 55.8427
19.073 55.8152
19.1183 55.9065
19.1635 56.7189
19.2088 57.9745
19.254 60.8785
19.2993 65.672
19.3447 72.0234
19.3898 75.1658
19.4352 70.0909
19.4804 61.4357
19.5257 55.4018
19.5709 53.0088
19.6163 52.8261
19.6615 52.5768
19.7068 52.0529
19.752 52.128
19.7974 52.2858
19.8426 52.9389
19.888 53.8195
19.9332 54.6734
19.9786 57.4149
20.0238 61.4034
20.0692 66.843
20.1144 68.7223
20.1598 66.2078
20.205 62.058
20.2504 61.2464
20.2957 63.7131
20.3411 65.1392
20.3863 62.6168
20.4318 57.03
20.477 52.328
20.5224 50.5647
20.5677 49.9785
20.6131 49.3902
20.6586 48.6717
20.7038 48.6328
20.7493 48.1829
20.7945 47.9835
20.84 47.8466
20.8853 47.7173
20.9307 47.6808
20.976 47.6626
21.0215 47.5363
21.0668 47.9975
21.1122 48.5446
21.1575 49.2414
21.203 49.982
21.2483 50.5228
21.2938 50.3034
21.3391 48.9025
21.3846 47.7842
21.4299 47.4664
21.4754 47.3926
21.5207 47.2987
21.5662 47.7251
21.6116 47.9161
21.6571 48.6177
21.7024 49.537
21.7479 51.2762
21.7933 54.2864
21.8388 58.1857
21.8843 62.2654
21.9297 63.3884
21.9752 61.762
22.0206 58.1357
22.0661 55.4909
22.1115 55.3167
22.157 54.8995
22.2024 53.0364
22.248 50.4865
22.2933 48.9532
22.3389 48.3192
22.3843 47.9886
22.4299 48.0752
22.4753 48.0142
22.5208 47.6265
22.5662 47.6007
22.6118 47.7332
22.6572 47.8577
22.7028 48.1238
22.7483 48.5457
22.7939 49.2958
22.8393 51.034
22.8849 53.1508
22.9303 55.6469
22.9759 56.8936
23.0214 56.0635
23.067 53.3564
23.1126 49.976
23.1581 48.2967
23.2037 47.848
23.2492 47.842
23.2948 47.813
23.3403 47.9989
23.3859 48.5624
23.4314 49.6198
23.477 51.7
23.5225 54.6055
23.5682 56.4335
23.6137 56.9973
23.6593 54.4518
23.7048 50.4026
23.7505 47.346
23.796 45.7786
23.8417 45.0915
23.8872 44.7294
23.9329 44.3755
23.9784 44.0623
24.0241 43.6641
24.0697 43.5941
24.1154 43.2988
24.1609 43.2009
24.2066 42.9239
24.2522 42.8891
24.2979 42.6208
24.3434 42.3989
24.3892 42.2632
24.4349 42.3653
24.4805 42.1809
24.5262 42.3523
24.5718 42.2454
24.6175 42.083
24.6631 41.8701
24.7089 41.6951
24.7545 41.7025
24.8002 41.5176
24.8458 41.4673
24.8916 41.1483
24.9372 41.4756
24.983 41.5985
25.0286 42.0335
25.0744 42.5396
25.12 43.1679
25.1658 43.5768
25.2114 43.7376
25.2572 44.0202
25.3029 44.2007
25.3487 44.2915
25.3943 43.7146
25.4402 42.4774
25.4858 41.5761
25.5316 40.6074
25.5773 40.2604
25.6231 40.2859
25.669 39.9315
25.7147 39.7276
25.7605 39.7228
25.8062 39.7436
25.8521 39.8765
25.8977 39.5504
25.9436 39.9975
25.9893 40.3204
26.0352 40.7989
26.0809 40.8802
26.1268 40.9828
26.1725 40.5038
26.2184 39.98
26.2641 39.4773
26.31 39.3113
26.3557 39.314
26.4017 39.324
26.4474 39.6329
26.4933 39.7831
26.5391 40.5312
26.585 41.1406
26.6308 41.3224
26.6767 41.4383
26.7225 41.2299
26.7684 40.6266
26.8142 40.1556
26.8601 39.6669
26.9059 39.4317
26.9519 38.6723
26.9979 38.4548
27.0437 38.1796
27.0896 37.9954
27.1354 38.0867
27.1814 37.878
27.2272 37.7818
27.2732 37.9566
27.3191 37.7313
27.3651 37.7515
27.4109 37.6691
27.4569 37.8323
27.5027 37.9096
27.5488 37.9815
27.5946 37.7001
27.6407 37.331
27.6865 37.3044
27.7326 37.2209
27.7784 37.1323
27.8245 37.0128
27.8703 37.2793
27.9164 37.5884
27.9623 37.6703
28.0084 38.0696
28.0543 38.3763
28.1003 38.1958
28.1462 38.0345
28.1923 37.7589
28.2384 37.3565
28.2843 36.878
28.3304 36.3894
28.3764 36.0376
28.4225 35.861
28.4684 35.5453
28.5145 35.2859
28.5605 35.1177
28.6066 34.8979
28.6526 34.9949
28.6987 34.9519
28.7447 34.8444
28.7908 34.7458
28.8368 34.7482
28.8829 34.7521
28.9289 34.6435
28.9751 34.4556
29.0211 34.2679
29.0673 33.9674
29.1133 33.9171
29.1595 33.7384
29.2055 33.6433
29.2517 33.7734
29.2977 33.7317
29.3439 33.6829
29.3899 33.7227
29.4361 33.5273
29.4824 33.3054
29.5284 33.1825
29.5746 32.7221
29.6207 32.6619
29.6669 32.563
29.713 32.4511
29.7593 32.2727
29.8053 32.2328
29.8516 32.1854
29.8977 32.1611
29.9439 32.0649
29.99 31.9236
30.0363 31.8983
30.0824 31.925
30.1287 31.8325
30.1748 31.8663
30.2211 31.7957
30.2673 31.6261
30.3136 31.7702
30.3597 31.662
30.406 31.6565
30.4522 31.4938
30.4985 31.4603
30.5447 31.5901
30.591 31.589
30.6372 31.6734
30.6835 31.567
30.7297 31.6519
30.7761 31.641
30.8224 31.3384
30.8686 31.1696
30.915 30.9835
30.9612 30.9635
31.0076 30.7181
31.0538 30.69
31.1002 30.4831
31.1464 30.322
31.1928 30.4092
31.2391 30.4558
31.2855 30.3622
31.3317 30.3234
31.3781 30.4043
31.4244 30.3594
31.4708 30.2885
31.5171 30.2829
31.5636 30.2893
31.6098 29.9904
31.6563 29.7781
31.7026 29.6606
31.7491 29.6057
31.7953 29.6778
31.8418 29.5694
31.8881 29.6565
31.9346 29.6108
31.9809 29.4482
32.0275 29.3425
32.074 29.2362
32.1203 29.0278
32.1668 29.0093
32.2132 28.9354
32.2597 28.723
32.306 28.7042
32.3526 28.5496
32.399 28.4134
32.4455 28.2961
32.4919 28.2334
32.5385 28.1018
32.5848 27.9892
32.6314 28.0163
32.6778 27.9546
32.7244 27.8375
32.7708 27.5898
32.8174 27.741
32.8638 27.5797
32.9104 27.5676
32.9569 27.5261
33.0035 27.3509
33.0499 27.3508
33.0966 27.2591
33.143 27.2752
33.1897 27.2342
33.2361 27.1564
33.2828 27.1408
33.3293 26.8814
33.3759 26.9062
33.4226 26.7852
33.4691 26.6909
33.5158 26.5508
33.5623 26.4369
33.609 26.2851
33.6555 26.2337
33.7022 26.069
33.7487 26.0485
33.7954 26.0072
33.842 25.9741
33.8887 25.8871
33.9353 25.7528
33.982 25.6416
34.0286 25.5827
34.0753 25.4857
34.1219 25.5759
34.1687 25.337
34.2152 25.3419
34.262 25.161
34.3086 25.176
34.3554 25.0797
34.402 24.9363
34.4488 24.9123
34.4954 24.7856
34.5422 24.707
34.5889 24.6571
34.6357 24.5725
34.6825 24.4624
34.7292 24.3576
34.776 24.3089
34.8227 24.2149
34.8695 24.1762
34.9162 24.2443
34.9631 24.0938
35.0098 23.9368
35.0566 23.8752
35.1033 23.8186
35.1502 23.7939
35.1969 23.8019
35.2438 23.6867
35.2906 23.7257
35.3375 23.694
35.3842 23.5875
35.4311 23.6079
35.4779 23.5235
35.5248 23.4704
35.5716 23.3462
35.6185 23.2143
35.6653 23.1951
35.7123 23.1516
35.759 23.0137
35.806 22.9299
35.8528 22.8464
35.8998 22.8038
35.9468 22.7398
35.9936 22.6846
36.0406 22.6924
36.0874 22.5871
36.1345 22.4719
36.1813 22.3794
36.2283 22.3304
36.2752 22.2851
36.3222 22.3243
36.3691 22.1587
36.4161 22.1032
36.463 22.0551
36.5101 22.0903
36.557 21.9734
36.6041 21.7655
36.651 21.8352
36.6981 21.7953
36.745 21.6438
36.7921 21.6036
36.839 21.4273
36.8861 21.4033
36.9331 21.2984
36.9802 21.2963
37.0272 21.1639
37.0743 21.1413
37.1213 21.0808
37.1684 21.0173
37.2154 20.9362
37.2626 20.8422
37.3098 20.8164
37.3568 20.8226
37.404 20.6943
37.451 20.6165
37.4982 20.5806
37.5452 20.4946
37.5924 20.4089
37.6395 20.4522
37.6867 20.3369
37.7337 20.2615
37.781 20.2187
37.8281 20.163
37.8753 19.9694
37.9224 19.9891
37.9697 19.8623
38.0168 19.8191
38.064 19.7939
38.1111 19.7878
38.1584 19.7083
38.2056 19.6469
38.2529 19.5633
38.3 19.5059
38.3473 19.497
38.3945 19.3046
38.4418 19.3251
38.489 19.332
38.5363 19.1869
38.5837 19.1195
38.6309 19.0602
38.6782 18.9788
38.7254 18.9631
38.7728 18.8273
38.82 18.8632
38.8674 18.7104
38.9146 18.6981
38.9621 18.6334
39.0093 18.6134
39.0567 18.5299
39.104 18.4838
39.1514 18.3307
39.1987 18.3378
39.2461 18.3161
39.2934 18.279
39.3409 18.1473
39.3882 18.0795
39.4356 18.0511
39.483 17.9656
39.5304 17.9581
39.5778 17.951
39.6253 17.7952
39.6726 17.8351
39.7201 17.7428
39.7675 17.6707
39.815 17.6131
39.8624 17.5819
39.9099 17.5085
39.9575 17.3789
40.0049 17.3797
40.0525 17.3041
40.0999 17.2429
40.1474 17.2653
40.1949 17.1749
40.2425 17.1071
40.2899 16.9843
40.3375 17.0168
40.385 16.98
40.4326 16.933
40.48 16.8809
40.5277 16.7636
40.5752 16.7435
40.6228 16.6821
40.6703 16.619
40.718 16.6103
40.7655 16.5473
40.8132 16.4457
40.8607 16.4981
40.9084 16.4084
40.9559 16.3663
41.0036 16.2706
41.0512 16.1738
41.0989 16.2123
41.1465 16.0919
41.1942 16.0725
41.242 16.0033
41.2896 15.9631
41.3373 15.8657
41.3849 15.8586
41.4327 15.7514
41.4803 15.7322
41.5281 15.6393
41.5758 15.6458
41.6236 15.5439
41.6712 15.4611
41.7191 15.4175
41.7667 15.4233
41.8146 15.4539
41.8622 15.3453
41.9101 15.2472
41.9578 15.1795
42.0057 15.1615
42.0534 15.1287
42.1013 15.0999
42.149 15.0785
42.1969 14.9032
42.2446 14.9163
42.2925 14.8701
42.3403 14.813
42.3882 14.7946
42.436 14.7501
42.4839 14.6941
42.5319 14.6319
42.5797 14.4905
42.6277 14.5353
42.6755 14.5322
42.7235 14.4522
42.7713 14.3609
42.8193 14.3835
42.8671 14.2741
42.9152 14.217
42.963 14.1782
43.0111 14.1059
43.0589 14.1205
43.107 14.0999
43.1549 13.9695
43.2029 13.9192
43.2508 13.9528
43.2989 13.8691
43.3468 13.7907
43.3949 13.7846
43.4429 13.6973
43.491 13.6669
43.5389 13.6344
43.5871 13.5609
43.635 13.5442
43.6832 13.531
43.7312 13.4341
43.7793 13.3683
43.8273 13.3964
43.8755 13.2446
43.9237 13.2727
43.9717 13.1839
44.0199 13.1569
44.068 13.0604
44.1162 13.0622
44.1642 13.0068
44.2125 12.9897
44.2606 12.89
44.3088 12.8371
44.3569 12.8295
44.4052 12.8258
44.4533 12.7708
44.5016 12.6921
44.5497 12.6382
44.598 12.5967
44.6461 12.5352
44.6945 12.5031
44.7426 12.4764
44.791 12.3942
44.8391 12.4212
44.8875 12.3148
44.9357 12.2893
44.984 12.244
45.0322 12.2303
45.0806 12.173
45.1288 12.1542
45.1773 12.0531
45.2257 12.0366
45.2739 12.0019
45.3224 11.9352
45.3706 11.9255
45.4191 11.8419
45.4673 11.8307
45.5158 11.774
45.5641 11.7249
45.6126 11.7066
45.6609 11.6321
45.7094 11.582
45.7577 11.5866
45.8063 11.4806
45.8546 11.4984
45.9031 11.4451
45.9515 11.3987
46.0001 11.3979
46.0484 11.3312
46.097 11.2943
46.1454 11.2547
46.194 11.2188
46.2424 11.1475
46.291 11.1528
46.3395 11.1041
46.3881 11.0485
46.4365 11.0472
46.4852 10.9799
46.5337 10.9263
46.5823 10.9165
46.631 10.8382
46.6795 10.8445
46.7282 10.8034
46.7767 10.7225
46.8254 10.6301
46.8739 10.6623
46.9226 10.6153
46.9712 10.6012
47.0199 10.5091
47.0685 10.5103
47.1173 10.4773
47.1658 10.4112
47.2146 10.3544
47.2632 10.285
47.312 10.2863
47.3606 10.2694
47.4095 10.2082
47.4581 10.1792
47.5069 10.1486
47.5556 10.0682
47.6044 10.0893
47.6531 10.0523
47.702 10.0243
47.7507 9.956
47.7996 9.919
47.8483 9.8657
47.8972 9.87194
47.9461 9.86931
47.9948 9.78161
48.0438 9.75655
48.0925 9.71724
48.1415 9.67846
48.1902 9.62861
48.2392 9.62495
48.288 9.58259
48.337 9.53288
48.3858 9.48662
48.4348 9.48611
48.4837 9.47045
48.5327 9.42114
48.5815 9.3429
48.6306 9.33582
48.6795 9.30704
48.7285 9.25203
48.7774 9.26266
48.8265 9.2451
48.8754 9.15785
48.9245 9.1239
48.9734 9.04227
49.0226 9.07458
49.0715 9.02444
49.1206 8.98663
49.1696 8.95667
49.2188 8.94044
49.2679 8.89049
49.3169 8.82505
49.3661 8.78595
49.4151 8.76867
49.4643 8.74285
49.5134 8.68623
49.5626 8.66751
49.6117 8.64978
49.6609 8.60863
49.71 8.56438
49.7592 8.57708
49.8083 8.44334
49.8576 8.4872
49.9067 8.44594
49.956 8.41638
50.0052 8.37158
50.0545 8.36025
50.1036 8.34701
50.153 8.28382
50.2022 8.25903
50.2515 8.24271
50.3007 8.16152
50.3501 8.17506
50.3993 8.11893
50.4487 8.1185
50.498 8.09423
50.5474 8.05248
50.5966 7.99095
50.6461 7.95493
50.6955 7.93503
50.7448 7.91033
50.7943 7.90457
50.8436 7.83147
50.8931 7.83725
50.9424 7.79372
50.9919 7.75724
51.0413 7.74386
51.0908 7.67926
51.1402 7.70804
51.1897 7.64021
51.2391 7.61519
51.2887 7.61601
51.3381 7.54961
51.3877 7.51306
51.4371 7.46406
51.4867 7.45668
51.5362 7.40625
51.5858 7.39984
51.6353 7.36941
51.6849 7.34196
51.7344 7.27781
51.7841 7.28587
51.8336 7.24478
51.8833 7.20439
51.9328 7.15402
51.9826 7.16953
52.0323 7.10079
52.0818 7.09227
52.1316 7.05185
52.1812 7.01803
52.231 7.04922
52.2806 6.99557
52.3304 6.97986
52.38 6.96221
52.4298 6.88702
52.4794 6.84878
52.5293 6.80319
52.5789 6.83778
52.6288 6.77225
52.6785 6.76574
52.7284 6.75815
52.7781 6.67644
52.828 6.6689
52.8777 6.6987
52.9276 6.60666
52.9774 6.61207
53.0273 6.62843
53.0771 6.53414
53.1271 6.54334
53.1769 6.4781
53.2269 6.44203
53.2767 6.44199
53.3267 6.39599
53.3765 6.39103
53.4266 6.34261
53.4766 6.30115
53.5265 6.24803
53.5765 6.25739
53.6264 6.20593
53.6765 6.16401
53.7264 6.13674
53.7765 6.14975
53.8265 6.11498
53.8766 6.07903
53.9266 6.07961
53.9767 6.01553
54.0267 5.99833
54.0769 5.97852
54.1269 5.94228
54.1771 5.92662
54.2271 5.89413
54.2773 5.8759
54.3274 5.82385
54.3776 5.77918
54.4277 5.74528
54.478 5.75665
54.528 5.73905
54.5783 5.70544
54.6285 5.63356
54.6788 5.61472
54.7289 5.56706
54.7792 5.50813
54.8296 5.4781
54.8798 5.41788
54.9301 5.34943
54.9803 5.35947
55.0307 5.33568
55.0809 5.24702
55.1314 5.28384
55.1816 5.14014
55.232 5.18751
55.2823 5.16583
55.3328 5.03758
55.383 4.986
55.4335 4.9862
55.4838 4.91795
55.5344 4.89666
55.5847 4.85669
55.6352 4.7759
55.6856 4.7771
55.7361 4.75875