File: XRD/Ni3Fe_FD0424.xy
TT I
1.27165 7.59531
1.31627 6.43357
1.36089 6.6715
1.40551 6.31766
1.45013 6.25977
1.49476 6.05689
1.53938 5.66605
1.584 4.89215
1.62863 4.98142
1.67325 4.81479
1.71787 5.05272
1.7625 5.18214
1.80712 4.86778
1.85174 4.97484
1.89636 4.55554
1.94099 5.08679
1.98562 4.41088
2.03025 4.31044
2.07487 4.49446
2.11949 4.90524
2.16411 5.26318
2.20874 18.4582
2.25338 31.5353
2.298 6.1169
2.34263 5.25256
2.38725 5.54008
2.43188 5.51522
2.4765 6.31429
2.52115 5.87363
2.56577 6.6533
2.6104 6.99207
2.65503 6.64122
2.69965 7.43455
2.7443 7.08106
2.78893 7.38387
2.83356 8.3658
2.87818 8.11482
2.92281 8.90278
2.96744 9.71065
3.01209 10.2205
3.05672 11.4048
3.10135 12.0318
3.14599 12.9851
3.19062 14.2852
3.23527 15.2812
3.2799 15.3585
3.32454 16.7885
3.36917 17.4485
3.4138 19.2104
3.45844 19.907
3.50309 21.6423
3.54773 22.0427
3.59237 25.3239
3.637 124.482
3.68164 76.5741
3.7263 27.3182
3.77094 26.7575
3.81558 26.9699
3.86022 27.9334
3.90486 29.3413
3.9495 30.33
3.99416 31.4642
4.0388 33.1412
4.08344 34.1122
4.12809 36.3147
4.17273 38.5148
4.21738 46.2953
4.26204 342.795
4.30669 302.309
4.35133 52.6664
4.39598 46.0402
4.44063 58.2928
4.4853 75.3075
4.52995 52.2217
4.5746 52.2495
4.61925 54.2161
4.6639 56.2577
4.70855 58.5928
4.75322 61.2697
4.79788 64.5213
4.84253 67.8385
4.88719 72.2092
4.93184 76.216
4.97652 81.7938
5.02118 88.5748
5.06583 95.8921
5.11049 109.479
5.15515 204.642
5.19981 417.456
5.24449 2821.76
5.28916 11444.5
5.33382 3607.53
5.37848 222.853
5.42315 137.241
5.46783 118.729
5.5125 109.422
5.55716 104.272
5.60183 101.265
5.6465 99.0125
5.69117 95.899
5.73586 93.8965
5.78053 93.2177
5.8252 93.0727
5.86988 93.6948
5.91455 96.7961
5.95924 105.887
6.00392 224.511
6.0486 980.509
6.09328 3909.09
6.13795 3664.32
6.18263 317.567
6.22733 100.712
6.27201 87.0079
6.3167 117.579
6.36138 87.461
6.40606 71.2056
6.45075 68.9346
6.49545 67.0029
6.54014 65.4004
6.58483 64.8573
6.62952 65.0904
6.67421 109.462
6.71892 186.448
6.76361 74.3824
6.8083 60.3504
6.853 59.3137
6.89769 58.6127
6.94239 58.1774
6.98711 57.5196
7.03181 57.2884
7.07651 56.4554
7.12121 56.5201
7.16591 57.0927
7.21063 57.5931
7.25533 77.6695
7.30004 240.649
7.34475 110.967
7.38945 59.0672
7.43416 56.0226
7.47889 55.8042
7.5236 56.3421
7.56831 56.7288
7.61303 59.286
7.65774 59.8603
7.70247 57.5032
7.74719 57.3851
7.79191 58.3018
7.83663 57.9875
7.88135 59.1348
7.92607 60.1542
7.97081 60.9156
8.01553 62.2195
8.06026 63.5061
8.10498 65.4797
8.14971 78.2725
8.19446 75.9899
8.23919 70.5931
8.28392 72.7816
8.32865 74.9928
8.37339 79.6716
8.41812 87.9163
8.46288 127.478
8.50761 175.739
8.55235 394.736
8.59709 1055.36
8.64183 2103.77
8.68658 1147.94
8.73134 193.9
8.77609 104.368
8.82083 95.3094
8.86558 92.1551
8.91033 92.8763
8.9551 96.4167
8.99985 87.6685
9.04461 84.8247
9.08936 84.1765
9.13412 82.9684
9.17888 83.1853
9.22365 84.5839
9.26841 83.2383
9.31318 83.7801
9.35794 84.1787
9.4027 84.3723
9.44749 85.1939
9.49226 85.8404
9.53703 86.8821
9.5818 88.809
9.62657 94.6689
9.67134 104.427
9.71614 95.8778
9.76091 95.143
9.80569 97.743
9.85047 101.584
9.89525 134.594
9.94005 151.438
9.98484 184.164
10.0296 348.357
10.0744 735.602
10.1192 1577.14
10.164 1773.25
10.2088 501.239
10.2536 139.817
10.2984 119.653
10.3432 122.776
10.388 107.737
10.4328 121.64
10.4776 161.773
10.5224 260.68
10.5672 468.704
10.612 521.941
10.6568 233.006
10.7017 102.115
10.7465 88.9938
10.7913 85.0285
10.8361 82.8374
10.8809 80.3123
10.9257 81.1394
10.9706 82.5033
11.0154 76.8598
11.0602 74.3208
11.105 73.6425
11.1499 80.4577
11.1947 92.1791
11.2395 79.0148
11.2844 73.0781
11.3292 68.9581
11.374 67.4526
11.4189 67.223
11.4637 66.2632
11.5086 67.5583
11.5534 72.0996
11.5983 68.1412
11.6431 65.1207
11.688 64.2928
11.7328 64.3176
11.7777 64.5066
11.8225 63.8789
11.8674 63.6431
11.9122 64.1933
11.9571 64.2858
12.002 64.7627
12.0468 69.0016
12.0917 80.8423
12.1366 101.906
12.1814 142.206
12.2263 201.592
12.2712 185.917
12.3161 112.621
12.3609 75.3785
12.4058 66.6705
12.4507 65.8335
12.4956 66.02
12.5405 66.1354
12.5853 67.1865
12.6302 78.2472
12.6751 86.7654
12.72 73.0463
12.7649 69.6323
12.8098 69.7699
12.8547 71.0657
12.8996 72.3257
12.9445 73.636
12.9894 75.2424
13.0343 77.0238
13.0792 80.1564
13.1242 89.7952
13.1691 114.675
13.214 148.546
13.2589 219.039
13.3038 334.035
13.3487 435.992
13.3937 304.267
13.4386 139.411
13.4835 109.244
13.5285 122.732
13.5734 155.171
13.6183 224.856
13.6633 324.289
13.7082 365.25
13.7531 220.395
13.7981 106.39
13.843 84.3294
13.888 81.5255
13.9329 78.8084
13.9779 77.0955
14.0228 76.0555
14.0678 74.5173
14.1127 74.3514
14.1577 74.462
14.2027 73.2029
14.2476 71.7913
14.2926 72.4312
14.3376 74.1823
14.3825 72.0958
14.4275 70.1823
14.4725 70.089
14.5175 70.0984
14.5624 70.575
14.6074 73.6595
14.6524 74.3039
14.6974 72.0388
14.7424 73.4246
14.7874 80.1795
14.8324 90.5302
14.8774 108.523
14.9224 142.756
14.9674 192.921
15.0124 225.451
15.0574 168.486
15.1024 101.586
15.1474 75.1925
15.1924 72.4009
15.2374 73.7477
15.2824 72.7929
15.3274 70.1659
15.3725 68.2934
15.4175 67.6308
15.4625 67.5184
15.5076 68.0088
15.5526 67.9724
15.5976 67.2363
15.6426 68.0736
15.6877 73.5915
15.7327 81.4109
15.7778 94.3019
15.8228 118.468
15.8679 156.265
15.9129 192.12
15.958 171.238
16.003 107.638
16.0481 71.7078
16.0931 67.5988
16.1382 65.266
16.1833 62.4181
16.2283 60.5234
16.2734 59.9587
16.3185 60.4486
16.3636 61.9071
16.4086 60.0461
16.4537 57.6949
16.4988 56.7897
16.5439 56.6888
16.589 56.6287
16.6341 56.1988
16.6792 55.7118
16.7243 56.2863
16.7694 56.4563
16.8145 56.1705
16.8596 56.6836
16.9047 58.8922
16.9498 59.0076
16.9949 57.1661
17.04 57.1737
17.0851 58.1069
17.1302 59.929
17.1754 62.6623
17.2205 66.7571
17.2656 72.7312
17.3108 81.1929
17.3559 84.1779
17.401 74.861
17.4462 64.4177
17.4913 60.4736
17.5365 60.4507
17.5815 60.7373
17.6268 60.8107
17.6718 61.8186
17.7171 62.508
17.7622 62.4968
17.8074 63.0604
17.8525 65.1623
17.8977 69.7104
17.9428 75.0828
17.9881 82.2335
18.0331 95.7741
18.0784 114.501
18.1237 137.769
18.1688 138.619
18.214 112.26
18.2591 89.2997
18.3044 88.9221
18.3495 97.1312
18.3948 106.987
18.4399 102.452
18.4852 83.0139
18.5303 68.8212
18.5756 63.8382
18.6207 62.7104
18.666 61.865
18.7112 61.1271
18.7565 60.2073
18.8016 59.9616
18.8469 59.1348
18.892 58.7417
18.9374 58.4009
18.9825 58.5057
19.0278 58.2958
19.073 58.3169
19.1183 58.6358
19.1635 59.8782
19.2088 60.926
19.254 62.6392
19.2993 66.1163
19.3447 72.0644
19.3898 77.6883
19.4352 75.7664
19.4804 66.6243
19.5257 59.0715
19.5709 55.6449
19.6163 54.8878
19.6615 54.9369
19.7068 54.3949
19.752 54.4662
19.7974 54.716
19.8426 55.6001
19.888 56.2858
19.9332 57.3107
19.9786 58.9644
20.0238 62.1048
20.0692 66.593
20.1144 70.7827
20.1598 70.661
20.205 65.5606
20.2504 62.6992
20.2957 63.5441
20.3411 66.1535
20.3863 66.5138
20.4318 61.121
20.477 55.8268
20.5224 53.4567
20.5677 52.5817
20.6131 51.6855
20.6586 50.7758
20.7038 50.7406
20.7493 50.3593
20.7945 50.2309
20.84 49.9429
20.8853 50.0307
20.9307 49.6133
20.976 49.7056
21.0215 49.6186
21.0668 49.8983
21.1122 50.5184
21.1575 50.8149
21.203 51.7142
21.2483 52.2795
21.2938 52.9449
21.3391 51.5382
21.3846 50.2964
21.4299 49.503
21.4754 49.4315
21.5207 49.5551
21.5662 49.9103
21.6116 50.2241
21.6571 50.906
21.7024 51.9301
21.7479 53.3106
21.7933 55.6174
21.8388 58.7033
21.8843 62.4591
21.9297 65.4712
21.9752 65.6829
22.0206 61.8415
22.0661 57.9928
22.1115 56.7285
22.157 57.2488
22.2024 56.0814
22.248 53.5393
22.2933 51.3731
22.3389 50.3019
22.3843 50.4023
22.4299 50.2086
22.4753 50.1102
22.5208 49.8328
22.5662 49.587
22.6118 49.7394
22.6572 49.9618
22.7028 50.176
22.7483 50.7489
22.7939 51.2324
22.8393 52.5841
22.8849 54.2511
22.9303 56.1394
22.9759 58.5833
23.0214 59.0953
23.067 56.7627
23.1126 52.9641
23.1581 50.5586
23.2037 49.9633
23.2492 50.052
23.2948 49.9854
23.3403 50.1215
23.3859 50.6445
23.4314 51.4785
23.477 53.01
23.5225 54.5461
23.5682 56.8805
23.6137 58.8082
23.6593 57.7991
23.7048 54.0273
23.7505 50.1128
23.796 47.8218
23.8417 47.0155
23.8872 46.6633
23.9329 46.2231
23.9784 46.0221
24.0241 45.6647
24.0697 45.4361
24.1154 45.0188
24.1609 45.0474
24.2066 44.8983
24.2522 44.6298
24.2979 44.4687
24.3434 44.3041
24.3892 44.1449
24.4349 44.1243
24.4805 43.7361
24.5262 43.9702
24.5718 43.8695
24.6175 43.9637
24.6631 43.8503
24.7089 43.7142
24.7545 43.452
24.8002 43.1221
24.8458 43.226
24.8916 42.8815
24.9372 43.0329
24.983 43.3534
25.0286 43.6166
25.0744 43.997
25.12 44.5388
25.1658 45.0993
25.2114 45.4529
25.2572 45.5718
25.3029 45.5677
25.3487 45.8207
25.3943 45.7956
25.4402 44.9002
25.4858 43.7056
25.5316 42.5267
25.5773 42.0322
25.6231 41.9677
25.669 41.5376
25.7147 41.4199
25.7605 41.4253
25.8062 41.5944
25.8521 41.5873
25.8977 41.6102
25.9436 41.6064
25.9893 41.5991
26.0352 42.1087
26.0809 42.3425
26.1268 42.6549
26.1725 42.4317
26.2184 41.9112
26.2641 41.2551
26.31 41.081
26.3557 41.02
26.4017 41.0734
26.4474 41.2164
26.4933 41.6318
26.5391 41.9511
26.585 42.4363
26.6308 42.8402
26.6767 43.0538
26.7225 43.0894
26.7684 42.5988
26.8142 41.8034
26.8601 41.441
26.9059 41.1684
26.9519 40.4607
26.9979 40.1443
27.0437 39.7708
27.0896 39.5381
27.1354 39.6952
27.1814 39.4656
27.2272 39.3445
27.2732 39.3084
27.3191 39.1239
27.3651 39.4328
27.4109 39.3074
27.4569 39.2797
27.5027 39.2815
27.5488 39.5531
27.5946 39.2143
27.6407 39.0969
27.6865 38.9386
27.7326 38.6809
27.7784 38.6965
27.8245 38.6862
27.8703 38.8455
27.9164 38.9449
27.9623 39.1408
28.0084 39.414
28.0543 39.8264
28.1003 39.8992
28.1462 39.6432
28.1923 39.4165
28.2384 38.8123
28.2843 38.5969
28.3304 38.198
28.3764 37.6642
28.4225 37.3469
28.4684 37.1078
28.5145 36.8219
28.5605 36.6399
28.6066 36.5569
28.6526 36.5967
28.6987 36.4396
28.7447 36.3302
28.7908 36.199
28.8368 36.2299
28.8829 36.2587
28.9289 36.1357
28.9751 36.0834
29.0211 35.7606
29.0673 35.4423
29.1133 35.3657
29.1595 35.1929
29.2055 35.1093
29.2517 35.0889
29.2977 34.9644
29.3439 34.9241
29.3899 35.0211
29.4361 34.88
29.4824 34.692
29.5284 34.5578
29.5746 34.2682
29.6207 33.9045
29.6669 33.8325
29.713 33.8119
29.7593 33.6889
29.8053 33.5705
29.8516 33.5377
29.8977 33.5086
29.9439 33.3067
29.99 33.299
30.0363 33.1503
30.0824 33.2603
30.1287 33.0213
30.1748 33.1776
30.2211 33.0912
30.2673 33.0161
30.3136 33.1059
30.3597 32.9672
30.406 32.8731
30.4522 32.7176
30.4985 32.751
30.5447 32.8579
30.591 32.8586
30.6372 32.961
30.6835 32.8768
30.7297 32.8868
30.7761 32.8596
30.8224 32.7566
30.8686 32.5578
30.915 32.349
30.9612 32.3091
31.0076 31.9978
31.0538 31.8622
31.1002 31.8558
31.1464 31.5765
31.1928 31.6924
31.2391 31.6527
31.2855 31.5871
31.3317 31.5197
31.3781 31.5748
31.4244 31.6974
31.4708 31.4378
31.5171 31.4061
31.5636 31.4558
31.6098 31.2411
31.6563 31.0802
31.7026 31.0439
31.7491 30.7672
31.7953 30.9283
31.8418 30.8401
31.8881 30.8199
31.9346 30.7861
31.9809 30.7413
32.0275 30.5032
32.074 30.5204
32.1203 30.3962
32.1668 30.1501
32.2132 30.0565
32.2597 29.9483
32.306 29.89
32.3526 29.6492
32.399 29.5311
32.4455 29.3834
32.4919 29.4123
32.5385 29.3067
32.5848 29.1897
32.6314 29.1675
32.6778 29.0624
32.7244 28.9859
32.7708 28.7891
32.8174 28.8175
32.8638 28.6291
32.9104 28.6134
32.9569 28.644
33.0035 28.5319
33.0499 28.4823
33.0966 28.4356
33.143 28.4504
33.1897 28.3028
33.2361 28.2674
33.2828 28.3033
33.3293 28.0052
33.3759 28.096
33.4226 27.8026
33.4691 27.8234
33.5158 27.6461
33.5623 27.5215
33.609 27.4336
33.6555 27.3168
33.7022 27.2154
33.7487 27.0607
33.7954 27.0719
33.842 27.0375
33.8887 26.9275
33.9353 26.8514
33.982 26.7234
34.0286 26.6922
34.0753 26.5513
34.1219 26.5215
34.1687 26.4057
34.2152 26.3772
34.262 26.2416
34.3086 26.1081
34.3554 26.1532
34.402 25.9709
34.4488 25.85
34.4954 25.7985
34.5422 25.6753
34.5889 25.546
34.6357 25.5648
34.6825 25.5231
34.7292 25.4017
34.776 25.2173
34.8227 25.2249
34.8695 25.1803
34.9162 25.1152
34.9631 25.0656
35.0098 25.011
35.0566 24.8707
35.1033 24.8256
35.1502 24.7918
35.1969 24.7413
35.2438 24.6166
35.2906 24.5789
35.3375 24.6371
35.3842 24.5711
35.4311 24.4834
35.4779 24.4594
35.5248 24.4081
35.5716 24.2852
35.6185 24.2006
35.6653 24.1756
35.7123 24.0401
35.759 23.9582
35.806 23.8866
35.8528 23.8165
35.8998 23.6576
35.9468 23.6053
35.9936 23.5965
36.0406 23.5151
36.0874 23.5695
36.1345 23.4528
36.1813 23.3147
36.2283 23.1994
36.2752 23.163
36.3222 23.1555
36.3691 23.0929
36.4161 22.9313
36.463 22.8951
36.5101 22.909
36.557 22.7724
36.6041 22.5945
36.651 22.6993
36.6981 22.6291
36.745 22.5759
36.7921 22.4233
36.839 22.3813
36.8861 22.27
36.9331 22.2191
36.9802 22.1987
37.0272 22.0244
37.0743 22.0088
37.1213 21.9956
37.1684 21.8988
37.2154 21.7783
37.2626 21.7479
37.3098 21.6946
37.3568 21.667
37.404 21.5666
37.451 21.4418
37.4982 21.4264
37.5452 21.2242
37.5924 21.2477
37.6395 21.2567
37.6867 21.2292
37.7337 21.0259
37.781 20.9857
37.8281 20.9617
37.8753 20.7696
37.9224 20.7333
37.9697 20.7344
38.0168 20.6995
38.064 20.6927
38.1111 20.5868
38.1584 20.4663
38.2056 20.3817
38.2529 20.324
38.3 20.22
38.3473 20.2568
38.3945 20.1043
38.4418 20.1268
38.489 20.0629
38.5363 19.9082
38.5837 19.8104
38.6309 19.8339
38.6782 19.7748
38.7254 19.7077
38.7728 19.6365
38.82 19.6233
38.8674 19.5201
38.9146 19.4389
38.9621 19.3748
39.0093 19.3385
39.0567 19.2837
39.104 19.2788
39.1514 19.129
39.1987 19.1101
39.2461 19.0078
39.2934 18.9369
39.3409 18.8448
39.3882 18.8006
39.4356 18.7509
39.483 18.655
39.5304 18.6618
39.5778 18.6174
39.6253 18.6033
39.6726 18.5218
39.7201 18.4527
39.7675 18.3729
39.815 18.3715
39.8624 18.2421
39.9099 18.2695
39.9575 18.145
40.0049 18.0606
40.0525 18.0494
40.0999 17.9787
40.1474 17.8874
40.1949 17.8569
40.2425 17.7773
40.2899 17.7114
40.3375 17.6735
40.385 17.6928
40.4326 17.6154
40.48 17.5023
40.5277 17.4996
40.5752 17.3633
40.6228 17.3144
40.6703 17.2588
40.718 17.2362
40.7655 17.2575
40.8132 17.0974
40.8607 17.1416
40.9084 17.0599
40.9559 17.0307
41.0036 16.9562
41.0512 16.9518
41.0989 16.8459
41.1465 16.7607
41.1942 16.7749
41.242 16.6057
41.2896 16.5818
41.3373 16.5209
41.3849 16.4753
41.4327 16.3852
41.4803 16.3478
41.5281 16.304
41.5758 16.2087
41.6236 16.2078
41.6712 16.1253
41.7191 16.0675
41.7667 16.0242
41.8146 16.0041
41.8622 15.9247
41.9101 15.9018
41.9578 15.7882
42.0057 15.8053
42.0534 15.7025
42.1013 15.7227
42.149 15.6138
42.1969 15.5231
42.2446 15.4746
42.2925 15.4959
42.3403 15.4254
42.3882 15.4182
42.436 15.3612
42.4839 15.231
42.5319 15.2612
42.5797 15.1502
42.6277 15.1689
42.6755 15.03
42.7235 15.0248
42.7713 14.9594
42.8193 14.922
42.8671 14.8307
42.9152 14.7703
42.963 14.7633
43.0111 14.6902
43.0589 14.6186
43.107 14.6203
43.1549 14.5367
43.2029 14.4848
43.2508 14.4522
43.2989 14.3849
43.3468 14.324
43.3949 14.3002
43.4429 14.1889
43.491 14.2001
43.5389 14.1617
43.5871 14.1401
43.635 14.023
43.6832 14.0053
43.7312 13.9408
43.7793 13.8412
43.8273 13.839
43.8755 13.7839
43.9237 13.8136
43.9717 13.7
44.0199 13.6814
44.068 13.6515
44.1162 13.5397
44.1642 13.5077
44.2125 13.4458
44.2606 13.4533
44.3088 13.4296
44.3569 13.3396
44.4052 13.3415
44.4533 13.2553
44.5016 13.1603
44.5497 13.1507
44.598 13.1398
44.6461 13.0538
44.6945 13.0383
44.7426 13.0101
44.791 12.9065
44.8391 12.9182
44.8875 12.8094
44.9357 12.7733
44.984 12.7247
45.0322 12.6948
45.0806 12.6442
45.1288 12.6249
45.1773 12.556
45.2257 12.5423
45.2739 12.4886
45.3224 12.4378
45.3706 12.3967
45.4191 12.3199
45.4673 12.3293
45.5158 12.279
45.5641 12.1926
45.6126 12.1647
45.6609 12.108
45.7094 12.0843
45.7577 12.0622
45.8063 11.9195
45.8546 11.9607
45.9031 11.9048
45.9515 11.8974
46.0001 11.8107
46.0484 11.7912
46.097 11.7114
46.1454 11.6787
46.194 11.6398
46.2424 11.6113
46.291 11.5822
46.3395 11.4893
46.3881 11.4987
46.4365 11.4798
46.4852 11.4214
46.5337 11.3645
46.5823 11.3188
46.631 11.2725
46.6795 11.2383
46.7282 11.2023
46.7767 11.1206
46.8254 11.0659
46.8739 11.0774
46.9226 11.0472
46.9712 10.9748
47.0199 10.9866
47.0685 10.9041
47.1173 10.8723
47.1658 10.8021
47.2146 10.8136
47.2632 10.7511
47.312 10.7045
47.3606 10.6749
47.4095 10.6366
47.4581 10.5991
47.5069 10.5325
47.5556 10.5198
47.6044 10.4814
47.6531 10.4916
47.702 10.3859
47.7507 10.3597
47.7996 10.3293
47.8483 10.2673
47.8972 10.2326
47.9461 10.2442
47.9948 10.1301
48.0438 10.0997
48.0925 10.0966
48.1415 10.0121
48.1902 10.0158
48.2392 10.0456
48.288 10.0082
48.337 9.92512
48.3858 9.83646
48.4348 9.84875
48.4837 9.8655
48.5327 9.80538
48.5815 9.74332
48.6306 9.73789
48.6795 9.67423
48.7285 9.62842
48.7774 9.61103
48.8265 9.61843
48.8754 9.53869
48.9245 9.52052
48.9734 9.4786
49.0226 9.44059
49.0715 9.41648
49.1206 9.36648
49.1696 9.34456
49.2188 9.25429
49.2679 9.25894
49.3169 9.18009
49.3661 9.15515
49.4151 9.16571
49.4643 9.11692
49.5134 9.05088
49.5626 9.0195
49.6117 9.03822
49.6609 8.97652
49.71 8.95739
49.7592 8.91156
49.8083 8.82853
49.8576 8.82017
49.9067 8.76205
49.956 8.73368
50.0052 8.72997
50.0545 8.70364
50.1036 8.67712
50.153 8.61062
50.2022 8.64598
50.2515 8.57854
50.3007 8.52506
50.3501 8.46165
50.3993 8.48617
50.4487 8.42458
50.498 8.39843
50.5474 8.39137
50.5966 8.32894
50.6461 8.33104
50.6955 8.2611
50.7448 8.25504
50.7943 8.18293
50.8436 8.18893
50.8931 8.16691
50.9424 8.09525
50.9919 8.06224
51.0413 8.04186
51.0908 8.03004
51.1402 7.99864
51.1897 7.92346
51.2391 7.94021
51.2887 7.86529
51.3381 7.8774
51.3877 7.82535
51.4371 7.78169
51.4867 7.73103
51.5362 7.71837
51.5858 7.73056
51.6353 7.63851
51.6849 7.64952
51.7344 7.58978
51.7841 7.56222
51.8336 7.51766
51.8833 7.49758
51.9328 7.45705
51.9826 7.43439
52.0323 7.40889
52.0818 7.38898
52.1316 7.31619
52.1812 7.37364
52.231 7.28287
52.2806 7.25142
52.3304 7.26755
52.38 7.19512
52.4298 7.16487
52.4794 7.15806
52.5293 7.13491
52.5789 7.07453
52.6288 7.04029
52.6785 7.00639
52.7284 7.00116
52.7781 6.96724
52.828 6.93374
52.8777 6.90659
52.9276 6.87714
52.9774 6.81649
53.0273 6.80355
53.0771 6.77176
53.1271 6.80024
53.1769 6.71596
53.2269 6.69347
53.2767 6.68746
53.3267 6.66021
53.3765 6.64768
53.4266 6.57028
53.4766 6.56088
53.5265 6.53149
53.5765 6.53623
53.6264 6.48107
53.6765 6.46791
53.7264 6.40309
53.7765 6.42095
53.8265 6.31583
53.8766 6.31651
53.9266 6.35544
53.9767 6.28096
54.0267 6.26608
54.0769 6.24384
54.1269 6.13987
54.1771 6.14612
54.2271 6.12891
54.2773 6.08984
54.3274 6.10897
54.3776 5.99831
54.4277 5.96884
54.478 5.98244
54.528 5.94098
54.5783 5.94498
54.6285 5.85347
54.6788 5.80584
54.7289 5.77232
54.7792 5.74928
54.8296 5.68057
54.8798 5.6221
54.9301 5.57422
54.9803 5.56492
55.0307 5.5794
55.0809 5.49587
55.1314 5.50581
55.1816 5.41953
55.232 5.31842
55.2823 5.3672
55.3328 5.28954
55.383 5.23911
55.4335 5.1955
55.4838 5.12601
55.5344 5.05853
55.5847 5.03902
55.6352 5.00457
55.6856 4.97945
55.7361 4.94755