File: XRD/Ni3Fe_FD0668.xy
TT I
1.27165 7.25712
1.31627 6.84126
1.36089 6.15244
1.40551 5.78028
1.45013 6.09321
1.49476 6.46744
1.53938 5.53163
1.584 5.67362
1.62863 4.59517
1.67325 5.28263
1.71787 5.09243
1.7625 4.75764
1.80712 5.34623
1.85174 4.63518
1.89636 4.69801
1.94099 4.76599
1.98562 4.75413
2.03025 4.59454
2.07487 4.73331
2.11949 4.57368
2.16411 4.99587
2.20874 12.3771
2.25338 18.4843
2.298 6.37972
2.34263 5.22169
2.38725 5.71765
2.43188 6.12133
2.4765 6.146
2.52115 6.87501
2.56577 7.4452
2.6104 8.49358
2.65503 7.16543
2.69965 8.11109
2.7443 8.0737
2.78893 8.60474
2.83356 7.87145
2.87818 8.48147
2.92281 9.11189
2.96744 9.92614
3.01209 9.8644
3.05672 11.132
3.10135 12.6443
3.14599 12.5899
3.19062 14.449
3.23527 14.7716
3.2799 15.9144
3.32454 16.8225
3.36917 17.6123
3.4138 18.7769
3.45844 19.6999
3.50309 21.0562
3.54773 21.3215
3.59237 23.2107
3.637 78.2061
3.68164 51.0003
3.7263 26.2429
3.77094 26.281
3.81558 26.7545
3.86022 27.8279
3.90486 28.9723
3.9495 29.9628
3.99416 30.8235
4.0388 32.1074
4.08344 33.1079
4.12809 34.6929
4.17273 36.4961
4.21738 41.5682
4.26204 205.225
4.30669 175.748
4.35133 46.8931
4.39598 43.9106
4.44063 52.4823
4.4853 60.4595
4.52995 49.9682
4.5746 51.1112
4.61925 53.7322
4.6639 55.5596
4.70855 58.2936
4.75322 60.7844
4.79788 63.4885
4.84253 67.2399
4.88719 71.4765
4.93184 75.2062
4.97652 80.8734
5.02118 86.8839
5.06583 94.8656
5.11049 106.317
5.15515 165.602
5.19981 368.251
5.24449 2936.76
5.28916 12624.8
5.33382 2812.33
5.37848 181.553
5.42315 127.623
5.46783 113.147
5.5125 106.008
5.55716 101.693
5.60183 98.4464
5.6465 96.41
5.69117 94.517
5.73586 92.1988
5.78053 91.7624
5.8252 91.4881
5.86988 92.1335
5.91455 94.3386
5.95924 103.867
6.00392 217.815
6.0486 989.893
6.09328 4470.66
6.13795 3237.65
6.18263 220.345
6.22733 91.3963
6.27201 82.0391
6.3167 95.9921
6.36138 77.9635
6.40606 68.6655
6.45075 67.2697
6.49545 65.0265
6.54014 63.47
6.58483 62.5787
6.62952 62.503
6.67421 87.1992
6.71892 124.978
6.76361 66.3324
6.8083 58.1723
6.853 57.4268
6.89769 56.5222
6.94239 56.5338
6.98711 55.8916
7.03181 55.2135
7.07651 55.1944
7.12121 55.0887
7.16591 55.0698
7.21063 55.366
7.25533 67.5003
7.30004 149.757
7.34475 83.3172
7.38945 55.9167
7.43416 54.4496
7.47889 54.06
7.5236 54.8493
7.56831 55.114
7.61303 56.3464
7.65774 56.8615
7.70247 55.9691
7.74719 56.0474
7.79191 56.6065
7.83663 56.803
7.88135 57.9984
7.92607 58.4017
7.97081 59.5938
8.01553 60.505
8.06026 62.2116
8.10498 63.6405
8.14971 71.36
8.19446 70.7275
8.23919 69.4574
8.28392 71.7507
8.32865 74.2459
8.37339 78.272
8.41812 85.0656
8.46288 110.204
8.50761 171.982
8.55235 401.543
8.59709 1206.27
8.64183 2166.5
8.68658 934.165
8.73134 155.143
8.77609 98.7143
8.82083 92.12
8.86558 89.2346
8.91033 89.144
8.9551 89.7933
8.99985 85.0668
9.04461 83.4183
9.08936 82.8367
9.13412 82.2971
9.17888 82.024
9.22365 82.5189
9.26841 81.897
9.31318 82.5119
9.35794 82.6191
9.4027 83.5899
9.44749 83.8719
9.49226 84.6478
9.53703 85.9156
9.5818 87.3979
9.62657 91.4951
9.67134 96.8971
9.71614 93.0842
9.76091 93.5959
9.80569 96.2264
9.85047 100.038
9.89525 119.855
9.94005 133.393
9.98484 182.628
10.0296 357.528
10.0744 834.237
10.1192 1793.43
10.164 1558.66
10.2088 371.967
10.2536 123.308
10.2984 111.548
10.3432 111.839
10.388 104.69
10.4328 120.183
10.4776 163.968
10.5224 288.323
10.5672 513.267
10.612 500.671
10.6568 190.785
10.7017 94.7911
10.7465 86.4576
10.7913 83.0351
10.8361 80.891
10.8809 78.6613
10.9257 77.9022
10.9706 77.8301
11.0154 74.2975
11.0602 72.4331
11.105 71.5967
11.1499 74.8482
11.1947 80.3693
11.2395 72.8617
11.2844 69.6462
11.3292 66.9577
11.374 65.9236
11.4189 65.7727
11.4637 64.7151
11.5086 65.0278
11.5534 67.3604
11.5983 65.1546
11.6431 63.7656
11.688 62.9828
11.7328 62.7682
11.7777 62.6779
11.8225 62.239
11.8674 62.5641
11.9122 62.657
11.9571 62.8369
12.002 63.7645
12.0468 68.2915
12.0917 79.5795
12.1366 103.8
12.1814 153.785
12.2263 205.557
12.2712 160.19
12.3161 90.6963
12.3609 68.9498
12.4058 64.4608
12.4507 63.9971
12.4956 64.1493
12.5405 64.1932
12.5853 65.4632
12.6302 71.2903
12.6751 75.6175
12.72 69.1764
12.7649 67.6307
12.8098 68.4404
12.8547 69.6335
12.8996 70.8389
12.9445 72.5095
12.9894 73.8451
13.0343 75.7083
13.0792 79.3521
13.1242 89.0343
13.1691 113.58
13.214 151.154
13.2589 245.113
13.3038 378.985
13.3487 422.901
13.3937 253.82
13.4386 120.791
13.4835 106.133
13.5285 121.862
13.5734 160.921
13.6183 252.951
13.6633 356.922
13.7082 331.135
13.7531 173.594
13.7981 94.938
13.843 81.4417
13.888 79.11
13.9329 76.7725
13.9779 75.8235
14.0228 73.9337
14.0678 72.8281
14.1127 72.4861
14.1577 71.9727
14.2027 71.0249
14.2476 70.0861
14.2926 70.1734
14.3376 71.0545
14.3825 70.0236
14.4275 68.5852
14.4725 68.5969
14.5175 68.8987
14.5624 68.7337
14.6074 70.5552
14.6524 71.2054
14.6974 70.5476
14.7424 72.0816
14.7874 79.379
14.8324 89.6876
14.8774 112.126
14.9224 156.938
14.9674 211.395
15.0124 216.396
15.0574 141.804
15.1024 87.1248
15.1474 71.5982
15.1924 70.2604
15.2374 70.3625
15.2824 69.5556
15.3274 67.6907
15.3725 66.5918
15.4175 66.4
15.4625 65.973
15.5076 65.9461
15.5526 65.9566
15.5976 65.7247
15.6426 66.8419
15.6877 72.5332
15.7327 80.148
15.7778 95.5923
15.8228 128.517
15.8679 175.045
15.9129 196.067
15.958 153.47
16.003 93.4288
16.0481 66.8041
16.0931 64.0533
16.1382 62.1125
16.1833 60.117
16.2283 58.8518
16.2734 58.1291
16.3185 58.3411
16.3636 58.664
16.4086 57.3195
16.4537 55.9846
16.4988 55.4785
16.5439 55.2303
16.589 55.1216
16.6341 54.6765
16.6792 54.4978
16.7243 54.8441
16.7694 54.6512
16.8145 54.6611
16.8596 54.8076
16.9047 56.3821
16.9498 56.3931
16.9949 55.3314
17.04 55.7499
17.0851 56.9795
17.1302 58.6657
17.1754 61.9161
17.2205 66.8925
17.2656 75.0585
17.3108 83.5317
17.3559 81.9706
17.401 70.1405
17.4462 61.5729
17.4913 59.0464
17.5365 59.0648
17.5815 59.1034
17.6268 59.4905
17.6718 60.2488
17.7171 60.7817
17.7622 61.3741
17.8074 61.885
17.8525 64.5754
17.8977 68.5403
17.9428 74.1796
17.9881 83.1703
18.0331 101.105
18.0784 124.079
18.1237 142.962
18.1688 130.208
18.214 101.122
18.2591 85.8032
18.3044 91.0553
18.3495 101.008
18.3948 106.326
18.4399 94.7631
18.4852 75.6089
18.5303 65.2782
18.5756 61.9195
18.6207 61.1194
18.666 60.1666
18.7112 59.4817
18.7565 58.7437
18.8016 58.5746
18.8469 57.769
18.892 57.6255
18.9374 57.1323
18.9825 56.9446
19.0278 56.7203
19.073 56.7965
19.1183 57.5499
19.1635 58.0635
19.2088 59.3531
19.254 62.2857
19.2993 67.2577
19.3447 73.3391
19.3898 76.813
19.4352 71.8849
19.4804 62.508
19.5257 56.3154
19.5709 53.9804
19.6163 53.6948
19.6615 53.4657
19.7068 53.1989
19.752 53.3357
19.7974 53.4886
19.8426 54.3672
19.888 55.0497
19.9332 56.2348
19.9786 59.0046
20.0238 62.8369
20.0692 67.5593
20.1144 69.8571
20.1598 67.7876
20.205 63.1225
20.2504 61.9608
20.2957 64.143
20.3411 65.4078
20.3863 63.5934
20.4318 57.5636
20.477 53.0951
20.5224 51.3308
20.5677 50.679
20.6131 50.2248
20.6586 49.6687
20.7038 49.3402
20.7493 48.9323
20.7945 48.9306
20.84 48.7441
20.8853 48.5016
20.9307 48.4857
20.976 48.5473
21.0215 48.3635
21.0668 49.0363
21.1122 49.3567
21.1575 49.9565
21.203 50.8927
21.2483 51.3412
21.2938 51.1693
21.3391 49.8263
21.3846 48.7787
21.4299 48.2935
21.4754 48.2663
21.5207 48.4724
21.5662 48.7369
21.6116 49.2578
21.6571 49.9314
21.7024 50.7939
21.7479 52.7122
21.7933 55.322
21.8388 59.1538
21.8843 63.1673
21.9297 64.9365
21.9752 63.078
22.0206 59.2022
22.0661 56.3286
22.1115 56.1141
22.157 55.7726
22.2024 54.1041
22.248 51.0048
22.2933 49.425
22.3389 48.9437
22.3843 48.9975
22.4299 48.8125
22.4753 48.712
22.5208 48.6111
22.5662 48.4968
22.6118 48.4936
22.6572 48.8089
22.7028 49.2801
22.7483 49.7028
22.7939 50.4674
22.8393 52.0755
22.8849 54.2547
22.9303 56.3608
22.9759 58.0167
23.0214 57.2336
23.067 54.0157
23.1126 50.7325
23.1581 48.9801
23.2037 48.6786
23.2492 48.7763
23.2948 48.9295
23.3403 49.101
23.3859 49.7266
23.4314 50.8715
23.477 52.6335
23.5225 54.9707
23.5682 57.2018
23.6137 57.9771
23.6593 55.2338
23.7048 51.0988
23.7505 47.9774
23.796 46.3596
23.8417 45.9154
23.8872 45.4589
23.9329 45.1796
23.9784 44.8609
24.0241 44.645
24.0697 44.3449
24.1154 43.9487
24.1609 43.8793
24.2066 43.7139
24.2522 43.7009
24.2979 43.3321
24.3434 43.2453
24.3892 43.0473
24.4349 43.0023
24.4805 42.8501
24.5262 43.0761
24.5718 42.9749
24.6175 42.85
24.6631 42.5883
24.7089 42.4013
24.7545 42.306
24.8002 42.0748
24.8458 42.0367
24.8916 41.9032
24.9372 42.1473
24.983 42.5076
25.0286 42.865
25.0744 43.2674
25.12 43.6519
25.1658 44.3423
25.2114 44.7529
25.2572 44.681
25.3029 44.8294
25.3487 44.9926
25.3943 44.4279
25.4402 43.316
25.4858 42.199
25.5316 41.3804
25.5773 40.8576
25.6231 40.8063
25.669 40.5044
25.7147 40.4625
25.7605 40.4356
25.8062 40.3263
25.8521 40.5535
25.8977 40.5012
25.9436 40.7859
25.9893 40.9751
26.0352 41.4417
26.0809 41.5628
26.1268 41.651
26.1725 41.237
26.2184 40.6029
26.2641 40.2633
26.31 40.18
26.3557 40.0714
26.4017 39.964
26.4474 40.3237
26.4933 40.6986
26.5391 41.1889
26.585 41.773
26.6308 42.1198
26.6767 42.2513
26.7225 41.9795
26.7684 41.3536
26.8142 40.771
26.8601 40.4272
26.9059 39.9452
26.9519 39.3287
26.9979 39.0175
27.0437 38.7457
27.0896 38.6301
27.1354 38.5867
27.1814 38.5691
27.2272 38.475
27.2732 38.4383
27.3191 38.3567
27.3651 38.2533
27.4109 38.398
27.4569 38.5671
27.5027 38.5205
27.5488 38.3732
27.5946 38.3672
27.6407 38.1552
27.6865 38.0456
27.7326 37.8737
27.7784 37.7674
27.8245 37.7501
27.8703 38.0392
27.9164 38.3197
27.9623 38.4688
28.0084 38.7696
28.0543 39.2598
28.1003 38.9694
28.1462 38.7462
28.1923 38.4026
28.2384 37.9669
28.2843 37.6154
28.3304 37.1031
28.3764 36.6575
28.4225 36.3893
28.4684 36.0902
28.5145 35.8921
28.5605 35.8167
28.6066 35.5962
28.6526 35.7196
28.6987 35.6259
28.7447 35.476
28.7908 35.393
28.8368 35.3829
28.8829 35.4026
28.9289 35.3366
28.9751 35.0715
29.0211 34.8845
29.0673 34.7522
29.1133 34.528
29.1595 34.2938
29.2055 34.2702
29.2517 34.3134
29.2977 34.2494
29.3439 34.2229
29.3899 34.1251
29.4361 34.145
29.4824 33.9637
29.5284 33.7329
29.5746 33.4189
29.6207 33.0632
29.6669 32.9629
29.713 32.9579
29.7593 32.8802
29.8053 32.8468
29.8516 32.7134
29.8977 32.7378
29.9439 32.5725
29.99 32.4667
30.0363 32.4381
30.0824 32.441
30.1287 32.2604
30.1748 32.5059
30.2211 32.4104
30.2673 32.2004
30.3136 32.3526
30.3597 32.2324
30.406 32.1708
30.4522 32.0047
30.4985 32.0171
30.5447 32.1285
30.591 32.1271
30.6372 32.2859
30.6835 32.1453
30.7297 32.3027
30.7761 32.0186
30.8224 31.9548
30.8686 31.8137
30.915 31.5723
30.9612 31.4498
31.0076 31.2545
31.0538 31.1321
31.1002 31.039
31.1464 30.8629
31.1928 30.9078
31.2391 30.9799
31.2855 30.8784
31.3317 30.861
31.3781 30.948
31.4244 30.9242
31.4708 30.747
31.5171 30.7968
31.5636 30.7139
31.6098 30.4586
31.6563 30.3939
31.7026 30.1771
31.7491 30.1223
31.7953 30.1617
31.8418 30.1738
31.8881 30.1324
31.9346 30.1499
31.9809 30.0267
32.0275 29.8918
32.074 29.7588
32.1203 29.6055
32.1668 29.609
32.2132 29.3351
32.2597 29.2522
32.306 29.2108
32.3526 28.9172
32.399 28.8115
32.4455 28.7816
32.4919 28.7042
32.5385 28.6662
32.5848 28.4924
32.6314 28.4164
32.6778 28.3968
32.7244 28.242
32.7708 28.2406
32.8174 28.1165
32.8638 28.09
32.9104 28.1207
32.9569 27.9654
33.0035 27.899
33.0499 27.8765
33.0966 27.8235
33.143 27.8212
33.1897 27.7327
33.2361 27.5975
33.2828 27.585
33.3293 27.4677
33.3759 27.3006
33.4226 27.1732
33.4691 27.1224
33.5158 27.0212
33.5623 26.912
33.609 26.6997
33.6555 26.6666
33.7022 26.5606
33.7487 26.4623
33.7954 26.4613
33.842 26.3392
33.8887 26.3285
33.9353 26.2278
33.982 26.1038
34.0286 25.9678
34.0753 25.9254
34.1219 25.9081
34.1687 25.8769
34.2152 25.6869
34.262 25.667
34.3086 25.5509
34.3554 25.5067
34.402 25.4125
34.4488 25.3443
34.4954 25.282
34.5422 25.1046
34.5889 25.0457
34.6357 24.9282
34.6825 24.8893
34.7292 24.8653
34.776 24.6781
34.8227 24.6683
34.8695 24.6054
34.9162 24.583
34.9631 24.5343
35.0098 24.4936
35.0566 24.3603
35.1033 24.2754
35.1502 24.3088
35.1969 24.1243
35.2438 24.0714
35.2906 24.0447
35.3375 23.9577
35.3842 24.058
35.4311 24.0656
35.4779 23.9324
35.5248 23.8031
35.5716 23.7676
35.6185 23.6603
35.6653 23.5443
35.7123 23.4877
35.759 23.3946
35.806 23.2874
35.8528 23.2877
35.8998 23.1537
35.9468 23.16
35.9936 23.0739
36.0406 23.0156
36.0874 22.9521
36.1345 22.9048
36.1813 22.8866
36.2283 22.6323
36.2752 22.6211
36.3222 22.6916
36.3691 22.5611
36.4161 22.4844
36.463 22.418
36.5101 22.372
36.557 22.3829
36.6041 22.1886
36.651 22.207
36.6981 22.0782
36.745 22.0816
36.7921 21.892
36.839 21.8674
36.8861 21.7622
36.9331 21.7018
36.9802 21.7112
37.0272 21.5777
37.0743 21.5312
37.1213 21.4676
37.1684 21.4306
37.2154 21.296
37.2626 21.3044
37.3098 21.2051
37.3568 21.1372
37.404 21.009
37.451 21.0538
37.4982 20.9352
37.5452 20.8604
37.5924 20.7851
37.6395 20.8495
37.6867 20.7328
37.7337 20.6228
37.781 20.5569
37.8281 20.4417
37.8753 20.3668
37.9224 20.2776
37.9697 20.2879
38.0168 20.2672
38.064 20.1428
38.1111 20.1072
38.1584 20.0036
38.2056 19.9361
38.2529 19.8983
38.3 19.8625
38.3473 19.7761
38.3945 19.6821
38.4418 19.6158
38.489 19.5543
38.5363 19.436
38.5837 19.4035
38.6309 19.4428
38.6782 19.2642
38.7254 19.2474
38.7728 19.2025
38.82 19.1049
38.8674 19.1476
38.9146 18.9753
38.9621 18.9824
39.0093 18.906
39.0567 18.8639
39.104 18.749
39.1514 18.6625
39.1987 18.6698
39.2461 18.6952
39.2934 18.6123
39.3409 18.4375
39.3882 18.387
39.4356 18.3547
39.483 18.2613
39.5304 18.138
39.5778 18.1691
39.6253 18.108
39.6726 18.0672
39.7201 18.0597
39.7675 18.0237
39.815 17.885
39.8624 17.8053
39.9099 17.8057
39.9575 17.7482
40.0049 17.6381
40.0525 17.5795
40.0999 17.6001
40.1474 17.5331
40.1949 17.4563
40.2425 17.4031
40.2899 17.3418
40.3375 17.2271
40.385 17.229
40.4326 17.2349
40.48 17.1205
40.5277 17.0118
40.5752 17.032
40.6228 16.9251
40.6703 16.9306
40.718 16.9262
40.7655 16.7971
40.8132 16.6661
40.8607 16.6716
40.9084 16.6999
40.9559 16.6026
41.0036 16.5567
41.0512 16.4346
41.0989 16.4526
41.1465 16.3277
41.1942 16.3322
41.242 16.248
41.2896 16.2242
41.3373 16.2031
41.3849 16.0787
41.4327 16.0154
41.4803 15.9408
41.5281 15.9497
41.5758 15.8414
41.6236 15.8514
41.6712 15.7408
41.7191 15.7388
41.7667 15.7127
41.8146 15.6852
41.8622 15.568
41.9101 15.5138
41.9578 15.4278
42.0057 15.4146
42.0534 15.353
42.1013 15.2499
42.149 15.2721
42.1969 15.2211
42.2446 15.1918
42.2925 15.0786
42.3403 15.0436
42.3882 15.019
42.436 14.9859
42.4839 14.8722
42.5319 14.866
42.5797 14.8443
42.6277 14.7082
42.6755 14.7095
42.7235 14.6651
42.7713 14.6749
42.8193 14.4998
42.8671 14.4975
42.9152 14.4808
42.963 14.3699
43.0111 14.3631
43.0589 14.2947
43.107 14.297
43.1549 14.2081
43.2029 14.1447
43.2508 14.1374
43.2989 14.0687
43.3468 14.0325
43.3949 14.0039
43.4429 13.8872
43.491 13.8723
43.5389 13.8061
43.5871 13.8564
43.635 13.7429
43.6832 13.6542
43.7312 13.611
43.7793 13.5815
43.8273 13.5239
43.8755 13.471
43.9237 13.4369
43.9717 13.4059
44.0199 13.3639
44.068 13.3128
44.1162 13.2261
44.1642 13.2378
44.2125 13.1651
44.2606 13.1559
44.3088 13.0572
44.3569 13.061
44.4052 13.0107
44.4533 12.9218
44.5016 12.8935
44.5497 12.8964
44.598 12.8272
44.6461 12.7715
44.6945 12.765
44.7426 12.6645
44.791 12.5913
44.8391 12.6083
44.8875 12.5521
44.9357 12.5225
44.984 12.4666
45.0322 12.3867
45.0806 12.3329
45.1288 12.291
45.1773 12.2824
45.2257 12.2452
45.2739 12.2009
45.3224 12.1564
45.3706 12.0738
45.4191 12.0459
45.4673 12.0405
45.5158 11.9888
45.5641 11.9393
45.6126 11.8844
45.6609 11.8318
45.7094 11.7922
45.7577 11.7656
45.8063 11.6644
45.8546 11.6731
45.9031 11.6409
45.9515 11.6073
46.0001 11.5847
46.0484 11.5177
46.097 11.4718
46.1454 11.4758
46.194 11.4525
46.2424 11.3682
46.291 11.3379
46.3395 11.2177
46.3881 11.2333
46.4365 11.2132
46.4852 11.1411
46.5337 11.1297
46.5823 11.092
46.631 10.9987
46.6795 11.0072
46.7282 10.9625
46.7767 10.9336
46.8254 10.8839
46.8739 10.8104
46.9226 10.7874
46.9712 10.7542
47.0199 10.7359
47.0685 10.6945
47.1173 10.6119
47.1658 10.5515
47.2146 10.5279
47.2632 10.4592
47.312 10.4801
47.3606 10.4541
47.4095 10.3736
47.4581 10.3537
47.5069 10.3035
47.5556 10.2726
47.6044 10.2541
47.6531 10.2049
47.702 10.1735
47.7507 10.1404
47.7996 10.1019
47.8483 10.0648
47.8972 10.0024
47.9461 9.98595
47.9948 9.90182
48.0438 9.90761
48.0925 9.86613
48.1415 9.82878
48.1902 9.80541
48.2392 9.76401
48.288 9.72248
48.337 9.70974
48.3858 9.69251
48.4348 9.66282
48.4837 9.59819
48.5327 9.55255
48.5815 9.54248
48.6306 9.49428
48.6795 9.4566
48.7285 9.42171
48.7774 9.42448
48.8265 9.34965
48.8754 9.33361
48.9245 9.27385
48.9734 9.2341
49.0226 9.21172
49.0715 9.16794
49.1206 9.12657
49.1696 9.07146
49.2188 9.08931
49.2679 9.0402
49.3169 8.98825
49.3661 8.97902
49.4151 8.93969
49.4643 8.9045
49.5134 8.87529
49.5626 8.78233
49.6117 8.80858
49.6609 8.80201
49.71 8.65021
49.7592 8.70981
49.8083 8.67854
49.8576 8.63214
49.9067 8.56694
49.956 8.56875
50.0052 8.52062
50.0545 8.47962
50.1036 8.44642
50.153 8.42207
50.2022 8.4176
50.2515 8.3395
50.3007 8.29757
50.3501 8.28913
50.3993 8.24981
50.4487 8.25819
50.498 8.1865
50.5474 8.17471
50.5966 8.1511
50.6461 8.10883
50.6955 8.05154
50.7448 8.04621
50.7943 8.0109
50.8436 7.97918
50.8931 7.96857
50.9424 7.8984
50.9919 7.87482
51.0413 7.87238
51.0908 7.83218
51.1402 7.83189
51.1897 7.78503
51.2391 7.73727
51.2887 7.70533
51.3381 7.64158
51.3877 7.63987
51.4371 7.61066
51.4867 7.55308
51.5362 7.54635
51.5858 7.53454
51.6353 7.45908
51.6849 7.46359
51.7344 7.41386
51.7841 7.38566
51.8336 7.39957
51.8833 7.33395
51.9328 7.30071
51.9826 7.25785
52.0323 7.23982
52.0818 7.17034
52.1316 7.16776
52.1812 7.13711
52.231 7.12437
52.2806 7.09281
52.3304 7.08195
52.38 7.03651
52.4298 7.01963
52.4794 6.96318
52.5293 6.94871
52.5789 6.87786
52.6288 6.86717
52.6785 6.84565
52.7284 6.81258
52.7781 6.81499
52.828 6.80131
52.8777 6.74434
52.9276 6.70579
52.9774 6.67677
53.0273 6.67341
53.0771 6.65844
53.1271 6.61363
53.1769 6.57561
53.2269 6.56014
53.2767 6.51591
53.3267 6.47565
53.3765 6.47756
53.4266 6.43045
53.4766 6.42793
53.5265 6.37514
53.5765 6.35842
53.6264 6.27603
53.6765 6.31262
53.7264 6.24764
53.7765 6.27362
53.8265 6.2065
53.8766 6.17769
53.9266 6.16776
53.9767 6.1704
54.0267 6.14414
54.0769 6.08658
54.1269 6.01026
54.1771 6.0063
54.2271 5.96789
54.2773 5.96373
54.3274 5.93349
54.3776 5.864
54.4277 5.86816
54.478 5.89082
54.528 5.80234
54.5783 5.76802
54.6285 5.69541
54.6788 5.66792
54.7289 5.62918
54.7792 5.55831
54.8296 5.55004
54.8798 5.54589
54.9301 5.50022
54.9803 5.42121
55.0307 5.43905
55.0809 5.37193
55.1314 5.32221
55.1816 5.27634
55.232 5.24177
55.2823 5.18432
55.3328 5.13587
55.383 5.05105
55.4335 5.01072
55.4838 4.97901
55.5344 4.95751
55.5847 4.88684
55.6352 4.92999
55.6856 4.84861
55.7361 4.79402