File: XRD/Ni3Fe_FD0895.xy
TT I
1.27165 7.61726
1.31627 6.73592
1.36089 6.22677
1.40551 5.76254
1.45013 6.21715
1.49476 5.67676
1.53938 6.00807
1.584 5.02848
1.62863 5.31832
1.67325 5.34858
1.71787 4.26155
1.7625 5.08401
1.80712 4.99772
1.85174 5.04655
1.89636 4.26274
1.94099 4.9586
1.98562 5.14844
2.03025 4.53012
2.07487 4.87812
2.11949 4.79462
2.16411 5.32701
2.20874 12.6057
2.25338 19.9059
2.298 5.39049
2.34263 5.98158
2.38725 6.2719
2.43188 5.86264
2.4765 7.5497
2.52115 6.94711
2.56577 8.30643
2.6104 8.05599
2.65503 7.8104
2.69965 8.25529
2.7443 8.51329
2.78893 8.66899
2.83356 8.96885
2.87818 8.48828
2.92281 9.05582
2.96744 9.39341
3.01209 10.6841
3.05672 11.6515
3.10135 12.1329
3.14599 13.0243
3.19062 14.5102
3.23527 14.7624
3.2799 15.5881
3.32454 16.9829
3.36917 17.7386
3.4138 18.8547
3.45844 19.3291
3.50309 20.6688
3.54773 21.3189
3.59237 23.5959
3.637 80.2299
3.68164 52.0842
3.7263 26.0674
3.77094 26.0652
3.81558 26.5169
3.86022 27.2658
3.90486 28.6005
3.9495 29.9459
3.99416 30.5726
4.0388 31.8111
4.08344 33.2671
4.12809 34.8572
4.17273 36.2032
4.21738 41.3976
4.26204 212.383
4.30669 185.075
4.35133 46.7438
4.39598 43.8731
4.44063 52.5127
4.4853 61.7065
4.52995 49.4421
4.5746 50.741
4.61925 52.3254
4.6639 54.5952
4.70855 57.4733
4.75322 60.1478
4.79788 63.17
4.84253 66.2545
4.88719 70.7578
4.93184 74.1157
4.97652 79.5526
5.02118 85.003
5.06583 92.1983
5.11049 102.721
5.15515 160.557
5.19981 308.946
5.24449 2607.65
5.28916 13419.4
5.33382 2518.65
5.37848 166.815
5.42315 122.8
5.46783 109.783
5.5125 103.215
5.55716 99.7277
5.60183 96.3221
5.6465 94.3459
5.69117 92.3412
5.73586 90.024
5.78053 89.861
5.8252 89.3116
5.86988 89.5897
5.91455 91.8941
5.95924 99.6789
6.00392 188.199
6.0486 890.748
6.09328 4545.64
6.13795 3058.67
6.18263 198.143
6.22733 87.9202
6.27201 79.995
6.3167 95.2447
6.36138 77.1367
6.40606 67.7683
6.45075 66.0037
6.49545 64.3447
6.54014 62.4661
6.58483 61.6378
6.62952 61.3781
6.67421 87.3432
6.71892 126.151
6.76361 65.9345
6.8083 57.3547
6.853 56.3548
6.89769 55.8507
6.94239 55.5632
6.98711 54.875
7.03181 54.4701
7.07651 54.4806
7.12121 54.3124
7.16591 54.3493
7.21063 54.2426
7.25533 67.624
7.30004 154.103
7.34475 83.4403
7.38945 55.1499
7.43416 53.5925
7.47889 53.5218
7.5236 53.9263
7.56831 54.0333
7.61303 56.0163
7.65774 56.4105
7.70247 55.4029
7.74719 55.3973
7.79191 55.6918
7.83663 55.9748
7.88135 57.0273
7.92607 57.7538
7.97081 59.0845
8.01553 59.7671
8.06026 61.0263
8.10498 62.4116
8.14971 70.7406
8.19446 70.3409
8.23919 68.6123
8.28392 70.9003
8.32865 72.9475
8.37339 76.7164
8.41812 83.171
8.46288 107.625
8.50761 153.725
8.55235 352.839
8.59709 1181.18
8.64183 2255.53
8.68658 880.271
8.73134 145.146
8.77609 95.8374
8.82083 90.1777
8.86558 87.8297
8.91033 87.5882
8.9551 89.129
8.99985 83.3906
9.04461 82.0912
9.08936 81.1557
9.13412 80.2264
9.17888 80.6123
9.22365 81.5809
9.26841 80.3724
9.31318 80.9085
9.35794 81.1432
9.4027 81.3686
9.44749 82.5337
9.49226 82.8395
9.53703 84.3187
9.5818 85.334
9.62657 89.9772
9.67134 95.6546
9.71614 91.8312
9.76091 92.1779
9.80569 94.6217
9.85047 98.3404
9.89525 118.929
9.94005 130.599
9.98484 166.301
10.0296 318.119
10.0744 789.829
10.1192 1838.15
10.164 1502.83
10.2088 332.638
10.2536 118.347
10.2984 109.591
10.3432 110.377
10.388 101.95
10.4328 114.451
10.4776 154.027
10.5224 279.882
10.5672 532.288
10.612 491.6
10.6568 180.933
10.7017 92.1232
10.7465 84.5698
10.7913 81.5139
10.8361 79.5
10.8809 77.1174
10.9257 77.0722
10.9706 76.7928
11.0154 73.1433
11.0602 71.2945
11.105 70.4958
11.1499 73.9357
11.1947 79.3512
11.2395 72.4066
11.2844 68.8233
11.3292 66.0214
11.374 64.8308
11.4189 64.3506
11.4637 63.5815
11.5086 64.2858
11.5534 66.3702
11.5983 64.0005
11.6431 62.4154
11.688 61.7224
11.7328 61.7868
11.7777 61.8504
11.8225 61.4487
11.8674 61.2339
11.9122 61.7505
11.9571 61.6208
12.002 62.4484
12.0468 66.0198
12.0917 76.3121
12.1366 99.6184
12.1814 157.147
12.2263 220.1
12.2712 158.177
12.3161 88.1857
12.3609 67.8871
12.4058 63.5205
12.4507 62.9487
12.4956 62.9247
12.5405 63.3211
12.5853 64.3822
12.6302 70.8429
12.6751 74.9515
12.72 68.2207
12.7649 66.5446
12.8098 66.9055
12.8547 68.2062
12.8996 69.5714
12.9445 70.8704
12.9894 72.5703
13.0343 74.6276
13.0792 77.8851
13.1242 85.6891
13.1691 107.284
13.214 142.499
13.2589 237.346
13.3038 388.623
13.3487 423.206
13.3937 236.793
13.4386 113.986
13.4835 101.268
13.5285 115.327
13.5734 152.688
13.6183 252.793
13.6633 367.559
13.7082 329.17
13.7531 164.982
13.7981 91.0695
13.843 79.7908
13.888 77.6935
13.9329 75.3933
13.9779 74.5289
14.0228 72.6505
14.0678 71.5111
14.1127 70.9256
14.1577 70.9005
14.2027 69.9907
14.2476 69.0516
14.2926 69.1518
14.3376 69.8282
14.3825 68.6982
14.4275 67.5111
14.4725 67.0822
14.5175 67.5798
14.5624 67.5343
14.6074 69.5743
14.6524 70.1228
14.6974 69.0152
14.7424 70.6128
14.7874 76.4433
14.8324 85.8652
14.8774 107.689
14.9224 155.351
14.9674 218.782
15.0124 215.815
15.0574 136.431
15.1024 84.1599
15.1474 70.167
15.1924 68.8027
15.2374 69.4641
15.2824 68.517
15.3274 66.7227
15.3725 65.5012
15.4175 65.2122
15.4625 64.8293
15.5076 65.0031
15.5526 64.8759
15.5976 64.5637
15.6426 65.4308
15.6877 70.0369
15.7327 77.0002
15.7778 91.965
15.8228 126.327
15.8679 176.813
15.9129 197.331
15.958 148.79
16.003 88.7917
16.0481 65.2574
16.0931 62.9396
16.1382 61.174
16.1833 59.0882
16.2283 57.7219
16.2734 57.185
16.3185 57.3223
16.3636 57.7207
16.4086 56.4589
16.4537 55.0405
16.4988 54.348
16.5439 54.399
16.589 53.9263
16.6341 53.807
16.6792 53.4681
16.7243 53.7067
16.7694 53.7328
16.8145 53.6754
16.8596 53.9388
16.9047 55.2286
16.9498 55.5159
16.9949 54.495
17.04 54.7057
17.0851 55.6712
17.1302 57.3793
17.1754 60.1463
17.2205 65.3337
17.2656 74.2671
17.3108 83.6072
17.3559 81.0454
17.401 67.8606
17.4462 59.8529
17.4913 57.9135
17.5365 57.9122
17.5815 58.148
17.6268 58.3219
17.6718 59.3055
17.7171 59.53
17.7622 60.2711
17.8074 60.8189
17.8525 62.67
17.8977 66.5494
17.9428 71.7211
17.9881 80.3329
18.0331 99.0604
18.0784 124.986
18.1237 139.393
18.1688 125.205
18.214 96.5152
18.2591 82.8004
18.3044 90.0854
18.3495 101.905
18.3948 106.454
18.4399 91.8779
18.4852 73.2754
18.5303 63.6726
18.5756 60.7351
18.6207 59.9976
18.666 59.2068
18.7112 58.5637
18.7565 57.8913
18.8016 57.6004
18.8469 56.9598
18.892 56.647
18.9374 56.1785
18.9825 55.9223
19.0278 55.8903
19.073 55.8541
19.1183 56.2369
19.1635 57.1258
19.2088 58.1172
19.254 60.8564
19.2993 65.7518
19.3447 72.4075
19.3898 75.9503
19.4352 69.7992
19.4804 60.6659
19.5257 54.9828
19.5709 53.0428
19.6163 52.94
19.6615 52.6163
19.7068 52.1618
19.752 52.2088
19.7974 52.5778
19.8426 53.3388
19.888 53.7754
19.9332 55.1735
19.9786 57.6849
20.0238 61.9167
20.0692 67.1332
20.1144 69.3115
20.1598 66.3729
20.205 61.3712
20.2504 61.0384
20.2957 64.1434
20.3411 65.6055
20.3863 62.6403
20.4318 56.3875
20.477 52.1889
20.5224 50.371
20.5677 50.112
20.6131 49.2401
20.6586 48.7979
20.7038 48.5771
20.7493 48.2829
20.7945 47.989
20.84 48.0368
20.8853 47.8435
20.9307 47.5617
20.976 47.9432
21.0215 47.5842
21.0668 48.1652
21.1122 48.6121
21.1575 49.2017
21.203 50.1269
21.2483 50.7512
21.2938 50.3806
21.3391 49.0098
21.3846 47.7074
21.4299 47.6324
21.4754 47.6335
21.5207 47.5695
21.5662 47.7661
21.6116 48.202
21.6571 48.7455
21.7024 49.7346
21.7479 51.5601
21.7933 54.5293
21.8388 58.6595
21.8843 62.8192
21.9297 63.9916
21.9752 61.2964
22.0206 57.6663
22.0661 55.4331
22.1115 55.5487
22.157 55.1694
22.2024 52.7326
22.248 50.0538
22.2933 48.7258
22.3389 48.056
22.3843 48.0567
22.4299 47.9472
22.4753 47.9422
22.5208 47.6997
22.5662 47.5518
22.6118 47.613
22.6572 47.9083
22.7028 48.3281
22.7483 48.7021
22.7939 49.4767
22.8393 51.1115
22.8849 53.5141
22.9303 55.836
22.9759 57.5389
23.0214 56.3581
23.067 52.8975
23.1126 49.581
23.1581 48.0627
23.2037 47.8944
23.2492 47.8309
23.2948 47.9658
23.3403 48.2473
23.3859 48.7899
23.4314 49.7755
23.477 51.8987
23.5225 54.4304
23.5682 56.9393
23.6137 57.4135
23.6593 54.2352
23.7048 50.0013
23.7505 46.9928
23.796 45.6216
23.8417 45.0339
23.8872 44.6983
23.9329 44.3713
23.9784 44.0893
24.0241 43.8601
24.0697 43.6992
24.1154 43.3406
24.1609 43.2627
24.2066 43.2021
24.2522 42.8902
24.2979 42.5766
24.3434 42.5609
24.3892 42.2798
24.4349 42.3325
24.4805 42.133
24.5262 42.3909
24.5718 42.2478
24.6175 42.3317
24.6631 42.1262
24.7089 41.784
24.7545 41.7115
24.8002 41.4858
24.8458 41.5096
24.8916 41.2072
24.9372 41.4917
24.983 41.7367
25.0286 42.1574
25.0744 42.7277
25.12 43.1825
25.1658 43.6629
25.2114 43.9165
25.2572 44.0168
25.3029 44.198
25.3487 44.3402
25.3943 43.7496
25.4402 42.598
25.4858 41.3565
25.5316 40.6077
25.5773 40.1791
25.6231 40.1532
25.669 39.9516
25.7147 39.7387
25.7605 39.8253
25.8062 39.8457
25.8521 39.8672
25.8977 39.8513
25.9436 40.0357
25.9893 40.2703
26.0352 41.0564
26.0809 40.9815
26.1268 41.1328
26.1725 40.4405
26.2184 39.9828
26.2641 39.6481
26.31 39.3245
26.3557 39.4686
26.4017 39.3037
26.4474 39.6054
26.4933 40.0677
26.5391 40.5187
26.585 41.1911
26.6308 41.6303
26.6767 41.4654
26.7225 41.2063
26.7684 40.6382
26.8142 40.2117
26.8601 39.6848
26.9059 39.3556
26.9519 38.6998
26.9979 38.4194
27.0437 38.1346
27.0896 37.9519
27.1354 38.0707
27.1814 37.9712
27.2272 37.8504
27.2732 37.9594
27.3191 37.7119
27.3651 37.748
27.4109 37.7514
27.4569 37.9406
27.5027 37.9986
27.5488 37.9382
27.5946 37.6213
27.6407 37.4336
27.6865 37.4321
27.7326 37.172
27.7784 37.2175
27.8245 37.1383
27.8703 37.3016
27.9164 37.7047
27.9623 37.8043
28.0084 38.1972
28.0543 38.5335
28.1003 38.3247
28.1462 37.9804
28.1923 37.7255
28.2384 37.3779
28.2843 36.8877
28.3304 36.4238
28.3764 36.0045
28.4225 35.7531
28.4684 35.6445
28.5145 35.4023
28.5605 35.2139
28.6066 34.999
28.6526 34.9861
28.6987 34.9859
28.7447 34.8896
28.7908 34.8165
28.8368 34.9121
28.8829 34.9085
28.9289 34.7376
28.9751 34.4591
29.0211 34.3831
29.0673 34.1236
29.1133 33.9329
29.1595 33.7753
29.2055 33.7469
29.2517 33.7649
29.2977 33.7361
29.3439 33.7369
29.3899 33.6023
29.4361 33.5193
29.4824 33.3034
29.5284 33.12
29.5746 32.7879
29.6207 32.507
29.6669 32.5256
29.713 32.4751
29.7593 32.241
29.8053 32.285
29.8516 32.3385
29.8977 32.1853
29.9439 32.003
29.99 32.0146
30.0363 31.9145
30.0824 31.9239
30.1287 31.7954
30.1748 31.8974
30.2211 31.8093
30.2673 31.701
30.3136 31.8637
30.3597 31.7208
30.406 31.6476
30.4522 31.4496
30.4985 31.4353
30.5447 31.5958
30.591 31.6428
30.6372 31.7113
30.6835 31.7238
30.7297 31.6594
30.7761 31.6014
30.8224 31.4356
30.8686 31.1924
30.915 31.0657
30.9612 30.8844
31.0076 30.7807
31.0538 30.6433
31.1002 30.4696
31.1464 30.3819
31.1928 30.3838
31.2391 30.4304
31.2855 30.304
31.3317 30.2958
31.3781 30.4066
31.4244 30.4429
31.4708 30.3716
31.5171 30.2821
31.5636 30.1938
31.6098 29.8678
31.6563 29.7488
31.7026 29.6745
31.7491 29.5509
31.7953 29.6006
31.8418 29.6453
31.8881 29.5729
31.9346 29.7053
31.9809 29.5568
32.0275 29.3874
32.074 29.3226
32.1203 29.077
32.1668 29.0377
32.2132 28.8963
32.2597 28.6246
32.306 28.6234
32.3526 28.3815
32.399 28.4431
32.4455 28.3228
32.4919 28.2336
32.5385 28.0893
32.5848 27.9746
32.6314 28.009
32.6778 27.8268
32.7244 27.7812
32.7708 27.6462
32.8174 27.6702
32.8638 27.5554
32.9104 27.654
32.9569 27.4836
33.0035 27.3645
33.0499 27.4459
33.0966 27.3178
33.143 27.3097
33.1897 27.1577
33.2361 27.1441
33.2828 27.0495
33.3293 26.8605
33.3759 26.8572
33.4226 26.7944
33.4691 26.6599
33.5158 26.5801
33.5623 26.4389
33.609 26.2616
33.6555 26.1469
33.7022 26.1655
33.7487 26.0169
33.7954 26.0299
33.842 25.9695
33.8887 25.8125
33.9353 25.7584
33.982 25.6284
34.0286 25.547
34.0753 25.4821
34.1219 25.3588
34.1687 25.3704
34.2152 25.2854
34.262 25.1997
34.3086 25.1561
34.3554 25.063
34.402 25.0122
34.4488 24.8754
34.4954 24.7327
34.5422 24.6985
34.5889 24.6348
34.6357 24.5633
34.6825 24.4464
34.7292 24.3981
34.776 24.2965
34.8227 24.2459
34.8695 24.1742
34.9162 24.1352
34.9631 24.0123
35.0098 24.0778
35.0566 23.9257
35.1033 23.9325
35.1502 23.8344
35.1969 23.7096
35.2438 23.738
35.2906 23.6151
35.3375 23.5849
35.3842 23.6081
35.4311 23.6243
35.4779 23.5099
35.5248 23.5331
35.5716 23.322
35.6185 23.2548
35.6653 23.2026
35.7123 23.1503
35.759 23.0327
35.806 22.9925
35.8528 22.8386
35.8998 22.7674
35.9468 22.751
35.9936 22.6765
36.0406 22.5825
36.0874 22.6672
36.1345 22.5005
36.1813 22.4479
36.2283 22.2882
36.2752 22.2949
36.3222 22.2658
36.3691 22.1419
36.4161 22.0801
36.463 22.0715
36.5101 22.0339
36.557 21.9209
36.6041 21.8153
36.651 21.7425
36.6981 21.757
36.745 21.6371
36.7921 21.642
36.839 21.4924
36.8861 21.5034
36.9331 21.4008
36.9802 21.3206
37.0272 21.2185
37.0743 21.0945
37.1213 21.0718
37.1684 20.9973
37.2154 20.9743
37.2626 20.8574
37.3098 20.8349
37.3568 20.7231
37.404 20.7335
37.451 20.645
37.4982 20.5537
37.5452 20.5065
37.5924 20.3803
37.6395 20.4332
37.6867 20.3557
37.7337 20.2605
37.781 20.1453
37.8281 20.1197
37.8753 20.1164
37.9224 19.9297
37.9697 19.9066
38.0168 19.8562
38.064 19.7826
38.1111 19.759
38.1584 19.6742
38.2056 19.6157
38.2529 19.5733
38.3 19.5111
38.3473 19.4527
38.3945 19.3232
38.4418 19.3683
38.489 19.2294
38.5363 19.1934
38.5837 19.1229
38.6309 19.0095
38.6782 18.9997
38.7254 18.8831
38.7728 18.8704
38.82 18.8194
38.8674 18.7651
38.9146 18.6843
38.9621 18.6069
39.0093 18.5615
39.0567 18.5094
39.104 18.5207
39.1514 18.3743
39.1987 18.3284
39.2461 18.3396
39.2934 18.2995
39.3409 18.1327
39.3882 18.1376
39.4356 18.0131
39.483 18.0384
39.5304 17.8723
39.5778 17.904
39.6253 17.8478
39.6726 17.7498
39.7201 17.7801
39.7675 17.6634
39.815 17.6096
39.8624 17.5548
39.9099 17.5444
39.9575 17.4185
40.0049 17.3966
40.0525 17.3088
40.0999 17.2782
40.1474 17.1812
40.1949 17.119
40.2425 17.1241
40.2899 17.0997
40.3375 17.0126
40.385 16.964
40.4326 16.9442
40.48 16.8072
40.5277 16.7284
40.5752 16.7703
40.6228 16.6845
40.6703 16.642
40.718 16.5726
40.7655 16.5078
40.8132 16.4896
40.8607 16.4061
40.9084 16.3963
40.9559 16.3133
41.0036 16.2541
41.0512 16.235
41.0989 16.1697
41.1465 16.1201
41.1942 16.0964
41.242 16.0002
41.2896 15.9442
41.3373 15.8581
41.3849 15.811
41.4327 15.7381
41.4803 15.7128
41.5281 15.6815
41.5758 15.6203
41.6236 15.5667
41.6712 15.5211
41.7191 15.5008
41.7667 15.3829
41.8146 15.4053
41.8622 15.3005
41.9101 15.256
41.9578 15.1664
42.0057 15.206
42.0534 15.1296
42.1013 15.0481
42.149 15.0441
42.1969 14.9834
42.2446 14.8922
42.2925 14.8814
42.3403 14.7973
42.3882 14.8095
42.436 14.7733
42.4839 14.683
42.5319 14.6283
42.5797 14.5441
42.6277 14.5232
42.6755 14.4774
42.7235 14.4173
42.7713 14.387
42.8193 14.3207
42.8671 14.2764
42.9152 14.2391
42.963 14.1825
43.0111 14.0967
43.0589 14.0997
43.107 14.049
43.1549 13.9808
43.2029 13.9278
43.2508 13.934
43.2989 13.8034
43.3468 13.7847
43.3949 13.7001
43.4429 13.6505
43.491 13.6751
43.5389 13.5854
43.5871 13.5344
43.635 13.5083
43.6832 13.5039
43.7312 13.3825
43.7793 13.3599
43.8273 13.3351
43.8755 13.3124
43.9237 13.2364
43.9717 13.1889
44.0199 13.152
44.068 13.0746
44.1162 13.0252
44.1642 13.0127
44.2125 12.9735
44.2606 12.8785
44.3088 12.8871
44.3569 12.8389
44.4052 12.7862
44.4533 12.7308
44.5016 12.6642
44.5497 12.6521
44.598 12.6218
44.6461 12.6136
44.6945 12.5244
44.7426 12.4981
44.791 12.4522
44.8391 12.3808
44.8875 12.3549
44.9357 12.3198
44.984 12.263
45.0322 12.1779
45.0806 12.1556
45.1288 12.13
45.1773 12.0825
45.2257 12.0266
45.2739 11.9874
45.3224 11.9702
45.3706 11.9389
45.4191 11.8478
45.4673 11.8164
45.5158 11.7317
45.5641 11.7249
45.6126 11.7095
45.6609 11.6428
45.7094 11.6138
45.7577 11.5383
45.8063 11.4735
45.8546 11.5214
45.9031 11.4748
45.9515 11.3946
46.0001 11.3755
46.0484 11.3306
46.097 11.3334
46.1454 11.2777
46.194 11.2499
46.2424 11.1826
46.291 11.1416
46.3395 11.0696
46.3881 11.0132
46.4365 11.0296
46.4852 10.9464
46.5337 10.9419
46.5823 10.8725
46.631 10.8779
46.6795 10.8092
46.7282 10.8006
46.7767 10.7287
46.8254 10.6712
46.8739 10.6543
46.9226 10.6036
46.9712 10.5667
47.0199 10.5119
47.0685 10.4716
47.1173 10.4369
47.1658 10.3926
47.2146 10.3845
47.2632 10.3238
47.312 10.2821
47.3606 10.2524
47.4095 10.1906
47.4581 10.2056
47.5069 10.1618
47.5556 10.0707
47.6044 10.0263
47.6531 10.0564
47.702 9.96459
47.7507 9.9923
47.7996 9.90441
47.8483 9.89286
47.8972 9.82013
47.9461 9.80473
47.9948 9.79728
48.0438 9.7136
48.0925 9.67914
48.1415 9.67934
48.1902 9.65354
48.2392 9.63725
48.288 9.58325
48.337 9.51104
48.3858 9.49469
48.4348 9.4573
48.4837 9.43874
48.5327 9.3624
48.5815 9.35772
48.6306 9.37577
48.6795 9.31449
48.7285 9.27338
48.7774 9.26104
48.8265 9.18519
48.8754 9.16157
48.9245 9.14046
48.9734 9.09286
49.0226 9.06741
49.0715 9.05616
49.1206 8.98491
49.1696 8.95739
49.2188 8.92422
49.2679 8.89635
49.3169 8.88812
49.3661 8.7818
49.4151 8.79153
49.4643 8.79889
49.5134 8.72623
49.5626 8.64346
49.6117 8.62109
49.6609 8.63829
49.71 8.56663
49.7592 8.55198
49.8083 8.4599
49.8576 8.49141
49.9067 8.41802
49.956 8.38466
50.0052 8.39234
50.0545 8.35088
50.1036 8.30517
50.153 8.29706
50.2022 8.28738
50.2515 8.25892
50.3007 8.18125
50.3501 8.13936
50.3993 8.12031
50.4487 8.12626
50.498 8.04732
50.5474 8.05372
50.5966 8.01243
50.6461 7.92935
50.6955 7.97113
50.7448 7.92675
50.7943 7.89492
50.8436 7.87191
50.8931 7.81892
50.9424 7.81141
50.9919 7.76425
51.0413 7.72692
51.0908 7.70003
51.1402 7.67404
51.1897 7.64413
51.2391 7.60686
51.2887 7.57284
51.3381 7.55523
51.3877 7.51274
51.4371 7.48579
51.4867 7.44069
51.5362 7.4243
51.5858 7.38767
51.6353 7.35555
51.6849 7.35127
51.7344 7.29752
51.7841 7.30845
51.8336 7.24323
51.8833 7.23926
51.9328 7.16559
51.9826 7.12692
52.0323 7.1381
52.0818 7.07812
52.1316 7.05335
52.1812 7.04118
52.231 6.97365
52.2806 6.96672
52.3304 6.93469
52.38 6.95629
52.4298 6.89759
52.4794 6.89171
52.5293 6.80366
52.5789 6.83548
52.6288 6.76886
52.6785 6.74778
52.7284 6.73265
52.7781 6.71861
52.828 6.64661
52.8777 6.64243
52.9276 6.62583
52.9774 6.62367
53.0273 6.58513
53.0771 6.53768
53.1271 6.49366
53.1769 6.50769
53.2269 6.44278
53.2767 6.41795
53.3267 6.39759
53.3765 6.3489
53.4266 6.35702
53.4766 6.29084
53.5265 6.2731
53.5765 6.26431
53.6264 6.24355
53.6765 6.19974
53.7264 6.16568
53.7765 6.15128
53.8265 6.13045
53.8766 6.10279
53.9266 6.0782
53.9767 6.00582
54.0267 6.01585
54.0769 6.01723
54.1269 5.96645
54.1771 5.94591
54.2271 5.92818
54.2773 5.87272
54.3274 5.8818
54.3776 5.82893
54.4277 5.79786
54.478 5.74339
54.528 5.74267
54.5783 5.68433
54.6285 5.6434
54.6788 5.58321
54.7289 5.51452
54.7792 5.55259
54.8296 5.48715
54.8798 5.4418
54.9301 5.38721
54.9803 5.36968
55.0307 5.31769
55.0809 5.3109
55.1314 5.30718
55.1816 5.17676
55.232 5.14141
55.2823 5.12536
55.3328 5.08471
55.383 4.97978
55.4335 4.97336
55.4838 4.92442
55.5344 4.84884
55.5847 4.86434
55.6352 4.79874
55.6856 4.78558
55.7361 4.71741