File: XRD/Ni3Fe_FD0471.xy
TT I
1.27165 7.60351
1.31627 6.86693
1.36089 6.44276
1.40551 6.3569
1.45013 5.9179
1.49476 5.55596
1.53938 6.05788
1.584 5.20892
1.62863 5.88146
1.67325 5.55549
1.71787 4.90666
1.7625 4.9551
1.80712 5.44739
1.85174 4.56184
1.89636 4.36036
1.94099 4.48987
1.98562 4.5319
2.03025 4.78926
2.07487 4.43862
2.11949 4.71452
2.16411 4.14068
2.20874 9.24562
2.25338 12.6778
2.298 5.45067
2.34263 5.39953
2.38725 5.32202
2.43188 5.17895
2.4765 6.48401
2.52115 5.85575
2.56577 6.71212
2.6104 7.75637
2.65503 6.78691
2.69965 7.20964
2.7443 8.18381
2.78893 7.65139
2.83356 8.46779
2.87818 8.41372
2.92281 9.20282
2.96744 9.67144
3.01209 10.2029
3.05672 10.7867
3.10135 12.2543
3.14599 12.754
3.19062 13.9392
3.23527 15.2034
3.2799 15.5275
3.32454 16.9909
3.36917 18.015
3.4138 19.0399
3.45844 19.8745
3.50309 21.0629
3.54773 21.7954
3.59237 23.1638
3.637 55.1735
3.68164 39.9956
3.7263 25.9321
3.77094 26.5085
3.81558 27.0
3.86022 27.6434
3.90486 29.0668
3.9495 30.0198
3.99416 31.2723
4.0388 32.141
4.08344 33.6708
4.12809 34.9636
4.17273 36.536
4.21738 40.1917
4.26204 136.538
4.30669 121.742
4.35133 45.4735
4.39598 44.3858
4.44063 49.4657
4.4853 56.3144
4.52995 53.6435
4.5746 54.2309
4.61925 54.5643
4.6639 56.3753
4.70855 58.4338
4.75322 62.3583
4.79788 66.7592
4.84253 69.0932
4.88719 74.5485
4.93184 77.5338
4.97652 82.8371
5.02118 90.2107
5.06583 98.996
5.11049 111.8
5.15515 166.608
5.19981 530.813
5.24449 3485.71
5.28916 11658.8
5.33382 2909.42
5.37848 205.297
5.42315 135.21
5.46783 119.769
5.5125 110.76
5.55716 104.8
5.60183 100.394
5.6465 98.3357
5.69117 96.7271
5.73586 95.0435
5.78053 96.9878
5.8252 96.5053
5.86988 98.4506
5.91455 98.8646
5.95924 112.099
6.00392 295.294
6.0486 1184.48
6.09328 4303.27
6.13795 3298.86
6.18263 254.454
6.22733 95.8711
6.27201 83.3381
6.3167 88.8599
6.36138 76.667
6.40606 70.553
6.45075 68.996
6.49545 66.1222
6.54014 64.4327
6.58483 63.8688
6.62952 63.2753
6.67421 76.9852
6.71892 99.0286
6.76361 63.777
6.8083 59.1207
6.853 58.5134
6.89769 57.5504
6.94239 56.8671
6.98711 56.5209
7.03181 56.2608
7.07651 55.7593
7.12121 55.426
7.16591 55.9854
7.21063 55.5502
7.25533 61.7763
7.30004 110.344
7.34475 71.9425
7.38945 55.7882
7.43416 54.5251
7.47889 54.7861
7.5236 54.9999
7.56831 55.7952
7.61303 56.5793
7.65774 57.0158
7.70247 57.0637
7.74719 56.8861
7.79191 57.0976
7.83663 57.5899
7.88135 58.4415
7.92607 59.1989
7.97081 60.7852
8.01553 61.7572
8.06026 63.5771
8.10498 64.859
8.14971 71.2222
8.19446 71.1131
8.23919 70.5553
8.28392 73.3273
8.32865 75.9349
8.37339 80.3201
8.41812 86.299
8.46288 109.276
8.50761 210.174
8.55235 465.806
8.59709 1239.01
8.64183 2165.66
8.68658 995.685
8.73134 167.186
8.77609 101.503
8.82083 94.7882
8.86558 92.5043
8.91033 92.1023
8.9551 90.2299
8.99985 86.569
9.04461 84.6829
9.08936 84.7333
9.13412 83.9489
9.17888 83.4031
9.22365 83.7192
9.26841 83.3592
9.31318 85.1095
9.35794 85.6661
9.4027 85.4378
9.44749 85.6226
9.49226 86.1303
9.53703 87.1618
9.5818 89.5721
9.62657 93.2798
9.67134 96.4203
9.71614 94.4685
9.76091 96.2569
9.80569 99.1644
9.85047 102.578
9.89525 115.85
9.94005 134.868
9.98484 221.573
10.0296 411.702
10.0744 885.769
10.1192 1712.49
10.164 1631.84
10.2088 407.711
10.2536 129.918
10.2984 112.82
10.3432 111.861
10.388 108.215
10.4328 131.885
10.4776 178.997
10.5224 301.232
10.5672 498.924
10.612 490.949
10.6568 201.129
10.7017 97.2716
10.7465 88.0422
10.7913 84.5919
10.8361 82.4128
10.8809 79.8549
10.9257 78.9267
10.9706 78.8715
11.0154 75.4521
11.0602 73.6288
11.105 72.4746
11.1499 73.556
11.1947 76.7345
11.2395 72.0801
11.2844 69.8075
11.3292 68.1665
11.374 66.8135
11.4189 66.2676
11.4637 65.7229
11.5086 65.7399
11.5534 66.7775
11.5983 65.3264
11.6431 64.598
11.688 63.7288
11.7328 63.8276
11.7777 63.8974
11.8225 63.2874
11.8674 63.3032
11.9122 63.773
11.9571 64.1382
12.002 65.5423
12.0468 72.2565
12.0917 84.2571
12.1366 109.234
12.1814 155.735
12.2263 201.136
12.2712 169.341
12.3161 91.5402
12.3609 68.7236
12.4058 64.9521
12.4507 65.213
12.4956 65.3332
12.5405 65.4349
12.5853 66.1449
12.6302 69.5536
12.6751 72.8833
12.72 69.5415
12.7649 68.8874
12.8098 69.5502
12.8547 71.0017
12.8996 72.2814
12.9445 73.7977
12.9894 75.8841
13.0343 77.3538
13.0792 82.0845
13.1242 97.3246
13.1691 122.213
13.214 162.802
13.2589 251.992
13.3038 368.432
13.3487 424.25
13.3937 263.007
13.4386 125.548
13.4835 114.223
13.5285 130.995
13.5734 171.457
13.6183 254.054
13.6633 341.31
13.7082 341.163
13.7531 188.168
13.7981 98.3284
13.843 83.1684
13.888 80.8785
13.9329 78.482
13.9779 77.1632
14.0228 75.5744
14.0678 74.3151
14.1127 73.6577
14.1577 73.0594
14.2027 72.4187
14.2476 71.4982
14.2926 71.4222
14.3376 71.4033
14.3825 70.8312
14.4275 70.1188
14.4725 69.7936
14.5175 69.9162
14.5624 70.2186
14.6074 71.0753
14.6524 71.8007
14.6974 71.7961
14.7424 75.9793
14.7874 83.8055
14.8324 95.537
14.8774 118.358
14.9224 157.745
14.9674 202.739
15.0124 216.403
15.0574 148.079
15.1024 90.5849
15.1474 73.0556
15.1924 71.0898
15.2374 71.0031
15.2824 70.3645
15.3274 68.7814
15.3725 67.8713
15.4175 67.6274
15.4625 67.0955
15.5076 66.9042
15.5526 67.15
15.5976 67.1771
15.6426 70.2569
15.6877 76.5679
15.7327 84.9061
15.7778 101.291
15.8228 131.081
15.8679 169.383
15.9129 192.168
15.958 155.393
16.003 94.8281
16.0481 68.2913
16.0931 64.5592
16.1382 62.5526
16.1833 61.4267
16.2283 59.7896
16.2734 58.8952
16.3185 58.8173
16.3636 58.844
16.4086 57.8298
16.4537 56.9758
16.4988 56.1989
16.5439 56.2338
16.589 56.0468
16.6341 55.6939
16.6792 55.2291
16.7243 55.783
16.7694 55.526
16.8145 55.6686
16.8596 55.685
16.9047 56.5151
16.9498 56.8202
16.9949 56.1913
17.04 57.228
17.0851 58.6317
17.1302 60.2772
17.1754 63.485
17.2205 68.6633
17.2656 75.1442
17.3108 82.3897
17.3559 82.0356
17.401 71.6083
17.4462 62.8539
17.4913 60.0338
17.5365 60.2312
17.5815 60.2404
17.6268 60.5973
17.6718 61.0533
17.7171 61.7175
17.7622 62.3623
17.8074 63.8536
17.8525 67.2264
17.8977 71.2437
17.9428 77.2624
17.9881 86.7972
18.0331 102.909
18.0784 121.564
18.1237 140.447
18.1688 133.075
18.214 106.001
18.2591 88.6735
18.3044 92.2701
18.3495 100.828
18.3948 106.828
18.4399 97.2926
18.4852 78.1212
18.5303 66.7015
18.5756 63.0906
18.6207 62.2296
18.666 61.4721
18.7112 60.624
18.7565 59.9434
18.8016 59.6675
18.8469 58.8798
18.892 58.5925
18.9374 58.1627
18.9825 57.6737
19.0278 57.8236
19.073 58.2147
19.1183 58.7195
19.1635 59.1742
19.2088 61.0542
19.254 63.5891
19.2993 67.8158
19.3447 72.8493
19.3898 76.6378
19.4352 72.9477
19.4804 63.7811
19.5257 57.2497
19.5709 54.8887
19.6163 54.7011
19.6615 54.6283
19.7068 54.2397
19.752 54.1692
19.7974 54.7253
19.8426 55.5478
19.888 56.2148
19.9332 57.8179
19.9786 60.4337
20.0238 63.858
20.0692 68.0021
20.1144 70.4292
20.1598 69.3058
20.205 64.7347
20.2504 62.8921
20.2957 64.4298
20.3411 66.143
20.3863 64.5798
20.4318 58.7561
20.477 54.2371
20.5224 51.9866
20.5677 51.6161
20.6131 50.7751
20.6586 50.3506
20.7038 50.2352
20.7493 49.8973
20.7945 49.5425
20.84 49.5146
20.8853 49.4955
20.9307 49.6116
20.976 49.5122
21.0215 49.4423
21.0668 49.8949
21.1122 50.4324
21.1575 50.9163
21.203 51.4002
21.2483 52.1204
21.2938 52.2451
21.3391 50.7537
21.3846 49.6146
21.4299 49.1442
21.4754 49.0827
21.5207 49.3939
21.5662 49.9257
21.6116 50.2955
21.6571 51.0535
21.7024 52.1471
21.7479 53.9249
21.7933 56.8215
21.8388 59.772
21.8843 63.1906
21.9297 65.5674
21.9752 64.0846
22.0206 60.3008
22.0661 56.9595
22.1115 56.6473
22.157 56.596
22.2024 54.9257
22.248 52.2705
22.2933 50.5324
22.3389 49.8559
22.3843 49.6658
22.4299 49.4665
22.4753 49.5537
22.5208 49.4608
22.5662 49.3651
22.6118 49.5828
22.6572 49.9148
22.7028 50.1834
22.7483 50.7469
22.7939 51.5404
22.8393 53.1094
22.8849 55.005
22.9303 56.6156
22.9759 58.3239
23.0214 57.9703
23.067 55.1726
23.1126 51.6836
23.1581 50.0807
23.2037 49.5049
23.2492 49.8805
23.2948 49.8431
23.3403 50.0791
23.3859 50.8782
23.4314 52.0783
23.477 53.699
23.5225 55.4496
23.5682 57.486
23.6137 58.3094
23.6593 56.3027
23.7048 52.25
23.7505 48.7827
23.796 47.2884
23.8417 46.5595
23.8872 46.1191
23.9329 45.9435
23.9784 45.5083
24.0241 45.3
24.0697 45.0531
24.1154 44.806
24.1609 44.8168
24.2066 44.291
24.2522 44.2586
24.2979 44.233
24.3434 44.0767
24.3892 43.8937
24.4349 43.7274
24.4805 43.5934
24.5262 43.9418
24.5718 43.527
24.6175 43.4572
24.6631 43.559
24.7089 43.3105
24.7545 42.9691
24.8002 42.9165
24.8458 42.9322
24.8916 42.8672
24.9372 42.7682
24.983 43.2781
25.0286 43.7711
25.0744 44.078
25.12 44.4287
25.1658 45.1063
25.2114 45.2947
25.2572 45.4247
25.3029 45.3728
25.3487 45.3728
25.3943 45.324
25.4402 43.9834
25.4858 42.984
25.5316 42.0719
25.5773 41.4983
25.6231 41.4817
25.669 41.321
25.7147 41.1173
25.7605 41.0959
25.8062 41.0962
25.8521 41.323
25.8977 41.3169
25.9436 41.6538
25.9893 41.5792
26.0352 42.2188
26.0809 42.0363
26.1268 42.3136
26.1725 42.0246
26.2184 41.4961
26.2641 41.0399
26.31 40.7934
26.3557 40.858
26.4017 40.7669
26.4474 41.1628
26.4933 41.4204
26.5391 41.904
26.585 42.3774
26.6308 42.6909
26.6767 42.7482
26.7225 42.5892
26.7684 41.8805
26.8142 41.4862
26.8601 41.0656
26.9059 40.6805
26.9519 40.1433
26.9979 39.8054
27.0437 39.5548
27.0896 39.3571
27.1354 39.3494
27.1814 39.3123
27.2272 39.021
27.2732 39.2474
27.3191 38.9862
27.3651 38.973
27.4109 38.9586
27.4569 39.0152
27.5027 39.0499
27.5488 39.2047
27.5946 38.91
27.6407 38.7429
27.6865 38.7319
27.7326 38.4898
27.7784 38.4295
27.8245 38.3692
27.8703 38.6425
27.9164 38.9081
27.9623 38.9685
28.0084 39.2587
28.0543 39.6773
28.1003 39.6296
28.1462 39.5192
28.1923 38.9244
28.2384 38.4842
28.2843 38.2543
28.3304 37.7524
28.3764 37.2312
28.4225 37.0362
28.4684 36.9009
28.5145 36.5465
28.5605 36.3906
28.6066 36.1898
28.6526 36.165
28.6987 36.0887
28.7447 36.0054
28.7908 35.9628
28.8368 35.9047
28.8829 35.8954
28.9289 35.7526
28.9751 35.6718
29.0211 35.5056
29.0673 35.2735
29.1133 35.0565
29.1595 34.9434
29.2055 34.7366
29.2517 34.8498
29.2977 34.8364
29.3439 34.893
29.3899 34.7164
29.4361 34.6839
29.4824 34.5141
29.5284 34.2055
29.5746 33.8646
29.6207 33.6395
29.6669 33.491
29.713 33.4462
29.7593 33.3677
29.8053 33.3736
29.8516 33.2971
29.8977 33.2708
29.9439 33.0581
29.99 33.1281
30.0363 32.8955
30.0824 33.0303
30.1287 32.7921
30.1748 32.86
30.2211 32.8253
30.2673 32.726
30.3136 32.8208
30.3597 32.7883
30.406 32.745
30.4522 32.5573
30.4985 32.4588
30.5447 32.5654
30.591 32.7029
30.6372 32.6278
30.6835 32.6331
30.7297 32.7087
30.7761 32.6094
30.8224 32.5138
30.8686 32.3419
30.915 32.0278
30.9612 32.0807
31.0076 31.7401
31.0538 31.6954
31.1002 31.5919
31.1464 31.409
31.1928 31.3252
31.2391 31.5206
31.2855 31.3054
31.3317 31.3507
31.3781 31.3866
31.4244 31.469
31.4708 31.3141
31.5171 31.374
31.5636 31.1674
31.6098 31.0296
31.6563 30.817
31.7026 30.7008
31.7491 30.5572
31.7953 30.7086
31.8418 30.5541
31.8881 30.6105
31.9346 30.524
31.9809 30.4749
32.0275 30.3726
32.074 30.3939
32.1203 30.0668
32.1668 29.9777
32.2132 29.8519
32.2597 29.7383
32.306 29.5899
32.3526 29.3958
32.399 29.4149
32.4455 29.2067
32.4919 29.0659
32.5385 29.0471
32.5848 28.8292
32.6314 28.9453
32.6778 28.8236
32.7244 28.7151
32.7708 28.5505
32.8174 28.6023
32.8638 28.5579
32.9104 28.539
32.9569 28.4268
33.0035 28.2698
33.0499 28.3235
33.0966 28.2724
33.143 28.2577
33.1897 28.139
33.2361 28.0046
33.2828 28.0715
33.3293 27.7487
33.3759 27.7507
33.4226 27.6496
33.4691 27.5029
33.5158 27.4167
33.5623 27.3079
33.609 27.2172
33.6555 27.1064
33.7022 27.0211
33.7487 26.9961
33.7954 26.899
33.842 26.8568
33.8887 26.7168
33.9353 26.6613
33.982 26.5322
34.0286 26.5238
34.0753 26.343
34.1219 26.2901
34.1687 26.2681
34.2152 26.1414
34.262 26.0228
34.3086 25.9341
34.3554 25.9318
34.402 25.7568
34.4488 25.6569
34.4954 25.6482
34.5422 25.5053
34.5889 25.5018
34.6357 25.3318
34.6825 25.2778
34.7292 25.1808
34.776 25.1597
34.8227 25.0134
34.8695 25.0291
34.9162 25.0173
34.9631 24.8732
35.0098 24.8042
35.0566 24.7784
35.1033 24.6814
35.1502 24.6155
35.1969 24.5247
35.2438 24.6179
35.2906 24.4521
35.3375 24.3993
35.3842 24.3295
35.4311 24.3866
35.4779 24.2867
35.5248 24.2724
35.5716 24.1364
35.6185 24.0926
35.6653 23.9582
35.7123 23.8251
35.759 23.8247
35.806 23.7182
35.8528 23.5807
35.8998 23.4755
35.9468 23.5005
35.9936 23.4326
36.0406 23.29
36.0874 23.3182
36.1345 23.2427
36.1813 23.217
36.2283 23.0472
36.2752 22.9535
36.3222 22.9877
36.3691 22.9182
36.4161 22.7962
36.463 22.8702
36.5101 22.7378
36.557 22.6652
36.6041 22.4878
36.651 22.5457
36.6981 22.3837
36.745 22.3505
36.7921 22.2804
36.839 22.1328
36.8861 22.1274
36.9331 22.0423
36.9802 22.011
37.0272 21.8475
37.0743 21.8386
37.1213 21.7231
37.1684 21.7033
37.2154 21.7247
37.2626 21.5773
37.3098 21.5494
37.3568 21.4889
37.404 21.4791
37.451 21.2508
37.4982 21.2629
37.5452 21.1646
37.5924 21.0734
37.6395 21.1276
37.6867 20.9957
37.7337 20.9702
37.781 20.8024
37.8281 20.7884
37.8753 20.6377
37.9224 20.6184
37.9697 20.6054
38.0168 20.4732
38.064 20.4695
38.1111 20.3645
38.1584 20.3119
38.2056 20.2292
38.2529 20.1725
38.3 20.1433
38.3473 20.0887
38.3945 19.9629
38.4418 19.9863
38.489 19.8525
38.5363 19.8327
38.5837 19.7456
38.6309 19.6862
38.6782 19.6519
38.7254 19.513
38.7728 19.5152
38.82 19.406
38.8674 19.3784
38.9146 19.3243
38.9621 19.2576
39.0093 19.2266
39.0567 19.1554
39.104 19.1103
39.1514 18.9893
39.1987 18.9601
39.2461 18.9168
39.2934 18.8606
39.3409 18.7255
39.3882 18.6449
39.4356 18.6139
39.483 18.5971
39.5304 18.5598
39.5778 18.4731
39.6253 18.3914
39.6726 18.3613
39.7201 18.3623
39.7675 18.2704
39.815 18.228
39.8624 18.1436
39.9099 18.062
39.9575 17.958
40.0049 17.9479
40.0525 17.8998
40.0999 17.8417
40.1474 17.7797
40.1949 17.7276
40.2425 17.7115
40.2899 17.5841
40.3375 17.56
40.385 17.4778
40.4326 17.4766
40.48 17.4002
40.5277 17.383
40.5752 17.2851
40.6228 17.1772
40.6703 17.1607
40.718 17.102
40.7655 17.0552
40.8132 17.006
40.8607 16.9624
40.9084 16.9022
40.9559 16.8169
41.0036 16.7961
41.0512 16.7317
41.0989 16.646
41.1465 16.6221
41.1942 16.5952
41.242 16.4691
41.2896 16.41
41.3373 16.4082
41.3849 16.3737
41.4327 16.2872
41.4803 16.2007
41.5281 16.2513
41.5758 16.0722
41.6236 16.0662
41.6712 16.0234
41.7191 15.9653
41.7667 15.9209
41.8146 15.8171
41.8622 15.8064
41.9101 15.7055
41.9578 15.6595
42.0057 15.6936
42.0534 15.5452
42.1013 15.5356
42.149 15.4525
42.1969 15.3782
42.2446 15.3737
42.2925 15.331
42.3403 15.2456
42.3882 15.2904
42.436 15.2142
42.4839 15.1398
42.5319 15.0842
42.5797 15.0685
42.6277 14.9771
42.6755 14.9268
42.7235 14.8831
42.7713 14.8158
42.8193 14.7494
42.8671 14.738
42.9152 14.667
42.963 14.6358
43.0111 14.5821
43.0589 14.482
43.107 14.46
43.1549 14.438
43.2029 14.3768
43.2508 14.3514
43.2989 14.2752
43.3468 14.2166
43.3949 14.142
43.4429 14.1105
43.491 14.099
43.5389 14.0067
43.5871 13.9839
43.635 13.9522
43.6832 13.8615
43.7312 13.8412
43.7793 13.7585
43.8273 13.7275
43.8755 13.7053
43.9237 13.5896
43.9717 13.5884
44.0199 13.5328
44.068 13.4617
44.1162 13.49
44.1642 13.4102
44.2125 13.3406
44.2606 13.3281
44.3088 13.2402
44.3569 13.222
44.4052 13.1592
44.4533 13.1065
44.5016 13.0502
44.5497 13.0781
44.598 12.9883
44.6461 12.9524
44.6945 12.8921
44.7426 12.8308
44.791 12.7555
44.8391 12.7816
44.8875 12.7075
44.9357 12.6675
44.984 12.6345
45.0322 12.6013
45.0806 12.5352
45.1288 12.5005
45.1773 12.5087
45.2257 12.4001
45.2739 12.3881
45.3224 12.3575
45.3706 12.2725
45.4191 12.201
45.4673 12.1667
45.5158 12.1463
45.5641 12.0683
45.6126 12.0774
45.6609 11.9755
45.7094 11.9566
45.7577 11.8972
45.8063 11.8492
45.8546 11.9136
45.9031 11.8004
45.9515 11.7498
46.0001 11.7048
46.0484 11.6827
46.097 11.6495
46.1454 11.606
46.194 11.5799
46.2424 11.4664
46.291 11.4789
46.3395 11.419
46.3881 11.3451
46.4365 11.3548
46.4852 11.2938
46.5337 11.2324
46.5823 11.24
46.631 11.2142
46.6795 11.1164
46.7282 11.1287
46.7767 11.0809
46.8254 10.9911
46.8739 10.9723
46.9226 10.9584
46.9712 10.9335
47.0199 10.8642
47.0685 10.8352
47.1173 10.7765
47.1658 10.7061
47.2146 10.6961
47.2632 10.5958
47.312 10.639
47.3606 10.565
47.4095 10.5164
47.4581 10.4763
47.5069 10.4579
47.5556 10.4266
47.6044 10.3767
47.6531 10.3008
47.702 10.2518
47.7507 10.2818
47.7996 10.2362
47.8483 10.2309
47.8972 10.1748
47.9461 10.1427
47.9948 10.0459
48.0438 10.0741
48.0925 10.0048
48.1415 9.9649
48.1902 9.90234
48.2392 9.8878
48.288 9.88844
48.337 9.8227
48.3858 9.82011
48.4348 9.73459
48.4837 9.75555
48.5327 9.73266
48.5815 9.64815
48.6306 9.63231
48.6795 9.61338
48.7285 9.53134
48.7774 9.54723
48.8265 9.46748
48.8754 9.46973
48.9245 9.44987
48.9734 9.36929
49.0226 9.38009
49.0715 9.28585
49.1206 9.22604
49.1696 9.21543
49.2188 9.21788
49.2679 9.13846
49.3169 9.1239
49.3661 9.07602
49.4151 9.06707
49.4643 9.02869
49.5134 8.98423
49.5626 8.94109
49.6117 8.92041
49.6609 8.89177
49.71 8.80183
49.7592 8.80037
49.8083 8.77504
49.8576 8.72694
49.9067 8.70771
49.956 8.68506
50.0052 8.62402
50.0545 8.56786
50.1036 8.59155
50.153 8.56385
50.2022 8.55773
50.2515 8.45406
50.3007 8.46629
50.3501 8.41931
50.3993 8.38454
50.4487 8.31916
50.498 8.3186
50.5474 8.28661
50.5966 8.26277
50.6461 8.23067
50.6955 8.17948
50.7448 8.17377
50.7943 8.12309
50.8436 8.09542
50.8931 8.10241
50.9424 8.03767
50.9919 8.01212
51.0413 7.95748
51.0908 7.91637
51.1402 7.89387
51.1897 7.90826
51.2391 7.8148
51.2887 7.80809
51.3381 7.76946
51.3877 7.76564
51.4371 7.75883
51.4867 7.68775
51.5362 7.6576
51.5858 7.60555
51.6353 7.57702
51.6849 7.54616
51.7344 7.55033
51.7841 7.52618
51.8336 7.50216
51.8833 7.43923
51.9328 7.41212
51.9826 7.34575
52.0323 7.2926
52.0818 7.30275
52.1316 7.22489
52.1812 7.29032
52.231 7.27055
52.2806 7.16278
52.3304 7.16914
52.38 7.13901
52.4298 7.099
52.4794 7.05178
52.5293 7.03342
52.5789 7.02854
52.6288 7.01593
52.6785 6.92634
52.7284 6.87165
52.7781 6.90397
52.828 6.88218
52.8777 6.81639
52.9276 6.77547
52.9774 6.79545
53.0273 6.79877
53.0771 6.73347
53.1271 6.70804
53.1769 6.62773
53.2269 6.65396
53.2767 6.59731
53.3267 6.56562
53.3765 6.56138
53.4266 6.52078
53.4766 6.48206
53.5265 6.48408
53.5765 6.46491
53.6264 6.40622
53.6765 6.37596
53.7264 6.36189
53.7765 6.31601
53.8265 6.27583
53.8766 6.25972
53.9266 6.26618
53.9767 6.22224
54.0267 6.19791
54.0769 6.18389
54.1269 6.14084
54.1771 6.13007
54.2271 6.08448
54.2773 6.05984
54.3274 5.99889
54.3776 5.92926
54.4277 5.96763
54.478 5.94682
54.528 5.86826
54.5783 5.8172
54.6285 5.79967
54.6788 5.74937
54.7289 5.66545
54.7792 5.68602
54.8296 5.61384
54.8798 5.58352
54.9301 5.53029
54.9803 5.5027
55.0307 5.52024
55.0809 5.47689
55.1314 5.38046
55.1816 5.37187
55.232 5.30594
55.2823 5.27088
55.3328 5.21642
55.383 5.16044
55.4335 5.09586
55.4838 5.0559
55.5344 5.05994
55.5847 4.96133
55.6352 4.91756
55.6856 4.91701
55.7361 4.89323