File: XRD/Ni3Fe_FD1080.xy
TT I
1.27165 7.37816
1.31627 6.47534
1.36089 6.06918
1.40551 5.94612
1.45013 6.1143
1.49476 5.36938
1.53938 5.53539
1.584 4.54346
1.62863 4.77847
1.67325 5.00264
1.71787 4.95112
1.7625 4.32298
1.80712 4.29689
1.85174 4.18166
1.89636 4.50293
1.94099 4.4869
1.98562 4.23716
2.03025 4.13858
2.07487 3.62905
2.11949 4.26843
2.16411 4.12074
2.20874 5.14043
2.25338 6.20078
2.298 5.15702
2.34263 5.02772
2.38725 6.37398
2.43188 5.23132
2.4765 6.75686
2.52115 7.62246
2.56577 8.79798
2.6104 7.9215
2.65503 8.25117
2.69965 8.64807
2.7443 7.70808
2.78893 7.88914
2.83356 8.85678
2.87818 8.81596
2.92281 9.42195
2.96744 9.03559
3.01209 10.0289
3.05672 11.029
3.10135 12.0898
3.14599 12.5373
3.19062 14.1372
3.23527 14.8939
3.2799 15.3282
3.32454 16.3493
3.36917 17.2856
3.4138 18.1476
3.45844 18.5924
3.50309 19.7134
3.54773 20.6135
3.59237 21.1185
3.637 27.734
3.68164 26.5824
3.7263 24.306
3.77094 24.4749
3.81558 25.3276
3.86022 26.095
3.90486 27.4594
3.9495 28.1142
3.99416 29.2498
4.0388 30.0615
4.08344 31.4636
4.12809 32.2601
4.17273 33.5288
4.21738 35.5438
4.26204 52.2694
4.30669 56.4583
4.35133 40.4029
4.39598 40.8395
4.44063 43.1879
4.4853 46.5565
4.52995 46.2705
4.5746 48.7267
4.61925 51.0431
4.6639 52.5098
4.70855 55.2173
4.75322 58.2693
4.79788 61.2263
4.84253 63.9449
4.88719 68.2803
4.93184 72.1046
4.97652 77.4501
5.02118 83.4009
5.06583 89.6072
5.11049 98.3083
5.15515 118.426
5.19981 233.354
5.24449 2547.54
5.28916 13661.7
5.33382 3299.56
5.37848 203.504
5.42315 123.321
5.46783 108.357
5.5125 100.929
5.55716 98.08
5.60183 93.205
5.6465 91.4087
5.69117 89.825
5.73586 87.8173
5.78053 87.1657
5.8252 86.5095
5.86988 87.3007
5.91455 89.0515
5.95924 95.707
6.00392 166.496
6.0486 898.782
6.09328 4455.93
6.13795 3687.08
6.18263 238.529
6.22733 87.1554
6.27201 75.9253
6.3167 73.0498
6.36138 68.8861
6.40606 64.8165
6.45075 63.5448
6.49545 62.0059
6.54014 60.1215
6.58483 58.9977
6.62952 58.2566
6.67421 58.8287
6.71892 64.1042
6.76361 56.7041
6.8083 54.7583
6.853 53.9138
6.89769 53.3505
6.94239 53.1272
6.98711 52.6795
7.03181 52.4477
7.07651 52.1673
7.12121 52.146
7.16591 51.6727
7.21063 51.0951
7.25533 51.719
7.30004 61.7935
7.34475 56.0156
7.38945 52.0183
7.43416 50.9365
7.47889 51.5849
7.5236 57.9622
7.56831 70.8565
7.61303 56.2046
7.65774 52.8771
7.70247 53.1983
7.74719 53.2892
7.79191 53.5863
7.83663 53.9459
7.88135 55.2767
7.92607 55.8183
7.97081 56.7858
8.01553 58.0391
8.06026 59.1099
8.10498 60.6455
8.14971 62.3552
8.19446 64.0276
8.23919 65.8224
8.28392 68.5536
8.32865 70.3707
8.37339 73.9889
8.41812 78.1327
8.46288 86.5821
8.50761 129.733
8.55235 382.661
8.59709 1119.93
8.64183 2278.58
8.68658 1086.31
8.73134 173.384
8.77609 95.0415
8.82083 88.4844
8.86558 85.7601
8.91033 83.7593
8.9551 82.591
8.99985 81.1283
9.04461 80.2699
9.08936 79.6247
9.13412 79.1126
9.17888 79.5209
9.22365 90.7301
9.26841 110.205
9.31318 87.9118
9.35794 80.1037
9.4027 79.8319
9.44749 80.9229
9.49226 81.1192
9.53703 81.9591
9.5818 83.6114
9.62657 84.7018
9.67134 86.9382
9.71614 87.7436
9.76091 89.7497
9.80569 92.0473
9.85047 94.6007
9.89525 99.4242
9.94005 106.479
9.98484 148.63
10.0296 355.296
10.0744 784.337
10.1192 1772.91
10.164 1696.96
10.2088 438.783
10.2536 124.794
10.2984 103.292
10.3432 101.015
10.388 98.1288
10.4328 108.491
10.4776 163.356
10.5224 276.067
10.5672 515.672
10.612 574.455
10.6568 228.408
10.7017 103.064
10.7465 86.122
10.7913 79.7503
10.8361 78.0644
10.8809 75.6279
10.9257 73.6202
10.9706 72.709
11.0154 70.9535
11.0602 69.4411
11.105 68.4447
11.1499 67.323
11.1947 67.5617
11.2395 65.8964
11.2844 65.0114
11.3292 63.8089
11.374 63.2514
11.4189 62.7061
11.4637 61.9399
11.5086 61.4121
11.5534 61.1171
11.5983 60.9708
11.6431 60.6186
11.688 60.3523
11.7328 60.2581
11.7777 59.8997
11.8225 59.9411
11.8674 60.0839
11.9122 61.9419
11.9571 67.5052
12.002 65.9452
12.0468 64.1435
12.0917 77.3105
12.1366 99.9531
12.1814 147.534
12.2263 203.526
12.2712 173.784
12.3161 96.0331
12.3609 64.7077
12.4058 61.4374
12.4507 61.4681
12.4956 61.653
12.5405 61.5169
12.5853 61.8966
12.6302 62.768
12.6751 64.274
12.72 64.1689
12.7649 64.8097
12.8098 65.4097
12.8547 66.4013
12.8996 68.1297
12.9445 69.2537
12.9894 71.2767
13.0343 72.9809
13.0792 76.6753
13.1242 82.4804
13.1691 108.698
13.214 149.394
13.2589 231.912
13.3038 370.852
13.3487 451.138
13.3937 276.185
13.4386 125.277
13.4835 99.2126
13.5285 120.961
13.5734 158.377
13.6183 238.441
13.6633 357.455
13.7082 358.647
13.7531 203.594
13.7981 99.8707
13.843 79.5932
13.888 77.0514
13.9329 74.7526
13.9779 73.5362
14.0228 72.0854
14.0678 70.9961
14.1127 71.8596
14.1577 74.6463
14.2027 73.096
14.2476 68.8846
14.2926 67.663
14.3376 67.294
14.3825 66.9612
14.4275 66.3957
14.4725 66.4815
14.5175 66.5824
14.5624 66.4484
14.6074 67.0129
14.6524 67.3662
14.6974 67.4619
14.7424 68.7594
14.7874 74.821
14.8324 89.4272
14.8774 111.238
14.9224 149.974
14.9674 209.618
15.0124 226.092
15.0574 157.426
15.1024 93.2358
15.1474 71.0155
15.1924 67.8813
15.2374 66.5717
15.2824 65.9018
15.3274 65.0607
15.3725 64.5236
15.4175 64.4027
15.4625 63.7743
15.5076 63.4287
15.5526 63.7569
15.5976 63.5369
15.6426 63.9813
15.6877 68.9677
15.7327 80.0966
15.7778 95.4258
15.8228 123.661
15.8679 169.9
15.9129 203.286
15.958 168.241
16.003 103.773
16.0481 69.3606
16.0931 62.7647
16.1382 59.7928
16.1833 58.3354
16.2283 57.1523
16.2734 56.5045
16.3185 55.7601
16.3636 55.0962
16.4086 54.7082
16.4537 54.0887
16.4988 53.6627
16.5439 53.6004
16.589 53.3782
16.6341 52.9913
16.6792 52.8661
16.7243 52.9838
16.7694 52.6632
16.8145 52.7364
16.8596 52.9611
16.9047 53.6327
16.9498 54.4544
16.9949 53.9425
17.04 53.8504
17.0851 54.924
17.1302 57.1454
17.1754 60.6115
17.2205 65.1519
17.2656 72.6993
17.3108 81.7802
17.3559 82.4763
17.401 71.8974
17.4462 61.5367
17.4913 57.5081
17.5365 57.1546
17.5815 57.5274
17.6268 57.894
17.6718 58.3867
17.7171 58.7751
17.7622 59.9751
17.8074 60.709
17.8525 61.8655
17.8977 66.7674
17.9428 73.7047
17.9881 82.7389
18.0331 98.2804
18.0784 121.327
18.1237 142.35
18.1688 137.481
18.214 108.655
18.2591 87.9362
18.3044 88.9958
18.3495 99.5255
18.3948 107.131
18.4399 98.3449
18.4852 78.6406
18.5303 65.6115
18.5756 61.2799
18.6207 60.1665
18.666 59.0722
18.7112 58.0886
18.7565 57.5793
18.8016 57.012
18.8469 56.5302
18.892 56.419
18.9374 55.8362
18.9825 55.4763
19.0278 55.3142
19.073 55.0625
19.1183 55.2426
19.1635 56.4827
19.2088 58.3572
19.254 60.8975
19.2993 65.5147
19.3447 72.1436
19.3898 75.957
19.4352 72.296
19.4804 63.181
19.5257 56.27
19.5709 53.1882
19.6163 52.3496
19.6615 52.298
19.7068 51.8811
19.752 51.694
19.7974 51.9154
19.8426 52.7197
19.888 53.7047
19.9332 55.3931
19.9786 57.9129
20.0238 61.2125
20.0692 66.8169
20.1144 70.3554
20.1598 69.0296
20.205 64.0467
20.2504 61.796
20.2957 63.7575
20.3411 65.492
20.3863 63.9465
20.4318 58.0823
20.477 52.676
20.5224 49.9164
20.5677 49.41
20.6131 48.968
20.6586 48.4682
20.7038 48.4193
20.7493 48.0274
20.7945 48.0509
20.84 47.999
20.8853 47.4802
20.9307 47.4119
20.976 47.494
21.0215 47.4925
21.0668 47.877
21.1122 48.3136
21.1575 48.8648
21.203 49.5822
21.2483 50.5671
21.2938 50.601
21.3391 49.1422
21.3846 47.9571
21.4299 47.377
21.4754 47.2438
21.5207 47.535
21.5662 47.6805
21.6116 47.867
21.6571 49.0026
21.7024 50.2383
21.7479 51.9775
21.7933 54.4759
21.8388 58.1874
21.8843 62.9868
21.9297 65.3116
21.9752 63.8313
22.0206 59.8874
22.0661 56.4117
22.1115 55.8584
22.157 56.1077
22.2024 54.2924
22.248 51.345
22.2933 49.1603
22.3389 48.0262
22.3843 47.7882
22.4299 47.5298
22.4753 47.7254
22.5208 47.4475
22.5662 47.6192
22.6118 47.716
22.6572 47.6732
22.7028 48.3305
22.7483 48.9852
22.7939 49.9629
22.8393 51.4013
22.8849 53.3924
22.9303 55.9029
22.9759 57.793
23.0214 57.3497
23.067 54.4664
23.1126 50.9652
23.1581 48.6219
23.2037 47.8756
23.2492 47.9056
23.2948 47.8137
23.3403 48.3953
23.3859 49.4698
23.4314 50.457
23.477 52.211
23.5225 54.6729
23.5682 57.1426
23.6137 58.5762
23.6593 56.449
23.7048 51.9938
23.7505 48.1988
23.796 46.0407
23.8417 45.2545
23.8872 44.6418
23.9329 44.4547
23.9784 44.1057
24.0241 43.8606
24.0697 43.5215
24.1154 43.3178
24.1609 42.9296
24.2066 42.7782
24.2522 42.5926
24.2979 42.3727
24.3434 42.3211
24.3892 42.1045
24.4349 42.144
24.4805 42.0707
24.5262 42.2608
24.5718 42.1254
24.6175 42.1503
24.6631 42.1175
24.7089 41.6904
24.7545 41.4144
24.8002 41.3994
24.8458 41.2227
24.8916 41.1721
24.9372 41.4682
24.983 41.7516
25.0286 42.1474
25.0744 42.615
25.12 43.2688
25.1658 43.899
25.2114 44.2402
25.2572 44.4358
25.3029 44.5352
25.3487 44.6574
25.3943 44.3978
25.4402 43.1561
25.4858 42.0174
25.5316 40.8295
25.5773 40.2112
25.6231 40.1817
25.669 39.9037
25.7147 39.7304
25.7605 39.7516
25.8062 39.8485
25.8521 39.9413
25.8977 39.9797
25.9436 40.1153
25.9893 40.1569
26.0352 40.785
26.0809 41.1163
26.1268 41.3147
26.1725 40.9544
26.2184 40.3125
26.2641 39.7126
26.31 39.4063
26.3557 39.6298
26.4017 39.4507
26.4474 39.8207
26.4933 40.0215
26.5391 40.7333
26.585 41.2413
26.6308 41.7457
26.6767 41.948
26.7225 41.8549
26.7684 41.2123
26.8142 40.5613
26.8601 40.1354
26.9059 39.6416
26.9519 39.1207
26.9979 38.7767
27.0437 38.4309
27.0896 38.2133
27.1354 38.2062
27.1814 38.0691
27.2272 37.9532
27.2732 37.9035
27.3191 37.8621
27.3651 37.9358
27.4109 37.8539
27.4569 37.993
27.5027 38.0539
27.5488 38.1185
27.5946 38.0125
27.6407 37.6112
27.6865 37.6433
27.7326 37.396
27.7784 37.2996
27.8245 37.3733
27.8703 37.5725
27.9164 37.814
27.9623 37.9561
28.0084 38.6107
28.0543 38.8891
28.1003 38.7986
28.1462 38.5942
28.1923 38.324
28.2384 37.6935
28.2843 37.3538
28.3304 36.8343
28.3764 36.2715
28.4225 35.9369
28.4684 35.697
28.5145 35.4682
28.5605 35.3035
28.6066 35.2107
28.6526 35.0808
28.6987 35.0676
28.7447 35.0129
28.7908 34.9212
28.8368 34.8865
28.8829 34.8118
28.9289 34.9181
28.9751 34.5394
29.0211 34.5057
29.0673 34.2456
29.1133 34.0606
29.1595 33.81
29.2055 33.8042
29.2517 33.8658
29.2977 33.7263
29.3439 33.7327
29.3899 33.7414
29.4361 33.6781
29.4824 33.4772
29.5284 33.3075
29.5746 32.9712
29.6207 32.62
29.6669 32.5283
29.713 32.4927
29.7593 32.2199
29.8053 32.2438
29.8516 32.2244
29.8977 32.3615
29.9439 32.125
29.99 32.1817
30.0363 31.9463
30.0824 32.0222
30.1287 31.9352
30.1748 31.9351
30.2211 31.9443
30.2673 31.731
30.3136 31.9831
30.3597 31.8494
30.406 31.7543
30.4522 31.5298
30.4985 31.5834
30.5447 31.7336
30.591 31.6808
30.6372 31.7326
30.6835 31.8474
30.7297 31.7943
30.7761 31.9298
30.8224 31.739
30.8686 31.5153
30.915 31.3797
30.9612 31.153
31.0076 30.9034
31.0538 30.7943
31.1002 30.7223
31.1464 30.5805
31.1928 30.5955
31.2391 30.6509
31.2855 30.4786
31.3317 30.4199
31.3781 30.5497
31.4244 30.6084
31.4708 30.4267
31.5171 30.412
31.5636 30.4695
31.6098 30.1412
31.6563 30.0532
31.7026 29.8832
31.7491 29.7481
31.7953 29.871
31.8418 29.8564
31.8881 29.8203
31.9346 29.7918
31.9809 29.7237
32.0275 29.5887
32.074 29.5664
32.1203 29.3274
32.1668 29.1094
32.2132 28.9678
32.2597 28.8432
32.306 28.7707
32.3526 28.6251
32.399 28.6141
32.4455 28.3554
32.4919 28.2907
32.5385 28.2704
32.5848 28.1194
32.6314 28.0486
32.6778 28.115
32.7244 27.903
32.7708 27.7517
32.8174 27.7294
32.8638 27.554
32.9104 27.669
32.9569 27.6646
33.0035 27.5626
33.0499 27.4861
33.0966 27.3874
33.143 27.4655
33.1897 27.4364
33.2361 27.3101
33.2828 27.2893
33.3293 27.1599
33.3759 27.1051
33.4226 26.9754
33.4691 26.7339
33.5158 26.6017
33.5623 26.5235
33.609 26.3579
33.6555 26.3315
33.7022 26.1631
33.7487 26.1903
33.7954 26.0487
33.842 25.9655
33.8887 25.9628
33.9353 25.8617
33.982 25.7669
34.0286 25.7222
34.0753 25.6939
34.1219 25.5408
34.1687 25.4501
34.2152 25.4417
34.262 25.2525
34.3086 25.1778
34.3554 25.1538
34.402 25.042
34.4488 24.9327
34.4954 24.8858
34.5422 24.8044
34.5889 24.729
34.6357 24.605
34.6825 24.5444
34.7292 24.5481
34.776 24.3499
34.8227 24.4231
34.8695 24.3905
34.9162 24.301
34.9631 24.1275
35.0098 24.2112
35.0566 24.0517
35.1033 23.9396
35.1502 23.9429
35.1969 23.8523
35.2438 23.8006
35.2906 23.8531
35.3375 23.7071
35.3842 23.6935
35.4311 23.689
35.4779 23.6385
35.5248 23.5948
35.5716 23.5802
35.6185 23.4421
35.6653 23.3292
35.7123 23.2941
35.759 23.1031
35.806 22.9869
35.8528 23.0191
35.8998 22.8915
35.9468 22.7796
35.9936 22.757
36.0406 22.7649
36.0874 22.6802
36.1345 22.5579
36.1813 22.5409
36.2283 22.4866
36.2752 22.3538
36.3222 22.2435
36.3691 22.2578
36.4161 22.1758
36.463 22.1091
36.5101 22.1747
36.557 22.136
36.6041 21.983
36.651 21.9815
36.6981 21.8881
36.745 21.7518
36.7921 21.6426
36.839 21.4954
36.8861 21.5018
36.9331 21.4011
36.9802 21.4104
37.0272 21.3147
37.0743 21.2254
37.1213 21.1544
37.1684 21.138
37.2154 21.0551
37.2626 20.9884
37.3098 20.9705
37.3568 20.8896
37.404 20.836
37.451 20.6847
37.4982 20.6857
37.5452 20.5428
37.5924 20.4527
37.6395 20.6222
37.6867 20.435
37.7337 20.3222
37.781 20.2747
37.8281 20.2701
37.8753 20.1162
37.9224 20.035
37.9697 20.0327
38.0168 19.9179
38.064 19.8599
38.1111 19.8765
38.1584 19.7733
38.2056 19.6614
38.2529 19.6469
38.3 19.56
38.3473 19.5766
38.3945 19.4037
38.4418 19.3837
38.489 19.2592
38.5363 19.2357
38.5837 19.1859
38.6309 19.1178
38.6782 19.1504
38.7254 18.9715
38.7728 18.8855
38.82 18.849
38.8674 18.8554
38.9146 18.7649
38.9621 18.7236
39.0093 18.6597
39.0567 18.6295
39.104 18.487
39.1514 18.4332
39.1987 18.4484
39.2461 18.3364
39.2934 18.3367
39.3409 18.1458
39.3882 18.2037
39.4356 18.1526
39.483 18.0766
39.5304 18.0295
39.5778 18.0048
39.6253 17.8983
39.6726 17.7876
39.7201 17.8374
39.7675 17.7131
39.815 17.7268
39.8624 17.5931
39.9099 17.5905
39.9575 17.535
40.0049 17.4592
40.0525 17.3863
40.0999 17.3903
40.1474 17.2809
40.1949 17.262
40.2425 17.1625
40.2899 17.1353
40.3375 17.0644
40.385 16.9929
40.4326 16.9571
40.48 16.8697
40.5277 16.8744
40.5752 16.8487
40.6228 16.7471
40.6703 16.6927
40.718 16.6477
40.7655 16.6126
40.8132 16.5262
40.8607 16.5113
40.9084 16.479
40.9559 16.4808
41.0036 16.3731
41.0512 16.3086
41.0989 16.2706
41.1465 16.1756
41.1942 16.1332
41.242 16.041
41.2896 15.9947
41.3373 15.9496
41.3849 15.9227
41.4327 15.8942
41.4803 15.791
41.5281 15.7827
41.5758 15.6862
41.6236 15.6114
41.6712 15.572
41.7191 15.4866
41.7667 15.4995
41.8146 15.4038
41.8622 15.3784
41.9101 15.3257
41.9578 15.2085
42.0057 15.2141
42.0534 15.1466
42.1013 15.1115
42.149 15.0315
42.1969 14.9963
42.2446 14.8996
42.2925 14.9538
42.3403 14.8542
42.3882 14.7782
42.436 14.8253
42.4839 14.6572
42.5319 14.6719
42.5797 14.6156
42.6277 14.557
42.6755 14.4889
42.7235 14.444
42.7713 14.4504
42.8193 14.3627
42.8671 14.283
42.9152 14.2813
42.963 14.2405
43.0111 14.1361
43.0589 14.1179
43.107 14.0314
43.1549 14.018
43.2029 13.9272
43.2508 13.9198
43.2989 13.8695
43.3468 13.8195
43.3949 13.816
43.4429 13.7911
43.491 13.6997
43.5389 13.682
43.5871 13.5853
43.635 13.5609
43.6832 13.5087
43.7312 13.4451
43.7793 13.4107
43.8273 13.3627
43.8755 13.301
43.9237 13.2537
43.9717 13.2635
44.0199 13.2015
44.068 13.1589
44.1162 13.1227
44.1642 13.0387
44.2125 13.0256
44.2606 12.9747
44.3088 12.901
44.3569 12.8466
44.4052 12.8182
44.4533 12.8024
44.5016 12.708
44.5497 12.6781
44.598 12.6306
44.6461 12.5717
44.6945 12.576
44.7426 12.5094
44.791 12.4584
44.8391 12.4281
44.8875 12.4253
44.9357 12.3205
44.984 12.3505
45.0322 12.2215
45.0806 12.2058
45.1288 12.1972
45.1773 12.1326
45.2257 12.1212
45.2739 12.0787
45.3224 11.9721
45.3706 11.9873
45.4191 11.9469
45.4673 11.8855
45.5158 11.8205
45.5641 11.7468
45.6126 11.7331
45.6609 11.6825
45.7094 11.6542
45.7577 11.5845
45.8063 11.5674
45.8546 11.5187
45.9031 11.5139
45.9515 11.4479
46.0001 11.3653
46.0484 11.3681
46.097 11.3141
46.1454 11.3262
46.194 11.2813
46.2424 11.2044
46.291 11.1577
46.3395 11.1108
46.3881 11.065
46.4365 11.089
46.4852 10.9923
46.5337 10.9805
46.5823 10.9778
46.631 10.8894
46.6795 10.8355
46.7282 10.7889
46.7767 10.7667
46.8254 10.7143
46.8739 10.698
46.9226 10.6103
46.9712 10.6222
47.0199 10.5858
47.0685 10.5294
47.1173 10.4789
47.1658 10.4515
47.2146 10.4137
47.2632 10.36
47.312 10.3709
47.3606 10.2643
47.4095 10.2566
47.4581 10.1802
47.5069 10.1699
47.5556 10.1556
47.6044 10.1182
47.6531 10.069
47.702 10.0522
47.7507 9.96264
47.7996 10.0126
47.8483 9.93068
47.8972 9.90172
47.9461 9.91019
47.9948 9.78035
48.0438 9.73892
48.0925 9.79633
48.1415 9.6972
48.1902 9.65202
48.2392 9.64429
48.288 9.64853
48.337 9.58037
48.3858 9.53298
48.4348 9.50303
48.4837 9.50709
48.5327 9.43222
48.5815 9.39439
48.6306 9.37234
48.6795 9.31527
48.7285 9.2998
48.7774 9.24801
48.8265 9.23423
48.8754 9.19144
48.9245 9.12831
48.9734 9.0842
49.0226 9.1007
49.0715 9.0715
49.1206 8.98247
49.1696 8.99636
49.2188 8.93664
49.2679 8.86757
49.3169 8.93513
49.3661 8.86484
49.4151 8.82288
49.4643 8.81542
49.5134 8.746
49.5626 8.70815
49.6117 8.65773
49.6609 8.64371
49.71 8.59073
49.7592 8.5444
49.8083 8.52442
49.8576 8.51784
49.9067 8.47462
49.956 8.44916
50.0052 8.42178
50.0545 8.42989
50.1036 8.31836
50.153 8.29845
50.2022 8.30659
50.2515 8.29332
50.3007 8.19406
50.3501 8.19856
50.3993 8.15615
50.4487 8.15455
50.498 8.10977
50.5474 8.03898
50.5966 8.04031
50.6461 8.02032
50.6955 7.96253
50.7448 7.96064
50.7943 7.90422
50.8436 7.86216
50.8931 7.83701
50.9424 7.80488
50.9919 7.8023
51.0413 7.79746
51.0908 7.72208
51.1402 7.68243
51.1897 7.66887
51.2391 7.65337
51.2887 7.60025
51.3381 7.56444
51.3877 7.55962
51.4371 7.46458
51.4867 7.47233
51.5362 7.44626
51.5858 7.41668
51.6353 7.35869
51.6849 7.3631
51.7344 7.34459
51.7841 7.30458
51.8336 7.26875
51.8833 7.24472
51.9328 7.21936
51.9826 7.16425
52.0323 7.13606
52.0818 7.10178
52.1316 7.08478
52.1812 7.03999
52.231 6.99446
52.2806 7.00692
52.3304 6.96989
52.38 6.90439
52.4298 6.92412
52.4794 6.88591
52.5293 6.84497
52.5789 6.82048
52.6288 6.77888
52.6785 6.75241
52.7284 6.70698
52.7781 6.76294
52.828 6.65068
52.8777 6.65263
52.9276 6.59218
52.9774 6.60869
53.0273 6.59728
53.0771 6.5041
53.1271 6.53325
53.1769 6.45312
53.2269 6.45322
53.2767 6.47953
53.3267 6.40977
53.3765 6.35872
53.4266 6.33863
53.4766 6.33152
53.5265 6.29368
53.5765 6.23765
53.6264 6.24657
53.6765 6.24301
53.7264 6.19935
53.7765 6.15209
53.8265 6.1245
53.8766 6.13925
53.9266 6.10549
53.9767 6.13126
54.0267 6.01108
54.0769 5.99742
54.1269 5.97079
54.1771 5.94722
54.2271 5.92549
54.2773 5.87776
54.3274 5.85955
54.3776 5.8195
54.4277 5.79379
54.478 5.7549
54.528 5.74495
54.5783 5.66211
54.6285 5.62767
54.6788 5.63726
54.7289 5.55938
54.7792 5.56314
54.8296 5.53585
54.8798 5.49048
54.9301 5.41996
54.9803 5.39683
55.0307 5.35773
55.0809 5.31493
55.1314 5.26889
55.1816 5.23031
55.232 5.19951
55.2823 5.13404
55.3328 5.08204
55.383 5.03518
55.4335 4.98939
55.4838 4.93653
55.5344 4.91746
55.5847 4.86971
55.6352 4.83914
55.6856 4.83051
55.7361 4.74627