File: XRD/Ni3Fe_FD0299.xy
TT I
1.27165 7.47502
1.31627 6.78749
1.36089 7.12214
1.40551 6.35332
1.45013 6.32242
1.49476 6.60518
1.53938 6.02926
1.584 5.50745
1.62863 5.22379
1.67325 5.65486
1.71787 5.06131
1.7625 5.86326
1.80712 5.14426
1.85174 4.48099
1.89636 4.69284
1.94099 5.08609
1.98562 5.42164
2.03025 4.93808
2.07487 4.75909
2.11949 5.06588
2.16411 5.22022
2.20874 18.2835
2.25338 30.705
2.298 6.10496
2.34263 5.10539
2.38725 4.58214
2.43188 5.28025
2.4765 6.15249
2.52115 6.10318
2.56577 5.97201
2.6104 6.88982
2.65503 6.29542
2.69965 6.77529
2.7443 6.99582
2.78893 7.21319
2.83356 7.62977
2.87818 8.19359
2.92281 8.89875
2.96744 9.29559
3.01209 10.1473
3.05672 11.4318
3.10135 12.2628
3.14599 13.5757
3.19062 14.1629
3.23527 15.568
3.2799 15.9623
3.32454 16.5928
3.36917 18.3133
3.4138 19.2398
3.45844 20.2317
3.50309 21.2877
3.54773 22.582
3.59237 25.4584
3.637 122.557
3.68164 76.6578
3.7263 27.5629
3.77094 26.7947
3.81558 27.2231
3.86022 28.3073
3.90486 29.8615
3.9495 30.7242
3.99416 31.9819
4.0388 33.5352
4.08344 34.9506
4.12809 36.3751
4.17273 38.6155
4.21738 46.7797
4.26204 335.12
4.30669 304.403
4.35133 52.8333
4.39598 46.1028
4.44063 57.9711
4.4853 75.6049
4.52995 53.6614
4.5746 53.4372
4.61925 54.823
4.6639 56.9684
4.70855 59.6249
4.75322 62.6897
4.79788 65.818
4.84253 68.9581
4.88719 73.868
4.93184 77.5778
4.97652 83.4404
5.02118 90.8259
5.06583 99.7304
5.11049 114.472
5.15515 213.024
5.19981 493.465
5.24449 2974.51
5.28916 11119.0
5.33382 4296.72
5.37848 258.226
5.42315 145.474
5.46783 123.043
5.5125 112.61
5.55716 107.108
5.60183 103.007
5.6465 101.891
5.69117 98.4257
5.73586 96.1792
5.78053 96.8012
5.8252 96.4453
5.86988 97.1751
5.91455 100.383
5.95924 110.604
6.00392 252.604
6.0486 1037.41
6.09328 3609.49
6.13795 3831.85
6.18263 366.053
6.22733 106.477
6.27201 90.1129
6.3167 118.661
6.36138 88.5514
6.40606 72.9119
6.45075 70.6231
6.49545 67.8361
6.54014 66.3586
6.58483 65.6678
6.62952 65.763
6.67421 108.798
6.71892 186.994
6.76361 75.8219
6.8083 61.2432
6.853 59.8847
6.89769 59.0641
6.94239 58.7696
6.98711 58.0575
7.03181 57.819
7.07651 57.6732
7.12121 57.8643
7.16591 58.4962
7.21063 58.2978
7.25533 77.8751
7.30004 238.869
7.34475 111.87
7.38945 59.6452
7.43416 56.8748
7.47889 56.4487
7.5236 56.9106
7.56831 57.6698
7.61303 60.1346
7.65774 60.5188
7.70247 58.233
7.74719 58.2537
7.79191 58.6114
7.83663 59.0458
7.88135 59.6845
7.92607 60.6309
7.97081 61.9036
8.01553 62.7445
8.06026 64.7988
8.10498 66.5302
8.14971 79.3475
8.19446 77.927
8.23919 72.1016
8.28392 74.3004
8.32865 76.4949
8.37339 81.0799
8.41812 89.4677
8.46288 129.785
8.50761 189.668
8.55235 429.589
8.59709 985.579
8.64183 2085.03
8.68658 1289.69
8.73134 228.57
8.77609 107.861
8.82083 97.6559
8.86558 93.5362
8.91033 94.1046
8.9551 98.0636
8.99985 88.7914
9.04461 86.7047
9.08936 85.628
9.13412 84.3908
9.17888 84.6314
9.22365 85.6375
9.26841 84.6761
9.31318 85.5114
9.35794 85.6587
9.4027 85.7207
9.44749 86.5318
9.49226 87.3035
9.53703 88.8191
9.5818 90.6994
9.62657 96.456
9.67134 105.803
9.71614 97.6172
9.76091 97.0723
9.80569 99.971
9.85047 103.608
9.89525 136.536
9.94005 155.043
9.98484 197.237
10.0296 376.02
10.0744 705.45
10.1192 1487.16
10.164 1809.34
10.2088 578.525
10.2536 152.187
10.2984 122.276
10.3432 125.175
10.388 110.51
10.4328 126.266
10.4776 170.305
10.5224 253.198
10.5672 447.528
10.612 551.85
10.6568 260.905
10.7017 106.942
10.7465 90.5447
10.7913 86.8829
10.8361 84.3241
10.8809 81.91
10.9257 81.9854
10.9706 83.7425
11.0154 78.1273
11.0602 75.7296
11.105 74.4427
11.1499 81.153
11.1947 92.6163
11.2395 79.9087
11.2844 74.5592
11.3292 69.9151
11.374 68.382
11.4189 68.1038
11.4637 67.2333
11.5086 68.299
11.5534 72.8318
11.5983 68.8542
11.6431 66.0916
11.688 65.2359
11.7328 65.199
11.7777 65.3918
11.8225 64.8167
11.8674 64.5581
11.9122 64.9474
11.9571 65.1058
12.002 66.0365
12.0468 71.1075
12.0917 83.9044
12.1366 101.811
12.1814 137.217
12.2263 195.93
12.2712 193.975
12.3161 117.944
12.3609 77.3807
12.4058 67.8281
12.4507 67.1247
12.4956 66.8165
12.5405 67.164
12.5853 68.1131
12.6302 79.0938
12.6751 87.2925
12.72 74.3163
12.7649 70.7195
12.8098 70.6417
12.8547 72.1897
12.8996 73.4958
12.9445 74.4814
12.9894 76.4477
13.0343 77.9276
13.0792 81.4545
13.1242 92.6661
13.1691 120.719
13.214 152.075
13.2589 210.64
13.3038 321.478
13.3487 442.688
13.3937 325.931
13.4386 150.188
13.4835 113.984
13.5285 128.869
13.5734 155.452
13.6183 213.412
13.6633 312.364
13.7082 369.325
13.7531 238.3
13.7981 112.986
13.843 86.2061
13.888 83.0088
13.9329 80.0974
13.9779 78.5165
14.0228 77.0047
14.0678 75.4759
14.1127 75.3152
14.1577 75.4646
14.2027 74.1355
14.2476 72.8207
14.2926 73.5528
14.3376 75.0046
14.3825 73.2603
14.4275 71.3105
14.4725 71.0363
14.5175 71.173
14.5624 71.2601
14.6074 74.3952
14.6524 75.0873
14.6974 73.1588
14.7424 74.8055
14.7874 82.7985
14.8324 93.6903
14.8774 108.661
14.9224 137.269
14.9674 187.456
15.0124 228.487
15.0574 177.032
15.1024 104.64
15.1474 76.7741
15.1924 73.7163
15.2374 74.8494
15.2824 74.329
15.3274 71.2406
15.3725 69.3155
15.4175 68.7341
15.4625 68.4917
15.5076 68.9734
15.5526 68.8377
15.5976 68.101
15.6426 69.3046
15.6877 75.4565
15.7327 84.2233
15.7778 95.1699
15.8228 115.123
15.8679 151.599
15.9129 193.505
15.958 181.912
16.003 116.991
16.0481 74.5046
16.0931 68.712
16.1382 66.3053
16.1833 63.3611
16.2283 61.4849
16.2734 60.6619
16.3185 61.4909
16.3636 62.7297
16.4086 60.8184
16.4537 58.5726
16.4988 57.8311
16.5439 57.4826
16.589 57.4932
16.6341 57.1587
16.6792 56.5995
16.7243 57.2678
16.7694 57.1151
16.8145 57.0957
16.8596 57.4648
16.9047 59.5578
16.9498 59.9967
16.9949 58.1717
17.04 57.8711
17.0851 59.2698
17.1302 61.2591
17.1754 63.8782
17.2205 67.0001
17.2656 72.177
17.3108 81.5775
17.3559 85.7619
17.401 77.4867
17.4462 66.3588
17.4913 61.6613
17.5365 61.3457
17.5815 61.4702
17.6268 61.5598
17.6718 62.5651
17.7171 63.194
17.7622 63.3892
17.8074 63.8667
17.8525 66.4695
17.8977 71.3154
17.9428 77.0443
17.9881 82.9711
18.0331 94.0538
18.0784 112.536
18.1237 137.403
18.1688 143.71
18.214 117.871
18.2591 92.224
18.3044 88.5902
18.3495 97.0216
18.3948 108.461
18.4399 105.38
18.4852 86.1155
18.5303 70.4113
18.5756 65.0673
18.6207 63.8141
18.666 62.8587
18.7112 62.0396
18.7565 61.035
18.8016 60.8965
18.8469 60.2033
18.892 59.9023
18.9374 59.4132
18.9825 59.1655
19.0278 59.1106
19.073 59.297
19.1183 59.659
19.1635 60.8381
19.2088 61.9787
19.254 63.5987
19.2993 65.9728
19.3447 71.7021
19.3898 78.4775
19.4352 77.8045
19.4804 68.7673
19.5257 60.3411
19.5709 56.5487
19.6163 55.8991
19.6615 55.7644
19.7068 55.3661
19.752 55.2874
19.7974 55.6091
19.8426 56.664
19.888 57.3289
19.9332 58.3412
19.9786 59.5661
20.0238 61.9632
20.0692 66.9479
20.1144 71.1193
20.1598 72.3948
20.205 67.2218
20.2504 63.5298
20.2957 63.741
20.3411 66.8115
20.3863 67.5937
20.4318 62.8177
20.477 57.1414
20.5224 54.2596
20.5677 53.308
20.6131 52.2225
20.6586 51.635
20.7038 51.3583
20.7493 51.062
20.7945 50.8093
20.84 50.5986
20.8853 50.4663
20.9307 50.3852
20.976 50.5259
21.0215 50.5646
21.0668 50.8402
21.1122 51.1118
21.1575 51.4673
21.203 52.106
21.2483 53.0256
21.2938 53.4389
21.3391 52.4029
21.3846 51.235
21.4299 50.2812
21.4754 50.1841
21.5207 50.2437
21.5662 50.6308
21.6116 51.048
21.6571 51.8061
21.7024 52.7574
21.7479 53.8043
21.7933 55.9117
21.8388 58.8297
21.8843 62.7336
21.9297 66.349
21.9752 67.288
22.0206 63.4465
22.0661 58.8567
22.1115 57.4767
22.157 57.9434
22.2024 57.2226
22.248 54.1491
22.2933 52.1481
22.3389 51.0756
22.3843 50.8202
22.4299 50.9425
22.4753 50.901
22.5208 50.386
22.5662 50.2103
22.6118 50.4544
22.6572 50.6683
22.7028 51.1169
22.7483 51.5151
22.7939 51.9866
22.8393 53.1418
22.8849 54.6723
22.9303 56.3569
22.9759 59.0017
23.0214 60.05
23.067 58.217
23.1126 54.0211
23.1581 51.4891
23.2037 50.6469
23.2492 50.6819
23.2948 50.7727
23.3403 51.033
23.3859 51.5501
23.4314 51.9828
23.477 53.2055
23.5225 54.739
23.5682 57.3799
23.6137 59.7071
23.6593 58.9925
23.7048 55.162
23.7505 51.1113
23.796 48.7714
23.8417 47.7433
23.8872 47.3626
23.9329 47.0904
23.9784 46.5709
24.0241 46.3788
24.0697 46.266
24.1154 45.7616
24.1609 45.7002
24.2066 45.5989
24.2522 45.3536
24.2979 45.0159
24.3434 45.0228
24.3892 44.8613
24.4349 44.7264
24.4805 44.4607
24.5262 44.6108
24.5718 44.3428
24.6175 44.3839
24.6631 44.5368
24.7089 44.4273
24.7545 44.0684
24.8002 43.7595
24.8458 43.8786
24.8916 43.5551
24.9372 43.6974
24.983 43.9567
25.0286 44.0518
25.0744 44.5748
25.12 44.824
25.1658 45.4746
25.2114 45.99
25.2572 46.1875
25.3029 46.0009
25.3487 46.3614
25.3943 46.4823
25.4402 45.6349
25.4858 44.6041
25.5316 43.3748
25.5773 42.605
25.6231 42.4508
25.669 41.9875
25.7147 42.151
25.7605 41.9147
25.8062 42.1186
25.8521 42.0958
25.8977 42.0968
25.9436 42.1589
25.9893 42.1963
26.0352 42.6812
26.0809 42.7469
26.1268 43.0788
26.1725 43.1385
26.2184 42.6179
26.2641 42.035
26.31 41.605
26.3557 41.6786
26.4017 41.6141
26.4474 41.793
26.4933 42.1569
26.5391 42.3383
26.585 42.8052
26.6308 43.0914
26.6767 43.6772
26.7225 43.6349
26.7684 43.1168
26.8142 42.4268
26.8601 41.9978
26.9059 41.7378
26.9519 41.0465
26.9979 40.6728
27.0437 40.3237
27.0896 40.088
27.1354 40.157
27.1814 40.1473
27.2272 40.1059
27.2732 39.7995
27.3191 39.6768
27.3651 39.8358
27.4109 39.694
27.4569 39.7549
27.5027 39.8235
27.5488 39.9205
27.5946 39.7719
27.6407 39.6148
27.6865 39.5332
27.7326 39.2711
27.7784 39.2058
27.8245 39.1037
27.8703 39.2767
27.9164 39.5176
27.9623 39.5304
28.0084 39.7975
28.0543 40.3192
28.1003 40.3167
28.1462 40.272
28.1923 39.8521
28.2384 39.5106
28.2843 39.2759
28.3304 38.5873
28.3764 38.1867
28.4225 37.8631
28.4684 37.5639
28.5145 37.3506
28.5605 37.1846
28.6066 37.0155
28.6526 36.9256
28.6987 36.8495
28.7447 36.7762
28.7908 36.7376
28.8368 36.741
28.8829 36.6864
28.9289 36.6969
28.9751 36.4546
29.0211 36.2831
29.0673 36.0625
29.1133 35.8807
29.1595 35.6799
29.2055 35.6186
29.2517 35.6008
29.2977 35.4956
29.3439 35.4825
29.3899 35.3763
29.4361 35.3938
29.4824 35.206
29.5284 35.0881
29.5746 34.7048
29.6207 34.4217
29.6669 34.2373
29.713 34.2153
29.7593 34.0404
29.8053 34.1314
29.8516 34.0496
29.8977 33.9952
29.9439 33.7763
29.99 33.7719
30.0363 33.6306
30.0824 33.5684
30.1287 33.5873
30.1748 33.4926
30.2211 33.6069
30.2673 33.4445
30.3136 33.5224
30.3597 33.4886
30.406 33.4611
30.4522 33.3106
30.4985 33.2293
30.5447 33.3498
30.591 33.2061
30.6372 33.249
30.6835 33.2633
30.7297 33.3754
30.7761 33.3146
30.8224 33.249
30.8686 33.0315
30.915 32.8208
30.9612 32.6372
31.0076 32.4341
31.0538 32.3532
31.1002 32.1973
31.1464 32.1468
31.1928 32.1302
31.2391 32.0854
31.2855 31.9326
31.3317 31.8928
31.3781 31.989
31.4244 31.9671
31.4708 31.8511
31.5171 31.9208
31.5636 31.881
31.6098 31.6599
31.6563 31.4646
31.7026 31.3704
31.7491 31.189
31.7953 31.1991
31.8418 31.2577
31.8881 31.2478
31.9346 31.1567
31.9809 31.1338
32.0275 30.8845
32.074 30.9574
32.1203 30.7366
32.1668 30.6047
32.2132 30.4619
32.2597 30.2815
32.306 30.2228
32.3526 30.0996
32.399 30.0009
32.4455 29.7535
32.4919 29.7693
32.5385 29.7643
32.5848 29.464
32.6314 29.5639
32.6778 29.4712
32.7244 29.379
32.7708 29.1578
32.8174 29.2177
32.8638 28.9911
32.9104 29.1265
32.9569 29.027
33.0035 28.8866
33.0499 28.8164
33.0966 28.7304
33.143 28.7192
33.1897 28.7348
33.2361 28.642
33.2828 28.5613
33.3293 28.3894
33.3759 28.4021
33.4226 28.3258
33.4691 28.1035
33.5158 28.0382
33.5623 27.9546
33.609 27.6749
33.6555 27.6179
33.7022 27.5861
33.7487 27.5477
33.7954 27.3275
33.842 27.3282
33.8887 27.3113
33.9353 27.213
33.982 27.1366
34.0286 27.0117
34.0753 26.918
34.1219 26.8025
34.1687 26.7237
34.2152 26.7273
34.262 26.5299
34.3086 26.4778
34.3554 26.4208
34.402 26.3546
34.4488 26.2561
34.4954 26.2358
34.5422 26.0267
34.5889 26.0004
34.6357 25.9351
34.6825 25.8536
34.7292 25.8191
34.776 25.6116
34.8227 25.6002
34.8695 25.5549
34.9162 25.5071
34.9631 25.314
35.0098 25.3929
35.0566 25.2128
35.1033 25.1856
35.1502 25.1753
35.1969 24.9971
35.2438 25.0374
35.2906 25.0339
35.3375 24.8403
35.3842 24.8453
35.4311 24.8078
35.4779 24.8329
35.5248 24.7524
35.5716 24.6019
35.6185 24.611
35.6653 24.4273
35.7123 24.3717
35.759 24.2875
35.806 24.1468
35.8528 24.1022
35.8998 23.9903
35.9468 23.9442
35.9936 23.9024
36.0406 23.8558
36.0874 23.7829
36.1345 23.6937
36.1813 23.6782
36.2283 23.6063
36.2752 23.4298
36.3222 23.5197
36.3691 23.3753
36.4161 23.2297
36.463 23.2694
36.5101 23.2396
36.557 23.1235
36.6041 22.9464
36.651 23.0321
36.6981 22.948
36.745 22.8524
36.7921 22.8083
36.839 22.6321
36.8861 22.6243
36.9331 22.5296
36.9802 22.5197
37.0272 22.3946
37.0743 22.2991
37.1213 22.24
37.1684 22.1249
37.2154 22.1533
37.2626 21.9622
37.3098 22.0056
37.3568 21.995
37.404 21.9198
37.451 21.7957
37.4982 21.7505
37.5452 21.5485
37.5924 21.5622
37.6395 21.5491
37.6867 21.4944
37.7337 21.3653
37.781 21.3029
37.8281 21.2266
37.8753 21.1589
37.9224 21.1152
37.9697 21.0456
38.0168 20.9965
38.064 20.8617
38.1111 20.8046
38.1584 20.7334
38.2056 20.7736
38.2529 20.6279
38.3 20.5777
38.3473 20.5356
38.3945 20.3889
38.4418 20.369
38.489 20.3793
38.5363 20.2255
38.5837 20.1533
38.6309 20.1448
38.6782 19.9887
38.7254 19.9389
38.7728 19.9522
38.82 19.8614
38.8674 19.8129
38.9146 19.7335
38.9621 19.6281
39.0093 19.5813
39.0567 19.5236
39.104 19.5085
39.1514 19.4319
39.1987 19.3503
39.2461 19.3331
39.2934 19.3109
39.3409 19.182
39.3882 19.068
39.4356 19.027
39.483 19.0226
39.5304 18.9306
39.5778 18.8732
39.6253 18.8119
39.6726 18.7843
39.7201 18.733
39.7675 18.645
39.815 18.6389
39.8624 18.4994
39.9099 18.5156
39.9575 18.3682
40.0049 18.3034
40.0525 18.2825
40.0999 18.2259
40.1474 18.1594
40.1949 18.107
40.2425 18.0267
40.2899 17.9513
40.3375 18.0027
40.385 17.8877
40.4326 17.8464
40.48 17.7802
40.5277 17.774
40.5752 17.6577
40.6228 17.5712
40.6703 17.5385
40.718 17.5681
40.7655 17.4479
40.8132 17.3602
40.8607 17.3899
40.9084 17.2668
40.9559 17.2728
41.0036 17.1644
41.0512 17.0862
41.0989 17.0696
41.1465 16.9529
41.1942 16.9018
41.242 16.8667
41.2896 16.8306
41.3373 16.788
41.3849 16.6734
41.4327 16.6777
41.4803 16.5104
41.5281 16.5761
41.5758 16.4449
41.6236 16.4015
41.6712 16.3904
41.7191 16.3708
41.7667 16.2349
41.8146 16.278
41.8622 16.0917
41.9101 16.1021
41.9578 16.0153
42.0057 16.0118
42.0534 15.9395
42.1013 15.9099
42.149 15.8427
42.1969 15.7867
42.2446 15.7659
42.2925 15.6983
42.3403 15.6266
42.3882 15.6161
42.436 15.5267
42.4839 15.4361
42.5319 15.4613
42.5797 15.3363
42.6277 15.2738
42.6755 15.2501
42.7235 15.1728
42.7713 15.1719
42.8193 15.0542
42.8671 15.0423
42.9152 15.0164
42.963 14.9937
43.0111 14.9211
43.0589 14.8857
43.107 14.8186
43.1549 14.7594
43.2029 14.6751
43.2508 14.6375
43.2989 14.6111
43.3468 14.5158
43.3949 14.5432
43.4429 14.4485
43.491 14.3673
43.5389 14.3197
43.5871 14.2987
43.635 14.2614
43.6832 14.2269
43.7312 14.1796
43.7793 14.0574
43.8273 14.0774
43.8755 14.0074
43.9237 13.9702
43.9717 13.9015
44.0199 13.865
44.068 13.8601
44.1162 13.7588
44.1642 13.7333
44.2125 13.6507
44.2606 13.6663
44.3088 13.5533
44.3569 13.5489
44.4052 13.5177
44.4533 13.4016
44.5016 13.4328
44.5497 13.3956
44.598 13.2992
44.6461 13.2332
44.6945 13.1971
44.7426 13.1667
44.791 13.1137
44.8391 13.0576
44.8875 13.0553
44.9357 12.9658
44.984 12.9482
45.0322 12.8932
45.0806 12.8343
45.1288 12.7742
45.1773 12.7485
45.2257 12.6895
45.2739 12.6068
45.3224 12.5992
45.3706 12.5898
45.4191 12.5257
45.4673 12.4799
45.5158 12.4383
45.5641 12.3643
45.6126 12.3053
45.6609 12.2922
45.7094 12.2509
45.7577 12.2309
45.8063 12.1432
45.8546 12.1345
45.9031 12.0942
45.9515 12.0186
46.0001 12.0724
46.0484 11.9171
46.097 11.9008
46.1454 11.8664
46.194 11.8261
46.2424 11.8261
46.291 11.7583
46.3395 11.72
46.3881 11.6203
46.4365 11.5862
46.4852 11.5414
46.5337 11.5177
46.5823 11.4887
46.631 11.4711
46.6795 11.4127
46.7282 11.3991
46.7767 11.3256
46.8254 11.2604
46.8739 11.1837
46.9226 11.1852
46.9712 11.1426
47.0199 11.1137
47.0685 11.0507
47.1173 11.0443
47.1658 10.9592
47.2146 10.9547
47.2632 10.9084
47.312 10.877
47.3606 10.7955
47.4095 10.7657
47.4581 10.71
47.5069 10.7091
47.5556 10.6685
47.6044 10.6139
47.6531 10.6297
47.702 10.5068
47.7507 10.5171
47.7996 10.4833
47.8483 10.4319
47.8972 10.3555
47.9461 10.3369
47.9948 10.3161
48.0438 10.2877
48.0925 10.2514
48.1415 10.2114
48.1902 10.1436
48.2392 10.1467
48.288 10.1059
48.337 10.0707
48.3858 10.0542
48.4348 10.013
48.4837 9.98434
48.5327 9.96037
48.5815 9.86049
48.6306 9.84567
48.6795 9.78154
48.7285 9.75725
48.7774 9.7195
48.8265 9.70586
48.8754 9.69432
48.9245 9.64376
48.9734 9.57485
49.0226 9.56602
49.0715 9.54449
49.1206 9.45617
49.1696 9.4435
49.2188 9.38827
49.2679 9.37557
49.3169 9.32326
49.3661 9.29888
49.4151 9.25053
49.4643 9.22119
49.5134 9.17448
49.5626 9.14847
49.6117 9.11932
49.6609 9.11408
49.71 9.03772
49.7592 8.99501
49.8083 8.97434
49.8576 8.94149
49.9067 8.91291
49.956 8.86967
50.0052 8.86781
50.0545 8.81625
50.1036 8.80669
50.153 8.74936
50.2022 8.72162
50.2515 8.71121
50.3007 8.60417
50.3501 8.58757
50.3993 8.58744
50.4487 8.54794
50.498 8.5127
50.5474 8.47214
50.5966 8.42259
50.6461 8.43649
50.6955 8.39371
50.7448 8.35121
50.7943 8.35425
50.8436 8.29571
50.8931 8.27525
50.9424 8.23712
50.9919 8.23467
51.0413 8.18784
51.0908 8.12998
51.1402 8.11414
51.1897 8.06776
51.2391 8.00441
51.2887 7.96414
51.3381 7.95794
51.3877 7.94271
51.4371 7.86026
51.4867 7.82053
51.5362 7.80992
51.5858 7.78254
51.6353 7.76854
51.6849 7.75891
51.7344 7.70663
51.7841 7.68636
51.8336 7.63337
51.8833 7.62279
51.9328 7.57292
51.9826 7.52563
52.0323 7.52682
52.0818 7.47591
52.1316 7.42643
52.1812 7.41715
52.231 7.37213
52.2806 7.36442
52.3304 7.32959
52.38 7.27954
52.4298 7.27293
52.4794 7.25446
52.5293 7.21897
52.5789 7.15556
52.6288 7.16916
52.6785 7.06868
52.7284 7.07908
52.7781 7.07257
52.828 7.03559
52.8777 6.98407
52.9276 6.93763
52.9774 6.93967
53.0273 6.91595
53.0771 6.86933
53.1271 6.89567
53.1769 6.83674
53.2269 6.81549
53.2767 6.76784
53.3267 6.72477
53.3765 6.71037
53.4266 6.68821
53.4766 6.65438
53.5265 6.63062
53.5765 6.58804
53.6264 6.54494
53.6765 6.48598
53.7264 6.47969
53.7765 6.46613
53.8265 6.42194
53.8766 6.38493
53.9266 6.39401
53.9767 6.40625
54.0267 6.38062
54.0769 6.31626
54.1269 6.2844
54.1771 6.22706
54.2271 6.23071
54.2773 6.13506
54.3274 6.1485
54.3776 6.07759
54.4277 6.10754
54.478 6.06483
54.528 5.98799
54.5783 5.99914
54.6285 5.96175
54.6788 5.89741
54.7289 5.83498
54.7792 5.79652
54.8296 5.72721
54.8798 5.69026
54.9301 5.63657
54.9803 5.70032
55.0307 5.63486
55.0809 5.54868
55.1314 5.53378
55.1816 5.45912
55.232 5.44982
55.2823 5.40638
55.3328 5.32499
55.383 5.25343
55.4335 5.21292
55.4838 5.14396
55.5344 5.12069
55.5847 5.11789
55.6352 5.04469
55.6856 5.02405
55.7361 5.00693