File: XRD/Ni3Fe_FD1043.xy
TT I
1.27165 7.37509
1.31627 6.18366
1.36089 6.24612
1.40551 5.25047
1.45013 5.80824
1.49476 5.3201
1.53938 5.94284
1.584 5.61691
1.62863 5.49219
1.67325 4.64337
1.71787 3.86895
1.7625 4.58224
1.80712 4.5001
1.85174 4.20116
1.89636 4.47596
1.94099 4.06961
1.98562 4.10659
2.03025 4.50871
2.07487 4.14884
2.11949 4.4963
2.16411 4.76556
2.20874 5.64583
2.25338 6.43171
2.298 5.08464
2.34263 4.68668
2.38725 6.4032
2.43188 5.7694
2.4765 6.90801
2.52115 6.90234
2.56577 8.2624
2.6104 8.34321
2.65503 8.61243
2.69965 8.07109
2.7443 8.7167
2.78893 7.94365
2.83356 8.95916
2.87818 8.3807
2.92281 8.94546
2.96744 9.76223
3.01209 10.6113
3.05672 10.8284
3.10135 12.3385
3.14599 13.4512
3.19062 14.6347
3.23527 15.0567
3.2799 15.5823
3.32454 15.9642
3.36917 17.3195
3.4138 18.29
3.45844 19.1896
3.50309 19.8388
3.54773 20.4817
3.59237 21.595
3.637 27.6852
3.68164 26.8733
3.7263 24.0175
3.77094 24.5299
3.81558 25.378
3.86022 26.0284
3.90486 27.5474
3.9495 28.8077
3.99416 29.0604
4.0388 30.0129
4.08344 31.499
4.12809 32.7322
4.17273 33.21
4.21738 35.356
4.26204 52.4864
4.30669 57.0157
4.35133 40.5347
4.39598 40.8036
4.44063 43.2992
4.4853 46.0943
4.52995 46.972
4.5746 48.5086
4.61925 50.483
4.6639 52.5293
4.70855 55.4674
4.75322 58.1821
4.79788 60.789
4.84253 64.0349
4.88719 68.0852
4.93184 71.0015
4.97652 76.6161
5.02118 82.7114
5.06583 89.229
5.11049 97.9154
5.15515 118.345
5.19981 230.912
5.24449 2479.6
5.28916 13509.6
5.33382 3270.71
5.37848 214.978
5.42315 123.842
5.46783 107.931
5.5125 100.685
5.55716 97.3273
5.60183 93.0685
5.6465 90.908
5.69117 89.4456
5.73586 87.8457
5.78053 86.7722
5.8252 86.3959
5.86988 86.8061
5.91455 88.9181
5.95924 95.0566
6.00392 162.883
6.0486 890.38
6.09328 4529.6
6.13795 3588.4
6.18263 240.103
6.22733 87.1718
6.27201 75.8695
6.3167 72.8544
6.36138 68.6072
6.40606 64.6538
6.45075 63.5889
6.49545 61.9999
6.54014 60.213
6.58483 58.7007
6.62952 57.9079
6.67421 58.6004
6.71892 64.2886
6.76361 56.4084
6.8083 54.5806
6.853 53.7797
6.89769 53.6026
6.94239 53.0053
6.98711 52.7551
7.03181 52.2708
7.07651 52.3049
7.12121 51.9891
7.16591 51.4976
7.21063 50.8585
7.25533 52.0257
7.30004 62.0005
7.34475 55.9391
7.38945 51.7487
7.43416 51.2242
7.47889 51.2786
7.5236 59.4907
7.56831 75.3968
7.61303 57.0607
7.65774 53.0038
7.70247 53.1468
7.74719 53.1923
7.79191 53.9369
7.83663 53.7009
7.88135 54.7728
7.92607 55.6568
7.97081 56.6768
8.01553 57.6256
8.06026 59.1519
8.10498 59.9834
8.14971 62.168
8.19446 63.9737
8.23919 65.3796
8.28392 68.0568
8.32865 70.4199
8.37339 74.0741
8.41812 77.4886
8.46288 86.3746
8.50761 128.457
8.55235 368.599
8.59709 1078.33
8.64183 2253.82
8.68658 1089.59
8.73134 177.423
8.77609 94.9056
8.82083 88.1955
8.86558 85.1361
8.91033 83.4281
8.9551 82.3323
8.99985 80.7008
9.04461 79.6858
9.08936 79.687
9.13412 78.7974
9.17888 79.4004
9.22365 92.7452
9.26841 116.378
9.31318 89.9713
9.35794 79.9584
9.4027 79.8832
9.44749 80.3776
9.49226 80.639
9.53703 81.5846
9.5818 83.068
9.62657 83.8049
9.67134 86.644
9.71614 87.5791
9.76091 89.3765
9.80569 91.2388
9.85047 93.653
9.89525 98.5852
9.94005 105.883
9.98484 146.972
10.0296 346.009
10.0744 770.806
10.1192 1749.36
10.164 1673.23
10.2088 438.69
10.2536 125.1
10.2984 103.023
10.3432 100.782
10.388 97.4031
10.4328 107.379
10.4776 160.053
10.5224 267.587
10.5672 504.658
10.612 561.122
10.6568 228.97
10.7017 104.893
10.7465 86.2542
10.7913 79.775
10.8361 77.4033
10.8809 75.3137
10.9257 73.17
10.9706 72.4007
11.0154 70.6284
11.0602 69.4643
11.105 68.0027
11.1499 66.9646
11.1947 67.2487
11.2395 65.5264
11.2844 64.6592
11.3292 63.4262
11.374 62.7807
11.4189 62.2012
11.4637 61.6672
11.5086 61.2835
11.5534 61.1189
11.5983 60.7995
11.6431 60.4345
11.688 60.2708
11.7328 59.9494
11.7777 59.3575
11.8225 59.5229
11.8674 59.4467
11.9122 62.1775
11.9571 68.6769
12.002 67.016
12.0468 64.5387
12.0917 76.6226
12.1366 98.4275
12.1814 145.918
12.2263 204.687
12.2712 176.241
12.3161 99.6264
12.3609 64.4939
12.4058 60.8943
12.4507 61.2106
12.4956 60.9977
12.5405 61.2123
12.5853 61.9154
12.6302 62.4397
12.6751 63.8811
12.72 63.9101
12.7649 64.1184
12.8098 65.134
12.8547 66.4574
12.8996 67.6133
12.9445 68.8131
12.9894 70.9989
13.0343 72.5564
13.0792 76.5953
13.1242 82.1488
13.1691 107.516
13.214 146.837
13.2589 226.772
13.3038 362.965
13.3487 441.908
13.3937 279.697
13.4386 127.336
13.4835 98.8553
13.5285 119.399
13.5734 155.494
13.6183 235.387
13.6633 354.843
13.7082 359.488
13.7531 204.623
13.7981 100.04
13.843 79.2486
13.888 76.6352
13.9329 74.5455
13.9779 73.3416
14.0228 72.196
14.0678 70.7814
14.1127 71.6608
14.1577 75.8243
14.2027 73.9807
14.2476 68.8635
14.2926 67.2953
14.3376 67.3403
14.3825 66.6495
14.4275 66.099
14.4725 66.1116
14.5175 66.338
14.5624 66.4788
14.6074 66.3252
14.6524 66.8445
14.6974 67.2088
14.7424 68.2863
14.7874 74.0363
14.8324 88.244
14.8774 109.235
14.9224 147.442
14.9674 207.663
15.0124 227.603
15.0574 160.465
15.1024 93.4962
15.1474 71.0463
15.1924 67.9961
15.2374 66.367
15.2824 65.6406
15.3274 64.7101
15.3725 64.2283
15.4175 63.9266
15.4625 63.4012
15.5076 63.0302
15.5526 63.1392
15.5976 63.3545
15.6426 63.7353
15.6877 68.2131
15.7327 79.0119
15.7778 93.7303
15.8228 121.728
15.8679 168.486
15.9129 201.265
15.958 167.847
16.003 102.665
16.0481 69.2167
16.0931 62.9772
16.1382 59.9533
16.1833 58.2427
16.2283 56.5966
16.2734 56.2035
16.3185 55.4773
16.3636 55.2075
16.4086 54.2693
16.4537 53.8111
16.4988 53.2744
16.5439 53.3302
16.589 53.0027
16.6341 52.7121
16.6792 52.4718
16.7243 52.7517
16.7694 52.6388
16.8145 52.3907
16.8596 52.8173
16.9047 53.4871
16.9498 54.217
16.9949 53.807
17.04 53.6435
17.0851 54.7451
17.1302 56.9152
17.1754 59.9646
17.2205 64.5019
17.2656 72.2338
17.3108 81.5277
17.3559 82.5093
17.401 71.8661
17.4462 61.41
17.4913 57.4725
17.5365 57.1959
17.5815 57.2214
17.6268 57.5357
17.6718 58.0327
17.7171 58.7268
17.7622 59.9735
17.8074 60.7528
17.8525 61.6696
17.8977 66.1369
17.9428 73.1058
17.9881 81.3923
18.0331 97.2033
18.0784 120.981
18.1237 141.76
18.1688 137.013
18.214 108.544
18.2591 87.7828
18.3044 88.7067
18.3495 99.3892
18.3948 107.024
18.4399 98.0526
18.4852 78.9843
18.5303 65.4331
18.5756 61.1579
18.6207 60.0498
18.666 58.7319
18.7112 57.9244
18.7565 56.9276
18.8016 56.8242
18.8469 56.2904
18.892 56.0278
18.9374 55.4312
18.9825 55.3771
19.0278 54.8754
19.073 54.9198
19.1183 55.1438
19.1635 56.1496
19.2088 57.8084
19.254 60.2473
19.2993 65.5839
19.3447 71.9972
19.3898 75.9295
19.4352 72.1835
19.4804 63.2031
19.5257 55.8458
19.5709 52.7693
19.6163 52.3577
19.6615 52.1685
19.7068 51.6275
19.752 51.7305
19.7974 51.6599
19.8426 52.4221
19.888 53.5516
19.9332 54.8474
19.9786 57.1598
20.0238 60.8397
20.0692 66.34
20.1144 70.5038
20.1598 68.9894
20.205 63.8498
20.2504 61.592
20.2957 63.4834
20.3411 65.2408
20.3863 63.9631
20.4318 58.0037
20.477 52.7483
20.5224 49.9393
20.5677 49.1674
20.6131 48.6206
20.6586 48.2885
20.7038 48.2297
20.7493 47.9909
20.7945 48.0323
20.84 47.9624
20.8853 47.6289
20.9307 47.1668
20.976 47.3206
21.0215 47.3606
21.0668 47.8446
21.1122 48.0999
21.1575 48.5744
21.203 49.5286
21.2483 50.4466
21.2938 50.5909
21.3391 48.925
21.3846 47.9239
21.4299 47.2917
21.4754 47.1783
21.5207 47.1275
21.5662 47.472
21.6116 47.6761
21.6571 48.7027
21.7024 49.9701
21.7479 51.7294
21.7933 54.0596
21.8388 57.7878
21.8843 62.5356
21.9297 65.3613
21.9752 63.7554
22.0206 59.6454
22.0661 56.3489
22.1115 55.8365
22.157 55.9692
22.2024 54.2221
22.248 51.0333
22.2933 49.0225
22.3389 47.8109
22.3843 47.6192
22.4299 47.3265
22.4753 47.4551
22.5208 47.2724
22.5662 47.2872
22.6118 47.5056
22.6572 47.4846
22.7028 48.3062
22.7483 48.8702
22.7939 49.7185
22.8393 51.0475
22.8849 53.2125
22.9303 55.6606
22.9759 57.6678
23.0214 57.6144
23.067 54.5431
23.1126 50.9426
23.1581 48.4031
23.2037 47.7879
23.2492 47.6524
23.2948 47.7772
23.3403 48.3883
23.3859 49.2651
23.4314 50.2104
23.477 52.0505
23.5225 54.3621
23.5682 57.1085
23.6137 58.506
23.6593 56.3135
23.7048 51.8709
23.7505 48.3534
23.796 45.9652
23.8417 45.0433
23.8872 44.5537
23.9329 44.2033
23.9784 43.9146
24.0241 43.5754
24.0697 43.369
24.1154 43.0648
24.1609 42.8857
24.2066 42.7025
24.2522 42.5321
24.2979 42.306
24.3434 42.297
24.3892 42.0552
24.4349 42.0181
24.4805 42.0513
24.5262 42.1719
24.5718 41.941
24.6175 42.1315
24.6631 41.9119
24.7089 41.5097
24.7545 41.3528
24.8002 41.1301
24.8458 41.1462
24.8916 41.1559
24.9372 41.2389
24.983 41.6368
25.0286 41.8688
25.0744 42.5
25.12 43.128
25.1658 43.7686
25.2114 44.0632
25.2572 44.397
25.3029 44.5002
25.3487 44.6613
25.3943 44.2221
25.4402 43.1132
25.4858 41.9204
25.5316 40.7438
25.5773 40.2368
25.6231 40.0907
25.669 39.5396
25.7147 39.5643
25.7605 39.59
25.8062 39.6279
25.8521 39.8821
25.8977 39.7467
25.9436 40.1175
25.9893 40.2299
26.0352 40.7676
26.0809 40.8457
26.1268 41.1526
26.1725 40.9602
26.2184 40.2917
26.2641 39.5964
26.31 39.2639
26.3557 39.2476
26.4017 39.3928
26.4474 39.7002
26.4933 39.8703
26.5391 40.4499
26.585 41.1806
26.6308 41.6906
26.6767 41.8259
26.7225 41.7662
26.7684 41.1803
26.8142 40.4149
26.8601 40.036
26.9059 39.5969
26.9519 39.0358
26.9979 38.6561
27.0437 38.163
27.0896 38.1455
27.1354 37.9946
27.1814 37.9218
27.2272 37.8082
27.2732 37.762
27.3191 37.7497
27.3651 37.7667
27.4109 37.6485
27.4569 37.9044
27.5027 37.9849
27.5488 37.9527
27.5946 37.7578
27.6407 37.5332
27.6865 37.4677
27.7326 37.2826
27.7784 37.3868
27.8245 37.1664
27.8703 37.3578
27.9164 37.7172
27.9623 37.9284
28.0084 38.3515
28.0543 38.7322
28.1003 38.833
28.1462 38.6956
28.1923 38.3063
28.2384 37.703
28.2843 37.2228
28.3304 36.786
28.3764 36.1976
28.4225 35.9004
28.4684 35.54
28.5145 35.3425
28.5605 35.3503
28.6066 34.8889
28.6526 35.04
28.6987 34.8702
28.7447 34.7682
28.7908 34.7822
28.8368 34.726
28.8829 34.773
28.9289 34.821
28.9751 34.597
29.0211 34.3821
29.0673 34.0775
29.1133 33.8436
29.1595 33.8135
29.2055 33.622
29.2517 33.7324
29.2977 33.6855
29.3439 33.6082
29.3899 33.716
29.4361 33.7167
29.4824 33.3466
29.5284 33.1166
29.5746 32.9596
29.6207 32.5437
29.6669 32.4395
29.713 32.2791
29.7593 32.2181
29.8053 32.2019
29.8516 32.1351
29.8977 32.1754
29.9439 31.9521
29.99 31.9689
30.0363 31.8287
30.0824 31.9353
30.1287 31.747
30.1748 31.7922
30.2211 31.8124
30.2673 31.6708
30.3136 31.8224
30.3597 31.6218
30.406 31.6169
30.4522 31.5323
30.4985 31.4723
30.5447 31.6793
30.591 31.5193
30.6372 31.6469
30.6835 31.7179
30.7297 31.9048
30.7761 31.8116
30.8224 31.5151
30.8686 31.5047
30.915 31.1661
30.9612 31.0824
31.0076 30.8561
31.0538 30.695
31.1002 30.6449
31.1464 30.4323
31.1928 30.3379
31.2391 30.4281
31.2855 30.5067
31.3317 30.2686
31.3781 30.4585
31.4244 30.3472
31.4708 30.344
31.5171 30.3068
31.5636 30.3774
31.6098 30.065
31.6563 29.8515
31.7026 29.8563
31.7491 29.6317
31.7953 29.6709
31.8418 29.6262
31.8881 29.7415
31.9346 29.6563
31.9809 29.499
32.0275 29.5385
32.074 29.3737
32.1203 29.1849
32.1668 29.1205
32.2132 28.915
32.2597 28.7551
32.306 28.7092
32.3526 28.3561
32.399 28.4313
32.4455 28.2377
32.4919 28.0895
32.5385 28.1856
32.5848 27.943
32.6314 27.9652
32.6778 27.8851
32.7244 27.7998
32.7708 27.7135
32.8174 27.6666
32.8638 27.5671
32.9104 27.6407
32.9569 27.5032
33.0035 27.4404
33.0499 27.332
33.0966 27.3055
33.143 27.3812
33.1897 27.2879
33.2361 27.2243
33.2828 27.2213
33.3293 26.9896
33.3759 26.936
33.4226 26.7964
33.4691 26.735
33.5158 26.5752
33.5623 26.4008
33.609 26.3402
33.6555 26.1917
33.7022 26.1242
33.7487 26.1456
33.7954 25.9801
33.842 25.8449
33.8887 25.9086
33.9353 25.8593
33.982 25.7542
34.0286 25.6861
34.0753 25.5089
34.1219 25.3428
34.1687 25.3852
34.2152 25.356
34.262 25.2637
34.3086 25.136
34.3554 25.0995
34.402 24.9292
34.4488 24.9336
34.4954 24.7801
34.5422 24.6187
34.5889 24.6239
34.6357 24.5541
34.6825 24.4535
34.7292 24.3914
34.776 24.3107
34.8227 24.1911
34.8695 24.2462
34.9162 24.1839
34.9631 24.0515
35.0098 24.0675
35.0566 23.8803
35.1033 23.8824
35.1502 23.8365
35.1969 23.7538
35.2438 23.7761
35.2906 23.6893
35.3375 23.5815
35.3842 23.6408
35.4311 23.6256
35.4779 23.5196
35.5248 23.5281
35.5716 23.4332
35.6185 23.3265
35.6653 23.1634
35.7123 23.2354
35.759 23.0832
35.806 23.0001
35.8528 22.8846
35.8998 22.7758
35.9468 22.7543
35.9936 22.7577
36.0406 22.6556
36.0874 22.6309
36.1345 22.5511
36.1813 22.5071
36.2283 22.286
36.2752 22.263
36.3222 22.2559
36.3691 22.2348
36.4161 22.0684
36.463 22.0132
36.5101 22.0758
36.557 22.0013
36.6041 21.7681
36.651 21.8197
36.6981 21.7767
36.745 21.6826
36.7921 21.6354
36.839 21.5277
36.8861 21.4046
36.9331 21.3674
36.9802 21.2027
37.0272 21.2371
37.0743 21.1029
37.1213 21.146
37.1684 21.0122
37.2154 21.0228
37.2626 20.9086
37.3098 20.901
37.3568 20.7911
37.404 20.7631
37.451 20.6389
37.4982 20.5721
37.5452 20.5252
37.5924 20.4466
37.6395 20.5418
37.6867 20.2953
37.7337 20.2243
37.781 20.2017
37.8281 20.1286
37.8753 20.0289
37.9224 19.9712
37.9697 19.9107
38.0168 19.8272
38.064 19.7769
38.1111 19.7475
38.1584 19.6388
38.2056 19.6115
38.2529 19.6316
38.3 19.4708
38.3473 19.4866
38.3945 19.2897
38.4418 19.344
38.489 19.3304
38.5363 19.1546
38.5837 19.1445
38.6309 19.1246
38.6782 18.9997
38.7254 18.9412
38.7728 18.9288
38.82 18.8176
38.8674 18.8453
38.9146 18.6846
38.9621 18.6406
39.0093 18.6378
39.0567 18.6037
39.104 18.5521
39.1514 18.3777
39.1987 18.3743
39.2461 18.345
39.2934 18.2558
39.3409 18.1287
39.3882 18.1286
39.4356 18.0633
39.483 17.977
39.5304 17.9061
39.5778 17.9178
39.6253 17.8308
39.6726 17.7354
39.7201 17.7262
39.7675 17.6601
39.815 17.6406
39.8624 17.5581
39.9099 17.4831
39.9575 17.4578
40.0049 17.4199
40.0525 17.2868
40.0999 17.3413
40.1474 17.2027
40.1949 17.1763
40.2425 17.0807
40.2899 17.1058
40.3375 17.053
40.385 16.9122
40.4326 16.8924
40.48 16.8428
40.5277 16.8234
40.5752 16.7605
40.6228 16.6823
40.6703 16.6109
40.718 16.5972
40.7655 16.5499
40.8132 16.518
40.8607 16.4892
40.9084 16.4434
40.9559 16.2689
41.0036 16.3189
41.0512 16.2516
41.0989 16.2201
41.1465 16.1552
41.1942 16.089
41.242 16.0183
41.2896 15.9361
41.3373 15.8921
41.3849 15.8348
41.4327 15.8269
41.4803 15.7467
41.5281 15.6626
41.5758 15.5816
41.6236 15.5353
41.6712 15.5101
41.7191 15.4211
41.7667 15.4177
41.8146 15.3892
41.8622 15.305
41.9101 15.2835
41.9578 15.1663
42.0057 15.1392
42.0534 15.1584
42.1013 15.1047
42.149 15.05
42.1969 14.9412
42.2446 14.9629
42.2925 14.8443
42.3403 14.8215
42.3882 14.8078
42.436 14.7621
42.4839 14.6457
42.5319 14.6523
42.5797 14.598
42.6277 14.5574
42.6755 14.4318
42.7235 14.3629
42.7713 14.3687
42.8193 14.2955
42.8671 14.2424
42.9152 14.2193
42.963 14.2044
43.0111 14.14
43.0589 14.1455
43.107 13.9639
43.1549 14.0034
43.2029 13.9298
43.2508 13.9519
43.2989 13.8511
43.3468 13.782
43.3949 13.7268
43.4429 13.725
43.491 13.6472
43.5389 13.6372
43.5871 13.5502
43.635 13.4807
43.6832 13.4575
43.7312 13.3764
43.7793 13.3875
43.8273 13.3565
43.8755 13.2938
43.9237 13.2671
43.9717 13.2033
44.0199 13.1567
44.068 13.1321
44.1162 13.0354
44.1642 13.0192
44.2125 12.9794
44.2606 12.9676
44.3088 12.8545
44.3569 12.7667
44.4052 12.7636
44.4533 12.7338
44.5016 12.6775
44.5497 12.6452
44.598 12.6455
44.6461 12.5678
44.6945 12.5125
44.7426 12.4527
44.791 12.4033
44.8391 12.3939
44.8875 12.3243
44.9357 12.2927
44.984 12.1961
45.0322 12.2196
45.0806 12.1367
45.1288 12.1346
45.1773 12.0622
45.2257 12.0722
45.2739 12.0121
45.3224 11.9363
45.3706 11.8868
45.4191 11.8222
45.4673 11.8351
45.5158 11.7638
45.5641 11.7805
45.6126 11.7261
45.6609 11.6724
45.7094 11.5702
45.7577 11.5578
45.8063 11.5095
45.8546 11.5069
45.9031 11.4892
45.9515 11.4396
46.0001 11.4039
46.0484 11.2918
46.097 11.3502
46.1454 11.2772
46.194 11.2134
46.2424 11.1668
46.291 11.1299
46.3395 11.108
46.3881 11.0585
46.4365 10.9918
46.4852 10.9919
46.5337 10.9085
46.5823 10.9237
46.631 10.8441
46.6795 10.8274
46.7282 10.7736
46.7767 10.7465
46.8254 10.6867
46.8739 10.6416
46.9226 10.5928
46.9712 10.596
47.0199 10.5197
47.0685 10.4897
47.1173 10.4487
47.1658 10.3865
47.2146 10.3864
47.2632 10.3374
47.312 10.292
47.3606 10.2537
47.4095 10.2124
47.4581 10.1832
47.5069 10.1401
47.5556 10.1221
47.6044 10.0543
47.6531 10.0581
47.702 10.0045
47.7507 9.98507
47.7996 9.888
47.8483 9.87018
47.8972 9.86511
47.9461 9.81175
47.9948 9.7787
48.0438 9.74919
48.0925 9.722
48.1415 9.68996
48.1902 9.65271
48.2392 9.64092
48.288 9.56497
48.337 9.5578
48.3858 9.50568
48.4348 9.45493
48.4837 9.47759
48.5327 9.41385
48.5815 9.37468
48.6306 9.32429
48.6795 9.33128
48.7285 9.24175
48.7774 9.26675
48.8265 9.21391
48.8754 9.16822
48.9245 9.11711
48.9734 9.08627
49.0226 9.04739
49.0715 9.0432
49.1206 8.96936
49.1696 8.946
49.2188 8.91682
49.2679 8.92333
49.3169 8.85146
49.3661 8.80265
49.4151 8.82045
49.4643 8.74388
49.5134 8.72052
49.5626 8.64084
49.6117 8.65771
49.6609 8.6166
49.71 8.55445
49.7592 8.55808
49.8083 8.50735
49.8576 8.48234
49.9067 8.40958
49.956 8.43241
50.0052 8.43962
50.0545 8.38398
50.1036 8.3093
50.153 8.28403
50.2022 8.26002
50.2515 8.22019
50.3007 8.20857
50.3501 8.18002
50.3993 8.11346
50.4487 8.10833
50.498 8.08619
50.5474 8.03771
50.5966 8.0111
50.6461 7.97617
50.6955 7.94359
50.7448 7.87665
50.7943 7.87734
50.8436 7.84869
50.8931 7.82666
50.9424 7.79178
50.9919 7.76537
51.0413 7.73253
51.0908 7.70362
51.1402 7.64743
51.1897 7.65861
51.2391 7.62691
51.2887 7.59624
51.3381 7.51765
51.3877 7.5456
51.4371 7.45885
51.4867 7.4815
51.5362 7.45711
51.5858 7.38773
51.6353 7.33836
51.6849 7.32463
51.7344 7.28294
51.7841 7.27343
51.8336 7.21074
51.8833 7.1999
51.9328 7.1628
51.9826 7.12916
52.0323 7.13997
52.0818 7.11
52.1316 7.06425
52.1812 7.02971
52.231 6.97921
52.2806 6.97165
52.3304 6.94974
52.38 6.91606
52.4298 6.90094
52.4794 6.85122
52.5293 6.8377
52.5789 6.82826
52.6288 6.80139
52.6785 6.74493
52.7284 6.76274
52.7781 6.7033
52.828 6.64909
52.8777 6.63998
52.9276 6.60252
52.9774 6.59939
53.0273 6.56925
53.0771 6.53243
53.1271 6.51588
53.1769 6.46424
53.2269 6.47417
53.2767 6.40116
53.3267 6.35098
53.3765 6.36019
53.4266 6.3135
53.4766 6.35868
53.5265 6.29171
53.5765 6.2815
53.6264 6.2565
53.6765 6.22195
53.7264 6.14424
53.7765 6.14006
53.8265 6.11412
53.8766 6.07471
53.9266 6.08222
53.9767 6.06878
54.0267 6.01528
54.0769 5.97303
54.1269 5.95102
54.1771 5.95572
54.2271 5.91749
54.2773 5.81394
54.3274 5.86819
54.3776 5.8201
54.4277 5.80978
54.478 5.7252
54.528 5.71799
54.5783 5.67009
54.6285 5.62954
54.6788 5.62704
54.7289 5.58982
54.7792 5.52925
54.8296 5.4745
54.8798 5.44035
54.9301 5.39143
54.9803 5.34236
55.0307 5.34431
55.0809 5.2401
55.1314 5.28875
55.1816 5.19736
55.232 5.15801
55.2823 5.16178
55.3328 5.04048
55.383 5.03609
55.4335 5.01828
55.4838 4.96114
55.5344 4.88606
55.5847 4.86208
55.6352 4.83881
55.6856 4.77914
55.7361 4.72433