File: XRD/Ni3Fe_FD0124.xy
TT I
1.27165 8.40555
1.31627 6.66855
1.36089 7.19741
1.40551 7.47446
1.45013 6.5033
1.49476 6.44857
1.53938 6.59167
1.584 5.74792
1.62863 5.52239
1.67325 5.15578
1.71787 5.50946
1.7625 5.07316
1.80712 5.31291
1.85174 5.3345
1.89636 5.44
1.94099 4.88455
1.98562 4.99354
2.03025 5.23728
2.07487 4.7398
2.11949 4.66543
2.16411 4.72215
2.20874 4.25995
2.25338 4.04603
2.298 4.67479
2.34263 4.36668
2.38725 4.21553
2.43188 4.31865
2.4765 4.32575
2.52115 4.2746
2.56577 5.02192
2.6104 5.14989
2.65503 5.16341
2.69965 5.02363
2.7443 6.02868
2.78893 6.57177
2.83356 6.69437
2.87818 7.93873
2.92281 8.87523
2.96744 9.82331
3.01209 10.5032
3.05672 10.913
3.10135 12.1504
3.14599 13.0313
3.19062 14.0757
3.23527 15.1729
3.2799 14.9694
3.32454 16.4773
3.36917 17.1764
3.4138 18.6475
3.45844 18.8955
3.50309 20.2114
3.54773 20.737
3.59237 21.5384
3.637 22.5682
3.68164 22.9878
3.7263 24.2618
3.77094 25.0374
3.81558 25.1603
3.86022 26.0338
3.90486 28.0937
3.9495 28.6264
3.99416 29.1289
4.0388 30.4317
4.08344 31.6671
4.12809 32.3701
4.17273 33.5308
4.21738 35.1192
4.26204 36.289
4.30669 37.1474
4.35133 39.218
4.39598 40.7739
4.44063 42.2484
4.4853 44.9145
4.52995 46.8386
4.5746 49.0589
4.61925 51.6205
4.6639 53.3137
4.70855 56.4683
4.75322 59.1282
4.79788 61.9788
4.84253 65.6767
4.88719 69.9284
4.93184 74.843
4.97652 82.181
5.02118 90.9637
5.06583 102.354
5.11049 119.093
5.15515 159.114
5.19981 590.81
5.24449 3774.09
5.28916 7667.62
5.33382 6668.77
5.37848 524.853
5.42315 170.33
5.46783 130.314
5.5125 114.995
5.55716 108.6
5.60183 101.822
5.6465 99.1141
5.69117 97.641
5.73586 95.8164
5.78053 95.1792
5.8252 95.8461
5.86988 99.1684
5.91455 106.991
5.95924 127.292
6.00392 303.65
6.0486 1406.72
6.09328 2515.65
6.13795 3967.12
6.18263 752.17
6.22733 128.86
6.27201 90.6339
6.3167 78.6153
6.36138 72.5422
6.40606 68.6025
6.45075 66.2109
6.49545 63.839
6.54014 62.3373
6.58483 60.4439
6.62952 59.511
6.67421 58.1608
6.71892 57.156
6.76361 56.2217
6.8083 55.3204
6.853 54.2958
6.89769 54.3756
6.94239 53.6937
6.98711 53.2336
7.03181 52.7701
7.07651 52.449
7.12121 52.1391
7.16591 52.1192
7.21063 51.7892
7.25533 51.4381
7.30004 51.6444
7.34475 51.4283
7.38945 51.5368
7.43416 51.4347
7.47889 51.7644
7.5236 56.5626
7.56831 66.4211
7.61303 56.25
7.65774 53.2905
7.70247 53.5516
7.74719 53.5816
7.79191 54.4872
7.83663 54.6222
7.88135 55.8592
7.92607 56.9805
7.97081 57.83
8.01553 58.8626
8.06026 60.2892
8.10498 61.0631
8.14971 63.3571
8.19446 64.9218
8.23919 67.6571
8.28392 70.5098
8.32865 73.0387
8.37339 77.9745
8.41812 83.3608
8.46288 96.0261
8.50761 177.927
8.55235 618.202
8.59709 839.745
8.64183 1373.5
8.68658 1683.02
8.73134 446.302
8.77609 119.612
8.82083 97.9808
8.86558 91.1779
8.91033 87.4053
8.9551 84.5938
8.99985 83.8311
9.04461 82.5586
9.08936 81.8619
9.13412 81.0406
9.17888 80.8417
9.22365 88.0603
9.26841 102.404
9.31318 88.5785
9.35794 82.0904
9.4027 81.7414
9.44749 82.3389
9.49226 82.751
9.53703 83.8102
9.5818 85.6064
9.62657 86.4905
9.67134 88.0106
9.71614 89.8831
9.76091 91.8936
9.80569 95.2418
9.85047 98.0954
9.89525 103.414
9.94005 114.032
9.98484 189.993
10.0296 560.252
10.0744 711.893
10.1192 939.627
10.164 1595.58
10.2088 1058.36
10.2536 232.771
10.2984 117.791
10.3432 108.182
10.388 104.149
10.4328 121.832
10.4776 218.965
10.5224 255.482
10.5672 306.05
10.612 470.196
10.6568 392.031
10.7017 142.821
10.7465 91.3562
10.7913 83.2225
10.8361 80.0384
10.8809 77.6052
10.9257 75.4838
10.9706 73.7331
11.0154 72.292
11.0602 70.7241
11.105 69.684
11.1499 67.9372
11.1947 67.3734
11.2395 65.9632
11.2844 65.6932
11.3292 64.8728
11.374 64.1341
11.4189 63.5947
11.4637 62.845
11.5086 62.2616
11.5534 61.9117
11.5983 61.591
11.6431 61.5022
11.688 61.1051
11.7328 60.8144
11.7777 60.8503
11.8225 60.9189
11.8674 60.8623
11.9122 62.0231
11.9571 66.5647
12.002 66.3131
12.0468 67.8995
12.0917 91.0955
12.1366 107.378
12.1814 112.543
12.2263 142.362
12.2712 188.059
12.3161 145.112
12.3609 77.1784
12.4058 63.7717
12.4507 62.9406
12.4956 62.5042
12.5405 62.6745
12.5853 63.1546
12.6302 62.9494
12.6751 63.8604
12.72 64.5695
12.7649 65.8342
12.8098 66.3043
12.8547 67.4275
12.8996 69.0187
12.9445 70.3259
12.9894 72.1368
13.0343 74.5251
13.0792 78.9441
13.1242 86.3075
13.1691 134.377
13.214 188.785
13.2589 197.305
13.3038 227.517
13.3487 330.351
13.3937 389.095
13.4386 224.589
13.4835 122.506
13.5285 156.324
13.5734 182.058
13.6183 183.263
13.6633 221.808
13.7082 315.7
13.7531 313.542
13.7981 164.053
13.843 88.9347
13.888 80.5509
13.9329 77.1002
13.9779 75.4574
14.0228 73.964
14.0678 72.7612
14.1127 72.2326
14.1577 74.6388
14.2027 72.9191
14.2476 70.1968
14.2926 69.1005
14.3376 68.3969
14.3825 67.8818
14.4275 67.5531
14.4725 67.476
14.5175 67.7149
14.5624 67.7589
14.6074 67.9957
14.6524 68.4175
14.6974 69.1309
14.7424 70.8356
14.7874 80.657
14.8324 107.607
14.8774 120.383
14.9224 121.612
14.9674 139.209
15.0124 182.285
15.0574 205.663
15.1024 145.782
15.1474 83.4628
15.1924 70.9947
15.2374 68.5802
15.2824 67.5811
15.3274 66.3749
15.3725 65.9533
15.4175 65.4871
15.4625 65.248
15.5076 64.5529
15.5526 64.9407
15.5976 64.9879
15.6426 66.0379
15.6877 73.6475
15.7327 95.9116
15.7778 107.28
15.8228 107.071
15.8679 117.388
15.9129 146.288
15.958 183.637
16.003 156.61
16.0481 91.7895
16.0931 66.8141
16.1382 61.7237
16.1833 60.0255
16.2283 58.2467
16.2734 57.5697
16.3185 56.8326
16.3636 56.086
16.4086 55.5763
16.4537 55.1226
16.4988 54.5547
16.5439 54.3349
16.589 54.2483
16.6341 53.7811
16.6792 53.6886
16.7243 53.8803
16.7694 53.7066
16.8145 53.6622
16.8596 53.8926
16.9047 54.0767
16.9498 54.7316
16.9949 54.6871
17.04 54.9118
17.0851 56.4416
17.1302 60.8718
17.1754 64.1263
17.2205 64.4511
17.2656 65.476
17.3108 70.3816
17.3559 77.4069
17.401 81.0613
17.4462 72.0266
17.4913 61.5043
17.5365 58.8066
17.5815 58.5943
17.6268 58.7105
17.6718 59.2338
17.7171 59.8086
17.7622 60.9078
17.8074 61.8767
17.8525 63.4132
17.8977 71.852
17.9428 84.0741
17.9881 87.9676
18.0331 88.475
18.0784 94.0919
18.1237 109.323
18.1688 136.891
18.214 143.635
18.2591 113.548
18.3044 87.7431
18.3495 84.0974
18.3948 92.3078
18.4399 102.092
18.4852 96.802
18.5303 77.7201
18.5756 64.9819
18.6207 61.9892
18.666 60.5908
18.7112 59.3585
18.7565 58.7717
18.8016 58.3093
18.8469 57.6447
18.892 57.3463
18.9374 56.9032
18.9825 56.3644
19.0278 56.3148
19.073 56.2945
19.1183 56.9007
19.1635 59.3671
19.2088 61.3434
19.254 61.701
19.2993 61.9547
19.3447 63.8951
19.3898 67.3806
19.4352 72.4724
19.4804 72.4571
19.5257 64.2245
19.5709 56.2543
19.6163 53.9339
19.6615 53.2929
19.7068 52.9859
19.752 52.8466
19.7974 53.1514
19.8426 54.4157
19.888 56.4207
19.9332 57.9216
19.9786 57.964
20.0238 58.2203
20.0692 60.6148
20.1144 65.6138
20.1598 71.3458
20.205 70.8404
20.2504 65.4123
20.2957 60.4111
20.3411 60.0966
20.3863 63.3592
20.4318 64.324
20.477 59.4978
20.5224 53.0755
20.5677 50.784
20.6131 49.9008
20.6586 49.3659
20.7038 49.1682
20.7493 48.9005
20.7945 48.8734
20.84 48.7662
20.8853 48.5637
20.9307 48.2627
20.976 48.3751
21.0215 48.6058
21.0668 48.969
21.1122 49.1211
21.1575 49.0467
21.203 49.1717
21.2483 49.4393
21.2938 50.8017
21.3391 50.7523
21.3846 50.3832
21.4299 49.0033
21.4754 48.3069
21.5207 48.2582
21.5662 48.5827
21.6116 48.9128
21.6571 50.8333
21.7024 52.8916
21.7479 53.7185
21.7933 53.6907
21.8388 54.7865
21.8843 57.3399
21.9297 60.659
21.9752 64.6177
22.0206 65.6667
22.0661 60.8524
22.1115 55.9819
22.157 54.9385
22.2024 55.7811
22.248 54.9355
22.2933 52.3471
22.3389 49.9392
22.3843 48.7785
22.4299 48.4517
22.4753 48.4506
22.5208 48.4702
22.5662 48.4515
22.6118 48.3944
22.6572 48.6474
22.7028 49.8877
22.7483 51.0309
22.7939 51.5888
22.8393 51.4343
22.8849 51.8102
22.9303 52.4691
22.9759 54.0187
23.0214 56.0766
23.067 57.8636
23.1126 56.127
23.1581 52.4637
23.2037 49.6441
23.2492 48.9571
23.2948 49.3752
23.3403 50.8268
23.3859 51.6488
23.4314 51.3579
23.477 51.2303
23.5225 51.4714
23.5682 52.6342
23.6137 54.5811
23.6593 56.9702
23.7048 57.3147
23.7505 53.6136
23.796 49.0607
23.8417 46.6726
23.8872 45.7797
23.9329 45.3597
23.9784 45.0706
24.0241 44.7338
24.0697 44.5053
24.1154 44.0441
24.1609 43.8015
24.2066 43.5879
24.2522 43.4884
24.2979 43.2946
24.3434 43.1276
24.3892 42.9923
24.4349 42.9569
24.4805 42.6098
24.5262 42.8025
24.5718 42.5625
24.6175 42.6773
24.6631 42.7607
24.7089 42.697
24.7545 42.5569
24.8002 42.2623
24.8458 42.2255
24.8916 42.1882
24.9372 42.3048
24.983 42.4722
25.0286 42.6829
25.0744 43.1998
25.12 43.5464
25.1658 43.7841
25.2114 43.9563
25.2572 44.4758
25.3029 44.5421
25.3487 44.2166
25.3943 44.3319
25.4402 44.6454
25.4858 44.2642
25.5316 43.0963
25.5773 41.5663
25.6231 41.2568
25.669 40.6514
25.7147 40.4624
25.7605 40.5769
25.8062 40.698
25.8521 40.8443
25.8977 40.7387
25.9436 40.6915
25.9893 40.5232
26.0352 40.74
26.0809 40.8143
26.1268 41.2205
26.1725 41.5911
26.2184 41.7667
26.2641 41.3007
26.31 40.7472
26.3557 40.6497
26.4017 40.5344
26.4474 40.5111
26.4933 40.5725
26.5391 40.8302
26.585 41.0472
26.6308 41.2723
26.6767 41.5431
26.7225 42.2189
26.7684 42.4091
26.8142 41.84
26.8601 41.0681
26.9059 40.5709
26.9519 40.2173
26.9979 39.845
27.0437 39.2878
27.0896 38.852
27.1354 38.8569
27.1814 38.7251
27.2272 38.7022
27.2732 38.6816
27.3191 38.4548
27.3651 38.4508
27.4109 38.3698
27.4569 38.3267
27.5027 38.4338
27.5488 38.3377
27.5946 38.51
27.6407 38.4862
27.6865 38.5659
27.7326 38.2834
27.7784 38.2473
27.8245 38.0721
27.8703 38.0112
27.9164 38.1278
27.9623 38.3229
28.0084 38.2343
28.0543 38.5945
28.1003 38.7394
28.1462 38.998
28.1923 39.0663
28.2384 38.7139
28.2843 38.2871
28.3304 37.758
28.3764 37.4287
28.4225 36.999
28.4684 36.5068
28.5145 36.1738
28.5605 35.9369
28.6066 35.8149
28.6526 35.7348
28.6987 35.8013
28.7447 35.5289
28.7908 35.2649
28.8368 35.288
28.8829 35.1413
28.9289 35.2642
28.9751 35.1626
29.0211 35.0546
29.0673 34.9503
29.1133 34.845
29.1595 34.6236
29.2055 34.3614
29.2517 34.2637
29.2977 34.1512
29.3439 34.0675
29.3899 33.9858
29.4361 33.9833
29.4824 34.011
29.5284 33.971
29.5746 33.6073
29.6207 33.4168
29.6669 33.1975
29.713 32.9598
29.7593 32.7523
29.8053 32.8235
29.8516 32.6836
29.8977 32.6932
29.9439 32.598
29.99 32.5171
30.0363 32.3424
30.0824 32.5009
30.1287 32.2777
30.1748 32.2224
30.2211 32.2575
30.2673 32.1672
30.3136 32.4144
30.3597 32.4312
30.406 32.293
30.4522 32.1921
30.4985 32.0362
30.5447 32.1238
30.591 31.9934
30.6372 32.0261
30.6835 31.9065
30.7297 32.1262
30.7761 32.136
30.8224 32.1567
30.8686 32.0853
30.915 31.8653
30.9612 31.7009
31.0076 31.4987
31.0538 31.3821
31.1002 31.1751
31.1464 30.9558
31.1928 31.0023
31.2391 31.0205
31.2855 30.8626
31.3317 30.7459
31.3781 30.8867
31.4244 30.7412
31.4708 30.7357
31.5171 30.6497
31.5636 30.795
31.6098 30.7997
31.6563 30.6908
31.7026 30.4181
31.7491 30.1756
31.7953 30.2473
31.8418 30.0858
31.8881 30.1936
31.9346 30.084
31.9809 29.8876
32.0275 29.9917
32.074 29.9575
32.1203 29.7126
32.1668 29.7665
32.2132 29.5585
32.2597 29.3721
32.306 29.3466
32.3526 28.9762
32.399 28.8717
32.4455 28.8183
32.4919 28.7969
32.5385 28.6196
32.5848 28.4927
32.6314 28.5211
32.6778 28.4358
32.7244 28.3333
32.7708 28.1774
32.8174 28.1456
32.8638 27.9881
32.9104 28.0407
32.9569 28.0093
33.0035 27.9458
33.0499 27.8468
33.0966 27.8377
33.143 27.7485
33.1897 27.6008
33.2361 27.5838
33.2828 27.6055
33.3293 27.4932
33.3759 27.4076
33.4226 27.4307
33.4691 27.1971
33.5158 27.1172
33.5623 26.9322
33.609 26.8442
33.6555 26.745
33.7022 26.5934
33.7487 26.5312
33.7954 26.4156
33.842 26.3234
33.8887 26.2405
33.9353 26.2348
33.982 26.1581
34.0286 26.1013
34.0753 26.0608
34.1219 25.8876
34.1687 25.7946
34.2152 25.6841
34.262 25.6063
34.3086 25.6093
34.3554 25.4203
34.402 25.3977
34.4488 25.3147
34.4954 25.2578
34.5422 25.198
34.5889 25.0005
34.6357 24.9176
34.6825 24.9152
34.7292 24.803
34.776 24.7813
34.8227 24.6928
34.8695 24.6458
34.9162 24.6146
34.9631 24.3539
35.0098 24.3661
35.0566 24.2964
35.1033 24.2054
35.1502 24.2062
35.1969 24.1231
35.2438 24.1139
35.2906 24.0207
35.3375 23.9895
35.3842 23.9193
35.4311 23.9792
35.4779 23.9068
35.5248 23.8245
35.5716 23.7932
35.6185 23.7009
35.6653 23.5756
35.7123 23.5787
35.759 23.4952
35.806 23.3346
35.8528 23.3231
35.8998 23.2196
35.9468 23.1265
35.9936 23.1142
36.0406 22.9882
36.0874 22.9925
36.1345 22.8651
36.1813 22.8318
36.2283 22.7243
36.2752 22.6858
36.3222 22.6303
36.3691 22.5143
36.4161 22.5254
36.463 22.4336
36.5101 22.4117
36.557 22.2934
36.6041 22.1762
36.651 22.1709
36.6981 22.1138
36.745 22.0631
36.7921 21.9239
36.839 21.8449
36.8861 21.8179
36.9331 21.6822
36.9802 21.6234
37.0272 21.538
37.0743 21.5628
37.1213 21.4328
37.1684 21.4178
37.2154 21.291
37.2626 21.1904
37.3098 21.2204
37.3568 21.1013
37.404 21.1413
37.451 20.9722
37.4982 20.9296
37.5452 20.7921
37.5924 20.8249
37.6395 20.7549
37.6867 20.7301
37.7337 20.6225
37.781 20.5102
37.8281 20.5563
37.8753 20.3187
37.9224 20.341
37.9697 20.2358
38.0168 20.1837
38.064 20.2038
38.1111 20.0358
38.1584 19.9834
38.2056 19.9728
38.2529 19.763
38.3 19.814
38.3473 19.7454
38.3945 19.6987
38.4418 19.6034
38.489 19.5737
38.5363 19.4901
38.5837 19.4315
38.6309 19.3486
38.6782 19.2947
38.7254 19.2163
38.7728 19.1223
38.82 19.1199
38.8674 19.124
38.9146 19.0139
38.9621 19.0262
39.0093 18.8991
39.0567 18.8732
39.104 18.72
39.1514 18.6891
39.1987 18.6636
39.2461 18.6334
39.2934 18.5055
39.3409 18.4191
39.3882 18.3919
39.4356 18.378
39.483 18.2785
39.5304 18.1591
39.5778 18.195
39.6253 18.144
39.6726 18.045
39.7201 17.9956
39.7675 17.9415
39.815 17.9469
39.8624 17.8412
39.9099 17.8134
39.9575 17.7264
40.0049 17.6524
40.0525 17.6537
40.0999 17.5254
40.1474 17.4749
40.1949 17.4161
40.2425 17.3742
40.2899 17.3973
40.3375 17.2552
40.385 17.2496
40.4326 17.1848
40.48 17.0879
40.5277 17.0878
40.5752 17.0492
40.6228 16.9143
40.6703 16.9367
40.718 16.8511
40.7655 16.7271
40.8132 16.7445
40.8607 16.773
40.9084 16.6761
40.9559 16.5888
41.0036 16.5682
41.0512 16.4013
41.0989 16.4806
41.1465 16.3675
41.1942 16.3677
41.242 16.2615
41.2896 16.2163
41.3373 16.0745
41.3849 16.1165
41.4327 16.0944
41.4803 15.8729
41.5281 15.9622
41.5758 15.8639
41.6236 15.8254
41.6712 15.7374
41.7191 15.7595
41.7667 15.6789
41.8146 15.6719
41.8622 15.619
41.9101 15.5137
41.9578 15.4551
42.0057 15.3917
42.0534 15.3773
42.1013 15.3594
42.149 15.222
42.1969 15.1801
42.2446 15.1713
42.2925 15.0534
42.3403 15.0552
42.3882 14.9872
42.436 14.9524
42.4839 14.8673
42.5319 14.8317
42.5797 14.8229
42.6277 14.7282
42.6755 14.7141
42.7235 14.61
42.7713 14.5898
42.8193 14.5799
42.8671 14.5225
42.9152 14.4315
42.963 14.4374
43.0111 14.3564
43.0589 14.2844
43.107 14.2251
43.1549 14.2391
43.2029 14.1709
43.2508 14.0824
43.2989 14.0462
43.3468 14.0124
43.3949 13.9656
43.4429 13.9623
43.491 13.8707
43.5389 13.7933
43.5871 13.8106
43.635 13.7547
43.6832 13.671
43.7312 13.6216
43.7793 13.5634
43.8273 13.5101
43.8755 13.4932
43.9237 13.4104
43.9717 13.3847
44.0199 13.365
44.068 13.3373
44.1162 13.2659
44.1642 13.1941
44.2125 13.1813
44.2606 13.111
44.3088 13.0555
44.3569 12.9943
44.4052 13.0113
44.4533 12.9475
44.5016 12.8904
44.5497 12.8661
44.598 12.7713
44.6461 12.7233
44.6945 12.7197
44.7426 12.6751
44.791 12.6264
44.8391 12.5548
44.8875 12.534
44.9357 12.4971
44.984 12.4892
45.0322 12.3875
45.0806 12.3598
45.1288 12.3116
45.1773 12.2614
45.2257 12.2133
45.2739 12.2029
45.3224 12.1438
45.3706 12.0814
45.4191 12.0139
45.4673 12.0237
45.5158 11.9693
45.5641 11.9058
45.6126 11.8781
45.6609 11.7828
45.7094 11.8074
45.7577 11.7241
45.8063 11.6927
45.8546 11.665
45.9031 11.6476
45.9515 11.5969
46.0001 11.5779
46.0484 11.5206
46.097 11.4793
46.1454 11.4013
46.194 11.4317
46.2424 11.3268
46.291 11.3178
46.3395 11.2656
46.3881 11.208
46.4365 11.1739
46.4852 11.138
46.5337 11.0736
46.5823 11.0805
46.631 11.0423
46.6795 10.9786
46.7282 10.9363
46.7767 10.9073
46.8254 10.8698
46.8739 10.7562
46.9226 10.7179
46.9712 10.7401
47.0199 10.6871
47.0685 10.6324
47.1173 10.6371
47.1658 10.5599
47.2146 10.542
47.2632 10.4994
47.312 10.4577
47.3606 10.4321
47.4095 10.3594
47.4581 10.335
47.5069 10.2607
47.5556 10.2567
47.6044 10.2011
47.6531 10.1872
47.702 10.1554
47.7507 10.1069
47.7996 10.0707
47.8483 10.0459
47.8972 10.0237
47.9461 9.98566
47.9948 9.92603
48.0438 9.88962
48.0925 9.86254
48.1415 9.81004
48.1902 9.77197
48.2392 9.76904
48.288 9.71708
48.337 9.69275
48.3858 9.63955
48.4348 9.61639
48.4837 9.62191
48.5327 9.57057
48.5815 9.47873
48.6306 9.53896
48.6795 9.47245
48.7285 9.42075
48.7774 9.36309
48.8265 9.31228
48.8754 9.32228
48.9245 9.30522
48.9734 9.25562
49.0226 9.1951
49.0715 9.14643
49.1206 9.09215
49.1696 9.08164
49.2188 9.05561
49.2679 9.03524
49.3169 8.97213
49.3661 8.95687
49.4151 8.92481
49.4643 8.90065
49.5134 8.85834
49.5626 8.79007
49.6117 8.76687
49.6609 8.76754
49.71 8.72359
49.7592 8.69732
49.8083 8.60586
49.8576 8.62955
49.9067 8.56688
49.956 8.59014
50.0052 8.52191
50.0545 8.49163
50.1036 8.49906
50.153 8.40801
50.2022 8.42242
50.2515 8.363
50.3007 8.34671
50.3501 8.29401
50.3993 8.27967
50.4487 8.23588
50.498 8.2268
50.5474 8.16716
50.5966 8.07708
50.6461 8.12475
50.6955 8.10484
50.7448 8.04814
50.7943 8.03709
50.8436 7.98752
50.8931 7.94698
50.9424 7.92532
50.9919 7.88946
51.0413 7.88581
51.0908 7.84806
51.1402 7.80751
51.1897 7.75934
51.2391 7.75405
51.2887 7.70334
51.3381 7.64874
51.3877 7.65866
51.4371 7.60863
51.4867 7.5841
51.5362 7.55254
51.5858 7.50765
51.6353 7.46889
51.6849 7.44663
51.7344 7.40072
51.7841 7.43207
51.8336 7.34505
51.8833 7.34576
51.9328 7.30109
51.9826 7.25992
52.0323 7.22233
52.0818 7.20686
52.1316 7.21141
52.1812 7.17343
52.231 7.12572
52.2806 7.10079
52.3304 7.08141
52.38 7.02296
52.4298 7.04245
52.4794 6.98426
52.5293 6.94439
52.5789 6.92066
52.6288 6.90378
52.6785 6.87421
52.7284 6.82783
52.7781 6.78707
52.828 6.81257
52.8777 6.73163
52.9276 6.73175
52.9774 6.68975
53.0273 6.67559
53.0771 6.63885
53.1271 6.62183
53.1769 6.57912
53.2269 6.58687
53.2767 6.55859
53.3267 6.53262
53.3765 6.4592
53.4266 6.45716
53.4766 6.38542
53.5265 6.38846
53.5765 6.3269
53.6264 6.35206
53.6765 6.28723
53.7264 6.27712
53.7765 6.28344
53.8265 6.19859
53.8766 6.21855
53.9266 6.16199
53.9767 6.13235
54.0267 6.06971
54.0769 6.05919
54.1269 6.03107
54.1771 6.00871
54.2271 5.96065
54.2773 5.93365
54.3274 5.94727
54.3776 5.86196
54.4277 5.84873
54.478 5.78621
54.528 5.76013
54.5783 5.6823
54.6285 5.67122
54.6788 5.59682
54.7289 5.59226
54.7792 5.5122
54.8296 5.45376
54.8798 5.42417
54.9301 5.36453
54.9803 5.33517
55.0307 5.37027
55.0809 5.31745
55.1314 5.2581
55.1816 5.18219
55.232 5.14089
55.2823 5.10317
55.3328 5.07252
55.383 4.98577
55.4335 4.95778
55.4838 4.89261
55.5344 4.86024
55.5847 4.79774
55.6352 4.77994
55.6856 4.80743
55.7361 4.74177