File: XRD/Ni3Fe_FD0161.xy
TT I
1.27165 7.92982
1.31627 6.79568
1.36089 7.77555
1.40551 6.85229
1.45013 5.97873
1.49476 6.17351
1.53938 6.16235
1.584 6.08109
1.62863 5.68107
1.67325 5.62618
1.71787 5.34944
1.7625 5.6379
1.80712 5.27394
1.85174 4.8996
1.89636 4.64892
1.94099 5.4854
1.98562 5.10959
2.03025 4.64406
2.07487 5.02727
2.11949 5.01297
2.16411 4.22992
2.20874 5.1486
2.25338 4.38123
2.298 4.51697
2.34263 4.28449
2.38725 4.39576
2.43188 4.32
2.4765 4.88564
2.52115 4.62526
2.56577 5.1395
2.6104 4.92694
2.65503 5.60165
2.69965 5.00475
2.7443 6.15754
2.78893 6.78562
2.83356 7.61321
2.87818 7.63703
2.92281 8.30943
2.96744 9.39558
3.01209 10.8118
3.05672 11.1761
3.10135 12.4427
3.14599 13.3807
3.19062 14.2011
3.23527 14.7917
3.2799 15.7054
3.32454 16.5608
3.36917 17.9882
3.4138 18.9581
3.45844 19.5907
3.50309 20.5352
3.54773 21.039
3.59237 21.7735
3.637 22.838
3.68164 23.1829
3.7263 24.4831
3.77094 24.5179
3.81558 26.1911
3.86022 26.3732
3.90486 28.0635
3.9495 28.813
3.99416 29.3285
4.0388 30.7224
4.08344 31.7264
4.12809 32.7537
4.17273 34.3586
4.21738 35.815
4.26204 36.5012
4.30669 37.9293
4.35133 40.074
4.39598 41.5521
4.44063 43.7025
4.4853 45.3604
4.52995 47.6117
4.5746 49.4106
4.61925 51.5046
4.6639 53.8963
4.70855 56.7918
4.75322 59.7535
4.79788 62.6602
4.84253 66.7907
4.88719 70.8636
4.93184 75.7116
4.97652 82.9379
5.02118 91.0862
5.06583 101.487
5.11049 117.534
5.15515 154.26
5.19981 543.836
5.24449 3774.26
5.28916 8525.07
5.33382 6205.4
5.37848 433.535
5.42315 161.952
5.46783 126.964
5.5125 114.18
5.55716 107.555
5.60183 102.158
5.6465 98.9509
5.69117 97.5597
5.73586 95.9238
5.78053 94.8543
5.8252 95.7913
5.86988 98.653
5.91455 105.404
5.95924 123.741
6.00392 286.512
6.0486 1382.59
6.09328 2795.06
6.13795 4087.96
6.18263 688.092
6.22733 121.094
6.27201 88.723
6.3167 78.3158
6.36138 72.5704
6.40606 68.8551
6.45075 66.2237
6.49545 64.585
6.54014 62.65
6.58483 61.3084
6.62952 60.0701
6.67421 58.5553
6.71892 57.4407
6.76361 56.9232
6.8083 56.1768
6.853 55.1936
6.89769 54.7622
6.94239 54.7604
6.98711 53.7903
7.03181 53.2975
7.07651 52.919
7.12121 52.4233
7.16591 52.6819
7.21063 52.3743
7.25533 52.2284
7.30004 52.2348
7.34475 52.1664
7.38945 52.5089
7.43416 52.0742
7.47889 52.0799
7.5236 55.8494
7.56831 62.8093
7.61303 55.0758
7.65774 53.6697
7.70247 54.1891
7.74719 54.3949
7.79191 55.0257
7.83663 55.2273
7.88135 56.231
7.92607 57.3962
7.97081 58.6543
8.01553 59.3329
8.06026 60.755
8.10498 62.0147
8.14971 63.4967
8.19446 65.7227
8.23919 68.4321
8.28392 71.0614
8.32865 73.7827
8.37339 78.4847
8.41812 83.9293
8.46288 95.6751
8.50761 174.008
8.55235 602.316
8.59709 899.743
8.64183 1520.73
8.68658 1604.68
8.73134 386.74
8.77609 115.42
8.82083 97.603
8.86558 91.2132
8.91033 87.8139
8.9551 85.4015
8.99985 84.0613
9.04461 83.5863
9.08936 82.2639
9.13412 81.6847
9.17888 81.7513
9.22365 86.95
9.26841 96.204
9.31318 86.3091
9.35794 82.5652
9.4027 82.136
9.44749 83.2883
9.49226 83.6147
9.53703 84.6119
9.5818 86.1443
9.62657 87.3973
9.67134 89.021
9.71614 91.1827
9.76091 93.0958
9.80569 95.6943
9.85047 98.9372
9.89525 104.464
9.94005 114.151
9.98484 186.101
10.0296 542.97
10.0744 742.028
10.1192 1054.87
10.164 1690.91
10.2088 968.969
10.2536 212.867
10.2984 116.564
10.3432 107.808
10.388 104.565
10.4328 121.633
10.4776 214.03
10.5224 263.028
10.5672 338.187
10.612 499.805
10.6568 382.147
10.7017 140.22
10.7465 90.8114
10.7913 84.0192
10.8361 80.842
10.8809 78.2649
10.9257 75.8604
10.9706 74.6824
11.0154 73.0753
11.0602 71.3527
11.105 70.3162
11.1499 68.7243
11.1947 67.9842
11.2395 66.9029
11.2844 66.5699
11.3292 65.5192
11.374 64.7334
11.4189 64.4261
11.4637 63.7056
11.5086 62.8231
11.5534 62.3608
11.5983 62.0225
11.6431 62.3393
11.688 61.7001
11.7328 61.9468
11.7777 61.4832
11.8225 61.049
11.8674 61.451
11.9122 62.5282
11.9571 65.9873
12.002 65.3182
12.0468 67.8924
12.0917 90.6179
12.1366 108.168
12.1814 119.513
12.2263 152.401
12.2712 190.109
12.3161 136.005
12.3609 75.0543
12.4058 63.9174
12.4507 63.5187
12.4956 63.2818
12.5405 63.314
12.5853 63.663
12.6302 63.8838
12.6751 64.6368
12.72 65.4398
12.7649 66.487
12.8098 67.2312
12.8547 68.3774
12.8996 69.9507
12.9445 71.7165
12.9894 73.3081
13.0343 75.3778
13.0792 79.3807
13.1242 86.7724
13.1691 132.968
13.214 186.363
13.2589 206.834
13.3038 249.533
13.3487 353.923
13.3937 378.748
13.4386 204.887
13.4835 118.841
13.5285 153.886
13.5734 181.974
13.6183 194.714
13.6633 242.467
13.7082 333.291
13.7531 303.661
13.7981 151.876
13.843 88.0561
13.888 80.6622
13.9329 77.7804
13.9779 76.2145
14.0228 74.8286
14.0678 73.1401
14.1127 73.1133
14.1577 74.0621
14.2027 72.8008
14.2476 70.7293
14.2926 69.7181
14.3376 69.2503
14.3825 68.6306
14.4275 68.4136
14.4725 68.4809
14.5175 68.4258
14.5624 68.32
14.6074 68.6951
14.6524 69.3046
14.6974 69.9569
14.7424 71.4405
14.7874 80.858
14.8324 107.182
14.8774 120.933
14.9224 128.249
14.9674 150.803
15.0124 194.242
15.0574 204.909
15.1024 137.401
15.1474 81.8831
15.1924 71.2949
15.2374 69.2043
15.2824 68.0154
15.3274 67.0937
15.3725 66.563
15.4175 66.5572
15.4625 65.6188
15.5076 65.5724
15.5526 65.6956
15.5976 65.8027
15.6426 66.6839
15.6877 73.9158
15.7327 95.1882
15.7778 107.55
15.8228 111.994
15.8679 126.525
15.9129 157.05
15.958 186.069
16.003 149.481
16.0481 87.5751
16.0931 66.142
16.1382 61.94
16.1833 60.5874
16.2283 58.9342
16.2734 58.0846
16.3185 57.5821
16.3636 56.6473
16.4086 56.0881
16.4537 55.6102
16.4988 55.2114
16.5439 55.195
16.589 54.7428
16.6341 54.6508
16.6792 54.2954
16.7243 54.2656
16.7694 54.377
16.8145 54.1098
16.8596 54.4261
16.9047 54.7867
16.9498 55.1544
16.9949 55.0651
17.04 55.3402
17.0851 56.9265
17.1302 60.9299
17.1754 64.3309
17.2205 65.6309
17.2656 67.6763
17.3108 72.8234
17.3559 79.799
17.401 80.8357
17.4462 70.7645
17.4913 61.361
17.5365 59.3819
17.5815 59.0608
17.6268 59.7407
17.6718 60.0012
17.7171 60.5186
17.7622 61.6093
17.8074 62.367
17.8525 64.1929
17.8977 72.0588
17.9428 83.5522
17.9881 88.4311
18.0331 91.4799
18.0784 99.1735
18.1237 116.302
18.1688 141.455
18.214 140.781
18.2591 109.718
18.3044 88.3838
18.3495 87.1145
18.3948 95.932
18.4399 103.437
18.4852 94.4311
18.5303 75.6688
18.5756 64.7443
18.6207 62.3163
18.666 61.1825
18.7112 60.172
18.7565 59.3256
18.8016 58.8918
18.8469 58.2717
18.892 57.8989
18.9374 57.4157
18.9825 57.1289
19.0278 56.9387
19.073 56.9669
19.1183 57.3874
19.1635 59.8037
19.2088 61.8641
19.254 62.5966
19.2993 63.4028
19.3447 65.5033
19.3898 69.5036
19.4352 74.393
19.4804 72.1434
19.5257 63.4275
19.5709 56.2342
19.6163 54.4944
19.6615 54.127
19.7068 53.62
19.752 53.5641
19.7974 53.7192
19.8426 54.7302
19.888 56.7473
19.9332 58.4208
19.9786 58.8033
20.0238 59.5766
20.0692 62.1568
20.1144 67.4028
20.1598 72.595
20.205 70.9556
20.2504 65.2127
20.2957 61.3235
20.3411 61.9592
20.3863 65.0439
20.4318 64.3246
20.477 58.8764
20.5224 53.2419
20.5677 51.2041
20.6131 50.4557
20.6586 49.9282
20.7038 49.791
20.7493 49.4299
20.7945 49.3147
20.84 49.3304
20.8853 48.8658
20.9307 48.7424
20.976 49.1049
21.0215 49.1919
21.0668 49.4083
21.1122 49.5936
21.1575 49.6589
21.203 49.9262
21.2483 50.4938
21.2938 51.7352
21.3391 51.5293
21.3846 50.6078
21.4299 49.4745
21.4754 48.8034
21.5207 48.9354
21.5662 48.8503
21.6116 49.508
21.6571 51.4633
21.7024 53.065
21.7479 54.2101
21.7933 54.6299
21.8388 56.0305
21.8843 58.9843
21.9297 62.4609
21.9752 66.0508
22.0206 65.6486
22.0661 60.6059
22.1115 56.4768
22.157 55.9155
22.2024 56.5639
22.248 54.9567
22.2933 52.6021
22.3389 50.1511
22.3843 49.2569
22.4299 48.8786
22.4753 49.0567
22.5208 48.9021
22.5662 48.9006
22.6118 49.0437
22.6572 49.3786
22.7028 50.3455
22.7483 51.5174
22.7939 52.0668
22.8393 52.3388
22.8849 52.8639
22.9303 53.6819
22.9759 55.1616
23.0214 57.3055
23.067 58.3262
23.1126 55.9482
23.1581 52.2267
23.2037 50.0246
23.2492 49.367
23.2948 49.8753
23.3403 50.9044
23.3859 51.8346
23.4314 51.9691
23.477 52.0884
23.5225 52.6709
23.5682 53.8131
23.6137 56.0029
23.6593 57.9642
23.7048 57.0651
23.7505 53.1476
23.796 49.1068
23.8417 47.159
23.8872 46.2946
23.9329 45.8361
23.9784 45.5592
24.0241 45.0647
24.0697 44.8865
24.1154 44.4269
24.1609 44.3325
24.2066 44.0675
24.2522 43.9996
24.2979 43.883
24.3434 43.6457
24.3892 43.4478
24.4349 43.3598
24.4805 43.265
24.5262 43.2645
24.5718 42.9957
24.6175 43.056
24.6631 43.2393
24.7089 43.0678
24.7545 42.8277
24.8002 42.4533
24.8458 42.521
24.8916 42.6367
24.9372 42.7708
24.983 42.9436
25.0286 43.2566
25.0744 43.6906
25.12 44.0103
25.1658 44.5007
25.2114 44.8296
25.2572 45.1806
25.3029 45.0831
25.3487 45.0411
25.3943 45.0595
25.4402 45.0573
25.4858 44.6126
25.5316 43.1492
25.5773 41.7725
25.6231 41.4538
25.669 41.0767
25.7147 40.9363
25.7605 40.9501
25.8062 41.1301
25.8521 41.1883
25.8977 41.0469
25.9436 41.0214
25.9893 40.992
26.0352 41.3156
26.0809 41.3196
26.1268 41.7876
26.1725 42.2076
26.2184 41.9933
26.2641 41.5784
26.31 41.1175
26.3557 41.0491
26.4017 40.8696
26.4474 40.9487
26.4933 41.0355
26.5391 41.4013
26.585 41.6757
26.6308 41.9872
26.6767 42.2768
26.7225 42.7902
26.7684 42.8212
26.8142 42.056
26.8601 41.4031
26.9059 40.87
26.9519 40.5261
26.9979 40.1625
27.0437 39.6869
27.0896 39.2888
27.1354 39.2257
27.1814 39.0918
27.2272 39.0373
27.2732 39.1036
27.3191 38.9353
27.3651 38.8723
27.4109 38.8423
27.4569 38.7941
27.5027 38.7079
27.5488 38.8432
27.5946 38.8508
27.6407 38.8917
27.6865 38.8592
27.7326 38.662
27.7784 38.614
27.8245 38.5822
27.8703 38.61
27.9164 38.7557
27.9623 38.6239
28.0084 38.9027
28.0543 39.2336
28.1003 39.3187
28.1462 39.6257
28.1923 39.5548
28.2384 38.9194
28.2843 38.6102
28.3304 38.2349
28.3764 37.7435
28.4225 37.3187
28.4684 36.8432
28.5145 36.4962
28.5605 36.3286
28.6066 36.1996
28.6526 36.0501
28.6987 36.1051
28.7447 35.9009
28.7908 35.679
28.8368 35.6355
28.8829 35.5695
28.9289 35.5855
28.9751 35.5396
29.0211 35.547
29.0673 35.2478
29.1133 35.1635
29.1595 34.9134
29.2055 34.6902
29.2517 34.8115
29.2977 34.5163
29.3439 34.6018
29.3899 34.4539
29.4361 34.3901
29.4824 34.3752
29.5284 34.4431
29.5746 33.9709
29.6207 33.5764
29.6669 33.5118
29.713 33.2892
29.7593 33.2633
29.8053 33.198
29.8516 33.0129
29.8977 33.2336
29.9439 32.9195
29.99 32.8662
30.0363 32.788
30.0824 32.8145
30.1287 32.7609
30.1748 32.6726
30.2211 32.6252
30.2673 32.5899
30.3136 32.7341
30.3597 32.7306
30.406 32.7378
30.4522 32.536
30.4985 32.495
30.5447 32.4365
30.591 32.4492
30.6372 32.4181
30.6835 32.4034
30.7297 32.4612
30.7761 32.4891
30.8224 32.5619
30.8686 32.4569
30.915 32.1525
30.9612 31.99
31.0076 31.764
31.0538 31.6716
31.1002 31.4682
31.1464 31.3536
31.1928 31.3747
31.2391 31.3313
31.2855 31.2165
31.3317 31.152
31.3781 31.2443
31.4244 31.1446
31.4708 31.1278
31.5171 31.1718
31.5636 31.2299
31.6098 31.1302
31.6563 31.0176
31.7026 30.905
31.7491 30.5759
31.7953 30.6094
31.8418 30.4155
31.8881 30.568
31.9346 30.3274
31.9809 30.391
32.0275 30.3604
32.074 30.3265
32.1203 30.0629
32.1668 30.0063
32.2132 29.786
32.2597 29.7039
32.306 29.6247
32.3526 29.4399
32.399 29.1902
32.4455 29.0256
32.4919 29.1117
32.5385 28.9003
32.5848 28.7966
32.6314 28.8125
32.6778 28.7008
32.7244 28.6682
32.7708 28.5043
32.8174 28.5336
32.8638 28.4078
32.9104 28.3471
32.9569 28.2775
33.0035 28.1851
33.0499 28.249
33.0966 28.1079
33.143 28.0725
33.1897 27.9505
33.2361 27.8733
33.2828 27.9019
33.3293 27.7946
33.3759 27.7848
33.4226 27.6296
33.4691 27.4969
33.5158 27.3718
33.5623 27.2628
33.609 27.0575
33.6555 26.924
33.7022 26.9266
33.7487 26.7759
33.7954 26.7671
33.842 26.603
33.8887 26.5929
33.9353 26.5032
33.982 26.3872
34.0286 26.3435
34.0753 26.3254
34.1219 26.3078
34.1687 26.067
34.2152 26.0446
34.262 25.8895
34.3086 25.8415
34.3554 25.8112
34.402 25.6086
34.4488 25.5852
34.4954 25.5488
34.5422 25.4106
34.5889 25.2906
34.6357 25.2245
34.6825 25.2143
34.7292 25.0384
34.776 25.0288
34.8227 24.9018
34.8695 24.8787
34.9162 24.7806
34.9631 24.692
35.0098 24.7656
35.0566 24.5843
35.1033 24.5054
35.1502 24.4892
35.1969 24.4119
35.2438 24.4599
35.2906 24.3671
35.3375 24.2538
35.3842 24.2393
35.4311 24.242
35.4779 24.2085
35.5248 24.1797
35.5716 24.0323
35.6185 24.0379
35.6653 23.8977
35.7123 23.8494
35.759 23.7661
35.806 23.6899
35.8528 23.554
35.8998 23.3759
35.9468 23.3846
35.9936 23.4087
36.0406 23.2152
36.0874 23.2047
36.1345 23.1659
36.1813 23.0668
36.2283 23.01
36.2752 22.9367
36.3222 22.8942
36.3691 22.8165
36.4161 22.6162
36.463 22.6288
36.5101 22.6624
36.557 22.6
36.6041 22.4792
36.651 22.4311
36.6981 22.4447
36.745 22.3113
36.7921 22.2715
36.839 22.166
36.8861 22.0922
36.9331 22.0422
36.9802 22.0021
37.0272 21.7608
37.0743 21.6784
37.1213 21.7275
37.1684 21.687
37.2154 21.5204
37.2626 21.4212
37.3098 21.45
37.3568 21.3736
37.404 21.4026
37.451 21.2904
37.4982 21.2332
37.5452 21.0582
37.5924 21.0138
37.6395 21.0466
37.6867 20.9844
37.7337 20.8078
37.781 20.8148
37.8281 20.7171
37.8753 20.5818
37.9224 20.5136
37.9697 20.5242
38.0168 20.4472
38.064 20.3712
38.1111 20.2959
38.1584 20.1885
38.2056 20.1234
38.2529 20.1566
38.3 20.0299
38.3473 20.0518
38.3945 19.9137
38.4418 19.8644
38.489 19.7993
38.5363 19.6685
38.5837 19.6139
38.6309 19.5859
38.6782 19.4582
38.7254 19.4865
38.7728 19.4438
38.82 19.3869
38.8674 19.2992
38.9146 19.2212
38.9621 19.155
39.0093 19.1314
39.0567 19.0405
39.104 19.0346
39.1514 18.8825
39.1987 18.8788
39.2461 18.8316
39.2934 18.8079
39.3409 18.5644
39.3882 18.6191
39.4356 18.5957
39.483 18.5473
39.5304 18.4256
39.5778 18.3986
39.6253 18.353
39.6726 18.2707
39.7201 18.314
39.7675 18.1771
39.815 18.111
39.8624 18.0249
39.9099 18.0652
39.9575 17.972
40.0049 17.9229
40.0525 17.829
40.0999 17.7901
40.1474 17.7715
40.1949 17.58
40.2425 17.6028
40.2899 17.5557
40.3375 17.4982
40.385 17.4393
40.4326 17.3913
40.48 17.3031
40.5277 17.3004
40.5752 17.2583
40.6228 17.1485
40.6703 17.0625
40.718 17.0753
40.7655 17.0258
40.8132 16.9259
40.8607 16.9175
40.9084 16.8556
40.9559 16.7908
41.0036 16.7901
41.0512 16.661
41.0989 16.6864
41.1465 16.6028
41.1942 16.5087
41.242 16.4363
41.2896 16.4077
41.3373 16.3476
41.3849 16.2477
41.4327 16.2511
41.4803 16.1276
41.5281 16.1242
41.5758 16.0203
41.6236 15.9677
41.6712 15.9936
41.7191 15.8765
41.7667 15.8343
41.8146 15.8234
41.8622 15.6977
41.9101 15.6791
41.9578 15.6283
42.0057 15.5565
42.0534 15.4966
42.1013 15.5625
42.149 15.4244
42.1969 15.3614
42.2446 15.3505
42.2925 15.3156
42.3403 15.2076
42.3882 15.1256
42.436 15.1452
42.4839 15.0329
42.5319 15.0287
42.5797 14.943
42.6277 14.9021
42.6755 14.8246
42.7235 14.7565
42.7713 14.7436
42.8193 14.7153
42.8671 14.6565
42.9152 14.6076
42.963 14.5357
43.0111 14.5262
43.0589 14.4545
43.107 14.4272
43.1549 14.3292
43.2029 14.2859
43.2508 14.2392
43.2989 14.258
43.3468 14.1548
43.3949 14.1379
43.4429 14.0809
43.491 14.0216
43.5389 13.9436
43.5871 13.9326
43.635 13.8452
43.6832 13.8524
43.7312 13.8042
43.7793 13.7216
43.8273 13.7087
43.8755 13.678
43.9237 13.5678
43.9717 13.5414
44.0199 13.5482
44.068 13.4639
44.1162 13.4156
44.1642 13.3852
44.2125 13.3136
44.2606 13.2434
44.3088 13.2273
44.3569 13.0926
44.4052 13.1679
44.4533 13.0703
44.5016 13.0013
44.5497 13.0133
44.598 12.9441
44.6461 12.8714
44.6945 12.8404
44.7426 12.7925
44.791 12.6946
44.8391 12.751
44.8875 12.6572
44.9357 12.6221
44.984 12.5664
45.0322 12.5338
45.0806 12.5422
45.1288 12.4569
45.1773 12.3938
45.2257 12.3234
45.2739 12.3273
45.3224 12.2732
45.3706 12.2617
45.4191 12.1722
45.4673 12.1313
45.5158 12.175
45.5641 12.0583
45.6126 12.0024
45.6609 11.9868
45.7094 11.9266
45.7577 11.872
45.8063 11.8519
45.8546 11.8164
45.9031 11.7613
45.9515 11.7558
46.0001 11.6465
46.0484 11.6557
46.097 11.6173
46.1454 11.5237
46.194 11.5595
46.2424 11.4672
46.291 11.4489
46.3395 11.359
46.3881 11.3106
46.4365 11.3206
46.4852 11.3232
46.5337 11.2632
46.5823 11.2009
46.631 11.1393
46.6795 11.0968
46.7282 11.0891
46.7767 11.0431
46.8254 10.935
46.8739 10.9258
46.9226 10.8901
46.9712 10.8554
47.0199 10.7739
47.0685 10.7752
47.1173 10.6961
47.1658 10.6707
47.2146 10.681
47.2632 10.6127
47.312 10.5698
47.3606 10.5282
47.4095 10.5084
47.4581 10.4393
47.5069 10.4414
47.5556 10.3925
47.6044 10.3333
47.6531 10.2855
47.702 10.2786
47.7507 10.2193
47.7996 10.1629
47.8483 10.1413
47.8972 10.0982
47.9461 10.1168
47.9948 10.0306
48.0438 10.0185
48.0925 9.97803
48.1415 9.96788
48.1902 9.88128
48.2392 9.91245
48.288 9.81417
48.337 9.81066
48.3858 9.751
48.4348 9.75058
48.4837 9.67404
48.5327 9.64198
48.5815 9.64039
48.6306 9.61339
48.6795 9.57861
48.7285 9.50188
48.7774 9.49558
48.8265 9.45628
48.8754 9.36925
48.9245 9.40595
48.9734 9.35775
49.0226 9.33276
49.0715 9.29974
49.1206 9.2087
49.1696 9.24251
49.2188 9.20277
49.2679 9.16137
49.3169 9.07671
49.3661 9.04849
49.4151 9.01463
49.4643 9.00423
49.5134 8.9447
49.5626 8.91837
49.6117 8.86664
49.6609 8.90572
49.71 8.78605
49.7592 8.80416
49.8083 8.72684
49.8576 8.73421
49.9067 8.64383
49.956 8.65603
50.0052 8.61779
50.0545 8.60336
50.1036 8.55989
50.153 8.54744
50.2022 8.51621
50.2515 8.46936
50.3007 8.41781
50.3501 8.38932
50.3993 8.34713
50.4487 8.35751
50.498 8.32617
50.5474 8.25095
50.5966 8.23796
50.6461 8.14902
50.6955 8.18931
50.7448 8.1625
50.7943 8.12317
50.8436 8.07586
50.8931 8.02797
50.9424 8.01494
50.9919 7.942
51.0413 7.95071
51.0908 7.90804
51.1402 7.90909
51.1897 7.83967
51.2391 7.81069
51.2887 7.76744
51.3381 7.72295
51.3877 7.72015
51.4371 7.72195
51.4867 7.68278
51.5362 7.58276
51.5858 7.58008
51.6353 7.56921
51.6849 7.51901
51.7344 7.47616
51.7841 7.49181
51.8336 7.45375
51.8833 7.41034
51.9328 7.36928
51.9826 7.37342
52.0323 7.33648
52.0818 7.29433
52.1316 7.27961
52.1812 7.25026
52.231 7.24601
52.2806 7.19051
52.3304 7.17791
52.38 7.13081
52.4298 7.07322
52.4794 7.0326
52.5293 7.00216
52.5789 7.01252
52.6288 6.96113
52.6785 6.97667
52.7284 6.92351
52.7781 6.92665
52.828 6.86253
52.8777 6.82353
52.9276 6.79633
52.9774 6.79952
53.0273 6.73812
53.0771 6.69065
53.1271 6.65194
53.1769 6.65127
53.2269 6.58705
53.2767 6.57647
53.3267 6.56229
53.3765 6.57992
53.4266 6.49527
53.4766 6.49887
53.5265 6.47498
53.5765 6.41079
53.6264 6.42916
53.6765 6.39606
53.7264 6.32222
53.7765 6.34821
53.8265 6.29481
53.8766 6.23506
53.9266 6.17557
53.9767 6.219
54.0267 6.17458
54.0769 6.14076
54.1269 6.11606
54.1771 6.08479
54.2271 6.04058
54.2773 5.99177
54.3274 5.95541
54.3776 5.93819
54.4277 5.92592
54.478 5.84334
54.528 5.79715
54.5783 5.78508
54.6285 5.71458
54.6788 5.67444
54.7289 5.64383
54.7792 5.61581
54.8296 5.5664
54.8798 5.52719
54.9301 5.44384
54.9803 5.50395
55.0307 5.46097
55.0809 5.30936
55.1314 5.3347
55.1816 5.28485
55.232 5.15226
55.2823 5.16138
55.3328 5.1613
55.383 5.03835
55.4335 4.97388
55.4838 4.96264
55.5344 4.90131
55.5847 4.87419
55.6352 4.85127
55.6856 4.84461
55.7361 4.80762