File: XRD/Ni3Fe_FD0430.xy
TT I
1.27165 7.34207
1.31627 6.7506
1.36089 6.90618
1.40551 6.8277
1.45013 6.15273
1.49476 6.02376
1.53938 5.66942
1.584 5.66162
1.62863 5.85563
1.67325 4.96189
1.71787 4.84089
1.7625 4.79079
1.80712 4.88826
1.85174 4.66048
1.89636 4.64385
1.94099 4.45201
1.98562 4.9896
2.03025 4.73961
2.07487 4.43486
2.11949 4.79162
2.16411 4.84096
2.20874 15.5018
2.25338 24.6323
2.298 5.73101
2.34263 5.45403
2.38725 5.57791
2.43188 5.46717
2.4765 6.6294
2.52115 6.11609
2.56577 6.75885
2.6104 7.31087
2.65503 7.2999
2.69965 7.47851
2.7443 7.44218
2.78893 8.1752
2.83356 8.03049
2.87818 8.08342
2.92281 8.78136
2.96744 9.39588
3.01209 10.3573
3.05672 10.9413
3.10135 12.1388
3.14599 12.7211
3.19062 14.3414
3.23527 15.2763
3.2799 15.8111
3.32454 16.7516
3.36917 17.8792
3.4138 19.0834
3.45844 20.1075
3.50309 21.1379
3.54773 22.0113
3.59237 24.5707
3.637 98.636
3.68164 61.8942
3.7263 26.6359
3.77094 26.3897
3.81558 27.13
3.86022 27.7957
3.90486 29.6613
3.9495 30.4246
3.99416 31.3197
4.0388 32.5936
4.08344 34.545
4.12809 35.6857
4.17273 37.4269
4.21738 43.5549
4.26204 265.149
4.30669 228.603
4.35133 49.5012
4.39598 45.262
4.44063 55.3454
4.4853 67.4743
4.52995 51.1166
4.5746 52.5412
4.61925 53.8531
4.6639 56.2037
4.70855 59.264
4.75322 62.1824
4.79788 64.8462
4.84253 68.3795
4.88719 72.0141
4.93184 76.3757
4.97652 82.1301
5.02118 89.2329
5.06583 97.578
5.11049 110.656
5.15515 188.438
5.19981 425.305
5.24449 3084.07
5.28916 11664.7
5.33382 3251.03
5.37848 209.173
5.42315 134.43
5.46783 116.79
5.5125 107.847
5.55716 103.773
5.60183 100.334
5.6465 98.9529
5.69117 96.2704
5.73586 94.137
5.78053 93.7484
5.8252 93.3268
5.86988 94.7308
5.91455 97.794
5.95924 107.871
6.00392 237.279
6.0486 1057.64
6.09328 4184.33
6.13795 3488.19
6.18263 279.284
6.22733 97.9128
6.27201 85.3273
6.3167 106.173
6.36138 82.2842
6.40606 70.5724
6.45075 68.5749
6.49545 66.6879
6.54014 64.9491
6.58483 64.2056
6.62952 64.0041
6.67421 97.6314
6.71892 151.995
6.76361 70.2179
6.8083 59.9082
6.853 58.2972
6.89769 57.6994
6.94239 57.6049
6.98711 56.8047
7.03181 56.5221
7.07651 56.3178
7.12121 56.319
7.16591 56.4459
7.21063 56.5119
7.25533 72.0376
7.30004 188.959
7.34475 94.4719
7.38945 57.4726
7.43416 55.6411
7.47889 55.2434
7.5236 55.497
7.56831 56.5149
7.61303 58.2542
7.65774 58.8286
7.70247 57.0753
7.74719 57.0649
7.79191 57.4339
7.83663 57.8199
7.88135 58.5579
7.92607 59.4712
7.97081 60.7675
8.01553 61.8673
8.06026 63.3019
8.10498 65.29
8.14971 75.0216
8.19446 73.5611
8.23919 70.6415
8.28392 73.1456
8.32865 75.6747
8.37339 80.3072
8.41812 87.4452
8.46288 119.332
8.50761 176.703
8.55235 419.118
8.59709 1171.16
8.64183 2154.79
8.68658 1031.13
8.73134 175.165
8.77609 102.317
8.82083 94.6989
8.86558 91.3969
8.91033 91.8199
8.9551 93.5995
8.99985 86.9608
9.04461 84.9218
9.08936 84.1901
9.13412 83.1155
9.17888 83.28
9.22365 84.2269
9.26841 83.0238
9.31318 83.6727
9.35794 83.9032
9.4027 84.3088
9.44749 85.1681
9.49226 85.7772
9.53703 86.9302
9.5818 88.6725
9.62657 93.6639
9.67134 100.732
9.71614 95.328
9.76091 95.8865
9.80569 97.8172
9.85047 101.755
9.89525 128.036
9.94005 142.594
9.98484 188.518
10.0296 367.819
10.0744 807.734
10.1192 1678.54
10.164 1687.19
10.2088 439.186
10.2536 133.441
10.2984 116.142
10.3432 118.126
10.388 107.222
10.4328 123.018
10.4776 167.096
10.5224 279.217
10.5672 501.714
10.612 507.238
10.6568 215.957
10.7017 98.7325
10.7465 88.414
10.7913 84.6594
10.8361 82.1876
10.8809 80.2313
10.9257 79.9994
10.9706 80.5583
11.0154 75.9977
11.0602 73.9721
11.105 73.2709
11.1499 77.7902
11.1947 85.8773
11.2395 75.9171
11.2844 71.8256
11.3292 68.4117
11.374 67.1602
11.4189 66.96
11.4637 66.1693
11.5086 66.5159
11.5534 69.8355
11.5983 66.8603
11.6431 64.6959
11.688 64.0332
11.7328 63.9726
11.7777 64.0915
11.8225 63.798
11.8674 63.7046
11.9122 63.8702
11.9571 64.0627
12.002 64.8282
12.0468 69.6731
12.0917 81.6377
12.1366 105.289
12.1814 151.718
12.2263 207.103
12.2712 173.349
12.3161 100.118
12.3609 72.4265
12.4058 65.7508
12.4507 65.5323
12.4956 65.6769
12.5405 65.8203
12.5853 66.8734
12.6302 75.4208
12.6751 81.0372
12.72 71.4638
12.7649 69.0125
12.8098 69.641
12.8547 71.1889
12.8996 72.2284
12.9445 73.6824
12.9894 75.4994
13.0343 77.3007
13.0792 80.6365
13.1242 90.661
13.1691 116.666
13.214 154.175
13.2589 235.397
13.3038 360.44
13.3487 427.48
13.3937 276.663
13.4386 129.249
13.4835 109.301
13.5285 125.01
13.5734 161.646
13.6183 242.564
13.6633 343.023
13.7082 352.083
13.7531 199.615
13.7981 99.9788
13.843 83.4804
13.888 81.0389
13.9329 78.5494
13.9779 77.1399
14.0228 75.7602
14.0678 74.1967
14.1127 73.6939
14.1577 73.8741
14.2027 73.064
14.2476 71.6056
14.2926 72.248
14.3376 73.0414
14.3825 71.7303
14.4275 69.9678
14.4725 69.6469
14.5175 70.1798
14.5624 70.2367
14.6074 72.68
14.6524 73.2741
14.6974 71.8361
14.7424 73.2567
14.7874 81.0403
14.8324 92.006
14.8774 112.55
14.9224 152.026
14.9674 204.253
15.0124 223.594
15.0574 155.707
15.1024 94.3752
15.1474 73.7849
15.1924 71.8684
15.2374 72.7107
15.2824 71.8819
15.3274 69.5999
15.3725 68.1496
15.4175 67.5594
15.4625 67.1938
15.5076 67.5059
15.5526 67.4916
15.5976 66.9778
15.6426 68.2399
15.6877 74.4314
15.7327 82.4654
15.7778 97.2156
15.8228 125.096
15.8679 166.744
15.9129 194.807
15.958 161.055
16.003 98.545
16.0481 69.9717
16.0931 66.1608
16.1382 64.0545
16.1833 61.7406
16.2283 60.117
16.2734 59.5403
16.3185 59.7541
16.3636 60.661
16.4086 58.9183
16.4537 57.4585
16.4988 56.6687
16.5439 56.6264
16.589 56.2411
16.6341 56.097
16.6792 55.4158
16.7243 55.8741
16.7694 55.8579
16.8145 55.8801
16.8596 56.2777
16.9047 58.1523
16.9498 58.2304
16.9949 56.7599
17.04 56.8231
17.0851 58.0618
17.1302 60.0256
17.1754 63.1223
17.2205 67.8145
17.2656 74.286
17.3108 82.1831
17.3559 83.4398
17.401 72.4801
17.4462 63.1198
17.4913 60.2557
17.5365 60.2065
17.5815 60.3231
17.6268 60.642
17.6718 61.6604
17.7171 61.9824
17.7622 62.3663
17.8074 63.0957
17.8525 65.4722
17.8977 69.9873
17.9428 75.7584
17.9881 84.2465
18.0331 99.6134
18.0784 119.836
18.1237 140.743
18.1688 134.598
18.214 107.477
18.2591 88.0829
18.3044 90.7714
18.3495 100.023
18.3948 107.781
18.4399 98.9191
18.4852 79.4416
18.5303 67.2317
18.5756 63.3041
18.6207 62.4266
18.666 61.5355
18.7112 60.7821
18.7565 60.0606
18.8016 59.6565
18.8469 58.9516
18.892 58.842
18.9374 58.2879
18.9825 57.9819
19.0278 57.9377
19.073 58.068
19.1183 58.6256
19.1635 59.6941
19.2088 61.0836
19.254 63.2209
19.2993 67.157
19.3447 73.2052
19.3898 77.8327
19.4352 74.2745
19.4804 64.7349
19.5257 57.7166
19.5709 55.1389
19.6163 54.8267
19.6615 54.737
19.7068 54.339
19.752 54.2388
19.7974 54.5162
19.8426 55.5506
19.888 56.3486
19.9332 57.4712
19.9786 59.7511
20.0238 62.8972
20.0692 67.9751
20.1144 71.0703
20.1598 69.9849
20.205 64.6812
20.2504 62.7745
20.2957 64.3441
20.3411 66.5918
20.3863 65.6814
20.4318 59.901
20.477 55.0062
20.5224 52.6381
20.5677 52.0921
20.6131 51.1379
20.6586 50.6678
20.7038 50.5031
20.7493 49.9446
20.7945 49.7604
20.84 49.9081
20.8853 49.5417
20.9307 49.4125
20.976 49.7132
21.0215 49.5024
21.0668 49.9903
21.1122 50.3848
21.1575 51.0817
21.203 51.7807
21.2483 52.3011
21.2938 52.3517
21.3391 51.0865
21.3846 50.1222
21.4299 49.2805
21.4754 49.1726
21.5207 49.4628
21.5662 49.7904
21.6116 50.159
21.6571 50.932
21.7024 51.9838
21.7479 53.5831
21.7933 56.172
21.8388 59.7111
21.8843 63.5194
21.9297 65.7593
21.9752 64.6805
22.0206 60.9725
22.0661 57.3073
22.1115 56.8178
22.157 57.0416
22.2024 55.7071
22.248 52.6437
22.2933 50.9297
22.3389 50.0738
22.3843 49.9652
22.4299 49.9419
22.4753 49.8645
22.5208 49.5696
22.5662 49.1587
22.6118 49.7202
22.6572 49.8943
22.7028 50.273
22.7483 50.7234
22.7939 51.4829
22.8393 52.8561
22.8849 54.9124
22.9303 56.6519
22.9759 58.8062
23.0214 58.6639
23.067 55.7913
23.1126 52.1901
23.1581 50.2059
23.2037 49.6813
23.2492 49.9859
23.2948 49.8344
23.3403 50.2479
23.3859 50.8404
23.4314 51.7384
23.477 53.3852
23.5225 55.2443
23.5682 57.7111
23.6137 58.8206
23.6593 57.1524
23.7048 53.0374
23.7505 49.3683
23.796 47.5603
23.8417 47.02
23.8872 46.4337
23.9329 45.9608
23.9784 45.7442
24.0241 45.6413
24.0697 45.2399
24.1154 45.0043
24.1609 44.8448
24.2066 44.7834
24.2522 44.6487
24.2979 44.2531
24.3434 44.1186
24.3892 43.9654
24.4349 43.9516
24.4805 43.5831
24.5262 43.8947
24.5718 43.7043
24.6175 43.7709
24.6631 43.5463
24.7089 43.3158
24.7545 43.2034
24.8002 43.0005
24.8458 42.9892
24.8916 42.9106
24.9372 43.0586
24.983 43.3268
25.0286 43.6275
25.0744 43.9988
25.12 44.6201
25.1658 45.0415
25.2114 45.4612
25.2572 45.6462
25.3029 45.5373
25.3487 45.8511
25.3943 45.6229
25.4402 44.5454
25.4858 43.306
25.5316 42.3369
25.5773 41.7516
25.6231 41.6899
25.669 41.2816
25.7147 41.3181
25.7605 41.3279
25.8062 41.3339
25.8521 41.482
25.8977 41.3533
25.9436 41.6738
25.9893 41.7555
26.0352 42.1528
26.0809 42.4024
26.1268 42.553
26.1725 42.1904
26.2184 41.701
26.2641 41.1036
26.31 40.8904
26.3557 40.8346
26.4017 40.7655
26.4474 41.2109
26.4933 41.5378
26.5391 41.9004
26.585 42.3972
26.6308 42.7712
26.6767 42.9751
26.7225 42.7919
26.7684 42.1922
26.8142 41.6
26.8601 41.3375
26.9059 40.7856
26.9519 40.2562
26.9979 39.9436
27.0437 39.6459
27.0896 39.3836
27.1354 39.4689
27.1814 39.2549
27.2272 39.2353
27.2732 39.3307
27.3191 39.0826
27.3651 39.1339
27.4109 39.1206
27.4569 39.2047
27.5027 39.2246
27.5488 39.3069
27.5946 39.2438
27.6407 38.8733
27.6865 38.9321
27.7326 38.5499
27.7784 38.5276
27.8245 38.5025
27.8703 38.8026
27.9164 38.9736
27.9623 39.0898
28.0084 39.3025
28.0543 39.9296
28.1003 39.6637
28.1462 39.5874
28.1923 39.0365
28.2384 38.6707
28.2843 38.3298
28.3304 37.9147
28.3764 37.4873
28.4225 37.1353
28.4684 36.9879
28.5145 36.678
28.5605 36.6143
28.6066 36.3704
28.6526 36.353
28.6987 36.3207
28.7447 36.2056
28.7908 36.0515
28.8368 36.1845
28.8829 36.1299
28.9289 35.9966
28.9751 35.8096
29.0211 35.6606
29.0673 35.428
29.1133 35.2472
29.1595 35.144
29.2055 35.0546
29.2517 35.0149
29.2977 34.9269
29.3439 35.0084
29.3899 34.9475
29.4361 34.7777
29.4824 34.6195
29.5284 34.4787
29.5746 33.9801
29.6207 33.7941
29.6669 33.8221
29.713 33.5152
29.7593 33.5091
29.8053 33.6208
29.8516 33.4596
29.8977 33.4138
29.9439 33.2586
29.99 33.1934
30.0363 33.0375
30.0824 33.1899
30.1287 32.8945
30.1748 32.9977
30.2211 32.9989
30.2673 32.8486
30.3136 33.0106
30.3597 32.913
30.406 32.7777
30.4522 32.7426
30.4985 32.6125
30.5447 32.7298
30.591 32.7337
30.6372 32.7613
30.6835 32.8023
30.7297 32.7744
30.7761 32.7312
30.8224 32.5838
30.8686 32.3846
30.915 32.2228
30.9612 32.126
31.0076 31.9439
31.0538 31.6885
31.1002 31.7174
31.1464 31.5398
31.1928 31.5099
31.2391 31.5642
31.2855 31.4543
31.3317 31.4734
31.3781 31.4874
31.4244 31.4858
31.4708 31.3216
31.5171 31.3288
31.5636 31.3469
31.6098 31.131
31.6563 30.9697
31.7026 30.7409
31.7491 30.6139
31.7953 30.6938
31.8418 30.5947
31.8881 30.7346
31.9346 30.6056
31.9809 30.6197
32.0275 30.4033
32.074 30.3603
32.1203 30.3191
32.1668 30.0044
32.2132 30.0088
32.2597 29.8621
32.306 29.721
32.3526 29.54
32.399 29.591
32.4455 29.3366
32.4919 29.2476
32.5385 29.1758
32.5848 29.076
32.6314 28.9924
32.6778 29.0224
32.7244 28.8657
32.7708 28.6719
32.8174 28.6777
32.8638 28.5301
32.9104 28.6316
32.9569 28.52
33.0035 28.3892
33.0499 28.3569
33.0966 28.2884
33.143 28.2873
33.1897 28.2631
33.2361 28.1091
33.2828 28.107
33.3293 27.8996
33.3759 27.9555
33.4226 27.8424
33.4691 27.5943
33.5158 27.596
33.5623 27.4561
33.609 27.3264
33.6555 27.1865
33.7022 27.1036
33.7487 27.0158
33.7954 27.0758
33.842 26.8895
33.8887 26.8443
33.9353 26.6838
33.982 26.6426
34.0286 26.6033
34.0753 26.4276
34.1219 26.5189
34.1687 26.2962
34.2152 26.2346
34.262 26.1695
34.3086 26.0312
34.3554 26.0133
34.402 25.8266
34.4488 25.825
34.4954 25.716
34.5422 25.685
34.5889 25.5057
34.6357 25.4452
34.6825 25.4059
34.7292 25.2882
34.776 25.1987
34.8227 25.1563
34.8695 25.1
34.9162 25.0508
34.9631 24.9299
35.0098 24.9721
35.0566 24.8087
35.1033 24.7558
35.1502 24.7262
35.1969 24.6461
35.2438 24.6746
35.2906 24.5261
35.3375 24.5401
35.3842 24.4102
35.4311 24.3883
35.4779 24.3532
35.5248 24.3307
35.5716 24.2015
35.6185 24.0905
35.6653 24.086
35.7123 23.9861
35.759 23.9039
35.806 23.7956
35.8528 23.6853
35.8998 23.6076
35.9468 23.583
35.9936 23.4556
36.0406 23.4727
36.0874 23.3976
36.1345 23.2958
36.1813 23.2235
36.2283 23.1345
36.2752 23.0728
36.3222 23.1529
36.3691 22.9247
36.4161 22.8087
36.463 22.8571
36.5101 22.8657
36.557 22.7176
36.6041 22.5914
36.651 22.5729
36.6981 22.4442
36.745 22.434
36.7921 22.3814
36.839 22.3126
36.8861 22.226
36.9331 22.1133
36.9802 22.0431
37.0272 21.938
37.0743 21.8986
37.1213 21.8356
37.1684 21.7982
37.2154 21.7793
37.2626 21.6239
37.3098 21.6137
37.3568 21.545
37.404 21.5014
37.451 21.3956
37.4982 21.373
37.5452 21.2142
37.5924 21.1854
37.6395 21.2069
37.6867 21.1006
37.7337 21.0245
37.781 20.8924
37.8281 20.8861
37.8753 20.7854
37.9224 20.6637
37.9697 20.6615
38.0168 20.6157
38.064 20.5052
38.1111 20.4677
38.1584 20.4342
38.2056 20.3263
38.2529 20.2442
38.3 20.1652
38.3473 20.1513
38.3945 20.068
38.4418 20.0459
38.489 19.9235
38.5363 19.8458
38.5837 19.7782
38.6309 19.7442
38.6782 19.6719
38.7254 19.6305
38.7728 19.6161
38.82 19.525
38.8674 19.4695
38.9146 19.4008
38.9621 19.2959
39.0093 19.3248
39.0567 19.2913
39.104 19.1701
39.1514 19.0783
39.1987 19.0882
39.2461 18.9912
39.2934 18.9331
39.3409 18.7805
39.3882 18.766
39.4356 18.7537
39.483 18.6513
39.5304 18.6106
39.5778 18.5227
39.6253 18.5099
39.6726 18.4024
39.7201 18.4094
39.7675 18.3329
39.815 18.3079
39.8624 18.1969
39.9099 18.1781
39.9575 18.0813
40.0049 18.0699
40.0525 17.9092
40.0999 17.9644
40.1474 17.8705
40.1949 17.8233
40.2425 17.737
40.2899 17.648
40.3375 17.6093
40.385 17.5937
40.4326 17.5834
40.48 17.4372
40.5277 17.3983
40.5752 17.3967
40.6228 17.261
40.6703 17.2509
40.718 17.2397
40.7655 17.1556
40.8132 17.0719
40.8607 17.0075
40.9084 17.038
40.9559 16.9089
41.0036 16.8685
41.0512 16.8094
41.0989 16.803
41.1465 16.6662
41.1942 16.7069
41.242 16.5261
41.2896 16.5169
41.3373 16.4645
41.3849 16.3435
41.4327 16.3907
41.4803 16.259
41.5281 16.289
41.5758 16.2173
41.6236 16.1552
41.6712 16.0539
41.7191 16.0404
41.7667 16.0273
41.8146 15.9543
41.8622 15.8629
41.9101 15.8252
41.9578 15.6882
42.0057 15.7506
42.0534 15.6658
42.1013 15.6485
42.149 15.5186
42.1969 15.4703
42.2446 15.5138
42.2925 15.4543
42.3403 15.3648
42.3882 15.3706
42.436 15.2423
42.4839 15.1669
42.5319 15.1727
42.5797 15.1219
42.6277 15.0522
42.6755 14.9676
42.7235 14.9189
42.7713 14.932
42.8193 14.8472
42.8671 14.8215
42.9152 14.713
42.963 14.645
43.0111 14.6597
43.0589 14.6069
43.107 14.5088
43.1549 14.4699
43.2029 14.4778
43.2508 14.4536
43.2989 14.2576
43.3468 14.299
43.3949 14.2753
43.4429 14.1729
43.491 14.1505
43.5389 14.1159
43.5871 14.0219
43.635 13.963
43.6832 13.96
43.7312 13.9011
43.7793 13.8501
43.8273 13.8327
43.8755 13.7102
43.9237 13.6909
43.9717 13.6619
44.0199 13.6372
44.068 13.584
44.1162 13.554
44.1642 13.4962
44.2125 13.4562
44.2606 13.3563
44.3088 13.3331
44.3569 13.2842
44.4052 13.2584
44.4533 13.1449
44.5016 13.1242
44.5497 13.1295
44.598 13.0289
44.6461 13.004
44.6945 12.9874
44.7426 12.9465
44.791 12.854
44.8391 12.8478
44.8875 12.7914
44.9357 12.7434
44.984 12.688
45.0322 12.6473
45.0806 12.5768
45.1288 12.577
45.1773 12.5051
45.2257 12.4939
45.2739 12.3912
45.3224 12.3806
45.3706 12.3566
45.4191 12.2578
45.4673 12.2479
45.5158 12.2298
45.5641 12.14
45.6126 12.1205
45.6609 12.0639
45.7094 12.0424
45.7577 11.9764
45.8063 11.9104
45.8546 11.9654
45.9031 11.8514
45.9515 11.8675
46.0001 11.7436
46.0484 11.7199
46.097 11.7011
46.1454 11.6413
46.194 11.6332
46.2424 11.5827
46.291 11.5003
46.3395 11.5041
46.3881 11.4465
46.4365 11.4286
46.4852 11.3383
46.5337 11.3248
46.5823 11.2722
46.631 11.2409
46.6795 11.2297
46.7282 11.1367
46.7767 11.1087
46.8254 11.073
46.8739 11.0591
46.9226 10.9894
46.9712 10.9812
47.0199 10.9052
47.0685 10.8838
47.1173 10.8305
47.1658 10.8072
47.2146 10.7227
47.2632 10.7216
47.312 10.6802
47.3606 10.6538
47.4095 10.5797
47.4581 10.5773
47.5069 10.4915
47.5556 10.4164
47.6044 10.431
47.6531 10.3895
47.702 10.3795
47.7507 10.3362
47.7996 10.2918
47.8483 10.2568
47.8972 10.1931
47.9461 10.1567
47.9948 10.1334
48.0438 10.0742
48.0925 10.0819
48.1415 10.0758
48.1902 10.0023
48.2392 9.9533
48.288 9.92839
48.337 9.90716
48.3858 9.865
48.4348 9.8113
48.4837 9.76521
48.5327 9.74283
48.5815 9.71692
48.6306 9.69681
48.6795 9.67018
48.7285 9.5787
48.7774 9.58119
48.8265 9.54527
48.8754 9.51157
48.9245 9.46033
48.9734 9.40657
49.0226 9.39587
49.0715 9.34316
49.1206 9.32283
49.1696 9.29268
49.2188 9.25623
49.2679 9.2236
49.3169 9.16797
49.3661 9.14455
49.4151 9.08925
49.4643 9.0805
49.5134 9.05352
49.5626 9.00539
49.6117 9.00061
49.6609 8.93024
49.71 8.88041
49.7592 8.86276
49.8083 8.83068
49.8576 8.82375
49.9067 8.73768
49.956 8.72756
50.0052 8.69678
50.0545 8.67576
50.1036 8.64556
50.153 8.62506
50.2022 8.53466
50.2515 8.54556
50.3007 8.46817
50.3501 8.44087
50.3993 8.39416
50.4487 8.40474
50.498 8.38662
50.5474 8.33132
50.5966 8.26431
50.6461 8.24623
50.6955 8.25035
50.7448 8.22955
50.7943 8.18783
50.8436 8.17788
50.8931 8.12175
50.9424 8.06325
50.9919 8.06253
51.0413 8.03386
51.0908 7.98714
51.1402 7.95796
51.1897 7.95416
51.2391 7.90064
51.2887 7.89486
51.3381 7.8326
51.3877 7.79241
51.4371 7.7458
51.4867 7.74156
51.5362 7.68664
51.5858 7.65945
51.6353 7.61771
51.6849 7.58923
51.7344 7.53938
51.7841 7.53933
51.8336 7.54145
51.8833 7.44085
51.9328 7.41753
51.9826 7.42911
52.0323 7.38281
52.0818 7.35722
52.1316 7.31036
52.1812 7.30006
52.231 7.26209
52.2806 7.23853
52.3304 7.2014
52.38 7.18987
52.4298 7.11597
52.4794 7.08221
52.5293 7.08674
52.5789 7.06377
52.6288 7.04163
52.6785 6.95138
52.7284 6.95121
52.7781 6.95295
52.828 6.90122
52.8777 6.88059
52.9276 6.84227
52.9774 6.79569
53.0273 6.76401
53.0771 6.76158
53.1271 6.71977
53.1769 6.7053
53.2269 6.69145
53.2767 6.63381
53.3267 6.62468
53.3765 6.6121
53.4266 6.5584
53.4766 6.55413
53.5265 6.49704
53.5765 6.46229
53.6264 6.46897
53.6765 6.42533
53.7264 6.39589
53.7765 6.37302
53.8265 6.32788
53.8766 6.33568
53.9266 6.24719
53.9767 6.2545
54.0267 6.20477
54.0769 6.23459
54.1269 6.15897
54.1771 6.1365
54.2271 6.14939
54.2773 6.05026
54.3274 6.04343
54.3776 6.0117
54.4277 5.94272
54.478 5.95639
54.528 5.8933
54.5783 5.89656
54.6285 5.81546
54.6788 5.77659
54.7289 5.73996
54.7792 5.71943
54.8296 5.63797
54.8798 5.62303
54.9301 5.61204
54.9803 5.56021
55.0307 5.5505
55.0809 5.48875
55.1314 5.42413
55.1816 5.39718
55.232 5.34835
55.2823 5.29837
55.3328 5.2207
55.383 5.17962
55.4335 5.16347
55.4838 5.08746
55.5344 5.07432
55.5847 4.9881
55.6352 5.03544
55.6856 4.95372
55.7361 4.93122