File: XRD/Ni3Fe_FD0740.xy
TT I
1.27165 7.56012
1.31627 6.70704
1.36089 6.83643
1.40551 6.2032
1.45013 6.41972
1.49476 6.06371
1.53938 6.05258
1.584 5.52512
1.62863 5.32296
1.67325 4.88783
1.71787 5.20197
1.7625 4.58006
1.80712 5.43505
1.85174 4.98095
1.89636 4.88022
1.94099 4.84056
1.98562 4.1894
2.03025 5.17472
2.07487 4.45133
2.11949 5.05315
2.16411 5.44014
2.20874 14.0868
2.25338 22.8131
2.298 6.35163
2.34263 5.60867
2.38725 6.13241
2.43188 6.7955
2.4765 7.32684
2.52115 7.65508
2.56577 8.03607
2.6104 8.38907
2.65503 7.32382
2.69965 8.5133
2.7443 8.28774
2.78893 7.7716
2.83356 8.49414
2.87818 8.68658
2.92281 9.26244
2.96744 9.33481
3.01209 10.4629
3.05672 11.1195
3.10135 12.4755
3.14599 12.9811
3.19062 14.2216
3.23527 15.1142
3.2799 15.9675
3.32454 16.7861
3.36917 17.5718
3.4138 18.8691
3.45844 19.995
3.50309 20.823
3.54773 21.9196
3.59237 23.9488
3.637 92.6385
3.68164 59.0227
3.7263 26.6913
3.77094 26.37
3.81558 26.3898
3.86022 27.3408
3.90486 28.9621
3.9495 29.6024
3.99416 30.7064
4.0388 32.5697
4.08344 33.2585
4.12809 34.9164
4.17273 36.7864
4.21738 42.7611
4.26204 248.889
4.30669 220.722
4.35133 48.6062
4.39598 44.5872
4.44063 54.2331
4.4853 65.6096
4.52995 49.8527
4.5746 51.067
4.61925 52.9429
4.6639 55.2272
4.70855 57.4943
4.75322 60.2538
4.79788 63.1434
4.84253 66.6175
4.88719 70.8874
4.93184 73.9992
4.97652 79.5706
5.02118 85.8874
5.06583 93.7201
5.11049 104.49
5.15515 169.236
5.19981 318.93
5.24449 2651.03
5.28916 12706.3
5.33382 2908.6
5.37848 185.428
5.42315 127.873
5.46783 112.457
5.5125 105.452
5.55716 101.636
5.60183 98.1682
5.6465 96.2975
5.69117 93.5605
5.73586 91.3037
5.78053 90.4493
5.8252 89.9303
5.86988 91.0054
5.91455 92.5471
5.95924 99.8798
6.00392 187.859
6.0486 892.268
6.09328 4575.71
6.13795 3218.65
6.18263 242.445
6.22733 92.6754
6.27201 82.8173
6.3167 101.408
6.36138 80.43
6.40606 68.8026
6.45075 66.6886
6.49545 65.0883
6.54014 63.2548
6.58483 62.868
6.62952 62.8379
6.67421 93.2859
6.71892 143.828
6.76361 68.8886
6.8083 58.5553
6.853 57.1378
6.89769 56.5375
6.94239 56.3752
6.98711 55.4416
7.03181 55.2326
7.07651 54.7754
7.12121 54.9975
7.16591 54.835
7.21063 55.2213
7.25533 69.8207
7.30004 178.799
7.34475 91.2551
7.38945 56.4667
7.43416 54.3325
7.47889 54.4146
7.5236 54.5174
7.56831 55.1766
7.61303 56.7456
7.65774 57.123
7.70247 56.0034
7.74719 56.0218
7.79191 56.5834
7.83663 56.6132
7.88135 57.7018
7.92607 58.2037
7.97081 59.4071
8.01553 60.4515
8.06026 62.2374
8.10498 63.7428
8.14971 72.897
8.19446 72.0034
8.23919 69.286
8.28392 71.402
8.32865 73.4484
8.37339 77.9167
8.41812 84.3743
8.46288 112.323
8.50761 153.665
8.55235 364.661
8.59709 1162.49
8.64183 2169.15
8.68658 1000.58
8.73134 164.719
8.77609 99.0323
8.82083 92.1041
8.86558 89.0456
8.91033 89.5607
8.9551 90.9351
8.99985 85.2679
9.04461 83.0502
9.08936 82.1972
9.13412 81.6178
9.17888 81.6419
9.22365 81.976
9.26841 81.3557
9.31318 82.0007
9.35794 82.2432
9.4027 82.6899
9.44749 83.4369
9.49226 83.9697
9.53703 85.3285
9.5818 86.8268
9.62657 91.2734
9.67134 97.761
9.71614 93.0673
9.76091 93.537
9.80569 95.5454
9.85047 99.1403
9.89525 122.975
9.94005 134.399
9.98484 164.006
10.0296 321.025
10.0744 792.233
10.1192 1774.14
10.164 1653.87
10.2088 415.974
10.2536 126.8
10.2984 112.91
10.3432 114.336
10.388 103.883
10.4328 114.828
10.4776 154.317
10.5224 275.097
10.5672 516.997
10.612 517.498
10.6568 209.2
10.7017 96.9483
10.7465 85.7588
10.7913 82.6101
10.8361 80.5394
10.8809 78.3071
10.9257 77.9406
10.9706 78.346
11.0154 74.5182
11.0602 72.1081
11.105 71.662
11.1499 75.9436
11.1947 82.9972
11.2395 74.1109
11.2844 69.9074
11.3292 66.696
11.374 65.6352
11.4189 65.2636
11.4637 64.6909
11.5086 65.1683
11.5534 68.2942
11.5983 65.3308
11.6431 63.4521
11.688 62.6334
11.7328 62.587
11.7777 62.5091
11.8225 62.299
11.8674 61.9024
11.9122 62.4495
11.9571 62.6265
12.002 62.9094
12.0468 66.4407
12.0917 77.0946
12.1366 100.597
12.1814 151.446
12.2263 201.654
12.2712 166.468
12.3161 98.9199
12.3609 70.2689
12.4058 64.3893
12.4507 63.9022
12.4956 64.107
12.5405 64.3478
12.5853 65.244
12.6302 72.7909
12.6751 78.4246
12.72 69.5219
12.7649 67.1917
12.8098 67.9548
12.8547 69.1595
12.8996 70.4704
12.9445 71.4692
12.9894 73.5685
13.0343 75.3109
13.0792 78.0505
13.1242 85.5882
13.1691 107.807
13.214 143.524
13.2589 234.86
13.3038 369.649
13.3487 415.041
13.3937 266.52
13.4386 126.608
13.4835 103.206
13.5285 116.45
13.5734 153.725
13.6183 245.1
13.6633 347.455
13.7082 338.065
13.7531 187.504
13.7981 97.4215
13.843 81.2303
13.888 79.2256
13.9329 76.6394
13.9779 75.4105
14.0228 73.7262
14.0678 72.3246
14.1127 72.1466
14.1577 71.7304
14.2027 70.917
14.2476 69.7098
14.2926 70.3268
14.3376 71.2616
14.3825 69.8607
14.4275 68.441
14.4725 68.1415
14.5175 68.1107
14.5624 68.58
14.6074 70.6077
14.6524 71.1088
14.6974 69.8103
14.7424 71.0094
14.7874 76.7767
14.8324 86.2811
14.8774 108.282
14.9224 151.826
14.9674 206.095
15.0124 216.446
15.0574 151.54
15.1024 91.7635
15.1474 71.9723
15.1924 70.1557
15.2374 70.7185
15.2824 69.9284
15.3274 67.7068
15.3725 66.5136
15.4175 65.8972
15.4625 65.7229
15.5076 65.679
15.5526 65.7433
15.5976 65.3942
15.6426 65.9169
15.6877 70.711
15.7327 77.9332
15.7778 92.6626
15.8228 125.23
15.8679 171.301
15.9129 193.366
15.958 156.341
16.003 99.1114
16.0481 68.203
16.0931 64.3943
16.1382 62.4498
16.1833 60.4321
16.2283 58.5656
16.2734 58.0189
16.3185 58.374
16.3636 59.0492
16.4086 57.5827
16.4537 55.7913
16.4988 55.2126
16.5439 55.1065
16.589 54.7739
16.6341 54.7073
16.6792 54.0129
16.7243 54.5686
16.7694 54.6782
16.8145 54.427
16.8596 54.8718
16.9047 56.321
16.9498 56.4984
16.9949 55.4671
17.04 55.3126
17.0851 56.4921
17.1302 57.9688
17.1754 61.136
17.2205 66.1166
17.2656 74.1349
17.3108 82.4757
17.3559 82.4121
17.401 70.6486
17.4462 61.9353
17.4913 58.8058
17.5365 58.929
17.5815 58.8031
17.6268 58.9897
17.6718 59.9706
17.7171 60.7027
17.7622 60.8634
17.8074 61.1861
17.8525 63.2946
17.8977 67.2497
17.9428 72.1477
17.9881 81.1
18.0331 98.6083
18.0784 121.413
18.1237 138.585
18.1688 129.906
18.214 102.712
18.2591 86.2289
18.3044 90.2721
18.3495 100.52
18.3948 105.49
18.4399 96.1037
18.4852 77.4975
18.5303 65.8163
18.5756 61.8286
18.6207 60.9484
18.666 59.9852
18.7112 59.4407
18.7565 58.7793
18.8016 58.1654
18.8469 57.6974
18.892 57.2214
18.9374 56.7113
18.9825 56.6375
19.0278 56.4417
19.073 56.5833
19.1183 56.9314
19.1635 57.7317
19.2088 58.9212
19.254 61.6061
19.2993 66.2812
19.3447 72.3692
19.3898 76.2865
19.4352 71.8358
19.4804 63.217
19.5257 56.4997
19.5709 54.0092
19.6163 53.4117
19.6615 53.3819
19.7068 53.0355
19.752 52.9165
19.7974 53.0806
19.8426 54.0382
19.888 54.6835
19.9332 55.7821
19.9786 58.3071
20.0238 61.9856
20.0692 67.0237
20.1144 69.2306
20.1598 67.6332
20.205 63.1457
20.2504 61.9362
20.2957 63.5156
20.3411 65.4594
20.3863 63.6141
20.4318 58.322
20.477 53.7018
20.5224 51.5107
20.5677 50.8393
20.6131 49.9657
20.6586 49.3634
20.7038 49.1804
20.7493 48.6297
20.7945 48.7223
20.84 48.5581
20.8853 48.3512
20.9307 48.2176
20.976 48.3715
21.0215 48.2714
21.0668 48.687
21.1122 49.0871
21.1575 49.6748
21.203 50.591
21.2483 51.0738
21.2938 51.3892
21.3391 49.9355
21.3846 48.7285
21.4299 48.1597
21.4754 48.0987
21.5207 48.1376
21.5662 48.4255
21.6116 48.9348
21.6571 49.4329
21.7024 50.3375
21.7479 52.0224
21.7933 54.8919
21.8388 58.493
21.8843 62.2511
21.9297 64.2597
21.9752 63.1053
22.0206 59.5941
22.0661 56.4152
22.1115 55.7539
22.157 55.5378
22.2024 54.0157
22.248 51.1192
22.2933 49.9623
22.3389 48.83
22.3843 48.6293
22.4299 48.6352
22.4753 48.6172
22.5208 48.43
22.5662 48.15
22.6118 48.3591
22.6572 48.5073
22.7028 48.783
22.7483 49.287
22.7939 49.9244
22.8393 51.6297
22.8849 53.7277
22.9303 55.8125
22.9759 57.4852
23.0214 56.9257
23.067 54.2195
23.1126 51.0672
23.1581 49.0867
23.2037 48.4245
23.2492 48.5556
23.2948 48.426
23.3403 48.8119
23.3859 49.2002
23.4314 50.5185
23.477 52.3374
23.5225 54.6796
23.5682 56.8747
23.6137 57.6912
23.6593 55.3249
23.7048 51.319
23.7505 48.19
23.796 46.5068
23.8417 45.6887
23.8872 45.3258
23.9329 44.9874
23.9784 44.7252
24.0241 44.3849
24.0697 44.1844
24.1154 43.8516
24.1609 43.7076
24.2066 43.6421
24.2522 43.5039
24.2979 43.1933
24.3434 42.9998
24.3892 42.8953
24.4349 42.891
24.4805 42.7012
24.5262 42.8719
24.5718 42.7422
24.6175 42.7437
24.6631 42.6788
24.7089 42.2146
24.7545 42.2213
24.8002 41.9059
24.8458 41.9381
24.8916 41.7162
24.9372 41.9194
24.983 42.2385
25.0286 42.5013
25.0744 43.1124
25.12 43.4394
25.1658 44.2496
25.2114 44.5537
25.2572 44.5804
25.3029 44.6248
25.3487 44.5866
25.3943 44.3513
25.4402 43.3747
25.4858 42.3776
25.5316 41.2899
25.5773 40.6796
25.6231 40.8067
25.669 40.3382
25.7147 40.3102
25.7605 40.2334
25.8062 40.2896
25.8521 40.3313
25.8977 40.401
25.9436 40.635
25.9893 40.6973
26.0352 41.1843
26.0809 41.2653
26.1268 41.358
26.1725 41.0475
26.2184 40.6143
26.2641 40.0859
26.31 39.9007
26.3557 39.8398
26.4017 39.9463
26.4474 40.2128
26.4933 40.5569
26.5391 41.0544
26.585 41.5611
26.6308 41.8664
26.6767 41.8189
26.7225 41.7239
26.7684 41.2331
26.8142 40.7172
26.8601 40.3793
26.9059 39.7426
26.9519 39.2988
26.9979 38.9509
27.0437 38.7085
27.0896 38.6045
27.1354 38.5703
27.1814 38.3229
27.2272 38.3106
27.2732 38.3565
27.3191 38.0608
27.3651 38.2173
27.4109 38.1938
27.4569 38.2069
27.5027 38.4515
27.5488 38.3968
27.5946 38.2292
27.6407 37.9894
27.6865 37.9458
27.7326 37.766
27.7784 37.656
27.8245 37.5999
27.8703 37.7281
27.9164 37.9224
27.9623 38.2523
28.0084 38.527
28.0543 38.9081
28.1003 38.9488
28.1462 38.5785
28.1923 38.2067
28.2384 37.7553
28.2843 37.4951
28.3304 36.9721
28.3764 36.5148
28.4225 36.2629
28.4684 36.1035
28.5145 35.8098
28.5605 35.6337
28.6066 35.4914
28.6526 35.4062
28.6987 35.4493
28.7447 35.4355
28.7908 35.1876
28.8368 35.1879
28.8829 35.1959
28.9289 35.2118
28.9751 34.8764
29.0211 34.6927
29.0673 34.5284
29.1133 34.3946
29.1595 34.2383
29.2055 34.1858
29.2517 34.1118
29.2977 34.1154
29.3439 34.0602
29.3899 34.064
29.4361 34.0259
29.4824 33.8121
29.5284 33.5305
29.5746 33.2454
29.6207 32.9745
29.6669 32.9695
29.713 32.825
29.7593 32.6231
29.8053 32.7396
29.8516 32.687
29.8977 32.5186
29.9439 32.3881
29.99 32.4632
30.0363 32.3144
30.0824 32.3747
30.1287 32.2484
30.1748 32.3444
30.2211 32.2553
30.2673 32.0101
30.3136 32.1465
30.3597 32.0342
30.406 31.9829
30.4522 31.8812
30.4985 31.9335
30.5447 31.9948
30.591 31.8644
30.6372 32.1095
30.6835 32.0076
30.7297 32.0161
30.7761 31.9551
30.8224 31.8361
30.8686 31.647
30.915 31.419
30.9612 31.3613
31.0076 31.1119
31.0538 30.9093
31.1002 30.9542
31.1464 30.8682
31.1928 30.8002
31.2391 30.8731
31.2855 30.6623
31.3317 30.7362
31.3781 30.7928
31.4244 30.7097
31.4708 30.5778
31.5171 30.5959
31.5636 30.6414
31.6098 30.3509
31.6563 30.2023
31.7026 30.1129
31.7491 29.995
31.7953 30.0019
31.8418 29.9854
31.8881 29.9877
31.9346 30.0551
31.9809 29.8501
32.0275 29.7429
32.074 29.6056
32.1203 29.4227
32.1668 29.3998
32.2132 29.2352
32.2597 29.0737
32.306 29.1006
32.3526 28.8394
32.399 28.8141
32.4455 28.5886
32.4919 28.5422
32.5385 28.5835
32.5848 28.4008
32.6314 28.4417
32.6778 28.3619
32.7244 28.2124
32.7708 28.0322
32.8174 28.0122
32.8638 27.9257
32.9104 27.9404
32.9569 27.7913
33.0035 27.6868
33.0499 27.7303
33.0966 27.6915
33.143 27.7099
33.1897 27.5184
33.2361 27.4345
33.2828 27.3977
33.3293 27.2544
33.3759 27.3026
33.4226 27.0602
33.4691 26.8827
33.5158 26.9639
33.5623 26.7629
33.609 26.5777
33.6555 26.563
33.7022 26.4589
33.7487 26.3288
33.7954 26.3847
33.842 26.231
33.8887 26.242
33.9353 26.0589
33.982 26.018
34.0286 25.8949
34.0753 25.9059
34.1219 25.7513
34.1687 25.7233
34.2152 25.7475
34.262 25.5905
34.3086 25.4339
34.3554 25.424
34.402 25.1597
34.4488 25.0979
34.4954 25.117
34.5422 25.047
34.5889 25.0214
34.6357 24.8378
34.6825 24.8033
34.7292 24.7547
34.776 24.6237
34.8227 24.6074
34.8695 24.5291
34.9162 24.4733
34.9631 24.408
35.0098 24.3698
35.0566 24.3148
35.1033 24.1298
35.1502 24.1271
35.1969 24.1309
35.2438 24.0296
35.2906 23.9551
35.3375 23.9408
35.3842 23.8585
35.4311 23.8322
35.4779 23.8479
35.5248 23.7115
35.5716 23.7092
35.6185 23.6404
35.6653 23.5541
35.7123 23.4435
35.759 23.3462
35.806 23.2015
35.8528 23.1051
35.8998 23.0245
35.9468 22.9479
35.9936 22.9767
36.0406 22.9136
36.0874 22.8452
36.1345 22.8543
36.1813 22.6645
36.2283 22.6343
36.2752 22.5268
36.3222 22.5541
36.3691 22.553
36.4161 22.38
36.463 22.3252
36.5101 22.263
36.557 22.2057
36.6041 22.0612
36.651 21.9629
36.6981 22.0454
36.745 21.9518
36.7921 21.9091
36.839 21.7599
36.8861 21.671
36.9331 21.6919
36.9802 21.5725
37.0272 21.4305
37.0743 21.4603
37.1213 21.3892
37.1684 21.2946
37.2154 21.2362
37.2626 21.2044
37.3098 21.0727
37.3568 21.0473
37.404 20.9836
37.451 20.8878
37.4982 20.8212
37.5452 20.7343
37.5924 20.6596
37.6395 20.7319
37.6867 20.5963
37.7337 20.5316
37.781 20.4245
37.8281 20.4127
37.8753 20.2111
37.9224 20.2561
37.9697 20.1761
38.0168 20.1511
38.064 20.0445
38.1111 19.9826
38.1584 19.9601
38.2056 19.8343
38.2529 19.8105
38.3 19.7353
38.3473 19.7285
38.3945 19.5617
38.4418 19.537
38.489 19.5488
38.5363 19.4767
38.5837 19.4031
38.6309 19.3697
38.6782 19.2479
38.7254 19.1231
38.7728 19.1526
38.82 19.0352
38.8674 18.955
38.9146 18.9131
38.9621 18.8951
39.0093 18.9081
39.0567 18.7583
39.104 18.8126
39.1514 18.6032
39.1987 18.5969
39.2461 18.5458
39.2934 18.4552
39.3409 18.4381
39.3882 18.3455
39.4356 18.2996
39.483 18.2171
39.5304 18.1697
39.5778 18.1552
39.6253 18.0439
39.6726 18.0177
39.7201 17.9747
39.7675 17.9592
39.815 17.8631
39.8624 17.7341
39.9099 17.7792
39.9575 17.6713
40.0049 17.6117
40.0525 17.5781
40.0999 17.5467
40.1474 17.4555
40.1949 17.3786
40.2425 17.3213
40.2899 17.2866
40.3375 17.2872
40.385 17.1614
40.4326 17.0982
40.48 17.0664
40.5277 17.0595
40.5752 16.9705
40.6228 16.8832
40.6703 16.8353
40.718 16.7946
40.7655 16.7943
40.8132 16.6837
40.8607 16.6227
40.9084 16.5812
40.9559 16.5141
41.0036 16.4758
41.0512 16.4391
41.0989 16.4452
41.1465 16.31
41.1942 16.3332
41.242 16.1966
41.2896 16.1666
41.3373 16.1193
41.3849 16.0977
41.4327 16.0484
41.4803 15.8409
41.5281 15.8872
41.5758 15.8124
41.6236 15.7482
41.6712 15.7285
41.7191 15.6892
41.7667 15.6043
41.8146 15.6067
41.8622 15.4779
41.9101 15.463
41.9578 15.3948
42.0057 15.3184
42.0534 15.2996
42.1013 15.3191
42.149 15.1682
42.1969 15.1711
42.2446 15.0993
42.2925 15.1424
42.3403 14.9455
42.3882 14.9043
42.436 14.9674
42.4839 14.8511
42.5319 14.8197
42.5797 14.7478
42.6277 14.6608
42.6755 14.6826
42.7235 14.5853
42.7713 14.5879
42.8193 14.5484
42.8671 14.4416
42.9152 14.3993
42.963 14.3473
43.0111 14.2609
43.0589 14.2733
43.107 14.2166
43.1549 14.1723
43.2029 14.1094
43.2508 14.0996
43.2989 14.0111
43.3468 13.9743
43.3949 13.9265
43.4429 13.8592
43.491 13.7925
43.5389 13.8102
43.5871 13.7445
43.635 13.6597
43.6832 13.6195
43.7312 13.6124
43.7793 13.5451
43.8273 13.5177
43.8755 13.3992
43.9237 13.4143
43.9717 13.3332
44.0199 13.2916
44.068 13.2647
44.1162 13.2246
44.1642 13.2504
44.2125 13.1221
44.2606 13.099
44.3088 13.0606
44.3569 12.973
44.4052 13.0155
44.4533 12.9082
44.5016 12.8319
44.5497 12.7896
44.598 12.7805
44.6461 12.7698
44.6945 12.6709
44.7426 12.6335
44.791 12.5522
44.8391 12.534
44.8875 12.51
44.9357 12.429
44.984 12.4329
45.0322 12.3261
45.0806 12.3218
45.1288 12.2897
45.1773 12.2412
45.2257 12.2533
45.2739 12.1566
45.3224 12.1414
45.3706 12.0601
45.4191 11.9791
45.4673 11.9885
45.5158 11.8989
45.5641 11.8885
45.6126 11.8647
45.6609 11.7776
45.7094 11.7773
45.7577 11.7179
45.8063 11.6489
45.8546 11.6551
45.9031 11.6003
45.9515 11.5613
46.0001 11.5115
46.0484 11.4748
46.097 11.4402
46.1454 11.411
46.194 11.3466
46.2424 11.3166
46.291 11.2781
46.3395 11.2223
46.3881 11.1795
46.4365 11.1499
46.4852 11.1039
46.5337 11.073
46.5823 11.0421
46.631 10.9559
46.6795 10.9833
46.7282 10.9215
46.7767 10.8467
46.8254 10.8197
46.8739 10.7963
46.9226 10.7149
46.9712 10.6772
47.0199 10.6631
47.0685 10.6382
47.1173 10.6114
47.1658 10.5285
47.2146 10.5336
47.2632 10.4657
47.312 10.4581
47.3606 10.4063
47.4095 10.3569
47.4581 10.3274
47.5069 10.2625
47.5556 10.2296
47.6044 10.1636
47.6531 10.193
47.702 10.1132
47.7507 10.0908
47.7996 10.0502
47.8483 9.99356
47.8972 9.98281
47.9461 9.94677
47.9948 9.86618
48.0438 9.8527
48.0925 9.82328
48.1415 9.79758
48.1902 9.74094
48.2392 9.74438
48.288 9.69674
48.337 9.66379
48.3858 9.61241
48.4348 9.60335
48.4837 9.57648
48.5327 9.54743
48.5815 9.50049
48.6306 9.49232
48.6795 9.45597
48.7285 9.38838
48.7774 9.35331
48.8265 9.32935
48.8754 9.24454
48.9245 9.27829
48.9734 9.24317
49.0226 9.20552
49.0715 9.15022
49.1206 9.10766
49.1696 9.05227
49.2188 9.06107
49.2679 9.00629
49.3169 8.9421
49.3661 8.96824
49.4151 8.90015
49.4643 8.83745
49.5134 8.83913
49.5626 8.76487
49.6117 8.74786
49.6609 8.70387
49.71 8.66201
49.7592 8.63766
49.8083 8.60666
49.8576 8.61145
49.9067 8.59011
49.956 8.52882
50.0052 8.49009
50.0545 8.45886
50.1036 8.43836
50.153 8.4155
50.2022 8.37089
50.2515 8.35365
50.3007 8.28121
50.3501 8.26162
50.3993 8.27054
50.4487 8.18621
50.498 8.19001
50.5474 8.16548
50.5966 8.12319
50.6461 8.12145
50.6955 8.04053
50.7448 8.00652
50.7943 8.02563
50.8436 7.95218
50.8931 7.94634
50.9424 7.90867
50.9919 7.85474
51.0413 7.83993
51.0908 7.81567
51.1402 7.78506
51.1897 7.73487
51.2391 7.70879
51.2887 7.69438
51.3381 7.63739
51.3877 7.64566
51.4371 7.58093
51.4867 7.5303
51.5362 7.50535
51.5858 7.49532
51.6353 7.43311
51.6849 7.42152
51.7344 7.41616
51.7841 7.39261
51.8336 7.35547
51.8833 7.2533
51.9328 7.27397
51.9826 7.24118
52.0323 7.20745
52.0818 7.21143
52.1316 7.15923
52.1812 7.15001
52.231 7.1081
52.2806 7.07595
52.3304 7.04984
52.38 6.97454
52.4298 6.95424
52.4794 6.94935
52.5293 6.93478
52.5789 6.86322
52.6288 6.85538
52.6785 6.82568
52.7284 6.80996
52.7781 6.80636
52.828 6.74943
52.8777 6.73846
52.9276 6.70363
52.9774 6.63358
53.0273 6.66184
53.0771 6.6024
53.1271 6.61263
53.1769 6.55937
53.2269 6.51033
53.2767 6.50915
53.3267 6.47481
53.3765 6.45947
53.4266 6.42689
53.4766 6.39208
53.5265 6.39106
53.5765 6.33345
53.6264 6.35298
53.6765 6.33182
53.7264 6.28385
53.7765 6.23909
53.8265 6.19612
53.8766 6.19817
53.9266 6.14633
53.9767 6.1239
54.0267 6.09514
54.0769 6.07107
54.1269 6.0088
54.1771 5.97379
54.2271 5.95649
54.2773 5.95862
54.3274 5.90948
54.3776 5.87104
54.4277 5.85607
54.478 5.78416
54.528 5.83306
54.5783 5.7114
54.6285 5.70241
54.6788 5.64884
54.7289 5.66504
54.7792 5.54024
54.8296 5.4925
54.8798 5.46366
54.9301 5.43634
54.9803 5.47836
55.0307 5.36987
55.0809 5.2946
55.1314 5.30571
55.1816 5.2403
55.232 5.18633
55.2823 5.20517
55.3328 5.12963
55.383 5.09284
55.4335 5.0134
55.4838 4.92981
55.5344 4.93695
55.5847 4.89008
55.6352 4.90522
55.6856 4.86651
55.7361 4.80333