File: XRD/Ni3Fe_FD0900.xy
TT I
1.27165 7.46174
1.31627 7.11297
1.36089 6.68693
1.40551 5.60993
1.45013 5.98013
1.49476 6.15213
1.53938 6.00862
1.584 5.11823
1.62863 5.43156
1.67325 5.21032
1.71787 5.15039
1.7625 4.89678
1.80712 4.96761
1.85174 4.55112
1.89636 5.2453
1.94099 5.0159
1.98562 4.6034
2.03025 4.44875
2.07487 4.12691
2.11949 5.44646
2.16411 4.95813
2.20874 11.6344
2.25338 16.9203
2.298 6.15166
2.34263 5.52267
2.38725 6.65793
2.43188 6.48078
2.4765 6.84468
2.52115 7.07669
2.56577 7.76482
2.6104 8.63579
2.65503 8.32461
2.69965 8.65525
2.7443 9.02399
2.78893 8.41949
2.83356 8.65938
2.87818 9.16602
2.92281 9.51473
2.96744 10.5052
3.01209 10.7139
3.05672 11.4414
3.10135 12.6403
3.14599 12.6293
3.19062 14.0014
3.23527 15.2783
3.2799 15.8225
3.32454 16.8264
3.36917 17.4614
3.4138 18.9454
3.45844 19.5831
3.50309 20.5876
3.54773 21.4504
3.59237 23.5586
3.637 71.8846
3.68164 48.1193
3.7263 25.5849
3.77094 25.9815
3.81558 26.2392
3.86022 27.6825
3.90486 28.2088
3.9495 29.5245
3.99416 30.4629
4.0388 31.785
4.08344 32.9751
4.12809 33.7436
4.17273 36.1177
4.21738 40.3643
4.26204 186.274
4.30669 165.229
4.35133 46.2706
4.39598 43.786
4.44063 51.5093
4.4853 59.7937
4.52995 50.2197
4.5746 50.793
4.61925 52.6314
4.6639 54.8866
4.70855 57.5667
4.75322 59.8494
4.79788 63.3181
4.84253 66.3643
4.88719 70.6249
4.93184 73.9661
4.97652 78.6333
5.02118 85.2688
5.06583 93.0899
5.11049 102.902
5.15515 156.394
5.19981 324.851
5.24449 2661.69
5.28916 13733.5
5.33382 2571.3
5.37848 170.919
5.42315 123.394
5.46783 110.437
5.5125 104.175
5.55716 99.5121
5.60183 96.1676
5.6465 94.9543
5.69117 92.6338
5.73586 90.9102
5.78053 90.4057
5.8252 90.3936
5.86988 90.4733
5.91455 92.0797
5.95924 99.8217
6.00392 197.42
6.0486 889.748
6.09328 4559.7
6.13795 3067.54
6.18263 196.298
6.22733 87.9289
6.27201 79.6333
6.3167 91.9342
6.36138 76.2598
6.40606 67.8619
6.45075 66.1136
6.49545 64.1564
6.54014 62.6526
6.58483 61.7505
6.62952 61.3626
6.67421 83.371
6.71892 117.462
6.76361 64.4962
6.8083 57.334
6.853 56.2931
6.89769 55.72
6.94239 55.4702
6.98711 54.7933
7.03181 54.7931
7.07651 54.3197
7.12121 53.7334
7.16591 54.4996
7.21063 54.1522
7.25533 65.4562
7.30004 140.42
7.34475 80.1559
7.38945 54.856
7.43416 53.324
7.47889 53.4855
7.5236 53.7622
7.56831 54.2179
7.61303 55.6348
7.65774 55.9205
7.70247 55.3553
7.74719 55.1388
7.79191 55.6466
7.83663 56.221
7.88135 57.0026
7.92607 57.5067
7.97081 58.8484
8.01553 60.0922
8.06026 61.2088
8.10498 62.7587
8.14971 70.2295
8.19446 69.5559
8.23919 68.5518
8.28392 70.3549
8.32865 72.6717
8.37339 76.7845
8.41812 83.0361
8.46288 105.927
8.50761 159.422
8.55235 357.928
8.59709 1191.4
8.64183 2311.48
8.68658 870.708
8.73134 148.897
8.77609 95.5621
8.82083 90.0224
8.86558 87.8349
8.91033 88.0916
8.9551 88.3161
8.99985 83.7736
9.04461 82.1425
9.08936 81.5583
9.13412 80.7305
9.17888 80.5875
9.22365 80.9652
9.26841 80.6514
9.31318 80.9528
9.35794 81.5344
9.4027 81.9702
9.44749 82.4133
9.49226 82.8918
9.53703 84.2358
9.5818 85.8834
9.62657 89.9013
9.67134 94.4258
9.71614 91.4341
9.76091 92.1484
9.80569 94.6657
9.85047 97.8651
9.89525 116.288
9.94005 129.066
9.98484 172.213
10.0296 321.786
10.0744 795.006
10.1192 1844.23
10.164 1457.3
10.2088 331.827
10.2536 118.415
10.2984 108.473
10.3432 109.476
10.388 102.493
10.4328 116.122
10.4776 155.577
10.5224 283.886
10.5672 537.065
10.612 497.255
10.6568 181.792
10.7017 92.4116
10.7465 84.6542
10.7913 81.3886
10.8361 79.165
10.8809 77.4456
10.9257 76.6659
10.9706 76.4973
11.0154 73.3499
11.0602 71.2516
11.105 70.2405
11.1499 72.8008
11.1947 77.5927
11.2395 71.272
11.2844 68.1785
11.3292 65.8514
11.374 64.7931
11.4189 64.4878
11.4637 63.8465
11.5086 63.8932
11.5534 65.7684
11.5983 63.7052
11.6431 62.3577
11.688 61.6707
11.7328 61.6011
11.7777 61.4479
11.8225 61.2101
11.8674 61.1242
11.9122 61.6725
11.9571 61.8618
12.002 62.6537
12.0468 66.2878
12.0917 76.3848
12.1366 100.151
12.1814 158.418
12.2263 221.544
12.2712 158.594
12.3161 88.3486
12.3609 67.3965
12.4058 63.0992
12.4507 62.8553
12.4956 62.9495
12.5405 63.3269
12.5853 64.1772
12.6302 69.3474
12.6751 73.4923
12.72 67.7715
12.7649 66.3119
12.8098 67.0584
12.8547 68.1776
12.8996 69.5137
12.9445 71.1237
12.9894 72.8284
13.0343 74.5182
13.0792 77.9149
13.1242 86.5887
13.1691 107.905
13.214 143.006
13.2589 240.047
13.3038 393.24
13.3487 425.359
13.3937 235.621
13.4386 113.603
13.4835 101.988
13.5285 115.69
13.5734 153.692
13.6183 253.621
13.6633 371.889
13.7082 333.275
13.7531 166.205
13.7981 91.6393
13.843 79.6375
13.888 78.1627
13.9329 75.4036
13.9779 74.2913
14.0228 72.9703
14.0678 71.3675
14.1127 71.0743
14.1577 70.6075
14.2027 69.9748
14.2476 69.238
14.2926 68.9894
14.3376 69.4611
14.3825 68.7626
14.4275 67.5995
14.4725 67.3939
14.5175 67.4558
14.5624 67.6011
14.6074 69.2872
14.6524 69.6952
14.6974 68.8631
14.7424 70.7732
14.7874 77.2558
14.8324 86.0933
14.8774 108.191
14.9224 155.478
14.9674 218.961
15.0124 217.544
15.0574 136.747
15.1024 84.1366
15.1474 70.3166
15.1924 68.7713
15.2374 68.8551
15.2824 68.1855
15.3274 66.3816
15.3725 65.4662
15.4175 65.0012
15.4625 64.4935
15.5076 64.9112
15.5526 64.6292
15.5976 64.7185
15.6426 65.576
15.6877 70.4473
15.7327 77.6051
15.7778 92.5536
15.8228 126.851
15.8679 176.148
15.9129 196.034
15.958 148.55
16.003 89.2303
16.0481 65.1937
16.0931 62.4371
16.1382 60.901
16.1833 59.2466
16.2283 57.7556
16.2734 57.0533
16.3185 57.1566
16.3636 57.5293
16.4086 56.1999
16.4537 55.0391
16.4988 54.32
16.5439 54.3276
16.589 53.99
16.6341 53.6462
16.6792 53.4383
16.7243 53.6555
16.7694 53.8551
16.8145 53.6759
16.8596 54.0731
16.9047 55.0499
16.9498 55.1681
16.9949 54.4898
17.04 54.8916
17.0851 55.7656
17.1302 57.3331
17.1754 60.2951
17.2205 65.2662
17.2656 74.2465
17.3108 83.8128
17.3559 80.5104
17.401 68.09
17.4462 59.8766
17.4913 57.792
17.5365 57.7371
17.5815 57.9272
17.6268 58.3618
17.6718 58.9851
17.7171 59.5774
17.7622 60.2021
17.8074 60.8413
17.8525 62.9623
17.8977 66.7286
17.9428 71.8244
17.9881 80.5782
18.0331 99.7513
18.0784 125.255
18.1237 139.862
18.1688 126.378
18.214 96.8109
18.2591 83.0402
18.3044 90.2287
18.3495 101.981
18.3948 105.801
18.4399 91.9529
18.4852 73.1921
18.5303 63.7678
18.5756 60.8587
18.6207 60.0401
18.666 59.162
18.7112 58.4171
18.7565 57.874
18.8016 57.3092
18.8469 56.8039
18.892 56.5953
18.9374 56.1479
18.9825 55.7837
19.0278 55.6784
19.073 55.8652
19.1183 56.2885
19.1635 56.8912
19.2088 58.4323
19.254 60.9901
19.2993 66.263
19.3447 72.3747
19.3898 75.5716
19.4352 69.7088
19.4804 60.6489
19.5257 54.9772
19.5709 53.0564
19.6163 52.7898
19.6615 52.696
19.7068 52.3575
19.752 52.2007
19.7974 52.7162
19.8426 53.5196
19.888 54.0195
19.9332 55.0802
19.9786 57.8169
20.0238 61.9823
20.0692 67.1817
20.1144 69.5101
20.1598 66.3572
20.205 61.6348
20.2504 61.2939
20.2957 63.7757
20.3411 65.6369
20.3863 62.5919
20.4318 56.2831
20.477 52.0984
20.5224 50.4726
20.5677 49.8763
20.6131 49.2634
20.6586 48.7962
20.7038 48.6068
20.7493 48.1028
20.7945 48.126
20.84 48.0362
20.8853 47.8248
20.9307 47.7013
20.976 47.7038
21.0215 47.671
21.0668 48.1682
21.1122 48.6329
21.1575 49.2466
21.203 50.1759
21.2483 50.5917
21.2938 50.5638
21.3391 48.9452
21.3846 47.8207
21.4299 47.4381
21.4754 47.4301
21.5207 47.7032
21.5662 47.9054
21.6116 48.3235
21.6571 48.9658
21.7024 49.7807
21.7479 51.6946
21.7933 54.4413
21.8388 58.8298
21.8843 62.9001
21.9297 64.1765
21.9752 61.5239
22.0206 57.606
22.0661 55.473
22.1115 55.4364
22.157 55.1577
22.2024 52.7979
22.248 50.0293
22.2933 48.7222
22.3389 48.1603
22.3843 48.0733
22.4299 47.9307
22.4753 47.9326
22.5208 47.5647
22.5662 47.5877
22.6118 47.7416
22.6572 47.9403
22.7028 48.5049
22.7483 48.8355
22.7939 49.4284
22.8393 51.0883
22.8849 53.4742
22.9303 55.7803
22.9759 57.4128
23.0214 56.1762
23.067 52.83
23.1126 49.8107
23.1581 48.0294
23.2037 47.8412
23.2492 47.9322
23.2948 47.972
23.3403 48.0813
23.3859 48.9263
23.4314 49.8154
23.477 51.9481
23.5225 54.6314
23.5682 56.845
23.6137 57.3897
23.6593 54.2799
23.7048 49.9974
23.7505 47.1064
23.796 45.7161
23.8417 45.1243
23.8872 44.7944
23.9329 44.3446
23.9784 44.1598
24.0241 43.7575
24.0697 43.6494
24.1154 43.2229
24.1609 43.3271
24.2066 43.0364
24.2522 43.0058
24.2979 42.6599
24.3434 42.4423
24.3892 42.2535
24.4349 42.3338
24.4805 42.092
24.5262 42.4097
24.5718 42.289
24.6175 42.0639
24.6631 41.9931
24.7089 41.6804
24.7545 41.5765
24.8002 41.5434
24.8458 41.4319
24.8916 41.254
24.9372 41.3964
24.983 41.7215
25.0286 42.1204
25.0744 42.667
25.12 43.2225
25.1658 43.7539
25.2114 43.9059
25.2572 44.025
25.3029 44.3294
25.3487 44.3533
25.3943 43.7378
25.4402 42.6501
25.4858 41.4185
25.5316 40.5788
25.5773 40.1257
25.6231 40.106
25.669 39.7213
25.7147 39.6836
25.7605 39.6925
25.8062 39.7108
25.8521 39.8714
25.8977 39.91
25.9436 40.2131
25.9893 40.2793
26.0352 40.8448
26.0809 41.0065
26.1268 40.9957
26.1725 40.4294
26.2184 39.9125
26.2641 39.4351
26.31 39.4146
26.3557 39.3949
26.4017 39.3483
26.4474 39.6388
26.4933 40.0634
26.5391 40.5645
26.585 41.0045
26.6308 41.6617
26.6767 41.6148
26.7225 41.0663
26.7684 40.6477
26.8142 40.1574
26.8601 39.6378
26.9059 39.3815
26.9519 38.7063
26.9979 38.4559
27.0437 38.0832
27.0896 38.0772
27.1354 38.1165
27.1814 37.8847
27.2272 37.7584
27.2732 37.9799
27.3191 37.7518
27.3651 37.8428
27.4109 37.723
27.4569 37.9161
27.5027 37.8675
27.5488 38.036
27.5946 37.7352
27.6407 37.3693
27.6865 37.3741
27.7326 37.0933
27.7784 37.1175
27.8245 37.2001
27.8703 37.1903
27.9164 37.6513
27.9623 37.7595
28.0084 38.1331
28.0543 38.5805
28.1003 38.3485
28.1462 38.1215
28.1923 37.8656
28.2384 37.3007
28.2843 36.8538
28.3304 36.4555
28.3764 35.9903
28.4225 35.6304
28.4684 35.6083
28.5145 35.309
28.5605 35.2234
28.6066 35.0208
28.6526 34.9722
28.6987 34.9658
28.7447 34.8883
28.7908 34.84
28.8368 34.8793
28.8829 34.8412
28.9289 34.7018
28.9751 34.5219
29.0211 34.1247
29.0673 34.0641
29.1133 33.9978
29.1595 33.7197
29.2055 33.7172
29.2517 33.7036
29.2977 33.7675
29.3439 33.6643
29.3899 33.7027
29.4361 33.5519
29.4824 33.3318
29.5284 33.1282
29.5746 32.756
29.6207 32.6234
29.6669 32.5729
29.713 32.3573
29.7593 32.2388
29.8053 32.3025
29.8516 32.1916
29.8977 32.1911
29.9439 32.0329
29.99 32.0837
30.0363 31.7895
30.0824 31.9182
30.1287 31.7727
30.1748 31.9349
30.2211 31.8802
30.2673 31.7283
30.3136 31.7242
30.3597 31.6018
30.406 31.6123
30.4522 31.481
30.4985 31.4055
30.5447 31.5839
30.591 31.5632
30.6372 31.6131
30.6835 31.6595
30.7297 31.6668
30.7761 31.5618
30.8224 31.4181
30.8686 31.2462
30.915 31.0595
30.9612 30.9833
31.0076 30.7701
31.0538 30.5527
31.1002 30.5637
31.1464 30.486
31.1928 30.3853
31.2391 30.4667
31.2855 30.3522
31.3317 30.3288
31.3781 30.4887
31.4244 30.3577
31.4708 30.2527
31.5171 30.2698
31.5636 30.2021
31.6098 29.9575
31.6563 29.854
31.7026 29.7231
31.7491 29.5724
31.7953 29.6722
31.8418 29.6068
31.8881 29.6341
31.9346 29.6201
31.9809 29.5177
32.0275 29.3759
32.074 29.3185
32.1203 29.1919
32.1668 29.0356
32.2132 28.8602
32.2597 28.7053
32.306 28.6457
32.3526 28.4157
32.399 28.3745
32.4455 28.245
32.4919 28.0967
32.5385 28.1383
32.5848 27.995
32.6314 28.0114
32.6778 27.8691
32.7244 27.8271
32.7708 27.6462
32.8174 27.6304
32.8638 27.5102
32.9104 27.5713
32.9569 27.5272
33.0035 27.3847
33.0499 27.432
33.0966 27.2893
33.143 27.2703
33.1897 27.2709
33.2361 27.1431
33.2828 27.0832
33.3293 26.9348
33.3759 26.8859
33.4226 26.7203
33.4691 26.6011
33.5158 26.5799
33.5623 26.4417
33.609 26.3014
33.6555 26.1579
33.7022 26.1012
33.7487 26.0044
33.7954 26.095
33.842 25.9627
33.8887 25.8843
33.9353 25.8466
33.982 25.6152
34.0286 25.5856
34.0753 25.4056
34.1219 25.47
34.1687 25.3982
34.2152 25.3131
34.262 25.2792
34.3086 25.0554
34.3554 25.1136
34.402 24.9181
34.4488 24.9285
34.4954 24.7896
34.5422 24.796
34.5889 24.5765
34.6357 24.5302
34.6825 24.4304
34.7292 24.3283
34.776 24.3142
34.8227 24.2664
34.8695 24.2186
34.9162 24.161
34.9631 24.0919
35.0098 24.0875
35.0566 23.8923
35.1033 23.8298
35.1502 23.8564
35.1969 23.8067
35.2438 23.7767
35.2906 23.6489
35.3375 23.6191
35.3842 23.5425
35.4311 23.5922
35.4779 23.5093
35.5248 23.4633
35.5716 23.3395
35.6185 23.3013
35.6653 23.1629
35.7123 23.0654
35.759 23.0635
35.806 22.892
35.8528 22.836
35.8998 22.7958
35.9468 22.7671
35.9936 22.6676
36.0406 22.6585
36.0874 22.5757
36.1345 22.5084
36.1813 22.4992
36.2283 22.391
36.2752 22.1886
36.3222 22.2389
36.3691 22.158
36.4161 22.1263
36.463 22.0594
36.5101 22.0953
36.557 21.9351
36.6041 21.7963
36.651 21.8189
36.6981 21.6778
36.745 21.6274
36.7921 21.6292
36.839 21.4703
36.8861 21.4765
36.9331 21.3679
36.9802 21.2774
37.0272 21.2406
37.0743 21.1082
37.1213 21.0997
37.1684 21.0115
37.2154 20.9833
37.2626 20.8619
37.3098 20.8466
37.3568 20.7234
37.404 20.7379
37.451 20.6192
37.4982 20.555
37.5452 20.5182
37.5924 20.4045
37.6395 20.4589
37.6867 20.3711
37.7337 20.2889
37.781 20.1939
37.8281 20.0478
37.8753 19.9694
37.9224 19.9488
37.9697 19.8624
38.0168 19.8783
38.064 19.7849
38.1111 19.7143
38.1584 19.6542
38.2056 19.6004
38.2529 19.5194
38.3 19.428
38.3473 19.4234
38.3945 19.3281
38.4418 19.2419
38.489 19.2027
38.5363 19.1836
38.5837 19.1208
38.6309 19.028
38.6782 18.9974
38.7254 18.8846
38.7728 18.8694
38.82 18.7377
38.8674 18.7477
38.9146 18.7039
38.9621 18.6659
39.0093 18.6289
39.0567 18.5678
39.104 18.476
39.1514 18.3931
39.1987 18.4433
39.2461 18.3446
39.2934 18.2113
39.3409 18.1112
39.3882 18.1487
39.4356 17.9988
39.483 17.984
39.5304 17.8472
39.5778 17.8572
39.6253 17.8708
39.6726 17.7348
39.7201 17.7771
39.7675 17.7071
39.815 17.5892
39.8624 17.5232
39.9099 17.5428
39.9575 17.4475
40.0049 17.4027
40.0525 17.2792
40.0999 17.2429
40.1474 17.1704
40.1949 17.1281
40.2425 17.0838
40.2899 17.0645
40.3375 17.0457
40.385 16.9096
40.4326 16.8923
40.48 16.8287
40.5277 16.8139
40.5752 16.6913
40.6228 16.6437
40.6703 16.6116
40.718 16.627
40.7655 16.5219
40.8132 16.4547
40.8607 16.3966
40.9084 16.4095
40.9559 16.3247
41.0036 16.2848
41.0512 16.2661
41.0989 16.2035
41.1465 16.0842
41.1942 16.073
41.242 15.9423
41.2896 15.942
41.3373 15.8946
41.3849 15.7663
41.4327 15.7692
41.4803 15.6816
41.5281 15.7213
41.5758 15.6394
41.6236 15.5248
41.6712 15.499
41.7191 15.4539
41.7667 15.4367
41.8146 15.411
41.8622 15.2928
41.9101 15.2857
41.9578 15.2094
42.0057 15.1892
42.0534 15.1395
42.1013 15.0764
42.149 15.0453
42.1969 14.9353
42.2446 14.8915
42.2925 14.824
42.3403 14.7994
42.3882 14.8014
42.436 14.6738
42.4839 14.6397
42.5319 14.6252
42.5797 14.5351
42.6277 14.5087
42.6755 14.4728
42.7235 14.4319
42.7713 14.395
42.8193 14.3085
42.8671 14.3277
42.9152 14.2297
42.963 14.2509
43.0111 14.1424
43.0589 14.0464
43.107 14.0266
43.1549 14.01
43.2029 13.8637
43.2508 13.8931
43.2989 13.8456
43.3468 13.7935
43.3949 13.7607
43.4429 13.7062
43.491 13.6771
43.5389 13.6246
43.5871 13.5815
43.635 13.4846
43.6832 13.4304
43.7312 13.4207
43.7793 13.337
43.8273 13.3222
43.8755 13.255
43.9237 13.1665
43.9717 13.1875
44.0199 13.1847
44.068 13.0899
44.1162 13.0528
44.1642 12.9904
44.2125 12.9568
44.2606 12.922
44.3088 12.8299
44.3569 12.8162
44.4052 12.804
44.4533 12.7226
44.5016 12.6889
44.5497 12.6539
44.598 12.625
44.6461 12.5476
44.6945 12.4896
44.7426 12.4437
44.791 12.403
44.8391 12.3752
44.8875 12.3862
44.9357 12.3203
44.984 12.2553
45.0322 12.1604
45.0806 12.1506
45.1288 12.1559
45.1773 12.0901
45.2257 12.0425
45.2739 12.0174
45.3224 11.943
45.3706 11.9206
45.4191 11.8641
45.4673 11.8532
45.5158 11.7938
45.5641 11.7305
45.6126 11.7327
45.6609 11.6906
45.7094 11.5933
45.7577 11.5887
45.8063 11.5118
45.8546 11.4788
45.9031 11.4032
45.9515 11.4081
46.0001 11.3907
46.0484 11.3269
46.097 11.3439
46.1454 11.258
46.194 11.246
46.2424 11.1279
46.291 11.1337
46.3395 11.0879
46.3881 11.0414
46.4365 11.0357
46.4852 10.9761
46.5337 10.9588
46.5823 10.9285
46.631 10.8072
46.6795 10.7722
46.7282 10.777
46.7767 10.7578
46.8254 10.6588
46.8739 10.614
46.9226 10.5735
46.9712 10.5376
47.0199 10.4908
47.0685 10.4812
47.1173 10.4316
47.1658 10.3943
47.2146 10.3261
47.2632 10.3084
47.312 10.3263
47.3606 10.3115
47.4095 10.2351
47.4581 10.2068
47.5069 10.1366
47.5556 10.1302
47.6044 10.0755
47.6531 10.0645
47.702 9.94287
47.7507 9.91977
47.7996 9.95717
47.8483 9.87143
47.8972 9.8388
47.9461 9.80148
47.9948 9.75886
48.0438 9.75359
48.0925 9.71956
48.1415 9.63636
48.1902 9.65559
48.2392 9.67514
48.288 9.5807
48.337 9.53354
48.3858 9.50662
48.4348 9.4379
48.4837 9.45179
48.5327 9.42868
48.5815 9.36518
48.6306 9.32704
48.6795 9.30995
48.7285 9.25673
48.7774 9.25127
48.8265 9.21384
48.8754 9.17158
48.9245 9.11569
48.9734 9.0861
49.0226 9.08603
49.0715 9.01229
49.1206 8.99641
49.1696 8.92447
49.2188 8.93577
49.2679 8.89542
49.3169 8.85417
49.3661 8.82022
49.4151 8.81953
49.4643 8.73867
49.5134 8.71924
49.5626 8.66834
49.6117 8.63935
49.6609 8.61373
49.71 8.55657
49.7592 8.53272
49.8083 8.49138
49.8576 8.49654
49.9067 8.42078
49.956 8.46155
50.0052 8.40253
50.0545 8.33625
50.1036 8.28
50.153 8.3124
50.2022 8.2985
50.2515 8.23814
50.3007 8.20216
50.3501 8.17278
50.3993 8.14986
50.4487 8.12614
50.498 8.08884
50.5474 8.05177
50.5966 8.01225
50.6461 7.99669
50.6955 7.94392
50.7448 7.90115
50.7943 7.90257
50.8436 7.85481
50.8931 7.79462
50.9424 7.81081
50.9919 7.80171
51.0413 7.70989
51.0908 7.67751
51.1402 7.70017
51.1897 7.63109
51.2391 7.60963
51.2887 7.57709
51.3381 7.53899
51.3877 7.49064
51.4371 7.46762
51.4867 7.45034
51.5362 7.40058
51.5858 7.38432
51.6353 7.32255
51.6849 7.31964
51.7344 7.28432
51.7841 7.28059
51.8336 7.26076
51.8833 7.20926
51.9328 7.18375
51.9826 7.17044
52.0323 7.12337
52.0818 7.08477
52.1316 7.05688
52.1812 7.04081
52.231 7.04908
52.2806 7.01754
52.3304 6.97226
52.38 6.92189
52.4298 6.911
52.4794 6.83869
52.5293 6.81868
52.5789 6.84098
52.6288 6.78963
52.6785 6.72733
52.7284 6.75339
52.7781 6.72006
52.828 6.64147
52.8777 6.66312
52.9276 6.63076
52.9774 6.63181
53.0273 6.54552
53.0771 6.55483
53.1271 6.52419
53.1769 6.46688
53.2269 6.43866
53.2767 6.43651
53.3267 6.41153
53.3765 6.4135
53.4266 6.37717
53.4766 6.29153
53.5265 6.31086
53.5765 6.24159
53.6264 6.23235
53.6765 6.24253
53.7264 6.16248
53.7765 6.18425
53.8265 6.13528
53.8766 6.1098
53.9266 6.0509
53.9767 6.07751
54.0267 6.01485
54.0769 6.01446
54.1269 5.98695
54.1771 5.89408
54.2271 5.8979
54.2773 5.88606
54.3274 5.87695
54.3776 5.80982
54.4277 5.76507
54.478 5.75881
54.528 5.71993
54.5783 5.64075
54.6285 5.59895
54.6788 5.58462
54.7289 5.57592
54.7792 5.47961
54.8296 5.42807
54.8798 5.4324
54.9301 5.39481
54.9803 5.32909
55.0307 5.32988
55.0809 5.29789
55.1314 5.23839
55.1816 5.17321
55.232 5.11428
55.2823 5.17245
55.3328 5.03597
55.383 5.03048
55.4335 4.99223
55.4838 4.89856
55.5344 4.92165
55.5847 4.86172
55.6352 4.78815
55.6856 4.75321
55.7361 4.73179