File: XRD/Ni3Fe_FD0824.xy
TT I
1.27165 7.64899
1.31627 6.66397
1.36089 7.11383
1.40551 6.14742
1.45013 6.27117
1.49476 5.85545
1.53938 5.59546
1.584 5.32484
1.62863 4.97898
1.67325 5.18592
1.71787 4.79407
1.7625 4.78306
1.80712 4.75097
1.85174 4.81773
1.89636 4.31771
1.94099 4.18715
1.98562 4.28218
2.03025 4.76699
2.07487 4.23826
2.11949 4.81215
2.16411 4.84496
2.20874 7.63612
2.25338 10.436
2.298 5.92673
2.34263 5.49433
2.38725 6.32486
2.43188 6.17746
2.4765 6.94417
2.52115 7.57448
2.56577 8.24879
2.6104 8.18072
2.65503 7.80714
2.69965 8.44806
2.7443 7.91248
2.78893 8.27702
2.83356 8.79227
2.87818 8.47161
2.92281 9.29082
2.96744 9.56265
3.01209 10.438
3.05672 11.0479
3.10135 12.4777
3.14599 13.2673
3.19062 14.3601
3.23527 15.1075
3.2799 15.6529
3.32454 16.8699
3.36917 17.6261
3.4138 18.5752
3.45844 18.9975
3.50309 20.8161
3.54773 21.4741
3.59237 23.0949
3.637 45.5603
3.68164 35.2354
3.7263 24.8607
3.77094 25.1015
3.81558 26.5464
3.86022 26.8515
3.90486 28.4332
3.9495 29.5574
3.99416 30.6641
4.0388 31.5499
4.08344 32.6826
4.12809 33.7495
4.17273 35.3551
4.21738 39.2408
4.26204 111.277
4.30669 96.468
4.35133 43.8081
4.39598 43.2992
4.44063 47.4622
4.4853 52.9491
4.52995 57.2202
4.5746 58.3593
4.61925 53.3799
4.6639 55.0119
4.70855 57.6
4.75322 61.4701
4.79788 69.1122
4.84253 68.4577
4.88719 75.1635
4.93184 76.4086
4.97652 80.743
5.02118 86.8855
5.06583 94.4987
5.11049 105.886
5.15515 154.966
5.19981 402.978
5.24449 2871.78
5.28916 12361.1
5.33382 2462.13
5.37848 193.615
5.42315 130.274
5.46783 119.984
5.5125 112.714
5.55716 101.618
5.60183 96.9218
5.6465 95.6128
5.69117 93.413
5.73586 92.4942
5.78053 98.9556
5.8252 99.0811
5.86988 102.548
5.91455 94.9887
5.95924 104.215
6.00392 241.237
6.0486 969.322
6.09328 4559.74
6.13795 3015.72
6.18263 199.266
6.22733 88.9014
6.27201 79.5055
6.3167 82.6557
6.36138 73.642
6.40606 69.8172
6.45075 69.5483
6.49545 64.8175
6.54014 62.979
6.58483 62.283
6.62952 62.4275
6.67421 71.3112
6.71892 84.7436
6.76361 61.1765
6.8083 59.0806
6.853 59.9549
6.89769 56.4649
6.94239 55.8309
6.98711 55.3753
7.03181 55.7284
7.07651 54.596
7.12121 54.3843
7.16591 55.6221
7.21063 55.4199
7.25533 59.3164
7.30004 92.4887
7.34475 65.2053
7.38945 54.3708
7.43416 53.1686
7.47889 52.906
7.5236 53.7103
7.56831 54.3496
7.61303 54.7932
7.65774 55.4924
7.70247 56.9061
7.74719 56.1604
7.79191 55.6246
7.83663 55.8943
7.88135 57.2064
7.92607 58.151
7.97081 59.1353
8.01553 60.4209
8.06026 62.5001
8.10498 64.0014
8.14971 70.5422
8.19446 70.6729
8.23919 68.816
8.28392 71.3798
8.32865 73.3892
8.37339 77.6996
8.41812 83.2976
8.46288 101.582
8.50761 178.307
8.55235 383.525
8.59709 1223.68
8.64183 2212.47
8.68658 833.683
8.73134 146.85
8.77609 96.7463
8.82083 91.6198
8.86558 92.2958
8.91033 92.1851
8.9551 89.2646
8.99985 84.7332
9.04461 83.4486
9.08936 83.7323
9.13412 82.5395
9.17888 81.1668
9.22365 81.6959
9.26841 81.3934
9.31318 84.6769
9.35794 86.7584
9.4027 86.1322
9.44749 84.6113
9.49226 84.655
9.53703 84.858
9.5818 88.9755
9.62657 94.7509
9.67134 95.0552
9.71614 92.147
9.76091 94.2162
9.80569 98.9486
9.85047 100.758
9.89525 110.431
9.94005 125.492
9.98484 190.434
10.0296 345.66
10.0744 841.273
10.1192 1826.07
10.164 1504.62
10.2088 350.756
10.2536 119.936
10.2984 108.375
10.3432 106.865
10.388 104.476
10.4328 121.648
10.4776 162.514
10.5224 296.969
10.5672 540.107
10.612 493.624
10.6568 183.844
10.7017 93.8155
10.7465 85.1981
10.7913 82.2345
10.8361 80.4604
10.8809 78.0962
10.9257 77.3411
10.9706 77.8454
11.0154 74.7516
11.0602 72.0972
11.105 70.7312
11.1499 71.2648
11.1947 73.03
11.2395 69.4206
11.2844 67.6247
11.3292 66.0898
11.374 65.5929
11.4189 65.1111
11.4637 64.1193
11.5086 64.1801
11.5534 64.3993
11.5983 63.4009
11.6431 62.6725
11.688 62.1188
11.7328 62.2749
11.7777 62.1619
11.8225 62.2303
11.8674 62.0307
11.9122 61.9835
11.9571 62.6048
12.002 63.9553
12.0468 68.4353
12.0917 77.6284
12.1366 103.664
12.1814 161.887
12.2263 215.76
12.2712 162.467
12.3161 85.9511
12.3609 65.8673
12.4058 63.3305
12.4507 63.2865
12.4956 64.2147
12.5405 64.4873
12.5853 64.5053
12.6302 67.4227
12.6751 69.5036
12.72 67.3128
12.7649 66.7896
12.8098 67.9947
12.8547 69.2951
12.8996 70.8557
12.9445 72.3608
12.9894 74.2824
13.0343 75.4377
13.0792 79.9741
13.1242 92.1685
13.1691 111.501
13.214 149.831
13.2589 249.627
13.3038 392.933
13.3487 411.894
13.3937 233.301
13.4386 116.887
13.4835 105.693
13.5285 120.144
13.5734 161.669
13.6183 258.96
13.6633 366.749
13.7082 328.212
13.7531 168.577
13.7981 93.2477
13.843 80.603
13.888 78.9095
13.9329 76.4778
13.9779 75.0345
14.0228 73.8049
14.0678 72.3279
14.1127 71.7188
14.1577 71.1659
14.2027 70.1659
14.2476 69.6902
14.2926 69.2454
14.3376 69.5443
14.3825 68.8819
14.4275 68.2722
14.4725 68.087
14.5175 68.308
14.5624 68.2058
14.6074 69.1189
14.6524 69.5987
14.6974 70.1163
14.7424 73.5437
14.7874 78.9954
14.8324 88.7834
14.8774 111.962
14.9224 160.045
14.9674 218.279
15.0124 219.094
15.0574 139.514
15.1024 85.6018
15.1474 70.9486
15.1924 69.2975
15.2374 68.7809
15.2824 67.9124
15.3274 66.6854
15.3725 66.1194
15.4175 65.7741
15.4625 65.1914
15.5076 64.9743
15.5526 65.0886
15.5976 65.3811
15.6426 67.808
15.6877 72.5941
15.7327 79.274
15.7778 95.6498
15.8228 130.025
15.8679 178.219
15.9129 196.97
15.958 146.921
16.003 88.7021
16.0481 65.382
16.0931 62.1771
16.1382 60.7883
16.1833 59.4239
16.2283 58.108
16.2734 57.4671
16.3185 57.3736
16.3636 56.959
16.4086 56.0332
16.4537 55.4648
16.4988 54.8311
16.5439 54.8573
16.589 54.555
16.6341 54.2044
16.6792 53.8833
16.7243 54.3193
16.7694 53.9985
16.8145 54.0786
16.8596 54.3092
16.9047 54.8453
16.9498 55.0959
16.9949 54.9098
17.04 55.5291
17.0851 56.7514
17.1302 58.2335
17.1754 61.25
17.2205 66.9485
17.2656 75.2682
17.3108 83.7106
17.3559 80.682
17.401 68.3781
17.4462 60.5927
17.4913 58.4149
17.5365 58.7254
17.5815 58.7556
17.6268 58.9414
17.6718 59.7144
17.7171 60.0764
17.7622 60.7689
17.8074 61.9151
17.8525 64.6442
17.8977 68.0208
17.9428 73.1926
17.9881 82.9768
18.0331 102.086
18.0784 125.775
18.1237 141.8
18.1688 126.815
18.214 98.8124
18.2591 84.5519
18.3044 90.8979
18.3495 102.069
18.3948 105.13
18.4399 91.3744
18.4852 73.8636
18.5303 64.2711
18.5756 61.3749
18.6207 60.5135
18.666 59.6724
18.7112 58.8906
18.7565 58.3099
18.8016 57.9643
18.8469 57.4502
18.892 57.1679
18.9374 56.628
18.9825 56.4845
19.0278 56.171
19.073 56.6956
19.1183 56.645
19.1635 56.9863
19.2088 58.607
19.254 61.4487
19.2993 66.7924
19.3447 72.5042
19.3898 75.2611
19.4352 69.4959
19.4804 60.9351
19.5257 55.2621
19.5709 53.5588
19.6163 53.2079
19.6615 53.1042
19.7068 52.7003
19.752 52.8587
19.7974 53.0351
19.8426 53.7688
19.888 54.2928
19.9332 55.727
19.9786 58.4873
20.0238 62.6696
20.0692 67.9371
20.1144 70.0085
20.1598 66.9283
20.205 62.1777
20.2504 61.6836
20.2957 64.0888
20.3411 65.3569
20.3863 62.4592
20.4318 56.8251
20.477 52.5686
20.5224 50.7046
20.5677 49.9946
20.6131 49.559
20.6586 49.0988
20.7038 49.0075
20.7493 48.6715
20.7945 48.4941
20.84 48.4202
20.8853 48.3482
20.9307 47.9637
20.976 48.3399
21.0215 47.9014
21.0668 48.5424
21.1122 48.9126
21.1575 49.754
21.203 50.4785
21.2483 51.1641
21.2938 50.8271
21.3391 49.2332
21.3846 48.428
21.4299 47.9327
21.4754 48.0502
21.5207 48.0455
21.5662 48.4755
21.6116 48.8819
21.6571 49.5279
21.7024 50.4594
21.7479 52.4142
21.7933 55.4426
21.8388 58.9625
21.8843 62.9186
21.9297 64.0228
21.9752 61.824
22.0206 57.823
22.0661 55.7407
22.1115 55.6569
22.157 55.3711
22.2024 53.3384
22.248 50.3957
22.2933 49.0773
22.3389 48.4746
22.3843 48.3641
22.4299 48.1836
22.4753 48.153
22.5208 47.9524
22.5662 48.0533
22.6118 48.2561
22.6572 48.4581
22.7028 48.8498
22.7483 49.1583
22.7939 49.9552
22.8393 51.7928
22.8849 53.8301
22.9303 56.0547
22.9759 57.3647
23.0214 56.4632
23.067 53.2847
23.1126 50.2409
23.1581 48.4743
23.2037 48.1309
23.2492 48.3098
23.2948 48.3223
23.3403 48.5109
23.3859 49.2087
23.4314 50.4248
23.477 52.4238
23.5225 54.8816
23.5682 57.0899
23.6137 57.5053
23.6593 54.287
23.7048 50.3476
23.7505 47.366
23.796 45.8827
23.8417 45.4997
23.8872 44.9528
23.9329 44.7545
23.9784 44.1962
24.0241 44.0894
24.0697 43.9472
24.1154 43.6275
24.1609 43.5681
24.2066 43.2736
24.2522 43.1823
24.2979 43.0375
24.3434 42.8415
24.3892 42.5343
24.4349 42.7491
24.4805 42.5463
24.5262 42.6445
24.5718 42.5849
24.6175 42.5222
24.6631 42.3713
24.7089 42.0163
24.7545 41.7446
24.8002 41.7948
24.8458 41.8584
24.8916 41.7191
24.9372 41.8686
24.983 42.1135
25.0286 42.3784
25.0744 42.8774
25.12 43.5183
25.1658 43.9215
25.2114 44.261
25.2572 44.3795
25.3029 44.4926
25.3487 44.4324
25.3943 43.926
25.4402 42.8653
25.4858 41.7004
25.5316 40.9002
25.5773 40.5306
25.6231 40.4677
25.669 40.1075
25.7147 40.1136
25.7605 40.0177
25.8062 40.0203
25.8521 40.2567
25.8977 40.2464
25.9436 40.5318
25.9893 40.6515
26.0352 41.1453
26.0809 41.1793
26.1268 41.3638
26.1725 40.8742
26.2184 40.2736
26.2641 39.7981
26.31 39.6909
26.3557 39.7292
26.4017 39.4841
26.4474 39.9325
26.4933 40.3469
26.5391 40.9026
26.585 41.3426
26.6308 41.692
26.6767 41.8861
26.7225 41.4886
26.7684 40.8739
26.8142 40.4758
26.8601 40.0155
26.9059 39.5488
26.9519 38.9147
26.9979 38.8052
27.0437 38.3768
27.0896 38.3633
27.1354 38.2704
27.1814 38.1098
27.2272 38.1934
27.2732 38.042
27.3191 37.9479
27.3651 38.0852
27.4109 38.0037
27.4569 38.1808
27.5027 38.15
27.5488 38.1985
27.5946 37.9755
27.6407 37.7699
27.6865 37.7109
27.7326 37.3465
27.7784 37.4236
27.8245 37.447
27.8703 37.6459
27.9164 37.9091
27.9623 38.0076
28.0084 38.4199
28.0543 38.8346
28.1003 38.8063
28.1462 38.333
28.1923 38.0749
28.2384 37.6016
28.2843 37.1233
28.3304 36.7513
28.3764 36.2408
28.4225 36.0097
28.4684 35.8858
28.5145 35.516
28.5605 35.5766
28.6066 35.3119
28.6526 35.1428
28.6987 35.29
28.7447 35.1132
28.7908 35.0372
28.8368 35.0657
28.8829 35.0814
28.9289 34.9262
28.9751 34.7965
29.0211 34.4843
29.0673 34.178
29.1133 34.1691
29.1595 34.0251
29.2055 33.9537
29.2517 34.0049
29.2977 33.9593
29.3439 33.8141
29.3899 33.8076
29.4361 33.7486
29.4824 33.5215
29.5284 33.2674
29.5746 33.0374
29.6207 32.8032
29.6669 32.7151
29.713 32.6391
29.7593 32.4841
29.8053 32.5479
29.8516 32.3706
29.8977 32.5025
29.9439 32.2745
29.99 32.1825
30.0363 32.1331
30.0824 32.142
30.1287 32.1102
30.1748 32.1041
30.2211 32.058
30.2673 31.8946
30.3136 31.9458
30.3597 31.9368
30.406 31.7646
30.4522 31.7341
30.4985 31.7231
30.5447 31.7953
30.591 31.8151
30.6372 31.9183
30.6835 31.8467
30.7297 31.9626
30.7761 31.8143
30.8224 31.6229
30.8686 31.4497
30.915 31.2679
30.9612 31.0964
31.0076 30.9587
31.0538 30.8095
31.1002 30.8311
31.1464 30.5669
31.1928 30.703
31.2391 30.612
31.2855 30.5173
31.3317 30.5977
31.3781 30.6991
31.4244 30.5946
31.4708 30.568
31.5171 30.4062
31.5636 30.3227
31.6098 30.1847
31.6563 29.9617
31.7026 30.0042
31.7491 29.8772
31.7953 29.9374
31.8418 29.8472
31.8881 29.8574
31.9346 29.8321
31.9809 29.69
32.0275 29.5186
32.074 29.4324
32.1203 29.1383
32.1668 29.1013
32.2132 29.0301
32.2597 28.9563
32.306 28.85
32.3526 28.6263
32.399 28.6295
32.4455 28.5042
32.4919 28.3961
32.5385 28.357
32.5848 28.1879
32.6314 28.1397
32.6778 28.1166
32.7244 28.0069
32.7708 27.8758
32.8174 27.9042
32.8638 27.6607
32.9104 27.8545
32.9569 27.7032
33.0035 27.659
33.0499 27.57
33.0966 27.555
33.143 27.4665
33.1897 27.3571
33.2361 27.3823
33.2828 27.2582
33.3293 27.0769
33.3759 27.0671
33.4226 26.8992
33.4691 26.7821
33.5158 26.6517
33.5623 26.6657
33.609 26.4393
33.6555 26.4697
33.7022 26.2939
33.7487 26.2875
33.7954 26.2144
33.842 26.0747
33.8887 26.0169
33.9353 25.98
33.982 25.8548
34.0286 25.7473
34.0753 25.7098
34.1219 25.5756
34.1687 25.5387
34.2152 25.4278
34.262 25.4001
34.3086 25.2585
34.3554 25.2598
34.402 25.1585
34.4488 25.0146
34.4954 24.988
34.5422 24.9354
34.5889 24.7911
34.6357 24.7205
34.6825 24.6459
34.7292 24.5899
34.776 24.5095
34.8227 24.4205
34.8695 24.3715
34.9162 24.2754
34.9631 24.1686
35.0098 24.2359
35.0566 24.0705
35.1033 24.0335
35.1502 23.9681
35.1969 24.0091
35.2438 23.9045
35.2906 23.8286
35.3375 23.8002
35.3842 23.7459
35.4311 23.7721
35.4779 23.6852
35.5248 23.6407
35.5716 23.5113
35.6185 23.4861
35.6653 23.3248
35.7123 23.2265
35.759 23.3059
35.806 23.0181
35.8528 23.0125
35.8998 22.9766
35.9468 22.8711
35.9936 22.8848
36.0406 22.7179
36.0874 22.8047
36.1345 22.6037
36.1813 22.578
36.2283 22.4912
36.2752 22.2877
36.3222 22.4496
36.3691 22.3661
36.4161 22.2152
36.463 22.2126
36.5101 22.1157
36.557 22.058
36.6041 21.9577
36.651 21.9265
36.6981 21.8684
36.745 21.8906
36.7921 21.7523
36.839 21.6804
36.8861 21.5372
36.9331 21.4905
36.9802 21.4755
37.0272 21.384
37.0743 21.2551
37.1213 21.2428
37.1684 21.1362
37.2154 21.1301
37.2626 21.016
37.3098 20.9623
37.3568 20.8484
37.404 20.8746
37.451 20.7898
37.4982 20.6821
37.5452 20.5989
37.5924 20.5525
37.6395 20.5641
37.6867 20.4055
37.7337 20.3775
37.781 20.3093
37.8281 20.3029
37.8753 20.1724
37.9224 20.1244
37.9697 19.9892
38.0168 19.9383
38.064 19.945
38.1111 19.9186
38.1584 19.7991
38.2056 19.7279
38.2529 19.7045
38.3 19.5665
38.3473 19.5707
38.3945 19.4728
38.4418 19.4892
38.489 19.3705
38.5363 19.3201
38.5837 19.2091
38.6309 19.1626
38.6782 19.0754
38.7254 19.073
38.7728 19.0112
38.82 18.8743
38.8674 18.9022
38.9146 18.8457
38.9621 18.7496
39.0093 18.7379
39.0567 18.6653
39.104 18.6106
39.1514 18.4826
39.1987 18.486
39.2461 18.3947
39.2934 18.3703
39.3409 18.2466
39.3882 18.2539
39.4356 18.1066
39.483 18.0748
39.5304 17.9864
39.5778 17.9896
39.6253 17.8943
39.6726 17.8369
39.7201 17.8504
39.7675 17.8039
39.815 17.7352
39.8624 17.6268
39.9099 17.574
39.9575 17.524
40.0049 17.5015
40.0525 17.4034
40.0999 17.3726
40.1474 17.3586
40.1949 17.289
40.2425 17.2538
40.2899 17.139
40.3375 17.1024
40.385 17.0474
40.4326 16.9749
40.48 16.9463
40.5277 16.9088
40.5752 16.8626
40.6228 16.7672
40.6703 16.8004
40.718 16.6739
40.7655 16.691
40.8132 16.5081
40.8607 16.5811
40.9084 16.4747
40.9559 16.3723
41.0036 16.3759
41.0512 16.3137
41.0989 16.2788
41.1465 16.2017
41.1942 16.1883
41.242 16.0962
41.2896 16.0066
41.3373 15.975
41.3849 15.9424
41.4327 15.8839
41.4803 15.8274
41.5281 15.7344
41.5758 15.7037
41.6236 15.6261
41.6712 15.6681
41.7191 15.565
41.7667 15.4891
41.8146 15.4364
41.8622 15.4617
41.9101 15.3771
41.9578 15.2978
42.0057 15.2247
42.0534 15.1703
42.1013 15.1732
42.149 15.1408
42.1969 15.0655
42.2446 14.9773
42.2925 14.9685
42.3403 14.8555
42.3882 14.8114
42.436 14.8327
42.4839 14.7089
42.5319 14.7033
42.5797 14.6171
42.6277 14.6351
42.6755 14.5643
42.7235 14.4854
42.7713 14.4496
42.8193 14.3945
42.8671 14.3454
42.9152 14.309
42.963 14.2706
43.0111 14.2357
43.0589 14.1498
43.107 14.1459
43.1549 14.067
43.2029 14.0167
43.2508 13.9727
43.2989 13.9073
43.3468 13.875
43.3949 13.8523
43.4429 13.7382
43.491 13.7647
43.5389 13.6812
43.5871 13.5845
43.635 13.5594
43.6832 13.5819
43.7312 13.4722
43.7793 13.4389
43.8273 13.3934
43.8755 13.355
43.9237 13.2587
43.9717 13.2733
44.0199 13.1872
44.068 13.1892
44.1162 13.1207
44.1642 13.0551
44.2125 13.0235
44.2606 12.9906
44.3088 12.9109
44.3569 12.8679
44.4052 12.8604
44.4533 12.7957
44.5016 12.7576
44.5497 12.7377
44.598 12.6813
44.6461 12.5685
44.6945 12.5476
44.7426 12.558
44.791 12.4695
44.8391 12.4601
44.8875 12.3811
44.9357 12.4046
44.984 12.2987
45.0322 12.3123
45.0806 12.2391
45.1288 12.1482
45.1773 12.1001
45.2257 12.117
45.2739 12.0612
45.3224 12.042
45.3706 11.9759
45.4191 11.9091
45.4673 11.8607
45.5158 11.8525
45.5641 11.8041
45.6126 11.7259
45.6609 11.7042
45.7094 11.6787
45.7577 11.6589
45.8063 11.5852
45.8546 11.605
45.9031 11.5426
45.9515 11.4908
46.0001 11.419
46.0484 11.415
46.097 11.3835
46.1454 11.3308
46.194 11.2858
46.2424 11.2497
46.291 11.2275
46.3395 11.1764
46.3881 11.0645
46.4365 11.0566
46.4852 11.0707
46.5337 10.9894
46.5823 11.0003
46.631 10.8941
46.6795 10.8872
46.7282 10.8605
46.7767 10.8317
46.8254 10.75
46.8739 10.7272
46.9226 10.7005
46.9712 10.6242
47.0199 10.5885
47.0685 10.5549
47.1173 10.4916
47.1658 10.4605
47.2146 10.4579
47.2632 10.3897
47.312 10.3603
47.3606 10.3289
47.4095 10.287
47.4581 10.2258
47.5069 10.2244
47.5556 10.1625
47.6044 10.1276
47.6531 10.0581
47.702 10.0203
47.7507 10.0166
47.7996 9.99699
47.8483 9.91305
47.8972 9.90083
47.9461 9.86713
47.9948 9.8063
48.0438 9.80824
48.0925 9.7781
48.1415 9.74958
48.1902 9.67071
48.2392 9.68426
48.288 9.62998
48.337 9.61805
48.3858 9.53023
48.4348 9.51383
48.4837 9.50644
48.5327 9.46203
48.5815 9.44078
48.6306 9.38039
48.6795 9.34795
48.7285 9.32396
48.7774 9.27775
48.8265 9.2517
48.8754 9.23725
48.9245 9.1857
48.9734 9.1331
49.0226 9.12184
49.0715 9.06298
49.1206 9.04445
49.1696 9.01919
49.2188 8.99092
49.2679 8.93003
49.3169 8.91266
49.3661 8.86262
49.4151 8.82584
49.4643 8.79723
49.5134 8.8071
49.5626 8.72693
49.6117 8.67515
49.6609 8.68547
49.71 8.5924
49.7592 8.56994
49.8083 8.54256
49.8576 8.51587
49.9067 8.4728
49.956 8.47372
50.0052 8.40142
50.0545 8.42741
50.1036 8.38082
50.153 8.33514
50.2022 8.28646
50.2515 8.26817
50.3007 8.25918
50.3501 8.19559
50.3993 8.19217
50.4487 8.15906
50.498 8.1057
50.5474 8.07369
50.5966 8.0287
50.6461 8.00546
50.6955 8.0188
50.7448 7.95537
50.7943 7.93551
50.8436 7.87956
50.8931 7.84636
50.9424 7.87348
50.9919 7.81828
51.0413 7.79005
51.0908 7.73499
51.1402 7.73591
51.1897 7.682
51.2391 7.65066
51.2887 7.65712
51.3381 7.56295
51.3877 7.5558
51.4371 7.50691
51.4867 7.50189
51.5362 7.49208
51.5858 7.45073
51.6353 7.389
51.6849 7.38065
51.7344 7.3477
51.7841 7.34746
51.8336 7.29289
51.8833 7.25087
51.9328 7.21589
51.9826 7.19575
52.0323 7.19114
52.0818 7.09349
52.1316 7.0603
52.1812 7.06757
52.231 7.03768
52.2806 7.01865
52.3304 6.964
52.38 6.94925
52.4298 6.9065
52.4794 6.88209
52.5293 6.88914
52.5789 6.84655
52.6288 6.83828
52.6785 6.80234
52.7284 6.76562
52.7781 6.71411
52.828 6.6808
52.8777 6.6416
52.9276 6.64291
52.9774 6.61137
53.0273 6.62227
53.0771 6.53979
53.1271 6.56426
53.1769 6.50995
53.2269 6.47758
53.2767 6.45812
53.3267 6.40257
53.3765 6.3959
53.4266 6.40124
53.4766 6.36634
53.5265 6.30101
53.5765 6.29122
53.6264 6.26518
53.6765 6.257
53.7264 6.18991
53.7765 6.21385
53.8265 6.14495
53.8766 6.10257
53.9266 6.10405
53.9767 6.07529
54.0267 6.03348
54.0769 6.02102
54.1269 6.00241
54.1771 5.94394
54.2271 5.93801
54.2773 5.88849
54.3274 5.90213
54.3776 5.81264
54.4277 5.79412
54.478 5.76977
54.528 5.72848
54.5783 5.68807
54.6285 5.63091
54.6788 5.63261
54.7289 5.60434
54.7792 5.51934
54.8296 5.54588
54.8798 5.43518
54.9301 5.39149
54.9803 5.40182
55.0307 5.39403
55.0809 5.28846
55.1314 5.31942
55.1816 5.16218
55.232 5.20402
55.2823 5.15829
55.3328 5.08148
55.383 5.02517
55.4335 5.05115
55.4838 4.96391
55.5344 4.89929
55.5847 4.86224
55.6352 4.83161
55.6856 4.79237
55.7361 4.77284