File: XRD/Ni3Fe_FD0193.xy
TT I
1.27165 8.08681
1.31627 7.2381
1.36089 7.32446
1.40551 6.69349
1.45013 7.01443
1.49476 6.40571
1.53938 6.52182
1.584 6.25357
1.62863 6.04867
1.67325 5.71597
1.71787 5.94975
1.7625 5.23482
1.80712 5.05752
1.85174 5.14798
1.89636 5.17704
1.94099 5.11818
1.98562 5.42362
2.03025 4.45095
2.07487 4.64586
2.11949 4.60887
2.16411 4.46282
2.20874 4.81313
2.25338 4.17097
2.298 4.24897
2.34263 4.73179
2.38725 4.23665
2.43188 4.18388
2.4765 4.71496
2.52115 3.91236
2.56577 5.06222
2.6104 5.45435
2.65503 5.08123
2.69965 5.6228
2.7443 5.97612
2.78893 6.68087
2.83356 7.18749
2.87818 7.70852
2.92281 8.39102
2.96744 9.26513
3.01209 10.5602
3.05672 11.211
3.10135 12.5565
3.14599 13.4755
3.19062 13.7651
3.23527 15.2671
3.2799 15.6848
3.32454 17.1629
3.36917 18.1247
3.4138 19.0628
3.45844 19.9275
3.50309 21.0098
3.54773 21.7506
3.59237 22.2211
3.637 23.2884
3.68164 24.0072
3.7263 25.27
3.77094 26.0243
3.81558 26.4072
3.86022 27.5854
3.90486 29.2275
3.9495 30.0082
3.99416 30.871
4.0388 32.1326
4.08344 33.4954
4.12809 34.4483
4.17273 36.1872
4.21738 37.2189
4.26204 38.8922
4.30669 40.0953
4.35133 42.4435
4.39598 43.9451
4.44063 46.1589
4.4853 48.0116
4.52995 50.6174
4.5746 53.0266
4.61925 54.7981
4.6639 57.6011
4.70855 60.7995
4.75322 63.9078
4.79788 66.797
4.84253 70.8281
4.88719 75.4308
4.93184 80.5845
4.97652 88.3877
5.02118 96.7581
5.06583 107.542
5.11049 124.065
5.15515 162.338
5.19981 647.427
5.24449 4059.01
5.28916 9551.75
5.33382 5032.95
5.37848 336.29
5.42315 160.38
5.46783 131.081
5.5125 118.932
5.55716 113.008
5.60183 107.449
5.6465 105.116
5.69117 103.332
5.73586 101.289
5.78053 100.871
5.8252 101.214
5.86988 104.263
5.91455 110.483
5.95924 130.137
6.00392 334.347
6.0486 1475.65
6.09328 3243.31
6.13795 3770.63
6.18263 485.499
6.22733 116.359
6.27201 90.9343
6.3167 81.6116
6.36138 76.4851
6.40606 72.4494
6.45075 70.5875
6.49545 68.0208
6.54014 66.2283
6.58483 64.4407
6.62952 63.5395
6.67421 62.4828
6.71892 61.0431
6.76361 60.4786
6.8083 59.4695
6.853 58.6027
6.89769 58.27
6.94239 57.9179
6.98711 56.9295
7.03181 56.4322
7.07651 56.6119
7.12121 55.9457
7.16591 55.9548
7.21063 55.2614
7.25533 55.3515
7.30004 55.1861
7.34475 55.5077
7.38945 55.2782
7.43416 55.0551
7.47889 55.2283
7.5236 59.0074
7.56831 62.4329
7.61303 57.428
7.65774 56.7114
7.70247 57.4325
7.74719 57.975
7.79191 58.2343
7.83663 58.9557
7.88135 59.5722
7.92607 60.5
7.97081 61.9317
8.01553 62.9511
8.06026 64.4704
8.10498 66.2147
8.14971 68.1708
8.19446 69.9607
8.23919 72.0536
8.28392 75.6362
8.32865 77.9321
8.37339 83.2321
8.41812 89.5841
8.46288 102.338
8.50761 211.068
8.55235 629.969
8.59709 1003.68
8.64183 1730.71
8.68658 1372.41
8.73134 280.759
8.77609 114.849
8.82083 100.656
8.86558 95.5872
8.91033 92.7287
8.9551 90.4712
8.99985 89.2307
9.04461 88.1758
9.08936 87.2666
9.13412 86.3603
9.17888 86.6096
9.22365 91.3486
9.26841 95.5782
9.31318 89.2069
9.35794 87.2196
9.4027 87.6636
9.44749 88.1819
9.49226 89.3663
9.53703 90.237
9.5818 91.9086
9.62657 93.0176
9.67134 94.7386
9.71614 96.8024
9.76091 99.3524
9.80569 101.993
9.85047 105.507
9.89525 111.156
9.94005 122.919
9.98484 225.476
10.0296 566.134
10.0744 789.848
10.1192 1249.14
10.164 1698.0
10.2088 725.874
10.2536 172.512
10.2984 119.192
10.3432 113.032
10.388 110.347
10.4328 137.087
10.4776 224.909
10.5224 280.077
10.5672 392.121
10.612 519.858
10.6568 302.798
10.7017 118.39
10.7465 93.5107
10.7913 88.2241
10.8361 85.3537
10.8809 82.3783
10.9257 80.0193
10.9706 79.0513
11.0154 76.9703
11.0602 75.8206
11.105 74.3019
11.1499 72.741
11.1947 71.54
11.2395 70.7628
11.2844 70.0851
11.3292 69.3287
11.374 68.5227
11.4189 67.9592
11.4637 67.3293
11.5086 66.4305
11.5534 66.2083
11.5983 65.6933
11.6431 66.0077
11.688 65.2244
11.7328 65.2054
11.7777 64.6425
11.8225 64.8192
11.8674 64.9339
11.9122 66.1031
11.9571 68.2153
12.002 68.0283
12.0468 73.3662
12.0917 96.0533
12.1366 111.74
12.1814 132.05
12.2263 172.117
12.2712 191.301
12.3161 117.466
12.3609 72.4711
12.4058 67.0853
12.4507 66.934
12.4956 66.9018
12.5405 66.8716
12.5853 67.4625
12.6302 67.4879
12.6751 68.5164
12.72 69.0554
12.7649 70.5073
12.8098 70.9411
12.8547 72.6666
12.8996 74.0866
12.9445 75.5991
12.9894 77.5189
13.0343 79.8881
13.0792 84.2247
13.1242 94.4763
13.1691 145.381
13.214 189.17
13.2589 221.407
13.3038 285.461
13.3487 388.214
13.3937 338.84
13.4386 166.45
13.4835 122.376
13.5285 159.78
13.5734 184.146
13.6183 212.119
13.6633 274.611
13.7082 344.562
13.7531 260.796
13.7981 126.397
13.843 88.4111
13.888 84.1078
13.9329 81.4274
13.9779 79.8262
14.0228 78.2698
14.0678 76.5892
14.1127 76.3081
14.1577 76.6103
14.2027 75.5012
14.2476 73.935
14.2926 73.1209
14.3376 72.7188
14.3825 72.5874
14.4275 71.9823
14.4725 72.0543
14.5175 72.1713
14.5624 72.2138
14.6074 72.4387
14.6524 72.8051
14.6974 73.8512
14.7424 75.9592
14.7874 88.8906
14.8324 110.855
14.8774 123.084
14.9224 137.613
14.9674 168.41
15.0124 207.838
15.0574 186.441
15.1024 115.794
15.1474 79.1408
15.1924 73.8629
15.2374 72.275
15.2824 71.0594
15.3274 70.225
15.3725 69.8034
15.4175 69.7199
15.4625 69.1233
15.5076 68.96
15.5526 68.9531
15.5976 69.0913
15.6426 70.3384
15.6877 80.5963
15.7327 98.6293
15.7778 108.402
15.8228 118.346
15.8679 139.726
15.9129 171.543
15.958 178.651
16.003 128.308
16.0481 79.1946
16.0931 66.8912
16.1382 64.1262
16.1833 63.0104
16.2283 61.6339
16.2734 60.7791
16.3185 60.0042
16.3636 59.4011
16.4086 58.6105
16.4537 58.2944
16.4988 57.7171
16.5439 57.8531
16.589 57.433
16.6341 57.029
16.6792 56.714
16.7243 56.8143
16.7694 56.8806
16.8145 56.9051
16.8596 57.0365
16.9047 57.2827
16.9498 57.532
16.9949 57.6129
17.04 58.1177
17.0851 60.3761
17.1302 63.9173
17.1754 66.6001
17.2205 68.0304
17.2656 71.3347
17.3108 77.8867
17.3559 83.1467
17.401 79.4778
17.4462 68.9007
17.4913 62.7678
17.5365 61.7612
17.5815 61.8559
17.6268 62.2704
17.6718 62.8199
17.7171 63.1339
17.7622 64.1482
17.8074 64.9034
17.8525 67.6331
17.8977 76.8609
17.9428 85.8162
17.9881 89.8031
18.0331 96.0281
18.0784 106.916
18.1237 126.203
18.1688 143.1
18.214 128.922
18.2591 100.155
18.3044 89.0016
18.3495 92.2051
18.3948 101.466
18.4399 102.752
18.4852 88.6546
18.5303 72.5353
18.5756 66.0369
18.6207 64.033
18.666 63.1407
18.7112 62.3335
18.7565 61.6359
18.8016 61.1355
18.8469 60.7395
18.892 60.178
18.9374 59.8131
18.9825 59.3747
19.0278 59.3973
19.073 59.3084
19.1183 60.0666
19.1635 62.1957
19.2088 63.6984
19.254 64.6311
19.2993 66.1607
19.3447 68.7254
19.3898 73.2849
19.4352 75.1927
19.4804 70.0777
19.5257 62.1095
19.5709 57.2625
19.6163 56.4005
19.6615 56.0331
19.7068 55.6228
19.752 55.752
19.7974 55.927
19.8426 57.4693
19.888 59.0719
19.9332 59.8821
19.9786 60.9477
20.0238 62.1353
20.0692 65.8783
20.1144 70.5644
20.1598 73.1056
20.205 69.4576
20.2504 65.0842
20.2957 63.1517
20.3411 64.5883
20.3863 66.4917
20.4318 63.4992
20.477 58.0924
20.5224 54.1474
20.5677 52.8199
20.6131 52.4322
20.6586 51.8614
20.7038 51.5934
20.7493 51.2436
20.7945 51.2615
20.84 50.968
20.8853 50.9301
20.9307 50.7309
20.976 51.205
21.0215 51.0728
21.0668 51.3053
21.1122 51.2878
21.1575 51.5402
21.203 51.8239
21.2483 52.5023
21.2938 53.2843
21.3391 52.7563
21.3846 51.6957
21.4299 50.8241
21.4754 50.7549
21.5207 50.5352
21.5662 50.9816
21.6116 51.7391
21.6571 53.5117
21.7024 54.5416
21.7479 55.4583
21.7933 56.395
21.8388 58.5155
21.8843 61.3426
21.9297 64.6829
21.9752 66.4425
22.0206 64.1407
22.0661 59.4027
22.1115 57.0254
22.157 57.3036
22.2024 57.4762
22.248 55.0858
22.2933 52.7861
22.3389 51.2982
22.3843 50.9995
22.4299 50.6735
22.4753 50.6647
22.5208 50.6726
22.5662 50.5406
22.6118 50.8566
22.6572 51.1967
22.7028 52.2058
22.7483 52.959
22.7939 53.2583
22.8393 53.8879
22.8849 54.6692
22.9303 55.7194
22.9759 57.5177
23.0214 58.8327
23.067 58.1878
23.1126 55.0661
23.1581 52.3011
23.2037 51.0723
23.2492 50.8939
23.2948 51.5076
23.3403 52.3629
23.3859 52.9041
23.4314 52.9526
23.477 53.4523
23.5225 54.5491
23.5682 55.7695
23.6137 57.9574
23.6593 58.5148
23.7048 56.0923
23.7505 52.3799
23.796 49.4491
23.8417 48.3273
23.8872 47.5956
23.9329 47.3745
23.9784 46.7571
24.0241 46.7317
24.0697 46.3649
24.1154 45.9606
24.1609 45.8256
24.2066 45.6597
24.2522 45.5902
24.2979 45.2405
24.3434 45.2686
24.3892 44.9845
24.4349 44.8842
24.4805 44.8046
24.5262 44.7759
24.5718 44.5426
24.6175 44.6848
24.6631 44.6591
24.7089 44.2805
24.7545 44.0944
24.8002 44.0935
24.8458 44.203
24.8916 44.1105
24.9372 44.0862
24.983 44.4027
25.0286 44.6922
25.0744 45.0727
25.12 45.3225
25.1658 45.7909
25.2114 46.1317
25.2572 46.1036
25.3029 45.9128
25.3487 45.8644
25.3943 46.0328
25.4402 45.7327
25.4858 44.9554
25.5316 43.637
25.5773 42.7439
25.6231 42.5769
25.669 42.133
25.7147 42.2046
25.7605 42.1361
25.8062 42.3593
25.8521 42.3551
25.8977 42.1481
25.9436 42.4858
25.9893 42.3682
26.0352 42.6721
26.0809 42.6747
26.1268 43.0088
26.1725 43.2264
26.2184 42.8209
26.2641 42.3059
26.31 42.0261
26.3557 42.0962
26.4017 41.8656
26.4474 42.1186
26.4933 42.2463
26.5391 42.5232
26.585 42.7436
26.6308 43.0719
26.6767 43.3169
26.7225 43.6105
26.7684 43.2709
26.8142 42.6847
26.8601 42.1101
26.9059 41.8211
26.9519 41.3355
26.9979 40.9649
27.0437 40.5238
27.0896 40.2714
27.1354 40.4411
27.1814 40.2053
27.2272 40.1632
27.2732 40.0514
27.3191 39.8918
27.3651 39.9251
27.4109 39.8029
27.4569 39.9277
27.5027 40.0295
27.5488 40.0638
27.5946 39.8308
27.6407 39.8141
27.6865 39.7838
27.7326 39.5895
27.7784 39.6066
27.8245 39.4362
27.8703 39.5509
27.9164 39.7034
27.9623 39.7223
28.0084 39.9525
28.0543 40.1073
28.1003 40.1731
28.1462 40.2582
28.1923 39.9225
28.2384 39.7102
28.2843 39.1344
28.3304 38.8356
28.3764 38.3858
28.4225 38.0128
28.4684 37.6794
28.5145 37.4163
28.5605 37.2382
28.6066 37.0405
28.6526 37.0336
28.6987 37.107
28.7447 36.7092
28.7908 36.7575
28.8368 36.6953
28.8829 36.6426
28.9289 36.6335
28.9751 36.4992
29.0211 36.4637
29.0673 36.1438
29.1133 35.9945
29.1595 35.8506
29.2055 35.6852
29.2517 35.5882
29.2977 35.4159
29.3439 35.5132
29.3899 35.3778
29.4361 35.4806
29.4824 35.2671
29.5284 35.1595
29.5746 34.8015
29.6207 34.4605
29.6669 34.5087
29.713 34.1674
29.7593 34.1893
29.8053 34.1573
29.8516 34.1297
29.8977 33.99
29.9439 33.8477
29.99 33.8365
30.0363 33.6407
30.0824 33.8244
30.1287 33.5537
30.1748 33.6423
30.2211 33.598
30.2673 33.5699
30.3136 33.7456
30.3597 33.6179
30.406 33.512
30.4522 33.3134
30.4985 33.3136
30.5447 33.3234
30.591 33.242
30.6372 33.229
30.6835 33.181
30.7297 33.3651
30.7761 33.388
30.8224 33.3175
30.8686 33.0894
30.915 32.948
30.9612 32.8243
31.0076 32.5969
31.0538 32.4598
31.1002 32.3141
31.1464 32.1669
31.1928 32.1094
31.2391 32.1772
31.2855 32.0311
31.3317 32.0152
31.3781 32.0247
31.4244 31.9786
31.4708 31.884
31.5171 31.9709
31.5636 31.9025
31.6098 31.8234
31.6563 31.6309
31.7026 31.3523
31.7491 31.2922
31.7953 31.284
31.8418 31.2676
31.8881 31.2651
31.9346 31.1331
31.9809 31.0629
32.0275 31.0177
32.074 31.0035
32.1203 30.8221
32.1668 30.6998
32.2132 30.479
32.2597 30.3475
32.306 30.2762
32.3526 30.1376
32.399 30.053
32.4455 29.9009
32.4919 29.785
32.5385 29.7526
32.5848 29.5722
32.6314 29.5452
32.6778 29.5799
32.7244 29.3876
32.7708 29.241
32.8174 29.3052
32.8638 29.1135
32.9104 29.1367
32.9569 29.0522
33.0035 28.8846
33.0499 28.9373
33.0966 28.8287
33.143 28.7246
33.1897 28.7199
33.2361 28.6476
33.2828 28.6887
33.3293 28.4346
33.3759 28.4763
33.4226 28.28
33.4691 28.2547
33.5158 28.0557
33.5623 27.9691
33.609 27.7957
33.6555 27.738
33.7022 27.7127
33.7487 27.5458
33.7954 27.4687
33.842 27.3017
33.8887 27.3791
33.9353 27.2257
33.982 27.2088
34.0286 27.069
34.0753 26.9842
34.1219 26.8692
34.1687 26.745
34.2152 26.8029
34.262 26.6183
34.3086 26.5433
34.3554 26.4884
34.402 26.4173
34.4488 26.3119
34.4954 26.1904
34.5422 26.162
34.5889 26.0382
34.6357 25.8571
34.6825 25.9149
34.7292 25.7739
34.776 25.6566
34.8227 25.6216
34.8695 25.5531
34.9162 25.5218
34.9631 25.3591
35.0098 25.4425
35.0566 25.3153
35.1033 25.2066
35.1502 25.1798
35.1969 25.0409
35.2438 25.0431
35.2906 24.9943
35.3375 25.0393
35.3842 24.8071
35.4311 24.8232
35.4779 24.8787
35.5248 24.7676
35.5716 24.5724
35.6185 24.5178
35.6653 24.501
35.7123 24.4081
35.759 24.3599
35.806 24.2671
35.8528 24.0824
35.8998 24.0354
35.9468 23.9494
35.9936 23.9167
36.0406 23.8076
36.0874 23.8329
36.1345 23.7465
36.1813 23.6806
36.2283 23.5431
36.2752 23.4772
36.3222 23.5219
36.3691 23.4225
36.4161 23.2895
36.463 23.2756
36.5101 23.2581
36.557 23.128
36.6041 23.0491
36.651 22.9479
36.6981 22.9437
36.745 22.8789
36.7921 22.7571
36.839 22.691
36.8861 22.6143
36.9331 22.5377
36.9802 22.4946
37.0272 22.3937
37.0743 22.2841
37.1213 22.2553
37.1684 22.1822
37.2154 22.1315
37.2626 22.0086
37.3098 21.9705
37.3568 21.9251
37.404 21.8754
37.451 21.781
37.4982 21.7108
37.5452 21.6489
37.5924 21.5721
37.6395 21.6254
37.6867 21.4599
37.7337 21.3394
37.781 21.3267
37.8281 21.2427
37.8753 21.1422
37.9224 21.1194
37.9697 21.0048
38.0168 20.8519
38.064 20.8846
38.1111 20.9006
38.1584 20.7618
38.2056 20.6458
38.2529 20.6469
38.3 20.5321
38.3473 20.4817
38.3945 20.454
38.4418 20.3237
38.489 20.3271
38.5363 20.29
38.5837 20.1729
38.6309 20.1227
38.6782 20.036
38.7254 19.9672
38.7728 19.8819
38.82 19.8817
38.8674 19.812
38.9146 19.7398
38.9621 19.6383
39.0093 19.6393
39.0567 19.6137
39.104 19.4273
39.1514 19.42
39.1987 19.383
39.2461 19.3288
39.2934 19.2451
39.3409 19.0898
39.3882 19.1452
39.4356 19.0521
39.483 18.8996
39.5304 18.9019
39.5778 18.8802
39.6253 18.8798
39.6726 18.7567
39.7201 18.7071
39.7675 18.6196
39.815 18.5746
39.8624 18.4999
39.9099 18.4677
39.9575 18.3399
40.0049 18.3967
40.0525 18.3174
40.0999 18.1876
40.1474 18.1903
40.1949 18.0444
40.2425 17.99
40.2899 18.037
40.3375 17.9484
40.385 17.8973
40.4326 17.8283
40.48 17.7808
40.5277 17.6709
40.5752 17.734
40.6228 17.6237
40.6703 17.5029
40.718 17.4949
40.7655 17.4575
40.8132 17.3926
40.8607 17.2864
40.9084 17.2855
40.9559 17.2272
41.0036 17.2403
41.0512 17.1258
41.0989 17.1148
41.1465 16.9631
41.1942 16.9692
41.242 16.8622
41.2896 16.8061
41.3373 16.8185
41.3849 16.7212
41.4327 16.6797
41.4803 16.5241
41.5281 16.5339
41.5758 16.4488
41.6236 16.3646
41.6712 16.3533
41.7191 16.28
41.7667 16.2305
41.8146 16.2328
41.8622 16.1403
41.9101 16.0614
41.9578 16.0026
42.0057 15.9596
42.0534 15.8967
42.1013 15.8993
42.149 15.8571
42.1969 15.7938
42.2446 15.739
42.2925 15.7184
42.3403 15.599
42.3882 15.5796
42.436 15.4883
42.4839 15.4139
42.5319 15.4553
42.5797 15.3535
42.6277 15.3596
42.6755 15.2998
42.7235 15.1884
42.7713 15.2166
42.8193 15.1081
42.8671 15.0918
42.9152 15.0116
42.963 14.9043
43.0111 14.8599
43.0589 14.7855
43.107 14.7819
43.1549 14.6941
43.2029 14.761
43.2508 14.644
43.2989 14.5745
43.3468 14.5337
43.3949 14.4777
43.4429 14.4254
43.491 14.3518
43.5389 14.333
43.5871 14.2498
43.635 14.195
43.6832 14.2226
43.7312 14.0948
43.7793 14.0293
43.8273 14.0386
43.8755 13.9802
43.9237 14.0139
43.9717 13.9075
44.0199 13.8552
44.068 13.7739
44.1162 13.7438
44.1642 13.7468
44.2125 13.6443
44.2606 13.5972
44.3088 13.567
44.3569 13.5311
44.4052 13.4781
44.4533 13.4304
44.5016 13.3459
44.5497 13.3517
44.598 13.2799
44.6461 13.275
44.6945 13.2088
44.7426 13.1567
44.791 13.0367
44.8391 13.0272
44.8875 12.9629
44.9357 12.9461
44.984 12.9233
45.0322 12.8751
45.0806 12.7838
45.1288 12.803
45.1773 12.781
45.2257 12.7087
45.2739 12.6518
45.3224 12.604
45.3706 12.5747
45.4191 12.4824
45.4673 12.456
45.5158 12.4255
45.5641 12.3981
45.6126 12.2807
45.6609 12.2604
45.7094 12.2202
45.7577 12.2118
45.8063 12.1227
45.8546 12.1182
45.9031 12.0763
45.9515 12.0096
46.0001 11.9469
46.0484 11.9431
46.097 11.8698
46.1454 11.8762
46.194 11.8616
46.2424 11.7515
46.291 11.7371
46.3395 11.6625
46.3881 11.6186
46.4365 11.6282
46.4852 11.5504
46.5337 11.4829
46.5823 11.5049
46.631 11.42
46.6795 11.3756
46.7282 11.3425
46.7767 11.3147
46.8254 11.1999
46.8739 11.216
46.9226 11.1426
46.9712 11.1463
47.0199 11.1125
47.0685 11.0402
47.1173 10.9845
47.1658 10.9825
47.2146 10.9545
47.2632 10.8535
47.312 10.8357
47.3606 10.811
47.4095 10.7468
47.4581 10.7448
47.5069 10.6789
47.5556 10.6509
47.6044 10.5601
47.6531 10.5593
47.702 10.5061
47.7507 10.4822
47.7996 10.423
47.8483 10.4113
47.8972 10.373
47.9461 10.3433
47.9948 10.3149
48.0438 10.2406
48.0925 10.2425
48.1415 10.2131
48.1902 10.1265
48.2392 10.0961
48.288 10.0609
48.337 10.0683
48.3858 10.0165
48.4348 9.94702
48.4837 9.95805
48.5327 9.89145
48.5815 9.84244
48.6306 9.84161
48.6795 9.79584
48.7285 9.74277
48.7774 9.75719
48.8265 9.72844
48.8754 9.65214
48.9245 9.60108
48.9734 9.61024
49.0226 9.55176
49.0715 9.51702
49.1206 9.44952
49.1696 9.42754
49.2188 9.41296
49.2679 9.35719
49.3169 9.31158
49.3661 9.26586
49.4151 9.2601
49.4643 9.24215
49.5134 9.21231
49.5626 9.14577
49.6117 9.12029
49.6609 9.09125
49.71 9.07708
49.7592 9.04469
49.8083 8.92159
49.8576 8.96715
49.9067 8.91095
49.956 8.87904
50.0052 8.83219
50.0545 8.79548
50.1036 8.77092
50.153 8.718
50.2022 8.74208
50.2515 8.66568
50.3007 8.61689
50.3501 8.55386
50.3993 8.57772
50.4487 8.5531
50.498 8.47961
50.5474 8.4839
50.5966 8.42026
50.6461 8.39542
50.6955 8.37129
50.7448 8.32826
50.7943 8.32495
50.8436 8.26527
50.8931 8.27067
50.9424 8.19191
50.9919 8.20346
51.0413 8.16955
51.0908 8.11827
51.1402 8.08837
51.1897 8.0558
51.2391 8.0381
51.2887 8.0003
51.3381 7.943
51.3877 7.94536
51.4371 7.92252
51.4867 7.85323
51.5362 7.85713
51.5858 7.80255
51.6353 7.72726
51.6849 7.73202
51.7344 7.68965
51.7841 7.68447
51.8336 7.64531
51.8833 7.63302
51.9328 7.54256
51.9826 7.50359
52.0323 7.48691
52.0818 7.46783
52.1316 7.42747
52.1812 7.41497
52.231 7.37243
52.2806 7.376
52.3304 7.34447
52.38 7.29171
52.4298 7.28208
52.4794 7.1866
52.5293 7.20149
52.5789 7.19709
52.6288 7.12459
52.6785 7.07184
52.7284 7.05778
52.7781 7.10476
52.828 7.01143
52.8777 6.98438
52.9276 6.94359
52.9774 6.93323
53.0273 6.90853
53.0771 6.88736
53.1271 6.86242
53.1769 6.79979
53.2269 6.81011
53.2767 6.79425
53.3267 6.78822
53.3765 6.69504
53.4266 6.68669
53.4766 6.67581
53.5265 6.62814
53.5765 6.62213
53.6264 6.5801
53.6765 6.54378
53.7264 6.49492
53.7765 6.52332
53.8265 6.43064
53.8766 6.44304
53.9266 6.37794
53.9767 6.35964
54.0267 6.32047
54.0769 6.27853
54.1269 6.26708
54.1771 6.19552
54.2271 6.21837
54.2773 6.14293
54.3274 6.12177
54.3776 6.07486
54.4277 6.04451
54.478 5.96035
54.528 5.94489
54.5783 5.93211
54.6285 5.87193
54.6788 5.84143
54.7289 5.79933
54.7792 5.74032
54.8296 5.73795
54.8798 5.62797
54.9301 5.64359
54.9803 5.5505
55.0307 5.52986
55.0809 5.53596
55.1314 5.52946
55.1816 5.39735
55.232 5.34976
55.2823 5.3246
55.3328 5.19613
55.383 5.14451
55.4335 5.16303
55.4838 5.05856
55.5344 5.05689
55.5847 4.99082
55.6352 5.01742
55.6856 4.97632
55.7361 4.91352