File: XRD/Ni3Fe_FD0453.xy
TT I
1.27165 8.18361
1.31627 7.34864
1.36089 6.36014
1.40551 6.1787
1.45013 5.87236
1.49476 5.66304
1.53938 5.76132
1.584 5.17449
1.62863 6.20407
1.67325 5.02389
1.71787 5.24037
1.7625 4.64536
1.80712 4.70937
1.85174 4.52594
1.89636 4.75238
1.94099 5.07469
1.98562 4.75865
2.03025 4.64525
2.07487 4.50529
2.11949 4.69536
2.16411 4.92511
2.20874 11.6918
2.25338 15.7226
2.298 5.49646
2.34263 5.31719
2.38725 5.38306
2.43188 5.169
2.4765 6.49618
2.52115 6.79987
2.56577 7.13108
2.6104 7.0896
2.65503 7.01552
2.69965 7.43893
2.7443 7.77172
2.78893 7.34851
2.83356 8.32115
2.87818 8.2614
2.92281 9.05794
2.96744 9.45429
3.01209 10.4698
3.05672 11.478
3.10135 12.4415
3.14599 13.2719
3.19062 13.7827
3.23527 14.6843
3.2799 15.4339
3.32454 16.899
3.36917 17.8864
3.4138 18.8949
3.45844 19.8641
3.50309 20.9787
3.54773 21.3565
3.59237 23.3194
3.637 65.9277
3.68164 44.393
3.7263 26.1294
3.77094 26.0956
3.81558 26.6098
3.86022 27.5689
3.90486 28.6426
3.9495 29.5293
3.99416 31.2476
4.0388 32.5529
4.08344 33.4963
4.12809 35.3178
4.17273 36.8412
4.21738 41.2295
4.26204 169.472
4.30669 143.399
4.35133 46.2539
4.39598 44.2966
4.44063 50.9695
4.4853 58.4807
4.52995 51.8003
4.5746 52.6149
4.61925 54.2668
4.6639 56.3754
4.70855 58.8791
4.75322 62.1713
4.79788 65.2176
4.84253 68.839
4.88719 73.2231
4.93184 77.1461
4.97652 83.1505
5.02118 89.8324
5.06583 98.5804
5.11049 112.011
5.15515 168.534
5.19981 506.861
5.24449 3430.48
5.28916 11801.7
5.33382 3025.63
5.37848 203.874
5.42315 134.179
5.46783 117.137
5.5125 108.99
5.55716 104.376
5.60183 100.705
5.6465 98.4096
5.69117 96.5226
5.73586 94.7279
5.78053 95.2778
5.8252 94.6805
5.86988 96.3473
5.91455 98.6709
5.95924 111.087
6.00392 281.153
6.0486 1185.27
6.09328 4246.1
6.13795 3382.91
6.18263 268.981
6.22733 96.6847
6.27201 84.0405
6.3167 93.1484
6.36138 77.785
6.40606 70.2936
6.45075 68.4742
6.49545 66.2782
6.54014 64.6592
6.58483 63.5074
6.62952 63.1141
6.67421 81.1421
6.71892 110.56
6.76361 65.3441
6.8083 58.9953
6.853 58.3233
6.89769 57.3348
6.94239 57.2459
6.98711 56.2289
7.03181 56.1654
7.07651 56.089
7.12121 55.5403
7.16591 56.1194
7.21063 55.5713
7.25533 65.2181
7.30004 128.121
7.34475 77.707
7.38945 56.4133
7.43416 55.1103
7.47889 54.922
7.5236 55.1101
7.56831 55.7253
7.61303 57.3144
7.65774 57.3926
7.70247 56.724
7.74719 56.7213
7.79191 57.7331
7.83663 57.6722
7.88135 58.483
7.92607 59.7423
7.97081 60.6158
8.01553 61.3162
8.06026 63.2502
8.10498 64.8759
8.14971 71.8327
8.19446 71.1789
8.23919 70.2442
8.28392 73.5103
8.32865 75.3476
8.37339 80.4178
8.41812 86.5668
8.46288 111.255
8.50761 204.534
8.55235 461.962
8.59709 1230.23
8.64183 2119.91
8.68658 995.283
8.73134 171.122
8.77609 101.92
8.82083 94.6868
8.86558 91.2687
8.91033 90.8501
8.9551 90.9406
8.99985 86.4701
9.04461 84.8446
9.08936 84.4603
9.13412 83.4983
9.17888 83.2932
9.22365 83.8593
9.26841 83.1631
9.31318 84.4443
9.35794 84.8055
9.4027 84.9468
9.44749 85.7361
9.49226 86.2078
9.53703 87.3733
9.5818 89.5933
9.62657 92.763
9.67134 97.1106
9.71614 94.8812
9.76091 96.0288
9.80569 98.6798
9.85047 102.399
9.89525 118.922
9.94005 135.993
9.98484 216.411
10.0296 406.373
10.0744 875.029
10.1192 1694.87
10.164 1627.02
10.2088 415.534
10.2536 129.553
10.2984 113.757
10.3432 112.986
10.388 107.534
10.4328 130.52
10.4776 177.996
10.5224 298.608
10.5672 493.302
10.612 498.874
10.6568 204.606
10.7017 98.1477
10.7465 88.1914
10.7913 84.4017
10.8361 82.5453
10.8809 80.2208
10.9257 79.2483
10.9706 79.05
11.0154 75.7373
11.0602 73.6917
11.105 72.6748
11.1499 74.7337
11.1947 78.9429
11.2395 73.0698
11.2844 70.3258
11.3292 68.0305
11.374 66.915
11.4189 66.444
11.4637 65.7888
11.5086 65.8773
11.5534 67.319
11.5983 65.68
11.6431 64.6187
11.688 63.7403
11.7328 63.7001
11.7777 63.8243
11.8225 63.4991
11.8674 63.3873
11.9122 63.8077
11.9571 63.9677
12.002 65.4048
12.0468 71.7851
12.0917 83.9501
12.1366 108.866
12.1814 155.683
12.2263 203.932
12.2712 172.665
12.3161 93.7213
12.3609 69.6182
12.4058 65.5689
12.4507 65.3303
12.4956 65.3154
12.5405 65.2668
12.5853 66.4859
12.6302 70.9308
12.6751 74.5091
12.72 69.6693
12.7649 68.9113
12.8098 69.4276
12.8547 70.8022
12.8996 72.1841
12.9445 73.639
12.9894 75.5657
13.0343 77.4862
13.0792 81.4774
13.1242 95.8986
13.1691 122.338
13.214 162.411
13.2589 249.41
13.3038 362.254
13.3487 419.4
13.3937 266.015
13.4386 125.559
13.4835 113.579
13.5285 130.421
13.5734 170.466
13.6183 251.526
13.6633 338.644
13.7082 338.868
13.7531 190.148
13.7981 98.0355
13.843 82.9774
13.888 80.7799
13.9329 78.32
13.9779 77.0459
14.0228 75.4199
14.0678 74.364
14.1127 73.6182
14.1577 73.2443
14.2027 72.5883
14.2476 71.4102
14.2926 71.334
14.3376 72.0366
14.3825 70.9457
14.4275 69.9657
14.4725 69.7452
14.5175 70.1527
14.5624 70.1922
14.6074 71.6295
14.6524 72.4296
14.6974 71.7387
14.7424 75.1259
14.7874 83.4347
14.8324 95.2254
14.8774 117.523
14.9224 157.116
14.9674 202.402
15.0124 216.834
15.0574 149.749
15.1024 91.2908
15.1474 73.397
15.1924 71.13
15.2374 71.2891
15.2824 70.3233
15.3274 68.94
15.3725 67.9554
15.4175 67.2447
15.4625 67.1176
15.5076 67.0574
15.5526 67.3102
15.5976 67.0419
15.6426 69.5311
15.6877 76.4277
15.7327 84.7434
15.7778 100.87
15.8228 130.672
15.8679 168.555
15.9129 192.252
15.958 157.143
16.003 96.927
16.0481 69.0017
16.0931 64.7852
16.1382 62.9629
16.1833 61.3349
16.2283 59.7038
16.2734 59.1255
16.3185 59.1733
16.3636 59.2252
16.4086 58.0455
16.4537 56.9073
16.4988 56.4079
16.5439 56.2292
16.589 55.9883
16.6341 55.7501
16.6792 55.4418
16.7243 55.625
16.7694 55.9599
16.8145 55.7362
16.8596 55.9152
16.9047 56.8708
16.9498 57.2756
16.9949 56.6449
17.04 56.7869
17.0851 58.5164
17.1302 60.2552
17.1754 63.6397
17.2205 68.417
17.2656 75.0542
17.3108 82.069
17.3559 82.4877
17.401 71.9206
17.4462 62.9543
17.4913 60.0696
17.5365 60.0599
17.5815 60.1666
17.6268 60.6598
17.6718 61.379
17.7171 61.9683
17.7622 62.5081
17.8074 63.3641
17.8525 66.9695
17.8977 71.1353
17.9428 76.7648
17.9881 86.3999
18.0331 102.653
18.0784 121.278
18.1237 139.453
18.1688 133.361
18.214 105.582
18.2591 88.848
18.3044 91.6113
18.3495 100.191
18.3948 106.65
18.4399 97.5497
18.4852 78.343
18.5303 66.7497
18.5756 63.2246
18.6207 62.3068
18.666 61.4131
18.7112 60.5893
18.7565 59.8434
18.8016 59.4968
18.8469 59.0003
18.892 58.6417
18.9374 58.0792
18.9825 57.9309
19.0278 57.8695
19.073 58.1727
19.1183 58.6783
19.1635 59.4952
19.2088 61.0002
19.254 63.5315
19.2993 67.5952
19.3447 72.6742
19.3898 76.7163
19.4352 73.1576
19.4804 64.2205
19.5257 57.5182
19.5709 54.8631
19.6163 54.6231
19.6615 54.6423
19.7068 54.19
19.752 54.2953
19.7974 54.6521
19.8426 55.5706
19.888 56.3584
19.9332 57.609
19.9786 60.3376
20.0238 63.6665
20.0692 67.9078
20.1144 70.8538
20.1598 69.3692
20.205 64.8452
20.2504 63.0169
20.2957 64.4306
20.3411 66.2698
20.3863 64.6996
20.4318 58.9366
20.477 54.2698
20.5224 52.313
20.5677 51.676
20.6131 51.1085
20.6586 50.6151
20.7038 50.1439
20.7493 49.6645
20.7945 49.8041
20.84 49.7129
20.8853 49.414
20.9307 49.489
20.976 49.5837
21.0215 49.3006
21.0668 49.8601
21.1122 50.4365
21.1575 50.9134
21.203 51.6183
21.2483 52.2615
21.2938 52.5299
21.3391 50.869
21.3846 49.8864
21.4299 49.2476
21.4754 49.178
21.5207 49.3086
21.5662 49.8479
21.6116 50.3717
21.6571 50.981
21.7024 52.1071
21.7479 54.0058
21.7933 56.6784
21.8388 59.7968
21.8843 63.2488
21.9297 65.3983
21.9752 64.2397
22.0206 60.4637
22.0661 57.2537
22.1115 56.6032
22.157 56.7448
22.2024 55.1503
22.248 52.5054
22.2933 50.6194
22.3389 49.9519
22.3843 49.74
22.4299 49.6188
22.4753 49.6507
22.5208 49.4794
22.5662 49.2096
22.6118 49.5775
22.6572 49.8409
22.7028 50.2457
22.7483 50.7492
22.7939 51.6097
22.8393 53.1658
22.8849 54.8831
22.9303 56.8093
22.9759 58.3436
23.0214 58.2817
23.067 55.4429
23.1126 51.8563
23.1581 50.028
23.2037 49.6527
23.2492 49.7812
23.2948 49.8248
23.3403 50.1611
23.3859 50.7909
23.4314 52.0619
23.477 53.6077
23.5225 55.3504
23.5682 57.3243
23.6137 58.4426
23.6593 56.4145
23.7048 52.5787
23.7505 49.0296
23.796 47.3253
23.8417 46.7869
23.8872 46.3783
23.9329 45.9122
23.9784 45.6063
24.0241 45.3509
24.0697 45.1936
24.1154 44.8178
24.1609 44.8293
24.2066 44.4865
24.2522 44.4297
24.2979 44.0228
24.3434 43.9108
24.3892 43.8792
24.4349 43.8444
24.4805 43.7091
24.5262 43.8371
24.5718 43.5977
24.6175 43.6362
24.6631 43.5315
24.7089 43.2472
24.7545 43.2524
24.8002 43.0037
24.8458 42.9963
24.8916 42.8291
24.9372 43.0216
24.983 43.3872
25.0286 43.539
25.0744 44.0014
25.12 44.5015
25.1658 45.059
25.2114 45.2991
25.2572 45.4669
25.3029 45.3768
25.3487 45.5357
25.3943 45.354
25.4402 44.2076
25.4858 43.1627
25.5316 42.0318
25.5773 41.5871
25.6231 41.5652
25.669 41.3558
25.7147 41.341
25.7605 41.1836
25.8062 41.2438
25.8521 41.3145
25.8977 41.3066
25.9436 41.5891
25.9893 41.6292
26.0352 42.1368
26.0809 42.1454
26.1268 42.499
26.1725 42.0513
26.2184 41.3839
26.2641 40.8696
26.31 40.8364
26.3557 40.7856
26.4017 40.8545
26.4474 41.3452
26.4933 41.4652
26.5391 41.9975
26.585 42.3611
26.6308 42.8004
26.6767 42.8437
26.7225 42.6486
26.7684 42.0038
26.8142 41.4474
26.8601 41.0341
26.9059 40.6956
26.9519 40.1638
26.9979 39.8763
27.0437 39.6267
27.0896 39.5199
27.1354 39.4395
27.1814 39.34
27.2272 39.174
27.2732 39.2405
27.3191 39.046
27.3651 39.0375
27.4109 39.0694
27.4569 39.1817
27.5027 39.1544
27.5488 39.2059
27.5946 39.1316
27.6407 38.9135
27.6865 38.8097
27.7326 38.4342
27.7784 38.5491
27.8245 38.5489
27.8703 38.7596
27.9164 38.9588
27.9623 39.1302
28.0084 39.3246
28.0543 39.6936
28.1003 39.6691
28.1462 39.3645
28.1923 38.9509
28.2384 38.5543
28.2843 38.1492
28.3304 37.656
28.3764 37.3179
28.4225 36.9962
28.4684 37.0046
28.5145 36.5949
28.5605 36.4301
28.6066 36.2589
28.6526 36.3453
28.6987 36.1163
28.7447 36.0783
28.7908 35.9661
28.8368 35.9563
28.8829 36.0637
28.9289 36.051
28.9751 35.607
29.0211 35.5438
29.0673 35.2316
29.1133 35.1365
29.1595 34.9476
29.2055 34.9116
29.2517 34.8526
29.2977 34.802
29.3439 34.8507
29.3899 34.7595
29.4361 34.5628
29.4824 34.6195
29.5284 34.2262
29.5746 33.9599
29.6207 33.6968
29.6669 33.5915
29.713 33.4677
29.7593 33.366
29.8053 33.3876
29.8516 33.3685
29.8977 33.2137
29.9439 33.1556
29.99 33.0649
30.0363 32.9677
30.0824 33.0515
30.1287 32.8743
30.1748 33.0526
30.2211 32.9798
30.2673 32.9826
30.3136 32.9228
30.3597 32.7994
30.406 32.7149
30.4522 32.7023
30.4985 32.4706
30.5447 32.6723
30.591 32.6399
30.6372 32.8202
30.6835 32.5302
30.7297 32.7669
30.7761 32.7095
30.8224 32.5549
30.8686 32.3834
30.915 32.1265
30.9612 32.0157
31.0076 31.7969
31.0538 31.6551
31.1002 31.6462
31.1464 31.5402
31.1928 31.3931
31.2391 31.4901
31.2855 31.3627
31.3317 31.3441
31.3781 31.4228
31.4244 31.3921
31.4708 31.2386
31.5171 31.3382
31.5636 31.2678
31.6098 31.0374
31.6563 30.8754
31.7026 30.7567
31.7491 30.625
31.7953 30.6643
31.8418 30.676
31.8881 30.5706
31.9346 30.5633
31.9809 30.4739
32.0275 30.4155
32.074 30.2196
32.1203 30.0937
32.1668 29.9724
32.2132 29.8834
32.2597 29.6347
32.306 29.6689
32.3526 29.5187
32.399 29.397
32.4455 29.2791
32.4919 29.1554
32.5385 29.1053
32.5848 28.8967
32.6314 28.9755
32.6778 28.8804
32.7244 28.857
32.7708 28.5799
32.8174 28.5775
32.8638 28.4542
32.9104 28.5373
32.9569 28.5185
33.0035 28.3136
33.0499 28.357
33.0966 28.1577
33.143 28.2071
33.1897 28.0977
33.2361 28.1049
33.2828 28.0504
33.3293 27.8498
33.3759 27.8763
33.4226 27.68
33.4691 27.5789
33.5158 27.4803
33.5623 27.3717
33.609 27.1883
33.6555 27.123
33.7022 27.1186
33.7487 26.945
33.7954 26.9315
33.842 26.7207
33.8887 26.7228
33.9353 26.7263
33.982 26.5872
34.0286 26.4037
34.0753 26.4215
34.1219 26.2906
34.1687 26.2517
34.2152 26.1539
34.262 26.0364
34.3086 25.9552
34.3554 25.8838
34.402 25.8417
34.4488 25.6685
34.4954 25.6415
34.5422 25.5989
34.5889 25.4507
34.6357 25.4064
34.6825 25.3144
34.7292 25.2763
34.776 25.0986
34.8227 25.0612
34.8695 25.0587
34.9162 25.0483
34.9631 24.8835
35.0098 24.9345
35.0566 24.7565
35.1033 24.7473
35.1502 24.7153
35.1969 24.5224
35.2438 24.532
35.2906 24.4767
35.3375 24.3891
35.3842 24.318
35.4311 24.3217
35.4779 24.3026
35.5248 24.2056
35.5716 24.1999
35.6185 23.9832
35.6653 23.9905
35.7123 23.8177
35.759 23.7398
35.806 23.7297
35.8528 23.614
35.8998 23.5187
35.9468 23.485
35.9936 23.4654
36.0406 23.3126
36.0874 23.4179
36.1345 23.2777
36.1813 23.1421
36.2283 23.0759
36.2752 22.9511
36.3222 23.0546
36.3691 22.9238
36.4161 22.8063
36.463 22.8093
36.5101 22.7542
36.557 22.6912
36.6041 22.5681
36.651 22.5924
36.6981 22.5081
36.745 22.4149
36.7921 22.3294
36.839 22.1901
36.8861 22.1144
36.9331 22.0708
36.9802 22.0676
37.0272 21.9661
37.0743 21.797
37.1213 21.8144
37.1684 21.7617
37.2154 21.6703
37.2626 21.5728
37.3098 21.518
37.3568 21.4306
37.404 21.3737
37.451 21.3016
37.4982 21.2437
37.5452 21.0723
37.5924 21.0691
37.6395 21.1603
37.6867 21.0575
37.7337 20.9327
37.781 20.8291
37.8281 20.7864
37.8753 20.7379
37.9224 20.7168
37.9697 20.6336
38.0168 20.4948
38.064 20.4201
38.1111 20.4187
38.1584 20.3394
38.2056 20.2637
38.2529 20.1944
38.3 20.1193
38.3473 20.1542
38.3945 20.0476
38.4418 20.0152
38.489 20.016
38.5363 19.8023
38.5837 19.7374
38.6309 19.723
38.6782 19.6634
38.7254 19.6141
38.7728 19.5318
38.82 19.3749
38.8674 19.4142
38.9146 19.378
38.9621 19.3131
39.0093 19.1734
39.0567 19.178
39.104 19.0583
39.1514 19.0087
39.1987 18.9979
39.2461 18.9384
39.2934 18.938
39.3409 18.703
39.3882 18.6754
39.4356 18.6275
39.483 18.6175
39.5304 18.5029
39.5778 18.5511
39.6253 18.4077
39.6726 18.4213
39.7201 18.398
39.7675 18.2825
39.815 18.1677
39.8624 18.1448
39.9099 18.112
39.9575 18.0168
40.0049 18.0231
40.0525 17.8914
40.0999 17.937
40.1474 17.7789
40.1949 17.7738
40.2425 17.715
40.2899 17.5977
40.3375 17.5773
40.385 17.5404
40.4326 17.4438
40.48 17.4359
40.5277 17.4001
40.5752 17.3225
40.6228 17.2428
40.6703 17.1846
40.718 17.1618
40.7655 17.1605
40.8132 16.9811
40.8607 16.9901
40.9084 16.9954
40.9559 16.8801
41.0036 16.823
41.0512 16.7606
41.0989 16.7633
41.1465 16.6379
41.1942 16.6147
41.242 16.5361
41.2896 16.5198
41.3373 16.427
41.3849 16.3163
41.4327 16.3396
41.4803 16.2085
41.5281 16.2336
41.5758 16.1822
41.6236 16.118
41.6712 16.0217
41.7191 15.9868
41.7667 15.8938
41.8146 15.899
41.8622 15.7731
41.9101 15.8493
41.9578 15.7225
42.0057 15.6303
42.0534 15.5924
42.1013 15.6125
42.149 15.5251
42.1969 15.4835
42.2446 15.4366
42.2925 15.3553
42.3403 15.3083
42.3882 15.2752
42.436 15.1951
42.4839 15.1428
42.5319 15.0869
42.5797 15.0843
42.6277 15.003
42.6755 14.9535
42.7235 14.895
42.7713 14.802
42.8193 14.8014
42.8671 14.7776
42.9152 14.7122
42.963 14.6764
43.0111 14.5937
43.0589 14.5103
43.107 14.4896
43.1549 14.4079
43.2029 14.3673
43.2508 14.3055
43.2989 14.2739
43.3468 14.2262
43.3949 14.1925
43.4429 14.1995
43.491 14.1023
43.5389 14.0323
43.5871 13.9925
43.635 13.9339
43.6832 13.8567
43.7312 13.7953
43.7793 13.7955
43.8273 13.7776
43.8755 13.7085
43.9237 13.6455
43.9717 13.6432
44.0199 13.6063
44.068 13.5237
44.1162 13.4554
44.1642 13.4551
44.2125 13.3869
44.2606 13.3131
44.3088 13.2662
44.3569 13.2569
44.4052 13.2255
44.4533 13.1761
44.5016 13.048
44.5497 13.0478
44.598 13.0118
44.6461 12.9613
44.6945 12.9383
44.7426 12.9229
44.791 12.83
44.8391 12.7809
44.8875 12.7047
44.9357 12.6791
44.984 12.6949
45.0322 12.5394
45.0806 12.5662
45.1288 12.5516
45.1773 12.4297
45.2257 12.4119
45.2739 12.3739
45.3224 12.3657
45.3706 12.2852
45.4191 12.2047
45.4673 12.2447
45.5158 12.1676
45.5641 12.097
45.6126 12.0845
45.6609 12.0334
45.7094 11.9976
45.7577 11.9292
45.8063 11.8738
45.8546 11.8874
45.9031 11.8063
45.9515 11.7727
46.0001 11.7628
46.0484 11.7159
46.097 11.6885
46.1454 11.654
46.194 11.5804
46.2424 11.4844
46.291 11.4963
46.3395 11.425
46.3881 11.3898
46.4365 11.3802
46.4852 11.3665
46.5337 11.2822
46.5823 11.2743
46.631 11.1885
46.6795 11.1882
46.7282 11.1193
46.7767 11.0732
46.8254 11.0392
46.8739 11.0019
46.9226 10.9518
46.9712 10.9147
47.0199 10.8961
47.0685 10.8269
47.1173 10.8028
47.1658 10.7528
47.2146 10.6973
47.2632 10.681
47.312 10.6422
47.3606 10.5767
47.4095 10.5483
47.4581 10.5056
47.5069 10.5132
47.5556 10.4131
47.6044 10.4014
47.6531 10.3867
47.702 10.3353
47.7507 10.2704
47.7996 10.2285
47.8483 10.2152
47.8972 10.1898
47.9461 10.1436
47.9948 10.1058
48.0438 10.0534
48.0925 10.0536
48.1415 9.9738
48.1902 9.94911
48.2392 9.93383
48.288 9.92869
48.337 9.82572
48.3858 9.77989
48.4348 9.78237
48.4837 9.7483
48.5327 9.71772
48.5815 9.69334
48.6306 9.65825
48.6795 9.60227
48.7285 9.54988
48.7774 9.51885
48.8265 9.53777
48.8754 9.45879
48.9245 9.45824
48.9734 9.38106
49.0226 9.3615
49.0715 9.30681
49.1206 9.28781
49.1696 9.23182
49.2188 9.21971
49.2679 9.19376
49.3169 9.13221
49.3661 9.11011
49.4151 9.06538
49.4643 9.05264
49.5134 8.96519
49.5626 8.94435
49.6117 8.91857
49.6609 8.90799
49.71 8.82278
49.7592 8.84675
49.8083 8.78453
49.8576 8.75464
49.9067 8.74444
49.956 8.74713
50.0052 8.66917
50.0545 8.64752
50.1036 8.60404
50.153 8.54634
50.2022 8.54308
50.2515 8.48001
50.3007 8.4713
50.3501 8.41426
50.3993 8.39834
50.4487 8.35737
50.498 8.36775
50.5474 8.31822
50.5966 8.25832
50.6461 8.25082
50.6955 8.20398
50.7448 8.16819
50.7943 8.13769
50.8436 8.11914
50.8931 8.11769
50.9424 8.07644
50.9919 8.04217
51.0413 8.00263
51.0908 7.95838
51.1402 7.91212
51.1897 7.91757
51.2391 7.85095
51.2887 7.83211
51.3381 7.78084
51.3877 7.77241
51.4371 7.70758
51.4867 7.69698
51.5362 7.69381
51.5858 7.62424
51.6353 7.60409
51.6849 7.57347
51.7344 7.50814
51.7841 7.51873
51.8336 7.46291
51.8833 7.47478
51.9328 7.40753
51.9826 7.37391
52.0323 7.341
52.0818 7.32679
52.1316 7.29061
52.1812 7.25307
52.231 7.24216
52.2806 7.19993
52.3304 7.17239
52.38 7.13968
52.4298 7.10501
52.4794 7.07548
52.5293 6.98258
52.5789 7.02622
52.6288 7.00877
52.6785 6.95049
52.7284 6.93225
52.7781 6.90926
52.828 6.9158
52.8777 6.80665
52.9276 6.82826
52.9774 6.79231
53.0273 6.72421
53.0771 6.74264
53.1271 6.69354
53.1769 6.67428
53.2269 6.65086
53.2767 6.63426
53.3267 6.61954
53.3765 6.58188
53.4266 6.53887
53.4766 6.51025
53.5265 6.47537
53.5765 6.43683
53.6264 6.44219
53.6765 6.39212
53.7264 6.36285
53.7765 6.31629
53.8265 6.32104
53.8766 6.30292
53.9266 6.27528
53.9767 6.23902
54.0267 6.19748
54.0769 6.19459
54.1269 6.15746
54.1771 6.12415
54.2271 6.10039
54.2773 6.02476
54.3274 6.04873
54.3776 5.94773
54.4277 5.9493
54.478 5.93892
54.528 5.85791
54.5783 5.83056
54.6285 5.82193
54.6788 5.80637
54.7289 5.79887
54.7792 5.73518
54.8296 5.59081
54.8798 5.59752
54.9301 5.59496
54.9803 5.54821
55.0307 5.51775
55.0809 5.38836
55.1314 5.45364
55.1816 5.39129
55.232 5.35333
55.2823 5.30257
55.3328 5.23016
55.383 5.19764
55.4335 5.13547
55.4838 5.03645
55.5344 5.04234
55.5847 5.01341
55.6352 4.92584
55.6856 4.89947
55.7361 4.93066