File: XRD/Ni3Fe_FD0465.xy
TT I
1.27165 7.73189
1.31627 6.99576
1.36089 7.04137
1.40551 6.46235
1.45013 5.99377
1.49476 5.61827
1.53938 5.90297
1.584 5.51491
1.62863 5.1126
1.67325 5.04053
1.71787 5.17781
1.7625 5.13394
1.80712 4.7603
1.85174 5.09854
1.89636 5.169
1.94099 4.87083
1.98562 4.54421
2.03025 4.70341
2.07487 4.36459
2.11949 4.82988
2.16411 4.69323
2.20874 9.30972
2.25338 14.4118
2.298 5.19599
2.34263 4.70545
2.38725 5.0529
2.43188 5.69363
2.4765 5.83422
2.52115 5.99664
2.56577 6.84632
2.6104 7.90969
2.65503 6.95428
2.69965 7.76785
2.7443 7.71087
2.78893 8.18863
2.83356 8.5886
2.87818 9.15355
2.92281 8.50932
2.96744 9.65771
3.01209 10.6195
3.05672 11.3932
3.10135 12.0767
3.14599 12.9158
3.19062 14.0233
3.23527 14.9988
3.2799 15.6711
3.32454 16.5821
3.36917 17.6821
3.4138 18.5002
3.45844 19.7525
3.50309 20.741
3.54773 21.8864
3.59237 23.3555
3.637 59.3028
3.68164 41.3967
3.7263 25.821
3.77094 26.1249
3.81558 26.9266
3.86022 27.9362
3.90486 28.8436
3.9495 30.0016
3.99416 31.0407
4.0388 32.0141
4.08344 33.611
4.12809 34.9166
4.17273 36.5124
4.21738 41.0844
4.26204 145.204
4.30669 126.669
4.35133 45.6327
4.39598 44.3264
4.44063 50.5368
4.4853 56.9073
4.52995 53.0272
4.5746 53.7307
4.61925 54.0805
4.6639 56.2935
4.70855 59.1518
4.75322 62.6298
4.79788 66.6556
4.84253 68.5249
4.88719 74.1846
4.93184 77.4064
4.97652 83.239
5.02118 90.3003
5.06583 98.661
5.11049 112.055
5.15515 166.366
5.19981 526.649
5.24449 3462.95
5.28916 11778.9
5.33382 2923.72
5.37848 205.436
5.42315 134.792
5.46783 119.407
5.5125 110.446
5.55716 104.773
5.60183 100.74
5.6465 98.5585
5.69117 96.8109
5.73586 95.2089
5.78053 96.3376
5.8252 96.3123
5.86988 97.117
5.91455 99.259
5.95924 111.793
6.00392 291.94
6.0486 1183.4
6.09328 4284.31
6.13795 3299.1
6.18263 257.981
6.22733 96.3317
6.27201 83.4604
6.3167 90.1085
6.36138 76.9185
6.40606 70.4385
6.45075 68.7983
6.49545 66.254
6.54014 64.4525
6.58483 63.2432
6.62952 63.1775
6.67421 78.2308
6.71892 102.475
6.76361 64.3478
6.8083 59.1795
6.853 58.5357
6.89769 57.5449
6.94239 56.9127
6.98711 56.117
7.03181 55.9208
7.07651 55.8377
7.12121 55.8739
7.16591 56.2846
7.21063 55.5387
7.25533 62.5985
7.30004 116.039
7.34475 73.7792
7.38945 56.0906
7.43416 54.4093
7.47889 54.5143
7.5236 55.0876
7.56831 55.6246
7.61303 56.679
7.65774 56.8475
7.70247 57.1947
7.74719 56.7821
7.79191 57.3924
7.83663 57.5683
7.88135 58.4306
7.92607 59.5316
7.97081 60.7944
8.01553 61.4374
8.06026 63.2821
8.10498 64.6992
8.14971 71.4098
8.19446 71.0936
8.23919 70.6234
8.28392 73.2301
8.32865 75.7172
8.37339 80.0144
8.41812 86.6693
8.46288 110.253
8.50761 209.339
8.55235 466.278
8.59709 1228.91
8.64183 2135.75
8.68658 1022.54
8.73134 170.251
8.77609 101.569
8.82083 94.5143
8.86558 91.9912
8.91033 91.3947
8.9551 90.6128
8.99985 86.7106
9.04461 84.7102
9.08936 84.5996
9.13412 83.5089
9.17888 83.3238
9.22365 83.4319
9.26841 83.2629
9.31318 85.0155
9.35794 85.09
9.4027 85.7273
9.44749 85.8827
9.49226 86.195
9.53703 87.0243
9.5818 89.4449
9.62657 93.064
9.67134 96.6851
9.71614 94.6343
9.76091 95.924
9.80569 99.6329
9.85047 102.212
9.89525 116.714
9.94005 134.81
9.98484 220.264
10.0296 410.945
10.0744 886.724
10.1192 1727.06
10.164 1625.13
10.2088 406.325
10.2536 130.277
10.2984 113.042
10.3432 112.082
10.388 108.277
10.4328 131.842
10.4776 178.72
10.5224 300.256
10.5672 503.563
10.612 495.044
10.6568 203.532
10.7017 97.4551
10.7465 88.2051
10.7913 84.6478
10.8361 82.3153
10.8809 80.0446
10.9257 79.0608
10.9706 79.1446
11.0154 75.763
11.0602 73.6949
11.105 72.4896
11.1499 74.0675
11.1947 77.3744
11.2395 72.2625
11.2844 70.1393
11.3292 67.8193
11.374 66.9875
11.4189 66.4346
11.4637 65.8991
11.5086 65.7358
11.5534 66.7639
11.5983 65.5546
11.6431 64.3283
11.688 63.9492
11.7328 63.5739
11.7777 63.801
11.8225 63.3895
11.8674 63.2879
11.9122 63.8813
11.9571 63.8674
12.002 65.5755
12.0468 72.1274
12.0917 83.9693
12.1366 109.061
12.1814 156.625
12.2263 201.936
12.2712 170.386
12.3161 92.2069
12.3609 68.9995
12.4058 65.168
12.4507 65.3394
12.4956 65.6256
12.5405 65.4899
12.5853 66.1673
12.6302 70.2559
12.6751 73.3915
12.72 69.5928
12.7649 68.9179
12.8098 69.6457
12.8547 70.8708
12.8996 72.3113
12.9445 73.7374
12.9894 75.6958
13.0343 77.4839
13.0792 81.9485
13.1242 97.2704
13.1691 122.316
13.214 162.741
13.2589 251.073
13.3038 369.826
13.3487 421.579
13.3937 261.682
13.4386 124.301
13.4835 113.628
13.5285 130.778
13.5734 170.771
13.6183 252.935
13.6633 340.144
13.7082 338.197
13.7531 187.834
13.7981 98.1607
13.843 82.8761
13.888 80.8893
13.9329 78.484
13.9779 77.183
14.0228 75.7708
14.0678 74.1802
14.1127 73.5658
14.1577 73.1856
14.2027 72.5279
14.2476 71.5533
14.2926 71.4585
14.3376 71.8074
14.3825 70.988
14.4275 69.8836
14.4725 69.8014
14.5175 70.0528
14.5624 70.307
14.6074 71.6936
14.6524 71.9076
14.6974 72.0183
14.7424 75.7218
14.7874 83.9377
14.8324 95.045
14.8774 118.225
14.9224 157.366
14.9674 203.223
15.0124 215.238
15.0574 147.736
15.1024 90.4887
15.1474 73.2707
15.1924 71.4405
15.2374 70.8616
15.2824 70.1725
15.3274 68.6857
15.3725 67.8373
15.4175 67.6568
15.4625 66.8983
15.5076 66.8719
15.5526 66.8757
15.5976 67.1603
15.6426 70.0418
15.6877 76.4376
15.7327 84.6352
15.7778 101.057
15.8228 130.528
15.8679 168.714
15.9129 191.044
15.958 155.031
16.003 95.3365
16.0481 68.1794
16.0931 64.3193
16.1382 62.7944
16.1833 61.3838
16.2283 59.739
16.2734 59.1993
16.3185 58.8423
16.3636 59.0779
16.4086 57.9846
16.4537 56.9576
16.4988 56.3314
16.5439 56.2729
16.589 56.0639
16.6341 55.6741
16.6792 55.4381
16.7243 55.6183
16.7694 55.584
16.8145 55.5051
16.8596 55.8141
16.9047 56.6405
16.9498 56.8391
16.9949 56.3693
17.04 57.086
17.0851 58.704
17.1302 60.3756
17.1754 63.3683
17.2205 68.6684
17.2656 75.2014
17.3108 82.4542
17.3559 82.7361
17.401 71.6202
17.4462 62.911
17.4913 60.1115
17.5365 60.1039
17.5815 60.2344
17.6268 60.6726
17.6718 61.2718
17.7171 61.7424
17.7622 62.5852
17.8074 63.8998
17.8525 67.2505
17.8977 71.1617
17.9428 77.2355
17.9881 86.6311
18.0331 102.662
18.0784 121.772
18.1237 140.152
18.1688 132.982
18.214 105.774
18.2591 88.7707
18.3044 91.8975
18.3495 100.234
18.3948 106.842
18.4399 97.3166
18.4852 77.9667
18.5303 66.8229
18.5756 63.1801
18.6207 62.2563
18.666 61.2957
18.7112 60.6642
18.7565 59.8156
18.8016 59.4727
18.8469 58.9683
18.892 58.6417
18.9374 58.0601
18.9825 57.7297
19.0278 57.8069
19.073 58.0749
19.1183 58.527
19.1635 59.3684
19.2088 60.9733
19.254 63.7809
19.2993 67.7612
19.3447 72.6462
19.3898 76.5346
19.4352 73.0546
19.4804 63.9289
19.5257 57.5673
19.5709 55.0527
19.6163 54.6782
19.6615 54.505
19.7068 54.2116
19.752 54.2872
19.7974 54.8017
19.8426 55.5053
19.888 56.143
19.9332 57.69
19.9786 60.4492
20.0238 63.6922
20.0692 68.0405
20.1144 70.7342
20.1598 69.1665
20.205 64.4881
20.2504 63.0916
20.2957 64.4284
20.3411 66.047
20.3863 64.7354
20.4318 58.8507
20.477 54.1797
20.5224 52.056
20.5677 51.4794
20.6131 51.0376
20.6586 50.3229
20.7038 50.2707
20.7493 49.6203
20.7945 49.798
20.84 49.7191
20.8853 49.5851
20.9307 49.4993
20.976 49.5685
21.0215 49.3307
21.0668 49.9106
21.1122 50.4028
21.1575 50.9083
21.203 51.3807
21.2483 51.9883
21.2938 52.3069
21.3391 50.8543
21.3846 49.6581
21.4299 49.2049
21.4754 49.3055
21.5207 49.2853
21.5662 49.8412
21.6116 50.4345
21.6571 51.0517
21.7024 52.0974
21.7479 53.955
21.7933 56.8343
21.8388 59.9106
21.8843 63.3452
21.9297 65.343
21.9752 64.0631
22.0206 60.2525
22.0661 57.0691
22.1115 56.4594
22.157 56.5154
22.2024 55.0909
22.248 52.1134
22.2933 50.7229
22.3389 49.7207
22.3843 49.6568
22.4299 49.3338
22.4753 49.5398
22.5208 49.3091
22.5662 49.2627
22.6118 49.6345
22.6572 49.9038
22.7028 50.4593
22.7483 50.7278
22.7939 51.4906
22.8393 53.2051
22.8849 55.094
22.9303 56.6041
22.9759 58.3566
23.0214 57.8156
23.067 55.2212
23.1126 51.8027
23.1581 49.95
23.2037 49.8295
23.2492 49.9809
23.2948 49.7525
23.3403 50.2032
23.3859 50.784
23.4314 52.0494
23.477 53.5488
23.5225 55.5269
23.5682 57.4896
23.6137 58.4352
23.6593 56.3231
23.7048 52.3144
23.7505 49.0348
23.796 47.3501
23.8417 46.7598
23.8872 46.2133
23.9329 45.8352
23.9784 45.6351
24.0241 45.2686
24.0697 44.9737
24.1154 44.8518
24.1609 44.606
24.2066 44.3729
24.2522 44.4266
24.2979 44.082
24.3434 43.9429
24.3892 43.7651
24.4349 43.8729
24.4805 43.5698
24.5262 43.7772
24.5718 43.5518
24.6175 43.7217
24.6631 43.4496
24.7089 43.202
24.7545 43.0247
24.8002 42.8945
24.8458 42.9497
24.8916 42.7933
24.9372 42.955
24.983 43.4118
25.0286 43.6752
25.0744 44.0908
25.12 44.4057
25.1658 45.1774
25.2114 45.4707
25.2572 45.5925
25.3029 45.2856
25.3487 45.5341
25.3943 45.2057
25.4402 44.2252
25.4858 43.0618
25.5316 42.0591
25.5773 41.604
25.6231 41.4693
25.669 41.1725
25.7147 41.3154
25.7605 41.1058
25.8062 41.1863
25.8521 41.2954
25.8977 41.2842
25.9436 41.4919
25.9893 41.6886
26.0352 42.1458
26.0809 42.0782
26.1268 42.2844
26.1725 42.0934
26.2184 41.3548
26.2641 41.0242
26.31 40.8616
26.3557 40.8727
26.4017 40.7945
26.4474 41.1311
26.4933 41.4225
26.5391 41.8975
26.585 42.3221
26.6308 42.6451
26.6767 42.8239
26.7225 42.6519
26.7684 41.9178
26.8142 41.4181
26.8601 41.1084
26.9059 40.6961
26.9519 40.1271
26.9979 39.822
27.0437 39.5015
27.0896 39.3013
27.1354 39.3931
27.1814 39.288
27.2272 39.0855
27.2732 39.1059
27.3191 39.072
27.3651 39.0377
27.4109 38.951
27.4569 39.1023
27.5027 39.0605
27.5488 39.284
27.5946 39.0862
27.6407 38.8365
27.6865 38.6821
27.7326 38.5516
27.7784 38.4391
27.8245 38.3999
27.8703 38.7033
27.9164 38.9421
27.9623 38.9518
28.0084 39.355
28.0543 39.6975
28.1003 39.7025
28.1462 39.3896
28.1923 39.021
28.2384 38.5306
28.2843 38.1445
28.3304 37.7545
28.3764 37.2484
28.4225 36.9278
28.4684 36.7342
28.5145 36.5232
28.5605 36.3571
28.6066 36.3346
28.6526 36.1995
28.6987 36.129
28.7447 36.1244
28.7908 35.9196
28.8368 35.9478
28.8829 35.9745
28.9289 35.9251
28.9751 35.6546
29.0211 35.5375
29.0673 35.2613
29.1133 35.1651
29.1595 35.0206
29.2055 34.8278
29.2517 34.8551
29.2977 34.9075
29.3439 34.8128
29.3899 34.7448
29.4361 34.6677
29.4824 34.4554
29.5284 34.2401
29.5746 33.9851
29.6207 33.6135
29.6669 33.6252
29.713 33.5686
29.7593 33.3486
29.8053 33.4675
29.8516 33.3543
29.8977 33.3143
29.9439 33.0846
29.99 33.1471
30.0363 32.9756
30.0824 33.0378
30.1287 32.9072
30.1748 32.9228
30.2211 32.9785
30.2673 32.7716
30.3136 32.8229
30.3597 32.8549
30.406 32.7154
30.4522 32.5032
30.4985 32.5906
30.5447 32.6827
30.591 32.7082
30.6372 32.7336
30.6835 32.7029
30.7297 32.7068
30.7761 32.6103
30.8224 32.4384
30.8686 32.3761
30.915 32.1371
30.9612 31.9226
31.0076 31.8071
31.0538 31.6631
31.1002 31.585
31.1464 31.3994
31.1928 31.4614
31.2391 31.4563
31.2855 31.4024
31.3317 31.3614
31.3781 31.4559
31.4244 31.3377
31.4708 31.2931
31.5171 31.2699
31.5636 31.2158
31.6098 30.9591
31.6563 30.785
31.7026 30.7115
31.7491 30.5355
31.7953 30.5878
31.8418 30.5615
31.8881 30.6065
31.9346 30.5636
31.9809 30.469
32.0275 30.3888
32.074 30.2332
32.1203 30.0657
32.1668 30.0003
32.2132 29.7558
32.2597 29.7436
32.306 29.703
32.3526 29.4121
32.399 29.3914
32.4455 29.1823
32.4919 29.1178
32.5385 29.0992
32.5848 28.9452
32.6314 28.9324
32.6778 28.8936
32.7244 28.6947
32.7708 28.5415
32.8174 28.5742
32.8638 28.4737
32.9104 28.5761
32.9569 28.4373
33.0035 28.3467
33.0499 28.3135
33.0966 28.2438
33.143 28.2395
33.1897 28.0722
33.2361 27.9952
33.2828 28.0878
33.3293 27.7776
33.3759 27.8521
33.4226 27.6409
33.4691 27.5651
33.5158 27.4695
33.5623 27.3522
33.609 27.1552
33.6555 27.1163
33.7022 26.9998
33.7487 26.9658
33.7954 26.8826
33.842 26.7274
33.8887 26.6329
33.9353 26.7394
33.982 26.5063
34.0286 26.3924
34.0753 26.4202
34.1219 26.3195
34.1687 26.1847
34.2152 26.2042
34.262 26.037
34.3086 25.9008
34.3554 25.9654
34.402 25.8065
34.4488 25.7445
34.4954 25.6919
34.5422 25.6064
34.5889 25.3932
34.6357 25.3343
34.6825 25.3138
34.7292 25.2139
34.776 25.1554
34.8227 25.0891
34.8695 25.0759
34.9162 24.9047
34.9631 24.841
35.0098 24.891
35.0566 24.6727
35.1033 24.674
35.1502 24.5997
35.1969 24.4471
35.2438 24.4783
35.2906 24.4733
35.3375 24.4875
35.3842 24.2821
35.4311 24.3736
35.4779 24.2572
35.5248 24.3362
35.5716 24.0932
35.6185 24.0585
35.6653 23.9647
35.7123 23.8219
35.759 23.8458
35.806 23.6923
35.8528 23.5927
35.8998 23.6359
35.9468 23.4541
35.9936 23.4209
36.0406 23.3561
36.0874 23.3126
36.1345 23.2405
36.1813 23.152
36.2283 23.0046
36.2752 22.966
36.3222 23.0118
36.3691 22.8817
36.4161 22.7857
36.463 22.7766
36.5101 22.7917
36.557 22.6819
36.6041 22.5564
36.651 22.5471
36.6981 22.4124
36.745 22.3741
36.7921 22.302
36.839 22.1512
36.8861 22.1689
36.9331 22.0598
36.9802 21.9617
37.0272 21.9198
37.0743 21.8512
37.1213 21.7952
37.1684 21.7593
37.2154 21.664
37.2626 21.5638
37.3098 21.5654
37.3568 21.4024
37.404 21.4622
37.451 21.269
37.4982 21.286
37.5452 21.1173
37.5924 21.0968
37.6395 21.1099
37.6867 21.0284
37.7337 20.9637
37.781 20.8296
37.8281 20.7357
37.8753 20.7443
37.9224 20.643
37.9697 20.5555
38.0168 20.471
38.064 20.4474
38.1111 20.3997
38.1584 20.2984
38.2056 20.1912
38.2529 20.178
38.3 20.1583
38.3473 20.1111
38.3945 19.9661
38.4418 19.9286
38.489 19.8878
38.5363 19.7742
38.5837 19.7289
38.6309 19.7042
38.6782 19.5937
38.7254 19.5962
38.7728 19.4737
38.82 19.452
38.8674 19.3504
38.9146 19.3467
38.9621 19.1729
39.0093 19.2079
39.0567 19.1373
39.104 19.0595
39.1514 19.0232
39.1987 18.8903
39.2461 18.9154
39.2934 18.8406
39.3409 18.7305
39.3882 18.6839
39.4356 18.6475
39.483 18.5767
39.5304 18.5039
39.5778 18.4932
39.6253 18.4354
39.6726 18.3697
39.7201 18.3606
39.7675 18.3363
39.815 18.2182
39.8624 18.06
39.9099 18.0706
39.9575 17.978
40.0049 17.9209
40.0525 17.901
40.0999 17.8225
40.1474 17.7855
40.1949 17.7124
40.2425 17.6175
40.2899 17.6184
40.3375 17.5284
40.385 17.4773
40.4326 17.4291
40.48 17.3917
40.5277 17.3368
40.5752 17.2759
40.6228 17.2097
40.6703 17.144
40.718 17.1317
40.7655 17.1092
40.8132 17.0133
40.8607 17.0479
40.9084 16.9129
40.9559 16.8637
41.0036 16.8168
41.0512 16.8378
41.0989 16.674
41.1465 16.6167
41.1942 16.623
41.242 16.4979
41.2896 16.4584
41.3373 16.4451
41.3849 16.3306
41.4327 16.2882
41.4803 16.2323
41.5281 16.166
41.5758 16.1596
41.6236 16.0881
41.6712 16.0161
41.7191 15.9829
41.7667 15.9087
41.8146 15.919
41.8622 15.7725
41.9101 15.777
41.9578 15.7148
42.0057 15.695
42.0534 15.6145
42.1013 15.5554
42.149 15.4728
42.1969 15.4285
42.2446 15.4323
42.2925 15.3829
42.3403 15.3602
42.3882 15.2808
42.436 15.1503
42.4839 15.1321
42.5319 15.0612
42.5797 15.0651
42.6277 14.9462
42.6755 14.9295
42.7235 14.8899
42.7713 14.8485
42.8193 14.8098
42.8671 14.6939
42.9152 14.6786
42.963 14.6255
43.0111 14.5666
43.0589 14.5189
43.107 14.4573
43.1549 14.4223
43.2029 14.3654
43.2508 14.3306
43.2989 14.3197
43.3468 14.2194
43.3949 14.1776
43.4429 14.1178
43.491 14.0904
43.5389 14.0097
43.5871 13.9695
43.635 13.9389
43.6832 13.8517
43.7312 13.8304
43.7793 13.8197
43.8273 13.7412
43.8755 13.6922
43.9237 13.688
43.9717 13.6401
44.0199 13.5218
44.068 13.503
44.1162 13.4642
44.1642 13.4302
44.2125 13.3931
44.2606 13.338
44.3088 13.2328
44.3569 13.2434
44.4052 13.1926
44.4533 13.119
44.5016 13.1048
44.5497 13.0523
44.598 13.0071
44.6461 12.9464
44.6945 12.9366
44.7426 12.8613
44.791 12.7966
44.8391 12.7617
44.8875 12.7476
44.9357 12.7222
44.984 12.6354
45.0322 12.6056
45.0806 12.525
45.1288 12.4818
45.1773 12.4169
45.2257 12.4336
45.2739 12.3902
45.3224 12.3629
45.3706 12.2679
45.4191 12.2489
45.4673 12.2228
45.5158 12.1764
45.5641 12.0903
45.6126 12.038
45.6609 12.0401
45.7094 11.9399
45.7577 11.9437
45.8063 11.8617
45.8546 11.8552
45.9031 11.849
45.9515 11.7614
46.0001 11.704
46.0484 11.6769
46.097 11.6487
46.1454 11.5919
46.194 11.5468
46.2424 11.5218
46.291 11.4502
46.3395 11.4179
46.3881 11.412
46.4365 11.3635
46.4852 11.3069
46.5337 11.3059
46.5823 11.2325
46.631 11.1972
46.6795 11.1416
46.7282 11.125
46.7767 11.0786
46.8254 11.0099
46.8739 10.9399
46.9226 10.9058
46.9712 10.8673
47.0199 10.8549
47.0685 10.8133
47.1173 10.7592
47.1658 10.7354
47.2146 10.7066
47.2632 10.6346
47.312 10.6499
47.3606 10.5563
47.4095 10.5094
47.4581 10.5141
47.5069 10.4652
47.5556 10.4202
47.6044 10.3805
47.6531 10.3648
47.702 10.2663
47.7507 10.2917
47.7996 10.2377
47.8483 10.1589
47.8972 10.1757
47.9461 10.0851
47.9948 10.0476
48.0438 10.021
48.0925 10.0361
48.1415 9.9724
48.1902 9.91733
48.2392 9.93832
48.288 9.87553
48.337 9.85799
48.3858 9.78971
48.4348 9.77366
48.4837 9.79868
48.5327 9.71183
48.5815 9.67104
48.6306 9.67729
48.6795 9.58188
48.7285 9.5343
48.7774 9.54428
48.8265 9.45586
48.8754 9.44768
48.9245 9.40444
48.9734 9.3618
49.0226 9.3537
49.0715 9.2831
49.1206 9.25176
49.1696 9.27776
49.2188 9.23402
49.2679 9.15896
49.3169 9.11978
49.3661 9.06512
49.4151 9.07187
49.4643 9.03882
49.5134 8.99614
49.5626 8.96417
49.6117 8.92534
49.6609 8.88401
49.71 8.81634
49.7592 8.84396
49.8083 8.79387
49.8576 8.74925
49.9067 8.71579
49.956 8.70468
50.0052 8.66058
50.0545 8.6046
50.1036 8.57796
50.153 8.57967
50.2022 8.52648
50.2515 8.45334
50.3007 8.44548
50.3501 8.38895
50.3993 8.37947
50.4487 8.3709
50.498 8.31489
50.5474 8.25852
50.5966 8.21048
50.6461 8.21421
50.6955 8.18907
50.7448 8.17167
50.7943 8.12583
50.8436 8.06799
50.8931 8.1006
50.9424 8.07125
50.9919 8.02485
51.0413 7.96769
51.0908 7.93538
51.1402 7.91838
51.1897 7.87238
51.2391 7.85671
51.2887 7.77344
51.3381 7.75783
51.3877 7.78883
51.4371 7.71149
51.4867 7.68726
51.5362 7.65421
51.5858 7.62079
51.6353 7.55853
51.6849 7.55761
51.7344 7.52359
51.7841 7.48663
51.8336 7.49077
51.8833 7.44707
51.9328 7.41013
51.9826 7.33597
52.0323 7.34711
52.0818 7.29536
52.1316 7.23863
52.1812 7.26908
52.231 7.22684
52.2806 7.21053
52.3304 7.17784
52.38 7.12755
52.4298 7.09325
52.4794 7.05064
52.5293 7.02693
52.5789 7.02728
52.6288 6.98248
52.6785 6.94029
52.7284 6.93919
52.7781 6.91406
52.828 6.90819
52.8777 6.85497
52.9276 6.76818
52.9774 6.76803
53.0273 6.7231
53.0771 6.76688
53.1271 6.71238
53.1769 6.68861
53.2269 6.62827
53.2767 6.64557
53.3267 6.6062
53.3765 6.51635
53.4266 6.54169
53.4766 6.50708
53.5265 6.45967
53.5765 6.47524
53.6264 6.44706
53.6765 6.40084
53.7264 6.3554
53.7765 6.3277
53.8265 6.30723
53.8766 6.27878
53.9266 6.21843
53.9767 6.20687
54.0267 6.18672
54.0769 6.18291
54.1269 6.14414
54.1771 6.10589
54.2271 6.10841
54.2773 6.03338
54.3274 6.0254
54.3776 5.96066
54.4277 5.98748
54.478 5.92889
54.528 5.87688
54.5783 5.85442
54.6285 5.78552
54.6788 5.76118
54.7289 5.68979
54.7792 5.62181
54.8296 5.67477
54.8798 5.5966
54.9301 5.56418
54.9803 5.47499
55.0307 5.56371
55.0809 5.42243
55.1314 5.44919
55.1816 5.39141
55.232 5.29903
55.2823 5.24997
55.3328 5.23034
55.383 5.17367
55.4335 5.15428
55.4838 5.07881
55.5344 5.00962
55.5847 5.00673
55.6352 4.95214
55.6856 4.91988
55.7361 4.87141