File: XRD/Ni3Fe_FD0452.xy
TT I
1.27165 7.52227
1.31627 6.46903
1.36089 6.67716
1.40551 6.95689
1.45013 6.46433
1.49476 6.62838
1.53938 6.18493
1.584 5.19345
1.62863 5.5412
1.67325 5.10774
1.71787 5.27283
1.7625 4.84645
1.80712 5.06513
1.85174 4.81143
1.89636 5.0228
1.94099 4.64132
1.98562 4.51137
2.03025 4.58147
2.07487 3.89323
2.11949 4.75002
2.16411 4.12584
2.20874 10.9601
2.25338 16.1038
2.298 5.18373
2.34263 4.80401
2.38725 5.20879
2.43188 6.19791
2.4765 6.28314
2.52115 6.25958
2.56577 7.2724
2.6104 7.45451
2.65503 6.97642
2.69965 7.79435
2.7443 8.40215
2.78893 7.59034
2.83356 8.14431
2.87818 8.47422
2.92281 8.62985
2.96744 9.4258
3.01209 10.0516
3.05672 10.5537
3.10135 12.115
3.14599 13.2036
3.19062 14.084
3.23527 14.7615
3.2799 15.7647
3.32454 16.8555
3.36917 17.8527
3.4138 19.5582
3.45844 19.7437
3.50309 20.7447
3.54773 21.7061
3.59237 23.6063
3.637 67.3576
3.68164 44.7114
3.7263 25.758
3.77094 26.2223
3.81558 26.6492
3.86022 27.0875
3.90486 28.8272
3.9495 30.3231
3.99416 30.8451
4.0388 32.3282
4.08344 34.1773
4.12809 35.0511
4.17273 36.5308
4.21738 41.1996
4.26204 171.802
4.30669 144.689
4.35133 46.7401
4.39598 44.3952
4.44063 50.7977
4.4853 58.6816
4.52995 51.3204
4.5746 52.3783
4.61925 54.223
4.6639 56.2293
4.70855 59.2866
4.75322 62.3726
4.79788 65.6613
4.84253 68.6388
4.88719 73.3115
4.93184 77.1206
4.97652 83.1112
5.02118 89.8236
5.06583 98.227
5.11049 111.627
5.15515 169.168
5.19981 504.752
5.24449 3433.65
5.28916 11765.8
5.33382 3026.06
5.37848 202.139
5.42315 133.995
5.46783 117.666
5.5125 109.325
5.55716 104.523
5.60183 100.498
5.6465 98.9468
5.69117 96.7564
5.73586 94.7881
5.78053 94.6032
5.8252 94.5793
5.86988 95.5841
5.91455 98.8156
5.95924 111.413
6.00392 280.301
6.0486 1178.49
6.09328 4244.96
6.13795 3374.0
6.18263 268.419
6.22733 96.5709
6.27201 84.3677
6.3167 93.0833
6.36138 78.1521
6.40606 70.3812
6.45075 68.6923
6.49545 66.2254
6.54014 64.5133
6.58483 63.5298
6.62952 62.9839
6.67421 81.7927
6.71892 111.534
6.76361 65.3177
6.8083 58.962
6.853 58.3824
6.89769 57.1547
6.94239 56.8459
6.98711 56.3544
7.03181 55.9511
7.07651 55.6671
7.12121 55.4924
7.16591 55.9469
7.21063 55.5103
7.25533 65.1898
7.30004 129.082
7.34475 77.6858
7.38945 56.1641
7.43416 54.991
7.47889 54.6987
7.5236 55.3914
7.56831 55.9499
7.61303 57.3883
7.65774 57.3241
7.70247 57.0438
7.74719 56.9192
7.79191 57.2827
7.83663 57.4317
7.88135 58.5226
7.92607 59.8004
7.97081 60.634
8.01553 61.3765
8.06026 63.0861
8.10498 64.7223
8.14971 71.6489
8.19446 71.3874
8.23919 70.8073
8.28392 73.1717
8.32865 75.4801
8.37339 80.5533
8.41812 86.8742
8.46288 111.657
8.50761 203.965
8.55235 462.238
8.59709 1231.91
8.64183 2138.68
8.68658 1012.04
8.73134 171.674
8.77609 102.084
8.82083 94.2353
8.86558 91.5311
8.91033 90.9294
8.9551 90.3673
8.99985 86.3123
9.04461 85.1813
9.08936 84.3889
9.13412 83.1837
9.17888 83.363
9.22365 83.7356
9.26841 83.4441
9.31318 84.5275
9.35794 84.5068
9.4027 84.9313
9.44749 85.7969
9.49226 86.0895
9.53703 87.0987
9.5818 89.0426
9.62657 92.5476
9.67134 97.1379
9.71614 94.5666
9.76091 95.8539
9.80569 99.0516
9.85047 101.953
9.89525 118.749
9.94005 135.846
9.98484 214.81
10.0296 406.806
10.0744 872.494
10.1192 1695.89
10.164 1629.86
10.2088 410.066
10.2536 129.542
10.2984 113.194
10.3432 112.906
10.388 107.717
10.4328 130.374
10.4776 177.856
10.5224 297.602
10.5672 493.223
10.612 496.492
10.6568 202.951
10.7017 97.6616
10.7465 87.9239
10.7913 84.74
10.8361 82.2085
10.8809 80.0128
10.9257 78.9977
10.9706 78.6874
11.0154 75.5683
11.0602 73.3768
11.105 72.4153
11.1499 74.9088
11.1947 78.9679
11.2395 73.0824
11.2844 70.3941
11.3292 68.0398
11.374 67.1314
11.4189 66.1732
11.4637 65.8163
11.5086 65.9709
11.5534 67.6279
11.5983 65.7817
11.6431 64.2048
11.688 63.5399
11.7328 63.7779
11.7777 63.4681
11.8225 63.3663
11.8674 63.2981
11.9122 63.8766
11.9571 63.9875
12.002 65.2346
12.0468 71.5977
12.0917 84.0477
12.1366 108.945
12.1814 155.455
12.2263 204.762
12.2712 172.516
12.3161 93.4658
12.3609 69.4052
12.4058 65.4256
12.4507 65.3274
12.4956 65.2683
12.5405 65.6003
12.5853 66.3232
12.6302 71.2075
12.6751 75.0301
12.72 69.5205
12.7649 68.7398
12.8098 69.3253
12.8547 70.8284
12.8996 72.3645
12.9445 73.6004
12.9894 75.6223
13.0343 77.3702
13.0792 81.7556
13.1242 95.7806
13.1691 121.499
13.214 162.033
13.2589 249.494
13.3038 363.274
13.3487 421.204
13.3937 264.754
13.4386 125.695
13.4835 113.405
13.5285 130.203
13.5734 169.953
13.6183 251.542
13.6633 338.767
13.7082 340.034
13.7531 189.191
13.7981 97.9376
13.843 82.9586
13.888 80.9452
13.9329 78.3659
13.9779 77.0607
14.0228 75.7231
14.0678 74.2915
14.1127 73.6788
14.1577 73.4544
14.2027 72.5162
14.2476 71.459
14.2926 71.5369
14.3376 72.0631
14.3825 71.0656
14.4275 69.9285
14.4725 69.7064
14.5175 70.0712
14.5624 69.9687
14.6074 71.5509
14.6524 72.2269
14.6974 71.7262
14.7424 74.8415
14.7874 83.3082
14.8324 95.1228
14.8774 117.499
14.9224 156.993
14.9674 201.964
15.0124 216.209
15.0574 149.255
15.1024 91.5623
15.1474 73.3174
15.1924 71.3974
15.2374 71.4303
15.2824 70.4811
15.3274 68.8863
15.3725 67.9146
15.4175 67.4241
15.4625 67.103
15.5076 67.464
15.5526 67.3065
15.5976 67.0334
15.6426 69.4653
15.6877 76.3326
15.7327 84.7318
15.7778 100.783
15.8228 130.435
15.8679 168.43
15.9129 191.893
15.958 156.768
16.003 96.7619
16.0481 68.6348
16.0931 64.6592
16.1382 63.0023
16.1833 61.3195
16.2283 59.8818
16.2734 59.106
16.3185 59.2495
16.3636 59.4385
16.4086 58.1822
16.4537 56.9851
16.4988 56.2448
16.5439 56.1944
16.589 55.9318
16.6341 55.7421
16.6792 55.3364
16.7243 55.7723
16.7694 55.7793
16.8145 55.5399
16.8596 56.0137
16.9047 56.8736
16.9498 57.0734
16.9949 56.6614
17.04 57.0102
17.0851 58.5757
17.1302 60.4635
17.1754 63.4824
17.2205 68.4917
17.2656 75.3072
17.3108 82.2142
17.3559 82.2584
17.401 71.6819
17.4462 63.0062
17.4913 60.1603
17.5365 60.0282
17.5815 60.3185
17.6268 60.5753
17.6718 61.3152
17.7171 61.7535
17.7622 62.5939
17.8074 63.4317
17.8525 66.9246
17.8977 71.1412
17.9428 76.8735
17.9881 86.7534
18.0331 102.392
18.0784 121.212
18.1237 139.783
18.1688 133.382
18.214 105.793
18.2591 88.6984
18.3044 91.6781
18.3495 100.416
18.3948 107.137
18.4399 97.4858
18.4852 78.2633
18.5303 66.7345
18.5756 63.0521
18.6207 62.3393
18.666 61.3145
18.7112 60.5235
18.7565 59.932
18.8016 59.597
18.8469 59.0239
18.892 58.6301
18.9374 58.1617
18.9825 57.804
19.0278 57.8104
19.073 58.0644
19.1183 58.7272
19.1635 59.5161
19.2088 60.8994
19.254 63.6572
19.2993 67.7681
19.3447 72.6876
19.3898 76.8101
19.4352 73.1486
19.4804 63.9979
19.5257 57.4019
19.5709 55.0091
19.6163 54.7704
19.6615 54.5233
19.7068 54.0415
19.752 54.2875
19.7974 54.7474
19.8426 55.5403
19.888 56.2575
19.9332 57.6888
19.9786 60.3217
20.0238 63.8185
20.0692 67.8863
20.1144 70.8387
20.1598 69.4604
20.205 64.599
20.2504 62.9429
20.2957 64.2824
20.3411 66.2198
20.3863 64.5474
20.4318 59.1379
20.477 54.4352
20.5224 52.2213
20.5677 51.7619
20.6131 50.9727
20.6586 50.4883
20.7038 50.3016
20.7493 49.8803
20.7945 49.7834
20.84 49.5703
20.8853 49.4479
20.9307 49.333
20.976 49.5389
21.0215 49.3806
21.0668 50.0437
21.1122 50.2239
21.1575 50.9466
21.203 51.5926
21.2483 52.1178
21.2938 52.4544
21.3391 50.9328
21.3846 49.9491
21.4299 49.3047
21.4754 49.3828
21.5207 49.3345
21.5662 49.7625
21.6116 50.5046
21.6571 51.0466
21.7024 52.0735
21.7479 53.9607
21.7933 56.8344
21.8388 59.8619
21.8843 63.2707
21.9297 65.3747
21.9752 64.3398
22.0206 60.5747
22.0661 57.1915
22.1115 56.6111
22.157 56.7393
22.2024 55.3666
22.248 52.325
22.2933 50.6563
22.3389 49.7437
22.3843 49.643
22.4299 49.5933
22.4753 49.4959
22.5208 49.213
22.5662 49.4168
22.6118 49.649
22.6572 49.8287
22.7028 50.2462
22.7483 50.935
22.7939 51.5125
22.8393 53.1706
22.8849 54.9323
22.9303 56.6288
22.9759 58.3879
23.0214 58.1657
23.067 55.3827
23.1126 51.9884
23.1581 50.1051
23.2037 49.598
23.2492 49.802
23.2948 49.9479
23.3403 50.2873
23.3859 50.9284
23.4314 51.9055
23.477 53.5424
23.5225 55.6028
23.5682 57.4044
23.6137 58.4069
23.6593 56.2638
23.7048 52.4906
23.7505 48.9386
23.796 47.3438
23.8417 46.5617
23.8872 46.1832
23.9329 45.8939
23.9784 45.556
24.0241 45.3963
24.0697 45.2436
24.1154 44.9251
24.1609 44.6751
24.2066 44.5793
24.2522 44.5004
24.2979 44.1053
24.3434 44.0368
24.3892 43.8379
24.4349 43.7956
24.4805 43.6288
24.5262 43.7862
24.5718 43.5194
24.6175 43.633
24.6631 43.5856
24.7089 43.1607
24.7545 43.1595
24.8002 42.9425
24.8458 42.8761
24.8916 42.8958
24.9372 42.9634
24.983 43.4177
25.0286 43.8334
25.0744 44.0495
25.12 44.362
25.1658 44.9185
25.2114 45.3925
25.2572 45.3577
25.3029 45.2869
25.3487 45.5538
25.3943 45.2111
25.4402 44.1725
25.4858 43.077
25.5316 42.061
25.5773 41.4778
25.6231 41.4853
25.669 41.3549
25.7147 41.1942
25.7605 41.1123
25.8062 41.2229
25.8521 41.3178
25.8977 41.2662
25.9436 41.5732
25.9893 41.6085
26.0352 42.0557
26.0809 42.2656
26.1268 42.452
26.1725 42.1225
26.2184 41.4449
26.2641 40.9742
26.31 40.7634
26.3557 40.8018
26.4017 40.8102
26.4474 41.1335
26.4933 41.3992
26.5391 41.851
26.585 42.3884
26.6308 42.6576
26.6767 42.8839
26.7225 42.6653
26.7684 41.9547
26.8142 41.4139
26.8601 41.1267
26.9059 40.7122
26.9519 40.1489
26.9979 39.8382
27.0437 39.5081
27.0896 39.4261
27.1354 39.3986
27.1814 39.3521
27.2272 39.1187
27.2732 39.1164
27.3191 39.0504
27.3651 39.1314
27.4109 39.1363
27.4569 39.2264
27.5027 39.1833
27.5488 39.2542
27.5946 39.1014
27.6407 38.8353
27.6865 38.8283
27.7326 38.3862
27.7784 38.5252
27.8245 38.499
27.8703 38.7029
27.9164 38.9031
27.9623 39.1085
28.0084 39.3755
28.0543 39.6808
28.1003 39.6648
28.1462 39.5609
28.1923 39.0707
28.2384 38.3935
28.2843 38.1344
28.3304 37.6318
28.3764 37.33
28.4225 36.9254
28.4684 36.8572
28.5145 36.5291
28.5605 36.4109
28.6066 36.3017
28.6526 36.1636
28.6987 36.0868
28.7447 36.0737
28.7908 35.9593
28.8368 36.0223
28.8829 35.8583
28.9289 35.9595
28.9751 35.6637
29.0211 35.4223
29.0673 35.3127
29.1133 35.1869
29.1595 34.8806
29.2055 34.841
29.2517 34.8678
29.2977 34.7372
29.3439 34.9005
29.3899 34.7307
29.4361 34.771
29.4824 34.5122
29.5284 34.3089
29.5746 33.9549
29.6207 33.701
29.6669 33.6338
29.713 33.4956
29.7593 33.4922
29.8053 33.4681
29.8516 33.3236
29.8977 33.2524
29.9439 33.1558
29.99 33.1298
30.0363 33.0613
30.0824 33.0796
30.1287 32.9904
30.1748 32.8818
30.2211 32.9516
30.2673 32.725
30.3136 32.8755
30.3597 32.872
30.406 32.8189
30.4522 32.5776
30.4985 32.5922
30.5447 32.5935
30.591 32.611
30.6372 32.7047
30.6835 32.7265
30.7297 32.732
30.7761 32.5974
30.8224 32.5549
30.8686 32.3954
30.915 32.0552
30.9612 32.0885
31.0076 31.8183
31.0538 31.5454
31.1002 31.6609
31.1464 31.355
31.1928 31.3203
31.2391 31.5588
31.2855 31.2512
31.3317 31.3606
31.3781 31.3859
31.4244 31.3972
31.4708 31.3256
31.5171 31.3888
31.5636 31.3104
31.6098 31.0402
31.6563 30.9115
31.7026 30.7379
31.7491 30.627
31.7953 30.6174
31.8418 30.6943
31.8881 30.6808
31.9346 30.6
31.9809 30.4979
32.0275 30.3832
32.074 30.305
32.1203 30.0255
32.1668 29.9594
32.2132 29.9167
32.2597 29.7001
32.306 29.5915
32.3526 29.4519
32.399 29.4361
32.4455 29.1832
32.4919 29.1037
32.5385 29.1722
32.5848 28.899
32.6314 28.9418
32.6778 28.8686
32.7244 28.7201
32.7708 28.7254
32.8174 28.5612
32.8638 28.5164
32.9104 28.5362
32.9569 28.5231
33.0035 28.3773
33.0499 28.3084
33.0966 28.2033
33.143 28.2324
33.1897 28.2293
33.2361 28.1052
33.2828 28.0458
33.3293 27.8231
33.3759 27.7959
33.4226 27.6775
33.4691 27.5459
33.5158 27.5144
33.5623 27.3864
33.609 27.1695
33.6555 27.046
33.7022 27.0237
33.7487 26.8467
33.7954 26.9234
33.842 26.8223
33.8887 26.7438
33.9353 26.6349
33.982 26.4858
34.0286 26.4768
34.0753 26.4195
34.1219 26.3084
34.1687 26.285
34.2152 26.1435
34.262 26.0218
34.3086 25.9744
34.3554 25.9681
34.402 25.8001
34.4488 25.6615
34.4954 25.5469
34.5422 25.5176
34.5889 25.4991
34.6357 25.2808
34.6825 25.2796
34.7292 25.2787
34.776 25.2163
34.8227 25.0394
34.8695 25.0155
34.9162 25.0486
34.9631 24.8962
35.0098 24.9198
35.0566 24.7069
35.1033 24.709
35.1502 24.5909
35.1969 24.5574
35.2438 24.5976
35.2906 24.4157
35.3375 24.4448
35.3842 24.2887
35.4311 24.4278
35.4779 24.362
35.5248 24.2548
35.5716 24.0985
35.6185 24.0207
35.6653 23.8911
35.7123 24.0211
35.759 23.8239
35.806 23.717
35.8528 23.548
35.8998 23.5649
35.9468 23.4111
35.9936 23.4231
36.0406 23.3538
36.0874 23.3996
36.1345 23.2251
36.1813 23.212
36.2283 23.0953
36.2752 23.0184
36.3222 23.0201
36.3691 22.9605
36.4161 22.7755
36.463 22.9043
36.5101 22.7358
36.557 22.7092
36.6041 22.5569
36.651 22.5701
36.6981 22.533
36.745 22.4856
36.7921 22.3056
36.839 22.1629
36.8861 22.1679
36.9331 22.0718
36.9802 21.9997
37.0272 21.907
37.0743 21.8499
37.1213 21.8249
37.1684 21.7834
37.2154 21.6982
37.2626 21.5464
37.3098 21.5099
37.3568 21.406
37.404 21.4587
37.451 21.3356
37.4982 21.2721
37.5452 21.1236
37.5924 21.2166
37.6395 21.1859
37.6867 21.0363
37.7337 20.9405
37.781 20.7847
37.8281 20.7688
37.8753 20.6954
37.9224 20.6813
37.9697 20.5737
38.0168 20.4604
38.064 20.4158
38.1111 20.4475
38.1584 20.2898
38.2056 20.265
38.2529 20.2309
38.3 20.0916
38.3473 20.1459
38.3945 19.9476
38.4418 19.9815
38.489 19.8514
38.5363 19.7138
38.5837 19.7466
38.6309 19.7101
38.6782 19.5912
38.7254 19.5359
38.7728 19.529
38.82 19.4505
38.8674 19.4665
38.9146 19.2927
38.9621 19.2786
39.0093 19.1536
39.0567 19.1515
39.104 19.0733
39.1514 18.969
39.1987 19.0196
39.2461 18.9565
39.2934 18.8463
39.3409 18.7229
39.3882 18.6824
39.4356 18.6115
39.483 18.6065
39.5304 18.5587
39.5778 18.5528
39.6253 18.4165
39.6726 18.3324
39.7201 18.3637
39.7675 18.2075
39.815 18.2733
39.8624 18.0846
39.9099 18.0668
39.9575 18.0038
40.0049 17.9612
40.0525 17.8767
40.0999 17.8387
40.1474 17.8154
40.1949 17.7388
40.2425 17.6698
40.2899 17.6446
40.3375 17.6237
40.385 17.5358
40.4326 17.4722
40.48 17.403
40.5277 17.4137
40.5752 17.255
40.6228 17.2065
40.6703 17.2223
40.718 17.1549
40.7655 17.0891
40.8132 16.9813
40.8607 16.9897
40.9084 16.9067
40.9559 16.8641
41.0036 16.8176
41.0512 16.7859
41.0989 16.7266
41.1465 16.6624
41.1942 16.5867
41.242 16.5781
41.2896 16.4589
41.3373 16.4532
41.3849 16.3698
41.4327 16.2848
41.4803 16.2607
41.5281 16.2044
41.5758 16.0927
41.6236 16.1418
41.6712 16.022
41.7191 15.9358
41.7667 15.9674
41.8146 15.9228
41.8622 15.8152
41.9101 15.7702
41.9578 15.6676
42.0057 15.6515
42.0534 15.598
42.1013 15.5738
42.149 15.5074
42.1969 15.4299
42.2446 15.4347
42.2925 15.3435
42.3403 15.2861
42.3882 15.2964
42.436 15.2133
42.4839 15.1369
42.5319 15.1189
42.5797 15.0774
42.6277 15.0337
42.6755 14.9845
42.7235 14.8745
42.7713 14.8191
42.8193 14.7923
42.8671 14.7233
42.9152 14.6793
42.963 14.694
43.0111 14.6137
43.0589 14.5674
43.107 14.5017
43.1549 14.4116
43.2029 14.3587
43.2508 14.3555
43.2989 14.2625
43.3468 14.2686
43.3949 14.1735
43.4429 14.11
43.491 14.1054
43.5389 14.0298
43.5871 14.0162
43.635 13.9336
43.6832 13.8482
43.7312 13.8495
43.7793 13.7675
43.8273 13.7477
43.8755 13.6879
43.9237 13.6912
43.9717 13.6233
44.0199 13.6093
44.068 13.5136
44.1162 13.4397
44.1642 13.4361
44.2125 13.4043
44.2606 13.2813
44.3088 13.268
44.3569 13.2347
44.4052 13.2276
44.4533 13.125
44.5016 13.0569
44.5497 13.0584
44.598 13.0187
44.6461 12.9275
44.6945 12.9029
44.7426 12.8545
44.791 12.8003
44.8391 12.7687
44.8875 12.7385
44.9357 12.6997
44.984 12.659
45.0322 12.5905
45.0806 12.5479
45.1288 12.5017
45.1773 12.4248
45.2257 12.4235
45.2739 12.3389
45.3224 12.3651
45.3706 12.2978
45.4191 12.2183
45.4673 12.2151
45.5158 12.1275
45.5641 12.146
45.6126 12.0773
45.6609 12.0594
45.7094 11.9566
45.7577 11.9635
45.8063 11.8805
45.8546 11.8706
45.9031 11.8165
45.9515 11.7642
46.0001 11.7297
46.0484 11.714
46.097 11.6422
46.1454 11.6191
46.194 11.5937
46.2424 11.4944
46.291 11.4551
46.3395 11.442
46.3881 11.408
46.4365 11.3457
46.4852 11.3601
46.5337 11.2816
46.5823 11.2818
46.631 11.182
46.6795 11.1533
46.7282 11.1006
46.7767 11.1151
46.8254 11.0136
46.8739 10.9857
46.9226 10.9354
46.9712 10.9426
47.0199 10.8596
47.0685 10.8263
47.1173 10.8201
47.1658 10.7238
47.2146 10.7314
47.2632 10.6811
47.312 10.646
47.3606 10.607
47.4095 10.5059
47.4581 10.5305
47.5069 10.4612
47.5556 10.4385
47.6044 10.4
47.6531 10.3808
47.702 10.3141
47.7507 10.2872
47.7996 10.2149
47.8483 10.2064
47.8972 10.1857
47.9461 10.1356
47.9948 10.0994
48.0438 10.0328
48.0925 10.0124
48.1415 10.0174
48.1902 9.93046
48.2392 9.908
48.288 9.92351
48.337 9.83846
48.3858 9.82855
48.4348 9.76206
48.4837 9.75392
48.5327 9.74601
48.5815 9.65932
48.6306 9.62377
48.6795 9.62118
48.7285 9.54706
48.7774 9.543
48.8265 9.50842
48.8754 9.47585
48.9245 9.41923
48.9734 9.35237
49.0226 9.36664
49.0715 9.29104
49.1206 9.2995
49.1696 9.27141
49.2188 9.19279
49.2679 9.20099
49.3169 9.13813
49.3661 9.07889
49.4151 9.07146
49.4643 9.04941
49.5134 8.99343
49.5626 8.92901
49.6117 8.92342
49.6609 8.91679
49.71 8.8296
49.7592 8.84445
49.8083 8.76642
49.8576 8.77662
49.9067 8.75483
49.956 8.69833
50.0052 8.66696
50.0545 8.62974
50.1036 8.59062
50.153 8.5246
50.2022 8.53912
50.2515 8.49588
50.3007 8.46323
50.3501 8.41207
50.3993 8.39208
50.4487 8.34684
50.498 8.34217
50.5474 8.28594
50.5966 8.24371
50.6461 8.25363
50.6955 8.16993
50.7448 8.1666
50.7943 8.17232
50.8436 8.0912
50.8931 8.06095
50.9424 8.0654
50.9919 8.01593
51.0413 7.98633
51.0908 7.95256
51.1402 7.95222
51.1897 7.88438
51.2391 7.82324
51.2887 7.83213
51.3381 7.79681
51.3877 7.75703
51.4371 7.73343
51.4867 7.67784
51.5362 7.64583
51.5858 7.64395
51.6353 7.59785
51.6849 7.57993
51.7344 7.50335
51.7841 7.5302
51.8336 7.48107
51.8833 7.4717
51.9328 7.39436
51.9826 7.40034
52.0323 7.39488
52.0818 7.32189
52.1316 7.27816
52.1812 7.29185
52.231 7.25597
52.2806 7.20646
52.3304 7.17358
52.38 7.14087
52.4298 7.12572
52.4794 7.08154
52.5293 7.02877
52.5789 7.02957
52.6288 6.99974
52.6785 6.93641
52.7284 6.9457
52.7781 6.91527
52.828 6.87743
52.8777 6.85832
52.9276 6.78296
52.9774 6.79178
53.0273 6.77535
53.0771 6.74204
53.1271 6.74507
53.1769 6.67113
53.2269 6.66202
53.2767 6.57645
53.3267 6.63121
53.3765 6.57043
53.4266 6.53531
53.4766 6.47493
53.5265 6.47878
53.5765 6.46168
53.6264 6.43541
53.6765 6.38224
53.7264 6.3668
53.7765 6.35847
53.8265 6.28062
53.8766 6.29255
53.9266 6.23992
53.9767 6.26199
54.0267 6.24246
54.0769 6.22078
54.1269 6.10831
54.1771 6.13327
54.2271 6.06582
54.2773 6.01554
54.3274 6.03456
54.3776 6.00457
54.4277 5.9809
54.478 5.93867
54.528 5.84534
54.5783 5.83365
54.6285 5.80011
54.6788 5.7285
54.7289 5.74466
54.7792 5.69517
54.8296 5.61207
54.8798 5.57201
54.9301 5.59167
54.9803 5.54382
55.0307 5.50402
55.0809 5.45246
55.1314 5.42205
55.1816 5.36124
55.232 5.30382
55.2823 5.30655
55.3328 5.24141
55.383 5.20825
55.4335 5.1487
55.4838 5.05018
55.5344 5.01364
55.5847 4.9939
55.6352 4.94605
55.6856 4.94885
55.7361 4.91829