File: XRD/Ni3Fe_FD0719.xy
TT I
1.27165 7.4914
1.31627 6.41899
1.36089 6.64108
1.40551 6.69133
1.45013 6.95352
1.49476 6.80018
1.53938 5.93236
1.584 4.92989
1.62863 4.89185
1.67325 5.02003
1.71787 5.52294
1.7625 4.82105
1.80712 4.86995
1.85174 5.14354
1.89636 4.5509
1.94099 4.9272
1.98562 4.62455
2.03025 4.54992
2.07487 4.75369
2.11949 4.93413
2.16411 4.89948
2.20874 10.7969
2.25338 15.26
2.298 5.28429
2.34263 5.92221
2.38725 6.19418
2.43188 6.61583
2.4765 6.99312
2.52115 6.81776
2.56577 7.85862
2.6104 8.44652
2.65503 8.08586
2.69965 8.42809
2.7443 8.31239
2.78893 8.28937
2.83356 8.49715
2.87818 8.84566
2.92281 9.09944
2.96744 9.84246
3.01209 10.4653
3.05672 11.231
3.10135 12.0188
3.14599 12.8479
3.19062 13.884
3.23527 15.138
3.2799 15.5563
3.32454 17.0548
3.36917 17.9956
3.4138 19.0234
3.45844 19.9054
3.50309 20.5679
3.54773 21.7646
3.59237 23.7591
3.637 64.1849
3.68164 44.4493
3.7263 25.7822
3.77094 25.8072
3.81558 26.7699
3.86022 27.613
3.90486 28.8402
3.9495 29.9901
3.99416 30.9158
4.0388 32.3371
4.08344 33.3782
4.12809 34.6901
4.17273 36.4046
4.21738 40.7889
4.26204 167.23
4.30669 141.631
4.35133 46.3716
4.39598 44.8087
4.44063 50.9
4.4853 57.9977
4.52995 52.2708
4.5746 53.8501
4.61925 53.5819
4.6639 55.9288
4.70855 58.0422
4.75322 61.3918
4.79788 65.5292
4.84253 68.1255
4.88719 72.4804
4.93184 75.8023
4.97652 80.7853
5.02118 87.2781
5.06583 95.3736
5.11049 106.265
5.15515 158.77
5.19981 365.998
5.24449 2976.3
5.28916 12573.5
5.33382 2889.8
5.37848 193.171
5.42315 129.954
5.46783 116.32
5.5125 109.381
5.55716 102.537
5.60183 98.366
5.6465 96.2736
5.69117 94.6721
5.73586 92.642
5.78053 93.872
5.8252 93.6304
5.86988 94.9035
5.91455 94.6347
5.95924 103.409
6.00392 220.872
6.0486 988.297
6.09328 4446.73
6.13795 3222.63
6.18263 233.131
6.22733 91.9521
6.27201 81.2367
6.3167 90.7212
6.36138 76.6184
6.40606 69.1368
6.45075 68.0911
6.49545 65.2943
6.54014 63.7611
6.58483 62.6531
6.62952 62.532
6.67421 81.1467
6.71892 107.711
6.76361 64.3271
6.8083 58.6926
6.853 58.4121
6.89769 56.827
6.94239 56.5281
6.98711 55.7703
7.03181 55.376
7.07651 55.1061
7.12121 55.1551
7.16591 55.7952
7.21063 55.4074
7.25533 64.9133
7.30004 125.53
7.34475 75.1293
7.38945 55.4478
7.43416 53.8532
7.47889 54.2205
7.5236 54.5583
7.56831 54.7372
7.61303 56.1917
7.65774 56.3797
7.70247 56.1968
7.74719 56.0391
7.79191 56.5724
7.83663 56.7008
7.88135 57.7442
7.92607 58.4815
7.97081 59.4985
8.01553 60.7562
8.06026 62.6795
8.10498 63.8882
8.14971 70.522
8.19446 70.6218
8.23919 69.2398
8.28392 71.9165
8.32865 73.665
8.37339 78.4987
8.41812 84.4317
8.46288 105.648
8.50761 170.666
8.55235 399.39
8.59709 1225.32
8.64183 2156.2
8.68658 952.645
8.73134 169.413
8.77609 99.2202
8.82083 92.6207
8.86558 90.6998
8.91033 90.3663
8.9551 89.8732
8.99985 85.2305
9.04461 84.0515
9.08936 83.6047
9.13412 82.3485
9.17888 82.4461
9.22365 82.5122
9.26841 82.206
9.31318 83.517
9.35794 84.2424
9.4027 84.1072
9.44749 84.3166
9.49226 84.7207
9.53703 85.7888
9.5818 88.5959
9.62657 92.5154
9.67134 95.9525
9.71614 93.0148
9.76091 94.0532
9.80569 97.53
9.85047 100.446
9.89525 116.363
9.94005 127.748
9.98484 183.959
10.0296 355.607
10.0744 846.868
10.1192 1728.23
10.164 1604.98
10.2088 409.653
10.2536 126.375
10.2984 111.242
10.3432 110.185
10.388 104.301
10.4328 120.709
10.4776 163.547
10.5224 293.167
10.5672 498.022
10.612 501.946
10.6568 206.546
10.7017 96.5075
10.7465 86.6708
10.7913 82.8225
10.8361 80.919
10.8809 78.7898
10.9257 78.1549
10.9706 78.0967
11.0154 74.9786
11.0602 72.8951
11.105 71.6805
11.1499 73.9513
11.1947 77.5488
11.2395 71.4602
11.2844 69.0381
11.3292 66.9072
11.374 65.7033
11.4189 65.687
11.4637 64.9817
11.5086 64.9249
11.5534 66.141
11.5983 64.5802
11.6431 63.6749
11.688 62.8935
11.7328 62.6255
11.7777 62.5594
11.8225 62.5504
11.8674 62.2765
11.9122 62.7161
11.9571 62.9191
12.002 63.732
12.0468 68.136
12.0917 79.0416
12.1366 104.76
12.1814 154.298
12.2263 199.459
12.2712 162.564
12.3161 94.1592
12.3609 68.8019
12.4058 64.4287
12.4507 63.8379
12.4956 64.318
12.5405 64.68
12.5853 65.2117
12.6302 69.9084
12.6751 73.3193
12.72 68.5394
12.7649 67.4892
12.8098 68.2002
12.8547 69.6312
12.8996 71.2409
12.9445 72.3425
12.9894 74.0215
13.0343 75.8834
13.0792 79.3468
13.1242 89.972
13.1691 111.921
13.214 151.564
13.2589 247.495
13.3038 370.643
13.3487 413.184
13.3937 265.09
13.4386 126.451
13.4835 106.486
13.5285 121.951
13.5734 163.483
13.6183 254.599
13.6633 344.565
13.7082 328.045
13.7531 186.013
13.7981 97.5407
13.843 81.9296
13.888 79.7263
13.9329 76.8807
13.9779 75.7927
14.0228 74.5523
14.0678 72.8218
14.1127 72.4734
14.1577 71.8628
14.2027 71.2035
14.2476 70.4038
14.2926 70.0665
14.3376 70.7505
14.3825 69.9585
14.4275 68.8492
14.4725 68.7637
14.5175 68.6167
14.5624 68.755
14.6074 70.3477
14.6524 70.7652
14.6974 70.6319
14.7424 72.4535
14.7874 79.6158
14.8324 89.4455
14.8774 113.027
14.9224 157.463
14.9674 207.144
15.0124 215.453
15.0574 147.517
15.1024 90.6192
15.1474 72.2223
15.1924 70.0769
15.2374 70.2969
15.2824 69.2285
15.3274 67.6031
15.3725 66.7142
15.4175 66.177
15.4625 65.8149
15.5076 65.8476
15.5526 65.8933
15.5976 65.7224
15.6426 67.4025
15.6877 72.5828
15.7327 80.2976
15.7778 96.6248
15.8228 129.863
15.8679 170.908
15.9129 188.274
15.958 153.864
16.003 97.4984
16.0481 68.5941
16.0931 63.6443
16.1382 61.855
16.1833 60.1495
16.2283 58.8645
16.2734 58.1784
16.3185 58.2073
16.3636 58.2823
16.4086 57.0745
16.4537 55.8847
16.4988 55.3095
16.5439 55.2733
16.589 55.099
16.6341 54.8957
16.6792 54.3536
16.7243 54.7248
16.7694 54.4926
16.8145 54.594
16.8596 54.8863
16.9047 55.8085
16.9498 56.0893
16.9949 55.3002
17.04 55.8872
17.0851 57.2292
17.1302 58.7392
17.1754 61.849
17.2205 67.1188
17.2656 74.7301
17.3108 81.9763
17.3559 81.3807
17.401 70.7678
17.4462 62.2011
17.4913 59.2599
17.5365 58.948
17.5815 59.1116
17.6268 59.5666
17.6718 60.2268
17.7171 60.579
17.7622 61.2261
17.8074 61.8666
17.8525 64.6893
17.8977 68.5267
17.9428 74.148
17.9881 83.7314
18.0331 101.96
18.0784 122.665
18.1237 138.066
18.1688 130.861
18.214 104.392
18.2591 88.0227
18.3044 91.4458
18.3495 99.9477
18.3948 104.276
18.4399 95.0191
18.4852 77.191
18.5303 65.7875
18.5756 62.3307
18.6207 61.1931
18.666 60.3224
18.7112 59.4566
18.7565 59.0175
18.8016 58.5865
18.8469 57.6781
18.892 57.6981
18.9374 57.1532
18.9825 57.1282
19.0278 56.7255
19.073 56.8698
19.1183 57.3016
19.1635 58.0448
19.2088 59.621
19.254 62.4575
19.2993 67.0936
19.3447 72.4862
19.3898 75.4392
19.4352 71.3666
19.4804 63.2593
19.5257 56.8339
19.5709 54.0384
19.6163 53.7212
19.6615 53.5665
19.7068 53.2842
19.752 53.2694
19.7974 53.525
19.8426 54.4472
19.888 54.9999
19.9332 56.1086
19.9786 59.0773
20.0238 62.7925
20.0692 67.1546
20.1144 69.2486
20.1598 67.9706
20.205 63.9823
20.2504 62.3826
20.2957 63.8502
20.3411 64.8112
20.3863 63.2563
20.4318 58.2662
20.477 53.7127
20.5224 51.4478
20.5677 50.731
20.6131 50.1693
20.6586 49.6654
20.7038 49.54
20.7493 48.97
20.7945 48.935
20.84 48.8639
20.8853 48.7155
20.9307 48.5408
20.976 48.9104
21.0215 48.6236
21.0668 49.046
21.1122 49.4599
21.1575 50.047
21.203 50.8596
21.2483 51.2987
21.2938 51.3909
21.3391 50.0795
21.3846 48.7583
21.4299 48.4629
21.4754 48.3365
21.5207 48.5347
21.5662 48.7925
21.6116 49.2215
21.6571 49.7443
21.7024 50.8663
21.7479 52.7282
21.7933 55.7414
21.8388 59.1729
21.8843 62.5324
21.9297 64.2109
21.9752 63.124
22.0206 59.7402
22.0661 56.5644
22.1115 55.802
22.157 55.5897
22.2024 54.0687
22.248 51.5165
22.2933 49.8032
22.3389 49.1171
22.3843 48.8495
22.4299 48.8572
22.4753 48.7427
22.5208 48.5864
22.5662 48.4672
22.6118 48.7949
22.6572 48.9438
22.7028 49.28
22.7483 49.817
22.7939 50.4958
22.8393 52.0859
22.8849 54.2207
22.9303 56.1104
22.9759 57.3164
23.0214 57.1928
23.067 54.4811
23.1126 51.1212
23.1581 49.2517
23.2037 48.7966
23.2492 48.7069
23.2948 48.6491
23.3403 49.1095
23.3859 49.818
23.4314 51.0105
23.477 52.8586
23.5225 54.9632
23.5682 56.7697
23.6137 57.4729
23.6593 55.1726
23.7048 51.5758
23.7505 48.3961
23.796 46.661
23.8417 45.9859
23.8872 45.5525
23.9329 45.122
23.9784 44.7776
24.0241 44.5674
24.0697 44.3495
24.1154 44.0202
24.1609 43.8
24.2066 43.8529
24.2522 43.588
24.2979 43.4101
24.3434 43.1642
24.3892 42.9903
24.4349 42.9239
24.4805 42.8027
24.5262 43.1112
24.5718 42.9911
24.6175 42.8702
24.6631 42.6734
24.7089 42.4482
24.7545 42.2532
24.8002 42.2638
24.8458 42.0953
24.8916 42.2305
24.9372 42.2733
24.983 42.4566
25.0286 42.7655
25.0744 43.3724
25.12 43.6339
25.1658 44.2546
25.2114 44.6905
25.2572 44.7185
25.3029 44.6922
25.3487 44.7604
25.3943 44.3561
25.4402 43.496
25.4858 42.3557
25.5316 41.4058
25.5773 40.9616
25.6231 40.8565
25.669 40.5494
25.7147 40.3765
25.7605 40.4686
25.8062 40.5811
25.8521 40.5394
25.8977 40.6549
25.9436 40.937
25.9893 40.8755
26.0352 41.4265
26.0809 41.3984
26.1268 41.55
26.1725 41.2993
26.2184 40.7402
26.2641 40.249
26.31 39.9564
26.3557 40.1559
26.4017 40.0737
26.4474 40.3977
26.4933 40.755
26.5391 41.1552
26.585 41.6981
26.6308 41.9628
26.6767 42.1071
26.7225 41.9344
26.7684 41.4353
26.8142 40.8304
26.8601 40.3348
26.9059 39.963
26.9519 39.4292
26.9979 39.2785
27.0437 38.8304
27.0896 38.6763
27.1354 38.7748
27.1814 38.6754
27.2272 38.4983
27.2732 38.397
27.3191 38.3087
27.3651 38.446
27.4109 38.4603
27.4569 38.3564
27.5027 38.4538
27.5488 38.4521
27.5946 38.3343
27.6407 37.9962
27.6865 38.1385
27.7326 37.7852
27.7784 37.8704
27.8245 37.7759
27.8703 38.0542
27.9164 38.2902
27.9623 38.449
28.0084 38.6305
28.0543 38.9558
28.1003 39.1136
28.1462 38.6386
28.1923 38.3796
28.2384 37.862
28.2843 37.5838
28.3304 37.2466
28.3764 36.7195
28.4225 36.4346
28.4684 36.2316
28.5145 35.9086
28.5605 35.8401
28.6066 35.6266
28.6526 35.5538
28.6987 35.5918
28.7447 35.4677
28.7908 35.4406
28.8368 35.3841
28.8829 35.369
28.9289 35.4824
28.9751 35.0772
29.0211 34.8802
29.0673 34.6336
29.1133 34.6057
29.1595 34.3229
29.2055 34.283
29.2517 34.3264
29.2977 34.4044
29.3439 34.2183
29.3899 34.2422
29.4361 34.0359
29.4824 33.915
29.5284 33.6752
29.5746 33.4673
29.6207 33.0676
29.6669 33.0366
29.713 33.0228
29.7593 32.8059
29.8053 32.8841
29.8516 32.7287
29.8977 32.7432
29.9439 32.5965
29.99 32.5507
30.0363 32.3915
30.0824 32.6008
30.1287 32.3769
30.1748 32.4979
30.2211 32.3576
30.2673 32.3222
30.3136 32.2951
30.3597 32.3228
30.406 32.1253
30.4522 32.051
30.4985 31.985
30.5447 32.0781
30.591 32.1015
30.6372 32.1522
30.6835 32.1041
30.7297 32.2052
30.7761 32.1704
30.8224 31.9253
30.8686 31.8209
30.915 31.539
30.9612 31.537
31.0076 31.2827
31.0538 31.1119
31.1002 31.1287
31.1464 30.8577
31.1928 31.0797
31.2391 30.8799
31.2855 30.8068
31.3317 30.828
31.3781 30.8658
31.4244 30.8494
31.4708 30.7412
31.5171 30.7636
31.5636 30.6907
31.6098 30.4509
31.6563 30.2912
31.7026 30.1981
31.7491 30.1252
31.7953 30.134
31.8418 30.0395
31.8881 30.193
31.9346 30.0542
31.9809 29.9289
32.0275 29.8713
32.074 29.7082
32.1203 29.6572
32.1668 29.3927
32.2132 29.3043
32.2597 29.2199
32.306 29.1572
32.3526 29.0035
32.399 28.9478
32.4455 28.7537
32.4919 28.58
32.5385 28.6183
32.5848 28.3614
32.6314 28.4598
32.6778 28.3633
32.7244 28.2894
32.7708 28.0617
32.8174 28.1292
32.8638 27.9254
32.9104 28.1058
32.9569 27.9916
33.0035 27.793
33.0499 27.8484
33.0966 27.7033
33.143 27.7486
33.1897 27.6311
33.2361 27.5886
33.2828 27.5416
33.3293 27.296
33.3759 27.4074
33.4226 27.0793
33.4691 27.1665
33.5158 26.9994
33.5623 26.8794
33.609 26.7423
33.6555 26.6565
33.7022 26.6138
33.7487 26.4785
33.7954 26.4142
33.842 26.3166
33.8887 26.2139
33.9353 26.3014
33.982 26.039
34.0286 25.9706
34.0753 25.9832
34.1219 25.8547
34.1687 25.8161
34.2152 25.7142
34.262 25.5668
34.3086 25.4579
34.3554 25.5052
34.402 25.2761
34.4488 25.2942
34.4954 25.2068
34.5422 25.1371
34.5889 25.0304
34.6357 24.9608
34.6825 24.9217
34.7292 24.8079
34.776 24.6876
34.8227 24.6196
34.8695 24.6525
34.9162 24.5781
34.9631 24.423
35.0098 24.4825
35.0566 24.2884
35.1033 24.1922
35.1502 24.2551
35.1969 24.1346
35.2438 24.0579
35.2906 24.0982
35.3375 23.9818
35.3842 23.9117
35.4311 23.9756
35.4779 24.013
35.5248 23.8464
35.5716 23.7206
35.6185 23.6683
35.6653 23.5753
35.7123 23.4439
35.759 23.4861
35.806 23.3136
35.8528 23.1766
35.8998 23.1272
35.9468 23.1531
35.9936 23.0561
36.0406 22.9988
36.0874 22.8806
36.1345 22.8609
36.1813 22.8282
36.2283 22.6764
36.2752 22.6036
36.3222 22.633
36.3691 22.5038
36.4161 22.4625
36.463 22.419
36.5101 22.3454
36.557 22.2936
36.6041 22.175
36.651 22.1123
36.6981 22.0889
36.745 22.0556
36.7921 21.9247
36.839 21.8021
36.8861 21.7546
36.9331 21.63
36.9802 21.6614
37.0272 21.4919
37.0743 21.4723
37.1213 21.4084
37.1684 21.3647
37.2154 21.2653
37.2626 21.1668
37.3098 21.162
37.3568 21.1272
37.404 21.0678
37.451 20.9477
37.4982 20.8994
37.5452 20.7524
37.5924 20.7497
37.6395 20.8308
37.6867 20.7292
37.7337 20.548
37.781 20.5139
37.8281 20.3971
37.8753 20.2515
37.9224 20.3227
37.9697 20.2469
38.0168 20.1414
38.064 20.0887
38.1111 20.0943
38.1584 19.9854
38.2056 19.9126
38.2529 19.8706
38.3 19.7493
38.3473 19.8253
38.3945 19.6755
38.4418 19.6376
38.489 19.5709
38.5363 19.4701
38.5837 19.4384
38.6309 19.336
38.6782 19.3535
38.7254 19.2273
38.7728 19.1732
38.82 19.06
38.8674 19.082
38.9146 19.0432
38.9621 18.9326
39.0093 18.9166
39.0567 18.7997
39.104 18.7948
39.1514 18.6875
39.1987 18.6599
39.2461 18.5984
39.2934 18.6039
39.3409 18.4235
39.3882 18.4051
39.4356 18.3998
39.483 18.217
39.5304 18.2346
39.5778 18.2138
39.6253 18.074
39.6726 18.0715
39.7201 18.0383
39.7675 17.9481
39.815 17.8891
39.8624 17.7713
39.9099 17.8214
39.9575 17.7204
40.0049 17.6566
40.0525 17.5931
40.0999 17.5742
40.1474 17.5227
40.1949 17.4144
40.2425 17.3857
40.2899 17.3493
40.3375 17.3236
40.385 17.2304
40.4326 17.1268
40.48 17.1134
40.5277 17.1118
40.5752 17.0349
40.6228 16.9291
40.6703 16.868
40.718 16.8356
40.7655 16.7751
40.8132 16.7454
40.8607 16.7353
40.9084 16.6744
40.9559 16.5963
41.0036 16.5787
41.0512 16.4918
41.0989 16.4407
41.1465 16.3609
41.1942 16.2894
41.242 16.2616
41.2896 16.1899
41.3373 16.1261
41.3849 16.1101
41.4327 16.0966
41.4803 15.9753
41.5281 15.9055
41.5758 15.8996
41.6236 15.8089
41.6712 15.755
41.7191 15.7229
41.7667 15.6636
41.8146 15.6194
41.8622 15.5383
41.9101 15.5483
41.9578 15.4215
42.0057 15.3473
42.0534 15.329
42.1013 15.3248
42.149 15.2958
42.1969 15.194
42.2446 15.1533
42.2925 15.0796
42.3403 15.0438
42.3882 15.0141
42.436 14.9168
42.4839 14.9053
42.5319 14.8335
42.5797 14.7755
42.6277 14.7513
42.6755 14.6952
42.7235 14.6264
42.7713 14.5736
42.8193 14.5671
42.8671 14.4347
42.9152 14.461
42.963 14.4349
43.0111 14.3166
43.0589 14.2551
43.107 14.2906
43.1549 14.1972
43.2029 14.1595
43.2508 14.1365
43.2989 14.0781
43.3468 14.0239
43.3949 13.9845
43.4429 13.9447
43.491 13.8801
43.5389 13.7993
43.5871 13.786
43.635 13.7207
43.6832 13.7224
43.7312 13.59
43.7793 13.5542
43.8273 13.5585
43.8755 13.4972
43.9237 13.4267
43.9717 13.3735
44.0199 13.3086
44.068 13.3259
44.1162 13.2254
44.1642 13.2417
44.2125 13.1674
44.2606 13.1222
44.3088 13.1131
44.3569 13.0391
44.4052 12.9998
44.4533 12.9411
44.5016 12.8944
44.5497 12.8561
44.598 12.8032
44.6461 12.7184
44.6945 12.6894
44.7426 12.6626
44.791 12.5862
44.8391 12.6118
44.8875 12.5305
44.9357 12.5207
44.984 12.431
45.0322 12.4374
45.0806 12.3622
45.1288 12.3038
45.1773 12.2749
45.2257 12.1702
45.2739 12.1858
45.3224 12.136
45.3706 12.1196
45.4191 12.0754
45.4673 11.9735
45.5158 11.9837
45.5641 11.9194
45.6126 11.9089
45.6609 11.8098
45.7094 11.7774
45.7577 11.7409
45.8063 11.6921
45.8546 11.6735
45.9031 11.6196
45.9515 11.5814
46.0001 11.5621
46.0484 11.5006
46.097 11.4948
46.1454 11.44
46.194 11.4177
46.2424 11.3307
46.291 11.3169
46.3395 11.3265
46.3881 11.1751
46.4365 11.2119
46.4852 11.1689
46.5337 11.1056
46.5823 11.0951
46.631 11.0183
46.6795 10.9905
46.7282 10.9612
46.7767 10.9222
46.8254 10.8658
46.8739 10.8394
46.9226 10.7733
46.9712 10.743
47.0199 10.7165
47.0685 10.6459
47.1173 10.6483
47.1658 10.5434
47.2146 10.5442
47.2632 10.4934
47.312 10.4442
47.3606 10.3876
47.4095 10.3662
47.4581 10.3312
47.5069 10.2721
47.5556 10.2812
47.6044 10.2066
47.6531 10.2083
47.702 10.1686
47.7507 10.1047
47.7996 10.0757
47.8483 10.0223
47.8972 9.98372
47.9461 9.98819
47.9948 9.92625
48.0438 9.86205
48.0925 9.86933
48.1415 9.84209
48.1902 9.75577
48.2392 9.78571
48.288 9.75103
48.337 9.68789
48.3858 9.62703
48.4348 9.59238
48.4837 9.59415
48.5327 9.58428
48.5815 9.54038
48.6306 9.49352
48.6795 9.43985
48.7285 9.42095
48.7774 9.35355
48.8265 9.32867
48.8754 9.28705
48.9245 9.25985
48.9734 9.22799
49.0226 9.20543
49.0715 9.15302
49.1206 9.13051
49.1696 9.09681
49.2188 9.09953
49.2679 9.04077
49.3169 8.97704
49.3661 8.9212
49.4151 8.93666
49.4643 8.92792
49.5134 8.85084
49.5626 8.77052
49.6117 8.80334
49.6609 8.76154
49.71 8.67429
49.7592 8.66869
49.8083 8.65861
49.8576 8.60556
49.9067 8.57578
49.956 8.55512
50.0052 8.51933
50.0545 8.48513
50.1036 8.42677
50.153 8.41631
50.2022 8.3751
50.2515 8.33614
50.3007 8.26418
50.3501 8.27238
50.3993 8.23637
50.4487 8.2304
50.498 8.2049
50.5474 8.20079
50.5966 8.09525
50.6461 8.10957
50.6955 8.08361
50.7448 8.00274
50.7943 8.03136
50.8436 7.9911
50.8931 7.9501
50.9424 7.91477
50.9919 7.85344
51.0413 7.85526
51.0908 7.83299
51.1402 7.79608
51.1897 7.77065
51.2391 7.7451
51.2887 7.6841
51.3381 7.68635
51.3877 7.62556
51.4371 7.61209
51.4867 7.55689
51.5362 7.52271
51.5858 7.49743
51.6353 7.44097
51.6849 7.45646
51.7344 7.39496
51.7841 7.39438
51.8336 7.37405
51.8833 7.34132
51.9328 7.30162
51.9826 7.25528
52.0323 7.23103
52.0818 7.20591
52.1316 7.1775
52.1812 7.12142
52.231 7.10336
52.2806 7.07812
52.3304 7.06265
52.38 6.98867
52.4298 7.00023
52.4794 6.97444
52.5293 6.94724
52.5789 6.90066
52.6288 6.9313
52.6785 6.85886
52.7284 6.82331
52.7781 6.80991
52.828 6.73802
52.8777 6.73563
52.9276 6.70561
52.9774 6.70944
53.0273 6.6695
53.0771 6.64623
53.1271 6.62356
53.1769 6.57629
53.2269 6.53123
53.2767 6.54957
53.3267 6.52536
53.3765 6.47538
53.4266 6.44191
53.4766 6.39401
53.5265 6.38965
53.5765 6.35908
53.6264 6.31843
53.6765 6.35577
53.7264 6.29631
53.7765 6.26541
53.8265 6.23525
53.8766 6.16342
53.9266 6.17837
53.9767 6.14332
54.0267 6.11738
54.0769 6.05526
54.1269 6.02845
54.1771 6.05652
54.2271 6.0053
54.2773 5.95824
54.3274 5.96637
54.3776 5.86229
54.4277 5.88035
54.478 5.79972
54.528 5.80948
54.5783 5.77249
54.6285 5.74639
54.6788 5.63604
54.7289 5.67966
54.7792 5.63889
54.8296 5.56698
54.8798 5.48571
54.9301 5.43931
54.9803 5.47197
55.0307 5.46178
55.0809 5.357
55.1314 5.38814
55.1816 5.27721
55.232 5.19833
55.2823 5.25002
55.3328 5.1729
55.383 5.09895
55.4335 5.07503
55.4838 5.01239
55.5344 4.93906
55.5847 4.88555
55.6352 4.88912
55.6856 4.86835
55.7361 4.8573