File: XRD/Ni3Fe_FD0803.xy
TT I
1.27165 6.8186
1.31627 6.32382
1.36089 6.6206
1.40551 6.44282
1.45013 6.30883
1.49476 5.92988
1.53938 5.32186
1.584 5.22506
1.62863 5.63033
1.67325 5.14783
1.71787 4.67686
1.7625 5.07047
1.80712 4.94632
1.85174 4.64516
1.89636 4.48585
1.94099 4.67276
1.98562 4.53341
2.03025 3.98698
2.07487 4.01034
2.11949 4.86138
2.16411 4.92698
2.20874 9.27023
2.25338 13.0404
2.298 5.63404
2.34263 5.94465
2.38725 6.00507
2.43188 6.06003
2.4765 6.9205
2.52115 7.01877
2.56577 7.00105
2.6104 8.74422
2.65503 7.79413
2.69965 8.04157
2.7443 7.87034
2.78893 7.99365
2.83356 8.56126
2.87818 9.20214
2.92281 8.93002
2.96744 9.68015
3.01209 10.3305
3.05672 10.9728
3.10135 11.7614
3.14599 13.0755
3.19062 14.4212
3.23527 15.1571
3.2799 15.2379
3.32454 16.6772
3.36917 17.2981
3.4138 18.5623
3.45844 19.0101
3.50309 20.4342
3.54773 21.4416
3.59237 23.4095
3.637 56.2043
3.68164 40.2042
3.7263 25.162
3.77094 26.1246
3.81558 26.4679
3.86022 27.0622
3.90486 28.6351
3.9495 29.4901
3.99416 30.7441
4.0388 31.5848
4.08344 33.0304
4.12809 33.9589
4.17273 35.4626
4.21738 39.5902
4.26204 142.554
4.30669 121.549
4.35133 44.6927
4.39598 43.2265
4.44063 49.1908
4.4853 55.662
4.52995 54.5355
4.5746 55.7525
4.61925 53.3943
4.6639 55.4546
4.70855 57.7442
4.75322 61.1634
4.79788 67.0091
4.84253 68.2164
4.88719 73.6619
4.93184 75.675
4.97652 80.218
5.02118 86.4453
5.06583 94.1506
5.11049 105.934
5.15515 157.079
5.19981 389.061
5.24449 2839.65
5.28916 12312.8
5.33382 2489.46
5.37848 184.153
5.42315 127.822
5.46783 116.262
5.5125 109.5
5.55716 101.555
5.60183 97.2288
5.6465 95.1792
5.69117 93.5606
5.73586 92.084
5.78053 95.6402
5.8252 95.3363
5.86988 97.4853
5.91455 94.6166
5.95924 103.504
6.00392 236.064
6.0486 974.507
6.09328 4595.11
6.13795 3023.75
6.18263 203.372
6.22733 89.3931
6.27201 79.9016
6.3167 87.2538
6.36138 74.8552
6.40606 69.3528
6.45075 68.5326
6.49545 65.067
6.54014 62.8079
6.58483 62.3329
6.62952 62.2541
6.67421 76.8401
6.71892 98.085
6.76361 62.6152
6.8083 58.4822
6.853 58.2982
6.89769 56.2793
6.94239 55.4289
6.98711 55.6207
7.03181 55.4136
7.07651 54.562
7.12121 54.4152
7.16591 55.4363
7.21063 54.4601
7.25533 61.9025
7.30004 112.447
7.34475 71.2223
7.38945 54.9717
7.43416 53.5033
7.47889 53.5368
7.5236 54.3027
7.56831 54.5482
7.61303 55.3924
7.65774 55.8757
7.70247 55.9939
7.74719 55.6799
7.79191 56.0752
7.83663 56.3313
7.88135 57.1934
7.92607 58.2414
7.97081 59.2799
8.01553 60.46
8.06026 62.0642
8.10498 63.5199
8.14971 70.2639
8.19446 70.4014
8.23919 68.9254
8.28392 71.1978
8.32865 73.6391
8.37339 78.0301
8.41812 83.5656
8.46288 104.09
8.50761 176.439
8.55235 384.781
8.59709 1215.41
8.64183 2186.56
8.68658 833.432
8.73134 145.983
8.77609 96.9465
8.82083 91.421
8.86558 91.3353
8.91033 91.058
8.9551 88.9824
8.99985 84.6278
9.04461 83.1901
9.08936 83.4003
9.13412 82.3367
9.17888 81.608
9.22365 82.2655
9.26841 81.4783
9.31318 83.5193
9.35794 84.6698
9.4027 84.4601
9.44749 84.274
9.49226 84.009
9.53703 85.0314
9.5818 88.3199
9.62657 93.0319
9.67134 94.9876
9.71614 92.4773
9.76091 93.9909
9.80569 98.2642
9.85047 99.8887
9.89525 113.351
9.94005 127.4
9.98484 189.355
10.0296 344.937
10.0744 840.866
10.1192 1808.11
10.164 1494.51
10.2088 339.247
10.2536 119.772
10.2984 108.981
10.3432 108.603
10.388 104.09
10.4328 121.357
10.4776 162.062
10.5224 292.217
10.5672 539.637
10.612 481.943
10.6568 182.65
10.7017 93.9181
10.7465 85.3338
10.7913 82.2758
10.8361 80.3081
10.8809 78.3425
10.9257 77.398
10.9706 77.5854
11.0154 74.6247
11.0602 72.0333
11.105 70.8653
11.1499 72.4507
11.1947 75.1279
11.2395 70.0218
11.2844 68.4625
11.3292 66.5076
11.374 65.4319
11.4189 65.031
11.4637 64.2428
11.5086 64.1683
11.5534 65.3577
11.5983 64.1185
11.6431 62.8103
11.688 62.0695
11.7328 62.0958
11.7777 62.2094
11.8225 61.8526
11.8674 61.9429
11.9122 62.2161
11.9571 62.4787
12.002 63.5788
12.0468 68.3621
12.0917 77.849
12.1366 102.802
12.1814 158.193
12.2263 215.367
12.2712 166.146
12.3161 87.2289
12.3609 66.5447
12.4058 63.4205
12.4507 63.6243
12.4956 64.0601
12.5405 64.256
12.5853 64.8846
12.6302 68.4339
12.6751 71.507
12.72 67.5697
12.7649 67.0709
12.8098 67.7028
12.8547 69.1004
12.8996 70.9073
12.9445 72.2979
12.9894 73.6377
13.0343 75.5876
13.0792 79.3734
13.1242 91.1417
13.1691 111.346
13.214 149.488
13.2589 249.282
13.3038 391.651
13.3487 416.544
13.3937 236.146
13.4386 116.623
13.4835 105.869
13.5285 119.757
13.5734 159.683
13.6183 258.275
13.6633 365.759
13.7082 325.767
13.7531 165.814
13.7981 92.3032
13.843 80.6929
13.888 78.7575
13.9329 76.2769
13.9779 75.2772
14.0228 73.7212
14.0678 72.5524
14.1127 71.9271
14.1577 71.1715
14.2027 70.6714
14.2476 69.5882
14.2926 69.4244
14.3376 69.7616
14.3825 69.0927
14.4275 68.3075
14.4725 67.9786
14.5175 68.5405
14.5624 68.4579
14.6074 69.3678
14.6524 69.999
14.6974 70.1853
14.7424 72.7504
14.7874 79.131
14.8324 88.8021
14.8774 111.745
14.9224 159.505
14.9674 218.514
15.0124 218.859
15.0574 139.438
15.1024 85.4711
15.1474 71.0955
15.1924 69.2442
15.2374 69.0757
15.2824 68.352
15.3274 66.9088
15.3725 66.0009
15.4175 65.7191
15.4625 65.04
15.5076 65.1668
15.5526 65.2381
15.5976 65.272
15.6426 67.3756
15.6877 72.5491
15.7327 79.3323
15.7778 95.1885
15.8228 129.697
15.8679 177.913
15.9129 195.686
15.958 144.267
16.003 87.8446
16.0481 65.4547
16.0931 62.7061
16.1382 60.8441
16.1833 59.7638
16.2283 58.158
16.2734 57.576
16.3185 57.4924
16.3636 57.5035
16.4086 56.2668
16.4537 55.1522
16.4988 54.7641
16.5439 54.6078
16.589 54.461
16.6341 54.3659
16.6792 53.8088
16.7243 54.0508
16.7694 54.1623
16.8145 54.0869
16.8596 54.5391
16.9047 55.3813
16.9498 55.3614
16.9949 54.8495
17.04 55.6931
17.0851 56.725
17.1302 58.2877
17.1754 61.2684
17.2205 66.757
17.2656 75.2091
17.3108 83.4427
17.3559 80.8582
17.401 68.5667
17.4462 60.5149
17.4913 58.553
17.5365 58.5897
17.5815 58.5573
17.6268 59.0189
17.6718 59.5491
17.7171 59.986
17.7622 60.6903
17.8074 61.7093
17.8525 64.5927
17.8977 68.2362
17.9428 73.2017
17.9881 82.8865
18.0331 101.482
18.0784 125.216
18.1237 141.201
18.1688 126.315
18.214 98.2975
18.2591 84.9321
18.3044 91.4753
18.3495 102.14
18.3948 105.051
18.4399 91.947
18.4852 73.7078
18.5303 64.2932
18.5756 61.391
18.6207 60.5544
18.666 59.638
18.7112 59.0274
18.7565 58.2767
18.8016 58.0676
18.8469 57.4118
18.892 57.2074
18.9374 56.7072
18.9825 56.4164
19.0278 56.1804
19.073 56.4459
19.1183 56.8749
19.1635 57.2653
19.2088 58.6804
19.254 61.7234
19.2993 66.4176
19.3447 72.4703
19.3898 75.3316
19.4352 69.7056
19.4804 60.8598
19.5257 55.4664
19.5709 53.5661
19.6163 53.3296
19.6615 53.2069
19.7068 52.8146
19.752 52.7507
19.7974 53.2705
19.8426 53.8882
19.888 54.3618
19.9332 55.8557
19.9786 58.5889
20.0238 62.71
20.0692 67.7257
20.1144 69.5577
20.1598 66.8703
20.205 62.4313
20.2504 61.8388
20.2957 64.05
20.3411 65.2411
20.3863 62.6743
20.4318 56.7259
20.477 52.5087
20.5224 50.6149
20.5677 50.182
20.6131 49.4425
20.6586 49.1226
20.7038 48.9327
20.7493 48.4664
20.7945 48.4189
20.84 48.2432
20.8853 48.3981
20.9307 48.0957
20.976 48.1087
21.0215 48.1695
21.0668 48.4316
21.1122 48.8349
21.1575 49.6527
21.203 50.4536
21.2483 51.0793
21.2938 50.8277
21.3391 49.3695
21.3846 48.2498
21.4299 47.9678
21.4754 47.9108
21.5207 48.1184
21.5662 48.6498
21.6116 48.9715
21.6571 49.4337
21.7024 50.5769
21.7479 52.2937
21.7933 55.3401
21.8388 59.1554
21.8843 63.0927
21.9297 64.3581
21.9752 61.6559
22.0206 58.0662
22.0661 55.7936
22.1115 55.6675
22.157 55.3691
22.2024 53.0233
22.248 50.4796
22.2933 49.1034
22.3389 48.3821
22.3843 48.2805
22.4299 48.1797
22.4753 48.2287
22.5208 48.1305
22.5662 47.8902
22.6118 48.2104
22.6572 48.4599
22.7028 48.7445
22.7483 49.1011
22.7939 49.9852
22.8393 51.7051
22.8849 53.9118
22.9303 55.9279
22.9759 57.393
23.0214 56.2948
23.067 53.3465
23.1126 50.1603
23.1581 48.3583
23.2037 48.3266
23.2492 48.4308
23.2948 48.2537
23.3403 48.4336
23.3859 49.2311
23.4314 50.4604
23.477 52.4524
23.5225 54.816
23.5682 56.9989
23.6137 57.3363
23.6593 54.2807
23.7048 50.1908
23.7505 47.3278
23.796 45.9797
23.8417 45.4869
23.8872 44.8413
23.9329 44.6529
23.9784 44.4431
24.0241 44.0851
24.0697 44.1526
24.1154 43.4881
24.1609 43.5025
24.2066 43.2514
24.2522 43.206
24.2979 43.036
24.3434 42.835
24.3892 42.7932
24.4349 42.6549
24.4805 42.5985
24.5262 42.7574
24.5718 42.4963
24.6175 42.4282
24.6631 42.2621
24.7089 42.0111
24.7545 41.8058
24.8002 41.7968
24.8458 41.8009
24.8916 41.6252
24.9372 41.8355
24.983 42.2034
25.0286 42.4659
25.0744 42.7858
25.12 43.4217
25.1658 44.0399
25.2114 44.1263
25.2572 44.4
25.3029 44.5201
25.3487 44.4556
25.3943 44.0653
25.4402 42.8053
25.4858 41.7263
25.5316 40.8398
25.5773 40.3311
25.6231 40.4312
25.669 40.1479
25.7147 40.0936
25.7605 39.995
25.8062 40.0543
25.8521 40.1425
25.8977 40.2361
25.9436 40.4238
25.9893 40.5662
26.0352 41.0413
26.0809 41.2091
26.1268 41.2665
26.1725 40.8535
26.2184 40.2816
26.2641 39.6944
26.31 39.5971
26.3557 39.6613
26.4017 39.6715
26.4474 40.0021
26.4933 40.4177
26.5391 40.7966
26.585 41.4876
26.6308 41.7785
26.6767 41.7164
26.7225 41.3808
26.7684 40.8099
26.8142 40.4593
26.8601 40.0193
26.9059 39.5227
26.9519 39.0337
26.9979 38.8395
27.0437 38.4635
27.0896 38.3272
27.1354 38.4112
27.1814 38.3273
27.2272 38.1625
27.2732 38.0299
27.3191 37.947
27.3651 38.0277
27.4109 37.9493
27.4569 38.0336
27.5027 38.1649
27.5488 38.3171
27.5946 37.9621
27.6407 37.7388
27.6865 37.6377
27.7326 37.4508
27.7784 37.4556
27.8245 37.4161
27.8703 37.6571
27.9164 37.8855
27.9623 38.0398
28.0084 38.466
28.0543 38.826
28.1003 38.6641
28.1462 38.3793
28.1923 37.921
28.2384 37.4785
28.2843 37.0451
28.3304 36.6727
28.3764 36.1281
28.4225 35.9655
28.4684 35.9262
28.5145 35.5199
28.5605 35.535
28.6066 35.3538
28.6526 35.2415
28.6987 35.283
28.7447 35.2289
28.7908 35.017
28.8368 35.0861
28.8829 35.108
28.9289 34.9331
28.9751 34.8608
29.0211 34.5185
29.0673 34.3979
29.1133 34.309
29.1595 34.0704
29.2055 33.9753
29.2517 34.0389
29.2977 33.9529
29.3439 33.9988
29.3899 33.8631
29.4361 33.8227
29.4824 33.606
29.5284 33.3309
29.5746 32.992
29.6207 32.7473
29.6669 32.7107
29.713 32.6515
29.7593 32.5383
29.8053 32.6029
29.8516 32.468
29.8977 32.4084
29.9439 32.3839
29.99 32.2386
30.0363 32.1725
30.0824 32.2027
30.1287 32.0884
30.1748 32.1071
30.2211 32.0343
30.2673 31.8849
30.3136 31.9398
30.3597 31.9346
30.406 31.8119
30.4522 31.7415
30.4985 31.8075
30.5447 31.9322
30.591 31.788
30.6372 31.8477
30.6835 32.0
30.7297 31.9319
30.7761 31.8447
30.8224 31.6466
30.8686 31.4088
30.915 31.2551
30.9612 31.1552
31.0076 30.9388
31.0538 30.8248
31.1002 30.8326
31.1464 30.7365
31.1928 30.6513
31.2391 30.6866
31.2855 30.5767
31.3317 30.5309
31.3781 30.5914
31.4244 30.606
31.4708 30.5555
31.5171 30.5317
31.5636 30.4183
31.6098 30.1909
31.6563 29.9762
31.7026 29.9028
31.7491 29.7575
31.7953 29.8449
31.8418 29.7467
31.8881 29.8376
31.9346 29.8148
31.9809 29.7703
32.0275 29.5766
32.074 29.5611
32.1203 29.3242
32.1668 29.2019
32.2132 28.9747
32.2597 28.9373
32.306 28.8709
32.3526 28.7958
32.399 28.6014
32.4455 28.4477
32.4919 28.3805
32.5385 28.3452
32.5848 28.1532
32.6314 28.329
32.6778 28.1621
32.7244 27.9753
32.7708 27.8295
32.8174 27.8622
32.8638 27.8281
32.9104 27.7127
32.9569 27.7668
33.0035 27.5649
33.0499 27.5701
33.0966 27.4992
33.143 27.5013
33.1897 27.4368
33.2361 27.2965
33.2828 27.2414
33.3293 27.1632
33.3759 27.0823
33.4226 26.953
33.4691 26.814
33.5158 26.7424
33.5623 26.5375
33.609 26.4686
33.6555 26.4257
33.7022 26.2251
33.7487 26.2501
33.7954 26.1723
33.842 26.0673
33.8887 26.002
33.9353 25.9648
33.982 25.8365
34.0286 25.8378
34.0753 25.6709
34.1219 25.623
34.1687 25.559
34.2152 25.526
34.262 25.4052
34.3086 25.2923
34.3554 25.2686
34.402 25.1801
34.4488 24.988
34.4954 25.0186
34.5422 24.9262
34.5889 24.7454
34.6357 24.7226
34.6825 24.6677
34.7292 24.6622
34.776 24.4487
34.8227 24.4852
34.8695 24.3929
34.9162 24.3449
34.9631 24.2223
35.0098 24.1775
35.0566 24.0248
35.1033 24.057
35.1502 24.0368
35.1969 23.9861
35.2438 23.9194
35.2906 23.8243
35.3375 23.7913
35.3842 23.6795
35.4311 23.7883
35.4779 23.6783
35.5248 23.6117
35.5716 23.4725
35.6185 23.3669
35.6653 23.3502
35.7123 23.2739
35.759 23.2229
35.806 23.0928
35.8528 22.9671
35.8998 22.976
35.9468 22.8928
35.9936 22.8499
36.0406 22.7863
36.0874 22.7117
36.1345 22.6275
36.1813 22.5096
36.2283 22.459
36.2752 22.3911
36.3222 22.4705
36.3691 22.3117
36.4161 22.2017
36.463 22.1721
36.5101 22.2246
36.557 22.1076
36.6041 21.9421
36.651 21.9459
36.6981 21.8438
36.745 21.8695
36.7921 21.807
36.839 21.5809
36.8861 21.5351
36.9331 21.4838
36.9802 21.4246
37.0272 21.3046
37.0743 21.2783
37.1213 21.2103
37.1684 21.1617
37.2154 21.1899
37.2626 21.0319
37.3098 21.0281
37.3568 20.9238
37.404 20.7795
37.451 20.7636
37.4982 20.677
37.5452 20.6717
37.5924 20.5647
37.6395 20.6027
37.6867 20.4398
37.7337 20.3278
37.781 20.2866
37.8281 20.3087
37.8753 20.1649
37.9224 20.1281
37.9697 20.0511
38.0168 20.0203
38.064 19.9132
38.1111 19.8974
38.1584 19.8374
38.2056 19.8096
38.2529 19.663
38.3 19.6215
38.3473 19.6253
38.3945 19.4624
38.4418 19.4535
38.489 19.3393
38.5363 19.3513
38.5837 19.2039
38.6309 19.1954
38.6782 19.0781
38.7254 19.059
38.7728 18.988
38.82 18.9146
38.8674 18.866
38.9146 18.8562
38.9621 18.7149
39.0093 18.7005
39.0567 18.7244
39.104 18.5512
39.1514 18.5058
39.1987 18.4681
39.2461 18.4103
39.2934 18.3654
39.3409 18.2926
39.3882 18.2593
39.4356 18.1842
39.483 18.1549
39.5304 18.043
39.5778 18.0436
39.6253 17.9809
39.6726 17.8988
39.7201 17.8114
39.7675 17.8595
39.815 17.7149
39.8624 17.6765
39.9099 17.5963
39.9575 17.51
40.0049 17.485
40.0525 17.4028
40.0999 17.4768
40.1474 17.3
40.1949 17.2582
40.2425 17.2116
40.2899 17.1693
40.3375 17.1351
40.385 17.0519
40.4326 16.9725
40.48 16.8856
40.5277 16.9061
40.5752 16.8206
40.6228 16.7816
40.6703 16.7474
40.718 16.6869
40.7655 16.629
40.8132 16.6493
40.8607 16.5677
40.9084 16.4538
40.9559 16.4074
41.0036 16.4087
41.0512 16.3205
41.0989 16.3133
41.1465 16.2133
41.1942 16.1436
41.242 16.0761
41.2896 16.0373
41.3373 16.0052
41.3849 15.9101
41.4327 15.8643
41.4803 15.8268
41.5281 15.7656
41.5758 15.708
41.6236 15.6401
41.6712 15.6035
41.7191 15.6139
41.7667 15.4865
41.8146 15.4666
41.8622 15.4126
41.9101 15.3872
41.9578 15.2888
42.0057 15.2271
42.0534 15.2193
42.1013 15.1795
42.149 15.1384
42.1969 14.9916
42.2446 15.0411
42.2925 14.9694
42.3403 14.9297
42.3882 14.8843
42.436 14.8369
42.4839 14.7528
42.5319 14.7087
42.5797 14.6832
42.6277 14.609
42.6755 14.5477
42.7235 14.4896
42.7713 14.4756
42.8193 14.4847
42.8671 14.3006
42.9152 14.332
42.963 14.2737
43.0111 14.2345
43.0589 14.1654
43.107 14.1608
43.1549 14.1102
43.2029 13.9951
43.2508 14.021
43.2989 13.9448
43.3468 13.8701
43.3949 13.8185
43.4429 13.7746
43.491 13.7207
43.5389 13.6946
43.5871 13.6379
43.635 13.6052
43.6832 13.5391
43.7312 13.5036
43.7793 13.4205
43.8273 13.4152
43.8755 13.399
43.9237 13.3362
43.9717 13.3018
44.0199 13.2885
44.068 13.1801
44.1162 13.1022
44.1642 13.0759
44.2125 13.0482
44.2606 13.009
44.3088 12.9787
44.3569 12.8964
44.4052 12.901
44.4533 12.8205
44.5016 12.765
44.5497 12.7388
44.598 12.7007
44.6461 12.6356
44.6945 12.5693
44.7426 12.5441
44.791 12.457
44.8391 12.4527
44.8875 12.4345
44.9357 12.3886
44.984 12.3164
45.0322 12.3063
45.0806 12.269
45.1288 12.1852
45.1773 12.1185
45.2257 12.109
45.2739 12.0609
45.3224 12.0144
45.3706 12.0523
45.4191 11.9256
45.4673 11.8988
45.5158 11.8703
45.5641 11.8194
45.6126 11.7774
45.6609 11.7161
45.7094 11.6775
45.7577 11.6779
45.8063 11.597
45.8546 11.5911
45.9031 11.5096
45.9515 11.4856
46.0001 11.4124
46.0484 11.3726
46.097 11.362
46.1454 11.3447
46.194 11.3289
46.2424 11.2192
46.291 11.1777
46.3395 11.1785
46.3881 11.0985
46.4365 11.1071
46.4852 11.0349
46.5337 10.9751
46.5823 10.9762
46.631 10.875
46.6795 10.8042
46.7282 10.8556
46.7767 10.8168
46.8254 10.7341
46.8739 10.7143
46.9226 10.6886
46.9712 10.5991
47.0199 10.5992
47.0685 10.5945
47.1173 10.5082
47.1658 10.4679
47.2146 10.4198
47.2632 10.36
47.312 10.3555
47.3606 10.2981
47.4095 10.2781
47.4581 10.234
47.5069 10.1934
47.5556 10.1605
47.6044 10.1494
47.6531 10.1054
47.702 10.0553
47.7507 9.98826
47.7996 9.93355
47.8483 9.94197
47.8972 9.95056
47.9461 9.89185
47.9948 9.82756
48.0438 9.76719
48.0925 9.77548
48.1415 9.70832
48.1902 9.67523
48.2392 9.67771
48.288 9.64282
48.337 9.60755
48.3858 9.55275
48.4348 9.52227
48.4837 9.50438
48.5327 9.48829
48.5815 9.4144
48.6306 9.36308
48.6795 9.32997
48.7285 9.30491
48.7774 9.3166
48.8265 9.25899
48.8754 9.2332
48.9245 9.17105
48.9734 9.13801
49.0226 9.14761
49.0715 9.09161
49.1206 9.02794
49.1696 9.01531
49.2188 8.97676
49.2679 8.94159
49.3169 8.88636
49.3661 8.8625
49.4151 8.82509
49.4643 8.8111
49.5134 8.76953
49.5626 8.71282
49.6117 8.70575
49.6609 8.70025
49.71 8.6202
49.7592 8.60217
49.8083 8.51478
49.8576 8.56447
49.9067 8.48864
49.956 8.47176
50.0052 8.42182
50.0545 8.36909
50.1036 8.36806
50.153 8.34258
50.2022 8.33199
50.2515 8.25035
50.3007 8.22229
50.3501 8.20572
50.3993 8.19693
50.4487 8.16749
50.498 8.066
50.5474 8.07426
50.5966 8.06219
50.6461 8.03732
50.6955 7.98911
50.7448 7.9748
50.7943 7.9627
50.8436 7.89948
50.8931 7.85312
50.9424 7.86266
50.9919 7.75968
51.0413 7.80263
51.0908 7.75482
51.1402 7.72127
51.1897 7.69934
51.2391 7.62677
51.2887 7.62583
51.3381 7.56835
51.3877 7.60216
51.4371 7.51348
51.4867 7.50647
51.5362 7.48538
51.5858 7.43722
51.6353 7.39039
51.6849 7.35544
51.7344 7.35647
51.7841 7.33404
51.8336 7.27369
51.8833 7.27339
51.9328 7.21899
51.9826 7.17743
52.0323 7.16377
52.0818 7.0957
52.1316 7.07455
52.1812 7.09607
52.231 6.99423
52.2806 7.00894
52.3304 7.00229
52.38 6.9226
52.4298 6.9381
52.4794 6.91578
52.5293 6.86115
52.5789 6.84163
52.6288 6.82231
52.6785 6.76577
52.7284 6.75667
52.7781 6.75549
52.828 6.69921
52.8777 6.64897
52.9276 6.62198
52.9774 6.61442
53.0273 6.58873
53.0771 6.57555
53.1271 6.58433
53.1769 6.54459
53.2269 6.48732
53.2767 6.42785
53.3267 6.45026
53.3765 6.4312
53.4266 6.348
53.4766 6.38527
53.5265 6.30459
53.5765 6.31141
53.6264 6.28549
53.6765 6.24973
53.7264 6.20464
53.7765 6.2163
53.8265 6.12112
53.8766 6.14392
53.9266 6.09436
53.9767 6.09088
54.0267 6.05941
54.0769 6.00395
54.1269 6.02382
54.1771 5.96604
54.2271 5.93883
54.2773 5.89754
54.3274 5.88201
54.3776 5.85352
54.4277 5.80776
54.478 5.79114
54.528 5.80335
54.5783 5.68611
54.6285 5.68616
54.6788 5.61685
54.7289 5.57899
54.7792 5.51317
54.8296 5.4865
54.8798 5.4171
54.9301 5.4195
54.9803 5.35371
55.0307 5.40723
55.0809 5.28218
55.1314 5.27482
55.1816 5.23911
55.232 5.18871
55.2823 5.16545
55.3328 5.12395
55.383 5.03329
55.4335 5.01274
55.4838 4.95149
55.5344 4.93559
55.5847 4.89611
55.6352 4.83102
55.6856 4.84436
55.7361 4.78359