File: XRD/Ni3Fe_FD0236.xy
TT I
1.27165 8.49647
1.31627 7.03852
1.36089 7.11631
1.40551 7.18984
1.45013 6.39197
1.49476 6.71223
1.53938 6.65744
1.584 5.94691
1.62863 6.38414
1.67325 5.3823
1.71787 5.57263
1.7625 5.1536
1.80712 4.98482
1.85174 5.64627
1.89636 5.07585
1.94099 5.17125
1.98562 4.80544
2.03025 4.50574
2.07487 4.48203
2.11949 4.8533
2.16411 4.61695
2.20874 4.70157
2.25338 4.3805
2.298 4.34769
2.34263 4.63195
2.38725 5.32936
2.43188 4.35717
2.4765 5.81868
2.52115 5.01119
2.56577 6.07831
2.6104 6.44825
2.65503 6.10583
2.69965 6.3238
2.7443 6.58345
2.78893 6.60446
2.83356 7.15307
2.87818 8.07621
2.92281 8.80716
2.96744 9.21227
3.01209 10.1369
3.05672 10.7321
3.10135 12.1102
3.14599 12.7375
3.19062 13.9031
3.23527 14.9926
3.2799 15.9725
3.32454 16.4934
3.36917 17.3711
3.4138 19.0063
3.45844 19.6336
3.50309 20.548
3.54773 21.5151
3.59237 22.4021
3.637 23.6183
3.68164 24.3072
3.7263 25.1867
3.77094 25.9864
3.81558 26.7952
3.86022 27.5236
3.90486 29.4151
3.9495 30.077
3.99416 30.8252
4.0388 32.6138
4.08344 33.6105
4.12809 35.1119
4.17273 36.3355
4.21738 37.754
4.26204 39.2259
4.30669 40.4176
4.35133 43.3331
4.39598 44.3121
4.44063 46.5604
4.4853 48.8627
4.52995 52.8469
4.5746 54.5571
4.61925 55.9091
4.6639 58.6065
4.70855 61.2069
4.75322 64.5545
4.79788 68.8531
4.84253 72.074
4.88719 77.234
4.93184 81.2946
4.97652 88.5685
5.02118 97.0939
5.06583 107.109
5.11049 124.301
5.15515 169.726
5.19981 892.024
5.24449 4002.58
5.28916 10778.1
5.33382 4134.49
5.37848 272.608
5.42315 153.001
5.46783 129.572
5.5125 118.611
5.55716 112.653
5.60183 107.014
5.6465 104.383
5.69117 103.227
5.73586 101.172
5.78053 102.229
5.8252 102.703
5.86988 105.044
5.91455 109.959
5.95924 133.103
6.00392 450.013
6.0486 1429.68
6.09328 3688.47
6.13795 3657.22
6.18263 351.377
6.22733 109.019
6.27201 89.1793
6.3167 81.5201
6.36138 76.4151
6.40606 73.458
6.45075 71.201
6.49545 68.569
6.54014 66.5894
6.58483 65.3263
6.62952 64.3796
6.67421 62.5632
6.71892 61.6746
6.76361 60.6124
6.8083 60.0353
6.853 59.1661
6.89769 58.8781
6.94239 58.2167
6.98711 57.4288
7.03181 57.1388
7.07651 56.8345
7.12121 56.6835
7.16591 57.1602
7.21063 56.1655
7.25533 56.0092
7.30004 55.9325
7.34475 55.8927
7.38945 56.1814
7.43416 55.7738
7.47889 55.6259
7.5236 56.1999
7.56831 56.9558
7.61303 57.235
7.65774 57.1523
7.70247 58.0991
7.74719 58.3784
7.79191 59.0851
7.83663 59.3324
7.88135 60.2853
7.92607 61.548
7.97081 62.5424
8.01553 63.6499
8.06026 65.3623
8.10498 66.783
8.14971 69.4928
8.19446 70.7844
8.23919 73.6601
8.28392 76.2825
8.32865 79.1885
8.37339 84.0506
8.41812 90.6812
8.46288 111.409
8.50761 293.71
8.55235 585.259
8.59709 1080.64
8.64183 1985.95
8.68658 1193.17
8.73134 215.52
8.77609 110.734
8.82083 100.522
8.86558 96.3938
8.91033 93.9523
8.9551 90.776
8.99985 89.5898
9.04461 88.528
9.08936 88.1043
9.13412 87.0176
9.17888 86.62
9.22365 86.4172
9.26841 86.7792
9.31318 88.7437
9.35794 88.5676
9.4027 88.3888
9.44749 88.9868
9.49226 89.8085
9.53703 90.5087
9.5818 93.285
9.62657 94.3309
9.67134 95.6163
9.71614 98.0568
9.76091 100.312
9.80569 103.394
9.85047 107.105
9.89525 112.588
9.94005 138.33
9.98484 305.508
10.0296 517.943
10.0744 814.184
10.1192 1461.92
10.164 1675.9
10.2088 548.385
10.2536 147.749
10.2984 117.849
10.3432 113.231
10.388 115.625
10.4328 159.674
10.4776 212.39
10.5224 284.128
10.5672 453.263
10.612 527.123
10.6568 254.26
10.7017 107.907
10.7465 92.2455
10.7913 88.0118
10.8361 85.2149
10.8809 83.1964
10.9257 80.8001
10.9706 79.6337
11.0154 77.9294
11.0602 76.246
11.105 75.0799
11.1499 73.4486
11.1947 72.447
11.2395 71.1246
11.2844 70.7174
11.3292 69.8865
11.374 69.1995
11.4189 68.4893
11.4637 67.7397
11.5086 67.1157
11.5534 66.8096
11.5983 66.4165
11.6431 66.2658
11.688 65.9726
11.7328 65.6903
11.7777 65.5999
11.8225 65.5505
11.8674 65.5028
11.9122 66.0448
11.9571 66.2962
12.002 68.9017
12.0468 79.8628
12.0917 94.0231
12.1366 109.211
12.1814 142.391
12.2263 194.225
12.2712 180.476
12.3161 102.548
12.3609 69.9476
12.4058 67.1141
12.4507 67.5059
12.4956 67.4532
12.5405 67.4143
12.5853 68.1676
12.6302 68.1509
12.6751 68.8915
12.72 69.7994
12.7649 70.9068
12.8098 71.6739
12.8547 73.093
12.8996 74.7137
12.9445 76.4857
12.9894 78.7676
13.0343 80.9079
13.0792 86.4557
13.1242 111.283
13.1691 147.042
13.214 175.45
13.2589 231.355
13.3038 325.381
13.3487 418.731
13.3937 307.269
13.4386 148.406
13.4835 133.531
13.5285 152.857
13.5734 175.306
13.6183 228.021
13.6633 311.965
13.7082 352.715
13.7531 222.937
13.7981 110.08
13.843 87.196
13.888 84.0468
13.9329 81.3655
13.9779 80.0182
14.0228 78.2081
14.0678 76.8649
14.1127 76.0303
14.1577 75.2561
14.2027 74.7244
14.2476 74.1135
14.2926 73.4941
14.3376 73.2443
14.3825 72.9932
14.4275 72.5156
14.4725 72.2974
14.5175 72.7807
14.5624 72.5553
14.6074 72.8613
14.6524 73.7549
14.6974 74.595
14.7424 81.2868
14.7874 95.2352
14.8324 106.6
14.8774 120.454
14.9224 146.696
14.9674 188.343
15.0124 222.192
15.0574 168.555
15.1024 100.136
15.1474 76.7684
15.1924 73.9111
15.2374 72.4546
15.2824 71.3945
15.3274 70.5629
15.3725 69.865
15.4175 69.858
15.4625 69.3128
15.5076 69.2204
15.5526 69.2706
15.5976 69.9163
15.6426 75.1727
15.6877 86.2461
15.7327 94.8843
15.7778 103.843
15.8228 122.724
15.8679 154.033
15.9129 190.023
15.958 173.003
16.003 110.626
16.0481 72.4355
16.0931 65.6977
16.1382 63.9228
16.1833 63.0504
16.2283 61.7466
16.2734 60.7155
16.3185 60.1269
16.3636 59.479
16.4086 58.828
16.4537 58.3317
16.4988 57.9763
16.5439 58.1314
16.589 57.5766
16.6341 57.4856
16.6792 57.1354
16.7243 57.2234
16.7694 57.35
16.8145 57.2363
16.8596 57.533
16.9047 57.5807
16.9498 57.5379
16.9949 57.836
17.04 59.5104
17.0851 61.8587
17.1302 63.7101
17.1754 65.5997
17.2205 68.9515
17.2656 73.9787
17.3108 82.3417
17.3559 86.2524
17.401 76.6046
17.4462 66.5413
17.4913 62.3023
17.5365 62.0701
17.5815 62.2312
17.6268 62.7801
17.6718 62.9179
17.7171 63.5225
17.7622 64.569
17.8074 66.4472
17.8525 72.4597
17.8977 78.1149
17.9428 82.6988
17.9881 88.5283
18.0331 99.3794
18.0784 115.817
18.1237 138.986
18.1688 144.221
18.214 117.702
18.2591 93.2042
18.3044 90.3376
18.3495 97.039
18.3948 106.161
18.4399 101.33
18.4852 82.8421
18.5303 69.9105
18.5756 65.6019
18.6207 64.4745
18.666 63.2946
18.7112 62.4269
18.7565 61.8613
18.8016 61.5296
18.8469 60.7759
18.892 60.529
18.9374 60.0009
18.9825 59.8243
19.0278 59.6975
19.073 60.3213
19.1183 61.4921
19.1635 62.0056
19.2088 62.9193
19.254 64.8441
19.2993 67.4363
19.3447 71.4123
19.3898 76.2829
19.4352 75.6853
19.4804 67.9202
19.5257 60.2867
19.5709 56.9368
19.6163 56.5269
19.6615 56.4132
19.7068 56.0091
19.752 56.0279
19.7974 56.8448
19.8426 58.1441
19.888 58.595
19.9332 59.5425
19.9786 61.6327
20.0238 64.1145
20.0692 68.431
20.1144 72.6056
20.1598 73.0183
20.205 67.6271
20.2504 64.1181
20.2957 64.5408
20.3411 66.7938
20.3863 67.1339
20.4318 62.2347
20.477 56.7126
20.5224 53.5036
20.5677 52.8923
20.6131 52.4685
20.6586 52.1133
20.7038 51.9414
20.7493 51.3268
20.7945 51.3241
20.84 51.3245
20.8853 51.1723
20.9307 51.1294
20.976 51.2401
21.0215 51.125
21.0668 51.6159
21.1122 51.8482
21.1575 52.2065
21.203 52.4826
21.2483 53.2355
21.2938 53.7951
21.3391 52.7837
21.3846 51.5901
21.4299 50.9778
21.4754 50.9093
21.5207 51.2125
21.5662 51.7047
21.6116 52.6903
21.6571 53.6514
21.7024 54.2141
21.7479 55.694
21.7933 57.5554
21.8388 60.0466
21.8843 63.5983
21.9297 66.6205
21.9752 66.6842
22.0206 62.9666
22.0661 58.5341
22.1115 57.6392
22.157 58.4616
22.2024 57.2993
22.248 54.4986
22.2933 52.5968
22.3389 51.6211
22.3843 51.0471
22.4299 50.8048
22.4753 50.8003
22.5208 50.9719
22.5662 50.9362
22.6118 51.6005
22.6572 51.9099
22.7028 52.5225
22.7483 52.6469
22.7939 53.2597
22.8393 54.1385
22.8849 55.5518
22.9303 57.1338
22.9759 59.2249
23.0214 59.7142
23.067 57.7725
23.1126 54.1697
23.1581 51.8544
23.2037 51.4521
23.2492 51.8645
23.2948 51.9001
23.3403 52.3087
23.3859 52.6625
23.4314 53.2241
23.477 54.3182
23.5225 55.578
23.5682 57.6243
23.6137 59.6004
23.6593 58.7614
23.7048 54.8913
23.7505 51.0862
23.796 48.9709
23.8417 48.2115
23.8872 47.6355
23.9329 47.4393
23.9784 46.9819
24.0241 46.8221
24.0697 46.4351
24.1154 46.1257
24.1609 45.9875
24.2066 45.8508
24.2522 45.848
24.2979 45.4262
24.3434 45.2541
24.3892 45.3686
24.4349 45.0991
24.4805 44.8391
24.5262 45.0626
24.5718 44.9093
24.6175 44.9354
24.6631 44.8876
24.7089 44.4669
24.7545 44.384
24.8002 44.2988
24.8458 44.4423
24.8916 44.2364
24.9372 44.342
24.983 44.889
25.0286 44.9608
25.0744 45.3039
25.12 45.6305
25.1658 46.2087
25.2114 46.4023
25.2572 46.4952
25.3029 46.2779
25.3487 46.6624
25.3943 46.4581
25.4402 45.8864
25.4858 44.7379
25.5316 43.5818
25.5773 42.8362
25.6231 42.8285
25.669 42.4553
25.7147 42.5339
25.7605 42.3884
25.8062 42.6209
25.8521 42.4822
25.8977 42.3066
25.9436 42.5739
25.9893 42.8001
26.0352 42.9857
26.0809 43.2182
26.1268 43.6144
26.1725 43.3959
26.2184 42.9257
26.2641 42.4471
26.31 42.2724
26.3557 42.2157
26.4017 42.1939
26.4474 42.2693
26.4933 42.5251
26.5391 42.7769
26.585 43.1619
26.6308 43.7423
26.6767 43.7997
26.7225 44.0059
26.7684 43.376
26.8142 42.7177
26.8601 42.3476
26.9059 41.9528
26.9519 41.413
26.9979 41.0657
27.0437 40.7282
27.0896 40.5692
27.1354 40.6358
27.1814 40.4415
27.2272 40.374
27.2732 40.4037
27.3191 40.2222
27.3651 40.2305
27.4109 40.1832
27.4569 40.2211
27.5027 40.2044
27.5488 40.3152
27.5946 40.1549
27.6407 40.0964
27.6865 40.018
27.7326 39.7731
27.7784 39.8144
27.8245 39.7247
27.8703 39.6601
27.9164 39.9831
27.9623 39.9291
28.0084 40.121
28.0543 40.6327
28.1003 40.5341
28.1462 40.5772
28.1923 40.1759
28.2384 39.7059
28.2843 39.305
28.3304 38.9888
28.3764 38.5645
28.4225 38.1812
28.4684 37.9031
28.5145 37.5863
28.5605 37.5487
28.6066 37.2455
28.6526 37.2562
28.6987 37.2624
28.7447 37.0885
28.7908 37.0654
28.8368 36.988
28.8829 36.9858
28.9289 36.9567
28.9751 36.8755
29.0211 36.6235
29.0673 36.4057
29.1133 36.1878
29.1595 35.9986
29.2055 35.8623
29.2517 35.958
29.2977 35.749
29.3439 35.7446
29.3899 35.7785
29.4361 35.6023
29.4824 35.5973
29.5284 35.3951
29.5746 34.9574
29.6207 34.6696
29.6669 34.5897
29.713 34.5436
29.7593 34.3553
29.8053 34.4128
29.8516 34.4316
29.8977 34.3434
29.9439 34.1505
29.99 34.1036
30.0363 34.0019
30.0824 34.1283
30.1287 33.827
30.1748 33.9165
30.2211 33.9402
30.2673 33.7574
30.3136 33.8451
30.3597 33.7182
30.406 33.6843
30.4522 33.4729
30.4985 33.5064
30.5447 33.5822
30.591 33.5015
30.6372 33.5257
30.6835 33.6384
30.7297 33.5476
30.7761 33.5236
30.8224 33.3093
30.8686 33.3732
30.915 33.1788
30.9612 32.9976
31.0076 32.834
31.0538 32.5543
31.1002 32.5615
31.1464 32.4344
31.1928 32.3922
31.2391 32.3741
31.2855 32.2913
31.3317 32.2421
31.3781 32.2595
31.4244 32.172
31.4708 32.1908
31.5171 32.1863
31.5636 32.1868
31.6098 31.8766
31.6563 31.7877
31.7026 31.5734
31.7491 31.5014
31.7953 31.7018
31.8418 31.4121
31.8881 31.4794
31.9346 31.391
31.9809 31.4581
32.0275 31.2236
32.074 31.1707
32.1203 30.9779
32.1668 30.9105
32.2132 30.5726
32.2597 30.514
32.306 30.4378
32.3526 30.2661
32.399 30.2538
32.4455 30.0657
32.4919 30.0357
32.5385 29.899
32.5848 29.7812
32.6314 29.7425
32.6778 29.702
32.7244 29.5283
32.7708 29.3322
32.8174 29.439
32.8638 29.2343
32.9104 29.3313
32.9569 29.4032
33.0035 29.1574
33.0499 29.1526
33.0966 29.0911
33.143 29.0249
33.1897 28.8989
33.2361 28.8299
33.2828 28.8033
33.3293 28.6521
33.3759 28.6377
33.4226 28.5068
33.4691 28.4029
33.5158 28.294
33.5623 28.1617
33.609 27.9689
33.6555 27.8966
33.7022 27.8264
33.7487 27.7292
33.7954 27.619
33.842 27.4973
33.8887 27.5464
33.9353 27.4657
33.982 27.4119
34.0286 27.3025
34.0753 27.1278
34.1219 27.0608
34.1687 26.9934
34.2152 26.9704
34.262 26.8229
34.3086 26.7579
34.3554 26.6427
34.402 26.5587
34.4488 26.4705
34.4954 26.3941
34.5422 26.2157
34.5889 26.148
34.6357 26.0864
34.6825 26.0595
34.7292 25.9586
34.776 25.8441
34.8227 25.8647
34.8695 25.7077
34.9162 25.7387
34.9631 25.5889
35.0098 25.5949
35.0566 25.4096
35.1033 25.454
35.1502 25.3353
35.1969 25.328
35.2438 25.2011
35.2906 25.1598
35.3375 25.1075
35.3842 25.1125
35.4311 24.9959
35.4779 24.998
35.5248 24.9419
35.5716 24.8539
35.6185 24.7197
35.6653 24.6586
35.7123 24.6504
35.759 24.5137
35.806 24.4473
35.8528 24.2651
35.8998 24.2239
35.9468 24.1252
35.9936 24.1019
36.0406 24.0132
36.0874 24.0294
36.1345 23.8972
36.1813 23.7426
36.2283 23.7233
36.2752 23.6745
36.3222 23.7391
36.3691 23.5818
36.4161 23.4347
36.463 23.493
36.5101 23.4324
36.557 23.3353
36.6041 23.1116
36.651 23.1812
36.6981 23.0496
36.745 22.9497
36.7921 23.0174
36.839 22.8719
36.8861 22.7917
36.9331 22.6769
36.9802 22.72
37.0272 22.543
37.0743 22.3935
37.1213 22.3623
37.1684 22.3015
37.2154 22.2872
37.2626 22.1768
37.3098 22.1391
37.3568 22.0407
37.404 22.0651
37.451 21.914
37.4982 21.9733
37.5452 21.7629
37.5924 21.6638
37.6395 21.7692
37.6867 21.6139
37.7337 21.5783
37.781 21.4769
37.8281 21.4421
37.8753 21.3133
37.9224 21.1982
37.9697 21.1605
38.0168 21.1357
38.064 21.0843
38.1111 20.9685
38.1584 20.94
38.2056 20.8277
38.2529 20.8039
38.3 20.6892
38.3473 20.6963
38.3945 20.4914
38.4418 20.4995
38.489 20.4861
38.5363 20.4379
38.5837 20.2617
38.6309 20.2891
38.6782 20.2426
38.7254 20.0926
38.7728 20.115
38.82 19.936
38.8674 19.9391
38.9146 19.9033
38.9621 19.8059
39.0093 19.7988
39.0567 19.6999
39.104 19.6713
39.1514 19.519
39.1987 19.503
39.2461 19.4531
39.2934 19.4041
39.3409 19.3174
39.3882 19.2065
39.4356 19.2216
39.483 19.077
39.5304 19.0073
39.5778 19.0036
39.6253 18.9699
39.6726 18.9283
39.7201 18.8472
39.7675 18.7774
39.815 18.7062
39.8624 18.6629
39.9099 18.6533
39.9575 18.5163
40.0049 18.5094
40.0525 18.4271
40.0999 18.3509
40.1474 18.298
40.1949 18.2244
40.2425 18.1755
40.2899 18.1598
40.3375 18.0243
40.385 18.0593
40.4326 17.9642
40.48 17.8566
40.5277 17.8593
40.5752 17.7873
40.6228 17.6776
40.6703 17.6924
40.718 17.6419
40.7655 17.5442
40.8132 17.4845
40.8607 17.514
40.9084 17.4314
40.9559 17.3973
41.0036 17.3833
41.0512 17.2551
41.0989 17.2277
41.1465 17.145
41.1942 17.0781
41.242 16.9648
41.2896 16.917
41.3373 16.8724
41.3849 16.855
41.4327 16.8616
41.4803 16.6566
41.5281 16.6783
41.5758 16.6071
41.6236 16.4978
41.6712 16.4404
41.7191 16.3858
41.7667 16.3975
41.8146 16.3915
41.8622 16.3028
41.9101 16.2239
41.9578 16.1064
42.0057 16.1056
42.0534 16.0643
42.1013 16.0432
42.149 15.9502
42.1969 15.8674
42.2446 15.9091
42.2925 15.8096
42.3403 15.7639
42.3882 15.6777
42.436 15.6518
42.4839 15.5606
42.5319 15.5431
42.5797 15.5108
42.6277 15.4099
42.6755 15.3905
42.7235 15.2395
42.7713 15.2659
42.8193 15.1743
42.8671 15.1357
42.9152 15.0801
42.963 15.0434
43.0111 14.9975
43.0589 14.9804
43.107 14.8277
43.1549 14.8317
43.2029 14.807
43.2508 14.7561
43.2989 14.6586
43.3468 14.6017
43.3949 14.6134
43.4429 14.5132
43.491 14.5043
43.5389 14.472
43.5871 14.3675
43.635 14.3015
43.6832 14.3184
43.7312 14.1811
43.7793 14.1509
43.8273 14.179
43.8755 14.0768
43.9237 14.0089
43.9717 13.9634
44.0199 13.9732
44.068 13.8839
44.1162 13.8478
44.1642 13.8125
44.2125 13.7574
44.2606 13.7024
44.3088 13.601
44.3569 13.6103
44.4052 13.5604
44.4533 13.4716
44.5016 13.4278
44.5497 13.4052
44.598 13.3944
44.6461 13.2901
44.6945 13.2896
44.7426 13.2328
44.791 13.1736
44.8391 13.1012
44.8875 13.0824
44.9357 13.0287
44.984 12.9727
45.0322 12.9543
45.0806 12.8943
45.1288 12.8942
45.1773 12.7856
45.2257 12.7451
45.2739 12.7035
45.3224 12.67
45.3706 12.6283
45.4191 12.5521
45.4673 12.5515
45.5158 12.4602
45.5641 12.4418
45.6126 12.4089
45.6609 12.3318
45.7094 12.2673
45.7577 12.2821
45.8063 12.2189
45.8546 12.1976
45.9031 12.1383
45.9515 12.0592
46.0001 12.0538
46.0484 12.0078
46.097 11.9557
46.1454 11.9186
46.194 11.8794
46.2424 11.8132
46.291 11.8158
46.3395 11.7418
46.3881 11.6615
46.4365 11.6464
46.4852 11.6809
46.5337 11.613
46.5823 11.5518
46.631 11.4787
46.6795 11.4503
46.7282 11.3965
46.7767 11.3996
46.8254 11.2706
46.8739 11.2603
46.9226 11.2274
46.9712 11.2035
47.0199 11.1418
47.0685 11.1
47.1173 11.0855
47.1658 11.0017
47.2146 11.022
47.2632 10.9269
47.312 10.9287
47.3606 10.8825
47.4095 10.8264
47.4581 10.8172
47.5069 10.7506
47.5556 10.7336
47.6044 10.6568
47.6531 10.6293
47.702 10.5788
47.7507 10.5605
47.7996 10.5036
47.8483 10.4821
47.8972 10.4541
47.9461 10.3856
47.9948 10.3585
48.0438 10.3051
48.0925 10.3086
48.1415 10.2655
48.1902 10.2289
48.2392 10.2173
48.288 10.1736
48.337 10.116
48.3858 10.0855
48.4348 10.0489
48.4837 9.99094
48.5327 9.9778
48.5815 9.92656
48.6306 9.86863
48.6795 9.86078
48.7285 9.8224
48.7774 9.78423
48.8265 9.71713
48.8754 9.66774
48.9245 9.66553
48.9734 9.65508
49.0226 9.58814
49.0715 9.57953
49.1206 9.51328
49.1696 9.48517
49.2188 9.44986
49.2679 9.39369
49.3169 9.31524
49.3661 9.36161
49.4151 9.29449
49.4643 9.27924
49.5134 9.25804
49.5626 9.21152
49.6117 9.17978
49.6609 9.12959
49.71 9.10541
49.7592 9.07812
49.8083 9.02483
49.8576 9.00158
49.9067 8.95588
49.956 8.91274
50.0052 8.87493
50.0545 8.84408
50.1036 8.82215
50.153 8.77858
50.2022 8.77145
50.2515 8.7406
50.3007 8.68906
50.3501 8.64922
50.3993 8.60043
50.4487 8.58224
50.498 8.51599
50.5474 8.50793
50.5966 8.45048
50.6461 8.48033
50.6955 8.3999
50.7448 8.39604
50.7943 8.35638
50.8436 8.33349
50.8931 8.27576
50.9424 8.2512
50.9919 8.22881
51.0413 8.2124
51.0908 8.1831
51.1402 8.13249
51.1897 8.10765
51.2391 8.07341
51.2887 8.02104
51.3381 7.99403
51.3877 7.97449
51.4371 7.90682
51.4867 7.87381
51.5362 7.85519
51.5858 7.83366
51.6353 7.7952
51.6849 7.76378
51.7344 7.71787
51.7841 7.70233
51.8336 7.66793
51.8833 7.66178
51.9328 7.5974
51.9826 7.58644
52.0323 7.54209
52.0818 7.5531
52.1316 7.45228
52.1812 7.49261
52.231 7.39964
52.2806 7.37433
52.3304 7.37031
52.38 7.30384
52.4298 7.28103
52.4794 7.25836
52.5293 7.24796
52.5789 7.23778
52.6288 7.17766
52.6785 7.10355
52.7284 7.18035
52.7781 7.08087
52.828 7.04776
52.8777 7.02074
52.9276 7.00626
52.9774 6.97218
53.0273 6.94524
53.0771 6.89707
53.1271 6.87867
53.1769 6.87015
53.2269 6.83255
53.2767 6.78352
53.3267 6.76385
53.3765 6.75834
53.4266 6.70648
53.4766 6.65511
53.5265 6.63644
53.5765 6.58632
53.6264 6.56507
53.6765 6.57438
53.7264 6.53801
53.7765 6.51391
53.8265 6.46861
53.8766 6.44559
53.9266 6.42744
53.9767 6.37175
54.0267 6.35466
54.0769 6.3376
54.1269 6.31832
54.1771 6.25788
54.2271 6.25053
54.2773 6.16511
54.3274 6.15659
54.3776 6.10353
54.4277 6.08702
54.478 6.05206
54.528 6.02251
54.5783 5.9593
54.6285 5.87531
54.6788 5.89377
54.7289 5.85369
54.7792 5.79194
54.8296 5.76838
54.8798 5.65665
54.9301 5.71501
54.9803 5.65987
55.0307 5.61386
55.0809 5.56038
55.1314 5.5021
55.1816 5.4753
55.232 5.41519
55.2823 5.39946
55.3328 5.29868
55.383 5.22154
55.4335 5.20397
55.4838 5.13977
55.5344 5.12763
55.5847 5.09087
55.6352 5.04459
55.6856 5.0127
55.7361 5.0166