File: XRD/Ni3Fe_FD0868.xy
TT I
1.27165 7.17829
1.31627 6.3964
1.36089 6.45336
1.40551 6.23095
1.45013 6.1026
1.49476 5.93187
1.53938 5.82013
1.584 5.34849
1.62863 5.33886
1.67325 5.15284
1.71787 5.25035
1.7625 4.81755
1.80712 4.79097
1.85174 4.90367
1.89636 4.28195
1.94099 4.67116
1.98562 4.14205
2.03025 5.1549
2.07487 4.44003
2.11949 4.9473
2.16411 4.81813
2.20874 15.4137
2.25338 25.2975
2.298 6.13487
2.34263 6.37694
2.38725 6.19383
2.43188 6.18047
2.4765 7.16339
2.52115 7.06931
2.56577 8.10738
2.6104 9.13035
2.65503 7.98698
2.69965 8.6962
2.7443 8.8527
2.78893 8.33198
2.83356 8.59622
2.87818 8.61283
2.92281 9.29334
2.96744 9.53152
3.01209 10.4754
3.05672 11.6228
3.10135 12.6695
3.14599 13.0292
3.19062 14.169
3.23527 14.9646
3.2799 15.9027
3.32454 16.9145
3.36917 17.826
3.4138 18.9349
3.45844 19.9065
3.50309 20.87
3.54773 21.5169
3.59237 24.3455
3.637 99.9239
3.68164 62.7934
3.7263 26.5051
3.77094 26.578
3.81558 26.3265
3.86022 27.6279
3.90486 29.0227
3.9495 29.7871
3.99416 30.7715
4.0388 32.1256
4.08344 33.3646
4.12809 35.1667
4.17273 36.8412
4.21738 43.4787
4.26204 268.611
4.30669 240.321
4.35133 49.213
4.39598 44.5306
4.44063 54.1445
4.4853 67.2021
4.52995 49.8674
4.5746 50.5466
4.61925 52.639
4.6639 54.8908
4.70855 57.7183
4.75322 59.856
4.79788 62.6237
4.84253 66.0985
4.88719 70.0884
4.93184 73.6325
4.97652 78.9047
5.02118 84.976
5.06583 91.8296
5.11049 101.899
5.15515 170.28
5.19981 292.124
5.24449 2408.94
5.28916 12578.0
5.33382 2851.58
5.37848 177.284
5.42315 124.85
5.46783 110.992
5.5125 104.374
5.55716 100.392
5.60183 96.5869
5.6465 95.082
5.69117 92.2958
5.73586 90.7043
5.78053 89.8015
5.8252 88.9844
5.86988 89.5357
5.91455 91.1495
5.95924 97.0483
6.00392 172.158
6.0486 808.936
6.09328 4327.55
6.13795 3222.59
6.18263 223.991
6.22733 90.4514
6.27201 81.3822
6.3167 103.815
6.36138 80.8405
6.40606 68.2485
6.45075 66.2808
6.49545 64.8555
6.54014 63.3468
6.58483 62.4137
6.62952 62.5274
6.67421 96.3304
6.71892 152.597
6.76361 69.6391
6.8083 57.879
6.853 56.7458
6.89769 56.1501
6.94239 55.9622
6.98711 55.3463
7.03181 55.0675
7.07651 54.8043
7.12121 54.9459
7.16591 55.1006
7.21063 54.792
7.25533 71.6693
7.30004 189.489
7.34475 95.6005
7.38945 56.2477
7.43416 54.5309
7.47889 54.131
7.5236 54.4136
7.56831 55.1506
7.61303 56.7816
7.65774 57.2421
7.70247 55.7337
7.74719 55.3513
7.79191 56.0925
7.83663 56.2206
7.88135 57.3093
7.92607 58.085
7.97081 58.8067
8.01553 60.0763
8.06026 61.4518
8.10498 63.0775
8.14971 73.1013
8.19446 72.1499
8.23919 68.216
8.28392 70.7021
8.32865 72.8064
8.37339 76.7737
8.41812 83.495
8.46288 113.409
8.50761 144.786
8.55235 333.181
8.59709 1124.63
8.64183 2288.67
8.68658 970.407
8.73134 166.205
8.77609 97.4892
8.82083 91.1874
8.86558 88.3028
8.91033 88.8198
8.9551 91.4591
8.99985 84.4095
9.04461 81.8977
9.08936 81.8411
9.13412 80.953
9.17888 80.6749
9.22365 81.7052
9.26841 80.7343
9.31318 81.4512
9.35794 81.426
9.4027 81.7378
9.44749 82.8482
9.49226 83.2962
9.53703 84.4353
9.5818 85.7202
9.62657 90.8742
9.67134 97.9255
9.71614 92.2614
9.76091 92.4377
9.80569 94.8202
9.85047 97.8631
9.89525 123.889
9.94005 135.499
9.98484 156.598
10.0296 300.562
10.0744 750.435
10.1192 1750.58
10.164 1592.19
10.2088 402.002
10.2536 124.318
10.2984 112.089
10.3432 113.908
10.388 102.721
10.4328 111.717
10.4776 147.207
10.5224 265.466
10.5672 517.848
10.612 504.068
10.6568 203.012
10.7017 95.7439
10.7465 85.3559
10.7913 82.0042
10.8361 80.1819
10.8809 78.0461
10.9257 77.4435
10.9706 78.4465
11.0154 74.1315
11.0602 71.8028
11.105 70.8805
11.1499 75.7334
11.1947 84.1297
11.2395 74.3384
11.2844 70.1221
11.3292 66.5037
11.374 65.067
11.4189 64.7865
11.4637 64.1728
11.5086 64.7811
11.5534 67.85
11.5983 64.8487
11.6431 62.8277
11.688 62.2218
11.7328 62.0574
11.7777 61.9428
11.8225 61.6939
11.8674 61.5454
11.9122 61.9716
11.9571 62.0827
12.002 62.5758
12.0468 65.3397
12.0917 75.3243
12.1366 98.0724
12.1814 149.792
12.2263 207.647
12.2712 169.515
12.3161 97.3435
12.3609 70.2863
12.4058 64.2207
12.4507 63.5388
12.4956 63.6824
12.5405 63.5542
12.5853 64.4552
12.6302 73.0616
12.6751 79.1586
12.72 69.6811
12.7649 67.0807
12.8098 67.3012
12.8547 68.7679
12.8996 69.8092
12.9445 70.9389
12.9894 73.0617
13.0343 74.3012
13.0792 77.4916
13.1242 84.0451
13.1691 104.629
13.214 138.435
13.2589 228.472
13.3038 371.068
13.3487 426.605
13.3937 262.427
13.4386 122.872
13.4835 100.794
13.5285 113.095
13.5734 149.643
13.6183 243.097
13.6633 353.21
13.7082 341.796
13.7531 183.762
13.7981 95.7493
13.843 80.6632
13.888 78.2903
13.9329 75.9307
13.9779 74.346
14.0228 73.0755
14.0678 71.8033
14.1127 71.4975
14.1577 71.2666
14.2027 70.4984
14.2476 69.2338
14.2926 69.6265
14.3376 70.8217
14.3825 69.5789
14.4275 67.867
14.4725 67.5731
14.5175 67.876
14.5624 68.1283
14.6074 70.4805
14.6524 70.7683
14.6974 69.1961
14.7424 70.0779
14.7874 75.3106
14.8324 84.397
14.8774 105.341
14.9224 149.806
14.9674 210.199
15.0124 217.355
15.0574 146.203
15.1024 89.3481
15.1474 71.267
15.1924 69.3731
15.2374 70.3076
15.2824 69.5776
15.3274 67.4476
15.3725 65.9045
15.4175 65.5134
15.4625 65.0134
15.5076 65.0907
15.5526 65.3068
15.5976 64.6228
15.6426 65.3054
15.6877 69.5688
15.7327 75.9097
15.7778 90.1407
15.8228 122.133
15.8679 170.374
15.9129 195.749
15.958 155.621
16.003 93.9545
16.0481 66.9913
16.0931 63.8831
16.1382 62.1816
16.1833 59.7977
16.2283 57.9718
16.2734 57.546
16.3185 57.9509
16.3636 58.9107
16.4086 57.1456
16.4537 55.4083
16.4988 54.8537
16.5439 54.6282
16.589 54.2264
16.6341 54.1116
16.6792 53.8485
16.7243 54.1718
16.7694 54.247
16.8145 54.0064
16.8596 54.5781
16.9047 56.213
16.9498 56.4047
16.9949 54.9336
17.04 54.8559
17.0851 55.6118
17.1302 57.3105
17.1754 60.3538
17.2205 65.1718
17.2656 73.4608
17.3108 82.7526
17.3559 81.676
17.401 69.996
17.4462 61.0482
17.4913 58.3108
17.5365 58.2604
17.5815 58.108
17.6268 58.7416
17.6718 59.4936
17.7171 59.9779
17.7622 60.2303
17.8074 60.721
17.8525 62.3943
17.8977 65.9128
17.9428 70.9872
17.9881 79.4322
18.0331 97.3175
18.0784 121.448
18.1237 138.917
18.1688 128.446
18.214 100.764
18.2591 84.4645
18.3044 89.0988
18.3495 99.9409
18.3948 105.417
18.4399 95.1092
18.4852 76.6955
18.5303 64.9335
18.5756 61.3116
18.6207 60.4979
18.666 59.5519
18.7112 58.8474
18.7565 58.1871
18.8016 57.6531
18.8469 57.1049
18.892 56.7104
18.9374 56.4739
18.9825 56.303
19.0278 56.2789
19.073 55.9208
19.1183 56.6165
19.1635 57.1039
19.2088 58.2182
19.254 60.589
19.2993 65.4933
19.3447 72.1341
19.3898 76.0541
19.4352 71.2875
19.4804 62.4346
19.5257 56.1067
19.5709 53.508
19.6163 53.1432
19.6615 53.053
19.7068 52.5303
19.752 52.5517
19.7974 52.5958
19.8426 53.5731
19.888 53.9895
19.9332 55.2006
19.9786 57.7565
20.0238 61.2338
20.0692 66.5123
20.1144 69.0753
20.1598 67.0844
20.205 62.259
20.2504 61.4366
20.2957 63.4113
20.3411 65.2901
20.3863 63.688
20.4318 57.8139
20.477 52.9661
20.5224 51.0716
20.5677 50.4749
20.6131 49.6278
20.6586 49.0418
20.7038 48.7937
20.7493 48.3938
20.7945 48.3526
20.84 48.165
20.8853 47.9623
20.9307 47.8777
20.976 47.9022
21.0215 47.9985
21.0668 48.3102
21.1122 48.6725
21.1575 49.3902
21.203 50.2758
21.2483 50.7413
21.2938 50.7986
21.3391 49.2186
21.3846 48.2897
21.4299 47.9043
21.4754 47.6149
21.5207 47.8285
21.5662 48.0356
21.6116 48.1208
21.6571 48.8895
21.7024 49.9024
21.7479 51.7103
21.7933 54.3929
21.8388 58.1736
21.8843 62.0231
21.9297 63.9618
21.9752 62.3251
22.0206 58.6021
22.0661 56.0154
22.1115 55.5754
22.157 55.2861
22.2024 53.4978
22.248 50.7606
22.2933 49.1092
22.3389 48.3636
22.3843 48.3644
22.4299 48.2672
22.4753 48.1203
22.5208 48.0489
22.5662 47.6733
22.6118 47.8057
22.6572 48.0439
22.7028 48.2933
22.7483 48.8002
22.7939 49.3647
22.8393 50.8796
22.8849 53.2238
22.9303 55.5857
22.9759 57.3955
23.0214 56.7232
23.067 53.789
23.1126 50.5357
23.1581 48.5667
23.2037 48.1488
23.2492 48.0215
23.2948 48.0831
23.3403 48.2596
23.3859 48.9225
23.4314 49.803
23.477 51.6125
23.5225 54.1586
23.5682 56.5431
23.6137 57.2844
23.6593 54.9585
23.7048 50.8995
23.7505 47.7781
23.796 45.9967
23.8417 45.4299
23.8872 44.9359
23.9329 44.6876
23.9784 44.2815
24.0241 44.0213
24.0697 43.8844
24.1154 43.6325
24.1609 43.484
24.2066 43.3436
24.2522 43.0737
24.2979 42.8517
24.3434 42.7797
24.3892 42.5277
24.4349 42.5213
24.4805 42.3308
24.5262 42.6437
24.5718 42.374
24.6175 42.2468
24.6631 42.1321
24.7089 41.9863
24.7545 41.8431
24.8002 41.7461
24.8458 41.6774
24.8916 41.5783
24.9372 41.7024
24.983 41.8348
25.0286 42.1506
25.0744 42.6606
25.12 43.2013
25.1658 43.7577
25.2114 44.0925
25.2572 44.2273
25.3029 44.4809
25.3487 44.4161
25.3943 44.1496
25.4402 42.9888
25.4858 41.8385
25.5316 40.955
25.5773 40.4855
25.6231 40.5024
25.669 40.0205
25.7147 40.0245
25.7605 39.9728
25.8062 40.0551
25.8521 40.0989
25.8977 39.9502
25.9436 40.2759
25.9893 40.3754
26.0352 40.9084
26.0809 41.0721
26.1268 41.2481
26.1725 40.8212
26.2184 40.2186
26.2641 39.7133
26.31 39.5155
26.3557 39.576
26.4017 39.5221
26.4474 39.8292
26.4933 39.9734
26.5391 40.7392
26.585 41.1312
26.6308 41.5135
26.6767 41.5708
26.7225 41.3824
26.7684 40.8824
26.8142 40.2978
26.8601 39.9523
26.9059 39.4814
26.9519 38.9986
26.9979 38.6125
27.0437 38.3076
27.0896 38.1978
27.1354 38.219
27.1814 38.0846
27.2272 38.0498
27.2732 38.0469
27.3191 37.8832
27.3651 37.9945
27.4109 37.8359
27.4569 37.9314
27.5027 37.9795
27.5488 38.1338
27.5946 37.8443
27.6407 37.6768
27.6865 37.6063
27.7326 37.3064
27.7784 37.3701
27.8245 37.3394
27.8703 37.5333
27.9164 37.7964
27.9623 37.8649
28.0084 38.1227
28.0543 38.6544
28.1003 38.5446
28.1462 38.3574
28.1923 38.0848
28.2384 37.5855
28.2843 37.1923
28.3304 36.7565
28.3764 36.2521
28.4225 36.0599
28.4684 35.818
28.5145 35.6307
28.5605 35.3872
28.6066 35.2048
28.6526 35.2475
28.6987 35.1505
28.7447 34.9279
28.7908 35.0279
28.8368 35.0424
28.8829 34.9853
28.9289 35.0447
28.9751 34.7253
29.0211 34.5369
29.0673 34.2082
29.1133 34.0858
29.1595 33.9481
29.2055 33.8332
29.2517 33.8237
29.2977 33.8234
29.3439 33.9317
29.3899 33.8758
29.4361 33.7557
29.4824 33.5414
29.5284 33.3177
29.5746 32.9465
29.6207 32.7429
29.6669 32.7345
29.713 32.5064
29.7593 32.5383
29.8053 32.4
29.8516 32.4408
29.8977 32.2976
29.9439 32.1525
29.99 32.1357
30.0363 31.9782
30.0824 32.1271
30.1287 32.0387
30.1748 32.151
30.2211 32.0625
30.2673 31.9457
30.3136 31.939
30.3597 31.7334
30.406 31.6769
30.4522 31.6637
30.4985 31.6245
30.5447 31.7111
30.591 31.7331
30.6372 31.8472
30.6835 31.8014
30.7297 31.8608
30.7761 31.8591
30.8224 31.6425
30.8686 31.3883
30.915 31.1953
30.9612 31.1078
31.0076 30.9232
31.0538 30.7351
31.1002 30.7247
31.1464 30.5638
31.1928 30.4661
31.2391 30.5159
31.2855 30.5477
31.3317 30.5298
31.3781 30.4834
31.4244 30.4895
31.4708 30.4332
31.5171 30.4306
31.5636 30.342
31.6098 30.0961
31.6563 29.906
31.7026 29.8067
31.7491 29.6878
31.7953 29.7984
31.8418 29.7316
31.8881 29.6806
31.9346 29.7285
31.9809 29.6245
32.0275 29.5558
32.074 29.4918
32.1203 29.2676
32.1668 29.1588
32.2132 29.0231
32.2597 28.8304
32.306 28.7928
32.3526 28.6442
32.399 28.5148
32.4455 28.4002
32.4919 28.2972
32.5385 28.3771
32.5848 28.175
32.6314 28.0719
32.6778 28.07
32.7244 27.9378
32.7708 27.893
32.8174 27.7991
32.8638 27.6151
32.9104 27.6835
32.9569 27.6143
33.0035 27.5763
33.0499 27.501
33.0966 27.4987
33.143 27.4111
33.1897 27.3815
33.2361 27.3684
33.2828 27.2696
33.3293 27.0128
33.3759 27.0722
33.4226 26.8831
33.4691 26.8079
33.5158 26.7226
33.5623 26.5746
33.609 26.3626
33.6555 26.3431
33.7022 26.196
33.7487 26.1362
33.7954 26.1408
33.842 25.9889
33.8887 26.0809
33.9353 25.9283
33.982 25.8382
34.0286 25.7277
34.0753 25.6202
34.1219 25.5632
34.1687 25.518
34.2152 25.4916
34.262 25.357
34.3086 25.2585
34.3554 25.301
34.402 24.9661
34.4488 25.0051
34.4954 24.9011
34.5422 24.8535
34.5889 24.7057
34.6357 24.6539
34.6825 24.6338
34.7292 24.532
34.776 24.452
34.8227 24.3989
34.8695 24.4106
34.9162 24.2227
34.9631 24.1459
35.0098 24.1777
35.0566 24.0802
35.1033 23.9799
35.1502 24.0
35.1969 23.9422
35.2438 23.8115
35.2906 23.792
35.3375 23.7221
35.3842 23.8059
35.4311 23.7373
35.4779 23.6232
35.5248 23.5373
35.5716 23.4559
35.6185 23.4507
35.6653 23.3645
35.7123 23.2277
35.759 23.1674
35.806 23.0648
35.8528 22.9429
35.8998 22.8892
35.9468 22.9128
35.9936 22.7622
36.0406 22.727
36.0874 22.7157
36.1345 22.5978
36.1813 22.5068
36.2283 22.3694
36.2752 22.3876
36.3222 22.3696
36.3691 22.3411
36.4161 22.075
36.463 22.1744
36.5101 22.173
36.557 21.9939
36.6041 21.9249
36.651 21.8981
36.6981 21.8983
36.745 21.761
36.7921 21.6807
36.839 21.6164
36.8861 21.5761
36.9331 21.4113
36.9802 21.3496
37.0272 21.3098
37.0743 21.2482
37.1213 21.1907
37.1684 21.1688
37.2154 21.1402
37.2626 21.0596
37.3098 20.9541
37.3568 20.9059
37.404 20.8285
37.451 20.7174
37.4982 20.6453
37.5452 20.6333
37.5924 20.5047
37.6395 20.5631
37.6867 20.4923
37.7337 20.3637
37.781 20.2528
37.8281 20.2325
37.8753 20.0626
37.9224 20.0749
37.9697 20.0217
38.0168 19.9433
38.064 19.8459
38.1111 19.8345
38.1584 19.7571
38.2056 19.7072
38.2529 19.7204
38.3 19.5747
38.3473 19.5712
38.3945 19.4578
38.4418 19.3568
38.489 19.4004
38.5363 19.229
38.5837 19.2421
38.6309 19.1978
38.6782 19.1678
38.7254 19.041
38.7728 19.0317
38.82 18.89
38.8674 18.9302
38.9146 18.8295
38.9621 18.7847
39.0093 18.7322
39.0567 18.6308
39.104 18.5834
39.1514 18.4692
39.1987 18.4622
39.2461 18.3714
39.2934 18.3364
39.3409 18.3084
39.3882 18.1781
39.4356 18.1154
39.483 18.0762
39.5304 18.0424
39.5778 18.0121
39.6253 17.9774
39.6726 17.8426
39.7201 17.8337
39.7675 17.8067
39.815 17.7196
39.8624 17.6414
39.9099 17.6319
39.9575 17.5931
40.0049 17.5045
40.0525 17.381
40.0999 17.4199
40.1474 17.3683
40.1949 17.1941
40.2425 17.1941
40.2899 17.1896
40.3375 17.0156
40.385 17.0193
40.4326 17.0352
40.48 16.8873
40.5277 16.9236
40.5752 16.8489
40.6228 16.7071
40.6703 16.7691
40.718 16.634
40.7655 16.6223
40.8132 16.4727
40.8607 16.5391
40.9084 16.5022
40.9559 16.3872
41.0036 16.3919
41.0512 16.4263
41.0989 16.2625
41.1465 16.2079
41.1942 16.136
41.242 16.0112
41.2896 16.0203
41.3373 15.9466
41.3849 15.9421
41.4327 15.8373
41.4803 15.8228
41.5281 15.7717
41.5758 15.6859
41.6236 15.6526
41.6712 15.5999
41.7191 15.5585
41.7667 15.4843
41.8146 15.4468
41.8622 15.3584
41.9101 15.3819
41.9578 15.2891
42.0057 15.2321
42.0534 15.2173
42.1013 15.1222
42.149 15.0667
42.1969 15.0438
42.2446 14.9226
42.2925 14.9373
42.3403 14.877
42.3882 14.8753
42.436 14.8484
42.4839 14.7691
42.5319 14.6651
42.5797 14.6508
42.6277 14.568
42.6755 14.5026
42.7235 14.5104
42.7713 14.4448
42.8193 14.414
42.8671 14.3578
42.9152 14.2989
42.963 14.2451
43.0111 14.1871
43.0589 14.1757
43.107 14.1068
43.1549 14.046
43.2029 13.9939
43.2508 13.9414
43.2989 13.8827
43.3468 13.8374
43.3949 13.8642
43.4429 13.7607
43.491 13.7071
43.5389 13.6567
43.5871 13.6647
43.635 13.5658
43.6832 13.5167
43.7312 13.4559
43.7793 13.4764
43.8273 13.3841
43.8755 13.3254
43.9237 13.314
43.9717 13.294
44.0199 13.2035
44.068 13.2055
44.1162 13.0831
44.1642 13.0382
44.2125 13.0398
44.2606 13.0023
44.3088 12.933
44.3569 12.8827
44.4052 12.83
44.4533 12.7334
44.5016 12.7563
44.5497 12.7291
44.598 12.648
44.6461 12.6236
44.6945 12.5676
44.7426 12.5195
44.791 12.5238
44.8391 12.4771
44.8875 12.4336
44.9357 12.3667
44.984 12.3316
45.0322 12.2616
45.0806 12.242
45.1288 12.1884
45.1773 12.1543
45.2257 12.087
45.2739 12.091
45.3224 12.0368
45.3706 12.0263
45.4191 11.9588
45.4673 11.9035
45.5158 11.8362
45.5641 11.837
45.6126 11.7657
45.6609 11.7131
45.7094 11.6747
45.7577 11.6275
45.8063 11.5743
45.8546 11.5473
45.9031 11.5161
45.9515 11.4102
46.0001 11.396
46.0484 11.4016
46.097 11.3665
46.1454 11.3348
46.194 11.3091
46.2424 11.2338
46.291 11.1989
46.3395 11.0998
46.3881 11.0921
46.4365 11.0554
46.4852 11.009
46.5337 10.9738
46.5823 10.9711
46.631 10.9089
46.6795 10.8821
46.7282 10.8406
46.7767 10.7881
46.8254 10.7533
46.8739 10.7142
46.9226 10.6533
46.9712 10.6396
47.0199 10.568
47.0685 10.524
47.1173 10.522
47.1658 10.4937
47.2146 10.4549
47.2632 10.4111
47.312 10.376
47.3606 10.3172
47.4095 10.2548
47.4581 10.2672
47.5069 10.1918
47.5556 10.1708
47.6044 10.1352
47.6531 10.0822
47.702 10.0356
47.7507 10.013
47.7996 9.94795
47.8483 9.93566
47.8972 9.90345
47.9461 9.84708
47.9948 9.84158
48.0438 9.80396
48.0925 9.75923
48.1415 9.72563
48.1902 9.67091
48.2392 9.66406
48.288 9.61877
48.337 9.61126
48.3858 9.54263
48.4348 9.52643
48.4837 9.55528
48.5327 9.47626
48.5815 9.37226
48.6306 9.39758
48.6795 9.37246
48.7285 9.30487
48.7774 9.29907
48.8265 9.25445
48.8754 9.22102
48.9245 9.15779
48.9734 9.12459
49.0226 9.10683
49.0715 9.0786
49.1206 9.0499
49.1696 8.98417
49.2188 8.98906
49.2679 8.95028
49.3169 8.89676
49.3661 8.81816
49.4151 8.8192
49.4643 8.80525
49.5134 8.79586
49.5626 8.68917
49.6117 8.69997
49.6609 8.69457
49.71 8.65318
49.7592 8.592
49.8083 8.55959
49.8576 8.52394
49.9067 8.45066
49.956 8.46971
50.0052 8.45763
50.0545 8.41256
50.1036 8.36085
50.153 8.31614
50.2022 8.28399
50.2515 8.2431
50.3007 8.22663
50.3501 8.20577
50.3993 8.1816
50.4487 8.14023
50.498 8.11592
50.5474 8.0636
50.5966 8.03915
50.6461 8.01521
50.6955 7.99717
50.7448 7.93073
50.7943 7.95254
50.8436 7.91366
50.8931 7.85353
50.9424 7.86276
50.9919 7.79632
51.0413 7.75893
51.0908 7.718
51.1402 7.71744
51.1897 7.68292
51.2391 7.64146
51.2887 7.61529
51.3381 7.60445
51.3877 7.55704
51.4371 7.47397
51.4867 7.48808
51.5362 7.49983
51.5858 7.3982
51.6353 7.40272
51.6849 7.34574
51.7344 7.33792
51.7841 7.33821
51.8336 7.27403
51.8833 7.25348
51.9328 7.23323
51.9826 7.17224
52.0323 7.15352
52.0818 7.14223
52.1316 7.08102
52.1812 7.08928
52.231 7.03282
52.2806 7.03092
52.3304 7.00966
52.38 6.98461
52.4298 6.90999
52.4794 6.88964
52.5293 6.89682
52.5789 6.8439
52.6288 6.85452
52.6785 6.79233
52.7284 6.75683
52.7781 6.7182
52.828 6.66663
52.8777 6.66703
52.9276 6.64319
52.9774 6.58139
53.0273 6.58754
53.0771 6.60375
53.1271 6.53954
53.1769 6.5287
53.2269 6.47855
53.2767 6.43487
53.3267 6.42916
53.3765 6.42014
53.4266 6.34844
53.4766 6.33514
53.5265 6.29968
53.5765 6.31223
53.6264 6.25246
53.6765 6.24142
53.7264 6.20229
53.7765 6.21115
53.8265 6.16237
53.8766 6.10016
53.9266 6.10197
53.9767 6.09005
54.0267 6.03813
54.0769 6.04101
54.1269 5.98036
54.1771 5.93487
54.2271 5.89436
54.2773 5.89933
54.3274 5.84952
54.3776 5.88562
54.4277 5.78605
54.478 5.74891
54.528 5.71338
54.5783 5.68571
54.6285 5.66544
54.6788 5.67079
54.7289 5.59716
54.7792 5.56465
54.8296 5.47219
54.8798 5.43873
54.9301 5.44305
54.9803 5.37881
55.0307 5.40882
55.0809 5.33435
55.1314 5.29038
55.1816 5.22591
55.232 5.1575
55.2823 5.15171
55.3328 5.14581
55.383 5.04195
55.4335 5.00702
55.4838 4.94237
55.5344 4.96693
55.5847 4.84671
55.6352 4.87341
55.6856 4.85734
55.7361 4.78669