File: XRD/Ni3Fe_FD0618.xy
TT I
1.27165 7.29422
1.31627 6.9653
1.36089 6.37509
1.40551 6.00345
1.45013 6.01397
1.49476 5.29723
1.53938 6.04671
1.584 4.96737
1.62863 5.60991
1.67325 4.70083
1.71787 4.98261
1.7625 5.19113
1.80712 4.53418
1.85174 4.36236
1.89636 4.78111
1.94099 4.30877
1.98562 4.98495
2.03025 4.2783
2.07487 4.51647
2.11949 5.03488
2.16411 5.23038
2.20874 13.617
2.25338 21.3377
2.298 5.96054
2.34263 5.45163
2.38725 5.7784
2.43188 5.88149
2.4765 7.00394
2.52115 6.92542
2.56577 7.36784
2.6104 7.98009
2.65503 7.73219
2.69965 7.87836
2.7443 8.51348
2.78893 7.87149
2.83356 8.37813
2.87818 8.44228
2.92281 9.02048
2.96744 9.35997
3.01209 10.2429
3.05672 11.2069
3.10135 12.6401
3.14599 12.6606
3.19062 13.9958
3.23527 15.1119
3.2799 15.9125
3.32454 16.6328
3.36917 17.3129
3.4138 18.7336
3.45844 19.632
3.50309 20.6498
3.54773 21.8132
3.59237 23.8571
3.637 89.2923
3.68164 57.388
3.7263 26.14
3.77094 26.2047
3.81558 26.9441
3.86022 27.6332
3.90486 28.9246
3.9495 30.0296
3.99416 30.906
4.0388 31.9378
4.08344 33.5933
4.12809 34.5942
4.17273 37.0334
4.21738 42.9938
4.26204 236.816
4.30669 207.013
4.35133 48.3273
4.39598 44.246
4.44063 53.351
4.4853 64.8306
4.52995 50.8501
4.5746 51.3531
4.61925 53.6678
4.6639 55.6202
4.70855 58.1297
4.75322 61.2882
4.79788 64.0568
4.84253 67.2387
4.88719 71.12
4.93184 75.0023
4.97652 80.7899
5.02118 86.9187
5.06583 94.3771
5.11049 106.448
5.15515 171.963
5.19981 353.973
5.24449 2938.41
5.28916 12657.4
5.33382 3021.39
5.37848 195.898
5.42315 130.406
5.46783 114.7
5.5125 107.071
5.55716 102.765
5.60183 98.7015
5.6465 97.2693
5.69117 94.3879
5.73586 92.6281
5.78053 92.1198
5.8252 91.2502
5.86988 92.0788
5.91455 94.583
5.95924 101.969
6.00392 204.52
6.0486 978.311
6.09328 4341.49
6.13795 3549.54
6.18263 256.007
6.22733 94.4431
6.27201 83.4682
6.3167 101.216
6.36138 80.5799
6.40606 69.1508
6.45075 67.79
6.49545 65.5542
6.54014 64.3758
6.58483 63.3957
6.62952 62.8721
6.67421 92.834
6.71892 140.543
6.76361 68.6978
6.8083 58.8866
6.853 57.8081
6.89769 57.3313
6.94239 56.9075
6.98711 55.6775
7.03181 55.7083
7.07651 55.712
7.12121 55.3605
7.16591 55.589
7.21063 55.5443
7.25533 70.0553
7.30004 173.876
7.34475 90.4887
7.38945 56.7336
7.43416 54.9665
7.47889 54.7156
7.5236 54.7487
7.56831 55.7155
7.61303 57.125
7.65774 57.2859
7.70247 56.5534
7.74719 56.3134
7.79191 56.8079
7.83663 56.8848
7.88135 58.2152
7.92607 59.0216
7.97081 60.0116
8.01553 61.1029
8.06026 62.8157
8.10498 64.1411
8.14971 73.3721
8.19446 72.2797
8.23919 69.7271
8.28392 72.041
8.32865 74.3004
8.37339 78.5799
8.41812 85.5789
8.46288 113.067
8.50761 162.471
8.55235 387.911
8.59709 1190.35
8.64183 2194.37
8.68658 987.758
8.73134 172.953
8.77609 100.556
8.82083 93.3842
8.86558 90.4019
8.91033 89.7609
8.9551 91.4062
8.99985 85.8037
9.04461 84.0436
9.08936 83.0399
9.13412 82.3253
9.17888 82.1329
9.22365 83.363
9.26841 82.3834
9.31318 83.0758
9.35794 82.929
9.4027 83.4393
9.44749 83.932
9.49226 84.8444
9.53703 86.1049
9.5818 87.5887
9.62657 92.2576
9.67134 98.3774
9.71614 94.0688
9.76091 94.1408
9.80569 96.3429
9.85047 100.358
9.89525 123.47
9.94005 135.216
9.98484 173.7
10.0296 339.693
10.0744 819.19
10.1192 1723.95
10.164 1584.14
10.2088 424.532
10.2536 129.919
10.2984 114.27
10.3432 115.246
10.388 105.178
10.4328 117.541
10.4776 159.676
10.5224 282.214
10.5672 501.616
10.612 493.089
10.6568 205.484
10.7017 97.2643
10.7465 87.2465
10.7913 83.5055
10.8361 81.7268
10.8809 79.3679
10.9257 78.8837
10.9706 79.3361
11.0154 75.291
11.0602 73.0955
11.105 72.3107
11.1499 76.5544
11.1947 82.9431
11.2395 74.5799
11.2844 70.6735
11.3292 67.47
11.374 66.4229
11.4189 65.8399
11.4637 64.9248
11.5086 65.6055
11.5534 68.328
11.5983 65.7071
11.6431 63.7584
11.688 63.2565
11.7328 63.1151
11.7777 63.2786
11.8225 62.6836
11.8674 62.4738
11.9122 63.0508
11.9571 63.3393
12.002 63.7486
12.0468 67.7572
12.0917 79.0489
12.1366 103.331
12.1814 153.851
12.2263 202.726
12.2712 168.237
12.3161 98.2194
12.3609 71.0084
12.4058 64.8355
12.4507 64.6022
12.4956 64.6204
12.5405 64.7316
12.5853 65.8486
12.6302 73.2123
12.6751 78.3365
12.72 70.3446
12.7649 68.2201
12.8098 68.9768
12.8547 69.9749
12.8996 71.1435
12.9445 72.5267
12.9894 74.2018
13.0343 76.0299
13.0792 78.6859
13.1242 87.6876
13.1691 111.753
13.214 149.07
13.2589 238.025
13.3038 365.592
13.3487 422.099
13.3937 274.991
13.4386 128.672
13.4835 105.721
13.5285 120.126
13.5734 159.452
13.6183 249.707
13.6633 345.723
13.7082 341.839
13.7531 193.97
13.7981 100.407
13.843 82.4382
13.888 80.0833
13.9329 77.433
13.9779 76.1961
14.0228 74.9102
14.0678 73.3289
14.1127 73.1923
14.1577 72.7827
14.2027 71.8233
14.2476 70.5049
14.2926 71.0877
14.3376 72.0105
14.3825 70.6996
14.4275 68.9864
14.4725 68.8378
14.5175 69.195
14.5624 69.5873
14.6074 71.3965
14.6524 71.7658
14.6974 70.6442
14.7424 72.1442
14.7874 78.6713
14.8324 89.0816
14.8774 111.652
14.9224 154.045
14.9674 205.25
15.0124 215.942
15.0574 153.387
15.1024 93.7162
15.1474 72.9658
15.1924 70.8256
15.2374 71.3104
15.2824 70.6908
15.3274 68.2982
15.3725 67.3502
15.4175 66.7233
15.4625 66.5734
15.5076 66.6253
15.5526 66.4722
15.5976 65.9988
15.6426 66.8245
15.6877 72.0751
15.7327 79.9438
15.7778 95.2213
15.8228 126.595
15.8679 168.367
15.9129 191.952
15.958 156.146
16.003 98.9333
16.0481 69.0331
16.0931 65.0734
16.1382 63.0461
16.1833 60.9958
16.2283 59.1293
16.2734 58.6093
16.3185 58.9866
16.3636 59.5657
16.4086 58.1417
16.4537 56.5656
16.4988 55.7349
16.5439 55.6417
16.589 55.3917
16.6341 55.2541
16.6792 54.8782
16.7243 55.0922
16.7694 55.451
16.8145 55.1367
16.8596 55.5595
16.9047 57.072
16.9498 57.1634
16.9949 55.9701
17.04 56.0125
17.0851 57.1454
17.1302 58.8439
17.1754 61.9737
17.2205 66.9432
17.2656 74.5902
17.3108 82.6166
17.3559 82.8291
17.401 73.0358
17.4462 62.9789
17.4913 59.622
17.5365 59.3214
17.5815 59.6355
17.6268 59.8392
17.6718 60.6485
17.7171 61.0519
17.7622 61.5503
17.8074 62.2227
17.8525 64.4775
17.8977 68.3626
17.9428 73.9067
17.9881 83.1325
18.0331 100.506
18.0784 121.644
18.1237 138.283
18.1688 131.684
18.214 105.39
18.2591 87.9435
18.3044 91.2534
18.3495 99.9853
18.3948 105.554
18.4399 97.4126
18.4852 79.0994
18.5303 66.9813
18.5756 62.6785
18.6207 61.7524
18.666 60.9909
18.7112 59.917
18.7565 59.395
18.8016 59.0899
18.8469 58.4476
18.892 58.1694
18.9374 57.6718
18.9825 57.3696
19.0278 57.0684
19.073 57.3372
19.1183 57.8009
19.1635 58.2535
19.2088 59.9705
19.254 62.7157
19.2993 66.9238
19.3447 72.8628
19.3898 76.3492
19.4352 72.8507
19.4804 64.168
19.5257 57.5547
19.5709 54.5929
19.6163 54.0275
19.6615 54.0081
19.7068 53.5029
19.752 53.3929
19.7974 53.9076
19.8426 54.6286
19.888 55.2039
19.9332 56.6434
19.9786 58.9665
20.0238 62.5982
20.0692 67.4776
20.1144 69.6206
20.1598 68.3713
20.205 64.2496
20.2504 62.748
20.2957 64.1159
20.3411 65.9939
20.3863 64.463
20.4318 59.1994
20.477 54.2393
20.5224 51.9751
20.5677 51.3601
20.6131 50.4281
20.6586 49.9489
20.7038 49.6942
20.7493 49.3803
20.7945 49.2509
20.84 49.1406
20.8853 48.992
20.9307 48.6023
20.976 48.9396
21.0215 48.7193
21.0668 49.1953
21.1122 49.8175
21.1575 50.2609
21.203 51.0211
21.2483 51.5743
21.2938 51.6074
21.3391 50.1862
21.3846 49.2113
21.4299 48.7378
21.4754 48.435
21.5207 48.8278
21.5662 49.0972
21.6116 49.3712
21.6571 50.2047
21.7024 51.0945
21.7479 52.721
21.7933 55.5045
21.8388 59.2098
21.8843 62.6047
21.9297 64.4927
21.9752 63.6392
22.0206 60.0471
22.0661 57.056
22.1115 56.2098
22.157 56.1407
22.2024 54.5475
22.248 51.835
22.2933 50.284
22.3389 49.3379
22.3843 49.3247
22.4299 49.0981
22.4753 49.0287
22.5208 48.8424
22.5662 48.633
22.6118 48.9396
22.6572 48.9615
22.7028 49.5364
22.7483 49.8784
22.7939 50.6334
22.8393 52.1003
22.8849 54.2624
22.9303 56.342
22.9759 57.7374
23.0214 57.8107
23.067 54.8967
23.1126 51.7868
23.1581 49.6004
23.2037 48.9831
23.2492 49.0511
23.2948 49.08
23.3403 49.243
23.3859 49.9402
23.4314 51.1176
23.477 53.0369
23.5225 55.0543
23.5682 56.9466
23.6137 57.9996
23.6593 55.9885
23.7048 52.224
23.7505 48.8555
23.796 46.8027
23.8417 46.1041
23.8872 45.9045
23.9329 45.3659
23.9784 45.0171
24.0241 44.9652
24.0697 44.7728
24.1154 44.3155
24.1609 44.1798
24.2066 44.1441
24.2522 43.9046
24.2979 43.5175
24.3434 43.5494
24.3892 43.4701
24.4349 43.4284
24.4805 43.1862
24.5262 43.4557
24.5718 43.1274
24.6175 43.2547
24.6631 42.928
24.7089 42.7347
24.7545 42.5796
24.8002 42.4192
24.8458 42.5283
24.8916 42.2758
24.9372 42.4009
24.983 42.6514
25.0286 43.0056
25.0744 43.5469
25.12 44.07
25.1658 44.4256
25.2114 44.7415
25.2572 45.0925
25.3029 45.1153
25.3487 45.0468
25.3943 44.8101
25.4402 43.9088
25.4858 42.7165
25.5316 41.7148
25.5773 41.0862
25.6231 41.0719
25.669 40.7894
25.7147 40.7774
25.7605 40.6812
25.8062 40.8532
25.8521 40.8087
25.8977 40.8039
25.9436 40.9721
25.9893 41.1643
26.0352 41.6902
26.0809 41.7422
26.1268 41.9135
26.1725 41.5882
26.2184 40.9684
26.2641 40.5933
26.31 40.4128
26.3557 40.3188
26.4017 40.3652
26.4474 40.6861
26.4933 40.9686
26.5391 41.4597
26.585 42.0
26.6308 42.2299
26.6767 42.2549
26.7225 42.1282
26.7684 41.6584
26.8142 41.1598
26.8601 40.6783
26.9059 40.3572
26.9519 39.6739
26.9979 39.3829
27.0437 39.0842
27.0896 38.9943
27.1354 38.8733
27.1814 38.745
27.2272 38.6315
27.2732 38.7181
27.3191 38.4177
27.3651 38.6062
27.4109 38.6915
27.4569 38.7244
27.5027 38.7404
27.5488 38.8342
27.5946 38.6396
27.6407 38.3905
27.6865 38.2426
27.7326 38.0443
27.7784 37.917
27.8245 38.1774
27.8703 38.2171
27.9164 38.3981
27.9623 38.6731
28.0084 38.8341
28.0543 39.2225
28.1003 39.1919
28.1462 38.9326
28.1923 38.7191
28.2384 38.1406
28.2843 37.8894
28.3304 37.4411
28.3764 37.0553
28.4225 36.5274
28.4684 36.4273
28.5145 36.1941
28.5605 35.9317
28.6066 35.9478
28.6526 35.7884
28.6987 35.7599
28.7447 35.6909
28.7908 35.5831
28.8368 35.6049
28.8829 35.6299
28.9289 35.5573
28.9751 35.4286
29.0211 35.0768
29.0673 34.8376
29.1133 34.6754
29.1595 34.5925
29.2055 34.5127
29.2517 34.4927
29.2977 34.5554
29.3439 34.4777
29.3899 34.4163
29.4361 34.2991
29.4824 34.1943
29.5284 33.9487
29.5746 33.5569
29.6207 33.361
29.6669 33.244
29.713 33.1141
29.7593 33.0777
29.8053 32.9834
29.8516 32.8872
29.8977 32.8384
29.9439 32.7674
29.99 32.686
30.0363 32.6751
30.0824 32.7467
30.1287 32.5791
30.1748 32.524
30.2211 32.6624
30.2673 32.4788
30.3136 32.5566
30.3597 32.3812
30.406 32.3914
30.4522 32.2251
30.4985 32.3147
30.5447 32.3271
30.591 32.2908
30.6372 32.318
30.6835 32.3921
30.7297 32.4214
30.7761 32.2486
30.8224 32.0886
30.8686 32.0274
30.915 31.8221
30.9612 31.6795
31.0076 31.5527
31.0538 31.263
31.1002 31.263
31.1464 31.1041
31.1928 31.0476
31.2391 31.2554
31.2855 31.027
31.3317 30.9499
31.3781 31.0678
31.4244 31.0481
31.4708 30.9652
31.5171 30.8655
31.5636 30.8566
31.6098 30.6715
31.6563 30.5154
31.7026 30.3737
31.7491 30.2424
31.7953 30.2581
31.8418 30.3947
31.8881 30.2586
31.9346 30.232
31.9809 30.1867
32.0275 30.1097
32.074 29.9765
32.1203 29.8174
32.1668 29.667
32.2132 29.4786
32.2597 29.4286
32.306 29.369
32.3526 29.113
32.399 29.0269
32.4455 28.9051
32.4919 28.9238
32.5385 28.8278
32.5848 28.6347
32.6314 28.6435
32.6778 28.5548
32.7244 28.4713
32.7708 28.2342
32.8174 28.3454
32.8638 28.1392
32.9104 28.1825
32.9569 28.1055
33.0035 28.0359
33.0499 28.0417
33.0966 27.967
33.143 28.0086
33.1897 27.7291
33.2361 27.7514
33.2828 27.7245
33.3293 27.573
33.3759 27.5363
33.4226 27.4037
33.4691 27.2526
33.5158 27.1516
33.5623 26.9984
33.609 26.8351
33.6555 26.7967
33.7022 26.7975
33.7487 26.6005
33.7954 26.6212
33.842 26.6441
33.8887 26.5044
33.9353 26.4317
33.982 26.3037
34.0286 26.2015
34.0753 26.1052
34.1219 26.0507
34.1687 26.0066
34.2152 25.8854
34.262 25.7928
34.3086 25.6857
34.3554 25.6445
34.402 25.5334
34.4488 25.3921
34.4954 25.4152
34.5422 25.3476
34.5889 25.2302
34.6357 25.1946
34.6825 25.084
34.7292 24.9378
34.776 24.8634
34.8227 24.8932
34.8695 24.8385
34.9162 24.7193
34.9631 24.5907
35.0098 24.6515
35.0566 24.5712
35.1033 24.4723
35.1502 24.4324
35.1969 24.3738
35.2438 24.34
35.2906 24.295
35.3375 24.1693
35.3842 24.0892
35.4311 24.0777
35.4779 24.115
35.5248 23.944
35.5716 23.8912
35.6185 23.7624
35.6653 23.7438
35.7123 23.7076
35.759 23.5336
35.806 23.4926
35.8528 23.3772
35.8998 23.372
35.9468 23.179
35.9936 23.1877
36.0406 23.1541
36.0874 23.1041
36.1345 23.0369
36.1813 22.9098
36.2283 22.816
36.2752 22.7457
36.3222 22.8044
36.3691 22.6415
36.4161 22.6254
36.463 22.5805
36.5101 22.5279
36.557 22.5286
36.6041 22.303
36.651 22.2956
36.6981 22.2321
36.745 22.1471
36.7921 22.0967
36.839 22.0138
36.8861 21.9089
36.9331 21.8885
36.9802 21.8063
37.0272 21.614
37.0743 21.6349
37.1213 21.5677
37.1684 21.5452
37.2154 21.4816
37.2626 21.3941
37.3098 21.2837
37.3568 21.245
37.404 21.1668
37.451 21.1087
37.4982 21.0463
37.5452 20.8998
37.5924 20.8716
37.6395 20.9989
37.6867 20.8299
37.7337 20.7199
37.781 20.6432
37.8281 20.592
37.8753 20.4285
37.9224 20.483
37.9697 20.3892
38.0168 20.3387
38.064 20.2164
38.1111 20.1962
38.1584 20.1435
38.2056 20.0665
38.2529 20.0211
38.3 19.8878
38.3473 19.9037
38.3945 19.7771
38.4418 19.7666
38.489 19.7237
38.5363 19.7245
38.5837 19.5396
38.6309 19.5148
38.6782 19.3972
38.7254 19.3672
38.7728 19.3394
38.82 19.2413
38.8674 19.2013
38.9146 19.1493
38.9621 19.0826
39.0093 19.0319
39.0567 18.9825
39.104 18.9205
39.1514 18.8135
39.1987 18.782
39.2461 18.7104
39.2934 18.6709
39.3409 18.5694
39.3882 18.5233
39.4356 18.4241
39.483 18.3817
39.5304 18.3857
39.5778 18.3882
39.6253 18.2188
39.6726 18.1709
39.7201 18.2484
39.7675 18.0526
39.815 18.1229
39.8624 17.9509
39.9099 17.8824
39.9575 17.8861
40.0049 17.7772
40.0525 17.71
40.0999 17.7266
40.1474 17.616
40.1949 17.4767
40.2425 17.4789
40.2899 17.4579
40.3375 17.3942
40.385 17.3468
40.4326 17.2199
40.48 17.2128
40.5277 17.1714
40.5752 17.1537
40.6228 17.0736
40.6703 17.0464
40.718 16.9621
40.7655 16.9236
40.8132 16.8073
40.8607 16.8113
40.9084 16.8011
40.9559 16.6877
41.0036 16.6557
41.0512 16.6661
41.0989 16.6098
41.1465 16.5001
41.1942 16.4173
41.242 16.3791
41.2896 16.3334
41.3373 16.2668
41.3849 16.217
41.4327 16.1146
41.4803 16.0609
41.5281 16.0567
41.5758 15.987
41.6236 15.9528
41.6712 15.8445
41.7191 15.7897
41.7667 15.7685
41.8146 15.7278
41.8622 15.6888
41.9101 15.5497
41.9578 15.5184
42.0057 15.4891
42.0534 15.4646
42.1013 15.4177
42.149 15.2856
42.1969 15.2757
42.2446 15.2438
42.2925 15.2115
42.3403 15.1067
42.3882 15.1024
42.436 15.0496
42.4839 15.0334
42.5319 14.983
42.5797 14.9404
42.6277 14.8541
42.6755 14.8004
42.7235 14.7149
42.7713 14.7103
42.8193 14.6418
42.8671 14.6106
42.9152 14.5784
42.963 14.4677
43.0111 14.4574
43.0589 14.4036
43.107 14.3398
43.1549 14.3225
43.2029 14.2169
43.2508 14.199
43.2989 14.1658
43.3468 14.0774
43.3949 14.0495
43.4429 14.0118
43.491 13.9753
43.5389 13.9206
43.5871 13.8218
43.635 13.8081
43.6832 13.7795
43.7312 13.6828
43.7793 13.7027
43.8273 13.613
43.8755 13.5895
43.9237 13.5533
43.9717 13.4988
44.0199 13.3919
44.068 13.3829
44.1162 13.314
44.1642 13.3438
44.2125 13.2756
44.2606 13.2468
44.3088 13.1566
44.3569 13.1322
44.4052 13.0715
44.4533 13.0087
44.5016 12.9456
44.5497 12.9383
44.598 12.8829
44.6461 12.8761
44.6945 12.7972
44.7426 12.777
44.791 12.6865
44.8391 12.6991
44.8875 12.5985
44.9357 12.5855
44.984 12.5323
45.0322 12.4462
45.0806 12.4296
45.1288 12.379
45.1773 12.3435
45.2257 12.3114
45.2739 12.3057
45.3224 12.2
45.3706 12.1945
45.4191 12.0963
45.4673 12.1265
45.5158 12.0564
45.5641 12.0281
45.6126 12.0317
45.6609 11.9438
45.7094 11.8851
45.7577 11.8518
45.8063 11.7833
45.8546 11.7616
45.9031 11.7036
45.9515 11.6314
46.0001 11.6332
46.0484 11.6154
46.097 11.5869
46.1454 11.5113
46.194 11.5096
46.2424 11.4202
46.291 11.4218
46.3395 11.3521
46.3881 11.2914
46.4365 11.2563
46.4852 11.1875
46.5337 11.1818
46.5823 11.1745
46.631 11.0936
46.6795 11.0732
46.7282 11.0333
46.7767 10.9741
46.8254 10.8977
46.8739 10.9174
46.9226 10.8325
46.9712 10.7774
47.0199 10.7769
47.0685 10.7412
47.1173 10.659
47.1658 10.6595
47.2146 10.6748
47.2632 10.59
47.312 10.5615
47.3606 10.5179
47.4095 10.4194
47.4581 10.437
47.5069 10.3484
47.5556 10.3127
47.6044 10.2804
47.6531 10.2688
47.702 10.1994
47.7507 10.1765
47.7996 10.1702
47.8483 10.1514
47.8972 10.0906
47.9461 10.0517
47.9948 10.011
48.0438 9.95354
48.0925 9.9641
48.1415 9.87131
48.1902 9.83301
48.2392 9.87308
48.288 9.83142
48.337 9.77881
48.3858 9.723
48.4348 9.70388
48.4837 9.67405
48.5327 9.65441
48.5815 9.61287
48.6306 9.55136
48.6795 9.54156
48.7285 9.45978
48.7774 9.45787
48.8265 9.41078
48.8754 9.38897
48.9245 9.34634
48.9734 9.27951
49.0226 9.25502
49.0715 9.2208
49.1206 9.20778
49.1696 9.17986
49.2188 9.13219
49.2679 9.11701
49.3169 9.04749
49.3661 9.00597
49.4151 8.96553
49.4643 8.96989
49.5134 8.94998
49.5626 8.85609
49.6117 8.8309
49.6609 8.84674
49.71 8.7435
49.7592 8.74143
49.8083 8.6923
49.8576 8.68613
49.9067 8.60161
49.956 8.62986
50.0052 8.54075
50.0545 8.54863
50.1036 8.50851
50.153 8.47919
50.2022 8.46937
50.2515 8.42495
50.3007 8.37938
50.3501 8.35068
50.3993 8.30277
50.4487 8.27721
50.498 8.24262
50.5474 8.22096
50.5966 8.1753
50.6461 8.15925
50.6955 8.11016
50.7448 8.11105
50.7943 8.07161
50.8436 8.01674
50.8931 8.0129
50.9424 7.94128
50.9919 7.97261
51.0413 7.89541
51.0908 7.89711
51.1402 7.88044
51.1897 7.81875
51.2391 7.79639
51.2887 7.74006
51.3381 7.69015
51.3877 7.66168
51.4371 7.63026
51.4867 7.60855
51.5362 7.61129
51.5858 7.57712
51.6353 7.5052
51.6849 7.48967
51.7344 7.45375
51.7841 7.49217
51.8336 7.39594
51.8833 7.365
51.9328 7.35574
51.9826 7.28591
52.0323 7.26912
52.0818 7.25521
52.1316 7.24011
52.1812 7.19112
52.231 7.13602
52.2806 7.15444
52.3304 7.10953
52.38 7.06566
52.4298 7.02716
52.4794 6.98965
52.5293 6.94757
52.5789 6.93295
52.6288 6.92818
52.6785 6.87714
52.7284 6.91504
52.7781 6.83769
52.828 6.81666
52.8777 6.77918
52.9276 6.75958
52.9774 6.73486
53.0273 6.7103
53.0771 6.69814
53.1271 6.6555
53.1769 6.61222
53.2269 6.61519
53.2767 6.53824
53.3267 6.51661
53.3765 6.494
53.4266 6.47579
53.4766 6.37525
53.5265 6.38632
53.5765 6.39398
53.6264 6.35021
53.6765 6.34544
53.7264 6.29626
53.7765 6.28596
53.8265 6.26072
53.8766 6.22834
53.9266 6.17674
53.9767 6.19216
54.0267 6.15694
54.0769 6.15289
54.1269 6.07592
54.1771 6.04398
54.2271 6.08003
54.2773 5.97907
54.3274 5.99947
54.3776 5.95339
54.4277 5.91909
54.478 5.86099
54.528 5.83374
54.5783 5.77261
54.6285 5.70987
54.6788 5.69282
54.7289 5.65346
54.7792 5.64446
54.8296 5.60874
54.8798 5.52261
54.9301 5.54076
54.9803 5.49913
55.0307 5.45172
55.0809 5.36765
55.1314 5.43163
55.1816 5.30271
55.232 5.23893
55.2823 5.2316
55.3328 5.16441
55.383 5.13868
55.4335 5.09329
55.4838 5.03271
55.5344 4.95221
55.5847 4.95638
55.6352 4.93754
55.6856 4.83993
55.7361 4.81272