File: XRD/Ni3Fe_FD0795.xy
TT I
1.27165 7.48751
1.31627 6.36221
1.36089 6.83706
1.40551 6.3054
1.45013 5.84802
1.49476 5.72928
1.53938 5.59219
1.584 5.55203
1.62863 5.28957
1.67325 5.26946
1.71787 5.70417
1.7625 5.26458
1.80712 4.89535
1.85174 4.91198
1.89636 5.1659
1.94099 5.26936
1.98562 4.80017
2.03025 4.49457
2.07487 4.19314
2.11949 4.64636
2.16411 4.60883
2.20874 10.0893
2.25338 14.3184
2.298 5.2923
2.34263 5.33799
2.38725 5.79929
2.43188 6.27414
2.4765 6.97688
2.52115 7.18556
2.56577 7.87613
2.6104 8.77246
2.65503 8.05828
2.69965 7.85485
2.7443 8.75413
2.78893 8.93089
2.83356 7.97575
2.87818 9.07203
2.92281 9.10895
2.96744 9.69336
3.01209 10.1397
3.05672 10.842
3.10135 12.3768
3.14599 13.0937
3.19062 14.194
3.23527 14.769
3.2799 15.5157
3.32454 16.7925
3.36917 17.7062
3.4138 18.4454
3.45844 19.7572
3.50309 20.2881
3.54773 21.5134
3.59237 23.5465
3.637 62.6961
3.68164 43.7408
3.7263 25.3158
3.77094 25.805
3.81558 26.7184
3.86022 27.3447
3.90486 28.3958
3.9495 29.1648
3.99416 30.5385
4.0388 31.9769
4.08344 33.1596
4.12809 34.0897
4.17273 36.3162
4.21738 39.6957
4.26204 160.343
4.30669 139.618
4.35133 45.1177
4.39598 43.4058
4.44063 49.7729
4.4853 57.2997
4.52995 51.9747
4.5746 53.4424
4.61925 52.6784
4.6639 55.086
4.70855 57.8504
4.75322 60.5904
4.79788 65.2343
4.84253 66.7233
4.88719 71.9626
4.93184 75.6443
4.97652 80.0707
5.02118 86.5599
5.06583 93.677
5.11049 104.055
5.15515 157.021
5.19981 369.697
5.24449 2818.3
5.28916 12447.1
5.33382 2539.39
5.37848 179.474
5.42315 126.255
5.46783 113.285
5.5125 106.605
5.55716 100.737
5.60183 97.0157
5.6465 95.466
5.69117 93.1942
5.73586 91.4521
5.78053 93.3696
5.8252 92.9882
5.86988 94.5268
5.91455 93.5512
5.95924 102.701
6.00392 224.33
6.0486 960.667
6.09328 4569.32
6.13795 3127.27
6.18263 205.772
6.22733 89.0623
6.27201 80.0201
6.3167 88.9425
6.36138 75.3739
6.40606 68.2762
6.45075 67.7802
6.49545 64.4497
6.54014 62.7386
6.58483 61.8839
6.62952 61.9502
6.67421 78.9179
6.71892 106.429
6.76361 63.5103
6.8083 57.8494
6.853 57.6108
6.89769 56.0258
6.94239 55.8248
6.98711 55.0395
7.03181 55.0988
7.07651 54.5482
7.12121 54.116
7.16591 54.7921
7.21063 54.4692
7.25533 63.1044
7.30004 124.879
7.34475 75.6409
7.38945 54.7898
7.43416 53.4277
7.47889 53.5998
7.5236 54.0575
7.56831 54.6888
7.61303 55.7617
7.65774 55.8916
7.70247 55.9775
7.74719 55.4593
7.79191 55.7405
7.83663 56.3131
7.88135 57.3712
7.92607 57.7177
7.97081 58.9848
8.01553 60.3631
8.06026 61.6865
8.10498 63.2953
8.14971 70.0759
8.19446 69.9906
8.23919 68.5737
8.28392 70.8736
8.32865 73.2746
8.37339 77.6633
8.41812 83.4918
8.46288 104.908
8.50761 172.252
8.55235 380.728
8.59709 1213.09
8.64183 2211.51
8.68658 853.751
8.73134 148.054
8.77609 96.7676
8.82083 90.8454
8.86558 89.4162
8.91033 89.3052
8.9551 88.4832
8.99985 84.2663
9.04461 82.4199
9.08936 82.4683
9.13412 81.7758
9.17888 81.3296
9.22365 81.5187
9.26841 81.103
9.31318 82.5734
9.35794 83.1958
9.4027 83.3512
9.44749 83.684
9.49226 83.8003
9.53703 84.6269
9.5818 87.1004
9.62657 91.6798
9.67134 94.6364
9.71614 92.2329
9.76091 93.1988
9.80569 96.2688
9.85047 99.607
9.89525 114.395
9.94005 128.2
9.98484 183.522
10.0296 341.387
10.0744 821.299
10.1192 1799.1
10.164 1518.96
10.2088 344.0
10.2536 119.807
10.2984 109.219
10.3432 108.928
10.388 103.296
10.4328 119.739
10.4776 160.786
10.5224 289.669
10.5672 541.133
10.612 489.199
10.6568 186.504
10.7017 93.5124
10.7465 84.9277
10.7913 82.2983
10.8361 80.1779
10.8809 77.9404
10.9257 76.6333
10.9706 77.0984
11.0154 73.8707
11.0602 71.809
11.105 70.6348
11.1499 72.6384
11.1947 76.5638
11.2395 70.6817
11.2844 68.3845
11.3292 65.775
11.374 65.1132
11.4189 64.6777
11.4637 64.2305
11.5086 64.1792
11.5534 65.5687
11.5983 63.7689
11.6431 62.8274
11.688 62.0929
11.7328 62.0236
11.7777 62.0157
11.8225 61.8208
11.8674 61.5983
11.9122 61.9172
11.9571 62.3726
12.002 63.293
12.0468 67.5688
12.0917 77.7387
12.1366 102.007
12.1814 158.31
12.2263 215.492
12.2712 167.155
12.3161 88.1775
12.3609 67.136
12.4058 63.3473
12.4507 63.2819
12.4956 63.5693
12.5405 63.3587
12.5853 64.4052
12.6302 68.5488
12.6751 72.455
12.72 67.8702
12.7649 67.0506
12.8098 67.5572
12.8547 68.9358
12.8996 70.4112
12.9445 71.5795
12.9894 73.5393
13.0343 75.2057
13.0792 78.7206
13.1242 89.6693
13.1691 111.081
13.214 147.963
13.2589 245.244
13.3038 386.156
13.3487 418.346
13.3937 241.153
13.4386 117.639
13.4835 105.183
13.5285 119.552
13.5734 159.059
13.6183 254.844
13.6633 360.763
13.7082 329.09
13.7531 169.478
13.7981 92.9681
13.843 80.3507
13.888 78.4725
13.9329 76.2165
13.9779 74.8752
14.0228 73.2599
14.0678 72.2219
14.1127 71.6404
14.1577 71.1896
14.2027 70.3564
14.2476 69.5781
14.2926 69.3868
14.3376 69.7139
14.3825 68.9287
14.4275 67.9404
14.4725 67.7866
14.5175 68.1071
14.5624 68.2422
14.6074 69.538
14.6524 69.9347
14.6974 69.8924
14.7424 72.344
14.7874 78.748
14.8324 88.2795
14.8774 110.791
14.9224 157.31
14.9674 215.788
15.0124 220.562
15.0574 142.315
15.1024 85.8567
15.1474 70.7721
15.1924 69.333
15.2374 69.0923
15.2824 68.4656
15.3274 66.6158
15.3725 66.0528
15.4175 65.6629
15.4625 65.1752
15.5076 65.2532
15.5526 65.1642
15.5976 65.1622
15.6426 66.8806
15.6877 72.158
15.7327 79.2085
15.7778 94.2835
15.8228 128.807
15.8679 178.214
15.9129 197.908
15.958 147.47
16.003 89.7512
16.0481 65.7298
16.0931 62.6312
16.1382 61.0575
16.1833 59.3544
16.2283 58.0772
16.2734 57.3639
16.3185 57.3761
16.3636 57.5674
16.4086 56.321
16.4537 55.4195
16.4988 54.7003
16.5439 54.572
16.589 54.3085
16.6341 53.8602
16.6792 53.8666
16.7243 54.0611
16.7694 54.017
16.8145 54.0444
16.8596 54.4259
16.9047 55.345
16.9498 55.4769
16.9949 54.7958
17.04 55.0289
17.0851 56.4172
17.1302 58.005
17.1754 60.7498
17.2205 66.4888
17.2656 75.0886
17.3108 83.7139
17.3559 81.263
17.401 69.1818
17.4462 60.6717
17.4913 58.3889
17.5365 58.3527
17.5815 58.5426
17.6268 59.1444
17.6718 59.5786
17.7171 60.1023
17.7622 60.4418
17.8074 61.4197
17.8525 64.2755
17.8977 67.8196
17.9428 73.0894
17.9881 82.2937
18.0331 101.336
18.0784 125.402
18.1237 142.151
18.1688 127.428
18.214 98.9955
18.2591 84.5255
18.3044 90.8237
18.3495 101.782
18.3948 105.612
18.4399 92.8328
18.4852 74.225
18.5303 64.3382
18.5756 61.3322
18.6207 60.3479
18.666 59.5093
18.7112 58.8117
18.7565 58.291
18.8016 57.8597
18.8469 57.4747
18.892 57.0912
18.9374 56.6001
18.9825 56.2254
19.0278 56.0188
19.073 56.3912
19.1183 56.6632
19.1635 57.3561
19.2088 58.6367
19.254 61.5868
19.2993 66.3
19.3447 72.7354
19.3898 76.0645
19.4352 70.2147
19.4804 61.3604
19.5257 55.4117
19.5709 53.3094
19.6163 52.9778
19.6615 53.1066
19.7068 52.4511
19.752 52.5782
19.7974 53.0005
19.8426 53.8669
19.888 54.4069
19.9332 55.6237
19.9786 58.3332
20.0238 62.5508
20.0692 67.6574
20.1144 69.4018
20.1598 66.9508
20.205 62.1364
20.2504 61.5383
20.2957 63.8425
20.3411 65.432
20.3863 62.9109
20.4318 56.6212
20.477 52.5123
20.5224 50.6005
20.5677 50.0846
20.6131 49.5006
20.6586 49.1223
20.7038 48.9142
20.7493 48.4877
20.7945 48.3721
20.84 48.1628
20.8853 48.1801
20.9307 48.0191
20.976 48.1695
21.0215 48.0907
21.0668 48.3447
21.1122 48.8659
21.1575 49.6698
21.203 50.3988
21.2483 50.9477
21.2938 50.7143
21.3391 49.1765
21.3846 48.4049
21.4299 47.7714
21.4754 47.8115
21.5207 48.0696
21.5662 48.3451
21.6116 48.7884
21.6571 49.3158
21.7024 50.1603
21.7479 52.1514
21.7933 55.1849
21.8388 58.9
21.8843 62.8784
21.9297 64.4863
21.9752 62.0257
22.0206 57.9291
22.0661 55.7286
22.1115 55.7366
22.157 55.5259
22.2024 53.2354
22.248 50.4786
22.2933 49.0132
22.3389 48.4829
22.3843 48.3714
22.4299 48.207
22.4753 48.0422
22.5208 48.1646
22.5662 47.7927
22.6118 48.0955
22.6572 48.309
22.7028 48.7726
22.7483 49.1452
22.7939 49.9328
22.8393 51.4329
22.8849 53.9252
22.9303 56.1309
22.9759 57.7489
23.0214 56.7568
23.067 53.4238
23.1126 50.2761
23.1581 48.5875
23.2037 48.2185
23.2492 48.3252
23.2948 48.332
23.3403 48.6488
23.3859 49.1783
23.4314 50.4538
23.477 52.3375
23.5225 54.7606
23.5682 57.111
23.6137 57.4167
23.6593 54.4768
23.7048 50.4161
23.7505 47.3859
23.796 45.899
23.8417 45.6537
23.8872 45.0545
23.9329 44.7193
23.9784 44.2449
24.0241 44.2888
24.0697 43.874
24.1154 43.612
24.1609 43.4728
24.2066 43.2287
24.2522 43.2856
24.2979 42.998
24.3434 42.7607
24.3892 42.6917
24.4349 42.5665
24.4805 42.3145
24.5262 42.5144
24.5718 42.4933
24.6175 42.5185
24.6631 42.4531
24.7089 42.0205
24.7545 41.7407
24.8002 41.8211
24.8458 41.7134
24.8916 41.6346
24.9372 41.7281
24.983 42.1082
25.0286 42.3999
25.0744 42.8282
25.12 43.4847
25.1658 44.0043
25.2114 44.168
25.2572 44.3337
25.3029 44.4122
25.3487 44.5203
25.3943 44.0932
25.4402 42.7899
25.4858 41.7439
25.5316 40.8677
25.5773 40.4336
25.6231 40.4792
25.669 40.0302
25.7147 40.0796
25.7605 39.9185
25.8062 40.1419
25.8521 40.2719
25.8977 40.1472
25.9436 40.4084
25.9893 40.6133
26.0352 41.1023
26.0809 41.2073
26.1268 41.4292
26.1725 40.8386
26.2184 40.2129
26.2641 39.8472
26.31 39.6646
26.3557 39.6126
26.4017 39.678
26.4474 40.0697
26.4933 40.2618
26.5391 40.9771
26.585 41.3685
26.6308 41.7143
26.6767 41.6794
26.7225 41.4846
26.7684 40.9463
26.8142 40.3186
26.8601 40.0099
26.9059 39.556
26.9519 39.0482
26.9979 38.8016
27.0437 38.5472
27.0896 38.241
27.1354 38.3476
27.1814 38.1728
27.2272 38.1195
27.2732 38.3038
27.3191 37.9099
27.3651 38.1273
27.4109 38.0805
27.4569 38.1269
27.5027 38.0441
27.5488 38.1822
27.5946 38.0467
27.6407 37.6769
27.6865 37.7631
27.7326 37.3862
27.7784 37.4188
27.8245 37.4232
27.8703 37.6106
27.9164 37.8918
27.9623 38.1416
28.0084 38.4484
28.0543 38.8934
28.1003 38.6041
28.1462 38.4411
28.1923 37.961
28.2384 37.6519
28.2843 37.0967
28.3304 36.6416
28.3764 36.2159
28.4225 35.9246
28.4684 35.791
28.5145 35.6069
28.5605 35.6157
28.6066 35.3027
28.6526 35.1858
28.6987 35.202
28.7447 35.1103
28.7908 35.0207
28.8368 35.0383
28.8829 34.9663
28.9289 34.9012
28.9751 34.7871
29.0211 34.5294
29.0673 34.16
29.1133 34.1096
29.1595 34.0312
29.2055 33.84
29.2517 33.9711
29.2977 33.9411
29.3439 33.8966
29.3899 33.9314
29.4361 33.6876
29.4824 33.5012
29.5284 33.2844
29.5746 32.9602
29.6207 32.7946
29.6669 32.6573
29.713 32.5148
29.7593 32.4742
29.8053 32.4462
29.8516 32.5274
29.8977 32.3536
29.9439 32.2277
29.99 32.1932
30.0363 32.158
30.0824 32.1607
30.1287 32.0188
30.1748 32.1205
30.2211 32.1235
30.2673 31.9025
30.3136 32.0261
30.3597 31.9374
30.406 31.8338
30.4522 31.7803
30.4985 31.7384
30.5447 31.8804
30.591 31.7973
30.6372 31.9227
30.6835 31.8745
30.7297 31.8749
30.7761 31.7639
30.8224 31.5811
30.8686 31.5484
30.915 31.2738
30.9612 31.166
31.0076 30.9647
31.0538 30.8846
31.1002 30.7492
31.1464 30.656
31.1928 30.6085
31.2391 30.714
31.2855 30.5933
31.3317 30.5059
31.3781 30.6174
31.4244 30.6261
31.4708 30.4183
31.5171 30.4995
31.5636 30.4275
31.6098 30.1989
31.6563 30.1019
31.7026 29.8691
31.7491 29.8469
31.7953 29.8152
31.8418 29.8782
31.8881 29.921
31.9346 29.7573
31.9809 29.7093
32.0275 29.6175
32.074 29.4806
32.1203 29.2599
32.1668 29.1932
32.2132 29.0992
32.2597 28.9705
32.306 28.9128
32.3526 28.6765
32.399 28.6816
32.4455 28.5293
32.4919 28.4159
32.5385 28.3822
32.5848 28.2702
32.6314 28.1894
32.6778 28.0623
32.7244 28.0211
32.7708 27.7935
32.8174 27.8147
32.8638 27.6774
32.9104 27.8229
32.9569 27.7678
33.0035 27.5583
33.0499 27.5608
33.0966 27.5291
33.143 27.4581
33.1897 27.3865
33.2361 27.3094
33.2828 27.2437
33.3293 27.0657
33.3759 27.0555
33.4226 26.9144
33.4691 26.8148
33.5158 26.7014
33.5623 26.6561
33.609 26.4042
33.6555 26.4056
33.7022 26.2485
33.7487 26.2325
33.7954 26.2584
33.842 26.1005
33.8887 26.0814
33.9353 25.987
33.982 25.8654
34.0286 25.8114
34.0753 25.71
34.1219 25.5804
34.1687 25.5109
34.2152 25.5235
34.262 25.4457
34.3086 25.2361
34.3554 25.2387
34.402 25.1039
34.4488 25.0868
34.4954 24.9403
34.5422 24.9235
34.5889 24.745
34.6357 24.7669
34.6825 24.699
34.7292 24.5707
34.776 24.4196
34.8227 24.4026
34.8695 24.3342
34.9162 24.2501
34.9631 24.1959
35.0098 24.2341
35.0566 24.0969
35.1033 23.9871
35.1502 23.961
35.1969 23.9546
35.2438 23.8663
35.2906 23.8965
35.3375 23.7906
35.3842 23.8011
35.4311 23.7403
35.4779 23.6859
35.5248 23.6018
35.5716 23.5334
35.6185 23.4237
35.6653 23.3249
35.7123 23.3757
35.759 23.1946
35.806 23.1081
35.8528 23.047
35.8998 22.9832
35.9468 22.9392
35.9936 22.8089
36.0406 22.8222
36.0874 22.7912
36.1345 22.661
36.1813 22.5491
36.2283 22.4283
36.2752 22.3683
36.3222 22.3818
36.3691 22.3305
36.4161 22.1884
36.463 22.1534
36.5101 22.1708
36.557 22.1512
36.6041 21.9332
36.651 21.8996
36.6981 21.8998
36.745 21.7911
36.7921 21.7122
36.839 21.6249
36.8861 21.5742
36.9331 21.4694
36.9802 21.4754
37.0272 21.3888
37.0743 21.2487
37.1213 21.202
37.1684 21.1548
37.2154 21.15
37.2626 20.9734
37.3098 20.9463
37.3568 20.8746
37.404 20.7929
37.451 20.8053
37.4982 20.8055
37.5452 20.5436
37.5924 20.5314
37.6395 20.5857
37.6867 20.5311
37.7337 20.3645
37.781 20.2414
37.8281 20.3349
37.8753 20.1649
37.9224 20.0998
37.9697 19.9485
38.0168 19.9937
38.064 19.9065
38.1111 19.8949
38.1584 19.8312
38.2056 19.7288
38.2529 19.6546
38.3 19.6564
38.3473 19.6718
38.3945 19.4666
38.4418 19.4102
38.489 19.3693
38.5363 19.2904
38.5837 19.2795
38.6309 19.2115
38.6782 19.1008
38.7254 19.0419
38.7728 18.9588
38.82 18.9561
38.8674 18.9052
38.9146 18.8263
38.9621 18.8026
39.0093 18.6867
39.0567 18.621
39.104 18.5827
39.1514 18.4809
39.1987 18.4771
39.2461 18.4214
39.2934 18.4015
39.3409 18.235
39.3882 18.1608
39.4356 18.1579
39.483 18.0019
39.5304 17.986
39.5778 18.0108
39.6253 17.9816
39.6726 17.901
39.7201 17.8693
39.7675 17.8496
39.815 17.79
39.8624 17.6601
39.9099 17.6383
39.9575 17.5446
40.0049 17.4799
40.0525 17.4235
40.0999 17.333
40.1474 17.3362
40.1949 17.2684
40.2425 17.184
40.2899 17.1516
40.3375 17.1469
40.385 17.0552
40.4326 17.0371
40.48 16.8958
40.5277 16.9501
40.5752 16.8705
40.6228 16.7272
40.6703 16.717
40.718 16.6429
40.7655 16.6626
40.8132 16.5659
40.8607 16.5541
40.9084 16.5219
40.9559 16.4163
41.0036 16.3898
41.0512 16.3212
41.0989 16.3052
41.1465 16.1784
41.1942 16.1736
41.242 16.0887
41.2896 15.9705
41.3373 15.9935
41.3849 15.926
41.4327 15.8903
41.4803 15.8287
41.5281 15.7875
41.5758 15.7145
41.6236 15.6474
41.6712 15.6171
41.7191 15.5189
41.7667 15.5269
41.8146 15.4706
41.8622 15.3842
41.9101 15.3686
41.9578 15.2947
42.0057 15.2382
42.0534 15.166
42.1013 15.1427
42.149 15.0683
42.1969 15.0713
42.2446 15.0387
42.2925 14.9526
42.3403 14.9351
42.3882 14.9059
42.436 14.8123
42.4839 14.7497
42.5319 14.7403
42.5797 14.676
42.6277 14.5849
42.6755 14.5226
42.7235 14.4601
42.7713 14.5101
42.8193 14.4342
42.8671 14.3505
42.9152 14.3406
42.963 14.3055
43.0111 14.1767
43.0589 14.1968
43.107 14.1125
43.1549 14.0549
43.2029 14.0021
43.2508 14.0166
43.2989 13.9197
43.3468 13.9433
43.3949 13.8364
43.4429 13.7986
43.491 13.7318
43.5389 13.6891
43.5871 13.6772
43.635 13.5635
43.6832 13.5564
43.7312 13.5256
43.7793 13.426
43.8273 13.3987
43.8755 13.3256
43.9237 13.3274
43.9717 13.2647
44.0199 13.1876
44.068 13.1778
44.1162 13.0724
44.1642 13.0967
44.2125 13.0616
44.2606 13.038
44.3088 12.9434
44.3569 12.922
44.4052 12.8939
44.4533 12.8532
44.5016 12.8026
44.5497 12.7096
44.598 12.6802
44.6461 12.638
44.6945 12.6278
44.7426 12.5426
44.791 12.4869
44.8391 12.4804
44.8875 12.4257
44.9357 12.3914
44.984 12.3672
45.0322 12.2935
45.0806 12.2597
45.1288 12.186
45.1773 12.1609
45.2257 12.1167
45.2739 12.0636
45.3224 12.0367
45.3706 11.9988
45.4191 11.9155
45.4673 11.8797
45.5158 11.832
45.5641 11.8307
45.6126 11.784
45.6609 11.7439
45.7094 11.6713
45.7577 11.6322
45.8063 11.5629
45.8546 11.5789
45.9031 11.5184
45.9515 11.4907
46.0001 11.4414
46.0484 11.4493
46.097 11.3637
46.1454 11.3414
46.194 11.2959
46.2424 11.2582
46.291 11.2253
46.3395 11.1566
46.3881 11.1016
46.4365 11.0888
46.4852 11.0381
46.5337 10.9907
46.5823 11.0239
46.631 10.9356
46.6795 10.8568
46.7282 10.8485
46.7767 10.7892
46.8254 10.7321
46.8739 10.7262
46.9226 10.6652
46.9712 10.616
47.0199 10.5865
47.0685 10.5049
47.1173 10.5139
47.1658 10.4613
47.2146 10.4554
47.2632 10.4157
47.312 10.4218
47.3606 10.3046
47.4095 10.3024
47.4581 10.2234
47.5069 10.2255
47.5556 10.2012
47.6044 10.1445
47.6531 10.0943
47.702 10.0168
47.7507 10.0266
47.7996 9.9631
47.8483 9.95158
47.8972 9.93235
47.9461 9.90008
47.9948 9.85547
48.0438 9.75622
48.0925 9.79302
48.1415 9.73065
48.1902 9.71125
48.2392 9.67411
48.288 9.64676
48.337 9.58804
48.3858 9.53489
48.4348 9.53217
48.4837 9.49283
48.5327 9.44457
48.5815 9.43613
48.6306 9.38913
48.6795 9.37902
48.7285 9.30697
48.7774 9.27635
48.8265 9.30368
48.8754 9.23432
48.9245 9.19737
48.9734 9.11953
49.0226 9.12569
49.0715 9.0691
49.1206 9.02066
49.1696 8.98437
49.2188 8.9659
49.2679 8.96896
49.3169 8.92272
49.3661 8.83805
49.4151 8.86695
49.4643 8.79812
49.5134 8.73993
49.5626 8.69235
49.6117 8.66016
49.6609 8.65951
49.71 8.63509
49.7592 8.5969
49.8083 8.52298
49.8576 8.533
49.9067 8.49603
49.956 8.45426
50.0052 8.47177
50.0545 8.42601
50.1036 8.36661
50.153 8.3593
50.2022 8.31062
50.2515 8.26908
50.3007 8.21092
50.3501 8.22419
50.3993 8.17232
50.4487 8.15479
50.498 8.09623
50.5474 8.08977
50.5966 8.07483
50.6461 8.02873
50.6955 8.01664
50.7448 7.95192
50.7943 7.95013
50.8436 7.90778
50.8931 7.86568
50.9424 7.87564
50.9919 7.8219
51.0413 7.76623
51.0908 7.74717
51.1402 7.714
51.1897 7.67796
51.2391 7.67397
51.2887 7.62939
51.3381 7.61021
51.3877 7.54217
51.4371 7.55773
51.4867 7.47895
51.5362 7.46928
51.5858 7.43147
51.6353 7.42347
51.6849 7.37419
51.7344 7.36163
51.7841 7.36816
51.8336 7.28346
51.8833 7.23962
51.9328 7.22725
51.9826 7.21466
52.0323 7.16899
52.0818 7.11036
52.1316 7.09091
52.1812 7.05301
52.231 7.03721
52.2806 7.02413
52.3304 7.00208
52.38 6.9684
52.4298 6.94594
52.4794 6.90999
52.5293 6.88813
52.5789 6.85976
52.6288 6.82095
52.6785 6.78752
52.7284 6.78924
52.7781 6.6969
52.828 6.71038
52.8777 6.67291
52.9276 6.65813
52.9774 6.63969
53.0273 6.58675
53.0771 6.59058
53.1271 6.58011
53.1769 6.52764
53.2269 6.5171
53.2767 6.47457
53.3267 6.41708
53.3765 6.39981
53.4266 6.36348
53.4766 6.34994
53.5265 6.31972
53.5765 6.28511
53.6264 6.23945
53.6765 6.25841
53.7264 6.2256
53.7765 6.21554
53.8265 6.14565
53.8766 6.11098
53.9266 6.12747
53.9767 6.06524
54.0267 6.08857
54.0769 6.02111
54.1269 5.99914
54.1771 5.94702
54.2271 5.99925
54.2773 5.92985
54.3274 5.88565
54.3776 5.81243
54.4277 5.79103
54.478 5.78552
54.528 5.74042
54.5783 5.68941
54.6285 5.66425
54.6788 5.58176
54.7289 5.60466
54.7792 5.52232
54.8296 5.46488
54.8798 5.50043
54.9301 5.41119
54.9803 5.41922
55.0307 5.39196
55.0809 5.27139
55.1314 5.28357
55.1816 5.19421
55.232 5.1874
55.2823 5.12774
55.3328 5.11403
55.383 5.02805
55.4335 5.01388
55.4838 4.95378
55.5344 4.90925
55.5847 4.8832
55.6352 4.83546
55.6856 4.85181
55.7361 4.73911