File: XRD/Ni3Fe_FD0268.xy
TT I
1.27165 7.36244
1.31627 6.81678
1.36089 6.66967
1.40551 6.20879
1.45013 6.24434
1.49476 6.54195
1.53938 6.15689
1.584 5.81353
1.62863 5.27405
1.67325 5.57157
1.71787 5.76492
1.7625 5.50764
1.80712 4.84709
1.85174 5.18927
1.89636 4.94641
1.94099 5.0004
1.98562 4.81657
2.03025 5.22828
2.07487 4.88693
2.11949 4.92388
2.16411 4.71563
2.20874 12.3288
2.25338 19.1228
2.298 5.4641
2.34263 5.10136
2.38725 5.10231
2.43188 4.79704
2.4765 5.5387
2.52115 5.3043
2.56577 5.9977
2.6104 6.55627
2.65503 5.89813
2.69965 6.69955
2.7443 6.97399
2.78893 7.21234
2.83356 7.62664
2.87818 8.03381
2.92281 8.63759
2.96744 8.94303
3.01209 10.4961
3.05672 10.8711
3.10135 12.3791
3.14599 13.0552
3.19062 13.7133
3.23527 15.0855
3.2799 15.5024
3.32454 16.8223
3.36917 17.8113
3.4138 19.4691
3.45844 19.6941
3.50309 21.0755
3.54773 22.2153
3.59237 24.4753
3.637 77.8494
3.68164 52.1562
3.7263 26.6154
3.77094 26.9052
3.81558 27.2068
3.86022 28.4551
3.90486 29.6121
3.9495 30.4678
3.99416 31.5097
4.0388 33.2239
4.08344 34.8821
4.12809 35.6636
4.17273 37.7021
4.21738 43.6668
4.26204 204.927
4.30669 182.533
4.35133 49.3385
4.39598 46.1467
4.44063 53.9221
4.4853 63.168
4.52995 53.7357
4.5746 53.6424
4.61925 55.2564
4.6639 57.7977
4.70855 60.4707
4.75322 63.5142
4.79788 66.9221
4.84253 70.3818
4.88719 75.5592
4.93184 79.2391
4.97652 85.4059
5.02118 93.2352
5.06583 102.54
5.11049 117.687
5.15515 189.344
5.19981 542.514
5.24449 3491.98
5.28916 10676.4
5.33382 4266.23
5.37848 267.432
5.42315 149.93
5.46783 126.452
5.5125 115.626
5.55716 109.851
5.60183 105.492
5.6465 102.454
5.69117 100.333
5.73586 98.2918
5.78053 99.0927
5.8252 99.5356
5.86988 100.322
5.91455 103.521
5.95924 117.357
6.00392 279.889
6.0486 1218.25
6.09328 3695.43
6.13795 3659.69
6.18263 372.773
6.22733 107.821
6.27201 89.8361
6.3167 101.257
6.36138 83.1579
6.40606 73.0584
6.45075 70.8521
6.49545 68.3139
6.54014 66.94
6.58483 65.6825
6.62952 65.6506
6.67421 88.2439
6.71892 129.379
6.76361 69.3429
6.8083 61.0666
6.853 59.7197
6.89769 58.8646
6.94239 58.6986
6.98711 58.1244
7.03181 57.8595
7.07651 57.5605
7.12121 57.3757
7.16591 57.6574
7.21063 57.6953
7.25533 68.9423
7.30004 154.537
7.34475 87.2412
7.38945 58.6032
7.43416 56.5825
7.47889 56.245
7.5236 56.4598
7.56831 57.3008
7.61303 58.9133
7.65774 59.2245
7.70247 58.2587
7.74719 58.2128
7.79191 58.8758
7.83663 59.0953
7.88135 60.3976
7.92607 61.2514
7.97081 62.28
8.01553 63.4145
8.06026 65.1611
8.10498 66.4626
8.14971 75.1528
8.19446 74.6283
8.23919 72.5457
8.28392 74.9888
8.32865 77.6471
8.37339 82.5302
8.41812 89.9178
8.46288 116.799
8.50761 198.065
8.55235 491.092
8.59709 1086.82
8.64183 1987.0
8.68658 1269.01
8.73134 231.794
8.77609 109.32
8.82083 99.4245
8.86558 95.0587
8.91033 94.7473
8.9551 94.9796
8.99985 89.3415
9.04461 87.447
9.08936 86.7841
9.13412 85.9247
9.17888 85.8113
9.22365 86.2837
9.26841 85.733
9.31318 86.7877
9.35794 86.9554
9.4027 86.9215
9.44749 87.8302
9.49226 88.0225
9.53703 89.2825
9.5818 91.9704
9.62657 95.9839
9.67134 101.382
9.71614 97.8421
9.76091 98.5407
9.80569 101.664
9.85047 105.418
9.89525 125.111
9.94005 140.476
9.98484 207.431
10.0296 436.257
10.0744 792.735
10.1192 1479.85
10.164 1714.58
10.2088 594.34
10.2536 153.054
10.2984 120.544
10.3432 119.762
10.388 110.862
10.4328 130.761
10.4776 187.236
10.5224 277.356
10.5672 458.391
10.612 542.943
10.6568 264.493
10.7017 109.737
10.7465 91.5794
10.7913 87.6814
10.8361 85.0346
10.8809 82.6274
10.9257 82.1427
10.9706 82.1288
11.0154 78.2908
11.0602 76.1064
11.105 75.0501
11.1499 77.641
11.1947 83.5177
11.2395 75.8865
11.2844 72.8375
11.3292 70.0473
11.374 68.9758
11.4189 68.6209
11.4637 67.6033
11.5086 67.8133
11.5534 70.0581
11.5983 68.0018
11.6431 66.3146
11.688 65.5197
11.7328 65.7895
11.7777 65.4396
11.8225 65.0803
11.8674 65.0387
11.9122 65.4527
11.9571 65.7872
12.002 66.6754
12.0468 72.228
12.0917 87.7083
12.1366 107.7
12.1814 143.909
12.2263 192.804
12.2712 186.331
12.3161 113.837
12.3609 75.0857
12.4058 67.7039
12.4507 67.1583
12.4956 67.1063
12.5405 67.3022
12.5853 68.2456
12.6302 74.1306
12.6751 78.9298
12.72 72.2484
12.7649 70.7521
12.8098 71.559
12.8547 72.7134
12.8996 74.2621
12.9445 75.3582
12.9894 77.0824
13.0343 79.0326
13.0792 82.9984
13.1242 94.5632
13.1691 127.404
13.214 165.654
13.2589 227.927
13.3038 329.945
13.3487 426.05
13.3937 324.099
13.4386 154.247
13.4835 116.867
13.5285 138.331
13.5734 168.296
13.6183 228.691
13.6633 317.018
13.7082 356.447
13.7531 233.041
13.7981 113.236
13.843 86.9879
13.888 83.437
13.9329 80.86
13.9779 79.0423
14.0228 77.9064
14.0678 76.3179
14.1127 75.778
14.1577 75.5221
14.2027 74.8707
14.2476 73.8251
14.2926 73.3714
14.3376 74.2081
14.3825 73.2141
14.4275 71.8723
14.4725 71.5955
14.5175 71.8574
14.5624 71.8048
14.6074 73.6949
14.6524 74.7179
14.6974 73.4818
14.7424 75.5862
14.7874 84.9409
14.8324 99.2784
14.8774 116.074
14.9224 146.417
14.9674 190.244
15.0124 219.974
15.0574 177.074
15.1024 106.609
15.1474 77.7917
15.1924 73.859
15.2374 74.0385
15.2824 72.9432
15.3274 70.9809
15.3725 69.9539
15.4175 69.4183
15.4625 69.0564
15.5076 69.1504
15.5526 68.9969
15.5976 68.9724
15.6426 70.2683
15.6877 77.8868
15.7327 88.6497
15.7778 100.777
15.8228 122.134
15.8679 155.856
15.9129 188.674
15.958 176.311
16.003 115.939
16.0481 74.8479
16.0931 67.6341
16.1382 65.1364
16.1833 63.3965
16.2283 61.6441
16.2734 60.946
16.3185 60.9311
16.3636 61.5703
16.4086 60.049
16.4537 58.6912
16.4988 57.8705
16.5439 58.0021
16.589 57.4546
16.6341 57.18
16.6792 56.8686
16.7243 57.1318
16.7694 57.2149
16.8145 57.326
16.8596 57.5792
16.9047 58.5965
16.9498 58.9799
16.9949 58.0122
17.04 58.3076
17.0851 59.7722
17.1302 62.1914
17.1754 64.9165
17.2205 68.4635
17.2656 74.4557
17.3108 82.4557
17.3559 84.9638
17.401 77.5546
17.4462 67.0105
17.4913 62.1646
17.5365 61.7806
17.5815 62.0237
17.6268 62.1155
17.6718 63.0164
17.7171 63.4987
17.7622 64.0183
17.8074 64.8861
17.8525 67.5533
17.8977 73.0919
17.9428 79.9611
17.9881 86.019
18.0331 98.6692
18.0784 115.653
18.1237 136.208
18.1688 141.764
18.214 119.603
18.2591 94.5246
18.3044 91.0248
18.3495 97.8095
18.3948 106.404
18.4399 103.224
18.4852 86.1437
18.5303 70.9978
18.5756 65.3381
18.6207 64.0624
18.666 63.1552
18.7112 62.4462
18.7565 61.6969
18.8016 61.3579
18.8469 60.6854
18.892 60.3544
18.9374 59.9188
18.9825 59.4168
19.0278 59.4087
19.073 59.5772
19.1183 60.1865
19.1635 61.2955
19.2088 62.6958
19.254 64.3079
19.2993 67.5484
19.3447 72.2842
19.3898 77.0851
19.4352 76.4206
19.4804 69.0256
19.5257 60.8196
19.5709 57.1638
19.6163 56.3281
19.6615 56.1873
19.7068 55.7101
19.752 55.7455
19.7974 56.06
19.8426 57.1897
19.888 58.1678
19.9332 59.0888
19.9786 60.7404
20.0238 63.621
20.0692 67.6931
20.1144 71.7094
20.1598 72.7358
20.205 68.1547
20.2504 64.8341
20.2957 65.095
20.3411 66.7939
20.3863 67.0651
20.4318 62.6812
20.477 57.1211
20.5224 54.1561
20.5677 53.4106
20.6131 52.3499
20.6586 52.0969
20.7038 51.7809
20.7493 51.4484
20.7945 51.1181
20.84 51.0802
20.8853 50.8286
20.9307 50.7768
20.976 50.8643
21.0215 50.8679
21.0668 51.0378
21.1122 51.5543
21.1575 51.9276
21.203 52.4182
21.2483 53.2483
21.2938 53.8353
21.3391 52.782
21.3846 51.5188
21.4299 50.7701
21.4754 50.6797
21.5207 50.6349
21.5662 50.9555
21.6116 51.4064
21.6571 52.5317
21.7024 53.5908
21.7479 54.9751
21.7933 56.9796
21.8388 59.9052
21.8843 63.2503
21.9297 66.3047
21.9752 67.0096
22.0206 63.4652
22.0661 59.3479
22.1115 57.7853
22.157 58.1048
22.2024 57.2804
22.248 54.7751
22.2933 52.5851
22.3389 51.379
22.3843 51.1715
22.4299 51.0246
22.4753 51.2281
22.5208 50.8442
22.5662 50.6544
22.6118 50.8418
22.6572 51.0681
22.7028 51.8397
22.7483 52.2535
22.7939 52.6854
22.8393 53.9566
22.8849 55.3164
22.9303 57.2343
22.9759 59.0047
23.0214 59.919
23.067 58.0905
23.1126 54.7547
23.1581 51.9423
23.2037 51.0258
23.2492 50.9731
23.2948 51.2784
23.3403 51.8068
23.3859 52.4084
23.4314 52.8981
23.477 53.9181
23.5225 55.9138
23.5682 57.6325
23.6137 59.4051
23.6593 58.6694
23.7048 55.4202
23.7505 51.5125
23.796 49.1471
23.8417 48.1105
23.8872 47.5039
23.9329 47.2434
23.9784 47.042
24.0241 46.5614
24.0697 46.4021
24.1154 46.1284
24.1609 45.9078
24.2066 45.7403
24.2522 45.6055
24.2979 45.4003
24.3434 45.2423
24.3892 45.1455
24.4349 44.9318
24.4805 44.745
24.5262 44.9479
24.5718 44.7451
24.6175 44.7902
24.6631 44.7365
24.7089 44.3691
24.7545 44.3096
24.8002 43.9884
24.8458 44.0283
24.8916 43.876
24.9372 44.102
24.983 44.4057
25.0286 44.6118
25.0744 45.1569
25.12 45.4918
25.1658 45.9244
25.2114 46.3625
25.2572 46.6344
25.3029 46.3776
25.3487 46.6678
25.3943 46.3649
25.4402 45.7539
25.4858 44.789
25.5316 43.5221
25.5773 42.9132
25.6231 42.6514
25.669 42.3698
25.7147 42.3377
25.7605 42.2492
25.8062 42.3812
25.8521 42.5222
25.8977 42.4349
25.9436 42.472
25.9893 42.5546
26.0352 42.9414
26.0809 43.0618
26.1268 43.44
26.1725 43.3201
26.2184 42.9758
26.2641 42.2099
26.31 41.9573
26.3557 41.9007
26.4017 41.9205
26.4474 42.3028
26.4933 42.351
26.5391 42.8092
26.585 43.2347
26.6308 43.6757
26.6767 43.7161
26.7225 43.7992
26.7684 43.3788
26.8142 42.713
26.8601 42.2487
26.9059 41.8034
26.9519 41.3048
26.9979 41.0261
27.0437 40.6203
27.0896 40.4287
27.1354 40.4658
27.1814 40.2042
27.2272 40.1708
27.2732 40.27
27.3191 40.0174
27.3651 40.1433
27.4109 39.9989
27.4569 40.0344
27.5027 40.0636
27.5488 40.2179
27.5946 40.0343
27.6407 39.8384
27.6865 39.8145
27.7326 39.5528
27.7784 39.5756
27.8245 39.4199
27.8703 39.6234
27.9164 39.7817
27.9623 39.9003
28.0084 40.0938
28.0543 40.4921
28.1003 40.5564
28.1462 40.556
28.1923 40.2829
28.2384 39.62
28.2843 39.398
28.3304 38.8862
28.3764 38.448
28.4225 38.0695
28.4684 37.8423
28.5145 37.4571
28.5605 37.3728
28.6066 37.2384
28.6526 37.1539
28.6987 37.0774
28.7447 36.8719
28.7908 36.8608
28.8368 36.8554
28.8829 36.8866
28.9289 36.7838
28.9751 36.585
29.0211 36.5524
29.0673 36.1367
29.1133 36.155
29.1595 35.9511
29.2055 35.8498
29.2517 35.7267
29.2977 35.6959
29.3439 35.5884
29.3899 35.6843
29.4361 35.4181
29.4824 35.4993
29.5284 35.251
29.5746 34.9009
29.6207 34.646
29.6669 34.421
29.713 34.3947
29.7593 34.1964
29.8053 34.1811
29.8516 34.2422
29.8977 34.1109
29.9439 33.9991
29.99 33.9188
30.0363 33.788
30.0824 33.845
30.1287 33.7546
30.1748 33.8561
30.2211 33.905
30.2673 33.6056
30.3136 33.7689
30.3597 33.7922
30.406 33.5986
30.4522 33.6176
30.4985 33.528
30.5447 33.5266
30.591 33.4168
30.6372 33.448
30.6835 33.4702
30.7297 33.5463
30.7761 33.5168
30.8224 33.3965
30.8686 33.2234
30.915 32.9709
30.9612 32.8584
31.0076 32.7065
31.0538 32.5749
31.1002 32.4192
31.1464 32.2916
31.1928 32.2804
31.2391 32.3652
31.2855 32.3136
31.3317 32.197
31.3781 32.2189
31.4244 32.1767
31.4708 32.1683
31.5171 32.0107
31.5636 32.0392
31.6098 31.8538
31.6563 31.7222
31.7026 31.6545
31.7491 31.4923
31.7953 31.4285
31.8418 31.3879
31.8881 31.4814
31.9346 31.3656
31.9809 31.2923
32.0275 31.1824
32.074 31.1335
32.1203 30.8485
32.1668 30.7919
32.2132 30.6208
32.2597 30.5335
32.306 30.4466
32.3526 30.2938
32.399 30.1983
32.4455 30.1011
32.4919 29.8943
32.5385 29.879
32.5848 29.801
32.6314 29.7432
32.6778 29.6819
32.7244 29.5028
32.7708 29.3432
32.8174 29.4277
32.8638 29.3336
32.9104 29.3048
32.9569 29.2333
33.0035 29.0245
33.0499 29.1302
33.0966 28.9243
33.143 28.8743
33.1897 28.8407
33.2361 28.8037
33.2828 28.8871
33.3293 28.5657
33.3759 28.6141
33.4226 28.4831
33.4691 28.2592
33.5158 28.2578
33.5623 28.101
33.609 27.8385
33.6555 27.7281
33.7022 27.7254
33.7487 27.6215
33.7954 27.63
33.842 27.4974
33.8887 27.4118
33.9353 27.4154
33.982 27.2697
34.0286 27.2639
34.0753 27.1216
34.1219 27.0107
34.1687 27.0435
34.2152 26.893
34.262 26.6757
34.3086 26.6812
34.3554 26.6322
34.402 26.4797
34.4488 26.3602
34.4954 26.2931
34.5422 26.258
34.5889 26.1156
34.6357 26.0332
34.6825 26.0566
34.7292 25.9052
34.776 25.7545
34.8227 25.8142
34.8695 25.6931
34.9162 25.5881
34.9631 25.5661
35.0098 25.5716
35.0566 25.4698
35.1033 25.4514
35.1502 25.268
35.1969 25.2443
35.2438 25.191
35.2906 25.07
35.3375 25.0689
35.3842 25.0046
35.4311 25.0139
35.4779 24.9236
35.5248 24.8708
35.5716 24.7294
35.6185 24.8042
35.6653 24.6091
35.7123 24.5457
35.759 24.4551
35.806 24.3411
35.8528 24.256
35.8998 24.153
35.9468 24.1686
35.9936 24.0152
36.0406 24.0195
36.0874 23.9809
36.1345 23.8137
36.1813 23.8588
36.2283 23.6776
36.2752 23.6605
36.3222 23.6786
36.3691 23.5381
36.4161 23.377
36.463 23.3737
36.5101 23.3696
36.557 23.2711
36.6041 23.1371
36.651 23.1194
36.6981 23.0916
36.745 23.0668
36.7921 22.9503
36.839 22.8192
36.8861 22.7587
36.9331 22.6244
36.9802 22.6132
37.0272 22.4624
37.0743 22.4028
37.1213 22.3483
37.1684 22.2654
37.2154 22.2102
37.2626 22.2176
37.3098 22.109
37.3568 22.0605
37.404 22.0193
37.451 21.8457
37.4982 21.8281
37.5452 21.7342
37.5924 21.6424
37.6395 21.7328
37.6867 21.5975
37.7337 21.458
37.781 21.3646
37.8281 21.385
37.8753 21.2871
37.9224 21.2166
37.9697 21.1816
38.0168 21.0506
38.064 21.0763
38.1111 20.9506
38.1584 20.9266
38.2056 20.7864
38.2529 20.7525
38.3 20.6854
38.3473 20.7056
38.3945 20.5298
38.4418 20.5083
38.489 20.4436
38.5363 20.2982
38.5837 20.2729
38.6309 20.2169
38.6782 20.1561
38.7254 20.0892
38.7728 20.0417
38.82 19.9726
38.8674 19.9346
38.9146 19.8303
38.9621 19.7741
39.0093 19.7387
39.0567 19.7031
39.104 19.6587
39.1514 19.5378
39.1987 19.4701
39.2461 19.4513
39.2934 19.4075
39.3409 19.2448
39.3882 19.1621
39.4356 19.2223
39.483 19.1153
39.5304 19.0662
39.5778 19.007
39.6253 18.9561
39.6726 18.8929
39.7201 18.8717
39.7675 18.7493
39.815 18.6534
39.8624 18.6333
39.9099 18.6196
39.9575 18.4968
40.0049 18.4649
40.0525 18.376
40.0999 18.4139
40.1474 18.2906
40.1949 18.2447
40.2425 18.1427
40.2899 18.0855
40.3375 18.1012
40.385 17.9788
40.4326 17.9337
40.48 17.837
40.5277 17.871
40.5752 17.7872
40.6228 17.7098
40.6703 17.6168
40.718 17.6079
40.7655 17.5619
40.8132 17.4831
40.8607 17.4328
40.9084 17.4187
40.9559 17.3459
41.0036 17.2869
41.0512 17.2067
41.0989 17.2201
41.1465 17.1534
41.1942 17.0469
41.242 16.936
41.2896 16.9179
41.3373 16.8329
41.3849 16.8208
41.4327 16.8017
41.4803 16.73
41.5281 16.6422
41.5758 16.5272
41.6236 16.5096
41.6712 16.4396
41.7191 16.4194
41.7667 16.3207
41.8146 16.3251
41.8622 16.2638
41.9101 16.2128
41.9578 16.1154
42.0057 16.0284
42.0534 16.0413
42.1013 16.0463
42.149 15.9532
42.1969 15.8495
42.2446 15.8276
42.2925 15.7793
42.3403 15.736
42.3882 15.639
42.436 15.6432
42.4839 15.5314
42.5319 15.5499
42.5797 15.4509
42.6277 15.4233
42.6755 15.3677
42.7235 15.2721
42.7713 15.2949
42.8193 15.2109
42.8671 15.1169
42.9152 15.1076
42.963 15.0736
43.0111 15.0101
43.0589 14.9416
43.107 14.8835
43.1549 14.8171
43.2029 14.7506
43.2508 14.7224
43.2989 14.7012
43.3468 14.5732
43.3949 14.5829
43.4429 14.5781
43.491 14.4585
43.5389 14.4253
43.5871 14.4049
43.635 14.2734
43.6832 14.2835
43.7312 14.1931
43.7793 14.2026
43.8273 14.1305
43.8755 14.0304
43.9237 14.0461
43.9717 13.9853
44.0199 13.9462
44.068 13.9021
44.1162 13.8617
44.1642 13.839
44.2125 13.7891
44.2606 13.7254
44.3088 13.6667
44.3569 13.6536
44.4052 13.6466
44.4533 13.4895
44.5016 13.4506
44.5497 13.4364
44.598 13.3401
44.6461 13.359
44.6945 13.2952
44.7426 13.2038
44.791 13.1885
44.8391 13.1717
44.8875 13.0901
44.9357 13.0668
44.984 12.9879
45.0322 12.9815
45.0806 12.882
45.1288 12.8629
45.1773 12.828
45.2257 12.7601
45.2739 12.6911
45.3224 12.6746
45.3706 12.6281
45.4191 12.5581
45.4673 12.5245
45.5158 12.4917
45.5641 12.422
45.6126 12.3958
45.6609 12.3624
45.7094 12.266
45.7577 12.2477
45.8063 12.182
45.8546 12.2157
45.9031 12.0976
45.9515 12.0928
46.0001 12.0361
46.0484 12.0043
46.097 12.0172
46.1454 11.9679
46.194 11.9013
46.2424 11.8367
46.291 11.7808
46.3395 11.7298
46.3881 11.7271
46.4365 11.6475
46.4852 11.6484
46.5337 11.603
46.5823 11.5419
46.631 11.4618
46.6795 11.4683
46.7282 11.4286
46.7767 11.3753
46.8254 11.3062
46.8739 11.2649
46.9226 11.2467
46.9712 11.1985
47.0199 11.1424
47.0685 11.132
47.1173 11.0294
47.1658 11.0629
47.2146 11.0035
47.2632 10.9405
47.312 10.914
47.3606 10.8779
47.4095 10.8303
47.4581 10.7589
47.5069 10.7499
47.5556 10.7034
47.6044 10.6938
47.6531 10.6668
47.702 10.5639
47.7507 10.575
47.7996 10.4793
47.8483 10.5178
47.8972 10.4199
47.9461 10.4331
47.9948 10.3439
48.0438 10.3161
48.0925 10.3286
48.1415 10.2468
48.1902 10.2044
48.2392 10.2087
48.288 10.1865
48.337 10.1251
48.3858 10.0859
48.4348 10.0432
48.4837 10.0178
48.5327 9.98446
48.5815 9.9264
48.6306 9.88873
48.6795 9.87983
48.7285 9.78984
48.7774 9.80636
48.8265 9.75895
48.8754 9.72508
48.9245 9.6794
48.9734 9.66521
49.0226 9.61458
49.0715 9.58075
49.1206 9.50887
49.1696 9.49749
49.2188 9.46111
49.2679 9.4381
49.3169 9.34686
49.3661 9.35431
49.4151 9.33977
49.4643 9.2852
49.5134 9.26031
49.5626 9.20032
49.6117 9.13674
49.6609 9.12727
49.71 9.06087
49.7592 9.05564
49.8083 9.0006
49.8576 9.02273
49.9067 8.98498
49.956 8.93229
50.0052 8.90253
50.0545 8.86365
50.1036 8.82092
50.153 8.78538
50.2022 8.75592
50.2515 8.71258
50.3007 8.67904
50.3501 8.63479
50.3993 8.60651
50.4487 8.5789
50.498 8.53845
50.5474 8.53404
50.5966 8.45054
50.6461 8.45476
50.6955 8.43055
50.7448 8.36513
50.7943 8.35322
50.8436 8.316
50.8931 8.30074
50.9424 8.22234
50.9919 8.22019
51.0413 8.20434
51.0908 8.15189
51.1402 8.15176
51.1897 8.11161
51.2391 8.07193
51.2887 8.03094
51.3381 8.00323
51.3877 8.00493
51.4371 7.93722
51.4867 7.87254
51.5362 7.83781
51.5858 7.81595
51.6353 7.7869
51.6849 7.80132
51.7344 7.73073
51.7841 7.72019
51.8336 7.66996
51.8833 7.66516
51.9328 7.58337
51.9826 7.55227
52.0323 7.49684
52.0818 7.52991
52.1316 7.46093
52.1812 7.44986
52.231 7.44316
52.2806 7.35665
52.3304 7.37095
52.38 7.33426
52.4298 7.3161
52.4794 7.26091
52.5293 7.24842
52.5789 7.22781
52.6288 7.20701
52.6785 7.16349
52.7284 7.11168
52.7781 7.11489
52.828 7.07906
52.8777 7.00088
52.9276 7.00759
52.9774 6.97338
53.0273 6.96242
53.0771 6.92895
53.1271 6.90054
53.1769 6.8504
53.2269 6.84084
53.2767 6.77316
53.3267 6.79749
53.3765 6.74457
53.4266 6.73109
53.4766 6.68121
53.5265 6.63141
53.5765 6.59888
53.6264 6.62007
53.6765 6.54583
53.7264 6.52638
53.7765 6.4892
53.8265 6.49437
53.8766 6.43971
53.9266 6.44434
53.9767 6.42399
54.0267 6.37521
54.0769 6.33055
54.1269 6.29752
54.1771 6.25488
54.2271 6.23737
54.2773 6.18831
54.3274 6.17503
54.3776 6.14595
54.4277 6.07521
54.478 6.09452
54.528 6.02858
54.5783 5.99847
54.6285 5.94938
54.6788 5.86601
54.7289 5.84746
54.7792 5.86387
54.8296 5.76932
54.8798 5.72599
54.9301 5.66348
54.9803 5.61743
55.0307 5.61934
55.0809 5.58964
55.1314 5.56174
55.1816 5.47408
55.232 5.4443
55.2823 5.41353
55.3328 5.28795
55.383 5.25428
55.4335 5.2523
55.4838 5.17859
55.5344 5.15136
55.5847 5.11954
55.6352 5.08306
55.6856 5.06569
55.7361 4.99598