File: XRD/Ni3Fe_FD0318.xy
TT I
1.27165 7.71853
1.31627 7.09263
1.36089 7.10747
1.40551 7.18376
1.45013 6.45048
1.49476 6.36884
1.53938 6.12092
1.584 5.82035
1.62863 5.19633
1.67325 5.0128
1.71787 5.69004
1.7625 5.1651
1.80712 4.546
1.85174 4.93336
1.89636 5.08729
1.94099 5.50419
1.98562 4.46303
2.03025 4.77872
2.07487 4.63486
2.11949 4.5484
2.16411 4.85261
2.20874 14.4112
2.25338 23.2511
2.298 5.79325
2.34263 4.5793
2.38725 5.2798
2.43188 4.8667
2.4765 5.38061
2.52115 5.27149
2.56577 6.35549
2.6104 6.62923
2.65503 6.19955
2.69965 7.06216
2.7443 7.1638
2.78893 7.26425
2.83356 8.1926
2.87818 9.0149
2.92281 8.55328
2.96744 9.0127
3.01209 10.9572
3.05672 11.0398
3.10135 12.4096
3.14599 12.9798
3.19062 14.4982
3.23527 15.1206
3.2799 15.8151
3.32454 16.8359
3.36917 18.0569
3.4138 19.1994
3.45844 20.2265
3.50309 21.1678
3.54773 21.935
3.59237 24.2119
3.637 96.7262
3.68164 60.9268
3.7263 26.5378
3.77094 26.5315
3.81558 27.6397
3.86022 28.1244
3.90486 29.4638
3.9495 30.2342
3.99416 31.2847
4.0388 32.619
4.08344 34.5095
4.12809 35.778
4.17273 38.0079
4.21738 44.4506
4.26204 258.615
4.30669 224.69
4.35133 49.5303
4.39598 45.7206
4.44063 55.4524
4.4853 67.2605
4.52995 52.8243
4.5746 53.1717
4.61925 54.7625
4.6639 57.0142
4.70855 59.8861
4.75322 63.0038
4.79788 65.9027
4.84253 69.5327
4.88719 74.101
4.93184 77.8738
4.97652 83.911
5.02118 90.9191
5.06583 100.161
5.11049 115.484
5.15515 197.191
5.19981 513.709
5.24449 3314.4
5.28916 11365.3
5.33382 3736.79
5.37848 232.326
5.42315 140.843
5.46783 121.79
5.5125 111.287
5.55716 105.991
5.60183 102.144
5.6465 100.451
5.69117 97.7773
5.73586 95.9431
5.78053 96.0651
5.8252 96.3754
5.86988 97.5726
5.91455 100.979
5.95924 113.134
6.00392 270.643
6.0486 1141.35
6.09328 3926.71
6.13795 3603.23
6.18263 316.907
6.22733 102.759
6.27201 87.5003
6.3167 106.696
6.36138 83.5895
6.40606 71.8596
6.45075 69.8593
6.49545 67.5032
6.54014 65.8067
6.58483 64.8843
6.62952 65.0059
6.67421 96.8613
6.71892 149.69
6.76361 70.6372
6.8083 60.3323
6.853 59.3313
6.89769 58.5376
6.94239 58.286
6.98711 57.3615
7.03181 57.1134
7.07651 57.0932
7.12121 57.0426
7.16591 57.1396
7.21063 57.334
7.25533 71.8134
7.30004 184.154
7.34475 94.8128
7.38945 58.3717
7.43416 56.2519
7.47889 56.1405
7.5236 56.173
7.56831 56.9072
7.61303 58.5189
7.65774 59.2375
7.70247 57.8245
7.74719 57.791
7.79191 58.1158
7.83663 58.5198
7.88135 59.598
7.92607 60.1986
7.97081 61.7169
8.01553 62.7244
8.06026 64.1021
8.10498 65.7425
8.14971 76.3045
8.19446 74.9939
8.23919 71.7249
8.28392 74.0327
8.32865 76.5639
8.37339 81.3116
8.41812 89.2712
8.46288 121.527
8.50761 196.994
8.55235 450.788
8.59709 1107.45
8.64183 2104.27
8.68658 1127.11
8.73134 194.967
8.77609 105.602
8.82083 96.371
8.86558 92.6788
8.91033 92.9574
8.9551 94.6914
8.99985 87.9744
9.04461 85.92
9.08936 85.4937
9.13412 84.4811
9.17888 84.6367
9.22365 85.0447
9.26841 84.5581
9.31318 85.4121
9.35794 85.5029
9.4027 85.6273
9.44749 86.347
9.49226 87.3523
9.53703 88.1307
9.5818 90.3741
9.62657 94.9243
9.67134 101.796
9.71614 96.7173
9.76091 97.2852
9.80569 99.9651
9.85047 103.758
9.89525 128.719
9.94005 145.298
9.98484 205.646
10.0296 396.646
10.0744 801.618
10.1192 1603.68
10.164 1748.58
10.2088 501.829
10.2536 141.266
10.2984 118.527
10.3432 119.424
10.388 109.389
10.4328 127.903
10.4776 175.518
10.5224 277.631
10.5672 475.114
10.612 529.979
10.6568 227.684
10.7017 101.46
10.7465 89.3761
10.7913 86.2553
10.8361 83.5068
10.8809 81.3576
10.9257 80.7834
10.9706 81.4161
11.0154 77.3821
11.0602 74.8787
11.105 73.6922
11.1499 78.3395
11.1947 86.3189
11.2395 77.1019
11.2844 72.7296
11.3292 69.0292
11.374 68.0608
11.4189 67.6697
11.4637 66.9675
11.5086 67.3466
11.5534 70.7729
11.5983 67.6482
11.6431 65.6092
11.688 64.8727
11.7328 64.691
11.7777 64.8383
11.8225 64.3668
11.8674 64.3265
11.9122 64.4939
11.9571 64.8263
12.002 66.0001
12.0468 71.5986
12.0917 84.6671
12.1366 106.102
12.1814 147.771
12.2263 202.079
12.2712 180.994
12.3161 104.673
12.3609 73.4358
12.4058 66.8717
12.4507 66.451
12.4956 66.4311
12.5405 66.5711
12.5853 67.6177
12.6302 75.3384
12.6751 81.5919
12.72 72.4926
12.7649 69.777
12.8098 70.6143
12.8547 71.8388
12.8996 73.2994
12.9445 74.3368
12.9894 76.3994
13.0343 78.2796
13.0792 81.7382
13.1242 94.148
13.1691 122.151
13.214 158.784
13.2589 232.984
13.3038 348.108
13.3487 434.197
13.3937 294.252
13.4386 136.109
13.4835 113.945
13.5285 130.799
13.5734 164.576
13.6183 234.874
13.6633 329.333
13.7082 353.695
13.7531 211.964
13.7981 105.177
13.843 84.8755
13.888 82.3224
13.9329 79.5762
13.9779 78.1995
14.0228 76.6413
14.0678 75.3137
14.1127 74.9575
14.1577 74.6963
14.2027 73.8528
14.2476 72.6359
14.2926 72.7615
14.3376 74.0017
14.3825 72.6156
14.4275 70.9889
14.4725 70.752
14.5175 71.1455
14.5624 71.2544
14.6074 73.4341
14.6524 74.3116
14.6974 72.9612
14.7424 75.0711
14.7874 83.4859
14.8324 94.9757
14.8774 114.331
14.9224 148.972
14.9674 197.531
15.0124 223.016
15.0574 160.821
15.1024 96.8346
15.1474 75.0788
15.1924 72.6726
15.2374 73.5522
15.2824 72.6536
15.3274 70.3616
15.3725 68.967
15.4175 68.503
15.4625 68.2512
15.5076 68.384
15.5526 68.6013
15.5976 68.0873
15.6426 69.5032
15.6877 76.5191
15.7327 84.9379
15.7778 98.5701
15.8228 124.015
15.8679 161.549
15.9129 196.268
15.958 170.727
16.003 106.639
16.0481 71.585
16.0931 67.0805
16.1382 65.1551
16.1833 62.5159
16.2283 60.8683
16.2734 60.4325
16.3185 60.8632
16.3636 61.4251
16.4086 59.7226
16.4537 57.9721
16.4988 57.2758
16.5439 57.2402
16.589 56.7555
16.6341 56.7614
16.6792 56.2161
16.7243 56.6869
16.7694 57.0019
16.8145 56.6686
16.8596 57.0068
16.9047 58.804
16.9498 58.8779
16.9949 57.5341
17.04 57.7246
17.0851 59.116
17.1302 61.0839
17.1754 63.94
17.2205 68.4602
17.2656 74.4425
17.3108 82.8521
17.3559 84.4696
17.401 75.1451
17.4462 65.0101
17.4913 61.1513
17.5365 61.002
17.5815 61.1929
17.6268 61.5635
17.6718 62.3485
17.7171 62.8605
17.7622 63.2857
17.8074 64.0084
17.8525 67.0577
17.8977 71.8783
17.9428 77.5432
17.9881 85.2709
18.0331 99.43
18.0784 118.067
18.1237 139.922
18.1688 139.254
18.214 112.282
18.2591 91.02
18.3044 90.7568
18.3495 98.861
18.3948 107.862
18.4399 100.873
18.4852 81.8626
18.5303 68.5675
18.5756 64.1932
18.6207 63.1978
18.666 62.4698
18.7112 61.5822
18.7565 61.0928
18.8016 60.3912
18.8469 60.1119
18.892 59.7629
18.9374 59.1847
18.9825 58.8515
19.0278 58.7771
19.073 58.9893
19.1183 59.5903
19.1635 60.4832
19.2088 61.6925
19.254 63.7693
19.2993 67.282
19.3447 72.6054
19.3898 78.1845
19.4352 75.996
19.4804 66.5459
19.5257 59.0114
19.5709 56.0002
19.6163 55.4849
19.6615 55.3766
19.7068 55.0092
19.752 55.1167
19.7974 55.5711
19.8426 56.3604
19.888 57.225
19.9332 58.4539
19.9786 60.451
20.0238 63.3667
20.0692 67.8358
20.1144 71.4022
20.1598 71.1239
20.205 66.3332
20.2504 63.5887
20.2957 64.5441
20.3411 66.7394
20.3863 66.6372
20.4318 61.0074
20.477 56.0903
20.5224 53.4256
20.5677 52.7046
20.6131 51.9404
20.6586 51.3525
20.7038 51.1514
20.7493 50.7729
20.7945 50.6785
20.84 50.3564
20.8853 50.42
20.9307 50.147
20.976 50.265
21.0215 50.264
21.0668 50.7597
21.1122 51.232
21.1575 51.5267
21.203 52.08
21.2483 52.9419
21.2938 53.4823
21.3391 51.936
21.3846 50.5308
21.4299 50.0486
21.4754 50.0414
21.5207 50.028
21.5662 50.3903
21.6116 50.999
21.6571 51.8408
21.7024 52.7654
21.7479 54.1639
21.7933 56.6332
21.8388 59.7869
21.8843 63.302
21.9297 66.3461
21.9752 66.0496
22.0206 62.0735
22.0661 58.0879
22.1115 57.2247
22.157 57.5795
22.2024 56.4312
22.248 53.4994
22.2933 51.5545
22.3389 50.8083
22.3843 50.5581
22.4299 50.5652
22.4753 50.4915
22.5208 50.204
22.5662 49.9709
22.6118 50.4057
22.6572 50.5802
22.7028 51.1889
22.7483 51.4232
22.7939 52.1233
22.8393 53.4217
22.8849 55.2564
22.9303 56.9673
22.9759 59.1285
23.0214 59.471
23.067 56.898
23.1126 53.2025
23.1581 50.9802
23.2037 50.4977
23.2492 50.5543
23.2948 50.617
23.3403 50.8703
23.3859 51.5685
23.4314 52.3231
23.477 53.6514
23.5225 55.5842
23.5682 57.6971
23.6137 59.5287
23.6593 58.1254
23.7048 53.9357
23.7505 50.2887
23.796 48.1731
23.8417 47.5557
23.8872 47.0677
23.9329 46.8071
23.9784 46.2884
24.0241 46.0772
24.0697 45.9287
24.1154 45.3685
24.1609 45.3595
24.2066 45.3394
24.2522 44.9657
24.2979 44.9147
24.3434 44.7378
24.3892 44.6539
24.4349 44.2256
24.4805 44.2948
24.5262 44.4581
24.5718 44.2261
24.6175 44.3016
24.6631 44.2137
24.7089 43.936
24.7545 43.7791
24.8002 43.6954
24.8458 43.6023
24.8916 43.3762
24.9372 43.8032
24.983 43.9299
25.0286 44.2599
25.0744 44.5429
25.12 45.0319
25.1658 45.7088
25.2114 46.0369
25.2572 45.9899
25.3029 46.0806
25.3487 46.2389
25.3943 46.2476
25.4402 45.2307
25.4858 43.981
25.5316 42.8337
25.5773 42.2079
25.6231 42.3408
25.669 41.9906
25.7147 41.8952
25.7605 41.7157
25.8062 41.9194
25.8521 41.9957
25.8977 41.8756
25.9436 42.1522
25.9893 42.2621
26.0352 42.6761
26.0809 42.6117
26.1268 43.0641
26.1725 42.9455
26.2184 42.1651
26.2641 41.714
26.31 41.4744
26.3557 41.3976
26.4017 41.3089
26.4474 41.6624
26.4933 42.0125
26.5391 42.5374
26.585 42.882
26.6308 43.2628
26.6767 43.412
26.7225 43.4766
26.7684 42.791
26.8142 42.129
26.8601 41.7715
26.9059 41.239
26.9519 40.85
26.9979 40.6249
27.0437 40.2213
27.0896 39.8906
27.1354 40.0989
27.1814 39.9005
27.2272 39.737
27.2732 39.8619
27.3191 39.6129
27.3651 39.7555
27.4109 39.7282
27.4569 39.72
27.5027 39.6249
27.5488 39.785
27.5946 39.615
27.6407 39.4326
27.6865 39.3356
27.7326 39.0333
27.7784 39.106
27.8245 39.1403
27.8703 39.224
27.9164 39.394
27.9623 39.4951
28.0084 39.8455
28.0543 40.3745
28.1003 40.2533
28.1462 40.0458
28.1923 39.7602
28.2384 39.1309
28.2843 38.9204
28.3304 38.486
28.3764 38.0502
28.4225 37.7055
28.4684 37.5405
28.5145 37.2073
28.5605 37.2129
28.6066 36.8328
28.6526 36.7451
28.6987 36.751
28.7447 36.5825
28.7908 36.5674
28.8368 36.5748
28.8829 36.6041
28.9289 36.5419
28.9751 36.3434
29.0211 36.1338
29.0673 35.9858
29.1133 35.7449
29.1595 35.5212
29.2055 35.4241
29.2517 35.4753
29.2977 35.4383
29.3439 35.3352
29.3899 35.3278
29.4361 35.2626
29.4824 35.0252
29.5284 34.9365
29.5746 34.5417
29.6207 34.1763
29.6669 34.1537
29.713 34.2108
29.7593 33.9819
29.8053 33.9798
29.8516 33.7494
29.8977 33.8664
29.9439 33.7339
29.99 33.5418
30.0363 33.6002
30.0824 33.5681
30.1287 33.4281
30.1748 33.5106
30.2211 33.5545
30.2673 33.2973
30.3136 33.465
30.3597 33.3399
30.406 33.2432
30.4522 33.1204
30.4985 33.0362
30.5447 33.2063
30.591 33.089
30.6372 33.192
30.6835 33.1811
30.7297 33.2302
30.7761 33.128
30.8224 32.9909
30.8686 32.8688
30.915 32.6021
30.9612 32.6269
31.0076 32.3352
31.0538 32.1807
31.1002 32.1196
31.1464 31.9424
31.1928 31.9614
31.2391 32.0285
31.2855 31.8167
31.3317 31.8576
31.3781 31.8923
31.4244 31.9652
31.4708 31.8051
31.5171 31.7561
31.5636 31.7965
31.6098 31.584
31.6563 31.3407
31.7026 31.1836
31.7491 31.1002
31.7953 31.1895
31.8418 31.1942
31.8881 31.1415
31.9346 31.0321
31.9809 31.0384
32.0275 30.8932
32.074 30.8205
32.1203 30.6525
32.1668 30.5884
32.2132 30.2353
32.2597 30.2254
32.306 30.1037
32.3526 29.9606
32.399 29.9791
32.4455 29.7849
32.4919 29.5599
32.5385 29.617
32.5848 29.3438
32.6314 29.4142
32.6778 29.3125
32.7244 29.1134
32.7708 28.9412
32.8174 29.0267
32.8638 28.8817
32.9104 28.9711
32.9569 28.9224
33.0035 28.784
33.0499 28.7447
33.0966 28.5332
33.143 28.5918
33.1897 28.5617
33.2361 28.4765
33.2828 28.4185
33.3293 28.2616
33.3759 28.3266
33.4226 28.1772
33.4691 27.9784
33.5158 27.927
33.5623 27.7686
33.609 27.5736
33.6555 27.4995
33.7022 27.5202
33.7487 27.4387
33.7954 27.3607
33.842 27.2446
33.8887 27.1813
33.9353 27.2132
33.982 27.0053
34.0286 26.9392
34.0753 26.8973
34.1219 26.7297
34.1687 26.6775
34.2152 26.5965
34.262 26.4976
34.3086 26.3473
34.3554 26.3986
34.402 26.2233
34.4488 26.0871
34.4954 25.9747
34.5422 25.9802
34.5889 25.8811
34.6357 25.8272
34.6825 25.6785
34.7292 25.617
34.776 25.4472
34.8227 25.4645
34.8695 25.4153
34.9162 25.3555
34.9631 25.2881
35.0098 25.2543
35.0566 25.0656
35.1033 25.0952
35.1502 25.0513
35.1969 24.9717
35.2438 24.8527
35.2906 24.9166
35.3375 24.874
35.3842 24.7228
35.4311 24.7378
35.4779 24.7563
35.5248 24.6307
35.5716 24.5511
35.6185 24.5193
35.6653 24.3649
35.7123 24.3069
35.759 24.0836
35.806 24.0638
35.8528 23.9307
35.8998 23.961
35.9468 23.8757
35.9936 23.863
36.0406 23.6739
36.0874 23.6774
36.1345 23.5823
36.1813 23.6045
36.2283 23.3685
36.2752 23.3495
36.3222 23.3235
36.3691 23.2692
36.4161 23.2207
36.463 23.205
36.5101 23.1825
36.557 23.0893
36.6041 22.9192
36.651 22.8767
36.6981 22.8043
36.745 22.8061
36.7921 22.6304
36.839 22.5407
36.8861 22.5156
36.9331 22.3497
36.9802 22.3447
37.0272 22.2281
37.0743 22.1394
37.1213 22.1484
37.1684 22.1273
37.2154 21.9992
37.2626 21.9531
37.3098 21.8478
37.3568 21.8556
37.404 21.7854
37.451 21.7013
37.4982 21.5965
37.5452 21.4236
37.5924 21.4507
37.6395 21.4279
37.6867 21.3744
37.7337 21.2829
37.781 21.1797
37.8281 21.1928
37.8753 21.0484
37.9224 21.0502
37.9697 20.9326
38.0168 20.9032
38.064 20.8096
38.1111 20.7506
38.1584 20.6669
38.2056 20.5705
38.2529 20.5631
38.3 20.462
38.3473 20.4073
38.3945 20.3283
38.4418 20.3295
38.489 20.2634
38.5363 20.1121
38.5837 20.1145
38.6309 19.9702
38.6782 19.9714
38.7254 19.8724
38.7728 19.7914
38.82 19.7903
38.8674 19.6828
38.9146 19.6802
38.9621 19.4865
39.0093 19.543
39.0567 19.4524
39.104 19.4089
39.1514 19.287
39.1987 19.3054
39.2461 19.2482
39.2934 19.2347
39.3409 19.0087
39.3882 18.9842
39.4356 18.9662
39.483 18.9328
39.5304 18.8094
39.5778 18.8201
39.6253 18.7185
39.6726 18.625
39.7201 18.5829
39.7675 18.6021
39.815 18.482
39.8624 18.428
39.9099 18.3835
39.9575 18.3214
40.0049 18.2452
40.0525 18.192
40.0999 18.1628
40.1474 18.063
40.1949 17.9971
40.2425 17.9301
40.2899 17.9111
40.3375 17.8772
40.385 17.8065
40.4326 17.714
40.48 17.6878
40.5277 17.6184
40.5752 17.5481
40.6228 17.4503
40.6703 17.4773
40.718 17.3845
40.7655 17.3151
40.8132 17.2474
40.8607 17.3066
40.9084 17.2189
40.9559 17.0717
41.0036 17.1337
41.0512 16.9936
41.0989 17.0268
41.1465 16.9531
41.1942 16.8951
41.242 16.7103
41.2896 16.6759
41.3373 16.6852
41.3849 16.652
41.4327 16.5731
41.4803 16.4971
41.5281 16.4687
41.5758 16.3975
41.6236 16.3363
41.6712 16.2906
41.7191 16.1794
41.7667 16.2386
41.8146 16.1118
41.8622 16.0457
41.9101 16.0611
41.9578 15.9972
42.0057 15.9494
42.0534 15.8456
42.1013 15.8701
42.149 15.7091
42.1969 15.6524
42.2446 15.6937
42.2925 15.5732
42.3403 15.5353
42.3882 15.5587
42.436 15.4607
42.4839 15.364
42.5319 15.3239
42.5797 15.2687
42.6277 15.2203
42.6755 15.1914
42.7235 15.13
42.7713 15.1332
42.8193 15.0725
42.8671 14.9733
42.9152 14.9406
42.963 14.8641
43.0111 14.8317
43.0589 14.7158
43.107 14.6808
43.1549 14.6983
43.2029 14.6358
43.2508 14.5671
43.2989 14.5163
43.3468 14.4577
43.3949 14.4078
43.4429 14.3531
43.491 14.355
43.5389 14.2586
43.5871 14.2849
43.635 14.1353
43.6832 14.1186
43.7312 14.0386
43.7793 13.9893
43.8273 13.9717
43.8755 13.938
43.9237 13.8726
43.9717 13.8433
44.0199 13.7578
44.068 13.7273
44.1162 13.6738
44.1642 13.6502
44.2125 13.6151
44.2606 13.5607
44.3088 13.5013
44.3569 13.4658
44.4052 13.4029
44.4533 13.3931
44.5016 13.2736
44.5497 13.2999
44.598 13.2062
44.6461 13.1467
44.6945 13.1203
44.7426 13.0528
44.791 13.0408
44.8391 12.9874
44.8875 12.943
44.9357 12.9044
44.984 12.8617
45.0322 12.8216
45.0806 12.7947
45.1288 12.7062
45.1773 12.6919
45.2257 12.6236
45.2739 12.5636
45.3224 12.5404
45.3706 12.5051
45.4191 12.4321
45.4673 12.4989
45.5158 12.3781
45.5641 12.3193
45.6126 12.2918
45.6609 12.2179
45.7094 12.18
45.7577 12.1541
45.8063 12.1014
45.8546 12.0587
45.9031 12.0
45.9515 11.9694
46.0001 11.9501
46.0484 11.8659
46.097 11.8344
46.1454 11.7843
46.194 11.7383
46.2424 11.728
46.291 11.6528
46.3395 11.6071
46.3881 11.5717
46.4365 11.5425
46.4852 11.5103
46.5337 11.4264
46.5823 11.4299
46.631 11.3692
46.6795 11.3529
46.7282 11.3135
46.7767 11.2506
46.8254 11.2002
46.8739 11.1263
46.9226 11.1441
46.9712 11.0937
47.0199 11.0258
47.0685 11.0096
47.1173 10.9373
47.1658 10.8986
47.2146 10.874
47.2632 10.8527
47.312 10.7794
47.3606 10.8084
47.4095 10.7183
47.4581 10.6598
47.5069 10.6524
47.5556 10.5745
47.6044 10.5756
47.6531 10.5134
47.702 10.4742
47.7507 10.4679
47.7996 10.3858
47.8483 10.3485
47.8972 10.3348
47.9461 10.291
47.9948 10.2801
48.0438 10.2268
48.0925 10.1876
48.1415 10.1258
48.1902 10.1283
48.2392 10.1192
48.288 10.0441
48.337 9.99359
48.3858 9.97362
48.4348 9.96911
48.4837 9.87304
48.5327 9.84742
48.5815 9.81599
48.6306 9.78603
48.6795 9.76261
48.7285 9.72729
48.7774 9.67867
48.8265 9.6679
48.8754 9.59352
48.9245 9.59678
48.9734 9.56466
49.0226 9.56387
49.0715 9.47872
49.1206 9.39089
49.1696 9.40151
49.2188 9.39443
49.2679 9.30178
49.3169 9.28339
49.3661 9.25244
49.4151 9.20374
49.4643 9.21212
49.5134 9.15618
49.5626 9.09092
49.6117 9.07526
49.6609 9.05078
49.71 9.01831
49.7592 8.9799
49.8083 8.91049
49.8576 8.93188
49.9067 8.84442
49.956 8.84353
50.0052 8.80123
50.0545 8.78036
50.1036 8.69831
50.153 8.69614
50.2022 8.64503
50.2515 8.63568
50.3007 8.5957
50.3501 8.57409
50.3993 8.52675
50.4487 8.51619
50.498 8.47569
50.5474 8.42457
50.5966 8.39096
50.6461 8.37054
50.6955 8.32927
50.7448 8.32085
50.7943 8.23936
50.8436 8.21325
50.8931 8.22749
50.9424 8.17225
50.9919 8.1832
51.0413 8.15613
51.0908 8.09904
51.1402 8.06207
51.1897 8.01911
51.2391 7.99813
51.2887 7.91508
51.3381 7.89921
51.3877 7.85849
51.4371 7.84434
51.4867 7.81619
51.5362 7.79297
51.5858 7.7359
51.6353 7.70883
51.6849 7.67943
51.7344 7.66064
51.7841 7.67305
51.8336 7.6129
51.8833 7.57387
51.9328 7.53618
51.9826 7.51298
52.0323 7.45327
52.0818 7.41324
52.1316 7.3923
52.1812 7.41808
52.231 7.35676
52.2806 7.32363
52.3304 7.27355
52.38 7.27832
52.4298 7.2276
52.4794 7.20636
52.5293 7.14477
52.5789 7.11101
52.6288 7.09303
52.6785 7.09223
52.7284 7.03439
52.7781 7.02134
52.828 6.99626
52.8777 6.95514
52.9276 6.91707
52.9774 6.89791
53.0273 6.87392
53.0771 6.84841
53.1271 6.82485
53.1769 6.77951
53.2269 6.78867
53.2767 6.69157
53.3267 6.6904
53.3765 6.67231
53.4266 6.66164
53.4766 6.6508
53.5265 6.60015
53.5765 6.51987
53.6264 6.54127
53.6765 6.50462
53.7264 6.47016
53.7765 6.41505
53.8265 6.42722
53.8766 6.38296
53.9266 6.34015
53.9767 6.33443
54.0267 6.34322
54.0769 6.26514
54.1269 6.21106
54.1771 6.2139
54.2271 6.15123
54.2773 6.13911
54.3274 6.11199
54.3776 6.06553
54.4277 6.04443
54.478 6.03152
54.528 6.02061
54.5783 5.93196
54.6285 5.89338
54.6788 5.91328
54.7289 5.82621
54.7792 5.74716
54.8296 5.70129
54.8798 5.66403
54.9301 5.64303
54.9803 5.57028
55.0307 5.58875
55.0809 5.54414
55.1314 5.50882
55.1816 5.44879
55.232 5.41302
55.2823 5.36677
55.3328 5.33894
55.383 5.24757
55.4335 5.22118
55.4838 5.13616
55.5344 5.13129
55.5847 5.0825
55.6352 5.06271
55.6856 4.99242
55.7361 5.00584