File: XRD/Ni3Fe_FD0464.xy
TT I
1.27165 7.36972
1.31627 7.36031
1.36089 6.8657
1.40551 6.02224
1.45013 6.46121
1.49476 6.63249
1.53938 5.50563
1.584 5.20914
1.62863 5.5104
1.67325 4.83045
1.71787 4.67196
1.7625 5.45884
1.80712 5.3427
1.85174 4.93446
1.89636 4.27432
1.94099 4.98965
1.98562 4.64081
2.03025 4.73123
2.07487 4.45998
2.11949 4.73703
2.16411 4.54898
2.20874 9.28142
2.25338 13.6816
2.298 5.17688
2.34263 5.17595
2.38725 5.07291
2.43188 5.9629
2.4765 6.34157
2.52115 6.80379
2.56577 6.78785
2.6104 7.52053
2.65503 7.10283
2.69965 7.88867
2.7443 7.46379
2.78893 7.66946
2.83356 8.28985
2.87818 8.66443
2.92281 8.55366
2.96744 9.31112
3.01209 9.7604
3.05672 11.3453
3.10135 11.8886
3.14599 12.9691
3.19062 14.6002
3.23527 14.4225
3.2799 15.7954
3.32454 16.8586
3.36917 17.6859
3.4138 19.0289
3.45844 20.0528
3.50309 20.9239
3.54773 21.6732
3.59237 23.6338
3.637 60.3482
3.68164 41.4379
3.7263 25.7845
3.77094 26.0474
3.81558 27.2855
3.86022 27.7299
3.90486 29.196
3.9495 29.8528
3.99416 31.0613
4.0388 32.3477
4.08344 33.3559
4.12809 34.8812
4.17273 36.1478
4.21738 40.4169
4.26204 149.66
4.30669 127.63
4.35133 45.987
4.39598 44.7024
4.44063 50.0787
4.4853 56.987
4.52995 53.1861
4.5746 53.1746
4.61925 54.2767
4.6639 56.259
4.70855 59.0854
4.75322 62.6022
4.79788 66.2593
4.84253 69.1778
4.88719 74.4193
4.93184 77.6685
4.97652 83.3649
5.02118 90.3186
5.06583 98.777
5.11049 111.968
5.15515 167.335
5.19981 529.349
5.24449 3497.82
5.28916 11844.7
5.33382 2914.84
5.37848 204.804
5.42315 134.685
5.46783 119.328
5.5125 110.489
5.55716 104.969
5.60183 100.627
5.6465 98.6885
5.69117 96.9341
5.73586 95.1343
5.78053 95.9881
5.8252 95.8805
5.86988 97.8749
5.91455 99.2008
5.95924 112.365
6.00392 293.145
6.0486 1200.49
6.09328 4236.62
6.13795 3273.1
6.18263 256.659
6.22733 96.3314
6.27201 83.3517
6.3167 90.1908
6.36138 77.1439
6.40606 70.6693
6.45075 68.73
6.49545 66.5228
6.54014 64.7961
6.58483 63.594
6.62952 63.1958
6.67421 78.6743
6.71892 102.694
6.76361 64.1515
6.8083 59.3662
6.853 58.9011
6.89769 57.5054
6.94239 56.9867
6.98711 56.404
7.03181 56.2442
7.07651 55.6978
7.12121 55.3931
7.16591 55.9396
7.21063 55.6283
7.25533 63.0294
7.30004 116.58
7.34475 73.7571
7.38945 56.3798
7.43416 54.8753
7.47889 54.6517
7.5236 55.1442
7.56831 55.9518
7.61303 56.8087
7.65774 57.2428
7.70247 57.007
7.74719 56.9828
7.79191 57.2451
7.83663 57.4689
7.88135 58.7343
7.92607 59.5628
7.97081 60.4767
8.01553 61.9132
8.06026 63.4108
8.10498 65.0382
8.14971 71.7501
8.19446 71.2111
8.23919 70.7485
8.28392 73.4536
8.32865 76.294
8.37339 80.76
8.41812 87.2784
8.46288 110.077
8.50761 209.933
8.55235 466.341
8.59709 1222.24
8.64183 2129.34
8.68658 984.576
8.73134 168.309
8.77609 101.805
8.82083 94.6712
8.86558 92.2842
8.91033 91.2557
8.9551 90.6966
8.99985 86.6313
9.04461 85.2648
9.08936 84.9025
9.13412 83.5501
9.17888 83.5498
9.22365 83.7177
9.26841 83.6664
9.31318 84.9557
9.35794 85.6028
9.4027 85.4726
9.44749 85.8778
9.49226 86.223
9.53703 87.5092
9.5818 90.0041
9.62657 93.4704
9.67134 97.0268
9.71614 95.0984
9.76091 96.3543
9.80569 99.5009
9.85047 102.735
9.89525 117.414
9.94005 135.2
9.98484 221.84
10.0296 410.924
10.0744 883.864
10.1192 1711.06
10.164 1620.0
10.2088 405.779
10.2536 129.828
10.2984 113.011
10.3432 111.991
10.388 108.249
10.4328 131.751
10.4776 179.29
10.5224 301.384
10.5672 493.76
10.612 493.165
10.6568 204.772
10.7017 97.8076
10.7465 87.9289
10.7913 84.4439
10.8361 82.3774
10.8809 80.3125
10.9257 79.0616
10.9706 78.8853
11.0154 75.9422
11.0602 74.0732
11.105 72.793
11.1499 74.3167
11.1947 77.6181
11.2395 72.4992
11.2844 70.3428
11.3292 68.2684
11.374 67.1019
11.4189 66.7672
11.4637 65.9181
11.5086 65.8471
11.5534 66.8956
11.5983 65.3443
11.6431 64.6042
11.688 63.9134
11.7328 63.8336
11.7777 63.7686
11.8225 63.8086
11.8674 63.4223
11.9122 63.7812
11.9571 64.1942
12.002 65.6299
12.0468 72.2261
12.0917 84.2272
12.1366 109.6
12.1814 156.151
12.2263 202.043
12.2712 169.578
12.3161 92.397
12.3609 69.5465
12.4058 65.3898
12.4507 65.3613
12.4956 65.6777
12.5405 65.5391
12.5853 66.2368
12.6302 70.756
12.6751 73.4907
12.72 69.5489
12.7649 69.1215
12.8098 69.7472
12.8547 70.9411
12.8996 72.478
12.9445 73.8295
12.9894 75.4547
13.0343 77.5595
13.0792 82.1382
13.1242 97.2691
13.1691 122.359
13.214 163.193
13.2589 251.327
13.3038 367.125
13.3487 417.621
13.3937 258.907
13.4386 124.457
13.4835 114.188
13.5285 130.841
13.5734 171.516
13.6183 254.794
13.6633 340.29
13.7082 338.021
13.7531 187.144
13.7981 97.5782
13.843 83.3142
13.888 80.6858
13.9329 78.6071
13.9779 77.2748
14.0228 75.7462
14.0678 74.495
14.1127 73.6371
14.1577 73.333
14.2027 72.4049
14.2476 71.8714
14.2926 71.5062
14.3376 71.9457
14.3825 71.1499
14.4275 70.0645
14.4725 70.142
14.5175 70.4023
14.5624 70.1938
14.6074 71.7641
14.6524 72.1977
14.6974 71.9247
14.7424 76.1164
14.7874 84.0964
14.8324 95.5064
14.8774 118.355
14.9224 157.617
14.9674 203.365
15.0124 214.519
15.0574 146.84
15.1024 90.1447
15.1474 73.2179
15.1924 71.4424
15.2374 71.2965
15.2824 70.3932
15.3274 68.646
15.3725 67.8534
15.4175 67.7002
15.4625 67.1943
15.5076 67.0076
15.5526 67.3754
15.5976 67.3218
15.6426 70.1357
15.6877 76.4577
15.7327 84.8166
15.7778 101.332
15.8228 131.063
15.8679 168.143
15.9129 190.873
15.958 154.722
16.003 95.3783
16.0481 67.9797
16.0931 64.5463
16.1382 62.8996
16.1833 61.47
16.2283 59.8731
16.2734 59.4085
16.3185 58.9157
16.3636 59.1616
16.4086 58.0389
16.4537 57.0025
16.4988 56.4521
16.5439 56.379
16.589 55.9973
16.6341 55.7171
16.6792 55.3792
16.7243 55.6868
16.7694 55.5745
16.8145 55.6148
16.8596 55.932
16.9047 56.8953
16.9498 57.0806
16.9949 56.4431
17.04 57.35
17.0851 58.7247
17.1302 60.3985
17.1754 63.5731
17.2205 68.8262
17.2656 75.5311
17.3108 82.2059
17.3559 82.331
17.401 71.8648
17.4462 63.0578
17.4913 60.3393
17.5365 60.2187
17.5815 60.3275
17.6268 60.63
17.6718 61.2852
17.7171 61.71
17.7622 62.5559
17.8074 63.637
17.8525 67.4948
17.8977 71.3527
17.9428 77.2622
17.9881 86.9832
18.0331 103.053
18.0784 121.649
18.1237 139.88
18.1688 132.751
18.214 105.555
18.2591 89.0809
18.3044 91.9878
18.3495 100.227
18.3948 106.821
18.4399 96.936
18.4852 77.7735
18.5303 66.6556
18.5756 63.1584
18.6207 62.3584
18.666 61.4383
18.7112 60.6387
18.7565 59.847
18.8016 59.9007
18.8469 58.8989
18.892 58.6143
18.9374 58.3276
18.9825 57.8739
19.0278 57.9328
19.073 58.4091
19.1183 58.7362
19.1635 59.3028
19.2088 61.074
19.254 63.8074
19.2993 67.8064
19.3447 72.7194
19.3898 76.6314
19.4352 72.8824
19.4804 63.772
19.5257 57.3394
19.5709 55.1546
19.6163 54.8429
19.6615 54.3271
19.7068 54.1836
19.752 54.4536
19.7974 54.8456
19.8426 55.739
19.888 56.178
19.9332 57.6985
19.9786 60.5144
20.0238 63.8021
20.0692 67.686
20.1144 70.291
20.1598 69.3225
20.205 64.5912
20.2504 62.9049
20.2957 64.362
20.3411 66.3161
20.3863 64.5112
20.4318 58.7849
20.477 54.263
20.5224 51.996
20.5677 51.5962
20.6131 51.1243
20.6586 50.5411
20.7038 50.339
20.7493 49.8886
20.7945 49.7912
20.84 49.6448
20.8853 49.5548
20.9307 49.6202
20.976 49.6554
21.0215 49.6745
21.0668 49.8832
21.1122 50.4195
21.1575 51.0288
21.203 51.572
21.2483 52.3528
21.2938 52.2846
21.3391 50.8635
21.3846 49.8145
21.4299 49.3301
21.4754 49.3068
21.5207 49.5004
21.5662 49.8242
21.6116 50.5565
21.6571 51.2247
21.7024 52.1807
21.7479 53.9589
21.7933 56.7355
21.8388 59.8636
21.8843 63.2507
21.9297 65.24
21.9752 64.1682
22.0206 60.2057
22.0661 57.0924
22.1115 56.3675
22.157 56.6446
22.2024 55.1967
22.248 52.1991
22.2933 50.6764
22.3389 50.0494
22.3843 49.7493
22.4299 49.512
22.4753 49.5123
22.5208 49.455
22.5662 49.3017
22.6118 49.5944
22.6572 49.9039
22.7028 50.3788
22.7483 50.7136
22.7939 51.5807
22.8393 53.0246
22.8849 54.9525
22.9303 56.6436
22.9759 58.2609
23.0214 57.841
23.067 55.1425
23.1126 51.6381
23.1581 49.9725
23.2037 49.6987
23.2492 49.8241
23.2948 49.6872
23.3403 50.1448
23.3859 51.047
23.4314 52.0012
23.477 53.7491
23.5225 55.4467
23.5682 57.3639
23.6137 58.3186
23.6593 56.207
23.7048 52.3793
23.7505 48.8735
23.796 47.2661
23.8417 46.7573
23.8872 46.1288
23.9329 45.9605
23.9784 45.6955
24.0241 45.3667
24.0697 45.2304
24.1154 44.8772
24.1609 44.7432
24.2066 44.5458
24.2522 44.2625
24.2979 44.2282
24.3434 44.1221
24.3892 43.7911
24.4349 43.8317
24.4805 43.7812
24.5262 43.6949
24.5718 43.6664
24.6175 43.6343
24.6631 43.4034
24.7089 43.0969
24.7545 43.1132
24.8002 42.9224
24.8458 42.966
24.8916 42.7764
24.9372 42.8813
24.983 43.3864
25.0286 43.6647
25.0744 44.0092
25.12 44.5771
25.1658 45.2386
25.2114 45.4326
25.2572 45.4208
25.3029 45.3052
25.3487 45.504
25.3943 45.2629
25.4402 44.0229
25.4858 43.0221
25.5316 42.0152
25.5773 41.5976
25.6231 41.5295
25.669 41.2482
25.7147 41.2655
25.7605 41.2084
25.8062 41.127
25.8521 41.273
25.8977 41.2617
25.9436 41.6113
25.9893 41.6643
26.0352 42.2289
26.0809 42.1828
26.1268 42.4073
26.1725 42.0956
26.2184 41.5879
26.2641 40.9069
26.31 40.8547
26.3557 40.8679
26.4017 40.8859
26.4474 41.1318
26.4933 41.4878
26.5391 41.9513
26.585 42.3125
26.6308 42.7544
26.6767 42.7515
26.7225 42.5646
26.7684 42.062
26.8142 41.3529
26.8601 41.0162
26.9059 40.6811
26.9519 40.1831
26.9979 39.8665
27.0437 39.4291
27.0896 39.3184
27.1354 39.289
27.1814 39.295
27.2272 39.2943
27.2732 39.1872
27.3191 39.0189
27.3651 39.1106
27.4109 38.9568
27.4569 39.1814
27.5027 39.082
27.5488 39.185
27.5946 39.0022
27.6407 38.8206
27.6865 38.6947
27.7326 38.371
27.7784 38.4382
27.8245 38.5239
27.8703 38.6001
27.9164 38.8757
27.9623 39.0142
28.0084 39.3106
28.0543 39.6469
28.1003 39.6674
28.1462 39.4737
28.1923 38.8617
28.2384 38.4964
28.2843 38.2408
28.3304 37.81
28.3764 37.2642
28.4225 36.9055
28.4684 36.8279
28.5145 36.5512
28.5605 36.3967
28.6066 36.3227
28.6526 36.1984
28.6987 36.235
28.7447 36.123
28.7908 36.0082
28.8368 35.9335
28.8829 35.9111
28.9289 35.88
28.9751 35.7517
29.0211 35.5066
29.0673 35.1719
29.1133 35.0784
29.1595 34.9347
29.2055 34.8943
29.2517 34.9644
29.2977 34.8043
29.3439 34.7676
29.3899 34.8173
29.4361 34.6421
29.4824 34.5074
29.5284 34.1933
29.5746 33.9291
29.6207 33.6707
29.6669 33.6588
29.713 33.5444
29.7593 33.4313
29.8053 33.3744
29.8516 33.3606
29.8977 33.3571
29.9439 33.1139
29.99 33.038
30.0363 32.9978
30.0824 32.9869
30.1287 32.9378
30.1748 33.0003
30.2211 32.8843
30.2673 32.8096
30.3136 32.8415
30.3597 32.7776
30.406 32.681
30.4522 32.553
30.4985 32.5889
30.5447 32.6525
30.591 32.6346
30.6372 32.6677
30.6835 32.6815
30.7297 32.7308
30.7761 32.5979
30.8224 32.5896
30.8686 32.4601
30.915 32.0723
30.9612 31.9664
31.0076 31.7261
31.0538 31.6488
31.1002 31.4961
31.1464 31.4366
31.1928 31.4346
31.2391 31.4638
31.2855 31.3727
31.3317 31.4329
31.3781 31.5095
31.4244 31.3938
31.4708 31.304
31.5171 31.3719
31.5636 31.2173
31.6098 31.0952
31.6563 30.7931
31.7026 30.6716
31.7491 30.5424
31.7953 30.7348
31.8418 30.5896
31.8881 30.5899
31.9346 30.6103
31.9809 30.4383
32.0275 30.356
32.074 30.3187
32.1203 30.2104
32.1668 30.0085
32.2132 29.8537
32.2597 29.7107
32.306 29.5444
32.3526 29.5261
32.399 29.4417
32.4455 29.2159
32.4919 29.1897
32.5385 29.1263
32.5848 28.9085
32.6314 28.9207
32.6778 29.0054
32.7244 28.6883
32.7708 28.5746
32.8174 28.6605
32.8638 28.4429
32.9104 28.593
32.9569 28.377
33.0035 28.257
33.0499 28.2917
33.0966 28.1919
33.143 28.1852
33.1897 28.1206
33.2361 28.0125
33.2828 28.0419
33.3293 27.8593
33.3759 27.7849
33.4226 27.6894
33.4691 27.4381
33.5158 27.4894
33.5623 27.3669
33.609 27.1188
33.6555 27.0311
33.7022 27.0512
33.7487 26.8307
33.7954 26.887
33.842 26.7997
33.8887 26.7492
33.9353 26.6663
33.982 26.5711
34.0286 26.4201
34.0753 26.411
34.1219 26.3853
34.1687 26.3433
34.2152 26.1919
34.262 26.0879
34.3086 25.9214
34.3554 25.9807
34.402 25.8067
34.4488 25.6769
34.4954 25.6067
34.5422 25.5115
34.5889 25.429
34.6357 25.3834
34.6825 25.3746
34.7292 25.3388
34.776 25.1505
34.8227 25.0024
34.8695 25.0039
34.9162 24.9868
34.9631 24.8477
35.0098 24.8861
35.0566 24.7433
35.1033 24.6603
35.1502 24.6743
35.1969 24.5411
35.2438 24.4747
35.2906 24.4733
35.3375 24.4355
35.3842 24.3405
35.4311 24.3343
35.4779 24.2832
35.5248 24.2425
35.5716 24.1366
35.6185 24.0948
35.6653 24.0018
35.7123 23.9266
35.759 23.8287
35.806 23.7303
35.8528 23.607
35.8998 23.5236
35.9468 23.4492
35.9936 23.4417
36.0406 23.2713
36.0874 23.3804
36.1345 23.2064
36.1813 23.168
36.2283 23.0778
36.2752 23.0286
36.3222 22.9947
36.3691 22.8815
36.4161 22.7321
36.463 22.8472
36.5101 22.7541
36.557 22.6632
36.6041 22.5747
36.651 22.586
36.6981 22.5044
36.745 22.4253
36.7921 22.2308
36.839 22.2111
36.8861 22.1362
36.9331 22.1082
36.9802 21.9548
37.0272 21.9099
37.0743 21.8513
37.1213 21.7933
37.1684 21.7551
37.2154 21.6671
37.2626 21.6137
37.3098 21.5754
37.3568 21.4378
37.404 21.443
37.451 21.3317
37.4982 21.2384
37.5452 21.1817
37.5924 21.0558
37.6395 21.0986
37.6867 21.0048
37.7337 20.9234
37.781 20.7826
37.8281 20.8603
37.8753 20.6691
37.9224 20.6371
37.9697 20.5532
38.0168 20.5054
38.064 20.4533
38.1111 20.3574
38.1584 20.356
38.2056 20.2406
38.2529 20.2238
38.3 20.126
38.3473 20.0864
38.3945 19.9179
38.4418 19.9491
38.489 19.8702
38.5363 19.8258
38.5837 19.773
38.6309 19.6842
38.6782 19.6414
38.7254 19.5067
38.7728 19.4988
38.82 19.3648
38.8674 19.4133
38.9146 19.3437
38.9621 19.2573
39.0093 19.2323
39.0567 19.1059
39.104 19.0541
39.1514 18.975
39.1987 18.9445
39.2461 18.9316
39.2934 18.8449
39.3409 18.7199
39.3882 18.7187
39.4356 18.6225
39.483 18.5969
39.5304 18.5304
39.5778 18.5019
39.6253 18.4245
39.6726 18.421
39.7201 18.2896
39.7675 18.2887
39.815 18.1493
39.8624 18.142
39.9099 18.1111
39.9575 18.0215
40.0049 17.9494
40.0525 17.8595
40.0999 17.873
40.1474 17.7967
40.1949 17.6713
40.2425 17.6332
40.2899 17.6454
40.3375 17.5713
40.385 17.474
40.4326 17.4314
40.48 17.3232
40.5277 17.3614
40.5752 17.3025
40.6228 17.1891
40.6703 17.1527
40.718 17.09
40.7655 17.0874
40.8132 16.9759
40.8607 16.9927
40.9084 16.8754
40.9559 16.8477
41.0036 16.8135
41.0512 16.7797
41.0989 16.6775
41.1465 16.649
41.1942 16.572
41.242 16.5137
41.2896 16.4631
41.3373 16.3706
41.3849 16.3659
41.4327 16.284
41.4803 16.2207
41.5281 16.1635
41.5758 16.0942
41.6236 16.1006
41.6712 16.0226
41.7191 15.9686
41.7667 15.8775
41.8146 15.8636
41.8622 15.8223
41.9101 15.7986
41.9578 15.661
42.0057 15.6844
42.0534 15.6306
42.1013 15.6018
42.149 15.5258
42.1969 15.3928
42.2446 15.4204
42.2925 15.3547
42.3403 15.2557
42.3882 15.2899
42.436 15.2533
42.4839 15.1718
42.5319 15.1432
42.5797 15.0284
42.6277 14.981
42.6755 14.8934
42.7235 14.87
42.7713 14.8801
42.8193 14.7604
42.8671 14.7394
42.9152 14.6694
42.963 14.6174
43.0111 14.5412
43.0589 14.5877
43.107 14.4746
43.1549 14.4115
43.2029 14.4036
43.2508 14.3544
43.2989 14.2519
43.3468 14.2291
43.3949 14.1677
43.4429 14.1338
43.491 14.093
43.5389 14.028
43.5871 14.0208
43.635 13.9733
43.6832 13.8812
43.7312 13.8131
43.7793 13.7645
43.8273 13.7162
43.8755 13.7148
43.9237 13.6543
43.9717 13.592
44.0199 13.5429
44.068 13.5297
44.1162 13.4633
44.1642 13.419
44.2125 13.3623
44.2606 13.336
44.3088 13.2972
44.3569 13.217
44.4052 13.1769
44.4533 13.1016
44.5016 13.0852
44.5497 13.0602
44.598 12.9686
44.6461 12.9398
44.6945 12.9134
44.7426 12.8578
44.791 12.816
44.8391 12.7725
44.8875 12.7527
44.9357 12.674
44.984 12.5933
45.0322 12.6211
45.0806 12.5281
45.1288 12.4655
45.1773 12.4544
45.2257 12.4062
45.2739 12.3672
45.3224 12.3048
45.3706 12.2797
45.4191 12.2483
45.4673 12.1909
45.5158 12.2169
45.5641 12.1391
45.6126 12.0624
45.6609 12.0401
45.7094 11.9653
45.7577 11.948
45.8063 11.8776
45.8546 11.8833
45.9031 11.8058
45.9515 11.7785
46.0001 11.7359
46.0484 11.7103
46.097 11.6729
46.1454 11.6091
46.194 11.5744
46.2424 11.5089
46.291 11.4761
46.3395 11.4288
46.3881 11.3407
46.4365 11.3537
46.4852 11.3298
46.5337 11.2367
46.5823 11.1933
46.631 11.1414
46.6795 11.1549
46.7282 11.1101
46.7767 11.0726
46.8254 10.9945
46.8739 10.9764
46.9226 10.9188
46.9712 10.8916
47.0199 10.9056
47.0685 10.8146
47.1173 10.7685
47.1658 10.7507
47.2146 10.7445
47.2632 10.6206
47.312 10.653
47.3606 10.5767
47.4095 10.5231
47.4581 10.5336
47.5069 10.4597
47.5556 10.422
47.6044 10.3759
47.6531 10.3191
47.702 10.2885
47.7507 10.2695
47.7996 10.1977
47.8483 10.2165
47.8972 10.1861
47.9461 10.1385
47.9948 10.078
48.0438 10.0349
48.0925 10.0096
48.1415 10.0042
48.1902 9.89341
48.2392 9.91825
48.288 9.86712
48.337 9.83445
48.3858 9.81953
48.4348 9.78434
48.4837 9.76022
48.5327 9.71783
48.5815 9.63284
48.6306 9.63626
48.6795 9.61651
48.7285 9.54761
48.7774 9.55559
48.8265 9.49783
48.8754 9.42885
48.9245 9.4018
48.9734 9.38566
49.0226 9.3445
49.0715 9.3549
49.1206 9.27461
49.1696 9.23721
49.2188 9.17438
49.2679 9.18751
49.3169 9.10328
49.3661 9.06113
49.4151 9.0748
49.4643 9.05985
49.5134 8.97922
49.5626 8.89385
49.6117 8.90787
49.6609 8.88489
49.71 8.84007
49.7592 8.82986
49.8083 8.79084
49.8576 8.78604
49.9067 8.7173
49.956 8.67613
50.0052 8.6873
50.0545 8.5892
50.1036 8.61298
50.153 8.53397
50.2022 8.54612
50.2515 8.50057
50.3007 8.47292
50.3501 8.3907
50.3993 8.37527
50.4487 8.36354
50.498 8.32762
50.5474 8.28839
50.5966 8.27064
50.6461 8.25947
50.6955 8.18383
50.7448 8.17218
50.7943 8.13476
50.8436 8.10044
50.8931 8.08605
50.9424 8.0406
50.9919 7.98444
51.0413 7.98302
51.0908 7.95153
51.1402 7.91464
51.1897 7.88012
51.2391 7.87524
51.2887 7.81263
51.3381 7.74912
51.3877 7.75084
51.4371 7.73679
51.4867 7.67352
51.5362 7.64352
51.5858 7.64945
51.6353 7.60471
51.6849 7.5869
51.7344 7.5474
51.7841 7.52186
51.8336 7.47482
51.8833 7.45757
51.9328 7.39868
51.9826 7.35497
52.0323 7.32111
52.0818 7.3334
52.1316 7.31539
52.1812 7.27034
52.231 7.20715
52.2806 7.18505
52.3304 7.16582
52.38 7.11467
52.4298 7.121
52.4794 7.08741
52.5293 7.0696
52.5789 6.99969
52.6288 7.00031
52.6785 6.97593
52.7284 6.9401
52.7781 6.89511
52.828 6.84085
52.8777 6.8006
52.9276 6.82421
52.9774 6.78567
53.0273 6.76204
53.0771 6.74749
53.1271 6.71989
53.1769 6.71468
53.2269 6.65837
53.2767 6.61911
53.3267 6.62057
53.3765 6.56063
53.4266 6.54616
53.4766 6.54146
53.5265 6.4529
53.5765 6.3797
53.6264 6.39537
53.6765 6.35757
53.7264 6.41598
53.7765 6.3916
53.8265 6.28087
53.8766 6.31121
53.9266 6.24273
53.9767 6.21168
54.0267 6.18646
54.0769 6.21172
54.1269 6.11066
54.1771 6.15091
54.2271 6.10158
54.2773 6.07998
54.3274 6.06849
54.3776 5.98141
54.4277 5.97154
54.478 5.91447
54.528 5.9191
54.5783 5.88414
54.6285 5.7678
54.6788 5.79632
54.7289 5.71036
54.7792 5.70373
54.8296 5.64678
54.8798 5.59164
54.9301 5.53779
54.9803 5.53412
55.0307 5.50852
55.0809 5.39715
55.1314 5.4795
55.1816 5.37106
55.232 5.31856
55.2823 5.30107
55.3328 5.27313
55.383 5.1399
55.4335 5.10798
55.4838 5.09703
55.5344 5.03986
55.5847 5.03504
55.6352 4.96998
55.6856 4.91464
55.7361 4.90363