File: XRD/Ni3Fe_FD1001.xy
TT I
1.27165 7.47309
1.31627 6.53004
1.36089 6.46708
1.40551 5.75341
1.45013 5.8068
1.49476 5.99347
1.53938 6.06531
1.584 5.3731
1.62863 5.72869
1.67325 4.94161
1.71787 4.99028
1.7625 4.92858
1.80712 4.80792
1.85174 4.89939
1.89636 4.93551
1.94099 5.50596
1.98562 4.68703
2.03025 4.60187
2.07487 3.99789
2.11949 4.97765
2.16411 4.97263
2.20874 16.7003
2.25338 27.7024
2.298 6.2905
2.34263 6.12281
2.38725 6.73231
2.43188 6.2433
2.4765 7.27317
2.52115 7.33523
2.56577 8.07154
2.6104 9.249
2.65503 8.80058
2.69965 8.81401
2.7443 8.87017
2.78893 8.52786
2.83356 8.9457
2.87818 9.15744
2.92281 9.13607
2.96744 9.71197
3.01209 10.7496
3.05672 11.7402
3.10135 13.1668
3.14599 13.6923
3.19062 14.803
3.23527 15.3255
3.2799 16.2011
3.32454 16.7177
3.36917 17.6628
3.4138 18.6736
3.45844 19.8375
3.50309 21.0052
3.54773 21.7382
3.59237 24.0338
3.637 107.135
3.68164 68.7273
3.7263 26.5224
3.77094 25.991
3.81558 26.4392
3.86022 27.1067
3.90486 28.7166
3.9495 29.6731
3.99416 30.7766
4.0388 32.151
4.08344 33.633
4.12809 34.8009
4.17273 36.8907
4.21738 43.5239
4.26204 296.852
4.30669 264.922
4.35133 49.4183
4.39598 44.0201
4.44063 55.3995
4.4853 70.0304
4.52995 49.692
4.5746 50.308
4.61925 52.105
4.6639 54.1876
4.70855 57.0418
4.75322 60.1145
4.79788 62.3807
4.84253 65.7495
4.88719 69.416
4.93184 73.0298
4.97652 77.8263
5.02118 83.4268
5.06583 90.1572
5.11049 99.9993
5.15515 172.007
5.19981 267.954
5.24449 2172.65
5.28916 13383.9
5.33382 2776.51
5.37848 173.664
5.42315 123.443
5.46783 109.522
5.5125 102.587
5.55716 98.929
5.60183 96.2137
5.6465 94.7434
5.69117 91.6493
5.73586 89.4216
5.78053 88.6004
5.8252 87.6561
5.86988 88.5146
5.91455 89.9653
5.95924 94.3585
6.00392 160.856
6.0486 740.299
6.09328 4562.67
6.13795 3300.79
6.18263 213.001
6.22733 89.7075
6.27201 81.4417
6.3167 106.715
6.36138 81.7837
6.40606 67.7485
6.45075 65.9898
6.49545 64.5816
6.54014 62.9301
6.58483 61.9348
6.62952 61.9036
6.67421 99.5648
6.71892 163.875
6.76361 71.016
6.8083 58.3464
6.853 57.1933
6.89769 56.2717
6.94239 55.8727
6.98711 55.3161
7.03181 54.9399
7.07651 54.7649
7.12121 54.5551
7.16591 55.1751
7.21063 55.0796
7.25533 72.4701
7.30004 207.147
7.34475 102.069
7.38945 56.7066
7.43416 54.1868
7.47889 53.7761
7.5236 54.2153
7.56831 54.6779
7.61303 56.5469
7.65774 57.146
7.70247 55.1648
7.74719 55.3767
7.79191 55.8232
7.83663 55.7741
7.88135 56.8529
7.92607 57.9509
7.97081 58.8663
8.01553 59.6243
8.06026 61.2974
8.10498 62.9114
8.14971 73.5378
8.19446 72.7268
8.23919 68.1397
8.28392 70.1271
8.32865 72.2024
8.37339 76.2025
8.41812 83.1336
8.46288 114.797
8.50761 138.531
8.55235 307.175
8.59709 1081.11
8.64183 2376.75
8.68658 962.692
8.73134 161.979
8.77609 96.7112
8.82083 90.2976
8.86558 87.5825
8.91033 88.387
8.9551 91.716
8.99985 83.7334
9.04461 81.7708
9.08936 80.9122
9.13412 80.135
9.17888 80.5227
9.22365 81.0022
9.26841 80.4295
9.31318 80.4219
9.35794 81.1085
9.4027 81.1177
9.44749 82.3409
9.49226 82.8371
9.53703 83.6503
9.5818 85.4437
9.62657 90.9581
9.67134 98.5267
9.71614 92.1329
9.76091 91.6512
9.80569 93.6599
9.85047 97.1069
9.89525 125.241
9.94005 137.702
9.98484 149.887
10.0296 278.106
10.0744 715.803
10.1192 1758.31
10.164 1574.63
10.2088 370.824
10.2536 123.371
10.2984 111.77
10.3432 114.44
10.388 102.029
10.4328 108.392
10.4776 141.839
10.5224 260.224
10.5672 523.937
10.612 514.859
10.6568 197.339
10.7017 94.476
10.7465 84.7307
10.7913 81.4888
10.8361 79.2421
10.8809 77.5153
10.9257 77.3594
10.9706 78.4214
11.0154 73.7486
11.0602 71.6634
11.105 70.5005
11.1499 76.2764
11.1947 86.0597
11.2395 74.8071
11.2844 69.8998
11.3292 65.815
11.374 64.6873
11.4189 64.3131
11.4637 63.9861
11.5086 64.5819
11.5534 68.3538
11.5983 64.7897
11.6431 62.602
11.688 61.694
11.7328 61.8475
11.7777 61.8284
11.8225 61.3314
11.8674 61.2735
11.9122 61.4697
11.9571 61.3734
12.002 61.6471
12.0468 64.5308
12.0917 74.0126
12.1366 96.6764
12.1814 148.183
12.2263 203.623
12.2712 163.473
12.3161 95.2848
12.3609 70.5194
12.4058 63.5635
12.4507 63.0841
12.4956 63.1298
12.5405 63.2083
12.5853 64.4382
12.6302 73.5664
12.6751 80.8333
12.72 69.6387
12.7649 66.6829
12.8098 66.7711
12.8547 68.1
12.8996 69.2378
12.9445 70.3931
12.9894 72.0696
13.0343 73.8052
13.0792 76.4691
13.1242 82.4853
13.1691 101.99
13.214 133.416
13.2589 219.99
13.3038 371.445
13.3487 435.966
13.3937 259.144
13.4386 121.464
13.4835 98.6908
13.5285 110.11
13.5734 143.939
13.6183 234.917
13.6633 355.486
13.7082 339.21
13.7531 180.225
13.7981 94.6857
13.843 79.9243
13.888 77.9187
13.9329 75.2748
13.9779 74.1463
14.0228 72.7122
14.0678 71.2553
14.1127 71.3772
14.1577 71.307
14.2027 70.0774
14.2476 68.933
14.2926 68.8469
14.3376 70.6996
14.3825 69.1259
14.4275 67.2145
14.4725 67.2265
14.5175 67.228
14.5624 67.5376
14.6074 70.1551
14.6524 70.6145
14.6974 68.5693
14.7424 69.5359
14.7874 74.0677
14.8324 82.5001
14.8774 101.741
14.9224 145.188
14.9674 209.123
15.0124 219.234
15.0574 151.293
15.1024 89.7025
15.1474 70.8799
15.1924 69.1933
15.2374 70.393
15.2824 69.3316
15.3274 66.7579
15.3725 65.5714
15.4175 64.9525
15.4625 64.8269
15.5076 65.125
15.5526 64.9299
15.5976 64.0335
15.6426 64.4145
15.6877 68.4015
15.7327 74.5665
15.7778 88.038
15.8228 117.792
15.8679 169.604
15.9129 197.967
15.958 155.475
16.003 94.8096
16.0481 67.1816
16.0931 63.9689
16.1382 61.854
16.1833 59.4325
16.2283 57.8363
16.2734 57.3837
16.3185 57.8127
16.3636 58.7675
16.4086 57.117
16.4537 55.2478
16.4988 54.4311
16.5439 54.3948
16.589 54.1359
16.6341 53.7433
16.6792 53.506
16.7243 53.6529
16.7694 53.95
16.8145 53.7357
16.8596 54.2412
16.9047 55.9787
16.9498 56.2701
16.9949 54.7387
17.04 54.4351
17.0851 55.273
17.1302 56.6314
17.1754 59.3988
17.2205 64.2614
17.2656 72.7207
17.3108 82.0603
17.3559 80.6881
17.401 69.1086
17.4462 60.6568
17.4913 57.8253
17.5365 57.6631
17.5815 57.742
17.6268 58.1813
17.6718 58.9413
17.7171 59.6292
17.7622 59.7294
17.8074 60.2812
17.8525 61.6971
17.8977 64.9964
17.9428 69.9421
17.9881 77.8729
18.0331 95.2759
18.0784 120.452
18.1237 139.665
18.1688 128.223
18.214 99.896
18.2591 83.3279
18.3044 87.5483
18.3495 99.9371
18.3948 106.78
18.4399 95.0286
18.4852 76.1398
18.5303 64.5343
18.5756 60.9857
18.6207 59.8731
18.666 59.1924
18.7112 58.5878
18.7565 57.6637
18.8016 57.4809
18.8469 56.7242
18.892 56.41
18.9374 55.8766
18.9825 55.7392
19.0278 55.5879
19.073 55.786
19.1183 55.8252
19.1635 56.7548
19.2088 57.8361
19.254 60.0001
19.2993 64.8414
19.3447 71.768
19.3898 75.8409
19.4352 71.2594
19.4804 61.7765
19.5257 55.5781
19.5709 53.1186
19.6163 52.4998
19.6615 52.4586
19.7068 52.1372
19.752 52.3202
19.7974 52.3076
19.8426 53.0957
19.888 53.5793
19.9332 54.6189
19.9786 57.0249
20.0238 60.7561
20.0692 66.0736
20.1144 68.9736
20.1598 66.4723
20.205 61.9963
20.2504 60.5588
20.2957 62.8704
20.3411 65.1939
20.3863 63.1452
20.4318 57.404
20.477 52.4475
20.5224 50.7928
20.5677 50.147
20.6131 49.2874
20.6586 48.7561
20.7038 48.4652
20.7493 48.0851
20.7945 47.9826
20.84 47.5848
20.8853 47.6314
20.9307 47.4204
20.976 47.591
21.0215 47.4404
21.0668 48.0048
21.1122 48.2917
21.1575 49.0226
21.203 49.8333
21.2483 50.7015
21.2938 50.5306
21.3391 49.0318
21.3846 47.9567
21.4299 47.4561
21.4754 47.348
21.5207 47.4459
21.5662 47.5598
21.6116 47.8322
21.6571 48.5359
21.7024 49.4155
21.7479 50.9706
21.7933 53.4009
21.8388 57.7046
21.8843 61.6924
21.9297 63.7546
21.9752 61.9809
22.0206 58.2161
22.0661 55.4619
22.1115 55.297
22.157 55.1199
22.2024 53.1365
22.248 50.3449
22.2933 48.7302
22.3389 48.1015
22.3843 48.144
22.4299 47.92
22.4753 47.8062
22.5208 47.6353
22.5662 47.7111
22.6118 47.4851
22.6572 47.619
22.7028 47.8853
22.7483 48.2978
22.7939 49.0205
22.8393 50.4365
22.8849 52.6031
22.9303 55.2278
22.9759 57.1082
23.0214 56.4884
23.067 53.5163
23.1126 49.8736
23.1581 48.1023
23.2037 47.823
23.2492 47.7195
23.2948 47.586
23.3403 47.7003
23.3859 48.3814
23.4314 49.3731
23.477 51.2179
23.5225 53.8028
23.5682 56.4162
23.6137 57.2708
23.6593 54.71
23.7048 50.6836
23.7505 47.4236
23.796 45.5375
23.8417 45.081
23.8872 44.6711
23.9329 44.2442
23.9784 44.0107
24.0241 43.6963
24.0697 43.5963
24.1154 43.1329
24.1609 43.244
24.2066 42.9468
24.2522 42.82
24.2979 42.5156
24.3434 42.4219
24.3892 42.306
24.4349 42.2872
24.4805 42.1326
24.5262 42.1085
24.5718 42.0916
24.6175 42.0352
24.6631 41.926
24.7089 41.6246
24.7545 41.4561
24.8002 41.4146
24.8458 41.3427
24.8916 41.2687
24.9372 41.2798
24.983 41.4686
25.0286 41.8392
25.0744 42.3155
25.12 42.7641
25.1658 43.4191
25.2114 43.7218
25.2572 43.9443
25.3029 43.9618
25.3487 44.2403
25.3943 43.7338
25.4402 42.6731
25.4858 41.6208
25.5316 40.7703
25.5773 40.155
25.6231 40.106
25.669 39.6588
25.7147 39.6913
25.7605 39.7034
25.8062 39.7203
25.8521 39.8097
25.8977 39.69
25.9436 39.9794
25.9893 40.0547
26.0352 40.6489
26.0809 40.8602
26.1268 40.9787
26.1725 40.5575
26.2184 40.0276
26.2641 39.4422
26.31 39.2067
26.3557 39.3994
26.4017 39.2543
26.4474 39.5849
26.4933 39.7904
26.5391 40.3003
26.585 40.9418
26.6308 41.2924
26.6767 41.3916
26.7225 41.1756
26.7684 40.6529
26.8142 40.0829
26.8601 39.6139
26.9059 39.2654
26.9519 38.7275
26.9979 38.4244
27.0437 38.1002
27.0896 37.9715
27.1354 38.0135
27.1814 37.8752
27.2272 37.5897
27.2732 37.7009
27.3191 37.4762
27.3651 37.6807
27.4109 37.5856
27.4569 37.7647
27.5027 37.7632
27.5488 37.8446
27.5946 37.6267
27.6407 37.4754
27.6865 37.4079
27.7326 36.9586
27.7784 37.1338
27.8245 36.902
27.8703 37.2005
27.9164 37.4389
27.9623 37.5946
28.0084 37.9406
28.0543 38.4121
28.1003 38.2234
28.1462 38.015
28.1923 37.7768
28.2384 37.2094
28.2843 36.912
28.3304 36.4532
28.3764 36.0087
28.4225 35.7417
28.4684 35.593
28.5145 35.3148
28.5605 35.1549
28.6066 35.0431
28.6526 34.9734
28.6987 34.8572
28.7447 34.7874
28.7908 34.8096
28.8368 34.7881
28.8829 34.8257
28.9289 34.6232
28.9751 34.5189
29.0211 34.306
29.0673 34.0159
29.1133 33.8091
29.1595 33.7114
29.2055 33.7273
29.2517 33.6008
29.2977 33.6459
29.3439 33.6491
29.3899 33.5541
29.4361 33.4686
29.4824 33.4072
29.5284 33.1497
29.5746 32.848
29.6207 32.4485
29.6669 32.5731
29.713 32.3589
29.7593 32.211
29.8053 32.2581
29.8516 32.1276
29.8977 32.1606
29.9439 31.9703
29.99 31.9617
30.0363 31.8043
30.0824 31.8868
30.1287 31.7773
30.1748 31.8757
30.2211 31.8251
30.2673 31.6112
30.3136 31.6645
30.3597 31.5707
30.406 31.6216
30.4522 31.4639
30.4985 31.3507
30.5447 31.4918
30.591 31.5002
30.6372 31.5483
30.6835 31.4981
30.7297 31.6831
30.7761 31.4926
30.8224 31.3602
30.8686 31.2584
30.915 31.003
30.9612 30.8399
31.0076 30.7644
31.0538 30.5053
31.1002 30.5069
31.1464 30.3334
31.1928 30.3135
31.2391 30.2492
31.2855 30.3418
31.3317 30.1787
31.3781 30.3521
31.4244 30.2619
31.4708 30.2331
31.5171 30.1215
31.5636 30.1719
31.6098 29.9634
31.6563 29.8037
31.7026 29.5874
31.7491 29.5355
31.7953 29.5424
31.8418 29.5752
31.8881 29.6066
31.9346 29.5713
31.9809 29.5008
32.0275 29.3613
32.074 29.2305
32.1203 28.9735
32.1668 29.0266
32.2132 28.7551
32.2597 28.6959
32.306 28.6851
32.3526 28.3994
32.399 28.2725
32.4455 28.2584
32.4919 28.1058
32.5385 28.0608
32.5848 27.8834
32.6314 27.9779
32.6778 27.8217
32.7244 27.7304
32.7708 27.6414
32.8174 27.5968
32.8638 27.4457
32.9104 27.5012
32.9569 27.5012
33.0035 27.266
33.0499 27.3439
33.0966 27.239
33.143 27.1172
33.1897 27.2019
33.2361 27.0483
33.2828 27.1583
33.3293 26.9813
33.3759 26.8377
33.4226 26.7378
33.4691 26.6069
33.5158 26.3843
33.5623 26.3383
33.609 26.2344
33.6555 26.1356
33.7022 26.16
33.7487 26.0387
33.7954 25.9912
33.842 25.9396
33.8887 25.81
33.9353 25.7987
33.982 25.6623
34.0286 25.5717
34.0753 25.5603
34.1219 25.4234
34.1687 25.3928
34.2152 25.2796
34.262 25.2765
34.3086 25.0383
34.3554 24.9876
34.402 24.8869
34.4488 24.8228
34.4954 24.8044
34.5422 24.6894
34.5889 24.6907
34.6357 24.5413
34.6825 24.4025
34.7292 24.3507
34.776 24.2332
34.8227 24.2704
34.8695 24.2319
34.9162 24.1213
34.9631 23.9287
35.0098 24.0337
35.0566 23.8359
35.1033 23.8714
35.1502 23.7292
35.1969 23.7917
35.2438 23.7668
35.2906 23.5791
35.3375 23.5818
35.3842 23.5666
35.4311 23.6504
35.4779 23.4333
35.5248 23.4331
35.5716 23.3296
35.6185 23.2647
35.6653 23.1722
35.7123 23.121
35.759 23.0805
35.806 22.8674
35.8528 22.8459
35.8998 22.7676
35.9468 22.7593
35.9936 22.6804
36.0406 22.5622
36.0874 22.576
36.1345 22.4905
36.1813 22.4478
36.2283 22.28
36.2752 22.2403
36.3222 22.3002
36.3691 22.1785
36.4161 22.0121
36.463 22.007
36.5101 22.0141
36.557 21.9708
36.6041 21.7931
36.651 21.6924
36.6981 21.6925
36.745 21.5969
36.7921 21.5844
36.839 21.4937
36.8861 21.4143
36.9331 21.4104
36.9802 21.2965
37.0272 21.1818
37.0743 21.1027
37.1213 21.0583
37.1684 20.994
37.2154 20.9159
37.2626 20.9245
37.3098 20.7999
37.3568 20.7003
37.404 20.7181
37.451 20.593
37.4982 20.5777
37.5452 20.517
37.5924 20.4676
37.6395 20.435
37.6867 20.3107
37.7337 20.184
37.781 20.1258
37.8281 20.0534
37.8753 20.0489
37.9224 19.9673
37.9697 19.9213
38.0168 19.8144
38.064 19.7928
38.1111 19.7452
38.1584 19.627
38.2056 19.5616
38.2529 19.5591
38.3 19.4248
38.3473 19.5085
38.3945 19.3446
38.4418 19.3032
38.489 19.2393
38.5363 19.1507
38.5837 19.0652
38.6309 19.02
38.6782 18.9551
38.7254 18.8395
38.7728 18.877
38.82 18.7946
38.8674 18.752
38.9146 18.6662
38.9621 18.6539
39.0093 18.5665
39.0567 18.5421
39.104 18.449
39.1514 18.3565
39.1987 18.3217
39.2461 18.3217
39.2934 18.2138
39.3409 18.1877
39.3882 18.0765
39.4356 17.9916
39.483 17.9644
39.5304 17.8953
39.5778 17.8696
39.6253 17.7838
39.6726 17.7974
39.7201 17.721
39.7675 17.6964
39.815 17.6339
39.8624 17.5308
39.9099 17.4852
39.9575 17.4398
40.0049 17.3877
40.0525 17.3496
40.0999 17.254
40.1474 17.2082
40.1949 17.124
40.2425 17.027
40.2899 17.0583
40.3375 17.0202
40.385 16.9799
40.4326 16.8945
40.48 16.8219
40.5277 16.8665
40.5752 16.7591
40.6228 16.6285
40.6703 16.6092
40.718 16.551
40.7655 16.5098
40.8132 16.4366
40.8607 16.4484
40.9084 16.4143
40.9559 16.3534
41.0036 16.2684
41.0512 16.1609
41.0989 16.1263
41.1465 16.0929
41.1942 16.1061
41.242 15.9566
41.2896 15.9647
41.3373 15.9269
41.3849 15.7758
41.4327 15.7779
41.4803 15.7111
41.5281 15.6466
41.5758 15.5508
41.6236 15.486
41.6712 15.504
41.7191 15.4786
41.7667 15.3833
41.8146 15.3679
41.8622 15.3378
41.9101 15.2914
41.9578 15.1639
42.0057 15.1391
42.0534 15.1025
42.1013 15.0844
42.149 14.9753
42.1969 14.9864
42.2446 14.92
42.2925 14.8221
42.3403 14.7527
42.3882 14.7891
42.436 14.706
42.4839 14.6636
42.5319 14.6259
42.5797 14.5496
42.6277 14.5163
42.6755 14.5143
42.7235 14.3931
42.7713 14.3716
42.8193 14.2871
42.8671 14.2604
42.9152 14.2218
42.963 14.1674
43.0111 14.0851
43.0589 14.0805
43.107 14.0546
43.1549 13.9849
43.2029 13.9173
43.2508 13.9173
43.2989 13.8151
43.3468 13.7877
43.3949 13.7767
43.4429 13.7058
43.491 13.653
43.5389 13.5629
43.5871 13.5578
43.635 13.4889
43.6832 13.4674
43.7312 13.4256
43.7793 13.3548
43.8273 13.2935
43.8755 13.2406
43.9237 13.2466
43.9717 13.184
44.0199 13.1493
44.068 13.0741
44.1162 13.0219
44.1642 13.0309
44.2125 12.9715
44.2606 12.9063
44.3088 12.8233
44.3569 12.848
44.4052 12.768
44.4533 12.7172
44.5016 12.6169
44.5497 12.6389
44.598 12.6141
44.6461 12.572
44.6945 12.5067
44.7426 12.4752
44.791 12.3756
44.8391 12.3899
44.8875 12.3727
44.9357 12.3693
44.984 12.2245
45.0322 12.194
45.0806 12.1676
45.1288 12.1189
45.1773 12.0456
45.2257 12.0071
45.2739 11.951
45.3224 11.953
45.3706 11.9066
45.4191 11.8713
45.4673 11.8153
45.5158 11.8154
45.5641 11.7261
45.6126 11.7245
45.6609 11.6956
45.7094 11.6145
45.7577 11.5559
45.8063 11.5032
45.8546 11.5035
45.9031 11.4697
45.9515 11.4043
46.0001 11.3889
46.0484 11.3254
46.097 11.3
46.1454 11.1881
46.194 11.2359
46.2424 11.1633
46.291 11.1128
46.3395 11.0565
46.3881 11.056
46.4365 11.0218
46.4852 10.9863
46.5337 10.9207
46.5823 10.929
46.631 10.8373
46.6795 10.8082
46.7282 10.8121
46.7767 10.7488
46.8254 10.7238
46.8739 10.6226
46.9226 10.5681
46.9712 10.6049
47.0199 10.5072
47.0685 10.4886
47.1173 10.4421
47.1658 10.4259
47.2146 10.4008
47.2632 10.3216
47.312 10.3112
47.3606 10.2315
47.4095 10.2277
47.4581 10.1607
47.5069 10.1508
47.5556 10.0936
47.6044 10.0796
47.6531 10.029
47.702 9.95365
47.7507 9.98073
47.7996 9.87285
47.8483 9.88619
47.8972 9.86228
47.9461 9.798
47.9948 9.78089
48.0438 9.74522
48.0925 9.7043
48.1415 9.67612
48.1902 9.5998
48.2392 9.64137
48.288 9.57148
48.337 9.55914
48.3858 9.5049
48.4348 9.46097
48.4837 9.46569
48.5327 9.38054
48.5815 9.40421
48.6306 9.35113
48.6795 9.31593
48.7285 9.2667
48.7774 9.26678
48.8265 9.18842
48.8754 9.15365
48.9245 9.10002
48.9734 9.10176
49.0226 9.07434
49.0715 9.00238
49.1206 8.98686
49.1696 8.95206
49.2188 8.92426
49.2679 8.88297
49.3169 8.8392
49.3661 8.81234
49.4151 8.77209
49.4643 8.74094
49.5134 8.72999
49.5626 8.65441
49.6117 8.6612
49.6609 8.62173
49.71 8.57058
49.7592 8.54379
49.8083 8.52887
49.8576 8.49046
49.9067 8.45863
49.956 8.429
50.0052 8.40466
50.0545 8.36894
50.1036 8.31878
50.153 8.27771
50.2022 8.29963
50.2515 8.2098
50.3007 8.19426
50.3501 8.15262
50.3993 8.14208
50.4487 8.12025
50.498 8.09722
50.5474 8.02988
50.5966 7.98972
50.6461 7.99918
50.6955 7.94136
50.7448 7.92105
50.7943 7.8508
50.8436 7.83647
50.8931 7.83907
50.9424 7.80287
50.9919 7.77318
51.0413 7.78745
51.0908 7.69407
51.1402 7.68072
51.1897 7.6106
51.2391 7.65063
51.2887 7.57276
51.3381 7.55223
51.3877 7.53167
51.4371 7.48988
51.4867 7.45126
51.5362 7.42032
51.5858 7.40512
51.6353 7.34482
51.6849 7.31844
51.7344 7.30499
51.7841 7.27066
51.8336 7.26504
51.8833 7.24056
51.9328 7.19319
51.9826 7.15434
52.0323 7.12835
52.0818 7.08482
52.1316 7.05446
52.1812 7.05895
52.231 7.00625
52.2806 6.97202
52.3304 6.95921
52.38 6.91258
52.4298 6.89978
52.4794 6.90079
52.5293 6.82708
52.5789 6.78369
52.6288 6.77208
52.6785 6.75017
52.7284 6.72626
52.7781 6.69295
52.828 6.66343
52.8777 6.5983
52.9276 6.58318
52.9774 6.61982
53.0273 6.56854
53.0771 6.5238
53.1271 6.53729
53.1769 6.48818
53.2269 6.44594
53.2767 6.45239
53.3267 6.39454
53.3765 6.33502
53.4266 6.33365
53.4766 6.34546
53.5265 6.29861
53.5765 6.27448
53.6264 6.25847
53.6765 6.23409
53.7264 6.17919
53.7765 6.16473
53.8265 6.10434
53.8766 6.08323
53.9266 6.0907
53.9767 6.05516
54.0267 6.03571
54.0769 5.99516
54.1269 5.98653
54.1771 5.9351
54.2271 5.90206
54.2773 5.88691
54.3274 5.84173
54.3776 5.80494
54.4277 5.77698
54.478 5.78026
54.528 5.66707
54.5783 5.66815
54.6285 5.6339
54.6788 5.60001
54.7289 5.53767
54.7792 5.51956
54.8296 5.49065
54.8798 5.39899
54.9301 5.36994
54.9803 5.37225
55.0307 5.34009
55.0809 5.21848
55.1314 5.27034
55.1816 5.2029
55.232 5.16653
55.2823 5.14304
55.3328 5.04962
55.383 5.04683
55.4335 4.95585
55.4838 4.91592
55.5344 4.88613
55.5847 4.82814
55.6352 4.84541
55.6856 4.74584
55.7361 4.76347