File: XRD/Ni3Fe_FD0772.xy
TT I
1.27165 7.45684
1.31627 7.21305
1.36089 6.713
1.40551 5.86194
1.45013 5.76252
1.49476 6.08857
1.53938 5.89796
1.584 5.75159
1.62863 5.27742
1.67325 5.19624
1.71787 5.57626
1.7625 4.54037
1.80712 4.96709
1.85174 4.78705
1.89636 5.16069
1.94099 4.88935
1.98562 4.83663
2.03025 4.70034
2.07487 4.82752
2.11949 5.20288
2.16411 4.3428
2.20874 17.197
2.25338 29.6073
2.298 6.55141
2.34263 5.72536
2.38725 6.31849
2.43188 6.08861
2.4765 6.80937
2.52115 7.50746
2.56577 8.69867
2.6104 8.0786
2.65503 7.80655
2.69965 8.36616
2.7443 7.70074
2.78893 7.86672
2.83356 8.39439
2.87818 8.84735
2.92281 9.18892
2.96744 9.58604
3.01209 10.8971
3.05672 11.3408
3.10135 12.527
3.14599 12.9384
3.19062 14.7554
3.23527 15.3296
3.2799 15.9484
3.32454 16.5348
3.36917 17.419
3.4138 19.4281
3.45844 19.9511
3.50309 20.9273
3.54773 21.9656
3.59237 24.2477
3.637 115.93
3.68164 72.0778
3.7263 26.5659
3.77094 26.2503
3.81558 26.7565
3.86022 27.9346
3.90486 28.7004
3.9495 29.9789
3.99416 31.1311
4.0388 32.1471
4.08344 34.2009
4.12809 35.4032
4.17273 37.2342
4.21738 44.5802
4.26204 313.606
4.30669 284.251
4.35133 50.7382
4.39598 44.5497
4.44063 56.2801
4.4853 71.8138
4.52995 50.1934
4.5746 50.6848
4.61925 53.0016
4.6639 54.778
4.70855 57.8324
4.75322 60.4567
4.79788 62.8778
4.84253 66.4141
4.88719 70.6833
4.93184 74.0289
4.97652 79.0359
5.02118 85.0004
5.06583 91.9145
5.11049 102.659
5.15515 182.197
5.19981 301.33
5.24449 2378.69
5.28916 12839.9
5.33382 3099.69
5.37848 189.018
5.42315 128.008
5.46783 112.344
5.5125 104.479
5.55716 100.995
5.60183 97.5646
5.6465 95.4219
5.69117 92.767
5.73586 90.9297
5.78053 89.9552
5.8252 88.9749
5.86988 89.7215
5.91455 91.4633
5.95924 97.6653
6.00392 176.657
6.0486 815.671
6.09328 4179.92
6.13795 3343.77
6.18263 244.032
6.22733 92.7932
6.27201 83.3622
6.3167 110.96
6.36138 83.7812
6.40606 68.6721
6.45075 66.778
6.49545 65.2999
6.54014 63.7943
6.58483 62.6117
6.62952 62.9551
6.67421 102.59
6.71892 173.805
6.76361 72.6447
6.8083 59.0014
6.853 57.4062
6.89769 57.1098
6.94239 56.5786
6.98711 56.1236
7.03181 55.5916
7.07651 55.4915
7.12121 55.2444
7.16591 55.6892
7.21063 55.8778
7.25533 73.9395
7.30004 224.14
7.34475 105.343
7.38945 57.456
7.43416 54.601
7.47889 54.3514
7.5236 54.7708
7.56831 55.2721
7.61303 57.5983
7.65774 57.9047
7.70247 56.2504
7.74719 56.15
7.79191 56.2029
7.83663 56.7241
7.88135 57.6217
7.92607 58.28
7.97081 59.2469
8.01553 60.9213
8.06026 61.5729
8.10498 64.024
8.14971 75.1577
8.19446 73.7392
8.23919 68.9523
8.28392 71.1632
8.32865 73.4135
8.37339 77.2352
8.41812 84.4069
8.46288 118.871
8.50761 149.578
8.55235 337.197
8.59709 1078.1
8.64183 2197.37
8.68658 1045.75
8.73134 171.621
8.77609 99.1337
8.82083 91.6431
8.86558 88.8829
8.91033 89.9786
8.9551 93.2763
8.99985 85.0944
9.04461 82.673
9.08936 82.1599
9.13412 80.9177
9.17888 81.2581
9.22365 82.6201
9.26841 81.1855
9.31318 81.4143
9.35794 81.7256
9.4027 82.4577
9.44749 83.2
9.49226 83.6906
9.53703 84.7473
9.5818 86.3949
9.62657 91.7409
9.67134 100.363
9.71614 93.5726
9.76091 92.8259
9.80569 95.0087
9.85047 98.9359
9.89525 128.168
9.94005 142.778
9.98484 158.392
10.0296 297.302
10.0744 732.613
10.1192 1700.7
10.164 1661.09
10.2088 410.322
10.2536 126.999
10.2984 113.898
10.3432 117.53
10.388 103.908
10.4328 112.063
10.4776 148.27
10.5224 261.155
10.5672 514.88
10.612 524.377
10.6568 210.66
10.7017 96.9579
10.7465 86.096
10.7913 82.3068
10.8361 80.6621
10.8809 78.5695
10.9257 78.2432
10.9706 79.7113
11.0154 74.7107
11.0602 72.2591
11.105 71.4879
11.1499 77.6345
11.1947 88.3416
11.2395 76.4595
11.2844 70.8967
11.3292 67.1015
11.374 65.8686
11.4189 65.2521
11.4637 64.3427
11.5086 65.2836
11.5534 69.5435
11.5983 66.2819
11.6431 63.3889
11.688 62.5026
11.7328 62.7866
11.7777 62.7824
11.8225 61.8881
11.8674 62.0327
11.9122 62.6226
11.9571 62.5155
12.002 62.8726
12.0468 65.8651
12.0917 75.695
12.1366 97.7177
12.1814 145.387
12.2263 210.653
12.2712 176.615
12.3161 102.069
12.3609 72.2047
12.4058 64.5529
12.4507 64.0305
12.4956 64.1007
12.5405 64.0479
12.5853 65.1841
12.6302 74.9056
12.6751 83.0251
12.72 70.7403
12.7649 67.5245
12.8098 67.6106
12.8547 69.0486
12.8996 70.2265
12.9445 71.3149
12.9894 73.1078
13.0343 74.7049
13.0792 77.489
13.1242 84.3821
13.1691 105.7
13.214 138.475
13.2589 222.326
13.3038 360.055
13.3487 437.995
13.3937 282.206
13.4386 127.392
13.4835 101.983
13.5285 113.404
13.5734 147.397
13.6183 232.701
13.6633 344.018
13.7082 348.653
13.7531 192.113
13.7981 98.7583
13.843 81.4674
13.888 79.0279
13.9329 76.3724
13.9779 75.3565
14.0228 73.8063
14.0678 72.3363
14.1127 72.2094
14.1577 72.416
14.2027 71.2205
14.2476 69.704
14.2926 70.2233
14.3376 71.7227
14.3825 70.0838
14.4275 68.4818
14.4725 67.9733
14.5175 68.4928
14.5624 68.3177
14.6074 71.2569
14.6524 71.8211
14.6974 69.7661
14.7424 70.3454
14.7874 75.7863
14.8324 84.8166
14.8774 104.46
14.9224 145.012
14.9674 202.711
15.0124 221.489
15.0574 152.477
15.1024 92.243
15.1474 72.4
15.1924 70.0082
15.2374 71.2349
15.2824 70.7385
15.3274 68.0307
15.3725 66.5352
15.4175 65.9285
15.4625 65.4798
15.5076 65.8514
15.5526 65.8525
15.5976 65.2398
15.6426 65.6954
15.6877 69.9044
15.7327 76.5712
15.7778 90.1594
15.8228 119.927
15.8679 163.699
15.9129 193.78
15.958 160.677
16.003 98.7277
16.0481 68.7283
16.0931 65.139
16.1382 63.1066
16.1833 60.5328
16.2283 58.7376
16.2734 58.2743
16.3185 58.5129
16.3636 59.9777
16.4086 58.1748
16.4537 56.2759
16.4988 55.174
16.5439 55.048
16.589 54.7283
16.6341 54.4597
16.6792 54.2257
16.7243 54.4124
16.7694 54.571
16.8145 54.4651
16.8596 55.109
16.9047 57.0555
16.9498 57.458
16.9949 55.5307
17.04 55.2761
17.0851 56.352
17.1302 57.9127
17.1754 60.6105
17.2205 65.5117
17.2656 73.0054
17.3108 82.296
17.3559 82.8514
17.401 70.9901
17.4462 61.7649
17.4913 58.7402
17.5365 58.6886
17.5815 58.8217
17.6268 59.0585
17.6718 59.7475
17.7171 60.6294
17.7622 60.6999
17.8074 61.1931
17.8525 62.7758
17.8977 66.8144
17.9428 71.5577
17.9881 79.7247
18.0331 95.4456
18.0784 118.181
18.1237 138.792
18.1688 132.893
18.214 104.316
18.2591 85.6884
18.3044 88.4039
18.3495 98.6094
18.3948 106.528
18.4399 97.5226
18.4852 78.688
18.5303 66.188
18.5756 61.8304
18.6207 60.8984
18.666 60.1185
18.7112 59.2769
18.7565 58.5897
18.8016 58.093
18.8469 57.4424
18.892 57.3143
18.9374 56.6565
18.9825 56.6122
19.0278 56.6352
19.073 56.4065
19.1183 56.7769
19.1635 57.877
19.2088 58.8742
19.254 60.8729
19.2993 65.1419
19.3447 71.9777
19.3898 76.7123
19.4352 72.7963
19.4804 63.4437
19.5257 56.6756
19.5709 53.8585
19.6163 53.4717
19.6615 53.2002
19.7068 52.8849
19.752 53.0023
19.7974 53.0234
19.8426 53.8099
19.888 54.5933
19.9332 55.3802
19.9786 57.8712
20.0238 61.1418
20.0692 66.128
20.1144 69.4175
20.1598 68.2647
20.205 62.9864
20.2504 61.3644
20.2957 62.982
20.3411 65.4957
20.3863 64.6419
20.4318 58.7344
20.477 53.6958
20.5224 51.6094
20.5677 50.7852
20.6131 50.0698
20.6586 49.3832
20.7038 49.2287
20.7493 48.8233
20.7945 48.5473
20.84 48.5065
20.8853 48.2613
20.9307 48.3196
20.976 48.3742
21.0215 48.2565
21.0668 48.5831
21.1122 48.9417
21.1575 49.5933
21.203 50.3894
21.2483 51.0729
21.2938 51.0278
21.3391 49.8548
21.3846 48.7936
21.4299 48.1807
21.4754 48.0739
21.5207 48.1018
21.5662 48.3597
21.6116 48.5905
21.6571 49.2787
21.7024 50.0905
21.7479 51.7419
21.7933 54.3163
21.8388 57.9533
21.8843 61.8173
21.9297 64.2849
21.9752 63.3103
22.0206 59.4856
22.0661 56.4632
22.1115 55.8148
22.157 55.8909
22.2024 53.9764
22.248 51.3691
22.2933 49.6668
22.3389 48.8249
22.3843 48.6488
22.4299 48.6954
22.4753 48.7688
22.5208 48.2175
22.5662 48.1192
22.6118 48.1749
22.6572 48.3914
22.7028 48.6379
22.7483 49.241
22.7939 49.839
22.8393 51.3045
22.8849 53.3117
22.9303 55.6552
22.9759 57.7067
23.0214 57.4198
23.067 54.5756
23.1126 51.1697
23.1581 49.0027
23.2037 48.2747
23.2492 48.455
23.2948 48.4899
23.3403 48.6414
23.3859 49.0912
23.4314 50.0986
23.477 51.9731
23.5225 54.0108
23.5682 56.5743
23.6137 57.8065
23.6593 55.5722
23.7048 51.7272
23.7505 48.2344
23.796 46.3936
23.8417 45.7202
23.8872 45.1923
23.9329 45.0594
23.9784 44.4784
24.0241 44.3853
24.0697 44.1702
24.1154 43.8882
24.1609 43.818
24.2066 43.5607
24.2522 43.324
24.2979 43.2268
24.3434 43.0961
24.3892 42.9934
24.4349 42.796
24.4805 42.6138
24.5262 42.7426
24.5718 42.6631
24.6175 42.6453
24.6631 42.6009
24.7089 42.2133
24.7545 42.117
24.8002 42.0185
24.8458 41.8047
24.8916 41.7112
24.9372 41.8541
24.983 42.0502
25.0286 42.3093
25.0744 42.8417
25.12 43.3035
25.1658 44.1404
25.2114 44.2933
25.2572 44.4969
25.3029 44.5918
25.3487 44.7567
25.3943 44.5024
25.4402 43.4651
25.4858 42.213
25.5316 41.3394
25.5773 40.6526
25.6231 40.5852
25.669 40.4609
25.7147 40.3423
25.7605 40.0697
25.8062 40.3145
25.8521 40.3722
25.8977 40.3747
25.9436 40.5411
25.9893 40.6763
26.0352 41.013
26.0809 41.3311
26.1268 41.4191
26.1725 41.1881
26.2184 40.5506
26.2641 40.0756
26.31 39.8543
26.3557 39.7991
26.4017 39.7846
26.4474 40.0831
26.4933 40.3864
26.5391 40.9393
26.585 41.2828
26.6308 41.7527
26.6767 42.0364
26.7225 41.8464
26.7684 41.2281
26.8142 40.5399
26.8601 40.2443
26.9059 39.8051
26.9519 39.262
26.9979 38.9357
27.0437 38.8009
27.0896 38.5025
27.1354 38.4946
27.1814 38.3685
27.2272 38.1788
27.2732 38.1957
27.3191 38.2704
27.3651 38.1602
27.4109 38.1597
27.4569 38.337
27.5027 38.3072
27.5488 38.407
27.5946 38.185
27.6407 37.7824
27.6865 37.8492
27.7326 37.5569
27.7784 37.5784
27.8245 37.5231
27.8703 37.763
27.9164 37.9902
27.9623 38.1378
28.0084 38.4434
28.0543 38.7883
28.1003 38.7832
28.1462 38.545
28.1923 38.1791
28.2384 37.7641
28.2843 37.4487
28.3304 36.976
28.3764 36.4503
28.4225 36.0502
28.4684 36.0408
28.5145 35.6904
28.5605 35.7314
28.6066 35.5338
28.6526 35.3778
28.6987 35.5415
28.7447 35.2898
28.7908 35.168
28.8368 35.3489
28.8829 35.2491
28.9289 35.1806
28.9751 35.0131
29.0211 34.819
29.0673 34.5724
29.1133 34.3474
29.1595 34.2369
29.2055 34.0755
29.2517 34.1829
29.2977 34.1189
29.3439 34.0438
29.3899 34.0409
29.4361 33.986
29.4824 33.8479
29.5284 33.5765
29.5746 33.2818
29.6207 32.8999
29.6669 32.888
29.713 32.8397
29.7593 32.741
29.8053 32.7498
29.8516 32.682
29.8977 32.6145
29.9439 32.4807
29.99 32.3364
30.0363 32.2872
30.0824 32.4486
30.1287 32.1147
30.1748 32.248
30.2211 32.3365
30.2673 32.1055
30.3136 32.1896
30.3597 32.0447
30.406 31.9731
30.4522 31.841
30.4985 31.7879
30.5447 31.9342
30.591 31.979
30.6372 32.0869
30.6835 31.9977
30.7297 32.0665
30.7761 31.9586
30.8224 31.8158
30.8686 31.691
30.915 31.4607
30.9612 31.3265
31.0076 31.0955
31.0538 31.0453
31.1002 30.944
31.1464 30.7331
31.1928 30.6414
31.2391 30.8877
31.2855 30.6466
31.3317 30.7927
31.3781 30.7552
31.4244 30.7122
31.4708 30.6037
31.5171 30.648
31.5636 30.6435
31.6098 30.3078
31.6563 30.2218
31.7026 30.1304
31.7491 29.8735
31.7953 29.9651
31.8418 29.9879
31.8881 29.9645
31.9346 29.8508
31.9809 29.8571
32.0275 29.7268
32.074 29.5968
32.1203 29.4243
32.1668 29.4671
32.2132 29.1769
32.2597 29.2367
32.306 28.9922
32.3526 28.6499
32.399 28.7499
32.4455 28.5981
32.4919 28.4986
32.5385 28.3697
32.5848 28.3293
32.6314 28.3333
32.6778 28.2674
32.7244 28.2145
32.7708 28.0743
32.8174 28.0009
32.8638 27.7222
32.9104 27.9782
32.9569 27.8596
33.0035 27.7371
33.0499 27.6636
33.0966 27.5838
33.143 27.5706
33.1897 27.5231
33.2361 27.4157
33.2828 27.4721
33.3293 27.2318
33.3759 27.2878
33.4226 27.1495
33.4691 26.999
33.5158 26.9063
33.5623 26.7255
33.609 26.5835
33.6555 26.5555
33.7022 26.5218
33.7487 26.2872
33.7954 26.3576
33.842 26.176
33.8887 26.2013
33.9353 26.1214
33.982 26.0136
34.0286 25.8673
34.0753 25.8187
34.1219 25.7252
34.1687 25.6725
34.2152 25.6216
34.262 25.5184
34.3086 25.3756
34.3554 25.3981
34.402 25.2551
34.4488 25.1746
34.4954 25.1822
34.5422 25.0673
34.5889 24.9458
34.6357 24.8327
34.6825 24.6989
34.7292 24.6902
34.776 24.6504
34.8227 24.6183
34.8695 24.5374
34.9162 24.3874
34.9631 24.3067
35.0098 24.3305
35.0566 24.2153
35.1033 24.1938
35.1502 24.1284
35.1969 24.1363
35.2438 24.0593
35.2906 24.0053
35.3375 23.8847
35.3842 23.7979
35.4311 23.8403
35.4779 23.8973
35.5248 23.7601
35.5716 23.6964
35.6185 23.5878
35.6653 23.507
35.7123 23.4358
35.759 23.3835
35.806 23.2037
35.8528 23.204
35.8998 23.0944
35.9468 22.9825
35.9936 22.9818
36.0406 22.9147
36.0874 22.8794
36.1345 22.8567
36.1813 22.7273
36.2283 22.5779
36.2752 22.6115
36.3222 22.4882
36.3691 22.4439
36.4161 22.3254
36.463 22.3643
36.5101 22.2963
36.557 22.2403
36.6041 22.1357
36.651 22.1025
36.6981 21.9909
36.745 21.8737
36.7921 21.9081
36.839 21.726
36.8861 21.7428
36.9331 21.6599
36.9802 21.5799
37.0272 21.5615
37.0743 21.3581
37.1213 21.3477
37.1684 21.2929
37.2154 21.2371
37.2626 21.2114
37.3098 21.1436
37.3568 20.9823
37.404 20.9826
37.451 20.9029
37.4982 20.8703
37.5452 20.6984
37.5924 20.6692
37.6395 20.7885
37.6867 20.6457
37.7337 20.5023
37.781 20.4637
37.8281 20.3393
37.8753 20.332
37.9224 20.2768
37.9697 20.1657
38.0168 20.0681
38.064 20.0546
38.1111 20.066
38.1584 19.9286
38.2056 19.8542
38.2529 19.7378
38.3 19.7559
38.3473 19.6933
38.3945 19.5504
38.4418 19.5768
38.489 19.5145
38.5363 19.408
38.5837 19.3395
38.6309 19.3404
38.6782 19.2715
38.7254 19.1643
38.7728 19.092
38.82 19.0279
38.8674 18.9956
38.9146 18.9223
38.9621 18.8375
39.0093 18.881
39.0567 18.8469
39.104 18.7423
39.1514 18.6517
39.1987 18.611
39.2461 18.6091
39.2934 18.4511
39.3409 18.3707
39.3882 18.3452
39.4356 18.2572
39.483 18.2198
39.5304 18.1764
39.5778 18.1106
39.6253 18.0562
39.6726 17.9907
39.7201 17.9911
39.7675 17.946
39.815 17.8443
39.8624 17.71
39.9099 17.7667
39.9575 17.6682
40.0049 17.62
40.0525 17.5326
40.0999 17.4909
40.1474 17.4297
40.1949 17.3539
40.2425 17.3854
40.2899 17.3023
40.3375 17.2284
40.385 17.1716
40.4326 17.0668
40.48 17.0458
40.5277 16.9744
40.5752 16.9472
40.6228 16.8482
40.6703 16.8109
40.718 16.7525
40.7655 16.724
40.8132 16.6764
40.8607 16.7064
40.9084 16.6331
40.9559 16.588
41.0036 16.4798
41.0512 16.4483
41.0989 16.3993
41.1465 16.3139
41.1942 16.2971
41.242 16.201
41.2896 16.1181
41.3373 16.15
41.3849 16.0714
41.4327 16.0062
41.4803 15.9275
41.5281 15.9235
41.5758 15.8261
41.6236 15.7882
41.6712 15.6776
41.7191 15.7031
41.7667 15.6474
41.8146 15.5992
41.8622 15.5378
41.9101 15.4877
41.9578 15.3726
42.0057 15.3432
42.0534 15.3298
42.1013 15.2676
42.149 15.2073
42.1969 15.1313
42.2446 15.057
42.2925 15.0775
42.3403 14.9912
42.3882 14.9619
42.436 14.9252
42.4839 14.8206
42.5319 14.7648
42.5797 14.7421
42.6277 14.7458
42.6755 14.6906
42.7235 14.625
42.7713 14.5715
42.8193 14.5038
42.8671 14.4197
42.9152 14.4308
42.963 14.3171
43.0111 14.3062
43.0589 14.2762
43.107 14.2142
43.1549 14.1512
43.2029 14.1071
43.2508 14.1038
43.2989 14.0421
43.3468 13.9432
43.3949 13.9365
43.4429 13.8462
43.491 13.8146
43.5389 13.8356
43.5871 13.721
43.635 13.7108
43.6832 13.6656
43.7312 13.5484
43.7793 13.5686
43.8273 13.4607
43.8755 13.4707
43.9237 13.4084
43.9717 13.3915
44.0199 13.3459
44.068 13.2459
44.1162 13.269
44.1642 13.2136
44.2125 13.1625
44.2606 13.0614
44.3088 13.0859
44.3569 13.0518
44.4052 12.9426
44.4533 12.9073
44.5016 12.8796
44.5497 12.8217
44.598 12.8119
44.6461 12.7759
44.6945 12.6611
44.7426 12.6806
44.791 12.622
44.8391 12.5142
44.8875 12.4889
44.9357 12.4598
44.984 12.4138
45.0322 12.3404
45.0806 12.328
45.1288 12.2961
45.1773 12.2209
45.2257 12.2204
45.2739 12.1422
45.3224 12.1484
45.3706 12.0835
45.4191 11.9907
45.4673 11.9759
45.5158 11.9173
45.5641 11.856
45.6126 11.8481
45.6609 11.7821
45.7094 11.7756
45.7577 11.7316
45.8063 11.6852
45.8546 11.6427
45.9031 11.5851
45.9515 11.5538
46.0001 11.5093
46.0484 11.463
46.097 11.4486
46.1454 11.3921
46.194 11.3483
46.2424 11.3288
46.291 11.2942
46.3395 11.2464
46.3881 11.1478
46.4365 11.1803
46.4852 11.08
46.5337 11.0423
46.5823 11.062
46.631 11.021
46.6795 10.9731
46.7282 10.9456
46.7767 10.8861
46.8254 10.7843
46.8739 10.7947
46.9226 10.7646
46.9712 10.7442
47.0199 10.6473
47.0685 10.6306
47.1173 10.5577
47.1658 10.5404
47.2146 10.4846
47.2632 10.4713
47.312 10.417
47.3606 10.3725
47.4095 10.3596
47.4581 10.3452
47.5069 10.3087
47.5556 10.2585
47.6044 10.2234
47.6531 10.1568
47.702 10.1176
47.7507 10.0925
47.7996 10.0524
47.8483 10.0293
47.8972 9.97577
47.9461 9.97105
47.9948 9.90232
48.0438 9.90572
48.0925 9.8427
48.1415 9.79569
48.1902 9.76131
48.2392 9.78324
48.288 9.69641
48.337 9.64092
48.3858 9.6012
48.4348 9.59731
48.4837 9.58912
48.5327 9.55105
48.5815 9.51476
48.6306 9.47268
48.6795 9.43664
48.7285 9.34071
48.7774 9.3689
48.8265 9.3166
48.8754 9.27275
48.9245 9.25187
48.9734 9.21501
49.0226 9.18487
49.0715 9.16878
49.1206 9.10895
49.1696 9.07729
49.2188 9.05229
49.2679 8.96704
49.3169 8.96511
49.3661 8.93411
49.4151 8.89371
49.4643 8.88995
49.5134 8.85674
49.5626 8.80676
49.6117 8.77317
49.6609 8.7271
49.71 8.68411
49.7592 8.66886
49.8083 8.607
49.8576 8.60714
49.9067 8.58667
49.956 8.57053
50.0052 8.52737
50.0545 8.49802
50.1036 8.42918
50.153 8.39974
50.2022 8.39135
50.2515 8.3794
50.3007 8.3258
50.3501 8.27482
50.3993 8.2623
50.4487 8.25126
50.498 8.18388
50.5474 8.14068
50.5966 8.1268
50.6461 8.12633
50.6955 8.02046
50.7448 8.06711
50.7943 8.00775
50.8436 7.94045
50.8931 7.9419
50.9424 7.93735
50.9919 7.82654
51.0413 7.86706
51.0908 7.81827
51.1402 7.78345
51.1897 7.75845
51.2391 7.708
51.2887 7.69592
51.3381 7.61772
51.3877 7.62979
51.4371 7.57623
51.4867 7.5613
51.5362 7.55419
51.5858 7.51651
51.6353 7.43986
51.6849 7.47525
51.7344 7.39868
51.7841 7.36239
51.8336 7.29424
51.8833 7.30806
51.9328 7.26898
51.9826 7.26855
52.0323 7.20324
52.0818 7.17213
52.1316 7.13951
52.1812 7.11664
52.231 7.10652
52.2806 7.06353
52.3304 7.03749
52.38 7.04919
52.4298 6.96842
52.4794 6.948
52.5293 6.92842
52.5789 6.93412
52.6288 6.83702
52.6785 6.83118
52.7284 6.82695
52.7781 6.8059
52.828 6.76153
52.8777 6.70573
52.9276 6.66136
52.9774 6.68052
53.0273 6.66113
53.0771 6.62223
53.1271 6.597
53.1769 6.58786
53.2269 6.53686
53.2767 6.49793
53.3267 6.45871
53.3765 6.45909
53.4266 6.45865
53.4766 6.38604
53.5265 6.3564
53.5765 6.3774
53.6264 6.31065
53.6765 6.29949
53.7264 6.23263
53.7765 6.22559
53.8265 6.20612
53.8766 6.17472
53.9266 6.15267
53.9767 6.13681
54.0267 6.11308
54.0769 6.04092
54.1269 6.05835
54.1771 6.02703
54.2271 5.97245
54.2773 5.96872
54.3274 5.91861
54.3776 5.84226
54.4277 5.88141
54.478 5.81578
54.528 5.76963
54.5783 5.73655
54.6285 5.70282
54.6788 5.70148
54.7289 5.65728
54.7792 5.58263
54.8296 5.52301
54.8798 5.45074
54.9301 5.46501
54.9803 5.44978
55.0307 5.4246
55.0809 5.36976
55.1314 5.33252
55.1816 5.2823
55.232 5.20741
55.2823 5.1998
55.3328 5.12784
55.383 5.11686
55.4335 5.0517
55.4838 4.97283
55.5344 4.96497
55.5847 4.8889
55.6352 4.86457
55.6856 4.84249
55.7361 4.79224