File: XRD/Ni3Fe_FD0541.xy
TT I
1.27165 7.40286
1.31627 6.98785
1.36089 7.16279
1.40551 6.22313
1.45013 6.85944
1.49476 5.90251
1.53938 5.93031
1.584 6.07759
1.62863 5.15246
1.67325 5.41563
1.71787 5.40245
1.7625 5.04209
1.80712 5.38018
1.85174 4.81746
1.89636 4.17942
1.94099 5.09034
1.98562 5.04663
2.03025 4.42557
2.07487 4.21744
2.11949 4.67573
2.16411 4.69801
2.20874 18.2486
2.25338 29.8864
2.298 6.87539
2.34263 4.848
2.38725 6.67198
2.43188 5.83027
2.4765 6.73879
2.52115 6.79534
2.56577 7.07335
2.6104 7.24746
2.65503 7.00583
2.69965 7.8334
2.7443 7.90802
2.78893 7.68995
2.83356 8.77264
2.87818 9.23361
2.92281 8.76598
2.96744 9.82663
3.01209 10.1226
3.05672 10.9427
3.10135 12.5488
3.14599 13.2344
3.19062 14.5078
3.23527 14.9076
3.2799 15.7439
3.32454 17.3395
3.36917 17.901
3.4138 19.3141
3.45844 20.13
3.50309 21.4092
3.54773 22.3527
3.59237 24.8805
3.637 121.333
3.68164 74.6329
3.7263 27.1806
3.77094 26.8583
3.81558 27.4553
3.86022 28.1518
3.90486 29.6365
3.9495 30.59
3.99416 31.4246
4.0388 32.9549
4.08344 34.0283
4.12809 35.6578
4.17273 37.9676
4.21738 45.5106
4.26204 327.266
4.30669 298.79
4.35133 51.8886
4.39598 45.3791
4.44063 57.8451
4.4853 73.9889
4.52995 51.0674
4.5746 51.3882
4.61925 53.3895
4.6639 55.889
4.70855 58.8162
4.75322 61.2595
4.79788 64.1007
4.84253 67.2246
4.88719 71.7021
4.93184 75.4284
4.97652 80.4513
5.02118 87.0713
5.06583 94.5667
5.11049 106.687
5.15515 195.284
5.19981 368.775
5.24449 2683.88
5.28916 11878.2
5.33382 3372.02
5.37848 210.13
5.42315 133.181
5.46783 115.729
5.5125 107.374
5.55716 103.564
5.60183 99.4927
5.6465 98.1608
5.69117 94.9115
5.73586 92.7927
5.78053 91.9476
5.8252 91.5552
5.86988 92.4841
5.91455 94.9913
5.95924 102.625
6.00392 204.629
6.0486 932.604
6.09328 4064.56
6.13795 3608.69
6.18263 285.804
6.22733 97.8355
6.27201 85.7321
6.3167 114.155
6.36138 85.9117
6.40606 70.0669
6.45075 68.6305
6.49545 66.4824
6.54014 65.1868
6.58483 64.076
6.62952 64.219
6.67421 106.365
6.71892 181.276
6.76361 74.1669
6.8083 59.9766
6.853 58.053
6.89769 57.9987
6.94239 57.8532
6.98711 56.6734
7.03181 56.5058
7.07651 56.3195
7.12121 56.1501
7.16591 56.3771
7.21063 57.0594
7.25533 76.4145
7.30004 233.883
7.34475 108.952
7.38945 58.6491
7.43416 56.0411
7.47889 55.4741
7.5236 56.0389
7.56831 56.4718
7.61303 58.4654
7.65774 59.5276
7.70247 56.9684
7.74719 56.7448
7.79191 57.6745
7.83663 57.7054
7.88135 58.8377
7.92607 59.5591
7.97081 60.4566
8.01553 61.6659
8.06026 62.9866
8.10498 64.8081
8.14971 77.3591
8.19446 75.5175
8.23919 70.4266
8.28392 72.7012
8.32865 74.6496
8.37339 79.1642
8.41812 86.6105
8.46288 124.201
8.50761 165.843
8.55235 372.723
8.59709 1081.23
8.64183 2147.53
8.68658 1083.58
8.73134 191.489
8.77609 102.197
8.82083 94.192
8.86558 90.6278
8.91033 91.2862
8.9551 95.3099
8.99985 86.812
9.04461 84.1918
9.08936 83.2584
9.13412 82.2854
9.17888 82.7315
9.22365 84.1554
9.26841 82.8872
9.31318 83.2663
9.35794 83.1794
9.4027 83.6675
9.44749 84.8034
9.49226 85.2822
9.53703 86.2924
9.5818 88.2284
9.62657 93.9492
9.67134 102.956
9.71614 94.9888
9.76091 94.7602
9.80569 96.8151
9.85047 100.514
9.89525 132.742
9.94005 148.091
9.98484 173.325
10.0296 327.605
10.0744 736.344
10.1192 1617.68
10.164 1722.66
10.2088 470.435
10.2536 134.884
10.2984 117.574
10.3432 121.285
10.388 106.907
10.4328 117.816
10.4776 157.171
10.5224 265.124
10.5672 493.995
10.612 544.18
10.6568 227.706
10.7017 100.25
10.7465 88.0715
10.7913 84.3422
10.8361 82.3918
10.8809 80.0289
10.9257 80.2554
10.9706 81.2648
11.0154 76.2275
11.0602 73.7725
11.105 72.9942
11.1499 79.226
11.1947 90.4985
11.2395 78.2179
11.2844 72.554
11.3292 68.2577
11.374 66.9656
11.4189 66.6575
11.4637 65.9704
11.5086 66.7893
11.5534 71.1239
11.5983 67.1978
11.6431 64.503
11.688 63.8484
11.7328 63.6928
11.7777 63.7392
11.8225 63.2163
11.8674 63.1981
11.9122 63.823
11.9571 63.7115
12.002 64.1734
12.0468 68.1229
12.0917 79.4682
12.1366 101.597
12.1814 145.555
12.2263 202.451
12.2712 180.164
12.3161 106.478
12.3609 74.244
12.4058 65.9522
12.4507 65.335
12.4956 65.2678
12.5405 65.5416
12.5853 66.6321
12.6302 77.3162
12.6751 85.0679
12.72 72.4272
12.7649 68.5427
12.8098 69.0502
12.8547 70.6535
12.8996 71.6289
12.9445 72.9122
12.9894 74.6466
13.0343 76.1928
13.0792 79.2544
13.1242 87.8814
13.1691 111.488
13.214 145.876
13.2589 223.002
13.3038 344.462
13.3487 436.46
13.3937 293.379
13.4386 133.638
13.4835 106.621
13.5285 118.931
13.5734 153.452
13.6183 230.092
13.6633 333.745
13.7082 357.108
13.7531 208.801
13.7981 104.242
13.843 83.2981
13.888 80.6047
13.9329 78.0841
13.9779 76.3628
14.0228 74.9182
14.0678 73.8833
14.1127 73.5107
14.1577 73.9323
14.2027 72.4523
14.2476 71.206
14.2926 71.7218
14.3376 73.3351
14.3825 71.4001
14.4275 69.7497
14.4725 69.3129
14.5175 69.3468
14.5624 69.5469
14.6074 72.7546
14.6524 73.5551
14.6974 71.2674
14.7424 72.3104
14.7874 78.7955
14.8324 88.3926
14.8774 107.721
14.9224 144.469
14.9674 196.914
15.0124 225.133
15.0574 163.28
15.1024 97.1944
15.1474 74.0388
15.1924 71.8075
15.2374 72.9043
15.2824 72.2377
15.3274 69.2813
15.3725 67.648
15.4175 67.1519
15.4625 66.9037
15.5076 67.3868
15.5526 67.2156
15.5976 66.4885
15.6426 67.3993
15.6877 72.5021
15.7327 79.3519
15.7778 93.3887
15.8228 120.242
15.8679 161.225
15.9129 192.068
15.958 167.432
16.003 104.309
16.0481 70.5786
16.0931 66.6198
16.1382 64.8374
16.1833 61.8275
16.2283 59.8733
16.2734 59.3228
16.3185 59.92
16.3636 61.3217
16.4086 59.218
16.4537 57.2364
16.4988 56.2312
16.5439 56.3388
16.589 55.8703
16.6341 55.5693
16.6792 55.2792
16.7243 55.4475
16.7694 55.9308
16.8145 55.8165
16.8596 56.0595
16.9047 58.4638
16.9498 58.593
16.9949 56.7
17.04 56.2762
17.0851 57.5623
17.1302 58.9278
17.1754 61.8904
17.2205 66.3952
17.2656 72.9079
17.3108 82.3989
17.3559 83.6216
17.401 74.2581
17.4462 63.8079
17.4913 60.1238
17.5365 59.8524
17.5815 59.8414
17.6268 60.2297
17.6718 61.251
17.7171 61.9215
17.7622 61.8652
17.8074 62.3837
17.8525 64.3567
17.8977 68.4721
17.9428 73.7768
17.9881 81.5233
18.0331 96.2938
18.0784 116.464
18.1237 137.61
18.1688 136.402
18.214 109.073
18.2591 88.2711
18.3044 89.4088
18.3495 98.9253
18.3948 107.565
18.4399 100.822
18.4852 81.5757
18.5303 67.9251
18.5756 63.04
18.6207 61.9953
18.666 61.2015
18.7112 60.405
18.7565 59.7091
18.8016 59.3846
18.8469 58.7302
18.892 58.4094
18.9374 57.9314
18.9825 57.8336
19.0278 57.5816
19.073 57.7159
19.1183 58.1503
19.1635 59.2129
19.2088 60.1752
19.254 62.0587
19.2993 66.1566
19.3447 72.0907
19.3898 77.0507
19.4352 74.6897
19.4804 65.15
19.5257 57.8398
19.5709 55.0731
19.6163 54.4313
19.6615 54.3657
19.7068 54.1442
19.752 53.899
19.7974 54.1974
19.8426 55.0321
19.888 55.8045
19.9332 56.6114
19.9786 58.8293
20.0238 61.7831
20.0692 66.4451
20.1144 70.3761
20.1598 69.7263
20.205 65.0143
20.2504 62.4105
20.2957 63.7037
20.3411 66.0554
20.3863 65.7553
20.4318 60.1693
20.477 55.0271
20.5224 52.8398
20.5677 51.7803
20.6131 51.0005
20.6586 50.2589
20.7038 50.2949
20.7493 49.6103
20.7945 49.5307
20.84 49.4495
20.8853 49.3138
20.9307 49.2342
20.976 49.2351
21.0215 49.1295
21.0668 49.7222
21.1122 49.9215
21.1575 50.6116
21.203 51.3221
21.2483 51.775
21.2938 52.1105
21.3391 50.9354
21.3846 49.9388
21.4299 48.907
21.4754 48.7359
21.5207 48.9826
21.5662 49.3227
21.6116 49.5409
21.6571 50.2251
21.7024 51.2998
21.7479 52.81
21.7933 55.4141
21.8388 58.3887
21.8843 62.2439
21.9297 65.0745
21.9752 64.9808
22.0206 61.1954
22.0661 57.3175
22.1115 56.5371
22.157 56.7062
22.2024 55.2884
22.248 52.5681
22.2933 50.6237
22.3389 49.7869
22.3843 49.6408
22.4299 49.6569
22.4753 49.6561
22.5208 49.3343
22.5662 49.0635
22.6118 49.2644
22.6572 49.2371
22.7028 49.5734
22.7483 50.1267
22.7939 50.7602
22.8393 52.1851
22.8849 53.9197
22.9303 56.0603
22.9759 58.061
23.0214 58.4797
23.067 55.9487
23.1126 52.1631
23.1581 49.9793
23.2037 49.426
23.2492 49.2895
23.2948 49.3208
23.3403 49.4691
23.3859 50.2141
23.4314 51.0466
23.477 52.6417
23.5225 54.5727
23.5682 56.8344
23.6137 58.5554
23.6593 56.9429
23.7048 53.1424
23.7505 49.2896
23.796 47.3198
23.8417 46.8011
23.8872 46.05
23.9329 45.6813
23.9784 45.386
24.0241 45.2794
24.0697 45.2959
24.1154 44.6863
24.1609 44.5519
24.2066 44.3306
24.2522 44.2934
24.2979 44.0652
24.3434 43.7553
24.3892 43.7485
24.4349 43.5708
24.4805 43.3997
24.5262 43.428
24.5718 43.4717
24.6175 43.5078
24.6631 43.4185
24.7089 43.0208
24.7545 42.8407
24.8002 42.8135
24.8458 42.7578
24.8916 42.556
24.9372 42.7023
24.983 43.1306
25.0286 43.2686
25.0744 43.6639
25.12 44.1401
25.1658 44.6783
25.2114 45.0149
25.2572 45.0458
25.3029 45.286
25.3487 45.3938
25.3943 45.2033
25.4402 44.3485
25.4858 43.1777
25.5316 42.0066
25.5773 41.4466
25.6231 41.5526
25.669 41.0008
25.7147 40.9653
25.7605 40.9335
25.8062 40.9458
25.8521 41.1066
25.8977 41.0375
25.9436 41.2121
25.9893 41.2156
26.0352 41.8578
26.0809 41.9751
26.1268 42.1515
26.1725 41.9523
26.2184 41.5104
26.2641 40.8179
26.31 40.6158
26.3557 40.6341
26.4017 40.5781
26.4474 40.7803
26.4933 41.0822
26.5391 41.5842
26.585 42.0367
26.6308 42.5007
26.6767 42.6921
26.7225 42.4398
26.7684 42.0093
26.8142 41.4075
26.8601 41.0072
26.9059 40.6433
26.9519 40.1202
26.9979 39.6383
27.0437 39.3408
27.0896 39.1738
27.1354 39.1646
27.1814 39.0438
27.2272 39.0288
27.2732 39.0168
27.3191 38.7432
27.3651 39.0037
27.4109 38.8005
27.4569 38.9855
27.5027 38.9263
27.5488 39.0183
27.5946 38.8735
27.6407 38.637
27.6865 38.5193
27.7326 38.1355
27.7784 38.1468
27.8245 38.2177
27.8703 38.3902
27.9164 38.694
27.9623 38.7771
28.0084 39.1063
28.0543 39.3663
28.1003 39.4788
28.1462 39.3912
28.1923 38.9706
28.2384 38.5245
28.2843 38.2503
28.3304 37.6824
28.3764 37.2379
28.4225 36.8809
28.4684 36.6278
28.5145 36.4486
28.5605 36.3641
28.6066 36.0616
28.6526 36.0742
28.6987 35.9988
28.7447 36.0527
28.7908 35.9433
28.8368 35.9236
28.8829 35.8672
28.9289 35.7408
28.9751 35.6417
29.0211 35.4673
29.0673 35.1823
29.1133 35.0286
29.1595 34.8234
29.2055 34.7654
29.2517 34.718
29.2977 34.7188
29.3439 34.5934
29.3899 34.5785
29.4361 34.5456
29.4824 34.4409
29.5284 34.3256
29.5746 33.9175
29.6207 33.5899
29.6669 33.5429
29.713 33.4082
29.7593 33.3232
29.8053 33.2646
29.8516 33.1984
29.8977 33.1172
29.9439 32.9274
29.99 32.9813
30.0363 32.8596
30.0824 32.9419
30.1287 32.8006
30.1748 32.8516
30.2211 32.8054
30.2673 32.7745
30.3136 32.782
30.3597 32.6778
30.406 32.638
30.4522 32.4232
30.4985 32.4993
30.5447 32.4941
30.591 32.4938
30.6372 32.6202
30.6835 32.5279
30.7297 32.5078
30.7761 32.5395
30.8224 32.405
30.8686 32.242
30.915 31.9574
30.9612 31.8735
31.0076 31.6718
31.0538 31.5252
31.1002 31.4352
31.1464 31.2215
31.1928 31.3247
31.2391 31.4384
31.2855 31.1809
31.3317 31.21
31.3781 31.3791
31.4244 31.2428
31.4708 31.2561
31.5171 31.1739
31.5636 31.2142
31.6098 30.9259
31.6563 30.7598
31.7026 30.5851
31.7491 30.3775
31.7953 30.5263
31.8418 30.4942
31.8881 30.5136
31.9346 30.4963
31.9809 30.4053
32.0275 30.2795
32.074 30.1279
32.1203 30.0177
32.1668 29.9037
32.2132 29.7
32.2597 29.5729
32.306 29.5882
32.3526 29.3451
32.399 29.2729
32.4455 29.181
32.4919 28.9706
32.5385 29.071
32.5848 28.8386
32.6314 28.9145
32.6778 28.7956
32.7244 28.6437
32.7708 28.4689
32.8174 28.5328
32.8638 28.3021
32.9104 28.3809
32.9569 28.2623
33.0035 28.1957
33.0499 28.205
33.0966 28.1828
33.143 28.0708
33.1897 28.0678
33.2361 27.9953
33.2828 27.9294
33.3293 27.828
33.3759 27.7453
33.4226 27.6288
33.4691 27.3922
33.5158 27.3716
33.5623 27.2538
33.609 27.1315
33.6555 27.0557
33.7022 27.0254
33.7487 26.7993
33.7954 26.8427
33.842 26.7679
33.8887 26.6014
33.9353 26.5218
33.982 26.4936
34.0286 26.3776
34.0753 26.353
34.1219 26.2628
34.1687 26.1781
34.2152 26.2558
34.262 25.9772
34.3086 25.8621
34.3554 25.8319
34.402 25.6766
34.4488 25.5758
34.4954 25.4558
34.5422 25.4816
34.5889 25.3979
34.6357 25.2648
34.6825 25.1674
34.7292 25.159
34.776 25.0912
34.8227 24.9731
34.8695 24.93
34.9162 24.8878
34.9631 24.7643
35.0098 24.8333
35.0566 24.632
35.1033 24.5358
35.1502 24.5176
35.1969 24.4853
35.2438 24.4544
35.2906 24.3938
35.3375 24.4341
35.3842 24.2173
35.4311 24.2431
35.4779 24.3071
35.5248 24.2212
35.5716 24.0589
35.6185 24.0191
35.6653 23.8559
35.7123 23.8139
35.759 23.7881
35.806 23.713
35.8528 23.563
35.8998 23.4793
35.9468 23.4661
35.9936 23.3657
36.0406 23.275
36.0874 23.3095
36.1345 23.0961
36.1813 23.16
36.2283 22.9939
36.2752 22.9678
36.3222 22.9414
36.3691 22.8608
36.4161 22.718
36.463 22.7223
36.5101 22.706
36.557 22.643
36.6041 22.4599
36.651 22.4647
36.6981 22.3997
36.745 22.3211
36.7921 22.2943
36.839 22.1707
36.8861 22.174
36.9331 22.0021
36.9802 21.9357
37.0272 21.8324
37.0743 21.7498
37.1213 21.6743
37.1684 21.67
37.2154 21.6169
37.2626 21.5744
37.3098 21.4531
37.3568 21.4237
37.404 21.3475
37.451 21.2448
37.4982 21.2074
37.5452 21.1064
37.5924 21.1005
37.6395 21.0349
37.6867 21.0146
37.7337 20.8633
37.781 20.7963
37.8281 20.7755
37.8753 20.6404
37.9224 20.5899
37.9697 20.5566
38.0168 20.4623
38.064 20.3094
38.1111 20.4007
38.1584 20.2155
38.2056 20.272
38.2529 20.116
38.3 20.1253
38.3473 20.0234
38.3945 19.9364
38.4418 19.9028
38.489 19.8403
38.5363 19.7826
38.5837 19.7198
38.6309 19.6272
38.6782 19.6072
38.7254 19.4697
38.7728 19.4495
38.82 19.4241
38.8674 19.3659
38.9146 19.2873
38.9621 19.3026
39.0093 19.1286
39.0567 19.0627
39.104 19.0355
39.1514 18.9499
39.1987 18.9319
39.2461 18.8547
39.2934 18.8437
39.3409 18.7371
39.3882 18.6545
39.4356 18.6262
39.483 18.5883
39.5304 18.4732
39.5778 18.5057
39.6253 18.3546
39.6726 18.3342
39.7201 18.2034
39.7675 18.2872
39.815 18.0774
39.8624 18.0822
39.9099 18.0651
39.9575 17.9816
40.0049 17.9054
40.0525 17.8672
40.0999 17.7966
40.1474 17.751
40.1949 17.6759
40.2425 17.653
40.2899 17.5334
40.3375 17.5506
40.385 17.46
40.4326 17.3881
40.48 17.3584
40.5277 17.3165
40.5752 17.2807
40.6228 17.1504
40.6703 17.118
40.718 17.0957
40.7655 17.0494
40.8132 17.0291
40.8607 16.9426
40.9084 16.8405
40.9559 16.8762
41.0036 16.7998
41.0512 16.746
41.0989 16.6528
41.1465 16.5678
41.1942 16.5614
41.242 16.4786
41.2896 16.4237
41.3373 16.3691
41.3849 16.3357
41.4327 16.237
41.4803 16.2479
41.5281 16.1992
41.5758 16.0681
41.6236 16.0389
41.6712 15.9826
41.7191 15.911
41.7667 15.8968
41.8146 15.9202
41.8622 15.773
41.9101 15.7606
41.9578 15.6396
42.0057 15.6214
42.0534 15.6178
42.1013 15.5445
42.149 15.4347
42.1969 15.4036
42.2446 15.3829
42.2925 15.3567
42.3403 15.2485
42.3882 15.2687
42.436 15.2022
42.4839 15.1273
42.5319 15.1189
42.5797 15.0503
42.6277 14.9873
42.6755 14.882
42.7235 14.8102
42.7713 14.8447
42.8193 14.7645
42.8671 14.7105
42.9152 14.6419
42.963 14.5916
43.0111 14.525
43.0589 14.5074
43.107 14.4455
43.1549 14.4088
43.2029 14.3476
43.2508 14.3451
43.2989 14.2266
43.3468 14.2422
43.3949 14.1829
43.4429 14.1226
43.491 14.0902
43.5389 13.9918
43.5871 13.9787
43.635 13.9375
43.6832 13.9162
43.7312 13.8143
43.7793 13.7898
43.8273 13.7505
43.8755 13.6691
43.9237 13.6077
43.9717 13.6094
44.0199 13.5612
44.068 13.4971
44.1162 13.4461
44.1642 13.4381
44.2125 13.3764
44.2606 13.347
44.3088 13.2298
44.3569 13.1975
44.4052 13.1872
44.4533 13.1486
44.5016 13.0784
44.5497 13.1025
44.598 12.9956
44.6461 12.9354
44.6945 12.8898
44.7426 12.8333
44.791 12.7875
44.8391 12.7759
44.8875 12.7624
44.9357 12.7071
44.984 12.6362
45.0322 12.5701
45.0806 12.5013
45.1288 12.5027
45.1773 12.4645
45.2257 12.4364
45.2739 12.3508
45.3224 12.3073
45.3706 12.302
45.4191 12.1831
45.4673 12.198
45.5158 12.1224
45.5641 12.0825
45.6126 12.03
45.6609 12.0243
45.7094 11.9906
45.7577 11.9379
45.8063 11.8733
45.8546 11.8485
45.9031 11.7756
45.9515 11.7541
46.0001 11.6659
46.0484 11.6763
46.097 11.6451
46.1454 11.571
46.194 11.5877
46.2424 11.5125
46.291 11.4597
46.3395 11.4118
46.3881 11.3664
46.4365 11.3762
46.4852 11.3388
46.5337 11.2584
46.5823 11.2287
46.631 11.141
46.6795 11.1699
46.7282 11.077
46.7767 11.0641
46.8254 11.0251
46.8739 10.9468
46.9226 10.9393
46.9712 10.8955
47.0199 10.8726
47.0685 10.8021
47.1173 10.762
47.1658 10.7137
47.2146 10.6841
47.2632 10.6491
47.312 10.6237
47.3606 10.5697
47.4095 10.5455
47.4581 10.5464
47.5069 10.4787
47.5556 10.4519
47.6044 10.3649
47.6531 10.3398
47.702 10.3033
47.7507 10.2319
47.7996 10.2007
47.8483 10.2232
47.8972 10.1494
47.9461 10.1036
47.9948 10.035
48.0438 10.0223
48.0925 10.0359
48.1415 9.99218
48.1902 9.94107
48.2392 9.90083
48.288 9.88452
48.337 9.86317
48.3858 9.77996
48.4348 9.76089
48.4837 9.70902
48.5327 9.72218
48.5815 9.63795
48.6306 9.63952
48.6795 9.56988
48.7285 9.54581
48.7774 9.52239
48.8265 9.491
48.8754 9.40943
48.9245 9.43376
48.9734 9.38367
49.0226 9.35716
49.0715 9.3129
49.1206 9.25428
49.1696 9.26977
49.2188 9.20314
49.2679 9.17181
49.3169 9.13459
49.3661 9.07485
49.4151 9.05757
49.4643 9.01405
49.5134 8.98836
49.5626 8.94526
49.6117 8.92599
49.6609 8.87997
49.71 8.81149
49.7592 8.81382
49.8083 8.787
49.8576 8.75395
49.9067 8.70108
49.956 8.66793
50.0052 8.66376
50.0545 8.61385
50.1036 8.56287
50.153 8.5472
50.2022 8.54937
50.2515 8.48223
50.3007 8.39509
50.3501 8.43804
50.3993 8.37671
50.4487 8.36078
50.498 8.34499
50.5474 8.2987
50.5966 8.25882
50.6461 8.23934
50.6955 8.19549
50.7448 8.16002
50.7943 8.14269
50.8436 8.14064
50.8931 8.06792
50.9424 8.01092
50.9919 8.00754
51.0413 7.99335
51.0908 7.93869
51.1402 7.92595
51.1897 7.8781
51.2391 7.8582
51.2887 7.80791
51.3381 7.78487
51.3877 7.76762
51.4371 7.68849
51.4867 7.68342
51.5362 7.68664
51.5858 7.6161
51.6353 7.5655
51.6849 7.58384
51.7344 7.52303
51.7841 7.51996
51.8336 7.47035
51.8833 7.44945
51.9328 7.39456
51.9826 7.35595
52.0323 7.32686
52.0818 7.28911
52.1316 7.25376
52.1812 7.2935
52.231 7.16054
52.2806 7.20802
52.3304 7.18735
52.38 7.13494
52.4298 7.10771
52.4794 7.06372
52.5293 7.00218
52.5789 7.02566
52.6288 6.98429
52.6785 6.93141
52.7284 6.94105
52.7781 6.90978
52.828 6.8552
52.8777 6.84564
52.9276 6.80867
52.9774 6.79994
53.0273 6.7435
53.0771 6.69866
53.1271 6.70279
53.1769 6.66767
53.2269 6.61834
53.2767 6.63009
53.3267 6.61113
53.3765 6.53546
53.4266 6.54611
53.4766 6.45509
53.5265 6.464
53.5765 6.43427
53.6264 6.41357
53.6765 6.416
53.7264 6.35636
53.7765 6.35928
53.8265 6.30485
53.8766 6.24715
53.9266 6.24876
53.9767 6.17033
54.0267 6.23813
54.0769 6.1667
54.1269 6.14895
54.1771 6.08908
54.2271 6.08163
54.2773 6.03698
54.3274 6.03373
54.3776 5.92745
54.4277 5.94901
54.478 5.92043
54.528 5.88424
54.5783 5.87183
54.6285 5.78126
54.6788 5.74609
54.7289 5.71694
54.7792 5.72135
54.8296 5.58631
54.8798 5.52217
54.9301 5.56721
54.9803 5.53769
55.0307 5.52612
55.0809 5.50948
55.1314 5.46795
55.1816 5.40863
55.232 5.35254
55.2823 5.26661
55.3328 5.26798
55.383 5.18672
55.4335 5.11275
55.4838 5.02739
55.5344 5.01194
55.5847 5.01163
55.6352 4.97441
55.6856 4.91297
55.7361 4.90882