File: XRD/Ni3Fe_FD0715.xy
TT I
1.27165 7.42234
1.31627 6.14876
1.36089 6.60097
1.40551 5.60415
1.45013 5.84156
1.49476 5.62325
1.53938 5.30637
1.584 5.62002
1.62863 5.10754
1.67325 4.81416
1.71787 5.32062
1.7625 4.87135
1.80712 5.20834
1.85174 4.47403
1.89636 4.86872
1.94099 4.98388
1.98562 4.22168
2.03025 4.38456
2.07487 4.06846
2.11949 4.48504
2.16411 4.67042
2.20874 7.46141
2.25338 9.87689
2.298 4.68232
2.34263 4.95194
2.38725 5.94072
2.43188 6.1377
2.4765 6.71139
2.52115 7.36557
2.56577 7.24084
2.6104 7.858
2.65503 7.727
2.69965 7.91245
2.7443 8.09177
2.78893 8.12107
2.83356 8.30858
2.87818 8.7644
2.92281 8.67652
2.96744 9.62989
3.01209 10.0852
3.05672 10.5361
3.10135 11.9122
3.14599 13.043
3.19062 14.1057
3.23527 15.1126
3.2799 15.9534
3.32454 16.5951
3.36917 17.2108
3.4138 18.6839
3.45844 19.2904
3.50309 20.2933
3.54773 21.4936
3.59237 23.0907
3.637 47.4934
3.68164 35.4684
3.7263 25.3119
3.77094 25.983
3.81558 26.6793
3.86022 27.123
3.90486 28.6436
3.9495 29.3663
3.99416 30.0623
4.0388 31.9087
4.08344 32.6775
4.12809 34.2545
4.17273 36.0353
4.21738 39.4686
4.26204 112.64
4.30669 98.6567
4.35133 44.1882
4.39598 43.4879
4.44063 48.216
4.4853 53.2969
4.52995 57.3642
4.5746 57.3097
4.61925 53.5617
4.6639 55.4267
4.70855 58.518
4.75322 61.5089
4.79788 68.3086
4.84253 68.6843
4.88719 75.4397
4.93184 76.7802
4.97652 81.0495
5.02118 87.3139
5.06583 95.0149
5.11049 107.624
5.15515 156.726
5.19981 431.048
5.24449 3082.86
5.28916 12585.7
5.33382 2624.7
5.37848 199.371
5.42315 132.005
5.46783 120.292
5.5125 113.068
5.55716 102.852
5.60183 98.4338
5.6465 96.0584
5.69117 94.6643
5.73586 93.2307
5.78053 99.1177
5.8252 98.3596
5.86988 101.522
5.91455 96.1954
5.95924 106.816
6.00392 258.447
6.0486 1032.25
6.09328 4609.78
6.13795 3066.79
6.18263 218.008
6.22733 90.8647
6.27201 80.5184
6.3167 83.8118
6.36138 73.7447
6.40606 69.7055
6.45075 69.8078
6.49545 65.1452
6.54014 63.3416
6.58483 62.5634
6.62952 62.8028
6.67421 72.0898
6.71892 87.2674
6.76361 61.3559
6.8083 59.344
6.853 59.6428
6.89769 56.4772
6.94239 56.2255
6.98711 55.3584
7.03181 56.134
7.07651 54.9165
7.12121 54.155
7.16591 55.8939
7.21063 55.2811
7.25533 59.5346
7.30004 95.1768
7.34475 66.0663
7.38945 54.372
7.43416 53.8615
7.47889 53.7333
7.5236 54.4874
7.56831 54.8945
7.61303 55.4772
7.65774 56.0957
7.70247 56.77
7.74719 56.2775
7.79191 56.3169
7.83663 56.4784
7.88135 57.4956
7.92607 58.6355
7.97081 59.4564
8.01553 60.9987
8.06026 62.5841
8.10498 64.0541
8.14971 70.7127
8.19446 70.7142
8.23919 69.3191
8.28392 71.6671
8.32865 74.281
8.37339 78.8624
8.41812 83.881
8.46288 103.959
8.50761 189.135
8.55235 412.02
8.59709 1253.97
8.64183 2163.29
8.68658 840.618
8.73134 147.885
8.77609 98.3128
8.82083 92.9204
8.86558 92.5778
8.91033 92.1298
8.9551 89.3868
8.99985 85.2341
9.04461 83.6345
9.08936 84.4057
9.13412 82.7923
9.17888 82.2124
9.22365 82.0704
9.26841 82.1623
9.31318 85.076
9.35794 86.9037
9.4027 86.0685
9.44749 85.3075
9.49226 84.9595
9.53703 85.9954
9.5818 89.4689
9.62657 94.6279
9.67134 95.4407
9.71614 93.1417
9.76091 95.2414
9.80569 99.3821
9.85047 101.821
9.89525 111.979
9.94005 128.874
9.98484 200.433
10.0296 365.622
10.0744 852.882
10.1192 1805.71
10.164 1536.77
10.2088 359.546
10.2536 121.758
10.2984 109.447
10.3432 108.138
10.388 105.915
10.4328 124.818
10.4776 166.469
10.5224 296.101
10.5672 515.522
10.612 492.42
10.6568 189.883
10.7017 94.0937
10.7465 86.3411
10.7913 82.9927
10.8361 80.8253
10.8809 78.7611
10.9257 77.8063
10.9706 77.791
11.0154 75.2348
11.0602 72.5921
11.105 71.2722
11.1499 71.5013
11.1947 73.6985
11.2395 69.8386
11.2844 68.3783
11.3292 66.6206
11.374 66.1904
11.4189 65.2416
11.4637 64.6347
11.5086 64.4393
11.5534 65.0314
11.5983 63.8611
11.6431 63.2829
11.688 62.4837
11.7328 62.5431
11.7777 62.2429
11.8225 62.6319
11.8674 62.2487
11.9122 62.7334
11.9571 63.108
12.002 64.4609
12.0468 69.44
12.0917 79.6212
12.1366 105.234
12.1814 156.418
12.2263 209.244
12.2712 156.804
12.3161 87.5962
12.3609 66.628
12.4058 64.0163
12.4507 64.1528
12.4956 64.6426
12.5405 64.7086
12.5853 64.8233
12.6302 67.7967
12.6751 70.4008
12.72 68.072
12.7649 67.6527
12.8098 68.4346
12.8547 69.9374
12.8996 71.6568
12.9445 72.9377
12.9894 74.5413
13.0343 76.3088
13.0792 80.8133
13.1242 94.1147
13.1691 114.346
13.214 153.734
13.2589 250.54
13.3038 380.974
13.3487 416.647
13.3937 248.123
13.4386 120.995
13.4835 108.331
13.5285 123.739
13.5734 165.984
13.6183 260.066
13.6633 358.478
13.7082 329.096
13.7531 173.038
13.7981 94.1206
13.843 81.445
13.888 79.3756
13.9329 76.8958
13.9779 75.6874
14.0228 74.2271
14.0678 73.09
14.1127 72.3668
14.1577 71.7623
14.2027 71.2971
14.2476 70.4531
14.2926 70.113
14.3376 69.9833
14.3825 69.5162
14.4275 68.9201
14.4725 68.6754
14.5175 68.7793
14.5624 69.0783
14.6074 69.9406
14.6524 70.3337
14.6974 70.5762
14.7424 74.4108
14.7874 80.562
14.8324 90.8282
14.8774 114.495
14.9224 159.9
14.9674 213.362
15.0124 215.357
15.0574 139.579
15.1024 86.1296
15.1474 71.6417
15.1924 70.1649
15.2374 69.4098
15.2824 68.414
15.3274 67.2962
15.3725 66.7999
15.4175 66.2048
15.4625 65.7204
15.5076 65.6816
15.5526 65.5742
15.5976 66.1278
15.6426 68.4812
15.6877 73.7428
15.7327 80.9799
15.7778 97.3238
15.8228 131.025
15.8679 175.07
15.9129 192.798
15.958 148.348
16.003 91.4207
16.0481 66.1941
16.0931 62.7765
16.1382 61.2683
16.1833 60.0217
16.2283 58.6341
16.2734 57.7665
16.3185 57.5984
16.3636 57.6311
16.4086 56.5761
16.4537 55.8609
16.4988 55.2287
16.5439 55.271
16.589 55.0025
16.6341 54.6922
16.6792 54.2384
16.7243 54.4897
16.7694 54.6617
16.8145 54.5998
16.8596 54.6916
16.9047 55.402
16.9498 55.4054
16.9949 55.2404
17.04 55.849
17.0851 57.2826
17.1302 58.6112
17.1754 61.9197
17.2205 67.3872
17.2656 75.445
17.3108 83.8405
17.3559 81.3229
17.401 69.7279
17.4462 61.6385
17.4913 59.2036
17.5365 59.0408
17.5815 59.17
17.6268 59.4507
17.6718 60.1519
17.7171 60.4202
17.7622 61.3665
17.8074 62.6441
17.8525 65.6258
17.8977 68.8045
17.9428 74.6802
17.9881 84.3182
18.0331 102.686
18.0784 125.669
18.1237 141.778
18.1688 130.19
18.214 100.397
18.2591 86.2409
18.3044 91.59
18.3495 101.615
18.3948 106.104
18.4399 93.1918
18.4852 74.5856
18.5303 64.8813
18.5756 61.8863
18.6207 61.1785
18.666 60.0802
18.7112 59.5954
18.7565 58.9378
18.8016 58.4425
18.8469 58.0752
18.892 57.6326
18.9374 57.1233
18.9825 56.8191
19.0278 56.6818
19.073 56.9763
19.1183 57.2526
19.1635 57.5924
19.2088 59.4426
19.254 62.6042
19.2993 67.3901
19.3447 73.3013
19.3898 75.9714
19.4352 70.8763
19.4804 61.7563
19.5257 55.8078
19.5709 53.9576
19.6163 53.6562
19.6615 53.4904
19.7068 53.108
19.752 53.0631
19.7974 53.7988
19.8426 54.4053
19.888 55.0529
19.9332 56.2171
19.9786 59.1668
20.0238 63.1851
20.0692 67.7187
20.1144 69.5513
20.1598 67.6641
20.205 63.1408
20.2504 62.1191
20.2957 64.2248
20.3411 65.5944
20.3863 63.108
20.4318 57.3319
20.477 52.7539
20.5224 51.0842
20.5677 50.4233
20.6131 49.9031
20.6586 49.4584
20.7038 49.3881
20.7493 48.919
20.7945 48.7636
20.84 48.7055
20.8853 48.6923
20.9307 48.4273
20.976 48.5063
21.0215 48.4491
21.0668 48.9151
21.1122 49.311
21.1575 50.0576
21.203 50.7911
21.2483 51.4967
21.2938 51.2982
21.3391 49.8227
21.3846 48.7112
21.4299 48.0367
21.4754 48.3124
21.5207 48.5523
21.5662 48.8983
21.6116 49.5167
21.6571 49.8834
21.7024 50.9152
21.7479 52.9442
21.7933 55.9401
21.8388 59.4177
21.8843 63.3475
21.9297 64.958
21.9752 62.5871
22.0206 58.9021
22.0661 56.0959
22.1115 55.9965
22.157 55.8263
22.2024 53.9165
22.248 51.0524
22.2933 49.5722
22.3389 48.9153
22.3843 48.7127
22.4299 48.5611
22.4753 48.6265
22.5208 48.5385
22.5662 48.5262
22.6118 48.7165
22.6572 48.8836
22.7028 49.2063
22.7483 49.7753
22.7939 50.4171
22.8393 52.2423
22.8849 54.4634
22.9303 56.5979
22.9759 57.8374
23.0214 56.9889
23.067 53.6259
23.1126 50.713
23.1581 48.9014
23.2037 48.7562
23.2492 48.892
23.2948 48.8055
23.3403 48.9734
23.3859 49.7581
23.4314 51.0362
23.477 52.8638
23.5225 55.0735
23.5682 57.2489
23.6137 57.9467
23.6593 54.9718
23.7048 50.9061
23.7505 47.8004
23.796 46.3551
23.8417 45.7274
23.8872 45.3883
23.9329 45.0829
23.9784 44.7709
24.0241 44.6176
24.0697 44.321
24.1154 43.9582
24.1609 43.8276
24.2066 43.694
24.2522 43.5811
24.2979 43.2406
24.3434 43.2253
24.3892 42.9607
24.4349 43.0387
24.4805 42.8635
24.5262 43.0944
24.5718 42.8656
24.6175 42.7941
24.6631 42.6217
24.7089 42.3957
24.7545 42.3144
24.8002 42.1994
24.8458 42.1684
24.8916 41.9588
24.9372 42.1485
24.983 42.6439
25.0286 42.8764
25.0744 43.1458
25.12 43.7749
25.1658 44.3401
25.2114 44.6122
25.2572 44.6515
25.3029 44.8626
25.3487 44.7253
25.3943 44.4026
25.4402 43.2468
25.4858 42.1046
25.5316 41.177
25.5773 40.7331
25.6231 40.916
25.669 40.4551
25.7147 40.3662
25.7605 40.3504
25.8062 40.335
25.8521 40.4476
25.8977 40.4105
25.9436 40.8598
25.9893 40.931
26.0352 41.421
26.0809 41.4807
26.1268 41.6602
26.1725 41.2894
26.2184 40.5982
26.2641 40.2105
26.31 39.9599
26.3557 40.062
26.4017 40.0054
26.4474 40.3428
26.4933 40.6751
26.5391 41.1464
26.585 41.7241
26.6308 41.9803
26.6767 42.11
26.7225 41.6187
26.7684 41.248
26.8142 40.5841
26.8601 40.3225
26.9059 39.8811
26.9519 39.2909
26.9979 39.0068
27.0437 38.7543
27.0896 38.5202
27.1354 38.5646
27.1814 38.5916
27.2272 38.4923
27.2732 38.5713
27.3191 38.2481
27.3651 38.3192
27.4109 38.2567
27.4569 38.4736
27.5027 38.5395
27.5488 38.5236
27.5946 38.2952
27.6407 38.1047
27.6865 38.0522
27.7326 37.6735
27.7784 37.7756
27.8245 37.7764
27.8703 37.9729
27.9164 38.2442
27.9623 38.3661
28.0084 38.7758
28.0543 39.1466
28.1003 38.989
28.1462 38.5633
28.1923 38.2913
28.2384 37.8346
28.2843 37.3815
28.3304 37.0346
28.3764 36.6145
28.4225 36.3279
28.4684 36.1182
28.5145 35.9217
28.5605 35.7113
28.6066 35.6645
28.6526 35.5417
28.6987 35.5584
28.7447 35.3583
28.7908 35.3468
28.8368 35.3185
28.8829 35.3538
28.9289 35.338
28.9751 35.0735
29.0211 34.822
29.0673 34.4939
29.1133 34.3768
29.1595 34.3749
29.2055 34.1695
29.2517 34.297
29.2977 34.2563
29.3439 34.2379
29.3899 34.1195
29.4361 34.1135
29.4824 33.8996
29.5284 33.6567
29.5746 33.3115
29.6207 33.1248
29.6669 32.8557
29.713 32.9447
29.7593 32.7754
29.8053 32.8822
29.8516 32.685
29.8977 32.7864
29.9439 32.6
29.99 32.5584
30.0363 32.2959
30.0824 32.5784
30.1287 32.417
30.1748 32.3423
30.2211 32.3567
30.2673 32.1288
30.3136 32.3005
30.3597 32.1594
30.406 32.0471
30.4522 31.982
30.4985 31.9545
30.5447 32.0809
30.591 32.0996
30.6372 32.1163
30.6835 32.0791
30.7297 32.0825
30.7761 32.0172
30.8224 31.8813
30.8686 31.7434
30.915 31.5335
30.9612 31.4033
31.0076 31.2359
31.0538 31.0555
31.1002 31.0833
31.1464 30.9428
31.1928 30.8854
31.2391 30.906
31.2855 30.8405
31.3317 30.7919
31.3781 30.9342
31.4244 30.8217
31.4708 30.6947
31.5171 30.7091
31.5636 30.6206
31.6098 30.4101
31.6563 30.2819
31.7026 30.225
31.7491 29.9598
31.7953 30.0873
31.8418 30.065
31.8881 30.0915
31.9346 29.9684
31.9809 29.9859
32.0275 29.7756
32.074 29.7778
32.1203 29.4928
32.1668 29.404
32.2132 29.2382
32.2597 29.1567
32.306 29.1064
32.3526 28.9062
32.399 28.8985
32.4455 28.7306
32.4919 28.6319
32.5385 28.5567
32.5848 28.3205
32.6314 28.3841
32.6778 28.4048
32.7244 28.1968
32.7708 28.0306
32.8174 28.0869
32.8638 27.9349
32.9104 27.9198
32.9569 27.954
33.0035 27.7435
33.0499 27.8089
33.0966 27.729
33.143 27.7769
33.1897 27.4907
33.2361 27.5499
33.2828 27.4561
33.3293 27.3153
33.3759 27.2457
33.4226 27.1229
33.4691 26.9807
33.5158 26.97
33.5623 26.7821
33.609 26.5987
33.6555 26.6752
33.7022 26.4872
33.7487 26.3823
33.7954 26.3982
33.842 26.3042
33.8887 26.1934
33.9353 26.1412
33.982 26.1536
34.0286 25.9938
34.0753 25.9353
34.1219 25.7989
34.1687 25.709
34.2152 25.6626
34.262 25.4919
34.3086 25.4361
34.3554 25.5329
34.402 25.3088
34.4488 25.2302
34.4954 25.1147
34.5422 25.0704
34.5889 25.0056
34.6357 25.0071
34.6825 24.8813
34.7292 24.704
34.776 24.6939
34.8227 24.6235
34.8695 24.6022
34.9162 24.4988
34.9631 24.4577
35.0098 24.4761
35.0566 24.2438
35.1033 24.2202
35.1502 24.2223
35.1969 24.0617
35.2438 24.0882
35.2906 23.9803
35.3375 23.9973
35.3842 23.8859
35.4311 23.8763
35.4779 23.896
35.5248 23.7531
35.5716 23.6309
35.6185 23.6295
35.6653 23.5014
35.7123 23.4291
35.759 23.422
35.806 23.3051
35.8528 23.2146
35.8998 23.1616
35.9468 23.041
35.9936 23.1178
36.0406 22.9353
36.0874 22.9594
36.1345 22.8186
36.1813 22.7104
36.2283 22.6234
36.2752 22.5444
36.3222 22.5772
36.3691 22.4765
36.4161 22.3832
36.463 22.349
36.5101 22.4007
36.557 22.3107
36.6041 22.0684
36.651 22.0668
36.6981 22.0214
36.745 21.9378
36.7921 21.9719
36.839 21.8397
36.8861 21.7848
36.9331 21.6546
36.9802 21.6327
37.0272 21.5574
37.0743 21.3252
37.1213 21.3522
37.1684 21.3708
37.2154 21.3102
37.2626 21.1822
37.3098 21.1454
37.3568 21.1608
37.404 20.9762
37.451 20.8664
37.4982 20.8492
37.5452 20.7866
37.5924 20.6851
37.6395 20.7728
37.6867 20.6323
37.7337 20.5878
37.781 20.4175
37.8281 20.3922
37.8753 20.2695
37.9224 20.2745
37.9697 20.1561
38.0168 20.1257
38.064 20.0288
38.1111 20.0291
38.1584 19.893
38.2056 19.8986
38.2529 19.7962
38.3 19.705
38.3473 19.7109
38.3945 19.6598
38.4418 19.5976
38.489 19.5647
38.5363 19.3986
38.5837 19.4154
38.6309 19.3183
38.6782 19.2205
38.7254 19.2852
38.7728 19.1077
38.82 19.0746
38.8674 19.0294
38.9146 18.942
38.9621 18.9075
39.0093 18.7993
39.0567 18.7923
39.104 18.6517
39.1514 18.6411
39.1987 18.6131
39.2461 18.5936
39.2934 18.4889
39.3409 18.3806
39.3882 18.3353
39.4356 18.3269
39.483 18.3023
39.5304 18.1863
39.5778 18.164
39.6253 18.1086
39.6726 17.999
39.7201 18.0008
39.7675 17.9109
39.815 17.8243
39.8624 17.8159
39.9099 17.7612
39.9575 17.6761
40.0049 17.6136
40.0525 17.576
40.0999 17.5284
40.1474 17.444
40.1949 17.4294
40.2425 17.3233
40.2899 17.2899
40.3375 17.2432
40.385 17.1744
40.4326 17.1476
40.48 17.0426
40.5277 17.058
40.5752 16.977
40.6228 16.8838
40.6703 16.8545
40.718 16.7996
40.7655 16.7735
40.8132 16.6571
40.8607 16.6993
40.9084 16.6205
40.9559 16.5355
41.0036 16.5455
41.0512 16.4322
41.0989 16.4386
41.1465 16.3462
41.1942 16.2553
41.242 16.2245
41.2896 16.1583
41.3373 16.1175
41.3849 16.0412
41.4327 15.9819
41.4803 15.8833
41.5281 15.8837
41.5758 15.7892
41.6236 15.7309
41.6712 15.6928
41.7191 15.6557
41.7667 15.5831
41.8146 15.605
41.8622 15.5124
41.9101 15.45
41.9578 15.351
42.0057 15.3741
42.0534 15.3092
42.1013 15.3658
42.149 15.2306
42.1969 15.1951
42.2446 15.114
42.2925 15.0031
42.3403 15.0119
42.3882 14.9971
42.436 14.9207
42.4839 14.8348
42.5319 14.799
42.5797 14.722
42.6277 14.713
42.6755 14.669
42.7235 14.6092
42.7713 14.5664
42.8193 14.5787
42.8671 14.5047
42.9152 14.3959
42.963 14.386
43.0111 14.2602
43.0589 14.2921
43.107 14.1689
43.1549 14.1269
43.2029 14.1242
43.2508 14.1076
43.2989 14.0313
43.3468 13.989
43.3949 13.9121
43.4429 13.9133
43.491 13.8404
43.5389 13.7582
43.5871 13.7486
43.635 13.6427
43.6832 13.6382
43.7312 13.5924
43.7793 13.5822
43.8273 13.5238
43.8755 13.4213
43.9237 13.408
43.9717 13.392
44.0199 13.3246
44.068 13.2704
44.1162 13.2337
44.1642 13.2052
44.2125 13.1613
44.2606 13.0534
44.3088 13.0193
44.3569 13.0021
44.4052 12.9467
44.4533 12.8967
44.5016 12.8459
44.5497 12.7737
44.598 12.7675
44.6461 12.7215
44.6945 12.715
44.7426 12.657
44.791 12.5657
44.8391 12.6089
44.8875 12.5177
44.9357 12.4919
44.984 12.421
45.0322 12.4142
45.0806 12.3142
45.1288 12.2782
45.1773 12.2419
45.2257 12.2575
45.2739 12.1385
45.3224 12.1211
45.3706 12.0861
45.4191 12.0476
45.4673 12.0032
45.5158 11.9662
45.5641 11.8762
45.6126 11.8399
45.6609 11.8087
45.7094 11.795
45.7577 11.7163
45.8063 11.6762
45.8546 11.6461
45.9031 11.6098
45.9515 11.571
46.0001 11.5596
46.0484 11.5046
46.097 11.4479
46.1454 11.3849
46.194 11.3369
46.2424 11.2761
46.291 11.2708
46.3395 11.2025
46.3881 11.1598
46.4365 11.1723
46.4852 11.1534
46.5337 11.0706
46.5823 11.1126
46.631 10.9739
46.6795 10.9308
46.7282 10.9242
46.7767 10.8546
46.8254 10.8217
46.8739 10.7544
46.9226 10.7542
46.9712 10.6626
47.0199 10.6612
47.0685 10.6568
47.1173 10.5755
47.1658 10.5315
47.2146 10.5151
47.2632 10.4899
47.312 10.4613
47.3606 10.3894
47.4095 10.3514
47.4581 10.3298
47.5069 10.2887
47.5556 10.2671
47.6044 10.2052
47.6531 10.1385
47.702 10.1052
47.7507 10.0363
47.7996 10.0515
47.8483 10.0521
47.8972 9.98042
47.9461 9.91348
47.9948 9.89236
48.0438 9.8847
48.0925 9.86087
48.1415 9.82899
48.1902 9.76186
48.2392 9.76628
48.288 9.71578
48.337 9.63764
48.3858 9.64714
48.4348 9.57805
48.4837 9.59542
48.5327 9.50859
48.5815 9.47587
48.6306 9.45669
48.6795 9.43524
48.7285 9.37494
48.7774 9.33504
48.8265 9.34995
48.8754 9.27645
48.9245 9.23633
48.9734 9.205
49.0226 9.21987
49.0715 9.13095
49.1206 9.10633
49.1696 9.04922
49.2188 9.05307
49.2679 8.97132
49.3169 8.96621
49.3661 8.90788
49.4151 8.87608
49.4643 8.88355
49.5134 8.81828
49.5626 8.74669
49.6117 8.79625
49.6609 8.71283
49.71 8.64185
49.7592 8.66763
49.8083 8.65129
49.8576 8.59532
49.9067 8.56612
49.956 8.5211
50.0052 8.46232
50.0545 8.47679
50.1036 8.43576
50.153 8.40066
50.2022 8.40163
50.2515 8.3143
50.3007 8.27721
50.3501 8.24054
50.3993 8.25763
50.4487 8.16338
50.498 8.17039
50.5474 8.17534
50.5966 8.11608
50.6461 8.08705
50.6955 8.03907
50.7448 8.04785
50.7943 7.9672
50.8436 7.95793
50.8931 7.94802
50.9424 7.8919
50.9919 7.86382
51.0413 7.79335
51.0908 7.80393
51.1402 7.77175
51.1897 7.72162
51.2391 7.70378
51.2887 7.65998
51.3381 7.63852
51.3877 7.63097
51.4371 7.57224
51.4867 7.52908
51.5362 7.5134
51.5858 7.47565
51.6353 7.45037
51.6849 7.42449
51.7344 7.37752
51.7841 7.41103
51.8336 7.33996
51.8833 7.31833
51.9328 7.26699
51.9826 7.20661
52.0323 7.22312
52.0818 7.18739
52.1316 7.11076
52.1812 7.1409
52.231 7.10068
52.2806 7.05965
52.3304 7.029
52.38 7.01494
52.4298 6.95781
52.4794 6.92807
52.5293 6.96073
52.5789 6.89872
52.6288 6.85163
52.6785 6.85151
52.7284 6.85388
52.7781 6.79647
52.828 6.73424
52.8777 6.73853
52.9276 6.67498
52.9774 6.68472
53.0273 6.64426
53.0771 6.61352
53.1271 6.60427
53.1769 6.54322
53.2269 6.55018
53.2767 6.50401
53.3267 6.52331
53.3765 6.43792
53.4266 6.44831
53.4766 6.41225
53.5265 6.37567
53.5765 6.36329
53.6264 6.30308
53.6765 6.32341
53.7264 6.25167
53.7765 6.26202
53.8265 6.14426
53.8766 6.15127
53.9266 6.11499
53.9767 6.13032
54.0267 6.12303
54.0769 6.06886
54.1269 6.02494
54.1771 6.03758
54.2271 5.99977
54.2773 5.9552
54.3274 5.94072
54.3776 5.89
54.4277 5.86199
54.478 5.85919
54.528 5.73124
54.5783 5.76471
54.6285 5.7164
54.6788 5.67264
54.7289 5.62027
54.7792 5.60138
54.8296 5.55917
54.8798 5.48838
54.9301 5.45804
54.9803 5.46034
55.0307 5.41589
55.0809 5.41263
55.1314 5.31291
55.1816 5.27117
55.232 5.20577
55.2823 5.19033
55.3328 5.13763
55.383 5.08013
55.4335 5.06156
55.4838 5.01512
55.5344 4.92131
55.5847 4.91498
55.6352 4.89112
55.6856 4.79681
55.7361 4.80655