File: XRD/Ni3Fe_FD0949.xy
TT I
1.27165 7.06879
1.31627 6.77151
1.36089 6.48508
1.40551 6.53235
1.45013 5.42745
1.49476 5.94238
1.53938 5.61579
1.584 5.56038
1.62863 5.33521
1.67325 5.18193
1.71787 4.70646
1.7625 4.83636
1.80712 4.99767
1.85174 4.32682
1.89636 4.65535
1.94099 5.18757
1.98562 4.52738
2.03025 5.17971
2.07487 4.78656
2.11949 4.49852
2.16411 4.57572
2.20874 9.09344
2.25338 12.2355
2.298 5.6644
2.34263 5.45548
2.38725 6.11816
2.43188 6.50331
2.4765 7.43446
2.52115 7.27253
2.56577 8.05733
2.6104 8.40109
2.65503 8.37306
2.69965 8.92929
2.7443 8.14969
2.78893 8.91843
2.83356 8.39305
2.87818 8.92433
2.92281 8.24216
2.96744 9.62855
3.01209 10.7762
3.05672 10.7813
3.10135 12.5304
3.14599 13.1875
3.19062 15.1405
3.23527 15.837
3.2799 15.8437
3.32454 17.0237
3.36917 17.4472
3.4138 18.7026
3.45844 19.6078
3.50309 20.451
3.54773 21.8279
3.59237 23.2784
3.637 51.8554
3.68164 38.2452
3.7263 25.4062
3.77094 25.9013
3.81558 26.4991
3.86022 26.8337
3.90486 28.3881
3.9495 28.9591
3.99416 30.0502
4.0388 31.7882
4.08344 32.9367
4.12809 34.3608
4.17273 36.0192
4.21738 40.3822
4.26204 127.585
4.30669 112.094
4.35133 45.8433
4.39598 44.3266
4.44063 49.136
4.4853 54.2515
4.52995 55.385
4.5746 56.7371
4.61925 53.3756
4.6639 55.086
4.70855 57.5115
4.75322 60.9453
4.79788 67.2762
4.84253 67.0514
4.88719 73.8887
4.93184 75.3368
4.97652 80.0754
5.02118 87.2645
5.06583 94.7828
5.11049 103.864
5.15515 152.039
5.19981 316.304
5.24449 2678.97
5.28916 13423.9
5.33382 2841.36
5.37848 191.325
5.42315 128.152
5.46783 117.543
5.5125 110.512
5.55716 101.012
5.60183 96.9989
5.6465 94.7072
5.69117 93.3052
5.73586 91.2897
5.78053 96.5926
5.8252 95.7036
5.86988 98.2772
5.91455 93.263
5.95924 99.5226
6.00392 199.937
6.0486 895.213
6.09328 4510.02
6.13795 3105.21
6.18263 212.777
6.22733 88.4167
6.27201 78.9483
6.3167 84.3868
6.36138 73.7334
6.40606 68.7243
6.45075 68.6696
6.49545 64.3719
6.54014 62.7151
6.58483 61.842
6.62952 62.0967
6.67421 74.1294
6.71892 92.2965
6.76361 62.3234
6.8083 58.7217
6.853 58.8096
6.89769 55.9408
6.94239 55.4548
6.98711 54.8281
7.03181 55.3924
7.07651 54.2904
7.12121 55.1115
7.16591 56.3424
7.21063 55.2315
7.25533 61.1893
7.30004 104.43
7.34475 68.9983
7.38945 54.4856
7.43416 53.1593
7.47889 53.1764
7.5236 53.563
7.56831 54.2145
7.61303 54.9396
7.65774 55.1894
7.70247 55.833
7.74719 55.4702
7.79191 55.5788
7.83663 55.7573
7.88135 56.9183
7.92607 57.7841
7.97081 58.8798
8.01553 60.0541
8.06026 61.8355
8.10498 63.1301
8.14971 70.1211
8.19446 69.9917
8.23919 68.3675
8.28392 70.7331
8.32865 73.1853
8.37339 77.6048
8.41812 82.436
8.46288 98.9025
8.50761 154.386
8.55235 361.898
8.59709 1165.05
8.64183 2178.96
8.68658 921.154
8.73134 156.194
8.77609 96.7046
8.82083 90.9428
8.86558 90.9436
8.91033 90.9076
8.9551 88.5671
8.99985 84.0877
9.04461 82.6918
9.08936 83.1301
9.13412 81.6173
9.17888 80.9015
9.22365 80.9947
9.26841 80.8099
9.31318 83.1453
9.35794 85.3466
9.4027 84.6045
9.44749 83.854
9.49226 83.3506
9.53703 84.3401
9.5818 87.8031
9.62657 93.1571
9.67134 94.3193
9.71614 91.4671
9.76091 93.2229
9.80569 97.5534
9.85047 99.9998
9.89525 111.039
9.94005 120.716
9.98484 170.973
10.0296 326.787
10.0744 815.472
10.1192 1767.72
10.164 1510.16
10.2088 379.725
10.2536 123.673
10.2984 108.007
10.3432 107.133
10.388 102.135
10.4328 115.115
10.4776 155.983
10.5224 285.47
10.5672 527.867
10.612 486.532
10.6568 190.017
10.7017 93.9858
10.7465 85.096
10.7913 81.8392
10.8361 79.7714
10.8809 77.6141
10.9257 77.0501
10.9706 77.1314
11.0154 74.2432
11.0602 71.9498
11.105 70.524
11.1499 71.5279
11.1947 74.0146
11.2395 69.4041
11.2844 67.5051
11.3292 66.0237
11.374 65.1104
11.4189 64.6275
11.4637 63.6591
11.5086 63.4604
11.5534 64.639
11.5983 63.4125
11.6431 62.1253
11.688 61.6958
11.7328 61.7418
11.7777 61.4828
11.8225 61.7398
11.8674 61.558
11.9122 61.5346
11.9571 61.7827
12.002 62.806
12.0468 66.9253
12.0917 76.9428
12.1366 101.992
12.1814 157.121
12.2263 204.979
12.2712 157.434
12.3161 90.8474
12.3609 66.6746
12.4058 63.0307
12.4507 62.9816
12.4956 63.7178
12.5405 63.8068
12.5853 64.2803
12.6302 67.63
12.6751 69.9108
12.72 66.8644
12.7649 66.6798
12.8098 67.0721
12.8547 69.2255
12.8996 70.1553
12.9445 71.597
12.9894 73.5239
13.0343 74.7683
13.0792 78.2156
13.1242 87.3483
13.1691 107.569
13.214 145.216
13.2589 242.626
13.3038 381.831
13.3487 419.814
13.3937 245.012
13.4386 119.853
13.4835 102.841
13.5285 116.797
13.5734 157.169
13.6183 255.951
13.6633 361.782
13.7082 327.354
13.7531 179.385
13.7981 94.7864
13.843 80.6364
13.888 78.3326
13.9329 76.0362
13.9779 74.3798
14.0228 73.3411
14.0678 72.0012
14.1127 71.2795
14.1577 70.9001
14.2027 70.2577
14.2476 69.1957
14.2926 69.1001
14.3376 69.2982
14.3825 68.5615
14.4275 67.7957
14.4725 67.6987
14.5175 67.6475
14.5624 67.8798
14.6074 69.1008
14.6524 69.4942
14.6974 69.3686
14.7424 71.0983
14.7874 77.1398
14.8324 87.0754
14.8774 110.183
14.9224 157.462
14.9674 212.521
15.0124 214.792
15.0574 144.692
15.1024 88.1162
15.1474 71.3356
15.1924 69.0471
15.2374 68.2903
15.2824 67.5158
15.3274 66.3536
15.3725 65.5658
15.4175 65.3148
15.4625 64.838
15.5076 64.9398
15.5526 64.7926
15.5976 64.6583
15.6426 65.6235
15.6877 70.8336
15.7327 78.3526
15.7778 94.0205
15.8228 127.902
15.8679 174.557
15.9129 193.392
15.958 150.392
16.003 93.2926
16.0481 66.0904
16.0931 62.3967
16.1382 60.4668
16.1833 59.1791
16.2283 57.9313
16.2734 57.1467
16.3185 57.1106
16.3636 56.8389
16.4086 55.8721
16.4537 55.1007
16.4988 54.5238
16.5439 54.5697
16.589 54.2753
16.6341 54.0574
16.6792 53.6735
16.7243 53.6589
16.7694 53.7174
16.8145 53.7482
16.8596 54.0722
16.9047 54.7042
16.9498 54.8924
16.9949 54.3515
17.04 54.6211
17.0851 56.0769
17.1302 57.5553
17.1754 60.5039
17.2205 65.8646
17.2656 74.4374
17.3108 82.5021
17.3559 80.1064
17.401 69.0403
17.4462 60.9135
17.4913 58.1379
17.5365 57.9748
17.5815 58.2289
17.6268 58.629
17.6718 59.201
17.7171 59.7036
17.7622 60.1358
17.8074 61.0362
17.8525 63.3384
17.8977 66.7335
17.9428 72.4694
17.9881 81.656
18.0331 100.635
18.0784 123.347
18.1237 137.169
18.1688 126.474
18.214 100.494
18.2591 85.4156
18.3044 90.5147
18.3495 100.182
18.3948 104.269
18.4399 92.4753
18.4852 74.9274
18.5303 64.6933
18.5756 61.2522
18.6207 60.3543
18.666 59.3449
18.7112 58.72
18.7565 58.0991
18.8016 57.5422
18.8469 57.1298
18.892 56.7326
18.9374 56.3126
18.9825 55.8587
19.0278 55.9514
19.073 55.8593
19.1183 56.3084
19.1635 56.9949
19.2088 58.3369
19.254 61.1084
19.2993 66.0432
19.3447 71.3668
19.3898 74.1257
19.4352 69.7618
19.4804 61.5228
19.5257 55.3806
19.5709 53.1471
19.6163 52.8933
19.6615 52.9303
19.7068 52.2918
19.752 52.3463
19.7974 52.6364
19.8426 53.4584
19.888 53.9314
19.9332 55.4832
19.9786 57.9954
20.0238 61.9299
20.0692 66.8019
20.1144 69.2505
20.1598 67.1145
20.205 62.5484
20.2504 61.5974
20.2957 63.8291
20.3411 64.6316
20.3863 62.5424
20.4318 56.6684
20.477 52.3523
20.5224 50.2824
20.5677 49.9387
20.6131 49.4237
20.6586 48.7633
20.7038 48.787
20.7493 48.3156
20.7945 48.2254
20.84 48.0564
20.8853 47.9237
20.9307 47.9468
20.976 47.7347
21.0215 47.8188
21.0668 48.1809
21.1122 48.4909
21.1575 49.3967
21.203 50.1235
21.2483 50.6665
21.2938 50.4288
21.3391 49.1415
21.3846 48.1574
21.4299 47.4371
21.4754 47.5734
21.5207 47.8327
21.5662 48.0629
21.6116 48.3783
21.6571 49.0307
21.7024 49.9377
21.7479 51.806
21.7933 54.8068
21.8388 58.4787
21.8843 62.6242
21.9297 63.5652
21.9752 61.7169
22.0206 58.2523
22.0661 55.7795
22.1115 55.3416
22.157 55.0422
22.2024 53.2271
22.248 50.5193
22.2933 48.9065
22.3389 48.3434
22.3843 48.0501
22.4299 47.9047
22.4753 47.9186
22.5208 47.7737
22.5662 47.6773
22.6118 47.7035
22.6572 48.0261
22.7028 48.3266
22.7483 48.9309
22.7939 49.6684
22.8393 51.3435
22.8849 53.322
22.9303 55.5478
22.9759 56.9582
23.0214 56.1139
23.067 53.3018
23.1126 50.1673
23.1581 48.3633
23.2037 47.9102
23.2492 48.0045
23.2948 47.9725
23.3403 48.2004
23.3859 49.045
23.4314 49.9236
23.477 52.2079
23.5225 54.3983
23.5682 56.6266
23.6137 57.0162
23.6593 54.3352
23.7048 50.5415
23.7505 47.3641
23.796 45.8964
23.8417 45.1384
23.8872 44.7573
23.9329 44.4779
23.9784 44.093
24.0241 43.9339
24.0697 43.769
24.1154 43.3806
24.1609 43.1029
24.2066 43.0947
24.2522 42.9125
24.2979 42.7362
24.3434 42.6412
24.3892 42.3517
24.4349 42.3083
24.4805 42.2835
24.5262 42.4504
24.5718 42.3264
24.6175 42.1974
24.6631 42.2482
24.7089 41.768
24.7545 41.7827
24.8002 41.6407
24.8458 41.508
24.8916 41.4515
24.9372 41.5655
24.983 42.0407
25.0286 42.1813
25.0744 42.7089
25.12 43.0337
25.1658 43.6083
25.2114 43.9412
25.2572 44.0968
25.3029 44.3035
25.3487 44.3136
25.3943 43.6767
25.4402 42.7225
25.4858 41.6026
25.5316 40.5704
25.5773 40.3432
25.6231 40.3016
25.669 39.7651
25.7147 39.7691
25.7605 39.7828
25.8062 39.8575
25.8521 39.8679
25.8977 40.0388
25.9436 40.2528
25.9893 40.3453
26.0352 40.9112
26.0809 41.0152
26.1268 40.9853
26.1725 40.6213
26.2184 40.1538
26.2641 39.6605
26.31 39.3074
26.3557 39.5549
26.4017 39.6036
26.4474 39.7066
26.4933 40.0869
26.5391 40.6108
26.585 41.1278
26.6308 41.5158
26.6767 41.4697
26.7225 41.2117
26.7684 40.7023
26.8142 40.2526
26.8601 39.8192
26.9059 39.4076
26.9519 38.8053
26.9979 38.5774
27.0437 38.1038
27.0896 38.1624
27.1354 38.1515
27.1814 37.9927
27.2272 37.921
27.2732 37.8994
27.3191 37.7595
27.3651 37.9589
27.4109 37.7837
27.4569 37.9328
27.5027 38.0057
27.5488 38.0124
27.5946 37.7752
27.6407 37.5698
27.6865 37.4946
27.7326 37.1685
27.7784 37.2656
27.8245 37.3186
27.8703 37.4321
27.9164 37.7411
27.9623 37.8984
28.0084 38.3237
28.0543 38.5633
28.1003 38.437
28.1462 38.1728
28.1923 37.9143
28.2384 37.3063
28.2843 37.0067
28.3304 36.6408
28.3764 36.1252
28.4225 35.7378
28.4684 35.7041
28.5145 35.3627
28.5605 35.1989
28.6066 35.1216
28.6526 35.0558
28.6987 35.0367
28.7447 34.8656
28.7908 34.8283
28.8368 34.9958
28.8829 34.8148
28.9289 34.7078
28.9751 34.6423
29.0211 34.3388
29.0673 34.1087
29.1133 33.9882
29.1595 33.8452
29.2055 33.8465
29.2517 33.8241
29.2977 33.8185
29.3439 33.7637
29.3899 33.6861
29.4361 33.6328
29.4824 33.382
29.5284 33.0933
29.5746 32.8466
29.6207 32.637
29.6669 32.5516
29.713 32.4117
29.7593 32.2826
29.8053 32.2736
29.8516 32.1526
29.8977 32.3499
29.9439 32.1483
29.99 32.0191
30.0363 31.9474
30.0824 32.025
30.1287 31.9412
30.1748 31.7773
30.2211 31.9207
30.2673 31.7271
30.3136 31.8445
30.3597 31.7258
30.406 31.7116
30.4522 31.5593
30.4985 31.514
30.5447 31.6888
30.591 31.6878
30.6372 31.7143
30.6835 31.6848
30.7297 31.6439
30.7761 31.6544
30.8224 31.352
30.8686 31.3106
30.915 31.0533
30.9612 30.9227
31.0076 30.7285
31.0538 30.6487
31.1002 30.541
31.1464 30.4611
31.1928 30.3694
31.2391 30.5827
31.2855 30.399
31.3317 30.2699
31.3781 30.4069
31.4244 30.3755
31.4708 30.3492
31.5171 30.3272
31.5636 30.2423
31.6098 30.0813
31.6563 29.8747
31.7026 29.8173
31.7491 29.5883
31.7953 29.7046
31.8418 29.5911
31.8881 29.6414
31.9346 29.6161
31.9809 29.5915
32.0275 29.4368
32.074 29.3409
32.1203 29.1095
32.1668 29.0612
32.2132 28.8767
32.2597 28.7865
32.306 28.7791
32.3526 28.3929
32.399 28.5388
32.4455 28.2605
32.4919 28.3167
32.5385 28.1537
32.5848 28.0876
32.6314 28.015
32.6778 28.0172
32.7244 27.8207
32.7708 27.691
32.8174 27.7041
32.8638 27.586
32.9104 27.6114
32.9569 27.6621
33.0035 27.5053
33.0499 27.3979
33.0966 27.3748
33.143 27.4131
33.1897 27.3032
33.2361 27.1468
33.2828 27.1007
33.3293 26.9359
33.3759 26.9369
33.4226 26.8247
33.4691 26.6884
33.5158 26.6362
33.5623 26.5296
33.609 26.2798
33.6555 26.2131
33.7022 26.1403
33.7487 26.0689
33.7954 26.1441
33.842 26.0296
33.8887 25.9708
33.9353 25.8343
33.982 25.7737
34.0286 25.6468
34.0753 25.6163
34.1219 25.5334
34.1687 25.42
34.2152 25.4149
34.262 25.2741
34.3086 25.0942
34.3554 25.1477
34.402 25.0093
34.4488 24.9589
34.4954 24.8615
34.5422 24.8132
34.5889 24.6559
34.6357 24.5585
34.6825 24.5194
34.7292 24.4994
34.776 24.2691
34.8227 24.3268
34.8695 24.2867
34.9162 24.2754
34.9631 24.1313
35.0098 24.1281
35.0566 23.9532
35.1033 23.9506
35.1502 23.8292
35.1969 23.8304
35.2438 23.8437
35.2906 23.6038
35.3375 23.6663
35.3842 23.6335
35.4311 23.5516
35.4779 23.544
35.5248 23.5244
35.5716 23.3698
35.6185 23.3412
35.6653 23.259
35.7123 23.1276
35.759 23.1079
35.806 23.1406
35.8528 22.8432
35.8998 22.82
35.9468 22.7191
35.9936 22.709
36.0406 22.6339
36.0874 22.5686
36.1345 22.5297
36.1813 22.4476
36.2283 22.3752
36.2752 22.343
36.3222 22.3596
36.3691 22.2262
36.4161 22.0957
36.463 22.1196
36.5101 22.0745
36.557 22.0385
36.6041 21.8037
36.651 21.8855
36.6981 21.7404
36.745 21.6766
36.7921 21.5985
36.839 21.4828
36.8861 21.4643
36.9331 21.465
36.9802 21.3058
37.0272 21.2246
37.0743 21.1759
37.1213 21.0827
37.1684 21.0669
37.2154 21.0138
37.2626 20.8998
37.3098 20.8583
37.3568 20.753
37.404 20.7063
37.451 20.6347
37.4982 20.5549
37.5452 20.5002
37.5924 20.4841
37.6395 20.5267
37.6867 20.451
37.7337 20.2766
37.781 20.1826
37.8281 20.1407
37.8753 20.0667
37.9224 20.006
37.9697 19.9739
38.0168 19.8785
38.064 19.8476
38.1111 19.8412
38.1584 19.707
38.2056 19.6047
38.2529 19.5886
38.3 19.4973
38.3473 19.4967
38.3945 19.3277
38.4418 19.3686
38.489 19.306
38.5363 19.2068
38.5837 19.1473
38.6309 19.0609
38.6782 18.9488
38.7254 18.9697
38.7728 18.8707
38.82 18.8343
38.8674 18.7687
38.9146 18.7345
38.9621 18.6339
39.0093 18.6268
39.0567 18.5622
39.104 18.5246
39.1514 18.4048
39.1987 18.3618
39.2461 18.3577
39.2934 18.2509
39.3409 18.1687
39.3882 18.1091
39.4356 18.1009
39.483 18.0344
39.5304 17.9149
39.5778 17.8474
39.6253 17.8921
39.6726 17.8311
39.7201 17.7629
39.7675 17.6846
39.815 17.6567
39.8624 17.5654
39.9099 17.5729
39.9575 17.4864
40.0049 17.3562
40.0525 17.3196
40.0999 17.253
40.1474 17.2488
40.1949 17.1466
40.2425 17.1244
40.2899 17.1027
40.3375 17.0422
40.385 16.9648
40.4326 16.931
40.48 16.7815
40.5277 16.8358
40.5752 16.739
40.6228 16.6668
40.6703 16.6687
40.718 16.5542
40.7655 16.535
40.8132 16.532
40.8607 16.4687
40.9084 16.4719
40.9559 16.3662
41.0036 16.2958
41.0512 16.2547
41.0989 16.1927
41.1465 16.1365
41.1942 16.1
41.242 15.9889
41.2896 16.0403
41.3373 15.9277
41.3849 15.8831
41.4327 15.782
41.4803 15.7627
41.5281 15.7115
41.5758 15.6006
41.6236 15.5305
41.6712 15.564
41.7191 15.4538
41.7667 15.4008
41.8146 15.4083
41.8622 15.3096
41.9101 15.2687
41.9578 15.1997
42.0057 15.1965
42.0534 15.16
42.1013 15.1073
42.149 14.976
42.1969 15.0018
42.2446 14.9178
42.2925 14.8623
42.3403 14.8133
42.3882 14.8317
42.436 14.7794
42.4839 14.7047
42.5319 14.6338
42.5797 14.5882
42.6277 14.5581
42.6755 14.5063
42.7235 14.4182
42.7713 14.3663
42.8193 14.3128
42.8671 14.2988
42.9152 14.2558
42.963 14.2065
43.0111 14.1211
43.0589 14.0854
43.107 14.0306
43.1549 13.9883
43.2029 13.8911
43.2508 13.8978
43.2989 13.893
43.3468 13.7374
43.3949 13.7485
43.4429 13.7155
43.491 13.651
43.5389 13.621
43.5871 13.5666
43.635 13.5124
43.6832 13.493
43.7312 13.3812
43.7793 13.3243
43.8273 13.3433
43.8755 13.3029
43.9237 13.2683
43.9717 13.2536
44.0199 13.1758
44.068 13.0763
44.1162 13.0132
44.1642 13.0387
44.2125 12.9352
44.2606 12.9371
44.3088 12.895
44.3569 12.8387
44.4052 12.8044
44.4533 12.7042
44.5016 12.6893
44.5497 12.6565
44.598 12.612
44.6461 12.5656
44.6945 12.4971
44.7426 12.4746
44.791 12.4241
44.8391 12.3906
44.8875 12.3997
44.9357 12.3226
44.984 12.2591
45.0322 12.2341
45.0806 12.1475
45.1288 12.1364
45.1773 12.0773
45.2257 12.0857
45.2739 12.002
45.3224 11.9627
45.3706 11.8933
45.4191 11.8809
45.4673 11.8747
45.5158 11.8143
45.5641 11.7104
45.6126 11.6955
45.6609 11.6702
45.7094 11.6283
45.7577 11.5459
45.8063 11.5522
45.8546 11.5015
45.9031 11.4483
45.9515 11.409
46.0001 11.3699
46.0484 11.3588
46.097 11.3313
46.1454 11.2629
46.194 11.2264
46.2424 11.1884
46.291 11.1273
46.3395 11.1052
46.3881 11.0531
46.4365 11.0337
46.4852 10.9607
46.5337 10.9278
46.5823 10.9317
46.631 10.8495
46.6795 10.8323
46.7282 10.7825
46.7767 10.7238
46.8254 10.7293
46.8739 10.6764
46.9226 10.6338
46.9712 10.5889
47.0199 10.5423
47.0685 10.4602
47.1173 10.4783
47.1658 10.4123
47.2146 10.4001
47.2632 10.3259
47.312 10.2882
47.3606 10.2354
47.4095 10.2187
47.4581 10.2097
47.5069 10.1295
47.5556 10.1037
47.6044 10.0342
47.6531 10.0147
47.702 9.96393
47.7507 9.94286
47.7996 9.91638
47.8483 9.88622
47.8972 9.89095
47.9461 9.77025
47.9948 9.79517
48.0438 9.7187
48.0925 9.7364
48.1415 9.66894
48.1902 9.64229
48.2392 9.63197
48.288 9.57575
48.337 9.53265
48.3858 9.50187
48.4348 9.48046
48.4837 9.42824
48.5327 9.44943
48.5815 9.40461
48.6306 9.34137
48.6795 9.33534
48.7285 9.24984
48.7774 9.25141
48.8265 9.22141
48.8754 9.1324
48.9245 9.10805
48.9734 9.08078
49.0226 9.07764
49.0715 9.04184
49.1206 9.03295
49.1696 8.94228
49.2188 8.92297
49.2679 8.89312
49.3169 8.85499
49.3661 8.83998
49.4151 8.78462
49.4643 8.75182
49.5134 8.73883
49.5626 8.68084
49.6117 8.64531
49.6609 8.6393
49.71 8.56918
49.7592 8.5436
49.8083 8.49371
49.8576 8.49465
49.9067 8.44579
49.956 8.44614
50.0052 8.39495
50.0545 8.37944
50.1036 8.30633
50.153 8.27018
50.2022 8.27336
50.2515 8.20915
50.3007 8.17236
50.3501 8.15779
50.3993 8.17853
50.4487 8.13332
50.498 8.05036
50.5474 8.07233
50.5966 7.99954
50.6461 8.01147
50.6955 7.97864
50.7448 7.93354
50.7943 7.8846
50.8436 7.85999
50.8931 7.81474
50.9424 7.78745
50.9919 7.73326
51.0413 7.74184
51.0908 7.71613
51.1402 7.67554
51.1897 7.65622
51.2391 7.62279
51.2887 7.57442
51.3381 7.51302
51.3877 7.50376
51.4371 7.46058
51.4867 7.46055
51.5362 7.45778
51.5858 7.40391
51.6353 7.34942
51.6849 7.34835
51.7344 7.33795
51.7841 7.26389
51.8336 7.24275
51.8833 7.22564
51.9328 7.20145
51.9826 7.16686
52.0323 7.13795
52.0818 7.07458
52.1316 7.07809
52.1812 7.04548
52.231 7.02362
52.2806 6.98743
52.3304 6.9704
52.38 6.89606
52.4298 6.95561
52.4794 6.84806
52.5293 6.83775
52.5789 6.7798
52.6288 6.78414
52.6785 6.75308
52.7284 6.72496
52.7781 6.72329
52.828 6.63868
52.8777 6.61506
52.9276 6.60061
52.9774 6.61585
53.0273 6.59091
53.0771 6.56157
53.1271 6.52689
53.1769 6.45864
53.2269 6.47339
53.2767 6.39233
53.3267 6.40557
53.3765 6.3929
53.4266 6.37955
53.4766 6.30066
53.5265 6.33132
53.5765 6.25293
53.6264 6.26292
53.6765 6.20028
53.7264 6.19643
53.7765 6.15386
53.8265 6.15785
53.8766 6.12848
53.9266 6.08552
53.9767 6.05653
54.0267 6.05625
54.0769 6.01667
54.1269 5.94127
54.1771 5.94091
54.2271 5.92483
54.2773 5.83381
54.3274 5.88482
54.3776 5.81033
54.4277 5.80004
54.478 5.7211
54.528 5.71974
54.5783 5.66746
54.6285 5.64861
54.6788 5.59591
54.7289 5.56123
54.7792 5.5581
54.8296 5.4386
54.8798 5.40021
54.9301 5.39391
54.9803 5.38385
55.0307 5.26335
55.0809 5.30748
55.1314 5.25764
55.1816 5.1909
55.232 5.13876
55.2823 5.05196
55.3328 5.09131
55.383 5.02894
55.4335 4.99528
55.4838 4.92036
55.5344 4.82131
55.5847 4.85288
55.6352 4.76662
55.6856 4.80832
55.7361 4.78978