File: XRD/Ni3Fe_FD0615.xy
TT I
1.27165 7.89802
1.31627 6.37288
1.36089 6.78208
1.40551 5.68429
1.45013 6.0831
1.49476 6.64302
1.53938 5.84907
1.584 6.11753
1.62863 5.36918
1.67325 4.8601
1.71787 4.60686
1.7625 4.81202
1.80712 4.98492
1.85174 4.2954
1.89636 4.19389
1.94099 4.73151
1.98562 4.34578
2.03025 4.52695
2.07487 4.3168
2.11949 4.56469
2.16411 4.63291
2.20874 13.077
2.25338 21.3229
2.298 5.87264
2.34263 4.84717
2.38725 6.35285
2.43188 6.1054
2.4765 6.4094
2.52115 7.02185
2.56577 7.27549
2.6104 8.50732
2.65503 7.57156
2.69965 8.49481
2.7443 8.18993
2.78893 8.30998
2.83356 8.35574
2.87818 8.35948
2.92281 8.86157
2.96744 9.06329
3.01209 10.304
3.05672 11.0959
3.10135 12.2396
3.14599 12.967
3.19062 14.0969
3.23527 14.7085
3.2799 15.3516
3.32454 17.0232
3.36917 17.6383
3.4138 18.7124
3.45844 19.2721
3.50309 20.9602
3.54773 21.5444
3.59237 24.1661
3.637 86.1595
3.68164 55.4128
3.7263 26.3032
3.77094 26.0668
3.81558 26.6007
3.86022 27.3897
3.90486 29.3527
3.9495 29.9843
3.99416 31.0064
4.0388 32.4495
4.08344 33.6001
4.12809 35.2767
4.17273 37.0442
4.21738 42.8729
4.26204 231.072
4.30669 198.763
4.35133 49.104
4.39598 44.1444
4.44063 53.8809
4.4853 63.8318
4.52995 50.2286
4.5746 51.5766
4.61925 53.7082
4.6639 55.8468
4.70855 58.3594
4.75322 61.3702
4.79788 64.4408
4.84253 67.5049
4.88719 71.5995
4.93184 75.6795
4.97652 81.5403
5.02118 87.7502
5.06583 95.1536
5.11049 106.816
5.15515 170.677
5.19981 357.268
5.24449 2940.04
5.28916 12550.5
5.33382 2970.39
5.37848 195.2
5.42315 130.511
5.46783 115.006
5.5125 106.631
5.55716 103.061
5.60183 99.9758
5.6465 97.2266
5.69117 94.9853
5.73586 92.9773
5.78053 92.238
5.8252 91.4451
5.86988 92.6326
5.91455 95.1919
5.95924 102.593
6.00392 208.724
6.0486 987.423
6.09328 4395.23
6.13795 3473.2
6.18263 251.069
6.22733 94.543
6.27201 84.0313
6.3167 100.618
6.36138 80.2404
6.40606 69.7474
6.45075 67.5032
6.49545 65.6453
6.54014 64.403
6.58483 63.1037
6.62952 63.0497
6.67421 92.598
6.71892 136.906
6.76361 68.3879
6.8083 58.7385
6.853 57.5872
6.89769 57.3987
6.94239 57.0047
6.98711 56.3575
7.03181 55.9349
7.07651 55.6665
7.12121 55.4876
7.16591 55.5996
7.21063 55.7009
7.25533 70.2072
7.30004 169.65
7.34475 87.9018
7.38945 56.8827
7.43416 54.9651
7.47889 54.9687
7.5236 55.0186
7.56831 55.782
7.61303 57.4334
7.65774 57.4411
7.70247 56.4558
7.74719 56.278
7.79191 56.7423
7.83663 57.0575
7.88135 58.6123
7.92607 58.9353
7.97081 60.2488
8.01553 61.124
8.06026 62.6847
8.10498 64.3379
8.14971 72.8984
8.19446 72.1063
8.23919 69.9552
8.28392 72.5854
8.32865 74.5532
8.37339 78.4546
8.41812 85.6776
8.46288 112.963
8.50761 163.958
8.55235 394.665
8.59709 1205.62
8.64183 2212.47
8.68658 999.796
8.73134 189.673
8.77609 100.464
8.82083 93.418
8.86558 90.2789
8.91033 90.4002
8.9551 91.584
8.99985 85.9277
9.04461 84.0759
9.08936 83.423
9.13412 82.7708
9.17888 82.7322
9.22365 83.0506
9.26841 82.5481
9.31318 83.108
9.35794 83.0555
9.4027 83.4871
9.44749 85.0827
9.49226 85.3961
9.53703 86.177
9.5818 87.5491
9.62657 92.1006
9.67134 98.7716
9.71614 93.7509
9.76091 94.6609
9.80569 96.5777
9.85047 100.544
9.89525 123.408
9.94005 134.905
9.98484 176.862
10.0296 345.035
10.0744 828.65
10.1192 1703.56
10.164 1575.15
10.2088 413.494
10.2536 128.78
10.2984 114.232
10.3432 115.025
10.388 105.216
10.4328 118.876
10.4776 161.697
10.5224 286.757
10.5672 504.285
10.612 490.294
10.6568 206.556
10.7017 97.4023
10.7465 87.7107
10.7913 83.8231
10.8361 81.4553
10.8809 79.3629
10.9257 78.7151
10.9706 79.2337
11.0154 74.9332
11.0602 73.1341
11.105 72.4676
11.1499 76.3013
11.1947 82.7869
11.2395 74.5877
11.2844 70.614
11.3292 67.8099
11.374 66.5394
11.4189 65.8673
11.4637 65.18
11.5086 65.9812
11.5534 68.5687
11.5983 65.7206
11.6431 63.7981
11.688 63.5693
11.7328 63.4327
11.7777 63.2705
11.8225 63.1414
11.8674 62.951
11.9122 63.1883
11.9571 63.2625
12.002 63.9814
12.0468 68.162
12.0917 79.5768
12.1366 103.737
12.1814 153.862
12.2263 198.493
12.2712 167.658
12.3161 97.7374
12.3609 70.6145
12.4058 64.8506
12.4507 64.4546
12.4956 64.7232
12.5405 64.8771
12.5853 65.9576
12.6302 73.2236
12.6751 77.9666
12.72 70.0149
12.7649 68.3418
12.8098 68.5363
12.8547 70.078
12.8996 71.3094
12.9445 72.7269
12.9894 74.6694
13.0343 76.2422
13.0792 79.2867
13.1242 88.4471
13.1691 112.323
13.214 150.965
13.2589 242.122
13.3038 367.413
13.3487 420.069
13.3937 269.795
13.4386 128.582
13.4835 106.356
13.5285 121.341
13.5734 160.751
13.6183 249.66
13.6633 346.033
13.7082 340.579
13.7531 191.787
13.7981 99.9067
13.843 82.5016
13.888 80.1482
13.9329 77.5147
13.9779 76.4123
14.0228 74.8216
14.0678 73.4331
14.1127 73.0363
14.1577 72.7088
14.2027 71.8517
14.2476 71.0502
14.2926 70.9738
14.3376 72.1228
14.3825 70.3891
14.4275 69.2543
14.4725 69.1816
14.5175 69.1135
14.5624 69.2597
14.6074 71.3023
14.6524 72.0099
14.6974 70.8591
14.7424 72.5624
14.7874 78.9486
14.8324 89.3834
14.8774 112.657
14.9224 156.386
14.9674 205.25
15.0124 212.727
15.0574 151.825
15.1024 93.1787
15.1474 73.103
15.1924 71.0058
15.2374 71.3262
15.2824 70.525
15.3274 68.594
15.3725 67.4549
15.4175 66.8699
15.4625 66.5446
15.5076 66.5162
15.5526 66.7547
15.5976 66.0476
15.6426 67.0947
15.6877 72.461
15.7327 80.2919
15.7778 96.0188
15.8228 127.864
15.8679 168.887
15.9129 190.813
15.958 155.768
16.003 98.5039
16.0481 68.9664
16.0931 65.0876
16.1382 63.0669
16.1833 60.9023
16.2283 59.3305
16.2734 58.8618
16.3185 59.3314
16.3636 59.5469
16.4086 58.2143
16.4537 56.7065
16.4988 55.7137
16.5439 55.7093
16.589 55.5663
16.6341 55.2989
16.6792 54.8917
16.7243 55.1889
16.7694 55.3494
16.8145 55.1924
16.8596 55.4559
16.9047 57.0232
16.9498 57.3053
16.9949 56.0317
17.04 56.3945
17.0851 57.4363
17.1302 59.0435
17.1754 62.2402
17.2205 67.3561
17.2656 75.1041
17.3108 82.4928
17.3559 82.4598
17.401 72.4037
17.4462 63.0622
17.4913 59.7371
17.5365 59.4962
17.5815 59.6875
17.6268 59.7892
17.6718 60.8185
17.7171 61.2652
17.7622 61.81
17.8074 62.1429
17.8525 64.4594
17.8977 68.6675
17.9428 74.3359
17.9881 83.1919
18.0331 101.039
18.0784 122.184
18.1237 138.781
18.1688 131.735
18.214 105.434
18.2591 88.5682
18.3044 91.6189
18.3495 100.24
18.3948 105.416
18.4399 97.0833
18.4852 78.6693
18.5303 66.7509
18.5756 62.6837
18.6207 61.7377
18.666 60.6704
18.7112 60.0338
18.7565 59.2454
18.8016 59.1622
18.8469 58.5598
18.892 58.2569
18.9374 57.6379
18.9825 57.5712
19.0278 57.3511
19.073 57.3784
19.1183 57.7427
19.1635 58.5426
19.2088 60.0098
19.254 62.6408
19.2993 67.1956
19.3447 73.2894
19.3898 76.155
19.4352 72.7056
19.4804 64.1498
19.5257 57.6028
19.5709 54.7499
19.6163 54.0094
19.6615 54.1697
19.7068 53.7477
19.752 53.7209
19.7974 53.8457
19.8426 54.641
19.888 55.303
19.9332 56.7527
19.9786 59.2605
20.0238 62.8123
20.0692 67.392
20.1144 69.7256
20.1598 68.4398
20.205 64.0603
20.2504 62.7641
20.2957 64.2259
20.3411 65.7993
20.3863 64.4811
20.4318 59.219
20.477 54.229
20.5224 51.9332
20.5677 51.212
20.6131 50.5196
20.6586 49.9564
20.7038 49.9645
20.7493 49.3087
20.7945 49.44
20.84 49.08
20.8853 49.2206
20.9307 48.9338
20.976 49.072
21.0215 48.7964
21.0668 49.2791
21.1122 49.7038
21.1575 50.4897
21.203 51.2206
21.2483 51.464
21.2938 51.6193
21.3391 50.483
21.3846 49.067
21.4299 48.7704
21.4754 48.8146
21.5207 48.8093
21.5662 48.9708
21.6116 49.5526
21.6571 50.1428
21.7024 51.0732
21.7479 53.0582
21.7933 55.7455
21.8388 59.2336
21.8843 62.7711
21.9297 64.525
21.9752 63.4685
22.0206 60.0869
22.0661 57.1739
22.1115 56.3546
22.157 56.1276
22.2024 54.639
22.248 51.9475
22.2933 50.1899
22.3389 49.4525
22.3843 49.3582
22.4299 49.1464
22.4753 49.2291
22.5208 48.9898
22.5662 48.8319
22.6118 48.9356
22.6572 49.0197
22.7028 49.5006
22.7483 49.9891
22.7939 50.5559
22.8393 52.3799
22.8849 54.317
22.9303 56.5833
22.9759 57.9827
23.0214 57.5984
23.067 54.9566
23.1126 51.546
23.1581 49.7034
23.2037 48.9962
23.2492 49.1099
23.2948 49.0803
23.3403 49.4175
23.3859 50.0526
23.4314 51.1992
23.477 52.9451
23.5225 55.2312
23.5682 57.1271
23.6137 57.9034
23.6593 55.6201
23.7048 51.9777
23.7505 48.804
23.796 46.896
23.8417 46.3525
23.8872 45.9647
23.9329 45.4637
23.9784 45.0154
24.0241 45.0233
24.0697 44.7979
24.1154 44.2911
24.1609 44.1898
24.2066 44.0937
24.2522 44.0401
24.2979 43.6835
24.3434 43.5612
24.3892 43.2883
24.4349 43.3708
24.4805 43.1028
24.5262 43.3299
24.5718 43.1661
24.6175 43.2084
24.6631 42.901
24.7089 42.8472
24.7545 42.7196
24.8002 42.5577
24.8458 42.4012
24.8916 42.2994
24.9372 42.3674
24.983 42.6118
25.0286 43.2755
25.0744 43.514
25.12 43.9639
25.1658 44.4218
25.2114 44.9514
25.2572 44.9999
25.3029 45.0474
25.3487 45.0413
25.3943 44.7331
25.4402 43.7343
25.4858 42.7102
25.5316 41.8349
25.5773 41.1813
25.6231 41.1557
25.669 40.7848
25.7147 40.7571
25.7605 40.7134
25.8062 40.802
25.8521 40.7444
25.8977 40.7969
25.9436 41.1018
25.9893 41.3086
26.0352 41.6444
26.0809 41.6455
26.1268 41.7574
26.1725 41.6259
26.2184 41.1283
26.2641 40.5128
26.31 40.4089
26.3557 40.3539
26.4017 40.3404
26.4474 40.5863
26.4933 41.0055
26.5391 41.437
26.585 41.9358
26.6308 42.2397
26.6767 42.3085
26.7225 42.1952
26.7684 41.5796
26.8142 41.1611
26.8601 40.6021
26.9059 40.3049
26.9519 39.6792
26.9979 39.542
27.0437 39.2391
27.0896 38.9263
27.1354 39.0301
27.1814 38.8559
27.2272 38.7649
27.2732 38.7078
27.3191 38.6763
27.3651 38.723
27.4109 38.51
27.4569 38.7655
27.5027 38.7281
27.5488 38.8218
27.5946 38.6086
27.6407 38.403
27.6865 38.3237
27.7326 38.188
27.7784 38.0706
27.8245 38.046
27.8703 38.3145
27.9164 38.5257
27.9623 38.6854
28.0084 39.0495
28.0543 39.1548
28.1003 39.141
28.1462 39.0197
28.1923 38.6747
28.2384 38.1103
28.2843 37.8396
28.3304 37.4463
28.3764 36.9669
28.4225 36.7014
28.4684 36.5466
28.5145 36.1895
28.5605 36.0405
28.6066 35.8634
28.6526 35.8577
28.6987 35.8001
28.7447 35.8596
28.7908 35.6358
28.8368 35.7061
28.8829 35.5665
28.9289 35.4911
28.9751 35.4178
29.0211 35.1001
29.0673 34.8017
29.1133 34.7121
29.1595 34.6876
29.2055 34.595
29.2517 34.5228
29.2977 34.5598
29.3439 34.538
29.3899 34.4773
29.4361 34.405
29.4824 34.2215
29.5284 33.8308
29.5746 33.5987
29.6207 33.3618
29.6669 33.3455
29.713 33.2454
29.7593 33.0588
29.8053 33.0811
29.8516 33.0248
29.8977 32.8981
29.9439 32.8677
29.99 32.8877
30.0363 32.5266
30.0824 32.7278
30.1287 32.6878
30.1748 32.5959
30.2211 32.6574
30.2673 32.4718
30.3136 32.566
30.3597 32.4563
30.406 32.4122
30.4522 32.2767
30.4985 32.1557
30.5447 32.322
30.591 32.2649
30.6372 32.4255
30.6835 32.2882
30.7297 32.4076
30.7761 32.3988
30.8224 32.1241
30.8686 32.1159
30.915 31.7801
30.9612 31.7184
31.0076 31.5722
31.0538 31.3998
31.1002 31.2933
31.1464 31.146
31.1928 31.0648
31.2391 31.1989
31.2855 31.1103
31.3317 31.0017
31.3781 31.1534
31.4244 31.0951
31.4708 30.9538
31.5171 30.9703
31.5636 30.9704
31.6098 30.7124
31.6563 30.6217
31.7026 30.4256
31.7491 30.37
31.7953 30.4023
31.8418 30.2511
31.8881 30.3346
31.9346 30.2403
31.9809 30.1944
32.0275 30.105
32.074 29.9292
32.1203 29.7644
32.1668 29.7572
32.2132 29.573
32.2597 29.3515
32.306 29.3415
32.3526 29.1708
32.399 29.0755
32.4455 28.9754
32.4919 28.8293
32.5385 28.8311
32.5848 28.6036
32.6314 28.712
32.6778 28.6475
32.7244 28.5397
32.7708 28.4216
32.8174 28.3098
32.8638 28.2887
32.9104 28.1804
32.9569 28.2466
33.0035 28.1037
33.0499 28.0225
33.0966 27.9837
33.143 27.9411
33.1897 27.8405
33.2361 27.7675
33.2828 27.7854
33.3293 27.611
33.3759 27.5731
33.4226 27.4527
33.4691 27.2642
33.5158 27.14
33.5623 27.1327
33.609 26.8962
33.6555 26.8802
33.7022 26.705
33.7487 26.6999
33.7954 26.6331
33.842 26.5181
33.8887 26.4837
33.9353 26.4527
33.982 26.2962
34.0286 26.2264
34.0753 26.124
34.1219 26.0721
34.1687 26.0332
34.2152 25.9771
34.262 25.8395
34.3086 25.6983
34.3554 25.6973
34.402 25.5756
34.4488 25.4693
34.4954 25.3663
34.5422 25.285
34.5889 25.2877
34.6357 25.1904
34.6825 25.1166
34.7292 24.983
34.776 24.9926
34.8227 24.8058
34.8695 24.7965
34.9162 24.7403
34.9631 24.5859
35.0098 24.6592
35.0566 24.476
35.1033 24.4624
35.1502 24.4772
35.1969 24.3271
35.2438 24.2877
35.2906 24.2321
35.3375 24.247
35.3842 24.187
35.4311 24.1334
35.4779 24.0504
35.5248 24.0538
35.5716 24.0144
35.6185 23.8814
35.6653 23.8172
35.7123 23.5896
35.759 23.616
35.806 23.5258
35.8528 23.3423
35.8998 23.371
35.9468 23.2122
35.9936 23.242
36.0406 23.169
36.0874 23.0212
36.1345 23.0195
36.1813 22.9354
36.2283 22.8186
36.2752 22.7643
36.3222 22.8068
36.3691 22.7169
36.4161 22.6092
36.463 22.5761
36.5101 22.5963
36.557 22.4264
36.6041 22.2617
36.651 22.3533
36.6981 22.267
36.745 22.1795
36.7921 22.1488
36.839 22.0168
36.8861 21.9616
36.9331 21.8422
36.9802 21.8123
37.0272 21.7391
37.0743 21.6614
37.1213 21.6313
37.1684 21.5462
37.2154 21.5298
37.2626 21.4252
37.3098 21.2788
37.3568 21.3096
37.404 21.2046
37.451 21.1705
37.4982 21.056
37.5452 21.0195
37.5924 20.9182
37.6395 20.9671
37.6867 20.8859
37.7337 20.779
37.781 20.6648
37.8281 20.6207
37.8753 20.5906
37.9224 20.443
37.9697 20.4524
38.0168 20.3378
38.064 20.286
38.1111 20.2277
38.1584 20.164
38.2056 20.0741
38.2529 19.9859
38.3 19.9526
38.3473 19.9029
38.3945 19.8315
38.4418 19.7658
38.489 19.7356
38.5363 19.6466
38.5837 19.653
38.6309 19.5397
38.6782 19.4889
38.7254 19.3868
38.7728 19.3136
38.82 19.2575
38.8674 19.2343
38.9146 19.12
38.9621 19.1334
39.0093 19.0473
39.0567 18.9666
39.104 18.9232
39.1514 18.8282
39.1987 18.8474
39.2461 18.7456
39.2934 18.6912
39.3409 18.66
39.3882 18.4848
39.4356 18.4855
39.483 18.3572
39.5304 18.3466
39.5778 18.3332
39.6253 18.2878
39.6726 18.2036
39.7201 18.1686
39.7675 18.121
39.815 18.0582
39.8624 18.0066
39.9099 17.9617
39.9575 17.7957
40.0049 17.7541
40.0525 17.7084
40.0999 17.7191
40.1474 17.6125
40.1949 17.5513
40.2425 17.5141
40.2899 17.4715
40.3375 17.3973
40.385 17.359
40.4326 17.2652
40.48 17.2878
40.5277 17.2128
40.5752 17.1713
40.6228 17.0547
40.6703 17.0294
40.718 17.0022
40.7655 16.9333
40.8132 16.8094
40.8607 16.8079
40.9084 16.7586
40.9559 16.7163
41.0036 16.6678
41.0512 16.6396
41.0989 16.6155
41.1465 16.5161
41.1942 16.424
41.242 16.3765
41.2896 16.3047
41.3373 16.2657
41.3849 16.2577
41.4327 16.2082
41.4803 16.1106
41.5281 16.0606
41.5758 15.9759
41.6236 16.0181
41.6712 15.9143
41.7191 15.8733
41.7667 15.7381
41.8146 15.7319
41.8622 15.6929
41.9101 15.6237
41.9578 15.5281
42.0057 15.5304
42.0534 15.5184
42.1013 15.3783
42.149 15.3393
42.1969 15.2568
42.2446 15.2734
42.2925 15.2444
42.3403 15.1571
42.3882 15.1207
42.436 15.0432
42.4839 15.0463
42.5319 14.9764
42.5797 14.8859
42.6277 14.8611
42.6755 14.8601
42.7235 14.7721
42.7713 14.74
42.8193 14.6502
42.8671 14.6345
42.9152 14.525
42.963 14.5133
43.0111 14.4346
43.0589 14.4361
43.107 14.3183
43.1549 14.3638
43.2029 14.2333
43.2508 14.2088
43.2989 14.1198
43.3468 14.0963
43.3949 14.0619
43.4429 14.1392
43.491 13.9798
43.5389 13.9045
43.5871 13.8578
43.635 13.8265
43.6832 13.7842
43.7312 13.757
43.7793 13.6943
43.8273 13.6347
43.8755 13.6131
43.9237 13.4822
43.9717 13.5248
44.0199 13.4323
44.068 13.4515
44.1162 13.3381
44.1642 13.367
44.2125 13.2899
44.2606 13.2164
44.3088 13.1747
44.3569 13.1136
44.4052 13.0966
44.4533 13.0396
44.5016 12.985
44.5497 12.9361
44.598 12.9183
44.6461 12.8307
44.6945 12.8196
44.7426 12.7293
44.791 12.6994
44.8391 12.6874
44.8875 12.643
44.9357 12.6111
44.984 12.5327
45.0322 12.4941
45.0806 12.425
45.1288 12.3865
45.1773 12.3909
45.2257 12.3524
45.2739 12.2659
45.3224 12.2086
45.3706 12.1978
45.4191 12.1171
45.4673 12.1037
45.5158 12.1066
45.5641 11.971
45.6126 11.9446
45.6609 11.9381
45.7094 11.8918
45.7577 11.8327
45.8063 11.7895
45.8546 11.7863
45.9031 11.7426
45.9515 11.6872
46.0001 11.6529
46.0484 11.6046
46.097 11.5785
46.1454 11.5476
46.194 11.48
46.2424 11.4494
46.291 11.3687
46.3395 11.3365
46.3881 11.3189
46.4365 11.2923
46.4852 11.2478
46.5337 11.2108
46.5823 11.1815
46.631 11.0903
46.6795 11.1138
46.7282 11.0653
46.7767 10.984
46.8254 10.9278
46.8739 10.8933
46.9226 10.8779
46.9712 10.8135
47.0199 10.7732
47.0685 10.7571
47.1173 10.693
47.1658 10.6341
47.2146 10.6239
47.2632 10.5494
47.312 10.5383
47.3606 10.5211
47.4095 10.4514
47.4581 10.451
47.5069 10.3849
47.5556 10.3428
47.6044 10.2943
47.6531 10.2405
47.702 10.2649
47.7507 10.2127
47.7996 10.1754
47.8483 10.1061
47.8972 10.0819
47.9461 10.047
47.9948 10.0126
48.0438 9.93008
48.0925 9.95789
48.1415 9.88867
48.1902 9.85471
48.2392 9.84237
48.288 9.83474
48.337 9.77238
48.3858 9.72288
48.4348 9.70121
48.4837 9.65648
48.5327 9.62942
48.5815 9.59137
48.6306 9.57464
48.6795 9.51832
48.7285 9.48094
48.7774 9.46279
48.8265 9.44407
48.8754 9.38485
48.9245 9.37351
48.9734 9.31694
49.0226 9.29082
49.0715 9.24873
49.1206 9.20795
49.1696 9.14301
49.2188 9.14328
49.2679 9.11172
49.3169 9.05352
49.3661 9.01298
49.4151 9.01146
49.4643 8.9441
49.5134 8.92563
49.5626 8.85958
49.6117 8.86397
49.6609 8.84553
49.71 8.76234
49.7592 8.77442
49.8083 8.7235
49.8576 8.70131
49.9067 8.61853
49.956 8.62633
50.0052 8.57134
50.0545 8.54059
50.1036 8.52347
50.153 8.50688
50.2022 8.48384
50.2515 8.44841
50.3007 8.36681
50.3501 8.36446
50.3993 8.29276
50.4487 8.3014
50.498 8.26178
50.5474 8.18789
50.5966 8.20363
50.6461 8.17856
50.6955 8.13707
50.7448 8.10895
50.7943 8.08085
50.8436 8.03878
50.8931 7.96473
50.9424 7.98803
50.9919 7.95405
51.0413 7.9358
51.0908 7.84986
51.1402 7.86779
51.1897 7.84573
51.2391 7.8162
51.2887 7.76466
51.3381 7.70088
51.3877 7.72101
51.4371 7.67552
51.4867 7.6412
51.5362 7.62854
51.5858 7.55731
51.6353 7.5046
51.6849 7.49851
51.7344 7.47419
51.7841 7.43857
51.8336 7.43074
51.8833 7.40513
51.9328 7.35423
51.9826 7.30792
52.0323 7.25514
52.0818 7.27745
52.1316 7.20366
52.1812 7.25981
52.231 7.17018
52.2806 7.13852
52.3304 7.0943
52.38 7.0792
52.4298 7.03252
52.4794 7.02444
52.5293 6.97793
52.5789 6.96605
52.6288 6.93781
52.6785 6.88868
52.7284 6.91383
52.7781 6.84293
52.828 6.82746
52.8777 6.79548
52.9276 6.75904
52.9774 6.78113
53.0273 6.72469
53.0771 6.70741
53.1271 6.66464
53.1769 6.60297
53.2269 6.58993
53.2767 6.58378
53.3267 6.52082
53.3765 6.51272
53.4266 6.48837
53.4766 6.40668
53.5265 6.4078
53.5765 6.42923
53.6264 6.36994
53.6765 6.34306
53.7264 6.3499
53.7765 6.29376
53.8265 6.24801
53.8766 6.24826
53.9266 6.19342
53.9767 6.13732
54.0267 6.15832
54.0769 6.14067
54.1269 6.13081
54.1771 6.01912
54.2271 6.01436
54.2773 6.01559
54.3274 5.98533
54.3776 5.90808
54.4277 5.86745
54.478 5.84092
54.528 5.8692
54.5783 5.77901
54.6285 5.73965
54.6788 5.69341
54.7289 5.67972
54.7792 5.64531
54.8296 5.55178
54.8798 5.59316
54.9301 5.53289
54.9803 5.47393
55.0307 5.44944
55.0809 5.36624
55.1314 5.38094
55.1816 5.27267
55.232 5.27162
55.2823 5.2489
55.3328 5.13432
55.383 5.07157
55.4335 5.09571
55.4838 4.9939
55.5344 5.00282
55.5847 4.89148
55.6352 4.91676
55.6856 4.8791
55.7361 4.81402