File: XRD/Ni3Fe_FD0522.xy
TT I
1.27165 7.55561
1.31627 7.48467
1.36089 6.55686
1.40551 5.57214
1.45013 5.90375
1.49476 5.8696
1.53938 5.95092
1.584 5.48098
1.62863 5.51667
1.67325 5.28003
1.71787 4.85655
1.7625 4.79622
1.80712 4.99306
1.85174 4.33318
1.89636 4.53656
1.94099 5.13085
1.98562 5.28682
2.03025 5.04544
2.07487 4.47623
2.11949 5.16617
2.16411 4.68431
2.20874 16.1098
2.25338 26.8191
2.298 6.20216
2.34263 5.62629
2.38725 6.05695
2.43188 5.96116
2.4765 7.01767
2.52115 6.79177
2.56577 7.59324
2.6104 8.2084
2.65503 7.45792
2.69965 8.09499
2.7443 8.11975
2.78893 8.03741
2.83356 8.45564
2.87818 8.10482
2.92281 8.89107
2.96744 9.15175
3.01209 10.9231
3.05672 10.6381
3.10135 11.9759
3.14599 12.8286
3.19062 13.9282
3.23527 14.7851
3.2799 15.4301
3.32454 16.9557
3.36917 17.6051
3.4138 19.115
3.45844 20.2428
3.50309 21.1495
3.54773 21.8986
3.59237 24.7571
3.637 106.643
3.68164 66.129
3.7263 26.4371
3.77094 26.6446
3.81558 27.1716
3.86022 28.0357
3.90486 29.057
3.9495 30.113
3.99416 31.3094
4.0388 32.1144
4.08344 34.217
4.12809 35.7693
4.17273 37.9404
4.21738 44.8618
4.26204 287.126
4.30669 253.647
4.35133 50.1935
4.39598 45.0708
4.44063 56.1886
4.4853 69.9858
4.52995 51.0511
4.5746 51.3737
4.61925 53.3729
4.6639 56.1394
4.70855 58.4724
4.75322 61.4053
4.79788 63.8693
4.84253 67.5504
4.88719 71.5447
4.93184 75.4816
4.97652 81.1778
5.02118 87.9035
5.06583 95.1907
5.11049 107.213
5.15515 185.444
5.19981 379.109
5.24449 2824.15
5.28916 11862.0
5.33382 3321.17
5.37848 205.982
5.42315 133.462
5.46783 115.92
5.5125 107.632
5.55716 103.036
5.60183 99.9346
5.6465 98.0876
5.69117 95.3786
5.73586 93.0184
5.78053 92.4353
5.8252 92.1191
5.86988 92.6852
5.91455 95.2856
5.95924 103.342
6.00392 209.023
6.0486 967.52
6.09328 4134.44
6.13795 3477.22
6.18263 293.092
6.22733 97.8698
6.27201 84.9042
6.3167 108.964
6.36138 83.565
6.40606 69.6412
6.45075 68.4907
6.49545 66.5327
6.54014 64.8302
6.58483 64.041
6.62952 64.0415
6.67421 100.478
6.71892 162.323
6.76361 71.2605
6.8083 59.6278
6.853 58.2278
6.89769 57.8941
6.94239 57.4574
6.98711 56.6519
7.03181 56.8288
7.07651 56.217
7.12121 55.9703
7.16591 56.3056
7.21063 56.7447
7.25533 73.4364
7.30004 208.208
7.34475 101.497
7.38945 57.9192
7.43416 55.6346
7.47889 55.08
7.5236 55.5639
7.56831 56.1698
7.61303 58.1078
7.65774 58.6977
7.70247 56.9039
7.74719 56.6774
7.79191 57.0168
7.83663 57.5296
7.88135 58.2175
7.92607 59.512
7.97081 60.2774
8.01553 61.6162
8.06026 62.9755
8.10498 64.4755
8.14971 75.7885
8.19446 74.0925
8.23919 70.0216
8.28392 72.1778
8.32865 74.8415
8.37339 78.9895
8.41812 86.7149
8.46288 119.708
8.50761 165.995
8.55235 386.055
8.59709 1122.66
8.64183 2141.16
8.68658 1070.55
8.73134 192.926
8.77609 102.316
8.82083 94.1362
8.86558 90.7209
8.91033 91.546
8.9551 93.4713
8.99985 86.1573
9.04461 84.4075
9.08936 83.47
9.13412 82.5162
9.17888 82.908
9.22365 83.5232
9.26841 83.1589
9.31318 83.2118
9.35794 83.5592
9.4027 83.7811
9.44749 84.2681
9.49226 85.1353
9.53703 86.3075
9.5818 87.9998
9.62657 93.284
9.67134 101.655
9.71614 95.0919
9.76091 94.8121
9.80569 97.2135
9.85047 100.34
9.89525 128.333
9.94005 142.743
9.98484 176.536
10.0296 340.738
10.0744 766.51
10.1192 1625.16
10.164 1648.22
10.2088 456.721
10.2536 134.981
10.2984 116.283
10.3432 119.071
10.388 106.161
10.4328 118.649
10.4776 159.149
10.5224 274.234
10.5672 495.861
10.612 535.063
10.6568 226.716
10.7017 100.233
10.7465 87.7489
10.7913 84.0663
10.8361 82.0515
10.8809 79.8874
10.9257 79.7898
10.9706 80.8002
11.0154 75.8824
11.0602 73.7142
11.105 72.9123
11.1499 78.1302
11.1947 87.524
11.2395 76.2956
11.2844 71.5394
11.3292 68.2748
11.374 66.8405
11.4189 66.4493
11.4637 65.5393
11.5086 66.3966
11.5534 69.9876
11.5983 66.7761
11.6431 64.4912
11.688 63.7946
11.7328 63.8259
11.7777 63.7134
11.8225 63.2273
11.8674 62.937
11.9122 63.609
11.9571 63.5543
12.002 64.4362
12.0468 68.3638
12.0917 80.0744
12.1366 102.892
12.1814 148.886
12.2263 203.249
12.2712 176.566
12.3161 103.792
12.3609 73.1189
12.4058 65.9454
12.4507 65.2855
12.4956 65.3583
12.5405 65.1865
12.5853 66.5467
12.6302 75.672
12.6751 82.4583
12.72 71.4231
12.7649 68.6874
12.8098 68.9218
12.8547 70.2608
12.8996 71.6442
12.9445 73.0549
12.9894 74.739
13.0343 76.4401
13.0792 79.2724
13.1242 88.1921
13.1691 112.103
13.214 147.914
13.2589 229.787
13.3038 351.256
13.3487 432.816
13.3937 287.401
13.4386 132.327
13.4835 106.957
13.5285 120.845
13.5734 156.237
13.6183 236.491
13.6633 335.206
13.7082 345.881
13.7531 203.559
13.7981 103.647
13.843 83.376
13.888 80.6864
13.9329 77.9709
13.9779 76.7136
14.0228 75.16
14.0678 73.5917
14.1127 73.6564
14.1577 73.4374
14.2027 72.3575
14.2476 71.1251
14.2926 71.4483
14.3376 72.8031
14.3825 71.1274
14.4275 69.354
14.4725 69.4177
14.5175 69.4146
14.5624 69.8702
14.6074 72.3604
14.6524 72.796
14.6974 70.972
14.7424 72.4978
14.7874 79.2086
14.8324 89.1364
14.8774 109.506
14.9224 148.265
14.9674 199.411
15.0124 218.419
15.0574 157.672
15.1024 95.2066
15.1474 73.6098
15.1924 71.3442
15.2374 72.2475
15.2824 71.5781
15.3274 69.1895
15.3725 67.6972
15.4175 67.0539
15.4625 66.8457
15.5076 67.3615
15.5526 66.9822
15.5976 66.4643
15.6426 67.3599
15.6877 72.7424
15.7327 80.1232
15.7778 94.1623
15.8228 122.88
15.8679 165.333
15.9129 194.054
15.958 163.98
16.003 104.075
16.0481 70.7963
16.0931 66.0318
16.1382 64.3625
16.1833 61.706
16.2283 59.9015
16.2734 59.1477
16.3185 59.5063
16.3636 60.8449
16.4086 58.9014
16.4537 56.8444
16.4988 56.3171
16.5439 56.1533
16.589 55.803
16.6341 55.4967
16.6792 55.1324
16.7243 55.5465
16.7694 55.5589
16.8145 55.542
16.8596 56.0581
16.9047 57.9074
16.9498 58.1005
16.9949 56.4885
17.04 56.392
17.0851 57.7089
17.1302 59.2268
17.1754 62.1967
17.2205 66.7523
17.2656 73.9494
17.3108 82.5115
17.3559 82.9661
17.401 72.7688
17.4462 63.8667
17.4913 60.0468
17.5365 59.7075
17.5815 59.8924
17.6268 60.248
17.6718 61.1302
17.7171 61.7596
17.7622 61.9844
17.8074 62.4968
17.8525 64.661
17.8977 68.6299
17.9428 74.306
17.9881 82.3477
18.0331 97.7133
18.0784 118.045
18.1237 137.712
18.1688 135.693
18.214 108.393
18.2591 88.4304
18.3044 89.8338
18.3495 99.2531
18.3948 106.668
18.4399 99.7465
18.4852 80.7198
18.5303 67.5917
18.5756 63.2148
18.6207 62.0609
18.666 61.2106
18.7112 60.5311
18.7565 59.4077
18.8016 59.405
18.8469 58.7934
18.892 58.3772
18.9374 57.9768
18.9825 57.8066
19.0278 57.6462
19.073 57.7506
19.1183 58.1045
19.1635 59.2604
19.2088 60.2886
19.254 62.4808
19.2993 66.349
19.3447 72.5199
19.3898 77.0267
19.4352 73.9348
19.4804 64.9578
19.5257 57.7997
19.5709 55.0116
19.6163 54.667
19.6615 54.358
19.7068 53.9097
19.752 53.971
19.7974 54.0857
19.8426 55.1344
19.888 55.777
19.9332 56.7478
19.9786 59.0005
20.0238 62.1025
20.0692 67.0783
20.1144 70.4366
20.1598 69.3966
20.205 64.7661
20.2504 62.5935
20.2957 63.8561
20.3411 66.0146
20.3863 65.1826
20.4318 59.7245
20.477 54.8695
20.5224 52.5302
20.5677 51.9302
20.6131 51.0098
20.6586 50.4628
20.7038 50.1473
20.7493 49.7044
20.7945 49.5388
20.84 49.3204
20.8853 49.1333
20.9307 49.1753
20.976 49.3497
21.0215 49.0119
21.0668 49.6822
21.1122 49.8799
21.1575 50.662
21.203 51.3496
21.2483 51.8137
21.2938 52.1362
21.3391 50.8564
21.3846 49.7771
21.4299 48.9465
21.4754 48.7046
21.5207 49.2132
21.5662 49.2808
21.6116 49.6787
21.6571 50.5484
21.7024 51.3032
21.7479 53.0374
21.7933 55.3516
21.8388 58.8694
21.8843 62.5662
21.9297 65.0056
21.9752 64.5656
22.0206 60.9067
22.0661 57.4323
22.1115 56.6461
22.157 56.6781
22.2024 55.2224
22.248 52.4186
22.2933 50.7572
22.3389 49.783
22.3843 49.7512
22.4299 49.5449
22.4753 49.638
22.5208 49.1857
22.5662 49.0704
22.6118 49.2762
22.6572 49.346
22.7028 49.6751
22.7483 49.9593
22.7939 50.794
22.8393 52.2984
22.8849 54.3262
22.9303 56.2276
22.9759 58.1559
23.0214 58.1147
23.067 55.7117
23.1126 52.1598
23.1581 49.9493
23.2037 49.4586
23.2492 49.4687
23.2948 49.4335
23.3403 49.4816
23.3859 50.3202
23.4314 51.267
23.477 52.7557
23.5225 54.7799
23.5682 56.7981
23.6137 58.5274
23.6593 56.8099
23.7048 52.8513
23.7505 49.2671
23.796 47.5241
23.8417 46.5622
23.8872 46.0553
23.9329 45.6675
23.9784 45.3896
24.0241 45.3076
24.0697 45.0129
24.1154 44.621
24.1609 44.6718
24.2066 44.4694
24.2522 44.2641
24.2979 43.9036
24.3434 43.8045
24.3892 43.6262
24.4349 43.6209
24.4805 43.3807
24.5262 43.4951
24.5718 43.5176
24.6175 43.4061
24.6631 43.3948
24.7089 42.9032
24.7545 42.9743
24.8002 42.7382
24.8458 42.6654
24.8916 42.5619
24.9372 42.475
24.983 43.036
25.0286 43.3629
25.0744 43.7011
25.12 44.2334
25.1658 44.8863
25.2114 45.2186
25.2572 45.3245
25.3029 45.1901
25.3487 45.4209
25.3943 45.1913
25.4402 44.1885
25.4858 43.1516
25.5316 42.0064
25.5773 41.4766
25.6231 41.513
25.669 41.0524
25.7147 40.9763
25.7605 40.8452
25.8062 41.1805
25.8521 41.0922
25.8977 41.0426
25.9436 41.3145
25.9893 41.2804
26.0352 41.8573
26.0809 41.9122
26.1268 42.22
26.1725 41.9235
26.2184 41.3262
26.2641 40.8002
26.31 40.6725
26.3557 40.6225
26.4017 40.5975
26.4474 40.8327
26.4933 41.231
26.5391 41.6219
26.585 42.1527
26.6308 42.2454
26.6767 42.5718
26.7225 42.4716
26.7684 41.921
26.8142 41.3706
26.8601 40.8557
26.9059 40.7646
26.9519 40.0962
26.9979 39.6716
27.0437 39.3033
27.0896 39.2295
27.1354 39.2848
27.1814 39.0677
27.2272 39.0265
27.2732 39.019
27.3191 38.8466
27.3651 38.8878
27.4109 38.8849
27.4569 38.8413
27.5027 38.8658
27.5488 39.0679
27.5946 38.8402
27.6407 38.5758
27.6865 38.523
27.7326 38.2597
27.7784 38.3076
27.8245 38.2846
27.8703 38.4049
27.9164 38.6523
27.9623 38.7404
28.0084 39.0275
28.0543 39.4548
28.1003 39.4725
28.1462 39.3084
28.1923 38.9968
28.2384 38.4209
28.2843 38.0692
28.3304 37.7681
28.3764 37.258
28.4225 36.9096
28.4684 36.7652
28.5145 36.5201
28.5605 36.2857
28.6066 36.1034
28.6526 35.9743
28.6987 36.0023
28.7447 35.9512
28.7908 35.8201
28.8368 35.8872
28.8829 35.8772
28.9289 35.7431
28.9751 35.6246
29.0211 35.3394
29.0673 35.2279
29.1133 35.0411
29.1595 34.793
29.2055 34.7376
29.2517 34.7882
29.2977 34.7372
29.3439 34.6654
29.3899 34.6146
29.4361 34.6654
29.4824 34.3639
29.5284 34.2099
29.5746 33.8627
29.6207 33.5797
29.6669 33.3877
29.713 33.3847
29.7593 33.2877
29.8053 33.2673
29.8516 33.1554
29.8977 33.2777
29.9439 33.1346
29.99 33.0503
30.0363 32.8078
30.0824 32.9642
30.1287 32.7718
30.1748 32.7723
30.2211 32.7837
30.2673 32.6225
30.3136 32.7429
30.3597 32.6175
30.406 32.7028
30.4522 32.4222
30.4985 32.4198
30.5447 32.5301
30.591 32.4541
30.6372 32.4781
30.6835 32.5942
30.7297 32.614
30.7761 32.591
30.8224 32.4082
30.8686 32.1739
30.915 32.0438
30.9612 31.9081
31.0076 31.7239
31.0538 31.6218
31.1002 31.4492
31.1464 31.3879
31.1928 31.3683
31.2391 31.3784
31.2855 31.2529
31.3317 31.1774
31.3781 31.1927
31.4244 31.1973
31.4708 31.1453
31.5171 31.1261
31.5636 31.0948
31.6098 30.7864
31.6563 30.689
31.7026 30.6699
31.7491 30.4513
31.7953 30.5193
31.8418 30.5047
31.8881 30.5029
31.9346 30.4312
31.9809 30.2809
32.0275 30.3292
32.074 30.151
32.1203 29.9883
32.1668 29.9546
32.2132 29.7632
32.2597 29.5825
32.306 29.5559
32.3526 29.3502
32.399 29.3337
32.4455 29.1963
32.4919 29.0284
32.5385 29.0575
32.5848 28.8218
32.6314 28.8641
32.6778 28.8314
32.7244 28.6478
32.7708 28.4573
32.8174 28.4914
32.8638 28.3985
32.9104 28.4421
32.9569 28.2928
33.0035 28.2036
33.0499 28.224
33.0966 28.1022
33.143 28.1345
33.1897 27.9871
33.2361 27.9804
33.2828 27.9091
33.3293 27.7401
33.3759 27.7817
33.4226 27.5902
33.4691 27.4319
33.5158 27.3978
33.5623 27.2329
33.609 26.9937
33.6555 26.989
33.7022 26.935
33.7487 26.9138
33.7954 26.8104
33.842 26.7271
33.8887 26.6078
33.9353 26.6161
33.982 26.5142
34.0286 26.298
34.0753 26.3211
34.1219 26.1827
34.1687 26.0999
34.2152 26.1098
34.262 25.9038
34.3086 25.8036
34.3554 25.8859
34.402 25.7373
34.4488 25.6345
34.4954 25.6207
34.5422 25.3639
34.5889 25.4228
34.6357 25.2931
34.6825 25.1498
34.7292 25.0671
34.776 25.0277
34.8227 25.0437
34.8695 24.9313
34.9162 24.8888
34.9631 24.8038
35.0098 24.8324
35.0566 24.6536
35.1033 24.6164
35.1502 24.5945
35.1969 24.5281
35.2438 24.4826
35.2906 24.3801
35.3375 24.3166
35.3842 24.242
35.4311 24.287
35.4779 24.2306
35.5248 24.2338
35.5716 24.1393
35.6185 24.0751
35.6653 23.881
35.7123 23.8367
35.759 23.7474
35.806 23.6402
35.8528 23.5366
35.8998 23.4846
35.9468 23.4846
35.9936 23.4172
36.0406 23.2463
36.0874 23.2426
36.1345 23.2088
36.1813 23.0984
36.2283 22.9326
36.2752 22.9504
36.3222 22.9318
36.3691 22.7984
36.4161 22.6869
36.463 22.7922
36.5101 22.6465
36.557 22.5927
36.6041 22.4624
36.651 22.4498
36.6981 22.4597
36.745 22.3244
36.7921 22.2409
36.839 22.1329
36.8861 22.0131
36.9331 21.9917
36.9802 21.8825
37.0272 21.8356
37.0743 21.6884
37.1213 21.7186
37.1684 21.6573
37.2154 21.58
37.2626 21.5479
37.3098 21.4563
37.3568 21.3553
37.404 21.3633
37.451 21.1771
37.4982 21.2298
37.5452 21.1293
37.5924 20.996
37.6395 20.9842
37.6867 20.9983
37.7337 20.856
37.781 20.8004
37.8281 20.7092
37.8753 20.6557
37.9224 20.6004
37.9697 20.5573
38.0168 20.5008
38.064 20.3342
38.1111 20.3467
38.1584 20.3098
38.2056 20.1638
38.2529 20.0936
38.3 20.0746
38.3473 20.0498
38.3945 19.918
38.4418 19.918
38.489 19.871
38.5363 19.7418
38.5837 19.6434
38.6309 19.6439
38.6782 19.5584
38.7254 19.4521
38.7728 19.4273
38.82 19.356
38.8674 19.3403
38.9146 19.2766
38.9621 19.2068
39.0093 19.1691
39.0567 19.1382
39.104 19.0586
39.1514 18.8994
39.1987 18.9511
39.2461 18.8628
39.2934 18.8003
39.3409 18.6538
39.3882 18.6823
39.4356 18.571
39.483 18.5018
39.5304 18.4706
39.5778 18.4299
39.6253 18.3692
39.6726 18.2957
39.7201 18.2874
39.7675 18.2612
39.815 18.1335
39.8624 18.1016
39.9099 18.0648
39.9575 17.9844
40.0049 17.8642
40.0525 17.8165
40.0999 17.8235
40.1474 17.7357
40.1949 17.7059
40.2425 17.5985
40.2899 17.535
40.3375 17.5262
40.385 17.4111
40.4326 17.4373
40.48 17.3383
40.5277 17.3356
40.5752 17.2301
40.6228 17.1004
40.6703 17.1421
40.718 17.0889
40.7655 17.0803
40.8132 16.9955
40.8607 16.9021
40.9084 16.8701
40.9559 16.821
41.0036 16.8072
41.0512 16.739
41.0989 16.718
41.1465 16.6052
41.1942 16.5575
41.242 16.4614
41.2896 16.4026
41.3373 16.3815
41.3849 16.3344
41.4327 16.2908
41.4803 16.216
41.5281 16.194
41.5758 16.1147
41.6236 16.0329
41.6712 16.0105
41.7191 15.943
41.7667 15.8661
41.8146 15.8479
41.8622 15.7981
41.9101 15.7271
41.9578 15.5811
42.0057 15.6018
42.0534 15.6023
42.1013 15.4969
42.149 15.4576
42.1969 15.3896
42.2446 15.3532
42.2925 15.3392
42.3403 15.2775
42.3882 15.2728
42.436 15.1651
42.4839 15.094
42.5319 15.1095
42.5797 15.0319
42.6277 14.9832
42.6755 14.9403
42.7235 14.7987
42.7713 14.8175
42.8193 14.7454
42.8671 14.7233
42.9152 14.6628
42.963 14.6265
43.0111 14.597
43.0589 14.5118
43.107 14.4468
43.1549 14.4158
43.2029 14.29
43.2508 14.3179
43.2989 14.2416
43.3468 14.1668
43.3949 14.1471
43.4429 14.0995
43.491 14.0893
43.5389 14.032
43.5871 13.9779
43.635 13.9144
43.6832 13.8682
43.7312 13.782
43.7793 13.7644
43.8273 13.7485
43.8755 13.7029
43.9237 13.6391
43.9717 13.6656
44.0199 13.5874
44.068 13.5177
44.1162 13.4659
44.1642 13.4531
44.2125 13.3562
44.2606 13.3271
44.3088 13.2907
44.3569 13.2206
44.4052 13.1713
44.4533 13.1177
44.5016 13.0335
44.5497 13.0026
44.598 13.0246
44.6461 12.9259
44.6945 12.8679
44.7426 12.8206
44.791 12.7645
44.8391 12.7567
44.8875 12.7212
44.9357 12.6735
44.984 12.5886
45.0322 12.564
45.0806 12.5359
45.1288 12.4635
45.1773 12.4066
45.2257 12.3975
45.2739 12.339
45.3224 12.3094
45.3706 12.2954
45.4191 12.2032
45.4673 12.2081
45.5158 12.1372
45.5641 12.0752
45.6126 12.073
45.6609 12.021
45.7094 11.9127
45.7577 11.9142
45.8063 11.8597
45.8546 11.839
45.9031 11.7815
45.9515 11.7137
46.0001 11.7498
46.0484 11.7006
46.097 11.6276
46.1454 11.6231
46.194 11.5508
46.2424 11.5024
46.291 11.41
46.3395 11.3929
46.3881 11.3763
46.4365 11.3286
46.4852 11.3077
46.5337 11.2511
46.5823 11.2512
46.631 11.1451
46.6795 11.1301
46.7282 11.0791
46.7767 11.0672
46.8254 11.0334
46.8739 10.9584
46.9226 10.8798
46.9712 10.9016
47.0199 10.8648
47.0685 10.7927
47.1173 10.7587
47.1658 10.731
47.2146 10.6997
47.2632 10.6485
47.312 10.5689
47.3606 10.5568
47.4095 10.5061
47.4581 10.4709
47.5069 10.4246
47.5556 10.44
47.6044 10.3759
47.6531 10.3532
47.702 10.316
47.7507 10.2691
47.7996 10.1969
47.8483 10.2419
47.8972 10.1492
47.9461 10.1188
47.9948 10.0564
48.0438 10.0108
48.0925 10.023
48.1415 10.0016
48.1902 9.93739
48.2392 9.95405
48.288 9.84914
48.337 9.82201
48.3858 9.7998
48.4348 9.77024
48.4837 9.77812
48.5327 9.69129
48.5815 9.64639
48.6306 9.62661
48.6795 9.58793
48.7285 9.52057
48.7774 9.50423
48.8265 9.49959
48.8754 9.4319
48.9245 9.40737
48.9734 9.38239
49.0226 9.33931
49.0715 9.25993
49.1206 9.25521
49.1696 9.20727
49.2188 9.17593
49.2679 9.13239
49.3169 9.09361
49.3661 9.07473
49.4151 9.04169
49.4643 8.999
49.5134 9.02097
49.5626 8.92215
49.6117 8.8837
49.6609 8.90077
49.71 8.82461
49.7592 8.84664
49.8083 8.79663
49.8576 8.75707
49.9067 8.67819
49.956 8.6684
50.0052 8.64425
50.0545 8.60061
50.1036 8.54048
50.153 8.54273
50.2022 8.49545
50.2515 8.49159
50.3007 8.3992
50.3501 8.41394
50.3993 8.36519
50.4487 8.3315
50.498 8.32369
50.5474 8.25873
50.5966 8.21735
50.6461 8.21866
50.6955 8.19441
50.7448 8.18085
50.7943 8.11654
50.8436 8.12886
50.8931 8.02046
50.9424 8.02793
50.9919 7.98779
51.0413 7.98331
51.0908 7.91428
51.1402 7.92522
51.1897 7.87125
51.2391 7.86005
51.2887 7.82148
51.3381 7.75826
51.3877 7.76428
51.4371 7.72369
51.4867 7.68724
51.5362 7.65321
51.5858 7.60368
51.6353 7.58352
51.6849 7.54473
51.7344 7.52276
51.7841 7.53576
51.8336 7.44013
51.8833 7.44904
51.9328 7.3801
51.9826 7.31719
52.0323 7.33243
52.0818 7.30765
52.1316 7.24125
52.1812 7.24838
52.231 7.21941
52.2806 7.16734
52.3304 7.15688
52.38 7.11354
52.4298 7.07501
52.4794 7.08416
52.5293 7.03761
52.5789 7.00741
52.6288 6.97237
52.6785 6.9432
52.7284 6.91953
52.7781 6.88699
52.828 6.83523
52.8777 6.84723
52.9276 6.82943
52.9774 6.83012
53.0273 6.73622
53.0771 6.71698
53.1271 6.7304
53.1769 6.64804
53.2269 6.66346
53.2767 6.62478
53.3267 6.56323
53.3765 6.52748
53.4266 6.55063
53.4766 6.49604
53.5265 6.45618
53.5765 6.41936
53.6264 6.44534
53.6765 6.33726
53.7264 6.34567
53.7765 6.30916
53.8265 6.28804
53.8766 6.24789
53.9266 6.27454
53.9767 6.19221
54.0267 6.19055
54.0769 6.16013
54.1269 6.14331
54.1771 6.08872
54.2271 6.10017
54.2773 6.01415
54.3274 6.06721
54.3776 5.97403
54.4277 5.97098
54.478 5.89856
54.528 5.89066
54.5783 5.82045
54.6285 5.80204
54.6788 5.73964
54.7289 5.69046
54.7792 5.70508
54.8296 5.60002
54.8798 5.60329
54.9301 5.56062
54.9803 5.54535
55.0307 5.50093
55.0809 5.4457
55.1314 5.37898
55.1816 5.35482
55.232 5.34713
55.2823 5.25233
55.3328 5.19515
55.383 5.17697
55.4335 5.15443
55.4838 5.01803
55.5344 5.00048
55.5847 5.031
55.6352 4.95695
55.6856 4.93858
55.7361 4.89714