File: XRD/Ni3Fe_FD0225.xy
TT I
1.27165 7.39947
1.31627 7.3624
1.36089 6.64139
1.40551 5.94714
1.45013 6.63357
1.49476 6.67287
1.53938 6.67768
1.584 5.68007
1.62863 5.81339
1.67325 5.71961
1.71787 5.70081
1.7625 4.93577
1.80712 5.23584
1.85174 4.93234
1.89636 4.85921
1.94099 4.99516
1.98562 5.35338
2.03025 5.00423
2.07487 4.25319
2.11949 4.75427
2.16411 4.06982
2.20874 4.87059
2.25338 4.54534
2.298 4.8074
2.34263 4.3438
2.38725 4.8226
2.43188 4.90782
2.4765 4.87699
2.52115 4.67104
2.56577 5.19881
2.6104 5.96319
2.65503 6.25054
2.69965 5.73046
2.7443 6.73456
2.78893 6.7805
2.83356 7.55229
2.87818 8.28462
2.92281 8.79068
2.96744 9.26442
3.01209 10.587
3.05672 10.3932
3.10135 12.3016
3.14599 12.5175
3.19062 13.876
3.23527 15.3324
3.2799 15.4676
3.32454 17.1561
3.36917 17.6638
3.4138 18.8773
3.45844 19.6596
3.50309 20.7066
3.54773 21.3754
3.59237 22.8759
3.637 23.238
3.68164 23.831
3.7263 25.1485
3.77094 25.6359
3.81558 26.7355
3.86022 27.5194
3.90486 29.0578
3.9495 30.2533
3.99416 31.0526
4.0388 32.5166
4.08344 34.179
4.12809 34.8201
4.17273 36.4311
4.21738 38.0577
4.26204 39.3044
4.30669 40.7029
4.35133 42.8909
4.39598 44.7476
4.44063 46.2129
4.4853 48.7465
4.52995 52.0547
4.5746 53.9699
4.61925 55.7126
4.6639 58.6705
4.70855 61.0684
4.75322 64.4675
4.79788 68.5405
4.84253 71.5613
4.88719 77.3465
4.93184 81.3232
4.97652 88.8189
5.02118 96.5435
5.06583 106.941
5.11049 124.253
5.15515 169.291
5.19981 885.013
5.24449 3968.16
5.28916 10590.4
5.33382 4101.34
5.37848 272.633
5.42315 153.745
5.46783 130.083
5.5125 118.231
5.55716 111.951
5.60183 107.016
5.6465 104.428
5.69117 103.101
5.73586 101.037
5.78053 102.126
5.8252 102.348
5.86988 104.837
5.91455 110.591
5.95924 133.351
6.00392 446.809
6.0486 1421.0
6.09328 3643.67
6.13795 3660.43
6.18263 364.679
6.22733 109.918
6.27201 89.2743
6.3167 80.9721
6.36138 76.178
6.40606 72.7154
6.45075 71.3563
6.49545 68.8124
6.54014 66.6073
6.58483 65.2773
6.62952 64.0553
6.67421 62.3973
6.71892 61.5119
6.76361 60.635
6.8083 60.1354
6.853 59.0839
6.89769 58.4334
6.94239 57.8007
6.98711 57.5656
7.03181 57.4405
7.07651 56.9958
7.12121 56.8167
7.16591 56.6563
7.21063 55.895
7.25533 55.7821
7.30004 55.9854
7.34475 55.8862
7.38945 55.8596
7.43416 55.6643
7.47889 55.6557
7.5236 56.1748
7.56831 57.1437
7.61303 57.3789
7.65774 57.4013
7.70247 58.3829
7.74719 58.3959
7.79191 58.9704
7.83663 59.2892
7.88135 60.3902
7.92607 61.1447
7.97081 62.3095
8.01553 63.9714
8.06026 65.3804
8.10498 67.0205
8.14971 69.1024
8.19446 70.2904
8.23919 73.2314
8.28392 76.6576
8.32865 79.4046
8.37339 84.5624
8.41812 90.3016
8.46288 110.994
8.50761 290.0
8.55235 586.363
8.59709 1060.41
8.64183 1980.38
8.68658 1204.86
8.73134 218.725
8.77609 111.033
8.82083 100.511
8.86558 96.1419
8.91033 93.5508
8.9551 91.0739
8.99985 89.7347
9.04461 88.612
9.08936 87.8747
9.13412 86.7632
9.17888 86.6739
9.22365 86.7524
9.26841 87.0854
9.31318 88.3118
9.35794 88.633
9.4027 88.3338
9.44749 88.8527
9.49226 89.557
9.53703 90.4194
9.5818 92.9894
9.62657 94.3579
9.67134 95.9133
9.71614 97.656
9.76091 100.122
9.80569 103.528
9.85047 106.97
9.89525 112.729
9.94005 136.191
9.98484 302.731
10.0296 519.535
10.0744 801.299
10.1192 1462.25
10.164 1696.42
10.2088 547.945
10.2536 147.973
10.2984 117.693
10.3432 113.084
10.388 114.882
10.4328 158.856
10.4776 212.396
10.5224 280.968
10.5672 442.649
10.612 536.149
10.6568 253.463
10.7017 108.736
10.7465 92.4085
10.7913 88.2348
10.8361 85.4398
10.8809 83.2194
10.9257 80.9816
10.9706 79.4107
11.0154 77.655
11.0602 76.1257
11.105 75.2992
11.1499 73.2463
11.1947 72.1913
11.2395 71.4269
11.2844 70.8472
11.3292 70.2477
11.374 68.9622
11.4189 68.538
11.4637 67.6265
11.5086 67.0478
11.5534 66.4954
11.5983 66.6474
11.6431 66.383
11.688 66.1665
11.7328 65.9171
11.7777 65.7376
11.8225 65.1585
11.8674 65.3987
11.9122 65.8532
11.9571 66.354
12.002 68.7046
12.0468 79.8149
12.0917 94.1398
12.1366 109.123
12.1814 140.222
12.2263 194.137
12.2712 188.642
12.3161 104.697
12.3609 70.3151
12.4058 67.2632
12.4507 67.3523
12.4956 67.2879
12.5405 67.4927
12.5853 67.8346
12.6302 67.7798
12.6751 69.0259
12.72 69.8343
12.7649 70.9898
12.8098 71.577
12.8547 72.9994
12.8996 75.0073
12.9445 76.2456
12.9894 78.4256
13.0343 80.8198
13.0792 86.3307
13.1242 110.752
13.1691 147.577
13.214 174.45
13.2589 228.908
13.3038 320.448
13.3487 419.559
13.3937 309.976
13.4386 150.309
13.4835 133.716
13.5285 153.434
13.5734 174.47
13.6183 225.6
13.6633 308.869
13.7082 357.666
13.7531 229.373
13.7981 112.177
13.843 87.286
13.888 84.2185
13.9329 81.3232
13.9779 80.1284
14.0228 78.6061
14.0678 76.9774
14.1127 76.182
14.1577 75.2577
14.2027 74.8206
14.2476 74.1923
14.2926 73.4612
14.3376 73.1002
14.3825 72.6381
14.4275 72.1962
14.4725 72.2919
14.5175 72.7192
14.5624 72.5751
14.6074 72.9837
14.6524 73.5014
14.6974 74.5625
14.7424 81.1213
14.7874 95.2772
14.8324 106.766
14.8774 119.543
14.9224 145.074
14.9674 186.062
15.0124 221.803
15.0574 170.99
15.1024 103.632
15.1474 77.1022
15.1924 73.9229
15.2374 72.5846
15.2824 71.6183
15.3274 70.547
15.3725 70.1165
15.4175 69.7725
15.4625 69.1429
15.5076 69.3233
15.5526 69.351
15.5976 70.0162
15.6426 74.6743
15.6877 86.5232
15.7327 95.0501
15.7778 103.175
15.8228 122.29
15.8679 152.709
15.9129 189.906
15.958 177.485
16.003 113.402
16.0481 73.3656
16.0931 65.9885
16.1382 64.2242
16.1833 63.1157
16.2283 61.8259
16.2734 60.925
16.3185 60.3347
16.3636 59.6804
16.4086 58.8771
16.4537 58.6344
16.4988 57.9975
16.5439 58.0694
16.589 57.7834
16.6341 57.4441
16.6792 57.0492
16.7243 57.3832
16.7694 57.285
16.8145 57.0427
16.8596 57.1749
16.9047 57.7071
16.9498 57.8601
16.9949 57.9667
17.04 59.3933
17.0851 61.6851
17.1302 63.9445
17.1754 65.5571
17.2205 68.8689
17.2656 73.6584
17.3108 81.934
17.3559 85.5978
17.401 76.9958
17.4462 66.7352
17.4913 62.5374
17.5365 61.9299
17.5815 61.9872
17.6268 62.6182
17.6718 63.2982
17.7171 63.4628
17.7622 64.5388
17.8074 66.4829
17.8525 72.3752
17.8977 78.4099
17.9428 82.9119
17.9881 88.0273
18.0331 99.0947
18.0784 114.837
18.1237 138.755
18.1688 145.168
18.214 119.466
18.2591 94.281
18.3044 90.2995
18.3495 97.1796
18.3948 106.777
18.4399 102.883
18.4852 84.0314
18.5303 70.3832
18.5756 65.3129
18.6207 64.4259
18.666 63.4216
18.7112 62.6145
18.7565 62.0396
18.8016 61.597
18.8469 60.9237
18.892 60.7835
18.9374 60.2013
18.9825 59.8698
19.0278 59.6005
19.073 60.2614
19.1183 61.3094
19.1635 62.1232
19.2088 63.0641
19.254 64.7147
19.2993 67.1456
19.3447 71.1462
19.3898 76.2602
19.4352 76.3589
19.4804 68.5905
19.5257 60.5282
19.5709 57.0475
19.6163 56.4697
19.6615 56.4185
19.7068 56.1299
19.752 56.2623
19.7974 57.1029
19.8426 58.3011
19.888 58.9322
19.9332 59.6432
19.9786 61.4347
20.0238 64.1377
20.0692 68.3274
20.1144 72.44
20.1598 73.0705
20.205 67.9246
20.2504 64.3167
20.2957 64.4957
20.3411 66.9687
20.3863 67.5574
20.4318 62.4974
20.477 56.7974
20.5224 53.8239
20.5677 53.0026
20.6131 52.6276
20.6586 52.1506
20.7038 51.861
20.7493 51.4208
20.7945 51.2935
20.84 51.3905
20.8853 51.0416
20.9307 51.0639
20.976 51.4606
21.0215 51.2579
21.0668 51.4482
21.1122 51.6168
21.1575 52.1303
21.203 52.638
21.2483 53.3935
21.2938 53.9798
21.3391 52.8595
21.3846 51.7729
21.4299 50.9204
21.4754 50.9073
21.5207 51.289
21.5662 51.8795
21.6116 52.9999
21.6571 53.6695
21.7024 54.1771
21.7479 55.49
21.7933 57.5264
21.8388 60.0723
21.8843 63.3093
21.9297 66.6688
21.9752 66.8735
22.0206 63.0983
22.0661 58.8894
22.1115 57.8266
22.157 58.3792
22.2024 57.6573
22.248 54.7371
22.2933 52.7492
22.3389 51.3691
22.3843 51.1847
22.4299 51.0569
22.4753 50.8486
22.5208 50.829
22.5662 50.8906
22.6118 51.376
22.6572 51.9782
22.7028 52.5064
22.7483 52.6011
22.7939 53.2653
22.8393 54.2091
22.8849 55.6092
22.9303 57.1432
22.9759 59.1205
23.0214 59.9937
23.067 58.0448
23.1126 54.4208
23.1581 52.0281
23.2037 51.4782
23.2492 51.8681
23.2948 52.1426
23.3403 52.1577
23.3859 52.7066
23.4314 53.2183
23.477 54.2527
23.5225 55.5951
23.5682 57.5321
23.6137 59.7525
23.6593 58.7169
23.7048 55.292
23.7505 51.4661
23.796 48.967
23.8417 48.2541
23.8872 47.8062
23.9329 47.3871
23.9784 47.0005
24.0241 46.7109
24.0697 46.4771
24.1154 46.234
24.1609 46.1089
24.2066 45.8982
24.2522 45.6345
24.2979 45.5278
24.3434 45.3514
24.3892 45.1651
24.4349 45.0858
24.4805 44.8296
24.5262 45.0479
24.5718 44.9105
24.6175 44.913
24.6631 44.8931
24.7089 44.4593
24.7545 44.3131
24.8002 44.3486
24.8458 44.4449
24.8916 44.259
24.9372 44.4778
24.983 44.8533
25.0286 45.0436
25.0744 45.211
25.12 45.6947
25.1658 46.3054
25.2114 46.5092
25.2572 46.5909
25.3029 46.3835
25.3487 46.6097
25.3943 46.5006
25.4402 46.0025
25.4858 44.8379
25.5316 43.514
25.5773 42.9195
25.6231 42.9325
25.669 42.4766
25.7147 42.599
25.7605 42.3431
25.8062 42.5256
25.8521 42.6279
25.8977 42.4559
25.9436 42.676
25.9893 42.5956
26.0352 43.1397
26.0809 43.1519
26.1268 43.4902
26.1725 43.4793
26.2184 42.9977
26.2641 42.4946
26.31 42.2702
26.3557 42.3176
26.4017 42.213
26.4474 42.3076
26.4933 42.6307
26.5391 42.8515
26.585 43.2569
26.6308 43.6081
26.6767 44.0137
26.7225 43.9443
26.7684 43.5113
26.8142 42.7363
26.8601 42.3405
26.9059 42.0149
26.9519 41.5182
26.9979 41.1876
27.0437 40.8185
27.0896 40.6151
27.1354 40.6724
27.1814 40.5168
27.2272 40.4901
27.2732 40.4377
27.3191 40.2449
27.3651 40.2658
27.4109 40.1133
27.4569 40.1899
27.5027 40.1584
27.5488 40.3683
27.5946 40.2897
27.6407 40.1308
27.6865 40.0834
27.7326 39.735
27.7784 39.7893
27.8245 39.7514
27.8703 39.8807
27.9164 39.9157
27.9623 40.0253
28.0084 40.189
28.0543 40.6253
28.1003 40.6784
28.1462 40.5222
28.1923 40.3218
28.2384 39.5364
28.2843 39.5396
28.3304 38.8788
28.3764 38.5901
28.4225 38.1718
28.4684 38.0332
28.5145 37.6902
28.5605 37.5566
28.6066 37.2785
28.6526 37.3151
28.6987 37.2512
28.7447 37.1804
28.7908 36.9701
28.8368 36.9188
28.8829 37.0393
28.9289 37.0054
28.9751 36.8835
29.0211 36.5565
29.0673 36.3068
29.1133 36.1502
29.1595 36.0941
29.2055 35.9729
29.2517 35.8131
29.2977 35.7722
29.3439 35.6915
29.3899 35.6982
29.4361 35.7482
29.4824 35.5952
29.5284 35.4033
29.5746 35.0068
29.6207 34.701
29.6669 34.5986
29.713 34.5677
29.7593 34.3545
29.8053 34.3947
29.8516 34.3846
29.8977 34.278
29.9439 34.1875
29.99 34.1732
30.0363 33.9319
30.0824 34.1181
30.1287 34.0266
30.1748 33.8717
30.2211 33.9043
30.2673 33.7798
30.3136 33.8994
30.3597 33.8061
30.406 33.5384
30.4522 33.5955
30.4985 33.4954
30.5447 33.7256
30.591 33.4578
30.6372 33.6685
30.6835 33.6454
30.7297 33.756
30.7761 33.6179
30.8224 33.5106
30.8686 33.4257
30.915 33.0697
30.9612 33.0158
31.0076 32.7604
31.0538 32.6817
31.1002 32.6811
31.1464 32.4423
31.1928 32.4147
31.2391 32.3718
31.2855 32.2236
31.3317 32.3259
31.3781 32.4113
31.4244 32.2976
31.4708 32.2758
31.5171 32.2102
31.5636 32.2361
31.6098 32.0555
31.6563 31.8244
31.7026 31.5637
31.7491 31.4838
31.7953 31.4912
31.8418 31.4952
31.8881 31.5514
31.9346 31.3775
31.9809 31.3691
32.0275 31.3205
32.074 31.3592
32.1203 31.0311
32.1668 30.998
32.2132 30.752
32.2597 30.7802
32.306 30.588
32.3526 30.3966
32.399 30.4221
32.4455 30.1582
32.4919 30.0112
32.5385 30.0194
32.5848 29.8352
32.6314 29.8334
32.6778 29.8147
32.7244 29.639
32.7708 29.579
32.8174 29.5536
32.8638 29.4183
32.9104 29.4331
32.9569 29.3465
33.0035 29.2535
33.0499 29.1607
33.0966 29.1955
33.143 29.1211
33.1897 28.9969
33.2361 28.8622
33.2828 28.9513
33.3293 28.6247
33.3759 28.7332
33.4226 28.511
33.4691 28.4601
33.5158 28.3232
33.5623 28.2285
33.609 27.9847
33.6555 27.8425
33.7022 27.8217
33.7487 27.7509
33.7954 27.715
33.842 27.545
33.8887 27.5204
33.9353 27.5093
33.982 27.3732
34.0286 27.3491
34.0753 27.2375
34.1219 27.1735
34.1687 27.0482
34.2152 26.8976
34.262 26.8202
34.3086 26.7976
34.3554 26.6606
34.402 26.5259
34.4488 26.5031
34.4954 26.4441
34.5422 26.3217
34.5889 26.2723
34.6357 26.0928
34.6825 26.0826
34.7292 26.0021
34.776 25.8947
34.8227 25.8852
34.8695 25.7614
34.9162 25.7631
34.9631 25.6816
35.0098 25.6116
35.0566 25.4861
35.1033 25.4408
35.1502 25.4158
35.1969 25.3431
35.2438 25.2969
35.2906 25.2364
35.3375 25.1203
35.3842 25.0285
35.4311 25.0708
35.4779 24.9413
35.5248 24.9121
35.5716 24.8868
35.6185 24.7851
35.6653 24.6487
35.7123 24.5717
35.759 24.5137
35.806 24.4559
35.8528 24.195
35.8998 24.2268
35.9468 24.1611
35.9936 24.1627
36.0406 24.0916
36.0874 24.0258
36.1345 23.9269
36.1813 23.8453
36.2283 23.742
36.2752 23.648
36.3222 23.6925
36.3691 23.5739
36.4161 23.451
36.463 23.443
36.5101 23.3907
36.557 23.3492
36.6041 23.1782
36.651 23.195
36.6981 23.1222
36.745 23.1325
36.7921 23.0274
36.839 22.9788
36.8861 22.7894
36.9331 22.7264
36.9802 22.6865
37.0272 22.5436
37.0743 22.5139
37.1213 22.5344
37.1684 22.3694
37.2154 22.3428
37.2626 22.2711
37.3098 22.1365
37.3568 22.1184
37.404 22.0733
37.451 21.9345
37.4982 21.9861
37.5452 21.727
37.5924 21.7625
37.6395 21.7551
37.6867 21.6932
37.7337 21.5478
37.781 21.3714
37.8281 21.4393
37.8753 21.3276
37.9224 21.2977
37.9697 21.1773
38.0168 21.1655
38.064 21.0264
38.1111 21.0354
38.1584 20.9381
38.2056 20.9284
38.2529 20.888
38.3 20.6859
38.3473 20.7294
38.3945 20.5687
38.4418 20.5862
38.489 20.5029
38.5363 20.3982
38.5837 20.3446
38.6309 20.3011
38.6782 20.1615
38.7254 20.1386
38.7728 20.0888
38.82 19.9577
38.8674 19.9728
38.9146 19.9191
38.9621 19.8384
39.0093 19.7753
39.0567 19.7553
39.104 19.6636
39.1514 19.5342
39.1987 19.524
39.2461 19.5371
39.2934 19.4346
39.3409 19.3565
39.3882 19.2566
39.4356 19.2505
39.483 19.1706
39.5304 19.0485
39.5778 19.101
39.6253 18.9467
39.6726 19.0072
39.7201 18.8575
39.7675 18.8243
39.815 18.7633
39.8624 18.6568
39.9099 18.6671
39.9575 18.5925
40.0049 18.5302
40.0525 18.4621
40.0999 18.3962
40.1474 18.3597
40.1949 18.2129
40.2425 18.148
40.2899 18.1842
40.3375 18.085
40.385 18.0192
40.4326 17.9803
40.48 17.9392
40.5277 17.9258
40.5752 17.8153
40.6228 17.719
40.6703 17.7291
40.718 17.6243
40.7655 17.6164
40.8132 17.5023
40.8607 17.4968
40.9084 17.3919
40.9559 17.3656
41.0036 17.351
41.0512 17.2252
41.0989 17.2179
41.1465 17.0881
41.1942 17.1194
41.242 16.9934
41.2896 16.9316
41.3373 16.9099
41.3849 16.7841
41.4327 16.7509
41.4803 16.7285
41.5281 16.6649
41.5758 16.6243
41.6236 16.5444
41.6712 16.5153
41.7191 16.434
41.7667 16.4271
41.8146 16.3754
41.8622 16.3033
41.9101 16.2623
41.9578 16.1314
42.0057 16.1511
42.0534 16.0809
42.1013 16.0522
42.149 15.9775
42.1969 15.9137
42.2446 15.8407
42.2925 15.7683
42.3403 15.7247
42.3882 15.7161
42.436 15.6394
42.4839 15.5752
42.5319 15.5679
42.5797 15.5213
42.6277 15.4327
42.6755 15.3415
42.7235 15.407
42.7713 15.2821
42.8193 15.2153
42.8671 15.1901
42.9152 15.1305
42.963 15.0678
43.0111 15.016
43.0589 14.9205
43.107 14.9116
43.1549 14.8441
43.2029 14.7445
43.2508 14.7902
43.2989 14.7189
43.3468 14.6097
43.3949 14.616
43.4429 14.5459
43.491 14.4814
43.5389 14.4764
43.5871 14.3998
43.635 14.3847
43.6832 14.2907
43.7312 14.2303
43.7793 14.1767
43.8273 14.1545
43.8755 14.0556
43.9237 14.0429
43.9717 14.0044
44.0199 13.9556
44.068 13.9198
44.1162 13.8807
44.1642 13.8323
44.2125 13.8178
44.2606 13.7199
44.3088 13.6529
44.3569 13.6324
44.4052 13.5829
44.4533 13.4907
44.5016 13.5051
44.5497 13.4172
44.598 13.3729
44.6461 13.3233
44.6945 13.2511
44.7426 13.2384
44.791 13.1428
44.8391 13.1568
44.8875 13.1049
44.9357 13.0352
44.984 13.0047
45.0322 12.9533
45.0806 12.9011
45.1288 12.8366
45.1773 12.8141
45.2257 12.7516
45.2739 12.7288
45.3224 12.7189
45.3706 12.6535
45.4191 12.5554
45.4673 12.5572
45.5158 12.4978
45.5641 12.4511
45.6126 12.428
45.6609 12.3677
45.7094 12.3311
45.7577 12.3068
45.8063 12.2555
45.8546 12.2377
45.9031 12.0912
45.9515 12.0811
46.0001 12.0656
46.0484 12.0608
46.097 11.9584
46.1454 11.9647
46.194 11.8997
46.2424 11.8611
46.291 11.7882
46.3395 11.7541
46.3881 11.7256
46.4365 11.6824
46.4852 11.6466
46.5337 11.5985
46.5823 11.5742
46.631 11.5151
46.6795 11.4187
46.7282 11.4366
46.7767 11.4098
46.8254 11.3378
46.8739 11.3103
46.9226 11.2401
46.9712 11.188
47.0199 11.183
47.0685 11.1121
47.1173 11.09
47.1658 11.0648
47.2146 11.0242
47.2632 10.9624
47.312 10.9312
47.3606 10.9086
47.4095 10.833
47.4581 10.7783
47.5069 10.7744
47.5556 10.7205
47.6044 10.67
47.6531 10.6278
47.702 10.6092
47.7507 10.5576
47.7996 10.4922
47.8483 10.5079
47.8972 10.4618
47.9461 10.4248
47.9948 10.3354
48.0438 10.3281
48.0925 10.3003
48.1415 10.2688
48.1902 10.2017
48.2392 10.2072
48.288 10.1872
48.337 10.1366
48.3858 10.0546
48.4348 10.038
48.4837 10.0179
48.5327 9.98533
48.5815 9.95939
48.6306 9.9387
48.6795 9.88062
48.7285 9.8259
48.7774 9.81307
48.8265 9.77049
48.8754 9.71355
48.9245 9.68928
48.9734 9.64604
49.0226 9.62516
49.0715 9.59953
49.1206 9.56802
49.1696 9.48204
49.2188 9.4963
49.2679 9.46345
49.3169 9.38554
49.3661 9.34388
49.4151 9.35722
49.4643 9.29848
49.5134 9.26457
49.5626 9.20407
49.6117 9.19383
49.6609 9.17536
49.71 9.10069
49.7592 9.07981
49.8083 9.03328
49.8576 8.9559
49.9067 8.96058
49.956 8.949
50.0052 8.91154
50.0545 8.86474
50.1036 8.82234
50.153 8.7891
50.2022 8.77699
50.2515 8.71388
50.3007 8.66442
50.3501 8.65456
50.3993 8.63822
50.4487 8.58864
50.498 8.59514
50.5474 8.50323
50.5966 8.49997
50.6461 8.49147
50.6955 8.43427
50.7448 8.38104
50.7943 8.37982
50.8436 8.34378
50.8931 8.26332
50.9424 8.31459
50.9919 8.19741
51.0413 8.19857
51.0908 8.18055
51.1402 8.13551
51.1897 8.14855
51.2391 8.07868
51.2887 8.05542
51.3381 7.98527
51.3877 7.99617
51.4371 7.94131
51.4867 7.90107
51.5362 7.85992
51.5858 7.83381
51.6353 7.78822
51.6849 7.79579
51.7344 7.7351
51.7841 7.71911
51.8336 7.66351
51.8833 7.67868
51.9328 7.6431
51.9826 7.577
52.0323 7.55396
52.0818 7.51287
52.1316 7.50024
52.1812 7.48762
52.231 7.44941
52.2806 7.36957
52.3304 7.40228
52.38 7.34716
52.4298 7.2889
52.4794 7.27516
52.5293 7.28212
52.5789 7.21682
52.6288 7.1749
52.6785 7.1492
52.7284 7.16788
52.7781 7.11334
52.828 7.06264
52.8777 7.00275
52.9276 7.02032
52.9774 6.98271
53.0273 6.94644
53.0771 6.96049
53.1271 6.91724
53.1769 6.87952
53.2269 6.86161
53.2767 6.82063
53.3267 6.768
53.3765 6.73929
53.4266 6.74764
53.4766 6.70579
53.5265 6.60873
53.5765 6.60022
53.6264 6.59854
53.6765 6.55156
53.7264 6.5876
53.7765 6.51686
53.8265 6.48119
53.8766 6.4724
53.9266 6.43454
53.9767 6.37422
54.0267 6.37105
54.0769 6.3328
54.1269 6.33617
54.1771 6.27676
54.2271 6.22739
54.2773 6.18553
54.3274 6.15826
54.3776 6.07895
54.4277 6.12108
54.478 6.08946
54.528 6.10505
54.5783 5.97535
54.6285 5.95271
54.6788 5.85518
54.7289 5.86042
54.7792 5.81774
54.8296 5.74198
54.8798 5.70191
54.9301 5.69359
54.9803 5.65837
55.0307 5.63383
55.0809 5.56417
55.1314 5.5679
55.1816 5.47855
55.232 5.4352
55.2823 5.43038
55.3328 5.31511
55.383 5.22512
55.4335 5.22346
55.4838 5.17996
55.5344 5.12154
55.5847 5.09103
55.6352 5.0492
55.6856 5.04248
55.7361 4.96672