File: XRD/Ni3Fe_FD0410.xy
TT I
1.27165 8.01962
1.31627 7.22976
1.36089 6.69499
1.40551 6.08602
1.45013 5.27671
1.49476 5.54443
1.53938 5.77904
1.584 5.20859
1.62863 5.31486
1.67325 5.75482
1.71787 5.47569
1.7625 5.06879
1.80712 4.78005
1.85174 5.08744
1.89636 4.58482
1.94099 4.76808
1.98562 4.50603
2.03025 4.55492
2.07487 4.19323
2.11949 5.20928
2.16411 4.62631
2.20874 16.9971
2.25338 27.9326
2.298 5.67839
2.34263 4.94879
2.38725 5.13892
2.43188 5.48453
2.4765 6.59211
2.52115 6.14477
2.56577 6.91016
2.6104 7.47494
2.65503 6.78324
2.69965 7.26769
2.7443 7.2251
2.78893 7.82124
2.83356 8.33334
2.87818 9.06313
2.92281 9.04423
2.96744 9.5099
3.01209 10.3121
3.05672 11.3871
3.10135 11.9046
3.14599 12.4702
3.19062 14.2877
3.23527 15.1171
3.2799 15.9114
3.32454 17.0686
3.36917 18.1871
3.4138 19.1622
3.45844 19.681
3.50309 21.5843
3.54773 21.7436
3.59237 24.7141
3.637 113.938
3.68164 70.3004
3.7263 26.9668
3.77094 26.4161
3.81558 27.2526
3.86022 28.1606
3.90486 29.8337
3.9495 30.3457
3.99416 31.4516
4.0388 32.5426
4.08344 34.4297
4.12809 35.486
4.17273 38.4731
4.21738 45.817
4.26204 312.146
4.30669 272.691
4.35133 51.7269
4.39598 45.45
4.44063 56.4386
4.4853 72.2673
4.52995 52.4296
4.5746 52.4411
4.61925 54.1435
4.6639 56.4386
4.70855 58.7143
4.75322 62.1538
4.79788 64.7442
4.84253 68.1022
4.88719 72.8542
4.93184 76.2015
4.97652 82.3193
5.02118 88.6392
5.06583 96.4771
5.11049 110.242
5.15515 199.19
5.19981 426.549
5.24449 2916.52
5.28916 11425.0
5.33382 3580.35
5.37848 224.134
5.42315 138.082
5.46783 118.655
5.5125 109.974
5.55716 104.958
5.60183 101.025
5.6465 99.1821
5.69117 96.499
5.73586 93.9263
5.78053 93.8641
5.8252 93.0306
5.86988 94.2736
5.91455 97.1505
5.95924 106.752
6.00392 231.259
6.0486 1027.05
6.09328 3888.74
6.13795 3453.3
6.18263 306.03
6.22733 100.136
6.27201 87.0525
6.3167 113.425
6.36138 85.8235
6.40606 70.9933
6.45075 69.2042
6.49545 67.2437
6.54014 65.5593
6.58483 64.8275
6.62952 64.4221
6.67421 104.584
6.71892 171.346
6.76361 73.0079
6.8083 60.8627
6.853 58.8647
6.89769 58.2023
6.94239 58.2835
6.98711 57.5157
7.03181 56.9163
7.07651 56.6174
7.12121 56.4551
7.16591 56.932
7.21063 57.2454
7.25533 75.5176
7.30004 218.384
7.34475 104.356
7.38945 58.6296
7.43416 56.1763
7.47889 55.6497
7.5236 56.3196
7.56831 56.7305
7.61303 59.1241
7.65774 59.3247
7.70247 57.6097
7.74719 57.5442
7.79191 57.749
7.83663 58.0245
7.88135 59.1101
7.92607 59.9413
7.97081 61.1124
8.01553 62.0953
8.06026 63.2787
8.10498 65.035
8.14971 77.0944
8.19446 75.485
8.23919 70.9544
8.28392 73.3609
8.32865 75.5123
8.37339 79.9771
8.41812 88.0318
8.46288 123.948
8.50761 177.555
8.55235 407.776
8.59709 1072.04
8.64183 2104.35
8.68658 1132.73
8.73134 195.275
8.77609 104.312
8.82083 95.4154
8.86558 92.1135
8.91033 93.226
8.9551 95.2219
8.99985 87.5421
9.04461 85.4923
9.08936 84.6209
9.13412 83.2205
9.17888 83.4625
9.22365 84.4165
9.26841 83.5755
9.31318 84.4657
9.35794 84.5133
9.4027 84.9153
9.44749 85.8297
9.49226 86.22
9.53703 86.7193
9.5818 89.3326
9.62657 94.4796
9.67134 103.334
9.71614 96.1177
9.76091 96.1466
9.80569 98.3066
9.85047 102.018
9.89525 132.16
9.94005 147.595
9.98484 186.298
10.0296 361.892
10.0744 765.355
10.1192 1597.07
10.164 1750.02
10.2088 508.148
10.2536 141.219
10.2984 119.136
10.3432 121.363
10.388 108.247
10.4328 122.363
10.4776 164.705
10.5224 266.233
10.5672 472.248
10.612 536.249
10.6568 231.724
10.7017 102.695
10.7465 89.092
10.7913 85.049
10.8361 82.8412
10.8809 80.8097
10.9257 80.9257
10.9706 81.8044
11.0154 76.7052
11.0602 74.4845
11.105 73.5897
11.1499 79.6633
11.1947 89.5389
11.2395 77.7167
11.2844 72.8057
11.3292 69.0548
11.374 67.5096
11.4189 67.0146
11.4637 66.1578
11.5086 67.6622
11.5534 70.9852
11.5983 67.675
11.6431 64.9627
11.688 64.1935
11.7328 64.3481
11.7777 64.2854
11.8225 63.8043
11.8674 63.9511
11.9122 64.2159
11.9571 64.3688
12.002 65.0626
12.0468 69.7394
12.0917 81.6654
12.1366 102.973
12.1814 143.392
12.2263 201.589
12.2712 184.373
12.3161 109.305
12.3609 74.6949
12.4058 66.6931
12.4507 66.0298
12.4956 66.0039
12.5405 66.3413
12.5853 67.0696
12.6302 77.1959
12.6751 84.2279
12.72 72.5199
12.7649 69.4081
12.8098 69.8957
12.8547 71.0849
12.8996 72.2432
12.9445 73.6905
12.9894 75.6467
13.0343 77.2607
13.0792 80.4625
13.1242 90.5782
13.1691 116.052
13.214 151.334
13.2589 224.984
13.3038 339.797
13.3487 429.289
13.3937 296.587
13.4386 138.246
13.4835 109.718
13.5285 124.616
13.5734 157.818
13.6183 229.077
13.6633 327.084
13.7082 356.51
13.7531 218.797
13.7981 106.165
13.843 84.3557
13.888 81.4892
13.9329 78.7063
13.9779 77.5747
14.0228 76.2761
14.0678 74.508
14.1127 74.182
14.1577 74.3015
14.2027 73.0794
14.2476 71.99
14.2926 72.4792
14.3376 73.9691
14.3825 72.1137
14.4275 70.0946
14.4725 70.1132
14.5175 70.4772
14.5624 70.8023
14.6074 73.4762
14.6524 73.868
14.6974 72.2955
14.7424 73.6376
14.7874 80.5472
14.8324 91.244
14.8774 110.038
14.9224 144.837
14.9674 195.264
15.0124 221.65
15.0574 164.776
15.1024 100.129
15.1474 75.2787
15.1924 72.5694
15.2374 73.5479
15.2824 72.8751
15.3274 70.0441
15.3725 68.602
15.4175 68.0462
15.4625 67.5492
15.5076 67.9213
15.5526 67.8491
15.5976 67.3449
15.6426 68.3728
15.6877 74.1935
15.7327 81.819
15.7778 95.4821
15.8228 120.909
15.8679 159.597
15.9129 192.658
15.958 170.547
16.003 107.402
16.0481 72.0013
16.0931 67.2639
16.1382 65.0838
16.1833 62.5726
16.2283 60.6978
16.2734 59.8759
16.3185 60.4376
16.3636 61.5119
16.4086 59.5009
16.4537 57.6587
16.4988 57.0058
16.5439 56.825
16.589 56.503
16.6341 56.1506
16.6792 55.8929
16.7243 56.1457
16.7694 56.5448
16.8145 56.3
16.8596 56.7615
16.9047 58.737
16.9498 59.0034
16.9949 57.1828
17.04 57.1863
17.0851 58.2184
17.1302 60.0969
17.1754 62.9217
17.2205 67.0812
17.2656 73.3442
17.3108 81.2665
17.3559 83.4651
17.401 74.4877
17.4462 64.5468
17.4913 60.6571
17.5365 60.4542
17.5815 60.5394
17.6268 60.7024
17.6718 62.0001
17.7171 62.2987
17.7622 62.3704
17.8074 63.1767
17.8525 65.7189
17.8977 69.9294
17.9428 75.6423
17.9881 83.0618
18.0331 97.1777
18.0784 115.482
18.1237 137.565
18.1688 137.997
18.214 111.902
18.2591 89.8031
18.3044 89.6047
18.3495 97.7376
18.3948 106.941
18.4399 101.245
18.4852 82.5784
18.5303 68.706
18.5756 64.0356
18.6207 62.9124
18.666 61.9229
18.7112 61.0233
18.7565 60.2988
18.8016 60.0751
18.8469 59.6201
18.892 58.9305
18.9374 58.4252
18.9825 58.303
19.0278 58.4739
19.073 58.4138
19.1183 58.8359
19.1635 59.6076
19.2088 61.0356
19.254 63.0984
19.2993 66.4018
19.3447 72.3827
19.3898 77.548
19.4352 75.6138
19.4804 66.541
19.5257 59.144
19.5709 55.7483
19.6163 55.0968
19.6615 54.9617
19.7068 54.5687
19.752 54.4641
19.7974 54.6762
19.8426 55.9038
19.888 56.4936
19.9332 57.4173
19.9786 59.3892
20.0238 62.5814
20.0692 66.9892
20.1144 70.8018
20.1598 70.4968
20.205 65.8738
20.2504 63.009
20.2957 64.1961
20.3411 66.2727
20.3863 66.2822
20.4318 61.1292
20.477 55.8248
20.5224 53.1684
20.5677 52.4123
20.6131 51.6072
20.6586 50.9285
20.7038 50.8334
20.7493 50.1572
20.7945 50.1744
20.84 49.8821
20.8853 49.8923
20.9307 49.52
20.976 49.7849
21.0215 49.741
21.0668 50.1486
21.1122 50.5019
21.1575 51.0183
21.203 51.7922
21.2483 52.4119
21.2938 52.9219
21.3391 51.5818
21.3846 50.3177
21.4299 49.5981
21.4754 49.4726
21.5207 49.5796
21.5662 49.9489
21.6116 50.2016
21.6571 51.0832
21.7024 51.9436
21.7479 53.6302
21.7933 55.7887
21.8388 59.1564
21.8843 62.5409
21.9297 65.6918
21.9752 65.719
22.0206 62.0738
22.0661 58.011
22.1115 57.0073
22.157 57.2031
22.2024 56.0569
22.248 53.1848
22.2933 51.3504
22.3389 50.495
22.3843 50.2374
22.4299 50.1729
22.4753 50.1255
22.5208 49.7554
22.5662 49.6658
22.6118 49.7186
22.6572 49.9209
22.7028 50.5262
22.7483 50.8003
22.7939 51.3609
22.8393 52.6064
22.8849 54.2988
22.9303 56.2625
22.9759 58.3959
23.0214 59.0411
23.067 56.4506
23.1126 52.8198
23.1581 50.7313
23.2037 50.0191
23.2492 50.144
23.2948 49.9637
23.3403 50.1488
23.3859 50.7013
23.4314 51.6627
23.477 53.2545
23.5225 54.9271
23.5682 57.1661
23.6137 58.9746
23.6593 57.6627
23.7048 53.7525
23.7505 50.0654
23.796 47.8279
23.8417 47.2472
23.8872 46.5575
23.9329 46.4336
23.9784 45.8305
24.0241 45.6972
24.0697 45.5759
24.1154 45.178
24.1609 45.0675
24.2066 44.9292
24.2522 44.6473
24.2979 44.5641
24.3434 44.3768
24.3892 44.1919
24.4349 44.1923
24.4805 43.813
24.5262 44.0293
24.5718 43.9187
24.6175 44.0409
24.6631 43.8388
24.7089 43.6882
24.7545 43.4247
24.8002 43.233
24.8458 43.2557
24.8916 43.1629
24.9372 43.1347
24.983 43.4294
25.0286 43.7841
25.0744 44.0957
25.12 44.4684
25.1658 45.1653
25.2114 45.4797
25.2572 45.7021
25.3029 45.5798
25.3487 45.7458
25.3943 45.7095
25.4402 44.8056
25.4858 43.6512
25.5316 42.5847
25.5773 41.9813
25.6231 41.7315
25.669 41.4319
25.7147 41.4437
25.7605 41.4109
25.8062 41.5779
25.8521 41.5813
25.8977 41.4368
25.9436 41.7245
25.9893 41.7735
26.0352 42.1618
26.0809 42.3789
26.1268 42.6475
26.1725 42.5344
26.2184 41.9548
26.2641 41.3748
26.31 41.0921
26.3557 41.0966
26.4017 40.9801
26.4474 41.327
26.4933 41.5707
26.5391 41.8837
26.585 42.5006
26.6308 42.6928
26.6767 43.011
26.7225 43.0546
26.7684 42.5775
26.8142 41.8887
26.8601 41.373
26.9059 41.0348
26.9519 40.574
26.9979 40.2353
27.0437 39.7446
27.0896 39.7139
27.1354 39.6064
27.1814 39.5463
27.2272 39.4537
27.2732 39.5295
27.3191 39.3009
27.3651 39.3176
27.4109 39.1875
27.4569 39.1886
27.5027 39.288
27.5488 39.446
27.5946 39.1249
27.6407 39.1671
27.6865 38.9699
27.7326 38.6895
27.7784 38.6489
27.8245 38.6191
27.8703 38.7347
27.9164 39.0973
27.9623 39.1008
28.0084 39.4049
28.0543 39.8666
28.1003 39.864
28.1462 39.5629
28.1923 39.3419
28.2384 38.9704
28.2843 38.6131
28.3304 38.1213
28.3764 37.6178
28.4225 37.3202
28.4684 37.1455
28.5145 36.8316
28.5605 36.6825
28.6066 36.482
28.6526 36.3897
28.6987 36.4595
28.7447 36.2865
28.7908 36.1803
28.8368 36.33
28.8829 36.1833
28.9289 36.1316
28.9751 35.9182
29.0211 35.8562
29.0673 35.5126
29.1133 35.3982
29.1595 35.1956
29.2055 35.0946
29.2517 34.9792
29.2977 35.1242
29.3439 34.9869
29.3899 35.0335
29.4361 34.9146
29.4824 34.7737
29.5284 34.5347
29.5746 34.1959
29.6207 33.9402
29.6669 33.8621
29.713 33.6816
29.7593 33.7075
29.8053 33.6655
29.8516 33.6049
29.8977 33.6559
29.9439 33.3707
29.99 33.3553
30.0363 33.2193
30.0824 33.1949
30.1287 33.1527
30.1748 33.2473
30.2211 33.1872
30.2673 33.0762
30.3136 33.083
30.3597 33.0951
30.406 33.0254
30.4522 32.7939
30.4985 32.6544
30.5447 32.8205
30.591 32.8204
30.6372 32.7662
30.6835 32.7512
30.7297 32.921
30.7761 32.9236
30.8224 32.745
30.8686 32.6181
30.915 32.4102
30.9612 32.2512
31.0076 32.0953
31.0538 31.9428
31.1002 31.8747
31.1464 31.685
31.1928 31.6982
31.2391 31.6126
31.2855 31.5427
31.3317 31.6065
31.3781 31.5301
31.4244 31.5233
31.4708 31.5022
31.5171 31.6156
31.5636 31.4363
31.6098 31.2689
31.6563 31.0742
31.7026 30.9257
31.7491 30.8334
31.7953 30.7797
31.8418 30.7322
31.8881 30.8662
31.9346 30.7476
31.9809 30.7603
32.0275 30.6579
32.074 30.4926
32.1203 30.2981
32.1668 30.2221
32.2132 30.0287
32.2597 30.0594
32.306 29.8805
32.3526 29.6066
32.399 29.5491
32.4455 29.4842
32.4919 29.3396
32.5385 29.3271
32.5848 29.1292
32.6314 29.2345
32.6778 29.0802
32.7244 28.8939
32.7708 28.8068
32.8174 28.7132
32.8638 28.6099
32.9104 28.6835
32.9569 28.6422
33.0035 28.5005
33.0499 28.4713
33.0966 28.3873
33.143 28.3531
33.1897 28.3125
33.2361 28.3039
33.2828 28.2077
33.3293 28.1147
33.3759 28.0514
33.4226 27.8566
33.4691 27.7614
33.5158 27.634
33.5623 27.543
33.609 27.2997
33.6555 27.2742
33.7022 27.2132
33.7487 27.1566
33.7954 27.1131
33.842 26.9844
33.8887 26.9293
33.9353 26.8535
33.982 26.7332
34.0286 26.6442
34.0753 26.6569
34.1219 26.5276
34.1687 26.469
34.2152 26.3052
34.262 26.2644
34.3086 26.0903
34.3554 26.1737
34.402 25.9505
34.4488 25.9124
34.4954 25.8163
34.5422 25.7155
34.5889 25.6225
34.6357 25.6507
34.6825 25.5196
34.7292 25.4548
34.776 25.2638
34.8227 25.207
34.8695 25.2064
34.9162 25.0938
34.9631 25.0964
35.0098 25.0715
35.0566 24.8879
35.1033 24.8045
35.1502 24.8521
35.1969 24.754
35.2438 24.7349
35.2906 24.6837
35.3375 24.511
35.3842 24.4903
35.4311 24.4961
35.4779 24.4769
35.5248 24.4537
35.5716 24.3493
35.6185 24.3169
35.6653 24.1199
35.7123 24.1384
35.759 24.0027
35.806 23.91
35.8528 23.7677
35.8998 23.7236
35.9468 23.644
35.9936 23.6041
36.0406 23.583
36.0874 23.4811
36.1345 23.4477
36.1813 23.316
36.2283 23.2283
36.2752 23.1935
36.3222 23.1838
36.3691 23.059
36.4161 22.9618
36.463 22.974
36.5101 22.8803
36.557 22.8375
36.6041 22.6879
36.651 22.669
36.6981 22.6282
36.745 22.6018
36.7921 22.5181
36.839 22.3137
36.8861 22.3042
36.9331 22.2732
36.9802 22.1704
37.0272 22.1326
37.0743 21.9897
37.1213 21.9441
37.1684 21.9603
37.2154 21.8889
37.2626 21.713
37.3098 21.685
37.3568 21.5629
37.404 21.5272
37.451 21.4737
37.4982 21.3998
37.5452 21.3424
37.5924 21.2414
37.6395 21.3213
37.6867 21.2157
37.7337 21.0558
37.781 21.0327
37.8281 20.9906
37.8753 20.8724
37.9224 20.8292
37.9697 20.7287
38.0168 20.7058
38.064 20.6262
38.1111 20.5605
38.1584 20.4862
38.2056 20.4273
38.2529 20.3648
38.3 20.3048
38.3473 20.2896
38.3945 20.1421
38.4418 20.1406
38.489 20.0918
38.5363 19.9197
38.5837 19.8691
38.6309 19.8344
38.6782 19.7602
38.7254 19.6817
38.7728 19.6837
38.82 19.6169
38.8674 19.5862
38.9146 19.4443
38.9621 19.4703
39.0093 19.3843
39.0567 19.2315
39.104 19.2782
39.1514 19.1218
39.1987 19.1286
39.2461 19.0833
39.2934 18.9767
39.3409 18.926
39.3882 18.8544
39.4356 18.8401
39.483 18.7861
39.5304 18.7173
39.5778 18.6541
39.6253 18.5165
39.6726 18.4949
39.7201 18.5421
39.7675 18.425
39.815 18.3568
39.8624 18.3082
39.9099 18.2716
39.9575 18.1429
40.0049 18.1455
40.0525 18.0455
40.0999 18.0595
40.1474 17.9619
40.1949 17.91
40.2425 17.8538
40.2899 17.7537
40.3375 17.7309
40.385 17.6452
40.4326 17.5894
40.48 17.5476
40.5277 17.4502
40.5752 17.4112
40.6228 17.3799
40.6703 17.326
40.718 17.2451
40.7655 17.2364
40.8132 17.1048
40.8607 17.1657
40.9084 17.0476
40.9559 16.9787
41.0036 17.0179
41.0512 16.9005
41.0989 16.8778
41.1465 16.7974
41.1942 16.7176
41.242 16.6462
41.2896 16.553
41.3373 16.4846
41.3849 16.503
41.4327 16.397
41.4803 16.3181
41.5281 16.3714
41.5758 16.2251
41.6236 16.2053
41.6712 16.1584
41.7191 16.0811
41.7667 16.0083
41.8146 16.0236
41.8622 16.0038
41.9101 15.9513
41.9578 15.8227
42.0057 15.8027
42.0534 15.7737
42.1013 15.703
42.149 15.5958
42.1969 15.5588
42.2446 15.4661
42.2925 15.525
42.3403 15.3677
42.3882 15.3529
42.436 15.3059
42.4839 15.2212
42.5319 15.2433
42.5797 15.1575
42.6277 15.111
42.6755 15.0651
42.7235 14.9637
42.7713 14.9531
42.8193 14.9238
42.8671 14.8458
42.9152 14.8014
42.963 14.737
43.0111 14.7088
43.0589 14.6186
43.107 14.6013
43.1549 14.5502
43.2029 14.4894
43.2508 14.492
43.2989 14.4071
43.3468 14.2926
43.3949 14.3367
43.4429 14.2011
43.491 14.192
43.5389 14.1971
43.5871 14.156
43.635 14.0535
43.6832 14.0413
43.7312 13.9078
43.7793 13.8882
43.8273 13.9085
43.8755 13.8021
43.9237 13.7354
43.9717 13.6847
44.0199 13.6462
44.068 13.6541
44.1162 13.6024
44.1642 13.5321
44.2125 13.4983
44.2606 13.4515
44.3088 13.3974
44.3569 13.3842
44.4052 13.3422
44.4533 13.2691
44.5016 13.2157
44.5497 13.1821
44.598 13.114
44.6461 13.1088
44.6945 13.0069
44.7426 12.9645
44.791 12.9311
44.8391 12.8861
44.8875 12.8408
44.9357 12.8539
44.984 12.7408
45.0322 12.7036
45.0806 12.627
45.1288 12.6244
45.1773 12.5925
45.2257 12.5467
45.2739 12.5142
45.3224 12.4534
45.3706 12.4173
45.4191 12.3126
45.4673 12.3401
45.5158 12.2597
45.5641 12.2349
45.6126 12.1757
45.6609 12.1517
45.7094 12.0605
45.7577 12.044
45.8063 11.948
45.8546 11.9658
45.9031 11.8846
45.9515 11.8808
46.0001 11.7849
46.0484 11.794
46.097 11.7584
46.1454 11.7388
46.194 11.6694
46.2424 11.6402
46.291 11.5757
46.3395 11.5108
46.3881 11.5056
46.4365 11.4707
46.4852 11.4271
46.5337 11.3708
46.5823 11.3678
46.631 11.2446
46.6795 11.235
46.7282 11.2016
46.7767 11.2082
46.8254 11.118
46.8739 11.0524
46.9226 11.0376
46.9712 10.9438
47.0199 10.9782
47.0685 10.9006
47.1173 10.8909
47.1658 10.8023
47.2146 10.7961
47.2632 10.7298
47.312 10.6765
47.3606 10.6659
47.4095 10.6461
47.4581 10.5888
47.5069 10.5665
47.5556 10.5263
47.6044 10.4576
47.6531 10.4451
47.702 10.3668
47.7507 10.3515
47.7996 10.3319
47.8483 10.3032
47.8972 10.2865
47.9461 10.1966
47.9948 10.132
48.0438 10.1729
48.0925 10.1202
48.1415 10.0943
48.1902 10.0489
48.2392 10.0156
48.288 9.97341
48.337 9.94231
48.3858 9.86743
48.4348 9.86797
48.4837 9.83392
48.5327 9.75653
48.5815 9.78751
48.6306 9.72532
48.6795 9.69126
48.7285 9.61975
48.7774 9.64223
48.8265 9.60542
48.8754 9.52148
48.9245 9.50508
48.9734 9.47617
49.0226 9.45122
49.0715 9.38684
49.1206 9.36244
49.1696 9.32416
49.2188 9.27416
49.2679 9.23024
49.3169 9.23099
49.3661 9.14738
49.4151 9.14145
49.4643 9.12902
49.5134 9.05825
49.5626 9.00221
49.6117 9.00394
49.6609 8.96947
49.71 8.91939
49.7592 8.91421
49.8083 8.85273
49.8576 8.88674
49.9067 8.77539
49.956 8.75623
50.0052 8.72613
50.0545 8.72042
50.1036 8.67919
50.153 8.64893
50.2022 8.61798
50.2515 8.59652
50.3007 8.54849
50.3501 8.4819
50.3993 8.49122
50.4487 8.42734
50.498 8.37841
50.5474 8.35106
50.5966 8.32836
50.6461 8.31108
50.6955 8.28186
50.7448 8.2524
50.7943 8.20077
50.8436 8.16607
50.8931 8.13942
50.9424 8.12326
50.9919 8.08824
51.0413 8.06564
51.0908 8.00714
51.1402 7.9966
51.1897 7.93903
51.2391 7.90952
51.2887 7.88412
51.3381 7.84561
51.3877 7.85529
51.4371 7.77521
51.4867 7.73978
51.5362 7.71263
51.5858 7.66747
51.6353 7.66055
51.6849 7.61557
51.7344 7.60394
51.7841 7.5246
51.8336 7.52723
51.8833 7.4862
51.9328 7.47932
51.9826 7.40373
52.0323 7.41453
52.0818 7.39389
52.1316 7.35313
52.1812 7.3167
52.231 7.25247
52.2806 7.23328
52.3304 7.21695
52.38 7.24167
52.4298 7.19641
52.4794 7.16483
52.5293 7.12368
52.5789 7.07639
52.6288 7.06231
52.6785 7.00588
52.7284 7.05269
52.7781 6.99544
52.828 6.92458
52.8777 6.90539
52.9276 6.84714
52.9774 6.84546
53.0273 6.83536
53.0771 6.75249
53.1271 6.75086
53.1769 6.71682
53.2269 6.68616
53.2767 6.66089
53.3267 6.69999
53.3765 6.62286
53.4266 6.60847
53.4766 6.53198
53.5265 6.58136
53.5765 6.53704
53.6264 6.49581
53.6765 6.45265
53.7264 6.46237
53.7765 6.4091
53.8265 6.34635
53.8766 6.3217
53.9266 6.31973
53.9767 6.30617
54.0267 6.23034
54.0769 6.22685
54.1269 6.19037
54.1771 6.15112
54.2271 6.15088
54.2773 6.08314
54.3274 6.077
54.3776 5.98585
54.4277 6.01649
54.478 5.99856
54.528 5.95352
54.5783 5.86168
54.6285 5.83786
54.6788 5.77259
54.7289 5.77734
54.7792 5.7852
54.8296 5.64674
54.8798 5.64257
54.9301 5.63464
54.9803 5.55879
55.0307 5.57913
55.0809 5.49262
55.1314 5.45985
55.1816 5.45647
55.232 5.28892
55.2823 5.29341
55.3328 5.31253
55.383 5.22292
55.4335 5.17819
55.4838 5.13554
55.5344 5.08128
55.5847 5.03878
55.6352 5.03002
55.6856 4.92591
55.7361 4.90153