File: XRD/Ni3Fe_FD0960.xy
TT I
1.27165 7.52716
1.31627 6.55945
1.36089 6.50622
1.40551 6.27408
1.45013 6.44587
1.49476 6.09004
1.53938 5.60277
1.584 5.25531
1.62863 5.33464
1.67325 5.40074
1.71787 5.18199
1.7625 4.85624
1.80712 4.59073
1.85174 4.59059
1.89636 4.51435
1.94099 4.51853
1.98562 4.74726
2.03025 4.32527
2.07487 4.31519
2.11949 4.83903
2.16411 4.67848
2.20874 12.5619
2.25338 19.0558
2.298 6.43928
2.34263 5.59683
2.38725 6.27179
2.43188 6.18604
2.4765 7.33774
2.52115 7.30484
2.56577 7.24962
2.6104 8.44622
2.65503 7.94842
2.69965 8.76143
2.7443 7.53569
2.78893 8.47078
2.83356 9.10775
2.87818 9.32724
2.92281 8.37132
2.96744 9.84582
3.01209 10.6899
3.05672 11.2046
3.10135 12.8251
3.14599 13.139
3.19062 14.5252
3.23527 15.4932
3.2799 15.8284
3.32454 16.9463
3.36917 17.5607
3.4138 18.6337
3.45844 19.4588
3.50309 20.251
3.54773 21.3591
3.59237 23.7875
3.637 76.9281
3.68164 51.6112
3.7263 25.9459
3.77094 25.9697
3.81558 26.5273
3.86022 27.1536
3.90486 28.6296
3.9495 29.5922
3.99416 30.5636
4.0388 31.6503
4.08344 33.422
4.12809 33.923
4.17273 36.0788
4.21738 41.4809
4.26204 207.315
4.30669 179.698
4.35133 46.8603
4.39598 43.8176
4.44063 51.7203
4.4853 60.6903
4.52995 49.8102
4.5746 51.6911
4.61925 52.671
4.6639 54.2904
4.70855 57.342
4.75322 59.9247
4.79788 63.3573
4.84253 66.0141
4.88719 70.5486
4.93184 74.3085
4.97652 79.1308
5.02118 85.0201
5.06583 91.9914
5.11049 102.212
5.15515 158.888
5.19981 287.244
5.24449 2503.38
5.28916 13446.8
5.33382 2858.77
5.37848 175.123
5.42315 124.481
5.46783 111.336
5.5125 104.542
5.55716 99.8857
5.60183 96.7597
5.6465 94.6816
5.69117 92.8231
5.73586 90.6249
5.78053 90.7641
5.8252 89.8286
5.86988 90.5838
5.91455 91.2027
5.95924 97.234
6.00392 178.56
6.0486 832.741
6.09328 4564.94
6.13795 3126.77
6.18263 213.975
6.22733 88.5018
6.27201 80.0552
6.3167 94.5636
6.36138 77.4594
6.40606 67.9904
6.45075 66.5306
6.49545 64.2652
6.54014 62.7416
6.58483 61.8092
6.62952 61.4994
6.67421 86.9513
6.71892 124.937
6.76361 65.7149
6.8083 57.7619
6.853 56.9883
6.89769 56.1307
6.94239 55.4219
6.98711 55.003
7.03181 54.4523
7.07651 54.4901
7.12121 54.2803
7.16591 54.7733
7.21063 54.9161
7.25533 66.9579
7.30004 151.204
7.34475 83.1175
7.38945 55.2623
7.43416 53.6957
7.47889 53.3346
7.5236 54.0577
7.56831 54.6271
7.61303 55.5476
7.65774 56.116
7.70247 55.5864
7.74719 55.6083
7.79191 55.7974
7.83663 55.9976
7.88135 56.7179
7.92607 57.436
7.97081 58.9555
8.01553 59.8043
8.06026 61.0891
8.10498 63.0253
8.14971 71.1711
8.19446 70.2838
8.23919 68.2073
8.28392 70.4052
8.32865 72.2947
8.37339 76.8023
8.41812 82.6324
8.46288 105.596
8.50761 145.386
8.55235 345.505
8.59709 1162.87
8.64183 2239.74
8.68658 912.981
8.73134 154.671
8.77609 95.9975
8.82083 90.4951
8.86558 88.2552
8.91033 88.5741
8.9551 89.2675
8.99985 83.7671
9.04461 82.1668
9.08936 81.3419
9.13412 80.5875
9.17888 80.5748
9.22365 80.9851
9.26841 80.1871
9.31318 81.5624
9.35794 82.0075
9.4027 82.2239
9.44749 82.81
9.49226 83.1282
9.53703 83.9957
9.5818 86.136
9.62657 90.1774
9.67134 95.3813
9.71614 91.3464
9.76091 92.4802
9.80569 94.7614
9.85047 97.8487
9.89525 117.304
9.94005 127.265
9.98484 159.101
10.0296 307.917
10.0744 784.782
10.1192 1799.87
10.164 1561.23
10.2088 363.005
10.2536 122.546
10.2984 109.47
10.3432 110.333
10.388 101.695
10.4328 112.071
10.4776 150.725
10.5224 277.018
10.5672 529.739
10.612 496.894
10.6568 194.784
10.7017 93.9159
10.7465 84.7056
10.7913 81.4578
10.8361 79.3937
10.8809 77.6395
10.9257 76.7676
10.9706 77.0061
11.0154 73.3957
11.0602 71.3632
11.105 70.2054
11.1499 73.8069
11.1947 79.0862
11.2395 72.0973
11.2844 68.4621
11.3292 65.8701
11.374 64.7701
11.4189 64.4914
11.4637 63.5764
11.5086 64.062
11.5534 66.12
11.5983 64.1042
11.6431 62.4363
11.688 61.8792
11.7328 61.6705
11.7777 61.8046
11.8225 61.2689
11.8674 61.1384
11.9122 61.6818
11.9571 61.76
12.002 62.1718
12.0468 65.8049
12.0917 75.2238
12.1366 99.3576
12.1814 156.233
12.2263 206.096
12.2712 163.922
12.3161 93.9622
12.3609 68.3241
12.4058 63.4554
12.4507 62.9413
12.4956 63.1902
12.5405 63.3325
12.5853 64.38
12.6302 70.5266
12.6751 74.6656
12.72 68.1223
12.7649 66.3363
12.8098 67.1115
12.8547 68.3784
12.8996 69.3616
12.9445 70.8825
12.9894 72.9002
13.0343 74.1882
13.0792 77.3942
13.1242 84.2797
13.1691 104.915
13.214 140.865
13.2589 237.694
13.3038 382.903
13.3487 425.5
13.3937 248.888
13.4386 119.009
13.4835 100.734
13.5285 113.768
13.5734 152.122
13.6183 249.452
13.6633 357.88
13.7082 325.589
13.7531 177.454
13.7981 94.8394
13.843 80.1502
13.888 78.1531
13.9329 75.7595
13.9779 74.3773
14.0228 72.9031
14.0678 71.6642
14.1127 71.1715
14.1577 70.9778
14.2027 70.0691
14.2476 69.1497
14.2926 69.1996
14.3376 69.869
14.3825 68.7142
14.4275 67.5348
14.4725 67.2446
14.5175 67.2812
14.5624 67.7373
14.6074 69.3683
14.6524 69.8668
14.6974 69.0142
14.7424 70.0277
14.7874 75.4888
14.8324 85.1736
14.8774 106.952
14.9224 154.644
14.9674 215.202
15.0124 217.532
15.0574 145.146
15.1024 87.221
15.1474 70.7914
15.1924 69.1045
15.2374 69.2385
15.2824 68.5713
15.3274 66.6278
15.3725 65.626
15.4175 65.0648
15.4625 64.8496
15.5076 64.8399
15.5526 64.832
15.5976 64.5336
15.6426 65.3066
15.6877 69.5362
15.7327 76.6205
15.7778 92.0198
15.8228 125.757
15.8679 174.844
15.9129 193.194
15.958 148.785
16.003 92.4601
16.0481 66.6089
16.0931 62.9321
16.1382 61.1815
16.1833 59.4616
16.2283 57.7989
16.2734 57.3136
16.3185 57.3913
16.3636 57.9339
16.4086 56.4175
16.4537 55.123
16.4988 54.6322
16.5439 54.5299
16.589 54.1112
16.6341 53.8972
16.6792 53.4768
16.7243 53.753
16.7694 53.715
16.8145 53.8403
16.8596 53.9398
16.9047 55.2293
16.9498 55.3761
16.9949 54.3394
17.04 54.5427
17.0851 55.4926
17.1302 57.2342
17.1754 60.138
17.2205 65.3978
17.2656 74.2159
17.3108 82.6883
17.3559 80.0256
17.401 69.0136
17.4462 60.765
17.4913 58.0281
17.5365 57.9386
17.5815 57.8406
17.6268 58.2864
17.6718 58.9919
17.7171 59.6276
17.7622 59.8689
17.8074 60.6097
17.8525 62.3921
17.8977 66.0055
17.9428 71.2751
17.9881 80.2771
18.0331 99.4103
18.0784 122.577
18.1237 137.393
18.1688 125.965
18.214 99.4997
18.2591 84.258
18.3044 90.0331
18.3495 101.044
18.3948 105.006
18.4399 93.5425
18.4852 75.1663
18.5303 64.5059
18.5756 60.9126
18.6207 60.0596
18.666 59.1682
18.7112 58.6768
18.7565 57.8174
18.8016 57.5313
18.8469 56.7503
18.892 56.609
18.9374 56.1132
18.9825 55.9373
19.0278 55.7264
19.073 55.6745
19.1183 56.0886
19.1635 56.6287
19.2088 58.4139
19.254 60.8328
19.2993 65.9859
19.3447 71.6452
19.3898 74.6207
19.4352 69.9216
19.4804 61.444
19.5257 55.5445
19.5709 53.2241
19.6163 52.8471
19.6615 52.7447
19.7068 52.1693
19.752 52.3023
19.7974 52.3695
19.8426 53.1596
19.888 53.8005
19.9332 54.9386
19.9786 57.804
20.0238 61.8826
20.0692 66.7108
20.1144 68.7028
20.1598 66.1793
20.205 62.1866
20.2504 61.274
20.2957 63.7821
20.3411 64.9743
20.3863 62.5876
20.4318 56.9634
20.477 52.5151
20.5224 50.4587
20.5677 49.9659
20.6131 49.2605
20.6586 48.6428
20.7038 48.6725
20.7493 48.1359
20.7945 48.0669
20.84 47.8178
20.8853 47.8167
20.9307 47.7829
20.976 47.8011
21.0215 47.7492
21.0668 47.8385
21.1122 48.4931
21.1575 49.1481
21.203 49.9942
21.2483 50.5846
21.2938 50.3422
21.3391 48.9779
21.3846 48.0641
21.4299 47.5208
21.4754 47.3895
21.5207 47.4593
21.5662 47.7937
21.6116 48.1431
21.6571 48.915
21.7024 49.7855
21.7479 51.4562
21.7933 54.5424
21.8388 58.655
21.8843 62.4028
21.9297 63.2803
21.9752 61.3801
22.0206 58.1006
22.0661 55.7605
22.1115 55.3278
22.157 54.7551
22.2024 53.0078
22.248 50.4244
22.2933 48.8717
22.3389 48.2963
22.3843 48.1501
22.4299 47.8634
22.4753 47.9308
22.5208 47.7189
22.5662 47.5567
22.6118 47.7345
22.6572 47.8425
22.7028 48.2377
22.7483 48.6814
22.7939 49.3339
22.8393 51.0054
22.8849 53.3933
22.9303 55.4814
22.9759 56.907
23.0214 56.1087
23.067 53.1018
23.1126 50.1819
23.1581 48.317
23.2037 47.8574
23.2492 47.8633
23.2948 47.8298
23.3403 48.0146
23.3859 48.7035
23.4314 49.8177
23.477 51.8765
23.5225 54.5219
23.5682 56.5059
23.6137 57.0334
23.6593 54.3741
23.7048 50.464
23.7505 47.3345
23.796 45.7258
23.8417 45.0828
23.8872 44.7814
23.9329 44.253
23.9784 44.1301
24.0241 43.8128
24.0697 43.5631
24.1154 43.4448
24.1609 43.231
24.2066 43.0479
24.2522 42.8584
24.2979 42.6107
24.3434 42.4985
24.3892 42.4278
24.4349 42.2735
24.4805 42.1585
24.5262 42.2629
24.5718 42.117
24.6175 42.128
24.6631 42.1572
24.7089 41.8218
24.7545 41.683
24.8002 41.3844
24.8458 41.4292
24.8916 41.3074
24.9372 41.5376
24.983 41.6642
25.0286 42.1707
25.0744 42.4659
25.12 43.0273
25.1658 43.6074
25.2114 43.8398
25.2572 44.1297
25.3029 44.2989
25.3487 44.3308
25.3943 43.7765
25.4402 42.7128
25.4858 41.5488
25.5316 40.6832
25.5773 40.1257
25.6231 40.1104
25.669 39.7129
25.7147 39.6882
25.7605 39.6308
25.8062 39.6957
25.8521 39.8851
25.8977 39.7071
25.9436 40.1499
25.9893 40.3126
26.0352 40.8715
26.0809 40.8826
26.1268 40.9895
26.1725 40.6409
26.2184 39.9762
26.2641 39.5671
26.31 39.4487
26.3557 39.301
26.4017 39.311
26.4474 39.7153
26.4933 40.0606
26.5391 40.4551
26.585 41.1129
26.6308 41.3435
26.6767 41.4384
26.7225 41.1494
26.7684 40.736
26.8142 40.1779
26.8601 39.7064
26.9059 39.2651
26.9519 38.8011
26.9979 38.5643
27.0437 38.1238
27.0896 37.9863
27.1354 38.1059
27.1814 37.9411
27.2272 37.8781
27.2732 37.7919
27.3191 37.5512
27.3651 37.7148
27.4109 37.7881
27.4569 37.9005
27.5027 37.8163
27.5488 37.97
27.5946 37.6181
27.6407 37.4962
27.6865 37.3591
27.7326 37.2099
27.7784 37.272
27.8245 37.1226
27.8703 37.2946
27.9164 37.6023
27.9623 37.879
28.0084 38.242
28.0543 38.448
28.1003 38.2466
28.1462 38.0846
28.1923 37.7407
28.2384 37.3536
28.2843 36.9284
28.3304 36.6025
28.3764 35.9442
28.4225 35.7995
28.4684 35.5935
28.5145 35.3739
28.5605 35.2884
28.6066 34.984
28.6526 35.0097
28.6987 35.022
28.7447 34.8728
28.7908 34.9314
28.8368 34.8678
28.8829 34.7828
28.9289 34.6958
28.9751 34.5408
29.0211 34.331
29.0673 34.0765
29.1133 33.999
29.1595 33.8447
29.2055 33.7553
29.2517 33.7795
29.2977 33.8272
29.3439 33.8586
29.3899 33.6461
29.4361 33.5085
29.4824 33.362
29.5284 33.2132
29.5746 32.7566
29.6207 32.6083
29.6669 32.558
29.713 32.517
29.7593 32.3253
29.8053 32.294
29.8516 32.1602
29.8977 32.1169
29.9439 31.9469
29.99 32.063
30.0363 31.9503
30.0824 31.9598
30.1287 31.8635
30.1748 31.8584
30.2211 31.8169
30.2673 31.7151
30.3136 31.7876
30.3597 31.7049
30.406 31.5823
30.4522 31.4637
30.4985 31.3946
30.5447 31.6134
30.591 31.5739
30.6372 31.6412
30.6835 31.6189
30.7297 31.7176
30.7761 31.5821
30.8224 31.3642
30.8686 31.3226
30.915 30.9923
30.9612 30.8996
31.0076 30.7868
31.0538 30.6325
31.1002 30.5251
31.1464 30.3719
31.1928 30.3483
31.2391 30.3787
31.2855 30.3339
31.3317 30.3344
31.3781 30.3897
31.4244 30.2567
31.4708 30.2793
31.5171 30.1542
31.5636 30.239
31.6098 29.9812
31.6563 29.9306
31.7026 29.6637
31.7491 29.6478
31.7953 29.6536
31.8418 29.6378
31.8881 29.635
31.9346 29.5017
31.9809 29.5489
32.0275 29.4604
32.074 29.3164
32.1203 29.151
32.1668 28.9618
32.2132 28.8705
32.2597 28.7812
32.306 28.653
32.3526 28.4578
32.399 28.4854
32.4455 28.2892
32.4919 28.17
32.5385 28.1618
32.5848 27.8826
32.6314 28.0302
32.6778 27.964
32.7244 27.7038
32.7708 27.7558
32.8174 27.6518
32.8638 27.5305
32.9104 27.6015
32.9569 27.4733
33.0035 27.4055
33.0499 27.344
33.0966 27.2725
33.143 27.423
33.1897 27.166
33.2361 27.0934
33.2828 27.0844
33.3293 26.9743
33.3759 26.9454
33.4226 26.7914
33.4691 26.5935
33.5158 26.5569
33.5623 26.4005
33.609 26.3203
33.6555 26.1204
33.7022 26.1419
33.7487 26.1144
33.7954 26.0404
33.842 25.8781
33.8887 25.8631
33.9353 25.8657
33.982 25.6295
34.0286 25.5353
34.0753 25.5289
34.1219 25.4201
34.1687 25.4066
34.2152 25.2816
34.262 25.1668
34.3086 25.1186
34.3554 25.0856
34.402 24.9799
34.4488 24.8526
34.4954 24.8574
34.5422 24.8066
34.5889 24.6054
34.6357 24.6164
34.6825 24.4041
34.7292 24.47
34.776 24.3145
34.8227 24.2484
34.8695 24.2566
34.9162 24.1624
34.9631 24.0652
35.0098 24.0634
35.0566 23.9218
35.1033 23.8238
35.1502 23.8033
35.1969 23.7952
35.2438 23.7484
35.2906 23.6739
35.3375 23.6806
35.3842 23.5753
35.4311 23.5662
35.4779 23.5788
35.5248 23.5062
35.5716 23.3261
35.6185 23.3476
35.6653 23.2171
35.7123 23.06
35.759 23.0877
35.806 22.9516
35.8528 22.8454
35.8998 22.7906
35.9468 22.7276
35.9936 22.6795
36.0406 22.6015
36.0874 22.62
36.1345 22.5723
36.1813 22.4647
36.2283 22.3101
36.2752 22.2881
36.3222 22.243
36.3691 22.0859
36.4161 22.0517
36.463 22.044
36.5101 22.0352
36.557 21.9848
36.6041 21.7987
36.651 21.8516
36.6981 21.6952
36.745 21.6984
36.7921 21.6381
36.839 21.4946
36.8861 21.4013
36.9331 21.3652
36.9802 21.2977
37.0272 21.2232
37.0743 21.1107
37.1213 21.0313
37.1684 21.1415
37.2154 20.9946
37.2626 20.8606
37.3098 20.8591
37.3568 20.7918
37.404 20.6913
37.451 20.6275
37.4982 20.5169
37.5452 20.579
37.5924 20.4678
37.6395 20.434
37.6867 20.352
37.7337 20.2516
37.781 20.1783
37.8281 20.1449
37.8753 20.0563
37.9224 19.9962
37.9697 19.9298
38.0168 19.8198
38.064 19.8177
38.1111 19.7649
38.1584 19.6777
38.2056 19.6055
38.2529 19.5579
38.3 19.5337
38.3473 19.4948
38.3945 19.3457
38.4418 19.3567
38.489 19.2154
38.5363 19.1305
38.5837 19.1216
38.6309 19.0875
38.6782 19.0379
38.7254 19.026
38.7728 18.9024
38.82 18.8396
38.8674 18.8804
38.9146 18.7123
38.9621 18.6157
39.0093 18.5315
39.0567 18.5483
39.104 18.5252
39.1514 18.413
39.1987 18.4066
39.2461 18.2902
39.2934 18.2723
39.3409 18.1412
39.3882 18.1423
39.4356 18.133
39.483 17.9805
39.5304 17.9175
39.5778 17.9006
39.6253 17.8681
39.6726 17.8313
39.7201 17.767
39.7675 17.6726
39.815 17.5856
39.8624 17.5961
39.9099 17.5216
39.9575 17.4236
40.0049 17.3645
40.0525 17.3305
40.0999 17.248
40.1474 17.2146
40.1949 17.1687
40.2425 17.0597
40.2899 17.0381
40.3375 17.0494
40.385 16.9433
40.4326 16.8955
40.48 16.8513
40.5277 16.8137
40.5752 16.7583
40.6228 16.6345
40.6703 16.6923
40.718 16.5497
40.7655 16.5156
40.8132 16.4535
40.8607 16.4205
40.9084 16.3757
40.9559 16.3501
41.0036 16.2929
41.0512 16.2452
41.0989 16.1418
41.1465 16.0934
41.1942 16.0366
41.242 15.958
41.2896 15.9743
41.3373 15.8871
41.3849 15.8602
41.4327 15.7632
41.4803 15.6993
41.5281 15.7003
41.5758 15.6578
41.6236 15.6134
41.6712 15.529
41.7191 15.4672
41.7667 15.4206
41.8146 15.3984
41.8622 15.3116
41.9101 15.2696
41.9578 15.1383
42.0057 15.1258
42.0534 15.0661
42.1013 15.0257
42.149 15.0229
42.1969 14.9556
42.2446 14.9855
42.2925 14.8981
42.3403 14.7999
42.3882 14.8145
42.436 14.7869
42.4839 14.6127
42.5319 14.6498
42.5797 14.601
42.6277 14.5674
42.6755 14.4868
42.7235 14.3911
42.7713 14.343
42.8193 14.3807
42.8671 14.2883
42.9152 14.2083
42.963 14.1991
43.0111 14.1559
43.0589 14.0748
43.107 14.0177
43.1549 13.9775
43.2029 13.9462
43.2508 13.9029
43.2989 13.8166
43.3468 13.7668
43.3949 13.7658
43.4429 13.6953
43.491 13.6755
43.5389 13.633
43.5871 13.5722
43.635 13.5067
43.6832 13.4665
43.7312 13.4471
43.7793 13.3689
43.8273 13.335
43.8755 13.2437
43.9237 13.1986
43.9717 13.1838
44.0199 13.1365
44.068 13.0569
44.1162 13.0707
44.1642 13.0469
44.2125 12.997
44.2606 12.9162
44.3088 12.8513
44.3569 12.851
44.4052 12.7919
44.4533 12.6863
44.5016 12.6587
44.5497 12.6656
44.598 12.5849
44.6461 12.5489
44.6945 12.5012
44.7426 12.4702
44.791 12.3828
44.8391 12.3929
44.8875 12.3343
44.9357 12.2874
44.984 12.2435
45.0322 12.2192
45.0806 12.1981
45.1288 12.1242
45.1773 12.0802
45.2257 12.069
45.2739 12.0202
45.3224 11.9431
45.3706 11.933
45.4191 11.8593
45.4673 11.8532
45.5158 11.8342
45.5641 11.7421
45.6126 11.7117
45.6609 11.6652
45.7094 11.6187
45.7577 11.589
45.8063 11.5021
45.8546 11.484
45.9031 11.4178
45.9515 11.4325
46.0001 11.3877
46.0484 11.3264
46.097 11.3153
46.1454 11.2606
46.194 11.2066
46.2424 11.196
46.291 11.1652
46.3395 11.0939
46.3881 11.027
46.4365 11.0464
46.4852 10.9793
46.5337 10.9128
46.5823 10.8667
46.631 10.8274
46.6795 10.8091
46.7282 10.7801
46.7767 10.7665
46.8254 10.6647
46.8739 10.658
46.9226 10.5968
46.9712 10.5803
47.0199 10.5266
47.0685 10.4903
47.1173 10.4714
47.1658 10.4372
47.2146 10.3677
47.2632 10.3059
47.312 10.2844
47.3606 10.2433
47.4095 10.1849
47.4581 10.2012
47.5069 10.1634
47.5556 10.1168
47.6044 10.0529
47.6531 10.0237
47.702 10.0026
47.7507 9.97232
47.7996 9.91149
47.8483 9.90896
47.8972 9.86661
47.9461 9.82991
47.9948 9.75566
48.0438 9.71777
48.0925 9.73338
48.1415 9.68735
48.1902 9.66035
48.2392 9.60681
48.288 9.6039
48.337 9.58003
48.3858 9.52175
48.4348 9.486
48.4837 9.46853
48.5327 9.44998
48.5815 9.3494
48.6306 9.35257
48.6795 9.30051
48.7285 9.26495
48.7774 9.27362
48.8265 9.21636
48.8754 9.15903
48.9245 9.14088
48.9734 9.08808
49.0226 9.02819
49.0715 9.04681
49.1206 9.01401
49.1696 8.9348
49.2188 8.96375
49.2679 8.85569
49.3169 8.85467
49.3661 8.80637
49.4151 8.80184
49.4643 8.75925
49.5134 8.71839
49.5626 8.66256
49.6117 8.62539
49.6609 8.63727
49.71 8.58284
49.7592 8.53908
49.8083 8.50787
49.8576 8.52034
49.9067 8.45335
49.956 8.46059
50.0052 8.354
50.0545 8.38574
50.1036 8.31767
50.153 8.31855
50.2022 8.25349
50.2515 8.21135
50.3007 8.15363
50.3501 8.1787
50.3993 8.14093
50.4487 8.10287
50.498 8.09021
50.5474 8.07021
50.5966 8.00798
50.6461 8.01599
50.6955 7.98058
50.7448 7.93846
50.7943 7.92357
50.8436 7.85749
50.8931 7.83863
50.9424 7.80635
50.9919 7.7614
51.0413 7.75857
51.0908 7.73427
51.1402 7.65637
51.1897 7.6334
51.2391 7.60421
51.2887 7.57365
51.3381 7.54939
51.3877 7.53471
51.4371 7.47861
51.4867 7.46082
51.5362 7.43694
51.5858 7.41312
51.6353 7.3819
51.6849 7.32174
51.7344 7.31797
51.7841 7.28059
51.8336 7.25016
51.8833 7.20834
51.9328 7.20343
51.9826 7.1557
52.0323 7.13588
52.0818 7.10845
52.1316 7.05884
52.1812 7.06087
52.231 7.01011
52.2806 6.97075
52.3304 6.97519
52.38 6.88293
52.4298 6.90062
52.4794 6.85118
52.5293 6.8353
52.5789 6.83792
52.6288 6.77202
52.6785 6.71535
52.7284 6.7281
52.7781 6.70955
52.828 6.72693
52.8777 6.65299
52.9276 6.62495
52.9774 6.60549
53.0273 6.57461
53.0771 6.5002
53.1271 6.50327
53.1769 6.45396
53.2269 6.50838
53.2767 6.42673
53.3267 6.40162
53.3765 6.39085
53.4266 6.38699
53.4766 6.34814
53.5265 6.27921
53.5765 6.29633
53.6264 6.29131
53.6765 6.24419
53.7264 6.17218
53.7765 6.1469
53.8265 6.13522
53.8766 6.0697
53.9266 6.08902
53.9767 6.00842
54.0267 6.02383
54.0769 5.97865
54.1269 5.9898
54.1771 5.93979
54.2271 5.91395
54.2773 5.8621
54.3274 5.82714
54.3776 5.83111
54.4277 5.78426
54.478 5.76358
54.528 5.73307
54.5783 5.67636
54.6285 5.62893
54.6788 5.6178
54.7289 5.53285
54.7792 5.55373
54.8296 5.53432
54.8798 5.43485
54.9301 5.38246
54.9803 5.35645
55.0307 5.366
55.0809 5.30771
55.1314 5.2805
55.1816 5.21598
55.232 5.12016
55.2823 5.14867
55.3328 5.09163
55.383 5.00605
55.4335 5.00172
55.4838 4.94321
55.5344 4.894
55.5847 4.84626
55.6352 4.83599
55.6856 4.79996
55.7361 4.70672