File: XRD/Ni3Fe_FD0389.xy
TT I
1.27165 7.78703
1.31627 6.41446
1.36089 6.65019
1.40551 6.47677
1.45013 5.93009
1.49476 6.15237
1.53938 6.07095
1.584 5.48629
1.62863 5.68083
1.67325 5.073
1.71787 5.04008
1.7625 5.132
1.80712 4.87846
1.85174 5.06829
1.89636 4.458
1.94099 5.08024
1.98562 4.87153
2.03025 4.55246
2.07487 4.49104
2.11949 4.84475
2.16411 5.2853
2.20874 14.5577
2.25338 23.0441
2.298 5.51537
2.34263 5.17581
2.38725 5.05882
2.43188 5.51215
2.4765 5.81769
2.52115 5.90411
2.56577 6.42471
2.6104 6.96465
2.65503 7.09436
2.69965 6.8807
2.7443 7.42247
2.78893 8.02452
2.83356 7.98774
2.87818 8.61984
2.92281 8.99978
2.96744 9.47534
3.01209 10.5234
3.05672 10.8557
3.10135 12.6993
3.14599 12.7046
3.19062 13.9679
3.23527 14.9979
3.2799 15.9124
3.32454 16.665
3.36917 18.0433
3.4138 19.0623
3.45844 19.6346
3.50309 20.9516
3.54773 22.0961
3.59237 24.2663
3.637 94.4667
3.68164 59.6584
3.7263 26.9089
3.77094 26.9815
3.81558 27.2963
3.86022 27.9209
3.90486 29.3411
3.9495 30.2205
3.99416 31.7538
4.0388 33.1676
4.08344 34.0388
4.12809 35.3384
4.17273 38.1437
4.21738 44.4774
4.26204 254.156
4.30669 219.544
4.35133 49.8037
4.39598 45.4509
4.44063 54.8291
4.4853 66.6598
4.52995 52.28
4.5746 52.5147
4.61925 54.6612
4.6639 56.2322
4.70855 59.427
4.75322 62.7745
4.79788 65.5118
4.84253 68.9464
4.88719 73.4643
4.93184 77.0823
4.97652 82.9205
5.02118 89.7898
5.06583 97.9832
5.11049 111.604
5.15515 188.247
5.19981 455.805
5.24449 3155.97
5.28916 11419.2
5.33382 3537.43
5.37848 224.967
5.42315 139.272
5.46783 120.705
5.5125 110.815
5.55716 105.282
5.60183 102.005
5.6465 99.7499
5.69117 97.0357
5.73586 95.5177
5.78053 95.1608
5.8252 94.9727
5.86988 95.4472
5.91455 98.7046
5.95924 108.797
6.00392 247.12
6.0486 1099.27
6.09328 3983.26
6.13795 3492.87
6.18263 301.549
6.22733 100.404
6.27201 86.875
6.3167 105.427
6.36138 82.7923
6.40606 71.289
6.45075 69.2059
6.49545 66.9436
6.54014 65.441
6.58483 64.5464
6.62952 64.402
6.67421 96.1533
6.71892 146.229
6.76361 70.6421
6.8083 60.0776
6.853 58.8404
6.89769 58.5048
6.94239 58.2516
6.98711 57.5701
7.03181 57.1038
7.07651 56.3764
7.12121 56.809
7.16591 56.5984
7.21063 57.0983
7.25533 72.3883
7.30004 184.001
7.34475 93.456
7.38945 58.0108
7.43416 56.1723
7.47889 55.7247
7.5236 55.7861
7.56831 56.7674
7.61303 58.844
7.65774 58.7025
7.70247 57.9388
7.74719 57.5533
7.79191 58.0504
7.83663 58.2179
7.88135 59.3035
7.92607 59.9202
7.97081 61.234
8.01553 62.4371
8.06026 63.7906
8.10498 65.3806
8.14971 75.3959
8.19446 73.9571
8.23919 71.3621
8.28392 73.6387
8.32865 75.973
8.37339 80.5193
8.41812 87.6166
8.46288 118.852
8.50761 183.877
8.55235 433.243
8.59709 1142.36
8.64183 2122.5
8.68658 1159.18
8.73134 198.279
8.77609 104.957
8.82083 95.9435
8.86558 92.6966
8.91033 92.4685
8.9551 94.0496
8.99985 87.6994
9.04461 85.4933
9.08936 84.8678
9.13412 84.1766
9.17888 84.0792
9.22365 84.8144
9.26841 84.103
9.31318 85.0975
9.35794 85.0462
9.4027 85.5319
9.44749 86.1967
9.49226 86.5133
9.53703 87.5078
9.5818 89.68
9.62657 94.2713
9.67134 101.032
9.71614 96.4226
9.76091 96.8161
9.80569 99.1281
9.85047 102.463
9.89525 127.677
9.94005 141.598
9.98484 193.912
10.0296 384.681
10.0744 808.911
10.1192 1587.84
10.164 1706.44
10.2088 504.141
10.2536 141.575
10.2984 117.997
10.3432 118.809
10.388 107.866
10.4328 124.92
10.4776 172.095
10.5224 280.079
10.5672 479.712
10.612 526.428
10.6568 229.332
10.7017 102.496
10.7465 89.2833
10.7913 85.4769
10.8361 83.3108
10.8809 81.1138
10.9257 80.5902
10.9706 81.4462
11.0154 76.7063
11.0602 74.591
11.105 73.7811
11.1499 78.138
11.1947 85.4047
11.2395 75.9725
11.2844 72.4952
11.3292 68.8213
11.374 67.899
11.4189 67.3016
11.4637 66.6863
11.5086 67.0733
11.5534 70.3217
11.5983 67.4391
11.6431 65.4423
11.688 64.5613
11.7328 64.5751
11.7777 64.3436
11.8225 63.9275
11.8674 63.988
11.9122 64.5016
11.9571 64.4477
12.002 65.413
12.0468 70.3708
12.0917 83.4149
12.1366 105.644
12.1814 148.658
12.2263 196.191
12.2712 179.601
12.3161 107.788
12.3609 73.3197
12.4058 66.2843
12.4507 65.8606
12.4956 66.2421
12.5405 65.9505
12.5853 67.0962
12.6302 75.4028
12.6751 80.9257
12.72 71.7874
12.7649 69.6735
12.8098 70.128
12.8547 71.4725
12.8996 72.94
12.9445 74.0721
12.9894 76.1398
13.0343 77.7421
13.0792 80.9314
13.1242 91.929
13.1691 119.203
13.214 156.456
13.2589 235.675
13.3038 348.072
13.3487 423.407
13.3937 296.275
13.4386 140.23
13.4835 111.516
13.5285 128.389
13.5734 163.287
13.6183 238.462
13.6633 330.095
13.7082 346.905
13.7531 210.643
13.7981 106.781
13.843 84.6899
13.888 81.7825
13.9329 79.1781
13.9779 77.671
14.0228 76.1647
14.0678 74.6283
14.1127 74.8509
14.1577 74.4431
14.2027 73.4445
14.2476 72.1115
14.2926 72.4538
14.3376 73.3394
14.3825 72.2016
14.4275 70.3313
14.4725 70.2919
14.5175 70.7103
14.5624 71.0624
14.6074 73.0123
14.6524 73.5485
14.6974 72.1578
14.7424 74.3728
14.7874 82.0991
14.8324 93.6122
14.8774 113.802
14.9224 150.267
14.9674 197.289
15.0124 219.92
15.0574 164.243
15.1024 99.4076
15.1474 75.1074
15.1924 72.5097
15.2374 73.1793
15.2824 72.2631
15.3274 70.0295
15.3725 68.9638
15.4175 68.402
15.4625 67.7606
15.5076 67.8441
15.5526 67.9175
15.5976 67.4843
15.6426 68.8007
15.6877 75.023
15.7327 83.9265
15.7778 98.1617
15.8228 124.832
15.8679 163.373
15.9129 190.458
15.958 168.866
16.003 106.678
16.0481 71.6858
16.0931 66.7635
16.1382 64.5326
16.1833 62.3209
16.2283 60.6523
16.2734 59.9329
16.3185 60.3372
16.3636 60.9743
16.4086 59.5573
16.4537 57.7015
16.4988 56.9883
16.5439 57.016
16.589 56.7657
16.6341 56.4954
16.6792 56.0726
16.7243 56.3399
16.7694 56.4437
16.8145 56.2354
16.8596 56.6571
16.9047 58.3183
16.9498 58.5796
16.9949 57.386
17.04 57.3731
17.0851 58.6613
17.1302 60.457
17.1754 63.7151
17.2205 68.1435
17.2656 74.729
17.3108 82.5004
17.3559 84.948
17.401 74.6891
17.4462 64.5147
17.4913 60.9961
17.5365 60.6211
17.5815 60.9804
17.6268 61.0458
17.6718 61.989
17.7171 62.4155
17.7622 62.9424
17.8074 63.6464
17.8525 66.1745
17.8977 70.6849
17.9428 76.4357
17.9881 84.7291
18.0331 99.6905
18.0784 118.29
18.1237 137.456
18.1688 137.017
18.214 111.953
18.2591 90.901
18.3044 90.9142
18.3495 98.7828
18.3948 105.84
18.4399 100.355
18.4852 82.3973
18.5303 68.8677
18.5756 64.1433
18.6207 62.8352
18.666 62.0009
18.7112 61.3483
18.7565 60.4498
18.8016 60.2788
18.8469 59.498
18.892 59.3092
18.9374 58.7599
18.9825 58.5925
19.0278 58.5903
19.073 58.6723
19.1183 59.2465
19.1635 60.0862
19.2088 61.3755
19.254 63.6578
19.2993 67.192
19.3447 72.5079
19.3898 76.7967
19.4352 74.646
19.4804 66.7877
19.5257 59.1117
19.5709 55.9199
19.6163 55.3383
19.6615 55.327
19.7068 54.7414
19.752 54.6686
19.7974 55.075
19.8426 55.9072
19.888 56.7412
19.9332 57.647
19.9786 60.0477
20.0238 63.1613
20.0692 67.6026
20.1144 70.6249
20.1598 70.4938
20.205 65.9361
20.2504 63.6793
20.2957 64.4226
20.3411 65.9868
20.3863 65.8595
20.4318 61.0068
20.477 55.9093
20.5224 53.3934
20.5677 52.1271
20.6131 51.4956
20.6586 51.1407
20.7038 50.9837
20.7493 50.5734
20.7945 50.2957
20.84 50.1041
20.8853 49.8608
20.9307 49.6796
20.976 49.8276
21.0215 49.7354
21.0668 50.2618
21.1122 50.7747
21.1575 51.3147
21.203 51.9298
21.2483 52.5935
21.2938 52.8362
21.3391 51.69
21.3846 50.5153
21.4299 49.8307
21.4754 49.602
21.5207 49.7937
21.5662 50.0225
21.6116 50.5712
21.6571 51.311
21.7024 52.4267
21.7479 53.9019
21.7933 56.3922
21.8388 59.5914
21.8843 62.914
21.9297 65.3913
21.9752 65.5296
22.0206 61.9781
22.0661 58.286
22.1115 57.1927
22.157 57.1345
22.2024 56.2959
22.248 53.2503
22.2933 51.3893
22.3389 50.6251
22.3843 50.4931
22.4299 50.3262
22.4753 50.1869
22.5208 50.0245
22.5662 49.7553
22.6118 49.8437
22.6572 50.2741
22.7028 50.5527
22.7483 51.2447
22.7939 51.9132
22.8393 53.1394
22.8849 54.9984
22.9303 56.6201
22.9759 58.6341
23.0214 58.6942
23.067 56.7112
23.1126 53.0396
23.1581 50.979
23.2037 50.1827
23.2492 50.071
23.2948 50.3218
23.3403 50.579
23.3859 51.2378
23.4314 51.8851
23.477 53.3788
23.5225 55.4228
23.5682 57.4462
23.6137 58.838
23.6593 57.5975
23.7048 53.6197
23.7505 50.3031
23.796 48.1634
23.8417 47.3224
23.8872 46.7351
23.9329 46.3047
23.9784 46.0922
24.0241 45.9335
24.0697 45.6521
24.1154 45.3592
24.1609 45.1303
24.2066 45.0437
24.2522 44.9757
24.2979 44.6229
24.3434 44.4853
24.3892 44.4001
24.4349 44.3354
24.4805 43.8395
24.5262 44.1375
24.5718 43.9388
24.6175 44.2091
24.6631 43.9472
24.7089 43.7838
24.7545 43.5615
24.8002 43.477
24.8458 43.3603
24.8916 43.1238
24.9372 43.3949
24.983 43.6841
25.0286 43.8917
25.0744 44.4797
25.12 44.5788
25.1658 45.1439
25.2114 45.8067
25.2572 45.8288
25.3029 45.9629
25.3487 45.9377
25.3943 45.7946
25.4402 44.9147
25.4858 43.9047
25.5316 42.7574
25.5773 42.0278
25.6231 42.112
25.669 41.585
25.7147 41.7414
25.7605 41.3744
25.8062 41.6776
25.8521 41.8488
25.8977 41.764
25.9436 41.9146
25.9893 41.9372
26.0352 42.2327
26.0809 42.3993
26.1268 42.7804
26.1725 42.4956
26.2184 41.9517
26.2641 41.5216
26.31 41.1969
26.3557 41.1586
26.4017 41.2644
26.4474 41.5466
26.4933 41.7265
26.5391 42.2351
26.585 42.7581
26.6308 42.9066
26.6767 43.1726
26.7225 43.0628
26.7684 42.6011
26.8142 41.9042
26.8601 41.6213
26.9059 41.0794
26.9519 40.7249
26.9979 40.2926
27.0437 39.9654
27.0896 39.7402
27.1354 39.7785
27.1814 39.6492
27.2272 39.5283
27.2732 39.4667
27.3191 39.3531
27.3651 39.4817
27.4109 39.4208
27.4569 39.504
27.5027 39.5143
27.5488 39.5399
27.5946 39.3802
27.6407 39.2376
27.6865 39.0752
27.7326 38.9029
27.7784 38.856
27.8245 38.7767
27.8703 39.0253
27.9164 39.249
27.9623 39.3658
28.0084 39.5687
28.0543 39.9566
28.1003 39.8531
28.1462 39.8767
28.1923 39.51
28.2384 39.0194
28.2843 38.692
28.3304 38.2066
28.3764 37.7109
28.4225 37.3903
28.4684 37.2706
28.5145 36.8532
28.5605 36.8294
28.6066 36.6541
28.6526 36.5849
28.6987 36.5978
28.7447 36.5321
28.7908 36.4111
28.8368 36.3602
28.8829 36.2401
28.9289 36.2953
28.9751 36.0157
29.0211 35.9067
29.0673 35.5506
29.1133 35.6316
29.1595 35.2887
29.2055 35.2451
29.2517 35.1539
29.2977 35.1404
29.3439 35.1611
29.3899 35.1619
29.4361 35.0043
29.4824 34.8662
29.5284 34.6235
29.5746 34.2464
29.6207 33.9876
29.6669 33.9841
29.713 33.7574
29.7593 33.7393
29.8053 33.7479
29.8516 33.7097
29.8977 33.6701
29.9439 33.4736
29.99 33.3793
30.0363 33.2908
30.0824 33.3845
30.1287 33.1139
30.1748 33.1916
30.2211 33.262
30.2673 33.1806
30.3136 33.2424
30.3597 33.1039
30.406 33.1192
30.4522 32.9127
30.4985 32.9407
30.5447 33.0328
30.591 32.9103
30.6372 32.9264
30.6835 32.9706
30.7297 33.0253
30.7761 32.9503
30.8224 32.8215
30.8686 32.7065
30.915 32.392
30.9612 32.4016
31.0076 32.0883
31.0538 31.994
31.1002 31.8765
31.1464 31.6451
31.1928 31.7907
31.2391 31.7105
31.2855 31.6075
31.3317 31.651
31.3781 31.7805
31.4244 31.6816
31.4708 31.5679
31.5171 31.6432
31.5636 31.6104
31.6098 31.3823
31.6563 31.0861
31.7026 31.0666
31.7491 30.8477
31.7953 30.9038
31.8418 30.9311
31.8881 30.8965
31.9346 30.8657
31.9809 30.817
32.0275 30.717
32.074 30.508
32.1203 30.3836
32.1668 30.2277
32.2132 30.1449
32.2597 30.0747
32.306 29.8908
32.3526 29.7145
32.399 29.7361
32.4455 29.528
32.4919 29.4431
32.5385 29.355
32.5848 29.218
32.6314 29.2617
32.6778 29.137
32.7244 29.0185
32.7708 28.983
32.8174 28.9045
32.8638 28.7389
32.9104 28.7515
32.9569 28.7662
33.0035 28.6035
33.0499 28.6095
33.0966 28.4671
33.143 28.524
33.1897 28.3173
33.2361 28.2873
33.2828 28.2753
33.3293 28.092
33.3759 28.1667
33.4226 27.912
33.4691 27.9118
33.5158 27.7045
33.5623 27.5877
33.609 27.4827
33.6555 27.3267
33.7022 27.2422
33.7487 27.1266
33.7954 27.1732
33.842 26.9973
33.8887 26.9147
33.9353 26.868
33.982 26.7851
34.0286 26.7447
34.0753 26.7557
34.1219 26.6396
34.1687 26.488
34.2152 26.4927
34.262 26.3002
34.3086 26.163
34.3554 26.1944
34.402 26.0743
34.4488 25.9604
34.4954 25.8432
34.5422 25.8121
34.5889 25.6914
34.6357 25.6691
34.6825 25.5749
34.7292 25.5186
34.776 25.4063
34.8227 25.4048
34.8695 25.27
34.9162 25.184
34.9631 25.0663
35.0098 25.1427
35.0566 24.9689
35.1033 24.8296
35.1502 24.7778
35.1969 24.8424
35.2438 24.7643
35.2906 24.7799
35.3375 24.688
35.3842 24.5214
35.4311 24.5952
35.4779 24.5591
35.5248 24.4603
35.5716 24.4358
35.6185 24.2946
35.6653 24.2695
35.7123 24.1183
35.759 24.0528
35.806 23.9384
35.8528 23.7857
35.8998 23.6959
35.9468 23.7282
35.9936 23.695
36.0406 23.5231
36.0874 23.5583
36.1345 23.4764
36.1813 23.4335
36.2283 23.2623
36.2752 23.1149
36.3222 23.2943
36.3691 23.0309
36.4161 22.9738
36.463 23.0114
36.5101 22.916
36.557 22.9036
36.6041 22.6937
36.651 22.7327
36.6981 22.6535
36.745 22.6046
36.7921 22.5139
36.839 22.4438
36.8861 22.448
36.9331 22.3027
36.9802 22.1998
37.0272 22.0922
37.0743 22.0197
37.1213 21.9289
37.1684 21.9569
37.2154 21.9146
37.2626 21.8203
37.3098 21.7612
37.3568 21.6366
37.404 21.6463
37.451 21.5077
37.4982 21.4338
37.5452 21.391
37.5924 21.3453
37.6395 21.3562
37.6867 21.2398
37.7337 21.1703
37.781 21.0325
37.8281 21.0018
37.8753 20.972
37.9224 20.863
37.9697 20.8345
38.0168 20.6718
38.064 20.6683
38.1111 20.5924
38.1584 20.5405
38.2056 20.4752
38.2529 20.4473
38.3 20.3203
38.3473 20.354
38.3945 20.1496
38.4418 20.1634
38.489 20.1349
38.5363 19.9946
38.5837 19.9248
38.6309 19.9666
38.6782 19.8777
38.7254 19.7256
38.7728 19.6971
38.82 19.652
38.8674 19.5954
38.9146 19.5964
38.9621 19.4647
39.0093 19.4362
39.0567 19.4221
39.104 19.2737
39.1514 19.2277
39.1987 19.1433
39.2461 19.129
39.2934 19.0533
39.3409 18.8976
39.3882 18.8977
39.4356 18.8315
39.483 18.8153
39.5304 18.7236
39.5778 18.6677
39.6253 18.5832
39.6726 18.5475
39.7201 18.5409
39.7675 18.4341
39.815 18.4323
39.8624 18.2927
39.9099 18.3049
39.9575 18.1809
40.0049 18.1477
40.0525 18.0745
40.0999 18.0328
40.1474 18.0134
40.1949 17.9394
40.2425 17.8337
40.2899 17.818
40.3375 17.7995
40.385 17.6742
40.4326 17.6008
40.48 17.5712
40.5277 17.5552
40.5752 17.4575
40.6228 17.3812
40.6703 17.3727
40.718 17.2757
40.7655 17.2688
40.8132 17.1743
40.8607 17.155
40.9084 17.1465
40.9559 17.0361
41.0036 16.9984
41.0512 16.9447
41.0989 16.8812
41.1465 16.7859
41.1942 16.8008
41.242 16.6378
41.2896 16.6252
41.3373 16.6219
41.3849 16.573
41.4327 16.456
41.4803 16.3383
41.5281 16.3734
41.5758 16.2756
41.6236 16.2305
41.6712 16.1395
41.7191 16.1744
41.7667 16.1378
41.8146 16.097
41.8622 16.0324
41.9101 15.9256
41.9578 15.8728
42.0057 15.8117
42.0534 15.7785
42.1013 15.6947
42.149 15.6601
42.1969 15.602
42.2446 15.5637
42.2925 15.5054
42.3403 15.4713
42.3882 15.4621
42.436 15.3943
42.4839 15.2658
42.5319 15.2515
42.5797 15.1518
42.6277 15.1187
42.6755 15.0957
42.7235 15.0244
42.7713 15.0113
42.8193 14.9056
42.8671 14.896
42.9152 14.8745
42.963 14.767
43.0111 14.6522
43.0589 14.7416
43.107 14.6173
43.1549 14.584
43.2029 14.4858
43.2508 14.5484
43.2989 14.4285
43.3468 14.3617
43.3949 14.3317
43.4429 14.3137
43.491 14.2547
43.5389 14.1702
43.5871 14.1874
43.635 14.0802
43.6832 14.027
43.7312 14.0531
43.7793 13.9149
43.8273 13.9312
43.8755 13.8047
43.9237 13.7794
43.9717 13.7222
44.0199 13.6945
44.068 13.6986
44.1162 13.5898
44.1642 13.5962
44.2125 13.5129
44.2606 13.4857
44.3088 13.4218
44.3569 13.3683
44.4052 13.317
44.4533 13.288
44.5016 13.1877
44.5497 13.2011
44.598 13.1654
44.6461 13.0585
44.6945 13.0362
44.7426 12.9989
44.791 12.954
44.8391 12.892
44.8875 12.8414
44.9357 12.874
44.984 12.7852
45.0322 12.6968
45.0806 12.6768
45.1288 12.6115
45.1773 12.6264
45.2257 12.5645
45.2739 12.532
45.3224 12.4858
45.3706 12.4459
45.4191 12.3595
45.4673 12.3381
45.5158 12.2909
45.5641 12.2386
45.6126 12.2194
45.6609 12.1235
45.7094 12.1432
45.7577 12.0676
45.8063 11.985
45.8546 11.9952
45.9031 11.9543
45.9515 11.8928
46.0001 11.8703
46.0484 11.8136
46.097 11.7412
46.1454 11.7082
46.194 11.6956
46.2424 11.6558
46.291 11.5711
46.3395 11.5548
46.3881 11.4876
46.4365 11.4912
46.4852 11.4199
46.5337 11.411
46.5823 11.3565
46.631 11.3449
46.6795 11.2988
46.7282 11.2416
46.7767 11.222
46.8254 11.1382
46.8739 11.1101
46.9226 11.0702
46.9712 11.0223
47.0199 10.9809
47.0685 10.9476
47.1173 10.8915
47.1658 10.8679
47.2146 10.8432
47.2632 10.8157
47.312 10.754
47.3606 10.7185
47.4095 10.6157
47.4581 10.6313
47.5069 10.5492
47.5556 10.5624
47.6044 10.474
47.6531 10.4487
47.702 10.423
47.7507 10.3558
47.7996 10.3518
47.8483 10.3144
47.8972 10.2737
47.9461 10.2486
47.9948 10.1578
48.0438 10.1564
48.0925 10.1985
48.1415 10.0917
48.1902 10.0489
48.2392 10.0626
48.288 9.97916
48.337 9.93046
48.3858 9.90757
48.4348 9.86293
48.4837 9.85924
48.5327 9.8332
48.5815 9.75164
48.6306 9.802
48.6795 9.72964
48.7285 9.59794
48.7774 9.63229
48.8265 9.60754
48.8754 9.55229
48.9245 9.55921
48.9734 9.48568
49.0226 9.42032
49.0715 9.45172
49.1206 9.3918
49.1696 9.35696
49.2188 9.3383
49.2679 9.2433
49.3169 9.25159
49.3661 9.15688
49.4151 9.18119
49.4643 9.17345
49.5134 9.11911
49.5626 9.01612
49.6117 9.03936
49.6609 9.00164
49.71 8.94598
49.7592 8.90513
49.8083 8.89137
49.8576 8.85509
49.9067 8.80993
49.956 8.80515
50.0052 8.76065
50.0545 8.74982
50.1036 8.65122
50.153 8.65854
50.2022 8.62234
50.2515 8.55469
50.3007 8.53464
50.3501 8.51481
50.3993 8.51531
50.4487 8.44687
50.498 8.40504
50.5474 8.42708
50.5966 8.35134
50.6461 8.32261
50.6955 8.31225
50.7448 8.26557
50.7943 8.23641
50.8436 8.17051
50.8931 8.13272
50.9424 8.14515
50.9919 8.0758
51.0413 8.07565
51.0908 8.007
51.1402 8.02155
51.1897 7.97587
51.2391 7.96089
51.2887 7.92203
51.3381 7.83856
51.3877 7.83499
51.4371 7.78115
51.4867 7.76816
51.5362 7.77173
51.5858 7.71725
51.6353 7.65524
51.6849 7.66307
51.7344 7.5987
51.7841 7.59159
51.8336 7.56738
51.8833 7.52058
51.9328 7.46841
51.9826 7.435
52.0323 7.43137
52.0818 7.37879
52.1316 7.34239
52.1812 7.35835
52.231 7.30524
52.2806 7.26996
52.3304 7.26776
52.38 7.18916
52.4298 7.21004
52.4794 7.1487
52.5293 7.12837
52.5789 7.16202
52.6288 7.10559
52.6785 7.05025
52.7284 7.01567
52.7781 6.97888
52.828 6.95248
52.8777 6.90192
52.9276 6.88727
52.9774 6.88614
53.0273 6.87015
53.0771 6.82724
53.1271 6.78731
53.1769 6.73427
53.2269 6.71889
53.2767 6.68512
53.3267 6.63911
53.3765 6.62899
53.4266 6.60992
53.4766 6.56882
53.5265 6.53021
53.5765 6.49888
53.6264 6.51171
53.6765 6.49717
53.7264 6.40869
53.7765 6.42428
53.8265 6.37274
53.8766 6.31423
53.9266 6.34594
53.9767 6.30167
54.0267 6.29068
54.0769 6.25081
54.1269 6.17768
54.1771 6.13235
54.2271 6.14586
54.2773 6.14576
54.3274 6.10484
54.3776 6.08095
54.4277 6.02755
54.478 6.00566
54.528 5.96232
54.5783 5.93077
54.6285 5.84163
54.6788 5.81265
54.7289 5.76846
54.7792 5.76218
54.8296 5.72966
54.8798 5.64631
54.9301 5.63278
54.9803 5.58826
55.0307 5.6211
55.0809 5.51178
55.1314 5.46078
55.1816 5.42354
55.232 5.35423
55.2823 5.33215
55.3328 5.33919
55.383 5.21196
55.4335 5.18578
55.4838 5.14353
55.5344 5.07787
55.5847 5.06219
55.6352 5.05203
55.6856 4.98453
55.7361 5.00563