File: XRD/Ni3Fe_FD0421.xy
TT I
1.27165 8.00245
1.31627 6.92031
1.36089 6.74472
1.40551 6.3279
1.45013 6.41083
1.49476 5.88169
1.53938 5.73915
1.584 5.79484
1.62863 4.94712
1.67325 5.61898
1.71787 4.77606
1.7625 4.68403
1.80712 5.14215
1.85174 4.82606
1.89636 4.91984
1.94099 4.8286
1.98562 4.54386
2.03025 5.00908
2.07487 4.6287
2.11949 5.03249
2.16411 5.16879
2.20874 17.7066
2.25338 31.0747
2.298 6.4023
2.34263 5.04125
2.38725 5.87756
2.43188 5.90122
2.4765 6.48508
2.52115 6.35122
2.56577 6.95132
2.6104 7.47471
2.65503 7.56211
2.69965 7.70897
2.7443 7.81444
2.78893 8.19781
2.83356 7.80156
2.87818 7.79672
2.92281 8.85543
2.96744 9.47836
3.01209 10.7637
3.05672 11.2487
3.10135 12.5487
3.14599 13.2534
3.19062 14.2299
3.23527 15.2499
3.2799 16.121
3.32454 16.9083
3.36917 18.0604
3.4138 19.379
3.45844 20.5757
3.50309 21.2948
3.54773 22.3098
3.59237 25.6649
3.637 123.442
3.68164 75.3072
3.7263 27.4822
3.77094 26.8404
3.81558 27.5754
3.86022 28.2226
3.90486 29.4022
3.9495 30.4997
3.99416 31.9626
4.0388 33.019
4.08344 34.7442
4.12809 35.7865
4.17273 38.6522
4.21738 46.2319
4.26204 337.714
4.30669 296.541
4.35133 52.3165
4.39598 46.2796
4.44063 58.2178
4.4853 74.9847
4.52995 52.3045
4.5746 52.3982
4.61925 54.645
4.6639 56.3514
4.70855 59.0758
4.75322 61.7281
4.79788 64.6062
4.84253 67.9812
4.88719 72.8175
4.93184 76.394
4.97652 82.0208
5.02118 88.3395
5.06583 96.3486
5.11049 109.733
5.15515 204.899
5.19981 422.101
5.24449 2839.74
5.28916 11437.8
5.33382 3607.39
5.37848 223.197
5.42315 137.803
5.46783 118.875
5.5125 109.436
5.55716 104.817
5.60183 100.983
5.6465 99.2006
5.69117 96.3733
5.73586 94.2689
5.78053 93.7857
5.8252 93.2025
5.86988 94.2592
5.91455 97.2064
5.95924 106.18
6.00392 227.255
6.0486 993.925
6.09328 3874.58
6.13795 3645.2
6.18263 311.187
6.22733 100.674
6.27201 87.8796
6.3167 116.59
6.36138 86.8292
6.40606 71.2807
6.45075 69.0105
6.49545 67.1747
6.54014 65.411
6.58483 64.8359
6.62952 65.1522
6.67421 108.291
6.71892 183.02
6.76361 74.5595
6.8083 60.6759
6.853 58.7662
6.89769 58.5338
6.94239 58.4515
6.98711 57.4143
7.03181 56.9418
7.07651 56.9676
7.12121 56.7231
7.16591 56.9486
7.21063 57.4832
7.25533 77.8173
7.30004 237.078
7.34475 109.537
7.38945 59.221
7.43416 56.0938
7.47889 55.8046
7.5236 55.9329
7.56831 56.8897
7.61303 58.8694
7.65774 59.7376
7.70247 57.7589
7.74719 57.5217
7.79191 57.8963
7.83663 58.2418
7.88135 58.9665
7.92607 60.2383
7.97081 61.2152
8.01553 62.2898
8.06026 63.4352
8.10498 65.1165
8.14971 78.2629
8.19446 76.0089
8.23919 71.1452
8.28392 72.891
8.32865 75.6271
8.37339 79.8571
8.41812 87.7643
8.46288 127.22
8.50761 176.318
8.55235 398.173
8.59709 1063.46
8.64183 2093.58
8.68658 1134.24
8.73134 193.723
8.77609 104.228
8.82083 95.6016
8.86558 91.7864
8.91033 92.7227
8.9551 96.3836
8.99985 87.5054
9.04461 84.8436
9.08936 84.5666
9.13412 83.6627
9.17888 83.6839
9.22365 84.3627
9.26841 83.5609
9.31318 84.1721
9.35794 84.211
9.4027 84.8261
9.44749 85.3373
9.49226 85.7915
9.53703 87.3475
9.5818 89.0156
9.62657 95.0865
9.67134 103.95
9.71614 96.511
9.76091 95.7185
9.80569 98.088
9.85047 102.342
9.89525 134.967
9.94005 150.615
9.98484 184.579
10.0296 351.937
10.0744 738.465
10.1192 1571.72
10.164 1771.99
10.2088 504.072
10.2536 139.708
10.2984 119.322
10.3432 122.588
10.388 108.13
10.4328 121.861
10.4776 162.373
10.5224 262.39
10.5672 471.684
10.612 524.819
10.6568 230.52
10.7017 102.013
10.7465 89.0935
10.7913 85.3418
10.8361 82.8329
10.8809 80.7551
10.9257 80.8939
10.9706 82.3875
11.0154 77.1137
11.0602 74.3956
11.105 73.5244
11.1499 80.1765
11.1947 91.865
11.2395 78.7458
11.2844 73.4911
11.3292 68.9738
11.374 67.7245
11.4189 67.2693
11.4637 66.9188
11.5086 67.6103
11.5534 71.9773
11.5983 67.9819
11.6431 65.2566
11.688 64.3769
11.7328 64.4166
11.7777 64.2428
11.8225 64.0221
11.8674 63.712
11.9122 64.1876
11.9571 64.333
12.002 64.8963
12.0468 69.2498
12.0917 81.1657
12.1366 102.143
12.1814 141.835
12.2263 201.397
12.2712 185.596
12.3161 111.215
12.3609 75.1976
12.4058 66.6831
12.4507 66.1171
12.4956 65.9656
12.5405 66.1188
12.5853 67.586
12.6302 78.2403
12.6751 86.3009
12.72 72.7935
12.7649 69.4629
12.8098 69.7505
12.8547 71.249
12.8996 72.4282
12.9445 73.5545
12.9894 75.6062
13.0343 77.0682
13.0792 80.364
13.1242 90.2214
13.1691 115.235
13.214 148.872
13.2589 220.546
13.3038 338.634
13.3487 435.746
13.3937 302.438
13.4386 138.645
13.4835 109.794
13.5285 123.452
13.5734 155.247
13.6183 226.237
13.6633 326.585
13.7082 363.87
13.7531 219.084
13.7981 106.205
13.843 84.2526
13.888 81.7356
13.9329 78.7341
13.9779 77.4208
14.0228 75.9102
14.0678 74.6227
14.1127 74.1498
14.1577 74.4942
14.2027 73.322
14.2476 71.8466
14.2926 72.3155
14.3376 74.3696
14.3825 72.4096
14.4275 70.3419
14.4725 70.0182
14.5175 70.3348
14.5624 70.6128
14.6074 73.5957
14.6524 74.204
14.6974 72.0247
14.7424 73.2776
14.7874 80.4507
14.8324 90.6827
14.8774 109.006
14.9224 143.476
14.9674 195.417
15.0124 225.002
15.0574 166.227
15.1024 100.499
15.1474 75.2694
15.1924 72.194
15.2374 73.5325
15.2824 73.0115
15.3274 70.1804
15.3725 68.3601
15.4175 67.9858
15.4625 67.5375
15.5076 68.1017
15.5526 67.9573
15.5976 67.3489
15.6426 68.449
15.6877 73.7195
15.7327 81.6816
15.7778 94.6841
15.8228 118.605
15.8679 157.297
15.9129 192.79
15.958 171.688
16.003 107.25
16.0481 71.8042
16.0931 67.4019
16.1382 65.3731
16.1833 62.5103
16.2283 60.4402
16.2734 59.7673
16.3185 60.7567
16.3636 61.9242
16.4086 60.0031
16.4537 57.6606
16.4988 56.9872
16.5439 56.9764
16.589 56.5249
16.6341 56.282
16.6792 55.9809
16.7243 56.2308
16.7694 56.4955
16.8145 56.2613
16.8596 56.7769
16.9047 58.9113
16.9498 59.2453
16.9949 57.1897
17.04 57.0902
17.0851 58.2922
17.1302 60.0708
17.1754 62.7707
17.2205 66.7175
17.2656 72.8541
17.3108 81.2985
17.3559 83.8643
17.401 74.7924
17.4462 64.5208
17.4913 60.5149
17.5365 60.5586
17.5815 60.742
17.6268 60.9232
17.6718 61.9217
17.7171 62.3647
17.7622 62.4542
17.8074 63.1218
17.8525 65.1257
17.8977 69.7839
17.9428 75.2944
17.9881 82.4797
18.0331 95.5942
18.0784 114.61
18.1237 137.231
18.1688 137.9
18.214 111.862
18.2591 89.3199
18.3044 88.7317
18.3495 97.6963
18.3948 107.171
18.4399 102.284
18.4852 83.089
18.5303 68.5832
18.5756 63.8427
18.6207 62.6309
18.666 61.8891
18.7112 61.2412
18.7565 60.2453
18.8016 59.9849
18.8469 59.3672
18.892 59.0432
18.9374 58.5366
18.9825 58.4643
19.0278 58.2955
19.073 58.3607
19.1183 58.913
19.1635 59.911
19.2088 60.8307
19.254 62.7444
19.2993 66.2788
19.3447 72.2991
19.3898 77.797
19.4352 76.0051
19.4804 66.6085
19.5257 58.7934
19.5709 55.6782
19.6163 55.1232
19.6615 54.9233
19.7068 54.4643
19.752 54.3255
19.7974 54.7804
19.8426 55.6326
19.888 56.1597
19.9332 57.3433
19.9786 59.3879
20.0238 62.1301
20.0692 66.7588
20.1144 70.6176
20.1598 70.7777
20.205 65.5499
20.2504 62.8004
20.2957 63.4769
20.3411 66.2784
20.3863 66.1935
20.4318 61.2883
20.477 55.8092
20.5224 53.331
20.5677 52.4814
20.6131 51.4568
20.6586 50.7271
20.7038 50.8053
20.7493 50.3768
20.7945 49.9633
20.84 49.9848
20.8853 49.8033
20.9307 49.7329
20.976 49.8817
21.0215 49.8412
21.0668 50.3178
21.1122 50.4889
21.1575 51.0416
21.203 51.6703
21.2483 52.3429
21.2938 52.7191
21.3391 51.5495
21.3846 50.2445
21.4299 49.7483
21.4754 49.4972
21.5207 49.5307
21.5662 49.7716
21.6116 50.2426
21.6571 50.8508
21.7024 51.8504
21.7479 53.3141
21.7933 55.6877
21.8388 58.7942
21.8843 62.4819
21.9297 65.4464
21.9752 65.5829
22.0206 61.9283
22.0661 58.0448
22.1115 56.8303
22.157 57.1861
22.2024 56.1129
22.248 53.2956
22.2933 51.2671
22.3389 50.3057
22.3843 50.2432
22.4299 50.1637
22.4753 50.0982
22.5208 49.881
22.5662 49.4595
22.6118 49.8198
22.6572 49.9136
22.7028 50.3995
22.7483 50.8162
22.7939 51.3557
22.8393 52.6063
22.8849 54.4054
22.9303 56.1124
22.9759 58.5147
23.0214 59.1556
23.067 56.8495
23.1126 52.9626
23.1581 50.7498
23.2037 50.1247
23.2492 50.0577
23.2948 49.8282
23.3403 50.0524
23.3859 50.8643
23.4314 51.7055
23.477 52.9987
23.5225 54.8759
23.5682 56.8803
23.6137 59.0543
23.6593 57.7227
23.7048 53.9809
23.7505 49.9717
23.796 47.8759
23.8417 47.1583
23.8872 46.6983
23.9329 46.3175
23.9784 46.1138
24.0241 45.7026
24.0697 45.3809
24.1154 45.0955
24.1609 45.1162
24.2066 45.0773
24.2522 44.6485
24.2979 44.4767
24.3434 44.3239
24.3892 44.1455
24.4349 44.1324
24.4805 43.8486
24.5262 43.9664
24.5718 43.8613
24.6175 43.8316
24.6631 43.9261
24.7089 43.5353
24.7545 43.4332
24.8002 43.1181
24.8458 43.2535
24.8916 43.0788
24.9372 43.2217
24.983 43.2994
25.0286 43.6852
25.0744 43.9214
25.12 44.4384
25.1658 45.1429
25.2114 45.5322
25.2572 45.6607
25.3029 45.5241
25.3487 45.8502
25.3943 45.7835
25.4402 44.8991
25.4858 43.7403
25.5316 42.5521
25.5773 41.9537
25.6231 41.9419
25.669 41.3853
25.7147 41.509
25.7605 41.2364
25.8062 41.5414
25.8521 41.5691
25.8977 41.5752
25.9436 41.7131
25.9893 41.7707
26.0352 42.2218
26.0809 42.47
26.1268 42.7906
26.1725 42.4007
26.2184 41.9249
26.2641 41.2144
26.31 41.0652
26.3557 41.0419
26.4017 41.0193
26.4474 41.2669
26.4933 41.4696
26.5391 41.8488
26.585 42.4804
26.6308 42.7112
26.6767 43.1249
26.7225 43.0001
26.7684 42.5357
26.8142 41.7799
26.8601 41.3636
26.9059 41.1142
26.9519 40.5365
26.9979 40.1445
27.0437 39.6541
27.0896 39.6891
27.1354 39.6342
27.1814 39.3578
27.2272 39.4544
27.2732 39.5245
27.3191 39.2911
27.3651 39.2369
27.4109 39.1407
27.4569 39.2252
27.5027 39.3586
27.5488 39.3835
27.5946 39.331
27.6407 39.0735
27.6865 38.9144
27.7326 38.593
27.7784 38.611
27.8245 38.7251
27.8703 38.7805
27.9164 39.0329
27.9623 39.065
28.0084 39.3917
28.0543 39.7898
28.1003 39.8641
28.1462 39.7333
28.1923 39.2675
28.2384 38.8149
28.2843 38.5775
28.3304 38.1257
28.3764 37.6717
28.4225 37.335
28.4684 37.1437
28.5145 36.7772
28.5605 36.7437
28.6066 36.5279
28.6526 36.4877
28.6987 36.5165
28.7447 36.2705
28.7908 36.0975
28.8368 36.2294
28.8829 36.2788
28.9289 36.2276
28.9751 35.9877
29.0211 35.7488
29.0673 35.5429
29.1133 35.3978
29.1595 35.1179
29.2055 35.1587
29.2517 35.0736
29.2977 35.0841
29.3439 34.9906
29.3899 35.0928
29.4361 34.8724
29.4824 34.7598
29.5284 34.5357
29.5746 34.2274
29.6207 34.0466
29.6669 33.9566
29.713 33.765
29.7593 33.6316
29.8053 33.6269
29.8516 33.5239
29.8977 33.5123
29.9439 33.3474
29.99 33.3223
30.0363 33.0992
30.0824 33.1927
30.1287 33.1555
30.1748 33.2073
30.2211 33.1962
30.2673 33.0309
30.3136 33.1463
30.3597 33.0091
30.406 32.9561
30.4522 32.7996
30.4985 32.7135
30.5447 32.9137
30.591 32.761
30.6372 32.8721
30.6835 32.8067
30.7297 33.0115
30.7761 32.9032
30.8224 32.7538
30.8686 32.6969
30.915 32.2938
30.9612 32.1749
31.0076 32.0276
31.0538 31.9414
31.1002 31.7939
31.1464 31.6637
31.1928 31.6482
31.2391 31.7156
31.2855 31.6165
31.3317 31.5399
31.3781 31.5735
31.4244 31.5019
31.4708 31.549
31.5171 31.5282
31.5636 31.4954
31.6098 31.2299
31.6563 31.1377
31.7026 30.9523
31.7491 30.7687
31.7953 30.8037
31.8418 30.7633
31.8881 30.7932
31.9346 30.7917
31.9809 30.743
32.0275 30.6878
32.074 30.4422
32.1203 30.4365
32.1668 30.3258
32.2132 30.0491
32.2597 29.9192
32.306 29.8383
32.3526 29.7024
32.399 29.5467
32.4455 29.4277
32.4919 29.3911
32.5385 29.3136
32.5848 29.1628
32.6314 29.1607
32.6778 29.0929
32.7244 28.9913
32.7708 28.8896
32.8174 28.7813
32.8638 28.6376
32.9104 28.6365
32.9569 28.7285
33.0035 28.4207
33.0499 28.4816
33.0966 28.3629
33.143 28.3802
33.1897 28.2407
33.2361 28.1722
33.2828 28.2199
33.3293 28.0723
33.3759 27.981
33.4226 27.8352
33.4691 27.6495
33.5158 27.7069
33.5623 27.5276
33.609 27.3409
33.6555 27.2893
33.7022 27.2223
33.7487 27.1452
33.7954 27.0908
33.842 26.9099
33.8887 26.937
33.9353 26.9309
33.982 26.7891
34.0286 26.7181
34.0753 26.6735
34.1219 26.4579
34.1687 26.4556
34.2152 26.365
34.262 26.3167
34.3086 26.1356
34.3554 26.0886
34.402 25.9906
34.4488 25.9085
34.4954 25.8471
34.5422 25.7111
34.5889 25.6653
34.6357 25.5951
34.6825 25.4241
34.7292 25.3628
34.776 25.335
34.8227 25.305
34.8695 25.1302
34.9162 25.1497
34.9631 25.0753
35.0098 25.0729
35.0566 24.7704
35.1033 24.8983
35.1502 24.8091
35.1969 24.7321
35.2438 24.7138
35.2906 24.651
35.3375 24.5336
35.3842 24.463
35.4311 24.4966
35.4779 24.4387
35.5248 24.4834
35.5716 24.2844
35.6185 24.2121
35.6653 24.1302
35.7123 24.1099
35.759 24.0905
35.806 23.869
35.8528 23.798
35.8998 23.7445
35.9468 23.6282
35.9936 23.5545
36.0406 23.454
36.0874 23.5341
36.1345 23.4951
36.1813 23.3516
36.2283 23.2407
36.2752 23.1404
36.3222 23.1219
36.3691 23.0963
36.4161 22.9328
36.463 22.9496
36.5101 22.9227
36.557 22.8758
36.6041 22.7309
36.651 22.7015
36.6981 22.6407
36.745 22.511
36.7921 22.4887
36.839 22.3196
36.8861 22.2582
36.9331 22.1889
36.9802 22.1045
37.0272 22.0881
37.0743 21.9404
37.1213 21.9446
37.1684 21.9655
37.2154 21.8212
37.2626 21.7475
37.3098 21.675
37.3568 21.6149
37.404 21.5783
37.451 21.4295
37.4982 21.4803
37.5452 21.3931
37.5924 21.2545
37.6395 21.3665
37.6867 21.1914
37.7337 21.098
37.781 20.9931
37.8281 20.9374
37.8753 20.8601
37.9224 20.8179
37.9697 20.7374
38.0168 20.644
38.064 20.6761
38.1111 20.5686
38.1584 20.415
38.2056 20.3637
38.2529 20.4149
38.3 20.2629
38.3473 20.2175
38.3945 20.1231
38.4418 20.1417
38.489 20.0151
38.5363 20.0005
38.5837 19.9169
38.6309 19.8491
38.6782 19.7759
38.7254 19.7047
38.7728 19.7026
38.82 19.5657
38.8674 19.5197
38.9146 19.4932
38.9621 19.4232
39.0093 19.359
39.0567 19.2854
39.104 19.2139
39.1514 19.147
39.1987 19.1278
39.2461 19.0603
39.2934 19.012
39.3409 18.8586
39.3882 18.8393
39.4356 18.7904
39.483 18.6894
39.5304 18.7001
39.5778 18.6281
39.6253 18.591
39.6726 18.5087
39.7201 18.4441
39.7675 18.395
39.815 18.3475
39.8624 18.253
39.9099 18.2473
39.9575 18.2273
40.0049 18.0491
40.0525 18.0504
40.0999 17.9882
40.1474 17.9215
40.1949 17.861
40.2425 17.7907
40.2899 17.7944
40.3375 17.7398
40.385 17.6432
40.4326 17.617
40.48 17.4934
40.5277 17.5184
40.5752 17.4841
40.6228 17.3524
40.6703 17.3275
40.718 17.296
40.7655 17.1546
40.8132 17.0793
40.8607 17.1344
40.9084 17.0958
40.9559 16.978
41.0036 16.9468
41.0512 16.9868
41.0989 16.8566
41.1465 16.7889
41.1942 16.7429
41.242 16.6334
41.2896 16.5876
41.3373 16.6075
41.3849 16.5112
41.4327 16.4135
41.4803 16.3593
41.5281 16.3366
41.5758 16.2094
41.6236 16.2286
41.6712 16.1491
41.7191 16.1002
41.7667 16.0027
41.8146 15.991
41.8622 15.9757
41.9101 15.8825
41.9578 15.8348
42.0057 15.8379
42.0534 15.7005
42.1013 15.7136
42.149 15.6084
42.1969 15.6274
42.2446 15.5236
42.2925 15.5082
42.3403 15.4178
42.3882 15.3833
42.436 15.3215
42.4839 15.2014
42.5319 15.1872
42.5797 15.1528
42.6277 15.0562
42.6755 15.0891
42.7235 14.9754
42.7713 14.9866
42.8193 14.8999
42.8671 14.9073
42.9152 14.8033
42.963 14.7823
43.0111 14.6893
43.0589 14.7018
43.107 14.5764
43.1549 14.5487
43.2029 14.4529
43.2508 14.4707
43.2989 14.3975
43.3468 14.3437
43.3949 14.3021
43.4429 14.2524
43.491 14.218
43.5389 14.1451
43.5871 14.0733
43.635 14.0106
43.6832 14.0004
43.7312 13.9327
43.7793 13.9037
43.8273 13.8423
43.8755 13.8157
43.9237 13.7705
43.9717 13.7584
44.0199 13.676
44.068 13.6878
44.1162 13.5376
44.1642 13.5765
44.2125 13.5104
44.2606 13.4523
44.3088 13.4151
44.3569 13.3488
44.4052 13.3193
44.4533 13.2776
44.5016 13.1891
44.5497 13.1242
44.598 13.1114
44.6461 13.0807
44.6945 13.0091
44.7426 12.9921
44.791 12.9374
44.8391 12.9245
44.8875 12.8615
44.9357 12.7738
44.984 12.7518
45.0322 12.7075
45.0806 12.6553
45.1288 12.5958
45.1773 12.5554
45.2257 12.5405
45.2739 12.484
45.3224 12.4417
45.3706 12.3614
45.4191 12.2947
45.4673 12.3314
45.5158 12.253
45.5641 12.2055
45.6126 12.1561
45.6609 12.0928
45.7094 12.0764
45.7577 12.081
45.8063 11.9798
45.8546 11.9669
45.9031 11.9414
45.9515 11.8555
46.0001 11.8591
46.0484 11.8013
46.097 11.7777
46.1454 11.7
46.194 11.6251
46.2424 11.6128
46.291 11.5866
46.3395 11.5464
46.3881 11.4591
46.4365 11.4313
46.4852 11.4118
46.5337 11.3364
46.5823 11.3299
46.631 11.2805
46.6795 11.2382
46.7282 11.1873
46.7767 11.1858
46.8254 11.1287
46.8739 11.0528
46.9226 10.9922
46.9712 10.9666
47.0199 10.9746
47.0685 10.8956
47.1173 10.8721
47.1658 10.8485
47.2146 10.7808
47.2632 10.728
47.312 10.7497
47.3606 10.7104
47.4095 10.6234
47.4581 10.6003
47.5069 10.5132
47.5556 10.5264
47.6044 10.4702
47.6531 10.4579
47.702 10.3827
47.7507 10.3645
47.7996 10.3172
47.8483 10.2686
47.8972 10.2598
47.9461 10.22
47.9948 10.15
48.0438 10.1432
48.0925 10.0993
48.1415 10.0702
48.1902 10.0099
48.2392 9.98681
48.288 9.98669
48.337 9.90048
48.3858 9.89722
48.4348 9.86759
48.4837 9.84344
48.5327 9.81183
48.5815 9.74801
48.6306 9.73825
48.6795 9.66892
48.7285 9.62445
48.7774 9.63548
48.8265 9.58303
48.8754 9.51188
48.9245 9.48571
48.9734 9.50279
49.0226 9.43315
49.0715 9.37588
49.1206 9.35233
49.1696 9.27485
49.2188 9.31653
49.2679 9.21846
49.3169 9.23049
49.3661 9.18403
49.4151 9.15309
49.4643 9.11176
49.5134 9.06924
49.5626 9.03933
49.6117 9.02818
49.6609 8.95384
49.71 8.92656
49.7592 8.90213
49.8083 8.86565
49.8576 8.83979
49.9067 8.76261
49.956 8.73911
50.0052 8.71997
50.0545 8.71223
50.1036 8.67017
50.153 8.64627
50.2022 8.59137
50.2515 8.56529
50.3007 8.49216
50.3501 8.51574
50.3993 8.45667
50.4487 8.42448
50.498 8.42232
50.5474 8.38288
50.5966 8.31976
50.6461 8.27886
50.6955 8.27843
50.7448 8.23186
50.7943 8.21943
50.8436 8.16775
50.8931 8.15149
50.9424 8.12672
50.9919 8.10357
51.0413 8.04991
51.0908 7.98789
51.1402 7.99588
51.1897 7.93964
51.2391 7.90293
51.2887 7.86851
51.3381 7.84906
51.3877 7.8237
51.4371 7.78532
51.4867 7.74194
51.5362 7.74262
51.5858 7.71976
51.6353 7.67918
51.6849 7.64997
51.7344 7.59861
51.7841 7.55105
51.8336 7.52785
51.8833 7.49144
51.9328 7.48893
51.9826 7.42829
52.0323 7.40394
52.0818 7.36302
52.1316 7.32844
52.1812 7.33098
52.231 7.31232
52.2806 7.2473
52.3304 7.21141
52.38 7.19082
52.4298 7.1593
52.4794 7.12647
52.5293 7.12742
52.5789 7.07447
52.6288 7.01624
52.6785 6.99753
52.7284 6.98076
52.7781 6.94827
52.828 6.89179
52.8777 6.88525
52.9276 6.87659
52.9774 6.84939
53.0273 6.825
53.0771 6.75891
53.1271 6.79827
53.1769 6.67785
53.2269 6.72795
53.2767 6.66568
53.3267 6.66436
53.3765 6.61986
53.4266 6.59212
53.4766 6.55043
53.5265 6.54058
53.5765 6.4909
53.6264 6.41343
53.6765 6.43201
53.7264 6.39555
53.7765 6.38555
53.8265 6.36022
53.8766 6.33315
53.9266 6.26864
53.9767 6.26489
54.0267 6.24815
54.0769 6.2625
54.1269 6.20085
54.1771 6.17036
54.2271 6.09219
54.2773 6.10198
54.3274 6.07506
54.3776 6.01331
54.4277 5.97689
54.478 5.97601
54.528 5.93578
54.5783 5.8991
54.6285 5.82845
54.6788 5.8344
54.7289 5.75704
54.7792 5.73415
54.8296 5.66424
54.8798 5.7091
54.9301 5.58243
54.9803 5.55234
55.0307 5.5509
55.0809 5.48767
55.1314 5.46181
55.1816 5.39473
55.232 5.35167
55.2823 5.34058
55.3328 5.25839
55.383 5.24791
55.4335 5.17701
55.4838 5.13658
55.5344 5.06989
55.5847 5.05618
55.6352 5.0029
55.6856 5.00838
55.7361 4.96182