File: XRD/Ni3Fe_FD0955.xy
TT I
1.27165 7.32978
1.31627 6.43855
1.36089 6.49147
1.40551 6.51805
1.45013 6.00306
1.49476 6.03446
1.53938 5.98866
1.584 5.54935
1.62863 5.08777
1.67325 4.5856
1.71787 5.28359
1.7625 5.1708
1.80712 4.81739
1.85174 4.66233
1.89636 5.02167
1.94099 4.95836
1.98562 4.91731
2.03025 4.68605
2.07487 4.63273
2.11949 5.75629
2.16411 5.27057
2.20874 11.5124
2.25338 16.8049
2.298 5.65206
2.34263 5.56473
2.38725 6.03189
2.43188 6.05596
2.4765 7.25669
2.52115 7.34569
2.56577 8.65805
2.6104 8.7356
2.65503 8.37256
2.69965 8.6018
2.7443 8.15433
2.78893 8.97336
2.83356 8.54074
2.87818 8.94495
2.92281 9.3562
2.96744 9.51872
3.01209 10.3513
3.05672 11.2355
3.10135 12.703
3.14599 13.1065
3.19062 14.1249
3.23527 15.386
3.2799 15.9305
3.32454 16.9049
3.36917 17.6652
3.4138 18.6774
3.45844 19.4125
3.50309 20.5979
3.54773 21.6413
3.59237 23.289
3.637 69.8084
3.68164 47.6879
3.7263 26.3617
3.77094 26.1106
3.81558 26.9586
3.86022 27.2757
3.90486 28.5533
3.9495 29.2964
3.99416 30.352
4.0388 32.1816
4.08344 33.2439
4.12809 33.9028
4.17273 36.3479
4.21738 41.4061
4.26204 182.874
4.30669 160.499
4.35133 46.7038
4.39598 43.5577
4.44063 50.9238
4.4853 58.8653
4.52995 51.5562
4.5746 52.7778
4.61925 52.9204
4.6639 54.3321
4.70855 57.2744
4.75322 60.7377
4.79788 63.8791
4.84253 66.3988
4.88719 71.4693
4.93184 74.1535
4.97652 79.0319
5.02118 84.7846
5.06583 91.9562
5.11049 102.123
5.15515 156.188
5.19981 295.424
5.24449 2557.92
5.28916 13384.2
5.33382 2803.82
5.37848 179.173
5.42315 125.831
5.46783 112.751
5.5125 106.629
5.55716 100.614
5.60183 96.3033
5.6465 94.2428
5.69117 92.4188
5.73586 90.3963
5.78053 92.4929
5.8252 91.3968
5.86988 92.7298
5.91455 91.8081
5.95924 97.8981
6.00392 182.905
6.0486 850.065
6.09328 4526.2
6.13795 3092.56
6.18263 216.888
6.22733 88.6659
6.27201 79.6808
6.3167 91.1699
6.36138 76.2764
6.40606 68.2548
6.45075 66.9152
6.49545 64.3958
6.54014 62.6741
6.58483 61.3955
6.62952 61.8583
6.67421 83.4781
6.71892 114.923
6.76361 65.1448
6.8083 57.9474
6.853 57.5099
6.89769 55.7915
6.94239 55.4756
6.98711 54.703
7.03181 54.5311
7.07651 54.6211
7.12121 54.426
7.16591 54.9021
7.21063 54.6465
7.25533 65.6343
7.30004 137.706
7.34475 78.914
7.38945 54.6689
7.43416 53.4005
7.47889 53.5935
7.5236 53.4196
7.56831 54.2917
7.61303 55.4533
7.65774 55.6741
7.70247 55.5667
7.74719 55.3617
7.79191 55.8335
7.83663 55.7821
7.88135 56.5873
7.92607 57.3105
7.97081 58.8418
8.01553 59.6592
8.06026 61.7483
8.10498 63.0651
8.14971 70.1409
8.19446 69.9612
8.23919 68.2289
8.28392 70.4091
8.32865 72.5723
8.37339 77.0641
8.41812 82.6934
8.46288 103.418
8.50761 147.724
8.55235 350.004
8.59709 1174.85
8.64183 2217.37
8.68658 934.763
8.73134 157.418
8.77609 95.9458
8.82083 90.491
8.86558 88.8355
8.91033 89.1434
8.9551 89.0173
8.99985 83.9055
9.04461 82.1918
9.08936 81.9219
9.13412 80.9834
9.17888 80.515
9.22365 81.1573
9.26841 80.2523
9.31318 81.8944
9.35794 82.9832
9.4027 82.6226
9.44749 82.583
9.49226 83.1661
9.53703 84.0504
9.5818 86.0325
9.62657 91.0157
9.67134 94.9296
9.71614 91.4073
9.76091 92.1617
9.80569 95.2363
9.85047 98.4986
9.89525 115.471
9.94005 125.129
9.98484 162.199
10.0296 314.625
10.0744 798.959
10.1192 1782.11
10.164 1550.98
10.2088 367.434
10.2536 122.738
10.2984 108.891
10.3432 109.183
10.388 101.995
10.4328 112.714
10.4776 152.452
10.5224 278.808
10.5672 521.792
10.612 496.302
10.6568 193.877
10.7017 93.6792
10.7465 85.1364
10.7913 81.4094
10.8361 79.7437
10.8809 77.3787
10.9257 76.6295
10.9706 77.0788
11.0154 73.59
11.0602 71.5584
11.105 70.3504
11.1499 73.3938
11.1947 77.5633
11.2395 71.2543
11.2844 68.0548
11.3292 65.6921
11.374 64.9428
11.4189 64.2046
11.4637 63.5816
11.5086 64.0275
11.5534 65.9215
11.5983 63.6504
11.6431 62.4368
11.688 61.8086
11.7328 61.7515
11.7777 61.8705
11.8225 61.2777
11.8674 61.2578
11.9122 61.7382
11.9571 61.8818
12.002 62.1843
12.0468 65.9157
12.0917 75.8876
12.1366 100.408
12.1814 156.806
12.2263 204.498
12.2712 161.069
12.3161 92.9609
12.3609 67.5528
12.4058 63.147
12.4507 62.9569
12.4956 63.1899
12.5405 63.0112
12.5853 64.1132
12.6302 69.589
12.6751 73.1428
12.72 67.8598
12.7649 66.4037
12.8098 67.013
12.8547 68.3874
12.8996 69.3793
12.9445 71.1472
12.9894 72.8169
13.0343 74.3895
13.0792 77.2019
13.1242 85.1492
13.1691 105.69
13.214 142.192
13.2589 239.476
13.3038 383.135
13.3487 422.621
13.3937 249.372
13.4386 119.475
13.4835 101.099
13.5285 115.296
13.5734 153.784
13.6183 253.211
13.6633 362.054
13.7082 325.164
13.7531 179.459
13.7981 95.2152
13.843 80.1505
13.888 77.7893
13.9329 75.5568
13.9779 74.389
14.0228 72.9127
14.0678 71.6776
14.1127 71.3426
14.1577 70.8117
14.2027 69.8689
14.2476 69.187
14.2926 69.1069
14.3376 69.7153
14.3825 68.5993
14.4275 67.7866
14.4725 67.3638
14.5175 67.721
14.5624 67.4777
14.6074 69.3006
14.6524 69.399
14.6974 68.8165
14.7424 70.253
14.7874 76.1772
14.8324 85.7856
14.8774 108.006
14.9224 156.108
14.9674 214.712
15.0124 217.069
15.0574 145.162
15.1024 87.4622
15.1474 70.8135
15.1924 69.0864
15.2374 69.1266
15.2824 68.339
15.3274 66.3525
15.3725 65.5737
15.4175 65.0313
15.4625 64.7115
15.5076 64.8228
15.5526 64.9208
15.5976 64.2525
15.6426 65.0782
15.6877 69.8666
15.7327 77.1534
15.7778 92.7806
15.8228 126.436
15.8679 173.683
15.9129 193.255
15.958 150.388
16.003 92.7963
16.0481 66.3915
16.0931 62.6172
16.1382 61.0326
16.1833 59.2164
16.2283 57.9708
16.2734 57.2595
16.3185 57.297
16.3636 57.3932
16.4086 56.3397
16.4537 55.053
16.4988 54.2074
16.5439 54.373
16.589 53.9479
16.6341 53.7854
16.6792 53.354
16.7243 53.6994
16.7694 53.6134
16.8145 53.5891
16.8596 54.1396
16.9047 55.0382
16.9498 55.109
16.9949 54.5071
17.04 54.6667
17.0851 55.555
17.1302 57.1749
17.1754 60.098
17.2205 65.5604
17.2656 74.4522
17.3108 82.4602
17.3559 79.9523
17.401 69.0558
17.4462 60.9595
17.4913 57.8538
17.5365 57.9753
17.5815 57.993
17.6268 58.3028
17.6718 59.0972
17.7171 59.5197
17.7622 59.9561
17.8074 60.6561
17.8525 62.5452
17.8977 66.2419
17.9428 71.5319
17.9881 80.6154
18.0331 99.5938
18.0784 123.079
18.1237 137.375
18.1688 125.812
18.214 100.302
18.2591 85.0706
18.3044 90.5049
18.3495 101.256
18.3948 104.802
18.4399 93.3431
18.4852 75.0091
18.5303 64.5734
18.5756 61.0035
18.6207 60.1877
18.666 59.3214
18.7112 58.4623
18.7565 57.9903
18.8016 57.4873
18.8469 56.8973
18.892 56.5239
18.9374 56.3334
18.9825 55.7741
19.0278 55.8034
19.073 55.773
19.1183 56.0121
19.1635 56.81
19.2088 58.2669
19.254 60.851
19.2993 65.7173
19.3447 71.6111
19.3898 74.4093
19.4352 69.8356
19.4804 61.6198
19.5257 55.2835
19.5709 53.2139
19.6163 52.9458
19.6615 52.7663
19.7068 52.3453
19.752 52.2103
19.7974 52.496
19.8426 53.1471
19.888 53.7555
19.9332 55.032
19.9786 57.547
20.0238 61.8697
20.0692 66.6308
20.1144 68.758
20.1598 66.2986
20.205 62.116
20.2504 61.519
20.2957 63.7232
20.3411 64.8391
20.3863 62.5057
20.4318 57.0717
20.477 52.6214
20.5224 50.6022
20.5677 49.7437
20.6131 49.24
20.6586 48.8998
20.7038 48.6247
20.7493 48.1354
20.7945 48.2879
20.84 47.9255
20.8853 47.8134
20.9307 47.6655
20.976 47.7179
21.0215 47.803
21.0668 48.03
21.1122 48.6666
21.1575 49.0754
21.203 50.1315
21.2483 50.5085
21.2938 50.3252
21.3391 49.1868
21.3846 48.1664
21.4299 47.4558
21.4754 47.4828
21.5207 47.6514
21.5662 47.8939
21.6116 48.0849
21.6571 48.7349
21.7024 49.787
21.7479 51.588
21.7933 54.6897
21.8388 58.4874
21.8843 62.2671
21.9297 63.5669
21.9752 61.5403
22.0206 58.2569
22.0661 55.5764
22.1115 55.2318
22.157 54.9312
22.2024 53.1943
22.248 50.3851
22.2933 49.163
22.3389 48.2572
22.3843 47.8881
22.4299 47.9953
22.4753 47.9526
22.5208 47.8125
22.5662 47.5588
22.6118 47.8492
22.6572 47.7429
22.7028 48.4398
22.7483 48.5951
22.7939 49.3883
22.8393 51.1624
22.8849 53.4496
22.9303 55.7451
22.9759 56.9381
23.0214 56.2233
23.067 53.2227
23.1126 50.2023
23.1581 48.3013
23.2037 47.9875
23.2492 47.9395
23.2948 47.7267
23.3403 48.1736
23.3859 48.8273
23.4314 49.8968
23.477 51.8512
23.5225 54.3974
23.5682 56.5192
23.6137 56.9246
23.6593 54.6292
23.7048 50.6149
23.7505 47.448
23.796 45.7806
23.8417 45.2545
23.8872 44.8509
23.9329 44.4165
23.9784 44.0166
24.0241 43.8238
24.0697 43.665
24.1154 43.3704
24.1609 43.2119
24.2066 43.1114
24.2522 42.8671
24.2979 42.7123
24.3434 42.4433
24.3892 42.2886
24.4349 42.249
24.4805 42.3073
24.5262 42.3516
24.5718 42.1767
24.6175 42.259
24.6631 42.0291
24.7089 41.7138
24.7545 41.7266
24.8002 41.5017
24.8458 41.5627
24.8916 41.2484
24.9372 41.5169
24.983 41.8907
25.0286 42.0226
25.0744 42.6056
25.12 43.0762
25.1658 43.5697
25.2114 43.821
25.2572 44.0797
25.3029 44.1775
25.3487 44.231
25.3943 43.6632
25.4402 42.6374
25.4858 41.738
25.5316 40.7344
25.5773 40.178
25.6231 40.1687
25.669 39.8108
25.7147 39.7416
25.7605 39.5111
25.8062 39.7308
25.8521 39.887
25.8977 39.8535
25.9436 40.131
25.9893 40.4249
26.0352 40.8418
26.0809 40.8822
26.1268 41.0532
26.1725 40.4992
26.2184 39.9853
26.2641 39.5684
26.31 39.3327
26.3557 39.3738
26.4017 39.3765
26.4474 39.8043
26.4933 39.9702
26.5391 40.4944
26.585 41.1433
26.6308 41.5342
26.6767 41.4637
26.7225 41.1198
26.7684 40.6764
26.8142 40.1042
26.8601 39.7801
26.9059 39.2418
26.9519 38.866
26.9979 38.46
27.0437 38.3779
27.0896 38.1224
27.1354 38.1409
27.1814 37.978
27.2272 37.9194
27.2732 37.8423
27.3191 37.7713
27.3651 37.8476
27.4109 37.6933
27.4569 37.9077
27.5027 37.7939
27.5488 37.9642
27.5946 37.8119
27.6407 37.4955
27.6865 37.3372
27.7326 37.1781
27.7784 37.1192
27.8245 37.0686
27.8703 37.4043
27.9164 37.534
27.9623 37.8877
28.0084 38.1683
28.0543 38.5264
28.1003 38.3427
28.1462 38.0883
28.1923 37.8952
28.2384 37.3576
28.2843 36.9477
28.3304 36.498
28.3764 36.0567
28.4225 35.7779
28.4684 35.6653
28.5145 35.3861
28.5605 35.2838
28.6066 35.0089
28.6526 34.9138
28.6987 35.0264
28.7447 34.8544
28.7908 34.8178
28.8368 34.8671
28.8829 34.8263
28.9289 34.7743
28.9751 34.6145
29.0211 34.3977
29.0673 34.1258
29.1133 33.8551
29.1595 33.8255
29.2055 33.6803
29.2517 33.7275
29.2977 33.7158
29.3439 33.7072
29.3899 33.5687
29.4361 33.6151
29.4824 33.3713
29.5284 33.1456
29.5746 32.7775
29.6207 32.6265
29.6669 32.5305
29.713 32.3791
29.7593 32.2633
29.8053 32.2803
29.8516 32.1458
29.8977 32.1902
29.9439 32.0514
29.99 32.0333
30.0363 31.8936
30.0824 31.9429
30.1287 31.9104
30.1748 31.9293
30.2211 31.8827
30.2673 31.8083
30.3136 31.7857
30.3597 31.7917
30.406 31.5621
30.4522 31.45
30.4985 31.4736
30.5447 31.6061
30.591 31.5672
30.6372 31.7293
30.6835 31.6028
30.7297 31.7432
30.7761 31.6587
30.8224 31.4504
30.8686 31.3402
30.915 31.1087
30.9612 30.9823
31.0076 30.7814
31.0538 30.6194
31.1002 30.5696
31.1464 30.4577
31.1928 30.4393
31.2391 30.4732
31.2855 30.4367
31.3317 30.3004
31.3781 30.3651
31.4244 30.3716
31.4708 30.3485
31.5171 30.2874
31.5636 30.3153
31.6098 30.0331
31.6563 29.8711
31.7026 29.7662
31.7491 29.5911
31.7953 29.6575
31.8418 29.6586
31.8881 29.6794
31.9346 29.5994
31.9809 29.5821
32.0275 29.4044
32.074 29.3211
32.1203 29.1325
32.1668 29.0859
32.2132 28.8443
32.2597 28.6548
32.306 28.7674
32.3526 28.539
32.399 28.4667
32.4455 28.2745
32.4919 28.2394
32.5385 28.1731
32.5848 28.0087
32.6314 28.0707
32.6778 27.9979
32.7244 27.8507
32.7708 27.7391
32.8174 27.7288
32.8638 27.5348
32.9104 27.6062
32.9569 27.4698
33.0035 27.3693
33.0499 27.446
33.0966 27.2867
33.143 27.3829
33.1897 27.2146
33.2361 27.0481
33.2828 27.1733
33.3293 26.9654
33.3759 26.8684
33.4226 26.766
33.4691 26.6831
33.5158 26.6609
33.5623 26.4633
33.609 26.3263
33.6555 26.2631
33.7022 26.1081
33.7487 26.0921
33.7954 26.0517
33.842 25.9402
33.8887 25.9198
33.9353 25.8628
33.982 25.6476
34.0286 25.6226
34.0753 25.5043
34.1219 25.508
34.1687 25.3634
34.2152 25.4022
34.262 25.2325
34.3086 25.0511
34.3554 25.0962
34.402 24.8856
34.4488 24.8843
34.4954 24.8059
34.5422 24.7204
34.5889 24.7025
34.6357 24.568
34.6825 24.5217
34.7292 24.4152
34.776 24.317
34.8227 24.3908
34.8695 24.2762
34.9162 24.1609
34.9631 24.1792
35.0098 24.0733
35.0566 23.8952
35.1033 23.9318
35.1502 23.816
35.1969 23.7638
35.2438 23.8114
35.2906 23.6864
35.3375 23.5641
35.3842 23.6305
35.4311 23.5661
35.4779 23.5911
35.5248 23.4676
35.5716 23.375
35.6185 23.2895
35.6653 23.2315
35.7123 23.0684
35.759 23.0876
35.806 23.0141
35.8528 22.8929
35.8998 22.8757
35.9468 22.6564
35.9936 22.7645
36.0406 22.6884
36.0874 22.6146
36.1345 22.5481
36.1813 22.4232
36.2283 22.3129
36.2752 22.2713
36.3222 22.3115
36.3691 22.2116
36.4161 22.0874
36.463 22.1489
36.5101 21.9917
36.557 21.9889
36.6041 21.8035
36.651 21.8036
36.6981 21.755
36.745 21.7494
36.7921 21.5827
36.839 21.5229
36.8861 21.5248
36.9331 21.3835
36.9802 21.3444
37.0272 21.1673
37.0743 21.125
37.1213 21.138
37.1684 21.1115
37.2154 21.0142
37.2626 20.9114
37.3098 20.8001
37.3568 20.7395
37.404 20.7236
37.451 20.6543
37.4982 20.5404
37.5452 20.4894
37.5924 20.429
37.6395 20.4312
37.6867 20.3217
37.7337 20.2738
37.781 20.1725
37.8281 20.0806
37.8753 20.0541
37.9224 20.0374
37.9697 19.9344
38.0168 19.8336
38.064 19.76
38.1111 19.7795
38.1584 19.6861
38.2056 19.6623
38.2529 19.5473
38.3 19.5011
38.3473 19.5246
38.3945 19.3949
38.4418 19.4264
38.489 19.2821
38.5363 19.2225
38.5837 19.1247
38.6309 19.0855
38.6782 18.9998
38.7254 18.9663
38.7728 18.8921
38.82 18.8422
38.8674 18.8357
38.9146 18.6923
38.9621 18.6848
39.0093 18.6387
39.0567 18.4909
39.104 18.5569
39.1514 18.3875
39.1987 18.3197
39.2461 18.3432
39.2934 18.2819
39.3409 18.1549
39.3882 18.114
39.4356 18.1021
39.483 18.0088
39.5304 17.8913
39.5778 17.9522
39.6253 17.842
39.6726 17.7889
39.7201 17.7701
39.7675 17.6823
39.815 17.6787
39.8624 17.5043
39.9099 17.5942
39.9575 17.428
40.0049 17.3689
40.0525 17.3353
40.0999 17.3079
40.1474 17.2655
40.1949 17.1319
40.2425 17.1055
40.2899 17.0385
40.3375 17.0163
40.385 16.97
40.4326 16.908
40.48 16.8095
40.5277 16.8205
40.5752 16.7191
40.6228 16.701
40.6703 16.6237
40.718 16.6539
40.7655 16.5732
40.8132 16.5317
40.8607 16.4854
40.9084 16.3928
40.9559 16.3389
41.0036 16.2875
41.0512 16.2245
41.0989 16.1717
41.1465 16.1026
41.1942 16.0703
41.242 15.9673
41.2896 15.9692
41.3373 15.8951
41.3849 15.8686
41.4327 15.8033
41.4803 15.7007
41.5281 15.7067
41.5758 15.6295
41.6236 15.5808
41.6712 15.5185
41.7191 15.4839
41.7667 15.4313
41.8146 15.3845
41.8622 15.3575
41.9101 15.2759
41.9578 15.1645
42.0057 15.1253
42.0534 15.1885
42.1013 15.0232
42.149 15.0477
42.1969 15.0189
42.2446 14.8944
42.2925 14.9232
42.3403 14.8599
42.3882 14.773
42.436 14.7595
42.4839 14.7283
42.5319 14.6545
42.5797 14.5884
42.6277 14.5203
42.6755 14.5197
42.7235 14.4397
42.7713 14.413
42.8193 14.3344
42.8671 14.263
42.9152 14.2206
42.963 14.1717
43.0111 14.1141
43.0589 14.0655
43.107 14.0207
43.1549 13.99
43.2029 13.9508
43.2508 13.8847
43.2989 13.7981
43.3468 13.7861
43.3949 13.7503
43.4429 13.6844
43.491 13.6296
43.5389 13.6167
43.5871 13.5452
43.635 13.5144
43.6832 13.4836
43.7312 13.4074
43.7793 13.3388
43.8273 13.3096
43.8755 13.2887
43.9237 13.2369
43.9717 13.1811
44.0199 13.1503
44.068 13.1346
44.1162 13.0533
44.1642 13.0528
44.2125 12.9876
44.2606 12.9069
44.3088 12.8215
44.3569 12.8755
44.4052 12.792
44.4533 12.785
44.5016 12.6183
44.5497 12.6412
44.598 12.6088
44.6461 12.5928
44.6945 12.5018
44.7426 12.4901
44.791 12.4137
44.8391 12.4087
44.8875 12.3248
44.9357 12.3854
44.984 12.2763
45.0322 12.2017
45.0806 12.1507
45.1288 12.1139
45.1773 12.0889
45.2257 12.0734
45.2739 12.0213
45.3224 11.9801
45.3706 11.9051
45.4191 11.8807
45.4673 11.9059
45.5158 11.8173
45.5641 11.7441
45.6126 11.7242
45.6609 11.6197
45.7094 11.5744
45.7577 11.5705
45.8063 11.4729
45.8546 11.5069
45.9031 11.4842
45.9515 11.3963
46.0001 11.3803
46.0484 11.3343
46.097 11.3078
46.1454 11.2953
46.194 11.2302
46.2424 11.1576
46.291 11.1219
46.3395 11.0611
46.3881 11.0787
46.4365 11.0416
46.4852 10.9774
46.5337 10.9676
46.5823 10.9043
46.631 10.8504
46.6795 10.8178
46.7282 10.8222
46.7767 10.802
46.8254 10.6931
46.8739 10.6577
46.9226 10.6464
46.9712 10.5852
47.0199 10.5555
47.0685 10.5098
47.1173 10.4583
47.1658 10.3975
47.2146 10.4274
47.2632 10.3622
47.312 10.3119
47.3606 10.2714
47.4095 10.204
47.4581 10.2112
47.5069 10.1879
47.5556 10.1186
47.6044 10.0667
47.6531 10.0375
47.702 10.0078
47.7507 9.99851
47.7996 9.95262
47.8483 9.87902
47.8972 9.83887
47.9461 9.82332
47.9948 9.77335
48.0438 9.75663
48.0925 9.70898
48.1415 9.70832
48.1902 9.64919
48.2392 9.64413
48.288 9.55644
48.337 9.56476
48.3858 9.51671
48.4348 9.48634
48.4837 9.44084
48.5327 9.41847
48.5815 9.39061
48.6306 9.34551
48.6795 9.34021
48.7285 9.26289
48.7774 9.25969
48.8265 9.21465
48.8754 9.13631
48.9245 9.14953
48.9734 9.09279
49.0226 9.08549
49.0715 9.04079
49.1206 8.98889
49.1696 8.93695
49.2188 8.92087
49.2679 8.88022
49.3169 8.86256
49.3661 8.82196
49.4151 8.7774
49.4643 8.76545
49.5134 8.69501
49.5626 8.65408
49.6117 8.71928
49.6609 8.63612
49.71 8.54545
49.7592 8.5569
49.8083 8.52315
49.8576 8.47248
49.9067 8.43697
49.956 8.42218
50.0052 8.38175
50.0545 8.35746
50.1036 8.30652
50.153 8.32196
50.2022 8.28717
50.2515 8.26258
50.3007 8.17116
50.3501 8.15029
50.3993 8.14328
50.4487 8.09446
50.498 8.08832
50.5474 8.07937
50.5966 8.01326
50.6461 7.98439
50.6955 7.94155
50.7448 7.91825
50.7943 7.89187
50.8436 7.86248
50.8931 7.8235
50.9424 7.81319
50.9919 7.74623
51.0413 7.75323
51.0908 7.70596
51.1402 7.65002
51.1897 7.64252
51.2391 7.64814
51.2887 7.61342
51.3381 7.54628
51.3877 7.51084
51.4371 7.483
51.4867 7.41136
51.5362 7.47832
51.5858 7.3931
51.6353 7.36441
51.6849 7.32238
51.7344 7.31482
51.7841 7.27526
51.8336 7.26023
51.8833 7.23816
51.9328 7.18181
51.9826 7.16232
52.0323 7.14015
52.0818 7.12105
52.1316 7.09533
52.1812 6.98729
52.231 7.04227
52.2806 7.01083
52.3304 6.9854
52.38 6.90674
52.4298 6.88974
52.4794 6.87511
52.5293 6.86657
52.5789 6.78503
52.6288 6.77675
52.6785 6.72153
52.7284 6.75751
52.7781 6.70792
52.828 6.71628
52.8777 6.63831
52.9276 6.58739
52.9774 6.57546
53.0273 6.57777
53.0771 6.52306
53.1271 6.53162
53.1769 6.49996
53.2269 6.45395
53.2767 6.42003
53.3267 6.39733
53.3765 6.39123
53.4266 6.36298
53.4766 6.30081
53.5265 6.27713
53.5765 6.30697
53.6264 6.23388
53.6765 6.24464
53.7264 6.20017
53.7765 6.13205
53.8265 6.12654
53.8766 6.10177
53.9266 6.08191
53.9767 6.05938
54.0267 5.99796
54.0769 5.9975
54.1269 5.95772
54.1771 5.90875
54.2271 5.9062
54.2773 5.90333
54.3274 5.83114
54.3776 5.84795
54.4277 5.76952
54.478 5.77158
54.528 5.70255
54.5783 5.6146
54.6285 5.63
54.6788 5.60517
54.7289 5.50459
54.7792 5.48969
54.8296 5.46149
54.8798 5.46435
54.9301 5.39577
54.9803 5.39196
55.0307 5.30976
55.0809 5.23712
55.1314 5.26887
55.1816 5.19454
55.232 5.15236
55.2823 5.11648
55.3328 5.10519
55.383 5.01301
55.4335 5.01864
55.4838 4.90342
55.5344 4.87995
55.5847 4.88581
55.6352 4.83544
55.6856 4.7716
55.7361 4.70484