File: XRD/Ni3Fe_FD0888.xy
TT I
1.27165 6.87042
1.31627 6.40586
1.36089 6.42531
1.40551 5.87198
1.45013 6.51213
1.49476 5.51925
1.53938 5.63873
1.584 5.00075
1.62863 5.1865
1.67325 4.90062
1.71787 4.46026
1.7625 4.78942
1.80712 4.4771
1.85174 4.54194
1.89636 5.30366
1.94099 4.76451
1.98562 4.14799
2.03025 4.18518
2.07487 4.69873
2.11949 4.72813
2.16411 4.83475
2.20874 16.3582
2.25338 29.1996
2.298 7.13736
2.34263 5.85721
2.38725 5.78098
2.43188 6.34665
2.4765 7.45751
2.52115 6.97951
2.56577 7.47569
2.6104 8.82242
2.65503 7.9185
2.69965 7.75713
2.7443 8.34556
2.78893 8.82442
2.83356 8.90709
2.87818 8.81707
2.92281 9.23437
2.96744 9.39574
3.01209 10.0525
3.05672 11.2909
3.10135 12.6462
3.14599 13.5469
3.19062 14.4162
3.23527 14.9978
3.2799 15.6767
3.32454 16.3921
3.36917 17.9714
3.4138 18.6418
3.45844 19.5694
3.50309 20.8216
3.54773 21.769
3.59237 24.2943
3.637 111.888
3.68164 71.0756
3.7263 26.7305
3.77094 26.2959
3.81558 27.158
3.86022 27.008
3.90486 29.1338
3.9495 29.6931
3.99416 30.8485
4.0388 32.1141
4.08344 33.4331
4.12809 34.4014
4.17273 36.6912
4.21738 43.696
4.26204 301.944
4.30669 284.015
4.35133 50.2445
4.39598 44.351
4.44063 55.4494
4.4853 71.7025
4.52995 49.7533
4.5746 50.2973
4.61925 51.8312
4.6639 54.6924
4.70855 57.2087
4.75322 59.7646
4.79788 62.0615
4.84253 65.7653
4.88719 69.7852
4.93184 72.9487
4.97652 78.0935
5.02118 84.0219
5.06583 91.0058
5.11049 101.415
5.15515 176.071
5.19981 282.526
5.24449 2252.38
5.28916 13119.9
5.33382 3068.89
5.37848 182.452
5.42315 124.844
5.46783 110.432
5.5125 103.667
5.55716 99.5189
5.60183 96.4151
5.6465 95.0448
5.69117 92.1657
5.73586 89.6464
5.78053 89.1238
5.8252 88.3088
5.86988 88.7127
5.91455 89.9152
5.95924 95.415
6.00392 162.855
6.0486 777.368
6.09328 4202.53
6.13795 3287.61
6.18263 244.36
6.22733 90.2532
6.27201 81.6451
6.3167 108.326
6.36138 82.5929
6.40606 67.8799
6.45075 66.1956
6.49545 64.6641
6.54014 62.8672
6.58483 62.3852
6.62952 62.2672
6.67421 99.895
6.71892 170.76
6.76361 72.0666
6.8083 58.4666
6.853 57.0544
6.89769 56.6018
6.94239 56.2531
6.98711 55.0286
7.03181 54.8407
7.07651 54.742
7.12121 54.7851
7.16591 55.2568
7.21063 55.2037
7.25533 72.4419
7.30004 215.881
7.34475 105.297
7.38945 56.7176
7.43416 54.3368
7.47889 53.9328
7.5236 54.302
7.56831 54.7969
7.61303 56.5828
7.65774 57.4846
7.70247 55.5351
7.74719 55.7388
7.79191 55.7819
7.83663 55.7821
7.88135 57.0813
7.92607 57.5543
7.97081 58.7912
8.01553 59.7657
8.06026 61.2501
8.10498 62.9514
8.14971 74.1231
8.19446 73.5097
8.23919 68.3093
8.28392 70.1538
8.32865 72.1253
8.37339 75.9697
8.41812 83.0694
8.46288 116.626
8.50761 141.837
8.55235 318.722
8.59709 1073.56
8.64183 2264.79
8.68658 1056.46
8.73134 179.017
8.77609 97.527
8.82083 90.7012
8.86558 87.957
8.91033 88.5452
8.9551 92.2487
8.99985 84.2423
9.04461 81.9054
9.08936 81.1377
9.13412 79.9773
9.17888 80.6618
9.22365 81.69
9.26841 80.5982
9.31318 80.8571
9.35794 80.88
9.4027 81.2504
9.44749 82.1334
9.49226 82.724
9.53703 84.1926
9.5818 85.3541
9.62657 90.2222
9.67134 99.4132
9.71614 92.2757
9.76091 92.1033
9.80569 94.0228
9.85047 97.6726
9.89525 125.463
9.94005 140.454
9.98484 152.005
10.0296 286.056
10.0744 710.654
10.1192 1724.63
10.164 1678.9
10.2088 435.476
10.2536 126.393
10.2984 112.386
10.3432 116.451
10.388 102.931
10.4328 109.914
10.4776 143.83
10.5224 255.28
10.5672 501.479
10.612 516.849
10.6568 207.29
10.7017 96.0021
10.7465 85.0782
10.7913 81.6754
10.8361 79.6123
10.8809 77.6453
10.9257 77.1389
10.9706 78.7982
11.0154 73.9378
11.0602 71.9639
11.105 70.8354
11.1499 76.2044
11.1947 87.1808
11.2395 75.9088
11.2844 70.4305
11.3292 66.3044
11.374 65.3718
11.4189 64.6467
11.4637 63.7689
11.5086 64.6683
11.5534 68.5964
11.5983 65.1751
11.6431 62.5996
11.688 61.8791
11.7328 61.9434
11.7777 61.895
11.8225 61.3713
11.8674 61.4265
11.9122 61.7359
11.9571 61.5962
12.002 62.2775
12.0468 65.0328
12.0917 74.7471
12.1366 95.7567
12.1814 149.335
12.2263 211.044
12.2712 173.172
12.3161 99.2143
12.3609 71.5617
12.4058 64.1576
12.4507 63.1889
12.4956 63.3036
12.5405 63.6563
12.5853 64.3267
12.6302 74.0099
12.6751 81.8772
12.72 70.1273
12.7649 66.5953
12.8098 66.9707
12.8547 68.277
12.8996 69.4981
12.9445 70.4032
12.9894 72.042
13.0343 73.816
13.0792 76.6362
13.1242 82.9759
13.1691 102.684
13.214 134.926
13.2589 217.271
13.3038 364.118
13.3487 436.267
13.3937 273.257
13.4386 126.101
13.4835 99.8142
13.5285 111.026
13.5734 144.822
13.6183 234.561
13.6633 348.167
13.7082 355.951
13.7531 191.685
13.7981 97.2037
13.843 80.4035
13.888 78.0274
13.9329 75.6064
13.9779 74.4548
14.0228 72.5155
14.0678 71.559
14.1127 71.1987
14.1577 71.3726
14.2027 70.5064
14.2476 69.2383
14.2926 69.2287
14.3376 71.1547
14.3825 69.3924
14.4275 67.3447
14.4725 67.1527
14.5175 67.779
14.5624 67.6806
14.6074 70.0
14.6524 71.3265
14.6974 69.1174
14.7424 69.7246
14.7874 74.3892
14.8324 83.1787
14.8774 102.887
14.9224 144.89
14.9674 208.897
15.0124 222.331
15.0574 153.245
15.1024 91.2397
15.1474 71.3654
15.1924 69.272
15.2374 70.6858
15.2824 69.8149
15.3274 67.4005
15.3725 65.8434
15.4175 65.2919
15.4625 64.6634
15.5076 65.2119
15.5526 65.0934
15.5976 64.4184
15.6426 64.8564
15.6877 68.6744
15.7327 75.2104
15.7778 88.6447
15.8228 118.814
15.8679 165.835
15.9129 196.5
15.958 160.509
16.003 97.6051
16.0481 67.8484
16.0931 64.3186
16.1382 62.454
16.1833 60.0001
16.2283 58.061
16.2734 57.5208
16.3185 57.9786
16.3636 59.253
16.4086 57.4477
16.4537 55.3015
16.4988 54.4539
16.5439 54.7202
16.589 54.1707
16.6341 53.8643
16.6792 53.6306
16.7243 53.9352
16.7694 54.1463
16.8145 53.9074
16.8596 54.3984
16.9047 56.4138
16.9498 56.7876
16.9949 54.9929
17.04 54.6922
17.0851 55.662
17.1302 56.9126
17.1754 59.5535
17.2205 64.2199
17.2656 72.1345
17.3108 82.2132
17.3559 81.7189
17.401 70.3534
17.4462 60.8877
17.4913 58.1827
17.5365 57.981
17.5815 58.1279
17.6268 58.2855
17.6718 59.5289
17.7171 59.8102
17.7622 60.2061
17.8074 60.4554
17.8525 62.0443
17.8977 65.579
17.9428 70.4015
17.9881 77.9672
18.0331 94.972
18.0784 118.538
18.1237 138.0
18.1688 131.091
18.214 103.358
18.2591 84.6237
18.3044 87.7468
18.3495 98.7196
18.3948 105.724
18.4399 96.6199
18.4852 77.2012
18.5303 65.1896
18.5756 61.3205
18.6207 60.3338
18.666 59.3233
18.7112 58.6202
18.7565 57.8646
18.8016 57.6754
18.8469 57.013
18.892 56.783
18.9374 56.3719
18.9825 56.1149
19.0278 56.0712
19.073 56.0062
19.1183 56.381
19.1635 57.1927
19.2088 58.1648
19.254 60.3659
19.2993 64.8733
19.3447 71.743
19.3898 76.5992
19.4352 72.3466
19.4804 62.9591
19.5257 56.1821
19.5709 53.4233
19.6163 53.0241
19.6615 52.7386
19.7068 52.3196
19.752 52.3983
19.7974 52.5487
19.8426 53.2702
19.888 53.9045
19.9332 54.9349
19.9786 57.3165
20.0238 60.5882
20.0692 65.9815
20.1144 69.3851
20.1598 67.6985
20.205 62.7251
20.2504 61.0394
20.2957 63.0096
20.3411 65.2572
20.3863 64.0193
20.4318 58.2625
20.477 53.2843
20.5224 51.1807
20.5677 50.4471
20.6131 49.6086
20.6586 48.9
20.7038 48.5983
20.7493 48.4491
20.7945 48.1988
20.84 48.129
20.8853 47.9178
20.9307 47.5895
20.976 47.9511
21.0215 47.7653
21.0668 48.1642
21.1122 48.5507
21.1575 49.3393
21.203 50.0858
21.2483 50.6295
21.2938 50.5526
21.3391 49.3243
21.3846 48.1598
21.4299 47.5279
21.4754 47.5012
21.5207 47.7321
21.5662 47.8779
21.6116 48.1213
21.6571 48.7206
21.7024 49.5963
21.7479 51.2047
21.7933 53.6948
21.8388 57.6611
21.8843 61.8457
21.9297 64.1535
21.9752 62.9514
22.0206 58.9832
22.0661 55.8545
22.1115 55.4538
22.157 55.4535
22.2024 53.685
22.248 50.718
22.2933 49.1913
22.3389 48.2299
22.3843 48.4822
22.4299 48.3602
22.4753 48.304
22.5208 47.8442
22.5662 47.6564
22.6118 47.8419
22.6572 47.7911
22.7028 48.3429
22.7483 48.592
22.7939 49.1695
22.8393 50.6325
22.8849 53.0328
22.9303 55.2436
22.9759 57.1046
23.0214 57.0972
23.067 54.1743
23.1126 50.702
23.1581 48.4838
23.2037 47.9645
23.2492 48.0013
23.2948 47.9244
23.3403 48.0796
23.3859 48.5959
23.4314 49.5799
23.477 51.4426
23.5225 53.7627
23.5682 56.2501
23.6137 57.6987
23.6593 55.4457
23.7048 51.1929
23.7505 47.8769
23.796 45.9348
23.8417 45.3626
23.8872 45.009
23.9329 44.5136
23.9784 44.2718
24.0241 44.0141
24.0697 43.9597
24.1154 43.4132
24.1609 43.3214
24.2066 43.2672
24.2522 43.2404
24.2979 42.7579
24.3434 42.626
24.3892 42.597
24.4349 42.4191
24.4805 42.3484
24.5262 42.5362
24.5718 42.3899
24.6175 42.2923
24.6631 42.2262
24.7089 41.9699
24.7545 41.7903
24.8002 41.5727
24.8458 41.7054
24.8916 41.4431
24.9372 41.5715
24.983 41.7566
25.0286 42.1502
25.0744 42.5592
25.12 43.0085
25.1658 43.6341
25.2114 44.0798
25.2572 44.1686
25.3029 44.2868
25.3487 44.3254
25.3943 44.0444
25.4402 43.0132
25.4858 42.0541
25.5316 40.8565
25.5773 40.3353
25.6231 40.1731
25.669 39.9477
25.7147 39.919
25.7605 39.8275
25.8062 40.0232
25.8521 40.0529
25.8977 39.9285
25.9436 40.2041
25.9893 40.1916
26.0352 40.8655
26.0809 40.9409
26.1268 41.1139
26.1725 40.7813
26.2184 40.3415
26.2641 39.594
26.31 39.4588
26.3557 39.4655
26.4017 39.5754
26.4474 39.8042
26.4933 40.2068
26.5391 40.5615
26.585 41.0825
26.6308 41.4639
26.6767 41.7825
26.7225 41.5351
26.7684 40.8931
26.8142 40.4011
26.8601 39.884
26.9059 39.5
26.9519 38.9037
26.9979 38.6232
27.0437 38.3055
27.0896 38.1943
27.1354 38.196
27.1814 38.0129
27.2272 37.8337
27.2732 37.9311
27.3191 37.7559
27.3651 37.8832
27.4109 37.8273
27.4569 37.9136
27.5027 37.9726
27.5488 38.1096
27.5946 37.8601
27.6407 37.6245
27.6865 37.585
27.7326 37.3346
27.7784 37.2329
27.8245 37.1725
27.8703 37.3965
27.9164 37.7526
27.9623 37.9218
28.0084 38.2624
28.0543 38.648
28.1003 38.5244
28.1462 38.2977
28.1923 37.9476
28.2384 37.4963
28.2843 37.1238
28.3304 36.7241
28.3764 36.2279
28.4225 35.9478
28.4684 35.8258
28.5145 35.4447
28.5605 35.3899
28.6066 35.2187
28.6526 35.095
28.6987 35.0697
28.7447 35.0113
28.7908 35.0846
28.8368 34.9699
28.8829 34.9406
28.9289 35.0205
28.9751 34.6697
29.0211 34.531
29.0673 34.1583
29.1133 33.9698
29.1595 33.8708
29.2055 33.8713
29.2517 33.8923
29.2977 33.8055
29.3439 33.8706
29.3899 33.811
29.4361 33.6331
29.4824 33.4938
29.5284 33.3163
29.5746 32.8807
29.6207 32.6015
29.6669 32.5276
29.713 32.5927
29.7593 32.3536
29.8053 32.4869
29.8516 32.3224
29.8977 32.2032
29.9439 32.1157
29.99 32.0249
30.0363 32.0549
30.0824 32.0636
30.1287 31.9012
30.1748 32.01
30.2211 31.9631
30.2673 31.8188
30.3136 32.022
30.3597 31.6914
30.406 31.6961
30.4522 31.5968
30.4985 31.5466
30.5447 31.7377
30.591 31.6368
30.6372 31.7512
30.6835 31.772
30.7297 31.7909
30.7761 31.6724
30.8224 31.5612
30.8686 31.3964
30.915 31.1152
30.9612 31.0995
31.0076 30.774
31.0538 30.6349
31.1002 30.6217
31.1464 30.5104
31.1928 30.589
31.2391 30.4861
31.2855 30.4488
31.3317 30.4433
31.3781 30.5899
31.4244 30.4956
31.4708 30.398
31.5171 30.3517
31.5636 30.3793
31.6098 30.0507
31.6563 29.9181
31.7026 29.8035
31.7491 29.6575
31.7953 29.7057
31.8418 29.6549
31.8881 29.7371
31.9346 29.707
31.9809 29.7892
32.0275 29.5719
32.074 29.4346
32.1203 29.2528
32.1668 29.2241
32.2132 29.0491
32.2597 28.8624
32.306 28.7854
32.3526 28.6058
32.399 28.4472
32.4455 28.4523
32.4919 28.3014
32.5385 28.2722
32.5848 28.0611
32.6314 28.1033
32.6778 28.0572
32.7244 27.8219
32.7708 27.7834
32.8174 27.7255
32.8638 27.58
32.9104 27.6872
32.9569 27.6068
33.0035 27.5242
33.0499 27.5165
33.0966 27.47
33.143 27.4474
33.1897 27.3094
33.2361 27.1381
33.2828 27.2767
33.3293 27.0508
33.3759 27.071
33.4226 26.7836
33.4691 26.7526
33.5158 26.6714
33.5623 26.6369
33.609 26.4272
33.6555 26.2495
33.7022 26.2361
33.7487 26.2255
33.7954 26.1369
33.842 26.0167
33.8887 25.9976
33.9353 25.9745
33.982 25.7824
34.0286 25.7519
34.0753 25.5864
34.1219 25.5669
34.1687 25.5286
34.2152 25.4777
34.262 25.3351
34.3086 25.2277
34.3554 25.1403
34.402 25.0867
34.4488 24.9601
34.4954 24.8968
34.5422 24.8833
34.5889 24.6908
34.6357 24.6396
34.6825 24.571
34.7292 24.47
34.776 24.3957
34.8227 24.3782
34.8695 24.3147
34.9162 24.2906
34.9631 24.167
35.0098 24.1335
35.0566 24.0718
35.1033 23.9489
35.1502 24.0108
35.1969 23.88
35.2438 23.8682
35.2906 23.7602
35.3375 23.7903
35.3842 23.6861
35.4311 23.6918
35.4779 23.674
35.5248 23.5579
35.5716 23.5158
35.6185 23.3978
35.6653 23.3231
35.7123 23.2313
35.759 23.1785
35.806 23.072
35.8528 22.8978
35.8998 22.932
35.9468 22.8111
35.9936 22.7507
36.0406 22.6978
36.0874 22.7172
36.1345 22.6497
36.1813 22.5059
36.2283 22.4462
36.2752 22.3847
36.3222 22.3653
36.3691 22.3238
36.4161 22.1899
36.463 22.1803
36.5101 22.1461
36.557 22.0796
36.6041 21.8827
36.651 21.9478
36.6981 21.7611
36.745 21.7811
36.7921 21.6676
36.839 21.5943
36.8861 21.5336
36.9331 21.5035
36.9802 21.4101
37.0272 21.3184
37.0743 21.2124
37.1213 21.1717
37.1684 21.1026
37.2154 21.0714
37.2626 21.0371
37.3098 20.9567
37.3568 20.89
37.404 20.8165
37.451 20.7199
37.4982 20.7177
37.5452 20.5751
37.5924 20.5375
37.6395 20.5258
37.6867 20.4751
37.7337 20.3118
37.781 20.2803
37.8281 20.2263
37.8753 20.1772
37.9224 20.1461
37.9697 20.067
38.0168 19.8995
38.064 19.9124
38.1111 19.799
38.1584 19.7799
38.2056 19.6906
38.2529 19.7196
38.3 19.5834
38.3473 19.5501
38.3945 19.4407
38.4418 19.4554
38.489 19.3463
38.5363 19.2728
38.5837 19.2008
38.6309 19.1483
38.6782 19.0868
38.7254 18.9977
38.7728 19.0572
38.82 18.913
38.8674 18.8371
38.9146 18.8084
38.9621 18.7594
39.0093 18.6355
39.0567 18.6088
39.104 18.5402
39.1514 18.4997
39.1987 18.4334
39.2461 18.3844
39.2934 18.3886
39.3409 18.2368
39.3882 18.1135
39.4356 18.1657
39.483 18.0857
39.5304 17.9882
39.5778 18.0318
39.6253 17.863
39.6726 17.8731
39.7201 17.833
39.7675 17.7363
39.815 17.7512
39.8624 17.6248
39.9099 17.6265
39.9575 17.5346
40.0049 17.486
40.0525 17.4299
40.0999 17.3962
40.1474 17.3461
40.1949 17.2425
40.2425 17.2041
40.2899 17.1122
40.3375 17.0847
40.385 17.0167
40.4326 17.0159
40.48 16.8833
40.5277 16.9084
40.5752 16.776
40.6228 16.7817
40.6703 16.6965
40.718 16.6645
40.7655 16.6259
40.8132 16.5385
40.8607 16.5248
40.9084 16.4554
40.9559 16.405
41.0036 16.372
41.0512 16.3109
41.0989 16.2513
41.1465 16.2118
41.1942 16.2154
41.242 16.0944
41.2896 16.0245
41.3373 15.9396
41.3849 15.985
41.4327 15.8414
41.4803 15.7932
41.5281 15.7831
41.5758 15.7427
41.6236 15.6293
41.6712 15.6017
41.7191 15.5091
41.7667 15.5126
41.8146 15.4936
41.8622 15.4055
41.9101 15.4089
41.9578 15.2963
42.0057 15.263
42.0534 15.1659
42.1013 15.1753
42.149 15.1079
42.1969 15.0185
42.2446 15.0217
42.2925 14.9847
42.3403 14.8998
42.3882 14.8433
42.436 14.7656
42.4839 14.739
42.5319 14.7372
42.5797 14.6355
42.6277 14.6151
42.6755 14.5619
42.7235 14.4939
42.7713 14.447
42.8193 14.392
42.8671 14.3574
42.9152 14.2936
42.963 14.2378
43.0111 14.1706
43.0589 14.1461
43.107 14.0878
43.1549 14.1091
43.2029 13.9889
43.2508 13.9604
43.2989 13.9224
43.3468 13.8432
43.3949 13.7964
43.4429 13.7749
43.491 13.7165
43.5389 13.6709
43.5871 13.5739
43.635 13.5962
43.6832 13.5478
43.7312 13.4775
43.7793 13.4421
43.8273 13.3966
43.8755 13.313
43.9237 13.2956
43.9717 13.2469
44.0199 13.2093
44.068 13.1627
44.1162 13.0588
44.1642 13.1077
44.2125 13.0124
44.2606 13.037
44.3088 12.9106
44.3569 12.8632
44.4052 12.8392
44.4533 12.7983
44.5016 12.747
44.5497 12.6362
44.598 12.6519
44.6461 12.6143
44.6945 12.5673
44.7426 12.5572
44.791 12.4561
44.8391 12.4542
44.8875 12.3808
44.9357 12.3807
44.984 12.2796
45.0322 12.2957
45.0806 12.2053
45.1288 12.2044
45.1773 12.1575
45.2257 12.1185
45.2739 12.0757
45.3224 11.9703
45.3706 11.9747
45.4191 11.9297
45.4673 11.9371
45.5158 11.8539
45.5641 11.7935
45.6126 11.7693
45.6609 11.7046
45.7094 11.6952
45.7577 11.6494
45.8063 11.5945
45.8546 11.527
45.9031 11.4764
45.9515 11.4958
46.0001 11.4455
46.0484 11.4163
46.097 11.324
46.1454 11.3081
46.194 11.258
46.2424 11.2051
46.291 11.181
46.3395 11.1502
46.3881 11.0837
46.4365 11.084
46.4852 11.0067
46.5337 10.9553
46.5823 10.9406
46.631 10.8798
46.6795 10.8538
46.7282 10.8319
46.7767 10.7634
46.8254 10.684
46.8739 10.6856
46.9226 10.6868
46.9712 10.6237
47.0199 10.5629
47.0685 10.5655
47.1173 10.5106
47.1658 10.4463
47.2146 10.4445
47.2632 10.417
47.312 10.4002
47.3606 10.2972
47.4095 10.2295
47.4581 10.2844
47.5069 10.1785
47.5556 10.1438
47.6044 10.135
47.6531 10.0721
47.702 10.0236
47.7507 10.0404
47.7996 9.97512
47.8483 9.95026
47.8972 9.90276
47.9461 9.86906
47.9948 9.78398
48.0438 9.76872
48.0925 9.77223
48.1415 9.74529
48.1902 9.70247
48.2392 9.63901
48.288 9.65179
48.337 9.60148
48.3858 9.50916
48.4348 9.54367
48.4837 9.48422
48.5327 9.45532
48.5815 9.40923
48.6306 9.39411
48.6795 9.33863
48.7285 9.31492
48.7774 9.30769
48.8265 9.25919
48.8754 9.21957
48.9245 9.18164
48.9734 9.11768
49.0226 9.1139
49.0715 9.08437
49.1206 9.04018
49.1696 8.9659
49.2188 8.99139
49.2679 8.91555
49.3169 8.90094
49.3661 8.84984
49.4151 8.84605
49.4643 8.81655
49.5134 8.79579
49.5626 8.72823
49.6117 8.70033
49.6609 8.672
49.71 8.62649
49.7592 8.57735
49.8083 8.57944
49.8576 8.54949
49.9067 8.50364
49.956 8.45429
50.0052 8.42476
50.0545 8.43871
50.1036 8.32421
50.153 8.33704
50.2022 8.29176
50.2515 8.26585
50.3007 8.19638
50.3501 8.18744
50.3993 8.17103
50.4487 8.16865
50.498 8.12114
50.5474 8.10656
50.5966 8.03894
50.6461 8.01004
50.6955 7.9565
50.7448 7.98235
50.7943 7.93948
50.8436 7.88016
50.8931 7.86212
50.9424 7.82296
50.9919 7.79712
51.0413 7.80437
51.0908 7.75659
51.1402 7.69948
51.1897 7.66806
51.2391 7.65959
51.2887 7.6263
51.3381 7.57362
51.3877 7.56014
51.4371 7.51469
51.4867 7.4877
51.5362 7.45531
51.5858 7.45113
51.6353 7.42428
51.6849 7.35775
51.7344 7.3699
51.7841 7.31995
51.8336 7.30937
51.8833 7.24296
51.9328 7.24623
51.9826 7.15636
52.0323 7.16168
52.0818 7.15778
52.1316 7.09239
52.1812 7.09335
52.231 7.02967
52.2806 7.04075
52.3304 6.97623
52.38 6.98591
52.4298 6.93736
52.4794 6.85366
52.5293 6.86839
52.5789 6.84787
52.6288 6.82563
52.6785 6.79708
52.7284 6.73264
52.7781 6.73886
52.828 6.68756
52.8777 6.65846
52.9276 6.63676
52.9774 6.62577
53.0273 6.58539
53.0771 6.55677
53.1271 6.56605
53.1769 6.50452
53.2269 6.47503
53.2767 6.45276
53.3267 6.44984
53.3765 6.42433
53.4266 6.39055
53.4766 6.35042
53.5265 6.30196
53.5765 6.27793
53.6264 6.26026
53.6765 6.26231
53.7264 6.17744
53.7765 6.17791
53.8265 6.13869
53.8766 6.12312
53.9266 6.06282
53.9767 6.06963
54.0267 6.02861
54.0769 6.01606
54.1269 5.96306
54.1771 5.90427
54.2271 5.92556
54.2773 5.87881
54.3274 5.89172
54.3776 5.80453
54.4277 5.80482
54.478 5.76412
54.528 5.75622
54.5783 5.70208
54.6285 5.66649
54.6788 5.62375
54.7289 5.57583
54.7792 5.55562
54.8296 5.45357
54.8798 5.49117
54.9301 5.38845
54.9803 5.40795
55.0307 5.31288
55.0809 5.30965
55.1314 5.28874
55.1816 5.21761
55.232 5.16129
55.2823 5.13694
55.3328 5.07437
55.383 5.08191
55.4335 5.06083
55.4838 4.983
55.5344 4.89329
55.5847 4.84798
55.6352 4.80801
55.6856 4.83374
55.7361 4.72695