File: XRD/Ni3Fe_FD0546.xy
TT I
1.27165 7.93816
1.31627 6.1384
1.36089 6.38749
1.40551 6.37647
1.45013 6.37053
1.49476 6.26233
1.53938 6.1318
1.584 5.49939
1.62863 5.61346
1.67325 5.01876
1.71787 5.11632
1.7625 5.31529
1.80712 4.95067
1.85174 4.45129
1.89636 4.80771
1.94099 5.05594
1.98562 4.45576
2.03025 5.10881
2.07487 5.02208
2.11949 4.76917
2.16411 5.1328
2.20874 14.4476
2.25338 22.0044
2.298 5.72448
2.34263 5.38732
2.38725 6.10103
2.43188 6.15953
2.4765 6.70856
2.52115 6.59998
2.56577 7.46934
2.6104 8.08463
2.65503 7.66579
2.69965 7.76065
2.7443 8.40511
2.78893 8.44811
2.83356 7.88719
2.87818 9.02012
2.92281 8.85488
2.96744 9.55935
3.01209 10.3031
3.05672 10.9966
3.10135 13.3604
3.14599 13.3607
3.19062 14.7544
3.23527 14.9565
3.2799 16.1744
3.32454 16.8695
3.36917 18.2539
3.4138 19.5624
3.45844 19.4838
3.50309 21.0148
3.54773 22.0841
3.59237 24.2697
3.637 92.6479
3.68164 58.7822
3.7263 26.355
3.77094 26.6154
3.81558 26.9751
3.86022 27.6527
3.90486 29.407
3.9495 30.1856
3.99416 31.2494
4.0388 32.5764
4.08344 33.6464
4.12809 34.886
4.17273 37.5372
4.21738 43.2732
4.26204 246.808
4.30669 215.52
4.35133 48.7673
4.39598 44.4503
4.44063 54.2201
4.4853 65.6117
4.52995 50.918
4.5746 50.9713
4.61925 53.7181
4.6639 56.3188
4.70855 58.1783
4.75322 61.2778
4.79788 64.1317
4.84253 67.6808
4.88719 71.6601
4.93184 75.8381
4.97652 81.5934
5.02118 87.7722
5.06583 96.2186
5.11049 108.109
5.15515 178.491
5.19981 374.712
5.24449 2940.84
5.28916 12343.4
5.33382 3168.45
5.37848 199.575
5.42315 131.248
5.46783 114.011
5.5125 106.548
5.55716 102.749
5.60183 99.5302
5.6465 97.5371
5.69117 95.1552
5.73586 93.0106
5.78053 92.1503
5.8252 92.1037
5.86988 92.587
5.91455 96.1403
5.95924 104.415
6.00392 216.235
6.0486 1003.91
6.09328 4333.72
6.13795 3359.21
6.18263 259.132
6.22733 94.843
6.27201 83.69
6.3167 102.835
6.36138 81.2327
6.40606 69.7781
6.45075 67.9713
6.49545 66.025
6.54014 64.2574
6.58483 63.1244
6.62952 63.2641
6.67421 94.4257
6.71892 143.838
6.76361 69.2038
6.8083 59.0019
6.853 57.9038
6.89769 57.1649
6.94239 57.3176
6.98711 56.2446
7.03181 56.0043
7.07651 55.1444
7.12121 55.6735
7.16591 55.8309
7.21063 56.0983
7.25533 69.9913
7.30004 179.519
7.34475 92.4819
7.38945 57.0681
7.43416 54.8006
7.47889 54.8218
7.5236 55.4882
7.56831 55.9091
7.61303 57.1904
7.65774 57.8575
7.70247 56.7412
7.74719 56.6392
7.79191 56.9729
7.83663 57.2277
7.88135 58.1821
7.92607 58.8259
7.97081 60.3693
8.01553 61.2366
8.06026 62.9259
8.10498 64.4917
8.14971 74.0155
8.19446 72.9799
8.23919 70.149
8.28392 72.3438
8.32865 74.6397
8.37339 79.2248
8.41812 86.3638
8.46288 115.682
8.50761 167.774
8.55235 399.667
8.59709 1184.33
8.64183 2201.45
8.68658 961.72
8.73134 169.048
8.77609 100.664
8.82083 93.3022
8.86558 90.0242
8.91033 90.0092
8.9551 92.4137
8.99985 85.5361
9.04461 83.9283
9.08936 83.2448
9.13412 82.6004
9.17888 82.6224
9.22365 83.7088
9.26841 82.4773
9.31318 83.1679
9.35794 83.0408
9.4027 83.3657
9.44749 84.5319
9.49226 85.0193
9.53703 86.098
9.5818 87.4319
9.62657 92.4817
9.67134 99.4697
9.71614 94.5374
9.76091 94.3884
9.80569 97.1241
9.85047 100.725
9.89525 124.923
9.94005 137.735
9.98484 179.503
10.0296 350.871
10.0744 811.45
10.1192 1703.24
10.164 1621.56
10.2088 400.934
10.2536 127.475
10.2984 114.157
10.3432 115.577
10.388 105.636
10.4328 119.632
10.4776 163.879
10.5224 286.606
10.5672 517.996
10.612 515.77
10.6568 196.981
10.7017 96.0137
10.7465 86.5291
10.7913 83.6213
10.8361 81.774
10.8809 79.4915
10.9257 79.0796
10.9706 79.3677
11.0154 75.3775
11.0602 73.1252
11.105 72.2517
11.1499 76.5214
11.1947 83.7886
11.2395 74.9716
11.2844 70.7843
11.3292 67.8737
11.374 66.4558
11.4189 66.0319
11.4637 65.2862
11.5086 65.8499
11.5534 68.4135
11.5983 65.8431
11.6431 63.8061
11.688 63.4051
11.7328 63.3227
11.7777 63.2964
11.8225 62.8655
11.8674 62.423
11.9122 63.1209
11.9571 63.6161
12.002 64.1113
12.0468 67.9014
12.0917 80.1958
12.1366 103.823
12.1814 152.083
12.2263 206.017
12.2712 166.946
12.3161 96.1765
12.3609 70.8284
12.4058 65.0027
12.4507 64.6258
12.4956 64.4934
12.5405 64.9707
12.5853 65.9621
12.6302 73.5924
12.6751 79.1911
12.72 70.5422
12.7649 68.4296
12.8098 69.1086
12.8547 70.2709
12.8996 71.5349
12.9445 72.7317
12.9894 74.6028
13.0343 76.3216
13.0792 79.488
13.1242 88.8754
13.1691 113.636
13.214 150.939
13.2589 238.866
13.3038 369.642
13.3487 434.22
13.3937 266.755
13.4386 124.249
13.4835 106.245
13.5285 121.988
13.5734 160.162
13.6183 248.161
13.6633 352.07
13.7082 344.058
13.7531 188.023
13.7981 97.8352
13.843 82.4233
13.888 80.2384
13.9329 77.6963
13.9779 76.2374
14.0228 74.6641
14.0678 73.4105
14.1127 72.8472
14.1577 72.9299
14.2027 72.0438
14.2476 71.0456
14.2926 71.0901
14.3376 72.1014
14.3825 70.6994
14.4275 69.2704
14.4725 68.9773
14.5175 69.5301
14.5624 69.8114
14.6074 71.6651
14.6524 72.3681
14.6974 70.9138
14.7424 72.3493
14.7874 79.6481
14.8324 90.1272
14.8774 111.943
14.9224 153.502
14.9674 209.512
15.0124 220.262
15.0574 149.432
15.1024 90.5554
15.1474 72.813
15.1924 70.8062
15.2374 71.4976
15.2824 70.9565
15.3274 68.7141
15.3725 67.3349
15.4175 66.8102
15.4625 66.3234
15.5076 66.6662
15.5526 66.8538
15.5976 66.2078
15.6426 67.2843
15.6877 72.7476
15.7327 80.6472
15.7778 95.9757
15.8228 126.669
15.8679 170.928
15.9129 196.295
15.958 155.734
16.003 96.355
16.0481 68.0582
16.0931 65.1541
16.1382 63.2825
16.1833 60.9299
16.2283 59.3235
16.2734 58.8299
16.3185 59.2381
16.3636 59.7597
16.4086 58.1219
16.4537 56.6656
16.4988 55.7934
16.5439 55.8502
16.589 55.6776
16.6341 55.0358
16.6792 54.8592
16.7243 55.3615
16.7694 55.3159
16.8145 55.249
16.8596 55.6773
16.9047 57.1286
16.9498 57.6083
16.9949 56.2386
17.04 56.1527
17.0851 57.5555
17.1302 59.073
17.1754 62.2907
17.2205 67.2664
17.2656 74.689
17.3108 83.304
17.3559 82.6822
17.401 71.5623
17.4462 62.4794
17.4913 59.4874
17.5365 59.5265
17.5815 59.7002
17.6268 59.9016
17.6718 60.8119
17.7171 61.3803
17.7622 61.7598
17.8074 62.3348
17.8525 64.6278
17.8977 69.104
17.9428 74.5628
17.9881 83.0368
18.0331 100.005
18.0784 122.125
18.1237 141.974
18.1688 132.778
18.214 103.683
18.2591 86.4442
18.3044 90.9768
18.3495 101.439
18.3948 108.013
18.4399 97.2951
18.4852 78.1533
18.5303 66.5627
18.5756 62.5331
18.6207 61.7389
18.666 60.9071
18.7112 59.8216
18.7565 59.3572
18.8016 59.0887
18.8469 58.462
18.892 58.2076
18.9374 57.786
18.9825 57.4821
19.0278 57.1698
19.073 57.3506
19.1183 57.8074
19.1635 58.7507
19.2088 60.0252
19.254 62.3286
19.2993 67.1572
19.3447 73.166
19.3898 77.1407
19.4352 72.9071
19.4804 63.6117
19.5257 56.8749
19.5709 54.4582
19.6163 54.3884
19.6615 54.1227
19.7068 53.6246
19.752 53.6296
19.7974 53.9495
19.8426 54.9996
19.888 55.4759
19.9332 56.5779
19.9786 59.1227
20.0238 62.7393
20.0692 67.6295
20.1144 70.8734
20.1598 68.9746
20.205 63.9271
20.2504 62.438
20.2957 64.3983
20.3411 66.6385
20.3863 64.8834
20.4318 58.9014
20.477 53.996
20.5224 51.8647
20.5677 51.3375
20.6131 50.5661
20.6586 50.0242
20.7038 49.9049
20.7493 49.695
20.7945 49.5104
20.84 49.2844
20.8853 49.0184
20.9307 48.9581
20.976 49.064
21.0215 48.8829
21.0668 49.4791
21.1122 49.914
21.1575 50.4607
21.203 51.3468
21.2483 51.9453
21.2938 51.7064
21.3391 50.2906
21.3846 49.2429
21.4299 48.7358
21.4754 48.6349
21.5207 48.6512
21.5662 49.0634
21.6116 49.5684
21.6571 50.2474
21.7024 51.3874
21.7479 52.9524
21.7933 55.6165
21.8388 59.2489
21.8843 63.1496
21.9297 65.2415
21.9752 63.7418
22.0206 60.0315
22.0661 56.8411
22.1115 56.5649
22.157 56.3592
22.2024 54.6024
22.248 51.7891
22.2933 50.3403
22.3389 49.5058
22.3843 49.5381
22.4299 49.1714
22.4753 49.3147
22.5208 48.8704
22.5662 48.821
22.6118 49.0085
22.6572 49.2081
22.7028 49.6779
22.7483 50.0021
22.7939 50.8049
22.8393 52.2534
22.8849 54.4483
22.9303 56.6089
22.9759 58.3629
23.0214 58.0903
23.067 54.9027
23.1126 51.343
23.1581 49.5944
23.2037 49.1181
23.2492 49.1429
23.2948 49.1314
23.3403 49.6243
23.3859 50.0185
23.4314 51.0728
23.477 53.0663
23.5225 55.2004
23.5682 57.7272
23.6137 58.6418
23.6593 56.1093
23.7048 51.9105
23.7505 48.4581
23.796 47.0401
23.8417 46.4023
23.8872 45.8956
23.9329 45.5734
23.9784 45.2171
24.0241 45.0789
24.0697 44.7182
24.1154 44.4771
24.1609 44.4649
24.2066 44.1579
24.2522 43.8656
24.2979 43.8879
24.3434 43.6784
24.3892 43.481
24.4349 43.4112
24.4805 43.3187
24.5262 43.4355
24.5718 43.3887
24.6175 43.2554
24.6631 43.2333
24.7089 42.7913
24.7545 42.5964
24.8002 42.5833
24.8458 42.6233
24.8916 42.2831
24.9372 42.5238
24.983 43.0093
25.0286 43.2214
25.0744 43.7255
25.12 44.1084
25.1658 44.8034
25.2114 44.9062
25.2572 45.0418
25.3029 45.2414
25.3487 45.291
25.3943 44.9663
25.4402 43.8309
25.4858 42.8529
25.5316 41.8625
25.5773 41.1851
25.6231 41.1634
25.669 40.9121
25.7147 40.8895
25.7605 40.7744
25.8062 40.8648
25.8521 40.994
25.8977 40.8095
25.9436 41.2185
25.9893 41.2433
26.0352 41.8371
26.0809 41.9805
26.1268 42.0857
26.1725 41.629
26.2184 41.0641
26.2641 40.5745
26.31 40.3921
26.3557 40.5545
26.4017 40.4759
26.4474 40.7799
26.4933 41.099
26.5391 41.5886
26.585 42.1534
26.6308 42.3875
26.6767 42.57
26.7225 42.4135
26.7684 41.7366
26.8142 41.1625
26.8601 40.7072
26.9059 40.2752
26.9519 39.9512
26.9979 39.5594
27.0437 39.1346
27.0896 39.0838
27.1354 39.0775
27.1814 38.9677
27.2272 38.8425
27.2732 38.9225
27.3191 38.5671
27.3651 38.7944
27.4109 38.6392
27.4569 38.7133
27.5027 38.8944
27.5488 38.8589
27.5946 38.6613
27.6407 38.5004
27.6865 38.3577
27.7326 38.1331
27.7784 38.2819
27.8245 38.0358
27.8703 38.3366
27.9164 38.6038
27.9623 38.7226
28.0084 39.1096
28.0543 39.3509
28.1003 39.3753
28.1462 39.1892
28.1923 38.7911
28.2384 38.3136
28.2843 37.7916
28.3304 37.4413
28.3764 37.063
28.4225 36.7589
28.4684 36.6515
28.5145 36.2242
28.5605 36.143
28.6066 35.9978
28.6526 35.9271
28.6987 36.0007
28.7447 35.7067
28.7908 35.6438
28.8368 35.7284
28.8829 35.7274
28.9289 35.5922
28.9751 35.4364
29.0211 35.2722
29.0673 34.8673
29.1133 34.7947
29.1595 34.6586
29.2055 34.683
29.2517 34.6106
29.2977 34.6278
29.3439 34.6245
29.3899 34.5465
29.4361 34.4748
29.4824 34.3121
29.5284 33.9434
29.5746 33.6971
29.6207 33.4203
29.6669 33.366
29.713 33.3805
29.7593 33.1653
29.8053 33.1606
29.8516 32.9996
29.8977 32.9521
29.9439 32.8896
29.99 32.8501
30.0363 32.7138
30.0824 32.7011
30.1287 32.6793
30.1748 32.6576
30.2211 32.8
30.2673 32.4839
30.3136 32.6624
30.3597 32.4763
30.406 32.3619
30.4522 32.372
30.4985 32.3553
30.5447 32.3565
30.591 32.3918
30.6372 32.4509
30.6835 32.5082
30.7297 32.6015
30.7761 32.4569
30.8224 32.2073
30.8686 32.0384
30.915 31.8432
30.9612 31.7645
31.0076 31.5816
31.0538 31.4922
31.1002 31.3389
31.1464 31.2433
31.1928 31.2185
31.2391 31.1742
31.2855 31.0735
31.3317 31.0527
31.3781 31.1814
31.4244 31.0539
31.4708 31.1036
31.5171 31.1002
31.5636 30.9785
31.6098 30.7941
31.6563 30.735
31.7026 30.4677
31.7491 30.4353
31.7953 30.3441
31.8418 30.3555
31.8881 30.4593
31.9346 30.3685
31.9809 30.2676
32.0275 30.1656
32.074 30.0576
32.1203 29.8295
32.1668 29.7224
32.2132 29.6058
32.2597 29.4576
32.306 29.4536
32.3526 29.1488
32.399 29.1418
32.4455 29.0858
32.4919 28.9383
32.5385 28.8955
32.5848 28.7318
32.6314 28.7656
32.6778 28.6741
32.7244 28.5502
32.7708 28.4733
32.8174 28.3333
32.8638 28.2687
32.9104 28.3236
32.9569 28.2012
33.0035 28.1078
33.0499 28.128
33.0966 28.0693
33.143 28.0698
33.1897 28.0083
33.2361 27.8719
33.2828 27.8
33.3293 27.6318
33.3759 27.5552
33.4226 27.4376
33.4691 27.3197
33.5158 27.2565
33.5623 27.1072
33.609 26.887
33.6555 26.8956
33.7022 26.8329
33.7487 26.7858
33.7954 26.6811
33.842 26.5908
33.8887 26.5107
33.9353 26.454
33.982 26.3176
34.0286 26.3151
34.0753 26.2212
34.1219 26.0743
34.1687 26.1202
34.2152 26.0726
34.262 25.908
34.3086 25.7688
34.3554 25.6978
34.402 25.58
34.4488 25.4466
34.4954 25.4268
34.5422 25.3485
34.5889 25.218
34.6357 25.1475
34.6825 25.1328
34.7292 25.0578
34.776 24.9422
34.8227 24.8911
34.8695 24.8436
34.9162 24.7571
34.9631 24.6981
35.0098 24.6821
35.0566 24.5248
35.1033 24.4766
35.1502 24.4822
35.1969 24.4167
35.2438 24.3676
35.2906 24.3037
35.3375 24.2475
35.3842 24.1726
35.4311 24.1506
35.4779 24.1911
35.5248 24.0583
35.5716 23.9086
35.6185 23.8383
35.6653 23.8767
35.7123 23.7065
35.759 23.5832
35.806 23.5001
35.8528 23.4564
35.8998 23.426
35.9468 23.2341
35.9936 23.2533
36.0406 23.2245
36.0874 23.1255
36.1345 23.086
36.1813 23.0598
36.2283 22.9078
36.2752 22.8038
36.3222 22.8428
36.3691 22.8111
36.4161 22.6182
36.463 22.6497
36.5101 22.606
36.557 22.5583
36.6041 22.3091
36.651 22.4165
36.6981 22.288
36.745 22.1881
36.7921 22.1799
36.839 22.0432
36.8861 21.9716
36.9331 21.9421
36.9802 21.848
37.0272 21.7934
37.0743 21.67
37.1213 21.6595
37.1684 21.6415
37.2154 21.5373
37.2626 21.3806
37.3098 21.408
37.3568 21.3869
37.404 21.2594
37.451 21.1403
37.4982 21.1103
37.5452 21.0273
37.5924 20.9705
37.6395 20.9938
37.6867 20.898
37.7337 20.8113
37.781 20.6764
37.8281 20.6493
37.8753 20.433
37.9224 20.4926
37.9697 20.4576
38.0168 20.342
38.064 20.2583
38.1111 20.2449
38.1584 20.1938
38.2056 20.1269
38.2529 20.0623
38.3 19.9972
38.3473 19.9795
38.3945 19.8538
38.4418 19.763
38.489 19.845
38.5363 19.6816
38.5837 19.6454
38.6309 19.5773
38.6782 19.4946
38.7254 19.3523
38.7728 19.3516
38.82 19.3281
38.8674 19.2761
38.9146 19.2074
38.9621 19.148
39.0093 19.0265
39.0567 18.9932
39.104 18.952
39.1514 18.8944
39.1987 18.8786
39.2461 18.7926
39.2934 18.7244
39.3409 18.6343
39.3882 18.5969
39.4356 18.5038
39.483 18.4481
39.5304 18.3834
39.5778 18.4029
39.6253 18.2579
39.6726 18.1662
39.7201 18.1836
39.7675 18.1597
39.815 18.1247
39.8624 18.0068
39.9099 18.017
39.9575 17.892
40.0049 17.8317
40.0525 17.8153
40.0999 17.6839
40.1474 17.7038
40.1949 17.5338
40.2425 17.602
40.2899 17.5408
40.3375 17.4573
40.385 17.3854
40.4326 17.3243
40.48 17.2779
40.5277 17.2405
40.5752 17.1642
40.6228 17.0664
40.6703 17.0568
40.718 17.0305
40.7655 16.9588
40.8132 16.9164
40.8607 16.8781
40.9084 16.8178
40.9559 16.7678
41.0036 16.7053
41.0512 16.6626
41.0989 16.5795
41.1465 16.5478
41.1942 16.5155
41.242 16.3671
41.2896 16.3849
41.3373 16.3238
41.3849 16.2363
41.4327 16.1824
41.4803 16.1236
41.5281 16.1143
41.5758 16.0065
41.6236 15.9698
41.6712 15.8845
41.7191 15.8334
41.7667 15.7889
41.8146 15.7653
41.8622 15.7362
41.9101 15.6777
41.9578 15.5624
42.0057 15.5557
42.0534 15.53
42.1013 15.4913
42.149 15.4081
42.1969 15.3799
42.2446 15.3386
42.2925 15.2553
42.3403 15.198
42.3882 15.1436
42.436 15.1314
42.4839 15.0576
42.5319 15.008
42.5797 14.9141
42.6277 14.8657
42.6755 14.8686
42.7235 14.7421
42.7713 14.7638
42.8193 14.6354
42.8671 14.63
42.9152 14.6635
42.963 14.5482
43.0111 14.4586
43.0589 14.4237
43.107 14.3851
43.1549 14.3418
43.2029 14.2422
43.2508 14.2721
43.2989 14.1504
43.3468 14.1282
43.3949 14.1188
43.4429 14.0604
43.491 14.0217
43.5389 13.9196
43.5871 13.9157
43.635 13.8725
43.6832 13.7843
43.7312 13.7625
43.7793 13.6907
43.8273 13.6707
43.8755 13.6271
43.9237 13.5515
43.9717 13.5265
44.0199 13.4857
44.068 13.4104
44.1162 13.3493
44.1642 13.3381
44.2125 13.2984
44.2606 13.2671
44.3088 13.1943
44.3569 13.1549
44.4052 13.0935
44.4533 13.0121
44.5016 12.9953
44.5497 12.973
44.598 12.9171
44.6461 12.8749
44.6945 12.8157
44.7426 12.7677
44.791 12.7374
44.8391 12.7714
44.8875 12.6316
44.9357 12.6129
44.984 12.5513
45.0322 12.4614
45.0806 12.4434
45.1288 12.4073
45.1773 12.4086
45.2257 12.3022
45.2739 12.2982
45.3224 12.2372
45.3706 12.2333
45.4191 12.1283
45.4673 12.128
45.5158 12.121
45.5641 12.035
45.6126 12.0049
45.6609 11.8915
45.7094 11.8784
45.7577 11.883
45.8063 11.8046
45.8546 11.8406
45.9031 11.7083
45.9515 11.6557
46.0001 11.6798
46.0484 11.639
46.097 11.5757
46.1454 11.5801
46.194 11.4776
46.2424 11.4363
46.291 11.3722
46.3395 11.3682
46.3881 11.3103
46.4365 11.3036
46.4852 11.2775
46.5337 11.2068
46.5823 11.1755
46.631 11.1039
46.6795 11.0993
46.7282 11.0743
46.7767 10.9755
46.8254 10.9558
46.8739 10.9004
46.9226 10.85
46.9712 10.8251
47.0199 10.804
47.0685 10.788
47.1173 10.6904
47.1658 10.6721
47.2146 10.6549
47.2632 10.5761
47.312 10.6093
47.3606 10.4895
47.4095 10.4903
47.4581 10.486
47.5069 10.4317
47.5556 10.3317
47.6044 10.2974
47.6531 10.2634
47.702 10.2392
47.7507 10.2296
47.7996 10.1219
47.8483 10.1636
47.8972 10.122
47.9461 10.121
47.9948 10.0254
48.0438 9.99249
48.0925 9.96086
48.1415 9.91465
48.1902 9.84856
48.2392 9.87813
48.288 9.84885
48.337 9.79061
48.3858 9.70062
48.4348 9.74032
48.4837 9.69144
48.5327 9.67048
48.5815 9.63232
48.6306 9.57017
48.6795 9.56154
48.7285 9.52044
48.7774 9.49635
48.8265 9.49338
48.8754 9.41387
48.9245 9.40198
48.9734 9.33514
49.0226 9.3062
49.0715 9.26059
49.1206 9.18819
49.1696 9.19375
49.2188 9.14002
49.2679 9.10042
49.3169 9.05405
49.3661 9.05358
49.4151 9.02255
49.4643 8.98772
49.5134 8.9523
49.5626 8.86781
49.6117 8.89062
49.6609 8.83422
49.71 8.76188
49.7592 8.74534
49.8083 8.72908
49.8576 8.74596
49.9067 8.61518
49.956 8.6613
50.0052 8.61334
50.0545 8.58981
50.1036 8.55511
50.153 8.50936
50.2022 8.492
50.2515 8.44847
50.3007 8.37654
50.3501 8.36722
50.3993 8.35604
50.4487 8.31459
50.498 8.25978
50.5474 8.26567
50.5966 8.20074
50.6461 8.19541
50.6955 8.1659
50.7448 8.13393
50.7943 8.08614
50.8436 8.06036
50.8931 8.05946
50.9424 7.97029
50.9919 7.97412
51.0413 7.9204
51.0908 7.90952
51.1402 7.86331
51.1897 7.85429
51.2391 7.79085
51.2887 7.76498
51.3381 7.74649
51.3877 7.69306
51.4371 7.68287
51.4867 7.63291
51.5362 7.62458
51.5858 7.60061
51.6353 7.54607
51.6849 7.51574
51.7344 7.48688
51.7841 7.45907
51.8336 7.43701
51.8833 7.40116
51.9328 7.37052
51.9826 7.35842
52.0323 7.26975
52.0818 7.29213
52.1316 7.19804
52.1812 7.223
52.231 7.19965
52.2806 7.17937
52.3304 7.09773
52.38 7.11633
52.4298 7.06127
52.4794 7.03263
52.5293 6.99778
52.5789 6.97434
52.6288 6.92953
52.6785 6.88874
52.7284 6.90707
52.7781 6.87055
52.828 6.83145
52.8777 6.78394
52.9276 6.77907
52.9774 6.76525
53.0273 6.70859
53.0771 6.69718
53.1271 6.69473
53.1769 6.67378
53.2269 6.58739
53.2767 6.56981
53.3267 6.53754
53.3765 6.53492
53.4266 6.53385
53.4766 6.49457
53.5265 6.45616
53.5765 6.38751
53.6264 6.39882
53.6765 6.36267
53.7264 6.35097
53.7765 6.27907
53.8265 6.28019
53.8766 6.24014
53.9266 6.2431
53.9767 6.17458
54.0267 6.16065
54.0769 6.16672
54.1269 6.14267
54.1771 6.08044
54.2271 6.02745
54.2773 5.98245
54.3274 5.98894
54.3776 5.94901
54.4277 5.87376
54.478 5.90179
54.528 5.83977
54.5783 5.79893
54.6285 5.75571
54.6788 5.72837
54.7289 5.70097
54.7792 5.64137
54.8296 5.58208
54.8798 5.56399
54.9301 5.53326
54.9803 5.47093
55.0307 5.48811
55.0809 5.44976
55.1314 5.42963
55.1816 5.30393
55.232 5.31358
55.2823 5.31218
55.3328 5.17263
55.383 5.12234
55.4335 5.07799
55.4838 5.04465
55.5344 4.9995
55.5847 4.95201
55.6352 4.96272
55.6856 4.91004
55.7361 4.85294