File: XRD/Ni3Fe_FD0849.xy
TT I
1.27165 7.4485
1.31627 6.54942
1.36089 7.07141
1.40551 6.13025
1.45013 5.6951
1.49476 5.88608
1.53938 5.95602
1.584 5.57228
1.62863 5.12855
1.67325 5.08859
1.71787 4.83633
1.7625 5.288
1.80712 4.97091
1.85174 4.6311
1.89636 4.7943
1.94099 4.75715
1.98562 5.12392
2.03025 5.09383
2.07487 4.50084
2.11949 4.91576
2.16411 4.86852
2.20874 13.1653
2.25338 21.009
2.298 6.30869
2.34263 5.77423
2.38725 6.32251
2.43188 6.61073
2.4765 6.285
2.52115 7.62449
2.56577 7.78912
2.6104 8.13524
2.65503 8.258
2.69965 8.27135
2.7443 8.57689
2.78893 8.1766
2.83356 8.66484
2.87818 8.70384
2.92281 8.92008
2.96744 9.89297
3.01209 10.5559
3.05672 11.4937
3.10135 12.3992
3.14599 13.2912
3.19062 14.1337
3.23527 14.9628
3.2799 16.2306
3.32454 16.8637
3.36917 17.6618
3.4138 18.7022
3.45844 19.5237
3.50309 20.7519
3.54773 21.8552
3.59237 23.5663
3.637 85.1336
3.68164 55.5824
3.7263 25.8101
3.77094 25.9326
3.81558 26.1481
3.86022 27.2919
3.90486 28.8535
3.9495 29.5203
3.99416 30.8818
4.0388 31.8274
4.08344 33.1619
4.12809 34.4678
4.17273 37.0718
4.21738 42.8478
4.26204 225.397
4.30669 198.031
4.35133 47.4228
4.39598 44.4115
4.44063 52.8141
4.4853 63.1656
4.52995 49.6589
4.5746 50.776
4.61925 52.7376
4.6639 54.2488
4.70855 57.7154
4.75322 60.3483
4.79788 63.36
4.84253 66.567
4.88719 70.052
4.93184 74.285
4.97652 79.4673
5.02118 85.1429
5.06583 92.2815
5.11049 102.776
5.15515 161.974
5.19981 301.232
5.24449 2534.04
5.28916 12333.1
5.33382 2658.58
5.37848 177.428
5.42315 125.488
5.46783 110.744
5.5125 104.215
5.55716 100.286
5.60183 97.0784
5.6465 95.0723
5.69117 93.1298
5.73586 90.757
5.78053 90.6792
5.8252 89.5466
5.86988 90.1832
5.91455 91.8624
5.95924 98.0836
6.00392 180.334
6.0486 868.695
6.09328 4421.84
6.13795 3174.39
6.18263 226.133
6.22733 90.5198
6.27201 81.4202
6.3167 98.0319
6.36138 78.7835
6.40606 67.9008
6.45075 66.6414
6.49545 64.786
6.54014 62.7153
6.58483 62.1209
6.62952 61.9745
6.67421 90.2149
6.71892 133.01
6.76361 67.1902
6.8083 57.9361
6.853 56.8153
6.89769 56.6233
6.94239 55.8417
6.98711 55.5941
7.03181 55.0318
7.07651 54.3887
7.12121 54.6264
7.16591 54.8916
7.21063 54.952
7.25533 69.2629
7.30004 162.523
7.34475 86.3494
7.38945 55.8457
7.43416 53.9976
7.47889 54.0132
7.5236 54.25
7.56831 54.6302
7.61303 56.1103
7.65774 56.8327
7.70247 55.568
7.74719 55.461
7.79191 55.8654
7.83663 56.3401
7.88135 57.2998
7.92607 57.8812
7.97081 59.0019
8.01553 59.8461
8.06026 61.7008
8.10498 63.3337
8.14971 71.904
8.19446 70.895
8.23919 68.2528
8.28392 70.9686
8.32865 72.9579
8.37339 76.9066
8.41812 83.9844
8.46288 109.223
8.50761 148.872
8.55235 348.655
8.59709 1156.89
8.64183 2248.73
8.68658 926.948
8.73134 169.704
8.77609 97.4956
8.82083 91.1083
8.86558 88.2419
8.91033 88.3567
8.9551 90.0097
8.99985 84.3037
9.04461 82.4965
9.08936 82.0878
9.13412 81.0908
9.17888 81.2657
9.22365 81.8123
9.26841 80.896
9.31318 81.8042
9.35794 81.4843
9.4027 81.8509
9.44749 83.2098
9.49226 83.5344
9.53703 84.7034
9.5818 86.2194
9.62657 90.7004
9.67134 96.6806
9.71614 92.4634
9.76091 92.7368
9.80569 95.1005
9.85047 98.2866
9.89525 120.349
9.94005 130.902
9.98484 160.087
10.0296 315.2
10.0744 793.547
10.1192 1756.33
10.164 1559.63
10.2088 395.973
10.2536 124.113
10.2984 111.012
10.3432 112.106
10.388 102.624
10.4328 113.181
10.4776 152.853
10.5224 281.209
10.5672 533.943
10.612 509.187
10.6568 200.662
10.7017 96.343
10.7465 85.2882
10.7913 82.114
10.8361 80.1914
10.8809 77.8873
10.9257 77.5544
10.9706 77.864
11.0154 73.6907
11.0602 72.0342
11.105 70.9083
11.1499 74.8052
11.1947 81.2465
11.2395 72.9136
11.2844 69.4304
11.3292 66.3856
11.374 65.3481
11.4189 64.4493
11.4637 64.2425
11.5086 64.4357
11.5534 67.3221
11.5983 64.3444
11.6431 62.8861
11.688 61.9861
11.7328 62.2227
11.7777 62.3065
11.8225 61.7317
11.8674 61.5113
11.9122 62.0345
11.9571 61.8727
12.002 62.764
12.0468 65.8665
12.0917 75.8387
12.1366 99.6369
12.1814 154.041
12.2263 212.238
12.2712 167.743
12.3161 93.944
12.3609 69.2085
12.4058 63.6782
12.4507 63.179
12.4956 63.6796
12.5405 63.6677
12.5853 64.6113
12.6302 71.67
12.6751 76.0267
12.72 68.8486
12.7649 66.87
12.8098 67.4089
12.8547 68.4383
12.8996 70.0651
12.9445 71.1414
12.9894 72.9249
13.0343 74.355
13.0792 77.5879
13.1242 84.8438
13.1691 106.385
13.214 142.275
13.2589 236.271
13.3038 377.358
13.3487 416.479
13.3937 255.254
13.4386 121.569
13.4835 101.579
13.5285 115.138
13.5734 154.662
13.6183 252.123
13.6633 361.286
13.7082 334.448
13.7531 181.964
13.7981 96.0434
13.843 80.4988
13.888 78.5656
13.9329 75.8495
13.9779 74.9294
14.0228 73.3614
14.0678 72.1383
14.1127 71.9279
14.1577 71.319
14.2027 70.808
14.2476 69.4223
14.2926 69.7836
14.3376 70.47
14.3825 69.1901
14.4275 68.0146
14.4725 67.8638
14.5175 67.9805
14.5624 68.0282
14.6074 70.1762
14.6524 70.4752
14.6974 69.1335
14.7424 70.6477
14.7874 76.1521
14.8324 85.4729
14.8774 107.481
14.9224 154.091
14.9674 213.557
15.0124 218.237
15.0574 147.34
15.1024 90.0707
15.1474 71.5496
15.1924 69.5494
15.2374 69.8097
15.2824 69.1106
15.3274 67.0101
15.3725 65.9777
15.4175 65.7467
15.4625 65.1924
15.5076 65.4061
15.5526 65.5
15.5976 64.8214
15.6426 65.5031
15.6877 69.9802
15.7327 77.0393
15.7778 92.4483
15.8228 126.15
15.8679 172.28
15.9129 191.594
15.958 151.321
16.003 93.4679
16.0481 67.2989
16.0931 63.5161
16.1382 61.8578
16.1833 59.6279
16.2283 58.2981
16.2734 57.7956
16.3185 57.8508
16.3636 58.2612
16.4086 56.8759
16.4537 55.2893
16.4988 54.8978
16.5439 54.6714
16.589 54.4197
16.6341 53.9988
16.6792 53.8786
16.7243 54.0518
16.7694 54.2645
16.8145 54.0738
16.8596 54.5831
16.9047 55.8872
16.9498 55.9395
16.9949 54.8722
17.04 54.9203
17.0851 56.0629
17.1302 57.7137
17.1754 60.4626
17.2205 65.8008
17.2656 73.9758
17.3108 82.2586
17.3559 81.2974
17.401 69.9712
17.4462 60.9776
17.4913 58.3058
17.5365 58.4828
17.5815 58.4181
17.6268 58.7563
17.6718 59.5982
17.7171 60.0285
17.7622 60.4322
17.8074 60.9287
17.8525 62.7863
17.8977 66.6501
17.9428 71.8577
17.9881 80.6886
18.0331 99.1223
18.0784 121.974
18.1237 137.748
18.1688 127.2
18.214 101.2
18.2591 85.0714
18.3044 90.588
18.3495 100.431
18.3948 103.69
18.4399 93.4563
18.4852 76.187
18.5303 64.918
18.5756 61.1833
18.6207 60.5864
18.666 59.6341
18.7112 58.9885
18.7565 58.18
18.8016 58.0938
18.8469 57.1645
18.892 56.991
18.9374 56.4841
18.9825 56.1895
19.0278 56.181
19.073 56.2002
19.1183 56.5461
19.1635 56.9796
19.2088 58.4035
19.254 61.4445
19.2993 66.1601
19.3447 71.9549
19.3898 75.5851
19.4352 70.9623
19.4804 62.2304
19.5257 55.9249
19.5709 53.5162
19.6163 53.2281
19.6615 52.933
19.7068 52.6809
19.752 52.5461
19.7974 52.864
19.8426 53.6025
19.888 54.2539
19.9332 55.3541
19.9786 58.1088
20.0238 62.0446
20.0692 66.85
20.1144 69.0376
20.1598 67.2406
20.205 62.7403
20.2504 61.9025
20.2957 63.6721
20.3411 64.9061
20.3863 63.1859
20.4318 57.5043
20.477 53.0833
20.5224 51.0554
20.5677 50.3479
20.6131 49.5726
20.6586 49.0635
20.7038 48.8471
20.7493 48.5342
20.7945 48.3802
20.84 48.3365
20.8853 48.1132
20.9307 47.9135
20.976 48.0671
21.0215 47.8457
21.0668 48.3523
21.1122 48.8298
21.1575 49.5078
21.203 50.27
21.2483 50.8336
21.2938 50.8229
21.3391 49.2909
21.3846 48.4837
21.4299 48.0188
21.4754 47.7014
21.5207 47.8691
21.5662 48.3541
21.6116 48.3753
21.6571 49.0944
21.7024 50.0598
21.7479 51.5854
21.7933 54.6604
21.8388 58.5149
21.8843 62.2887
21.9297 63.652
21.9752 62.0894
22.0206 58.4901
22.0661 55.7795
22.1115 55.5722
22.157 54.9947
22.2024 53.4393
22.248 50.7618
22.2933 49.1052
22.3389 48.4038
22.3843 48.3867
22.4299 48.1964
22.4753 48.2814
22.5208 47.9305
22.5662 47.8084
22.6118 48.0027
22.6572 48.1608
22.7028 48.6757
22.7483 48.7842
22.7939 49.7015
22.8393 51.4586
22.8849 53.4379
22.9303 55.6657
22.9759 57.2428
23.0214 56.4107
23.067 53.78
23.1126 50.5596
23.1581 48.5267
23.2037 48.1823
23.2492 48.183
23.2948 47.9676
23.3403 48.3766
23.3859 49.1455
23.4314 50.2364
23.477 52.1554
23.5225 54.3915
23.5682 56.73
23.6137 57.2166
23.6593 54.9413
23.7048 50.9098
23.7505 47.7912
23.796 46.0652
23.8417 45.3551
23.8872 45.0205
23.9329 44.7175
23.9784 44.2223
24.0241 44.1422
24.0697 43.9044
24.1154 43.7833
24.1609 43.4486
24.2066 43.3129
24.2522 43.1488
24.2979 42.9978
24.3434 42.7352
24.3892 42.7202
24.4349 42.6564
24.4805 42.4081
24.5262 42.6705
24.5718 42.4191
24.6175 42.4527
24.6631 42.2854
24.7089 41.9937
24.7545 41.7356
24.8002 41.767
24.8458 41.5996
24.8916 41.5728
24.9372 41.5361
24.983 41.9875
25.0286 42.2956
25.0744 42.8991
25.12 43.3768
25.1658 43.7739
25.2114 44.1048
25.2572 44.3649
25.3029 44.442
25.3487 44.573
25.3943 44.0614
25.4402 42.9814
25.4858 41.9673
25.5316 41.057
25.5773 40.3671
25.6231 40.3947
25.669 40.1021
25.7147 40.0107
25.7605 39.8171
25.8062 39.9723
25.8521 40.1399
25.8977 39.9992
25.9436 40.3486
25.9893 40.4234
26.0352 40.9216
26.0809 41.0754
26.1268 41.2358
26.1725 40.7805
26.2184 40.3031
26.2641 39.7275
26.31 39.5747
26.3557 39.6232
26.4017 39.5676
26.4474 39.8084
26.4933 40.2813
26.5391 40.8163
26.585 41.2983
26.6308 41.6311
26.6767 41.4506
26.7225 41.3962
26.7684 40.7623
26.8142 40.4159
26.8601 39.9698
26.9059 39.4475
26.9519 39.0614
26.9979 38.7952
27.0437 38.452
27.0896 38.3282
27.1354 38.2638
27.1814 38.1444
27.2272 37.8778
27.2732 38.1048
27.3191 37.871
27.3651 37.9063
27.4109 38.037
27.4569 38.0187
27.5027 38.0084
27.5488 38.0711
27.5946 37.8801
27.6407 37.8169
27.6865 37.4936
27.7326 37.4216
27.7784 37.5113
27.8245 37.2204
27.8703 37.3811
27.9164 37.8667
27.9623 37.9704
28.0084 38.2818
28.0543 38.5464
28.1003 38.49
28.1462 38.422
28.1923 38.0783
28.2384 37.3846
28.2843 37.1681
28.3304 36.6641
28.3764 36.2495
28.4225 36.0594
28.4684 35.783
28.5145 35.5331
28.5605 35.5221
28.6066 35.214
28.6526 35.2263
28.6987 35.1737
28.7447 35.1261
28.7908 34.8944
28.8368 35.0337
28.8829 35.0327
28.9289 34.8165
28.9751 34.7734
29.0211 34.5552
29.0673 34.2223
29.1133 34.2263
29.1595 34.0966
29.2055 33.8358
29.2517 33.9872
29.2977 33.924
29.3439 33.9345
29.3899 33.8984
29.4361 33.7045
29.4824 33.5251
29.5284 33.2026
29.5746 33.0397
29.6207 32.8761
29.6669 32.7491
29.713 32.5216
29.7593 32.372
29.8053 32.4943
29.8516 32.4471
29.8977 32.35
29.9439 32.2322
29.99 32.1671
30.0363 32.1547
30.0824 32.1678
30.1287 32.0379
30.1748 32.0461
30.2211 32.1135
30.2673 31.8562
30.3136 31.9749
30.3597 31.8569
30.406 31.9015
30.4522 31.7259
30.4985 31.6961
30.5447 31.8292
30.591 31.7695
30.6372 31.8866
30.6835 31.7979
30.7297 31.7798
30.7761 31.7681
30.8224 31.5907
30.8686 31.3733
30.915 31.2902
30.9612 31.1709
31.0076 30.9719
31.0538 30.7848
31.1002 30.8369
31.1464 30.5894
31.1928 30.5437
31.2391 30.595
31.2855 30.5089
31.3317 30.444
31.3781 30.5157
31.4244 30.5276
31.4708 30.4247
31.5171 30.3461
31.5636 30.3528
31.6098 30.1595
31.6563 29.9121
31.7026 29.9201
31.7491 29.7341
31.7953 29.7848
31.8418 29.8045
31.8881 29.7328
31.9346 29.77
31.9809 29.6688
32.0275 29.5844
32.074 29.4279
32.1203 29.2263
32.1668 29.2174
32.2132 28.9847
32.2597 28.8871
32.306 28.7663
32.3526 28.6918
32.399 28.5605
32.4455 28.4488
32.4919 28.3367
32.5385 28.3337
32.5848 28.103
32.6314 28.1606
32.6778 28.0515
32.7244 27.8803
32.7708 27.7306
32.8174 27.8284
32.8638 27.5761
32.9104 27.7132
32.9569 27.7216
33.0035 27.517
33.0499 27.5856
33.0966 27.5131
33.143 27.5049
33.1897 27.3385
33.2361 27.2943
33.2828 27.3364
33.3293 27.1272
33.3759 27.1282
33.4226 26.8648
33.4691 26.7476
33.5158 26.7313
33.5623 26.6097
33.609 26.4142
33.6555 26.3532
33.7022 26.2902
33.7487 26.1989
33.7954 26.2103
33.842 26.0395
33.8887 26.014
33.9353 26.0176
33.982 25.8025
34.0286 25.8124
34.0753 25.6727
34.1219 25.5495
34.1687 25.4708
34.2152 25.5069
34.262 25.3249
34.3086 25.2535
34.3554 25.1999
34.402 25.03
34.4488 24.9913
34.4954 24.9347
34.5422 24.9071
34.5889 24.7854
34.6357 24.6484
34.6825 24.5973
34.7292 24.4947
34.776 24.3905
34.8227 24.3528
34.8695 24.2973
34.9162 24.234
34.9631 24.1789
35.0098 24.1244
35.0566 24.0094
35.1033 24.0382
35.1502 23.9277
35.1969 23.8897
35.2438 23.8716
35.2906 23.8837
35.3375 23.7208
35.3842 23.7423
35.4311 23.6635
35.4779 23.6371
35.5248 23.5991
35.5716 23.4438
35.6185 23.4516
35.6653 23.4066
35.7123 23.1376
35.759 23.1984
35.806 23.1162
35.8528 23.0036
35.8998 22.9163
35.9468 22.8223
35.9936 22.8424
36.0406 22.7439
36.0874 22.7448
36.1345 22.654
36.1813 22.568
36.2283 22.431
36.2752 22.3797
36.3222 22.4208
36.3691 22.2283
36.4161 22.145
36.463 22.1668
36.5101 22.1591
36.557 22.1237
36.6041 21.9315
36.651 21.8682
36.6981 21.857
36.745 21.755
36.7921 21.7303
36.839 21.5951
36.8861 21.5229
36.9331 21.4573
36.9802 21.4326
37.0272 21.3322
37.0743 21.2723
37.1213 21.209
37.1684 21.1637
37.2154 21.1392
37.2626 20.9706
37.3098 21.018
37.3568 20.8578
37.404 20.9457
37.451 20.7317
37.4982 20.6882
37.5452 20.6276
37.5924 20.5225
37.6395 20.5774
37.6867 20.4145
37.7337 20.3252
37.781 20.3528
37.8281 20.2158
37.8753 20.1345
37.9224 20.1092
37.9697 20.0204
38.0168 19.9387
38.064 19.8827
38.1111 19.912
38.1584 19.7932
38.2056 19.75
38.2529 19.6933
38.3 19.5593
38.3473 19.5828
38.3945 19.4394
38.4418 19.4096
38.489 19.3891
38.5363 19.2786
38.5837 19.1937
38.6309 19.1724
38.6782 19.1196
38.7254 18.9645
38.7728 18.9686
38.82 18.9125
38.8674 18.8674
38.9146 18.8266
38.9621 18.7453
39.0093 18.7108
39.0567 18.6447
39.104 18.5972
39.1514 18.554
39.1987 18.4367
39.2461 18.3935
39.2934 18.3692
39.3409 18.2593
39.3882 18.2196
39.4356 18.1373
39.483 18.0475
39.5304 18.0477
39.5778 18.0134
39.6253 17.917
39.6726 17.8672
39.7201 17.8418
39.7675 17.7506
39.815 17.7061
39.8624 17.6694
39.9099 17.6465
39.9575 17.524
40.0049 17.4627
40.0525 17.4437
40.0999 17.3361
40.1474 17.3425
40.1949 17.2412
40.2425 17.1547
40.2899 17.143
40.3375 17.117
40.385 16.997
40.4326 16.9389
40.48 16.9352
40.5277 16.9353
40.5752 16.7949
40.6228 16.7606
40.6703 16.7594
40.718 16.6452
40.7655 16.6822
40.8132 16.564
40.8607 16.5029
40.9084 16.4393
40.9559 16.403
41.0036 16.3573
41.0512 16.2811
41.0989 16.2622
41.1465 16.2316
41.1942 16.1475
41.242 16.0886
41.2896 16.0147
41.3373 16.0313
41.3849 15.9631
41.4327 15.8682
41.4803 15.7826
41.5281 15.7397
41.5758 15.7063
41.6236 15.6525
41.6712 15.6281
41.7191 15.5379
41.7667 15.5094
41.8146 15.4918
41.8622 15.3671
41.9101 15.3075
41.9578 15.2993
42.0057 15.2304
42.0534 15.1855
42.1013 15.1588
42.149 15.0546
42.1969 15.0037
42.2446 14.9673
42.2925 14.9555
42.3403 14.865
42.3882 14.9092
42.436 14.7852
42.4839 14.7548
42.5319 14.7113
42.5797 14.6435
42.6277 14.5691
42.6755 14.5501
42.7235 14.5098
42.7713 14.487
42.8193 14.4526
42.8671 14.359
42.9152 14.3517
42.963 14.2745
43.0111 14.2045
43.0589 14.1823
43.107 14.1221
43.1549 14.0583
43.2029 13.9836
43.2508 14.0236
43.2989 13.8895
43.3468 13.8355
43.3949 13.8259
43.4429 13.7651
43.491 13.6961
43.5389 13.6854
43.5871 13.6232
43.635 13.5966
43.6832 13.476
43.7312 13.4716
43.7793 13.4643
43.8273 13.3542
43.8755 13.3533
43.9237 13.3033
43.9717 13.2818
44.0199 13.1862
44.068 13.1607
44.1162 13.1074
44.1642 13.1118
44.2125 13.043
44.2606 13.0432
44.3088 12.9029
44.3569 12.8736
44.4052 12.8703
44.4533 12.7853
44.5016 12.7846
44.5497 12.696
44.598 12.6891
44.6461 12.6283
44.6945 12.6299
44.7426 12.5251
44.791 12.5082
44.8391 12.4465
44.8875 12.3984
44.9357 12.4145
44.984 12.3477
45.0322 12.2713
45.0806 12.2403
45.1288 12.1877
45.1773 12.1202
45.2257 12.1063
45.2739 12.0999
45.3224 12.0233
45.3706 11.966
45.4191 11.8831
45.4673 11.9045
45.5158 11.846
45.5641 11.7782
45.6126 11.7939
45.6609 11.7141
45.7094 11.6573
45.7577 11.6375
45.8063 11.5838
45.8546 11.5777
45.9031 11.5069
45.9515 11.4351
46.0001 11.4178
46.0484 11.4042
46.097 11.3952
46.1454 11.325
46.194 11.2589
46.2424 11.2433
46.291 11.2091
46.3395 11.1774
46.3881 11.1032
46.4365 11.1279
46.4852 11.0312
46.5337 11.0353
46.5823 10.9576
46.631 10.9289
46.6795 10.8838
46.7282 10.8649
46.7767 10.7747
46.8254 10.7523
46.8739 10.7133
46.9226 10.6481
46.9712 10.5773
47.0199 10.5781
47.0685 10.549
47.1173 10.5393
47.1658 10.4482
47.2146 10.4359
47.2632 10.3788
47.312 10.3555
47.3606 10.3307
47.4095 10.2574
47.4581 10.245
47.5069 10.2351
47.5556 10.1973
47.6044 10.1117
47.6531 10.1178
47.702 10.0499
47.7507 10.0278
47.7996 9.99066
47.8483 9.98558
47.8972 9.93319
47.9461 9.88305
47.9948 9.83404
48.0438 9.77587
48.0925 9.76977
48.1415 9.71733
48.1902 9.71119
48.2392 9.66507
48.288 9.63438
48.337 9.61809
48.3858 9.57779
48.4348 9.54266
48.4837 9.50432
48.5327 9.46639
48.5815 9.40914
48.6306 9.40156
48.6795 9.37791
48.7285 9.3407
48.7774 9.23197
48.8265 9.27621
48.8754 9.22051
48.9245 9.22675
48.9734 9.12637
49.0226 9.1399
49.0715 9.04422
49.1206 9.07788
49.1696 8.9993
49.2188 8.97653
49.2679 8.94127
49.3169 8.91354
49.3661 8.87318
49.4151 8.80773
49.4643 8.80276
49.5134 8.77211
49.5626 8.70595
49.6117 8.70216
49.6609 8.67755
49.71 8.60237
49.7592 8.62274
49.8083 8.5585
49.8576 8.53241
49.9067 8.46915
49.956 8.48342
50.0052 8.41212
50.0545 8.42169
50.1036 8.34555
50.153 8.35749
50.2022 8.30534
50.2515 8.29796
50.3007 8.20764
50.3501 8.20921
50.3993 8.18769
50.4487 8.12684
50.498 8.14172
50.5474 8.06632
50.5966 8.06206
50.6461 8.03259
50.6955 8.01374
50.7448 7.94469
50.7943 7.91479
50.8436 7.89861
50.8931 7.84865
50.9424 7.85415
50.9919 7.81848
51.0413 7.8092
51.0908 7.74193
51.1402 7.75956
51.1897 7.68986
51.2391 7.6455
51.2887 7.63979
51.3381 7.57349
51.3877 7.57239
51.4371 7.55071
51.4867 7.46442
51.5362 7.46458
51.5858 7.43461
51.6353 7.41582
51.6849 7.39943
51.7344 7.37588
51.7841 7.30433
51.8336 7.31539
51.8833 7.26883
51.9328 7.22297
51.9826 7.16721
52.0323 7.15882
52.0818 7.12669
52.1316 7.0746
52.1812 7.103
52.231 7.02365
52.2806 7.0238
52.3304 7.01124
52.38 6.98426
52.4298 6.92986
52.4794 6.90209
52.5293 6.82967
52.5789 6.86003
52.6288 6.86221
52.6785 6.79969
52.7284 6.73998
52.7781 6.73653
52.828 6.67796
52.8777 6.66285
52.9276 6.63457
52.9774 6.63381
53.0273 6.61836
53.0771 6.57177
53.1271 6.55546
53.1769 6.52274
53.2269 6.47095
53.2767 6.44416
53.3267 6.40032
53.3765 6.40242
53.4266 6.38783
53.4766 6.35875
53.5265 6.29018
53.5765 6.30072
53.6264 6.28437
53.6765 6.19513
53.7264 6.23642
53.7765 6.1686
53.8265 6.16055
53.8766 6.13408
53.9266 6.09254
53.9767 6.05372
54.0267 6.02289
54.0769 6.0194
54.1269 5.99333
54.1771 5.96823
54.2271 5.93531
54.2773 5.87096
54.3274 5.8866
54.3776 5.78948
54.4277 5.82107
54.478 5.7609
54.528 5.73986
54.5783 5.7145
54.6285 5.64356
54.6788 5.64432
54.7289 5.56215
54.7792 5.49807
54.8296 5.4629
54.8798 5.45233
54.9301 5.38954
54.9803 5.42251
55.0307 5.28228
55.0809 5.2943
55.1314 5.27707
55.1816 5.21453
55.232 5.13856
55.2823 5.14356
55.3328 5.10181
55.383 4.98403
55.4335 4.95878
55.4838 4.92399
55.5344 4.88504
55.5847 4.84942
55.6352 4.846
55.6856 4.80183
55.7361 4.78816