File: XRD/Ni3Fe_FD0350.xy
TT I
1.27165 7.38167
1.31627 6.74819
1.36089 6.86108
1.40551 5.90497
1.45013 6.66639
1.49476 5.67407
1.53938 6.2217
1.584 5.58369
1.62863 5.07229
1.67325 5.25267
1.71787 5.07714
1.7625 4.92745
1.80712 4.67008
1.85174 5.09005
1.89636 5.03141
1.94099 5.02318
1.98562 4.85026
2.03025 5.05805
2.07487 4.15566
2.11949 4.53737
2.16411 4.76843
2.20874 9.77303
2.25338 13.4777
2.298 5.32289
2.34263 5.1179
2.38725 5.38564
2.43188 4.9227
2.4765 6.35144
2.52115 5.95518
2.56577 6.24472
2.6104 7.43038
2.65503 6.80891
2.69965 6.97208
2.7443 7.39254
2.78893 7.33908
2.83356 7.51281
2.87818 8.5038
2.92281 8.53329
2.96744 9.53029
3.01209 10.3426
3.05672 10.9307
3.10135 12.0196
3.14599 12.4745
3.19062 14.0453
3.23527 14.7647
3.2799 15.8817
3.32454 17.124
3.36917 17.9928
3.4138 19.1221
3.45844 19.531
3.50309 20.8406
3.54773 21.6576
3.59237 23.6112
3.637 59.2749
3.68164 41.7538
3.7263 25.8954
3.77094 26.5139
3.81558 26.9927
3.86022 27.6987
3.90486 29.4112
3.9495 30.1066
3.99416 31.1312
4.0388 32.9742
4.08344 34.0674
4.12809 35.2016
4.17273 36.9583
4.21738 41.4886
4.26204 149.318
4.30669 131.131
4.35133 46.8411
4.39598 45.1418
4.44063 50.5207
4.4853 57.5874
4.52995 52.8312
4.5746 53.0837
4.61925 54.9195
4.6639 56.9683
4.70855 59.9252
4.75322 62.9613
4.79788 66.4774
4.84253 69.5234
4.88719 74.2133
4.93184 78.3694
4.97652 84.635
5.02118 91.727
5.06583 101.007
5.11049 115.827
5.15515 174.035
5.19981 603.851
5.24449 3672.57
5.28916 11415.7
5.33382 3455.21
5.37848 222.58
5.42315 138.973
5.46783 121.369
5.5125 111.256
5.55716 106.632
5.60183 102.128
5.6465 100.121
5.69117 98.7348
5.73586 96.4556
5.78053 97.5377
5.8252 96.9231
5.86988 98.8313
5.91455 101.671
5.95924 116.449
6.00392 322.561
6.0486 1271.96
6.09328 4008.79
6.13795 3398.59
6.18263 285.064
6.22733 99.8366
6.27201 86.0909
6.3167 91.9108
6.36138 78.0317
6.40606 71.2387
6.45075 69.3982
6.49545 66.9438
6.54014 65.4761
6.58483 64.2047
6.62952 63.6891
6.67421 78.5338
6.71892 104.33
6.76361 65.2831
6.8083 59.7244
6.853 58.9982
6.89769 57.7771
6.94239 57.407
6.98711 56.7701
7.03181 56.3094
7.07651 56.3282
7.12121 56.0849
7.16591 56.5934
7.21063 56.1031
7.25533 63.4989
7.30004 119.457
7.34475 74.8795
7.38945 56.492
7.43416 55.6684
7.47889 55.1521
7.5236 55.3358
7.56831 56.6612
7.61303 57.1124
7.65774 57.593
7.70247 57.3265
7.74719 57.3079
7.79191 57.8871
7.83663 58.4431
7.88135 59.3167
7.92607 60.0522
7.97081 61.4298
8.01553 62.4412
8.06026 63.918
8.10498 65.5069
8.14971 72.0259
8.19446 71.8571
8.23919 71.5449
8.28392 74.0264
8.32865 76.7567
8.37339 81.7933
8.41812 88.0183
8.46288 112.518
8.50761 224.263
8.55235 499.989
8.59709 1184.34
8.64183 2103.03
8.68658 1053.01
8.73134 181.976
8.77609 104.438
8.82083 96.3424
8.86558 92.9021
8.91033 92.0129
8.9551 91.1503
8.99985 87.51
9.04461 85.7618
9.08936 85.6994
9.13412 84.754
9.17888 84.3769
9.22365 84.8476
9.26841 84.5926
9.31318 85.8166
9.35794 85.964
9.4027 85.9292
9.44749 86.5683
9.49226 87.1299
9.53703 87.9057
9.5818 90.2635
9.62657 94.0881
9.67134 97.1118
9.71614 96.2384
9.76091 97.4965
9.80569 100.297
9.85047 103.727
9.89525 118.66
9.94005 137.954
9.98484 235.499
10.0296 440.281
10.0744 868.824
10.1192 1588.27
10.164 1645.21
10.2088 467.303
10.2536 135.073
10.2984 114.97
10.3432 114.216
10.388 109.594
10.4328 136.733
10.4776 187.779
10.5224 298.243
10.5672 485.819
10.612 516.401
10.6568 214.402
10.7017 99.8576
10.7465 89.3574
10.7913 85.8653
10.8361 83.7845
10.8809 80.9448
10.9257 79.5427
10.9706 79.5426
11.0154 76.3495
11.0602 74.638
11.105 73.6466
11.1499 74.7534
11.1947 77.9766
11.2395 73.0948
11.2844 70.746
11.3292 68.6464
11.374 67.9209
11.4189 67.1084
11.4637 66.5125
11.5086 66.5181
11.5534 67.9181
11.5983 66.1559
11.6431 65.0892
11.688 64.4233
11.7328 64.4608
11.7777 64.1019
11.8225 64.1483
11.8674 64.0373
11.9122 64.533
11.9571 64.889
12.002 66.3589
12.0468 73.524
12.0917 86.8518
12.1366 110.054
12.1814 150.107
12.2263 199.313
12.2712 172.473
12.3161 96.8518
12.3609 70.0408
12.4058 65.9991
12.4507 65.9365
12.4956 66.2273
12.5405 66.4513
12.5853 66.9539
12.6302 71.0422
12.6751 74.4724
12.72 70.356
12.7649 69.4878
12.8098 70.3773
12.8547 71.8409
12.8996 73.1474
12.9445 74.6165
12.9894 76.5628
13.0343 78.4332
13.0792 83.0396
13.1242 99.4786
13.1691 127.879
13.214 168.243
13.2589 246.472
13.3038 351.396
13.3487 420.505
13.3937 278.23
13.4386 132.828
13.4835 117.95
13.5285 136.716
13.5734 174.224
13.6183 244.277
13.6633 334.248
13.7082 347.173
13.7531 200.546
13.7981 102.051
13.843 84.2731
13.888 81.8788
13.9329 79.4951
13.9779 77.8718
14.0228 76.442
14.0678 75.1232
14.1127 74.7701
14.1577 74.0611
14.2027 73.2117
14.2476 72.391
14.2926 72.387
14.3376 72.6038
14.3825 71.7448
14.4275 70.8603
14.4725 70.7377
14.5175 70.7411
14.5624 71.1285
14.6074 72.2608
14.6524 72.8674
14.6974 73.1655
14.7424 76.6766
14.7874 86.2885
14.8324 98.243
14.8774 119.672
14.9224 154.639
14.9674 200.924
15.0124 218.068
15.0574 153.785
15.1024 94.4771
15.1474 74.3945
15.1924 72.1933
15.2374 71.9694
15.2824 71.3225
15.3274 69.7232
15.3725 68.7889
15.4175 68.3389
15.4625 67.8431
15.5076 67.9665
15.5526 67.9647
15.5976 68.0416
15.6426 71.2342
15.6877 78.6502
15.7327 87.6742
15.7778 102.97
15.8228 129.004
15.8679 164.055
15.9129 191.656
15.958 162.925
16.003 101.707
16.0481 69.9163
16.0931 65.3097
16.1382 63.2401
16.1833 62.1238
16.2283 60.3694
16.2734 59.8978
16.3185 59.8808
16.3636 59.6474
16.4086 58.6642
16.4537 57.5349
16.4988 56.9388
16.5439 56.8824
16.589 56.6139
16.6341 56.3356
16.6792 55.878
16.7243 56.4174
16.7694 56.154
16.8145 56.1198
16.8596 56.6611
16.9047 57.5633
16.9498 57.621
16.9949 56.9165
17.04 57.7088
17.0851 59.6183
17.1302 61.3402
17.1754 64.3578
17.2205 69.123
17.2656 75.0876
17.3108 82.6612
17.3559 84.0398
17.401 73.5057
17.4462 64.1703
17.4913 60.8356
17.5365 60.7119
17.5815 60.9152
17.6268 61.4664
17.6718 62.0592
17.7171 62.6302
17.7622 63.2481
17.8074 64.3937
17.8525 68.4267
17.8977 73.0306
17.9428 79.2918
17.9881 88.091
18.0331 102.044
18.0784 119.5
18.1237 139.572
18.1688 136.723
18.214 110.818
18.2591 91.1159
18.3044 91.7132
18.3495 99.5244
18.3948 105.854
18.4399 98.3116
18.4852 79.6704
18.5303 67.773
18.5756 63.8835
18.6207 63.0336
18.666 62.1357
18.7112 61.4014
18.7565 60.5316
18.8016 60.2324
18.8469 59.759
18.892 59.3435
18.9374 58.8489
18.9825 58.4583
19.0278 58.4143
19.073 58.9027
19.1183 59.5312
19.1635 60.3605
19.2088 61.8361
19.254 64.4393
19.2993 67.9097
19.3447 72.3443
19.3898 76.8921
19.4352 74.2612
19.4804 65.6034
19.5257 58.4543
19.5709 55.6932
19.6163 55.3512
19.6615 55.3489
19.7068 54.8003
19.752 54.8655
19.7974 55.4218
19.8426 56.445
19.888 57.0842
19.9332 58.1444
19.9786 60.8598
20.0238 63.8641
20.0692 67.9518
20.1144 71.3118
20.1598 70.8952
20.205 66.177
20.2504 63.5239
20.2957 64.5973
20.3411 66.6902
20.3863 65.9365
20.4318 60.152
20.477 55.1876
20.5224 52.8092
20.5677 52.16
20.6131 51.7647
20.6586 51.0737
20.7038 50.9409
20.7493 50.4184
20.7945 50.4521
20.84 50.2431
20.8853 50.2547
20.9307 50.0786
20.976 50.2493
21.0215 50.0616
21.0668 50.5412
21.1122 50.9653
21.1575 51.3932
21.203 51.7712
21.2483 52.7242
21.2938 52.981
21.3391 51.552
21.3846 50.538
21.4299 49.8349
21.4754 49.7626
21.5207 50.0619
21.5662 50.534
21.6116 51.0965
21.6571 51.8288
21.7024 53.0234
21.7479 54.6462
21.7933 57.2147
21.8388 59.9888
21.8843 63.4679
21.9297 66.0794
21.9752 65.2932
22.0206 61.4148
22.0661 57.8406
22.1115 57.1819
22.157 57.1815
22.2024 55.9325
22.248 52.9615
22.2933 51.1956
22.3389 50.4339
22.3843 50.2447
22.4299 50.2289
22.4753 50.2507
22.5208 49.8759
22.5662 49.8142
22.6118 50.3576
22.6572 50.5201
22.7028 51.1301
22.7483 51.6566
22.7939 52.2841
22.8393 53.7487
22.8849 55.3065
22.9303 57.1329
22.9759 58.8097
23.0214 58.9658
23.067 56.4486
23.1126 52.7497
23.1581 50.6342
23.2037 50.2475
23.2492 50.567
23.2948 50.5719
23.3403 50.9046
23.3859 51.5628
23.4314 52.5671
23.477 54.062
23.5225 55.6447
23.5682 57.6649
23.6137 59.2934
23.6593 57.3176
23.7048 53.2999
23.7505 49.7111
23.796 47.8957
23.8417 47.3708
23.8872 46.7084
23.9329 46.5778
23.9784 46.1326
24.0241 45.8768
24.0697 45.6851
24.1154 45.3588
24.1609 45.1004
24.2066 45.1883
24.2522 44.886
24.2979 44.7077
24.3434 44.6271
24.3892 44.4289
24.4349 44.3842
24.4805 44.141
24.5262 44.3287
24.5718 44.3109
24.6175 44.255
24.6631 44.0617
24.7089 43.7687
24.7545 43.4981
24.8002 43.4232
24.8458 43.5357
24.8916 43.4167
24.9372 43.5528
24.983 43.8782
25.0286 44.2461
25.0744 44.5226
25.12 45.1017
25.1658 45.6385
25.2114 45.9312
25.2572 45.9634
25.3029 45.7855
25.3487 45.9812
25.3943 45.9184
25.4402 44.7831
25.4858 43.6703
25.5316 42.5809
25.5773 42.008
25.6231 42.1744
25.669 41.629
25.7147 41.8137
25.7605 41.5672
25.8062 41.6106
25.8521 41.8005
25.8977 41.8277
25.9436 42.0822
25.9893 42.061
26.0352 42.5325
26.0809 42.5351
26.1268 42.8572
26.1725 42.5684
26.2184 41.9269
26.2641 41.5308
26.31 41.3783
26.3557 41.4177
26.4017 41.4462
26.4474 41.6102
26.4933 42.0265
26.5391 42.2508
26.585 42.6789
26.6308 43.0041
26.6767 43.3468
26.7225 43.1422
26.7684 42.5373
26.8142 41.9723
26.8601 41.506
26.9059 41.2256
26.9519 40.6636
26.9979 40.3136
27.0437 39.9663
27.0896 39.7734
27.1354 39.8821
27.1814 39.6144
27.2272 39.5782
27.2732 39.7063
27.3191 39.4635
27.3651 39.4506
27.4109 39.5438
27.4569 39.5584
27.5027 39.5307
27.5488 39.6079
27.5946 39.5195
27.6407 39.357
27.6865 39.2722
27.7326 38.9333
27.7784 39.0169
27.8245 38.8832
27.8703 39.1709
27.9164 39.3506
27.9623 39.4437
28.0084 39.712
28.0543 40.156
28.1003 40.0234
28.1462 39.911
28.1923 39.6005
28.2384 39.0412
28.2843 38.6273
28.3304 38.2167
28.3764 37.7699
28.4225 37.4743
28.4684 37.3365
28.5145 36.9154
28.5605 36.8068
28.6066 36.6054
28.6526 36.6549
28.6987 36.5752
28.7447 36.4331
28.7908 36.3866
28.8368 36.29
28.8829 36.4444
28.9289 36.2121
28.9751 36.0814
29.0211 35.856
29.0673 35.677
29.1133 35.5757
29.1595 35.3895
29.2055 35.2468
29.2517 35.3513
29.2977 35.3061
29.3439 35.1167
29.3899 35.1107
29.4361 35.1272
29.4824 34.8701
29.5284 34.7033
29.5746 34.3593
29.6207 34.0534
29.6669 33.9424
29.713 33.908
29.7593 33.6802
29.8053 33.8127
29.8516 33.6652
29.8977 33.7296
29.9439 33.5712
29.99 33.5085
30.0363 33.326
30.0824 33.4153
30.1287 33.2223
30.1748 33.3131
30.2211 33.398
30.2673 33.1306
30.3136 33.2884
30.3597 33.2341
30.406 33.0879
30.4522 32.9543
30.4985 32.9135
30.5447 33.0096
30.591 33.0711
30.6372 33.0283
30.6835 33.0629
30.7297 33.1286
30.7761 32.9916
30.8224 32.9117
30.8686 32.6829
30.915 32.5369
30.9612 32.4075
31.0076 32.2176
31.0538 32.0022
31.1002 31.9916
31.1464 31.8399
31.1928 31.6791
31.2391 31.8378
31.2855 31.6756
31.3317 31.6172
31.3781 31.7756
31.4244 31.6911
31.4708 31.5676
31.5171 31.7561
31.5636 31.5807
31.6098 31.31
31.6563 31.2013
31.7026 31.1162
31.7491 30.9181
31.7953 31.0286
31.8418 30.8545
31.8881 31.0498
31.9346 30.9005
31.9809 30.7423
32.0275 30.7156
32.074 30.6495
32.1203 30.4403
32.1668 30.3213
32.2132 30.1507
32.2597 30.005
32.306 29.8957
32.3526 29.8218
32.399 29.738
32.4455 29.5375
32.4919 29.4896
32.5385 29.4766
32.5848 29.3374
32.6314 29.3407
32.6778 29.1673
32.7244 29.0278
32.7708 28.9614
32.8174 28.9372
32.8638 28.7951
32.9104 28.8314
32.9569 28.7932
33.0035 28.6946
33.0499 28.5762
33.0966 28.5697
33.143 28.5244
33.1897 28.4058
33.2361 28.3397
33.2828 28.2916
33.3293 28.1439
33.3759 28.1158
33.4226 28.0151
33.4691 27.8535
33.5158 27.7589
33.5623 27.6752
33.609 27.4822
33.6555 27.4957
33.7022 27.3373
33.7487 27.2713
33.7954 27.2595
33.842 27.1434
33.8887 27.0636
33.9353 27.0327
33.982 26.7533
34.0286 26.7942
34.0753 26.6365
34.1219 26.6323
34.1687 26.5008
34.2152 26.4581
34.262 26.3207
34.3086 26.1669
34.3554 26.275
34.402 26.037
34.4488 25.9576
34.4954 25.9233
34.5422 25.8585
34.5889 25.7724
34.6357 25.6877
34.6825 25.624
34.7292 25.4943
34.776 25.3435
34.8227 25.3464
34.8695 25.3165
34.9162 25.2925
34.9631 25.1903
35.0098 25.1231
35.0566 25.0775
35.1033 24.9271
35.1502 24.9615
35.1969 24.8173
35.2438 24.7726
35.2906 24.8063
35.3375 24.711
35.3842 24.6285
35.4311 24.6503
35.4779 24.5367
35.5248 24.4804
35.5716 24.3679
35.6185 24.3585
35.6653 24.2027
35.7123 24.0689
35.759 24.1307
35.806 23.9221
35.8528 23.8101
35.8998 23.7934
35.9468 23.7055
35.9936 23.6987
36.0406 23.6118
36.0874 23.5958
36.1345 23.5024
36.1813 23.4028
36.2283 23.3229
36.2752 23.2124
36.3222 23.2475
36.3691 23.1327
36.4161 23.0299
36.463 22.9813
36.5101 23.0148
36.557 22.9121
36.6041 22.7612
36.651 22.7559
36.6981 22.7694
36.745 22.6753
36.7921 22.5169
36.839 22.4869
36.8861 22.4456
36.9331 22.2383
36.9802 22.2038
37.0272 22.2063
37.0743 22.0039
37.1213 22.073
37.1684 21.9916
37.2154 21.911
37.2626 21.8607
37.3098 21.7802
37.3568 21.6771
37.404 21.6142
37.451 21.6065
37.4982 21.4832
37.5452 21.3958
37.5924 21.4083
37.6395 21.3662
37.6867 21.2957
37.7337 21.2587
37.781 21.093
37.8281 21.0191
37.8753 20.9302
37.9224 20.9133
37.9697 20.8086
38.0168 20.7605
38.064 20.6562
38.1111 20.683
38.1584 20.5314
38.2056 20.4131
38.2529 20.4586
38.3 20.3738
38.3473 20.2671
38.3945 20.1497
38.4418 20.1567
38.489 20.1333
38.5363 20.0361
38.5837 19.9443
38.6309 19.9664
38.6782 19.8179
38.7254 19.7565
38.7728 19.789
38.82 19.6523
38.8674 19.6065
38.9146 19.5736
38.9621 19.4604
39.0093 19.4184
39.0567 19.3249
39.104 19.2573
39.1514 19.2169
39.1987 19.1723
39.2461 19.1668
39.2934 19.1758
39.3409 18.9671
39.3882 18.9018
39.4356 18.7506
39.483 18.8401
39.5304 18.7058
39.5778 18.6752
39.6253 18.6671
39.6726 18.5529
39.7201 18.5234
39.7675 18.4332
39.815 18.3258
39.8624 18.3412
39.9099 18.3552
39.9575 18.172
40.0049 18.1685
40.0525 18.1086
40.0999 18.0905
40.1474 18.0025
40.1949 17.9217
40.2425 17.854
40.2899 17.7808
40.3375 17.7832
40.385 17.6731
40.4326 17.6492
40.48 17.5665
40.5277 17.5399
40.5752 17.4587
40.6228 17.4
40.6703 17.3837
40.718 17.2799
40.7655 17.3276
40.8132 17.2002
40.8607 17.1914
40.9084 17.152
40.9559 17.1016
41.0036 17.0034
41.0512 16.9466
41.0989 16.9062
41.1465 16.825
41.1942 16.8012
41.242 16.6599
41.2896 16.6607
41.3373 16.5467
41.3849 16.5595
41.4327 16.5486
41.4803 16.3417
41.5281 16.4162
41.5758 16.2593
41.6236 16.2521
41.6712 16.196
41.7191 16.1438
41.7667 16.1047
41.8146 16.0656
41.8622 15.9691
41.9101 16.0128
41.9578 15.8869
42.0057 15.8081
42.0534 15.7854
42.1013 15.757
42.149 15.6508
42.1969 15.6214
42.2446 15.5875
42.2925 15.5173
42.3403 15.4321
42.3882 15.4181
42.436 15.3809
42.4839 15.308
42.5319 15.2692
42.5797 15.2389
42.6277 15.169
42.6755 15.1758
42.7235 15.108
42.7713 15.007
42.8193 14.9556
42.8671 14.8873
42.9152 14.8712
42.963 14.7943
43.0111 14.7594
43.0589 14.6936
43.107 14.6493
43.1549 14.6149
43.2029 14.5143
43.2508 14.5287
43.2989 14.4599
43.3468 14.4021
43.3949 14.3047
43.4429 14.2748
43.491 14.2139
43.5389 14.2372
43.5871 14.1729
43.635 14.1032
43.6832 13.9908
43.7312 13.9634
43.7793 13.9515
43.8273 13.9188
43.8755 13.8197
43.9237 13.8431
43.9717 13.795
44.0199 13.7132
44.068 13.6978
44.1162 13.618
44.1642 13.5859
44.2125 13.5278
44.2606 13.5217
44.3088 13.4501
44.3569 13.3783
44.4052 13.3392
44.4533 13.3114
44.5016 13.2164
44.5497 13.2147
44.598 13.1846
44.6461 13.0766
44.6945 13.0583
44.7426 13.0212
44.791 12.9788
44.8391 12.9551
44.8875 12.8985
44.9357 12.86
44.984 12.7785
45.0322 12.7386
45.0806 12.7242
45.1288 12.6442
45.1773 12.5684
45.2257 12.5839
45.2739 12.4704
45.3224 12.467
45.3706 12.3856
45.4191 12.3636
45.4673 12.3501
45.5158 12.3228
45.5641 12.2365
45.6126 12.2237
45.6609 12.1752
45.7094 12.0387
45.7577 12.0846
45.8063 12.0238
45.8546 12.0079
45.9031 11.9389
45.9515 11.8887
46.0001 11.874
46.0484 11.8206
46.097 11.787
46.1454 11.7394
46.194 11.7141
46.2424 11.6034
46.291 11.605
46.3395 11.5665
46.3881 11.4867
46.4365 11.4937
46.4852 11.4373
46.5337 11.4073
46.5823 11.3525
46.631 11.3239
46.6795 11.2329
46.7282 11.2526
46.7767 11.1371
46.8254 11.1437
46.8739 11.0998
46.9226 11.0221
46.9712 11.0149
47.0199 10.9753
47.0685 10.9318
47.1173 10.8909
47.1658 10.8626
47.2146 10.8387
47.2632 10.7648
47.312 10.7223
47.3606 10.7135
47.4095 10.6514
47.4581 10.6517
47.5069 10.5871
47.5556 10.5758
47.6044 10.4769
47.6531 10.4728
47.702 10.3952
47.7507 10.3932
47.7996 10.3725
47.8483 10.3451
47.8972 10.2936
47.9461 10.2914
47.9948 10.2211
48.0438 10.1655
48.0925 10.1611
48.1415 10.0999
48.1902 10.0229
48.2392 10.0431
48.288 9.99308
48.337 9.92416
48.3858 9.88309
48.4348 9.87551
48.4837 9.8925
48.5327 9.81331
48.5815 9.77998
48.6306 9.72838
48.6795 9.73928
48.7285 9.64857
48.7774 9.65811
48.8265 9.64563
48.8754 9.53611
48.9245 9.55096
48.9734 9.50855
49.0226 9.47557
49.0715 9.39205
49.1206 9.41122
49.1696 9.33645
49.2188 9.30518
49.2679 9.27297
49.3169 9.22717
49.3661 9.19071
49.4151 9.15212
49.4643 9.1403
49.5134 9.11568
49.5626 9.05906
49.6117 9.03967
49.6609 8.98413
49.71 8.95466
49.7592 8.94203
49.8083 8.89468
49.8576 8.86156
49.9067 8.80138
49.956 8.78129
50.0052 8.73675
50.0545 8.71949
50.1036 8.68105
50.153 8.64653
50.2022 8.62811
50.2515 8.56409
50.3007 8.56294
50.3501 8.52743
50.3993 8.49648
50.4487 8.44077
50.498 8.40507
50.5474 8.39795
50.5966 8.34837
50.6461 8.31056
50.6955 8.27924
50.7448 8.28672
50.7943 8.22376
50.8436 8.17655
50.8931 8.1483
50.9424 8.16733
50.9919 8.09164
51.0413 8.08845
51.0908 8.02842
51.1402 7.98916
51.1897 7.9648
51.2391 7.94292
51.2887 7.90158
51.3381 7.86142
51.3877 7.81143
51.4371 7.77922
51.4867 7.78428
51.5362 7.77825
51.5858 7.70922
51.6353 7.64061
51.6849 7.65208
51.7344 7.63309
51.7841 7.55254
51.8336 7.56389
51.8833 7.51693
51.9328 7.45884
51.9826 7.43583
52.0323 7.40725
52.0818 7.37423
52.1316 7.3608
52.1812 7.33332
52.231 7.28796
52.2806 7.2595
52.3304 7.25086
52.38 7.19084
52.4298 7.15022
52.4794 7.13337
52.5293 7.1214
52.5789 7.08592
52.6288 7.02116
52.6785 7.00191
52.7284 7.03097
52.7781 6.99191
52.828 6.93852
52.8777 6.87893
52.9276 6.89631
52.9774 6.88023
53.0273 6.85315
53.0771 6.78827
53.1271 6.77814
53.1769 6.74298
53.2269 6.71778
53.2767 6.68528
53.3267 6.62588
53.3765 6.60544
53.4266 6.6067
53.4766 6.55883
53.5265 6.5344
53.5765 6.51824
53.6264 6.45018
53.6765 6.46707
53.7264 6.40534
53.7765 6.41239
53.8265 6.37135
53.8766 6.34228
53.9266 6.31384
53.9767 6.25087
54.0267 6.28054
54.0769 6.23772
54.1269 6.237
54.1771 6.17125
54.2271 6.14229
54.2773 6.10112
54.3274 6.06578
54.3776 6.03086
54.4277 6.02617
54.478 5.9922
54.528 5.94625
54.5783 5.91868
54.6285 5.85938
54.6788 5.81316
54.7289 5.7653
54.7792 5.73683
54.8296 5.73268
54.8798 5.60051
54.9301 5.62238
54.9803 5.59826
55.0307 5.47756
55.0809 5.46946
55.1314 5.51813
55.1816 5.40214
55.232 5.37686
55.2823 5.3337
55.3328 5.26097
55.383 5.23391
55.4335 5.20581
55.4838 5.12294
55.5344 5.13725
55.5847 5.07332
55.6352 4.98878
55.6856 4.98612
55.7361 4.96681