File: XRD/Ni3Fe_FD1037.xy
TT I
1.27165 6.73201
1.31627 6.41427
1.36089 6.29519
1.40551 6.61996
1.45013 6.20467
1.49476 6.03552
1.53938 5.43025
1.584 4.54233
1.62863 4.80838
1.67325 4.52892
1.71787 4.51755
1.7625 4.50537
1.80712 4.34636
1.85174 4.12341
1.89636 4.26224
1.94099 4.32579
1.98562 4.5346
2.03025 4.19059
2.07487 3.94653
2.11949 4.58137
2.16411 4.38136
2.20874 4.97841
2.25338 5.83735
2.298 5.64128
2.34263 5.36325
2.38725 6.01072
2.43188 5.99112
2.4765 7.40722
2.52115 7.09589
2.56577 8.20415
2.6104 8.30464
2.65503 8.19791
2.69965 8.77451
2.7443 8.3622
2.78893 8.36271
2.83356 8.77534
2.87818 8.59262
2.92281 9.17067
2.96744 9.02924
3.01209 10.0263
3.05672 11.2442
3.10135 12.1985
3.14599 12.6979
3.19062 13.9232
3.23527 14.6571
3.2799 15.0592
3.32454 16.3353
3.36917 17.1478
3.4138 18.2877
3.45844 18.647
3.50309 20.0641
3.54773 20.2326
3.59237 21.3285
3.637 28.2069
3.68164 26.6379
3.7263 24.079
3.77094 24.779
3.81558 25.4993
3.86022 26.2964
3.90486 27.5764
3.9495 28.0824
3.99416 29.0832
4.0388 30.2923
4.08344 31.2001
4.12809 32.3512
4.17273 33.7182
4.21738 35.4668
4.26204 52.1862
4.30669 57.0535
4.35133 40.6627
4.39598 40.8417
4.44063 43.4708
4.4853 45.8416
4.52995 46.2871
4.5746 48.191
4.61925 50.4511
4.6639 52.9456
4.70855 55.3935
4.75322 58.1587
4.79788 60.3464
4.84253 63.8782
4.88719 67.676
4.93184 71.2522
4.97652 76.7424
5.02118 82.6949
5.06583 88.9343
5.11049 98.0301
5.15515 117.991
5.19981 229.914
5.24449 2445.19
5.28916 13450.0
5.33382 3311.04
5.37848 218.507
5.42315 124.627
5.46783 108.366
5.5125 100.799
5.55716 97.0096
5.60183 92.8356
5.6465 91.1257
5.69117 89.4873
5.73586 87.398
5.78053 86.2835
5.8252 86.2198
5.86988 86.8781
5.91455 89.1016
5.95924 95.0331
6.00392 161.635
6.0486 877.06
6.09328 4576.56
6.13795 3549.08
6.18263 240.159
6.22733 87.1322
6.27201 75.9416
6.3167 72.8919
6.36138 68.6276
6.40606 64.607
6.45075 63.3033
6.49545 61.5427
6.54014 59.9718
6.58483 58.9034
6.62952 57.7767
6.67421 58.8277
6.71892 64.064
6.76361 56.2714
6.8083 54.3898
6.853 53.6582
6.89769 53.4146
6.94239 53.07
6.98711 52.2118
7.03181 52.2981
7.07651 52.2867
7.12121 51.7518
7.16591 51.5912
7.21063 50.9451
7.25533 51.7683
7.30004 61.8651
7.34475 55.6974
7.38945 51.2148
7.43416 51.1633
7.47889 51.7797
7.5236 60.0566
7.56831 76.8613
7.61303 57.3347
7.65774 53.0642
7.70247 52.9567
7.74719 53.3999
7.79191 53.1679
7.83663 53.869
7.88135 54.7861
7.92607 55.2886
7.97081 56.5547
8.01553 57.2548
8.06026 58.7906
8.10498 60.0039
8.14971 62.377
8.19446 63.9722
8.23919 65.6023
8.28392 68.0213
8.32865 70.4245
8.37339 73.7796
8.41812 77.3459
8.46288 86.0347
8.50761 126.908
8.55235 362.623
8.59709 1072.76
8.64183 2249.08
8.68658 1100.69
8.73134 174.693
8.77609 94.6848
8.82083 88.1372
8.86558 85.295
8.91033 83.401
8.9551 82.1912
8.99985 81.0048
9.04461 79.8786
9.08936 79.3603
9.13412 78.5937
9.17888 79.4296
9.22365 92.9339
9.26841 118.533
9.31318 90.2895
9.35794 80.0734
9.4027 79.8524
9.44749 80.2734
9.49226 80.5696
9.53703 81.7683
9.5818 83.232
9.62657 84.2523
9.67134 86.14
9.71614 87.6254
9.76091 89.4511
9.80569 91.0894
9.85047 94.1009
9.89525 98.5919
9.94005 105.921
9.98484 146.393
10.0296 340.988
10.0744 761.364
10.1192 1748.27
10.164 1681.29
10.2088 443.976
10.2536 125.184
10.2984 102.779
10.3432 100.797
10.388 97.5533
10.4328 106.905
10.4776 158.815
10.5224 265.541
10.5672 503.916
10.612 542.306
10.6568 225.456
10.7017 104.705
10.7465 86.1626
10.7913 80.2122
10.8361 77.5303
10.8809 75.2354
10.9257 73.4415
10.9706 72.2208
11.0154 70.5714
11.0602 68.8738
11.105 68.1029
11.1499 66.9556
11.1947 67.0271
11.2395 65.482
11.2844 64.4742
11.3292 63.542
11.374 62.6964
11.4189 62.2948
11.4637 61.4742
11.5086 60.9767
11.5534 60.8374
11.5983 60.7002
11.6431 60.3425
11.688 60.0168
11.7328 59.9503
11.7777 59.8219
11.8225 59.5748
11.8674 59.5961
11.9122 62.1622
11.9571 69.1236
12.002 67.5421
12.0468 64.4596
12.0917 76.1299
12.1366 98.3
12.1814 146.575
12.2263 207.371
12.2712 180.607
12.3161 97.2195
12.3609 64.3071
12.4058 61.0985
12.4507 61.1346
12.4956 61.0329
12.5405 61.143
12.5853 61.5929
12.6302 62.2722
12.6751 63.7202
12.72 63.8295
12.7649 64.367
12.8098 65.0211
12.8547 66.1502
12.8996 67.6329
12.9445 68.963
12.9894 70.3672
13.0343 72.4288
13.0792 76.6032
13.1242 82.3901
13.1691 106.842
13.214 145.61
13.2589 225.314
13.3038 362.621
13.3487 440.967
13.3937 279.928
13.4386 126.76
13.4835 98.805
13.5285 118.753
13.5734 154.265
13.6183 234.508
13.6633 354.37
13.7082 361.69
13.7531 208.069
13.7981 100.591
13.843 79.339
13.888 76.4599
13.9329 74.3876
13.9779 73.2785
14.0228 71.6869
14.0678 70.428
14.1127 71.9268
14.1577 76.1582
14.2027 73.9124
14.2476 68.7281
14.2926 67.4625
14.3376 66.8675
14.3825 66.7576
14.4275 65.9861
14.4725 66.0389
14.5175 66.0711
14.5624 66.1744
14.6074 66.2485
14.6524 66.9514
14.6974 67.2286
14.7424 68.3796
14.7874 74.2249
14.8324 87.8951
14.8774 108.495
14.9224 146.798
14.9674 206.721
15.0124 229.206
15.0574 160.821
15.1024 93.446
15.1474 70.7865
15.1924 67.4988
15.2374 66.2969
15.2824 65.3654
15.3274 64.6964
15.3725 64.065
15.4175 63.6718
15.4625 63.4143
15.5076 63.0892
15.5526 63.2077
15.5976 63.0053
15.6426 63.4611
15.6877 68.0276
15.7327 78.7836
15.7778 93.16
15.8228 121.187
15.8679 168.102
15.9129 201.335
15.958 168.009
16.003 103.22
16.0481 69.4033
16.0931 62.9607
16.1382 59.9226
16.1833 58.3933
16.2283 56.7853
16.2734 56.0243
16.3185 55.5211
16.3636 55.0517
16.4086 54.2775
16.4537 53.8031
16.4988 53.3748
16.5439 53.2324
16.589 52.8169
16.6341 52.8586
16.6792 52.4938
16.7243 52.6635
16.7694 52.5896
16.8145 52.6324
16.8596 52.7557
16.9047 53.467
16.9498 54.2518
16.9949 53.9558
17.04 53.6497
17.0851 54.4016
17.1302 56.6823
17.1754 59.7391
17.2205 64.2049
17.2656 72.1003
17.3108 81.3766
17.3559 82.4835
17.401 71.7572
17.4462 61.2054
17.4913 57.4353
17.5365 56.9844
17.5815 57.0402
17.6268 57.3856
17.6718 57.9134
17.7171 58.4712
17.7622 59.9991
17.8074 60.5171
17.8525 61.6391
17.8977 66.0572
17.9428 72.5783
17.9881 80.9139
18.0331 97.0838
18.0784 120.703
18.1237 141.676
18.1688 136.964
18.214 108.875
18.2591 87.6686
18.3044 88.1854
18.3495 98.9068
18.3948 106.688
18.4399 97.8657
18.4852 79.2819
18.5303 65.6094
18.5756 61.319
18.6207 59.892
18.666 58.6763
18.7112 57.8748
18.7565 57.2129
18.8016 56.9597
18.8469 56.1447
18.892 55.9393
18.9374 55.421
18.9825 55.1486
19.0278 54.9645
19.073 54.7772
19.1183 55.12
19.1635 56.0221
19.2088 57.6365
19.254 60.3901
19.2993 65.3173
19.3447 71.9658
19.3898 75.996
19.4352 72.1349
19.4804 63.195
19.5257 55.9226
19.5709 52.7522
19.6163 52.3835
19.6615 51.9013
19.7068 51.5867
19.752 51.623
19.7974 51.8433
19.8426 52.4186
19.888 53.4254
19.9332 54.8519
19.9786 57.0919
20.0238 60.6871
20.0692 66.1216
20.1144 70.0585
20.1598 68.7177
20.205 63.7356
20.2504 61.4468
20.2957 63.3698
20.3411 65.3259
20.3863 64.1399
20.4318 58.0153
20.477 52.5508
20.5224 49.8637
20.5677 49.2871
20.6131 48.7196
20.6586 48.1986
20.7038 48.1085
20.7493 47.8688
20.7945 48.0323
20.84 47.6752
20.8853 47.3506
20.9307 46.967
20.976 47.0581
21.0215 47.1861
21.0668 47.7354
21.1122 48.0452
21.1575 48.5432
21.203 49.4436
21.2483 50.2126
21.2938 50.4167
21.3391 49.0769
21.3846 47.754
21.4299 47.1858
21.4754 47.0145
21.5207 47.2261
21.5662 47.3845
21.6116 47.6949
21.6571 48.6706
21.7024 49.6781
21.7479 51.5125
21.7933 53.784
21.8388 57.8224
21.8843 62.454
21.9297 64.9937
21.9752 63.9066
22.0206 59.784
22.0661 56.2571
22.1115 55.8342
22.157 55.8867
22.2024 54.1331
22.248 51.0055
22.2933 48.9354
22.3389 47.9329
22.3843 47.5889
22.4299 47.3702
22.4753 47.5246
22.5208 47.2014
22.5662 47.2648
22.6118 47.3369
22.6572 47.4404
22.7028 48.0738
22.7483 48.8477
22.7939 49.5025
22.8393 50.7623
22.8849 53.0041
22.9303 55.5122
22.9759 57.3777
23.0214 57.3521
23.067 54.5343
23.1126 50.8116
23.1581 48.5145
23.2037 47.6874
23.2492 47.4233
23.2948 47.6797
23.3403 48.2267
23.3859 49.0351
23.4314 50.1253
23.477 51.9747
23.5225 54.4792
23.5682 56.9643
23.6137 58.3944
23.6593 56.1993
23.7048 52.0598
23.7505 47.9254
23.796 45.8276
23.8417 45.0368
23.8872 44.4187
23.9329 44.203
23.9784 43.8572
24.0241 43.605
24.0697 43.3463
24.1154 43.1558
24.1609 42.8562
24.2066 42.6895
24.2522 42.5367
24.2979 42.2919
24.3434 42.1568
24.3892 42.1124
24.4349 42.1104
24.4805 41.8002
24.5262 42.0285
24.5718 41.8684
24.6175 42.0913
24.6631 41.8126
24.7089 41.673
24.7545 41.2735
24.8002 41.2511
24.8458 41.125
24.8916 41.0749
24.9372 41.2101
24.983 41.5596
25.0286 41.8216
25.0744 42.4745
25.12 43.0936
25.1658 43.736
25.2114 44.0276
25.2572 44.1802
25.3029 44.4246
25.3487 44.4464
25.3943 44.3776
25.4402 43.0738
25.4858 41.7294
25.5316 40.7115
25.5773 40.1487
25.6231 39.9536
25.669 39.6223
25.7147 39.5405
25.7605 39.4744
25.8062 39.6179
25.8521 39.7071
25.8977 39.6203
25.9436 40.033
25.9893 40.1971
26.0352 40.8881
26.0809 40.8528
26.1268 41.2232
26.1725 40.7296
26.2184 40.1059
26.2641 39.5851
26.31 39.2887
26.3557 39.211
26.4017 39.2917
26.4474 39.4789
26.4933 39.8591
26.5391 40.4603
26.585 41.1822
26.6308 41.5879
26.6767 41.7532
26.7225 41.595
26.7684 41.0635
26.8142 40.412
26.8601 39.8424
26.9059 39.4794
26.9519 39.0174
26.9979 38.5556
27.0437 38.1254
27.0896 37.9706
27.1354 37.9586
27.1814 37.8336
27.2272 37.7299
27.2732 37.802
27.3191 37.5932
27.3651 37.6878
27.4109 37.608
27.4569 37.8319
27.5027 37.8773
27.5488 37.9754
27.5946 37.7972
27.6407 37.5228
27.6865 37.3453
27.7326 37.165
27.7784 37.1276
27.8245 37.1593
27.8703 37.395
27.9164 37.6869
27.9623 37.9429
28.0084 38.2805
28.0543 38.6756
28.1003 38.7517
28.1462 38.5304
28.1923 38.0669
28.2384 37.6182
28.2843 37.3854
28.3304 36.61
28.3764 36.1788
28.4225 35.7517
28.4684 35.5272
28.5145 35.2152
28.5605 35.2007
28.6066 35.0626
28.6526 35.0009
28.6987 35.0356
28.7447 34.7794
28.7908 34.722
28.8368 34.7561
28.8829 34.7867
28.9289 34.7088
28.9751 34.4421
29.0211 34.2576
29.0673 34.061
29.1133 33.8855
29.1595 33.7353
29.2055 33.5623
29.2517 33.6559
29.2977 33.5277
29.3439 33.6766
29.3899 33.5573
29.4361 33.5427
29.4824 33.2965
29.5284 33.0974
29.5746 32.7151
29.6207 32.4498
29.6669 32.4001
29.713 32.3239
29.7593 32.1967
29.8053 32.0785
29.8516 32.0519
29.8977 31.9808
29.9439 31.8975
29.99 32.0057
30.0363 31.7356
30.0824 31.8263
30.1287 31.8146
30.1748 31.9107
30.2211 31.8427
30.2673 31.6039
30.3136 31.6635
30.3597 31.6913
30.406 31.6672
30.4522 31.5019
30.4985 31.492
30.5447 31.5202
30.591 31.5403
30.6372 31.6441
30.6835 31.7502
30.7297 31.6726
30.7761 31.6945
30.8224 31.568
30.8686 31.3478
30.915 31.1696
30.9612 30.9884
31.0076 30.7905
31.0538 30.6322
31.1002 30.6383
31.1464 30.3657
31.1928 30.3482
31.2391 30.3648
31.2855 30.342
31.3317 30.2996
31.3781 30.3546
31.4244 30.4565
31.4708 30.2645
31.5171 30.3301
31.5636 30.2536
31.6098 30.085
31.6563 29.8731
31.7026 29.7562
31.7491 29.5613
31.7953 29.6664
31.8418 29.5986
31.8881 29.598
31.9346 29.6981
31.9809 29.5819
32.0275 29.5173
32.074 29.3673
32.1203 29.1642
32.1668 29.0712
32.2132 28.9274
32.2597 28.7941
32.306 28.6935
32.3526 28.4853
32.399 28.3889
32.4455 28.2378
32.4919 28.1463
32.5385 28.0379
32.5848 27.9499
32.6314 27.9966
32.6778 27.8837
32.7244 27.7628
32.7708 27.6145
32.8174 27.6333
32.8638 27.488
32.9104 27.6308
32.9569 27.4698
33.0035 27.3267
33.0499 27.3497
33.0966 27.2513
33.143 27.2282
33.1897 27.1478
33.2361 27.1658
33.2828 27.1983
33.3293 26.9972
33.3759 26.8533
33.4226 26.7934
33.4691 26.596
33.5158 26.5585
33.5623 26.4695
33.609 26.3092
33.6555 26.1533
33.7022 26.0657
33.7487 25.9732
33.7954 26.0234
33.842 25.852
33.8887 25.8863
33.9353 25.8335
33.982 25.7593
34.0286 25.5421
34.0753 25.5395
34.1219 25.4011
34.1687 25.3555
34.2152 25.2563
34.262 25.1858
34.3086 25.0548
34.3554 25.0732
34.402 24.9173
34.4488 24.938
34.4954 24.8121
34.5422 24.5994
34.5889 24.6167
34.6357 24.4533
34.6825 24.534
34.7292 24.3472
34.776 24.1851
34.8227 24.2272
34.8695 24.1822
34.9162 24.09
34.9631 23.9965
35.0098 24.013
35.0566 23.874
35.1033 23.8842
35.1502 23.7517
35.1969 23.8323
35.2438 23.6783
35.2906 23.7115
35.3375 23.6349
35.3842 23.5227
35.4311 23.5639
35.4779 23.5006
35.5248 23.5519
35.5716 23.3679
35.6185 23.2613
35.6653 23.2976
35.7123 23.1767
35.759 23.1203
35.806 22.8975
35.8528 22.863
35.8998 22.7867
35.9468 22.7324
35.9936 22.6885
36.0406 22.5618
36.0874 22.5872
36.1345 22.5072
36.1813 22.3885
36.2283 22.3345
36.2752 22.1573
36.3222 22.3117
36.3691 22.1626
36.4161 22.0421
36.463 21.9754
36.5101 22.0004
36.557 21.934
36.6041 21.7813
36.651 21.837
36.6981 21.747
36.745 21.6998
36.7921 21.6083
36.839 21.4603
36.8861 21.5018
36.9331 21.3429
36.9802 21.262
37.0272 21.1697
37.0743 20.9994
37.1213 21.1513
37.1684 21.034
37.2154 21.0113
37.2626 20.9095
37.3098 20.859
37.3568 20.7864
37.404 20.7011
37.451 20.6517
37.4982 20.6103
37.5452 20.493
37.5924 20.414
37.6395 20.4449
37.6867 20.3512
37.7337 20.2193
37.781 20.0782
37.8281 20.1656
37.8753 19.9956
37.9224 19.9176
37.9697 19.8889
38.0168 19.8357
38.064 19.7912
38.1111 19.7459
38.1584 19.6384
38.2056 19.6732
38.2529 19.5213
38.3 19.4739
38.3473 19.4037
38.3945 19.2815
38.4418 19.3237
38.489 19.2586
38.5363 19.0991
38.5837 19.1388
38.6309 19.0253
38.6782 18.9346
38.7254 18.8774
38.7728 18.8157
38.82 18.7613
38.8674 18.6633
38.9146 18.7371
38.9621 18.5699
39.0093 18.5995
39.0567 18.5798
39.104 18.4292
39.1514 18.3314
39.1987 18.3695
39.2461 18.2966
39.2934 18.2238
39.3409 18.0502
39.3882 18.1053
39.4356 18.0554
39.483 17.9819
39.5304 17.8461
39.5778 17.8939
39.6253 17.7607
39.6726 17.7447
39.7201 17.7698
39.7675 17.6267
39.815 17.6501
39.8624 17.5522
39.9099 17.4685
39.9575 17.4184
40.0049 17.3774
40.0525 17.2874
40.0999 17.2741
40.1474 17.208
40.1949 17.1604
40.2425 17.0924
40.2899 17.0719
40.3375 16.9591
40.385 16.9393
40.4326 16.9023
40.48 16.79
40.5277 16.7815
40.5752 16.7084
40.6228 16.6056
40.6703 16.5735
40.718 16.5731
40.7655 16.5304
40.8132 16.4916
40.8607 16.4382
40.9084 16.3538
40.9559 16.3229
41.0036 16.3066
41.0512 16.1963
41.0989 16.1844
41.1465 16.0982
41.1942 16.0586
41.242 15.9713
41.2896 15.8833
41.3373 15.9435
41.3849 15.7699
41.4327 15.7453
41.4803 15.6852
41.5281 15.7152
41.5758 15.5985
41.6236 15.5404
41.6712 15.4641
41.7191 15.4844
41.7667 15.4456
41.8146 15.3705
41.8622 15.2619
41.9101 15.2901
41.9578 15.1203
42.0057 15.167
42.0534 15.0822
42.1013 15.0658
42.149 15.0081
42.1969 14.9152
42.2446 14.8927
42.2925 14.8718
42.3403 14.7933
42.3882 14.717
42.436 14.6939
42.4839 14.5728
42.5319 14.5563
42.5797 14.5604
42.6277 14.5124
42.6755 14.5031
42.7235 14.3954
42.7713 14.2881
42.8193 14.3647
42.8671 14.2529
42.9152 14.255
42.963 14.1453
43.0111 14.0544
43.0589 14.0713
43.107 13.9711
43.1549 13.9771
43.2029 13.9249
43.2508 13.8347
43.2989 13.7976
43.3468 13.7466
43.3949 13.7305
43.4429 13.6692
43.491 13.6228
43.5389 13.5786
43.5871 13.5412
43.635 13.4664
43.6832 13.4581
43.7312 13.347
43.7793 13.2916
43.8273 13.3227
43.8755 13.2311
43.9237 13.1762
43.9717 13.173
44.0199 13.107
44.068 13.0893
44.1162 13.0016
44.1642 13.0021
44.2125 12.9223
44.2606 12.881
44.3088 12.9045
44.3569 12.7817
44.4052 12.75
44.4533 12.705
44.5016 12.6748
44.5497 12.6727
44.598 12.5548
44.6461 12.5336
44.6945 12.4615
44.7426 12.4915
44.791 12.3837
44.8391 12.3721
44.8875 12.3213
44.9357 12.2963
44.984 12.2228
45.0322 12.2116
45.0806 12.1605
45.1288 12.0668
45.1773 12.0764
45.2257 12.0173
45.2739 11.9643
45.3224 11.9569
45.3706 11.9073
45.4191 11.8275
45.4673 11.8044
45.5158 11.7842
45.5641 11.7051
45.6126 11.7074
45.6609 11.634
45.7094 11.5934
45.7577 11.5503
45.8063 11.5196
45.8546 11.4516
45.9031 11.453
45.9515 11.3901
46.0001 11.3716
46.0484 11.3344
46.097 11.2847
46.1454 11.2443
46.194 11.178
46.2424 11.1499
46.291 11.129
46.3395 11.0619
46.3881 11.0069
46.4365 10.9829
46.4852 10.9654
46.5337 10.9241
46.5823 10.8767
46.631 10.8278
46.6795 10.7659
46.7282 10.7573
46.7767 10.7269
46.8254 10.6736
46.8739 10.6307
46.9226 10.5731
46.9712 10.5822
47.0199 10.5215
47.0685 10.4638
47.1173 10.448
47.1658 10.4004
47.2146 10.3722
47.2632 10.2867
47.312 10.2821
47.3606 10.2308
47.4095 10.1948
47.4581 10.1552
47.5069 10.1627
47.5556 10.0861
47.6044 10.0251
47.6531 10.0212
47.702 9.94945
47.7507 9.94508
47.7996 9.9373
47.8483 9.84546
47.8972 9.86072
47.9461 9.77663
47.9948 9.76368
48.0438 9.7035
48.0925 9.73652
48.1415 9.6574
48.1902 9.64211
48.2392 9.63976
48.288 9.5966
48.337 9.55374
48.3858 9.47598
48.4348 9.47604
48.4837 9.4122
48.5327 9.37356
48.5815 9.38821
48.6306 9.33355
48.6795 9.30767
48.7285 9.26496
48.7774 9.21691
48.8265 9.21333
48.8754 9.09953
48.9245 9.12803
48.9734 9.08535
49.0226 9.08701
49.0715 8.98869
49.1206 8.959
49.1696 8.95406
49.2188 8.87514
49.2679 8.896
49.3169 8.83659
49.3661 8.79537
49.4151 8.76991
49.4643 8.75381
49.5134 8.71546
49.5626 8.68556
49.6117 8.58819
49.6609 8.59402
49.71 8.5496
49.7592 8.54595
49.8083 8.47424
49.8576 8.47939
49.9067 8.44769
49.956 8.45507
50.0052 8.39198
50.0545 8.36914
50.1036 8.31758
50.153 8.26151
50.2022 8.24972
50.2515 8.21372
50.3007 8.18587
50.3501 8.13018
50.3993 8.11859
50.4487 8.09754
50.498 8.03178
50.5474 8.01607
50.5966 7.97347
50.6461 7.99381
50.6955 7.95498
50.7448 7.89259
50.7943 7.85016
50.8436 7.81964
50.8931 7.80601
50.9424 7.77277
50.9919 7.74768
51.0413 7.75754
51.0908 7.7004
51.1402 7.6822
51.1897 7.63035
51.2391 7.60096
51.2887 7.58399
51.3381 7.54914
51.3877 7.49102
51.4371 7.45569
51.4867 7.42998
51.5362 7.4154
51.5858 7.38406
51.6353 7.34411
51.6849 7.33177
51.7344 7.30412
51.7841 7.27019
51.8336 7.2547
51.8833 7.20392
51.9328 7.12714
51.9826 7.09626
52.0323 7.10901
52.0818 7.11344
52.1316 7.0423
52.1812 7.03071
52.231 7.00132
52.2806 6.94806
52.3304 6.92566
52.38 6.92175
52.4298 6.87783
52.4794 6.83224
52.5293 6.83893
52.5789 6.79142
52.6288 6.78244
52.6785 6.74034
52.7284 6.69174
52.7781 6.7077
52.828 6.68244
52.8777 6.63404
52.9276 6.6014
52.9774 6.56287
53.0273 6.53872
53.0771 6.53042
53.1271 6.48733
53.1769 6.42537
53.2269 6.42703
53.2767 6.42342
53.3267 6.39387
53.3765 6.33855
53.4266 6.32341
53.4766 6.30646
53.5265 6.23154
53.5765 6.24008
53.6264 6.21791
53.6765 6.21346
53.7264 6.16559
53.7765 6.173
53.8265 6.12229
53.8766 6.08931
53.9266 6.04484
53.9767 6.01465
54.0267 6.00494
54.0769 5.98477
54.1269 5.91961
54.1771 5.89689
54.2271 5.92073
54.2773 5.83714
54.3274 5.88002
54.3776 5.77569
54.4277 5.79287
54.478 5.73362
54.528 5.65091
54.5783 5.65995
54.6285 5.64622
54.6788 5.58285
54.7289 5.56293
54.7792 5.51043
54.8296 5.47899
54.8798 5.4084
54.9301 5.42418
54.9803 5.36631
55.0307 5.31953
55.0809 5.29591
55.1314 5.26571
55.1816 5.17836
55.232 5.11211
55.2823 5.16957
55.3328 5.0838
55.383 4.97992
55.4335 4.98173
55.4838 4.97766
55.5344 4.83487
55.5847 4.85344
55.6352 4.83093
55.6856 4.75079
55.7361 4.7726