File: XRD/Ni3Fe_FD0046.xy
TT I
1.27165 33.1425
1.31627 31.4881
1.36089 31.0628
1.40551 28.5658
1.45013 26.5735
1.49476 27.0324
1.53938 25.5124
1.584 24.9457
1.62863 23.7251
1.67325 22.5331
1.71787 22.2765
1.7625 22.3649
1.80712 21.2837
1.85174 21.7757
1.89636 20.8329
1.94099 21.2287
1.98562 21.186
2.03025 20.7276
2.07487 21.031
2.11949 21.1485
2.16411 20.9358
2.20874 21.5886
2.25338 21.5339
2.298 21.4981
2.34263 21.9181
2.38725 21.8441
2.43188 21.4474
2.4765 22.1661
2.52115 22.4881
2.56577 22.5394
2.6104 24.766
2.65503 25.1859
2.69965 26.4137
2.7443 28.0888
2.78893 30.3643
2.83356 32.6815
2.87818 37.2752
2.92281 41.7703
2.96744 46.9091
3.01209 55.7736
3.05672 63.4236
3.10135 73.2032
3.14599 77.4592
3.19062 76.0684
3.23527 68.2941
3.2799 57.5412
3.32454 47.552
3.36917 40.5776
3.4138 35.1229
3.45844 31.8036
3.50309 30.2926
3.54773 28.1984
3.59237 27.0899
3.637 26.41
3.68164 26.7722
3.7263 26.6886
3.77094 26.0843
3.81558 26.1192
3.86022 26.0469
3.90486 26.4638
3.9495 26.8245
3.99416 27.3076
4.0388 27.7714
4.08344 28.8533
4.12809 29.5837
4.17273 30.8295
4.21738 32.7788
4.26204 35.4552
4.30669 38.6025
4.35133 40.9973
4.39598 39.5411
4.44063 38.0694
4.4853 37.2871
4.52995 38.4814
4.5746 39.5175
4.61925 40.4321
4.6639 41.8604
4.70855 43.5114
4.75322 46.3935
4.79788 49.5742
4.84253 53.5663
4.88719 58.9878
4.93184 66.4241
4.97652 79.1625
5.02118 98.4452
5.06583 119.235
5.11049 139.795
5.15515 184.67
5.19981 300.788
5.24449 682.591
5.28916 1520.55
5.33382 3950.77
5.37848 3366.53
5.42315 895.093
5.46783 321.548
5.5125 200.724
5.55716 152.793
5.60183 126.334
5.6465 114.146
5.69117 109.262
5.73586 102.502
5.78053 98.9606
5.8252 100.434
5.86988 105.895
5.91455 117.265
5.95924 139.138
6.00392 190.886
6.0486 317.859
6.09328 545.022
6.13795 999.121
6.18263 1180.88
6.22733 548.744
6.27201 237.101
6.3167 136.375
6.36138 94.6354
6.40606 74.5183
6.45075 64.2758
6.49545 57.5144
6.54014 52.5466
6.58483 49.1882
6.62952 46.8613
6.67421 45.1901
6.71892 44.2286
6.76361 42.8802
6.8083 41.535
6.853 40.6807
6.89769 40.4746
6.94239 40.4772
6.98711 40.0783
7.03181 41.2378
7.07651 43.4308
7.12121 44.169
7.16591 42.9922
7.21063 40.7838
7.25533 39.9578
7.30004 40.1231
7.34475 39.8743
7.38945 39.6016
7.43416 39.1906
7.47889 41.3824
7.5236 55.6001
7.56831 152.676
7.61303 179.107
7.65774 67.3156
7.70247 43.7903
7.74719 39.6101
7.79191 38.4779
7.83663 37.5025
7.88135 37.8097
7.92607 37.8818
7.97081 38.3193
8.01553 39.0754
8.06026 39.7218
8.10498 40.4569
8.14971 41.8756
8.19446 43.5079
8.23919 45.13
8.28392 47.6876
8.32865 50.5783
8.37339 54.1352
8.41812 57.8562
8.46288 65.5834
8.50761 80.4105
8.55235 116.874
8.59709 180.925
8.64183 258.478
8.68658 531.832
8.73134 776.133
8.77609 426.836
8.82083 185.025
8.86558 109.76
8.91033 86.2914
8.9551 74.9088
8.99985 68.9485
9.04461 65.7619
9.08936 63.7629
9.13412 63.9513
9.17888 67.0959
9.22365 85.2147
9.26841 226.186
9.31318 335.722
9.35794 134.38
9.4027 71.4735
9.44749 61.01
9.49226 57.5429
9.53703 55.9937
9.5818 55.9314
9.62657 55.3591
9.67134 55.9855
9.71614 56.7629
9.76091 57.8339
9.80569 59.5583
9.85047 62.056
9.89525 65.6819
9.94005 71.6567
9.98484 83.5925
10.0296 113.142
10.0744 160.954
10.1192 203.491
10.164 324.982
10.2088 658.34
10.2536 697.04
10.2984 327.27
10.3432 161.677
10.388 104.191
10.4328 85.7071
10.4776 83.0452
10.5224 90.4321
10.5672 96.8635
10.612 121.464
10.6568 209.784
10.7017 281.36
10.7465 217.047
10.7913 109.844
10.8361 66.0627
10.8809 55.1954
10.9257 50.7296
10.9706 48.5092
11.0154 46.5818
11.0602 45.1726
11.105 44.1219
11.1499 42.885
11.1947 42.6107
11.2395 42.2176
11.2844 42.0439
11.3292 40.8472
11.374 39.8084
11.4189 39.3675
11.4637 38.9722
11.5086 38.4706
11.5534 38.2239
11.5983 38.2925
11.6431 38.3501
11.688 38.094
11.7328 38.2402
11.7777 38.4945
11.8225 39.039
11.8674 39.7452
11.9122 42.9947
11.9571 60.5848
12.002 110.785
12.0468 99.1374
12.0917 55.8796
12.1366 48.3149
12.1814 49.6256
12.2263 52.7064
12.2712 62.7641
12.3161 82.5473
12.3609 89.7783
12.4058 69.8455
12.4507 52.6555
12.4956 45.8586
12.5405 42.3539
12.5853 40.8345
12.6302 39.8044
12.6751 39.3004
12.72 39.27
12.7649 39.3061
12.8098 39.4595
12.8547 39.998
12.8996 40.643
12.9445 41.3073
12.9894 42.2734
13.0343 43.4393
13.0792 46.3785
13.1242 55.1317
13.1691 66.9587
13.214 66.0232
13.2589 68.0659
13.3038 72.0131
13.3487 83.8256
13.3937 120.255
13.4386 184.763
13.4835 192.223
13.5285 128.395
13.5734 93.0164
13.6183 82.2345
13.6633 79.4261
13.7082 90.401
13.7531 128.679
13.7981 186.655
13.843 163.636
13.888 97.9933
13.9329 66.4058
13.9779 55.6643
14.0228 50.8097
14.0678 48.47
14.1127 49.1441
14.1577 59.8777
14.2027 96.8253
14.2476 100.769
14.2926 61.3504
14.3376 46.9596
14.3825 43.3448
14.4275 41.9802
14.4725 41.2232
14.5175 41.1054
14.5624 40.4813
14.6074 40.2615
14.6524 40.3146
14.6974 40.4971
14.7424 41.1117
14.7874 41.7296
14.8324 43.9722
14.8774 47.6801
14.9224 50.7403
14.9674 52.5358
15.0124 57.4586
15.0574 72.7927
15.1024 101.712
15.1474 114.572
15.1924 91.2736
15.2374 65.0629
15.2824 51.1781
15.3274 45.2729
15.3725 42.861
15.4175 41.49
15.4625 40.8404
15.5076 40.1759
15.5526 40.2259
15.5976 40.0693
15.6426 40.2141
15.6877 40.5943
15.7327 41.9594
15.7778 44.5305
15.8228 47.7049
15.8679 49.1771
15.9129 52.0908
15.958 61.6189
16.003 81.9325
16.0481 107.118
16.0931 106.771
16.1382 87.3782
16.1833 64.5695
16.2283 47.2295
16.2734 40.8524
16.3185 38.5111
16.3636 36.9076
16.4086 35.7198
16.4537 35.1414
16.4988 34.4865
16.5439 34.3632
16.589 34.0333
16.6341 33.6411
16.6792 33.2064
16.7243 33.3815
16.7694 33.4363
16.8145 33.2383
16.8596 33.2834
16.9047 33.8804
16.9498 36.0824
16.9949 41.6449
17.04 42.8915
17.0851 37.2718
17.1302 34.7135
17.1754 34.5458
17.2205 35.0965
17.2656 35.4997
17.3108 36.0796
17.3559 37.002
17.401 39.6985
17.4462 45.0075
17.4913 49.1013
17.5365 46.1451
17.5815 40.502
17.6268 37.546
17.6718 36.5278
17.7171 36.4776
17.7622 37.2662
17.8074 41.2078
17.8525 44.7682
17.8977 43.2944
17.9428 40.8592
17.9881 41.276
18.0331 43.1705
18.0784 43.3987
18.1237 45.0158
18.1688 49.324
18.214 59.6821
18.2591 77.532
18.3044 87.5129
18.3495 75.2145
18.3948 58.9542
18.4399 52.9374
18.4852 55.5465
18.5303 63.6562
18.5756 66.2932
18.6207 59.7812
18.666 51.2421
18.7112 44.1854
18.7565 39.4186
18.8016 37.9238
18.8469 36.9168
18.892 36.2468
18.9374 35.6752
18.9825 35.5159
19.0278 35.1499
19.073 35.0786
19.1183 34.8618
19.1635 34.8716
19.2088 35.3001
19.254 36.0241
19.2993 36.5939
19.3447 39.6461
19.3898 46.4657
19.4352 50.3006
19.4804 46.7006
19.5257 45.1977
19.5709 45.5834
19.6163 43.1782
19.6615 38.673
19.7068 35.7032
19.752 34.257
19.7974 33.5861
19.8426 33.2274
19.888 32.9581
19.9332 32.9507
19.9786 33.3245
20.0238 33.4841
20.0692 33.4772
20.1144 33.8795
20.1598 35.0617
20.205 37.2043
20.2504 40.8467
20.2957 43.3703
20.3411 42.2481
20.3863 38.8948
20.4318 37.657
20.477 39.184
20.5224 41.3013
20.5677 40.4193
20.6131 36.6398
20.6586 33.8151
20.7038 32.4941
20.7493 31.8657
20.7945 32.3363
20.84 34.6254
20.8853 35.7683
20.9307 33.6865
20.976 31.3229
21.0215 30.1869
21.0668 30.0809
21.1122 30.0148
21.1575 29.9155
21.203 29.894
21.2483 29.7484
21.2938 29.9808
21.3391 30.2013
21.3846 30.8382
21.4299 31.8502
21.4754 32.281
21.5207 32.0216
21.5662 31.6119
21.6116 31.0929
21.6571 30.3595
21.7024 30.3579
21.7479 30.7605
21.7933 31.1721
21.8388 31.1876
21.8843 31.7096
21.9297 32.2358
21.9752 33.2915
22.0206 35.2371
22.0661 38.3788
22.1115 41.7422
22.157 42.3338
22.2024 41.1538
22.248 39.6586
22.2933 38.4204
22.3389 37.1976
22.3843 35.7131
22.4299 33.6341
22.4753 32.1017
22.5208 31.2139
22.5662 30.7456
22.6118 30.6585
22.6572 30.5031
22.7028 30.4658
22.7483 30.5789
22.7939 30.8844
22.8393 31.8736
22.8849 32.7039
22.9303 32.4197
22.9759 31.8733
23.0214 31.7229
23.067 32.5885
23.1126 34.1465
23.1581 36.7518
23.2037 38.3977
23.2492 36.9937
23.2948 34.1996
23.3403 32.4233
23.3859 31.8837
23.4314 32.1036
23.477 33.3791
23.5225 34.4421
23.5682 34.0788
23.6137 32.8347
23.6593 32.3693
23.7048 33.4358
23.7505 35.5183
23.796 38.1789
23.8417 38.695
23.8872 36.0213
23.9329 33.0015
23.9784 30.7822
24.0241 30.0407
24.0697 29.6117
24.1154 29.4215
24.1609 29.3823
24.2066 28.7487
24.2522 28.2713
24.2979 27.9189
24.3434 27.7403
24.3892 27.3728
24.4349 27.3996
24.4805 27.2454
24.5262 27.2792
24.5718 27.2095
24.6175 27.0066
24.6631 27.3485
24.7089 28.055
24.7545 28.5699
24.8002 28.1907
24.8458 27.4682
24.8916 27.1299
24.9372 26.7388
24.983 26.8549
25.0286 26.7911
25.0744 26.6355
25.12 26.7306
25.1658 26.8072
25.2114 26.9284
25.2572 27.2798
25.3029 27.8538
25.3487 28.4957
25.3943 28.9157
25.4402 28.7378
25.4858 28.8396
25.5316 29.0446
25.5773 29.6693
25.6231 29.6637
25.669 28.3952
25.7147 27.5359
25.7605 26.6292
25.8062 26.4506
25.8521 26.6399
25.8977 26.8867
25.9436 26.9003
25.9893 26.3957
26.0352 26.0535
26.0809 25.8155
26.1268 25.8655
26.1725 25.8827
26.2184 26.0609
26.2641 26.448
26.31 27.0165
26.3557 27.3898
26.4017 27.0924
26.4474 26.6535
26.4933 26.3949
26.5391 26.0528
26.585 25.8982
26.6308 25.844
26.6767 25.9877
26.7225 26.0971
26.7684 26.4038
26.8142 26.8807
26.8601 27.6253
26.9059 28.2455
26.9519 28.2247
26.9979 28.2217
27.0437 28.1227
27.0896 27.6774
27.1354 26.9066
27.1814 26.0328
27.2272 25.6404
27.2732 25.4281
27.3191 25.0676
27.3651 24.9659
27.4109 24.8827
27.4569 24.763
27.5027 24.8993
27.5488 24.9303
27.5946 24.8942
27.6407 24.8295
27.6865 24.9653
27.7326 24.9661
27.7784 25.2752
27.8245 25.2128
27.8703 25.0517
27.9164 24.8895
27.9623 24.6542
28.0084 24.7344
28.0543 25.098
28.1003 25.3806
28.1462 25.548
28.1923 25.4881
28.2384 25.4225
28.2843 26.0498
28.3304 26.2453
28.3764 26.106
28.4225 25.6812
28.4684 25.4528
28.5145 25.0997
28.5605 24.7973
28.6066 24.5223
28.6526 24.2192
28.6987 23.8139
28.7447 23.5591
28.7908 23.2315
28.8368 23.138
28.8829 23.0102
28.9289 23.0157
28.9751 22.7773
29.0211 22.8678
29.0673 22.8253
29.1133 22.9445
29.1595 23.0267
29.2055 23.0946
29.2517 22.8064
29.2977 22.535
29.3439 22.2701
29.3899 22.2436
29.4361 22.1439
29.4824 22.024
29.5284 22.1314
29.5746 22.0476
29.6207 22.0627
29.6669 22.2002
29.713 22.265
29.7593 21.9582
29.8053 21.8553
29.8516 21.6249
29.8977 21.575
29.9439 21.3607
29.99 21.2629
30.0363 21.1987
30.0824 21.3837
30.1287 21.4372
30.1748 21.495
30.2211 21.4139
30.2673 21.198
30.3136 21.1531
30.3597 21.0411
30.406 21.0579
30.4522 21.1693
30.4985 21.148
30.5447 21.1631
30.591 21.0948
30.6372 20.9254
30.6835 20.9122
30.7297 20.877
30.7761 20.9506
30.8224 21.0286
30.8686 21.0657
30.915 21.173
30.9612 21.458
31.0076 21.5327
31.0538 21.505
31.1002 21.357
31.1464 21.2578
31.1928 21.219
31.2391 20.9611
31.2855 20.6706
31.3317 20.5629
31.3781 20.4469
31.4244 20.4497
31.4708 20.3019
31.5171 20.2617
31.5636 20.3975
31.6098 20.3957
31.6563 20.4683
31.7026 20.4673
31.7491 20.4935
31.7953 20.5978
31.8418 20.4668
31.8881 20.3117
31.9346 20.1542
31.9809 19.9763
32.0275 19.9378
32.074 19.9733
32.1203 20.0771
32.1668 20.0412
32.2132 20.0421
32.2597 20.1291
32.306 20.0257
32.3526 19.8205
32.399 19.7703
32.4455 19.578
32.4919 19.4523
32.5385 19.2782
32.5848 19.1377
32.6314 19.1752
32.6778 19.0164
32.7244 18.8876
32.7708 18.8085
32.8174 18.7745
32.8638 18.7889
32.9104 18.739
32.9569 18.8176
33.0035 18.7345
33.0499 18.7818
33.0966 18.5972
33.143 18.5995
33.1897 18.4608
33.2361 18.3867
33.2828 18.3552
33.3293 18.311
33.3759 18.4126
33.4226 18.3586
33.4691 18.4102
33.5158 18.4174
33.5623 18.3709
33.609 18.253
33.6555 18.2393
33.7022 18.1101
33.7487 17.9098
33.7954 17.8108
33.842 17.7206
33.8887 17.7214
33.9353 17.652
33.982 17.6311
34.0286 17.6255
34.0753 17.534
34.1219 17.4101
34.1687 17.4589
34.2152 17.3754
34.262 17.3244
34.3086 17.1725
34.3554 17.1277
34.402 17.028
34.4488 17.0063
34.4954 16.9324
34.5422 16.9263
34.5889 16.7764
34.6357 16.8895
34.6825 16.8302
34.7292 16.7743
34.776 16.6408
34.8227 16.6173
34.8695 16.637
34.9162 16.5527
34.9631 16.4273
35.0098 16.4027
35.0566 16.3079
35.1033 16.2804
35.1502 16.2138
35.1969 16.2363
35.2438 16.2451
35.2906 16.1589
35.3375 16.2408
35.3842 16.1585
35.4311 15.9968
35.4779 16.0845
35.5248 16.1078
35.5716 16.0225
35.6185 16.0901
35.6653 16.127
35.7123 16.0623
35.759 16.0808
35.806 15.9876
35.8528 15.9694
35.8998 15.8526
35.9468 15.7644
35.9936 15.7877
36.0406 15.6166
36.0874 15.6446
36.1345 15.534
36.1813 15.455
36.2283 15.4643
36.2752 15.3721
36.3222 15.3345
36.3691 15.3115
36.4161 15.2621
36.463 15.2763
36.5101 15.297
36.557 15.2821
36.6041 15.1109
36.651 15.0833
36.6981 15.05
36.745 15.0188
36.7921 14.9896
36.839 14.892
36.8861 14.8416
36.9331 14.8131
36.9802 14.8687
37.0272 14.716
37.0743 14.6564
37.1213 14.6345
37.1684 14.6191
37.2154 14.5312
37.2626 14.4752
37.3098 14.4377
37.3568 14.3677
37.404 14.3308
37.451 14.2344
37.4982 14.2194
37.5452 14.2269
37.5924 14.1572
37.6395 14.2015
37.6867 14.1354
37.7337 14.0153
37.781 13.9984
37.8281 14.014
37.8753 13.83
37.9224 13.8519
37.9697 13.8494
38.0168 13.7309
38.064 13.7442
38.1111 13.7557
38.1584 13.6591
38.2056 13.6296
38.2529 13.5651
38.3 13.5195
38.3473 13.462
38.3945 13.3945
38.4418 13.3625
38.489 13.3656
38.5363 13.3488
38.5837 13.2489
38.6309 13.2867
38.6782 13.2155
38.7254 13.1439
38.7728 13.0647
38.82 13.0566
38.8674 13.0694
38.9146 13.0549
38.9621 12.9756
39.0093 12.9993
39.0567 12.9661
39.104 12.8935
39.1514 12.8071
39.1987 12.8057
39.2461 12.6734
39.2934 12.6636
39.3409 12.6501
39.3882 12.6221
39.4356 12.6259
39.483 12.5029
39.5304 12.5348
39.5778 12.4793
39.6253 12.4461
39.6726 12.3601
39.7201 12.3982
39.7675 12.3381
39.815 12.3068
39.8624 12.1832
39.9099 12.1998
39.9575 12.1497
40.0049 12.0735
40.0525 12.1687
40.0999 12.0868
40.1474 12.0075
40.1949 12.0107
40.2425 11.9822
40.2899 11.9619
40.3375 11.8734
40.385 11.8522
40.4326 11.8042
40.48 11.7439
40.5277 11.7766
40.5752 11.7515
40.6228 11.6937
40.6703 11.7096
40.718 11.618
40.7655 11.5881
40.8132 11.5508
40.8607 11.5826
40.9084 11.5006
40.9559 11.4586
41.0036 11.4604
41.0512 11.4081
41.0989 11.3966
41.1465 11.3409
41.1942 11.2893
41.242 11.2658
41.2896 11.2239
41.3373 11.1306
41.3849 11.1706
41.4327 11.1131
41.4803 11.0472
41.5281 11.0557
41.5758 10.9899
41.6236 10.9408
41.6712 10.9592
41.7191 10.8939
41.7667 10.8146
41.8146 10.848
41.8622 10.7744
41.9101 10.7376
41.9578 10.7254
42.0057 10.7132
42.0534 10.7136
42.1013 10.6691
42.149 10.6154
42.1969 10.5755
42.2446 10.526
42.2925 10.4831
42.3403 10.4153
42.3882 10.4284
42.436 10.3689
42.4839 10.3185
42.5319 10.3248
42.5797 10.277
42.6277 10.2359
42.6755 10.1991
42.7235 10.1867
42.7713 10.139
42.8193 10.0759
42.8671 10.0781
42.9152 10.0298
42.963 9.97938
43.0111 9.95036
43.0589 9.89646
43.107 9.91086
43.1549 9.83526
43.2029 9.83236
43.2508 9.78291
43.2989 9.77001
43.3468 9.71343
43.3949 9.71442
43.4429 9.64595
43.491 9.65042
43.5389 9.6232
43.5871 9.52468
43.635 9.53119
43.6832 9.53362
43.7312 9.47753
43.7793 9.44333
43.8273 9.44174
43.8755 9.3528
43.9237 9.34383
43.9717 9.34504
44.0199 9.29707
44.068 9.29654
44.1162 9.22593
44.1642 9.24556
44.2125 9.19038
44.2606 9.1418
44.3088 9.12937
44.3569 9.10113
44.4052 9.0383
44.4533 8.96896
44.5016 8.96307
44.5497 8.96339
44.598 8.92944
44.6461 8.90068
44.6945 8.84939
44.7426 8.8422
44.791 8.80777
44.8391 8.76744
44.8875 8.75393
44.9357 8.72715
44.984 8.7083
45.0322 8.6377
45.0806 8.63139
45.1288 8.58911
45.1773 8.56756
45.2257 8.53924
45.2739 8.51252
45.3224 8.51465
45.3706 8.45598
45.4191 8.43223
45.4673 8.41686
45.5158 8.35961
45.5641 8.33419
45.6126 8.31185
45.6609 8.289
45.7094 8.28767
45.7577 8.26081
45.8063 8.19502
45.8546 8.17999
45.9031 8.18657
45.9515 8.13779
46.0001 8.12666
46.0484 8.1164
46.097 8.04547
46.1454 8.03152
46.194 8.0141
46.2424 7.9713
46.291 7.92413
46.3395 7.91243
46.3881 7.8774
46.4365 7.86853
46.4852 7.86045
46.5337 7.78946
46.5823 7.7985
46.631 7.74472
46.6795 7.72341
46.7282 7.68741
46.7767 7.68268
46.8254 7.60726
46.8739 7.60094
46.9226 7.56961
46.9712 7.5281
47.0199 7.53335
47.0685 7.50106
47.1173 7.49771
47.1658 7.45952
47.2146 7.40292
47.2632 7.35746
47.312 7.36871
47.3606 7.31412
47.4095 7.30074
47.4581 7.31131
47.5069 7.28713
47.5556 7.2194
47.6044 7.19999
47.6531 7.20517
47.702 7.1504
47.7507 7.15055
47.7996 7.08571
47.8483 7.06394
47.8972 7.06206
47.9461 7.02403
47.9948 7.01361
48.0438 6.99139
48.0925 6.97647
48.1415 6.95418
48.1902 6.90894
48.2392 6.91594
48.288 6.88542
48.337 6.83567
48.3858 6.79744
48.4348 6.79418
48.4837 6.77967
48.5327 6.74715
48.5815 6.70714
48.6306 6.71182
48.6795 6.66026
48.7285 6.6395
48.7774 6.6402
48.8265 6.60025
48.8754 6.59393
48.9245 6.55892
48.9734 6.53292
49.0226 6.55439
49.0715 6.52044
49.1206 6.4752
49.1696 6.43181
49.2188 6.40012
49.2679 6.37912
49.3169 6.36151
49.3661 6.34951
49.4151 6.3378
49.4643 6.2863
49.5134 6.28674
49.5626 6.23398
49.6117 6.21408
49.6609 6.20928
49.71 6.1841
49.7592 6.13889
49.8083 6.11987
49.8576 6.13002
49.9067 6.08336
49.956 6.0706
50.0052 6.0368
50.0545 6.03029
50.1036 6.01917
50.153 5.99996
50.2022 5.96562
50.2515 5.97549
50.3007 5.91725
50.3501 5.88373
50.3993 5.88376
50.4487 5.84711
50.498 5.84592
50.5474 5.82177
50.5966 5.83128
50.6461 5.79898
50.6955 5.7653
50.7448 5.7118
50.7943 5.73651
50.8436 5.71296
50.8931 5.65751
50.9424 5.63545
50.9919 5.66163
51.0413 5.61895
51.0908 5.60003
51.1402 5.60279
51.1897 5.55666
51.2391 5.54007
51.2887 5.5219
51.3381 5.50523
51.3877 5.48198
51.4371 5.42791
51.4867 5.42526
51.5362 5.37845
51.5858 5.34802
51.6353 5.34733
51.6849 5.31339
51.7344 5.28883
51.7841 5.31663
51.8336 5.27497
51.8833 5.23313
51.9328 5.22372
51.9826 5.21164
52.0323 5.18164
52.0818 5.17379
52.1316 5.11789
52.1812 5.09216
52.231 5.10991
52.2806 5.0772
52.3304 5.08888
52.38 5.02745
52.4298 5.03237
52.4794 5.05028
52.5293 4.96936
52.5789 4.956
52.6288 4.94996
52.6785 4.9411
52.7284 4.94989
52.7781 4.92492
52.828 4.86494
52.8777 4.86767
52.9276 4.8645
52.9774 4.8434
53.0273 4.82092
53.0771 4.80492
53.1271 4.76251
53.1769 4.74976
53.2269 4.7078
53.2767 4.7262
53.3267 4.69133
53.3765 4.66979
53.4266 4.68764
53.4766 4.63504
53.5265 4.62297
53.5765 4.63273
53.6264 4.54875
53.6765 4.53981
53.7264 4.51793
53.7765 4.50769
53.8265 4.48322
53.8766 4.43209
53.9266 4.43617
53.9767 4.39341
54.0267 4.4045
54.0769 4.35495
54.1269 4.31738
54.1771 4.28966
54.2271 4.29227
54.2773 4.25818
54.3274 4.21544
54.3776 4.20642
54.4277 4.19476
54.478 4.14688
54.528 4.15409
54.5783 4.0581
54.6285 4.10323
54.6788 3.9921
54.7289 3.98316
54.7792 3.98413
54.8296 3.87495
54.8798 3.91285
54.9301 3.84825
54.9803 3.82368
55.0307 3.875
55.0809 3.8136
55.1314 3.78291
55.1816 3.72183
55.232 3.67507
55.2823 3.64699
55.3328 3.60527
55.383 3.58089
55.4335 3.55159
55.4838 3.47437
55.5344 3.41938
55.5847 3.44695
55.6352 3.44941
55.6856 3.42317
55.7361 3.41067