File: XRD/Ni3Fe_FD0382.xy
TT I
1.27165 7.07934
1.31627 6.73333
1.36089 6.31532
1.40551 6.57535
1.45013 6.27128
1.49476 6.02978
1.53938 5.89752
1.584 5.06725
1.62863 5.3709
1.67325 5.46155
1.71787 5.12586
1.7625 5.27333
1.80712 4.85502
1.85174 4.81853
1.89636 4.6981
1.94099 4.68224
1.98562 5.09457
2.03025 4.62735
2.07487 4.37304
2.11949 4.83427
2.16411 4.67468
2.20874 13.3784
2.25338 20.0471
2.298 6.1183
2.34263 4.69286
2.38725 4.49088
2.43188 5.34675
2.4765 5.83036
2.52115 6.21806
2.56577 6.70549
2.6104 7.73904
2.65503 7.01632
2.69965 7.76471
2.7443 7.3875
2.78893 7.55018
2.83356 8.36189
2.87818 8.25289
2.92281 8.44876
2.96744 9.1091
3.01209 10.6802
3.05672 11.4764
3.10135 11.816
3.14599 12.9202
3.19062 13.9622
3.23527 14.8959
3.2799 15.4896
3.32454 16.7915
3.36917 18.1666
3.4138 19.1997
3.45844 20.0417
3.50309 21.1365
3.54773 22.0076
3.59237 24.1397
3.637 86.7706
3.68164 55.3286
3.7263 26.6043
3.77094 26.327
3.81558 27.0742
3.86022 27.4524
3.90486 29.3053
3.9495 30.0859
3.99416 31.5895
4.0388 32.5305
4.08344 34.1675
4.12809 35.2483
4.17273 37.7074
4.21738 43.7675
4.26204 230.121
4.30669 200.763
4.35133 49.035
4.39598 45.1778
4.44063 53.5128
4.4853 64.2304
4.52995 52.8749
4.5746 52.795
4.61925 55.0083
4.6639 56.3808
4.70855 59.686
4.75322 62.0792
4.79788 65.213
4.84253 68.5876
4.88719 73.3711
4.93184 76.7771
4.97652 82.7429
5.02118 89.7879
5.06583 98.6026
5.11049 112.562
5.15515 183.079
5.19981 468.066
5.24449 3261.65
5.28916 11427.1
5.33382 3552.67
5.37848 226.661
5.42315 139.674
5.46783 120.933
5.5125 111.329
5.55716 106.373
5.60183 101.442
5.6465 99.9316
5.69117 97.2065
5.73586 95.1103
5.78053 95.7833
5.8252 95.8394
5.86988 96.5805
5.91455 98.8515
5.95924 110.468
6.00392 256.273
6.0486 1146.94
6.09328 3976.77
6.13795 3527.94
6.18263 307.82
6.22733 100.818
6.27201 87.0618
6.3167 102.099
6.36138 81.9813
6.40606 71.4562
6.45075 69.4121
6.49545 67.2386
6.54014 65.5361
6.58483 64.4337
6.62952 64.2238
6.67421 91.8532
6.71892 136.585
6.76361 68.9932
6.8083 60.1205
6.853 58.9468
6.89769 58.1264
6.94239 57.5694
6.98711 57.1348
7.03181 56.5934
7.07651 56.3359
7.12121 56.2636
7.16591 56.7894
7.21063 56.9161
7.25533 70.6797
7.30004 168.25
7.34475 89.0666
7.38945 57.7117
7.43416 55.7305
7.47889 55.4377
7.5236 56.1829
7.56831 56.953
7.61303 58.2671
7.65774 58.4213
7.70247 57.295
7.74719 57.5897
7.79191 58.0392
7.83663 58.1532
7.88135 59.2619
7.92607 59.9532
7.97081 61.1249
8.01553 62.5614
8.06026 63.9114
8.10498 65.4697
8.14971 74.5752
8.19446 73.8386
8.23919 71.3838
8.28392 73.6053
8.32865 76.3366
8.37339 80.5015
8.41812 87.6443
8.46288 116.727
8.50761 186.773
8.55235 448.196
8.59709 1169.6
8.64183 2070.57
8.68658 1163.72
8.73134 195.916
8.77609 105.002
8.82083 96.6169
8.86558 92.6462
8.91033 92.8497
8.9551 93.4943
8.99985 87.3545
9.04461 85.7718
9.08936 85.211
9.13412 84.0964
9.17888 84.0483
9.22365 84.6835
9.26841 84.0382
9.31318 85.3501
9.35794 85.0416
9.4027 85.4225
9.44749 86.0643
9.49226 86.6187
9.53703 87.7229
9.5818 90.1792
9.62657 94.4427
9.67134 100.451
9.71614 96.2337
9.76091 96.6611
9.80569 99.615
9.85047 102.752
9.89525 125.307
9.94005 139.5
9.98484 197.799
10.0296 395.144
10.0744 827.095
10.1192 1612.36
10.164 1719.45
10.2088 512.32
10.2536 143.055
10.2984 117.463
10.3432 117.784
10.388 108.409
10.4328 126.246
10.4776 175.493
10.5224 287.158
10.5672 481.146
10.612 521.742
10.6568 231.548
10.7017 102.236
10.7465 89.6618
10.7913 85.7883
10.8361 83.0315
10.8809 80.8908
10.9257 80.1552
10.9706 80.632
11.0154 76.9602
11.0602 74.5915
11.105 73.6419
11.1499 77.412
11.1947 84.063
11.2395 75.7727
11.2844 72.0447
11.3292 68.8893
11.374 67.7387
11.4189 67.5681
11.4637 66.6378
11.5086 67.0373
11.5534 69.7714
11.5983 67.0878
11.6431 65.4942
11.688 64.4345
11.7328 64.3756
11.7777 64.6284
11.8225 64.2702
11.8674 63.6574
11.9122 64.2783
11.9571 64.6335
12.002 65.3473
12.0468 70.6636
12.0917 83.5766
12.1366 106.51
12.1814 149.2
12.2263 197.744
12.2712 179.651
12.3161 106.51
12.3609 72.7604
12.4058 66.4644
12.4507 65.9612
12.4956 65.9453
12.5405 66.2992
12.5853 67.1554
12.6302 74.1812
12.6751 79.431
12.72 71.241
12.7649 69.3596
12.8098 70.1913
12.8547 71.5766
12.8996 72.6422
12.9445 74.1139
12.9894 76.1382
13.0343 77.8936
13.0792 81.55
13.1242 92.6445
13.1691 120.544
13.214 159.109
13.2589 239.556
13.3038 351.919
13.3487 424.11
13.3937 296.83
13.4386 141.209
13.4835 112.743
13.5285 129.842
13.5734 165.545
13.6183 240.767
13.6633 327.676
13.7082 347.262
13.7531 211.564
13.7981 106.775
13.843 84.8646
13.888 82.0141
13.9329 79.4319
13.9779 77.8279
14.0228 76.3977
14.0678 74.9475
14.1127 74.5447
14.1577 74.4382
14.2027 73.5165
14.2476 72.3626
14.2926 72.6652
14.3376 73.276
14.3825 72.1934
14.4275 70.4718
14.4725 70.6366
14.5175 70.7357
14.5624 70.7426
14.6074 72.8106
14.6524 73.4431
14.6974 72.3526
14.7424 74.3661
14.7874 82.4572
14.8324 94.39
14.8774 115.241
14.9224 152.039
14.9674 197.535
15.0124 218.004
15.0574 163.884
15.1024 98.8984
15.1474 75.2246
15.1924 72.6679
15.2374 72.9043
15.2824 71.9
15.3274 70.0028
15.3725 68.8327
15.4175 68.3029
15.4625 67.8492
15.5076 68.1101
15.5526 68.1408
15.5976 67.717
15.6426 69.0212
15.6877 75.4859
15.7327 84.2896
15.7778 99.0829
15.8228 126.497
15.8679 163.406
15.9129 187.995
15.958 166.889
16.003 106.814
16.0481 72.075
16.0931 66.527
16.1382 64.5508
16.1833 62.2984
16.2283 60.6239
16.2734 60.0025
16.3185 60.1169
16.3636 60.6069
16.4086 59.1667
16.4537 57.6707
16.4988 56.9612
16.5439 57.1865
16.589 56.7332
16.6341 56.4194
16.6792 56.0392
16.7243 56.4574
16.7694 56.2885
16.8145 56.1146
16.8596 56.769
16.9047 58.2124
16.9498 58.1739
16.9949 57.1563
17.04 57.4508
17.0851 58.9457
17.1302 60.6602
17.1754 63.7621
17.2205 68.4138
17.2656 74.6364
17.3108 81.9962
17.3559 83.5791
17.401 74.4833
17.4462 64.9732
17.4913 60.8218
17.5365 60.5731
17.5815 61.1198
17.6268 61.2755
17.6718 61.8727
17.7171 62.3555
17.7622 62.9271
17.8074 63.4503
17.8525 66.4478
17.8977 71.2833
17.9428 77.1392
17.9881 85.6761
18.0331 100.592
18.0784 118.977
18.1237 136.653
18.1688 136.278
18.214 112.512
18.2591 91.4011
18.3044 91.9843
18.3495 99.0028
18.3948 105.735
18.4399 99.9101
18.4852 82.4744
18.5303 68.7873
18.5756 64.2349
18.6207 62.9531
18.666 62.2507
18.7112 61.3244
18.7565 60.5939
18.8016 60.2863
18.8469 59.5856
18.892 59.2946
18.9374 58.8554
18.9825 58.7729
19.0278 58.3485
19.073 58.7009
19.1183 59.1873
19.1635 60.2777
19.2088 61.5611
19.254 63.7855
19.2993 67.4539
19.3447 72.5641
19.3898 76.7253
19.4352 74.9171
19.4804 66.3999
19.5257 59.2083
19.5709 55.8305
19.6163 55.4573
19.6615 55.1735
19.7068 54.8036
19.752 54.9814
19.7974 55.1601
19.8426 56.3765
19.888 56.6595
19.9332 58.128
19.9786 60.3329
20.0238 63.4626
20.0692 67.2943
20.1144 70.673
20.1598 70.9375
20.205 66.4149
20.2504 63.8854
20.2957 64.5333
20.3411 66.2654
20.3863 65.9918
20.4318 61.0792
20.477 55.9881
20.5224 53.231
20.5677 52.4321
20.6131 51.6108
20.6586 51.0978
20.7038 50.9574
20.7493 50.3836
20.7945 50.393
20.84 50.154
20.8853 50.1005
20.9307 49.8505
20.976 50.1426
21.0215 50.0636
21.0668 50.4951
21.1122 50.8312
21.1575 51.3732
21.203 51.96
21.2483 52.4813
21.2938 52.7807
21.3391 51.8138
21.3846 50.5513
21.4299 49.893
21.4754 49.6263
21.5207 49.8883
21.5662 50.1977
21.6116 50.7568
21.6571 51.5771
21.7024 52.4102
21.7479 54.0739
21.7933 56.5621
21.8388 59.7407
21.8843 63.0028
21.9297 65.4565
21.9752 65.4964
22.0206 62.1929
22.0661 58.5204
22.1115 57.1827
22.157 57.4727
22.2024 56.0789
22.248 53.3562
22.2933 51.6303
22.3389 50.5775
22.3843 50.3097
22.4299 50.2017
22.4753 50.292
22.5208 49.8309
22.5662 49.7274
22.6118 50.0729
22.6572 50.432
22.7028 50.6045
22.7483 51.2284
22.7939 51.9269
22.8393 53.5149
22.8849 55.0793
22.9303 57.0855
22.9759 58.6573
23.0214 58.6907
23.067 56.5403
23.1126 53.1674
23.1581 50.8693
23.2037 50.1899
23.2492 50.1818
23.2948 50.3199
23.3403 50.6738
23.3859 51.4282
23.4314 52.1811
23.477 53.8101
23.5225 55.606
23.5682 57.3342
23.6137 58.7438
23.6593 57.4803
23.7048 53.9858
23.7505 50.1394
23.796 47.9502
23.8417 47.2078
23.8872 46.7375
23.9329 46.5635
23.9784 46.0655
24.0241 45.9056
24.0697 45.6506
24.1154 45.355
24.1609 45.1866
24.2066 45.0205
24.2522 45.0046
24.2979 44.5681
24.3434 44.5474
24.3892 44.4019
24.4349 44.149
24.4805 44.1038
24.5262 44.1734
24.5718 43.9611
24.6175 44.1825
24.6631 44.0179
24.7089 43.7977
24.7545 43.5566
24.8002 43.328
24.8458 43.4154
24.8916 43.2134
24.9372 43.3068
24.983 43.6624
25.0286 44.1441
25.0744 44.4025
25.12 44.8108
25.1658 45.5038
25.2114 45.8329
25.2572 45.9383
25.3029 46.0069
25.3487 45.8762
25.3943 45.8542
25.4402 45.0118
25.4858 43.7881
25.5316 42.8176
25.5773 42.1198
25.6231 42.1825
25.669 41.6242
25.7147 41.6515
25.7605 41.6325
25.8062 41.5374
25.8521 41.8257
25.8977 41.7368
25.9436 41.9309
25.9893 41.9564
26.0352 42.4572
26.0809 42.4238
26.1268 42.8247
26.1725 42.4357
26.2184 42.0849
26.2641 41.5661
26.31 41.2621
26.3557 41.3598
26.4017 41.2736
26.4474 41.5667
26.4933 41.8474
26.5391 42.2993
26.585 42.6402
26.6308 43.0035
26.6767 43.0808
26.7225 43.1518
26.7684 42.7509
26.8142 42.1405
26.8601 41.457
26.9059 41.1744
26.9519 40.6206
26.9979 40.3635
27.0437 39.9013
27.0896 39.7136
27.1354 39.8233
27.1814 39.6719
27.2272 39.5543
27.2732 39.5926
27.3191 39.3681
27.3651 39.5355
27.4109 39.4787
27.4569 39.4815
27.5027 39.5324
27.5488 39.5551
27.5946 39.4621
27.6407 39.2495
27.6865 39.1188
27.7326 38.839
27.7784 38.9292
27.8245 38.7329
27.8703 39.0129
27.9164 39.3153
27.9623 39.3606
28.0084 39.6713
28.0543 39.9663
28.1003 40.0703
28.1462 39.8828
28.1923 39.5185
28.2384 39.0924
28.2843 38.6774
28.3304 38.3406
28.3764 37.8013
28.4225 37.4128
28.4684 37.2694
28.5145 36.9099
28.5605 36.8822
28.6066 36.6956
28.6526 36.6065
28.6987 36.6333
28.7447 36.3389
28.7908 36.3431
28.8368 36.4661
28.8829 36.3488
28.9289 36.3414
28.9751 36.0732
29.0211 35.8601
29.0673 35.6751
29.1133 35.551
29.1595 35.3561
29.2055 35.2227
29.2517 35.2342
29.2977 35.1094
29.3439 35.1262
29.3899 34.9746
29.4361 34.8838
29.4824 34.909
29.5284 34.7019
29.5746 34.3989
29.6207 34.1241
29.6669 33.9559
29.713 33.92
29.7593 33.7832
29.8053 33.7716
29.8516 33.6561
29.8977 33.658
29.9439 33.475
29.99 33.5006
30.0363 33.332
30.0824 33.3635
30.1287 33.2554
30.1748 33.2551
30.2211 33.2377
30.2673 33.1764
30.3136 33.2359
30.3597 33.1101
30.406 33.0641
30.4522 32.84
30.4985 33.0046
30.5447 33.0968
30.591 32.9644
30.6372 33.0137
30.6835 32.9885
30.7297 33.0099
30.7761 33.01
30.8224 32.8664
30.8686 32.7454
30.915 32.4878
30.9612 32.3476
31.0076 32.1323
31.0538 32.0456
31.1002 31.8707
31.1464 31.8482
31.1928 31.7281
31.2391 31.7691
31.2855 31.7006
31.3317 31.5862
31.3781 31.7486
31.4244 31.6938
31.4708 31.5637
31.5171 31.5764
31.5636 31.5352
31.6098 31.345
31.6563 31.1695
31.7026 31.1427
31.7491 30.901
31.7953 30.9046
31.8418 30.8794
31.8881 30.9411
31.9346 30.8635
31.9809 30.8848
32.0275 30.7049
32.074 30.6147
32.1203 30.4701
32.1668 30.3908
32.2132 30.1656
32.2597 30.0477
32.306 29.9427
32.3526 29.7217
32.399 29.8314
32.4455 29.486
32.4919 29.437
32.5385 29.3968
32.5848 29.2183
32.6314 29.2301
32.6778 29.2275
32.7244 29.0777
32.7708 28.8872
32.8174 28.9412
32.8638 28.7915
32.9104 28.8294
32.9569 28.7741
33.0035 28.5966
33.0499 28.6239
33.0966 28.5568
33.143 28.5421
33.1897 28.3947
33.2361 28.2678
33.2828 28.346
33.3293 28.091
33.3759 28.1591
33.4226 27.9922
33.4691 27.9235
33.5158 27.7644
33.5623 27.5334
33.609 27.4907
33.6555 27.3495
33.7022 27.3429
33.7487 27.1496
33.7954 27.1458
33.842 27.248
33.8887 26.991
33.9353 26.9561
33.982 26.8719
34.0286 26.866
34.0753 26.6045
34.1219 26.6495
34.1687 26.5656
34.2152 26.5223
34.262 26.2522
34.3086 26.251
34.3554 26.2751
34.402 26.1468
34.4488 25.9012
34.4954 26.018
34.5422 25.8901
34.5889 25.6969
34.6357 25.6068
34.6825 25.574
34.7292 25.5525
34.776 25.3483
34.8227 25.361
34.8695 25.307
34.9162 25.263
34.9631 25.119
35.0098 25.1407
35.0566 25.0219
35.1033 24.9972
35.1502 24.9593
35.1969 24.8443
35.2438 24.7993
35.2906 24.6795
35.3375 24.6405
35.3842 24.6234
35.4311 24.6574
35.4779 24.5743
35.5248 24.5046
35.5716 24.3685
35.6185 24.3013
35.6653 24.2915
35.7123 24.1655
35.759 24.1907
35.806 23.9873
35.8528 23.8721
35.8998 23.8036
35.9468 23.7757
35.9936 23.75
36.0406 23.656
36.0874 23.6196
36.1345 23.5867
36.1813 23.4215
36.2283 23.3582
36.2752 23.1951
36.3222 23.2124
36.3691 23.1709
36.4161 23.0136
36.463 23.0944
36.5101 23.0285
36.557 22.9064
36.6041 22.87
36.651 22.8621
36.6981 22.6532
36.745 22.6271
36.7921 22.5934
36.839 22.4133
36.8861 22.3786
36.9331 22.283
36.9802 22.2422
37.0272 22.1933
37.0743 22.0613
37.1213 22.0428
37.1684 21.9787
37.2154 21.9005
37.2626 21.8272
37.3098 21.7876
37.3568 21.7097
37.404 21.6499
37.451 21.574
37.4982 21.4823
37.5452 21.4
37.5924 21.3288
37.6395 21.288
37.6867 21.2678
37.7337 21.1998
37.781 21.0949
37.8281 21.0568
37.8753 20.9378
37.9224 20.8633
37.9697 20.7841
38.0168 20.7037
38.064 20.6866
38.1111 20.608
38.1584 20.5361
38.2056 20.5438
38.2529 20.4385
38.3 20.331
38.3473 20.3278
38.3945 20.1614
38.4418 20.2165
38.489 20.0791
38.5363 20.026
38.5837 19.9519
38.6309 19.9222
38.6782 19.836
38.7254 19.7509
38.7728 19.7434
38.82 19.6614
38.8674 19.5717
38.9146 19.6177
38.9621 19.5124
39.0093 19.3802
39.0567 19.3107
39.104 19.3365
39.1514 19.139
39.1987 19.2124
39.2461 19.0974
39.2934 19.0198
39.3409 18.9746
39.3882 18.8904
39.4356 18.8466
39.483 18.7791
39.5304 18.718
39.5778 18.7159
39.6253 18.568
39.6726 18.5554
39.7201 18.5082
39.7675 18.3914
39.815 18.4176
39.8624 18.3753
39.9099 18.3176
39.9575 18.2115
40.0049 18.1795
40.0525 18.1475
40.0999 18.0377
40.1474 17.9964
40.1949 17.8936
40.2425 17.9197
40.2899 17.8337
40.3375 17.7462
40.385 17.7623
40.4326 17.6575
40.48 17.5586
40.5277 17.5347
40.5752 17.4534
40.6228 17.3973
40.6703 17.437
40.718 17.3024
40.7655 17.2176
40.8132 17.239
40.8607 17.1956
40.9084 17.1433
40.9559 17.0548
41.0036 16.989
41.0512 16.9396
41.0989 16.9384
41.1465 16.8795
41.1942 16.7448
41.242 16.6833
41.2896 16.6633
41.3373 16.6022
41.3849 16.5665
41.4327 16.5046
41.4803 16.3935
41.5281 16.3623
41.5758 16.3169
41.6236 16.245
41.6712 16.1925
41.7191 16.1304
41.7667 16.115
41.8146 16.0208
41.8622 15.9897
41.9101 15.9427
41.9578 15.8432
42.0057 15.8232
42.0534 15.8336
42.1013 15.7513
42.149 15.6298
42.1969 15.6067
42.2446 15.5953
42.2925 15.5305
42.3403 15.4732
42.3882 15.4832
42.436 15.3728
42.4839 15.3319
42.5319 15.2804
42.5797 15.2248
42.6277 15.1608
42.6755 15.1482
42.7235 15.0334
42.7713 14.9952
42.8193 14.9644
42.8671 14.9074
42.9152 14.8274
42.963 14.7568
43.0111 14.7226
43.0589 14.6485
43.107 14.5897
43.1549 14.5932
43.2029 14.5438
43.2508 14.4827
43.2989 14.3988
43.3468 14.3624
43.3949 14.3298
43.4429 14.2657
43.491 14.2658
43.5389 14.202
43.5871 14.1879
43.635 14.1464
43.6832 14.0585
43.7312 13.9844
43.7793 13.9738
43.8273 13.9156
43.8755 13.8308
43.9237 13.7948
43.9717 13.7919
44.0199 13.6868
44.068 13.6583
44.1162 13.5759
44.1642 13.5887
44.2125 13.5608
44.2606 13.506
44.3088 13.4184
44.3569 13.3842
44.4052 13.286
44.4533 13.3142
44.5016 13.2221
44.5497 13.2119
44.598 13.1794
44.6461 13.0611
44.6945 13.046
44.7426 13.0356
44.791 12.9618
44.8391 12.9309
44.8875 12.8744
44.9357 12.8401
44.984 12.7889
45.0322 12.7564
45.0806 12.6638
45.1288 12.6326
45.1773 12.6084
45.2257 12.5315
45.2739 12.5308
45.3224 12.5107
45.3706 12.4017
45.4191 12.3721
45.4673 12.3077
45.5158 12.3261
45.5641 12.2312
45.6126 12.231
45.6609 12.1713
45.7094 12.0936
45.7577 12.0652
45.8063 11.9806
45.8546 11.9799
45.9031 11.9461
45.9515 11.8962
46.0001 11.88
46.0484 11.8294
46.097 11.7924
46.1454 11.7845
46.194 11.6898
46.2424 11.6424
46.291 11.6008
46.3395 11.574
46.3881 11.5068
46.4365 11.4473
46.4852 11.4258
46.5337 11.4394
46.5823 11.3673
46.631 11.3217
46.6795 11.2826
46.7282 11.2045
46.7767 11.2012
46.8254 11.1798
46.8739 11.0966
46.9226 11.0749
46.9712 11.0062
47.0199 10.9381
47.0685 10.9811
47.1173 10.875
47.1658 10.867
47.2146 10.833
47.2632 10.792
47.312 10.7441
47.3606 10.6869
47.4095 10.6843
47.4581 10.6093
47.5069 10.6028
47.5556 10.5506
47.6044 10.4979
47.6531 10.4468
47.702 10.4088
47.7507 10.3546
47.7996 10.3365
47.8483 10.3177
47.8972 10.2953
47.9461 10.2486
47.9948 10.2101
48.0438 10.1664
48.0925 10.1615
48.1415 10.0994
48.1902 10.0509
48.2392 10.0675
48.288 9.99559
48.337 10.0013
48.3858 9.9134
48.4348 9.86884
48.4837 9.84762
48.5327 9.82067
48.5815 9.80523
48.6306 9.74342
48.6795 9.69832
48.7285 9.67814
48.7774 9.6313
48.8265 9.62239
48.8754 9.57318
48.9245 9.53959
48.9734 9.46829
49.0226 9.47652
49.0715 9.4159
49.1206 9.41918
49.1696 9.33662
49.2188 9.28152
49.2679 9.29111
49.3169 9.22393
49.3661 9.16406
49.4151 9.17035
49.4643 9.14871
49.5134 9.11384
49.5626 9.00452
49.6117 9.01881
49.6609 8.96078
49.71 8.91642
49.7592 8.93692
49.8083 8.86459
49.8576 8.88157
49.9067 8.84443
49.956 8.80254
50.0052 8.78021
50.0545 8.73665
50.1036 8.70263
50.153 8.65471
50.2022 8.63281
50.2515 8.59735
50.3007 8.57856
50.3501 8.51443
50.3993 8.52191
50.4487 8.45175
50.498 8.43526
50.5474 8.40099
50.5966 8.34007
50.6461 8.31497
50.6955 8.27711
50.7448 8.26564
50.7943 8.2418
50.8436 8.16468
50.8931 8.19814
50.9424 8.15354
50.9919 8.11393
51.0413 8.07321
51.0908 8.03606
51.1402 7.98929
51.1897 7.98892
51.2391 7.94438
51.2887 7.91546
51.3381 7.84405
51.3877 7.85747
51.4371 7.82168
51.4867 7.79741
51.5362 7.72385
51.5858 7.72628
51.6353 7.66631
51.6849 7.65294
51.7344 7.62833
51.7841 7.63499
51.8336 7.55938
51.8833 7.53967
51.9328 7.4721
51.9826 7.43184
52.0323 7.41643
52.0818 7.3674
52.1316 7.36283
52.1812 7.358
52.231 7.3154
52.2806 7.25803
52.3304 7.26133
52.38 7.1956
52.4298 7.18669
52.4794 7.12958
52.5293 7.08679
52.5789 7.12701
52.6288 7.06931
52.6785 7.01592
52.7284 7.04015
52.7781 6.9818
52.828 6.98168
52.8777 6.929
52.9276 6.85231
52.9774 6.86661
53.0273 6.80512
53.0771 6.80584
53.1271 6.76462
53.1769 6.75701
53.2269 6.7521
53.2767 6.73035
53.3267 6.65644
53.3765 6.66106
53.4266 6.59902
53.4766 6.54647
53.5265 6.52117
53.5765 6.51511
53.6264 6.50171
53.6765 6.43941
53.7264 6.45214
53.7765 6.41381
53.8265 6.36968
53.8766 6.39582
53.9266 6.29495
53.9767 6.25414
54.0267 6.25421
54.0769 6.24173
54.1269 6.20242
54.1771 6.18521
54.2271 6.15852
54.2773 6.17214
54.3274 6.12704
54.3776 6.0348
54.4277 5.99904
54.478 6.01644
54.528 6.00484
54.5783 5.94229
54.6285 5.85824
54.6788 5.81084
54.7289 5.76722
54.7792 5.72785
54.8296 5.72837
54.8798 5.65818
54.9301 5.58845
54.9803 5.62143
55.0307 5.56375
55.0809 5.49129
55.1314 5.46886
55.1816 5.40666
55.232 5.35074
55.2823 5.30041
55.3328 5.29747
55.383 5.17287
55.4335 5.18613
55.4838 5.17752
55.5344 5.0909
55.5847 5.03568
55.6352 4.97079
55.6856 4.99262
55.7361 4.95102