File: XRD/Ni3Fe_FD0157.xy
TT I
1.27165 8.24686
1.31627 6.86831
1.36089 6.37605
1.40551 6.41622
1.45013 6.75605
1.49476 6.79709
1.53938 5.98229
1.584 5.62159
1.62863 5.32949
1.67325 5.05954
1.71787 5.29912
1.7625 5.65828
1.80712 4.69802
1.85174 5.04707
1.89636 4.88498
1.94099 5.56068
1.98562 4.57288
2.03025 5.03426
2.07487 4.43896
2.11949 5.18596
2.16411 4.81126
2.20874 4.77863
2.25338 4.4075
2.298 4.7936
2.34263 4.40385
2.38725 4.4846
2.43188 4.05007
2.4765 4.32746
2.52115 4.45296
2.56577 5.30144
2.6104 5.31256
2.65503 4.81845
2.69965 5.5183
2.7443 6.34689
2.78893 6.68562
2.83356 6.62741
2.87818 8.1197
2.92281 8.41676
2.96744 9.24395
3.01209 10.5906
3.05672 11.1822
3.10135 12.8531
3.14599 13.1607
3.19062 14.0623
3.23527 15.2115
3.2799 15.5997
3.32454 16.8
3.36917 17.6762
3.4138 18.9277
3.45844 19.6112
3.50309 20.9005
3.54773 20.8594
3.59237 21.5924
3.637 22.7846
3.68164 23.3224
3.7263 24.4198
3.77094 24.9062
3.81558 25.6005
3.86022 26.5065
3.90486 27.9997
3.9495 28.9332
3.99416 29.7484
4.0388 30.6419
4.08344 31.9
4.12809 32.8172
4.17273 34.2991
4.21738 35.67
4.26204 36.7134
4.30669 37.8889
4.35133 40.0249
4.39598 41.3972
4.44063 43.1603
4.4853 45.1961
4.52995 47.3503
4.5746 49.2457
4.61925 51.5485
4.6639 53.6297
4.70855 56.8221
4.75322 58.7265
4.79788 62.4043
4.84253 66.3276
4.88719 70.2597
4.93184 75.5326
4.97652 82.2772
5.02118 90.9213
5.06583 100.935
5.11049 117.223
5.15515 154.305
5.19981 544.97
5.24449 3763.95
5.28916 8409.94
5.33382 6296.83
5.37848 437.085
5.42315 162.159
5.46783 127.279
5.5125 113.553
5.55716 107.453
5.60183 101.339
5.6465 99.0178
5.69117 97.2368
5.73586 95.1618
5.78053 94.8625
5.8252 95.188
5.86988 98.5296
5.91455 105.491
5.95924 123.547
6.00392 286.419
6.0486 1386.21
6.09328 2767.39
6.13795 4041.93
6.18263 698.934
6.22733 121.283
6.27201 88.7002
6.3167 78.0184
6.36138 72.6231
6.40606 68.1976
6.45075 66.4857
6.49545 64.5637
6.54014 62.5383
6.58483 60.6995
6.62952 60.0624
6.67421 58.3196
6.71892 57.2318
6.76361 56.972
6.8083 55.8232
6.853 54.8886
6.89769 54.6256
6.94239 54.4252
6.98711 53.3731
7.03181 53.0513
7.07651 52.8264
7.12121 52.7513
7.16591 52.3435
7.21063 52.0714
7.25533 52.4437
7.30004 52.4719
7.34475 52.2953
7.38945 52.2526
7.43416 52.0708
7.47889 52.1041
7.5236 56.2161
7.56831 62.8321
7.61303 55.5271
7.65774 53.3801
7.70247 54.1245
7.74719 54.3486
7.79191 55.3262
7.83663 55.4103
7.88135 56.5714
7.92607 56.978
7.97081 58.3749
8.01553 59.2634
8.06026 60.9338
8.10498 61.8532
8.14971 63.8167
8.19446 65.1975
8.23919 68.0539
8.28392 70.878
8.32865 73.27
8.37339 78.1763
8.41812 83.5472
8.46288 95.4936
8.50761 172.644
8.55235 601.101
8.59709 894.958
8.64183 1508.65
8.68658 1599.7
8.73134 391.662
8.77609 115.542
8.82083 97.0006
8.86558 91.0663
8.91033 87.4173
8.9551 85.2782
8.99985 84.339
9.04461 82.8769
9.08936 82.3846
9.13412 81.2738
9.17888 81.2404
9.22365 86.986
9.26841 96.2571
9.31318 86.2994
9.35794 82.1798
9.4027 82.0342
9.44749 82.9555
9.49226 83.633
9.53703 84.5669
9.5818 86.1141
9.62657 87.0922
9.67134 88.363
9.71614 90.6729
9.76091 93.0029
9.80569 95.5833
9.85047 98.9887
9.89525 103.709
9.94005 113.966
9.98484 185.646
10.0296 543.846
10.0744 738.67
10.1192 1046.62
10.164 1679.37
10.2088 976.754
10.2536 212.516
10.2984 116.382
10.3432 107.79
10.388 104.515
10.4328 120.994
10.4776 214.656
10.5224 262.233
10.5672 334.427
10.612 493.037
10.6568 369.572
10.7017 133.93
10.7465 90.5339
10.7913 83.8664
10.8361 80.9047
10.8809 78.0259
10.9257 75.6069
10.9706 74.2337
11.0154 73.0574
11.0602 71.5603
11.105 70.1492
11.1499 68.6834
11.1947 67.7044
11.2395 66.6357
11.2844 66.0372
11.3292 65.2951
11.374 64.4617
11.4189 63.9928
11.4637 63.4612
11.5086 62.8046
11.5534 62.38
11.5983 62.2009
11.6431 62.1805
11.688 61.6192
11.7328 61.596
11.7777 61.1708
11.8225 61.1813
11.8674 61.0872
11.9122 62.212
11.9571 65.5258
12.002 65.1618
12.0468 67.3821
12.0917 90.6763
12.1366 107.859
12.1814 118.378
12.2263 151.376
12.2712 190.309
12.3161 134.958
12.3609 74.7347
12.4058 64.1398
12.4507 63.5609
12.4956 63.1282
12.5405 63.2118
12.5853 63.3281
12.6302 63.6809
12.6751 64.681
12.72 65.0484
12.7649 66.1562
12.8098 67.2692
12.8547 68.3652
12.8996 69.6972
12.9445 71.2603
12.9894 73.3438
13.0343 75.099
13.0792 79.2707
13.1242 86.2888
13.1691 132.897
13.214 186.216
13.2589 205.504
13.3038 247.587
13.3487 353.51
13.3937 383.328
13.4386 207.089
13.4835 119.304
13.5285 153.82
13.5734 182.371
13.6183 193.624
13.6633 239.661
13.7082 333.792
13.7531 302.518
13.7981 151.362
13.843 88.0678
13.888 80.7485
13.9329 77.7214
13.9779 75.9022
14.0228 74.3941
14.0678 72.9877
14.1127 72.9467
14.1577 74.0773
14.2027 72.6939
14.2476 70.4517
14.2926 69.6425
14.3376 69.0762
14.3825 68.3938
14.4275 68.2353
14.4725 68.1835
14.5175 68.5532
14.5624 68.471
14.6074 68.919
14.6524 69.0468
14.6974 70.0744
14.7424 71.3546
14.7874 80.6792
14.8324 106.716
14.8774 121.064
14.9224 127.279
14.9674 149.664
15.0124 193.666
15.0574 203.736
15.1024 136.394
15.1474 81.6465
15.1924 71.1806
15.2374 69.218
15.2824 67.9414
15.3274 66.9876
15.3725 66.5233
15.4175 66.1567
15.4625 65.7001
15.5076 65.3731
15.5526 65.5373
15.5976 65.5737
15.6426 66.3443
15.6877 73.8336
15.7327 94.8861
15.7778 107.36
15.8228 111.499
15.8679 125.822
15.9129 156.26
15.958 186.246
16.003 149.76
16.0481 87.56
16.0931 65.9343
16.1382 61.6709
16.1833 60.419
16.2283 58.8765
16.2734 58.1473
16.3185 57.2994
16.3636 56.7486
16.4086 55.9579
16.4537 55.5524
16.4988 55.1764
16.5439 55.034
16.589 54.665
16.6341 54.6876
16.6792 54.0225
16.7243 54.5327
16.7694 54.1847
16.8145 54.0387
16.8596 54.3913
16.9047 54.7496
16.9498 55.1098
16.9949 55.0333
17.04 55.2292
17.0851 56.5894
17.1302 60.824
17.1754 64.1574
17.2205 65.1735
17.2656 67.346
17.3108 72.8076
17.3559 79.4627
17.401 80.8463
17.4462 71.5106
17.4913 61.7629
17.5365 59.251
17.5815 59.1479
17.6268 59.4402
17.6718 59.8216
17.7171 60.3264
17.7622 61.4114
17.8074 62.3018
17.8525 63.8325
17.8977 71.9893
17.9428 83.5491
17.9881 88.466
18.0331 91.2879
18.0784 98.4215
18.1237 115.515
18.1688 140.705
18.214 141.18
18.2591 109.893
18.3044 88.2878
18.3495 86.8436
18.3948 95.2714
18.4399 103.494
18.4852 94.614
18.5303 75.7555
18.5756 64.8303
18.6207 62.1459
18.666 60.87
18.7112 59.9266
18.7565 59.3325
18.8016 58.9373
18.8469 58.0326
18.892 58.0006
18.9374 57.302
18.9825 56.8907
19.0278 56.8108
19.073 56.8905
19.1183 57.4095
19.1635 59.8033
19.2088 61.7394
19.254 62.5164
19.2993 63.4229
19.3447 65.327
19.3898 69.2459
19.4352 73.9226
19.4804 72.1997
19.5257 63.5818
19.5709 56.2814
19.6163 54.3873
19.6615 53.741
19.7068 53.4611
19.752 53.204
19.7974 53.4666
19.8426 54.5944
19.888 56.7748
19.9332 58.4266
19.9786 58.655
20.0238 59.1789
20.0692 62.1602
20.1144 67.351
20.1598 72.3321
20.205 70.8904
20.2504 65.2108
20.2957 61.216
20.3411 62.0046
20.3863 64.8682
20.4318 64.1301
20.477 59.0452
20.5224 53.2356
20.5677 51.1771
20.6131 50.3956
20.6586 49.8194
20.7038 49.5929
20.7493 49.2833
20.7945 49.1622
20.84 48.9564
20.8853 48.7816
20.9307 48.6634
20.976 48.8642
21.0215 48.9752
21.0668 49.539
21.1122 49.2913
21.1575 49.6262
21.203 49.7187
21.2483 50.3159
21.2938 51.4092
21.3391 51.441
21.3846 50.3618
21.4299 49.256
21.4754 48.6089
21.5207 48.6582
21.5662 49.0566
21.6116 49.4179
21.6571 51.1493
21.7024 53.2203
21.7479 54.1416
21.7933 54.6277
21.8388 55.9054
21.8843 58.6857
21.9297 62.3349
21.9752 65.806
22.0206 65.4817
22.0661 60.5862
22.1115 56.2937
22.157 55.7083
22.2024 56.3279
22.248 55.0871
22.2933 52.3856
22.3389 50.1657
22.3843 49.4017
22.4299 48.8508
22.4753 48.9972
22.5208 48.8399
22.5662 48.6836
22.6118 48.8602
22.6572 49.0579
22.7028 50.2598
22.7483 51.4248
22.7939 51.8544
22.8393 52.1891
22.8849 52.6652
22.9303 53.4738
22.9759 55.1237
23.0214 57.1926
23.067 58.1819
23.1126 55.8688
23.1581 52.1761
23.2037 49.7278
23.2492 49.0983
23.2948 49.8043
23.3403 51.108
23.3859 51.8042
23.4314 51.8412
23.477 51.9557
23.5225 52.4815
23.5682 53.5078
23.6137 55.9794
23.6593 57.8353
23.7048 57.1665
23.7505 53.294
23.796 48.9867
23.8417 46.8867
23.8872 46.1356
23.9329 45.4847
23.9784 45.3899
24.0241 44.9291
24.0697 44.826
24.1154 44.4813
24.1609 44.2354
24.2066 43.989
24.2522 43.7735
24.2979 43.4967
24.3434 43.4867
24.3892 43.3513
24.4349 43.3227
24.4805 43.0207
24.5262 43.2294
24.5718 42.9881
24.6175 43.0088
24.6631 43.1364
24.7089 42.8759
24.7545 42.6806
24.8002 42.4045
24.8458 42.644
24.8916 42.5256
24.9372 42.7598
24.983 42.8768
25.0286 43.0615
25.0744 43.5992
25.12 44.0349
25.1658 44.4274
25.2114 44.5844
25.2572 44.9824
25.3029 44.9083
25.3487 44.8433
25.3943 44.8761
25.4402 44.9229
25.4858 44.5302
25.5316 43.1576
25.5773 41.7985
25.6231 41.4216
25.669 40.8471
25.7147 40.8507
25.7605 40.8161
25.8062 41.0545
25.8521 41.1494
25.8977 41.0439
25.9436 41.0737
25.9893 40.9483
26.0352 41.2316
26.0809 41.2381
26.1268 41.7867
26.1725 42.1975
26.2184 41.9764
26.2641 41.4552
26.31 40.8471
26.3557 40.8039
26.4017 40.7242
26.4474 40.9513
26.4933 41.1196
26.5391 41.2391
26.585 41.5669
26.6308 41.7127
26.6767 42.0915
26.7225 42.8516
26.7684 42.6899
26.8142 41.9971
26.8601 41.3581
26.9059 40.9004
26.9519 40.4232
26.9979 40.1835
27.0437 39.5002
27.0896 39.2858
27.1354 39.1932
27.1814 38.9939
27.2272 38.8449
27.2732 39.0215
27.3191 38.7442
27.3651 38.9189
27.4109 38.7645
27.4569 38.6535
27.5027 38.7537
27.5488 38.7345
27.5946 38.8362
27.6407 38.777
27.6865 38.6761
27.7326 38.551
27.7784 38.5514
27.8245 38.4425
27.8703 38.4275
27.9164 38.5328
27.9623 38.5364
28.0084 38.7459
28.0543 39.0389
28.1003 39.1561
28.1462 39.3977
28.1923 39.3543
28.2384 38.8624
28.2843 38.3898
28.3304 38.1132
28.3764 37.6938
28.4225 37.1397
28.4684 36.7501
28.5145 36.3024
28.5605 36.0933
28.6066 36.1103
28.6526 36.053
28.6987 35.8369
28.7447 35.7865
28.7908 35.6122
28.8368 35.502
28.8829 35.5966
28.9289 35.5331
28.9751 35.4518
29.0211 35.3208
29.0673 35.2169
29.1133 35.0275
29.1595 34.847
29.2055 34.6312
29.2517 34.516
29.2977 34.4759
29.3439 34.3005
29.3899 34.3208
29.4361 34.3956
29.4824 34.2653
29.5284 34.2133
29.5746 34.0102
29.6207 33.6958
29.6669 33.3761
29.713 33.2045
29.7593 33.0806
29.8053 33.1628
29.8516 33.0468
29.8977 33.0069
29.9439 32.9295
29.99 32.7798
30.0363 32.6783
30.0824 32.6676
30.1287 32.5852
30.1748 32.4058
30.2211 32.6312
30.2673 32.4294
30.3136 32.6896
30.3597 32.6232
30.406 32.6015
30.4522 32.3784
30.4985 32.3663
30.5447 32.4168
30.591 32.3673
30.6372 32.3657
30.6835 32.2829
30.7297 32.4007
30.7761 32.3974
30.8224 32.4445
30.8686 32.4083
30.915 32.066
30.9612 31.9473
31.0076 31.8007
31.0538 31.5848
31.1002 31.4755
31.1464 31.2391
31.1928 31.2435
31.2391 31.2906
31.2855 31.1423
31.3317 31.1304
31.3781 31.182
31.4244 31.1037
31.4708 31.0039
31.5171 30.9819
31.5636 31.0161
31.6098 31.0382
31.6563 30.8931
31.7026 30.683
31.7491 30.5071
31.7953 30.5345
31.8418 30.3642
31.8881 30.3584
31.9346 30.2501
31.9809 30.2704
32.0275 30.2424
32.074 30.2025
32.1203 30.0165
32.1668 29.903
32.2132 29.7232
32.2597 29.5394
32.306 29.5225
32.3526 29.2473
32.399 29.199
32.4455 29.0583
32.4919 28.9464
32.5385 28.7742
32.5848 28.7192
32.6314 28.7302
32.6778 28.7331
32.7244 28.5245
32.7708 28.4151
32.8174 28.4153
32.8638 28.2797
32.9104 28.2979
32.9569 28.2487
33.0035 28.1706
33.0499 28.0494
33.0966 27.8982
33.143 28.0254
33.1897 27.9149
33.2361 27.8748
33.2828 27.8211
33.3293 27.6946
33.3759 27.6406
33.4226 27.5403
33.4691 27.4166
33.5158 27.4
33.5623 27.1781
33.609 27.0281
33.6555 26.8389
33.7022 26.8134
33.7487 26.7564
33.7954 26.7046
33.842 26.5334
33.8887 26.6343
33.9353 26.4919
33.982 26.3605
34.0286 26.3274
34.0753 26.2665
34.1219 26.08
34.1687 26.081
34.2152 26.0499
34.262 25.8099
34.3086 25.7397
34.3554 25.7132
34.402 25.6576
34.4488 25.5514
34.4954 25.5822
34.5422 25.3809
34.5889 25.2755
34.6357 25.2069
34.6825 25.0722
34.7292 25.0431
34.776 24.9907
34.8227 24.902
34.8695 24.8461
34.9162 24.7689
34.9631 24.634
35.0098 24.6455
35.0566 24.565
35.1033 24.5155
35.1502 24.5164
35.1969 24.3572
35.2438 24.2981
35.2906 24.3016
35.3375 24.1837
35.3842 24.1882
35.4311 24.1537
35.4779 24.1584
35.5248 24.0534
35.5716 23.941
35.6185 23.8847
35.6653 23.8768
35.7123 23.7683
35.759 23.7784
35.806 23.5345
35.8528 23.4833
35.8998 23.3354
35.9468 23.3752
35.9936 23.2459
36.0406 23.2762
36.0874 23.2177
36.1345 23.0861
36.1813 22.976
36.2283 22.8232
36.2752 22.8433
36.3222 22.8335
36.3691 22.6918
36.4161 22.582
36.463 22.6259
36.5101 22.5828
36.557 22.614
36.6041 22.4066
36.651 22.3481
36.6981 22.3554
36.745 22.221
36.7921 22.1769
36.839 22.0934
36.8861 22.0543
36.9331 21.8881
36.9802 21.793
37.0272 21.7456
37.0743 21.6632
37.1213 21.6779
37.1684 21.5592
37.2154 21.471
37.2626 21.4744
37.3098 21.385
37.3568 21.2974
37.404 21.2444
37.451 21.2012
37.4982 21.1812
37.5452 20.9756
37.5924 20.962
37.6395 21.0188
37.6867 20.9093
37.7337 20.7736
37.781 20.761
37.8281 20.767
37.8753 20.5815
37.9224 20.5008
37.9697 20.4919
38.0168 20.387
38.064 20.2543
38.1111 20.2579
38.1584 20.1145
38.2056 20.0928
38.2529 20.114
38.3 20.022
38.3473 19.9728
38.3945 19.8623
38.4418 19.8208
38.489 19.7855
38.5363 19.693
38.5837 19.6138
38.6309 19.5773
38.6782 19.4827
38.7254 19.39
38.7728 19.3785
38.82 19.2182
38.8674 19.2959
38.9146 19.1746
38.9621 19.0849
39.0093 19.0898
39.0567 19.0253
39.104 18.9235
39.1514 18.8479
39.1987 18.903
39.2461 18.7944
39.2934 18.7019
39.3409 18.5969
39.3882 18.6065
39.4356 18.5127
39.483 18.5102
39.5304 18.405
39.5778 18.3788
39.6253 18.2542
39.6726 18.2695
39.7201 18.2006
39.7675 18.1168
39.815 18.0994
39.8624 18.0302
39.9099 17.9531
39.9575 17.8602
40.0049 17.8733
40.0525 17.7809
40.0999 17.7013
40.1474 17.6742
40.1949 17.5908
40.2425 17.5135
40.2899 17.5305
40.3375 17.4478
40.385 17.3669
40.4326 17.314
40.48 17.2714
40.5277 17.2655
40.5752 17.2012
40.6228 17.0554
40.6703 17.0775
40.718 17.0173
40.7655 16.9684
40.8132 16.8817
40.8607 16.9443
40.9084 16.8307
40.9559 16.7423
41.0036 16.6739
41.0512 16.6617
41.0989 16.5914
41.1465 16.4934
41.1942 16.5079
41.242 16.3874
41.2896 16.2728
41.3373 16.2743
41.3849 16.2643
41.4327 16.1981
41.4803 16.1201
41.5281 16.1158
41.5758 15.9817
41.6236 15.967
41.6712 15.8773
41.7191 15.8715
41.7667 15.7885
41.8146 15.7845
41.8622 15.6671
41.9101 15.6932
41.9578 15.5463
42.0057 15.6121
42.0534 15.5256
42.1013 15.4332
42.149 15.4055
42.1969 15.3529
42.2446 15.2836
42.2925 15.2218
42.3403 15.152
42.3882 15.1526
42.436 15.1437
42.4839 15.0012
42.5319 15.0331
42.5797 14.9329
42.6277 14.8979
42.6755 14.8251
42.7235 14.7173
42.7713 14.7376
42.8193 14.6254
42.8671 14.6345
42.9152 14.6019
42.963 14.5457
43.0111 14.4894
43.0589 14.4422
43.107 14.3981
43.1549 14.3386
43.2029 14.2688
43.2508 14.2933
43.2989 14.1567
43.3468 14.1084
43.3949 14.1014
43.4429 14.1169
43.491 13.9719
43.5389 13.9421
43.5871 13.8803
43.635 13.8448
43.6832 13.8524
43.7312 13.7615
43.7793 13.7051
43.8273 13.6592
43.8755 13.5973
43.9237 13.5611
43.9717 13.4996
44.0199 13.4597
44.068 13.4228
44.1162 13.3744
44.1642 13.3598
44.2125 13.325
44.2606 13.2062
44.3088 13.1673
44.3569 13.1693
44.4052 13.1089
44.4533 13.0992
44.5016 12.9819
44.5497 12.932
44.598 12.9274
44.6461 12.8954
44.6945 12.8407
44.7426 12.7711
44.791 12.768
44.8391 12.7026
44.8875 12.6226
44.9357 12.5925
44.984 12.6129
45.0322 12.457
45.0806 12.4588
45.1288 12.4553
45.1773 12.4168
45.2257 12.3478
45.2739 12.3162
45.3224 12.2704
45.3706 12.2175
45.4191 12.1631
45.4673 12.1345
45.5158 12.1107
45.5641 11.9642
45.6126 12.013
45.6609 11.9475
45.7094 11.9024
45.7577 11.8421
45.8063 11.7909
45.8546 11.795
45.9031 11.7344
45.9515 11.6849
46.0001 11.6101
46.0484 11.6448
46.097 11.5598
46.1454 11.5435
46.194 11.4991
46.2424 11.4303
46.291 11.3946
46.3395 11.3397
46.3881 11.2832
46.4365 11.2438
46.4852 11.2662
46.5337 11.2027
46.5823 11.1829
46.631 11.1062
46.6795 11.0404
46.7282 11.0935
46.7767 11.0251
46.8254 10.9624
46.8739 10.8988
46.9226 10.846
46.9712 10.8549
47.0199 10.803
47.0685 10.7262
47.1173 10.7096
47.1658 10.6804
47.2146 10.6142
47.2632 10.5945
47.312 10.5667
47.3606 10.512
47.4095 10.4828
47.4581 10.4234
47.5069 10.4209
47.5556 10.3471
47.6044 10.3367
47.6531 10.2499
47.702 10.2041
47.7507 10.1691
47.7996 10.1335
47.8483 10.1355
47.8972 10.0816
47.9461 10.0928
47.9948 10.0081
48.0438 9.94384
48.0925 9.92623
48.1415 9.92643
48.1902 9.84616
48.2392 9.86424
48.288 9.80965
48.337 9.78473
48.3858 9.73822
48.4348 9.7033
48.4837 9.70015
48.5327 9.65621
48.5815 9.61717
48.6306 9.59403
48.6795 9.51704
48.7285 9.49164
48.7774 9.46454
48.8265 9.42568
48.8754 9.39609
48.9245 9.34895
48.9734 9.33074
49.0226 9.30362
49.0715 9.22622
49.1206 9.22381
49.1696 9.1664
49.2188 9.16847
49.2679 9.12778
49.3169 9.08896
49.3661 9.05152
49.4151 8.99821
49.4643 8.97618
49.5134 8.93254
49.5626 8.82995
49.6117 8.86628
49.6609 8.83937
49.71 8.78698
49.7592 8.7492
49.8083 8.75261
49.8576 8.68842
49.9067 8.65761
49.956 8.63478
50.0052 8.60217
50.0545 8.59575
50.1036 8.55244
50.153 8.50807
50.2022 8.48299
50.2515 8.43239
50.3007 8.39825
50.3501 8.38012
50.3993 8.36307
50.4487 8.3315
50.498 8.2865
50.5474 8.21954
50.5966 8.20182
50.6461 8.2061
50.6955 8.15946
50.7448 8.13919
50.7943 8.09386
50.8436 8.07895
50.8931 8.03821
50.9424 8.01992
50.9919 7.94381
51.0413 7.94286
51.0908 7.89347
51.1402 7.90231
51.1897 7.83449
51.2391 7.81256
51.2887 7.79013
51.3381 7.72277
51.3877 7.71915
51.4371 7.68346
51.4867 7.64862
51.5362 7.60837
51.5858 7.57751
51.6353 7.54157
51.6849 7.49413
51.7344 7.4769
51.7841 7.49167
51.8336 7.41953
51.8833 7.3943
51.9328 7.35085
51.9826 7.33964
52.0323 7.29067
52.0818 7.2859
52.1316 7.24829
52.1812 7.2721
52.231 7.18593
52.2806 7.14536
52.3304 7.15101
52.38 7.09066
52.4298 7.06197
52.4794 7.05786
52.5293 7.03725
52.5789 6.97055
52.6288 6.97869
52.6785 6.89471
52.7284 6.88531
52.7781 6.85776
52.828 6.84543
52.8777 6.83395
52.9276 6.76811
52.9774 6.75653
53.0273 6.77841
53.0771 6.70878
53.1271 6.70447
53.1769 6.62407
53.2269 6.63321
53.2767 6.5754
53.3267 6.51566
53.3765 6.53555
53.4266 6.50192
53.4766 6.44827
53.5265 6.4509
53.5765 6.45004
53.6264 6.38905
53.6765 6.36148
53.7264 6.35158
53.7765 6.33607
53.8265 6.26488
53.8766 6.22887
53.9266 6.22963
53.9767 6.17828
54.0267 6.17199
54.0769 6.19514
54.1269 6.10303
54.1771 6.07144
54.2271 6.03017
54.2773 5.96058
54.3274 5.99635
54.3776 5.89361
54.4277 5.88206
54.478 5.8296
54.528 5.78329
54.5783 5.74897
54.6285 5.73094
54.6788 5.67192
54.7289 5.59706
54.7792 5.60246
54.8296 5.5441
54.8798 5.48559
54.9301 5.49161
54.9803 5.4758
55.0307 5.4059
55.0809 5.35727
55.1314 5.32757
55.1816 5.2763
55.232 5.19896
55.2823 5.13983
55.3328 5.0965
55.383 5.04059
55.4335 5.01726
55.4838 4.9857
55.5344 4.898
55.5847 4.89995
55.6352 4.86767
55.6856 4.85833
55.7361 4.77855