File: XRD/Ni3Fe_FD0155.xy
TT I
1.27165 8.2003
1.31627 7.01053
1.36089 7.53676
1.40551 6.19568
1.45013 6.96565
1.49476 6.53137
1.53938 6.62983
1.584 5.55401
1.62863 6.03304
1.67325 5.48896
1.71787 5.09398
1.7625 5.05347
1.80712 4.87152
1.85174 5.27644
1.89636 5.03241
1.94099 4.89912
1.98562 5.43026
2.03025 4.83747
2.07487 4.68466
2.11949 5.52098
2.16411 4.61976
2.20874 4.98191
2.25338 4.73492
2.298 4.33473
2.34263 4.89572
2.38725 4.02392
2.43188 3.9119
2.4765 5.2557
2.52115 4.3024
2.56577 4.91055
2.6104 5.53366
2.65503 4.93658
2.69965 5.59923
2.7443 6.28848
2.78893 6.75121
2.83356 7.80925
2.87818 8.16684
2.92281 8.89932
2.96744 9.25067
3.01209 10.5855
3.05672 11.1622
3.10135 12.4602
3.14599 13.117
3.19062 14.447
3.23527 15.3026
3.2799 16.086
3.32454 16.8891
3.36917 17.8456
3.4138 18.7315
3.45844 19.2514
3.50309 20.4964
3.54773 21.3819
3.59237 22.1261
3.637 22.7582
3.68164 23.5386
3.7263 24.1961
3.77094 25.2738
3.81558 26.0149
3.86022 26.4074
3.90486 27.9523
3.9495 28.7871
3.99416 29.4518
4.0388 31.1945
4.08344 32.0306
4.12809 32.9535
4.17273 34.0375
4.21738 35.8273
4.26204 36.1307
4.30669 38.193
4.35133 39.8936
4.39598 41.6685
4.44063 43.0931
4.4853 44.7491
4.52995 47.2182
4.5746 49.1811
4.61925 51.3665
4.6639 53.636
4.70855 56.6065
4.75322 59.8936
4.79788 62.3639
4.84253 66.3144
4.88719 70.6527
4.93184 75.7175
4.97652 82.5681
5.02118 90.5978
5.06583 100.78
5.11049 117.784
5.15515 154.727
5.19981 546.01
5.24449 3768.72
5.28916 8331.22
5.33382 6300.95
5.37848 445.207
5.42315 162.582
5.46783 127.605
5.5125 113.716
5.55716 107.823
5.60183 101.845
5.6465 98.6255
5.69117 97.3695
5.73586 95.8335
5.78053 95.5942
5.8252 95.6114
5.86988 98.6428
5.91455 105.334
5.95924 123.805
6.00392 287.167
6.0486 1385.47
6.09328 2738.99
6.13795 4026.9
6.18263 705.005
6.22733 121.226
6.27201 88.9972
6.3167 78.3918
6.36138 72.7672
6.40606 68.6254
6.45075 66.4961
6.49545 64.1275
6.54014 62.2956
6.58483 60.9066
6.62952 59.6364
6.67421 58.7102
6.71892 57.7087
6.76361 56.4877
6.8083 55.197
6.853 54.8832
6.89769 54.5908
6.94239 54.03
6.98711 53.1882
7.03181 53.1819
7.07651 53.1592
7.12121 52.5291
7.16591 52.465
7.21063 52.3298
7.25533 52.0335
7.30004 52.1117
7.34475 51.8411
7.38945 52.0736
7.43416 51.978
7.47889 52.0158
7.5236 56.1162
7.56831 62.7234
7.61303 54.9566
7.65774 53.5695
7.70247 53.9344
7.74719 54.3467
7.79191 54.8916
7.83663 54.9018
7.88135 56.4299
7.92607 56.9405
7.97081 58.0749
8.01553 59.2269
8.06026 60.726
8.10498 61.893
8.14971 63.6043
8.19446 65.3856
8.23919 67.5423
8.28392 70.6731
8.32865 73.4463
8.37339 78.0891
8.41812 83.3929
8.46288 95.5768
8.50761 173.022
8.55235 601.171
8.59709 892.652
8.64183 1498.74
8.68658 1613.33
8.73134 389.77
8.77609 115.824
8.82083 97.2085
8.86558 90.8097
8.91033 87.9878
8.9551 85.4749
8.99985 83.9626
9.04461 83.006
9.08936 82.0517
9.13412 81.4915
9.17888 81.567
9.22365 87.098
9.26841 96.4153
9.31318 85.9892
9.35794 82.4159
9.4027 82.404
9.44749 83.1509
9.49226 83.7073
9.53703 84.3872
9.5818 86.0324
9.62657 87.1295
9.67134 88.4594
9.71614 90.4156
9.76091 93.0185
9.80569 95.6666
9.85047 98.6793
9.89525 103.886
9.94005 114.038
9.98484 185.764
10.0296 544.464
10.0744 738.208
10.1192 1042.8
10.164 1662.3
10.2088 974.271
10.2536 214.169
10.2984 116.194
10.3432 107.913
10.388 104.291
10.4328 121.585
10.4776 214.913
10.5224 262.724
10.5672 331.827
10.612 488.12
10.6568 364.034
10.7017 132.715
10.7465 90.2837
10.7913 83.6415
10.8361 80.5532
10.8809 78.0787
10.9257 75.7422
10.9706 74.8639
11.0154 72.8212
11.0602 71.2483
11.105 70.3601
11.1499 68.6613
11.1947 67.8185
11.2395 66.4368
11.2844 66.1345
11.3292 65.2315
11.374 64.4416
11.4189 64.3039
11.4637 63.5101
11.5086 62.7489
11.5534 62.5725
11.5983 62.2144
11.6431 61.9891
11.688 61.6489
11.7328 61.4676
11.7777 61.321
11.8225 61.0884
11.8674 60.8963
11.9122 62.5711
11.9571 65.7864
12.002 65.2408
12.0468 67.6511
12.0917 90.6555
12.1366 108.272
12.1814 118.271
12.2263 151.893
12.2712 192.611
12.3161 137.896
12.3609 74.9085
12.4058 64.0024
12.4507 63.4576
12.4956 63.3352
12.5405 62.8605
12.5853 63.3912
12.6302 64.0544
12.6751 64.4878
12.72 65.1664
12.7649 66.3325
12.8098 66.9318
12.8547 68.168
12.8996 69.7336
12.9445 71.2692
12.9894 72.9981
13.0343 75.0664
13.0792 79.0956
13.1242 86.3525
13.1691 132.835
13.214 186.231
13.2589 205.254
13.3038 246.221
13.3487 351.162
13.3937 381.05
13.4386 209.629
13.4835 119.111
13.5285 154.13
13.5734 182.025
13.6183 192.975
13.6633 239.843
13.7082 333.143
13.7531 304.813
13.7981 154.018
13.843 88.4356
13.888 80.6203
13.9329 77.7927
13.9779 75.9818
14.0228 74.4864
14.0678 72.9453
14.1127 72.8588
14.1577 74.1155
14.2027 72.4857
14.2476 70.3613
14.2926 69.3295
14.3376 68.9746
14.3825 68.5849
14.4275 68.3323
14.4725 68.0426
14.5175 68.1843
14.5624 68.1824
14.6074 68.7104
14.6524 69.0674
14.6974 69.8183
14.7424 71.2837
14.7874 80.5876
14.8324 106.809
14.8774 121.059
14.9224 127.089
14.9674 149.209
15.0124 192.304
15.0574 203.143
15.1024 138.591
15.1474 82.3737
15.1924 71.2586
15.2374 69.1358
15.2824 67.7916
15.3274 66.9779
15.3725 66.3267
15.4175 66.2697
15.4625 65.6638
15.5076 65.4605
15.5526 65.5038
15.5976 65.6996
15.6426 66.3367
15.6877 73.669
15.7327 94.8287
15.7778 107.219
15.8228 111.231
15.8679 125.007
15.9129 155.616
15.958 184.86
16.003 150.167
16.0481 87.2421
16.0931 66.0644
16.1382 61.6442
16.1833 60.3297
16.2283 58.6564
16.2734 57.9069
16.3185 57.0825
16.3636 56.4933
16.4086 55.7896
16.4537 55.4359
16.4988 54.9132
16.5439 54.9757
16.589 54.6258
16.6341 54.5197
16.6792 53.8524
16.7243 53.9864
16.7694 54.1646
16.8145 54.1707
16.8596 54.0366
16.9047 54.774
16.9498 54.9245
16.9949 54.9347
17.04 55.2648
17.0851 56.3752
17.1302 60.7794
17.1754 64.281
17.2205 65.3417
17.2656 67.2085
17.3108 72.4597
17.3559 79.0928
17.401 80.9037
17.4462 70.9765
17.4913 61.4393
17.5365 59.1518
17.5815 58.9435
17.6268 59.3992
17.6718 59.8649
17.7171 60.2114
17.7622 61.3621
17.8074 62.1972
17.8525 63.722
17.8977 71.8789
17.9428 83.4562
17.9881 88.4565
18.0331 91.1231
18.0784 98.2715
18.1237 115.445
18.1688 141.067
18.214 141.302
18.2591 110.339
18.3044 88.0094
18.3495 86.8823
18.3948 95.2719
18.4399 103.723
18.4852 94.7804
18.5303 75.9001
18.5756 64.8348
18.6207 62.1724
18.666 60.772
18.7112 59.9712
18.7565 59.1887
18.8016 58.7722
18.8469 58.0607
18.892 57.9056
18.9374 57.3037
18.9825 57.0544
19.0278 56.6818
19.073 56.734
19.1183 57.1681
19.1635 59.5223
19.2088 61.6877
19.254 62.6264
19.2993 62.9682
19.3447 65.2675
19.3898 69.1587
19.4352 73.6899
19.4804 72.3638
19.5257 63.638
19.5709 56.2579
19.6163 54.2437
19.6615 53.8178
19.7068 53.2905
19.752 53.1391
19.7974 53.52
19.8426 54.8102
19.888 56.8226
19.9332 57.9685
19.9786 58.7735
20.0238 59.1609
20.0692 61.9126
20.1144 67.0749
20.1598 72.3097
20.205 70.7246
20.2504 65.1756
20.2957 61.0694
20.3411 61.6444
20.3863 64.6959
20.4318 64.0623
20.477 58.7295
20.5224 53.0519
20.5677 51.0054
20.6131 50.2795
20.6586 49.7383
20.7038 49.6451
20.7493 49.3693
20.7945 49.1684
20.84 48.8999
20.8853 48.6513
20.9307 48.4735
20.976 48.8627
21.0215 48.7991
21.0668 49.3681
21.1122 49.4368
21.1575 49.5591
21.203 49.6155
21.2483 50.321
21.2938 51.5327
21.3391 51.358
21.3846 50.3374
21.4299 49.1431
21.4754 48.7326
21.5207 48.7286
21.5662 48.9129
21.6116 49.35
21.6571 51.1443
21.7024 53.0172
21.7479 54.0447
21.7933 54.3741
21.8388 55.9443
21.8843 58.6976
21.9297 62.1553
21.9752 65.8283
22.0206 65.5225
22.0661 60.4872
22.1115 56.4062
22.157 55.7204
22.2024 56.4522
22.248 54.9972
22.2933 52.4559
22.3389 50.0794
22.3843 49.1688
22.4299 48.8641
22.4753 48.912
22.5208 48.7864
22.5662 48.7495
22.6118 48.8616
22.6572 48.9992
22.7028 50.1832
22.7483 51.4639
22.7939 51.7254
22.8393 52.0489
22.8849 52.7275
22.9303 53.2735
22.9759 55.05
23.0214 57.1795
23.067 58.1988
23.1126 55.7802
23.1581 51.9869
23.2037 49.7164
23.2492 49.3038
23.2948 49.7355
23.3403 50.8839
23.3859 51.7157
23.4314 51.7515
23.477 51.9162
23.5225 52.443
23.5682 53.6429
23.6137 56.0605
23.6593 57.857
23.7048 57.2778
23.7505 53.2013
23.796 49.0168
23.8417 46.8623
23.8872 46.0077
23.9329 45.644
23.9784 45.3142
24.0241 45.1209
24.0697 44.8108
24.1154 44.3106
24.1609 44.0829
24.2066 44.0605
24.2522 43.7853
24.2979 43.7011
24.3434 43.5706
24.3892 43.2639
24.4349 43.332
24.4805 42.9674
24.5262 43.1027
24.5718 42.8736
24.6175 43.0394
24.6631 43.2174
24.7089 42.9597
24.7545 42.8402
24.8002 42.4586
24.8458 42.3983
24.8916 42.6071
24.9372 42.8104
24.983 42.806
25.0286 42.9584
25.0744 43.6289
25.12 43.8708
25.1658 44.264
25.2114 44.6973
25.2572 44.9935
25.3029 44.8757
25.3487 44.7432
25.3943 44.8627
25.4402 45.0225
25.4858 44.5372
25.5316 43.1605
25.5773 41.7046
25.6231 41.3323
25.669 40.8065
25.7147 40.9696
25.7605 40.7513
25.8062 40.882
25.8521 41.1733
25.8977 41.0779
25.9436 41.1213
25.9893 40.9191
26.0352 41.1
26.0809 41.317
26.1268 41.6274
26.1725 41.9755
26.2184 42.0008
26.2641 41.3332
26.31 40.9819
26.3557 40.715
26.4017 40.917
26.4474 40.914
26.4933 41.0369
26.5391 41.2618
26.585 41.3563
26.6308 42.0001
26.6767 42.004
26.7225 42.6492
26.7684 42.7381
26.8142 41.9136
26.8601 41.3179
26.9059 40.8731
26.9519 40.3769
26.9979 40.0681
27.0437 39.5272
27.0896 39.1285
27.1354 39.1884
27.1814 38.8657
27.2272 38.9126
27.2732 38.9708
27.3191 38.5647
27.3651 38.7401
27.4109 38.7127
27.4569 38.5794
27.5027 38.651
27.5488 38.7587
27.5946 38.6668
27.6407 38.928
27.6865 38.7616
27.7326 38.5618
27.7784 38.4297
27.8245 38.323
27.8703 38.3404
27.9164 38.5942
27.9623 38.5159
28.0084 38.7211
28.0543 39.1172
28.1003 39.2201
28.1462 39.3511
28.1923 39.3265
28.2384 38.8203
28.2843 38.3997
28.3304 38.0022
28.3764 37.5196
28.4225 37.153
28.4684 36.7364
28.5145 36.3032
28.5605 36.2352
28.6066 36.1047
28.6526 35.9518
28.6987 35.8858
28.7447 35.7148
28.7908 35.5978
28.8368 35.5138
28.8829 35.4321
28.9289 35.4369
28.9751 35.3827
29.0211 35.4467
29.0673 35.1488
29.1133 35.1459
29.1595 34.7163
29.2055 34.5315
29.2517 34.5035
29.2977 34.3991
29.3439 34.3401
29.3899 34.2756
29.4361 34.2108
29.4824 34.327
29.5284 34.1603
29.5746 34.0642
29.6207 33.4933
29.6669 33.4227
29.713 33.182
29.7593 33.0501
29.8053 33.0746
29.8516 32.9378
29.8977 32.9644
29.9439 32.8114
29.99 32.816
30.0363 32.6222
30.0824 32.6822
30.1287 32.525
30.1748 32.6272
30.2211 32.5725
30.2673 32.5302
30.3136 32.6252
30.3597 32.6566
30.406 32.6089
30.4522 32.4359
30.4985 32.4309
30.5447 32.4496
30.591 32.3714
30.6372 32.4075
30.6835 32.2563
30.7297 32.347
30.7761 32.3695
30.8224 32.3973
30.8686 32.3255
30.915 32.0987
30.9612 32.0032
31.0076 31.6709
31.0538 31.5234
31.1002 31.4143
31.1464 31.2763
31.1928 31.1926
31.2391 31.3249
31.2855 31.1927
31.3317 31.1784
31.3781 31.1426
31.4244 31.1666
31.4708 30.9874
31.5171 30.9225
31.5636 31.1728
31.6098 30.996
31.6563 30.8956
31.7026 30.7119
31.7491 30.5517
31.7953 30.4453
31.8418 30.3584
31.8881 30.3435
31.9346 30.3592
31.9809 30.2044
32.0275 30.2654
32.074 30.172
32.1203 30.037
32.1668 29.9227
32.2132 29.8116
32.2597 29.577
32.306 29.5148
32.3526 29.2739
32.399 29.1738
32.4455 29.0355
32.4919 28.8633
32.5385 28.8398
32.5848 28.7545
32.6314 28.7676
32.6778 28.6503
32.7244 28.5985
32.7708 28.3171
32.8174 28.3549
32.8638 28.2461
32.9104 28.3343
32.9569 28.176
33.0035 28.0484
33.0499 28.0402
33.0966 28.0681
33.143 27.9223
33.1897 27.7853
33.2361 27.7931
33.2828 27.8058
33.3293 27.6258
33.3759 27.6814
33.4226 27.5608
33.4691 27.4113
33.5158 27.4288
33.5623 27.2159
33.609 26.9112
33.6555 26.911
33.7022 26.8659
33.7487 26.7002
33.7954 26.6612
33.842 26.5669
33.8887 26.5362
33.9353 26.4614
33.982 26.4507
34.0286 26.2992
34.0753 26.2545
34.1219 26.1264
34.1687 26.0474
34.2152 25.9901
34.262 25.8312
34.3086 25.7698
34.3554 25.686
34.402 25.568
34.4488 25.5081
34.4954 25.4031
34.5422 25.3915
34.5889 25.2789
34.6357 25.1329
34.6825 25.1143
34.7292 25.0118
34.776 24.8844
34.8227 24.9072
34.8695 24.773
34.9162 24.7392
34.9631 24.611
35.0098 24.6249
35.0566 24.5834
35.1033 24.559
35.1502 24.4204
35.1969 24.4549
35.2438 24.2633
35.2906 24.2585
35.3375 24.2208
35.3842 24.1788
35.4311 24.0652
35.4779 24.0373
35.5248 24.004
35.5716 23.9786
35.6185 23.8913
35.6653 23.8252
35.7123 23.7292
35.759 23.6642
35.806 23.5122
35.8528 23.4565
35.8998 23.4172
35.9468 23.2676
35.9936 23.2321
36.0406 23.219
36.0874 23.1117
36.1345 23.0157
36.1813 23.0637
36.2283 22.9427
36.2752 22.8625
36.3222 22.8477
36.3691 22.7834
36.4161 22.6234
36.463 22.5811
36.5101 22.5373
36.557 22.4623
36.6041 22.3646
36.651 22.3825
36.6981 22.3243
36.745 22.3062
36.7921 22.1929
36.839 22.0978
36.8861 21.9395
36.9331 21.9408
36.9802 21.8672
37.0272 21.7953
37.0743 21.5798
37.1213 21.6453
37.1684 21.5927
37.2154 21.5203
37.2626 21.4375
37.3098 21.358
37.3568 21.3126
37.404 21.2424
37.451 21.1743
37.4982 21.1274
37.5452 21.0345
37.5924 20.8975
37.6395 20.9759
37.6867 20.9319
37.7337 20.7941
37.781 20.7137
37.8281 20.6668
37.8753 20.5121
37.9224 20.4443
37.9697 20.4339
38.0168 20.4374
38.064 20.2537
38.1111 20.2841
38.1584 20.199
38.2056 20.1296
38.2529 20.089
38.3 20.0179
38.3473 20.004
38.3945 19.8154
38.4418 19.8872
38.489 19.7472
38.5363 19.7145
38.5837 19.5921
38.6309 19.5238
38.6782 19.4805
38.7254 19.4324
38.7728 19.3726
38.82 19.2851
38.8674 19.2132
38.9146 19.1962
38.9621 19.1113
39.0093 19.0308
39.0567 18.9997
39.104 18.9661
39.1514 18.7856
39.1987 18.7835
39.2461 18.6933
39.2934 18.7364
39.3409 18.609
39.3882 18.535
39.4356 18.4695
39.483 18.5088
39.5304 18.41
39.5778 18.3576
39.6253 18.2587
39.6726 18.1844
39.7201 18.1855
39.7675 18.145
39.815 18.1012
39.8624 17.9588
39.9099 17.9642
39.9575 17.8454
40.0049 17.8977
40.0525 17.7594
40.0999 17.7051
40.1474 17.7052
40.1949 17.6022
40.2425 17.5449
40.2899 17.4973
40.3375 17.4788
40.385 17.3141
40.4326 17.3477
40.48 17.2787
40.5277 17.2461
40.5752 17.182
40.6228 17.0935
40.6703 16.9887
40.718 16.9503
40.7655 16.9176
40.8132 16.9166
40.8607 16.9003
40.9084 16.8108
40.9559 16.7458
41.0036 16.6981
41.0512 16.6372
41.0989 16.5973
41.1465 16.4803
41.1942 16.4233
41.242 16.3819
41.2896 16.3137
41.3373 16.2615
41.3849 16.2799
41.4327 16.1654
41.4803 16.1501
41.5281 16.0951
41.5758 16.0012
41.6236 15.9563
41.6712 15.9259
41.7191 15.8109
41.7667 15.8207
41.8146 15.7781
41.8622 15.7319
41.9101 15.6726
41.9578 15.5512
42.0057 15.5493
42.0534 15.4658
42.1013 15.4855
42.149 15.3598
42.1969 15.3026
42.2446 15.2652
42.2925 15.2142
42.3403 15.2166
42.3882 15.1497
42.436 15.1146
42.4839 15.0129
42.5319 15.0138
42.5797 14.9267
42.6277 14.8616
42.6755 14.8728
42.7235 14.7473
42.7713 14.7458
42.8193 14.6931
42.8671 14.6691
42.9152 14.6264
42.963 14.5175
43.0111 14.5105
43.0589 14.4594
43.107 14.3781
43.1549 14.3432
43.2029 14.2791
43.2508 14.2426
43.2989 14.2036
43.3468 14.11
43.3949 14.0601
43.4429 14.0489
43.491 13.9386
43.5389 13.9033
43.5871 13.924
43.635 13.8398
43.6832 13.7505
43.7312 13.7141
43.7793 13.7054
43.8273 13.6854
43.8755 13.5782
43.9237 13.5556
43.9717 13.5287
44.0199 13.4697
44.068 13.426
44.1162 13.368
44.1642 13.3383
44.2125 13.2699
44.2606 13.2362
44.3088 13.1513
44.3569 13.1273
44.4052 13.1101
44.4533 13.056
44.5016 12.9781
44.5497 12.9163
44.598 12.9259
44.6461 12.8727
44.6945 12.7967
44.7426 12.7912
44.791 12.6871
44.8391 12.7026
44.8875 12.6481
44.9357 12.6298
44.984 12.5618
45.0322 12.5129
45.0806 12.4744
45.1288 12.4197
45.1773 12.3926
45.2257 12.3179
45.2739 12.2997
45.3224 12.2497
45.3706 12.1986
45.4191 12.1053
45.4673 12.0857
45.5158 12.0745
45.5641 12.0254
45.6126 12.0204
45.6609 11.9481
45.7094 11.876
45.7577 11.8314
45.8063 11.7772
45.8546 11.7625
45.9031 11.7328
45.9515 11.6829
46.0001 11.6427
46.0484 11.5983
46.097 11.6114
46.1454 11.4865
46.194 11.5041
46.2424 11.4456
46.291 11.3796
46.3395 11.3314
46.3881 11.2855
46.4365 11.2865
46.4852 11.2403
46.5337 11.1932
46.5823 11.165
46.631 11.1379
46.6795 11.0679
46.7282 11.0387
46.7767 10.9721
46.8254 10.9018
46.8739 10.929
46.9226 10.8821
46.9712 10.8156
47.0199 10.7547
47.0685 10.6984
47.1173 10.6901
47.1658 10.6342
47.2146 10.6166
47.2632 10.5552
47.312 10.5111
47.3606 10.5287
47.4095 10.4403
47.4581 10.4482
47.5069 10.3799
47.5556 10.3213
47.6044 10.2734
47.6531 10.2591
47.702 10.2129
47.7507 10.2378
47.7996 10.1576
47.8483 10.0735
47.8972 10.1299
47.9461 10.0429
47.9948 9.9988
48.0438 9.96979
48.0925 9.94266
48.1415 9.9609
48.1902 9.85819
48.2392 9.85304
48.288 9.78909
48.337 9.74966
48.3858 9.77781
48.4348 9.6767
48.4837 9.67169
48.5327 9.65535
48.5815 9.616
48.6306 9.59893
48.6795 9.55458
48.7285 9.4696
48.7774 9.46913
48.8265 9.44387
48.8754 9.36661
48.9245 9.33374
48.9734 9.29011
49.0226 9.29976
49.0715 9.28279
49.1206 9.18213
49.1696 9.1566
49.2188 9.15859
49.2679 9.09353
49.3169 9.07952
49.3661 9.04225
49.4151 9.02299
49.4643 8.9453
49.5134 8.91787
49.5626 8.8744
49.6117 8.89072
49.6609 8.82397
49.71 8.78047
49.7592 8.79543
49.8083 8.7368
49.8576 8.661
49.9067 8.62827
49.956 8.6107
50.0052 8.60113
50.0545 8.54954
50.1036 8.56945
50.153 8.4962
50.2022 8.46556
50.2515 8.44485
50.3007 8.37788
50.3501 8.34297
50.3993 8.33884
50.4487 8.30068
50.498 8.31182
50.5474 8.2586
50.5966 8.23325
50.6461 8.18381
50.6955 8.16697
50.7448 8.10588
50.7943 8.11267
50.8436 8.04772
50.8931 8.00181
50.9424 7.96665
50.9919 7.92356
51.0413 7.95636
51.0908 7.90674
51.1402 7.85138
51.1897 7.84286
51.2391 7.82747
51.2887 7.76907
51.3381 7.75147
51.3877 7.72551
51.4371 7.6732
51.4867 7.64587
51.5362 7.60754
51.5858 7.55949
51.6353 7.5521
51.6849 7.50992
51.7344 7.46932
51.7841 7.49601
51.8336 7.41766
51.8833 7.4002
51.9328 7.36434
51.9826 7.30023
52.0323 7.31364
52.0818 7.27955
52.1316 7.23851
52.1812 7.20814
52.231 7.17459
52.2806 7.15107
52.3304 7.17953
52.38 7.06209
52.4298 7.04051
52.4794 7.06272
52.5293 6.97102
52.5789 6.98765
52.6288 6.96675
52.6785 6.91735
52.7284 6.92688
52.7781 6.87994
52.828 6.85535
52.8777 6.80694
52.9276 6.78178
52.9774 6.75118
53.0273 6.71019
53.0771 6.68928
53.1271 6.6967
53.1769 6.62527
53.2269 6.62141
53.2767 6.56801
53.3267 6.57017
53.3765 6.46007
53.4266 6.48984
53.4766 6.46689
53.5265 6.44465
53.5765 6.41527
53.6264 6.39831
53.6765 6.35585
53.7264 6.34962
53.7765 6.28186
53.8265 6.26047
53.8766 6.23103
53.9266 6.18209
53.9767 6.17467
54.0267 6.16648
54.0769 6.12402
54.1269 6.08804
54.1771 6.08104
54.2271 6.01866
54.2773 5.98118
54.3274 5.93325
54.3776 5.96725
54.4277 5.85728
54.478 5.86983
54.528 5.80857
54.5783 5.7224
54.6285 5.67752
54.6788 5.66779
54.7289 5.59955
54.7792 5.59851
54.8296 5.53666
54.8798 5.48919
54.9301 5.47606
54.9803 5.47291
55.0307 5.41635
55.0809 5.34211
55.1314 5.32958
55.1816 5.28302
55.232 5.20091
55.2823 5.15212
55.3328 5.09958
55.383 5.05896
55.4335 5.01186
55.4838 4.9855
55.5344 4.87534
55.5847 4.83291
55.6352 4.8303
55.6856 4.84071
55.7361 4.80983