File: XRD/Ni3Fe_FD0799.xy
TT I
1.27165 7.25306
1.31627 7.00982
1.36089 6.79319
1.40551 5.4686
1.45013 5.80132
1.49476 5.73765
1.53938 6.01645
1.584 5.63778
1.62863 5.0403
1.67325 4.87699
1.71787 4.91283
1.7625 4.89234
1.80712 5.20901
1.85174 4.69968
1.89636 4.67342
1.94099 4.31654
1.98562 4.47411
2.03025 4.48221
2.07487 4.07072
2.11949 5.15864
2.16411 4.96104
2.20874 10.5095
2.25338 14.518
2.298 5.83997
2.34263 5.81036
2.38725 5.99033
2.43188 5.80926
2.4765 6.67881
2.52115 6.5562
2.56577 6.58137
2.6104 8.037
2.65503 7.99999
2.69965 8.15474
2.7443 8.23835
2.78893 7.62433
2.83356 8.1249
2.87818 8.07512
2.92281 8.69009
2.96744 9.27112
3.01209 10.4417
3.05672 10.8149
3.10135 12.6546
3.14599 13.2798
3.19062 14.2808
3.23527 15.2019
3.2799 15.532
3.32454 16.6804
3.36917 17.6222
3.4138 18.5358
3.45844 19.2977
3.50309 20.4264
3.54773 21.7272
3.59237 23.2661
3.637 58.8904
3.68164 41.6749
3.7263 25.3341
3.77094 26.0437
3.81558 26.4706
3.86022 27.1696
3.90486 28.5568
3.9495 29.7778
3.99416 30.237
4.0388 31.7173
4.08344 33.1854
4.12809 34.3281
4.17273 35.9164
4.21738 39.8184
4.26204 151.221
4.30669 130.092
4.35133 45.0943
4.39598 43.1989
4.44063 49.0929
4.4853 56.7184
4.52995 53.6929
4.5746 54.4047
4.61925 53.3603
4.6639 55.0268
4.70855 57.55
4.75322 60.9266
4.79788 65.7322
4.84253 67.5979
4.88719 73.0565
4.93184 75.8157
4.97652 80.1642
5.02118 86.6908
5.06583 93.7426
5.11049 104.84
5.15515 157.557
5.19981 379.514
5.24449 2825.66
5.28916 12286.3
5.33382 2499.15
5.37848 182.573
5.42315 126.863
5.46783 115.427
5.5125 108.202
5.55716 101.328
5.60183 96.6783
5.6465 95.7518
5.69117 93.4589
5.73586 91.6038
5.78053 94.2915
5.8252 94.3499
5.86988 95.8483
5.91455 93.8323
5.95924 103.15
6.00392 231.216
6.0486 967.192
6.09328 4576.61
6.13795 3069.47
6.18263 202.554
6.22733 89.1587
6.27201 80.2595
6.3167 88.1182
6.36138 75.007
6.40606 68.7088
6.45075 67.9484
6.49545 64.5885
6.54014 63.0271
6.58483 62.1415
6.62952 62.0371
6.67421 77.7084
6.71892 102.074
6.76361 63.3354
6.8083 58.4707
6.853 58.2028
6.89769 56.3887
6.94239 55.5789
6.98711 55.0762
7.03181 55.0258
7.07651 54.4823
7.12121 54.5693
7.16591 54.7246
7.21063 54.5451
7.25533 62.5295
7.30004 118.938
7.34475 73.2334
7.38945 54.5362
7.43416 53.811
7.47889 53.5984
7.5236 53.9472
7.56831 54.2943
7.61303 55.4089
7.65774 55.6279
7.70247 55.8717
7.74719 55.5742
7.79191 56.0497
7.83663 56.4205
7.88135 57.1703
7.92607 57.9345
7.97081 59.0038
8.01553 60.3737
8.06026 61.9452
8.10498 63.5101
8.14971 70.5822
8.19446 70.2042
8.23919 68.622
8.28392 71.4439
8.32865 73.3578
8.37339 77.7195
8.41812 83.7045
8.46288 104.884
8.50761 175.093
8.55235 383.984
8.59709 1212.53
8.64183 2199.42
8.68658 842.422
8.73134 146.455
8.77609 96.5714
8.82083 91.5209
8.86558 90.1981
8.91033 90.1224
8.9551 88.7166
8.99985 84.1043
9.04461 83.042
9.08936 82.4525
9.13412 81.8668
9.17888 81.185
9.22365 81.937
9.26841 81.4269
9.31318 82.9867
9.35794 84.0845
9.4027 83.9196
9.44749 83.7007
9.49226 84.0507
9.53703 85.0416
9.5818 87.8284
9.62657 92.1318
9.67134 95.4485
9.71614 92.1607
9.76091 93.6198
9.80569 97.2231
9.85047 99.5864
9.89525 113.752
9.94005 127.975
9.98484 186.759
10.0296 344.382
10.0744 832.313
10.1192 1791.82
10.164 1501.56
10.2088 338.71
10.2536 119.286
10.2984 109.001
10.3432 108.463
10.388 103.938
10.4328 120.847
10.4776 161.456
10.5224 291.246
10.5672 540.944
10.612 485.692
10.6568 184.502
10.7017 93.7217
10.7465 85.4507
10.7913 82.3588
10.8361 80.2704
10.8809 77.9984
10.9257 77.0232
10.9706 77.468
11.0154 74.2975
11.0602 71.9524
11.105 70.7049
11.1499 72.5015
11.1947 76.1021
11.2395 70.3647
11.2844 68.1824
11.3292 66.1903
11.374 65.5697
11.4189 64.9604
11.4637 64.0192
11.5086 63.9962
11.5534 65.3951
11.5983 64.0777
11.6431 62.7791
11.688 62.0475
11.7328 62.1434
11.7777 62.0376
11.8225 61.8823
11.8674 61.9395
11.9122 62.2898
11.9571 62.2302
12.002 63.5203
12.0468 68.0973
12.0917 78.0296
12.1366 102.323
12.1814 157.446
12.2263 214.302
12.2712 165.254
12.3161 87.7411
12.3609 66.9399
12.4058 63.4867
12.4507 63.4065
12.4956 63.9494
12.5405 64.1803
12.5853 64.6155
12.6302 68.9571
12.6751 71.8371
12.72 67.617
12.7649 66.9786
12.8098 67.5716
12.8547 68.9751
12.8996 70.7396
12.9445 72.0207
12.9894 73.6392
13.0343 75.2938
13.0792 79.314
13.1242 90.7024
13.1691 111.358
13.214 149.241
13.2589 247.867
13.3038 389.74
13.3487 418.596
13.3937 238.805
13.4386 116.275
13.4835 105.645
13.5285 119.582
13.5734 159.454
13.6183 257.534
13.6633 365.26
13.7082 325.518
13.7531 166.155
13.7981 92.4721
13.843 80.418
13.888 78.8957
13.9329 76.3121
13.9779 75.1675
14.0228 73.2274
14.0678 72.1033
14.1127 71.8179
14.1577 71.3143
14.2027 70.541
14.2476 69.8799
14.2926 69.3523
14.3376 69.7527
14.3825 69.3078
14.4275 68.1296
14.4725 68.1218
14.5175 68.1226
14.5624 68.5195
14.6074 69.707
14.6524 69.7943
14.6974 69.8083
14.7424 72.4643
14.7874 79.4412
14.8324 88.616
14.8774 111.285
14.9224 158.744
14.9674 216.627
15.0124 219.215
15.0574 140.547
15.1024 86.1069
15.1474 71.0457
15.1924 69.5261
15.2374 69.2617
15.2824 68.4358
15.3274 66.8362
15.3725 66.2168
15.4175 65.9193
15.4625 65.2297
15.5076 65.2049
15.5526 65.2345
15.5976 65.1565
15.6426 67.0143
15.6877 72.4209
15.7327 79.3599
15.7778 95.0588
15.8228 129.213
15.8679 178.58
15.9129 196.374
15.958 145.251
16.003 88.2105
16.0481 65.5096
16.0931 62.6643
16.1382 61.102
16.1833 59.6849
16.2283 58.1927
16.2734 57.6999
16.3185 57.3137
16.3636 57.303
16.4086 56.4867
16.4537 55.422
16.4988 54.7893
16.5439 54.8144
16.589 54.6107
16.6341 54.2677
16.6792 53.8185
16.7243 53.9919
16.7694 54.0088
16.8145 53.9306
16.8596 54.384
16.9047 55.2187
16.9498 55.6551
16.9949 54.6983
17.04 55.5018
17.0851 56.6268
17.1302 58.1084
17.1754 61.1008
17.2205 66.8296
17.2656 75.4025
17.3108 83.149
17.3559 81.1593
17.401 68.6667
17.4462 60.5453
17.4913 58.4034
17.5365 58.5373
17.5815 58.5936
17.6268 59.154
17.6718 59.5265
17.7171 59.9788
17.7622 60.6362
17.8074 61.7652
17.8525 64.3531
17.8977 68.2194
17.9428 73.1077
17.9881 82.6164
18.0331 101.431
18.0784 125.368
18.1237 141.138
18.1688 126.557
18.214 98.4776
18.2591 84.6449
18.3044 91.2731
18.3495 101.762
18.3948 105.223
18.4399 92.4306
18.4852 73.841
18.5303 64.2859
18.5756 61.2734
18.6207 60.5297
18.666 59.5344
18.7112 58.8054
18.7565 58.2552
18.8016 57.9454
18.8469 57.3012
18.892 57.0248
18.9374 56.7032
18.9825 56.47
19.0278 56.234
19.073 56.2247
19.1183 56.693
19.1635 57.2074
19.2088 58.7667
19.254 61.5571
19.2993 66.4503
19.3447 72.4574
19.3898 75.6656
19.4352 70.0417
19.4804 61.0506
19.5257 55.2607
19.5709 53.4178
19.6163 53.1582
19.6615 53.1548
19.7068 52.7742
19.752 52.7148
19.7974 53.1762
19.8426 53.8649
19.888 54.338
19.9332 55.839
19.9786 58.3337
20.0238 62.8334
20.0692 67.7666
20.1144 69.7591
20.1598 66.846
20.205 62.2966
20.2504 61.7196
20.2957 64.0187
20.3411 65.1644
20.3863 62.8647
20.4318 56.8398
20.477 52.2764
20.5224 50.5638
20.5677 50.1171
20.6131 49.6583
20.6586 49.1845
20.7038 48.9429
20.7493 48.533
20.7945 48.3702
20.84 48.3364
20.8853 48.153
20.9307 48.1152
20.976 48.2687
21.0215 48.0754
21.0668 48.4942
21.1122 49.0207
21.1575 49.6968
21.203 50.5475
21.2483 51.0266
21.2938 50.8419
21.3391 49.4026
21.3846 48.1971
21.4299 47.9737
21.4754 47.9997
21.5207 47.9567
21.5662 48.4229
21.6116 48.9348
21.6571 49.5324
21.7024 50.3273
21.7479 52.2452
21.7933 55.4025
21.8388 59.0283
21.8843 62.9313
21.9297 64.2367
21.9752 61.77
22.0206 58.0276
22.0661 55.7225
22.1115 55.8447
22.157 55.3664
22.2024 53.1861
22.248 50.4412
22.2933 49.0353
22.3389 48.3116
22.3843 48.443
22.4299 48.2559
22.4753 48.2232
22.5208 48.0341
22.5662 47.9105
22.6118 48.2816
22.6572 48.3268
22.7028 48.7201
22.7483 49.0834
22.7939 50.0116
22.8393 51.5803
22.8849 54.0403
22.9303 56.16
22.9759 57.5237
23.0214 56.3988
23.067 53.3869
23.1126 50.0922
23.1581 48.5229
23.2037 48.2367
23.2492 48.3131
23.2948 48.3433
23.3403 48.5587
23.3859 49.2833
23.4314 50.2954
23.477 52.3922
23.5225 54.8303
23.5682 57.0617
23.6137 57.3374
23.6593 54.3962
23.7048 50.2812
23.7505 47.3969
23.796 46.087
23.8417 45.472
23.8872 44.9824
23.9329 44.5499
23.9784 44.3369
24.0241 44.1165
24.0697 44.0971
24.1154 43.7063
24.1609 43.4181
24.2066 43.3239
24.2522 43.2615
24.2979 42.9793
24.3434 42.798
24.3892 42.6991
24.4349 42.7262
24.4805 42.4218
24.5262 42.6818
24.5718 42.5601
24.6175 42.4679
24.6631 42.381
24.7089 41.9096
24.7545 42.0077
24.8002 41.8617
24.8458 41.8754
24.8916 41.6303
24.9372 41.6773
24.983 42.0759
25.0286 42.4907
25.0744 43.008
25.12 43.314
25.1658 43.9578
25.2114 44.224
25.2572 44.3329
25.3029 44.3949
25.3487 44.5999
25.3943 44.1635
25.4402 42.8382
25.4858 41.7074
25.5316 40.7812
25.5773 40.5016
25.6231 40.4253
25.669 40.2637
25.7147 40.0925
25.7605 39.9957
25.8062 40.1054
25.8521 40.311
25.8977 40.1095
25.9436 40.4946
25.9893 40.6455
26.0352 41.1217
26.0809 41.1581
26.1268 41.1866
26.1725 40.9672
26.2184 40.1004
26.2641 39.7675
26.31 39.5689
26.3557 39.7207
26.4017 39.7375
26.4474 39.9639
26.4933 40.3336
26.5391 40.9535
26.585 41.3647
26.6308 41.6665
26.6767 41.8324
26.7225 41.3078
26.7684 40.9788
26.8142 40.4268
26.8601 40.052
26.9059 39.4953
26.9519 39.1504
26.9979 38.8217
27.0437 38.4415
27.0896 38.2396
27.1354 38.3551
27.1814 38.2245
27.2272 38.1239
27.2732 38.1206
27.3191 37.862
27.3651 38.0396
27.4109 37.9439
27.4569 38.0493
27.5027 38.1574
27.5488 38.3362
27.5946 38.1127
27.6407 37.8473
27.6865 37.7935
27.7326 37.5722
27.7784 37.4107
27.8245 37.3918
27.8703 37.6257
27.9164 37.9599
27.9623 38.0771
28.0084 38.4483
28.0543 38.8781
28.1003 38.5253
28.1462 38.3884
28.1923 37.9755
28.2384 37.4291
28.2843 37.0901
28.3304 36.7306
28.3764 36.2689
28.4225 36.0579
28.4684 35.8921
28.5145 35.6599
28.5605 35.4633
28.6066 35.3337
28.6526 35.2285
28.6987 35.2501
28.7447 35.1822
28.7908 35.055
28.8368 35.0709
28.8829 35.0664
28.9289 34.9994
28.9751 34.7804
29.0211 34.5791
29.0673 34.232
29.1133 34.2089
29.1595 34.0236
29.2055 33.8661
29.2517 33.9878
29.2977 33.9652
29.3439 33.9716
29.3899 33.891
29.4361 33.7963
29.4824 33.5919
29.5284 33.3501
29.5746 32.9461
29.6207 32.8165
29.6669 32.754
29.713 32.6083
29.7593 32.4761
29.8053 32.6228
29.8516 32.4651
29.8977 32.4021
29.9439 32.1875
29.99 32.1962
30.0363 32.1388
30.0824 32.0409
30.1287 32.0549
30.1748 32.149
30.2211 32.0324
30.2673 31.9607
30.3136 31.9796
30.3597 31.8864
30.406 31.8507
30.4522 31.735
30.4985 31.6635
30.5447 31.9122
30.591 31.8985
30.6372 31.9906
30.6835 31.8973
30.7297 31.9086
30.7761 31.7154
30.8224 31.6063
30.8686 31.4487
30.915 31.1974
30.9612 31.0999
31.0076 30.9701
31.0538 30.902
31.1002 30.6932
31.1464 30.6209
31.1928 30.589
31.2391 30.6715
31.2855 30.6143
31.3317 30.4846
31.3781 30.592
31.4244 30.6042
31.4708 30.5513
31.5171 30.4339
31.5636 30.4089
31.6098 30.1889
31.6563 29.9843
31.7026 29.9048
31.7491 29.7767
31.7953 29.8664
31.8418 29.837
31.8881 29.8191
31.9346 29.7046
31.9809 29.7441
32.0275 29.6837
32.074 29.5023
32.1203 29.3269
32.1668 29.2342
32.2132 29.0484
32.2597 28.9982
32.306 28.8332
32.3526 28.6099
32.399 28.602
32.4455 28.3556
32.4919 28.3376
32.5385 28.275
32.5848 28.1592
32.6314 28.21
32.6778 28.2133
32.7244 28.0202
32.7708 27.8598
32.8174 27.8871
32.8638 27.8501
32.9104 27.7301
32.9569 27.6856
33.0035 27.5104
33.0499 27.4965
33.0966 27.5051
33.143 27.4708
33.1897 27.4359
33.2361 27.3988
33.2828 27.2987
33.3293 27.184
33.3759 27.0227
33.4226 26.9511
33.4691 26.7681
33.5158 26.7491
33.5623 26.5915
33.609 26.4174
33.6555 26.4355
33.7022 26.3581
33.7487 26.2845
33.7954 26.2341
33.842 26.0776
33.8887 26.1091
33.9353 25.9076
33.982 25.8587
34.0286 25.7577
34.0753 25.7236
34.1219 25.5499
34.1687 25.5144
34.2152 25.539
34.262 25.3391
34.3086 25.3113
34.3554 25.2381
34.402 25.0829
34.4488 25.0408
34.4954 25.0572
34.5422 24.8712
34.5889 24.8014
34.6357 24.6612
34.6825 24.6741
34.7292 24.5391
34.776 24.4495
34.8227 24.437
34.8695 24.4087
34.9162 24.3222
34.9631 24.2574
35.0098 24.2406
35.0566 24.0928
35.1033 24.0143
35.1502 23.9453
35.1969 23.9337
35.2438 23.9428
35.2906 23.8703
35.3375 23.8093
35.3842 23.6771
35.4311 23.6978
35.4779 23.6696
35.5248 23.6808
35.5716 23.5279
35.6185 23.4431
35.6653 23.4371
35.7123 23.1814
35.759 23.2101
35.806 23.1339
35.8528 22.9355
35.8998 22.9529
35.9468 22.8345
35.9936 22.8507
36.0406 22.7148
36.0874 22.7571
36.1345 22.6985
36.1813 22.5578
36.2283 22.478
36.2752 22.4622
36.3222 22.3942
36.3691 22.3249
36.4161 22.133
36.463 22.2057
36.5101 22.2242
36.557 22.1582
36.6041 22.0307
36.651 21.9331
36.6981 21.9549
36.745 21.8493
36.7921 21.7204
36.839 21.5684
36.8861 21.5492
36.9331 21.4884
36.9802 21.4901
37.0272 21.3868
37.0743 21.2777
37.1213 21.1912
37.1684 21.1537
37.2154 21.056
37.2626 21.047
37.3098 21.0041
37.3568 20.8708
37.404 20.8389
37.451 20.7589
37.4982 20.7044
37.5452 20.5817
37.5924 20.5601
37.6395 20.6214
37.6867 20.4653
37.7337 20.3944
37.781 20.2621
37.8281 20.2833
37.8753 20.1322
37.9224 20.0752
37.9697 20.0578
38.0168 19.9889
38.064 19.9393
38.1111 19.8304
38.1584 19.8464
38.2056 19.6928
38.2529 19.756
38.3 19.6257
38.3473 19.6114
38.3945 19.4966
38.4418 19.4562
38.489 19.3793
38.5363 19.3146
38.5837 19.2221
38.6309 19.1901
38.6782 19.0888
38.7254 19.0549
38.7728 19.0257
38.82 18.936
38.8674 18.8733
38.9146 18.8189
38.9621 18.7648
39.0093 18.7555
39.0567 18.6595
39.104 18.5543
39.1514 18.5387
39.1987 18.4794
39.2461 18.472
39.2934 18.3884
39.3409 18.2987
39.3882 18.1824
39.4356 18.1213
39.483 18.0784
39.5304 18.0825
39.5778 18.1408
39.6253 17.927
39.6726 17.8921
39.7201 17.9102
39.7675 17.776
39.815 17.724
39.8624 17.6745
39.9099 17.6562
39.9575 17.5323
40.0049 17.4909
40.0525 17.4351
40.0999 17.3855
40.1474 17.3079
40.1949 17.2747
40.2425 17.1643
40.2899 17.1817
40.3375 17.1238
40.385 17.0359
40.4326 17.0021
40.48 16.9677
40.5277 16.9349
40.5752 16.8057
40.6228 16.7293
40.6703 16.7203
40.718 16.6834
40.7655 16.612
40.8132 16.4837
40.8607 16.5393
40.9084 16.4782
40.9559 16.4398
41.0036 16.3323
41.0512 16.3124
41.0989 16.2846
41.1465 16.2377
41.1942 16.1292
41.242 16.0717
41.2896 16.0664
41.3373 15.9794
41.3849 15.8957
41.4327 15.8716
41.4803 15.8108
41.5281 15.7774
41.5758 15.7277
41.6236 15.6498
41.6712 15.6402
41.7191 15.5436
41.7667 15.4995
41.8146 15.5154
41.8622 15.4079
41.9101 15.4082
41.9578 15.2395
42.0057 15.2178
42.0534 15.1927
42.1013 15.1447
42.149 15.0948
42.1969 15.0439
42.2446 15.0117
42.2925 14.9386
42.3403 14.9001
42.3882 14.8859
42.436 14.8008
42.4839 14.6521
42.5319 14.7187
42.5797 14.6335
42.6277 14.6067
42.6755 14.5489
42.7235 14.4945
42.7713 14.4456
42.8193 14.4009
42.8671 14.3773
42.9152 14.342
42.963 14.2947
43.0111 14.2405
43.0589 14.1756
43.107 14.1187
43.1549 14.0546
43.2029 13.9456
43.2508 13.96
43.2989 13.9298
43.3468 13.8685
43.3949 13.8047
43.4429 13.8175
43.491 13.7008
43.5389 13.7133
43.5871 13.6516
43.635 13.6029
43.6832 13.5533
43.7312 13.4868
43.7793 13.4745
43.8273 13.4031
43.8755 13.3582
43.9237 13.3342
43.9717 13.2675
44.0199 13.2315
44.068 13.1944
44.1162 13.1639
44.1642 13.0885
44.2125 13.0795
44.2606 12.9991
44.3088 12.9844
44.3569 12.9568
44.4052 12.8873
44.4533 12.8072
44.5016 12.7191
44.5497 12.7377
44.598 12.6924
44.6461 12.6219
44.6945 12.5802
44.7426 12.5878
44.791 12.452
44.8391 12.4594
44.8875 12.4169
44.9357 12.3453
44.984 12.32
45.0322 12.2664
45.0806 12.2365
45.1288 12.2068
45.1773 12.1992
45.2257 12.0932
45.2739 12.0647
45.3224 12.0257
45.3706 11.9988
45.4191 11.9344
45.4673 11.8897
45.5158 11.858
45.5641 11.8007
45.6126 11.7911
45.6609 11.7225
45.7094 11.6826
45.7577 11.6441
45.8063 11.5742
45.8546 11.6129
45.9031 11.5188
45.9515 11.52
46.0001 11.4172
46.0484 11.4
46.097 11.385
46.1454 11.3161
46.194 11.2418
46.2424 11.2631
46.291 11.2129
46.3395 11.1262
46.3881 11.1171
46.4365 11.0384
46.4852 11.0123
46.5337 10.9592
46.5823 10.9694
46.631 10.9318
46.6795 10.8462
46.7282 10.8851
46.7767 10.8025
46.8254 10.7472
46.8739 10.7121
46.9226 10.6343
46.9712 10.6484
47.0199 10.5478
47.0685 10.5348
47.1173 10.5022
47.1658 10.4806
47.2146 10.4394
47.2632 10.3985
47.312 10.3577
47.3606 10.323
47.4095 10.2473
47.4581 10.222
47.5069 10.2036
47.5556 10.1673
47.6044 10.1108
47.6531 10.0985
47.702 10.0242
47.7507 10.0361
47.7996 9.96555
47.8483 9.92783
47.8972 9.93476
47.9461 9.89481
47.9948 9.83639
48.0438 9.81792
48.0925 9.75395
48.1415 9.72929
48.1902 9.69305
48.2392 9.67961
48.288 9.62723
48.337 9.62974
48.3858 9.56222
48.4348 9.53247
48.4837 9.51056
48.5327 9.44474
48.5815 9.43137
48.6306 9.36597
48.6795 9.35905
48.7285 9.3173
48.7774 9.30285
48.8265 9.24948
48.8754 9.19388
48.9245 9.19516
48.9734 9.15309
49.0226 9.15068
49.0715 9.07281
49.1206 9.04516
49.1696 9.00202
49.2188 8.97995
49.2679 8.96579
49.3169 8.9037
49.3661 8.88208
49.4151 8.82088
49.4643 8.82011
49.5134 8.75062
49.5626 8.71837
49.6117 8.72269
49.6609 8.68693
49.71 8.61675
49.7592 8.64269
49.8083 8.57297
49.8576 8.58505
49.9067 8.51332
49.956 8.47199
50.0052 8.3863
50.0545 8.41547
50.1036 8.39507
50.153 8.3642
50.2022 8.31077
50.2515 8.26737
50.3007 8.22756
50.3501 8.20508
50.3993 8.20091
50.4487 8.17806
50.498 8.12728
50.5474 8.09689
50.5966 8.02237
50.6461 8.04013
50.6955 7.99488
50.7448 7.96501
50.7943 7.96507
50.8436 7.91924
50.8931 7.8881
50.9424 7.83565
50.9919 7.80505
51.0413 7.80109
51.0908 7.72403
51.1402 7.71556
51.1897 7.65834
51.2391 7.66354
51.2887 7.6139
51.3381 7.54544
51.3877 7.58158
51.4371 7.50605
51.4867 7.48552
51.5362 7.46239
51.5858 7.45525
51.6353 7.4007
51.6849 7.40421
51.7344 7.31976
51.7841 7.32582
51.8336 7.28808
51.8833 7.24599
51.9328 7.19184
51.9826 7.18031
52.0323 7.15273
52.0818 7.13767
52.1316 7.09148
52.1812 7.11138
52.231 7.03693
52.2806 7.01289
52.3304 6.97556
52.38 6.973
52.4298 6.97778
52.4794 6.93802
52.5293 6.88312
52.5789 6.86362
52.6288 6.82444
52.6785 6.77306
52.7284 6.76542
52.7781 6.73138
52.828 6.73767
52.8777 6.6952
52.9276 6.63389
52.9774 6.63652
53.0273 6.57148
53.0771 6.54747
53.1271 6.54817
53.1769 6.52288
53.2269 6.5012
53.2767 6.43452
53.3267 6.38994
53.3765 6.39775
53.4266 6.40053
53.4766 6.34179
53.5265 6.31289
53.5765 6.27669
53.6264 6.27555
53.6765 6.2226
53.7264 6.20833
53.7765 6.2169
53.8265 6.19743
53.8766 6.09067
53.9266 6.09218
53.9767 6.04043
54.0267 6.03396
54.0769 6.00388
54.1269 5.9719
54.1771 5.98447
54.2271 5.96007
54.2773 5.89597
54.3274 5.87893
54.3776 5.8592
54.4277 5.84332
54.478 5.73332
54.528 5.73485
54.5783 5.71475
54.6285 5.67605
54.6788 5.64917
54.7289 5.58562
54.7792 5.54536
54.8296 5.47806
54.8798 5.47409
54.9301 5.40874
54.9803 5.37982
55.0307 5.3647
55.0809 5.2475
55.1314 5.25804
55.1816 5.22322
55.232 5.17601
55.2823 5.1363
55.3328 5.06362
55.383 5.05568
55.4335 5.03085
55.4838 4.94308
55.5344 4.91615
55.5847 4.8311
55.6352 4.82369
55.6856 4.78831
55.7361 4.75332