File: XRD/Ni3Fe_FD0494.xy
TT I
1.27165 7.75219
1.31627 6.15902
1.36089 6.83831
1.40551 6.57285
1.45013 6.28141
1.49476 5.86463
1.53938 5.97362
1.584 5.24689
1.62863 5.94633
1.67325 5.10499
1.71787 5.23071
1.7625 5.18922
1.80712 5.36155
1.85174 4.77448
1.89636 4.9787
1.94099 4.75695
1.98562 5.19093
2.03025 4.0479
2.07487 4.41021
2.11949 5.22651
2.16411 4.92711
2.20874 13.2338
2.25338 19.1216
2.298 5.80506
2.34263 5.42473
2.38725 5.56476
2.43188 5.66559
2.4765 6.87625
2.52115 6.21629
2.56577 6.8619
2.6104 7.50714
2.65503 7.79788
2.69965 8.04803
2.7443 7.84665
2.78893 7.74393
2.83356 8.43034
2.87818 8.76168
2.92281 9.19183
2.96744 9.95316
3.01209 10.339
3.05672 11.3521
3.10135 11.8897
3.14599 13.041
3.19062 13.8119
3.23527 15.0684
3.2799 15.7083
3.32454 16.9092
3.36917 18.0019
3.4138 18.7265
3.45844 20.279
3.50309 20.8876
3.54773 22.1545
3.59237 24.3435
3.637 81.1054
3.68164 52.1531
3.7263 26.3985
3.77094 26.493
3.81558 27.1243
3.86022 27.8791
3.90486 29.2254
3.9495 30.0914
3.99416 31.2026
4.0388 32.6287
4.08344 34.3446
4.12809 34.9372
4.17273 37.1225
4.21738 43.2329
4.26204 213.339
4.30669 181.327
4.35133 48.1438
4.39598 44.5522
4.44063 52.8566
4.4853 62.5605
4.52995 51.3996
4.5746 51.9775
4.61925 54.0828
4.6639 56.0641
4.70855 58.955
4.75322 61.586
4.79788 65.1395
4.84253 68.6977
4.88719 72.5631
4.93184 76.3647
4.97652 81.847
5.02118 88.9009
5.06583 96.8654
5.11049 109.5
5.15515 173.186
5.19981 419.475
5.24449 3172.55
5.28916 11865.3
5.33382 3190.62
5.37848 204.94
5.42315 134.385
5.46783 117.406
5.5125 108.944
5.55716 104.208
5.60183 100.814
5.6465 98.7354
5.69117 96.4163
5.73586 93.8069
5.78053 93.9912
5.8252 93.3839
5.86988 94.7243
5.91455 97.4648
5.95924 106.997
6.00392 234.822
6.0486 1076.01
6.09328 4196.08
6.13795 3537.32
6.18263 286.013
6.22733 97.3917
6.27201 85.0434
6.3167 99.0607
6.36138 79.9538
6.40606 70.3179
6.45075 68.4429
6.49545 66.2443
6.54014 64.6346
6.58483 63.7967
6.62952 63.8199
6.67421 89.7102
6.71892 128.918
6.76361 67.5693
6.8083 59.4272
6.853 58.2705
6.89769 57.5029
6.94239 57.3124
6.98711 56.3394
7.03181 56.1922
7.07651 55.8993
7.12121 55.6448
7.16591 55.9141
7.21063 56.3517
7.25533 69.0925
7.30004 155.347
7.34475 85.3411
7.38945 56.8979
7.43416 55.0465
7.47889 55.0979
7.5236 55.4918
7.56831 56.4083
7.61303 57.6863
7.65774 57.7703
7.70247 56.8488
7.74719 57.0373
7.79191 57.6438
7.83663 57.2507
7.88135 58.7676
7.92607 59.6114
7.97081 60.7039
8.01553 62.0027
8.06026 63.2456
8.10498 64.9158
8.14971 73.1487
8.19446 72.1574
8.23919 70.3049
8.28392 72.8179
8.32865 75.2484
8.37339 79.8705
8.41812 86.6002
8.46288 112.766
8.50761 178.508
8.55235 425.639
8.59709 1207.97
8.64183 2139.73
8.68658 1066.39
8.73134 182.581
8.77609 102.391
8.82083 95.081
8.86558 91.6128
8.91033 91.2311
8.9551 91.8454
8.99985 86.6805
9.04461 84.7448
9.08936 84.3588
9.13412 83.2458
9.17888 83.4462
9.22365 83.8321
9.26841 83.2672
9.31318 84.2502
9.35794 84.0452
9.4027 84.72
9.44749 85.3853
9.49226 86.1248
9.53703 86.8782
9.5818 88.8167
9.62657 92.7737
9.67134 98.6123
9.71614 94.701
9.76091 95.3144
9.80569 98.2984
9.85047 101.629
9.89525 122.46
9.94005 135.318
9.98484 191.05
10.0296 375.326
10.0744 848.373
10.1192 1652.16
10.164 1648.29
10.2088 460.019
10.2536 136.365
10.2984 114.689
10.3432 115.075
10.388 106.561
10.4328 123.028
10.4776 168.86
10.5224 292.257
10.5672 500.201
10.612 504.527
10.6568 222.433
10.7017 99.4899
10.7465 87.9659
10.7913 84.4019
10.8361 82.1685
10.8809 80.0331
10.9257 79.263
10.9706 79.408
11.0154 76.0632
11.0602 73.9466
11.105 72.8203
11.1499 76.1779
11.1947 81.9612
11.2395 74.3178
11.2844 70.7831
11.3292 68.3115
11.374 67.0112
11.4189 66.4341
11.4637 65.8914
11.5086 66.269
11.5534 68.4437
11.5983 66.2346
11.6431 64.5919
11.688 63.8206
11.7328 63.6641
11.7777 63.7549
11.8225 63.5014
11.8674 63.0517
11.9122 63.8758
11.9571 63.6152
12.002 64.5555
12.0468 69.739
12.0917 81.958
12.1366 106.717
12.1814 155.405
12.2263 200.24
12.2712 169.039
12.3161 99.9832
12.3609 71.0721
12.4058 65.6903
12.4507 65.2903
12.4956 65.4576
12.5405 65.7323
12.5853 66.4115
12.6302 73.1246
12.6751 77.3894
12.72 70.3104
12.7649 68.6777
12.8098 69.3515
12.8547 70.6853
12.8996 71.943
12.9445 73.0921
12.9894 74.9337
13.0343 77.0246
13.0792 80.4077
13.1242 91.0459
13.1691 116.928
13.214 155.847
13.2589 244.192
13.3038 360.513
13.3487 417.465
13.3937 277.233
13.4386 131.494
13.4835 109.677
13.5285 125.795
13.5734 165.278
13.6183 249.44
13.6633 332.742
13.7082 341.117
13.7531 202.083
13.7981 103.45
13.843 83.3749
13.888 80.785
13.9329 78.4249
13.9779 76.9858
14.0228 75.3899
14.0678 74.0281
14.1127 73.5266
14.1577 73.2258
14.2027 72.6557
14.2476 71.3927
14.2926 71.5044
14.3376 72.2755
14.3825 71.21
14.4275 69.8249
14.4725 69.655
14.5175 70.2019
14.5624 70.0731
14.6074 72.0276
14.6524 72.4533
14.6974 71.481
14.7424 73.1973
14.7874 81.0929
14.8324 92.0209
14.8774 114.241
14.9224 155.453
14.9674 199.898
15.0124 214.073
15.0574 156.509
15.1024 96.2129
15.1474 73.9467
15.1924 71.9289
15.2374 71.9308
15.2824 70.7722
15.3274 69.0482
15.3725 67.8006
15.4175 67.3975
15.4625 67.2175
15.5076 67.2314
15.5526 67.1688
15.5976 66.9813
15.6426 68.1636
15.6877 74.3081
15.7327 82.5462
15.7778 98.2954
15.8228 129.244
15.8679 166.215
15.9129 187.5
15.958 158.66
16.003 102.126
16.0481 70.109
16.0931 65.5192
16.1382 63.2506
16.1833 61.7058
16.2283 60.0608
16.2734 59.3409
16.3185 59.1302
16.3636 59.7199
16.4086 58.407
16.4537 57.2247
16.4988 56.2796
16.5439 56.3317
16.589 55.8901
16.6341 55.8614
16.6792 55.2353
16.7243 55.7391
16.7694 55.6511
16.8145 55.5694
16.8596 55.9931
16.9047 57.3585
16.9498 57.5025
16.9949 56.5151
17.04 56.5782
17.0851 57.9849
17.1302 59.8999
17.1754 62.9149
17.2205 68.0109
17.2656 74.913
17.3108 81.3263
17.3559 82.1096
17.401 72.8001
17.4462 63.8099
17.4913 60.278
17.5365 59.8829
17.5815 60.1995
17.6268 60.4935
17.6718 61.1205
17.7171 61.7733
17.7622 62.2235
17.8074 62.973
17.8525 65.6411
17.8977 70.0847
17.9428 75.7684
17.9881 84.8927
18.0331 101.526
18.0784 120.348
18.1237 135.983
18.1688 133.299
18.214 108.049
18.2591 89.8288
18.3044 91.7214
18.3495 99.4066
18.3948 104.753
18.4399 98.2676
18.4852 80.4302
18.5303 67.6048
18.5756 63.2727
18.6207 62.1844
18.666 61.2962
18.7112 60.6438
18.7565 59.8095
18.8016 59.6435
18.8469 59.0118
18.892 58.6224
18.9374 58.1071
18.9825 58.0133
19.0278 57.7369
19.073 57.908
19.1183 58.3767
19.1635 59.1027
19.2088 60.7347
19.254 63.343
19.2993 67.3367
19.3447 72.4672
19.3898 75.9558
19.4352 73.2431
19.4804 65.0605
19.5257 58.1073
19.5709 55.191
19.6163 54.7277
19.6615 54.5055
19.7068 54.0333
19.752 54.1275
19.7974 54.3098
19.8426 55.2593
19.888 55.9521
19.9332 57.1805
19.9786 59.9122
20.0238 63.2744
20.0692 67.3801
20.1144 70.0983
20.1598 69.3215
20.205 65.3359
20.2504 63.3007
20.2957 64.1897
20.3411 65.7291
20.3863 64.7347
20.4318 59.838
20.477 54.7787
20.5224 52.2784
20.5677 51.6891
20.6131 51.0813
20.6586 50.5182
20.7038 50.3492
20.7493 49.8504
20.7945 49.6694
20.84 49.67
20.8853 49.5579
20.9307 49.3933
20.976 49.6902
21.0215 49.4138
21.0668 49.8161
21.1122 50.1602
21.1575 50.7664
21.203 51.5317
21.2483 51.9499
21.2938 52.0959
21.3391 50.9709
21.3846 49.7479
21.4299 49.1637
21.4754 49.1786
21.5207 49.167
21.5662 49.632
21.6116 50.0754
21.6571 50.9047
21.7024 51.9556
21.7479 53.5773
21.7933 56.4442
21.8388 59.7377
21.8843 62.8702
21.9297 64.6351
21.9752 64.182
22.0206 60.9576
22.0661 57.6461
22.1115 56.4121
22.157 56.466
22.2024 55.2421
22.248 52.4775
22.2933 50.7609
22.3389 49.7904
22.3843 49.6776
22.4299 49.6437
22.4753 49.5866
22.5208 49.2208
22.5662 49.1414
22.6118 49.5288
22.6572 49.5492
22.7028 50.0764
22.7483 50.4406
22.7939 51.282
22.8393 52.7249
22.8849 54.8784
22.9303 56.5064
22.9759 58.0312
23.0214 57.8494
23.067 55.5591
23.1126 52.2421
23.1581 50.0658
23.2037 49.5579
23.2492 49.6449
23.2948 49.6381
23.3403 49.8051
23.3859 50.4951
23.4314 51.6408
23.477 53.499
23.5225 55.3078
23.5682 57.0358
23.6137 57.8761
23.6593 56.3485
23.7048 52.6876
23.7505 49.4454
23.796 47.4354
23.8417 46.7606
23.8872 46.2485
23.9329 45.8684
23.9784 45.5568
24.0241 45.2543
24.0697 45.0804
24.1154 44.9356
24.1609 44.5641
24.2066 44.404
24.2522 44.3264
24.2979 44.0747
24.3434 43.9497
24.3892 43.936
24.4349 43.7546
24.4805 43.5961
24.5262 43.6789
24.5718 43.537
24.6175 43.5984
24.6631 43.403
24.7089 43.102
24.7545 43.0037
24.8002 42.9461
24.8458 42.8189
24.8916 42.7088
24.9372 42.7261
24.983 43.2121
25.0286 43.568
25.0744 43.9577
25.12 44.2444
25.1658 45.0514
25.2114 45.2901
25.2572 45.4067
25.3029 45.3079
25.3487 45.2598
25.3943 45.0345
25.4402 44.2413
25.4858 43.2222
25.5316 42.2296
25.5773 41.5659
25.6231 41.5604
25.669 41.1287
25.7147 41.1427
25.7605 41.1311
25.8062 41.1442
25.8521 41.2004
25.8977 41.1563
25.9436 41.4824
25.9893 41.591
26.0352 42.0744
26.0809 41.9908
26.1268 42.3337
26.1725 41.9294
26.2184 41.402
26.2641 40.9803
26.31 40.7977
26.3557 40.8764
26.4017 40.6577
26.4474 41.0545
26.4933 41.3477
26.5391 41.9303
26.585 42.2856
26.6308 42.5074
26.6767 42.6964
26.7225 42.621
26.7684 42.1832
26.8142 41.4147
26.8601 40.9935
26.9059 40.5159
26.9519 40.1735
26.9979 39.8052
27.0437 39.5019
27.0896 39.2178
27.1354 39.3805
27.1814 39.211
27.2272 39.0625
27.2732 39.1441
27.3191 38.9465
27.3651 39.0253
27.4109 39.013
27.4569 39.0585
27.5027 39.0889
27.5488 39.0925
27.5946 39.0102
27.6407 38.9382
27.6865 38.7321
27.7326 38.3862
27.7784 38.3697
27.8245 38.4223
27.8703 38.5911
27.9164 38.8126
27.9623 38.9299
28.0084 39.1811
28.0543 39.5088
28.1003 39.5215
28.1462 39.4127
28.1923 38.9214
28.2384 38.4487
28.2843 38.181
28.3304 37.7957
28.3764 37.2512
28.4225 36.9557
28.4684 36.7422
28.5145 36.4667
28.5605 36.4831
28.6066 36.0992
28.6526 36.2468
28.6987 36.2289
28.7447 36.0495
28.7908 36.0354
28.8368 35.9716
28.8829 35.8722
28.9289 35.8283
28.9751 35.7146
29.0211 35.4942
29.0673 35.1252
29.1133 35.1301
29.1595 34.9259
29.2055 34.7734
29.2517 34.8379
29.2977 34.7799
29.3439 34.731
29.3899 34.6633
29.4361 34.6884
29.4824 34.4565
29.5284 34.3115
29.5746 33.8794
29.6207 33.7249
29.6669 33.5864
29.713 33.4941
29.7593 33.3839
29.8053 33.4471
29.8516 33.3615
29.8977 33.2301
29.9439 33.0613
29.99 33.0756
30.0363 33.0452
30.0824 32.9066
30.1287 32.8639
30.1748 32.9145
30.2211 32.9736
30.2673 32.8294
30.3136 32.8434
30.3597 32.8457
30.406 32.6268
30.4522 32.571
30.4985 32.5857
30.5447 32.6345
30.591 32.6781
30.6372 32.7082
30.6835 32.6529
30.7297 32.7486
30.7761 32.5823
30.8224 32.4639
30.8686 32.2771
30.915 32.1314
30.9612 32.0659
31.0076 31.8008
31.0538 31.643
31.1002 31.537
31.1464 31.4445
31.1928 31.4991
31.2391 31.3855
31.2855 31.3759
31.3317 31.3973
31.3781 31.4242
31.4244 31.3939
31.4708 31.1898
31.5171 31.2169
31.5636 31.2779
31.6098 31.0002
31.6563 30.6796
31.7026 30.6972
31.7491 30.5449
31.7953 30.6543
31.8418 30.6029
31.8881 30.5578
31.9346 30.5498
31.9809 30.4373
32.0275 30.3209
32.074 30.1749
32.1203 30.1663
32.1668 29.9766
32.2132 29.8625
32.2597 29.6674
32.306 29.6458
32.3526 29.3542
32.399 29.2916
32.4455 29.2849
32.4919 29.1214
32.5385 29.1201
32.5848 28.929
32.6314 28.9203
32.6778 28.8021
32.7244 28.7737
32.7708 28.6125
32.8174 28.5811
32.8638 28.4291
32.9104 28.5637
32.9569 28.4201
33.0035 28.3224
33.0499 28.2598
33.0966 28.2254
33.143 28.1476
33.1897 28.1044
33.2361 28.0372
33.2828 28.0358
33.3293 27.7157
33.3759 27.7157
33.4226 27.7015
33.4691 27.611
33.5158 27.3895
33.5623 27.3421
33.609 27.1271
33.6555 26.9974
33.7022 27.003
33.7487 26.9521
33.7954 26.9027
33.842 26.8018
33.8887 26.6701
33.9353 26.6428
33.982 26.4895
34.0286 26.4288
34.0753 26.4622
34.1219 26.3064
34.1687 26.2281
34.2152 26.1337
34.262 25.9968
34.3086 25.9558
34.3554 25.8949
34.402 25.7777
34.4488 25.6898
34.4954 25.6365
34.5422 25.5068
34.5889 25.4444
34.6357 25.3854
34.6825 25.2991
34.7292 25.1754
34.776 25.025
34.8227 25.0275
34.8695 25.0807
34.9162 24.9618
34.9631 24.7883
35.0098 24.7543
35.0566 24.7534
35.1033 24.7074
35.1502 24.5556
35.1969 24.6106
35.2438 24.5568
35.2906 24.4687
35.3375 24.3748
35.3842 24.3162
35.4311 24.3606
35.4779 24.2801
35.5248 24.221
35.5716 24.1589
35.6185 24.062
35.6653 23.9919
35.7123 23.768
35.759 23.8726
35.806 23.7551
35.8528 23.5343
35.8998 23.6019
35.9468 23.4459
35.9936 23.4519
36.0406 23.3285
36.0874 23.2734
36.1345 23.191
36.1813 23.1334
36.2283 23.0475
36.2752 23.0299
36.3222 22.9866
36.3691 22.9496
36.4161 22.7369
36.463 22.7177
36.5101 22.7103
36.557 22.6846
36.6041 22.4854
36.651 22.4898
36.6981 22.4298
36.745 22.4184
36.7921 22.3287
36.839 22.2034
36.8861 22.2051
36.9331 22.0377
36.9802 22.0157
37.0272 21.8623
37.0743 21.864
37.1213 21.808
37.1684 21.7422
37.2154 21.6655
37.2626 21.6647
37.3098 21.5406
37.3568 21.5118
37.404 21.4673
37.451 21.3026
37.4982 21.2452
37.5452 21.1688
37.5924 21.0502
37.6395 21.1318
37.6867 20.9916
37.7337 20.9454
37.781 20.7548
37.8281 20.8335
37.8753 20.6977
37.9224 20.6926
37.9697 20.6395
38.0168 20.5911
38.064 20.4227
38.1111 20.4157
38.1584 20.2895
38.2056 20.2416
38.2529 20.1255
38.3 20.0645
38.3473 20.1843
38.3945 19.994
38.4418 19.9629
38.489 19.9734
38.5363 19.8437
38.5837 19.7278
38.6309 19.7327
38.6782 19.5988
38.7254 19.4946
38.7728 19.445
38.82 19.3823
38.8674 19.4056
38.9146 19.335
38.9621 19.2303
39.0093 19.2608
39.0567 19.1233
39.104 19.0785
39.1514 18.987
39.1987 18.99
39.2461 18.9232
39.2934 18.8465
39.3409 18.776
39.3882 18.6889
39.4356 18.6536
39.483 18.533
39.5304 18.5489
39.5778 18.5117
39.6253 18.4296
39.6726 18.3077
39.7201 18.3079
39.7675 18.2622
39.815 18.2068
39.8624 18.1187
39.9099 18.1077
39.9575 17.9821
40.0049 17.9821
40.0525 17.8181
40.0999 17.8439
40.1474 17.804
40.1949 17.7376
40.2425 17.6725
40.2899 17.5563
40.3375 17.603
40.385 17.5407
40.4326 17.4173
40.48 17.3552
40.5277 17.3291
40.5752 17.3139
40.6228 17.2516
40.6703 17.2002
40.718 17.1275
40.7655 17.0674
40.8132 16.9894
40.8607 16.9872
40.9084 16.9075
40.9559 16.8297
41.0036 16.8032
41.0512 16.7436
41.0989 16.6836
41.1465 16.6108
41.1942 16.6128
41.242 16.5621
41.2896 16.4591
41.3373 16.3748
41.3849 16.3193
41.4327 16.264
41.4803 16.1875
41.5281 16.2154
41.5758 16.1166
41.6236 16.054
41.6712 15.9836
41.7191 15.9637
41.7667 15.9513
41.8146 15.8504
41.8622 15.8339
41.9101 15.8135
41.9578 15.6089
42.0057 15.6551
42.0534 15.6197
42.1013 15.5919
42.149 15.5001
42.1969 15.388
42.2446 15.3845
42.2925 15.3335
42.3403 15.2652
42.3882 15.1559
42.436 15.2378
42.4839 15.0778
42.5319 15.0911
42.5797 15.0168
42.6277 14.9886
42.6755 14.9304
42.7235 14.9005
42.7713 14.8466
42.8193 14.8399
42.8671 14.7385
42.9152 14.6696
42.963 14.6581
43.0111 14.6012
43.0589 14.4871
43.107 14.5025
43.1549 14.4313
43.2029 14.4117
43.2508 14.3564
43.2989 14.2823
43.3468 14.1888
43.3949 14.2174
43.4429 14.1408
43.491 14.0364
43.5389 14.1045
43.5871 13.9917
43.635 13.9578
43.6832 13.8969
43.7312 13.8483
43.7793 13.7455
43.8273 13.7878
43.8755 13.6825
43.9237 13.676
43.9717 13.6023
44.0199 13.5729
44.068 13.5195
44.1162 13.4848
44.1642 13.4535
44.2125 13.3808
44.2606 13.3625
44.3088 13.2749
44.3569 13.2466
44.4052 13.1859
44.4533 13.114
44.5016 13.1202
44.5497 12.9927
44.598 13.0198
44.6461 12.9339
44.6945 12.9148
44.7426 12.8813
44.791 12.8089
44.8391 12.771
44.8875 12.7035
44.9357 12.6984
44.984 12.685
45.0322 12.6439
45.0806 12.524
45.1288 12.5295
45.1773 12.4702
45.2257 12.4208
45.2739 12.3413
45.3224 12.3866
45.3706 12.2933
45.4191 12.2361
45.4673 12.179
45.5158 12.1699
45.5641 12.1163
45.6126 12.0494
45.6609 12.0163
45.7094 11.9799
45.7577 11.9616
45.8063 11.8353
45.8546 11.8849
45.9031 11.8046
45.9515 11.7689
46.0001 11.72
46.0484 11.6905
46.097 11.6583
46.1454 11.6135
46.194 11.5742
46.2424 11.5731
46.291 11.4564
46.3395 11.4482
46.3881 11.3845
46.4365 11.3585
46.4852 11.2931
46.5337 11.2558
46.5823 11.2621
46.631 11.2123
46.6795 11.1286
46.7282 11.1149
46.7767 11.0904
46.8254 11.0455
46.8739 11.0063
46.9226 10.948
46.9712 10.895
47.0199 10.8849
47.0685 10.8266
47.1173 10.7755
47.1658 10.746
47.2146 10.7285
47.2632 10.6109
47.312 10.6619
47.3606 10.5578
47.4095 10.5459
47.4581 10.4962
47.5069 10.464
47.5556 10.4252
47.6044 10.371
47.6531 10.3545
47.702 10.2593
47.7507 10.2792
47.7996 10.2174
47.8483 10.2313
47.8972 10.1778
47.9461 10.1603
47.9948 10.0735
48.0438 10.0522
48.0925 10.0474
48.1415 9.95006
48.1902 9.93717
48.2392 9.92686
48.288 9.90183
48.337 9.83343
48.3858 9.82151
48.4348 9.77176
48.4837 9.74229
48.5327 9.67495
48.5815 9.65669
48.6306 9.64203
48.6795 9.61797
48.7285 9.54871
48.7774 9.51897
48.8265 9.51062
48.8754 9.42549
48.9245 9.42858
48.9734 9.377
49.0226 9.34992
49.0715 9.34458
49.1206 9.2797
49.1696 9.20854
49.2188 9.21269
49.2679 9.16317
49.3169 9.12638
49.3661 9.09632
49.4151 9.07909
49.4643 9.01583
49.5134 9.00937
49.5626 8.94852
49.6117 8.92934
49.6609 8.88593
49.71 8.84483
49.7592 8.86445
49.8083 8.79015
49.8576 8.76621
49.9067 8.69623
49.956 8.68755
50.0052 8.63074
50.0545 8.63578
50.1036 8.61005
50.153 8.56877
50.2022 8.56285
50.2515 8.48382
50.3007 8.47444
50.3501 8.39007
50.3993 8.40363
50.4487 8.40647
50.498 8.32147
50.5474 8.2873
50.5966 8.26018
50.6461 8.22784
50.6955 8.20865
50.7448 8.16862
50.7943 8.1299
50.8436 8.08286
50.8931 8.06212
50.9424 8.03943
50.9919 8.04671
51.0413 8.0341
51.0908 7.95543
51.1402 7.88714
51.1897 7.8651
51.2391 7.86807
51.2887 7.79351
51.3381 7.78887
51.3877 7.78083
51.4371 7.71032
51.4867 7.69494
51.5362 7.67473
51.5858 7.66331
51.6353 7.58026
51.6849 7.52964
51.7344 7.5702
51.7841 7.47459
51.8336 7.48136
51.8833 7.42725
51.9328 7.4005
51.9826 7.36933
52.0323 7.33008
52.0818 7.32007
52.1316 7.27897
52.1812 7.27686
52.231 7.25148
52.2806 7.20392
52.3304 7.14535
52.38 7.15831
52.4298 7.09903
52.4794 7.04543
52.5293 7.06471
52.5789 7.02375
52.6288 6.96954
52.6785 6.9631
52.7284 6.94332
52.7781 6.92434
52.828 6.88994
52.8777 6.84099
52.9276 6.80452
52.9774 6.74805
53.0273 6.76287
53.0771 6.74465
53.1271 6.71149
53.1769 6.67053
53.2269 6.63388
53.2767 6.61107
53.3267 6.57163
53.3765 6.55541
53.4266 6.55563
53.4766 6.49508
53.5265 6.49912
53.5765 6.50004
53.6264 6.42939
53.6765 6.39108
53.7264 6.31476
53.7765 6.35135
53.8265 6.31611
53.8766 6.27376
53.9266 6.21745
53.9767 6.20234
54.0267 6.2205
54.0769 6.17807
54.1269 6.14917
54.1771 6.10634
54.2271 6.09116
54.2773 6.07961
54.3274 6.03864
54.3776 5.98503
54.4277 5.95039
54.478 5.93432
54.528 5.90706
54.5783 5.84313
54.6285 5.79449
54.6788 5.77276
54.7289 5.7372
54.7792 5.71313
54.8296 5.61284
54.8798 5.59357
54.9301 5.5745
54.9803 5.50668
55.0307 5.51142
55.0809 5.43512
55.1314 5.44129
55.1816 5.33033
55.232 5.33802
55.2823 5.2762
55.3328 5.22393
55.383 5.1782
55.4335 5.1397
55.4838 5.05266
55.5344 5.04361
55.5847 5.02461
55.6352 4.9614
55.6856 4.94409
55.7361 4.88528