File: XRD/Ni3Fe_FD0463.xy
TT I
1.27165 7.16973
1.31627 7.41354
1.36089 7.34019
1.40551 5.91878
1.45013 6.3756
1.49476 5.90865
1.53938 5.64927
1.584 5.45142
1.62863 5.60916
1.67325 4.97139
1.71787 5.11115
1.7625 4.94123
1.80712 5.01007
1.85174 4.81517
1.89636 4.34695
1.94099 4.89743
1.98562 4.73429
2.03025 4.60687
2.07487 4.47776
2.11949 4.66843
2.16411 5.0251
2.20874 9.72107
2.25338 13.8316
2.298 5.43381
2.34263 4.54391
2.38725 5.89262
2.43188 5.44423
2.4765 6.71623
2.52115 6.43504
2.56577 7.2094
2.6104 7.5162
2.65503 7.43382
2.69965 6.79987
2.7443 7.74825
2.78893 7.80779
2.83356 7.71994
2.87818 8.60964
2.92281 9.01536
2.96744 9.29894
3.01209 10.8739
3.05672 10.786
3.10135 11.9737
3.14599 12.9424
3.19062 13.8127
3.23527 15.1132
3.2799 15.5243
3.32454 16.6941
3.36917 17.8113
3.4138 18.9101
3.45844 19.9823
3.50309 20.7914
3.54773 21.8513
3.59237 23.2897
3.637 60.3289
3.68164 41.7096
3.7263 25.5536
3.77094 25.8985
3.81558 26.6199
3.86022 27.9039
3.90486 28.9738
3.9495 29.8531
3.99416 31.1452
4.0388 31.8425
4.08344 33.6791
4.12809 34.8836
4.17273 36.5903
4.21738 40.7385
4.26204 151.413
4.30669 130.183
4.35133 45.6961
4.39598 44.7929
4.44063 50.4614
4.4853 57.1114
4.52995 52.8836
4.5746 54.1705
4.61925 54.3157
4.6639 56.5401
4.70855 59.2253
4.75322 62.5927
4.79788 66.3349
4.84253 68.8437
4.88719 73.996
4.93184 77.246
4.97652 83.3413
5.02118 90.08
5.06583 99.2379
5.11049 112.324
5.15515 167.185
5.19981 526.363
5.24449 3478.73
5.28916 11851.6
5.33382 2939.43
5.37848 205.434
5.42315 134.683
5.46783 119.246
5.5125 110.226
5.55716 104.357
5.60183 100.912
5.6465 98.719
5.69117 96.8405
5.73586 95.4209
5.78053 96.0923
5.8252 95.6794
5.86988 97.3882
5.91455 98.8999
5.95924 112.225
6.00392 291.216
6.0486 1193.27
6.09328 4230.44
6.13795 3295.67
6.18263 259.271
6.22733 96.1085
6.27201 83.9465
6.3167 90.2602
6.36138 77.2439
6.40606 70.2801
6.45075 68.7837
6.49545 66.3747
6.54014 64.5647
6.58483 63.6027
6.62952 62.9796
6.67421 78.5185
6.71892 103.528
6.76361 64.6491
6.8083 59.2676
6.853 58.6846
6.89769 57.349
6.94239 56.9463
6.98711 56.5493
7.03181 56.4306
7.07651 55.8273
7.12121 55.1294
7.16591 55.8114
7.21063 55.3134
7.25533 63.2527
7.30004 117.977
7.34475 74.6565
7.38945 56.2033
7.43416 54.6624
7.47889 54.7615
7.5236 55.4016
7.56831 55.9748
7.61303 56.9342
7.65774 56.9501
7.70247 57.3196
7.74719 56.797
7.79191 57.2993
7.83663 57.784
7.88135 58.691
7.92607 59.6351
7.97081 60.4875
8.01553 61.9192
8.06026 63.2832
8.10498 64.8683
8.14971 71.2914
8.19446 71.0987
8.23919 70.4189
8.28392 73.3696
8.32865 75.8373
8.37339 80.3677
8.41812 86.7224
8.46288 110.048
8.50761 209.866
8.55235 465.597
8.59709 1217.73
8.64183 2133.08
8.68658 1002.32
8.73134 169.256
8.77609 101.896
8.82083 94.3765
8.86558 92.2447
8.91033 91.1542
8.9551 90.5751
8.99985 86.2253
9.04461 84.9466
9.08936 84.6892
9.13412 83.8436
9.17888 83.5193
9.22365 83.7027
9.26841 83.4275
9.31318 84.8539
9.35794 85.4034
9.4027 85.5608
9.44749 85.8274
9.49226 86.048
9.53703 87.2001
9.5818 89.5177
9.62657 93.0038
9.67134 96.6865
9.71614 95.0977
9.76091 96.0457
9.80569 99.2258
9.85047 102.448
9.89525 117.054
9.94005 135.317
9.98484 220.756
10.0296 409.833
10.0744 881.368
10.1192 1716.16
10.164 1627.56
10.2088 409.698
10.2536 129.916
10.2984 113.281
10.3432 112.298
10.388 108.083
10.4328 131.643
10.4776 178.712
10.5224 300.614
10.5672 494.561
10.612 491.72
10.6568 205.715
10.7017 97.4031
10.7465 87.9832
10.7913 84.6327
10.8361 82.4473
10.8809 79.9129
10.9257 78.9662
10.9706 78.9497
11.0154 75.7918
11.0602 73.9193
11.105 72.6271
11.1499 74.2922
11.1947 77.8582
11.2395 72.5116
11.2844 70.1373
11.3292 68.2055
11.374 67.0687
11.4189 66.3195
11.4637 65.9461
11.5086 66.1101
11.5534 66.9413
11.5983 65.4921
11.6431 64.5649
11.688 63.6942
11.7328 63.889
11.7777 63.6348
11.8225 63.4928
11.8674 63.2638
11.9122 63.7072
11.9571 64.1569
12.002 65.6199
12.0468 72.2415
12.0917 84.5229
12.1366 109.208
12.1814 156.234
12.2263 201.935
12.2712 170.227
12.3161 92.8265
12.3609 69.3007
12.4058 65.0181
12.4507 65.4039
12.4956 65.5082
12.5405 65.5822
12.5853 66.0685
12.6302 70.4864
12.6751 73.8688
12.72 69.5969
12.7649 68.9443
12.8098 69.5482
12.8547 70.834
12.8996 72.2127
12.9445 73.8035
12.9894 75.737
13.0343 77.2416
13.0792 81.8697
13.1242 97.0651
13.1691 121.862
13.214 162.689
13.2589 250.584
13.3038 366.978
13.3487 418.799
13.3937 260.483
13.4386 124.707
13.4835 113.967
13.5285 130.737
13.5734 170.969
13.6183 253.806
13.6633 340.153
13.7082 339.063
13.7531 188.129
13.7981 97.7265
13.843 82.8175
13.888 80.8844
13.9329 78.5731
13.9779 76.9301
14.0228 75.656
14.0678 74.4594
14.1127 73.799
14.1577 73.1986
14.2027 72.4678
14.2476 71.7055
14.2926 71.2717
14.3376 71.7958
14.3825 71.0976
14.4275 69.9393
14.4725 69.8297
14.5175 70.2052
14.5624 70.1775
14.6074 71.7003
14.6524 71.912
14.6974 71.85
14.7424 75.7979
14.7874 84.1222
14.8324 95.134
14.8774 117.913
14.9224 157.199
14.9674 203.143
15.0124 214.986
15.0574 147.316
15.1024 90.4796
15.1474 73.3919
15.1924 71.3593
15.2374 71.046
15.2824 70.4953
15.3274 68.7941
15.3725 67.887
15.4175 67.5132
15.4625 67.1428
15.5076 67.15
15.5526 67.1239
15.5976 67.1414
15.6426 69.9499
15.6877 76.5992
15.7327 84.6659
15.7778 101.229
15.8228 130.728
15.8679 168.194
15.9129 191.672
15.958 155.682
16.003 95.6493
16.0481 68.3435
16.0931 64.4567
16.1382 62.7299
16.1833 61.5002
16.2283 59.5519
16.2734 59.0818
16.3185 59.0755
16.3636 59.2464
16.4086 57.9774
16.4537 56.809
16.4988 56.2132
16.5439 56.2461
16.589 55.9353
16.6341 55.7439
16.6792 55.3287
16.7243 55.6514
16.7694 55.5814
16.8145 55.3691
16.8596 55.8114
16.9047 56.7487
16.9498 57.0217
16.9949 56.4398
17.04 57.0294
17.0851 58.7165
17.1302 60.3206
17.1754 63.5287
17.2205 68.6286
17.2656 75.3467
17.3108 82.4412
17.3559 82.6643
17.401 71.7675
17.4462 62.9399
17.4913 60.1333
17.5365 60.1498
17.5815 60.2668
17.6268 60.6622
17.6718 61.231
17.7171 61.7526
17.7622 62.4383
17.8074 63.5656
17.8525 67.0922
17.8977 71.0742
17.9428 77.1771
17.9881 86.6565
18.0331 102.559
18.0784 121.539
18.1237 139.856
18.1688 133.17
18.214 105.964
18.2591 89.188
18.3044 91.9614
18.3495 100.312
18.3948 106.65
18.4399 97.2054
18.4852 78.0023
18.5303 66.645
18.5756 62.9933
18.6207 62.0425
18.666 61.3353
18.7112 60.7155
18.7565 59.8886
18.8016 59.6873
18.8469 58.9318
18.892 58.7743
18.9374 58.1434
18.9825 58.1611
19.0278 57.8973
19.073 58.1826
19.1183 58.5839
19.1635 59.1968
19.2088 60.8969
19.254 63.5783
19.2993 67.9426
19.3447 72.8614
19.3898 76.5673
19.4352 72.8862
19.4804 64.0938
19.5257 57.4352
19.5709 54.9527
19.6163 54.9192
19.6615 54.558
19.7068 54.0502
19.752 54.3363
19.7974 54.6481
19.8426 55.5806
19.888 56.2333
19.9332 57.8015
19.9786 60.2283
20.0238 63.7075
20.0692 67.8022
20.1144 70.3257
20.1598 69.2074
20.205 64.5135
20.2504 62.9279
20.2957 64.4404
20.3411 66.1645
20.3863 64.5562
20.4318 58.8464
20.477 54.1994
20.5224 52.159
20.5677 51.4572
20.6131 51.0015
20.6586 50.2756
20.7038 50.2069
20.7493 49.8545
20.7945 49.8167
20.84 49.5657
20.8853 49.5714
20.9307 49.4333
20.976 49.5934
21.0215 49.4705
21.0668 49.8902
21.1122 50.42
21.1575 50.9663
21.203 51.5897
21.2483 52.0756
21.2938 52.4549
21.3391 50.9001
21.3846 49.6977
21.4299 49.4476
21.4754 49.3488
21.5207 49.5262
21.5662 50.0833
21.6116 50.509
21.6571 50.9899
21.7024 52.1171
21.7479 54.0599
21.7933 56.8427
21.8388 59.7244
21.8843 63.2424
21.9297 65.4336
21.9752 64.1403
22.0206 60.2053
22.0661 57.3287
22.1115 56.5275
22.157 56.5142
22.2024 55.0654
22.248 52.3389
22.2933 50.6604
22.3389 49.6879
22.3843 49.831
22.4299 49.5185
22.4753 49.4761
22.5208 49.4659
22.5662 49.0635
22.6118 49.7174
22.6572 49.9084
22.7028 50.2678
22.7483 50.7006
22.7939 51.5778
22.8393 53.0435
22.8849 54.8365
22.9303 56.6233
22.9759 58.3773
23.0214 58.0131
23.067 55.0653
23.1126 51.7798
23.1581 50.1153
23.2037 49.7772
23.2492 49.8605
23.2948 49.6992
23.3403 49.9606
23.3859 50.7346
23.4314 52.113
23.477 53.5915
23.5225 55.3436
23.5682 57.3014
23.6137 58.4373
23.6593 56.2792
23.7048 52.4621
23.7505 48.8418
23.796 47.3077
23.8417 46.819
23.8872 46.2688
23.9329 45.856
23.9784 45.6695
24.0241 45.3993
24.0697 45.2436
24.1154 44.6969
24.1609 44.6275
24.2066 44.4209
24.2522 44.45
24.2979 44.002
24.3434 43.9149
24.3892 43.6586
24.4349 43.7837
24.4805 43.6393
24.5262 43.7562
24.5718 43.5212
24.6175 43.5241
24.6631 43.2632
24.7089 43.0792
24.7545 43.0087
24.8002 42.9394
24.8458 43.1276
24.8916 42.902
24.9372 42.9807
24.983 43.3852
25.0286 43.7128
25.0744 44.0333
25.12 44.4583
25.1658 44.9544
25.2114 45.4263
25.2572 45.3677
25.3029 45.3668
25.3487 45.5661
25.3943 45.3403
25.4402 44.0256
25.4858 43.1324
25.5316 42.0359
25.5773 41.4477
25.6231 41.563
25.669 41.1818
25.7147 41.1805
25.7605 41.0685
25.8062 41.0596
25.8521 41.3058
25.8977 41.2395
25.9436 41.4606
25.9893 41.5304
26.0352 42.105
26.0809 42.1341
26.1268 42.3298
26.1725 41.9638
26.2184 41.6158
26.2641 41.0179
26.31 40.7581
26.3557 40.7594
26.4017 40.8419
26.4474 41.0973
26.4933 41.4914
26.5391 41.9299
26.585 42.4352
26.6308 42.6885
26.6767 42.7162
26.7225 42.567
26.7684 42.0719
26.8142 41.5503
26.8601 41.0158
26.9059 40.6223
26.9519 40.0088
26.9979 39.8699
27.0437 39.5786
27.0896 39.3411
27.1354 39.4253
27.1814 39.2845
27.2272 39.168
27.2732 39.1772
27.3191 38.9894
27.3651 39.1734
27.4109 39.1038
27.4569 39.0503
27.5027 39.1357
27.5488 39.2598
27.5946 39.0043
27.6407 38.6677
27.6865 38.7939
27.7326 38.4526
27.7784 38.4971
27.8245 38.4749
27.8703 38.618
27.9164 38.9028
27.9623 39.0978
28.0084 39.191
28.0543 39.6921
28.1003 39.5928
28.1462 39.368
28.1923 38.9079
28.2384 38.5524
28.2843 38.122
28.3304 37.73
28.3764 37.4125
28.4225 36.8889
28.4684 36.7625
28.5145 36.4389
28.5605 36.4192
28.6066 36.2552
28.6526 36.1888
28.6987 36.2434
28.7447 36.1022
28.7908 36.0118
28.8368 36.0389
28.8829 35.9689
28.9289 35.8946
28.9751 35.7238
29.0211 35.4472
29.0673 35.1411
29.1133 35.1371
29.1595 35.0556
29.2055 34.8526
29.2517 34.9487
29.2977 34.7734
29.3439 34.796
29.3899 34.8384
29.4361 34.5664
29.4824 34.4687
29.5284 34.3059
29.5746 33.9186
29.6207 33.6407
29.6669 33.6264
29.713 33.5528
29.7593 33.4064
29.8053 33.4683
29.8516 33.2354
29.8977 33.3293
29.9439 33.1409
29.99 33.1424
30.0363 33.0242
30.0824 33.0385
30.1287 32.8486
30.1748 32.9168
30.2211 32.9407
30.2673 32.832
30.3136 32.8288
30.3597 32.8223
30.406 32.7641
30.4522 32.5765
30.4985 32.5483
30.5447 32.6023
30.591 32.5822
30.6372 32.7078
30.6835 32.7066
30.7297 32.7474
30.7761 32.5992
30.8224 32.4854
30.8686 32.3309
30.915 32.0296
30.9612 32.0834
31.0076 31.7885
31.0538 31.7298
31.1002 31.705
31.1464 31.4811
31.1928 31.4923
31.2391 31.5096
31.2855 31.3546
31.3317 31.3466
31.3781 31.425
31.4244 31.4474
31.4708 31.2701
31.5171 31.2735
31.5636 31.2754
31.6098 31.0112
31.6563 30.863
31.7026 30.6754
31.7491 30.6144
31.7953 30.674
31.8418 30.589
31.8881 30.5644
31.9346 30.5748
31.9809 30.4507
32.0275 30.4195
32.074 30.2101
32.1203 30.1574
32.1668 29.9601
32.2132 29.7642
32.2597 29.7612
32.306 29.6553
32.3526 29.4774
32.399 29.33
32.4455 29.2809
32.4919 29.1585
32.5385 29.0
32.5848 28.9222
32.6314 29.0448
32.6778 28.8488
32.7244 28.6407
32.7708 28.6128
32.8174 28.6195
32.8638 28.462
32.9104 28.5522
32.9569 28.4895
33.0035 28.235
33.0499 28.3781
33.0966 28.2806
33.143 28.1325
33.1897 28.0942
33.2361 28.0432
33.2828 28.0555
33.3293 27.7628
33.3759 27.7928
33.4226 27.7128
33.4691 27.5951
33.5158 27.4095
33.5623 27.4295
33.609 27.1727
33.6555 27.0988
33.7022 27.0248
33.7487 26.8768
33.7954 26.9051
33.842 26.7605
33.8887 26.7637
33.9353 26.6678
33.982 26.5075
34.0286 26.4295
34.0753 26.3804
34.1219 26.3465
34.1687 26.2235
34.2152 26.14
34.262 26.0488
34.3086 25.9694
34.3554 25.9973
34.402 25.8279
34.4488 25.7872
34.4954 25.6599
34.5422 25.5792
34.5889 25.4832
34.6357 25.3012
34.6825 25.3133
34.7292 25.1427
34.776 25.1264
34.8227 25.0583
34.8695 25.128
34.9162 24.9123
34.9631 24.7991
35.0098 24.8951
35.0566 24.7063
35.1033 24.6518
35.1502 24.6697
35.1969 24.5758
35.2438 24.5089
35.2906 24.5133
35.3375 24.4639
35.3842 24.3461
35.4311 24.3016
35.4779 24.3067
35.5248 24.2972
35.5716 24.1533
35.6185 24.11
35.6653 23.9982
35.7123 23.8764
35.759 23.8676
35.806 23.672
35.8528 23.6815
35.8998 23.5536
35.9468 23.5157
35.9936 23.447
36.0406 23.3689
36.0874 23.3458
36.1345 23.2023
36.1813 23.1658
36.2283 23.0879
36.2752 22.9515
36.3222 22.9724
36.3691 22.8422
36.4161 22.822
36.463 22.7698
36.5101 22.8183
36.557 22.713
36.6041 22.4891
36.651 22.5395
36.6981 22.5176
36.745 22.3007
36.7921 22.3195
36.839 22.1969
36.8861 22.1631
36.9331 22.1145
36.9802 21.9978
37.0272 21.9983
37.0743 21.7844
37.1213 21.8407
37.1684 21.6851
37.2154 21.6687
37.2626 21.52
37.3098 21.5429
37.3568 21.4599
37.404 21.4397
37.451 21.2779
37.4982 21.2935
37.5452 21.193
37.5924 21.0646
37.6395 21.1446
37.6867 20.9925
37.7337 20.986
37.781 20.8473
37.8281 20.7263
37.8753 20.6187
37.9224 20.6325
37.9697 20.5408
38.0168 20.5338
38.064 20.4165
38.1111 20.3993
38.1584 20.2663
38.2056 20.207
38.2529 20.2128
38.3 20.1696
38.3473 20.1304
38.3945 19.9573
38.4418 19.9443
38.489 19.8427
38.5363 19.7995
38.5837 19.712
38.6309 19.6714
38.6782 19.579
38.7254 19.5961
38.7728 19.4993
38.82 19.423
38.8674 19.3521
38.9146 19.267
38.9621 19.246
39.0093 19.2536
39.0567 19.1779
39.104 19.0841
39.1514 18.9036
39.1987 19.0157
39.2461 18.8874
39.2934 18.8592
39.3409 18.8022
39.3882 18.7274
39.4356 18.6194
39.483 18.5525
39.5304 18.5788
39.5778 18.5143
39.6253 18.3979
39.6726 18.3216
39.7201 18.3316
39.7675 18.2588
39.815 18.1724
39.8624 18.1368
39.9099 18.141
39.9575 17.9875
40.0049 17.9223
40.0525 17.841
40.0999 17.8558
40.1474 17.8301
40.1949 17.7164
40.2425 17.6966
40.2899 17.6262
40.3375 17.5475
40.385 17.5324
40.4326 17.4232
40.48 17.3623
40.5277 17.4217
40.5752 17.2944
40.6228 17.2112
40.6703 17.1378
40.718 17.1868
40.7655 17.0783
40.8132 17.0109
40.8607 17.0449
40.9084 16.8765
40.9559 16.8358
41.0036 16.795
41.0512 16.7493
41.0989 16.7121
41.1465 16.609
41.1942 16.5922
41.242 16.5142
41.2896 16.4942
41.3373 16.4158
41.3849 16.4098
41.4327 16.3185
41.4803 16.1989
41.5281 16.1843
41.5758 16.1118
41.6236 16.0789
41.6712 16.0494
41.7191 15.9203
41.7667 15.9157
41.8146 15.8955
41.8622 15.7993
41.9101 15.7756
41.9578 15.6584
42.0057 15.6622
42.0534 15.5512
42.1013 15.5693
42.149 15.5412
42.1969 15.4546
42.2446 15.4408
42.2925 15.3591
42.3403 15.2851
42.3882 15.3071
42.436 15.2416
42.4839 15.12
42.5319 15.1305
42.5797 15.0609
42.6277 14.9976
42.6755 14.9463
42.7235 14.8761
42.7713 14.8253
42.8193 14.8459
42.8671 14.7021
42.9152 14.7332
42.963 14.6101
43.0111 14.5612
43.0589 14.5223
43.107 14.4934
43.1549 14.4122
43.2029 14.3593
43.2508 14.314
43.2989 14.2657
43.3468 14.259
43.3949 14.2311
43.4429 14.1735
43.491 14.1047
43.5389 14.0277
43.5871 14.0057
43.635 13.9381
43.6832 13.8863
43.7312 13.8102
43.7793 13.8277
43.8273 13.7541
43.8755 13.7173
43.9237 13.612
43.9717 13.5755
44.0199 13.5712
44.068 13.5166
44.1162 13.4804
44.1642 13.4791
44.2125 13.3634
44.2606 13.3704
44.3088 13.2617
44.3569 13.2301
44.4052 13.1646
44.4533 13.0745
44.5016 13.0869
44.5497 13.0374
44.598 12.9991
44.6461 12.9713
44.6945 12.8951
44.7426 12.8726
44.791 12.8075
44.8391 12.7688
44.8875 12.6846
44.9357 12.6962
44.984 12.5953
45.0322 12.5924
45.0806 12.5335
45.1288 12.5137
45.1773 12.4494
45.2257 12.3946
45.2739 12.3462
45.3224 12.3738
45.3706 12.3059
45.4191 12.2413
45.4673 12.1568
45.5158 12.1907
45.5641 12.1162
45.6126 12.0624
45.6609 12.0111
45.7094 11.9833
45.7577 11.9426
45.8063 11.8831
45.8546 11.8884
45.9031 11.7351
45.9515 11.7457
46.0001 11.7224
46.0484 11.6948
46.097 11.6762
46.1454 11.6245
46.194 11.565
46.2424 11.5346
46.291 11.4767
46.3395 11.4307
46.3881 11.3755
46.4365 11.3802
46.4852 11.3434
46.5337 11.265
46.5823 11.2318
46.631 11.2004
46.6795 11.1685
46.7282 11.1028
46.7767 11.0685
46.8254 11.0181
46.8739 10.9584
46.9226 10.9149
46.9712 10.9384
47.0199 10.883
47.0685 10.7913
47.1173 10.8011
47.1658 10.749
47.2146 10.6964
47.2632 10.6501
47.312 10.6548
47.3606 10.5847
47.4095 10.5083
47.4581 10.5009
47.5069 10.4572
47.5556 10.4137
47.6044 10.3726
47.6531 10.3366
47.702 10.2807
47.7507 10.2579
47.7996 10.2341
47.8483 10.1945
47.8972 10.161
47.9461 10.1175
47.9948 10.0938
48.0438 10.0577
48.0925 10.0315
48.1415 9.97955
48.1902 9.91698
48.2392 9.93039
48.288 9.86787
48.337 9.83635
48.3858 9.81327
48.4348 9.76636
48.4837 9.71949
48.5327 9.72305
48.5815 9.68064
48.6306 9.62317
48.6795 9.60741
48.7285 9.53544
48.7774 9.50724
48.8265 9.51623
48.8754 9.45166
48.9245 9.40009
48.9734 9.37795
49.0226 9.33061
49.0715 9.31356
49.1206 9.2383
49.1696 9.24707
49.2188 9.20217
49.2679 9.19538
49.3169 9.13923
49.3661 9.06499
49.4151 9.04584
49.4643 9.019
49.5134 8.95922
49.5626 8.96187
49.6117 8.92397
49.6609 8.90641
49.71 8.86057
49.7592 8.83103
49.8083 8.72705
49.8576 8.7627
49.9067 8.7232
49.956 8.70921
50.0052 8.64671
50.0545 8.62162
50.1036 8.57781
50.153 8.5693
50.2022 8.53649
50.2515 8.46042
50.3007 8.43975
50.3501 8.43632
50.3993 8.39503
50.4487 8.31462
50.498 8.32324
50.5474 8.28665
50.5966 8.24794
50.6461 8.19295
50.6955 8.20233
50.7448 8.17927
50.7943 8.13753
50.8436 8.10311
50.8931 8.06492
50.9424 8.06568
50.9919 8.01704
51.0413 8.00058
51.0908 7.9532
51.1402 7.92663
51.1897 7.86139
51.2391 7.84642
51.2887 7.82487
51.3381 7.76804
51.3877 7.75254
51.4371 7.72688
51.4867 7.70281
51.5362 7.62999
51.5858 7.62537
51.6353 7.60901
51.6849 7.54406
51.7344 7.52899
51.7841 7.52989
51.8336 7.49968
51.8833 7.43731
51.9328 7.42394
51.9826 7.31884
52.0323 7.34698
52.0818 7.30848
52.1316 7.27267
52.1812 7.2865
52.231 7.25762
52.2806 7.17515
52.3304 7.15926
52.38 7.16429
52.4298 7.08497
52.4794 7.08852
52.5293 7.03031
52.5789 7.04201
52.6288 7.02521
52.6785 6.91856
52.7284 6.91272
52.7781 6.88656
52.828 6.89569
52.8777 6.83398
52.9276 6.82175
52.9774 6.78295
53.0273 6.77703
53.0771 6.7347
53.1271 6.72747
53.1769 6.7094
53.2269 6.62157
53.2767 6.58943
53.3267 6.60694
53.3765 6.58022
53.4266 6.54908
53.4766 6.49632
53.5265 6.47491
53.5765 6.47217
53.6264 6.45002
53.6765 6.40871
53.7264 6.38296
53.7765 6.35786
53.8265 6.26692
53.8766 6.2939
53.9266 6.26369
53.9767 6.23821
54.0267 6.20425
54.0769 6.18169
54.1269 6.1656
54.1771 6.08098
54.2271 6.10709
54.2773 6.02926
54.3274 6.01429
54.3776 5.99275
54.4277 5.95776
54.478 5.8866
54.528 5.87976
54.5783 5.81392
54.6285 5.78845
54.6788 5.79498
54.7289 5.7133
54.7792 5.6454
54.8296 5.61669
54.8798 5.58126
54.9301 5.56687
54.9803 5.57046
55.0307 5.46803
55.0809 5.40266
55.1314 5.40276
55.1816 5.33487
55.232 5.31943
55.2823 5.3141
55.3328 5.20073
55.383 5.17488
55.4335 5.10047
55.4838 5.11239
55.5344 5.00953
55.5847 4.98992
55.6352 5.00297
55.6856 4.88939
55.7361 4.86226