File: XRD/Ni3Fe_FD0359.xy
TT I
1.27165 7.74918
1.31627 6.48242
1.36089 7.07278
1.40551 6.1046
1.45013 6.09937
1.49476 5.64245
1.53938 6.38387
1.584 5.52354
1.62863 5.7505
1.67325 5.91878
1.71787 5.03617
1.7625 5.18494
1.80712 4.95687
1.85174 4.59367
1.89636 5.12247
1.94099 5.24883
1.98562 4.32478
2.03025 4.45609
2.07487 5.31927
2.11949 4.92087
2.16411 4.89831
2.20874 8.96967
2.25338 11.7103
2.298 5.4732
2.34263 5.38062
2.38725 5.89348
2.43188 5.49129
2.4765 6.06213
2.52115 6.43929
2.56577 7.29945
2.6104 7.54661
2.65503 6.85623
2.69965 7.80533
2.7443 7.25822
2.78893 7.70702
2.83356 8.05878
2.87818 7.78819
2.92281 8.12961
2.96744 9.24071
3.01209 10.4323
3.05672 11.2363
3.10135 12.2136
3.14599 12.6265
3.19062 14.069
3.23527 15.1323
3.2799 15.5521
3.32454 16.6187
3.36917 17.5158
3.4138 19.215
3.45844 19.7341
3.50309 20.6164
3.54773 21.6231
3.59237 23.6709
3.637 53.7708
3.68164 39.2094
3.7263 25.8163
3.77094 26.1511
3.81558 26.8801
3.86022 27.769
3.90486 29.669
3.9495 29.9082
3.99416 31.2786
4.0388 32.2891
4.08344 33.894
4.12809 35.0755
4.17273 37.0848
4.21738 40.9285
4.26204 130.412
4.30669 117.441
4.35133 45.3103
4.39598 44.7552
4.44063 49.9759
4.4853 55.9492
4.52995 53.2533
4.5746 53.4584
4.61925 54.4657
4.6639 56.8878
4.70855 60.0756
4.75322 62.8691
4.79788 66.5002
4.84253 69.7362
4.88719 74.513
4.93184 78.3094
4.97652 83.8684
5.02118 92.1385
5.06583 100.827
5.11049 115.588
5.15515 169.834
5.19981 615.185
5.24449 3692.81
5.28916 11388.2
5.33382 3339.29
5.37848 220.11
5.42315 138.871
5.46783 121.964
5.5125 112.316
5.55716 106.824
5.60183 102.127
5.6465 100.35
5.69117 98.6058
5.73586 96.8072
5.78053 97.5871
5.8252 97.7772
5.86988 98.984
5.91455 101.788
5.95924 117.223
6.00392 328.943
6.0486 1283.5
6.09328 4013.96
6.13795 3400.81
6.18263 284.875
6.22733 99.6792
6.27201 85.252
6.3167 89.5053
6.36138 77.8625
6.40606 71.0068
6.45075 69.6128
6.49545 66.763
6.54014 65.0743
6.58483 64.3535
6.62952 63.6258
6.67421 75.9878
6.71892 97.0601
6.76361 64.4409
6.8083 59.7678
6.853 58.7723
6.89769 57.673
6.94239 57.1249
6.98711 57.071
7.03181 56.7545
7.07651 56.3511
7.12121 56.0181
7.16591 56.4021
7.21063 55.9576
7.25533 62.8958
7.30004 109.63
7.34475 72.3041
7.38945 56.2199
7.43416 54.9589
7.47889 55.3251
7.5236 55.512
7.56831 56.538
7.61303 56.8653
7.65774 57.5315
7.70247 57.3671
7.74719 57.2115
7.79191 57.923
7.83663 58.2352
7.88135 58.7937
7.92607 59.9702
7.97081 61.4644
8.01553 62.4847
8.06026 63.9595
8.10498 65.573
8.14971 71.4304
8.19446 71.8511
8.23919 71.3934
8.28392 74.3468
8.32865 76.9512
8.37339 81.4827
8.41812 87.9095
8.46288 111.586
8.50761 227.719
8.55235 506.846
8.59709 1190.62
8.64183 2088.42
8.68658 1041.04
8.73134 178.566
8.77609 104.205
8.82083 96.2087
8.86558 93.1732
8.91033 92.4536
8.9551 91.0506
8.99985 87.2754
9.04461 85.9209
9.08936 86.0301
9.13412 84.3206
9.17888 84.8222
9.22365 84.7932
9.26841 84.4408
9.31318 86.0686
9.35794 85.861
9.4027 86.0893
9.44749 86.8912
9.49226 86.863
9.53703 88.1837
9.5818 91.1045
9.62657 93.8408
9.67134 96.7039
9.71614 96.0096
9.76091 97.2343
9.80569 100.4
9.85047 103.536
9.89525 117.414
9.94005 137.034
9.98484 238.703
10.0296 443.984
10.0744 874.621
10.1192 1596.84
10.164 1617.61
10.2088 454.936
10.2536 134.77
10.2984 114.733
10.3432 112.855
10.388 110.248
10.4328 137.51
10.4776 188.89
10.5224 299.762
10.5672 488.056
10.612 521.983
10.6568 215.916
10.7017 99.8167
10.7465 89.4667
10.7913 85.1288
10.8361 83.1389
10.8809 80.9934
10.9257 79.726
10.9706 79.6317
11.0154 76.5517
11.0602 74.7482
11.105 73.5162
11.1499 74.7054
11.1947 77.2449
11.2395 72.6505
11.2844 70.7805
11.3292 68.8722
11.374 67.7795
11.4189 67.3845
11.4637 66.8232
11.5086 66.4168
11.5534 67.322
11.5983 66.1795
11.6431 65.3707
11.688 64.596
11.7328 64.7038
11.7777 64.1313
11.8225 64.1973
11.8674 64.0375
11.9122 64.5168
11.9571 64.9657
12.002 66.5253
12.0468 74.0609
12.0917 87.0186
12.1366 110.083
12.1814 151.033
12.2263 201.846
12.2712 171.181
12.3161 96.3018
12.3609 69.7578
12.4058 65.96
12.4507 65.8306
12.4956 66.4405
12.5405 66.1218
12.5853 66.9329
12.6302 70.3588
12.6751 73.4202
12.72 70.0615
12.7649 69.7552
12.8098 70.2922
12.8547 71.6014
12.8996 73.1523
12.9445 74.6984
12.9894 76.739
13.0343 78.4482
13.0792 83.5731
13.1242 100.242
13.1691 128.277
13.214 169.6
13.2589 246.739
13.3038 351.201
13.3487 419.521
13.3937 276.827
13.4386 132.994
13.4835 118.363
13.5285 137.576
13.5734 175.172
13.6183 245.197
13.6633 331.36
13.7082 343.501
13.7531 198.861
13.7981 102.12
13.843 84.3128
13.888 81.8937
13.9329 79.3653
13.9779 77.8917
14.0228 76.4819
14.0678 75.0593
14.1127 74.7191
14.1577 74.1798
14.2027 73.2216
14.2476 72.477
14.2926 72.2592
14.3376 72.4914
14.3825 71.6103
14.4275 70.7652
14.4725 70.9468
14.5175 70.8417
14.5624 70.8369
14.6074 72.2428
14.6524 72.8414
14.6974 72.9995
14.7424 77.1789
14.7874 86.3333
14.8324 98.7136
14.8774 120.402
14.9224 155.783
14.9674 199.848
15.0124 216.887
15.0574 152.519
15.1024 93.766
15.1474 74.6227
15.1924 72.1446
15.2374 71.3605
15.2824 70.9693
15.3274 69.7198
15.3725 68.614
15.4175 68.2389
15.4625 67.8867
15.5076 68.0945
15.5526 68.1482
15.5976 68.1448
15.6426 71.4024
15.6877 78.8144
15.7327 87.86
15.7778 103.378
15.8228 129.363
15.8679 164.662
15.9129 192.714
15.958 161.741
16.003 101.246
16.0481 69.7416
16.0931 65.1349
16.1382 63.3898
16.1833 61.9456
16.2283 60.6045
16.2734 59.9636
16.3185 59.6182
16.3636 59.5819
16.4086 58.609
16.4537 57.4752
16.4988 57.0656
16.5439 57.0059
16.589 56.8447
16.6341 56.4782
16.6792 56.0466
16.7243 56.3227
16.7694 56.4333
16.8145 56.2517
16.8596 56.462
16.9047 57.2397
16.9498 57.5455
16.9949 57.1768
17.04 58.0075
17.0851 59.5033
17.1302 61.417
17.1754 64.51
17.2205 69.4327
17.2656 74.9824
17.3108 82.6865
17.3559 83.7138
17.401 73.1639
17.4462 64.3951
17.4913 60.9009
17.5365 60.7208
17.5815 60.892
17.6268 61.3855
17.6718 62.0919
17.7171 62.4277
17.7622 63.3328
17.8074 64.6555
17.8525 68.551
17.8977 73.1556
17.9428 79.3003
17.9881 88.0866
18.0331 102.676
18.0784 119.99
18.1237 139.515
18.1688 136.562
18.214 110.76
18.2591 90.9063
18.3044 91.8951
18.3495 99.2862
18.3948 106.124
18.4399 97.9298
18.4852 79.2767
18.5303 67.6776
18.5756 64.0136
18.6207 62.9483
18.666 62.2345
18.7112 61.478
18.7565 60.6766
18.8016 60.2715
18.8469 59.6927
18.892 59.2833
18.9374 58.924
18.9825 58.6847
19.0278 58.5321
19.073 59.0753
19.1183 59.6098
19.1635 60.2458
19.2088 61.9168
19.254 64.4997
19.2993 67.8766
19.3447 72.6148
19.3898 76.7814
19.4352 74.2574
19.4804 65.2119
19.5257 58.6438
19.5709 55.7385
19.6163 55.2494
19.6615 55.068
19.7068 55.005
19.752 54.7649
19.7974 55.6538
19.8426 56.5373
19.888 57.0935
19.9332 58.6244
19.9786 61.0101
20.0238 63.9428
20.0692 68.0376
20.1144 71.3973
20.1598 70.9985
20.205 65.9833
20.2504 63.6768
20.2957 64.6052
20.3411 66.5158
20.3863 65.9902
20.4318 60.3965
20.477 54.9569
20.5224 52.5619
20.5677 52.0429
20.6131 51.4152
20.6586 50.8867
20.7038 50.8541
20.7493 50.5267
20.7945 50.3779
20.84 50.3462
20.8853 50.0989
20.9307 50.0195
20.976 50.3765
21.0215 50.2528
21.0668 50.554
21.1122 50.9363
21.1575 51.2847
21.203 51.9048
21.2483 52.5916
21.2938 52.9116
21.3391 51.6864
21.3846 50.3635
21.4299 49.7188
21.4754 49.9983
21.5207 50.0482
21.5662 50.5547
21.6116 51.1282
21.6571 51.9031
21.7024 53.0255
21.7479 54.7012
21.7933 57.1657
21.8388 60.1682
21.8843 63.3712
21.9297 66.0599
21.9752 65.5867
22.0206 61.3619
22.0661 57.7429
22.1115 57.1388
22.157 57.3287
22.2024 55.8964
22.248 53.1357
22.2933 51.3056
22.3389 50.3701
22.3843 50.4594
22.4299 50.114
22.4753 50.1379
22.5208 50.0102
22.5662 49.833
22.6118 50.2734
22.6572 50.5541
22.7028 50.9654
22.7483 51.631
22.7939 52.3173
22.8393 53.7178
22.8849 55.4592
22.9303 57.1228
22.9759 58.8781
23.0214 58.8808
23.067 56.2748
23.1126 52.8001
23.1581 50.6951
23.2037 50.3173
23.2492 50.5365
23.2948 50.609
23.3403 50.9396
23.3859 51.579
23.4314 52.6274
23.477 54.0442
23.5225 55.6533
23.5682 57.7941
23.6137 59.2315
23.6593 57.3525
23.7048 53.1813
23.7505 49.6999
23.796 47.8573
23.8417 47.2619
23.8872 46.8093
23.9329 46.6472
23.9784 46.2081
24.0241 45.7542
24.0697 45.696
24.1154 45.4697
24.1609 45.3032
24.2066 44.9656
24.2522 44.8867
24.2979 44.5654
24.3434 44.5738
24.3892 44.4652
24.4349 44.3063
24.4805 44.1544
24.5262 44.2244
24.5718 44.2065
24.6175 44.0407
24.6631 44.0634
24.7089 43.8228
24.7545 43.5304
24.8002 43.3974
24.8458 43.4866
24.8916 43.3785
24.9372 43.593
24.983 43.7923
25.0286 44.2956
25.0744 44.5082
25.12 45.0165
25.1658 45.6506
25.2114 45.8399
25.2572 45.9537
25.3029 45.743
25.3487 46.0197
25.3943 45.8862
25.4402 44.81
25.4858 43.6655
25.5316 42.6555
25.5773 41.9601
25.6231 42.0387
25.669 41.7649
25.7147 41.7456
25.7605 41.5974
25.8062 41.8287
25.8521 41.744
25.8977 41.8967
25.9436 42.1441
25.9893 42.0117
26.0352 42.5297
26.0809 42.659
26.1268 42.9605
26.1725 42.4116
26.2184 42.0173
26.2641 41.5137
26.31 41.2569
26.3557 41.374
26.4017 41.2637
26.4474 41.6724
26.4933 41.8731
26.5391 42.3771
26.585 42.7552
26.6308 43.1711
26.6767 43.3323
26.7225 43.1235
26.7684 42.6548
26.8142 42.0517
26.8601 41.4832
26.9059 41.1873
26.9519 40.6151
26.9979 40.3226
27.0437 39.9837
27.0896 39.7744
27.1354 39.822
27.1814 39.6479
27.2272 39.6744
27.2732 39.651
27.3191 39.5293
27.3651 39.6928
27.4109 39.4889
27.4569 39.5724
27.5027 39.6219
27.5488 39.6508
27.5946 39.5167
27.6407 39.3041
27.6865 39.2127
27.7326 39.0198
27.7784 38.9663
27.8245 38.8726
27.8703 39.1623
27.9164 39.3537
27.9623 39.4627
28.0084 39.7808
28.0543 40.0747
28.1003 40.1247
28.1462 39.928
28.1923 39.5053
28.2384 38.9713
28.2843 38.7906
28.3304 38.2473
28.3764 37.9213
28.4225 37.4939
28.4684 37.3031
28.5145 36.9844
28.5605 36.9153
28.6066 36.6348
28.6526 36.5695
28.6987 36.6529
28.7447 36.4892
28.7908 36.381
28.8368 36.4476
28.8829 36.3913
28.9289 36.2668
28.9751 36.0793
29.0211 35.9563
29.0673 35.6256
29.1133 35.4429
29.1595 35.4465
29.2055 35.2817
29.2517 35.2696
29.2977 35.3202
29.3439 35.0933
29.3899 35.1122
29.4361 34.9839
29.4824 34.8473
29.5284 34.6855
29.5746 34.3703
29.6207 34.0246
29.6669 34.0307
29.713 33.962
29.7593 33.7777
29.8053 33.7759
29.8516 33.719
29.8977 33.6796
29.9439 33.4913
29.99 33.5163
30.0363 33.4171
30.0824 33.4042
30.1287 33.3328
30.1748 33.3693
30.2211 33.2249
30.2673 33.2532
30.3136 33.307
30.3597 33.2178
30.406 33.0506
30.4522 32.9173
30.4985 33.0152
30.5447 32.9848
30.591 32.9885
30.6372 32.9178
30.6835 32.9351
30.7297 33.0726
30.7761 32.9678
30.8224 32.9138
30.8686 32.7446
30.915 32.4436
30.9612 32.3099
31.0076 32.149
31.0538 32.1319
31.1002 31.9229
31.1464 31.7554
31.1928 31.7189
31.2391 31.8437
31.2855 31.7016
31.3317 31.6794
31.3781 31.7006
31.4244 31.7204
31.4708 31.6587
31.5171 31.6653
31.5636 31.6252
31.6098 31.2706
31.6563 31.2291
31.7026 31.0257
31.7491 30.9298
31.7953 31.0307
31.8418 30.9395
31.8881 30.9081
31.9346 30.8462
31.9809 30.7772
32.0275 30.7061
32.074 30.6004
32.1203 30.3646
32.1668 30.2905
32.2132 30.1789
32.2597 30.0191
32.306 29.9731
32.3526 29.7813
32.399 29.7285
32.4455 29.5472
32.4919 29.4786
32.5385 29.4371
32.5848 29.3547
32.6314 29.2057
32.6778 29.252
32.7244 29.028
32.7708 28.8692
32.8174 29.0246
32.8638 28.7241
32.9104 28.8923
32.9569 28.8094
33.0035 28.6082
33.0499 28.6442
33.0966 28.6559
33.143 28.5483
33.1897 28.4584
33.2361 28.3363
33.2828 28.3777
33.3293 28.114
33.3759 28.1117
33.4226 27.988
33.4691 27.8482
33.5158 27.7825
33.5623 27.6899
33.609 27.4545
33.6555 27.4505
33.7022 27.3583
33.7487 27.1553
33.7954 27.1948
33.842 27.1016
33.8887 27.0277
33.9353 26.9973
33.982 26.8209
34.0286 26.7746
34.0753 26.6612
34.1219 26.6675
34.1687 26.4541
34.2152 26.4475
34.262 26.2934
34.3086 26.2578
34.3554 26.3092
34.402 26.0696
34.4488 26.0504
34.4954 25.8435
34.5422 25.8424
34.5889 25.7852
34.6357 25.5971
34.6825 25.6074
34.7292 25.5446
34.776 25.3559
34.8227 25.3583
34.8695 25.3924
34.9162 25.2257
34.9631 25.0922
35.0098 25.0727
35.0566 25.0172
35.1033 24.9204
35.1502 24.9311
35.1969 24.8234
35.2438 24.8466
35.2906 24.7058
35.3375 24.7168
35.3842 24.5965
35.4311 24.588
35.4779 24.5816
35.5248 24.4492
35.5716 24.3873
35.6185 24.4033
35.6653 24.2085
35.7123 24.2024
35.759 24.1023
35.806 24.0349
35.8528 23.8934
35.8998 23.8584
35.9468 23.7179
35.9936 23.6935
36.0406 23.6116
36.0874 23.5415
36.1345 23.4703
36.1813 23.5098
36.2283 23.2843
36.2752 23.1655
36.3222 23.2577
36.3691 23.1662
36.4161 23.0248
36.463 22.9841
36.5101 22.9883
36.557 22.9072
36.6041 22.7679
36.651 22.7674
36.6981 22.7055
36.745 22.6123
36.7921 22.5026
36.839 22.4165
36.8861 22.4124
36.9331 22.3038
36.9802 22.289
37.0272 22.1711
37.0743 21.981
37.1213 22.0252
37.1684 22.0042
37.2154 21.9038
37.2626 21.8833
37.3098 21.8018
37.3568 21.6879
37.404 21.6931
37.451 21.5694
37.4982 21.4892
37.5452 21.3893
37.5924 21.3522
37.6395 21.3855
37.6867 21.3112
37.7337 21.1664
37.781 21.0163
37.8281 21.0717
37.8753 20.9531
37.9224 20.8243
37.9697 20.8235
38.0168 20.7807
38.064 20.7336
38.1111 20.6061
38.1584 20.5594
38.2056 20.5174
38.2529 20.444
38.3 20.3416
38.3473 20.3506
38.3945 20.2032
38.4418 20.208
38.489 20.0777
38.5363 20.0439
38.5837 20.0037
38.6309 19.9967
38.6782 19.8748
38.7254 19.8023
38.7728 19.7515
38.82 19.6728
38.8674 19.5642
38.9146 19.452
38.9621 19.4619
39.0093 19.3953
39.0567 19.3377
39.104 19.3032
39.1514 19.1941
39.1987 19.2282
39.2461 19.0441
39.2934 18.9921
39.3409 18.951
39.3882 18.8788
39.4356 18.8701
39.483 18.787
39.5304 18.7286
39.5778 18.7261
39.6253 18.6446
39.6726 18.6002
39.7201 18.509
39.7675 18.5171
39.815 18.398
39.8624 18.3395
39.9099 18.3065
39.9575 18.2257
40.0049 18.1074
40.0525 18.0528
40.0999 18.0574
40.1474 17.9889
40.1949 17.9277
40.2425 17.9076
40.2899 17.8113
40.3375 17.8095
40.385 17.6884
40.4326 17.6916
40.48 17.6458
40.5277 17.5847
40.5752 17.483
40.6228 17.4622
40.6703 17.3918
40.718 17.2747
40.7655 17.2895
40.8132 17.2161
40.8607 17.1935
40.9084 17.1046
40.9559 17.0777
41.0036 16.97
41.0512 16.9996
41.0989 16.9544
41.1465 16.8703
41.1942 16.8506
41.242 16.6586
41.2896 16.6393
41.3373 16.546
41.3849 16.5153
41.4327 16.4724
41.4803 16.4213
41.5281 16.4103
41.5758 16.2954
41.6236 16.2209
41.6712 16.2099
41.7191 16.1439
41.7667 16.0991
41.8146 16.0475
41.8622 15.9833
41.9101 15.9448
41.9578 15.8303
42.0057 15.8471
42.0534 15.7594
42.1013 15.6917
42.149 15.6253
42.1969 15.6319
42.2446 15.548
42.2925 15.4629
42.3403 15.4735
42.3882 15.3959
42.436 15.3664
42.4839 15.3124
42.5319 15.2478
42.5797 15.216
42.6277 15.1518
42.6755 15.1334
42.7235 15.0196
42.7713 15.0142
42.8193 14.9227
42.8671 14.8772
42.9152 14.8593
42.963 14.7748
43.0111 14.7179
43.0589 14.7226
43.107 14.6323
43.1549 14.5991
43.2029 14.5345
43.2508 14.5084
43.2989 14.4606
43.3468 14.4339
43.3949 14.3348
43.4429 14.2973
43.491 14.2447
43.5389 14.2333
43.5871 14.1615
43.635 14.0797
43.6832 14.0324
43.7312 14.0
43.7793 13.9231
43.8273 13.8715
43.8755 13.8425
43.9237 13.8078
43.9717 13.8163
44.0199 13.6697
44.068 13.6646
44.1162 13.6416
44.1642 13.5651
44.2125 13.521
44.2606 13.4918
44.3088 13.4019
44.3569 13.3907
44.4052 13.3598
44.4533 13.2408
44.5016 13.247
44.5497 13.2392
44.598 13.1372
44.6461 13.1526
44.6945 13.0768
44.7426 13.0466
44.791 12.9717
44.8391 12.9469
44.8875 12.8906
44.9357 12.8363
44.984 12.7685
45.0322 12.716
45.0806 12.6454
45.1288 12.6034
45.1773 12.6287
45.2257 12.5033
45.2739 12.532
45.3224 12.4626
45.3706 12.4572
45.4191 12.3592
45.4673 12.3197
45.5158 12.3188
45.5641 12.2471
45.6126 12.2123
45.6609 12.1201
45.7094 12.124
45.7577 12.0724
45.8063 11.9988
45.8546 11.9893
45.9031 11.9074
45.9515 11.8989
46.0001 11.8313
46.0484 11.8205
46.097 11.7782
46.1454 11.7692
46.194 11.7028
46.2424 11.6185
46.291 11.5916
46.3395 11.5322
46.3881 11.5065
46.4365 11.4824
46.4852 11.4423
46.5337 11.424
46.5823 11.3827
46.631 11.2746
46.6795 11.2809
46.7282 11.2591
46.7767 11.2352
46.8254 11.1505
46.8739 11.0977
46.9226 11.0268
46.9712 10.9941
47.0199 10.9954
47.0685 10.9605
47.1173 10.8682
47.1658 10.8787
47.2146 10.8882
47.2632 10.7704
47.312 10.7482
47.3606 10.6679
47.4095 10.6983
47.4581 10.6317
47.5069 10.5759
47.5556 10.5251
47.6044 10.4896
47.6531 10.4907
47.702 10.4257
47.7507 10.3881
47.7996 10.3245
47.8483 10.313
47.8972 10.2581
47.9461 10.2415
47.9948 10.169
48.0438 10.1556
48.0925 10.1457
48.1415 10.0928
48.1902 10.0553
48.2392 10.0281
48.288 9.99249
48.337 9.9428
48.3858 9.89268
48.4348 9.85096
48.4837 9.84806
48.5327 9.80488
48.5815 9.78701
48.6306 9.75506
48.6795 9.71233
48.7285 9.6502
48.7774 9.65349
48.8265 9.59876
48.8754 9.54511
48.9245 9.51368
48.9734 9.517
49.0226 9.48031
49.0715 9.41775
49.1206 9.36565
49.1696 9.33662
49.2188 9.34589
49.2679 9.27967
49.3169 9.22175
49.3661 9.19212
49.4151 9.1373
49.4643 9.13197
49.5134 9.09305
49.5626 9.02049
49.6117 8.99985
49.6609 8.99946
49.71 8.96043
49.7592 8.90779
49.8083 8.88379
49.8576 8.87088
49.9067 8.81057
49.956 8.7998
50.0052 8.73526
50.0545 8.72763
50.1036 8.67789
50.153 8.65146
50.2022 8.63802
50.2515 8.56518
50.3007 8.55177
50.3501 8.46373
50.3993 8.472
50.4487 8.44961
50.498 8.41132
50.5474 8.38314
50.5966 8.38123
50.6461 8.31719
50.6955 8.29518
50.7448 8.22151
50.7943 8.23089
50.8436 8.20454
50.8931 8.12323
50.9424 8.12022
50.9919 8.13319
51.0413 8.01592
51.0908 8.05529
51.1402 8.00957
51.1897 7.94134
51.2391 7.95139
51.2887 7.88167
51.3381 7.88584
51.3877 7.88311
51.4371 7.81039
51.4867 7.72486
51.5362 7.72777
51.5858 7.73625
51.6353 7.63489
51.6849 7.62997
51.7344 7.61512
51.7841 7.59159
51.8336 7.51865
51.8833 7.51827
51.9328 7.47879
51.9826 7.43814
52.0323 7.4284
52.0818 7.40436
52.1316 7.32935
52.1812 7.31263
52.231 7.30675
52.2806 7.29654
52.3304 7.24261
52.38 7.21036
52.4298 7.16617
52.4794 7.13621
52.5293 7.1421
52.5789 7.08142
52.6288 7.09357
52.6785 7.02046
52.7284 6.98435
52.7781 6.98884
52.828 6.9579
52.8777 6.90716
52.9276 6.90631
52.9774 6.81931
53.0273 6.84648
53.0771 6.77393
53.1271 6.76028
53.1769 6.70972
53.2269 6.72395
53.2767 6.66938
53.3267 6.64377
53.3765 6.6234
53.4266 6.58945
53.4766 6.59992
53.5265 6.57111
53.5765 6.52675
53.6264 6.48261
53.6765 6.49447
53.7264 6.43976
53.7765 6.39903
53.8265 6.34948
53.8766 6.35882
53.9266 6.32096
53.9767 6.29632
54.0267 6.27944
54.0769 6.26711
54.1269 6.19441
54.1771 6.18856
54.2271 6.12653
54.2773 6.10792
54.3274 6.07934
54.3776 6.01782
54.4277 6.04451
54.478 5.96429
54.528 5.97315
54.5783 5.8947
54.6285 5.83003
54.6788 5.8429
54.7289 5.75307
54.7792 5.76225
54.8296 5.68656
54.8798 5.60728
54.9301 5.65749
54.9803 5.58931
55.0307 5.55151
55.0809 5.48755
55.1314 5.48088
55.1816 5.43304
55.232 5.34763
55.2823 5.35503
55.3328 5.21796
55.383 5.20502
55.4335 5.22985
55.4838 5.1401
55.5344 5.10457
55.5847 5.01519
55.6352 5.0233
55.6856 4.99648
55.7361 4.89641