File: XRD/Ni3Fe_FD0818.xy
TT I
1.27165 7.19355
1.31627 6.89898
1.36089 6.54029
1.40551 5.85527
1.45013 5.71426
1.49476 5.55029
1.53938 5.3625
1.584 5.43976
1.62863 5.69042
1.67325 5.19553
1.71787 5.50131
1.7625 4.77773
1.80712 4.50571
1.85174 4.26739
1.89636 4.83286
1.94099 5.33029
1.98562 4.56939
2.03025 4.42014
2.07487 4.54471
2.11949 4.83348
2.16411 5.1889
2.20874 8.24733
2.25338 11.0778
2.298 5.51364
2.34263 5.32936
2.38725 6.22673
2.43188 6.06553
2.4765 6.50255
2.52115 6.89246
2.56577 8.07255
2.6104 8.45013
2.65503 8.04981
2.69965 8.29115
2.7443 8.86366
2.78893 8.61931
2.83356 8.7072
2.87818 9.18202
2.92281 9.08007
2.96744 9.24184
3.01209 10.1157
3.05672 11.1582
3.10135 12.2797
3.14599 12.891
3.19062 14.5506
3.23527 14.982
3.2799 16.273
3.32454 16.6529
3.36917 17.3505
3.4138 18.5164
3.45844 19.2493
3.50309 20.4735
3.54773 21.6914
3.59237 23.079
3.637 48.2179
3.68164 36.2835
3.7263 25.3799
3.77094 25.6691
3.81558 26.506
3.86022 27.4419
3.90486 28.5401
3.9495 29.4494
3.99416 30.5831
4.0388 31.8508
4.08344 32.5999
4.12809 34.3096
4.17273 35.4811
4.21738 38.719
4.26204 117.243
4.30669 102.894
4.35133 44.0778
4.39598 43.3761
4.44063 47.8838
4.4853 53.3758
4.52995 57.1415
4.5746 57.5966
4.61925 53.6857
4.6639 55.008
4.70855 57.9568
4.75322 61.5981
4.79788 68.4023
4.84253 68.5756
4.88719 74.923
4.93184 76.5625
4.97652 80.3173
5.02118 86.9101
5.06583 94.3905
5.11049 106.325
5.15515 156.884
5.19981 401.416
5.24449 2861.83
5.28916 12402.8
5.33382 2475.49
5.37848 192.516
5.42315 129.883
5.46783 119.379
5.5125 112.665
5.55716 101.632
5.60183 97.7281
5.6465 95.8656
5.69117 94.0226
5.73586 92.4032
5.78053 98.2079
5.8252 98.3797
5.86988 101.602
5.91455 95.0252
5.95924 104.111
6.00392 241.689
6.0486 971.365
6.09328 4587.16
6.13795 3024.61
6.18263 204.12
6.22733 89.4306
6.27201 79.8679
6.3167 83.7621
6.36138 73.8353
6.40606 69.6927
6.45075 69.4369
6.49545 64.8756
6.54014 63.0505
6.58483 62.5847
6.62952 62.5362
6.67421 72.6703
6.71892 87.8979
6.76361 61.6748
6.8083 59.2992
6.853 59.7604
6.89769 56.3912
6.94239 55.8126
6.98711 55.5744
7.03181 55.4011
7.07651 54.559
7.12121 54.4283
7.16591 55.6037
7.21063 55.2052
7.25533 60.0552
7.30004 97.0862
7.34475 66.467
7.38945 54.5789
7.43416 53.3713
7.47889 53.2379
7.5236 53.7932
7.56831 54.5642
7.61303 54.9762
7.65774 55.6419
7.70247 56.4875
7.74719 56.4131
7.79191 56.0216
7.83663 56.3291
7.88135 57.1012
7.92607 58.2397
7.97081 59.4715
8.01553 60.7275
8.06026 62.1444
8.10498 64.0453
8.14971 70.7242
8.19446 70.6083
8.23919 69.0193
8.28392 71.5154
8.32865 73.8078
8.37339 78.0301
8.41812 83.5891
8.46288 102.522
8.50761 178.37
8.55235 385.584
8.59709 1226.44
8.64183 2181.3
8.68658 827.524
8.73134 145.866
8.77609 97.072
8.82083 91.8349
8.86558 92.3766
8.91033 91.8239
8.9551 88.9749
8.99985 84.8487
9.04461 83.586
9.08936 83.9467
9.13412 82.8403
9.17888 81.7279
9.22365 81.7007
9.26841 81.5993
9.31318 84.7137
9.35794 86.6126
9.4027 85.7716
9.44749 85.2211
9.49226 84.6316
9.53703 85.3532
9.5818 89.3598
9.62657 94.1455
9.67134 95.1288
9.71614 92.4124
9.76091 94.6034
9.80569 99.0835
9.85047 100.74
9.89525 111.782
9.94005 126.6
9.98484 190.546
10.0296 345.575
10.0744 842.862
10.1192 1822.93
10.164 1495.49
10.2088 346.108
10.2536 120.071
10.2984 108.666
10.3432 107.683
10.388 104.973
10.4328 122.037
10.4776 162.853
10.5224 297.351
10.5672 542.085
10.612 489.567
10.6568 182.153
10.7017 93.7614
10.7465 85.8429
10.7913 82.8317
10.8361 80.2116
10.8809 78.0345
10.9257 77.4373
10.9706 77.7277
11.0154 74.7825
11.0602 72.3639
11.105 70.9137
11.1499 71.7549
11.1947 73.6996
11.2395 69.3778
11.2844 67.8759
11.3292 66.448
11.374 65.6566
11.4189 64.9606
11.4637 64.2062
11.5086 64.1925
11.5534 64.8801
11.5983 63.9284
11.6431 63.0342
11.688 62.438
11.7328 62.1634
11.7777 62.2793
11.8225 62.4083
11.8674 62.1374
11.9122 62.406
11.9571 62.6124
12.002 63.8226
12.0468 68.6086
12.0917 78.3819
12.1366 103.766
12.1814 161.357
12.2263 218.145
12.2712 162.526
12.3161 86.1739
12.3609 66.3079
12.4058 63.4408
12.4507 63.7064
12.4956 64.4052
12.5405 64.5318
12.5853 64.646
12.6302 67.7186
12.6751 70.0898
12.72 67.563
12.7649 67.2801
12.8098 67.9365
12.8547 69.3375
12.8996 71.0306
12.9445 72.6295
12.9894 74.5241
13.0343 75.3844
13.0792 79.8818
13.1242 92.4416
13.1691 111.406
13.214 150.088
13.2589 250.564
13.3038 391.862
13.3487 412.367
13.3937 233.232
13.4386 117.244
13.4835 106.243
13.5285 120.463
13.5734 161.886
13.6183 260.399
13.6633 369.215
13.7082 328.395
13.7531 167.772
13.7981 92.9951
13.843 80.8323
13.888 78.846
13.9329 76.795
13.9779 74.9625
14.0228 73.6339
14.0678 72.3764
14.1127 71.7672
14.1577 71.4829
14.2027 70.4902
14.2476 69.9181
14.2926 69.7625
14.3376 69.9072
14.3825 69.0264
14.4275 68.4165
14.4725 68.2082
14.5175 68.355
14.5624 68.4096
14.6074 69.2899
14.6524 69.7144
14.6974 69.8572
14.7424 73.5256
14.7874 79.442
14.8324 88.9355
14.8774 112.031
14.9224 160.341
14.9674 218.497
15.0124 218.156
15.0574 139.113
15.1024 85.3707
15.1474 71.3595
15.1924 69.4351
15.2374 68.9087
15.2824 67.893
15.3274 66.7507
15.3725 66.4347
15.4175 65.9621
15.4625 65.2917
15.5076 65.2988
15.5526 65.2177
15.5976 65.4872
15.6426 67.7117
15.6877 72.7878
15.7327 79.5151
15.7778 95.5835
15.8228 130.875
15.8679 180.154
15.9129 198.013
15.958 145.808
16.003 87.9149
16.0481 65.4988
16.0931 62.3937
16.1382 60.8051
16.1833 59.4985
16.2283 58.2993
16.2734 57.8248
16.3185 57.5054
16.3636 57.0351
16.4086 56.2516
16.4537 55.5717
16.4988 55.0798
16.5439 54.855
16.589 54.7068
16.6341 54.3721
16.6792 53.9576
16.7243 54.2085
16.7694 54.3731
16.8145 54.1233
16.8596 54.4221
16.9047 54.9227
16.9498 55.158
16.9949 54.782
17.04 55.344
17.0851 56.7263
17.1302 58.2358
17.1754 61.3214
17.2205 66.875
17.2656 75.3531
17.3108 83.6504
17.3559 80.3635
17.401 68.3053
17.4462 60.5982
17.4913 58.8399
17.5365 58.7292
17.5815 58.579
17.6268 59.1767
17.6718 59.6908
17.7171 60.1306
17.7622 60.8
17.8074 62.1986
17.8525 64.7803
17.8977 68.009
17.9428 73.2785
17.9881 83.0113
18.0331 101.936
18.0784 125.935
18.1237 142.033
18.1688 126.653
18.214 98.6179
18.2591 84.6402
18.3044 91.4799
18.3495 102.066
18.3948 105.027
18.4399 91.6125
18.4852 73.881
18.5303 64.4267
18.5756 61.3843
18.6207 60.6899
18.666 59.7723
18.7112 59.1839
18.7565 58.4342
18.8016 58.1116
18.8469 57.4044
18.892 57.1264
18.9374 56.6821
18.9825 56.4297
19.0278 56.4339
19.073 56.4133
19.1183 56.702
19.1635 57.27
19.2088 58.7129
19.254 61.7494
19.2993 66.6908
19.3447 72.5985
19.3898 75.3577
19.4352 69.7189
19.4804 60.8525
19.5257 55.556
19.5709 53.5905
19.6163 53.4832
19.6615 53.1015
19.7068 52.9631
19.752 52.9004
19.7974 53.2166
19.8426 53.9109
19.888 54.4392
19.9332 55.7974
19.9786 58.6733
20.0238 62.983
20.0692 67.7324
20.1144 69.7588
20.1598 66.7844
20.205 62.3199
20.2504 61.7971
20.2957 64.1599
20.3411 65.3004
20.3863 62.5216
20.4318 56.7579
20.477 52.414
20.5224 50.6018
20.5677 50.1859
20.6131 49.5429
20.6586 49.1455
20.7038 48.8885
20.7493 48.4136
20.7945 48.5107
20.84 48.3525
20.8853 48.3479
20.9307 48.2282
20.976 48.1946
21.0215 48.0914
21.0668 48.5714
21.1122 49.1311
21.1575 49.7084
21.203 50.4775
21.2483 51.1606
21.2938 50.8817
21.3391 49.3829
21.3846 48.2811
21.4299 47.9511
21.4754 48.0322
21.5207 48.3188
21.5662 48.7806
21.6116 48.8913
21.6571 49.5898
21.7024 50.5562
21.7479 52.1937
21.7933 55.4716
21.8388 59.1792
21.8843 62.9735
21.9297 64.129
21.9752 61.5639
22.0206 58.0641
22.0661 55.7142
22.1115 55.8538
22.157 55.3251
22.2024 53.134
22.248 50.5649
22.2933 49.1213
22.3389 48.5279
22.3843 48.3521
22.4299 48.1626
22.4753 48.2498
22.5208 48.1952
22.5662 48.0173
22.6118 48.2856
22.6572 48.4633
22.7028 48.9193
22.7483 49.2175
22.7939 50.0716
22.8393 51.7307
22.8849 54.0885
22.9303 56.3001
22.9759 57.4907
23.0214 56.6222
23.067 53.168
23.1126 50.2187
23.1581 48.5031
23.2037 48.3193
23.2492 48.3935
23.2948 48.3261
23.3403 48.635
23.3859 49.4143
23.4314 50.4755
23.477 52.5786
23.5225 54.9816
23.5682 57.274
23.6137 57.4781
23.6593 54.2732
23.7048 50.3887
23.7505 47.4675
23.796 46.0368
23.8417 45.4043
23.8872 45.1607
23.9329 44.6655
23.9784 44.5947
24.0241 44.3269
24.0697 43.9257
24.1154 43.6026
24.1609 43.406
24.2066 43.4387
24.2522 43.3484
24.2979 42.8943
24.3434 42.8278
24.3892 42.6628
24.4349 42.6294
24.4805 42.5399
24.5262 42.8885
24.5718 42.5676
24.6175 42.5342
24.6631 42.4168
24.7089 42.0053
24.7545 42.0236
24.8002 41.8573
24.8458 41.862
24.8916 41.7714
24.9372 41.8379
24.983 42.2193
25.0286 42.5297
25.0744 43.0959
25.12 43.5044
25.1658 44.1167
25.2114 44.2558
25.2572 44.3367
25.3029 44.3584
25.3487 44.432
25.3943 44.0854
25.4402 42.7668
25.4858 41.7564
25.5316 40.9059
25.5773 40.544
25.6231 40.4627
25.669 40.2407
25.7147 40.249
25.7605 40.0652
25.8062 40.0332
25.8521 40.2645
25.8977 40.1537
25.9436 40.5909
25.9893 40.6077
26.0352 41.2399
26.0809 41.3519
26.1268 41.2979
26.1725 40.771
26.2184 40.22
26.2641 39.8564
26.31 39.6697
26.3557 39.7905
26.4017 39.7409
26.4474 40.0784
26.4933 40.3888
26.5391 40.846
26.585 41.4726
26.6308 41.7777
26.6767 41.7085
26.7225 41.4846
26.7684 40.8789
26.8142 40.4099
26.8601 40.0863
26.9059 39.6297
26.9519 38.9671
26.9979 38.8128
27.0437 38.4796
27.0896 38.3638
27.1354 38.3925
27.1814 38.2092
27.2272 38.1574
27.2732 38.3278
27.3191 38.1185
27.3651 38.1033
27.4109 38.048
27.4569 38.1058
27.5027 38.2304
27.5488 38.2796
27.5946 37.9514
27.6407 37.7265
27.6865 37.6601
27.7326 37.4402
27.7784 37.5266
27.8245 37.4058
27.8703 37.6184
27.9164 37.9103
27.9623 38.0994
28.0084 38.539
28.0543 38.845
28.1003 38.6537
28.1462 38.3377
28.1923 38.1149
28.2384 37.5395
28.2843 37.2491
28.3304 36.7225
28.3764 36.3006
28.4225 36.0174
28.4684 35.882
28.5145 35.5611
28.5605 35.3934
28.6066 35.2631
28.6526 35.3044
28.6987 35.2985
28.7447 35.0998
28.7908 35.0276
28.8368 35.1743
28.8829 35.0954
28.9289 34.9568
28.9751 34.6629
29.0211 34.5973
29.0673 34.3064
29.1133 34.1871
29.1595 34.2185
29.2055 34.0156
29.2517 33.9708
29.2977 33.9449
29.3439 33.9636
29.3899 33.9646
29.4361 33.8271
29.4824 33.5556
29.5284 33.3197
29.5746 33.1112
29.6207 32.7796
29.6669 32.6617
29.713 32.6255
29.7593 32.573
29.8053 32.5797
29.8516 32.4621
29.8977 32.417
29.9439 32.2061
29.99 32.2278
30.0363 32.0364
30.0824 32.2527
30.1287 32.0014
30.1748 32.1144
30.2211 32.1374
30.2673 31.9561
30.3136 32.1327
30.3597 32.0605
30.406 31.7507
30.4522 31.7853
30.4985 31.7578
30.5447 31.9353
30.591 31.8338
30.6372 31.8682
30.6835 31.8619
30.7297 31.9217
30.7761 31.7125
30.8224 31.6587
30.8686 31.6544
30.915 31.2597
30.9612 31.1907
31.0076 30.9729
31.0538 30.8655
31.1002 30.8462
31.1464 30.6441
31.1928 30.5292
31.2391 30.6689
31.2855 30.5249
31.3317 30.6199
31.3781 30.5965
31.4244 30.6638
31.4708 30.5123
31.5171 30.5156
31.5636 30.508
31.6098 30.1784
31.6563 29.9643
31.7026 29.9381
31.7491 29.7805
31.7953 29.9303
31.8418 29.8954
31.8881 29.8626
31.9346 29.8604
31.9809 29.8503
32.0275 29.6862
32.074 29.4631
32.1203 29.2962
32.1668 29.239
32.2132 29.0515
32.2597 28.9328
32.306 28.9063
32.3526 28.7089
32.399 28.6011
32.4455 28.4441
32.4919 28.3808
32.5385 28.3125
32.5848 28.2134
32.6314 28.2458
32.6778 28.1795
32.7244 27.952
32.7708 27.924
32.8174 27.8526
32.8638 27.6973
32.9104 27.7588
32.9569 27.7615
33.0035 27.5401
33.0499 27.5936
33.0966 27.5969
33.143 27.5866
33.1897 27.4046
33.2361 27.3661
33.2828 27.2977
33.3293 27.1604
33.3759 27.0248
33.4226 26.9088
33.4691 26.8468
33.5158 26.705
33.5623 26.6264
33.609 26.4748
33.6555 26.4469
33.7022 26.2574
33.7487 26.1781
33.7954 26.2491
33.842 26.1525
33.8887 26.0611
33.9353 26.0664
33.982 25.8401
34.0286 25.7559
34.0753 25.6643
34.1219 25.6629
34.1687 25.4786
34.2152 25.5443
34.262 25.3981
34.3086 25.2882
34.3554 25.2591
34.402 25.2328
34.4488 24.9932
34.4954 25.0151
34.5422 24.8629
34.5889 24.9103
34.6357 24.7094
34.6825 24.6992
34.7292 24.6768
34.776 24.44
34.8227 24.4244
34.8695 24.3892
34.9162 24.3468
34.9631 24.206
35.0098 24.2408
35.0566 24.1062
35.1033 24.0809
35.1502 24.0452
35.1969 23.9561
35.2438 23.9555
35.2906 23.8164
35.3375 23.7981
35.3842 23.82
35.4311 23.756
35.4779 23.6511
35.5248 23.7044
35.5716 23.5489
35.6185 23.5036
35.6653 23.3354
35.7123 23.2802
35.759 23.2611
35.806 23.1016
35.8528 22.9736
35.8998 22.988
35.9468 22.9527
35.9936 22.8372
36.0406 22.7595
36.0874 22.647
36.1345 22.6999
36.1813 22.6024
36.2283 22.561
36.2752 22.356
36.3222 22.4499
36.3691 22.3188
36.4161 22.2003
36.463 22.2552
36.5101 22.2176
36.557 22.0598
36.6041 21.9608
36.651 21.9558
36.6981 21.916
36.745 21.7943
36.7921 21.7714
36.839 21.6411
36.8861 21.5889
36.9331 21.5618
36.9802 21.4373
37.0272 21.3801
37.0743 21.3408
37.1213 21.2888
37.1684 21.2182
37.2154 21.146
37.2626 21.0494
37.3098 21.0176
37.3568 21.0031
37.404 20.7961
37.451 20.7576
37.4982 20.7928
37.5452 20.6403
37.5924 20.5946
37.6395 20.6486
37.6867 20.5036
37.7337 20.4273
37.781 20.4033
37.8281 20.2032
37.8753 20.1382
37.9224 20.1757
37.9697 20.1526
38.0168 19.9858
38.064 19.9307
38.1111 19.8954
38.1584 19.7834
38.2056 19.8225
38.2529 19.6653
38.3 19.6251
38.3473 19.6131
38.3945 19.4676
38.4418 19.4923
38.489 19.454
38.5363 19.3524
38.5837 19.2015
38.6309 19.2152
38.6782 19.1166
38.7254 19.1041
38.7728 18.9907
38.82 18.9648
38.8674 18.8875
38.9146 18.8486
38.9621 18.8122
39.0093 18.6776
39.0567 18.6449
39.104 18.6215
39.1514 18.5271
39.1987 18.4239
39.2461 18.4008
39.2934 18.4119
39.3409 18.2866
39.3882 18.1932
39.4356 18.1186
39.483 18.1102
39.5304 18.013
39.5778 18.0357
39.6253 17.9582
39.6726 17.9109
39.7201 17.8232
39.7675 17.8528
39.815 17.7456
39.8624 17.6822
39.9099 17.6833
39.9575 17.5879
40.0049 17.523
40.0525 17.4324
40.0999 17.4353
40.1474 17.2967
40.1949 17.2989
40.2425 17.3074
40.2899 17.1359
40.3375 17.0991
40.385 17.0453
40.4326 17.0621
40.48 16.9414
40.5277 16.9885
40.5752 16.8587
40.6228 16.7531
40.6703 16.8303
40.718 16.6806
40.7655 16.6863
40.8132 16.5982
40.8607 16.534
40.9084 16.5127
40.9559 16.4141
41.0036 16.4272
41.0512 16.3818
41.0989 16.3013
41.1465 16.2399
41.1942 16.1888
41.242 16.0587
41.2896 16.0477
41.3373 15.986
41.3849 15.9592
41.4327 15.8707
41.4803 15.8619
41.5281 15.7136
41.5758 15.7362
41.6236 15.66
41.6712 15.6548
41.7191 15.5353
41.7667 15.4779
41.8146 15.4821
41.8622 15.4064
41.9101 15.3703
41.9578 15.2914
42.0057 15.2647
42.0534 15.2213
42.1013 15.1712
42.149 15.1182
42.1969 15.0459
42.2446 15.008
42.2925 14.9937
42.3403 14.9204
42.3882 14.8809
42.436 14.8324
42.4839 14.7618
42.5319 14.7072
42.5797 14.6602
42.6277 14.6299
42.6755 14.5927
42.7235 14.5419
42.7713 14.4776
42.8193 14.4002
42.8671 14.3659
42.9152 14.3195
42.963 14.2751
43.0111 14.196
43.0589 14.1672
43.107 14.1141
43.1549 14.0542
43.2029 14.0301
43.2508 13.9835
43.2989 13.9092
43.3468 13.8791
43.3949 13.8289
43.4429 13.7714
43.491 13.7282
43.5389 13.7095
43.5871 13.6994
43.635 13.5946
43.6832 13.5514
43.7312 13.5196
43.7793 13.4623
43.8273 13.4129
43.8755 13.3438
43.9237 13.3302
43.9717 13.2866
44.0199 13.2147
44.068 13.2127
44.1162 13.0957
44.1642 13.1076
44.2125 13.0374
44.2606 13.0121
44.3088 12.9914
44.3569 12.8768
44.4052 12.8452
44.4533 12.796
44.5016 12.7687
44.5497 12.7207
44.598 12.6927
44.6461 12.6505
44.6945 12.5758
44.7426 12.5281
44.791 12.5007
44.8391 12.4776
44.8875 12.4498
44.9357 12.3633
44.984 12.366
45.0322 12.2508
45.0806 12.2177
45.1288 12.1924
45.1773 12.1213
45.2257 12.0848
45.2739 12.0676
45.3224 12.0153
45.3706 12.0252
45.4191 11.9534
45.4673 11.9028
45.5158 11.8248
45.5641 11.8249
45.6126 11.7962
45.6609 11.7223
45.7094 11.6771
45.7577 11.6381
45.8063 11.6012
45.8546 11.5812
45.9031 11.4899
45.9515 11.4877
46.0001 11.441
46.0484 11.3836
46.097 11.3711
46.1454 11.3487
46.194 11.2966
46.2424 11.2546
46.291 11.2126
46.3395 11.1695
46.3881 11.099
46.4365 11.1138
46.4852 11.0462
46.5337 11.0375
46.5823 10.9999
46.631 10.9063
46.6795 10.9238
46.7282 10.8491
46.7767 10.8054
46.8254 10.7082
46.8739 10.7402
46.9226 10.6494
46.9712 10.6089
47.0199 10.5864
47.0685 10.5795
47.1173 10.5171
47.1658 10.4855
47.2146 10.4687
47.2632 10.4004
47.312 10.3879
47.3606 10.3283
47.4095 10.2863
47.4581 10.2281
47.5069 10.2176
47.5556 10.1643
47.6044 10.1589
47.6531 10.0981
47.702 10.0459
47.7507 10.0257
47.7996 9.97145
47.8483 9.93292
47.8972 9.91214
47.9461 9.85998
47.9948 9.82862
48.0438 9.77924
48.0925 9.79944
48.1415 9.74939
48.1902 9.72502
48.2392 9.70109
48.288 9.63761
48.337 9.60397
48.3858 9.58048
48.4348 9.50346
48.4837 9.50531
48.5327 9.46032
48.5815 9.39101
48.6306 9.39132
48.6795 9.3524
48.7285 9.32687
48.7774 9.28856
48.8265 9.24569
48.8754 9.21188
48.9245 9.18637
48.9734 9.16127
49.0226 9.11332
49.0715 9.08662
49.1206 9.03612
49.1696 9.02745
49.2188 8.98444
49.2679 8.96985
49.3169 8.87047
49.3661 8.82791
49.4151 8.89914
49.4643 8.80559
49.5134 8.79599
49.5626 8.74258
49.6117 8.73201
49.6609 8.63769
49.71 8.64189
49.7592 8.60902
49.8083 8.54032
49.8576 8.57017
49.9067 8.5037
49.956 8.47314
50.0052 8.45316
50.0545 8.41121
50.1036 8.36885
50.153 8.33639
50.2022 8.3165
50.2515 8.29353
50.3007 8.23705
50.3501 8.19439
50.3993 8.19698
50.4487 8.13706
50.498 8.11408
50.5474 8.0874
50.5966 8.0542
50.6461 7.99688
50.6955 8.01695
50.7448 7.97376
50.7943 7.92063
50.8436 7.88375
50.8931 7.90174
50.9424 7.85609
50.9919 7.82196
51.0413 7.78327
51.0908 7.76472
51.1402 7.7201
51.1897 7.70884
51.2391 7.64496
51.2887 7.64646
51.3381 7.59618
51.3877 7.57681
51.4371 7.49818
51.4867 7.50651
51.5362 7.50999
51.5858 7.43435
51.6353 7.37114
51.6849 7.37338
51.7344 7.33297
51.7841 7.28607
51.8336 7.29445
51.8833 7.28441
51.9328 7.24743
51.9826 7.18738
52.0323 7.15294
52.0818 7.10987
52.1316 7.13422
52.1812 7.08587
52.231 7.05006
52.2806 7.02611
52.3304 7.03222
52.38 6.94847
52.4298 6.92851
52.4794 6.88399
52.5293 6.87478
52.5789 6.87347
52.6288 6.83252
52.6785 6.77765
52.7284 6.77198
52.7781 6.73954
52.828 6.71934
52.8777 6.67811
52.9276 6.64688
52.9774 6.62229
53.0273 6.60013
53.0771 6.55872
53.1271 6.57738
53.1769 6.51161
53.2269 6.51812
53.2767 6.43245
53.3267 6.40534
53.3765 6.45406
53.4266 6.37913
53.4766 6.35022
53.5265 6.30594
53.5765 6.29636
53.6264 6.25137
53.6765 6.2467
53.7264 6.19289
53.7765 6.22671
53.8265 6.17923
53.8766 6.12842
53.9266 6.08839
53.9767 6.07435
54.0267 6.01395
54.0769 6.01743
54.1269 5.99219
54.1771 5.94512
54.2271 5.93961
54.2773 5.95555
54.3274 5.87935
54.3776 5.81947
54.4277 5.81522
54.478 5.79065
54.528 5.7692
54.5783 5.71425
54.6285 5.67286
54.6788 5.60342
54.7289 5.56734
54.7792 5.5864
54.8296 5.53372
54.8798 5.43671
54.9301 5.43994
54.9803 5.39125
55.0307 5.41138
55.0809 5.28167
55.1314 5.28302
55.1816 5.22934
55.232 5.16821
55.2823 5.18299
55.3328 5.13368
55.383 5.06287
55.4335 5.01323
55.4838 4.98164
55.5344 4.94221
55.5847 4.87897
55.6352 4.82953
55.6856 4.80356
55.7361 4.78851