File: XRD/Ni3Fe_FD0545.xy
TT I
1.27165 7.47185
1.31627 7.31399
1.36089 6.55678
1.40551 6.24938
1.45013 5.63845
1.49476 5.75281
1.53938 6.03148
1.584 5.49648
1.62863 5.07769
1.67325 5.051
1.71787 5.09199
1.7625 4.57861
1.80712 4.87297
1.85174 4.63737
1.89636 4.58554
1.94099 5.28353
1.98562 4.20989
2.03025 4.93917
2.07487 4.6603
2.11949 4.8092
2.16411 4.68508
2.20874 15.175
2.25338 23.609
2.298 5.67597
2.34263 5.33264
2.38725 5.92615
2.43188 5.79375
2.4765 7.01462
2.52115 6.64003
2.56577 7.22472
2.6104 7.33583
2.65503 8.3596
2.69965 8.2106
2.7443 8.35566
2.78893 7.81812
2.83356 8.5447
2.87818 8.69918
2.92281 8.55111
2.96744 9.46624
3.01209 11.0793
3.05672 11.2294
3.10135 12.4655
3.14599 13.4682
3.19062 14.2414
3.23527 15.4107
3.2799 15.6646
3.32454 16.751
3.36917 18.1862
3.4138 19.0218
3.45844 19.6213
3.50309 21.4009
3.54773 21.962
3.59237 24.4936
3.637 96.6693
3.68164 60.4622
3.7263 26.617
3.77094 26.3634
3.81558 27.3259
3.86022 27.9891
3.90486 29.3651
3.9495 30.2155
3.99416 30.9385
4.0388 32.5084
4.08344 34.0133
4.12809 34.9853
4.17273 37.2124
4.21738 43.7376
4.26204 259.092
4.30669 224.558
4.35133 48.9612
4.39598 44.6291
4.44063 55.2167
4.4853 66.8671
4.52995 50.7355
4.5746 51.5364
4.61925 53.511
4.6639 55.7395
4.70855 58.2748
4.75322 61.5336
4.79788 64.3169
4.84253 68.1185
4.88719 71.6698
4.93184 75.7521
4.97652 81.2289
5.02118 87.8178
5.06583 95.6074
5.11049 108.475
5.15515 181.016
5.19981 373.431
5.24449 2914.18
5.28916 12340.4
5.33382 3150.45
5.37848 200.889
5.42315 131.527
5.46783 114.291
5.5125 106.78
5.55716 103.043
5.60183 98.994
5.6465 97.814
5.69117 95.0348
5.73586 93.0477
5.78053 92.2767
5.8252 91.6816
5.86988 92.873
5.91455 95.435
5.95924 104.638
6.00392 214.867
6.0486 993.968
6.09328 4325.81
6.13795 3383.05
6.18263 255.254
6.22733 95.072
6.27201 84.1567
6.3167 104.543
6.36138 81.6224
6.40606 69.5774
6.45075 67.7563
6.49545 66.0187
6.54014 64.6955
6.58483 63.9691
6.62952 63.5016
6.67421 96.77
6.71892 148.713
6.76361 69.8668
6.8083 59.0842
6.853 57.5736
6.89769 57.5564
6.94239 57.1437
6.98711 56.5016
7.03181 55.934
7.07651 56.117
7.12121 55.5294
7.16591 56.0627
7.21063 56.0161
7.25533 71.5058
7.30004 186.078
7.34475 93.8582
7.38945 57.3176
7.43416 55.4035
7.47889 54.9793
7.5236 55.0526
7.56831 56.0387
7.61303 57.5677
7.65774 58.1701
7.70247 56.7004
7.74719 56.8566
7.79191 57.6025
7.83663 57.4854
7.88135 58.4558
7.92607 59.1835
7.97081 60.3287
8.01553 61.5167
8.06026 62.346
8.10498 64.3507
8.14971 74.6635
8.19446 73.1531
8.23919 70.0212
8.28392 72.5787
8.32865 74.8589
8.37339 78.8829
8.41812 86.5172
8.46288 117.087
8.50761 167.166
8.55235 394.385
8.59709 1174.16
8.64183 2189.26
8.68658 952.047
8.73134 167.656
8.77609 100.557
8.82083 93.4808
8.86558 90.1047
8.91033 90.5555
8.9551 92.5025
8.99985 86.1514
9.04461 84.4745
9.08936 83.3542
9.13412 82.5098
9.17888 82.8722
9.22365 83.9081
9.26841 82.697
9.31318 83.3427
9.35794 83.1888
9.4027 83.3347
9.44749 84.477
9.49226 85.3647
9.53703 86.1464
9.5818 87.9574
9.62657 92.7642
9.67134 99.41
9.71614 94.4603
9.76091 94.5617
9.80569 97.108
9.85047 100.932
9.89525 126.318
9.94005 139.05
9.98484 178.45
10.0296 347.671
10.0744 804.871
10.1192 1718.93
10.164 1627.93
10.2088 398.829
10.2536 127.321
10.2984 114.856
10.3432 116.33
10.388 105.627
10.4328 118.632
10.4776 162.227
10.5224 282.945
10.5672 519.658
10.612 513.632
10.6568 197.646
10.7017 96.5773
10.7465 87.2111
10.7913 83.6024
10.8361 81.4716
10.8809 79.6473
10.9257 79.0205
10.9706 79.6045
11.0154 75.2688
11.0602 73.0949
11.105 72.4537
11.1499 77.3769
11.1947 85.1586
11.2395 75.3265
11.2844 71.1409
11.3292 67.5825
11.374 66.8082
11.4189 66.0953
11.4637 65.6545
11.5086 65.9652
11.5534 69.1969
11.5983 66.0781
11.6431 64.2953
11.688 63.4058
11.7328 63.3957
11.7777 63.3783
11.8225 63.0778
11.8674 63.0772
11.9122 63.3532
11.9571 63.5592
12.002 64.3188
12.0468 68.2756
12.0917 80.0165
12.1366 103.356
12.1814 151.837
12.2263 205.976
12.2712 166.506
12.3161 96.6328
12.3609 70.9974
12.4058 65.2127
12.4507 64.8943
12.4956 64.7793
12.5405 65.2789
12.5853 66.0465
12.6302 74.4675
12.6751 80.0973
12.72 70.8816
12.7649 68.3951
12.8098 68.8179
12.8547 70.0345
12.8996 71.4549
12.9445 72.583
12.9894 74.6893
13.0343 76.472
13.0792 79.6123
13.1242 88.1384
13.1691 113.04
13.214 150.294
13.2589 237.404
13.3038 368.922
13.3487 433.257
13.3937 265.833
13.4386 124.165
13.4835 106.044
13.5285 121.623
13.5734 159.053
13.6183 244.813
13.6633 350.179
13.7082 343.076
13.7531 189.154
13.7981 98.0794
13.843 82.324
13.888 80.1293
13.9329 77.5058
13.9779 76.4134
14.0228 74.9134
14.0678 73.5992
14.1127 73.0693
14.1577 73.1792
14.2027 72.0579
14.2476 70.8956
14.2926 71.1027
14.3376 72.2428
14.3825 70.9163
14.4275 69.2412
14.4725 69.1353
14.5175 69.4133
14.5624 69.5423
14.6074 71.9183
14.6524 72.4801
14.6974 70.9252
14.7424 72.4329
14.7874 79.6192
14.8324 89.84
14.8774 111.595
14.9224 153.35
14.9674 208.28
15.0124 219.754
15.0574 149.57
15.1024 90.4955
15.1474 72.6946
15.1924 71.0928
15.2374 71.7107
15.2824 71.0436
15.3274 68.6777
15.3725 67.2506
15.4175 66.932
15.4625 66.5072
15.5076 66.7334
15.5526 66.8264
15.5976 66.2484
15.6426 67.1573
15.6877 72.9364
15.7327 80.6159
15.7778 95.6549
15.8228 125.962
15.8679 170.594
15.9129 196.68
15.958 155.794
16.003 96.0853
16.0481 68.3045
16.0931 65.4887
16.1382 63.3231
16.1833 61.2994
16.2283 59.4936
16.2734 58.7912
16.3185 59.1672
16.3636 60.1205
16.4086 58.2788
16.4537 56.65
16.4988 56.0486
16.5439 55.9115
16.589 55.6848
16.6341 55.3876
16.6792 55.0685
16.7243 55.5054
16.7694 55.5192
16.8145 55.4961
16.8596 55.6514
16.9047 57.4293
16.9498 57.637
16.9949 56.2511
17.04 56.2737
17.0851 57.5067
17.1302 59.2986
17.1754 62.3218
17.2205 67.1297
17.2656 74.8528
17.3108 83.2818
17.3559 82.5412
17.401 71.8128
17.4462 62.3689
17.4913 59.5446
17.5365 59.5297
17.5815 59.6277
17.6268 59.9253
17.6718 60.9259
17.7171 61.4392
17.7622 61.8787
17.8074 62.4796
17.8525 64.5522
17.8977 68.7309
17.9428 74.4661
17.9881 83.1156
18.0331 99.5794
18.0784 122.062
18.1237 141.556
18.1688 132.634
18.214 103.488
18.2591 86.2149
18.3044 90.782
18.3495 101.393
18.3948 107.932
18.4399 97.2405
18.4852 78.0669
18.5303 66.316
18.5756 62.728
18.6207 61.7691
18.666 61.0442
18.7112 60.2965
18.7565 59.5011
18.8016 59.235
18.8469 58.3912
18.892 58.021
18.9374 57.793
18.9825 57.5845
19.0278 57.3994
19.073 57.3211
19.1183 57.9972
19.1635 58.6559
19.2088 60.1801
19.254 62.4442
19.2993 66.8463
19.3447 73.1336
19.3898 77.5949
19.4352 72.9654
19.4804 63.4849
19.5257 56.8416
19.5709 54.6945
19.6163 54.4112
19.6615 54.2057
19.7068 53.7155
19.752 53.5694
19.7974 54.0456
19.8426 55.0514
19.888 55.5814
19.9332 56.715
19.9786 59.1144
20.0238 62.7185
20.0692 67.6338
20.1144 70.7074
20.1598 68.7551
20.205 63.7721
20.2504 62.2148
20.2957 64.5451
20.3411 66.5131
20.3863 64.7031
20.4318 58.7847
20.477 54.2306
20.5224 52.1366
20.5677 51.3788
20.6131 50.5884
20.6586 50.0699
20.7038 49.9821
20.7493 49.3858
20.7945 49.4018
20.84 49.145
20.8853 49.0707
20.9307 48.8343
20.976 48.9962
21.0215 49.0642
21.0668 49.2695
21.1122 49.7611
21.1575 50.5316
21.203 51.2476
21.2483 51.8375
21.2938 51.7059
21.3391 50.4827
21.3846 49.2664
21.4299 48.7117
21.4754 48.7009
21.5207 49.0324
21.5662 49.1561
21.6116 49.6947
21.6571 50.3055
21.7024 51.1286
21.7479 53.0596
21.7933 55.6946
21.8388 59.1517
21.8843 63.0589
21.9297 65.3734
21.9752 63.716
22.0206 60.0366
22.0661 56.7945
22.1115 56.3069
22.157 56.5117
22.2024 54.6703
22.248 51.8441
22.2933 50.1871
22.3389 49.6237
22.3843 49.4195
22.4299 49.3813
22.4753 49.4056
22.5208 48.949
22.5662 48.9442
22.6118 49.0214
22.6572 49.1388
22.7028 49.6715
22.7483 50.0844
22.7939 50.8318
22.8393 52.2586
22.8849 54.5312
22.9303 56.6799
22.9759 58.3399
23.0214 57.9302
23.067 54.805
23.1126 51.3131
23.1581 49.5544
23.2037 49.068
23.2492 49.1823
23.2948 49.3191
23.3403 49.461
23.3859 50.1457
23.4314 51.0784
23.477 52.9538
23.5225 55.3018
23.5682 57.4279
23.6137 58.5771
23.6593 56.0521
23.7048 51.8327
23.7505 48.435
23.796 46.963
23.8417 46.2368
23.8872 45.8077
23.9329 45.661
23.9784 45.2974
24.0241 44.9565
24.0697 44.8205
24.1154 44.4993
24.1609 44.3464
24.2066 44.2483
24.2522 44.1409
24.2979 43.8981
24.3434 43.6045
24.3892 43.503
24.4349 43.5064
24.4805 43.4075
24.5262 43.5362
24.5718 43.1639
24.6175 43.3368
24.6631 43.229
24.7089 42.9403
24.7545 42.8778
24.8002 42.7265
24.8458 42.5977
24.8916 42.3857
24.9372 42.6192
24.983 42.8976
25.0286 43.2565
25.0744 43.5924
25.12 44.1411
25.1658 44.7241
25.2114 45.0583
25.2572 45.1418
25.3029 45.1713
25.3487 45.3697
25.3943 45.0202
25.4402 43.8262
25.4858 42.7622
25.5316 41.8242
25.5773 41.3165
25.6231 41.2425
25.669 41.0187
25.7147 40.9122
25.7605 40.8086
25.8062 41.0452
25.8521 41.0776
25.8977 40.8358
25.9436 41.017
25.9893 41.2951
26.0352 41.715
26.0809 41.9128
26.1268 42.0191
26.1725 41.7525
26.2184 41.2029
26.2641 40.5102
26.31 40.4522
26.3557 40.4891
26.4017 40.511
26.4474 40.8037
26.4933 41.0981
26.5391 41.6347
26.585 42.1008
26.6308 42.5233
26.6767 42.5257
26.7225 42.2631
26.7684 41.7109
26.8142 41.133
26.8601 40.7166
26.9059 40.3715
26.9519 39.8297
26.9979 39.4905
27.0437 39.1463
27.0896 39.0726
27.1354 39.0064
27.1814 38.9287
27.2272 38.7957
27.2732 38.8352
27.3191 38.7138
27.3651 38.7519
27.4109 38.6845
27.4569 38.7988
27.5027 38.7755
27.5488 38.887
27.5946 38.6949
27.6407 38.5587
27.6865 38.3499
27.7326 38.105
27.7784 38.1416
27.8245 38.1604
27.8703 38.3643
27.9164 38.5633
27.9623 38.6317
28.0084 39.1235
28.0543 39.3886
28.1003 39.3415
28.1462 39.1526
28.1923 38.8124
28.2384 38.3227
28.2843 37.8851
28.3304 37.5339
28.3764 37.0567
28.4225 36.7004
28.4684 36.4135
28.5145 36.2937
28.5605 36.1835
28.6066 35.8988
28.6526 35.9731
28.6987 35.8819
28.7447 35.8797
28.7908 35.8021
28.8368 35.8146
28.8829 35.73
28.9289 35.5882
28.9751 35.4338
29.0211 35.1395
29.0673 35.0102
29.1133 34.879
29.1595 34.8006
29.2055 34.5452
29.2517 34.6129
29.2977 34.5485
29.3439 34.589
29.3899 34.5945
29.4361 34.4406
29.4824 34.2502
29.5284 33.9799
29.5746 33.667
29.6207 33.4398
29.6669 33.3504
29.713 33.2135
29.7593 33.1935
29.8053 33.1705
29.8516 33.0561
29.8977 33.0388
29.9439 32.8193
29.99 32.8339
30.0363 32.721
30.0824 32.8293
30.1287 32.7006
30.1748 32.6703
30.2211 32.6914
30.2673 32.5659
30.3136 32.6481
30.3597 32.483
30.406 32.3988
30.4522 32.2615
30.4985 32.2986
30.5447 32.525
30.591 32.3708
30.6372 32.484
30.6835 32.405
30.7297 32.4418
30.7761 32.516
30.8224 32.284
30.8686 32.1026
30.915 31.8916
30.9612 31.7405
31.0076 31.5404
31.0538 31.4615
31.1002 31.3471
31.1464 31.2134
31.1928 31.217
31.2391 31.263
31.2855 30.9683
31.3317 31.0371
31.3781 31.1103
31.4244 31.1372
31.4708 31.0413
31.5171 31.049
31.5636 31.0999
31.6098 30.8291
31.6563 30.5946
31.7026 30.4266
31.7491 30.3955
31.7953 30.4029
31.8418 30.4864
31.8881 30.3644
31.9346 30.3737
31.9809 30.2327
32.0275 30.1997
32.074 30.1528
32.1203 29.8458
32.1668 29.8012
32.2132 29.6595
32.2597 29.4268
32.306 29.3988
32.3526 29.1882
32.399 29.1326
32.4455 29.0528
32.4919 28.9391
32.5385 28.9261
32.5848 28.7342
32.6314 28.769
32.6778 28.7215
32.7244 28.5304
32.7708 28.3117
32.8174 28.3489
32.8638 28.2414
32.9104 28.3247
32.9569 28.2525
33.0035 28.1135
33.0499 28.1081
33.0966 27.9971
33.143 28.0862
33.1897 27.9714
33.2361 27.7852
33.2828 27.8164
33.3293 27.6336
33.3759 27.6473
33.4226 27.4678
33.4691 27.2768
33.5158 27.2368
33.5623 27.0325
33.609 27.1182
33.6555 26.9428
33.7022 26.882
33.7487 26.8041
33.7954 26.7854
33.842 26.5702
33.8887 26.5769
33.9353 26.4318
33.982 26.379
34.0286 26.28
34.0753 26.1709
34.1219 26.0972
34.1687 26.0613
34.2152 25.9945
34.262 25.8989
34.3086 25.7823
34.3554 25.7298
34.402 25.6347
34.4488 25.5499
34.4954 25.408
34.5422 25.4173
34.5889 25.3423
34.6357 25.2328
34.6825 25.0652
34.7292 25.0582
34.776 24.962
34.8227 24.9311
34.8695 24.7724
34.9162 24.7961
34.9631 24.6886
35.0098 24.6015
35.0566 24.5416
35.1033 24.4019
35.1502 24.4469
35.1969 24.4322
35.2438 24.3463
35.2906 24.3117
35.3375 24.2022
35.3842 24.2617
35.4311 24.1897
35.4779 24.214
35.5248 24.1261
35.5716 24.027
35.6185 23.9747
35.6653 23.8422
35.7123 23.734
35.759 23.6498
35.806 23.643
35.8528 23.5303
35.8998 23.3926
35.9468 23.2761
35.9936 23.2281
36.0406 23.2035
36.0874 23.1671
36.1345 23.0748
36.1813 22.9522
36.2283 22.8527
36.2752 22.8357
36.3222 22.853
36.3691 22.7207
36.4161 22.622
36.463 22.6872
36.5101 22.6039
36.557 22.5508
36.6041 22.3645
36.651 22.2812
36.6981 22.3528
36.745 22.1889
36.7921 22.0672
36.839 22.0124
36.8861 22.0409
36.9331 21.9637
36.9802 21.8591
37.0272 21.7723
37.0743 21.6676
37.1213 21.6348
37.1684 21.6209
37.2154 21.5385
37.2626 21.4108
37.3098 21.4058
37.3568 21.3665
37.404 21.3458
37.451 21.1508
37.4982 21.0859
37.5452 21.0229
37.5924 20.9056
37.6395 21.0278
37.6867 20.863
37.7337 20.7775
37.781 20.6879
37.8281 20.63
37.8753 20.5268
37.9224 20.4872
37.9697 20.4612
38.0168 20.3965
38.064 20.2478
38.1111 20.2472
38.1584 20.1628
38.2056 20.1486
38.2529 20.0825
38.3 20.0283
38.3473 19.9593
38.3945 19.8923
38.4418 19.8183
38.489 19.768
38.5363 19.7416
38.5837 19.5765
38.6309 19.5611
38.6782 19.4561
38.7254 19.4346
38.7728 19.3671
38.82 19.3053
38.8674 19.2717
38.9146 19.2472
38.9621 19.1273
39.0093 19.0966
39.0567 19.0381
39.104 18.9358
39.1514 18.82
39.1987 18.8984
39.2461 18.7987
39.2934 18.7125
39.3409 18.6156
39.3882 18.5716
39.4356 18.5269
39.483 18.4862
39.5304 18.4098
39.5778 18.3639
39.6253 18.3243
39.6726 18.2312
39.7201 18.1992
39.7675 18.1119
39.815 18.1248
39.8624 18.058
39.9099 17.9633
39.9575 17.8746
40.0049 17.8117
40.0525 17.7605
40.0999 17.7564
40.1474 17.7221
40.1949 17.6022
40.2425 17.5388
40.2899 17.4934
40.3375 17.4725
40.385 17.3924
40.4326 17.3407
40.48 17.2297
40.5277 17.2858
40.5752 17.1542
40.6228 17.1006
40.6703 17.116
40.718 17.0011
40.7655 16.9145
40.8132 16.8419
40.8607 16.9055
40.9084 16.857
40.9559 16.7588
41.0036 16.7143
41.0512 16.6679
41.0989 16.6088
41.1465 16.4883
41.1942 16.4701
41.242 16.3784
41.2896 16.3578
41.3373 16.3109
41.3849 16.248
41.4327 16.2336
41.4803 16.1373
41.5281 16.103
41.5758 16.0174
41.6236 16.0047
41.6712 15.8967
41.7191 15.826
41.7667 15.8149
41.8146 15.8042
41.8622 15.7348
41.9101 15.6659
41.9578 15.5466
42.0057 15.5767
42.0534 15.5335
42.1013 15.4102
42.149 15.3876
42.1969 15.3243
42.2446 15.3133
42.2925 15.2335
42.3403 15.2278
42.3882 15.1986
42.436 15.109
42.4839 15.0768
42.5319 14.9784
42.5797 14.9553
42.6277 14.9238
42.6755 14.842
42.7235 14.7385
42.7713 14.7404
42.8193 14.674
42.8671 14.6668
42.9152 14.5664
42.963 14.5532
43.0111 14.469
43.0589 14.3963
43.107 14.3916
43.1549 14.4138
43.2029 14.2545
43.2508 14.2566
43.2989 14.1816
43.3468 14.1406
43.3949 14.102
43.4429 14.0534
43.491 14.0702
43.5389 13.9515
43.5871 13.9133
43.635 13.8525
43.6832 13.8052
43.7312 13.7141
43.7793 13.7208
43.8273 13.6688
43.8755 13.654
43.9237 13.5602
43.9717 13.5216
44.0199 13.4548
44.068 13.4509
44.1162 13.4238
44.1642 13.3545
44.2125 13.3599
44.2606 13.2132
44.3088 13.1803
44.3569 13.1712
44.4052 13.1034
44.4533 13.0652
44.5016 13.0239
44.5497 12.9453
44.598 12.9481
44.6461 12.8701
44.6945 12.822
44.7426 12.7743
44.791 12.7759
44.8391 12.7496
44.8875 12.6735
44.9357 12.6433
44.984 12.5664
45.0322 12.5046
45.0806 12.4859
45.1288 12.431
45.1773 12.3831
45.2257 12.3739
45.2739 12.3163
45.3224 12.2759
45.3706 12.2471
45.4191 12.1196
45.4673 12.141
45.5158 12.0779
45.5641 12.0482
45.6126 12.0334
45.6609 11.9439
45.7094 11.9121
45.7577 11.8671
45.8063 11.7817
45.8546 11.7754
45.9031 11.7779
45.9515 11.6993
46.0001 11.6302
46.0484 11.6115
46.097 11.6136
46.1454 11.567
46.194 11.518
46.2424 11.4287
46.291 11.427
46.3395 11.3767
46.3881 11.3287
46.4365 11.3226
46.4852 11.2422
46.5337 11.1993
46.5823 11.1662
46.631 11.1117
46.6795 11.0836
46.7282 11.037
46.7767 10.9821
46.8254 10.9616
46.8739 10.9176
46.9226 10.8672
46.9712 10.8685
47.0199 10.7559
47.0685 10.7676
47.1173 10.674
47.1658 10.6959
47.2146 10.638
47.2632 10.5795
47.312 10.6016
47.3606 10.551
47.4095 10.4621
47.4581 10.4385
47.5069 10.409
47.5556 10.3699
47.6044 10.3136
47.6531 10.2849
47.702 10.2611
47.7507 10.2528
47.7996 10.1621
47.8483 10.1794
47.8972 10.1101
47.9461 10.075
47.9948 10.0326
48.0438 10.0051
48.0925 9.97969
48.1415 9.93644
48.1902 9.89032
48.2392 9.87109
48.288 9.8203
48.337 9.79363
48.3858 9.7401
48.4348 9.71619
48.4837 9.70569
48.5327 9.63915
48.5815 9.59945
48.6306 9.56645
48.6795 9.5508
48.7285 9.49937
48.7774 9.4637
48.8265 9.4545
48.8754 9.37396
48.9245 9.35793
48.9734 9.34193
49.0226 9.32501
49.0715 9.24267
49.1206 9.24526
49.1696 9.17778
49.2188 9.15677
49.2679 9.11073
49.3169 9.06529
49.3661 9.06396
49.4151 8.97252
49.4643 8.99749
49.5134 8.96866
49.5626 8.89352
49.6117 8.88534
49.6609 8.85248
49.71 8.75583
49.7592 8.77318
49.8083 8.70734
49.8576 8.74913
49.9067 8.67742
49.956 8.66257
50.0052 8.61405
50.0545 8.5349
50.1036 8.57051
50.153 8.49936
50.2022 8.46008
50.2515 8.44456
50.3007 8.39881
50.3501 8.36976
50.3993 8.34843
50.4487 8.30682
50.498 8.26723
50.5474 8.2469
50.5966 8.20584
50.6461 8.17343
50.6955 8.18808
50.7448 8.10769
50.7943 8.09061
50.8436 8.05261
50.8931 8.02765
50.9424 7.99718
50.9919 7.94825
51.0413 7.96093
51.0908 7.92491
51.1402 7.8474
51.1897 7.8453
51.2391 7.83767
51.2887 7.7995
51.3381 7.74941
51.3877 7.71514
51.4371 7.67442
51.4867 7.66802
51.5362 7.63373
51.5858 7.61038
51.6353 7.57056
51.6849 7.48051
51.7344 7.45848
51.7841 7.45779
51.8336 7.4677
51.8833 7.42366
51.9328 7.33977
51.9826 7.33695
52.0323 7.29371
52.0818 7.29386
52.1316 7.20715
52.1812 7.23502
52.231 7.16647
52.2806 7.16497
52.3304 7.15022
52.38 7.12394
52.4298 7.0431
52.4794 7.04448
52.5293 7.00926
52.5789 6.97053
52.6288 6.97556
52.6785 6.92069
52.7284 6.94371
52.7781 6.90902
52.828 6.81691
52.8777 6.79519
52.9276 6.77239
52.9774 6.75534
53.0273 6.75782
53.0771 6.70172
53.1271 6.65049
53.1769 6.6495
53.2269 6.64297
53.2767 6.58973
53.3267 6.55461
53.3765 6.53678
53.4266 6.54176
53.4766 6.43426
53.5265 6.44832
53.5765 6.4267
53.6264 6.3681
53.6765 6.38974
53.7264 6.35209
53.7765 6.31144
53.8265 6.24175
53.8766 6.26302
53.9266 6.19641
53.9767 6.22444
54.0267 6.20965
54.0769 6.14965
54.1269 6.09404
54.1771 6.03619
54.2271 6.06062
54.2773 6.00044
54.3274 5.96684
54.3776 5.952
54.4277 5.9506
54.478 5.91213
54.528 5.81723
54.5783 5.81205
54.6285 5.84361
54.6788 5.76717
54.7289 5.68839
54.7792 5.65654
54.8296 5.62438
54.8798 5.49437
54.9301 5.5527
54.9803 5.49455
55.0307 5.41698
55.0809 5.43627
55.1314 5.42515
55.1816 5.28158
55.232 5.28102
55.2823 5.24472
55.3328 5.16429
55.383 5.12641
55.4335 5.08552
55.4838 5.05679
55.5344 5.05229
55.5847 4.9458
55.6352 4.89375
55.6856 4.92651
55.7361 4.82803