File: XRD/Ni3Fe_FD0340.xy
TT I
1.27165 7.68889
1.31627 7.08905
1.36089 6.91429
1.40551 6.59088
1.45013 6.05578
1.49476 6.46503
1.53938 5.79295
1.584 5.16771
1.62863 5.12867
1.67325 4.94384
1.71787 5.07576
1.7625 5.21203
1.80712 4.79885
1.85174 4.92064
1.89636 4.71458
1.94099 5.39477
1.98562 4.64447
2.03025 4.72346
2.07487 4.28844
2.11949 4.52787
2.16411 4.51074
2.20874 10.889
2.25338 15.9477
2.298 5.43551
2.34263 4.62259
2.38725 5.09071
2.43188 5.27028
2.4765 5.67065
2.52115 6.09751
2.56577 6.73212
2.6104 6.82553
2.65503 6.57171
2.69965 7.39328
2.7443 7.5687
2.78893 7.72412
2.83356 8.12286
2.87818 8.09572
2.92281 8.45069
2.96744 9.83566
3.01209 10.4161
3.05672 10.7069
3.10135 12.1311
3.14599 13.3097
3.19062 14.0407
3.23527 15.012
3.2799 15.99
3.32454 16.9284
3.36917 17.817
3.4138 18.9364
3.45844 19.7357
3.50309 20.7101
3.54773 21.6063
3.59237 24.0876
3.637 66.8896
3.68164 45.6888
3.7263 26.1611
3.77094 26.5967
3.81558 27.1988
3.86022 28.09
3.90486 29.0203
3.9495 30.6737
3.99416 31.4404
4.0388 32.3775
4.08344 34.2336
4.12809 35.5035
4.17273 36.797
4.21738 42.1447
4.26204 170.624
4.30669 149.077
4.35133 47.1251
4.39598 45.2542
4.44063 51.5831
4.4853 59.8019
4.52995 52.2475
4.5746 52.6141
4.61925 54.9651
4.6639 57.1147
4.70855 60.1812
4.75322 62.9143
4.79788 66.6063
4.84253 69.5999
4.88719 74.6627
4.93184 78.5171
4.97652 84.7522
5.02118 91.8216
5.06583 100.829
5.11049 115.257
5.15515 177.76
5.19981 583.175
5.24449 3630.1
5.28916 11400.9
5.33382 3485.72
5.37848 225.629
5.42315 139.786
5.46783 121.013
5.5125 111.817
5.55716 106.925
5.60183 102.847
5.6465 100.267
5.69117 98.5617
5.73586 96.5303
5.78053 97.1806
5.8252 96.6387
5.86988 97.9098
5.91455 101.332
5.95924 116.198
6.00392 311.197
6.0486 1269.01
6.09328 4072.64
6.13795 3424.25
6.18263 288.075
6.22733 100.267
6.27201 86.2358
6.3167 95.0978
6.36138 79.4684
6.40606 71.2233
6.45075 69.518
6.49545 67.0625
6.54014 65.4013
6.58483 64.148
6.62952 64.061
6.67421 83.277
6.71892 112.998
6.76361 66.3795
6.8083 59.895
6.853 58.5954
6.89769 57.8598
6.94239 57.7296
6.98711 57.1906
7.03181 56.9099
7.07651 56.7014
7.12121 56.2936
7.16591 56.4527
7.21063 56.2196
7.25533 66.1991
7.30004 133.271
7.34475 79.546
7.38945 57.0969
7.43416 55.6253
7.47889 55.0899
7.5236 55.8964
7.56831 56.4493
7.61303 57.5248
7.65774 58.2021
7.70247 57.5713
7.74719 57.5823
7.79191 58.4509
7.83663 58.0893
7.88135 59.1797
7.92607 60.2084
7.97081 61.4542
8.01553 62.7113
8.06026 63.857
8.10498 65.7636
8.14971 72.6277
8.19446 72.7081
8.23919 71.8374
8.28392 74.4374
8.32865 76.8357
8.37339 81.8939
8.41812 88.5805
8.46288 114.694
8.50761 219.332
8.55235 493.894
8.59709 1170.96
8.64183 2111.11
8.68658 1053.05
8.73134 183.688
8.77609 104.274
8.82083 96.2224
8.86558 93.1761
8.91033 92.2413
8.9551 92.0991
8.99985 87.7053
9.04461 86.1162
9.08936 85.8931
9.13412 84.5341
9.17888 84.702
9.22365 85.0796
9.26841 84.2743
9.31318 85.8022
9.35794 85.7978
9.4027 86.0581
9.44749 86.7759
9.49226 87.2243
9.53703 88.3789
9.5818 90.3059
9.62657 93.9233
9.67134 98.7078
9.71614 96.1381
9.76091 97.4714
9.80569 99.8433
9.85047 103.841
9.89525 121.52
9.94005 138.597
9.98484 229.174
10.0296 434.565
10.0744 864.837
10.1192 1591.66
10.164 1664.0
10.2088 484.68
10.2536 136.489
10.2984 116.066
10.3432 115.332
10.388 110.138
10.4328 135.139
10.4776 185.763
10.5224 296.138
10.5672 484.915
10.612 528.39
10.6568 217.274
10.7017 100.661
10.7465 89.4846
10.7913 85.8231
10.8361 83.3213
10.8809 81.0946
10.9257 80.0315
10.9706 80.4891
11.0154 76.8166
11.0602 74.7685
11.105 73.9911
11.1499 75.8647
11.1947 80.1415
11.2395 74.0144
11.2844 71.5021
11.3292 69.0381
11.374 68.0239
11.4189 67.5041
11.4637 66.5417
11.5086 67.018
11.5534 68.4504
11.5983 66.6258
11.6431 65.483
11.688 64.7409
11.7328 64.8113
11.7777 64.4336
11.8225 64.1811
11.8674 64.3334
11.9122 64.4621
11.9571 64.7635
12.002 66.1891
12.0468 73.386
12.0917 86.3494
12.1366 109.408
12.1814 149.889
12.2263 197.941
12.2712 174.724
12.3161 98.2184
12.3609 71.1723
12.4058 66.2753
12.4507 66.1337
12.4956 66.1468
12.5405 66.2021
12.5853 67.2519
12.6302 71.9758
12.6751 76.1369
12.72 70.9431
12.7649 69.8988
12.8098 70.3234
12.8547 71.9895
12.8996 73.2356
12.9445 74.5251
12.9894 76.7481
13.0343 78.4815
13.0792 83.176
13.1242 98.2211
13.1691 126.818
13.214 167.438
13.2589 245.519
13.3038 349.94
13.3487 422.245
13.3937 281.843
13.4386 133.327
13.4835 117.601
13.5285 135.598
13.5734 173.355
13.6183 243.014
13.6633 331.007
13.7082 344.168
13.7531 201.873
13.7981 102.645
13.843 84.4239
13.888 82.0912
13.9329 79.4118
13.9779 78.1975
14.0228 76.6626
14.0678 74.8825
14.1127 74.7962
14.1577 74.2911
14.2027 73.4209
14.2476 72.5597
14.2926 72.3747
14.3376 73.0304
14.3825 71.836
14.4275 70.9166
14.4725 70.8688
14.5175 70.9547
14.5624 71.1965
14.6074 72.5488
14.6524 73.0482
14.6974 72.7139
14.7424 76.3007
14.7874 85.5553
14.8324 97.9426
14.8774 119.25
14.9224 154.254
14.9674 198.98
15.0124 219.386
15.0574 155.877
15.1024 95.3668
15.1474 74.6411
15.1924 72.4084
15.2374 72.1514
15.2824 71.679
15.3274 69.9049
15.3725 68.8468
15.4175 68.5937
15.4625 68.1441
15.5076 68.0987
15.5526 68.2103
15.5976 67.913
15.6426 70.7695
15.6877 78.3777
15.7327 87.097
15.7778 102.286
15.8228 128.601
15.8679 162.807
15.9129 191.285
15.958 165.02
16.003 103.062
16.0481 70.2883
16.0931 65.8485
16.1382 63.916
16.1833 62.2573
16.2283 60.8286
16.2734 60.1257
16.3185 59.9399
16.3636 60.1808
16.4086 59.1276
16.4537 57.7983
16.4988 57.1214
16.5439 57.1058
16.589 56.7627
16.6341 56.4575
16.6792 55.9587
16.7243 56.4735
16.7694 56.5456
16.8145 56.3533
16.8596 56.76
16.9047 57.6646
16.9498 57.9976
16.9949 57.3105
17.04 57.8132
17.0851 59.4081
17.1302 61.4234
17.1754 64.5791
17.2205 69.0062
17.2656 74.9201
17.3108 83.1607
17.3559 84.4207
17.401 73.8317
17.4462 64.4167
17.4913 61.0164
17.5365 60.9303
17.5815 61.154
17.6268 61.4584
17.6718 62.3939
17.7171 62.5498
17.7622 63.2578
17.8074 64.3839
17.8525 68.2942
17.8977 73.0222
17.9428 78.8145
17.9881 87.5631
18.0331 102.144
18.0784 119.685
18.1237 140.203
18.1688 138.115
18.214 111.043
18.2591 91.2875
18.3044 91.8229
18.3495 99.6191
18.3948 106.371
18.4399 99.2106
18.4852 80.3062
18.5303 67.8889
18.5756 64.1556
18.6207 63.0396
18.666 62.1674
18.7112 61.4266
18.7565 60.669
18.8016 60.3278
18.8469 59.817
18.892 59.4622
18.9374 59.0274
18.9825 58.653
19.0278 58.5916
19.073 58.9946
19.1183 59.6828
19.1635 60.4054
19.2088 62.0682
19.254 64.4042
19.2993 67.7579
19.3447 72.7591
19.3898 77.1452
19.4352 74.7752
19.4804 66.1379
19.5257 58.7337
19.5709 55.9572
19.6163 55.4931
19.6615 55.3616
19.7068 55.0316
19.752 54.9672
19.7974 55.4328
19.8426 56.5749
19.888 57.2289
19.9332 58.5569
19.9786 61.0622
20.0238 64.0452
20.0692 67.9883
20.1144 71.3579
20.1598 71.0674
20.205 66.3705
20.2504 63.7808
20.2957 64.3481
20.3411 66.7011
20.3863 65.9753
20.4318 60.4405
20.477 55.4394
20.5224 52.8978
20.5677 52.2779
20.6131 51.5264
20.6586 51.3121
20.7038 50.945
20.7493 50.6962
20.7945 50.5513
20.84 50.3743
20.8853 50.2594
20.9307 50.1913
20.976 50.3637
21.0215 50.0877
21.0668 50.4987
21.1122 51.1658
21.1575 51.4828
21.203 52.1299
21.2483 52.8089
21.2938 53.1341
21.3391 51.7419
21.3846 50.657
21.4299 50.1056
21.4754 50.0599
21.5207 50.1502
21.5662 50.5436
21.6116 51.1764
21.6571 51.8689
21.7024 52.8791
21.7479 54.7316
21.7933 57.0147
21.8388 60.1399
21.8843 63.657
21.9297 66.2665
21.9752 65.6885
22.0206 61.6868
22.0661 57.9911
22.1115 57.4138
22.157 57.4171
22.2024 55.9752
22.248 53.028
22.2933 51.5396
22.3389 50.5761
22.3843 50.5119
22.4299 50.2132
22.4753 50.1534
22.5208 50.1994
22.5662 49.9942
22.6118 50.2262
22.6572 50.7544
22.7028 51.1477
22.7483 51.4389
22.7939 52.4562
22.8393 53.7039
22.8849 55.364
22.9303 57.0786
22.9759 59.0127
23.0214 58.9624
23.067 56.4805
23.1126 53.0417
23.1581 50.8138
23.2037 50.5606
23.2492 50.7411
23.2948 50.4908
23.3403 50.9714
23.3859 51.6206
23.4314 52.5745
23.477 54.0186
23.5225 55.8135
23.5682 57.6658
23.6137 59.13
23.6593 57.5217
23.7048 53.606
23.7505 49.8718
23.796 47.9311
23.8417 47.2781
23.8872 46.8763
23.9329 46.5646
23.9784 46.1042
24.0241 45.8903
24.0697 45.8125
24.1154 45.4146
24.1609 45.3094
24.2066 45.177
24.2522 44.9415
24.2979 44.7962
24.3434 44.5654
24.3892 44.429
24.4349 44.533
24.4805 44.3452
24.5262 44.4205
24.5718 44.3152
24.6175 44.2419
24.6631 44.2701
24.7089 43.8021
24.7545 43.6492
24.8002 43.6601
24.8458 43.5262
24.8916 43.4325
24.9372 43.5829
24.983 43.9748
25.0286 44.2612
25.0744 44.5954
25.12 45.0796
25.1658 45.6047
25.2114 45.9095
25.2572 46.0553
25.3029 45.7679
25.3487 46.1372
25.3943 46.0046
25.4402 44.9907
25.4858 43.8414
25.5316 42.8155
25.5773 42.1017
25.6231 42.0976
25.669 41.7509
25.7147 41.7582
25.7605 41.7905
25.8062 41.8055
25.8521 41.8056
25.8977 41.8914
25.9436 42.1036
25.9893 42.1548
26.0352 42.5868
26.0809 42.623
26.1268 42.7584
26.1725 42.5831
26.2184 42.1722
26.2641 41.5331
26.31 41.4155
26.3557 41.2614
26.4017 41.3442
26.4474 41.6719
26.4933 42.0392
26.5391 42.3924
26.585 42.6542
26.6308 43.0789
26.6767 43.358
26.7225 43.1356
26.7684 42.635
26.8142 42.0187
26.8601 41.6928
26.9059 41.2411
26.9519 40.6447
26.9979 40.394
27.0437 40.0789
27.0896 39.8291
27.1354 39.7957
27.1814 39.7458
27.2272 39.6068
27.2732 39.7464
27.3191 39.4489
27.3651 39.678
27.4109 39.5365
27.4569 39.66
27.5027 39.5861
27.5488 39.7164
27.5946 39.6126
27.6407 39.2889
27.6865 39.1878
27.7326 39.0186
27.7784 39.0254
27.8245 39.0317
27.8703 39.1907
27.9164 39.2995
27.9623 39.628
28.0084 39.8192
28.0543 40.1737
28.1003 40.1484
28.1462 39.9832
28.1923 39.5918
28.2384 39.0402
28.2843 38.7326
28.3304 38.4136
28.3764 37.8158
28.4225 37.5631
28.4684 37.3625
28.5145 36.9073
28.5605 36.9484
28.6066 36.7791
28.6526 36.6621
28.6987 36.6119
28.7447 36.5295
28.7908 36.4219
28.8368 36.4008
28.8829 36.4266
28.9289 36.3131
28.9751 36.2035
29.0211 36.0702
29.0673 35.7676
29.1133 35.583
29.1595 35.4698
29.2055 35.3681
29.2517 35.2441
29.2977 35.2614
29.3439 35.229
29.3899 35.2336
29.4361 35.1141
29.4824 34.8813
29.5284 34.8231
29.5746 34.2674
29.6207 34.0953
29.6669 34.0278
29.713 33.9455
29.7593 33.7547
29.8053 33.881
29.8516 33.7811
29.8977 33.7231
29.9439 33.615
29.99 33.4194
30.0363 33.3638
30.0824 33.4128
30.1287 33.4318
30.1748 33.4042
30.2211 33.338
30.2673 33.2293
30.3136 33.3354
30.3597 33.2773
30.406 33.2132
30.4522 33.0136
30.4985 33.0999
30.5447 33.0344
30.591 33.094
30.6372 33.0729
30.6835 33.1307
30.7297 33.2479
30.7761 33.1241
30.8224 32.9438
30.8686 32.82
30.915 32.4904
30.9612 32.4196
31.0076 32.1953
31.0538 32.1015
31.1002 32.034
31.1464 31.8895
31.1928 31.8169
31.2391 31.8992
31.2855 31.7608
31.3317 31.8235
31.3781 31.8091
31.4244 31.7711
31.4708 31.7258
31.5171 31.7302
31.5636 31.763
31.6098 31.4719
31.6563 31.3793
31.7026 31.1497
31.7491 31.0795
31.7953 30.9825
31.8418 31.0635
31.8881 30.9599
31.9346 31.0016
31.9809 30.9066
32.0275 30.7535
32.074 30.7966
32.1203 30.5062
32.1668 30.3576
32.2132 30.2345
32.2597 30.0614
32.306 30.0567
32.3526 29.8475
32.399 29.7442
32.4455 29.6679
32.4919 29.5327
32.5385 29.4727
32.5848 29.3495
32.6314 29.3431
32.6778 29.3054
32.7244 29.1495
32.7708 28.9456
32.8174 28.9727
32.8638 28.8787
32.9104 28.8636
32.9569 28.8407
33.0035 28.6795
33.0499 28.6313
33.0966 28.5786
33.143 28.6018
33.1897 28.4354
33.2361 28.3952
33.2828 28.3372
33.3293 28.1528
33.3759 28.1462
33.4226 28.0836
33.4691 27.9439
33.5158 27.7903
33.5623 27.7355
33.609 27.53
33.6555 27.4173
33.7022 27.419
33.7487 27.2549
33.7954 27.2251
33.842 27.0464
33.8887 27.0285
33.9353 26.9893
33.982 26.9491
34.0286 26.7874
34.0753 26.7508
34.1219 26.6494
34.1687 26.6605
34.2152 26.445
34.262 26.352
34.3086 26.2126
34.3554 26.2922
34.402 26.1588
34.4488 26.051
34.4954 25.9536
34.5422 25.8958
34.5889 25.8294
34.6357 25.6631
34.6825 25.5918
34.7292 25.4973
34.776 25.3957
34.8227 25.4628
34.8695 25.2843
34.9162 25.3033
34.9631 25.178
35.0098 25.2177
35.0566 25.0523
35.1033 24.9702
35.1502 24.9969
35.1969 24.9022
35.2438 24.8581
35.2906 24.7603
35.3375 24.6634
35.3842 24.7437
35.4311 24.6517
35.4779 24.5982
35.5248 24.5152
35.5716 24.5171
35.6185 24.4101
35.6653 24.2969
35.7123 24.1864
35.759 24.1292
35.806 23.9824
35.8528 23.8625
35.8998 23.8416
35.9468 23.7766
35.9936 23.7907
36.0406 23.7218
36.0874 23.6716
36.1345 23.5707
36.1813 23.442
36.2283 23.4067
36.2752 23.2821
36.3222 23.317
36.3691 23.1415
36.4161 23.0737
36.463 23.0753
36.5101 23.0421
36.557 22.9419
36.6041 22.8224
36.651 22.8069
36.6981 22.7414
36.745 22.7262
36.7921 22.6028
36.839 22.4863
36.8861 22.4402
36.9331 22.384
36.9802 22.2899
37.0272 22.1651
37.0743 22.0776
37.1213 22.0365
37.1684 21.9937
37.2154 21.9608
37.2626 21.9133
37.3098 21.7909
37.3568 21.7608
37.404 21.7239
37.451 21.5757
37.4982 21.478
37.5452 21.3811
37.5924 21.319
37.6395 21.4025
37.6867 21.2759
37.7337 21.1889
37.781 21.1013
37.8281 21.0859
37.8753 20.9792
37.9224 20.9262
37.9697 20.8445
38.0168 20.8378
38.064 20.7432
38.1111 20.6466
38.1584 20.6142
38.2056 20.536
38.2529 20.4368
38.3 20.4718
38.3473 20.3644
38.3945 20.1982
38.4418 20.1764
38.489 20.1942
38.5363 20.102
38.5837 20.0178
38.6309 19.9988
38.6782 19.8813
38.7254 19.8116
38.7728 19.7703
38.82 19.6779
38.8674 19.6493
38.9146 19.6357
38.9621 19.4721
39.0093 19.4497
39.0567 19.4247
39.104 19.337
39.1514 19.2428
39.1987 19.2237
39.2461 19.1772
39.2934 19.0713
39.3409 18.996
39.3882 18.9404
39.4356 18.9322
39.483 18.8838
39.5304 18.8454
39.5778 18.7465
39.6253 18.7056
39.6726 18.5946
39.7201 18.6018
39.7675 18.5073
39.815 18.4903
39.8624 18.388
39.9099 18.3067
39.9575 18.2438
40.0049 18.2234
40.0525 18.1379
40.0999 18.1212
40.1474 18.035
40.1949 17.9685
40.2425 17.9377
40.2899 17.8883
40.3375 17.7802
40.385 17.7496
40.4326 17.742
40.48 17.6418
40.5277 17.5697
40.5752 17.5246
40.6228 17.4512
40.6703 17.4643
40.718 17.38
40.7655 17.3729
40.8132 17.2368
40.8607 17.2114
40.9084 17.1743
40.9559 17.127
41.0036 17.0549
41.0512 17.0478
41.0989 16.9469
41.1465 16.8176
41.1942 16.8258
41.242 16.6713
41.2896 16.7162
41.3373 16.6285
41.3849 16.552
41.4327 16.5513
41.4803 16.4503
41.5281 16.3806
41.5758 16.3902
41.6236 16.2906
41.6712 16.2745
41.7191 16.178
41.7667 16.1351
41.8146 16.11
41.8622 15.9993
41.9101 15.9663
41.9578 15.8784
42.0057 15.8479
42.0534 15.8384
42.1013 15.7328
42.149 15.7232
42.1969 15.6727
42.2446 15.5863
42.2925 15.5543
42.3403 15.507
42.3882 15.4168
42.436 15.3531
42.4839 15.3128
42.5319 15.3301
42.5797 15.2261
42.6277 15.1843
42.6755 15.1387
42.7235 15.0498
42.7713 15.0133
42.8193 14.9796
42.8671 14.9323
42.9152 14.8986
42.963 14.8241
43.0111 14.732
43.0589 14.7183
43.107 14.647
43.1549 14.6308
43.2029 14.5659
43.2508 14.5345
43.2989 14.4583
43.3468 14.3949
43.3949 14.3859
43.4429 14.3364
43.491 14.2493
43.5389 14.2245
43.5871 14.2203
43.635 14.1319
43.6832 14.0833
43.7312 13.9873
43.7793 14.01
43.8273 13.929
43.8755 13.9165
43.9237 13.8296
43.9717 13.832
44.0199 13.7542
44.068 13.6284
44.1162 13.6883
44.1642 13.6578
44.2125 13.5735
44.2606 13.4886
44.3088 13.4491
44.3569 13.386
44.4052 13.3185
44.4533 13.3401
44.5016 13.2304
44.5497 13.221
44.598 13.1915
44.6461 13.1293
44.6945 13.0744
44.7426 13.0475
44.791 12.9945
44.8391 12.9831
44.8875 12.9347
44.9357 12.8196
44.984 12.8362
45.0322 12.7709
45.0806 12.7276
45.1288 12.692
45.1773 12.614
45.2257 12.582
45.2739 12.5531
45.3224 12.5021
45.3706 12.4679
45.4191 12.4207
45.4673 12.3452
45.5158 12.3488
45.5641 12.2663
45.6126 12.2628
45.6609 12.1687
45.7094 12.0965
45.7577 12.1004
45.8063 12.038
45.8546 12.038
45.9031 11.9626
45.9515 11.8942
46.0001 11.8707
46.0484 11.8694
46.097 11.8416
46.1454 11.7497
46.194 11.7122
46.2424 11.675
46.291 11.6547
46.3395 11.6228
46.3881 11.5519
46.4365 11.5161
46.4852 11.4438
46.5337 11.4314
46.5823 11.3986
46.631 11.3224
46.6795 11.3013
46.7282 11.268
46.7767 11.2283
46.8254 11.1977
46.8739 11.1406
46.9226 11.0862
46.9712 11.0429
47.0199 11.0131
47.0685 10.9471
47.1173 10.9174
47.1658 10.8994
47.2146 10.8382
47.2632 10.7868
47.312 10.7881
47.3606 10.7135
47.4095 10.6554
47.4581 10.674
47.5069 10.5678
47.5556 10.5483
47.6044 10.5182
47.6531 10.481
47.702 10.4292
47.7507 10.3959
47.7996 10.3623
47.8483 10.3299
47.8972 10.3144
47.9461 10.2554
47.9948 10.2433
48.0438 10.1706
48.0925 10.1912
48.1415 10.1092
48.1902 10.0469
48.2392 10.0623
48.288 10.0057
48.337 9.96201
48.3858 9.94855
48.4348 9.88307
48.4837 9.83804
48.5327 9.81811
48.5815 9.84667
48.6306 9.7701
48.6795 9.73571
48.7285 9.65864
48.7774 9.6401
48.8265 9.61326
48.8754 9.54921
48.9245 9.57816
48.9734 9.54008
49.0226 9.49666
49.0715 9.47242
49.1206 9.41075
49.1696 9.3524
49.2188 9.35586
49.2679 9.28096
49.3169 9.29954
49.3661 9.19858
49.4151 9.18725
49.4643 9.16714
49.5134 9.10917
49.5626 9.06527
49.6117 9.06941
49.6609 9.03376
49.71 8.95052
49.7592 8.94083
49.8083 8.87882
49.8576 8.89582
49.9067 8.86163
49.956 8.79992
50.0052 8.79401
50.0545 8.76364
50.1036 8.71295
50.153 8.62898
50.2022 8.67285
50.2515 8.59736
50.3007 8.56473
50.3501 8.56026
50.3993 8.47869
50.4487 8.45747
50.498 8.44235
50.5474 8.42268
50.5966 8.39636
50.6461 8.37262
50.6955 8.31316
50.7448 8.26338
50.7943 8.23003
50.8436 8.23306
50.8931 8.17499
50.9424 8.16134
50.9919 8.09304
51.0413 8.11175
51.0908 8.04733
51.1402 8.03409
51.1897 7.96139
51.2391 7.95778
51.2887 7.9007
51.3381 7.85239
51.3877 7.86889
51.4371 7.82553
51.4867 7.82313
51.5362 7.77556
51.5858 7.74173
51.6353 7.68981
51.6849 7.6787
51.7344 7.61291
51.7841 7.62359
51.8336 7.54821
51.8833 7.55317
51.9328 7.47952
51.9826 7.48329
52.0323 7.4136
52.0818 7.37471
52.1316 7.35301
52.1812 7.33512
52.231 7.33913
52.2806 7.26311
52.3304 7.27483
52.38 7.22773
52.4298 7.19349
52.4794 7.17817
52.5293 7.11595
52.5789 7.12546
52.6288 7.10055
52.6785 7.06183
52.7284 7.03307
52.7781 6.99705
52.828 6.95144
52.8777 6.90967
52.9276 6.87562
52.9774 6.95709
53.0273 6.91227
53.0771 6.79706
53.1271 6.78791
53.1769 6.77116
53.2269 6.7325
53.2767 6.69888
53.3267 6.69969
53.3765 6.65019
53.4266 6.62486
53.4766 6.57786
53.5265 6.54857
53.5765 6.53386
53.6264 6.47494
53.6765 6.44416
53.7264 6.4316
53.7765 6.47275
53.8265 6.41827
53.8766 6.3378
53.9266 6.30734
53.9767 6.3216
54.0267 6.32551
54.0769 6.25941
54.1269 6.26079
54.1771 6.15951
54.2271 6.16883
54.2773 6.10251
54.3274 6.09713
54.3776 6.02886
54.4277 6.03441
54.478 5.96334
54.528 5.9509
54.5783 5.90539
54.6285 5.8887
54.6788 5.82621
54.7289 5.83956
54.7792 5.74028
54.8296 5.68976
54.8798 5.64005
54.9301 5.65474
54.9803 5.60668
55.0307 5.56544
55.0809 5.47576
55.1314 5.51187
55.1816 5.42386
55.232 5.3745
55.2823 5.31753
55.3328 5.27147
55.383 5.21552
55.4335 5.20791
55.4838 5.09215
55.5344 5.10776
55.5847 5.07869
55.6352 5.00075
55.6856 4.99626
55.7361 4.94928