File: XRD/Ni3Fe_FD0825.xy
TT I
1.27165 7.07761
1.31627 6.14957
1.36089 7.35088
1.40551 5.55188
1.45013 5.79085
1.49476 5.98926
1.53938 5.79398
1.584 5.76071
1.62863 5.65649
1.67325 5.2493
1.71787 5.18548
1.7625 5.09212
1.80712 4.80976
1.85174 4.67792
1.89636 4.67278
1.94099 4.65591
1.98562 4.75583
2.03025 4.30636
2.07487 4.48663
2.11949 4.8633
2.16411 4.72234
2.20874 8.2247
2.25338 10.8806
2.298 5.32168
2.34263 4.71127
2.38725 6.06188
2.43188 6.12653
2.4765 6.89642
2.52115 7.1784
2.56577 7.82754
2.6104 8.96181
2.65503 8.2314
2.69965 8.2686
2.7443 8.51497
2.78893 8.89686
2.83356 8.18254
2.87818 8.8365
2.92281 9.15579
2.96744 9.586
3.01209 10.2436
3.05672 11.2291
3.10135 12.4684
3.14599 13.4398
3.19062 14.8732
3.23527 15.1258
3.2799 15.2564
3.32454 16.8169
3.36917 17.4975
3.4138 18.3244
3.45844 19.4438
3.50309 20.4298
3.54773 21.5995
3.59237 23.4678
3.637 45.1393
3.68164 34.963
3.7263 25.2933
3.77094 25.4762
3.81558 26.5976
3.86022 27.0509
3.90486 28.4701
3.9495 29.4656
3.99416 30.4769
4.0388 31.7962
4.08344 33.3425
4.12809 33.8307
4.17273 35.6101
4.21738 38.7327
4.26204 108.408
4.30669 96.1168
4.35133 43.8532
4.39598 43.1814
4.44063 47.8453
4.4853 52.6348
4.52995 58.0142
4.5746 58.2858
4.61925 53.4598
4.6639 55.0696
4.70855 58.0076
4.75322 61.3678
4.79788 68.4364
4.84253 68.4148
4.88719 75.4681
4.93184 76.4442
4.97652 80.7566
5.02118 86.3291
5.06583 94.2817
5.11049 106.217
5.15515 155.556
5.19981 403.282
5.24449 2857.85
5.28916 12456.6
5.33382 2438.11
5.37848 194.093
5.42315 130.17
5.46783 119.623
5.5125 113.107
5.55716 101.563
5.60183 96.9313
5.6465 95.4761
5.69117 93.5376
5.73586 92.2974
5.78053 98.4124
5.8252 98.4733
5.86988 102.356
5.91455 94.7335
5.95924 103.592
6.00392 240.631
6.0486 974.888
6.09328 4596.12
6.13795 2995.67
6.18263 201.982
6.22733 88.7274
6.27201 79.2445
6.3167 82.2397
6.36138 72.85
6.40606 69.3209
6.45075 69.6615
6.49545 64.5173
6.54014 63.0672
6.58483 62.3115
6.62952 62.747
6.67421 70.6814
6.71892 84.8625
6.76361 61.326
6.8083 59.1707
6.853 59.8468
6.89769 56.4181
6.94239 55.3703
6.98711 55.0707
7.03181 55.5377
7.07651 54.4075
7.12121 54.2955
7.16591 55.6897
7.21063 55.2589
7.25533 59.5419
7.30004 92.8289
7.34475 65.2255
7.38945 54.3908
7.43416 53.2517
7.47889 53.2531
7.5236 53.8158
7.56831 54.3353
7.61303 54.8875
7.65774 55.4154
7.70247 56.4239
7.74719 55.9558
7.79191 56.0331
7.83663 56.0329
7.88135 57.1058
7.92607 57.9077
7.97081 59.2263
8.01553 60.2665
8.06026 61.985
8.10498 63.3007
8.14971 70.3787
8.19446 70.6146
8.23919 68.9405
8.28392 71.163
8.32865 73.2673
8.37339 77.9192
8.41812 82.9367
8.46288 101.171
8.50761 177.734
8.55235 381.362
8.59709 1219.47
8.64183 2173.08
8.68658 838.466
8.73134 146.936
8.77609 96.7899
8.82083 91.4616
8.86558 92.3518
8.91033 92.1383
8.9551 88.8471
8.99985 84.4826
9.04461 83.3062
9.08936 83.8314
9.13412 82.3547
9.17888 81.5638
9.22365 81.3768
9.26841 81.6017
9.31318 84.5893
9.35794 86.7765
9.4027 86.0235
9.44749 84.8856
9.49226 84.2547
9.53703 85.1359
9.5818 88.9853
9.62657 94.5711
9.67134 94.3951
9.71614 91.992
9.76091 94.15
9.80569 98.7314
9.85047 100.842
9.89525 109.979
9.94005 125.935
9.98484 189.88
10.0296 343.079
10.0744 839.318
10.1192 1837.19
10.164 1515.48
10.2088 350.277
10.2536 119.91
10.2984 108.308
10.3432 106.977
10.388 104.448
10.4328 121.242
10.4776 162.581
10.5224 296.855
10.5672 538.15
10.612 492.184
10.6568 183.22
10.7017 93.3189
10.7465 85.48
10.7913 82.5656
10.8361 80.3987
10.8809 78.3139
10.9257 77.0131
10.9706 77.2867
11.0154 74.6818
11.0602 72.2358
11.105 70.7267
11.1499 71.1523
11.1947 72.7329
11.2395 69.426
11.2844 67.4922
11.3292 66.3736
11.374 65.4831
11.4189 65.042
11.4637 64.1419
11.5086 63.9425
11.5534 64.587
11.5983 63.422
11.6431 62.6638
11.688 62.0122
11.7328 62.1096
11.7777 62.024
11.8225 62.1543
11.8674 61.7739
11.9122 62.1333
11.9571 62.5636
12.002 63.9061
12.0468 68.1576
12.0917 77.8166
12.1366 103.257
12.1814 161.031
12.2263 216.936
12.2712 163.174
12.3161 86.3847
12.3609 65.939
12.4058 63.4606
12.4507 63.4446
12.4956 64.2193
12.5405 64.3448
12.5853 64.6096
12.6302 67.1624
12.6751 69.3582
12.72 67.3077
12.7649 67.2327
12.8098 67.9593
12.8547 69.3021
12.8996 70.6873
12.9445 72.4296
12.9894 74.1504
13.0343 75.647
13.0792 79.8849
13.1242 92.2214
13.1691 111.426
13.214 149.416
13.2589 249.226
13.3038 391.553
13.3487 410.747
13.3937 233.668
13.4386 117.791
13.4835 105.918
13.5285 120.021
13.5734 161.341
13.6183 258.595
13.6633 364.929
13.7082 329.073
13.7531 170.158
13.7981 93.4149
13.843 80.9367
13.888 78.6278
13.9329 76.6893
13.9779 75.1144
14.0228 73.3366
14.0678 72.2397
14.1127 71.7503
14.1577 70.847
14.2027 70.705
14.2476 69.457
14.2926 69.2601
14.3376 69.3762
14.3825 68.9742
14.4275 68.2796
14.4725 67.9875
14.5175 68.3871
14.5624 68.1841
14.6074 69.3112
14.6524 69.6282
14.6974 70.0484
14.7424 73.3254
14.7874 79.1832
14.8324 88.3269
14.8774 111.713
14.9224 159.937
14.9674 217.139
15.0124 218.727
15.0574 140.404
15.1024 85.4574
15.1474 70.9663
15.1924 69.5876
15.2374 68.6714
15.2824 67.6728
15.3274 66.7156
15.3725 66.1256
15.4175 65.58
15.4625 65.2362
15.5076 65.0761
15.5526 65.1381
15.5976 65.4281
15.6426 67.51
15.6877 72.4693
15.7327 79.3168
15.7778 95.6539
15.8228 129.689
15.8679 176.355
15.9129 196.385
15.958 146.32
16.003 88.8968
16.0481 65.5593
16.0931 62.4421
16.1382 60.7473
16.1833 59.4343
16.2283 58.1507
16.2734 57.389
16.3185 57.3517
16.3636 57.0407
16.4086 55.8884
16.4537 55.3377
16.4988 54.7705
16.5439 54.6803
16.589 54.4607
16.6341 54.2595
16.6792 53.8335
16.7243 54.168
16.7694 54.2378
16.8145 53.9978
16.8596 54.1347
16.9047 54.7383
16.9498 54.9365
16.9949 54.5897
17.04 55.4485
17.0851 56.5956
17.1302 58.2
17.1754 61.2467
17.2205 66.9489
17.2656 75.5426
17.3108 84.1251
17.3559 80.9097
17.401 68.399
17.4462 60.5265
17.4913 58.5691
17.5365 58.5464
17.5815 58.5322
17.6268 58.9849
17.6718 59.6205
17.7171 59.9761
17.7622 60.8168
17.8074 61.9437
17.8525 64.8541
17.8977 67.7469
17.9428 73.1833
17.9881 82.7696
18.0331 101.771
18.0784 125.505
18.1237 141.067
18.1688 126.671
18.214 98.7384
18.2591 84.8165
18.3044 91.4401
18.3495 101.959
18.3948 105.035
18.4399 91.3383
18.4852 73.8141
18.5303 64.2589
18.5756 61.263
18.6207 60.3333
18.666 59.4079
18.7112 58.699
18.7565 58.292
18.8016 57.9185
18.8469 57.5382
18.892 57.1935
18.9374 56.6585
18.9825 56.4805
19.0278 56.1772
19.073 56.4411
19.1183 56.4865
19.1635 57.0112
19.2088 58.8189
19.254 61.6088
19.2993 66.6496
19.3447 72.5826
19.3898 75.5949
19.4352 69.9115
19.4804 60.8924
19.5257 55.1938
19.5709 53.4561
19.6163 53.3901
19.6615 53.0133
19.7068 52.4927
19.752 52.8111
19.7974 53.2753
19.8426 53.95
19.888 54.4451
19.9332 55.4046
19.9786 58.5684
20.0238 62.61
20.0692 67.8302
20.1144 69.7839
20.1598 67.0229
20.205 62.2112
20.2504 61.6987
20.2957 63.9946
20.3411 65.2466
20.3863 62.3089
20.4318 56.6352
20.477 52.3092
20.5224 50.452
20.5677 50.0764
20.6131 49.5879
20.6586 49.1049
20.7038 48.7774
20.7493 48.5478
20.7945 48.3127
20.84 48.2657
20.8853 48.1987
20.9307 48.0862
20.976 48.2562
21.0215 48.1584
21.0668 48.4414
21.1122 48.9371
21.1575 49.6794
21.203 50.5006
21.2483 51.1814
21.2938 50.7439
21.3391 49.4223
21.3846 48.3021
21.4299 47.9091
21.4754 47.8351
21.5207 48.0279
21.5662 48.551
21.6116 48.8433
21.6571 49.4269
21.7024 50.4789
21.7479 52.399
21.7933 55.4375
21.8388 59.064
21.8843 63.0796
21.9297 64.2267
21.9752 61.7648
22.0206 57.8363
22.0661 55.6419
22.1115 55.5506
22.157 55.282
22.2024 53.0821
22.248 50.2989
22.2933 49.0522
22.3389 48.3924
22.3843 48.3893
22.4299 48.2267
22.4753 48.1401
22.5208 48.1796
22.5662 47.9574
22.6118 48.2395
22.6572 48.5359
22.7028 48.9407
22.7483 49.2791
22.7939 49.9459
22.8393 51.5579
22.8849 53.917
22.9303 56.2032
22.9759 57.4242
23.0214 56.3335
23.067 53.3933
23.1126 50.0983
23.1581 48.6421
23.2037 48.1987
23.2492 48.2953
23.2948 48.4251
23.3403 48.7648
23.3859 49.3489
23.4314 50.3729
23.477 52.374
23.5225 54.8815
23.5682 56.8951
23.6137 57.4831
23.6593 54.4254
23.7048 50.2492
23.7505 47.2436
23.796 45.8006
23.8417 45.4416
23.8872 45.0295
23.9329 44.6673
23.9784 44.3913
24.0241 44.1797
24.0697 43.9648
24.1154 43.7725
24.1609 43.5252
24.2066 43.2738
24.2522 43.2338
24.2979 42.8536
24.3434 42.7255
24.3892 42.7245
24.4349 42.7395
24.4805 42.5802
24.5262 42.7214
24.5718 42.5144
24.6175 42.5251
24.6631 42.394
24.7089 41.9691
24.7545 41.9806
24.8002 41.6221
24.8458 41.7313
24.8916 41.5999
24.9372 41.8231
24.983 42.166
25.0286 42.5175
25.0744 42.8213
25.12 43.3971
25.1658 44.0187
25.2114 44.1775
25.2572 44.2502
25.3029 44.4492
25.3487 44.5073
25.3943 44.1062
25.4402 42.8696
25.4858 41.8287
25.5316 40.8707
25.5773 40.3534
25.6231 40.4178
25.669 40.1862
25.7147 40.0956
25.7605 39.9561
25.8062 39.985
25.8521 40.1531
25.8977 40.1196
25.9436 40.4188
25.9893 40.6842
26.0352 41.1213
26.0809 41.1636
26.1268 41.2029
26.1725 40.7576
26.2184 40.2588
26.2641 39.8024
26.31 39.7345
26.3557 39.7392
26.4017 39.872
26.4474 39.9597
26.4933 40.2915
26.5391 41.0027
26.585 41.3893
26.6308 41.8507
26.6767 41.6571
26.7225 41.4231
26.7684 40.9803
26.8142 40.2179
26.8601 39.9415
26.9059 39.6508
26.9519 38.8883
26.9979 38.7325
27.0437 38.4426
27.0896 38.3973
27.1354 38.3311
27.1814 38.1839
27.2272 37.9849
27.2732 38.1149
27.3191 37.8993
27.3651 38.1064
27.4109 38.064
27.4569 38.1494
27.5027 38.2438
27.5488 38.2376
27.5946 37.9629
27.6407 37.7188
27.6865 37.7323
27.7326 37.3835
27.7784 37.4767
27.8245 37.5602
27.8703 37.6961
27.9164 37.9955
27.9623 38.1529
28.0084 38.4624
28.0543 38.768
28.1003 38.6686
28.1462 38.3442
28.1923 38.0032
28.2384 37.6031
28.2843 37.1734
28.3304 36.6715
28.3764 36.2623
28.4225 35.9767
28.4684 35.8673
28.5145 35.593
28.5605 35.4718
28.6066 35.295
28.6526 35.336
28.6987 35.242
28.7447 35.1417
28.7908 35.1044
28.8368 35.1169
28.8829 35.0238
28.9289 34.9804
28.9751 34.7982
29.0211 34.5042
29.0673 34.3012
29.1133 34.0959
29.1595 34.121
29.2055 33.9074
29.2517 33.9278
29.2977 33.969
29.3439 34.0082
29.3899 33.8463
29.4361 33.6752
29.4824 33.5546
29.5284 33.3254
29.5746 32.9769
29.6207 32.6752
29.6669 32.7253
29.713 32.6833
29.7593 32.5776
29.8053 32.4515
29.8516 32.4157
29.8977 32.4386
29.9439 32.2793
29.99 32.3178
30.0363 32.1047
30.0824 32.2139
30.1287 32.0461
30.1748 32.0358
30.2211 32.1029
30.2673 31.8873
30.3136 31.9389
30.3597 31.8415
30.406 31.8952
30.4522 31.7142
30.4985 31.6726
30.5447 31.8675
30.591 31.7851
30.6372 31.946
30.6835 31.9429
30.7297 31.9732
30.7761 31.7341
30.8224 31.5456
30.8686 31.614
30.915 31.201
30.9612 31.149
31.0076 30.978
31.0538 30.7059
31.1002 30.8629
31.1464 30.6427
31.1928 30.5868
31.2391 30.6736
31.2855 30.4275
31.3317 30.6093
31.3781 30.5766
31.4244 30.6553
31.4708 30.6046
31.5171 30.5266
31.5636 30.4122
31.6098 30.0825
31.6563 30.0462
31.7026 29.8364
31.7491 29.8451
31.7953 29.767
31.8418 29.8314
31.8881 29.8268
31.9346 29.775
31.9809 29.7817
32.0275 29.5297
32.074 29.4109
32.1203 29.2564
32.1668 29.2067
32.2132 29.0653
32.2597 28.8305
32.306 28.9029
32.3526 28.5344
32.399 28.588
32.4455 28.4689
32.4919 28.2932
32.5385 28.322
32.5848 28.2041
32.6314 28.1538
32.6778 28.0699
32.7244 27.998
32.7708 27.8715
32.8174 27.7993
32.8638 27.6995
32.9104 27.8192
32.9569 27.6917
33.0035 27.5233
33.0499 27.5051
33.0966 27.4519
33.143 27.5432
33.1897 27.4125
33.2361 27.305
33.2828 27.2831
33.3293 27.0896
33.3759 27.0593
33.4226 26.8833
33.4691 26.8363
33.5158 26.7257
33.5623 26.6831
33.609 26.4321
33.6555 26.372
33.7022 26.2917
33.7487 26.2167
33.7954 26.2429
33.842 26.0342
33.8887 26.0374
33.9353 25.9414
33.982 25.8279
34.0286 25.7822
34.0753 25.7488
34.1219 25.5505
34.1687 25.5955
34.2152 25.4466
34.262 25.3133
34.3086 25.387
34.3554 25.2595
34.402 25.0778
34.4488 24.9949
34.4954 24.9056
34.5422 24.8112
34.5889 24.7802
34.6357 24.7444
34.6825 24.6756
34.7292 24.5522
34.776 24.4797
34.8227 24.4168
34.8695 24.4129
34.9162 24.2791
34.9631 24.2635
35.0098 24.1577
35.0566 24.1099
35.1033 24.0226
35.1502 23.9818
35.1969 23.9468
35.2438 23.8784
35.2906 23.7585
35.3375 23.8456
35.3842 23.7585
35.4311 23.7283
35.4779 23.6794
35.5248 23.6014
35.5716 23.4753
35.6185 23.4794
35.6653 23.3274
35.7123 23.2214
35.759 23.1592
35.806 23.0758
35.8528 23.0785
35.8998 22.9405
35.9468 22.8339
35.9936 22.8704
36.0406 22.7252
36.0874 22.7322
36.1345 22.6901
36.1813 22.5612
36.2283 22.4953
36.2752 22.4511
36.3222 22.3968
36.3691 22.3006
36.4161 22.1913
36.463 22.1619
36.5101 22.2367
36.557 22.0485
36.6041 21.9343
36.651 21.9414
36.6981 21.8839
36.745 21.8457
36.7921 21.7219
36.839 21.6196
36.8861 21.5971
36.9331 21.4826
36.9802 21.4524
37.0272 21.3181
37.0743 21.2655
37.1213 21.2797
37.1684 21.2457
37.2154 21.1101
37.2626 20.9763
37.3098 20.9699
37.3568 20.9359
37.404 20.8931
37.451 20.7048
37.4982 20.7209
37.5452 20.6257
37.5924 20.4939
37.6395 20.5888
37.6867 20.4563
37.7337 20.3705
37.781 20.2907
37.8281 20.2037
37.8753 20.1677
37.9224 20.0399
37.9697 20.0316
38.0168 19.9386
38.064 19.9718
38.1111 19.8258
38.1584 19.7628
38.2056 19.742
38.2529 19.6928
38.3 19.5715
38.3473 19.5904
38.3945 19.4663
38.4418 19.459
38.489 19.3875
38.5363 19.273
38.5837 19.2075
38.6309 19.1644
38.6782 19.1126
38.7254 19.0252
38.7728 19.0169
38.82 18.936
38.8674 18.8995
38.9146 18.8514
38.9621 18.7195
39.0093 18.7431
39.0567 18.6535
39.104 18.6005
39.1514 18.4527
39.1987 18.4677
39.2461 18.4663
39.2934 18.3478
39.3409 18.2529
39.3882 18.175
39.4356 18.1655
39.483 18.1426
39.5304 18.1014
39.5778 18.0314
39.6253 17.9023
39.6726 17.8882
39.7201 17.8599
39.7675 17.757
39.815 17.7125
39.8624 17.6308
39.9099 17.5989
39.9575 17.5305
40.0049 17.5161
40.0525 17.4167
40.0999 17.4305
40.1474 17.2768
40.1949 17.2927
40.2425 17.1811
40.2899 17.2046
40.3375 17.1208
40.385 17.061
40.4326 16.9887
40.48 16.8996
40.5277 16.9178
40.5752 16.8595
40.6228 16.7617
40.6703 16.7367
40.718 16.6586
40.7655 16.6245
40.8132 16.5337
40.8607 16.5949
40.9084 16.452
40.9559 16.3832
41.0036 16.4049
41.0512 16.3616
41.0989 16.2396
41.1465 16.1963
41.1942 16.183
41.242 16.0191
41.2896 15.9947
41.3373 15.9038
41.3849 15.9365
41.4327 15.9358
41.4803 15.8157
41.5281 15.7417
41.5758 15.6625
41.6236 15.6778
41.6712 15.5846
41.7191 15.5064
41.7667 15.5355
41.8146 15.5053
41.8622 15.4195
41.9101 15.3324
41.9578 15.2635
42.0057 15.2363
42.0534 15.2243
42.1013 15.1662
42.149 15.0616
42.1969 15.047
42.2446 14.9916
42.2925 14.9291
42.3403 14.9249
42.3882 14.8786
42.436 14.7952
42.4839 14.7132
42.5319 14.6838
42.5797 14.6188
42.6277 14.5935
42.6755 14.5618
42.7235 14.4962
42.7713 14.4189
42.8193 14.4212
42.8671 14.3414
42.9152 14.3184
42.963 14.3431
43.0111 14.2215
43.0589 14.1507
43.107 14.104
43.1549 14.0624
43.2029 13.977
43.2508 13.9864
43.2989 13.9527
43.3468 13.8486
43.3949 13.8203
43.4429 13.7591
43.491 13.6998
43.5389 13.6769
43.5871 13.6364
43.635 13.5536
43.6832 13.5204
43.7312 13.4695
43.7793 13.4477
43.8273 13.4476
43.8755 13.2954
43.9237 13.2892
43.9717 13.2659
44.0199 13.1837
44.068 13.164
44.1162 13.0955
44.1642 13.1185
44.2125 13.0699
44.2606 12.9802
44.3088 12.9248
44.3569 12.8946
44.4052 12.8592
44.4533 12.807
44.5016 12.7605
44.5497 12.7157
44.598 12.6947
44.6461 12.6785
44.6945 12.554
44.7426 12.564
44.791 12.5002
44.8391 12.4245
44.8875 12.4127
44.9357 12.3146
44.984 12.3632
45.0322 12.2689
45.0806 12.2301
45.1288 12.1773
45.1773 12.128
45.2257 12.1095
45.2739 12.0356
45.3224 12.0169
45.3706 11.9821
45.4191 11.9275
45.4673 11.8878
45.5158 11.8447
45.5641 11.7921
45.6126 11.7542
45.6609 11.7271
45.7094 11.6659
45.7577 11.6434
45.8063 11.5589
45.8546 11.6025
45.9031 11.4633
45.9515 11.5071
46.0001 11.4591
46.0484 11.4144
46.097 11.4109
46.1454 11.3181
46.194 11.2844
46.2424 11.2451
46.291 11.1956
46.3395 11.1165
46.3881 11.1235
46.4365 11.0871
46.4852 11.0275
46.5337 10.9928
46.5823 10.9519
46.631 10.8797
46.6795 10.8524
46.7282 10.7965
46.7767 10.7571
46.8254 10.7417
46.8739 10.7397
46.9226 10.6416
46.9712 10.5996
47.0199 10.5857
47.0685 10.5676
47.1173 10.5283
47.1658 10.4583
47.2146 10.4465
47.2632 10.3676
47.312 10.391
47.3606 10.3173
47.4095 10.2846
47.4581 10.2572
47.5069 10.1928
47.5556 10.158
47.6044 10.1376
47.6531 10.0759
47.702 10.0462
47.7507 10.0393
47.7996 9.98047
47.8483 9.92211
47.8972 9.894
47.9461 9.87327
47.9948 9.81348
48.0438 9.79109
48.0925 9.80566
48.1415 9.72505
48.1902 9.67199
48.2392 9.66959
48.288 9.62813
48.337 9.61929
48.3858 9.56738
48.4348 9.53144
48.4837 9.50692
48.5327 9.44947
48.5815 9.41654
48.6306 9.41971
48.6795 9.36773
48.7285 9.31263
48.7774 9.2934
48.8265 9.27988
48.8754 9.24366
48.9245 9.18637
48.9734 9.12267
49.0226 9.12687
49.0715 9.09238
49.1206 9.03208
49.1696 9.02579
49.2188 8.98609
49.2679 8.93456
49.3169 8.90868
49.3661 8.86004
49.4151 8.82946
49.4643 8.82141
49.5134 8.78229
49.5626 8.69792
49.6117 8.7045
49.6609 8.69335
49.71 8.59627
49.7592 8.57631
49.8083 8.52867
49.8576 8.53969
49.9067 8.48881
49.956 8.48985
50.0052 8.41542
50.0545 8.38242
50.1036 8.37289
50.153 8.34345
50.2022 8.30572
50.2515 8.28046
50.3007 8.25019
50.3501 8.21547
50.3993 8.21524
50.4487 8.14933
50.498 8.12708
50.5474 8.0967
50.5966 8.04382
50.6461 8.02986
50.6955 8.0056
50.7448 7.95439
50.7943 7.92816
50.8436 7.89953
50.8931 7.87815
50.9424 7.83193
50.9919 7.8152
51.0413 7.77859
51.0908 7.73945
51.1402 7.74167
51.1897 7.67547
51.2391 7.65593
51.2887 7.59722
51.3381 7.56047
51.3877 7.58332
51.4371 7.49549
51.4867 7.52658
51.5362 7.52797
51.5858 7.45506
51.6353 7.37634
51.6849 7.37164
51.7344 7.30613
51.7841 7.33885
51.8336 7.30737
51.8833 7.22481
51.9328 7.22022
51.9826 7.18506
52.0323 7.15156
52.0818 7.14078
52.1316 7.11321
52.1812 7.0387
52.231 7.05846
52.2806 7.01366
52.3304 6.97611
52.38 6.93981
52.4298 6.93227
52.4794 6.91824
52.5293 6.86367
52.5789 6.8447
52.6288 6.82144
52.6785 6.74455
52.7284 6.74441
52.7781 6.73995
52.828 6.73035
52.8777 6.67814
52.9276 6.63257
52.9774 6.62648
53.0273 6.57225
53.0771 6.52502
53.1271 6.56167
53.1769 6.50273
53.2269 6.49445
53.2767 6.44437
53.3267 6.43493
53.3765 6.39484
53.4266 6.38343
53.4766 6.32778
53.5265 6.27886
53.5765 6.28802
53.6264 6.21704
53.6765 6.26482
53.7264 6.2137
53.7765 6.18538
53.8265 6.19927
53.8766 6.08245
53.9266 6.089
53.9767 6.03565
54.0267 6.05631
54.0769 6.03613
54.1269 5.98275
54.1771 5.98183
54.2271 5.949
54.2773 5.91833
54.3274 5.85047
54.3776 5.8408
54.4277 5.82406
54.478 5.74591
54.528 5.72567
54.5783 5.65216
54.6285 5.66725
54.6788 5.60683
54.7289 5.58426
54.7792 5.52235
54.8296 5.48957
54.8798 5.43956
54.9301 5.44851
54.9803 5.39587
55.0307 5.39756
55.0809 5.30882
55.1314 5.27684
55.1816 5.20136
55.232 5.18111
55.2823 5.15275
55.3328 5.07627
55.383 5.0474
55.4335 4.99239
55.4838 4.96688
55.5344 4.92464
55.5847 4.88132
55.6352 4.82397
55.6856 4.78403
55.7361 4.80697