File: XRD/Ni3Fe_FD0443.xy
TT I
1.27165 7.25038
1.31627 6.88581
1.36089 6.68053
1.40551 6.69475
1.45013 6.32421
1.49476 5.7808
1.53938 5.98358
1.584 5.58311
1.62863 5.03062
1.67325 4.73686
1.71787 5.03107
1.7625 4.75348
1.80712 5.01089
1.85174 5.41883
1.89636 4.65313
1.94099 5.21493
1.98562 4.83647
2.03025 4.28116
2.07487 4.48512
2.11949 4.67531
2.16411 4.64434
2.20874 11.6745
2.25338 17.7814
2.298 5.63657
2.34263 4.50187
2.38725 5.40548
2.43188 6.18084
2.4765 5.55096
2.52115 6.45276
2.56577 7.35685
2.6104 7.75761
2.65503 7.25127
2.69965 7.72958
2.7443 7.50371
2.78893 7.46714
2.83356 7.82898
2.87818 8.34245
2.92281 8.56943
2.96744 9.37477
3.01209 10.336
3.05672 11.0414
3.10135 12.0279
3.14599 13.1887
3.19062 13.6951
3.23527 15.0544
3.2799 15.9032
3.32454 17.0874
3.36917 17.3249
3.4138 18.8137
3.45844 19.5732
3.50309 20.7746
3.54773 21.7736
3.59237 23.7509
3.637 74.042
3.68164 48.7938
3.7263 26.0445
3.77094 25.9724
3.81558 26.6933
3.86022 27.8322
3.90486 29.0717
3.9495 30.1028
3.99416 31.2164
4.0388 32.4375
4.08344 34.0825
4.12809 34.858
4.17273 36.8643
4.21738 41.7077
4.26204 195.454
4.30669 164.3
4.35133 46.9981
4.39598 44.8547
4.44063 52.3999
4.4853 61.1519
4.52995 51.0841
4.5746 51.8763
4.61925 53.9471
4.6639 56.2587
4.70855 58.9322
4.75322 61.7547
4.79788 65.1812
4.84253 68.5031
4.88719 72.6835
4.93184 76.7106
4.97652 82.7748
5.02118 90.0612
5.06583 98.2735
5.11049 112.018
5.15515 173.901
5.19981 481.088
5.24449 3340.33
5.28916 11696.3
5.33382 2995.81
5.37848 202.827
5.42315 133.747
5.46783 117.109
5.5125 108.683
5.55716 104.595
5.60183 100.889
5.6465 98.5433
5.69117 96.3364
5.73586 94.5737
5.78053 94.4819
5.8252 94.5318
5.86988 95.4325
5.91455 98.3342
5.95924 110.136
6.00392 267.741
6.0486 1165.67
6.09328 4298.34
6.13795 3349.62
6.18263 278.578
6.22733 97.2597
6.27201 84.6066
6.3167 96.2228
6.36138 79.0086
6.40606 70.3186
6.45075 68.5528
6.49545 66.245
6.54014 64.6175
6.58483 63.66
6.62952 63.2927
6.67421 86.2571
6.71892 120.743
6.76361 66.4738
6.8083 59.1896
6.853 58.191
6.89769 57.3141
6.94239 57.3524
6.98711 56.4571
7.03181 56.3647
7.07651 55.8166
7.12121 55.8505
7.16591 56.1571
7.21063 56.0276
7.25533 67.2646
7.30004 144.295
7.34475 81.9067
7.38945 56.8754
7.43416 55.0671
7.47889 54.7167
7.5236 55.4673
7.56831 56.0992
7.61303 57.4802
7.65774 57.6275
7.70247 56.9535
7.74719 56.8159
7.79191 57.5065
7.83663 57.8533
7.88135 58.8646
7.92607 59.6099
7.97081 60.817
8.01553 61.6978
8.06026 63.4351
8.10498 65.1654
8.14971 72.6054
8.19446 71.9284
8.23919 70.7713
8.28392 73.2176
8.32865 75.5787
8.37339 80.0837
8.41812 87.0451
8.46288 113.143
8.50761 196.057
8.55235 455.266
8.59709 1227.32
8.64183 2141.49
8.68658 1003.01
8.73134 172.808
8.77609 102.264
8.82083 94.4189
8.86558 91.7413
8.91033 90.7419
8.9551 91.6966
8.99985 86.6483
9.04461 85.1468
9.08936 84.2462
9.13412 83.2824
9.17888 83.1545
9.22365 84.1027
9.26841 83.4444
9.31318 84.3749
9.35794 84.3967
9.4027 84.6717
9.44749 85.4767
9.49226 86.1898
9.53703 87.1361
9.5818 89.0379
9.62657 92.7022
9.67134 97.9689
9.71614 94.8473
9.76091 95.5412
9.80569 98.7254
9.85047 101.826
9.89525 121.53
9.94005 136.812
9.98484 208.629
10.0296 398.557
10.0744 861.442
10.1192 1715.52
10.164 1627.88
10.2088 422.435
10.2536 131.145
10.2984 114.346
10.3432 114.263
10.388 107.459
10.4328 128.207
10.4776 176.956
10.5224 295.958
10.5672 504.514
10.612 504.361
10.6568 206.236
10.7017 98.1307
10.7465 87.9145
10.7913 84.571
10.8361 82.2704
10.8809 80.179
10.9257 78.9421
10.9706 79.3451
11.0154 75.7268
11.0602 73.8803
11.105 72.8561
11.1499 76.1148
11.1947 80.5875
11.2395 73.8438
11.2844 70.6304
11.3292 68.3019
11.374 67.3518
11.4189 66.7351
11.4637 65.8713
11.5086 65.9624
11.5534 68.2118
11.5983 66.2114
11.6431 64.5991
11.688 64.0678
11.7328 63.8584
11.7777 63.7641
11.8225 63.3023
11.8674 63.1771
11.9122 63.8203
11.9571 64.1244
12.002 65.1545
12.0468 71.3037
12.0917 83.6214
12.1366 108.328
12.1814 154.563
12.2263 202.667
12.2712 172.592
12.3161 95.8287
12.3609 69.9228
12.4058 65.7602
12.4507 65.3273
12.4956 65.3949
12.5405 65.5818
12.5853 66.3148
12.6302 72.1362
12.6751 76.0815
12.72 70.2361
12.7649 68.8488
12.8098 69.4932
12.8547 70.8772
12.8996 72.2715
12.9445 73.6493
12.9894 75.5174
13.0343 77.3081
13.0792 81.1692
13.1242 94.3246
13.1691 120.864
13.214 160.789
13.2589 247.502
13.3038 363.315
13.3487 423.626
13.3937 269.121
13.4386 126.256
13.4835 112.613
13.5285 129.588
13.5734 168.833
13.6183 249.714
13.6633 338.44
13.7082 344.624
13.7531 190.583
13.7981 98.9601
13.843 83.4301
13.888 80.9322
13.9329 78.3839
13.9779 77.2202
14.0228 75.7691
14.0678 74.4452
14.1127 73.931
14.1577 73.4692
14.2027 72.6559
14.2476 71.561
14.2926 71.5486
14.3376 72.5347
14.3825 71.1353
14.4275 70.0589
14.4725 69.9199
14.5175 70.1442
14.5624 70.1311
14.6074 72.1659
14.6524 72.4898
14.6974 71.811
14.7424 74.3639
14.7874 82.9891
14.8324 94.5418
14.8774 116.98
14.9224 156.286
14.9674 203.714
15.0124 218.181
15.0574 151.889
15.1024 91.2298
15.1474 73.3838
15.1924 71.3093
15.2374 71.678
15.2824 70.9224
15.3274 68.9176
15.3725 67.9369
15.4175 67.5415
15.4625 67.1236
15.5076 67.2706
15.5526 67.3681
15.5976 67.0515
15.6426 68.9839
15.6877 75.7579
15.7327 84.4747
15.7778 100.265
15.8228 129.976
15.8679 167.879
15.9129 190.831
15.958 156.806
16.003 96.899
16.0481 68.8517
16.0931 64.9022
16.1382 63.292
16.1833 61.4762
16.2283 60.1287
16.2734 59.2112
16.3185 59.3691
16.3636 59.6769
16.4086 58.2862
16.4537 57.0353
16.4988 56.4952
16.5439 56.4419
16.589 56.0774
16.6341 55.739
16.6792 55.2321
16.7243 55.784
16.7694 55.8973
16.8145 55.9262
16.8596 56.1827
16.9047 57.2358
16.9498 57.365
16.9949 56.6029
17.04 57.0476
17.0851 58.4237
17.1302 60.1188
17.1754 63.505
17.2205 68.3963
17.2656 74.9976
17.3108 82.4666
17.3559 82.8845
17.401 72.1253
17.4462 63.0481
17.4913 60.2455
17.5365 60.155
17.5815 60.416
17.6268 60.7787
17.6718 61.5479
17.7171 61.7689
17.7622 62.3681
17.8074 63.3881
17.8525 66.505
17.8977 70.93
17.9428 76.8443
17.9881 85.9115
18.0331 102.252
18.0784 120.68
18.1237 138.647
18.1688 132.812
18.214 106.113
18.2591 88.6531
18.3044 91.7856
18.3495 100.37
18.3948 106.941
18.4399 97.471
18.4852 78.2253
18.5303 66.9109
18.5756 63.1974
18.6207 62.444
18.666 61.5338
18.7112 60.74
18.7565 59.9179
18.8016 59.5525
18.8469 59.1638
18.892 58.746
18.9374 58.3308
18.9825 57.9711
19.0278 57.8982
19.073 58.1934
19.1183 58.5339
19.1635 59.3841
19.2088 60.9516
19.254 63.5828
19.2993 67.5373
19.3447 73.0003
19.3898 77.125
19.4352 73.3378
19.4804 64.202
19.5257 57.2914
19.5709 55.08
19.6163 54.8322
19.6615 54.7238
19.7068 54.3931
19.752 54.3404
19.7974 54.7591
19.8426 55.589
19.888 56.3132
19.9332 57.5777
19.9786 60.1865
20.0238 63.5112
20.0692 67.8284
20.1144 70.8728
20.1598 69.2666
20.205 64.8782
20.2504 63.0692
20.2957 64.5056
20.3411 66.4147
20.3863 65.0327
20.4318 59.1779
20.477 54.441
20.5224 52.1376
20.5677 51.7905
20.6131 51.2005
20.6586 50.462
20.7038 50.4031
20.7493 49.9451
20.7945 49.7184
20.84 49.733
20.8853 49.4877
20.9307 49.4929
20.976 49.7007
21.0215 49.5778
21.0668 49.9116
21.1122 50.5271
21.1575 50.8978
21.203 51.7446
21.2483 52.2912
21.2938 52.3683
21.3391 51.0597
21.3846 49.9039
21.4299 49.5574
21.4754 49.2614
21.5207 49.5414
21.5662 49.8275
21.6116 50.4079
21.6571 50.9418
21.7024 52.1636
21.7479 53.8013
21.7933 56.5097
21.8388 59.9926
21.8843 63.3312
21.9297 65.4563
21.9752 64.4232
22.0206 60.6861
22.0661 57.2353
22.1115 56.7522
22.157 56.7441
22.2024 55.4021
22.248 52.4566
22.2933 50.7677
22.3389 49.9226
22.3843 49.7716
22.4299 49.7736
22.4753 49.7339
22.5208 49.5508
22.5662 49.4265
22.6118 49.6258
22.6572 49.9206
22.7028 50.3169
22.7483 51.0236
22.7939 51.5619
22.8393 53.1442
22.8849 54.8977
22.9303 56.6191
22.9759 58.6328
23.0214 58.1746
23.067 55.3684
23.1126 52.1075
23.1581 50.0554
23.2037 49.6101
23.2492 49.7453
23.2948 49.9215
23.3403 50.099
23.3859 50.7914
23.4314 51.8966
23.477 53.5475
23.5225 55.4971
23.5682 57.5795
23.6137 58.6774
23.6593 56.6234
23.7048 52.7383
23.7505 49.0634
23.796 47.4454
23.8417 46.7391
23.8872 46.3853
23.9329 46.0578
23.9784 45.7773
24.0241 45.4067
24.0697 45.2994
24.1154 44.8098
24.1609 44.6459
24.2066 44.7206
24.2522 44.501
24.2979 44.2559
24.3434 44.0376
24.3892 43.919
24.4349 43.9596
24.4805 43.7447
24.5262 43.9155
24.5718 43.7615
24.6175 43.5659
24.6631 43.6048
24.7089 43.2853
24.7545 43.0739
24.8002 43.1122
24.8458 42.9996
24.8916 42.7083
24.9372 43.1034
24.983 43.3877
25.0286 43.6802
25.0744 44.1373
25.12 44.3662
25.1658 45.1959
25.2114 45.5556
25.2572 45.4133
25.3029 45.3713
25.3487 45.5994
25.3943 45.2968
25.4402 44.329
25.4858 43.2974
25.5316 42.0664
25.5773 41.6775
25.6231 41.6733
25.669 41.3238
25.7147 41.3572
25.7605 41.1226
25.8062 41.2096
25.8521 41.4279
25.8977 41.246
25.9436 41.6635
25.9893 41.7421
26.0352 42.2814
26.0809 42.3241
26.1268 42.4468
26.1725 42.175
26.2184 41.6061
26.2641 40.9937
26.31 40.8146
26.3557 40.9619
26.4017 40.9015
26.4474 41.3327
26.4933 41.4869
26.5391 41.9008
26.585 42.3575
26.6308 42.7664
26.6767 42.8991
26.7225 42.7893
26.7684 42.0962
26.8142 41.6879
26.8601 41.1321
26.9059 40.852
26.9519 40.2255
26.9979 39.9218
27.0437 39.6052
27.0896 39.4952
27.1354 39.4936
27.1814 39.2546
27.2272 39.1616
27.2732 39.3037
27.3191 39.0101
27.3651 39.1387
27.4109 39.2371
27.4569 39.1391
27.5027 39.3066
27.5488 39.297
27.5946 39.0043
27.6407 38.7285
27.6865 38.8481
27.7326 38.5945
27.7784 38.5215
27.8245 38.6476
27.8703 38.7294
27.9164 38.9559
27.9623 39.0091
28.0084 39.2906
28.0543 39.651
28.1003 39.7346
28.1462 39.4733
28.1923 39.0277
28.2384 38.482
28.2843 38.2583
28.3304 37.886
28.3764 37.4671
28.4225 37.0357
28.4684 36.8991
28.5145 36.5602
28.5605 36.4871
28.6066 36.3241
28.6526 36.3295
28.6987 36.281
28.7447 36.157
28.7908 35.9604
28.8368 36.0368
28.8829 36.0767
28.9289 35.9089
28.9751 35.6986
29.0211 35.4688
29.0673 35.2885
29.1133 35.1118
29.1595 35.0079
29.2055 34.9092
29.2517 34.8583
29.2977 34.8648
29.3439 34.7731
29.3899 34.8015
29.4361 34.7136
29.4824 34.5714
29.5284 34.4042
29.5746 33.995
29.6207 33.7368
29.6669 33.6671
29.713 33.4706
29.7593 33.3942
29.8053 33.469
29.8516 33.39
29.8977 33.3885
29.9439 33.1654
29.99 33.1946
30.0363 32.9971
30.0824 32.9847
30.1287 32.9894
30.1748 33.0417
30.2211 33.0213
30.2673 32.8659
30.3136 32.9656
30.3597 32.8274
30.406 32.7123
30.4522 32.5757
30.4985 32.6227
30.5447 32.7674
30.591 32.7481
30.6372 32.7725
30.6835 32.6626
30.7297 32.7383
30.7761 32.7061
30.8224 32.5644
30.8686 32.3589
30.915 32.1757
30.9612 31.9501
31.0076 31.8209
31.0538 31.712
31.1002 31.5833
31.1464 31.4736
31.1928 31.539
31.2391 31.506
31.2855 31.4016
31.3317 31.3823
31.3781 31.5078
31.4244 31.4705
31.4708 31.3818
31.5171 31.2558
31.5636 31.3333
31.6098 31.0941
31.6563 30.921
31.7026 30.7839
31.7491 30.6568
31.7953 30.6876
31.8418 30.6776
31.8881 30.6538
31.9346 30.6169
31.9809 30.5514
32.0275 30.3886
32.074 30.2874
32.1203 30.1817
32.1668 30.0619
32.2132 29.913
32.2597 29.7528
32.306 29.7257
32.3526 29.4191
32.399 29.4903
32.4455 29.3904
32.4919 29.166
32.5385 29.1368
32.5848 28.9284
32.6314 29.0464
32.6778 28.955
32.7244 28.8229
32.7708 28.5813
32.8174 28.6618
32.8638 28.52
32.9104 28.5657
32.9569 28.4892
33.0035 28.3464
33.0499 28.3813
33.0966 28.254
33.143 28.3097
33.1897 28.1105
33.2361 28.0395
33.2828 28.1117
33.3293 27.9179
33.3759 27.9094
33.4226 27.6352
33.4691 27.6242
33.5158 27.5344
33.5623 27.4164
33.609 27.2316
33.6555 27.129
33.7022 27.0841
33.7487 26.9471
33.7954 26.9077
33.842 26.8287
33.8887 26.7203
33.9353 26.7155
33.982 26.6127
34.0286 26.5322
34.0753 26.4621
34.1219 26.36
34.1687 26.2888
34.2152 26.1885
34.262 26.1167
34.3086 25.9761
34.3554 25.8849
34.402 25.8704
34.4488 25.6936
34.4954 25.6605
34.5422 25.6202
34.5889 25.4767
34.6357 25.3806
34.6825 25.3514
34.7292 25.2656
34.776 25.1668
34.8227 25.0709
34.8695 25.0395
34.9162 24.9591
34.9631 24.863
35.0098 24.9284
35.0566 24.7874
35.1033 24.597
35.1502 24.7339
35.1969 24.5649
35.2438 24.5771
35.2906 24.5864
35.3375 24.4568
35.3842 24.3821
35.4311 24.3985
35.4779 24.3574
35.5248 24.2764
35.5716 24.1516
35.6185 24.1203
35.6653 23.9923
35.7123 23.9366
35.759 23.8328
35.806 23.7241
35.8528 23.6269
35.8998 23.5557
35.9468 23.4992
35.9936 23.479
36.0406 23.2962
36.0874 23.4078
36.1345 23.2349
36.1813 23.2227
36.2283 23.1292
36.2752 23.0016
36.3222 23.043
36.3691 22.974
36.4161 22.8599
36.463 22.8039
36.5101 22.7636
36.557 22.6901
36.6041 22.5363
36.651 22.6068
36.6981 22.5167
36.745 22.4451
36.7921 22.3652
36.839 22.2148
36.8861 22.162
36.9331 22.0709
36.9802 22.043
37.0272 21.9121
37.0743 21.8707
37.1213 21.8186
37.1684 21.7584
37.2154 21.6809
37.2626 21.6546
37.3098 21.5807
37.3568 21.4818
37.404 21.4448
37.451 21.3464
37.4982 21.3038
37.5452 21.2148
37.5924 21.1373
37.6395 21.14
37.6867 21.1135
37.7337 20.9426
37.781 20.9147
37.8281 20.8128
37.8753 20.668
37.9224 20.6494
37.9697 20.5993
38.0168 20.5214
38.064 20.4555
38.1111 20.524
38.1584 20.403
38.2056 20.282
38.2529 20.2219
38.3 20.1734
38.3473 20.1485
38.3945 20.0285
38.4418 20.0013
38.489 19.9155
38.5363 19.8747
38.5837 19.778
38.6309 19.7903
38.6782 19.6538
38.7254 19.6508
38.7728 19.5079
38.82 19.4001
38.8674 19.4259
38.9146 19.3077
38.9621 19.2664
39.0093 19.2634
39.0567 19.1745
39.104 19.0995
39.1514 18.978
39.1987 18.9827
39.2461 18.9723
39.2934 18.8367
39.3409 18.6885
39.3882 18.6793
39.4356 18.6688
39.483 18.6347
39.5304 18.5144
39.5778 18.547
39.6253 18.4978
39.6726 18.4156
39.7201 18.3039
39.7675 18.2823
39.815 18.2292
39.8624 18.144
39.9099 18.1627
39.9575 18.0052
40.0049 18.0138
40.0525 17.9346
40.0999 17.913
40.1474 17.8784
40.1949 17.7262
40.2425 17.6863
40.2899 17.6895
40.3375 17.6069
40.385 17.5566
40.4326 17.4751
40.48 17.3574
40.5277 17.4049
40.5752 17.2998
40.6228 17.2783
40.6703 17.1758
40.718 17.1353
40.7655 17.1159
40.8132 17.0295
40.8607 17.0335
40.9084 16.9722
40.9559 16.8597
41.0036 16.8248
41.0512 16.825
41.0989 16.7347
41.1465 16.698
41.1942 16.6644
41.242 16.5336
41.2896 16.5285
41.3373 16.3861
41.3849 16.4348
41.4327 16.2983
41.4803 16.2292
41.5281 16.2382
41.5758 16.1998
41.6236 16.0338
41.6712 16.0327
41.7191 15.9791
41.7667 15.96
41.8146 15.9226
41.8622 15.8603
41.9101 15.7849
41.9578 15.7156
42.0057 15.7227
42.0534 15.6327
42.1013 15.6
42.149 15.5383
42.1969 15.4681
42.2446 15.516
42.2925 15.3812
42.3403 15.3109
42.3882 15.2737
42.436 15.2446
42.4839 15.1925
42.5319 15.1194
42.5797 15.076
42.6277 14.9872
42.6755 14.9344
42.7235 14.9058
42.7713 14.8525
42.8193 14.851
42.8671 14.7563
42.9152 14.7076
42.963 14.6963
43.0111 14.6382
43.0589 14.557
43.107 14.4744
43.1549 14.4996
43.2029 14.452
43.2508 14.3383
43.2989 14.2746
43.3468 14.2049
43.3949 14.2361
43.4429 14.2041
43.491 14.129
43.5389 14.0399
43.5871 14.036
43.635 13.9778
43.6832 13.9706
43.7312 13.8327
43.7793 13.786
43.8273 13.7799
43.8755 13.688
43.9237 13.7184
43.9717 13.6243
44.0199 13.5698
44.068 13.5451
44.1162 13.545
44.1642 13.48
44.2125 13.3931
44.2606 13.375
44.3088 13.2778
44.3569 13.2541
44.4052 13.2461
44.4533 13.1276
44.5016 13.118
44.5497 13.0448
44.598 13.0422
44.6461 12.9942
44.6945 12.948
44.7426 12.8744
44.791 12.8765
44.8391 12.8049
44.8875 12.7641
44.9357 12.7301
44.984 12.6641
45.0322 12.5937
45.0806 12.5711
45.1288 12.5193
45.1773 12.486
45.2257 12.4189
45.2739 12.44
45.3224 12.3618
45.3706 12.298
45.4191 12.2292
45.4673 12.2134
45.5158 12.1882
45.5641 12.1324
45.6126 12.0868
45.6609 12.0364
45.7094 12.0067
45.7577 12.0081
45.8063 11.9306
45.8546 11.859
45.9031 11.8292
45.9515 11.818
46.0001 11.7492
46.0484 11.7065
46.097 11.7003
46.1454 11.6103
46.194 11.5798
46.2424 11.5053
46.291 11.5111
46.3395 11.4438
46.3881 11.3804
46.4365 11.4058
46.4852 11.3301
46.5337 11.2552
46.5823 11.2398
46.631 11.2138
46.6795 11.1477
46.7282 11.1542
46.7767 11.1024
46.8254 11.029
46.8739 10.9711
46.9226 10.9877
46.9712 10.8928
47.0199 10.8809
47.0685 10.8411
47.1173 10.822
47.1658 10.7752
47.2146 10.7299
47.2632 10.6982
47.312 10.6185
47.3606 10.5995
47.4095 10.5529
47.4581 10.5432
47.5069 10.4895
47.5556 10.4469
47.6044 10.4102
47.6531 10.3609
47.702 10.3043
47.7507 10.2637
47.7996 10.2346
47.8483 10.2006
47.8972 10.2053
47.9461 10.1655
47.9948 10.1201
48.0438 10.0741
48.0925 10.0568
48.1415 9.9972
48.1902 9.98994
48.2392 9.96773
48.288 9.92023
48.337 9.8297
48.3858 9.8239
48.4348 9.78147
48.4837 9.73943
48.5327 9.73297
48.5815 9.67735
48.6306 9.65431
48.6795 9.61973
48.7285 9.57326
48.7774 9.57693
48.8265 9.51977
48.8754 9.45957
48.9245 9.43267
48.9734 9.40497
49.0226 9.40899
49.0715 9.31403
49.1206 9.29282
49.1696 9.25781
49.2188 9.24603
49.2679 9.18001
49.3169 9.13626
49.3661 9.12167
49.4151 9.10645
49.4643 9.04547
49.5134 9.00095
49.5626 8.99197
49.6117 8.91675
49.6609 8.91253
49.71 8.83382
49.7592 8.81895
49.8083 8.7871
49.8576 8.78139
49.9067 8.74836
49.956 8.69954
50.0052 8.66451
50.0545 8.64792
50.1036 8.59316
50.153 8.57116
50.2022 8.53217
50.2515 8.50034
50.3007 8.46119
50.3501 8.45021
50.3993 8.41528
50.4487 8.37037
50.498 8.34833
50.5474 8.30909
50.5966 8.31103
50.6461 8.26165
50.6955 8.22072
50.7448 8.16877
50.7943 8.1296
50.8436 8.17561
50.8931 8.07429
50.9424 8.05761
50.9919 8.05348
51.0413 7.99519
51.0908 7.99603
51.1402 7.92944
51.1897 7.88784
51.2391 7.88274
51.2887 7.82141
51.3381 7.80533
51.3877 7.7739
51.4371 7.71218
51.4867 7.68901
51.5362 7.68393
51.5858 7.65377
51.6353 7.61611
51.6849 7.57505
51.7344 7.53956
51.7841 7.52672
51.8336 7.49196
51.8833 7.46171
51.9328 7.40689
51.9826 7.37492
52.0323 7.36219
52.0818 7.37294
52.1316 7.3029
52.1812 7.29231
52.231 7.23652
52.2806 7.19711
52.3304 7.22545
52.38 7.15268
52.4298 7.09358
52.4794 7.11433
52.5293 7.05392
52.5789 7.04336
52.6288 7.00538
52.6785 6.98126
52.7284 6.96412
52.7781 6.94016
52.828 6.89638
52.8777 6.83108
52.9276 6.83872
52.9774 6.78929
53.0273 6.75474
53.0771 6.75989
53.1271 6.7161
53.1769 6.66931
53.2269 6.66848
53.2767 6.62376
53.3267 6.59332
53.3765 6.58952
53.4266 6.5646
53.4766 6.52189
53.5265 6.49253
53.5765 6.4762
53.6264 6.43006
53.6765 6.3857
53.7264 6.40968
53.7765 6.35228
53.8265 6.27244
53.8766 6.30429
53.9266 6.272
53.9767 6.23659
54.0267 6.20285
54.0769 6.16327
54.1269 6.09968
54.1771 6.18021
54.2271 6.08072
54.2773 6.0408
54.3274 6.05358
54.3776 6.04095
54.4277 5.93768
54.478 5.92753
54.528 5.92604
54.5783 5.84302
54.6285 5.8038
54.6788 5.79631
54.7289 5.70531
54.7792 5.69192
54.8296 5.63974
54.8798 5.6193
54.9301 5.56131
54.9803 5.57075
55.0307 5.55954
55.0809 5.47531
55.1314 5.39443
55.1816 5.36179
55.232 5.34688
55.2823 5.32819
55.3328 5.24449
55.383 5.19009
55.4335 5.14005
55.4838 5.09374
55.5344 5.00353
55.5847 5.00164
55.6352 4.96245
55.6856 4.9275
55.7361 4.88971