File: XRD/Ni3Fe_FD0853.xy
TT I
1.27165 6.93896
1.31627 7.12812
1.36089 6.0165
1.40551 6.04061
1.45013 6.22326
1.49476 5.44545
1.53938 5.54607
1.584 5.69245
1.62863 4.48299
1.67325 5.31905
1.71787 5.05222
1.7625 4.71496
1.80712 4.31464
1.85174 4.69992
1.89636 4.4938
1.94099 4.74177
1.98562 4.63124
2.03025 4.20947
2.07487 4.71362
2.11949 4.26139
2.16411 4.92476
2.20874 13.4478
2.25338 22.1271
2.298 5.94461
2.34263 5.8537
2.38725 6.14551
2.43188 6.49739
2.4765 7.59878
2.52115 7.67547
2.56577 8.05146
2.6104 8.79323
2.65503 7.29339
2.69965 8.27333
2.7443 8.36705
2.78893 7.76045
2.83356 8.83158
2.87818 8.95379
2.92281 8.78323
2.96744 10.2359
3.01209 10.3709
3.05672 11.2889
3.10135 11.9749
3.14599 13.0401
3.19062 14.5238
3.23527 15.034
3.2799 16.4004
3.32454 16.7148
3.36917 17.7295
3.4138 19.3301
3.45844 19.572
3.50309 20.44
3.54773 21.5487
3.59237 23.4831
3.637 89.2245
3.68164 56.5925
3.7263 26.064
3.77094 26.1334
3.81558 26.7419
3.86022 27.1873
3.90486 28.6667
3.9495 29.4513
3.99416 30.1744
4.0388 32.1161
4.08344 33.1121
4.12809 34.5489
4.17273 36.6047
4.21738 42.4883
4.26204 236.355
4.30669 208.448
4.35133 48.2142
4.39598 44.2089
4.44063 53.0923
4.4853 63.9875
4.52995 49.6868
4.5746 50.7263
4.61925 52.9133
4.6639 54.9181
4.70855 57.2166
4.75322 60.0517
4.79788 62.913
4.84253 66.3742
4.88719 70.3499
4.93184 73.9827
4.97652 79.4494
5.02118 85.0865
5.06583 92.3812
5.11049 102.363
5.15515 163.871
5.19981 296.26
5.24449 2514.07
5.28916 12365.3
5.33382 2672.71
5.37848 176.056
5.42315 125.141
5.46783 111.08
5.5125 104.05
5.55716 100.566
5.60183 96.7268
5.6465 95.3838
5.69117 92.6004
5.73586 90.646
5.78053 89.9547
5.8252 89.145
5.86988 90.0391
5.91455 91.4858
5.95924 97.6867
6.00392 177.898
6.0486 847.579
6.09328 4460.34
6.13795 3177.87
6.18263 223.258
6.22733 90.3982
6.27201 81.0459
6.3167 99.7774
6.36138 78.8838
6.40606 67.9629
6.45075 66.1069
6.49545 64.5864
6.54014 63.1811
6.58483 62.1443
6.62952 61.9624
6.67421 91.5678
6.71892 137.328
6.76361 67.6315
6.8083 58.0565
6.853 56.9336
6.89769 55.991
6.94239 55.8235
6.98711 55.0376
7.03181 54.8872
7.07651 54.788
7.12121 54.2272
7.16591 54.3983
7.21063 54.9434
7.25533 69.9921
7.30004 170.036
7.34475 88.5596
7.38945 55.8825
7.43416 54.1934
7.47889 53.766
7.5236 54.1501
7.56831 54.5727
7.61303 56.2485
7.65774 56.5473
7.70247 55.3353
7.74719 55.6712
7.79191 56.044
7.83663 56.3548
7.88135 57.144
7.92607 58.0831
7.97081 59.4264
8.01553 60.2892
8.06026 61.2439
8.10498 63.3081
8.14971 71.8981
8.19446 71.1956
8.23919 68.4046
8.28392 70.854
8.32865 73.0205
8.37339 77.0051
8.41812 83.315
8.46288 110.078
8.50761 146.989
8.55235 344.569
8.59709 1136.66
8.64183 2244.01
8.68658 932.483
8.73134 167.395
8.77609 97.7318
8.82083 91.2018
8.86558 88.0675
8.91033 88.7303
8.9551 90.4654
8.99985 84.3748
9.04461 82.5646
9.08936 81.9461
9.13412 81.0536
9.17888 81.2801
9.22365 81.6825
9.26841 81.1249
9.31318 81.3979
9.35794 81.4058
9.4027 82.0376
9.44749 82.968
9.49226 83.5486
9.53703 84.2458
9.5818 86.314
9.62657 90.3639
9.67134 96.999
9.71614 92.4009
9.76091 92.7155
9.80569 94.7388
9.85047 98.1498
9.89525 120.793
9.94005 131.913
9.98484 159.562
10.0296 311.201
10.0744 790.628
10.1192 1761.61
10.164 1560.66
10.2088 396.917
10.2536 124.234
10.2984 111.074
10.3432 112.496
10.388 102.667
10.4328 112.439
10.4776 151.601
10.5224 277.413
10.5672 538.04
10.612 510.309
10.6568 201.752
10.7017 95.5911
10.7465 85.3472
10.7913 81.8961
10.8361 79.8687
10.8809 77.9486
10.9257 77.2047
10.9706 77.7638
11.0154 73.9713
11.0602 71.7955
11.105 70.7621
11.1499 74.9999
11.1947 81.863
11.2395 73.5364
11.2844 69.4518
11.3292 66.1676
11.374 65.2616
11.4189 64.7374
11.4637 64.1158
11.5086 64.6479
11.5534 67.2755
11.5983 64.6821
11.6431 62.7017
11.688 62.0376
11.7328 62.2535
11.7777 62.0233
11.8225 61.4515
11.8674 61.6598
11.9122 61.8044
11.9571 62.1083
12.002 62.4908
12.0468 65.6167
12.0917 75.956
12.1366 99.2043
12.1814 152.591
12.2263 214.001
12.2712 168.521
12.3161 94.8822
12.3609 69.1796
12.4058 63.734
12.4507 63.5523
12.4956 63.4227
12.5405 63.4843
12.5853 64.6426
12.6302 71.9647
12.6751 77.3196
12.72 68.9117
12.7649 66.8551
12.8098 67.2725
12.8547 68.6067
12.8996 69.8472
12.9445 70.8883
12.9894 72.8171
13.0343 74.6435
13.0792 77.2817
13.1242 84.4672
13.1691 105.536
13.214 141.128
13.2589 233.287
13.3038 374.788
13.3487 420.533
13.3937 256.808
13.4386 121.575
13.4835 101.037
13.5285 114.436
13.5734 152.347
13.6183 249.172
13.6633 358.656
13.7082 333.705
13.7531 182.057
13.7981 96.0997
13.843 80.5017
13.888 78.2932
13.9329 76.1491
13.9779 74.6321
14.0228 73.0677
14.0678 71.9101
14.1127 71.686
14.1577 71.4601
14.2027 70.3502
14.2476 69.0997
14.2926 69.7647
14.3376 70.6107
14.3825 69.2436
14.4275 67.6061
14.4725 67.597
14.5175 67.8646
14.5624 68.1209
14.6074 70.0218
14.6524 70.2868
14.6974 69.5154
14.7424 70.0972
14.7874 75.8471
14.8324 85.3382
14.8774 106.939
14.9224 153.345
14.9674 212.48
15.0124 218.373
15.0574 147.688
15.1024 90.1394
15.1474 71.2348
15.1924 69.3464
15.2374 70.1557
15.2824 69.1104
15.3274 66.8884
15.3725 65.9096
15.4175 65.5189
15.4625 65.0851
15.5076 65.4025
15.5526 65.0586
15.5976 64.6907
15.6426 65.4584
15.6877 69.9879
15.7327 76.7418
15.7778 92.0079
15.8228 125.045
15.8679 172.116
15.9129 193.288
15.958 152.739
16.003 93.8033
16.0481 67.1942
16.0931 63.7072
16.1382 61.9457
16.1833 59.7761
16.2283 58.2872
16.2734 57.4982
16.3185 57.8078
16.3636 58.479
16.4086 56.8729
16.4537 55.4038
16.4988 54.8307
16.5439 54.803
16.589 54.5021
16.6341 54.2445
16.6792 53.6533
16.7243 54.1299
16.7694 54.2151
16.8145 53.8775
16.8596 54.6071
16.9047 55.7943
16.9498 56.0856
16.9949 54.7532
17.04 54.8646
17.0851 56.0159
17.1302 57.4274
17.1754 60.5214
17.2205 65.5662
17.2656 74.0693
17.3108 82.847
17.3559 81.2893
17.401 70.1385
17.4462 61.2098
17.4913 58.2758
17.5365 58.1725
17.5815 58.3363
17.6268 58.6834
17.6718 59.568
17.7171 60.0245
17.7622 60.4078
17.8074 60.9018
17.8525 62.6253
17.8977 66.3841
17.9428 71.6276
17.9881 80.6977
18.0331 98.7584
18.0784 121.796
18.1237 138.019
18.1688 126.994
18.214 101.193
18.2591 84.861
18.3044 89.8844
18.3495 100.655
18.3948 104.397
18.4399 93.3139
18.4852 76.209
18.5303 64.7613
18.5756 61.1905
18.6207 60.3613
18.666 59.4226
18.7112 58.8793
18.7565 58.0763
18.8016 57.8203
18.8469 57.2781
18.892 57.0194
18.9374 56.4974
18.9825 56.1904
19.0278 56.256
19.073 56.0702
19.1183 56.6451
19.1635 57.0781
19.2088 58.4639
19.254 61.0087
19.2993 66.0005
19.3447 72.444
19.3898 75.8582
19.4352 70.8086
19.4804 62.3507
19.5257 56.0217
19.5709 53.3526
19.6163 53.1513
19.6615 52.9285
19.7068 52.713
19.752 52.4674
19.7974 52.7575
19.8426 53.5071
19.888 54.0447
19.9332 55.4239
19.9786 57.7585
20.0238 61.696
20.0692 66.6211
20.1144 68.8324
20.1598 67.0326
20.205 62.2798
20.2504 61.5313
20.2957 63.5897
20.3411 65.0949
20.3863 63.1639
20.4318 57.4524
20.477 52.8512
20.5224 51.0245
20.5677 50.3549
20.6131 49.4979
20.6586 49.0887
20.7038 48.9685
20.7493 48.4351
20.7945 48.2909
20.84 48.2103
20.8853 48.0237
20.9307 47.8804
20.976 48.0031
21.0215 47.8375
21.0668 48.327
21.1122 48.6963
21.1575 49.5251
21.203 50.3778
21.2483 50.8627
21.2938 50.9401
21.3391 49.4809
21.3846 48.3056
21.4299 47.8163
21.4754 47.5566
21.5207 47.9278
21.5662 48.0043
21.6116 48.4861
21.6571 49.0048
21.7024 49.8991
21.7479 51.7165
21.7933 54.7348
21.8388 58.4079
21.8843 62.2303
21.9297 63.5412
21.9752 61.9561
22.0206 58.4942
22.0661 55.8822
22.1115 55.3807
22.157 55.05
22.2024 53.496
22.248 50.7213
22.2933 49.2063
22.3389 48.431
22.3843 48.5613
22.4299 48.1717
22.4753 48.325
22.5208 47.8752
22.5662 47.8231
22.6118 47.9594
22.6572 48.0703
22.7028 48.4686
22.7483 48.9905
22.7939 49.8612
22.8393 51.1382
22.8849 53.5575
22.9303 55.7956
22.9759 57.2253
23.0214 56.6426
23.067 53.9244
23.1126 50.2909
23.1581 48.5462
23.2037 48.129
23.2492 48.123
23.2948 48.1029
23.3403 48.2781
23.3859 49.0312
23.4314 49.9456
23.477 51.959
23.5225 54.4023
23.5682 56.6756
23.6137 57.2742
23.6593 54.6739
23.7048 50.7835
23.7505 47.7822
23.796 46.0867
23.8417 45.4142
23.8872 45.0151
23.9329 44.6215
23.9784 44.2271
24.0241 43.9974
24.0697 43.7508
24.1154 43.6125
24.1609 43.4973
24.2066 43.2831
24.2522 43.1644
24.2979 42.8188
24.3434 42.843
24.3892 42.5916
24.4349 42.4585
24.4805 42.5878
24.5262 42.4084
24.5718 42.3437
24.6175 42.5159
24.6631 42.109
24.7089 41.9978
24.7545 41.9923
24.8002 41.791
24.8458 41.6842
24.8916 41.5356
24.9372 41.536
24.983 41.8934
25.0286 42.1777
25.0744 42.7218
25.12 43.1706
25.1658 43.7902
25.2114 44.0231
25.2572 44.299
25.3029 44.3781
25.3487 44.3519
25.3943 44.0946
25.4402 43.0024
25.4858 41.8421
25.5316 40.9635
25.5773 40.3896
25.6231 40.357
25.669 39.9946
25.7147 40.0739
25.7605 39.9019
25.8062 40.05
25.8521 40.1307
25.8977 40.0213
25.9436 40.183
25.9893 40.4056
26.0352 41.0509
26.0809 41.119
26.1268 41.1869
26.1725 40.7017
26.2184 40.132
26.2641 39.7578
26.31 39.5866
26.3557 39.4844
26.4017 39.5587
26.4474 39.8826
26.4933 40.2127
26.5391 40.7077
26.585 41.148
26.6308 41.6818
26.6767 41.7079
26.7225 41.3768
26.7684 40.7994
26.8142 40.3793
26.8601 39.8599
26.9059 39.4297
26.9519 39.0687
26.9979 38.7329
27.0437 38.3758
27.0896 38.1689
27.1354 38.2634
27.1814 38.1295
27.2272 38.0476
27.2732 37.9844
27.3191 37.8748
27.3651 37.9926
27.4109 37.8546
27.4569 38.0709
27.5027 38.0576
27.5488 38.0937
27.5946 37.7849
27.6407 37.5932
27.6865 37.7171
27.7326 37.3335
27.7784 37.4565
27.8245 37.3843
27.8703 37.4888
27.9164 37.9026
27.9623 37.9718
28.0084 38.2319
28.0543 38.7315
28.1003 38.6077
28.1462 38.262
28.1923 37.9259
28.2384 37.5484
28.2843 37.1583
28.3304 36.7238
28.3764 36.3797
28.4225 35.9683
28.4684 35.8186
28.5145 35.518
28.5605 35.486
28.6066 35.3275
28.6526 35.1343
28.6987 35.163
28.7447 35.1017
28.7908 34.9877
28.8368 35.0046
28.8829 35.0598
28.9289 34.863
28.9751 34.6562
29.0211 34.486
29.0673 34.2206
29.1133 34.0189
29.1595 34.0198
29.2055 33.825
29.2517 33.8911
29.2977 33.8179
29.3439 33.8003
29.3899 33.8806
29.4361 33.8277
29.4824 33.4831
29.5284 33.2686
29.5746 32.9174
29.6207 32.7213
29.6669 32.7742
29.713 32.5633
29.7593 32.4625
29.8053 32.4797
29.8516 32.4257
29.8977 32.3337
29.9439 32.2084
29.99 32.095
30.0363 32.2097
30.0824 32.1541
30.1287 31.9979
30.1748 32.0168
30.2211 32.0096
30.2673 31.9288
30.3136 32.037
30.3597 31.7644
30.406 31.7657
30.4522 31.6171
30.4985 31.6349
30.5447 31.8342
30.591 31.8447
30.6372 31.8614
30.6835 31.7245
30.7297 31.8079
30.7761 31.6472
30.8224 31.5722
30.8686 31.3624
30.915 31.1677
30.9612 31.0826
31.0076 30.8101
31.0538 30.7046
31.1002 30.7311
31.1464 30.496
31.1928 30.6249
31.2391 30.6924
31.2855 30.4446
31.3317 30.4845
31.3781 30.5526
31.4244 30.523
31.4708 30.3953
31.5171 30.4321
31.5636 30.3528
31.6098 30.1018
31.6563 30.0873
31.7026 29.9139
31.7491 29.7397
31.7953 29.7844
31.8418 29.7317
31.8881 29.7219
31.9346 29.789
31.9809 29.6078
32.0275 29.5482
32.074 29.4184
32.1203 29.1504
32.1668 29.2576
32.2132 29.0165
32.2597 28.9646
32.306 28.8145
32.3526 28.6352
32.399 28.6044
32.4455 28.3428
32.4919 28.3879
32.5385 28.3311
32.5848 28.1165
32.6314 28.1822
32.6778 28.0869
32.7244 27.9778
32.7708 27.7395
32.8174 27.7827
32.8638 27.6679
32.9104 27.6766
32.9569 27.6542
33.0035 27.5048
33.0499 27.5879
33.0966 27.4665
33.143 27.401
33.1897 27.4151
33.2361 27.2474
33.2828 27.2152
33.3293 26.9744
33.3759 27.069
33.4226 26.8531
33.4691 26.7374
33.5158 26.6773
33.5623 26.5024
33.609 26.5019
33.6555 26.404
33.7022 26.2733
33.7487 26.158
33.7954 26.2386
33.842 26.112
33.8887 26.0288
33.9353 25.9728
33.982 25.8629
34.0286 25.7517
34.0753 25.7098
34.1219 25.619
34.1687 25.6034
34.2152 25.4377
34.262 25.3559
34.3086 25.3082
34.3554 25.2535
34.402 25.0182
34.4488 25.0027
34.4954 25.0039
34.5422 24.9225
34.5889 24.7372
34.6357 24.7157
34.6825 24.596
34.7292 24.5288
34.776 24.3952
34.8227 24.4058
34.8695 24.2653
34.9162 24.2893
34.9631 24.2166
35.0098 24.1846
35.0566 24.065
35.1033 24.0507
35.1502 24.0023
35.1969 23.9399
35.2438 23.883
35.2906 23.8529
35.3375 23.7653
35.3842 23.7818
35.4311 23.6745
35.4779 23.5659
35.5248 23.6317
35.5716 23.4654
35.6185 23.374
35.6653 23.3539
35.7123 23.2638
35.759 23.2204
35.806 23.0994
35.8528 23.0337
35.8998 22.9739
35.9468 22.8348
35.9936 22.7837
36.0406 22.7292
36.0874 22.7665
36.1345 22.6215
36.1813 22.5694
36.2283 22.4327
36.2752 22.2809
36.3222 22.4063
36.3691 22.295
36.4161 22.1488
36.463 22.1117
36.5101 22.1778
36.557 22.043
36.6041 21.9506
36.651 21.9334
36.6981 21.7989
36.745 21.8968
36.7921 21.6813
36.839 21.6079
36.8861 21.5464
36.9331 21.5155
36.9802 21.4549
37.0272 21.3781
37.0743 21.3044
37.1213 21.2032
37.1684 21.1828
37.2154 21.1517
37.2626 20.9824
37.3098 20.9837
37.3568 20.8432
37.404 20.7834
37.451 20.7564
37.4982 20.6881
37.5452 20.5683
37.5924 20.5004
37.6395 20.5587
37.6867 20.4516
37.7337 20.3955
37.781 20.2469
37.8281 20.2443
37.8753 20.1305
37.9224 20.1467
37.9697 20.126
38.0168 19.9447
38.064 19.9053
38.1111 19.8504
38.1584 19.8421
38.2056 19.776
38.2529 19.7107
38.3 19.6071
38.3473 19.599
38.3945 19.4924
38.4418 19.4587
38.489 19.4118
38.5363 19.2814
38.5837 19.2527
38.6309 19.2144
38.6782 19.1529
38.7254 18.9745
38.7728 18.9648
38.82 18.8549
38.8674 18.8712
38.9146 18.8318
38.9621 18.6888
39.0093 18.6726
39.0567 18.6608
39.104 18.6019
39.1514 18.5297
39.1987 18.4822
39.2461 18.4226
39.2934 18.3408
39.3409 18.2153
39.3882 18.1499
39.4356 18.1424
39.483 18.0838
39.5304 17.9943
39.5778 17.9938
39.6253 17.9648
39.6726 17.921
39.7201 17.887
39.7675 17.7674
39.815 17.7276
39.8624 17.601
39.9099 17.6031
39.9575 17.4949
40.0049 17.4793
40.0525 17.4183
40.0999 17.3456
40.1474 17.3665
40.1949 17.2643
40.2425 17.1598
40.2899 17.1846
40.3375 17.1667
40.385 17.0476
40.4326 16.9989
40.48 16.8833
40.5277 16.9134
40.5752 16.8385
40.6228 16.7366
40.6703 16.7548
40.718 16.6719
40.7655 16.6035
40.8132 16.5827
40.8607 16.528
40.9084 16.4496
40.9559 16.3631
41.0036 16.3287
41.0512 16.3245
41.0989 16.2963
41.1465 16.2037
41.1942 16.1556
41.242 16.0738
41.2896 16.0346
41.3373 15.9427
41.3849 15.9553
41.4327 15.8349
41.4803 15.8493
41.5281 15.7667
41.5758 15.6782
41.6236 15.6341
41.6712 15.6101
41.7191 15.5354
41.7667 15.5015
41.8146 15.4709
41.8622 15.4143
41.9101 15.365
41.9578 15.2727
42.0057 15.2287
42.0534 15.1321
42.1013 15.1602
42.149 15.0856
42.1969 15.0096
42.2446 15.0056
42.2925 14.9541
42.3403 14.8277
42.3882 14.8789
42.436 14.8081
42.4839 14.7349
42.5319 14.6971
42.5797 14.6278
42.6277 14.5848
42.6755 14.5749
42.7235 14.4518
42.7713 14.4566
42.8193 14.3717
42.8671 14.3519
42.9152 14.3205
42.963 14.3112
43.0111 14.1994
43.0589 14.1428
43.107 14.0758
43.1549 14.0173
43.2029 14.0344
43.2508 13.9705
43.2989 13.8939
43.3468 13.8182
43.3949 13.8336
43.4429 13.7881
43.491 13.6978
43.5389 13.7179
43.5871 13.6385
43.635 13.5857
43.6832 13.5688
43.7312 13.4613
43.7793 13.4852
43.8273 13.3877
43.8755 13.327
43.9237 13.348
43.9717 13.3009
44.0199 13.1861
44.068 13.1733
44.1162 13.1364
44.1642 13.113
44.2125 13.0226
44.2606 12.9834
44.3088 12.9206
44.3569 12.8865
44.4052 12.8754
44.4533 12.7701
44.5016 12.7482
44.5497 12.7187
44.598 12.6759
44.6461 12.6089
44.6945 12.555
44.7426 12.5697
44.791 12.4768
44.8391 12.419
44.8875 12.4102
44.9357 12.3618
44.984 12.3441
45.0322 12.3075
45.0806 12.2433
45.1288 12.2024
45.1773 12.1268
45.2257 12.0718
45.2739 12.1024
45.3224 12.0114
45.3706 11.9788
45.4191 11.9142
45.4673 11.8876
45.5158 11.857
45.5641 11.8072
45.6126 11.7562
45.6609 11.7043
45.7094 11.6539
45.7577 11.6546
45.8063 11.57
45.8546 11.5864
45.9031 11.514
45.9515 11.43
46.0001 11.3976
46.0484 11.3748
46.097 11.3668
46.1454 11.3573
46.194 11.2675
46.2424 11.2009
46.291 11.1807
46.3395 11.145
46.3881 11.0868
46.4365 11.093
46.4852 11.0439
46.5337 10.9416
46.5823 10.9509
46.631 10.9122
46.6795 10.8864
46.7282 10.7888
46.7767 10.8168
46.8254 10.7438
46.8739 10.7185
46.9226 10.6768
46.9712 10.6097
47.0199 10.6068
47.0685 10.5512
47.1173 10.5184
47.1658 10.4383
47.2146 10.4781
47.2632 10.4392
47.312 10.3562
47.3606 10.3032
47.4095 10.2284
47.4581 10.2663
47.5069 10.1973
47.5556 10.1599
47.6044 10.1192
47.6531 10.0991
47.702 10.0441
47.7507 10.022
47.7996 9.97245
47.8483 9.94192
47.8972 9.94332
47.9461 9.88435
47.9948 9.82361
48.0438 9.76663
48.0925 9.77348
48.1415 9.72707
48.1902 9.66759
48.2392 9.66108
48.288 9.58802
48.337 9.60007
48.3858 9.55913
48.4348 9.51996
48.4837 9.51079
48.5327 9.43143
48.5815 9.42414
48.6306 9.39239
48.6795 9.34407
48.7285 9.31813
48.7774 9.27827
48.8265 9.27007
48.8754 9.20195
48.9245 9.17879
48.9734 9.15335
49.0226 9.11448
49.0715 9.07723
49.1206 9.06866
49.1696 9.01249
49.2188 8.96637
49.2679 8.95086
49.3169 8.85429
49.3661 8.8719
49.4151 8.80498
49.4643 8.82392
49.5134 8.78565
49.5626 8.70276
49.6117 8.66754
49.6609 8.67742
49.71 8.6235
49.7592 8.60985
49.8083 8.59673
49.8576 8.55273
49.9067 8.47186
49.956 8.44448
50.0052 8.41066
50.0545 8.39586
50.1036 8.38033
50.153 8.33281
50.2022 8.31158
50.2515 8.28886
50.3007 8.22985
50.3501 8.17088
50.3993 8.20879
50.4487 8.12025
50.498 8.11529
50.5474 8.10763
50.5966 8.04618
50.6461 8.02722
50.6955 8.0025
50.7448 7.9449
50.7943 7.91664
50.8436 7.88127
50.8931 7.87101
50.9424 7.86602
50.9919 7.81151
51.0413 7.8008
51.0908 7.72234
51.1402 7.72124
51.1897 7.69457
51.2391 7.63556
51.2887 7.6096
51.3381 7.57469
51.3877 7.58768
51.4371 7.48456
51.4867 7.44814
51.5362 7.48652
51.5858 7.42295
51.6353 7.39633
51.6849 7.36996
51.7344 7.35817
51.7841 7.33048
51.8336 7.28598
51.8833 7.26093
51.9328 7.20296
51.9826 7.18084
52.0323 7.17152
52.0818 7.16582
52.1316 7.11563
52.1812 7.05951
52.231 7.01263
52.2806 7.01733
52.3304 7.00891
52.38 6.95392
52.4298 6.93514
52.4794 6.85578
52.5293 6.87309
52.5789 6.86345
52.6288 6.82168
52.6785 6.78334
52.7284 6.75318
52.7781 6.75798
52.828 6.7178
52.8777 6.6567
52.9276 6.61355
52.9774 6.59768
53.0273 6.63321
53.0771 6.55566
53.1271 6.54078
53.1769 6.52005
53.2269 6.51657
53.2767 6.47408
53.3267 6.43367
53.3765 6.38572
53.4266 6.36552
53.4766 6.31171
53.5265 6.29366
53.5765 6.31523
53.6264 6.24532
53.6765 6.18876
53.7264 6.19012
53.7765 6.22011
53.8265 6.17528
53.8766 6.11201
53.9266 6.14275
53.9767 6.00747
54.0267 6.03968
54.0769 6.02881
54.1269 6.01299
54.1771 6.00546
54.2271 5.93054
54.2773 5.87876
54.3274 5.85304
54.3776 5.83805
54.4277 5.83099
54.478 5.77501
54.528 5.71913
54.5783 5.73158
54.6285 5.67936
54.6788 5.5865
54.7289 5.57396
54.7792 5.5386
54.8296 5.4788
54.8798 5.46112
54.9301 5.46035
54.9803 5.40458
55.0307 5.36787
55.0809 5.30497
55.1314 5.30153
55.1816 5.253
55.232 5.18124
55.2823 5.15107
55.3328 5.12825
55.383 5.0645
55.4335 5.00995
55.4838 4.91898
55.5344 4.92286
55.5847 4.80911
55.6352 4.81335
55.6856 4.82748
55.7361 4.79035