File: XRD/Ni3Fe_FD0177.xy
TT I
1.27165 8.43935
1.31627 6.88333
1.36089 7.36723
1.40551 6.65226
1.45013 5.96786
1.49476 6.57534
1.53938 6.1278
1.584 6.103
1.62863 5.83032
1.67325 5.4723
1.71787 5.25906
1.7625 5.65889
1.80712 5.02774
1.85174 4.94233
1.89636 5.06734
1.94099 5.1102
1.98562 5.15329
2.03025 4.71946
2.07487 4.70914
2.11949 4.6998
2.16411 4.70153
2.20874 5.36443
2.25338 4.57055
2.298 4.26452
2.34263 4.23404
2.38725 4.42727
2.43188 4.79023
2.4765 4.92174
2.52115 4.65969
2.56577 4.90797
2.6104 5.67003
2.65503 5.22642
2.69965 5.74223
2.7443 5.85084
2.78893 6.2139
2.83356 7.71372
2.87818 8.41698
2.92281 9.20307
2.96744 9.84945
3.01209 11.1503
3.05672 11.6435
3.10135 12.0332
3.14599 12.8202
3.19062 14.7878
3.23527 14.8642
3.2799 15.8012
3.32454 16.9482
3.36917 17.7302
3.4138 18.9308
3.45844 19.9603
3.50309 20.5241
3.54773 21.1726
3.59237 22.1178
3.637 22.8247
3.68164 23.4139
3.7263 24.4143
3.77094 25.2354
3.81558 25.6558
3.86022 26.5929
3.90486 28.1909
3.9495 28.7042
3.99416 29.9006
4.0388 31.3021
4.08344 31.8515
4.12809 32.9224
4.17273 34.5468
4.21738 35.8142
4.26204 36.5698
4.30669 38.1939
4.35133 40.2525
4.39598 41.607
4.44063 43.4781
4.4853 45.2404
4.52995 47.6983
4.5746 49.7963
4.61925 52.2823
4.6639 53.8787
4.70855 56.5314
4.75322 60.0811
4.79788 62.821
4.84253 66.4551
4.88719 70.7597
4.93184 75.3786
4.97652 82.4054
5.02118 90.8198
5.06583 101.116
5.11049 116.378
5.15515 151.947
5.19981 519.035
5.24449 3738.85
5.28916 8587.4
5.33382 6169.48
5.37848 410.564
5.42315 159.999
5.46783 126.403
5.5125 113.809
5.55716 107.579
5.60183 101.503
5.6465 98.7419
5.69117 97.5518
5.73586 95.4473
5.78053 95.0425
5.8252 95.6771
5.86988 97.9662
5.91455 104.991
5.95924 122.927
6.00392 279.558
6.0486 1369.45
6.09328 2865.7
6.13795 4058.64
6.18263 646.21
6.22733 119.391
6.27201 88.7486
6.3167 78.3632
6.36138 72.6558
6.40606 68.6996
6.45075 66.886
6.49545 64.8308
6.54014 62.6492
6.58483 60.9396
6.62952 60.0861
6.67421 58.753
6.71892 57.5881
6.76361 56.901
6.8083 56.0262
6.853 55.2578
6.89769 55.1663
6.94239 54.5847
6.98711 53.5613
7.03181 53.4429
7.07651 53.379
7.12121 52.7355
7.16591 53.1357
7.21063 52.3039
7.25533 52.216
7.30004 52.5455
7.34475 52.3902
7.38945 52.6146
7.43416 52.2246
7.47889 52.1264
7.5236 55.7117
7.56831 61.8191
7.61303 54.955
7.65774 53.8104
7.70247 54.2244
7.74719 54.8458
7.79191 55.5498
7.83663 55.4475
7.88135 56.5699
7.92607 57.5994
7.97081 58.6846
8.01553 59.5886
8.06026 60.731
8.10498 62.5427
8.14971 63.9461
8.19446 65.8186
8.23919 68.3418
8.28392 70.9268
8.32865 73.9981
8.37339 78.7078
8.41812 84.0904
8.46288 95.4972
8.50761 169.951
8.55235 588.347
8.59709 919.124
8.64183 1573.02
8.68658 1640.45
8.73134 397.7
8.77609 115.445
8.82083 97.3801
8.86558 91.4435
8.91033 88.1892
8.9551 85.8316
8.99985 84.2395
9.04461 83.7082
9.08936 82.8571
9.13412 81.6158
9.17888 81.9083
9.22365 86.6568
9.26841 94.7693
9.31318 85.6889
9.35794 82.7948
9.4027 82.4803
9.44749 83.414
9.49226 84.3163
9.53703 84.6632
9.5818 86.6168
9.62657 87.5116
9.67134 89.2812
9.71614 91.424
9.76091 93.2951
9.80569 96.1283
9.85047 99.2806
9.89525 104.218
9.94005 113.858
9.98484 182.706
10.0296 535.147
10.0744 753.792
10.1192 1083.67
10.164 1715.86
10.2088 949.38
10.2536 208.248
10.2984 116.264
10.3432 108.123
10.388 105.143
10.4328 121.188
10.4776 212.519
10.5224 266.748
10.5672 345.203
10.612 501.308
10.6568 365.119
10.7017 133.37
10.7465 90.6149
10.7913 84.0513
10.8361 81.0358
10.8809 78.445
10.9257 76.0942
10.9706 74.8039
11.0154 73.0693
11.0602 71.7046
11.105 70.5613
11.1499 68.9807
11.1947 68.3844
11.2395 66.7426
11.2844 66.8221
11.3292 65.6951
11.374 65.1613
11.4189 64.4714
11.4637 63.7728
11.5086 62.9903
11.5534 62.9499
11.5983 62.3446
11.6431 62.2583
11.688 62.0291
11.7328 61.9719
11.7777 61.7101
11.8225 61.5682
11.8674 61.6902
11.9122 62.5945
11.9571 65.63
12.002 65.0911
12.0468 67.705
12.0917 90.0616
12.1366 108.318
12.1814 121.33
12.2263 156.229
12.2712 194.778
12.3161 134.007
12.3609 73.9348
12.4058 64.4131
12.4507 63.8814
12.4956 63.7399
12.5405 63.3246
12.5853 63.9407
12.6302 64.1941
12.6751 64.9129
12.72 65.6504
12.7649 66.6808
12.8098 67.2846
12.8547 68.8408
12.8996 70.3268
12.9445 71.6382
12.9894 73.6005
13.0343 75.4025
13.0792 79.546
13.1242 86.6446
13.1691 131.813
13.214 185.643
13.2589 209.85
13.3038 257.084
13.3487 363.591
13.3937 378.409
13.4386 202.979
13.4835 118.183
13.5285 153.19
13.5734 182.528
13.6183 199.054
13.6633 249.672
13.7082 340.192
13.7531 303.76
13.7981 150.032
13.843 88.0568
13.888 80.9827
13.9329 78.1106
13.9779 76.4044
14.0228 74.6927
14.0678 73.5226
14.1127 73.0226
14.1577 74.2628
14.2027 72.5177
14.2476 70.9235
14.2926 69.7358
14.3376 69.3389
14.3825 69.0285
14.4275 68.5362
14.4725 68.5793
14.5175 68.6097
14.5624 68.4978
14.6074 68.8402
14.6524 69.5968
14.6974 70.2063
14.7424 71.7545
14.7874 80.7242
14.8324 106.564
14.8774 121.759
14.9224 130.538
14.9674 154.216
15.0124 198.45
15.0574 205.075
15.1024 135.218
15.1474 81.5489
15.1924 71.4428
15.2374 69.5651
15.2824 68.2025
15.3274 67.5029
15.3725 66.7045
15.4175 66.629
15.4625 66.1042
15.5076 65.824
15.5526 65.9339
15.5976 66.0646
15.6426 66.8513
15.6877 73.861
15.7327 94.4822
15.7778 107.629
15.8228 113.19
15.8679 128.743
15.9129 160.214
15.958 187.366
16.003 149.067
16.0481 87.2926
16.0931 66.3064
16.1382 61.9621
16.1833 60.7788
16.2283 59.2865
16.2734 58.2398
16.3185 57.4947
16.3636 56.9534
16.4086 56.0087
16.4537 56.0879
16.4988 55.3284
16.5439 55.4913
16.589 55.1177
16.6341 54.7445
16.6792 54.3025
16.7243 54.667
16.7694 54.5691
16.8145 54.4718
16.8596 54.6499
16.9047 54.8395
16.9498 55.3405
16.9949 55.2191
17.04 55.63
17.0851 56.8822
17.1302 61.2292
17.1754 64.6007
17.2205 65.9283
17.2656 68.0383
17.3108 73.7008
17.3559 80.7212
17.401 81.5677
17.4462 71.002
17.4913 61.739
17.5365 59.6343
17.5815 59.5391
17.6268 59.6743
17.6718 60.0785
17.7171 60.8005
17.7622 61.6069
17.8074 62.3859
17.8525 64.2474
17.8977 72.2079
17.9428 83.6896
17.9881 89.2017
18.0331 92.6503
18.0784 100.989
18.1237 118.264
18.1688 143.172
18.214 141.361
18.2591 110.07
18.3044 89.3087
18.3495 88.4619
18.3948 97.1008
18.4399 104.952
18.4852 95.1352
18.5303 75.8743
18.5756 65.3505
18.6207 62.552
18.666 61.2819
18.7112 60.6747
18.7565 59.6099
18.8016 59.241
18.8469 58.8174
18.892 58.2627
18.9374 57.8556
18.9825 57.4302
19.0278 57.1856
19.073 57.0612
19.1183 57.539
19.1635 59.8963
19.2088 62.0827
19.254 62.9771
19.2993 63.8966
19.3447 66.4837
19.3898 70.2437
19.4352 74.8581
19.4804 72.4699
19.5257 63.7152
19.5709 56.6007
19.6163 54.8184
19.6615 54.0058
19.7068 53.9056
19.752 53.9354
19.7974 53.763
19.8426 54.9587
19.888 56.9554
19.9332 58.6137
19.9786 59.1493
20.0238 59.8477
20.0692 62.8804
20.1144 68.0614
20.1598 73.3165
20.205 71.2492
20.2504 65.7734
20.2957 61.9662
20.3411 62.6337
20.3863 65.3436
20.4318 64.5381
20.477 59.261
20.5224 53.6085
20.5677 51.45
20.6131 50.895
20.6586 50.1034
20.7038 49.9038
20.7493 49.6654
20.7945 49.6862
20.84 49.3411
20.8853 49.4265
20.9307 48.9478
20.976 49.3006
21.0215 49.4296
21.0668 49.7902
21.1122 49.873
21.1575 49.8538
21.203 50.1449
21.2483 50.7535
21.2938 51.9118
21.3391 51.8616
21.3846 50.7487
21.4299 49.6801
21.4754 49.0564
21.5207 49.0863
21.5662 49.3281
21.6116 49.8283
21.6571 51.3659
21.7024 53.4561
21.7479 54.4605
21.7933 55.1248
21.8388 56.5504
21.8843 59.6899
21.9297 63.3257
21.9752 66.69
22.0206 66.0969
22.0661 60.7449
22.1115 56.9082
22.157 56.2312
22.2024 57.0811
22.248 55.3768
22.2933 52.7987
22.3389 50.4578
22.3843 49.7965
22.4299 49.3004
22.4753 49.1826
22.5208 49.1681
22.5662 49.1893
22.6118 49.0712
22.6572 49.5315
22.7028 50.6505
22.7483 51.8155
22.7939 52.1416
22.8393 52.5804
22.8849 53.2498
22.9303 54.1305
22.9759 55.828
23.0214 57.9864
23.067 58.8219
23.1126 56.3929
23.1581 52.6104
23.2037 50.2531
23.2492 49.5813
23.2948 50.1261
23.3403 51.2864
23.3859 52.1523
23.4314 52.2677
23.477 52.323
23.5225 53.0885
23.5682 54.4329
23.6137 56.6269
23.6593 58.5007
23.7048 57.4867
23.7505 53.3517
23.796 49.3806
23.8417 47.2214
23.8872 46.4992
23.9329 46.041
23.9784 45.5991
24.0241 45.3535
24.0697 45.09
24.1154 44.7893
24.1609 44.449
24.2066 44.2664
24.2522 44.1956
24.2979 43.9964
24.3434 43.9047
24.3892 43.7182
24.4349 43.5837
24.4805 43.3736
24.5262 43.434
24.5718 43.3035
24.6175 43.3098
24.6631 43.4615
24.7089 43.2081
24.7545 43.0161
24.8002 42.6994
24.8458 42.797
24.8916 42.8098
24.9372 43.0084
24.983 43.1941
25.0286 43.3397
25.0744 43.973
25.12 44.0917
25.1658 44.8421
25.2114 45.1518
25.2572 45.5026
25.3029 45.3733
25.3487 45.2654
25.3943 45.4271
25.4402 45.2458
25.4858 44.7532
25.5316 43.4393
25.5773 41.9828
25.6231 41.6759
25.669 41.2177
25.7147 41.0534
25.7605 41.0654
25.8062 41.304
25.8521 41.5619
25.8977 41.1421
25.9436 41.3267
25.9893 41.2692
26.0352 41.4465
26.0809 41.6706
26.1268 42.0379
26.1725 42.3766
26.2184 42.367
26.2641 41.6719
26.31 41.1705
26.3557 41.3046
26.4017 41.1047
26.4474 41.3907
26.4933 41.334
26.5391 41.6281
26.585 41.9
26.6308 42.2044
26.6767 42.5574
26.7225 43.0706
26.7684 42.9344
26.8142 42.4357
26.8601 41.6898
26.9059 41.2498
26.9519 40.6962
26.9979 40.3169
27.0437 39.8058
27.0896 39.5852
27.1354 39.4754
27.1814 39.3236
27.2272 39.3057
27.2732 39.1799
27.3191 39.0705
27.3651 39.1534
27.4109 39.0053
27.4569 38.9896
27.5027 39.0193
27.5488 39.0678
27.5946 39.1388
27.6407 39.209
27.6865 39.0752
27.7326 38.9125
27.7784 38.7971
27.8245 38.5311
27.8703 38.67
27.9164 38.8438
27.9623 38.8393
28.0084 39.0035
28.0543 39.5074
28.1003 39.5768
28.1462 39.839
28.1923 39.6761
28.2384 39.1731
28.2843 38.7585
28.3304 38.3789
28.3764 37.8918
28.4225 37.4149
28.4684 37.0194
28.5145 36.5871
28.5605 36.4716
28.6066 36.3287
28.6526 36.2913
28.6987 36.22
28.7447 36.061
28.7908 35.878
28.8368 35.7344
28.8829 35.905
28.9289 35.7993
28.9751 35.7127
29.0211 35.7198
29.0673 35.4601
29.1133 35.2261
29.1595 35.147
29.2055 34.9471
29.2517 34.763
29.2977 34.7983
29.3439 34.6301
29.3899 34.664
29.4361 34.7004
29.4824 34.6145
29.5284 34.5639
29.5746 34.2592
29.6207 33.8226
29.6669 33.6845
29.713 33.4799
29.7593 33.2616
29.8053 33.3931
29.8516 33.3388
29.8977 33.2176
29.9439 33.093
29.99 33.0513
30.0363 32.9195
30.0824 32.9395
30.1287 32.8317
30.1748 32.9419
30.2211 32.7893
30.2673 32.7787
30.3136 32.9722
30.3597 32.9912
30.406 32.828
30.4522 32.6372
30.4985 32.6463
30.5447 32.6566
30.591 32.6416
30.6372 32.611
30.6835 32.5739
30.7297 32.6966
30.7761 32.7645
30.8224 32.8759
30.8686 32.4528
30.915 32.375
30.9612 32.2766
31.0076 32.0938
31.0538 31.9091
31.1002 31.734
31.1464 31.5208
31.1928 31.5119
31.2391 31.6242
31.2855 31.4666
31.3317 31.323
31.3781 31.4228
31.4244 31.3774
31.4708 31.2555
31.5171 31.27
31.5636 31.3872
31.6098 31.2779
31.6563 31.0754
31.7026 30.975
31.7491 30.7234
31.7953 30.7588
31.8418 30.6398
31.8881 30.5742
31.9346 30.5461
31.9809 30.5327
32.0275 30.5276
32.074 30.4472
32.1203 30.3251
32.1668 30.1307
32.2132 30.0645
32.2597 29.8538
32.306 29.7551
32.3526 29.4926
32.399 29.4787
32.4455 29.2547
32.4919 29.1775
32.5385 29.1552
32.5848 28.9508
32.6314 29.0077
32.6778 28.9038
32.7244 28.6827
32.7708 28.5696
32.8174 28.6468
32.8638 28.4558
32.9104 28.5448
32.9569 28.505
33.0035 28.3999
33.0499 28.2905
33.0966 28.293
33.143 28.2021
33.1897 28.1423
33.2361 28.0822
33.2828 28.0844
33.3293 27.9441
33.3759 27.938
33.4226 27.7725
33.4691 27.6466
33.5158 27.5865
33.5623 27.4487
33.609 27.2942
33.6555 27.1598
33.7022 27.0347
33.7487 26.9806
33.7954 26.95
33.842 26.8251
33.8887 26.7602
33.9353 26.6936
33.982 26.6444
34.0286 26.5217
34.0753 26.5327
34.1219 26.3654
34.1687 26.2286
34.2152 26.2419
34.262 25.9991
34.3086 25.962
34.3554 25.9502
34.402 25.8432
34.4488 25.7725
34.4954 25.7103
34.5422 25.5695
34.5889 25.4137
34.6357 25.3969
34.6825 25.3095
34.7292 25.2526
34.776 25.1432
34.8227 25.1251
34.8695 25.0548
34.9162 24.9525
34.9631 24.8394
35.0098 24.8574
35.0566 24.7434
35.1033 24.7945
35.1502 24.6635
35.1969 24.6132
35.2438 24.5148
35.2906 24.488
35.3375 24.3496
35.3842 24.2787
35.4311 24.2487
35.4779 24.4282
35.5248 24.3256
35.5716 24.2061
35.6185 24.1452
35.6653 24.0336
35.7123 23.9654
35.759 23.9058
35.806 23.7527
35.8528 23.7102
35.8998 23.5885
35.9468 23.4831
35.9936 23.4581
36.0406 23.4278
36.0874 23.3357
36.1345 23.2182
36.1813 23.2286
36.2283 23.1252
36.2752 23.017
36.3222 23.1091
36.3691 22.9732
36.4161 22.8151
36.463 22.798
36.5101 22.7892
36.557 22.7015
36.6041 22.6293
36.651 22.5353
36.6981 22.5103
36.745 22.4488
36.7921 22.4236
36.839 22.2895
36.8861 22.2513
36.9331 22.2341
36.9802 22.0558
37.0272 21.9282
37.0743 21.8989
37.1213 21.8629
37.1684 21.7676
37.2154 21.678
37.2626 21.6026
37.3098 21.5737
37.3568 21.4635
37.404 21.4517
37.451 21.3245
37.4982 21.3123
37.5452 21.1748
37.5924 21.1155
37.6395 21.1818
37.6867 21.0049
37.7337 20.9956
37.781 20.8888
37.8281 20.7391
37.8753 20.7185
37.9224 20.661
37.9697 20.6384
38.0168 20.5685
38.064 20.4568
38.1111 20.4146
38.1584 20.3852
38.2056 20.3209
38.2529 20.2509
38.3 20.1992
38.3473 20.1502
38.3945 19.9904
38.4418 19.9696
38.489 19.8854
38.5363 19.9245
38.5837 19.742
38.6309 19.7124
38.6782 19.6968
38.7254 19.5637
38.7728 19.5216
38.82 19.4517
38.8674 19.4078
38.9146 19.3623
38.9621 19.2985
39.0093 19.204
39.0567 19.1774
39.104 19.0917
39.1514 18.9978
39.1987 19.0097
39.2461 18.9318
39.2934 18.8864
39.3409 18.8063
39.3882 18.693
39.4356 18.6497
39.483 18.6134
39.5304 18.6066
39.5778 18.5594
39.6253 18.4649
39.6726 18.3392
39.7201 18.3393
39.7675 18.2
39.815 18.2086
39.8624 18.1769
39.9099 18.1477
39.9575 18.0159
40.0049 17.9684
40.0525 17.9378
40.0999 17.9085
40.1474 17.794
40.1949 17.7432
40.2425 17.6986
40.2899 17.6682
40.3375 17.6278
40.385 17.5204
40.4326 17.4807
40.48 17.3915
40.5277 17.3489
40.5752 17.3212
40.6228 17.2308
40.6703 17.1661
40.718 17.1717
40.7655 17.0985
40.8132 17.0222
40.8607 17.0032
40.9084 17.0325
40.9559 16.8403
41.0036 16.8398
41.0512 16.7895
41.0989 16.7031
41.1465 16.6794
41.1942 16.6274
41.242 16.5436
41.2896 16.5029
41.3373 16.3912
41.3849 16.3731
41.4327 16.355
41.4803 16.2845
41.5281 16.2238
41.5758 16.1583
41.6236 16.078
41.6712 16.0142
41.7191 15.9917
41.7667 15.9597
41.8146 15.8568
41.8622 15.8761
41.9101 15.7654
41.9578 15.6995
42.0057 15.6558
42.0534 15.679
42.1013 15.5915
42.149 15.5475
42.1969 15.4844
42.2446 15.3812
42.2925 15.3839
42.3403 15.3032
42.3882 15.3403
42.436 15.3005
42.4839 15.1479
42.5319 15.0941
42.5797 15.0358
42.6277 15.0256
42.6755 14.944
42.7235 14.8621
42.7713 14.8714
42.8193 14.8498
42.8671 14.6955
42.9152 14.7412
42.963 14.6896
43.0111 14.5611
43.0589 14.528
43.107 14.4899
43.1549 14.439
43.2029 14.4155
43.2508 14.3855
43.2989 14.3282
43.3468 14.2238
43.3949 14.2245
43.4429 14.1734
43.491 14.1087
43.5389 14.0607
43.5871 14.0177
43.635 13.9826
43.6832 13.9206
43.7312 13.8026
43.7793 13.8124
43.8273 13.7729
43.8755 13.7284
43.9237 13.6866
43.9717 13.6726
44.0199 13.5343
44.068 13.512
44.1162 13.4908
44.1642 13.4852
44.2125 13.3904
44.2606 13.3336
44.3088 13.3058
44.3569 13.2793
44.4052 13.1935
44.4533 13.1682
44.5016 13.1265
44.5497 13.0479
44.598 12.9913
44.6461 12.9427
44.6945 12.9192
44.7426 12.8645
44.791 12.8342
44.8391 12.7472
44.8875 12.7894
44.9357 12.7258
44.984 12.6597
45.0322 12.5979
45.0806 12.5575
45.1288 12.5165
45.1773 12.4608
45.2257 12.4296
45.2739 12.3771
45.3224 12.3456
45.3706 12.3247
45.4191 12.2468
45.4673 12.2556
45.5158 12.1703
45.5641 12.123
45.6126 12.1092
45.6609 12.0784
45.7094 11.9946
45.7577 11.926
45.8063 11.8475
45.8546 11.9179
45.9031 11.8475
45.9515 11.8061
46.0001 11.7638
46.0484 11.7313
46.097 11.6976
46.1454 11.6045
46.194 11.5935
46.2424 11.4951
46.291 11.5094
46.3395 11.4591
46.3881 11.3978
46.4365 11.4154
46.4852 11.33
46.5337 11.2906
46.5823 11.2464
46.631 11.1944
46.6795 11.1585
46.7282 11.1223
46.7767 11.0854
46.8254 11.0134
46.8739 11.0251
46.9226 10.9451
46.9712 10.8402
47.0199 10.8895
47.0685 10.8559
47.1173 10.797
47.1658 10.736
47.2146 10.7044
47.2632 10.6303
47.312 10.627
47.3606 10.5586
47.4095 10.5997
47.4581 10.5103
47.5069 10.4869
47.5556 10.429
47.6044 10.404
47.6531 10.3214
47.702 10.3211
47.7507 10.2879
47.7996 10.2434
47.8483 10.2188
47.8972 10.1724
47.9461 10.1711
47.9948 10.0701
48.0438 10.0947
48.0925 10.0767
48.1415 10.0113
48.1902 9.97281
48.2392 9.94009
48.288 9.88073
48.337 9.86741
48.3858 9.80742
48.4348 9.81369
48.4837 9.78358
48.5327 9.73605
48.5815 9.67664
48.6306 9.67477
48.6795 9.60916
48.7285 9.55758
48.7774 9.53658
48.8265 9.49475
48.8754 9.46534
48.9245 9.43509
48.9734 9.37792
49.0226 9.3644
49.0715 9.29725
49.1206 9.30211
49.1696 9.25658
49.2188 9.2395
49.2679 9.20962
49.3169 9.15329
49.3661 9.08464
49.4151 9.05549
49.4643 9.03314
49.5134 9.01274
49.5626 8.93424
49.6117 8.9594
49.6609 8.93861
49.71 8.87187
49.7592 8.85584
49.8083 8.77324
49.8576 8.76515
49.9067 8.71592
49.956 8.67312
50.0052 8.64876
50.0545 8.63886
50.1036 8.59463
50.153 8.5575
50.2022 8.54405
50.2515 8.49693
50.3007 8.47124
50.3501 8.43193
50.3993 8.40033
50.4487 8.36148
50.498 8.3513
50.5474 8.28979
50.5966 8.32687
50.6461 8.24633
50.6955 8.21961
50.7448 8.20693
50.7943 8.1789
50.8436 8.12311
50.8931 8.14231
50.9424 8.08159
50.9919 8.04416
51.0413 8.04228
51.0908 7.92166
51.1402 7.92227
51.1897 7.91771
51.2391 7.88022
51.2887 7.80519
51.3381 7.7865
51.3877 7.77723
51.4371 7.75254
51.4867 7.69611
51.5362 7.7059
51.5858 7.65517
51.6353 7.59244
51.6849 7.60939
51.7344 7.55968
51.7841 7.54439
51.8336 7.48757
51.8833 7.44085
51.9328 7.40848
51.9826 7.39106
52.0323 7.34091
52.0818 7.31947
52.1316 7.3102
52.1812 7.3119
52.231 7.24592
52.2806 7.22788
52.3304 7.20051
52.38 7.16579
52.4298 7.10791
52.4794 7.07141
52.5293 7.06958
52.5789 7.04049
52.6288 7.02039
52.6785 7.02393
52.7284 6.92608
52.7781 6.91203
52.828 6.91607
52.8777 6.85983
52.9276 6.83636
52.9774 6.77258
53.0273 6.79767
53.0771 6.73698
53.1271 6.74574
53.1769 6.6665
53.2269 6.63427
53.2767 6.61988
53.3267 6.58384
53.3765 6.59857
53.4266 6.55256
53.4766 6.53007
53.5265 6.51815
53.5765 6.41983
53.6264 6.46702
53.6765 6.38596
53.7264 6.43011
53.7765 6.38191
53.8265 6.33234
53.8766 6.25441
53.9266 6.26863
53.9767 6.19966
54.0267 6.22531
54.0769 6.2005
54.1269 6.13759
54.1771 6.12864
54.2271 6.10556
54.2773 5.96885
54.3274 6.00474
54.3776 5.9447
54.4277 5.90786
54.478 5.88824
54.528 5.84812
54.5783 5.78347
54.6285 5.74984
54.6788 5.68477
54.7289 5.6567
54.7792 5.62284
54.8296 5.57641
54.8798 5.56315
54.9301 5.55878
54.9803 5.4914
55.0307 5.42606
55.0809 5.42454
55.1314 5.38337
55.1816 5.29106
55.232 5.21937
55.2823 5.2204
55.3328 5.11125
55.383 5.10431
55.4335 5.05208
55.4838 4.95265
55.5344 4.97748
55.5847 4.89818
55.6352 4.89012
55.6856 4.9035
55.7361 4.80117