File: XRD/Ni3Fe_FD1068.xy
TT I
1.27165 7.04798
1.31627 6.56074
1.36089 5.52759
1.40551 5.96077
1.45013 5.69512
1.49476 5.12247
1.53938 4.99985
1.584 4.37013
1.62863 4.86742
1.67325 4.74831
1.71787 4.58452
1.7625 4.60865
1.80712 4.6024
1.85174 4.01867
1.89636 4.45929
1.94099 4.10129
1.98562 4.3171
2.03025 3.95779
2.07487 3.78069
2.11949 4.74734
2.16411 4.14181
2.20874 5.56554
2.25338 5.94332
2.298 5.00159
2.34263 5.36323
2.38725 6.06025
2.43188 6.18845
2.4765 7.05343
2.52115 7.0848
2.56577 7.49332
2.6104 8.96407
2.65503 8.80268
2.69965 8.56898
2.7443 8.08445
2.78893 8.15901
2.83356 8.65889
2.87818 8.4644
2.92281 9.24646
2.96744 9.52518
3.01209 10.2331
3.05672 10.4555
3.10135 11.8203
3.14599 12.7934
3.19062 13.9051
3.23527 14.6411
3.2799 15.1172
3.32454 16.5628
3.36917 17.1001
3.4138 17.92
3.45844 19.0122
3.50309 19.6901
3.54773 20.6091
3.59237 21.3627
3.637 27.3844
3.68164 26.828
3.7263 23.9335
3.77094 24.4854
3.81558 25.5743
3.86022 25.7403
3.90486 27.2419
3.9495 28.0087
3.99416 29.5309
4.0388 30.9581
4.08344 31.3813
4.12809 32.1156
4.17273 33.7558
4.21738 34.9104
4.26204 52.1689
4.30669 56.5339
4.35133 40.6153
4.39598 40.6521
4.44063 43.4441
4.4853 46.2519
4.52995 46.7916
4.5746 48.7412
4.61925 50.758
4.6639 52.7124
4.70855 55.4456
4.75322 58.2126
4.79788 60.8114
4.84253 64.0188
4.88719 67.9469
4.93184 71.7461
4.97652 76.6008
5.02118 82.7138
5.06583 89.1778
5.11049 97.4963
5.15515 117.927
5.19981 228.888
5.24449 2493.79
5.28916 13676.5
5.33382 3363.86
5.37848 209.586
5.42315 124.192
5.46783 108.009
5.5125 100.571
5.55716 97.5175
5.60183 93.6322
5.6465 91.0977
5.69117 89.911
5.73586 88.0614
5.78053 86.7031
5.8252 86.3273
5.86988 86.7402
5.91455 89.0385
5.95924 95.5859
6.00392 163.666
6.0486 885.569
6.09328 4559.51
6.13795 3645.2
6.18263 241.887
6.22733 87.2814
6.27201 75.9902
6.3167 72.6771
6.36138 68.3404
6.40606 65.2016
6.45075 63.5403
6.49545 61.8864
6.54014 60.213
6.58483 58.9644
6.62952 57.8573
6.67421 58.7296
6.71892 63.9346
6.76361 56.5992
6.8083 54.3221
6.853 53.7684
6.89769 53.5364
6.94239 53.1626
6.98711 52.7602
7.03181 51.9711
7.07651 52.3792
7.12121 52.1019
7.16591 51.3634
7.21063 50.933
7.25533 51.6305
7.30004 61.7602
7.34475 56.0339
7.38945 51.9503
7.43416 51.1229
7.47889 51.4853
7.5236 58.3106
7.56831 72.1197
7.61303 56.4479
7.65774 53.2627
7.70247 52.991
7.74719 53.3423
7.79191 53.796
7.83663 54.1593
7.88135 54.9497
7.92607 55.9883
7.97081 56.8118
8.01553 57.7109
8.06026 59.0296
8.10498 60.2796
8.14971 62.2312
8.19446 63.8601
8.23919 65.6127
8.28392 68.2589
8.32865 70.6294
8.37339 74.3267
8.41812 77.8359
8.46288 86.4623
8.50761 127.841
8.55235 375.009
8.59709 1103.64
8.64183 2295.04
8.68658 1112.38
8.73134 171.222
8.77609 95.0724
8.82083 88.4698
8.86558 85.6809
8.91033 83.488
8.9551 82.5744
8.99985 81.2411
9.04461 80.2409
9.08936 79.8336
9.13412 78.919
9.17888 79.2356
9.22365 90.568
9.26841 111.644
9.31318 88.8884
9.35794 79.9288
9.4027 79.8878
9.44749 80.4354
9.49226 81.1713
9.53703 81.5961
9.5818 83.5939
9.62657 84.5449
9.67134 86.6191
9.71614 87.8368
9.76091 89.2955
9.80569 91.7848
9.85047 93.9943
9.89525 99.0232
9.94005 106.301
9.98484 146.664
10.0296 347.601
10.0744 773.589
10.1192 1775.3
10.164 1732.46
10.2088 453.483
10.2536 125.536
10.2984 103.299
10.3432 101.062
10.388 97.8298
10.4328 107.548
10.4776 161.929
10.5224 272.784
10.5672 511.441
10.612 555.952
10.6568 232.618
10.7017 103.373
10.7465 86.3155
10.7913 79.7631
10.8361 77.7497
10.8809 75.6198
10.9257 73.6597
10.9706 72.4498
11.0154 70.7159
11.0602 69.436
11.105 68.0314
11.1499 67.1802
11.1947 67.4453
11.2395 65.8475
11.2844 64.6838
11.3292 63.7845
11.374 63.2097
11.4189 62.646
11.4637 62.0546
11.5086 61.2695
11.5534 61.0922
11.5983 60.8137
11.6431 60.7097
11.688 60.0984
11.7328 59.9967
11.7777 59.7742
11.8225 59.8331
11.8674 59.8994
11.9122 61.9235
11.9571 67.424
12.002 66.031
12.0468 64.2188
12.0917 76.6323
12.1366 99.0432
12.1814 146.777
12.2263 205.031
12.2712 177.642
12.3161 97.7164
12.3609 64.8357
12.4058 61.3047
12.4507 61.1341
12.4956 61.4592
12.5405 61.5936
12.5853 62.0906
12.6302 62.7736
12.6751 64.0401
12.72 64.0032
12.7649 64.549
12.8098 65.3067
12.8547 66.5262
12.8996 68.1011
12.9445 69.3823
12.9894 70.9302
13.0343 72.8087
13.0792 76.833
13.1242 82.7294
13.1691 107.894
13.214 148.683
13.2589 229.264
13.3038 369.8
13.3487 454.052
13.3937 282.87
13.4386 127.428
13.4835 99.2683
13.5285 120.09
13.5734 156.772
13.6183 236.927
13.6633 357.821
13.7082 364.522
13.7531 207.671
13.7981 100.212
13.843 79.7313
13.888 77.0199
13.9329 74.7854
13.9779 73.6405
14.0228 71.8999
14.0678 70.6482
14.1127 71.6449
14.1577 74.901
14.2027 73.3103
14.2476 68.8232
14.2926 67.3555
14.3376 67.3664
14.3825 67.1354
14.4275 66.3993
14.4725 66.0064
14.5175 66.3071
14.5624 66.5979
14.6074 66.8219
14.6524 67.2495
14.6974 67.5165
14.7424 68.5797
14.7874 74.2847
14.8324 88.6985
14.8774 110.163
14.9224 148.7
14.9674 209.318
15.0124 230.764
15.0574 160.229
15.1024 94.2806
15.1474 71.1743
15.1924 67.764
15.2374 66.7294
15.2824 65.6927
15.3274 64.9995
15.3725 64.5093
15.4175 64.2762
15.4625 63.8021
15.5076 63.5236
15.5526 63.5556
15.5976 63.4202
15.6426 63.8019
15.6877 68.7469
15.7327 79.7645
15.7778 95.0707
15.8228 123.227
15.8679 169.33
15.9129 202.952
15.958 169.969
16.003 105.113
16.0481 69.4828
16.0931 62.8687
16.1382 59.8461
16.1833 58.4641
16.2283 57.068
16.2734 56.1911
16.3185 55.6243
16.3636 55.3811
16.4086 54.4958
16.4537 54.1269
16.4988 53.266
16.5439 53.5069
16.589 53.1242
16.6341 52.9454
16.6792 52.4632
16.7243 52.6741
16.7694 52.7471
16.8145 52.855
16.8596 52.7971
16.9047 53.68
16.9498 54.3701
16.9949 53.9152
17.04 53.9271
17.0851 54.8897
17.1302 57.2399
17.1754 60.5578
17.2205 64.8876
17.2656 72.5792
17.3108 82.575
17.3559 82.8667
17.401 72.5605
17.4462 61.5827
17.4913 57.8518
17.5365 57.1887
17.5815 57.3353
17.6268 57.7869
17.6718 58.3218
17.7171 58.7504
17.7622 59.9524
17.8074 60.8388
17.8525 61.9367
17.8977 66.5979
17.9428 73.4504
17.9881 82.3264
18.0331 97.7557
18.0784 121.463
18.1237 142.639
18.1688 138.355
18.214 109.217
18.2591 88.6682
18.3044 88.7528
18.3495 99.7686
18.3948 107.585
18.4399 98.6414
18.4852 79.3326
18.5303 65.8419
18.5756 61.4022
18.6207 60.2272
18.666 59.222
18.7112 58.0987
18.7565 57.3863
18.8016 57.1781
18.8469 56.6923
18.892 56.3664
18.9374 55.6552
18.9825 55.4445
19.0278 55.2137
19.073 55.1141
19.1183 55.3502
19.1635 56.3786
19.2088 58.0883
19.254 60.9502
19.2993 65.6742
19.3447 72.1297
19.3898 76.2396
19.4352 72.3832
19.4804 63.4891
19.5257 56.426
19.5709 53.0418
19.6163 52.4768
19.6615 52.331
19.7068 52.0573
19.752 51.8051
19.7974 52.0368
19.8426 52.6951
19.888 53.7722
19.9332 55.346
19.9786 57.7751
20.0238 61.1862
20.0692 66.6454
20.1144 70.6188
20.1598 69.4258
20.205 64.2363
20.2504 61.9604
20.2957 63.7152
20.3411 65.6581
20.3863 64.1404
20.4318 58.4333
20.477 52.8545
20.5224 50.2079
20.5677 49.5091
20.6131 49.0015
20.6586 48.4874
20.7038 48.1452
20.7493 48.2678
20.7945 47.9107
20.84 47.8462
20.8853 47.5892
20.9307 47.2687
20.976 47.3886
21.0215 47.4199
21.0668 47.8005
21.1122 48.2033
21.1575 49.0149
21.203 49.5813
21.2483 50.533
21.2938 50.6168
21.3391 49.3527
21.3846 47.9591
21.4299 47.4983
21.4754 47.3861
21.5207 47.4307
21.5662 47.7053
21.6116 47.8922
21.6571 48.9029
21.7024 50.1361
21.7479 52.1148
21.7933 54.4589
21.8388 58.182
21.8843 63.0118
21.9297 65.479
21.9752 64.0984
22.0206 60.0768
22.0661 56.5404
22.1115 55.7634
22.157 56.2973
22.2024 54.5332
22.248 51.273
22.2933 49.1285
22.3389 47.9945
22.3843 47.7036
22.4299 47.791
22.4753 47.5642
22.5208 47.619
22.5662 47.3994
22.6118 47.6694
22.6572 47.7676
22.7028 48.2244
22.7483 48.9332
22.7939 49.8939
22.8393 51.396
22.8849 53.3441
22.9303 55.8735
22.9759 57.8297
23.0214 57.4367
23.067 54.9035
23.1126 51.0376
23.1581 48.7532
23.2037 47.8595
23.2492 47.8945
23.2948 47.8751
23.3403 48.742
23.3859 49.4965
23.4314 50.3844
23.477 52.3273
23.5225 54.7589
23.5682 57.2779
23.6137 58.678
23.6593 56.4698
23.7048 52.2113
23.7505 48.497
23.796 46.0877
23.8417 45.291
23.8872 44.5711
23.9329 44.3387
23.9784 44.0439
24.0241 43.88
24.0697 43.5569
24.1154 43.2247
24.1609 43.1022
24.2066 42.8601
24.2522 42.646
24.2979 42.5208
24.3434 42.3788
24.3892 42.2358
24.4349 42.2456
24.4805 41.9597
24.5262 42.2578
24.5718 42.0949
24.6175 42.2738
24.6631 42.0022
24.7089 41.7094
24.7545 41.5867
24.8002 41.3724
24.8458 41.3582
24.8916 41.1589
24.9372 41.3746
24.983 41.8533
25.0286 42.0827
25.0744 42.792
25.12 43.3983
25.1658 44.1039
25.2114 44.3991
25.2572 44.4039
25.3029 44.5653
25.3487 44.8335
25.3943 44.4071
25.4402 43.2491
25.4858 42.1577
25.5316 40.8341
25.5773 40.2003
25.6231 40.167
25.669 39.7887
25.7147 39.8256
25.7605 39.7178
25.8062 39.8782
25.8521 39.9464
25.8977 39.934
25.9436 40.2005
25.9893 40.2809
26.0352 40.9746
26.0809 41.1235
26.1268 41.4478
26.1725 40.9931
26.2184 40.3786
26.2641 39.7136
26.31 39.4768
26.3557 39.5106
26.4017 39.4773
26.4474 39.9249
26.4933 40.1217
26.5391 40.6357
26.585 41.2402
26.6308 41.9176
26.6767 42.0072
26.7225 41.854
26.7684 41.333
26.8142 40.557
26.8601 40.2009
26.9059 39.7462
26.9519 39.1888
26.9979 38.7511
27.0437 38.3238
27.0896 38.187
27.1354 38.2529
27.1814 37.939
27.2272 37.9494
27.2732 37.9647
27.3191 37.7932
27.3651 37.8397
27.4109 37.8198
27.4569 37.9688
27.5027 38.1237
27.5488 38.0631
27.5946 37.9352
27.6407 37.7687
27.6865 37.4842
27.7326 37.3462
27.7784 37.3614
27.8245 37.4325
27.8703 37.5015
27.9164 37.8049
27.9623 37.8628
28.0084 38.4286
28.0543 39.0823
28.1003 38.9286
28.1462 38.6761
28.1923 38.2892
28.2384 37.7705
28.2843 37.28
28.3304 36.846
28.3764 36.3681
28.4225 35.9598
28.4684 35.8473
28.5145 35.4182
28.5605 35.3151
28.6066 35.1683
28.6526 35.1037
28.6987 34.9946
28.7447 34.9379
28.7908 34.8215
28.8368 34.8651
28.8829 34.9661
28.9289 34.9153
28.9751 34.601
29.0211 34.3963
29.0673 34.0973
29.1133 34.0299
29.1595 33.9218
29.2055 33.836
29.2517 33.7679
29.2977 33.7118
29.3439 33.833
29.3899 33.7491
29.4361 33.7539
29.4824 33.644
29.5284 33.3297
29.5746 33.0087
29.6207 32.7112
29.6669 32.6013
29.713 32.4672
29.7593 32.2448
29.8053 32.2776
29.8516 32.1745
29.8977 32.1907
29.9439 32.0527
29.99 32.1028
30.0363 31.9598
30.0824 31.9991
30.1287 31.866
30.1748 31.9963
30.2211 31.9208
30.2673 31.8641
30.3136 31.9353
30.3597 31.8515
30.406 31.8112
30.4522 31.5855
30.4985 31.6755
30.5447 31.886
30.591 31.7102
30.6372 31.9038
30.6835 31.863
30.7297 31.8457
30.7761 31.8136
30.8224 31.7167
30.8686 31.4833
30.915 31.3464
30.9612 31.1669
31.0076 30.9004
31.0538 30.8435
31.1002 30.7305
31.1464 30.5816
31.1928 30.5412
31.2391 30.5713
31.2855 30.4632
31.3317 30.5098
31.3781 30.5718
31.4244 30.4989
31.4708 30.4856
31.5171 30.4225
31.5636 30.4754
31.6098 30.2469
31.6563 30.0629
31.7026 29.958
31.7491 29.761
31.7953 29.8113
31.8418 29.7101
31.8881 29.8512
31.9346 29.8549
31.9809 29.7607
32.0275 29.6108
32.074 29.5723
32.1203 29.3282
32.1668 29.1563
32.2132 29.0365
32.2597 28.9117
32.306 28.7756
32.3526 28.5159
32.399 28.4824
32.4455 28.3804
32.4919 28.2811
32.5385 28.3232
32.5848 28.1191
32.6314 28.1146
32.6778 28.0853
32.7244 27.8607
32.7708 27.7823
32.8174 27.8449
32.8638 27.6469
32.9104 27.679
32.9569 27.5966
33.0035 27.4657
33.0499 27.4507
33.0966 27.4848
33.143 27.418
33.1897 27.3003
33.2361 27.3286
33.2828 27.2377
33.3293 27.1565
33.3759 27.1244
33.4226 26.8865
33.4691 26.7851
33.5158 26.6904
33.5623 26.5892
33.609 26.3831
33.6555 26.2964
33.7022 26.2599
33.7487 26.2007
33.7954 26.1816
33.842 26.0614
33.8887 26.0371
33.9353 25.8865
33.982 25.7994
34.0286 25.7577
34.0753 25.6947
34.1219 25.5008
34.1687 25.4824
34.2152 25.4837
34.262 25.2361
34.3086 25.2875
34.3554 25.1537
34.402 25.1633
34.4488 24.8971
34.4954 24.9365
34.5422 24.864
34.5889 24.7551
34.6357 24.6663
34.6825 24.6479
34.7292 24.5251
34.776 24.4786
34.8227 24.3903
34.8695 24.2736
34.9162 24.2498
34.9631 24.1971
35.0098 24.1228
35.0566 24.0319
35.1033 23.9737
35.1502 23.9501
35.1969 23.8756
35.2438 23.8295
35.2906 23.796
35.3375 23.7189
35.3842 23.6722
35.4311 23.6978
35.4779 23.6435
35.5248 23.6843
35.5716 23.5108
35.6185 23.4462
35.6653 23.2845
35.7123 23.3136
35.759 23.2109
35.806 23.0673
35.8528 22.9864
35.8998 22.9436
35.9468 22.8604
35.9936 22.8466
36.0406 22.7414
36.0874 22.768
36.1345 22.66
36.1813 22.4898
36.2283 22.4858
36.2752 22.3436
36.3222 22.353
36.3691 22.3342
36.4161 22.1613
36.463 22.1948
36.5101 22.1837
36.557 22.1155
36.6041 22.0013
36.651 22.0019
36.6981 21.8918
36.745 21.7811
36.7921 21.7307
36.839 21.5756
36.8861 21.5191
36.9331 21.4103
36.9802 21.4283
37.0272 21.3597
37.0743 21.2306
37.1213 21.2029
37.1684 21.0759
37.2154 21.0616
37.2626 21.0227
37.3098 20.9906
37.3568 20.8672
37.404 20.7987
37.451 20.7949
37.4982 20.6987
37.5452 20.6286
37.5924 20.5493
37.6395 20.5355
37.6867 20.449
37.7337 20.3728
37.781 20.292
37.8281 20.2662
37.8753 20.1055
37.9224 20.0889
37.9697 19.9967
38.0168 19.9674
38.064 19.9009
38.1111 19.7998
38.1584 19.705
38.2056 19.7151
38.2529 19.6541
38.3 19.5894
38.3473 19.5394
38.3945 19.3347
38.4418 19.426
38.489 19.3226
38.5363 19.2976
38.5837 19.1895
38.6309 19.1367
38.6782 19.0931
38.7254 19.0649
38.7728 18.9612
38.82 18.9001
38.8674 18.8809
38.9146 18.7912
38.9621 18.7206
39.0093 18.7492
39.0567 18.6043
39.104 18.5733
39.1514 18.47
39.1987 18.4818
39.2461 18.4416
39.2934 18.3389
39.3409 18.2407
39.3882 18.1537
39.4356 18.1524
39.483 18.073
39.5304 18.0286
39.5778 18.0172
39.6253 17.8803
39.6726 17.8515
39.7201 17.7843
39.7675 17.7714
39.815 17.7116
39.8624 17.6148
39.9099 17.612
39.9575 17.4985
40.0049 17.4913
40.0525 17.3915
40.0999 17.3674
40.1474 17.2889
40.1949 17.2172
40.2425 17.2207
40.2899 17.1158
40.3375 17.0957
40.385 17.0448
40.4326 16.9219
40.48 16.9316
40.5277 16.8956
40.5752 16.8296
40.6228 16.7686
40.6703 16.6877
40.718 16.6683
40.7655 16.6663
40.8132 16.5606
40.8607 16.5332
40.9084 16.5564
40.9559 16.3921
41.0036 16.374
41.0512 16.3073
41.0989 16.3379
41.1465 16.1366
41.1942 16.0941
41.242 16.0682
41.2896 16.0475
41.3373 15.9523
41.3849 15.9095
41.4327 15.8397
41.4803 15.7714
41.5281 15.7579
41.5758 15.6797
41.6236 15.6623
41.6712 15.5871
41.7191 15.5682
41.7667 15.488
41.8146 15.4923
41.8622 15.4393
41.9101 15.3471
41.9578 15.2489
42.0057 15.2369
42.0534 15.178
42.1013 15.1305
42.149 15.0326
42.1969 15.0206
42.2446 14.9797
42.2925 14.9746
42.3403 14.9043
42.3882 14.8793
42.436 14.812
42.4839 14.6563
42.5319 14.6817
42.5797 14.6323
42.6277 14.6049
42.6755 14.5274
42.7235 14.4312
42.7713 14.4372
42.8193 14.4027
42.8671 14.3149
42.9152 14.289
42.963 14.2673
43.0111 14.1676
43.0589 14.0884
43.107 14.036
43.1549 14.0468
43.2029 13.9595
43.2508 13.9604
43.2989 13.876
43.3468 13.8735
43.3949 13.8522
43.4429 13.7716
43.491 13.6989
43.5389 13.6745
43.5871 13.6448
43.635 13.5512
43.6832 13.5384
43.7312 13.4656
43.7793 13.4322
43.8273 13.3687
43.8755 13.3163
43.9237 13.2681
43.9717 13.2653
44.0199 13.1806
44.068 13.176
44.1162 13.0574
44.1642 13.0622
44.2125 12.9823
44.2606 12.9636
44.3088 12.8473
44.3569 12.8887
44.4052 12.8593
44.4533 12.7533
44.5016 12.7241
44.5497 12.696
44.598 12.6981
44.6461 12.6329
44.6945 12.5928
44.7426 12.5312
44.791 12.4375
44.8391 12.4472
44.8875 12.3587
44.9357 12.3532
44.984 12.2918
45.0322 12.268
45.0806 12.1707
45.1288 12.2039
45.1773 12.1121
45.2257 12.1054
45.2739 12.0274
45.3224 11.9972
45.3706 11.9614
45.4191 11.915
45.4673 11.8945
45.5158 11.8483
45.5641 11.7977
45.6126 11.8132
45.6609 11.6867
45.7094 11.6705
45.7577 11.6581
45.8063 11.568
45.8546 11.5456
45.9031 11.4773
45.9515 11.4825
46.0001 11.4228
46.0484 11.3711
46.097 11.3135
46.1454 11.2646
46.194 11.3223
46.2424 11.2157
46.291 11.2043
46.3395 11.1278
46.3881 11.0417
46.4365 11.0643
46.4852 11.0106
46.5337 10.9704
46.5823 10.8878
46.631 10.8784
46.6795 10.8277
46.7282 10.809
46.7767 10.8033
46.8254 10.7288
46.8739 10.6753
46.9226 10.6518
46.9712 10.6058
47.0199 10.5751
47.0685 10.4902
47.1173 10.4709
47.1658 10.5004
47.2146 10.4235
47.2632 10.3365
47.312 10.3599
47.3606 10.2975
47.4095 10.2519
47.4581 10.2457
47.5069 10.1717
47.5556 10.1379
47.6044 10.0774
47.6531 10.0745
47.702 9.99975
47.7507 9.99513
47.7996 9.95339
47.8483 9.92701
47.8972 9.905
47.9461 9.88425
47.9948 9.76853
48.0438 9.78953
48.0925 9.74654
48.1415 9.70888
48.1902 9.70234
48.2392 9.64172
48.288 9.61508
48.337 9.57374
48.3858 9.53715
48.4348 9.51697
48.4837 9.50092
48.5327 9.46918
48.5815 9.41299
48.6306 9.37004
48.6795 9.30612
48.7285 9.32834
48.7774 9.27659
48.8265 9.24792
48.8754 9.1963
48.9245 9.15205
48.9734 9.15285
49.0226 9.11003
49.0715 9.05278
49.1206 9.00421
49.1696 9.01946
49.2188 8.96392
49.2679 8.91131
49.3169 8.89482
49.3661 8.82998
49.4151 8.84871
49.4643 8.80968
49.5134 8.74022
49.5626 8.69804
49.6117 8.69514
49.6609 8.67202
49.71 8.60935
49.7592 8.58663
49.8083 8.55864
49.8576 8.52914
49.9067 8.48799
49.956 8.48313
50.0052 8.41918
50.0545 8.39243
50.1036 8.36281
50.153 8.3345
50.2022 8.27854
50.2515 8.25546
50.3007 8.24365
50.3501 8.17849
50.3993 8.2138
50.4487 8.13911
50.498 8.08256
50.5474 8.09766
50.5966 8.03382
50.6461 7.99367
50.6955 7.99636
50.7448 7.97397
50.7943 7.90604
50.8436 7.87137
50.8931 7.8554
50.9424 7.85651
50.9919 7.80805
51.0413 7.76875
51.0908 7.72071
51.1402 7.68156
51.1897 7.64598
51.2391 7.64642
51.2887 7.59906
51.3381 7.54896
51.3877 7.52711
51.4371 7.50347
51.4867 7.48532
51.5362 7.44686
51.5858 7.45097
51.6353 7.39214
51.6849 7.35802
51.7344 7.32291
51.7841 7.3296
51.8336 7.25148
51.8833 7.25322
51.9328 7.19179
51.9826 7.18425
52.0323 7.15628
52.0818 7.1558
52.1316 7.08845
52.1812 7.05724
52.231 7.05529
52.2806 6.99752
52.3304 6.99802
52.38 6.95215
52.4298 6.88828
52.4794 6.89453
52.5293 6.83619
52.5789 6.82676
52.6288 6.79877
52.6785 6.74931
52.7284 6.73048
52.7781 6.7248
52.828 6.70854
52.8777 6.66708
52.9276 6.63316
52.9774 6.6159
53.0273 6.59966
53.0771 6.53768
53.1271 6.51838
53.1769 6.50215
53.2269 6.47154
53.2767 6.41266
53.3267 6.4217
53.3765 6.38935
53.4266 6.36425
53.4766 6.33171
53.5265 6.30684
53.5765 6.27562
53.6264 6.24446
53.6765 6.22501
53.7264 6.19339
53.7765 6.18207
53.8265 6.11666
53.8766 6.12606
53.9266 6.03578
53.9767 6.07672
54.0267 6.01017
54.0769 6.01364
54.1269 5.99781
54.1771 5.90058
54.2271 5.87917
54.2773 5.89266
54.3274 5.81727
54.3776 5.81008
54.4277 5.83097
54.478 5.76422
54.528 5.72294
54.5783 5.70353
54.6285 5.69439
54.6788 5.60167
54.7289 5.52805
54.7792 5.53214
54.8296 5.50375
54.8798 5.42207
54.9301 5.41395
54.9803 5.39165
55.0307 5.30417
55.0809 5.31509
55.1314 5.27541
55.1816 5.19949
55.232 5.18308
55.2823 5.1378
55.3328 5.07067
55.383 5.08569
55.4335 5.0167
55.4838 4.93997
55.5344 4.91965
55.5847 4.87071
55.6352 4.86262
55.6856 4.81876
55.7361 4.77593