File: XRD/Ni3Fe_FD0664.xy
TT I
1.27165 7.82265
1.31627 6.28994
1.36089 6.79006
1.40551 5.96548
1.45013 6.44601
1.49476 6.54226
1.53938 6.02072
1.584 5.47988
1.62863 5.45501
1.67325 4.35394
1.71787 4.70704
1.7625 5.0613
1.80712 4.77973
1.85174 4.46062
1.89636 4.86476
1.94099 4.85409
1.98562 4.70163
2.03025 5.19394
2.07487 4.56466
2.11949 4.6745
2.16411 4.59789
2.20874 12.5259
2.25338 20.0815
2.298 6.1093
2.34263 5.72807
2.38725 5.71011
2.43188 5.84203
2.4765 7.04129
2.52115 7.03999
2.56577 7.93399
2.6104 8.39554
2.65503 7.73036
2.69965 8.74506
2.7443 8.14965
2.78893 8.68781
2.83356 8.40482
2.87818 8.89467
2.92281 9.06369
2.96744 9.60574
3.01209 10.1922
3.05672 11.0722
3.10135 12.3245
3.14599 12.9274
3.19062 14.2692
3.23527 15.0152
3.2799 15.7007
3.32454 16.4408
3.36917 17.8703
3.4138 18.6376
3.45844 19.3358
3.50309 20.7615
3.54773 22.0187
3.59237 23.7919
3.637 85.7724
3.68164 53.9879
3.7263 26.279
3.77094 26.174
3.81558 27.0298
3.86022 27.4932
3.90486 28.9499
3.9495 29.9988
3.99416 30.7553
4.0388 32.4067
4.08344 33.5441
4.12809 34.2894
4.17273 37.0534
4.21738 42.3377
4.26204 227.076
4.30669 194.64
4.35133 48.0339
4.39598 44.1472
4.44063 53.331
4.4853 63.3724
4.52995 50.1359
4.5746 51.1931
4.61925 53.4931
4.6639 55.4141
4.70855 57.979
4.75322 60.7926
4.79788 63.7746
4.84253 67.5958
4.88719 71.6211
4.93184 74.9272
4.97652 81.1836
5.02118 87.2633
5.06583 94.7708
5.11049 106.379
5.15515 169.177
5.19981 350.192
5.24449 2887.53
5.28916 12555.1
5.33382 2795.36
5.37848 182.41
5.42315 127.673
5.46783 112.436
5.5125 105.397
5.55716 101.8
5.60183 98.1703
5.6465 96.3946
5.69117 93.9914
5.73586 92.0239
5.78053 91.6862
5.8252 91.1246
5.86988 91.4765
5.91455 94.5118
5.95924 103.079
6.00392 206.024
6.0486 976.963
6.09328 4525.98
6.13795 3262.38
6.18263 222.791
6.22733 92.0867
6.27201 82.1021
6.3167 98.6345
6.36138 79.0774
6.40606 68.6513
6.45075 66.8289
6.49545 64.9908
6.54014 63.7457
6.58483 62.7555
6.62952 62.7898
6.67421 90.1013
6.71892 133.318
6.76361 67.156
6.8083 58.0948
6.853 57.3015
6.89769 57.0309
6.94239 56.5812
6.98711 56.0278
7.03181 55.4988
7.07651 55.1596
7.12121 54.9284
7.16591 55.0247
7.21063 55.2372
7.25533 69.388
7.30004 164.567
7.34475 87.6282
7.38945 56.3525
7.43416 54.3671
7.47889 54.146
7.5236 54.5412
7.56831 55.4696
7.61303 56.694
7.65774 57.1722
7.70247 56.0594
7.74719 55.9947
7.79191 56.8652
7.83663 56.8002
7.88135 57.8429
7.92607 58.6177
7.97081 59.8282
8.01553 60.7825
8.06026 61.8388
8.10498 63.891
8.14971 72.4106
8.19446 71.2765
8.23919 69.4807
8.28392 71.8868
8.32865 74.0575
8.37339 77.9869
8.41812 85.1845
8.46288 111.156
8.50761 165.726
8.55235 394.308
8.59709 1202.35
8.64183 2216.05
8.68658 918.673
8.73134 155.45
8.77609 98.6826
8.82083 92.063
8.86558 89.319
8.91033 89.535
8.9551 90.1716
8.99985 84.7773
9.04461 82.8061
9.08936 82.8748
9.13412 81.472
9.17888 82.0929
9.22365 82.7786
9.26841 81.942
9.31318 82.1716
9.35794 82.4921
9.4027 82.9112
9.44749 83.8385
9.49226 84.466
9.53703 85.5345
9.5818 87.2485
9.62657 91.3064
9.67134 97.3843
9.71614 92.8118
9.76091 93.7374
9.80569 96.5394
9.85047 99.6042
9.89525 121.845
9.94005 134.422
9.98484 176.596
10.0296 347.512
10.0744 822.645
10.1192 1781.13
10.164 1587.32
10.2088 375.917
10.2536 124.141
10.2984 111.9
10.3432 113.134
10.388 104.255
10.4328 118.008
10.4776 160.712
10.5224 282.536
10.5672 516.369
10.612 502.546
10.6568 190.659
10.7017 94.7779
10.7465 86.2147
10.7913 82.8943
10.8361 80.4388
10.8809 78.7183
10.9257 78.1954
10.9706 78.3479
11.0154 74.4591
11.0602 72.6452
11.105 71.7989
11.1499 75.5865
11.1947 81.4736
11.2395 73.4369
11.2844 69.6804
11.3292 67.1818
11.374 65.7689
11.4189 65.5349
11.4637 64.6425
11.5086 65.285
11.5534 67.6744
11.5983 65.1728
11.6431 63.4317
11.688 62.8498
11.7328 62.8155
11.7777 62.6947
11.8225 62.6224
11.8674 62.2061
11.9122 62.6735
11.9571 62.7246
12.002 63.5399
12.0468 67.5447
12.0917 78.9749
12.1366 103.331
12.1814 153.602
12.2263 207.735
12.2712 163.855
12.3161 92.1106
12.3609 69.5863
12.4058 64.5182
12.4507 64.0763
12.4956 64.1699
12.5405 64.3136
12.5853 65.1668
12.6302 72.1749
12.6751 77.1032
12.72 69.4538
12.7649 67.8593
12.8098 68.2345
12.8547 69.5616
12.8996 70.5228
12.9445 72.0505
12.9894 73.7692
13.0343 75.5623
13.0792 79.0088
13.1242 87.9193
13.1691 112.557
13.214 150.18
13.2589 242.523
13.3038 382.051
13.3487 428.534
13.3937 253.885
13.4386 120.99
13.4835 104.78
13.5285 120.844
13.5734 159.091
13.6183 251.755
13.6633 359.854
13.7082 335.409
13.7531 176.578
13.7981 94.7109
13.843 81.2329
13.888 79.1559
13.9329 76.9976
13.9779 75.7196
14.0228 74.242
14.0678 73.1255
14.1127 72.4983
14.1577 72.0277
14.2027 71.4395
14.2476 70.2315
14.2926 70.3187
14.3376 71.1986
14.3825 70.0111
14.4275 68.8629
14.4725 68.6124
14.5175 68.8488
14.5624 68.829
14.6074 70.69
14.6524 71.4231
14.6974 70.3493
14.7424 71.7436
14.7874 78.847
14.8324 88.7099
14.8774 110.619
14.9224 155.807
14.9674 211.785
15.0124 218.119
15.0574 143.431
15.1024 87.5554
15.1474 71.6749
15.1924 70.2321
15.2374 70.6037
15.2824 70.085
15.3274 67.8204
15.3725 66.8593
15.4175 66.3153
15.4625 65.9308
15.5076 66.021
15.5526 66.0243
15.5976 65.6782
15.6426 66.5366
15.6877 72.1323
15.7327 79.9263
15.7778 94.7737
15.8228 127.356
15.8679 173.59
15.9129 195.205
15.958 153.767
16.003 94.5787
16.0481 66.9462
16.0931 64.239
16.1382 62.3699
16.1833 60.3572
16.2283 58.6698
16.2734 58.1981
16.3185 58.2619
16.3636 58.792
16.4086 57.6157
16.4537 56.0586
16.4988 55.3747
16.5439 55.2485
16.589 55.0657
16.6341 54.8466
16.6792 54.5152
16.7243 54.731
16.7694 54.9113
16.8145 54.8256
16.8596 54.9575
16.9047 56.5915
16.9498 56.6306
16.9949 55.6186
17.04 55.5381
17.0851 56.9388
17.1302 58.7358
17.1754 61.5028
17.2205 66.7018
17.2656 74.7529
17.3108 83.5761
17.3559 82.2733
17.401 70.2468
17.4462 61.4291
17.4913 58.924
17.5365 59.0565
17.5815 59.1825
17.6268 59.2525
17.6718 60.2647
17.7171 60.7195
17.7622 61.1152
17.8074 62.0538
17.8525 64.1263
17.8977 68.4284
17.9428 73.768
17.9881 82.5909
18.0331 100.516
18.0784 123.97
18.1237 142.405
18.1688 130.576
18.214 101.17
18.2591 85.8499
18.3044 90.8426
18.3495 101.363
18.3948 106.459
18.4399 94.898
18.4852 75.9384
18.5303 65.5504
18.5756 62.1351
18.6207 61.0994
18.666 60.3563
18.7112 59.5638
18.7565 58.9499
18.8016 58.5224
18.8469 57.8531
18.892 57.5487
18.9374 57.2497
18.9825 57.0913
19.0278 57.0389
19.073 56.9752
19.1183 57.5164
19.1635 58.0632
19.2088 59.4058
19.254 62.1711
19.2993 67.1317
19.3447 73.7025
19.3898 77.1091
19.4352 71.8397
19.4804 62.5265
19.5257 56.2552
19.5709 54.0746
19.6163 53.6959
19.6615 53.6242
19.7068 53.2482
19.752 53.3039
19.7974 53.3944
19.8426 54.458
19.888 55.0852
19.9332 56.1311
19.9786 58.8769
20.0238 62.538
20.0692 67.7517
20.1144 69.8435
20.1598 67.7816
20.205 62.9555
20.2504 62.0761
20.2957 64.0843
20.3411 65.328
20.3863 63.4505
20.4318 57.7998
20.477 53.2052
20.5224 51.2155
20.5677 50.8391
20.6131 50.1736
20.6586 49.6244
20.7038 49.4657
20.7493 49.0967
20.7945 48.8501
20.84 48.6636
20.8853 48.6272
20.9307 48.3703
20.976 48.5129
21.0215 48.4814
21.0668 48.86
21.1122 49.2701
21.1575 49.8566
21.203 50.9005
21.2483 51.5326
21.2938 51.2437
21.3391 49.8752
21.3846 48.7507
21.4299 48.4595
21.4754 48.5039
21.5207 48.4852
21.5662 48.654
21.6116 49.1218
21.6571 49.7719
21.7024 50.8246
21.7479 52.6609
21.7933 55.4299
21.8388 59.2886
21.8843 63.1828
21.9297 64.9502
21.9752 63.0718
22.0206 59.025
22.0661 56.4458
22.1115 55.9976
22.157 55.9424
22.2024 54.0595
22.248 51.2146
22.2933 49.6293
22.3389 49.0087
22.3843 48.8724
22.4299 48.9538
22.4753 48.7576
22.5208 48.5261
22.5662 48.408
22.6118 48.5428
22.6572 48.7669
22.7028 49.2718
22.7483 49.8626
22.7939 50.3313
22.8393 51.8827
22.8849 54.2537
22.9303 56.4784
22.9759 58.041
23.0214 57.167
23.067 54.3212
23.1126 50.8403
23.1581 48.9279
23.2037 48.8156
23.2492 48.7231
23.2948 48.8549
23.3403 49.0576
23.3859 49.5267
23.4314 50.8163
23.477 52.8087
23.5225 55.1697
23.5682 57.3357
23.6137 57.9398
23.6593 55.2214
23.7048 51.1769
23.7505 47.9659
23.796 46.5819
23.8417 45.8424
23.8872 45.4424
23.9329 45.0908
23.9784 44.8472
24.0241 44.5164
24.0697 44.4621
24.1154 44.0541
24.1609 44.03
24.2066 43.7419
24.2522 43.5045
24.2979 43.3773
24.3434 43.0836
24.3892 43.1135
24.4349 43.0269
24.4805 42.9943
24.5262 43.0396
24.5718 43.0231
24.6175 42.8898
24.6631 42.757
24.7089 42.4333
24.7545 42.3359
24.8002 42.3553
24.8458 42.2442
24.8916 42.0709
24.9372 42.0553
24.983 42.4955
25.0286 42.6802
25.0744 43.4533
25.12 43.7624
25.1658 44.2882
25.2114 44.6878
25.2572 44.7163
25.3029 44.7836
25.3487 44.9886
25.3943 44.5601
25.4402 43.3092
25.4858 42.1923
25.5316 41.3508
25.5773 40.8993
25.6231 40.7654
25.669 40.4354
25.7147 40.415
25.7605 40.5121
25.8062 40.5151
25.8521 40.7146
25.8977 40.6727
25.9436 40.7682
25.9893 41.0278
26.0352 41.4918
26.0809 41.5492
26.1268 41.738
26.1725 41.3581
26.2184 40.5502
26.2641 40.2737
26.31 40.0067
26.3557 40.0927
26.4017 40.0929
26.4474 40.3969
26.4933 40.7903
26.5391 41.3161
26.585 41.6735
26.6308 42.1233
26.6767 42.1315
26.7225 41.8463
26.7684 41.3536
26.8142 40.715
26.8601 40.439
26.9059 39.9019
26.9519 39.4552
26.9979 39.1029
27.0437 38.8175
27.0896 38.5643
27.1354 38.7012
27.1814 38.4899
27.2272 38.4896
27.2732 38.4782
27.3191 38.2772
27.3651 38.4732
27.4109 38.4338
27.4569 38.4421
27.5027 38.5817
27.5488 38.6437
27.5946 38.4335
27.6407 37.9947
27.6865 38.0087
27.7326 37.6501
27.7784 37.8037
27.8245 37.702
27.8703 37.926
27.9164 38.2546
27.9623 38.5932
28.0084 38.837
28.0543 39.0668
28.1003 38.8805
28.1462 38.8111
28.1923 38.4494
28.2384 37.966
28.2843 37.5103
28.3304 37.171
28.3764 36.6202
28.4225 36.3574
28.4684 36.2472
28.5145 35.9205
28.5605 35.8181
28.6066 35.6855
28.6526 35.6651
28.6987 35.5164
28.7447 35.4958
28.7908 35.3421
28.8368 35.4726
28.8829 35.4893
28.9289 35.2408
28.9751 35.1154
29.0211 34.9339
29.0673 34.6798
29.1133 34.5657
29.1595 34.2391
29.2055 34.2868
29.2517 34.3076
29.2977 34.2565
29.3439 34.3022
29.3899 34.151
29.4361 34.161
29.4824 33.9606
29.5284 33.6466
29.5746 33.4125
29.6207 33.0932
29.6669 33.0097
29.713 32.9811
29.7593 32.938
29.8053 32.8784
29.8516 32.7655
29.8977 32.8635
29.9439 32.5654
29.99 32.5467
30.0363 32.4458
30.0824 32.4519
30.1287 32.4157
30.1748 32.4399
30.2211 32.3786
30.2673 32.2555
30.3136 32.3123
30.3597 32.1942
30.406 32.0894
30.4522 31.9968
30.4985 31.9962
30.5447 32.1103
30.591 32.0227
30.6372 32.1544
30.6835 32.1672
30.7297 32.2551
30.7761 32.1586
30.8224 31.9972
30.8686 31.859
30.915 31.6344
30.9612 31.44
31.0076 31.2364
31.0538 31.106
31.1002 31.0961
31.1464 30.8213
31.1928 30.9069
31.2391 30.8936
31.2855 30.8391
31.3317 30.8908
31.3781 30.9435
31.4244 30.8761
31.4708 30.8366
31.5171 30.7964
31.5636 30.7363
31.6098 30.4644
31.6563 30.3735
31.7026 30.2164
31.7491 30.0564
31.7953 30.2304
31.8418 30.132
31.8881 30.1204
31.9346 30.0026
31.9809 30.1011
32.0275 29.8501
32.074 29.736
32.1203 29.6318
32.1668 29.5726
32.2132 29.3228
32.2597 29.2593
32.306 29.1336
32.3526 28.8921
32.399 28.8969
32.4455 28.7086
32.4919 28.6866
32.5385 28.5934
32.5848 28.4964
32.6314 28.5125
32.6778 28.4406
32.7244 28.3444
32.7708 28.0436
32.8174 28.1465
32.8638 28.0373
32.9104 28.0354
32.9569 27.9183
33.0035 27.8995
33.0499 27.7403
33.0966 27.7285
33.143 27.7793
33.1897 27.6057
33.2361 27.6039
33.2828 27.6326
33.3293 27.4074
33.3759 27.3903
33.4226 27.1733
33.4691 27.0932
33.5158 27.0369
33.5623 26.9233
33.609 26.7981
33.6555 26.6742
33.7022 26.556
33.7487 26.4495
33.7954 26.4223
33.842 26.378
33.8887 26.3644
33.9353 26.2938
33.982 26.0728
34.0286 26.0299
34.0753 25.9503
34.1219 25.8145
34.1687 25.817
34.2152 25.7075
34.262 25.5365
34.3086 25.5815
34.3554 25.6246
34.402 25.3241
34.4488 25.314
34.4954 25.1761
34.5422 25.1435
34.5889 25.034
34.6357 24.9511
34.6825 24.8895
34.7292 24.8361
34.776 24.7337
34.8227 24.6889
34.8695 24.5763
34.9162 24.5944
34.9631 24.4413
35.0098 24.4868
35.0566 24.385
35.1033 24.2414
35.1502 24.3186
35.1969 24.2218
35.2438 24.1227
35.2906 24.0185
35.3375 24.0545
35.3842 23.9855
35.4311 23.9331
35.4779 23.9584
35.5248 23.853
35.5716 23.666
35.6185 23.6596
35.6653 23.5826
35.7123 23.466
35.759 23.4802
35.806 23.3664
35.8528 23.2067
35.8998 23.2252
35.9468 23.1291
35.9936 23.0793
36.0406 22.9569
36.0874 22.9582
36.1345 22.8385
36.1813 22.8344
36.2283 22.7684
36.2752 22.672
36.3222 22.683
36.3691 22.529
36.4161 22.5018
36.463 22.3908
36.5101 22.4203
36.557 22.3353
36.6041 22.1834
36.651 22.1522
36.6981 22.1626
36.745 22.0798
36.7921 21.9559
36.839 21.8893
36.8861 21.7078
36.9331 21.7858
36.9802 21.6594
37.0272 21.5834
37.0743 21.4568
37.1213 21.4842
37.1684 21.4158
37.2154 21.3301
37.2626 21.242
37.3098 21.1505
37.3568 21.1263
37.404 21.0637
37.451 20.9798
37.4982 20.9278
37.5452 20.8533
37.5924 20.7268
37.6395 20.8324
37.6867 20.7078
37.7337 20.6065
37.781 20.5447
37.8281 20.492
37.8753 20.3666
37.9224 20.3389
37.9697 20.2278
38.0168 20.1396
38.064 20.114
38.1111 20.0722
38.1584 20.0507
38.2056 19.9351
38.2529 19.9423
38.3 19.845
38.3473 19.772
38.3945 19.6611
38.4418 19.5892
38.489 19.6466
38.5363 19.4265
38.5837 19.4219
38.6309 19.4067
38.6782 19.3322
38.7254 19.3042
38.7728 19.217
38.82 19.0675
38.8674 19.1432
38.9146 19.0578
38.9621 18.9635
39.0093 18.8806
39.0567 18.8547
39.104 18.7437
39.1514 18.7346
39.1987 18.7037
39.2461 18.6645
39.2934 18.5143
39.3409 18.4458
39.3882 18.4174
39.4356 18.2647
39.483 18.2887
39.5304 18.2327
39.5778 18.1851
39.6253 18.0818
39.6726 18.0817
39.7201 18.0788
39.7675 18.0285
39.815 17.8695
39.8624 17.8126
39.9099 17.7747
39.9575 17.7271
40.0049 17.7548
40.0525 17.6437
40.0999 17.6042
40.1474 17.5314
40.1949 17.4431
40.2425 17.3677
40.2899 17.3495
40.3375 17.2405
40.385 17.2681
40.4326 17.194
40.48 17.115
40.5277 17.1106
40.5752 16.9779
40.6228 16.9561
40.6703 16.9021
40.718 16.8251
40.7655 16.8398
40.8132 16.7515
40.8607 16.7378
40.9084 16.6618
40.9559 16.608
41.0036 16.5184
41.0512 16.5115
41.0989 16.4588
41.1465 16.3989
41.1942 16.3189
41.242 16.2493
41.2896 16.2508
41.3373 16.1617
41.3849 16.1394
41.4327 16.077
41.4803 15.9822
41.5281 15.9837
41.5758 15.8567
41.6236 15.808
41.6712 15.8059
41.7191 15.7145
41.7667 15.7071
41.8146 15.6532
41.8622 15.562
41.9101 15.4833
41.9578 15.4642
42.0057 15.4352
42.0534 15.3701
42.1013 15.321
42.149 15.2493
42.1969 15.1715
42.2446 15.1962
42.2925 15.1146
42.3403 15.0623
42.3882 15.0114
42.436 14.9966
42.4839 14.9024
42.5319 14.8968
42.5797 14.7967
42.6277 14.767
42.6755 14.719
42.7235 14.6571
42.7713 14.6535
42.8193 14.5989
42.8671 14.4927
42.9152 14.4591
42.963 14.3785
43.0111 14.3285
43.0589 14.3303
43.107 14.2625
43.1549 14.2
43.2029 14.1634
43.2508 14.1136
43.2989 14.0577
43.3468 14.0369
43.3949 13.9843
43.4429 13.9858
43.491 13.8795
43.5389 13.8317
43.5871 13.76
43.635 13.7033
43.6832 13.7211
43.7312 13.6339
43.7793 13.6341
43.8273 13.5874
43.8755 13.4748
43.9237 13.4251
43.9717 13.4629
44.0199 13.3815
44.068 13.3008
44.1162 13.2291
44.1642 13.2849
44.2125 13.2169
44.2606 13.0941
44.3088 13.0316
44.3569 13.0284
44.4052 12.9895
44.4533 12.9354
44.5016 12.9351
44.5497 12.9003
44.598 12.8728
44.6461 12.7551
44.6945 12.7077
44.7426 12.7055
44.791 12.6402
44.8391 12.5826
44.8875 12.547
44.9357 12.4795
44.984 12.4859
45.0322 12.4242
45.0806 12.343
45.1288 12.3326
45.1773 12.2914
45.2257 12.2485
45.2739 12.2054
45.3224 12.1447
45.3706 12.1683
45.4191 12.0871
45.4673 12.0552
45.5158 11.985
45.5641 11.9287
45.6126 11.9138
45.6609 11.82
45.7094 11.8058
45.7577 11.761
45.8063 11.6824
45.8546 11.7316
45.9031 11.6621
45.9515 11.6301
46.0001 11.594
46.0484 11.5492
46.097 11.5167
46.1454 11.467
46.194 11.3998
46.2424 11.3758
46.291 11.2952
46.3395 11.3005
46.3881 11.2067
46.4365 11.2208
46.4852 11.139
46.5337 11.1194
46.5823 11.0558
46.631 11.0238
46.6795 10.983
46.7282 10.9583
46.7767 10.9126
46.8254 10.8772
46.8739 10.8311
46.9226 10.7745
46.9712 10.7228
47.0199 10.6625
47.0685 10.7005
47.1173 10.595
47.1658 10.5999
47.2146 10.5535
47.2632 10.5217
47.312 10.4784
47.3606 10.4306
47.4095 10.3978
47.4581 10.3744
47.5069 10.33
47.5556 10.2703
47.6044 10.2484
47.6531 10.2123
47.702 10.1484
47.7507 10.1128
47.7996 10.0795
47.8483 10.0739
47.8972 10.0329
47.9461 9.97365
47.9948 9.95939
48.0438 9.91364
48.0925 9.88658
48.1415 9.83165
48.1902 9.76914
48.2392 9.78204
48.288 9.75216
48.337 9.69525
48.3858 9.65984
48.4348 9.64004
48.4837 9.63331
48.5327 9.58084
48.5815 9.52094
48.6306 9.49569
48.6795 9.47446
48.7285 9.40169
48.7774 9.3975
48.8265 9.34005
48.8754 9.31068
48.9245 9.31273
48.9734 9.24005
49.0226 9.22539
49.0715 9.14738
49.1206 9.13569
49.1696 9.08978
49.2188 9.08262
49.2679 9.04667
49.3169 9.01816
49.3661 8.92862
49.4151 8.90969
49.4643 8.89058
49.5134 8.86527
49.5626 8.79686
49.6117 8.825
49.6609 8.74168
49.71 8.75244
49.7592 8.66787
49.8083 8.68447
49.8576 8.64197
49.9067 8.5844
49.956 8.56534
50.0052 8.5196
50.0545 8.48247
50.1036 8.4633
50.153 8.41517
50.2022 8.39368
50.2515 8.37356
50.3007 8.29962
50.3501 8.29502
50.3993 8.27106
50.4487 8.2256
50.498 8.1799
50.5474 8.19855
50.5966 8.10678
50.6461 8.10783
50.6955 8.08409
50.7448 8.04423
50.7943 8.10909
50.8436 7.99416
50.8931 7.97198
50.9424 7.93792
50.9919 7.88457
51.0413 7.88765
51.0908 7.82597
51.1402 7.81234
51.1897 7.77917
51.2391 7.73344
51.2887 7.68808
51.3381 7.68122
51.3877 7.67363
51.4371 7.59408
51.4867 7.54135
51.5362 7.54005
51.5858 7.52453
51.6353 7.46753
51.6849 7.44782
51.7344 7.39417
51.7841 7.40196
51.8336 7.34802
51.8833 7.31216
51.9328 7.28279
51.9826 7.27024
52.0323 7.23271
52.0818 7.17142
52.1316 7.15196
52.1812 7.16984
52.231 7.12109
52.2806 7.08649
52.3304 7.0612
52.38 7.04397
52.4298 7.00501
52.4794 6.96281
52.5293 6.9429
52.5789 6.90337
52.6288 6.89884
52.6785 6.83827
52.7284 6.85965
52.7781 6.80435
52.828 6.7933
52.8777 6.74459
52.9276 6.68398
52.9774 6.69856
53.0273 6.68827
53.0771 6.62883
53.1271 6.59875
53.1769 6.58585
53.2269 6.5583
53.2767 6.51676
53.3267 6.48676
53.3765 6.48967
53.4266 6.41938
53.4766 6.40302
53.5265 6.38544
53.5765 6.37172
53.6264 6.3127
53.6765 6.27455
53.7264 6.26014
53.7765 6.28511
53.8265 6.19448
53.8766 6.18345
53.9266 6.17384
53.9767 6.13584
54.0267 6.09263
54.0769 6.0597
54.1269 6.05327
54.1771 5.99049
54.2271 5.98316
54.2773 5.8966
54.3274 5.96431
54.3776 5.88862
54.4277 5.86973
54.478 5.8446
54.528 5.78229
54.5783 5.76093
54.6285 5.74645
54.6788 5.69268
54.7289 5.63613
54.7792 5.64055
54.8296 5.57163
54.8798 5.47664
54.9301 5.50141
54.9803 5.4863
55.0307 5.39022
55.0809 5.31747
55.1314 5.31898
55.1816 5.31041
55.232 5.21903
55.2823 5.20742
55.3328 5.15449
55.383 5.11794
55.4335 5.0756
55.4838 4.99657
55.5344 4.92004
55.5847 4.8963
55.6352 4.90105
55.6856 4.84434
55.7361 4.84018