File: XRD/Ni3Fe_FD0553.xy
TT I
1.27165 7.10548
1.31627 6.69755
1.36089 7.02898
1.40551 6.30506
1.45013 5.96608
1.49476 6.03782
1.53938 6.22696
1.584 5.61452
1.62863 5.45657
1.67325 5.27536
1.71787 4.9191
1.7625 4.91512
1.80712 4.97546
1.85174 5.34371
1.89636 4.49676
1.94099 4.56182
1.98562 4.53489
2.03025 4.88507
2.07487 4.25584
2.11949 4.96929
2.16411 4.75971
2.20874 12.5462
2.25338 17.907
2.298 5.5985
2.34263 5.24765
2.38725 5.5041
2.43188 5.89009
2.4765 6.82763
2.52115 6.86218
2.56577 7.30381
2.6104 8.19098
2.65503 7.56444
2.69965 8.32919
2.7443 8.2806
2.78893 8.11711
2.83356 8.36373
2.87818 8.42686
2.92281 9.01712
2.96744 9.50859
3.01209 10.4218
3.05672 11.3489
3.10135 11.9006
3.14599 12.9216
3.19062 13.7254
3.23527 15.4059
3.2799 15.8963
3.32454 16.4967
3.36917 17.7263
3.4138 19.6348
3.45844 19.7164
3.50309 20.8224
3.54773 21.7258
3.59237 23.485
3.637 78.7675
3.68164 51.0607
3.7263 26.3214
3.77094 25.9238
3.81558 26.4951
3.86022 27.6097
3.90486 28.9697
3.9495 29.6637
3.99416 30.7472
4.0388 32.4547
4.08344 33.3708
4.12809 34.7364
4.17273 37.2885
4.21738 42.0516
4.26204 204.012
4.30669 174.46
4.35133 47.3542
4.39598 44.6755
4.44063 52.6653
4.4853 61.4038
4.52995 50.1068
4.5746 51.4784
4.61925 53.6159
4.6639 55.6646
4.70855 58.8006
4.75322 61.0289
4.79788 64.6629
4.84253 68.1589
4.88719 72.2878
4.93184 75.8499
4.97652 82.01
5.02118 88.6247
5.06583 96.645
5.11049 108.536
5.15515 171.362
5.19981 405.532
5.24449 3110.85
5.28916 12278.8
5.33382 3034.14
5.37848 196.721
5.42315 130.623
5.46783 114.393
5.5125 106.684
5.55716 103.194
5.60183 99.9158
5.6465 97.7495
5.69117 95.3855
5.73586 93.2528
5.78053 92.7832
5.8252 92.3967
5.86988 93.7192
5.91455 96.7405
5.95924 106.63
6.00392 238.282
6.0486 1074.8
6.09328 4365.05
6.13795 3418.56
6.18263 258.348
6.22733 94.3535
6.27201 83.2217
6.3167 96.8521
6.36138 78.7617
6.40606 69.4003
6.45075 67.9669
6.49545 65.7572
6.54014 64.0441
6.58483 63.177
6.62952 62.8676
6.67421 88.3198
6.71892 125.426
6.76361 66.4955
6.8083 58.9952
6.853 57.7194
6.89769 57.3755
6.94239 56.955
6.98711 56.0428
7.03181 55.8916
7.07651 55.4868
7.12121 55.5168
7.16591 55.2829
7.21063 55.5082
7.25533 67.771
7.30004 151.844
7.34475 83.5545
7.38945 56.254
7.43416 55.0119
7.47889 54.6275
7.5236 55.0092
7.56831 55.2548
7.61303 56.9276
7.65774 57.4339
7.70247 56.5728
7.74719 56.2729
7.79191 57.2628
7.83663 57.1225
7.88135 58.3544
7.92607 58.934
7.97081 60.1564
8.01553 61.0261
8.06026 63.3005
8.10498 64.2663
8.14971 72.1105
8.19446 71.5224
8.23919 70.2089
8.28392 72.6463
8.32865 75.1881
8.37339 79.4133
8.41812 86.0939
8.46288 111.372
8.50761 179.268
8.55235 425.687
8.59709 1221.37
8.64183 2218.13
8.68658 934.132
8.73134 168.909
8.77609 100.335
8.82083 93.102
8.86558 89.9885
8.91033 89.8816
8.9551 91.0727
8.99985 86.2354
9.04461 83.5971
9.08936 83.5475
9.13412 82.6082
9.17888 82.7321
9.22365 83.3172
9.26841 82.4188
9.31318 82.9991
9.35794 83.4709
9.4027 83.826
9.44749 84.4286
9.49226 85.4295
9.53703 86.1122
9.5818 87.8106
9.62657 92.1389
9.67134 97.3153
9.71614 94.1115
9.76091 94.7889
9.80569 97.2203
9.85047 100.697
9.89525 121.411
9.94005 134.815
9.98484 191.918
10.0296 369.628
10.0744 845.307
10.1192 1715.32
10.164 1559.88
10.2088 382.352
10.2536 125.644
10.2984 113.302
10.3432 113.499
10.388 105.571
10.4328 123.044
10.4776 168.085
10.5224 292.474
10.5672 516.879
10.612 499.802
10.6568 190.668
10.7017 95.6543
10.7465 87.0789
10.7913 83.54
10.8361 81.6639
10.8809 79.3028
10.9257 78.4694
10.9706 78.6788
11.0154 75.2776
11.0602 73.2935
11.105 72.3601
11.1499 75.7362
11.1947 80.7337
11.2395 73.439
11.2844 70.2745
11.3292 67.3754
11.374 66.7289
11.4189 65.8938
11.4637 65.3416
11.5086 65.627
11.5534 67.7958
11.5983 65.3627
11.6431 63.901
11.688 63.5024
11.7328 63.3427
11.7777 63.2671
11.8225 62.8495
11.8674 62.856
11.9122 63.4434
11.9571 63.2474
12.002 64.3847
12.0468 69.0666
12.0917 80.9603
12.1366 105.582
12.1814 153.971
12.2263 202.869
12.2712 160.712
12.3161 92.6494
12.3609 69.4599
12.4058 64.7267
12.4507 64.6614
12.4956 64.8126
12.5405 64.898
12.5853 65.9628
12.6302 72.3119
12.6751 76.3516
12.72 69.6866
12.7649 68.5385
12.8098 68.6314
12.8547 70.0947
12.8996 71.6176
12.9445 73.0292
12.9894 74.6997
13.0343 76.5538
13.0792 79.9532
13.1242 91.1921
13.1691 116.266
13.214 155.559
13.2589 246.241
13.3038 372.62
13.3487 426.156
13.3937 257.467
13.4386 121.903
13.4835 108.652
13.5285 124.839
13.5734 165.516
13.6183 254.999
13.6633 352.709
13.7082 339.411
13.7531 181.139
13.7981 96.8585
13.843 82.3998
13.888 80.0296
13.9329 77.3378
13.9779 76.2004
14.0228 74.9164
14.0678 73.442
14.1127 73.1504
14.1577 72.6511
14.2027 71.968
14.2476 71.0659
14.2926 71.012
14.3376 71.6912
14.3825 70.5903
14.4275 69.3479
14.4725 69.0818
14.5175 69.594
14.5624 69.6039
14.6074 71.1939
14.6524 71.805
14.6974 70.9771
14.7424 72.9647
14.7874 80.7491
14.8324 91.6636
14.8774 114.328
14.9224 156.887
14.9674 208.856
15.0124 217.947
15.0574 145.488
15.1024 88.6047
15.1474 72.3562
15.1924 70.9004
15.2374 71.0088
15.2824 70.3711
15.3274 68.2803
15.3725 67.4337
15.4175 66.6249
15.4625 66.3422
15.5076 66.8026
15.5526 66.852
15.5976 66.3673
15.6426 67.8435
15.6877 74.0784
15.7327 81.7879
15.7778 97.8776
15.8228 129.588
15.8679 171.552
15.9129 194.15
15.958 154.088
16.003 94.6395
16.0481 67.5625
16.0931 64.2745
16.1382 62.8602
16.1833 61.0767
16.2283 59.1322
16.2734 58.7147
16.3185 58.8893
16.3636 59.3707
16.4086 57.8972
16.4537 56.591
16.4988 55.9644
16.5439 55.8852
16.589 55.6234
16.6341 55.2467
16.6792 54.9624
16.7243 55.4292
16.7694 55.1488
16.8145 55.3112
16.8596 55.6218
16.9047 56.7668
16.9498 57.2104
16.9949 55.9759
17.04 56.2095
17.0851 57.6336
17.1302 59.3332
17.1754 62.4082
17.2205 67.5279
17.2656 75.0605
17.3108 82.9912
17.3559 81.8841
17.401 70.9572
17.4462 62.1659
17.4913 59.5676
17.5365 59.5435
17.5815 59.6253
17.6268 59.8809
17.6718 60.9021
17.7171 61.2598
17.7622 61.7979
17.8074 62.5781
17.8525 65.4476
17.8977 69.3257
17.9428 75.2443
17.9881 84.3042
18.0331 101.551
18.0784 123.088
18.1237 141.562
18.1688 132.633
18.214 102.983
18.2591 86.9168
18.3044 91.6161
18.3495 101.222
18.3948 106.679
18.4399 95.316
18.4852 77.2025
18.5303 65.951
18.5756 62.4837
18.6207 61.7133
18.666 60.9164
18.7112 60.1366
18.7565 59.4201
18.8016 58.8702
18.8469 58.5156
18.892 58.006
18.9374 57.7424
18.9825 57.4
19.0278 57.1001
19.073 57.3027
19.1183 58.0067
19.1635 58.7732
19.2088 60.0219
19.254 62.9339
19.2993 67.3514
19.3447 73.1851
19.3898 76.3984
19.4352 72.2333
19.4804 63.0389
19.5257 56.898
19.5709 54.3982
19.6163 54.2977
19.6615 54.2512
19.7068 53.6917
19.752 53.6802
19.7974 53.9551
19.8426 54.7244
19.888 55.6435
19.9332 56.9124
19.9786 59.6046
20.0238 63.1841
20.0692 67.9754
20.1144 70.5826
20.1598 68.5677
20.205 63.8054
20.2504 62.6372
20.2957 64.3306
20.3411 65.7007
20.3863 64.2979
20.4318 58.3526
20.477 53.6679
20.5224 51.8071
20.5677 51.3028
20.6131 50.6383
20.6586 50.003
20.7038 49.9618
20.7493 49.3338
20.7945 49.3211
20.84 49.2801
20.8853 49.1209
20.9307 48.9226
20.976 49.1313
21.0215 49.0783
21.0668 49.4516
21.1122 49.8008
21.1575 50.564
21.203 51.1971
21.2483 51.7596
21.2938 51.7017
21.3391 50.3703
21.3846 49.2467
21.4299 48.7704
21.4754 48.7339
21.5207 48.8923
21.5662 49.2002
21.6116 49.7343
21.6571 50.4542
21.7024 51.4897
21.7479 53.1889
21.7933 55.9992
21.8388 59.6583
21.8843 63.1369
21.9297 65.0771
21.9752 63.3259
22.0206 59.7239
22.0661 56.7377
22.1115 56.2961
22.157 56.2436
22.2024 54.3922
22.248 51.6479
22.2933 50.1798
22.3389 49.3418
22.3843 49.3355
22.4299 49.0439
22.4753 49.1904
22.5208 48.9551
22.5662 48.9213
22.6118 49.0999
22.6572 49.2862
22.7028 49.7598
22.7483 50.0424
22.7939 50.9487
22.8393 52.5179
22.8849 54.5967
22.9303 56.5793
22.9759 58.2242
23.0214 57.5388
23.067 54.5021
23.1126 51.2233
23.1581 49.4901
23.2037 49.1242
23.2492 49.338
23.2948 49.3576
23.3403 49.4623
23.3859 50.269
23.4314 51.3089
23.477 53.0975
23.5225 55.2567
23.5682 57.1599
23.6137 58.2812
23.6593 55.7762
23.7048 51.6603
23.7505 48.3593
23.796 46.9147
23.8417 46.3808
23.8872 45.8775
23.9329 45.4949
23.9784 45.2849
24.0241 44.9699
24.0697 44.7005
24.1154 44.4837
24.1609 44.3345
24.2066 44.2332
24.2522 43.9775
24.2979 43.8346
24.3434 43.5068
24.3892 43.4327
24.4349 43.3731
24.4805 43.2151
24.5262 43.4702
24.5718 43.1515
24.6175 43.201
24.6631 43.1368
24.7089 42.7932
24.7545 42.6162
24.8002 42.5933
24.8458 42.5543
24.8916 42.3991
24.9372 42.5553
24.983 42.9999
25.0286 43.2294
25.0744 43.6266
25.12 44.0116
25.1658 44.5703
25.2114 45.1066
25.2572 44.9881
25.3029 45.1041
25.3487 45.1914
25.3943 44.8689
25.4402 43.7942
25.4858 42.5544
25.5316 41.7294
25.5773 41.0173
25.6231 41.1871
25.669 40.7637
25.7147 40.8112
25.7605 40.8172
25.8062 40.7827
25.8521 40.9322
25.8977 40.8753
25.9436 41.0935
25.9893 41.4505
26.0352 41.6897
26.0809 41.8287
26.1268 41.9001
26.1725 41.5796
26.2184 41.0857
26.2641 40.5009
26.31 40.3406
26.3557 40.4048
26.4017 40.4819
26.4474 40.7068
26.4933 41.074
26.5391 41.5076
26.585 41.9908
26.6308 42.4956
26.6767 42.4914
26.7225 42.0578
26.7684 41.6572
26.8142 41.0902
26.8601 40.6995
26.9059 40.172
26.9519 39.7722
26.9979 39.4189
27.0437 39.182
27.0896 39.0153
27.1354 39.1926
27.1814 38.8086
27.2272 38.9036
27.2732 38.7975
27.3191 38.6083
27.3651 38.7958
27.4109 38.537
27.4569 38.8797
27.5027 38.7644
27.5488 38.8258
27.5946 38.6641
27.6407 38.5055
27.6865 38.3727
27.7326 38.0584
27.7784 38.1728
27.8245 38.1854
27.8703 38.2237
27.9164 38.6032
27.9623 38.8434
28.0084 39.0958
28.0543 39.2394
28.1003 39.1166
28.1462 39.0113
28.1923 38.6778
28.2384 38.2058
28.2843 37.8385
28.3304 37.4521
28.3764 36.8773
28.4225 36.6387
28.4684 36.465
28.5145 36.1448
28.5605 36.1245
28.6066 35.9115
28.6526 35.8676
28.6987 35.9038
28.7447 35.6455
28.7908 35.7292
28.8368 35.7797
28.8829 35.7738
28.9289 35.5297
28.9751 35.2713
29.0211 35.1105
29.0673 34.9257
29.1133 34.7371
29.1595 34.6344
29.2055 34.6152
29.2517 34.5421
29.2977 34.46
29.3439 34.499
29.3899 34.5515
29.4361 34.274
29.4824 34.1394
29.5284 33.8889
29.5746 33.6848
29.6207 33.345
29.6669 33.3768
29.713 33.1887
29.7593 32.983
29.8053 33.0814
29.8516 33.0215
29.8977 33.0226
29.9439 32.805
29.99 32.8759
30.0363 32.6495
30.0824 32.7445
30.1287 32.7256
30.1748 32.7019
30.2211 32.634
30.2673 32.5016
30.3136 32.5341
30.3597 32.4785
30.406 32.4271
30.4522 32.3029
30.4985 32.2958
30.5447 32.4364
30.591 32.2587
30.6372 32.295
30.6835 32.4187
30.7297 32.4392
30.7761 32.4478
30.8224 32.2107
30.8686 32.0128
30.915 31.8219
30.9612 31.676
31.0076 31.461
31.0538 31.3025
31.1002 31.3305
31.1464 31.0921
31.1928 31.0675
31.2391 31.1651
31.2855 31.106
31.3317 31.0987
31.3781 31.0929
31.4244 31.1052
31.4708 30.972
31.5171 30.9475
31.5636 30.9931
31.6098 30.6984
31.6563 30.5006
31.7026 30.4885
31.7491 30.3584
31.7953 30.5125
31.8418 30.36
31.8881 30.3774
31.9346 30.2738
31.9809 30.2684
32.0275 30.1632
32.074 29.9438
32.1203 29.8551
32.1668 29.7637
32.2132 29.5253
32.2597 29.4349
32.306 29.3895
32.3526 29.1712
32.399 29.0836
32.4455 28.9515
32.4919 28.7844
32.5385 28.8669
32.5848 28.7087
32.6314 28.7581
32.6778 28.5752
32.7244 28.5122
32.7708 28.3384
32.8174 28.3627
32.8638 28.2527
32.9104 28.2705
32.9569 28.1347
33.0035 28.0352
33.0499 28.0498
33.0966 27.9903
33.143 27.9812
33.1897 27.7703
33.2361 27.6719
33.2828 27.7338
33.3293 27.517
33.3759 27.5479
33.4226 27.3875
33.4691 27.3499
33.5158 27.1866
33.5623 27.1023
33.609 26.9644
33.6555 26.8711
33.7022 26.8286
33.7487 26.7563
33.7954 26.6553
33.842 26.5556
33.8887 26.4435
33.9353 26.4008
33.982 26.3164
34.0286 26.1665
34.0753 26.1372
34.1219 26.0583
34.1687 25.9349
34.2152 25.9813
34.262 25.8417
34.3086 25.7506
34.3554 25.7166
34.402 25.5598
34.4488 25.4033
34.4954 25.412
34.5422 25.2552
34.5889 25.2074
34.6357 25.1129
34.6825 25.1147
34.7292 25.0128
34.776 24.8129
34.8227 24.8387
34.8695 24.8408
34.9162 24.7545
34.9631 24.6691
35.0098 24.6714
35.0566 24.4894
35.1033 24.4227
35.1502 24.3493
35.1969 24.3556
35.2438 24.2733
35.2906 24.2388
35.3375 24.1869
35.3842 24.1284
35.4311 24.1593
35.4779 24.1106
35.5248 24.0174
35.5716 23.8705
35.6185 23.8579
35.6653 23.835
35.7123 23.7266
35.759 23.596
35.806 23.4723
35.8528 23.3982
35.8998 23.2759
35.9468 23.3089
35.9936 23.2226
36.0406 23.1091
36.0874 23.147
36.1345 23.0686
36.1813 22.9883
36.2283 22.8242
36.2752 22.8134
36.3222 22.8236
36.3691 22.7128
36.4161 22.6144
36.463 22.5606
36.5101 22.5524
36.557 22.4945
36.6041 22.2923
36.651 22.3776
36.6981 22.266
36.745 22.2393
36.7921 22.0857
36.839 21.9638
36.8861 21.8886
36.9331 21.9024
36.9802 21.8543
37.0272 21.7347
37.0743 21.6897
37.1213 21.6434
37.1684 21.569
37.2154 21.5603
37.2626 21.4043
37.3098 21.3757
37.3568 21.2703
37.404 21.2178
37.451 21.0927
37.4982 21.0681
37.5452 20.9249
37.5924 20.9066
37.6395 20.9685
37.6867 20.8601
37.7337 20.7459
37.781 20.6334
37.8281 20.6084
37.8753 20.5306
37.9224 20.5265
37.9697 20.4112
38.0168 20.392
38.064 20.2952
38.1111 20.2253
38.1584 20.0791
38.2056 20.101
38.2529 20.0579
38.3 19.9679
38.3473 19.9605
38.3945 19.8282
38.4418 19.7392
38.489 19.7474
38.5363 19.6697
38.5837 19.5738
38.6309 19.5348
38.6782 19.4488
38.7254 19.4303
38.7728 19.3693
38.82 19.2685
38.8674 19.2078
38.9146 19.171
38.9621 19.0895
39.0093 19.0993
39.0567 18.9768
39.104 18.9442
39.1514 18.8242
39.1987 18.8167
39.2461 18.7861
39.2934 18.6823
39.3409 18.5636
39.3882 18.4725
39.4356 18.4401
39.483 18.3879
39.5304 18.3953
39.5778 18.3617
39.6253 18.3017
39.6726 18.2361
39.7201 18.2177
39.7675 18.0941
39.815 18.0542
39.8624 17.9262
39.9099 17.981
39.9575 17.8858
40.0049 17.7963
40.0525 17.7583
40.0999 17.6542
40.1474 17.6627
40.1949 17.6182
40.2425 17.5294
40.2899 17.5593
40.3375 17.4472
40.385 17.4247
40.4326 17.2924
40.48 17.2888
40.5277 17.2553
40.5752 17.1547
40.6228 17.0857
40.6703 17.0216
40.718 16.9746
40.7655 16.9591
40.8132 16.8584
40.8607 16.8548
40.9084 16.7542
40.9559 16.714
41.0036 16.6824
41.0512 16.6837
41.0989 16.5365
41.1465 16.4885
41.1942 16.4392
41.242 16.3755
41.2896 16.3799
41.3373 16.2788
41.3849 16.2446
41.4327 16.1232
41.4803 16.0925
41.5281 16.0033
41.5758 15.9629
41.6236 15.9532
41.6712 15.9441
41.7191 15.8014
41.7667 15.8016
41.8146 15.7674
41.8622 15.6787
41.9101 15.6243
41.9578 15.5174
42.0057 15.4627
42.0534 15.484
42.1013 15.4682
42.149 15.3819
42.1969 15.3028
42.2446 15.2591
42.2925 15.2348
42.3403 15.1928
42.3882 15.1599
42.436 15.0655
42.4839 15.0187
42.5319 15.0035
42.5797 14.8521
42.6277 14.9191
42.6755 14.8339
42.7235 14.7383
42.7713 14.7475
42.8193 14.6666
42.8671 14.6152
42.9152 14.6172
42.963 14.4621
43.0111 14.4582
43.0589 14.415
43.107 14.3475
43.1549 14.3381
43.2029 14.3083
43.2508 14.2496
43.2989 14.1675
43.3468 14.1032
43.3949 14.0612
43.4429 14.0065
43.491 13.9682
43.5389 13.9331
43.5871 13.8747
43.635 13.8453
43.6832 13.8171
43.7312 13.7405
43.7793 13.684
43.8273 13.6817
43.8755 13.5666
43.9237 13.5263
43.9717 13.5119
44.0199 13.4248
44.068 13.4437
44.1162 13.3592
44.1642 13.3512
44.2125 13.2755
44.2606 13.2279
44.3088 13.1576
44.3569 13.1368
44.4052 13.095
44.4533 13.0696
44.5016 12.9874
44.5497 12.9709
44.598 12.9008
44.6461 12.8297
44.6945 12.7951
44.7426 12.7494
44.791 12.6893
44.8391 12.6982
44.8875 12.6626
44.9357 12.6084
44.984 12.5614
45.0322 12.5024
45.0806 12.455
45.1288 12.4179
45.1773 12.3702
45.2257 12.3515
45.2739 12.2843
45.3224 12.2421
45.3706 12.1567
45.4191 12.1591
45.4673 12.1326
45.5158 12.0682
45.5641 12.0129
45.6126 11.9923
45.6609 11.9487
45.7094 11.8656
45.7577 11.9082
45.8063 11.7861
45.8546 11.7678
45.9031 11.6972
45.9515 11.6933
46.0001 11.5935
46.0484 11.6103
46.097 11.5552
46.1454 11.5378
46.194 11.5075
46.2424 11.4244
46.291 11.3639
46.3395 11.3421
46.3881 11.3021
46.4365 11.2875
46.4852 11.2568
46.5337 11.1841
46.5823 11.1335
46.631 11.0883
46.6795 11.0677
46.7282 11.0544
46.7767 11.017
46.8254 10.8961
46.8739 10.8724
46.9226 10.8511
46.9712 10.8535
47.0199 10.763
47.0685 10.739
47.1173 10.7069
47.1658 10.6963
47.2146 10.6448
47.2632 10.5839
47.312 10.5635
47.3606 10.4786
47.4095 10.4611
47.4581 10.4363
47.5069 10.3983
47.5556 10.3371
47.6044 10.2934
47.6531 10.2776
47.702 10.2177
47.7507 10.2109
47.7996 10.1756
47.8483 10.1371
47.8972 10.0871
47.9461 10.0667
47.9948 10.0154
48.0438 9.98848
48.0925 9.98934
48.1415 9.90254
48.1902 9.85398
48.2392 9.83779
48.288 9.81521
48.337 9.75593
48.3858 9.71271
48.4348 9.71341
48.4837 9.72014
48.5327 9.65681
48.5815 9.54239
48.6306 9.56812
48.6795 9.54995
48.7285 9.47355
48.7774 9.45961
48.8265 9.42973
48.8754 9.35734
48.9245 9.33927
48.9734 9.32115
49.0226 9.30405
49.0715 9.22788
49.1206 9.19226
49.1696 9.19077
49.2188 9.15785
49.2679 9.11604
49.3169 9.04974
49.3661 9.00793
49.4151 8.99434
49.4643 8.9886
49.5134 8.91644
49.5626 8.88673
49.6117 8.89105
49.6609 8.82648
49.71 8.78473
49.7592 8.74179
49.8083 8.7118
49.8576 8.71592
49.9067 8.67704
49.956 8.62619
50.0052 8.60344
50.0545 8.57041
50.1036 8.51396
50.153 8.49264
50.2022 8.45316
50.2515 8.40788
50.3007 8.37556
50.3501 8.36029
50.3993 8.31298
50.4487 8.26623
50.498 8.29477
50.5474 8.20229
50.5966 8.21715
50.6461 8.18642
50.6955 8.12292
50.7448 8.13731
50.7943 8.1117
50.8436 8.05086
50.8931 8.02421
50.9424 8.00437
50.9919 7.96502
51.0413 7.91474
51.0908 7.87537
51.1402 7.88017
51.1897 7.83418
51.2391 7.77212
51.2887 7.73898
51.3381 7.72807
51.3877 7.74016
51.4371 7.67846
51.4867 7.64673
51.5362 7.58662
51.5858 7.56181
51.6353 7.51846
51.6849 7.46788
51.7344 7.46628
51.7841 7.47032
51.8336 7.44307
51.8833 7.42162
51.9328 7.32416
51.9826 7.33113
52.0323 7.30581
52.0818 7.29414
52.1316 7.21208
52.1812 7.23076
52.231 7.17353
52.2806 7.13168
52.3304 7.15386
52.38 7.07986
52.4298 7.05223
52.4794 6.99182
52.5293 6.96431
52.5789 7.01155
52.6288 6.90755
52.6785 6.89954
52.7284 6.88546
52.7781 6.83425
52.828 6.83149
52.8777 6.79368
52.9276 6.7577
52.9774 6.72382
53.0273 6.72066
53.0771 6.69028
53.1271 6.67325
53.1769 6.66236
53.2269 6.617
53.2767 6.5841
53.3267 6.55636
53.3765 6.51424
53.4266 6.5031
53.4766 6.4218
53.5265 6.41437
53.5765 6.45102
53.6264 6.38526
53.6765 6.38357
53.7264 6.31714
53.7765 6.30179
53.8265 6.26882
53.8766 6.23207
53.9266 6.17971
53.9767 6.1816
54.0267 6.16211
54.0769 6.12808
54.1269 6.13179
54.1771 6.06507
54.2271 6.05582
54.2773 5.97194
54.3274 5.98443
54.3776 5.94759
54.4277 5.90207
54.478 5.84622
54.528 5.83817
54.5783 5.78781
54.6285 5.74443
54.6788 5.7367
54.7289 5.63424
54.7792 5.6749
54.8296 5.62305
54.8798 5.53542
54.9301 5.52141
54.9803 5.50089
55.0307 5.4457
55.0809 5.37978
55.1314 5.3977
55.1816 5.30149
55.232 5.27577
55.2823 5.22398
55.3328 5.17236
55.383 5.12035
55.4335 5.09729
55.4838 5.04045
55.5344 5.02526
55.5847 4.93601
55.6352 4.96521
55.6856 4.87543
55.7361 4.86566