File: XRD/Ni3Fe_FD1047.xy
TT I
1.27165 6.76005
1.31627 6.5434
1.36089 6.35845
1.40551 6.17084
1.45013 6.06077
1.49476 5.75371
1.53938 5.23498
1.584 5.24374
1.62863 4.75899
1.67325 4.30822
1.71787 4.32034
1.7625 4.57902
1.80712 4.5959
1.85174 3.56231
1.89636 4.20216
1.94099 4.29064
1.98562 4.09677
2.03025 3.08235
2.07487 4.03248
2.11949 4.36575
2.16411 4.63276
2.20874 5.02803
2.25338 5.8171
2.298 4.38083
2.34263 5.31686
2.38725 5.94238
2.43188 6.17359
2.4765 7.15709
2.52115 7.19221
2.56577 7.94686
2.6104 8.47826
2.65503 7.83146
2.69965 8.00863
2.7443 8.26287
2.78893 8.60574
2.83356 9.0338
2.87818 8.47027
2.92281 9.02321
2.96744 9.30941
3.01209 10.312
3.05672 10.3727
3.10135 11.9134
3.14599 12.8221
3.19062 14.1179
3.23527 14.5751
3.2799 15.2985
3.32454 16.1859
3.36917 17.0972
3.4138 18.5353
3.45844 19.2568
3.50309 19.4999
3.54773 20.3732
3.59237 21.178
3.637 27.3507
3.68164 26.7755
3.7263 24.2263
3.77094 24.3904
3.81558 25.7434
3.86022 26.146
3.90486 27.3771
3.9495 28.1437
3.99416 29.3626
4.0388 30.4459
4.08344 31.9018
4.12809 31.9685
4.17273 33.6542
4.21738 35.0381
4.26204 51.8759
4.30669 56.5707
4.35133 40.2257
4.39598 40.7185
4.44063 43.1165
4.4853 46.1638
4.52995 46.4241
4.5746 48.2038
4.61925 50.4252
4.6639 52.753
4.70855 55.2822
4.75322 58.0516
4.79788 61.0007
4.84253 64.2781
4.88719 67.8852
4.93184 71.6286
4.97652 77.0602
5.02118 82.927
5.06583 89.5271
5.11049 98.1424
5.15515 118.559
5.19981 233.586
5.24449 2498.75
5.28916 13491.4
5.33382 3272.39
5.37848 213.249
5.42315 123.733
5.46783 108.033
5.5125 101.274
5.55716 97.1694
5.60183 93.2104
5.6465 91.3942
5.69117 89.9554
5.73586 87.958
5.78053 86.7332
5.8252 86.1531
5.86988 87.2139
5.91455 88.943
5.95924 94.7911
6.00392 163.285
6.0486 894.563
6.09328 4592.79
6.13795 3584.94
6.18263 238.489
6.22733 87.7672
6.27201 76.0895
6.3167 73.0745
6.36138 68.3723
6.40606 65.0521
6.45075 63.2342
6.49545 62.0754
6.54014 60.1581
6.58483 59.0201
6.62952 58.3835
6.67421 58.3402
6.71892 64.4637
6.76361 56.4601
6.8083 54.1751
6.853 53.6371
6.89769 53.5303
6.94239 53.0259
6.98711 52.442
7.03181 52.2699
7.07651 52.2923
7.12121 51.8478
7.16591 51.7285
7.21063 50.9551
7.25533 51.6343
7.30004 61.841
7.34475 56.0311
7.38945 51.8851
7.43416 50.6755
7.47889 51.7664
7.5236 59.0894
7.56831 74.4234
7.61303 57.073
7.65774 52.8916
7.70247 53.2238
7.74719 53.2417
7.79191 53.8889
7.83663 54.0769
7.88135 54.8569
7.92607 55.8732
7.97081 56.5709
8.01553 57.73
8.06026 59.187
8.10498 60.2608
8.14971 62.2979
8.19446 63.8536
8.23919 65.8746
8.28392 68.2173
8.32865 70.3343
8.37339 73.6525
8.41812 77.9248
8.46288 86.2404
8.50761 128.65
8.55235 369.73
8.59709 1089.29
8.64183 2259.12
8.68658 1089.49
8.73134 173.78
8.77609 94.7102
8.82083 88.4534
8.86558 85.7639
8.91033 83.6601
8.9551 82.1844
8.99985 80.8679
9.04461 80.3204
9.08936 79.7613
9.13412 79.017
9.17888 79.3636
9.22365 91.7772
9.26841 115.942
9.31318 89.8621
9.35794 80.4629
9.4027 80.0125
9.44749 80.2313
9.49226 81.1459
9.53703 81.919
9.5818 83.4158
9.62657 84.4882
9.67134 86.6974
9.71614 87.7491
9.76091 89.1173
9.80569 91.4179
9.85047 93.9114
9.89525 98.7306
9.94005 106.0
9.98484 148.006
10.0296 347.811
10.0744 776.386
10.1192 1756.92
10.164 1675.81
10.2088 437.117
10.2536 124.828
10.2984 103.426
10.3432 100.361
10.388 97.9583
10.4328 107.645
10.4776 160.91
10.5224 269.769
10.5672 505.424
10.612 561.745
10.6568 227.046
10.7017 104.463
10.7465 86.4128
10.7913 79.9503
10.8361 77.9816
10.8809 75.3578
10.9257 73.449
10.9706 72.4651
11.0154 70.9337
11.0602 69.2305
11.105 68.0537
11.1499 67.0241
11.1947 67.3986
11.2395 65.7598
11.2844 64.9187
11.3292 63.6491
11.374 63.2133
11.4189 62.5178
11.4637 61.6732
11.5086 61.4579
11.5534 61.1206
11.5983 60.9769
11.6431 60.559
11.688 60.0697
11.7328 59.8044
11.7777 59.8263
11.8225 59.6599
11.8674 59.6052
11.9122 62.0168
11.9571 68.7591
12.002 67.087
12.0468 64.5067
12.0917 76.625
12.1366 98.7505
12.1814 146.827
12.2263 204.763
12.2712 175.851
12.3161 98.9649
12.3609 64.6406
12.4058 61.0947
12.4507 61.0726
12.4956 61.2523
12.5405 61.4237
12.5853 62.0029
12.6302 62.5997
12.6751 64.0284
12.72 64.1034
12.7649 64.541
12.8098 65.1632
12.8547 66.2442
12.8996 67.9174
12.9445 69.1258
12.9894 70.9466
13.0343 72.6622
13.0792 76.6616
13.1242 82.3808
13.1691 107.551
13.214 147.62
13.2589 227.813
13.3038 364.806
13.3487 443.058
13.3937 279.721
13.4386 127.119
13.4835 99.1031
13.5285 119.808
13.5734 156.215
13.6183 236.719
13.6633 356.606
13.7082 359.256
13.7531 205.083
13.7981 100.312
13.843 79.4492
13.888 77.0555
13.9329 74.6731
13.9779 73.5101
14.0228 71.9836
14.0678 71.0773
14.1127 71.731
14.1577 75.5523
14.2027 73.7703
14.2476 68.9824
14.2926 67.7455
14.3376 67.2888
14.3825 66.8619
14.4275 66.2547
14.4725 66.2371
14.5175 66.3232
14.5624 66.3632
14.6074 66.6431
14.6524 67.1682
14.6974 67.5199
14.7424 68.4423
14.7874 74.5467
14.8324 88.7665
14.8774 110.021
14.9224 148.116
14.9674 208.374
15.0124 228.317
15.0574 160.818
15.1024 93.483
15.1474 70.9645
15.1924 67.8981
15.2374 66.4014
15.2824 65.8345
15.3274 64.9418
15.3725 64.3662
15.4175 64.18
15.4625 63.5277
15.5076 63.5336
15.5526 63.398
15.5976 63.2699
15.6426 63.9229
15.6877 68.4071
15.7327 79.4804
15.7778 94.2518
15.8228 121.947
15.8679 169.13
15.9129 202.104
15.958 167.967
16.003 103.13
16.0481 69.338
16.0931 62.9562
16.1382 59.8324
16.1833 58.3607
16.2283 56.6976
16.2734 56.1504
16.3185 55.7892
16.3636 55.0813
16.4086 54.6773
16.4537 54.0564
16.4988 53.4191
16.5439 53.6153
16.589 53.0021
16.6341 53.0707
16.6792 52.7017
16.7243 53.016
16.7694 52.7159
16.8145 52.5981
16.8596 52.8259
16.9047 53.6585
16.9498 54.3331
16.9949 53.7624
17.04 53.7152
17.0851 54.8087
17.1302 57.0745
17.1754 60.1785
17.2205 64.4383
17.2656 72.4253
17.3108 81.8154
17.3559 82.5676
17.401 71.9198
17.4462 61.4945
17.4913 57.4806
17.5365 56.9963
17.5815 57.2535
17.6268 57.6164
17.6718 58.3865
17.7171 58.789
17.7622 60.0741
17.8074 60.8522
17.8525 61.8425
17.8977 66.5631
17.9428 73.3954
17.9881 81.9503
18.0331 97.6976
18.0784 121.573
18.1237 141.872
18.1688 137.017
18.214 108.835
18.2591 88.0203
18.3044 88.9457
18.3495 99.2285
18.3948 107.656
18.4399 98.4256
18.4852 79.365
18.5303 65.6323
18.5756 61.3449
18.6207 60.0162
18.666 58.8025
18.7112 58.0218
18.7565 57.3287
18.8016 57.0013
18.8469 56.5492
18.892 56.0491
18.9374 55.56
18.9825 55.3014
19.0278 55.1295
19.073 55.0573
19.1183 55.3587
19.1635 56.1539
19.2088 57.897
19.254 60.7222
19.2993 65.5986
19.3447 71.9873
19.3898 76.1014
19.4352 72.356
19.4804 63.3572
19.5257 56.1512
19.5709 52.9398
19.6163 52.438
19.6615 52.2909
19.7068 51.7265
19.752 51.9097
19.7974 52.0638
19.8426 52.7596
19.888 53.7584
19.9332 54.9029
19.9786 57.3631
20.0238 60.8228
20.0692 66.7941
20.1144 70.4864
20.1598 69.1879
20.205 64.2228
20.2504 61.7292
20.2957 63.3793
20.3411 65.6724
20.3863 63.8916
20.4318 58.0299
20.477 52.8999
20.5224 50.1942
20.5677 49.3377
20.6131 48.7194
20.6586 48.504
20.7038 48.2533
20.7493 47.975
20.7945 48.1103
20.84 47.9493
20.8853 47.4939
20.9307 47.2694
20.976 47.3372
21.0215 47.1715
21.0668 47.6949
21.1122 48.059
21.1575 48.7415
21.203 49.4898
21.2483 50.2719
21.2938 50.6339
21.3391 49.0635
21.3846 47.8503
21.4299 47.2114
21.4754 47.3307
21.5207 47.3328
21.5662 47.6575
21.6116 47.8606
21.6571 48.8787
21.7024 50.0298
21.7479 51.8384
21.7933 54.2779
21.8388 57.9538
21.8843 62.8001
21.9297 65.3158
21.9752 63.8532
22.0206 59.7321
22.0661 56.2646
22.1115 55.9511
22.157 55.9218
22.2024 54.3782
22.248 51.1777
22.2933 48.9325
22.3389 47.8134
22.3843 47.6664
22.4299 47.377
22.4753 47.5816
22.5208 47.2902
22.5662 47.3528
22.6118 47.5245
22.6572 47.6321
22.7028 48.2613
22.7483 49.0076
22.7939 49.715
22.8393 51.2141
22.8849 53.2332
22.9303 55.6575
22.9759 57.6622
23.0214 57.3687
23.067 54.5879
23.1126 50.9755
23.1581 48.5732
23.2037 47.7658
23.2492 47.6535
23.2948 47.8842
23.3403 48.3928
23.3859 49.3606
23.4314 50.4249
23.477 51.9889
23.5225 54.6327
23.5682 57.2739
23.6137 58.5737
23.6593 56.4697
23.7048 52.0014
23.7505 48.128
23.796 45.8979
23.8417 45.0607
23.8872 44.696
23.9329 44.353
23.9784 43.9764
24.0241 43.6509
24.0697 43.4368
24.1154 43.2264
24.1609 42.9565
24.2066 42.7962
24.2522 42.6197
24.2979 42.3194
24.3434 42.3008
24.3892 42.1157
24.4349 42.0531
24.4805 41.9026
24.5262 42.2176
24.5718 42.0882
24.6175 42.2271
24.6631 41.9855
24.7089 41.5484
24.7545 41.4023
24.8002 41.3569
24.8458 41.3364
24.8916 41.0855
24.9372 41.2307
24.983 41.6302
25.0286 41.9417
25.0744 42.6532
25.12 43.252
25.1658 43.7091
25.2114 44.13
25.2572 44.2362
25.3029 44.3988
25.3487 44.6469
25.3943 44.1841
25.4402 43.1943
25.4858 41.8881
25.5316 40.8083
25.5773 40.3325
25.6231 40.0076
25.669 39.5402
25.7147 39.5898
25.7605 39.6392
25.8062 39.6966
25.8521 39.8275
25.8977 39.8987
25.9436 40.0474
25.9893 40.1839
26.0352 40.7631
26.0809 40.8159
26.1268 41.1361
26.1725 40.9007
26.2184 40.1944
26.2641 39.57
26.31 39.3825
26.3557 39.4147
26.4017 39.4799
26.4474 39.7567
26.4933 39.9467
26.5391 40.6172
26.585 41.3014
26.6308 41.5796
26.6767 42.0255
26.7225 41.6814
26.7684 41.1473
26.8142 40.5009
26.8601 40.0931
26.9059 39.5645
26.9519 39.0778
26.9979 38.7067
27.0437 38.1855
27.0896 38.0364
27.1354 38.0493
27.1814 37.8816
27.2272 37.8264
27.2732 37.9365
27.3191 37.8003
27.3651 37.6743
27.4109 37.627
27.4569 37.8866
27.5027 37.9606
27.5488 37.952
27.5946 37.8756
27.6407 37.6312
27.6865 37.5819
27.7326 37.2602
27.7784 37.2786
27.8245 37.2214
27.8703 37.3755
27.9164 37.733
27.9623 37.9962
28.0084 38.3578
28.0543 38.814
28.1003 38.6775
28.1462 38.6318
28.1923 38.2937
28.2384 37.7403
28.2843 37.2458
28.3304 36.7879
28.3764 36.3061
28.4225 35.8279
28.4684 35.6908
28.5145 35.3953
28.5605 35.203
28.6066 35.0599
28.6526 34.9916
28.6987 34.9309
28.7447 34.9455
28.7908 34.8227
28.8368 34.8942
28.8829 34.7157
28.9289 34.6483
28.9751 34.5902
29.0211 34.2936
29.0673 34.0997
29.1133 33.9514
29.1595 33.7936
29.2055 33.6218
29.2517 33.6796
29.2977 33.6396
29.3439 33.6835
29.3899 33.6419
29.4361 33.52
29.4824 33.4536
29.5284 33.1838
29.5746 32.8399
29.6207 32.5208
29.6669 32.5003
29.713 32.3623
29.7593 32.2383
29.8053 32.3309
29.8516 32.1503
29.8977 32.1668
29.9439 32.034
29.99 31.8657
30.0363 31.8752
30.0824 31.9185
30.1287 31.8125
30.1748 31.9175
30.2211 31.8215
30.2673 31.6599
30.3136 31.8069
30.3597 31.7572
30.406 31.5993
30.4522 31.4484
30.4985 31.5123
30.5447 31.5778
30.591 31.6779
30.6372 31.7923
30.6835 31.6403
30.7297 31.8243
30.7761 31.8195
30.8224 31.5709
30.8686 31.4724
30.915 31.2117
30.9612 30.9245
31.0076 30.8174
31.0538 30.694
31.1002 30.737
31.1464 30.5326
31.1928 30.4212
31.2391 30.5104
31.2855 30.3747
31.3317 30.3785
31.3781 30.428
31.4244 30.4903
31.4708 30.3382
31.5171 30.3729
31.5636 30.3345
31.6098 30.2127
31.6563 30.01
31.7026 29.8149
31.7491 29.7001
31.7953 29.8011
31.8418 29.7383
31.8881 29.6977
31.9346 29.6906
31.9809 29.6613
32.0275 29.5306
32.074 29.3893
32.1203 29.2126
32.1668 29.0526
32.2132 28.921
32.2597 28.7962
32.306 28.6805
32.3526 28.5275
32.399 28.507
32.4455 28.3007
32.4919 28.267
32.5385 28.1625
32.5848 28.0709
32.6314 28.0246
32.6778 27.8806
32.7244 27.8278
32.7708 27.6737
32.8174 27.7688
32.8638 27.5526
32.9104 27.6024
32.9569 27.6518
33.0035 27.4238
33.0499 27.3303
33.0966 27.346
33.143 27.3827
33.1897 27.3471
33.2361 27.2524
33.2828 27.1836
33.3293 26.9845
33.3759 26.9519
33.4226 26.8558
33.4691 26.6256
33.5158 26.6751
33.5623 26.4972
33.609 26.3038
33.6555 26.1593
33.7022 26.1312
33.7487 26.0521
33.7954 26.0459
33.842 25.9279
33.8887 25.9597
33.9353 25.8438
33.982 25.759
34.0286 25.5659
34.0753 25.5747
34.1219 25.4417
34.1687 25.3794
34.2152 25.3668
34.262 25.2994
34.3086 25.155
34.3554 25.1889
34.402 24.9878
34.4488 24.8993
34.4954 24.8317
34.5422 24.792
34.5889 24.6075
34.6357 24.553
34.6825 24.5289
34.7292 24.4423
34.776 24.3775
34.8227 24.2549
34.8695 24.2245
34.9162 24.1548
34.9631 24.06
35.0098 24.0939
35.0566 23.9658
35.1033 23.9767
35.1502 23.8365
35.1969 23.8548
35.2438 23.7927
35.2906 23.7359
35.3375 23.6561
35.3842 23.6629
35.4311 23.643
35.4779 23.6008
35.5248 23.5845
35.5716 23.4104
35.6185 23.3774
35.6653 23.2286
35.7123 23.2196
35.759 23.063
35.806 22.9733
35.8528 22.9265
35.8998 22.9289
35.9468 22.7476
35.9936 22.7126
36.0406 22.6551
36.0874 22.6082
36.1345 22.6034
36.1813 22.5251
36.2283 22.3509
36.2752 22.3503
36.3222 22.3504
36.3691 22.2066
36.4161 22.0429
36.463 22.0844
36.5101 22.0388
36.557 22.0148
36.6041 21.8005
36.651 21.9149
36.6981 21.7949
36.745 21.7069
36.7921 21.6558
36.839 21.535
36.8861 21.4988
36.9331 21.3704
36.9802 21.3501
37.0272 21.1943
37.0743 21.1324
37.1213 21.1412
37.1684 21.1291
37.2154 21.0394
37.2626 20.9006
37.3098 20.8122
37.3568 20.76
37.404 20.7647
37.451 20.6364
37.4982 20.6663
37.5452 20.5227
37.5924 20.4755
37.6395 20.4974
37.6867 20.4007
37.7337 20.3965
37.781 20.1731
37.8281 20.1659
37.8753 20.1034
37.9224 19.993
37.9697 19.9955
38.0168 19.8376
38.064 19.8522
38.1111 19.7692
38.1584 19.7075
38.2056 19.6245
38.2529 19.5713
38.3 19.4662
38.3473 19.4962
38.3945 19.4137
38.4418 19.3684
38.489 19.2862
38.5363 19.1723
38.5837 19.1336
38.6309 19.0734
38.6782 19.0474
38.7254 18.9282
38.7728 18.9047
38.82 18.853
38.8674 18.8437
38.9146 18.6874
38.9621 18.6216
39.0093 18.5718
39.0567 18.59
39.104 18.4905
39.1514 18.4499
39.1987 18.3377
39.2461 18.3568
39.2934 18.2324
39.3409 18.1836
39.3882 18.1116
39.4356 18.0843
39.483 17.96
39.5304 17.9731
39.5778 17.898
39.6253 17.8936
39.6726 17.8076
39.7201 17.8047
39.7675 17.6896
39.815 17.6709
39.8624 17.5953
39.9099 17.5687
39.9575 17.5062
40.0049 17.3936
40.0525 17.4312
40.0999 17.2574
40.1474 17.2574
40.1949 17.1928
40.2425 17.1104
40.2899 17.0958
40.3375 17.009
40.385 16.9735
40.4326 16.9273
40.48 16.8517
40.5277 16.8275
40.5752 16.8076
40.6228 16.7138
40.6703 16.6373
40.718 16.6322
40.7655 16.5436
40.8132 16.5024
40.8607 16.4652
40.9084 16.3758
40.9559 16.3376
41.0036 16.3871
41.0512 16.2689
41.0989 16.195
41.1465 16.1195
41.1942 16.054
41.242 15.9947
41.2896 15.9569
41.3373 15.8556
41.3849 15.8913
41.4327 15.7436
41.4803 15.7361
41.5281 15.6959
41.5758 15.6406
41.6236 15.6043
41.6712 15.5485
41.7191 15.5058
41.7667 15.4276
41.8146 15.3806
41.8622 15.3179
41.9101 15.3016
41.9578 15.2109
42.0057 15.1715
42.0534 15.1031
42.1013 15.0365
42.149 15.0496
42.1969 14.9956
42.2446 14.9182
42.2925 14.9068
42.3403 14.8705
42.3882 14.804
42.436 14.7662
42.4839 14.6449
42.5319 14.6521
42.5797 14.5766
42.6277 14.5605
42.6755 14.4919
42.7235 14.444
42.7713 14.3913
42.8193 14.3536
42.8671 14.2632
42.9152 14.3053
42.963 14.2278
43.0111 14.1437
43.0589 14.0942
43.107 13.9533
43.1549 14.0099
43.2029 13.9748
43.2508 13.8903
43.2989 13.8305
43.3468 13.8053
43.3949 13.7835
43.4429 13.7377
43.491 13.6416
43.5389 13.5937
43.5871 13.5858
43.635 13.5146
43.6832 13.5009
43.7312 13.4334
43.7793 13.3853
43.8273 13.3692
43.8755 13.2498
43.9237 13.229
43.9717 13.2322
44.0199 13.1578
44.068 13.0944
44.1162 13.0749
44.1642 13.0548
44.2125 12.9641
44.2606 12.9294
44.3088 12.8895
44.3569 12.841
44.4052 12.8448
44.4533 12.7315
44.5016 12.6608
44.5497 12.6382
44.598 12.6196
44.6461 12.57
44.6945 12.5292
44.7426 12.4889
44.791 12.4076
44.8391 12.3961
44.8875 12.3637
44.9357 12.3294
44.984 12.2529
45.0322 12.223
45.0806 12.1431
45.1288 12.1567
45.1773 12.0756
45.2257 12.0422
45.2739 11.9943
45.3224 11.9495
45.3706 11.9071
45.4191 11.8991
45.4673 11.8846
45.5158 11.7917
45.5641 11.7419
45.6126 11.7164
45.6609 11.6277
45.7094 11.6423
45.7577 11.5756
45.8063 11.4958
45.8546 11.5342
45.9031 11.4466
45.9515 11.4375
46.0001 11.3818
46.0484 11.3732
46.097 11.3284
46.1454 11.3142
46.194 11.2287
46.2424 11.1558
46.291 11.1358
46.3395 11.1162
46.3881 11.0411
46.4365 11.0521
46.4852 11.023
46.5337 10.9318
46.5823 10.9007
46.631 10.8278
46.6795 10.8538
46.7282 10.784
46.7767 10.754
46.8254 10.6974
46.8739 10.6235
46.9226 10.6018
46.9712 10.5274
47.0199 10.548
47.0685 10.4985
47.1173 10.4514
47.1658 10.4243
47.2146 10.3871
47.2632 10.371
47.312 10.331
47.3606 10.2847
47.4095 10.2189
47.4581 10.1955
47.5069 10.1679
47.5556 10.0922
47.6044 10.0703
47.6531 10.0082
47.702 9.98636
47.7507 9.96878
47.7996 9.93025
47.8483 9.90432
47.8972 9.84866
47.9461 9.85913
47.9948 9.74471
48.0438 9.74999
48.0925 9.73483
48.1415 9.70926
48.1902 9.57046
48.2392 9.6024
48.288 9.57649
48.337 9.5733
48.3858 9.47295
48.4348 9.50398
48.4837 9.50228
48.5327 9.42506
48.5815 9.38029
48.6306 9.32431
48.6795 9.30235
48.7285 9.26109
48.7774 9.22492
48.8265 9.2126
48.8754 9.18969
48.9245 9.11476
48.9734 9.08573
49.0226 9.06362
49.0715 9.05122
49.1206 9.00084
49.1696 8.95843
49.2188 8.97327
49.2679 8.86956
49.3169 8.85153
49.3661 8.82786
49.4151 8.79436
49.4643 8.73854
49.5134 8.72753
49.5626 8.63323
49.6117 8.62794
49.6609 8.64032
49.71 8.58274
49.7592 8.54957
49.8083 8.52336
49.8576 8.49259
49.9067 8.42547
49.956 8.47823
50.0052 8.34884
50.0545 8.38192
50.1036 8.35233
50.153 8.27288
50.2022 8.24697
50.2515 8.21101
50.3007 8.19323
50.3501 8.17548
50.3993 8.14859
50.4487 8.11507
50.498 8.05783
50.5474 8.04393
50.5966 7.99595
50.6461 7.99193
50.6955 7.96418
50.7448 7.92907
50.7943 7.85236
50.8436 7.86907
50.8931 7.82913
50.9424 7.77646
50.9919 7.73924
51.0413 7.75939
51.0908 7.68006
51.1402 7.6815
51.1897 7.63624
51.2391 7.5909
51.2887 7.61571
51.3381 7.54217
51.3877 7.5286
51.4371 7.49421
51.4867 7.45337
51.5362 7.46627
51.5858 7.4232
51.6353 7.36627
51.6849 7.35475
51.7344 7.3099
51.7841 7.30055
51.8336 7.26665
51.8833 7.22732
51.9328 7.18195
51.9826 7.16694
52.0323 7.13927
52.0818 7.10483
52.1316 7.03224
52.1812 7.03097
52.231 7.02205
52.2806 6.96693
52.3304 6.95999
52.38 6.91892
52.4298 6.9026
52.4794 6.88174
52.5293 6.80452
52.5789 6.83639
52.6288 6.78762
52.6785 6.7461
52.7284 6.73752
52.7781 6.72171
52.828 6.6765
52.8777 6.63844
52.9276 6.5773
52.9774 6.56172
53.0273 6.58629
53.0771 6.53629
53.1271 6.51541
53.1769 6.51354
53.2269 6.42973
53.2767 6.4389
53.3267 6.41384
53.3765 6.40002
53.4266 6.3391
53.4766 6.32745
53.5265 6.28073
53.5765 6.28046
53.6264 6.23581
53.6765 6.22021
53.7264 6.17659
53.7765 6.19477
53.8265 6.09299
53.8766 6.07346
53.9266 6.06599
53.9767 6.04323
54.0267 6.03495
54.0769 5.9672
54.1269 5.92611
54.1771 5.93038
54.2271 5.89378
54.2773 5.85312
54.3274 5.8474
54.3776 5.79586
54.4277 5.77339
54.478 5.76399
54.528 5.73916
54.5783 5.67954
54.6285 5.61321
54.6788 5.59152
54.7289 5.54503
54.7792 5.54389
54.8296 5.51087
54.8798 5.44784
54.9301 5.37831
54.9803 5.34611
55.0307 5.32913
55.0809 5.27648
55.1314 5.25416
55.1816 5.18185
55.232 5.17847
55.2823 5.12537
55.3328 5.11973
55.383 5.04602
55.4335 4.99201
55.4838 5.00873
55.5344 4.93367
55.5847 4.88499
55.6352 4.8906
55.6856 4.77377
55.7361 4.81256