File: XRD/Ni3Fe_FD0866.xy
TT I
1.27165 7.43801
1.31627 6.1824
1.36089 6.78352
1.40551 6.1152
1.45013 5.88152
1.49476 6.38509
1.53938 5.50033
1.584 5.20844
1.62863 5.4153
1.67325 5.40341
1.71787 5.09804
1.7625 5.10643
1.80712 4.52922
1.85174 4.84095
1.89636 5.30864
1.94099 4.63258
1.98562 4.98532
2.03025 4.97374
2.07487 4.62961
2.11949 4.73441
2.16411 4.96292
2.20874 15.6968
2.25338 25.4514
2.298 6.74127
2.34263 6.34265
2.38725 5.94261
2.43188 6.62037
2.4765 7.50677
2.52115 7.36717
2.56577 7.78064
2.6104 8.25414
2.65503 8.51312
2.69965 8.48122
2.7443 8.74263
2.78893 8.34434
2.83356 8.30496
2.87818 8.98371
2.92281 9.09
2.96744 9.63692
3.01209 10.4779
3.05672 10.9944
3.10135 12.3629
3.14599 13.2241
3.19062 15.1423
3.23527 15.5332
3.2799 15.4634
3.32454 16.841
3.36917 17.8454
3.4138 18.9311
3.45844 19.6837
3.50309 21.1511
3.54773 21.7259
3.59237 24.0446
3.637 98.535
3.68164 61.982
3.7263 26.704
3.77094 26.2
3.81558 26.6728
3.86022 27.5776
3.90486 28.8387
3.9495 29.2855
3.99416 30.7855
4.0388 32.0733
4.08344 33.2471
4.12809 35.5471
4.17273 36.9778
4.21738 42.9784
4.26204 266.034
4.30669 233.867
4.35133 48.6561
4.39598 44.1888
4.44063 54.1888
4.4853 66.8699
4.52995 49.6724
4.5746 50.6165
4.61925 52.8007
4.6639 54.9004
4.70855 57.2446
4.75322 60.0086
4.79788 62.9213
4.84253 66.2514
4.88719 70.1414
4.93184 73.8274
4.97652 79.1196
5.02118 84.5356
5.06583 91.7594
5.11049 102.45
5.15515 170.075
5.19981 294.41
5.24449 2429.76
5.28916 12552.1
5.33382 2789.15
5.37848 177.406
5.42315 125.688
5.46783 111.243
5.5125 104.151
5.55716 100.461
5.60183 97.0719
5.6465 95.2976
5.69117 92.5015
5.73586 90.6809
5.78053 90.0238
5.8252 89.0864
5.86988 90.2241
5.91455 91.3039
5.95924 96.74
6.00392 173.112
6.0486 821.369
6.09328 4327.84
6.13795 3207.79
6.18263 220.931
6.22733 90.7356
6.27201 81.6882
6.3167 102.906
6.36138 80.3524
6.40606 68.3197
6.45075 66.9121
6.49545 65.0894
6.54014 63.4466
6.58483 62.5827
6.62952 62.3146
6.67421 95.8162
6.71892 149.963
6.76361 68.9476
6.8083 58.2019
6.853 56.9275
6.89769 56.484
6.94239 56.1417
6.98711 55.3862
7.03181 55.1639
7.07651 54.9422
7.12121 54.9435
7.16591 54.7744
7.21063 55.182
7.25533 71.5336
7.30004 186.636
7.34475 93.8594
7.38945 56.3202
7.43416 54.2534
7.47889 54.1169
7.5236 54.5235
7.56831 55.0987
7.61303 56.5464
7.65774 57.6635
7.70247 55.5142
7.74719 55.8477
7.79191 56.1111
7.83663 56.3837
7.88135 57.2211
7.92607 57.8917
7.97081 59.4932
8.01553 60.0279
8.06026 61.374
8.10498 62.9113
8.14971 73.2437
8.19446 71.9569
8.23919 68.8852
8.28392 70.7337
8.32865 72.6894
8.37339 76.6287
8.41812 84.011
8.46288 112.702
8.50761 145.487
8.55235 335.504
8.59709 1135.89
8.64183 2250.55
8.68658 953.55
8.73134 165.653
8.77609 97.6889
8.82083 90.9316
8.86558 88.1126
8.91033 88.9278
8.9551 90.9707
8.99985 84.4572
9.04461 82.3182
9.08936 81.3242
9.13412 80.4137
9.17888 81.394
9.22365 81.5178
9.26841 80.8154
9.31318 81.2924
9.35794 81.6695
9.4027 82.1182
9.44749 82.8313
9.49226 83.3429
9.53703 84.1636
9.5818 86.2233
9.62657 90.5151
9.67134 97.9041
9.71614 92.4542
9.76091 92.604
9.80569 94.9581
9.85047 98.1119
9.89525 124.227
9.94005 134.659
9.98484 158.035
10.0296 302.828
10.0744 760.69
10.1192 1772.92
10.164 1583.22
10.2088 398.336
10.2536 124.557
10.2984 112.099
10.3432 114.083
10.388 102.863
10.4328 111.801
10.4776 147.803
10.5224 267.387
10.5672 527.576
10.612 500.182
10.6568 201.563
10.7017 95.83
10.7465 85.2662
10.7913 81.8164
10.8361 80.3332
10.8809 77.8662
10.9257 77.7692
10.9706 78.5518
11.0154 73.922
11.0602 71.9738
11.105 70.9613
11.1499 76.0536
11.1947 83.855
11.2395 74.2941
11.2844 70.1481
11.3292 66.4321
11.374 65.3775
11.4189 64.819
11.4637 64.0634
11.5086 64.7179
11.5534 67.9551
11.5983 64.9618
11.6431 62.8169
11.688 62.0712
11.7328 62.0247
11.7777 61.8967
11.8225 61.8137
11.8674 61.5857
11.9122 61.8611
11.9571 62.3051
12.002 62.5429
12.0468 65.6373
12.0917 75.3975
12.1366 97.9981
12.1814 150.051
12.2263 207.425
12.2712 167.838
12.3161 96.2512
12.3609 70.0773
12.4058 63.9507
12.4507 63.6101
12.4956 63.5766
12.5405 63.5963
12.5853 64.6097
12.6302 73.1715
12.6751 78.8082
12.72 69.1963
12.7649 67.064
12.8098 67.5146
12.8547 68.5157
12.8996 69.9376
12.9445 70.9907
12.9894 72.7546
13.0343 74.5105
13.0792 78.0655
13.1242 84.3724
13.1691 104.872
13.214 139.143
13.2589 228.662
13.3038 370.036
13.3487 421.232
13.3937 259.826
13.4386 122.237
13.4835 100.584
13.5285 113.384
13.5734 150.502
13.6183 243.053
13.6633 352.326
13.7082 339.747
13.7531 182.33
13.7981 95.9228
13.843 80.4911
13.888 78.3623
13.9329 75.8973
13.9779 74.7939
14.0228 73.2011
14.0678 71.9293
14.1127 71.6433
14.1577 71.4695
14.2027 70.5305
14.2476 69.1796
14.2926 69.9084
14.3376 70.8672
14.3825 69.3031
14.4275 67.6967
14.4725 67.5345
14.5175 67.9627
14.5624 68.0788
14.6074 70.4908
14.6524 70.7178
14.6974 69.2741
14.7424 70.1846
14.7874 75.5988
14.8324 84.4554
14.8774 105.377
14.9224 150.513
14.9674 209.689
15.0124 216.925
15.0574 145.361
15.1024 89.2944
15.1474 71.2083
15.1924 69.5664
15.2374 70.4208
15.2824 69.3409
15.3274 67.2404
15.3725 65.7487
15.4175 65.4114
15.4625 65.265
15.5076 65.2625
15.5526 65.1095
15.5976 64.8104
15.6426 65.3101
15.6877 69.3095
15.7327 76.0381
15.7778 90.4035
15.8228 122.731
15.8679 170.428
15.9129 195.553
15.958 153.994
16.003 93.6094
16.0481 67.0985
16.0931 63.8783
16.1382 62.008
16.1833 60.021
16.2283 58.3112
16.2734 57.5973
16.3185 58.2277
16.3636 58.9227
16.4086 56.922
16.4537 55.4398
16.4988 54.5928
16.5439 54.877
16.589 54.3624
16.6341 54.2328
16.6792 53.8436
16.7243 54.1397
16.7694 54.228
16.8145 54.2199
16.8596 54.583
16.9047 56.2339
16.9498 56.4923
16.9949 55.0539
17.04 54.9316
17.0851 55.9305
17.1302 57.4502
17.1754 60.2581
17.2205 65.2044
17.2656 73.396
17.3108 83.1224
17.3559 82.3714
17.401 70.2224
17.4462 61.1056
17.4913 58.2584
17.5365 58.2561
17.5815 58.3187
17.6268 58.5407
17.6718 59.4262
17.7171 60.1018
17.7622 60.3029
17.8074 60.6534
17.8525 62.4828
17.8977 65.8766
17.9428 71.0728
17.9881 79.8784
18.0331 97.6083
18.0784 120.765
18.1237 138.45
18.1688 127.497
18.214 100.062
18.2591 84.2671
18.3044 89.4834
18.3495 100.203
18.3948 104.919
18.4399 94.8777
18.4852 76.5137
18.5303 64.9552
18.5756 61.1752
18.6207 60.2941
18.666 59.5793
18.7112 58.7806
18.7565 58.1085
18.8016 57.7582
18.8469 57.1689
18.892 56.9031
18.9374 56.2718
18.9825 56.2763
19.0278 56.0917
19.073 56.0244
19.1183 56.3823
19.1635 57.183
19.2088 58.2283
19.254 60.7227
19.2993 65.448
19.3447 72.1498
19.3898 76.1352
19.4352 71.1057
19.4804 62.2191
19.5257 56.0037
19.5709 53.4199
19.6163 53.1771
19.6615 53.025
19.7068 52.5802
19.752 52.5775
19.7974 52.7459
19.8426 53.5598
19.888 54.1274
19.9332 55.2116
19.9786 57.5017
20.0238 61.5723
20.0692 66.5869
20.1144 69.0728
20.1598 66.983
20.205 62.3877
20.2504 61.386
20.2957 63.5558
20.3411 65.3625
20.3863 63.4377
20.4318 57.6859
20.477 53.0958
20.5224 51.0812
20.5677 50.3639
20.6131 49.5521
20.6586 48.9582
20.7038 48.7868
20.7493 48.408
20.7945 48.3015
20.84 48.315
20.8853 48.1625
20.9307 47.8168
20.976 47.9437
21.0215 47.7832
21.0668 48.3655
21.1122 48.6439
21.1575 49.452
21.203 50.3361
21.2483 50.8614
21.2938 50.6667
21.3391 49.4275
21.3846 48.3118
21.4299 47.7409
21.4754 47.6429
21.5207 47.8427
21.5662 48.0663
21.6116 48.3164
21.6571 48.9529
21.7024 49.8429
21.7479 51.5484
21.7933 54.3924
21.8388 58.1741
21.8843 62.0424
21.9297 63.9158
21.9752 62.2413
22.0206 58.5961
22.0661 55.9072
22.1115 55.4725
22.157 55.1346
22.2024 53.2641
22.248 50.6541
22.2933 49.2611
22.3389 48.327
22.3843 48.3354
22.4299 48.2905
22.4753 48.3902
22.5208 48.1923
22.5662 47.7179
22.6118 47.9404
22.6572 48.1044
22.7028 48.3872
22.7483 48.7968
22.7939 49.478
22.8393 50.9202
22.8849 53.1551
22.9303 55.5207
22.9759 57.2795
23.0214 56.6095
23.067 53.6614
23.1126 50.3968
23.1581 48.5175
23.2037 48.0743
23.2492 48.0633
23.2948 48.0722
23.3403 48.2292
23.3859 48.8123
23.4314 49.919
23.477 51.8791
23.5225 54.1947
23.5682 56.4873
23.6137 57.1752
23.6593 54.8292
23.7048 50.8783
23.7505 47.8357
23.796 46.1713
23.8417 45.3628
23.8872 45.0209
23.9329 44.5289
23.9784 44.2514
24.0241 43.9784
24.0697 43.9683
24.1154 43.5699
24.1609 43.3748
24.2066 43.3312
24.2522 43.227
24.2979 42.9247
24.3434 42.697
24.3892 42.643
24.4349 42.4803
24.4805 42.3702
24.5262 42.5106
24.5718 42.4796
24.6175 42.269
24.6631 42.2582
24.7089 41.8703
24.7545 41.7972
24.8002 41.6597
24.8458 41.5597
24.8916 41.5653
24.9372 41.573
24.983 41.9538
25.0286 42.1448
25.0744 42.609
25.12 43.199
25.1658 43.8801
25.2114 44.0446
25.2572 44.1413
25.3029 44.2683
25.3487 44.2137
25.3943 44.0491
25.4402 43.0731
25.4858 41.9116
25.5316 40.8285
25.5773 40.3769
25.6231 40.2252
25.669 39.9511
25.7147 39.9019
25.7605 39.9019
25.8062 39.9341
25.8521 40.0408
25.8977 40.067
25.9436 40.2944
25.9893 40.3807
26.0352 40.9425
26.0809 41.1259
26.1268 41.2592
26.1725 40.8348
26.2184 40.2728
26.2641 39.7956
26.31 39.5612
26.3557 39.5492
26.4017 39.5739
26.4474 39.8506
26.4933 40.1495
26.5391 40.7335
26.585 41.2305
26.6308 41.4989
26.6767 41.6389
26.7225 41.4181
26.7684 40.9356
26.8142 40.2696
26.8601 39.8319
26.9059 39.5102
26.9519 38.9592
26.9979 38.6821
27.0437 38.2957
27.0896 38.2316
27.1354 38.2189
27.1814 38.2284
27.2272 38.0274
27.2732 38.0155
27.3191 37.8431
27.3651 37.9399
27.4109 37.8648
27.4569 37.905
27.5027 37.8915
27.5488 38.0123
27.5946 38.0359
27.6407 37.7624
27.6865 37.5603
27.7326 37.3811
27.7784 37.3177
27.8245 37.1256
27.8703 37.4171
27.9164 37.6949
27.9623 37.9677
28.0084 38.2514
28.0543 38.71
28.1003 38.4058
28.1462 38.1926
28.1923 38.0463
28.2384 37.4515
28.2843 37.1567
28.3304 36.7342
28.3764 36.3194
28.4225 35.9014
28.4684 35.694
28.5145 35.4841
28.5605 35.4026
28.6066 35.3049
28.6526 35.2652
28.6987 35.1295
28.7447 35.044
28.7908 35.0055
28.8368 34.9435
28.8829 35.0577
28.9289 35.0305
28.9751 34.6956
29.0211 34.4786
29.0673 34.1665
29.1133 34.163
29.1595 33.9108
29.2055 33.794
29.2517 33.8243
29.2977 33.8313
29.3439 33.7901
29.3899 33.8473
29.4361 33.6922
29.4824 33.5748
29.5284 33.1963
29.5746 32.9693
29.6207 32.7075
29.6669 32.6703
29.713 32.5773
29.7593 32.5171
29.8053 32.5043
29.8516 32.292
29.8977 32.4242
29.9439 32.1545
29.99 32.162
30.0363 32.0735
30.0824 32.001
30.1287 31.9757
30.1748 32.0607
30.2211 31.985
30.2673 31.8257
30.3136 31.9448
30.3597 31.8743
30.406 31.7165
30.4522 31.5861
30.4985 31.6322
30.5447 31.7221
30.591 31.6506
30.6372 31.7313
30.6835 31.697
30.7297 31.7862
30.7761 31.6504
30.8224 31.6003
30.8686 31.3911
30.915 31.2265
30.9612 31.0274
31.0076 30.9059
31.0538 30.8382
31.1002 30.7531
31.1464 30.5107
31.1928 30.5126
31.2391 30.4698
31.2855 30.5088
31.3317 30.4005
31.3781 30.4492
31.4244 30.4405
31.4708 30.4907
31.5171 30.3515
31.5636 30.3083
31.6098 30.1574
31.6563 30.0023
31.7026 29.7345
31.7491 29.729
31.7953 29.807
31.8418 29.7251
31.8881 29.7552
31.9346 29.6889
31.9809 29.6881
32.0275 29.6152
32.074 29.4302
32.1203 29.2384
32.1668 29.1973
32.2132 29.1114
32.2597 28.8876
32.306 28.9096
32.3526 28.5378
32.399 28.5352
32.4455 28.4204
32.4919 28.4205
32.5385 28.1685
32.5848 28.108
32.6314 28.1525
32.6778 27.9668
32.7244 27.9294
32.7708 27.848
32.8174 27.8245
32.8638 27.6171
32.9104 27.7281
32.9569 27.6876
33.0035 27.5196
33.0499 27.54
33.0966 27.4659
33.143 27.4204
33.1897 27.3126
33.2361 27.1599
33.2828 27.1475
33.3293 27.0197
33.3759 27.0286
33.4226 26.9037
33.4691 26.7393
33.5158 26.7259
33.5623 26.5559
33.609 26.3656
33.6555 26.3685
33.7022 26.2477
33.7487 26.1688
33.7954 26.0508
33.842 26.0288
33.8887 26.0294
33.9353 25.9096
33.982 25.8203
34.0286 25.663
34.0753 25.6651
34.1219 25.5622
34.1687 25.4966
34.2152 25.4764
34.262 25.3314
34.3086 25.2691
34.3554 25.2169
34.402 25.1066
34.4488 25.0108
34.4954 24.9039
34.5422 24.8256
34.5889 24.7159
34.6357 24.6327
34.6825 24.6589
34.7292 24.5392
34.776 24.3721
34.8227 24.3721
34.8695 24.2546
34.9162 24.2965
34.9631 24.1002
35.0098 24.1744
35.0566 24.0955
35.1033 24.0109
35.1502 23.9456
35.1969 23.8897
35.2438 23.8501
35.2906 23.8363
35.3375 23.7256
35.3842 23.7034
35.4311 23.7479
35.4779 23.6358
35.5248 23.646
35.5716 23.5311
35.6185 23.4221
35.6653 23.3312
35.7123 23.2243
35.759 23.0681
35.806 23.1628
35.8528 22.9804
35.8998 22.9641
35.9468 22.8475
35.9936 22.8727
36.0406 22.7463
36.0874 22.7375
36.1345 22.5971
36.1813 22.4941
36.2283 22.3352
36.2752 22.3573
36.3222 22.3256
36.3691 22.3155
36.4161 22.156
36.463 22.1701
36.5101 22.1943
36.557 22.0948
36.6041 21.8891
36.651 21.8888
36.6981 21.8604
36.745 21.8378
36.7921 21.6718
36.839 21.5382
36.8861 21.5449
36.9331 21.4919
36.9802 21.3831
37.0272 21.2609
37.0743 21.1915
37.1213 21.1247
37.1684 21.14
37.2154 21.0656
37.2626 20.9298
37.3098 21.0362
37.3568 20.8212
37.404 20.8475
37.451 20.7789
37.4982 20.6761
37.5452 20.5465
37.5924 20.5491
37.6395 20.5247
37.6867 20.4675
37.7337 20.4095
37.781 20.2841
37.8281 20.2286
37.8753 20.106
37.9224 20.0387
37.9697 20.0347
38.0168 19.8849
38.064 19.7879
38.1111 19.9042
38.1584 19.7841
38.2056 19.6791
38.2529 19.5938
38.3 19.559
38.3473 19.5336
38.3945 19.4144
38.4418 19.4028
38.489 19.4054
38.5363 19.313
38.5837 19.2172
38.6309 19.1322
38.6782 19.0536
38.7254 19.0151
38.7728 18.9905
38.82 18.8901
38.8674 18.8465
38.9146 18.8005
38.9621 18.7545
39.0093 18.7129
39.0567 18.6029
39.104 18.5111
39.1514 18.4485
39.1987 18.442
39.2461 18.4277
39.2934 18.3965
39.3409 18.1914
39.3882 18.1872
39.4356 18.0897
39.483 18.0283
39.5304 18.0724
39.5778 18.004
39.6253 17.9042
39.6726 17.8425
39.7201 17.8171
39.7675 17.7563
39.815 17.7026
39.8624 17.6456
39.9099 17.6067
39.9575 17.5019
40.0049 17.4674
40.0525 17.403
40.0999 17.4056
40.1474 17.322
40.1949 17.2448
40.2425 17.1981
40.2899 17.0694
40.3375 17.0668
40.385 16.9969
40.4326 16.9636
40.48 16.9334
40.5277 16.9589
40.5752 16.7948
40.6228 16.7433
40.6703 16.6824
40.718 16.6471
40.7655 16.6622
40.8132 16.5166
40.8607 16.568
40.9084 16.4835
40.9559 16.4423
41.0036 16.3484
41.0512 16.3546
41.0989 16.2571
41.1465 16.166
41.1942 16.1154
41.242 16.0195
41.2896 16.0148
41.3373 15.9542
41.3849 15.9321
41.4327 15.8431
41.4803 15.7822
41.5281 15.7838
41.5758 15.6343
41.6236 15.5904
41.6712 15.6312
41.7191 15.5386
41.7667 15.4724
41.8146 15.4447
41.8622 15.4228
41.9101 15.3737
41.9578 15.2738
42.0057 15.2124
42.0534 15.1682
42.1013 15.1916
42.149 15.0524
42.1969 15.0204
42.2446 14.9594
42.2925 14.9648
42.3403 14.9055
42.3882 14.8544
42.436 14.7735
42.4839 14.7209
42.5319 14.6738
42.5797 14.6871
42.6277 14.6107
42.6755 14.4629
42.7235 14.4873
42.7713 14.4545
42.8193 14.4466
42.8671 14.3605
42.9152 14.2888
42.963 14.2311
43.0111 14.1494
43.0589 14.1646
43.107 14.0532
43.1549 14.0466
43.2029 13.9408
43.2508 13.9631
43.2989 13.918
43.3468 13.829
43.3949 13.7934
43.4429 13.8149
43.491 13.7036
43.5389 13.6862
43.5871 13.6147
43.635 13.5332
43.6832 13.563
43.7312 13.5049
43.7793 13.3971
43.8273 13.3623
43.8755 13.3599
43.9237 13.322
43.9717 13.2713
44.0199 13.1789
44.068 13.2134
44.1162 13.1299
44.1642 13.0769
44.2125 12.9965
44.2606 12.9906
44.3088 12.9337
44.3569 12.8721
44.4052 12.8754
44.4533 12.7884
44.5016 12.7513
44.5497 12.727
44.598 12.6284
44.6461 12.6025
44.6945 12.5382
44.7426 12.5279
44.791 12.474
44.8391 12.4683
44.8875 12.3983
44.9357 12.3709
44.984 12.3227
45.0322 12.2874
45.0806 12.2428
45.1288 12.1794
45.1773 12.1347
45.2257 12.0766
45.2739 12.0479
45.3224 11.9778
45.3706 11.9922
45.4191 11.9075
45.4673 11.9605
45.5158 11.8387
45.5641 11.7756
45.6126 11.7696
45.6609 11.7013
45.7094 11.6324
45.7577 11.6471
45.8063 11.5661
45.8546 11.5318
45.9031 11.4977
45.9515 11.4816
46.0001 11.4228
46.0484 11.3889
46.097 11.362
46.1454 11.3233
46.194 11.2743
46.2424 11.1864
46.291 11.2014
46.3395 11.1797
46.3881 11.0912
46.4365 11.0795
46.4852 11.0128
46.5337 11.008
46.5823 10.9645
46.631 10.897
46.6795 10.8764
46.7282 10.8285
46.7767 10.7665
46.8254 10.7228
46.8739 10.6801
46.9226 10.6939
46.9712 10.659
47.0199 10.6148
47.0685 10.5913
47.1173 10.5121
47.1658 10.4549
47.2146 10.4157
47.2632 10.3613
47.312 10.3662
47.3606 10.2844
47.4095 10.2952
47.4581 10.2338
47.5069 10.1544
47.5556 10.1688
47.6044 10.1435
47.6531 10.0993
47.702 10.0397
47.7507 10.0075
47.7996 9.98476
47.8483 9.95005
47.8972 9.9138
47.9461 9.86232
47.9948 9.84018
48.0438 9.8078
48.0925 9.76544
48.1415 9.74511
48.1902 9.69062
48.2392 9.67737
48.288 9.62917
48.337 9.58802
48.3858 9.5665
48.4348 9.51603
48.4837 9.55213
48.5327 9.47529
48.5815 9.42967
48.6306 9.41827
48.6795 9.37815
48.7285 9.32973
48.7774 9.28959
48.8265 9.25666
48.8754 9.18777
48.9245 9.12665
48.9734 9.1366
49.0226 9.10481
49.0715 9.11235
49.1206 9.04765
49.1696 9.00277
49.2188 8.9935
49.2679 8.9036
49.3169 8.90514
49.3661 8.89824
49.4151 8.82111
49.4643 8.78037
49.5134 8.76856
49.5626 8.6968
49.6117 8.66121
49.6609 8.66666
49.71 8.59989
49.7592 8.61694
49.8083 8.56537
49.8576 8.54659
49.9067 8.46209
49.956 8.47493
50.0052 8.41141
50.0545 8.38729
50.1036 8.3604
50.153 8.34207
50.2022 8.29444
50.2515 8.27232
50.3007 8.23131
50.3501 8.20147
50.3993 8.20172
50.4487 8.13037
50.498 8.1009
50.5474 8.09932
50.5966 8.08172
50.6461 8.02815
50.6955 8.01176
50.7448 7.98567
50.7943 7.93588
50.8436 7.87048
50.8931 7.86009
50.9424 7.83649
50.9919 7.83576
51.0413 7.77232
51.0908 7.77022
51.1402 7.71874
51.1897 7.71397
51.2391 7.6434
51.2887 7.64242
51.3381 7.60223
51.3877 7.57849
51.4371 7.55209
51.4867 7.4914
51.5362 7.45515
51.5858 7.44515
51.6353 7.3952
51.6849 7.39568
51.7344 7.3332
51.7841 7.32767
51.8336 7.31018
51.8833 7.25351
51.9328 7.21084
51.9826 7.18115
52.0323 7.15582
52.0818 7.13017
52.1316 7.0613
52.1812 7.06753
52.231 7.07276
52.2806 7.03991
52.3304 7.00141
52.38 6.93718
52.4298 6.95335
52.4794 6.91366
52.5293 6.88074
52.5789 6.84223
52.6288 6.84438
52.6785 6.77142
52.7284 6.73698
52.7781 6.7245
52.828 6.71654
52.8777 6.64695
52.9276 6.67184
52.9774 6.64454
53.0273 6.61401
53.0771 6.58336
53.1271 6.5457
53.1769 6.52409
53.2269 6.53653
53.2767 6.42933
53.3267 6.42828
53.3765 6.40664
53.4266 6.36203
53.4766 6.32495
53.5265 6.26874
53.5765 6.25245
53.6264 6.26219
53.6765 6.27672
53.7264 6.21036
53.7765 6.18152
53.8265 6.1506
53.8766 6.10503
53.9266 6.0821
53.9767 6.0819
54.0267 6.06168
54.0769 6.00874
54.1269 5.98357
54.1771 5.96441
54.2271 5.95989
54.2773 5.91476
54.3274 5.89649
54.3776 5.85805
54.4277 5.80038
54.478 5.80916
54.528 5.73323
54.5783 5.69519
54.6285 5.65073
54.6788 5.63881
54.7289 5.57273
54.7792 5.56206
54.8296 5.49425
54.8798 5.43802
54.9301 5.41162
54.9803 5.4048
55.0307 5.38093
55.0809 5.31915
55.1314 5.33821
55.1816 5.25872
55.232 5.15123
55.2823 5.19859
55.3328 5.09735
55.383 5.04212
55.4335 5.04108
55.4838 4.95503
55.5344 4.88931
55.5847 4.86916
55.6352 4.8669
55.6856 4.77288
55.7361 4.7416