File: XRD/Ni3Fe_FD0932.xy
TT I
1.27165 7.35173
1.31627 6.51174
1.36089 6.56171
1.40551 5.88289
1.45013 6.07795
1.49476 5.79276
1.53938 5.57714
1.584 5.03593
1.62863 5.16306
1.67325 5.04158
1.71787 5.72199
1.7625 5.20729
1.80712 5.20224
1.85174 4.38933
1.89636 4.31754
1.94099 4.74844
1.98562 4.93454
2.03025 4.63037
2.07487 4.02136
2.11949 4.82067
2.16411 5.19405
2.20874 8.82562
2.25338 10.1161
2.298 5.67205
2.34263 5.2298
2.38725 6.07782
2.43188 6.49253
2.4765 7.07507
2.52115 7.57448
2.56577 7.72857
2.6104 8.73207
2.65503 8.33569
2.69965 8.66615
2.7443 7.88796
2.78893 8.33348
2.83356 8.46265
2.87818 8.2004
2.92281 9.02906
2.96744 9.43329
3.01209 10.1132
3.05672 11.393
3.10135 11.9262
3.14599 12.874
3.19062 14.5121
3.23527 15.458
3.2799 15.5682
3.32454 16.7066
3.36917 17.5558
3.4138 19.0583
3.45844 19.1925
3.50309 20.5584
3.54773 21.1241
3.59237 23.3784
3.637 45.2605
3.68164 34.6989
3.7263 25.1138
3.77094 25.2334
3.81558 26.3245
3.86022 27.1097
3.90486 28.5883
3.9495 29.2559
3.99416 30.1676
4.0388 31.3782
4.08344 32.8023
4.12809 33.9521
4.17273 35.0895
4.21738 38.2987
4.26204 107.462
4.30669 93.3428
4.35133 43.6363
4.39598 42.9266
4.44063 47.2991
4.4853 52.7588
4.52995 58.1419
4.5746 59.4038
4.61925 53.6431
4.6639 55.0515
4.70855 57.588
4.75322 61.0116
4.79788 68.5025
4.84253 67.9144
4.88719 75.4958
4.93184 76.3506
4.97652 79.9431
5.02118 86.0489
5.06583 93.3259
5.11049 104.584
5.15515 153.549
5.19981 369.999
5.24449 2767.98
5.28916 13562.3
5.33382 2705.65
5.37848 194.393
5.42315 130.063
5.46783 119.839
5.5125 112.93
5.55716 101.1
5.60183 97.1077
5.6465 94.6704
5.69117 93.0394
5.73586 91.8614
5.78053 98.6448
5.8252 99.2057
5.86988 102.401
5.91455 94.0392
5.95924 102.288
6.00392 227.435
6.0486 910.47
6.09328 4660.85
6.13795 2975.39
6.18263 192.958
6.22733 88.0188
6.27201 78.5887
6.3167 81.1733
6.36138 72.2442
6.40606 69.4898
6.45075 69.6161
6.49545 64.5443
6.54014 62.7231
6.58483 61.7492
6.62952 62.6991
6.67421 70.4467
6.71892 83.9459
6.76361 61.0793
6.8083 59.5471
6.853 60.3321
6.89769 56.1682
6.94239 55.1139
6.98711 55.1128
7.03181 55.5958
7.07651 54.2328
7.12121 53.994
7.16591 55.876
7.21063 54.8253
7.25533 58.8712
7.30004 91.788
7.34475 64.968
7.38945 54.295
7.43416 53.0934
7.47889 52.7636
7.5236 53.421
7.56831 54.3007
7.61303 54.8509
7.65774 55.1965
7.70247 56.4486
7.74719 55.8951
7.79191 55.7111
7.83663 55.6655
7.88135 56.7497
7.92607 57.4636
7.97081 58.8951
8.01553 60.0747
8.06026 62.0111
8.10498 63.3467
8.14971 70.4265
8.19446 70.0905
8.23919 68.3663
8.28392 70.8982
8.32865 73.188
8.37339 77.2
8.41812 82.0597
8.46288 99.7456
8.50761 170.536
8.55235 364.676
8.59709 1205.7
8.64183 2222.05
8.68658 835.457
8.73134 139.715
8.77609 95.8157
8.82083 91.586
8.86558 92.3478
8.91033 92.4011
8.9551 88.8943
8.99985 84.0627
9.04461 83.1759
9.08936 83.6254
9.13412 82.3154
9.17888 80.8483
9.22365 81.5885
9.26841 81.4255
9.31318 84.3947
9.35794 86.8303
9.4027 85.9215
9.44749 84.6513
9.49226 83.7877
9.53703 84.5929
9.5818 89.2149
9.62657 94.4968
9.67134 94.6757
9.71614 91.5788
9.76091 93.712
9.80569 98.7458
9.85047 100.565
9.89525 110.106
9.94005 124.429
9.98484 183.796
10.0296 329.526
10.0744 825.241
10.1192 1842.91
10.164 1458.3
10.2088 325.026
10.2536 118.418
10.2984 107.119
10.3432 106.161
10.388 103.135
10.4328 119.472
10.4776 157.975
10.5224 289.675
10.5672 544.559
10.612 481.343
10.6568 177.335
10.7017 92.0617
10.7465 84.9401
10.7913 82.1936
10.8361 79.7674
10.8809 77.4582
10.9257 77.112
10.9706 77.1254
11.0154 74.6135
11.0602 71.5681
11.105 70.5502
11.1499 70.8908
11.1947 72.438
11.2395 68.8036
11.2844 67.3151
11.3292 65.7697
11.374 65.0526
11.4189 64.644
11.4637 63.8334
11.5086 63.4408
11.5534 64.3167
11.5983 62.794
11.6431 62.2717
11.688 61.9625
11.7328 61.6849
11.7777 61.4499
11.8225 61.8571
11.8674 61.533
11.9122 61.7252
11.9571 61.974
12.002 63.419
12.0468 67.7117
12.0917 76.8951
12.1366 101.705
12.1814 159.248
12.2263 209.828
12.2712 153.429
12.3161 85.6417
12.3609 65.2837
12.4058 62.9361
12.4507 63.1718
12.4956 63.9906
12.5405 63.9763
12.5853 64.5269
12.6302 66.7274
12.6751 68.9277
12.72 66.981
12.7649 66.7135
12.8098 67.4723
12.8547 69.1041
12.8996 70.5178
12.9445 72.1661
12.9894 73.6666
13.0343 75.0807
13.0792 79.6531
13.1242 91.2648
13.1691 108.963
13.214 145.517
13.2589 245.924
13.3038 393.177
13.3487 419.144
13.3937 227.897
13.4386 114.173
13.4835 103.871
13.5285 117.576
13.5734 157.957
13.6183 259.621
13.6633 373.284
13.7082 323.514
13.7531 166.057
13.7981 91.5301
13.843 80.0788
13.888 78.3238
13.9329 75.9136
13.9779 74.6637
14.0228 73.1408
14.0678 71.9608
14.1127 71.1208
14.1577 70.7233
14.2027 70.0775
14.2476 69.4049
14.2926 68.8355
14.3376 69.0971
14.3825 68.364
14.4275 67.9331
14.4725 67.7495
14.5175 67.7192
14.5624 67.7786
14.6074 68.91
14.6524 69.1239
14.6974 69.6631
14.7424 72.667
14.7874 78.0701
14.8324 87.1
14.8774 110.585
14.9224 159.811
14.9674 220.692
15.0124 213.221
15.0574 136.57
15.1024 84.053
15.1474 70.5676
15.1924 69.0409
15.2374 68.2978
15.2824 67.3407
15.3274 66.2478
15.3725 65.8682
15.4175 65.5287
15.4625 64.8699
15.5076 64.6249
15.5526 64.8488
15.5976 64.8221
15.6426 67.1284
15.6877 71.5558
15.7327 78.5897
15.7778 93.7209
15.8228 128.118
15.8679 177.44
15.9129 195.247
15.958 145.477
16.003 87.0367
16.0481 64.5697
16.0931 62.0045
16.1382 60.1464
16.1833 59.1859
16.2283 57.8539
16.2734 57.1055
16.3185 56.9455
16.3636 56.5983
16.4086 55.5293
16.4537 54.9474
16.4988 54.3081
16.5439 54.4153
16.589 54.1059
16.6341 53.9237
16.6792 53.5412
16.7243 53.9259
16.7694 53.7728
16.8145 53.6118
16.8596 54.013
16.9047 54.5588
16.9498 54.6602
16.9949 54.4249
17.04 55.1348
17.0851 56.3168
17.1302 57.7887
17.1754 60.6988
17.2205 66.2158
17.2656 74.8801
17.3108 83.0973
17.3559 80.2551
17.401 67.6731
17.4462 60.1672
17.4913 58.2788
17.5365 58.1816
17.5815 58.1628
17.6268 58.6291
17.6718 59.2812
17.7171 59.5554
17.7622 60.5099
17.8074 61.53
17.8525 64.197
17.8977 67.2352
17.9428 72.3204
17.9881 81.7786
18.0331 101.223
18.0784 126.687
18.1237 140.668
18.1688 125.63
18.214 96.9068
18.2591 83.6799
18.3044 90.7129
18.3495 101.656
18.3948 104.885
18.4399 90.4901
18.4852 72.6752
18.5303 63.7002
18.5756 60.966
18.6207 60.0031
18.666 59.1702
18.7112 58.582
18.7565 57.9038
18.8016 57.643
18.8469 56.9631
18.892 56.7854
18.9374 56.3849
18.9825 56.0905
19.0278 55.7638
19.073 56.1014
19.1183 56.1007
19.1635 56.7397
19.2088 58.239
19.254 61.1924
19.2993 66.5655
19.3447 72.3134
19.3898 74.8964
19.4352 68.9144
19.4804 60.3422
19.5257 55.0829
19.5709 53.0733
19.6163 52.8444
19.6615 52.6608
19.7068 52.4711
19.752 52.2807
19.7974 52.9294
19.8426 53.2449
19.888 54.039
19.9332 55.3464
19.9786 58.2229
20.0238 62.5638
20.0692 67.5869
20.1144 69.3977
20.1598 66.2658
20.205 61.523
20.2504 61.4828
20.2957 63.8527
20.3411 65.2877
20.3863 62.4059
20.4318 56.0816
20.477 51.9107
20.5224 50.1189
20.5677 49.6721
20.6131 49.1905
20.6586 48.7505
20.7038 48.5732
20.7493 48.1225
20.7945 48.1606
20.84 48.0578
20.8853 47.7858
20.9307 47.8431
20.976 47.9777
21.0215 47.7644
21.0668 48.3175
21.1122 48.5929
21.1575 49.2672
21.203 50.2999
21.2483 50.7559
21.2938 50.4297
21.3391 49.1167
21.3846 47.8535
21.4299 47.6237
21.4754 47.628
21.5207 47.8941
21.5662 48.1921
21.6116 48.5668
21.6571 49.0162
21.7024 50.0816
21.7479 51.8834
21.7933 54.8922
21.8388 58.8958
21.8843 63.1975
21.9297 64.199
21.9752 61.2296
22.0206 57.323
22.0661 55.4521
22.1115 55.4815
22.157 55.1152
22.2024 52.8352
22.248 50.0646
22.2933 48.7953
22.3389 48.042
22.3843 48.1105
22.4299 47.7241
22.4753 47.7808
22.5208 47.6881
22.5662 47.7566
22.6118 47.9452
22.6572 48.212
22.7028 48.2057
22.7483 48.855
22.7939 49.704
22.8393 51.1873
22.8849 53.5732
22.9303 55.9562
22.9759 57.246
23.0214 56.0326
23.067 52.762
23.1126 49.6724
23.1581 48.0416
23.2037 48.0668
23.2492 48.0745
23.2948 48.078
23.3403 48.3227
23.3859 48.995
23.4314 49.9681
23.477 52.1422
23.5225 54.6746
23.5682 56.8826
23.6137 57.2522
23.6593 53.8664
23.7048 49.7788
23.7505 46.9392
23.796 45.7428
23.8417 45.0293
23.8872 44.6275
23.9329 44.4777
23.9784 44.0728
24.0241 43.9855
24.0697 43.5948
24.1154 43.2583
24.1609 43.0106
24.2066 43.0964
24.2522 43.0601
24.2979 42.7143
24.3434 42.5473
24.3892 42.3642
24.4349 42.3895
24.4805 42.1452
24.5262 42.4504
24.5718 42.4711
24.6175 42.2244
24.6631 42.0653
24.7089 41.7194
24.7545 41.743
24.8002 41.5418
24.8458 41.438
24.8916 41.41
24.9372 41.4648
24.983 41.8521
25.0286 42.2007
25.0744 42.727
25.12 43.2449
25.1658 43.7761
25.2114 43.9243
25.2572 44.1358
25.3029 44.2903
25.3487 44.349
25.3943 43.7971
25.4402 42.4226
25.4858 41.4458
25.5316 40.7645
25.5773 40.2505
25.6231 40.1415
25.669 39.8449
25.7147 39.8286
25.7605 39.7483
25.8062 39.7768
25.8521 39.8799
25.8977 39.8722
25.9436 40.2505
25.9893 40.4457
26.0352 41.003
26.0809 41.0937
26.1268 41.1791
26.1725 40.5804
26.2184 39.9043
26.2641 39.3814
26.31 39.4422
26.3557 39.3279
26.4017 39.3132
26.4474 39.6616
26.4933 40.1554
26.5391 40.5876
26.585 41.0467
26.6308 41.5457
26.6767 41.5782
26.7225 41.1786
26.7684 40.56
26.8142 40.1034
26.8601 39.7195
26.9059 39.1849
26.9519 38.7359
26.9979 38.593
27.0437 38.0957
27.0896 38.0885
27.1354 38.1014
27.1814 38.0134
27.2272 37.9421
27.2732 37.9064
27.3191 37.676
27.3651 37.9629
27.4109 37.7819
27.4569 37.9897
27.5027 38.0381
27.5488 37.9418
27.5946 37.6978
27.6407 37.3684
27.6865 37.4041
27.7326 37.1638
27.7784 37.2369
27.8245 37.2285
27.8703 37.2789
27.9164 37.6372
27.9623 37.9202
28.0084 38.1719
28.0543 38.5258
28.1003 38.2689
28.1462 38.0642
28.1923 37.9288
28.2384 37.259
28.2843 36.8677
28.3304 36.5155
28.3764 35.8806
28.4225 35.8191
28.4684 35.6227
28.5145 35.3288
28.5605 35.1817
28.6066 35.093
28.6526 35.0627
28.6987 34.9581
28.7447 34.8525
28.7908 34.9247
28.8368 34.9062
28.8829 34.6867
28.9289 34.7238
28.9751 34.554
29.0211 34.3084
29.0673 34.0506
29.1133 33.9559
29.1595 33.8211
29.2055 33.7208
29.2517 33.7656
29.2977 33.7457
29.3439 33.6119
29.3899 33.7497
29.4361 33.5564
29.4824 33.2495
29.5284 33.2218
29.5746 32.7574
29.6207 32.4711
29.6669 32.5357
29.713 32.3948
29.7593 32.2355
29.8053 32.3536
29.8516 32.2176
29.8977 32.2708
29.9439 32.0531
29.99 31.9394
30.0363 31.8841
30.0824 31.9572
30.1287 31.896
30.1748 31.9344
30.2211 31.8883
30.2673 31.7463
30.3136 31.7999
30.3597 31.6154
30.406 31.6607
30.4522 31.5777
30.4985 31.4774
30.5447 31.7591
30.591 31.625
30.6372 31.7427
30.6835 31.6852
30.7297 31.6662
30.7761 31.5889
30.8224 31.4185
30.8686 31.2887
30.915 31.073
30.9612 30.9031
31.0076 30.8038
31.0538 30.5706
31.1002 30.6421
31.1464 30.4074
31.1928 30.4161
31.2391 30.4682
31.2855 30.3769
31.3317 30.306
31.3781 30.3435
31.4244 30.4372
31.4708 30.4699
31.5171 30.2207
31.5636 30.1694
31.6098 30.0033
31.6563 29.7667
31.7026 29.744
31.7491 29.6814
31.7953 29.7046
31.8418 29.5549
31.8881 29.6409
31.9346 29.6025
31.9809 29.5785
32.0275 29.4137
32.074 29.3069
32.1203 29.0337
32.1668 29.0315
32.2132 28.9231
32.2597 28.6348
32.306 28.7005
32.3526 28.4702
32.399 28.5096
32.4455 28.3289
32.4919 28.151
32.5385 28.1689
32.5848 27.9815
32.6314 27.9582
32.6778 27.9252
32.7244 27.8202
32.7708 27.6432
32.8174 27.5835
32.8638 27.6111
32.9104 27.5462
32.9569 27.6099
33.0035 27.3953
33.0499 27.396
33.0966 27.2873
33.143 27.3195
33.1897 27.1655
33.2361 27.0635
33.2828 27.1787
33.3293 26.953
33.3759 26.9187
33.4226 26.8594
33.4691 26.5849
33.5158 26.5371
33.5623 26.4685
33.609 26.2988
33.6555 26.2224
33.7022 26.0562
33.7487 26.091
33.7954 26.0725
33.842 25.8906
33.8887 25.9389
33.9353 25.8633
33.982 25.7266
34.0286 25.6353
34.0753 25.4313
34.1219 25.455
34.1687 25.3393
34.2152 25.3446
34.262 25.2919
34.3086 25.1051
34.3554 25.0603
34.402 25.0208
34.4488 24.7619
34.4954 24.7974
34.5422 24.6744
34.5889 24.5993
34.6357 24.5282
34.6825 24.4539
34.7292 24.3857
34.776 24.3233
34.8227 24.3147
34.8695 24.1229
34.9162 24.2313
34.9631 24.0912
35.0098 24.1741
35.0566 23.8936
35.1033 23.9087
35.1502 23.9091
35.1969 23.8476
35.2438 23.7575
35.2906 23.6247
35.3375 23.6222
35.3842 23.6162
35.4311 23.5837
35.4779 23.5693
35.5248 23.4671
35.5716 23.3055
35.6185 23.3476
35.6653 23.2334
35.7123 23.0809
35.759 23.0749
35.806 22.9646
35.8528 22.8593
35.8998 22.7897
35.9468 22.7301
35.9936 22.6779
36.0406 22.5386
36.0874 22.5601
36.1345 22.4809
36.1813 22.3679
36.2283 22.3627
36.2752 22.213
36.3222 22.2969
36.3691 22.1636
36.4161 22.0564
36.463 22.0469
36.5101 22.0683
36.557 21.9201
36.6041 21.7666
36.651 21.764
36.6981 21.696
36.745 21.7061
36.7921 21.6604
36.839 21.4783
36.8861 21.442
36.9331 21.3928
36.9802 21.2806
37.0272 21.2596
37.0743 21.1987
37.1213 21.0977
37.1684 21.0288
37.2154 21.0255
37.2626 20.8774
37.3098 20.8596
37.3568 20.7716
37.404 20.7201
37.451 20.6174
37.4982 20.5894
37.5452 20.46
37.5924 20.4603
37.6395 20.5051
37.6867 20.375
37.7337 20.2234
37.781 20.1532
37.8281 20.1242
37.8753 20.011
37.9224 20.0168
37.9697 19.864
38.0168 19.8697
38.064 19.7651
38.1111 19.7174
38.1584 19.6373
38.2056 19.6143
38.2529 19.5401
38.3 19.4818
38.3473 19.4707
38.3945 19.3743
38.4418 19.3388
38.489 19.2473
38.5363 19.1735
38.5837 19.139
38.6309 19.0238
38.6782 19.0
38.7254 18.8711
38.7728 18.8217
38.82 18.778
38.8674 18.7566
38.9146 18.73
38.9621 18.6302
39.0093 18.6203
39.0567 18.5488
39.104 18.4398
39.1514 18.4027
39.1987 18.331
39.2461 18.3067
39.2934 18.241
39.3409 18.1705
39.3882 18.0157
39.4356 18.0232
39.483 18.0108
39.5304 17.9664
39.5778 17.8838
39.6253 17.8017
39.6726 17.7659
39.7201 17.7245
39.7675 17.6873
39.815 17.6345
39.8624 17.5395
39.9099 17.5157
39.9575 17.4131
40.0049 17.3762
40.0525 17.3057
40.0999 17.2952
40.1474 17.2494
40.1949 17.1512
40.2425 17.0839
40.2899 17.1159
40.3375 17.0553
40.385 16.9276
40.4326 16.9226
40.48 16.8728
40.5277 16.8315
40.5752 16.7303
40.6228 16.7038
40.6703 16.6298
40.718 16.5898
40.7655 16.5793
40.8132 16.445
40.8607 16.4581
40.9084 16.3972
40.9559 16.3145
41.0036 16.274
41.0512 16.2148
41.0989 16.1267
41.1465 16.0986
41.1942 16.0698
41.242 16.0034
41.2896 15.9594
41.3373 15.8358
41.3849 15.8174
41.4327 15.8299
41.4803 15.6524
41.5281 15.6272
41.5758 15.6098
41.6236 15.593
41.6712 15.4958
41.7191 15.4565
41.7667 15.3817
41.8146 15.4313
41.8622 15.3129
41.9101 15.3048
41.9578 15.1687
42.0057 15.1573
42.0534 15.1504
42.1013 15.0694
42.149 14.98
42.1969 14.948
42.2446 14.8602
42.2925 14.9131
42.3403 14.7865
42.3882 14.7675
42.436 14.7911
42.4839 14.6645
42.5319 14.6357
42.5797 14.5459
42.6277 14.5456
42.6755 14.4895
42.7235 14.3562
42.7713 14.3839
42.8193 14.3402
42.8671 14.2251
42.9152 14.1978
42.963 14.1909
43.0111 14.0941
43.0589 14.0356
43.107 14.0495
43.1549 13.9698
43.2029 13.9211
43.2508 13.9096
43.2989 13.8615
43.3468 13.7383
43.3949 13.6593
43.4429 13.6539
43.491 13.6148
43.5389 13.6091
43.5871 13.5496
43.635 13.5067
43.6832 13.4619
43.7312 13.4114
43.7793 13.3279
43.8273 13.3384
43.8755 13.2908
43.9237 13.2216
43.9717 13.1889
44.0199 13.1193
44.068 13.1014
44.1162 13.0397
44.1642 12.9955
44.2125 12.9707
44.2606 12.9272
44.3088 12.8381
44.3569 12.8318
44.4052 12.7919
44.4533 12.7163
44.5016 12.6433
44.5497 12.6457
44.598 12.6008
44.6461 12.5788
44.6945 12.5271
44.7426 12.4726
44.791 12.3729
44.8391 12.3987
44.8875 12.3606
44.9357 12.2843
44.984 12.2562
45.0322 12.188
45.0806 12.1401
45.1288 12.1275
45.1773 12.0467
45.2257 12.0237
45.2739 11.9769
45.3224 11.9564
45.3706 11.9077
45.4191 11.8056
45.4673 11.8312
45.5158 11.8028
45.5641 11.7076
45.6126 11.669
45.6609 11.6404
45.7094 11.6053
45.7577 11.5163
45.8063 11.4788
45.8546 11.4805
45.9031 11.4088
45.9515 11.3928
46.0001 11.3537
46.0484 11.2952
46.097 11.2916
46.1454 11.2627
46.194 11.2398
46.2424 11.1761
46.291 11.1055
46.3395 11.0909
46.3881 11.0327
46.4365 10.9986
46.4852 10.9336
46.5337 10.928
46.5823 10.882
46.631 10.7996
46.6795 10.773
46.7282 10.7671
46.7767 10.7601
46.8254 10.6824
46.8739 10.6092
46.9226 10.6052
46.9712 10.5864
47.0199 10.5098
47.0685 10.4795
47.1173 10.4266
47.1658 10.3995
47.2146 10.3615
47.2632 10.3048
47.312 10.3144
47.3606 10.2583
47.4095 10.224
47.4581 10.1817
47.5069 10.1378
47.5556 10.0962
47.6044 10.0664
47.6531 10.0144
47.702 9.97523
47.7507 9.98671
47.7996 9.91863
47.8483 9.88918
47.8972 9.86151
47.9461 9.84418
47.9948 9.73955
48.0438 9.70126
48.0925 9.71901
48.1415 9.65337
48.1902 9.63809
48.2392 9.59539
48.288 9.5897
48.337 9.52794
48.3858 9.47403
48.4348 9.46346
48.4837 9.47902
48.5327 9.40183
48.5815 9.36035
48.6306 9.35713
48.6795 9.27653
48.7285 9.26269
48.7774 9.21596
48.8265 9.21217
48.8754 9.15144
48.9245 9.13401
48.9734 9.10064
49.0226 9.06083
49.0715 9.04698
49.1206 8.9843
49.1696 8.93793
49.2188 8.90873
49.2679 8.90671
49.3169 8.82758
49.3661 8.79943
49.4151 8.79875
49.4643 8.75009
49.5134 8.6935
49.5626 8.65471
49.6117 8.64321
49.6609 8.61162
49.71 8.56542
49.7592 8.51121
49.8083 8.51069
49.8576 8.50757
49.9067 8.47389
49.956 8.42634
50.0052 8.39289
50.0545 8.34887
50.1036 8.32245
50.153 8.31418
50.2022 8.27649
50.2515 8.23384
50.3007 8.19684
50.3501 8.15059
50.3993 8.11176
50.4487 8.07145
50.498 8.05261
50.5474 8.02904
50.5966 7.98223
50.6461 7.94723
50.6955 7.93744
50.7448 7.90775
50.7943 7.865
50.8436 7.87005
50.8931 7.81218
50.9424 7.77242
50.9919 7.75981
51.0413 7.72407
51.0908 7.68369
51.1402 7.67126
51.1897 7.61034
51.2391 7.5889
51.2887 7.56263
51.3381 7.52595
51.3877 7.49934
51.4371 7.48782
51.4867 7.4438
51.5362 7.44343
51.5858 7.37088
51.6353 7.34861
51.6849 7.33568
51.7344 7.30337
51.7841 7.26483
51.8336 7.2574
51.8833 7.21197
51.9328 7.1421
51.9826 7.15094
52.0323 7.14604
52.0818 7.10334
52.1316 7.06272
52.1812 7.00068
52.231 6.98491
52.2806 6.96179
52.3304 6.94111
52.38 6.88029
52.4298 6.879
52.4794 6.84285
52.5293 6.84259
52.5789 6.81848
52.6288 6.75925
52.6785 6.7246
52.7284 6.7286
52.7781 6.68258
52.828 6.63212
52.8777 6.63286
52.9276 6.59307
52.9774 6.56432
53.0273 6.56661
53.0771 6.52103
53.1271 6.51995
53.1769 6.4588
53.2269 6.42864
53.2767 6.39266
53.3267 6.38649
53.3765 6.38021
53.4266 6.34169
53.4766 6.31304
53.5265 6.31504
53.5765 6.25213
53.6264 6.23342
53.6765 6.18262
53.7264 6.15327
53.7765 6.11977
53.8265 6.0913
53.8766 6.09171
53.9266 6.09192
53.9767 6.06011
54.0267 6.0256
54.0769 5.99174
54.1269 5.95258
54.1771 5.89403
54.2271 5.92203
54.2773 5.82652
54.3274 5.85455
54.3776 5.77916
54.4277 5.82278
54.478 5.73823
54.528 5.71387
54.5783 5.68304
54.6285 5.68662
54.6788 5.58023
54.7289 5.5412
54.7792 5.50069
54.8296 5.48271
54.8798 5.43646
54.9301 5.35311
54.9803 5.35415
55.0307 5.32304
55.0809 5.27217
55.1314 5.29641
55.1816 5.18035
55.232 5.13335
55.2823 5.12539
55.3328 5.03528
55.383 4.99656
55.4335 4.98829
55.4838 4.88763
55.5344 4.85412
55.5847 4.80771
55.6352 4.84753
55.6856 4.80083
55.7361 4.7609