File: XRD/Ni3Fe_FD0156.xy
TT I
1.27165 7.74285
1.31627 7.26305
1.36089 6.76025
1.40551 6.60231
1.45013 7.01591
1.49476 6.40256
1.53938 5.93453
1.584 5.53444
1.62863 5.92514
1.67325 5.69756
1.71787 6.2758
1.7625 5.11677
1.80712 5.22992
1.85174 5.28932
1.89636 5.08463
1.94099 5.23289
1.98562 5.04383
2.03025 4.96449
2.07487 4.89696
2.11949 5.29804
2.16411 4.1467
2.20874 4.63657
2.25338 4.05964
2.298 4.24386
2.34263 4.67204
2.38725 4.89105
2.43188 4.93209
2.4765 4.91724
2.52115 4.50737
2.56577 5.31413
2.6104 5.77727
2.65503 4.86113
2.69965 6.09897
2.7443 5.82856
2.78893 7.01189
2.83356 7.49852
2.87818 8.18544
2.92281 8.4242
2.96744 9.18613
3.01209 10.6338
3.05672 11.585
3.10135 12.3198
3.14599 12.8817
3.19062 13.9694
3.23527 15.35
3.2799 16.159
3.32454 16.9715
3.36917 17.56
3.4138 19.1904
3.45844 19.5682
3.50309 20.7257
3.54773 20.9448
3.59237 21.9597
3.637 23.0846
3.68164 23.1789
3.7263 24.1254
3.77094 24.9634
3.81558 25.4282
3.86022 26.2917
3.90486 28.2956
3.9495 28.7707
3.99416 29.7732
4.0388 30.3053
4.08344 32.2769
4.12809 32.8762
4.17273 33.8411
4.21738 35.652
4.26204 36.7544
4.30669 37.6174
4.35133 39.7846
4.39598 41.2397
4.44063 42.9349
4.4853 45.2761
4.52995 47.4068
4.5746 49.6441
4.61925 51.7355
4.6639 53.8068
4.70855 57.0434
4.75322 59.4384
4.79788 62.1942
4.84253 66.346
4.88719 70.242
4.93184 75.4267
4.97652 82.4586
5.02118 90.3282
5.06583 101.119
5.11049 117.024
5.15515 154.053
5.19981 544.034
5.24449 3765.01
5.28916 8368.83
5.33382 6288.83
5.37848 439.073
5.42315 161.793
5.46783 127.457
5.5125 113.469
5.55716 107.391
5.60183 101.246
5.6465 98.781
5.69117 97.7356
5.73586 95.4344
5.78053 94.609
5.8252 95.6308
5.86988 98.3404
5.91455 105.076
5.95924 124.137
6.00392 286.991
6.0486 1384.27
6.09328 2753.73
6.13795 4029.83
6.18263 694.563
6.22733 121.449
6.27201 89.4773
6.3167 78.1794
6.36138 72.8657
6.40606 68.8291
6.45075 66.4832
6.49545 64.7297
6.54014 62.1824
6.58483 61.0411
6.62952 59.7724
6.67421 58.2759
6.71892 57.3997
6.76361 56.4033
6.8083 55.4227
6.853 54.8349
6.89769 54.441
6.94239 54.2111
6.98711 53.5177
7.03181 53.0105
7.07651 52.8287
7.12121 52.5529
7.16591 52.324
7.21063 51.8535
7.25533 52.1691
7.30004 52.1263
7.34475 52.3142
7.38945 52.3818
7.43416 51.7758
7.47889 52.1848
7.5236 55.8684
7.56831 62.9772
7.61303 55.4403
7.65774 53.6476
7.70247 54.0845
7.74719 54.18
7.79191 55.0185
7.83663 55.005
7.88135 56.2971
7.92607 57.1045
7.97081 58.2013
8.01553 58.8306
8.06026 60.3906
8.10498 61.5362
8.14971 63.7104
8.19446 65.2103
8.23919 67.9949
8.28392 70.7969
8.32865 73.0719
8.37339 78.4869
8.41812 83.3228
8.46288 95.7552
8.50761 172.546
8.55235 600.465
8.59709 891.866
8.64183 1504.32
8.68658 1597.59
8.73134 388.968
8.77609 115.677
8.82083 97.4112
8.86558 90.9554
8.91033 87.5519
8.9551 84.9819
8.99985 83.9948
9.04461 83.0541
9.08936 82.5196
9.13412 81.4884
9.17888 81.4279
9.22365 86.4462
9.26841 96.5847
9.31318 86.3938
9.35794 82.6891
9.4027 82.1805
9.44749 82.8205
9.49226 83.4812
9.53703 84.6748
9.5818 85.876
9.62657 87.108
9.67134 88.6366
9.71614 90.7809
9.76091 92.554
9.80569 95.0768
9.85047 98.5601
9.89525 103.981
9.94005 114.054
9.98484 185.614
10.0296 543.172
10.0744 738.861
10.1192 1044.63
10.164 1672.71
10.2088 968.791
10.2536 211.93
10.2984 116.183
10.3432 107.787
10.388 104.557
10.4328 121.101
10.4776 214.245
10.5224 261.581
10.5672 332.494
10.612 491.539
10.6568 369.432
10.7017 132.896
10.7465 90.3655
10.7913 83.494
10.8361 80.6313
10.8809 78.1485
10.9257 75.8623
10.9706 74.261
11.0154 72.7048
11.0602 71.5036
11.105 70.3758
11.1499 68.9959
11.1947 67.7889
11.2395 66.4444
11.2844 66.0149
11.3292 65.3191
11.374 64.5909
11.4189 64.3815
11.4637 63.4255
11.5086 62.6836
11.5534 62.3969
11.5983 62.3171
11.6431 61.7338
11.688 61.6248
11.7328 61.4605
11.7777 61.396
11.8225 61.0968
11.8674 61.251
11.9122 62.3862
11.9571 65.6354
12.002 65.1456
12.0468 67.7811
12.0917 90.3051
12.1366 108.056
12.1814 118.832
12.2263 151.572
12.2712 191.304
12.3161 135.706
12.3609 74.7103
12.4058 64.0349
12.4507 63.3029
12.4956 62.958
12.5405 62.9591
12.5853 63.5401
12.6302 63.6437
12.6751 64.4207
12.72 65.0411
12.7649 66.3589
12.8098 66.6516
12.8547 68.3351
12.8996 69.6076
12.9445 71.1482
12.9894 73.0558
13.0343 74.9194
13.0792 78.9738
13.1242 86.4061
13.1691 132.788
13.214 186.068
13.2589 205.661
13.3038 246.677
13.3487 352.466
13.3937 382.498
13.4386 208.013
13.4835 119.225
13.5285 154.183
13.5734 181.784
13.6183 193.021
13.6633 240.458
13.7082 334.314
13.7531 302.537
13.7981 153.315
13.843 88.0356
13.888 80.4705
13.9329 77.4129
13.9779 76.0909
14.0228 74.1641
14.0678 72.8229
14.1127 73.0076
14.1577 73.9798
14.2027 72.4659
14.2476 70.4492
14.2926 69.4524
14.3376 68.8563
14.3825 68.6085
14.4275 68.1302
14.4725 68.5326
14.5175 68.1595
14.5624 68.2876
14.6074 68.6109
14.6524 69.3062
14.6974 69.8081
14.7424 71.4044
14.7874 80.7101
14.8324 106.631
14.8774 120.652
14.9224 127.402
14.9674 149.427
15.0124 192.962
15.0574 203.141
15.1024 136.771
15.1474 81.8793
15.1924 71.194
15.2374 69.1525
15.2824 67.9617
15.3274 66.6324
15.3725 66.2749
15.4175 66.0661
15.4625 65.5585
15.5076 65.3128
15.5526 65.6064
15.5976 65.6537
15.6426 66.3846
15.6877 73.7192
15.7327 94.7349
15.7778 107.023
15.8228 111.487
15.8679 125.438
15.9129 156.258
15.958 185.785
16.003 150.071
16.0481 87.4565
16.0931 66.0648
16.1382 61.8721
16.1833 60.3091
16.2283 58.8196
16.2734 58.0834
16.3185 57.2831
16.3636 56.6737
16.4086 56.0206
16.4537 55.4427
16.4988 54.7326
16.5439 55.0354
16.589 54.7163
16.6341 54.3659
16.6792 53.979
16.7243 54.2039
16.7694 54.0716
16.8145 54.1141
16.8596 54.279
16.9047 54.6477
16.9498 54.9981
16.9949 54.9151
17.04 55.1915
17.0851 56.7021
17.1302 60.9496
17.1754 64.1803
17.2205 65.2612
17.2656 67.0219
17.3108 72.6247
17.3559 79.4993
17.401 80.7272
17.4462 71.4941
17.4913 61.5945
17.5365 58.9749
17.5815 59.0845
17.6268 59.1606
17.6718 59.6469
17.7171 59.9675
17.7622 61.2817
17.8074 62.153
17.8525 63.8749
17.8977 72.0403
17.9428 83.6096
17.9881 88.3576
18.0331 91.1102
18.0784 98.4786
18.1237 115.241
18.1688 140.878
18.214 141.134
18.2591 110.174
18.3044 88.2603
18.3495 86.8135
18.3948 95.2356
18.4399 103.513
18.4852 94.349
18.5303 75.9981
18.5756 64.7252
18.6207 62.2412
18.666 60.809
18.7112 60.0162
18.7565 59.2614
18.8016 58.8604
18.8469 57.9211
18.892 57.7931
18.9374 57.2624
18.9825 57.1151
19.0278 56.8243
19.073 56.7878
19.1183 57.2504
19.1635 59.6203
19.2088 61.7641
19.254 62.3954
19.2993 63.394
19.3447 65.3656
19.3898 69.2364
19.4352 73.849
19.4804 72.2894
19.5257 63.6136
19.5709 56.1747
19.6163 54.3828
19.6615 53.9796
19.7068 53.3632
19.752 53.5751
19.7974 53.6589
19.8426 54.7453
19.888 56.8394
19.9332 58.2999
19.9786 58.6505
20.0238 59.3452
20.0692 62.0609
20.1144 67.1748
20.1598 72.6325
20.205 70.9519
20.2504 65.2745
20.2957 61.0127
20.3411 61.8234
20.3863 64.9023
20.4318 64.3283
20.477 58.757
20.5224 53.2708
20.5677 51.0023
20.6131 50.3042
20.6586 49.6922
20.7038 49.6459
20.7493 49.283
20.7945 49.2241
20.84 48.9805
20.8853 48.8001
20.9307 48.4968
20.976 48.9559
21.0215 48.849
21.0668 49.5262
21.1122 49.5602
21.1575 49.4645
21.203 49.7172
21.2483 50.4664
21.2938 51.3953
21.3391 51.4502
21.3846 50.6411
21.4299 49.1532
21.4754 48.7136
21.5207 48.75
21.5662 49.0603
21.6116 49.4863
21.6571 51.4065
21.7024 53.0835
21.7479 54.0201
21.7933 54.5338
21.8388 55.9457
21.8843 58.7111
21.9297 62.2671
21.9752 65.8831
22.0206 65.5726
22.0661 60.4446
22.1115 56.2939
22.157 55.6533
22.2024 56.3355
22.248 54.9734
22.2933 52.399
22.3389 50.0401
22.3843 49.0954
22.4299 48.9696
22.4753 48.8173
22.5208 48.8004
22.5662 48.7928
22.6118 48.9219
22.6572 49.0651
22.7028 50.238
22.7483 51.4133
22.7939 51.7396
22.8393 52.0386
22.8849 52.6315
22.9303 53.4759
22.9759 55.1338
23.0214 57.269
23.067 58.3108
23.1126 55.7772
23.1581 52.0838
23.2037 49.7685
23.2492 49.339
23.2948 49.7296
23.3403 50.9305
23.3859 51.91
23.4314 51.6459
23.477 51.7698
23.5225 52.1937
23.5682 53.7836
23.6137 55.7188
23.6593 57.777
23.7048 56.97
23.7505 53.1379
23.796 49.1804
23.8417 46.8894
23.8872 46.0367
23.9329 45.6095
23.9784 45.2793
24.0241 44.9888
24.0697 44.7969
24.1154 44.3905
24.1609 44.146
24.2066 44.015
24.2522 43.8614
24.2979 43.7343
24.3434 43.5526
24.3892 43.2853
24.4349 43.3601
24.4805 42.9459
24.5262 43.1464
24.5718 42.9538
24.6175 42.9836
24.6631 43.0407
24.7089 42.8854
24.7545 42.7446
24.8002 42.4038
24.8458 42.608
24.8916 42.4591
24.9372 42.6893
24.983 42.8661
25.0286 43.0352
25.0744 43.4766
25.12 43.9127
25.1658 44.2538
25.2114 44.8183
25.2572 45.0565
25.3029 44.9133
25.3487 44.8606
25.3943 44.911
25.4402 44.9058
25.4858 44.5014
25.5316 43.2317
25.5773 41.7166
25.6231 41.3493
25.669 40.8511
25.7147 40.8996
25.7605 40.7289
25.8062 40.9
25.8521 41.211
25.8977 41.0524
25.9436 41.0806
25.9893 40.903
26.0352 41.1408
26.0809 41.2776
26.1268 41.5554
26.1725 42.0314
26.2184 42.0668
26.2641 41.4596
26.31 40.9657
26.3557 40.8953
26.4017 40.9159
26.4474 40.8075
26.4933 41.0985
26.5391 41.3153
26.585 41.5484
26.6308 41.7018
26.6767 42.1216
26.7225 42.5882
26.7684 42.4978
26.8142 42.0637
26.8601 41.2379
26.9059 40.7624
26.9519 40.5524
26.9979 40.0595
27.0437 39.5613
27.0896 39.0557
27.1354 39.1359
27.1814 39.0513
27.2272 38.9561
27.2732 39.0969
27.3191 38.7851
27.3651 38.8858
27.4109 38.5244
27.4569 38.6811
27.5027 38.738
27.5488 38.8047
27.5946 38.8321
27.6407 38.7018
27.6865 38.722
27.7326 38.6002
27.7784 38.6214
27.8245 38.3436
27.8703 38.3353
27.9164 38.5273
27.9623 38.6321
28.0084 38.7408
28.0543 39.0178
28.1003 39.0495
28.1462 39.4382
28.1923 39.3277
28.2384 38.8915
28.2843 38.4465
28.3304 38.0242
28.3764 37.7242
28.4225 37.2435
28.4684 36.7684
28.5145 36.3977
28.5605 36.2192
28.6066 36.0267
28.6526 36.0454
28.6987 35.9419
28.7447 35.6768
28.7908 35.6998
28.8368 35.5487
28.8829 35.4885
28.9289 35.5142
28.9751 35.3161
29.0211 35.4796
29.0673 35.1417
29.1133 35.0659
29.1595 34.864
29.2055 34.6462
29.2517 34.574
29.2977 34.3993
29.3439 34.3057
29.3899 34.3356
29.4361 34.2577
29.4824 34.4085
29.5284 34.2591
29.5746 33.9435
29.6207 33.6411
29.6669 33.375
29.713 33.2651
29.7593 33.1235
29.8053 33.1379
29.8516 33.0612
29.8977 32.911
29.9439 32.9117
29.99 32.8855
30.0363 32.6832
30.0824 32.6532
30.1287 32.5508
30.1748 32.5419
30.2211 32.6284
30.2673 32.499
30.3136 32.668
30.3597 32.6759
30.406 32.6856
30.4522 32.4412
30.4985 32.3283
30.5447 32.3927
30.591 32.3602
30.6372 32.3504
30.6835 32.3735
30.7297 32.3191
30.7761 32.5395
30.8224 32.3964
30.8686 32.3776
30.915 32.0991
30.9612 31.9816
31.0076 31.749
31.0538 31.6275
31.1002 31.5258
31.1464 31.3332
31.1928 31.3315
31.2391 31.3781
31.2855 31.1125
31.3317 31.1636
31.3781 31.1454
31.4244 31.1128
31.4708 31.0265
31.5171 31.0485
31.5636 31.1494
31.6098 30.9518
31.6563 30.8896
31.7026 30.6955
31.7491 30.4226
31.7953 30.4638
31.8418 30.2897
31.8881 30.3668
31.9346 30.3617
31.9809 30.3577
32.0275 30.2102
32.074 30.2574
32.1203 30.047
32.1668 29.9365
32.2132 29.8623
32.2597 29.5886
32.306 29.4483
32.3526 29.3096
32.399 29.2074
32.4455 29.0506
32.4919 28.9814
32.5385 28.8486
32.5848 28.7166
32.6314 28.7267
32.6778 28.7057
32.7244 28.4963
32.7708 28.4969
32.8174 28.4152
32.8638 28.3131
32.9104 28.2504
32.9569 28.2216
33.0035 28.179
33.0499 27.9915
33.0966 28.0576
33.143 27.9728
33.1897 27.9013
33.2361 27.7418
33.2828 27.7633
33.3293 27.6263
33.3759 27.6723
33.4226 27.5652
33.4691 27.4283
33.5158 27.3732
33.5623 27.1334
33.609 26.9279
33.6555 26.9197
33.7022 26.791
33.7487 26.7679
33.7954 26.7158
33.842 26.5299
33.8887 26.5041
33.9353 26.4854
33.982 26.4088
34.0286 26.2938
34.0753 26.158
34.1219 26.1587
34.1687 26.0976
34.2152 25.9879
34.262 25.7571
34.3086 25.6922
34.3554 25.8054
34.402 25.5973
34.4488 25.4959
34.4954 25.4485
34.5422 25.3504
34.5889 25.1958
34.6357 25.1051
34.6825 25.0687
34.7292 25.0754
34.776 24.9547
34.8227 24.8787
34.8695 24.8594
34.9162 24.7423
34.9631 24.6659
35.0098 24.7141
35.0566 24.4967
35.1033 24.4661
35.1502 24.4442
35.1969 24.4028
35.2438 24.3139
35.2906 24.2411
35.3375 24.2713
35.3842 24.1874
35.4311 24.2204
35.4779 24.1106
35.5248 24.1138
35.5716 24.1511
35.6185 23.9406
35.6653 23.86
35.7123 23.8234
35.759 23.7124
35.806 23.6174
35.8528 23.4208
35.8998 23.423
35.9468 23.2351
35.9936 23.2849
36.0406 23.1166
36.0874 23.134
36.1345 23.1313
36.1813 23.045
36.2283 22.9091
36.2752 22.8643
36.3222 22.8687
36.3691 22.7163
36.4161 22.5382
36.463 22.6152
36.5101 22.6297
36.557 22.5569
36.6041 22.3893
36.651 22.402
36.6981 22.2765
36.745 22.2489
36.7921 22.1913
36.839 22.0348
36.8861 22.0358
36.9331 21.892
36.9802 21.8742
37.0272 21.6474
37.0743 21.6591
37.1213 21.6405
37.1684 21.5604
37.2154 21.4955
37.2626 21.4236
37.3098 21.3874
37.3568 21.3092
37.404 21.2776
37.451 21.1371
37.4982 21.1226
37.5452 21.011
37.5924 20.9437
37.6395 21.032
37.6867 20.9506
37.7337 20.7804
37.781 20.7415
37.8281 20.6784
37.8753 20.6175
37.9224 20.4541
37.9697 20.5327
38.0168 20.3401
38.064 20.2716
38.1111 20.2579
38.1584 20.1259
38.2056 20.0879
38.2529 20.1375
38.3 20.0008
38.3473 19.9604
38.3945 19.8229
38.4418 19.8474
38.489 19.7435
38.5363 19.7033
38.5837 19.5572
38.6309 19.6062
38.6782 19.4264
38.7254 19.4439
38.7728 19.3849
38.82 19.3215
38.8674 19.2581
38.9146 19.1607
38.9621 19.1168
39.0093 19.0249
39.0567 18.9605
39.104 18.9303
39.1514 18.769
39.1987 18.7928
39.2461 18.8396
39.2934 18.6963
39.3409 18.6077
39.3882 18.5676
39.4356 18.5092
39.483 18.4958
39.5304 18.3944
39.5778 18.4128
39.6253 18.2123
39.6726 18.2027
39.7201 18.1701
39.7675 18.1359
39.815 18.0444
39.8624 17.9879
39.9099 18.0026
39.9575 17.8724
40.0049 17.8634
40.0525 17.7814
40.0999 17.7579
40.1474 17.6336
40.1949 17.5857
40.2425 17.5557
40.2899 17.4791
40.3375 17.4117
40.385 17.3896
40.4326 17.3431
40.48 17.2904
40.5277 17.2733
40.5752 17.1664
40.6228 17.114
40.6703 17.0474
40.718 16.9886
40.7655 17.0066
40.8132 16.8943
40.8607 16.8448
40.9084 16.7938
40.9559 16.7616
41.0036 16.7177
41.0512 16.6912
41.0989 16.5909
41.1465 16.5319
41.1942 16.4495
41.242 16.3975
41.2896 16.385
41.3373 16.2804
41.3849 16.1381
41.4327 16.1915
41.4803 16.1296
41.5281 16.0932
41.5758 16.0102
41.6236 15.9248
41.6712 15.8652
41.7191 15.8485
41.7667 15.8427
41.8146 15.8225
41.8622 15.6631
41.9101 15.6788
41.9578 15.5884
42.0057 15.5573
42.0534 15.4754
42.1013 15.4379
42.149 15.4158
42.1969 15.3193
42.2446 15.2818
42.2925 15.2766
42.3403 15.2093
42.3882 15.1634
42.436 15.0923
42.4839 15.0496
42.5319 14.9977
42.5797 14.9611
42.6277 14.9009
42.6755 14.8467
42.7235 14.7376
42.7713 14.7219
42.8193 14.665
42.8671 14.6509
42.9152 14.5335
42.963 14.5414
43.0111 14.3968
43.0589 14.4209
43.107 14.4134
43.1549 14.3269
43.2029 14.2711
43.2508 14.233
43.2989 14.181
43.3468 14.1644
43.3949 14.0843
43.4429 14.0468
43.491 13.9909
43.5389 13.9538
43.5871 13.8772
43.635 13.8551
43.6832 13.8047
43.7312 13.7694
43.7793 13.6938
43.8273 13.6258
43.8755 13.5966
43.9237 13.5523
43.9717 13.5281
44.0199 13.4991
44.068 13.412
44.1162 13.3972
44.1642 13.3381
44.2125 13.2889
44.2606 13.2516
44.3088 13.1688
44.3569 13.1818
44.4052 13.1201
44.4533 13.0885
44.5016 12.9576
44.5497 13.0041
44.598 12.8996
44.6461 12.9039
44.6945 12.8804
44.7426 12.788
44.791 12.7244
44.8391 12.6953
44.8875 12.6342
44.9357 12.5949
44.984 12.5631
45.0322 12.519
45.0806 12.446
45.1288 12.4021
45.1773 12.3951
45.2257 12.3083
45.2739 12.3093
45.3224 12.2534
45.3706 12.2327
45.4191 12.1474
45.4673 12.1394
45.5158 12.081
45.5641 12.0351
45.6126 11.9969
45.6609 11.9295
45.7094 11.9161
45.7577 11.8398
45.8063 11.805
45.8546 11.7931
45.9031 11.7463
45.9515 11.692
46.0001 11.6637
46.0484 11.5809
46.097 11.5594
46.1454 11.5477
46.194 11.4989
46.2424 11.4554
46.291 11.3688
46.3395 11.3976
46.3881 11.3187
46.4365 11.3055
46.4852 11.241
46.5337 11.1729
46.5823 11.1529
46.631 11.1332
46.6795 11.0651
46.7282 11.0075
46.7767 10.989
46.8254 10.9413
46.8739 10.8909
46.9226 10.8698
46.9712 10.8345
47.0199 10.781
47.0685 10.7216
47.1173 10.7137
47.1658 10.6585
47.2146 10.6326
47.2632 10.6047
47.312 10.5185
47.3606 10.4791
47.4095 10.4539
47.4581 10.4366
47.5069 10.3844
47.5556 10.3792
47.6044 10.3204
47.6531 10.2867
47.702 10.2626
47.7507 10.1971
47.7996 10.1678
47.8483 10.1747
47.8972 10.0888
47.9461 10.0622
47.9948 10.016
48.0438 10.0156
48.0925 9.98063
48.1415 9.92859
48.1902 9.86318
48.2392 9.87895
48.288 9.82229
48.337 9.78712
48.3858 9.7771
48.4348 9.72583
48.4837 9.663
48.5327 9.62033
48.5815 9.56422
48.6306 9.60643
48.6795 9.52531
48.7285 9.43885
48.7774 9.46743
48.8265 9.46772
48.8754 9.40253
48.9245 9.35309
48.9734 9.35751
49.0226 9.30593
49.0715 9.27352
49.1206 9.24787
49.1696 9.15298
49.2188 9.13657
49.2679 9.08904
49.3169 9.08612
49.3661 9.01582
49.4151 9.01605
49.4643 8.99714
49.5134 8.9262
49.5626 8.85336
49.6117 8.88378
49.6609 8.81036
49.71 8.79621
49.7592 8.76052
49.8083 8.70857
49.8576 8.70508
49.9067 8.65763
49.956 8.63852
50.0052 8.61898
50.0545 8.57622
50.1036 8.52974
50.153 8.512
50.2022 8.51818
50.2515 8.48698
50.3007 8.38532
50.3501 8.371
50.3993 8.35649
50.4487 8.30829
50.498 8.2871
50.5474 8.26926
50.5966 8.21003
50.6461 8.16417
50.6955 8.16136
50.7448 8.105
50.7943 8.08554
50.8436 8.04877
50.8931 8.04661
50.9424 8.00839
50.9919 7.9571
51.0413 7.93562
51.0908 7.89538
51.1402 7.84489
51.1897 7.843
51.2391 7.83552
51.2887 7.76384
51.3381 7.73223
51.3877 7.74745
51.4371 7.67754
51.4867 7.62532
51.5362 7.61347
51.5858 7.5513
51.6353 7.5509
51.6849 7.50724
51.7344 7.4932
51.7841 7.44624
51.8336 7.42297
51.8833 7.39304
51.9328 7.3137
51.9826 7.29613
52.0323 7.29899
52.0818 7.24481
52.1316 7.24388
52.1812 7.20739
52.231 7.17767
52.2806 7.14736
52.3304 7.15419
52.38 7.13671
52.4298 7.02629
52.4794 7.0554
52.5293 7.00795
52.5789 6.97843
52.6288 6.94594
52.6785 6.87935
52.7284 6.87259
52.7781 6.89316
52.828 6.83874
52.8777 6.80916
52.9276 6.74732
52.9774 6.77942
53.0273 6.76466
53.0771 6.68872
53.1271 6.68742
53.1769 6.60754
53.2269 6.64398
53.2767 6.5781
53.3267 6.55474
53.3765 6.538
53.4266 6.49836
53.4766 6.46923
53.5265 6.39968
53.5765 6.42022
53.6264 6.36501
53.6765 6.37492
53.7264 6.31839
53.7765 6.31774
53.8265 6.26152
53.8766 6.23094
53.9266 6.18184
53.9767 6.19003
54.0267 6.18969
54.0769 6.15509
54.1269 6.13334
54.1771 6.05999
54.2271 6.01458
54.2773 5.97755
54.3274 5.95065
54.3776 5.92202
54.4277 5.85716
54.478 5.82081
54.528 5.78684
54.5783 5.77325
54.6285 5.68468
54.6788 5.67053
54.7289 5.63374
54.7792 5.60559
54.8296 5.56246
54.8798 5.48471
54.9301 5.4546
54.9803 5.39269
55.0307 5.43746
55.0809 5.29828
55.1314 5.36899
55.1816 5.21197
55.232 5.19797
55.2823 5.13651
55.3328 5.0737
55.383 5.04795
55.4335 5.04887
55.4838 4.9529
55.5344 4.93227
55.5847 4.85551
55.6352 4.89787
55.6856 4.78988
55.7361 4.76795