File: XRD/Ni3Fe_FD0843.xy
TT I
1.27165 7.17665
1.31627 6.3537
1.36089 7.15819
1.40551 6.24636
1.45013 6.2008
1.49476 5.54996
1.53938 6.15549
1.584 5.31075
1.62863 4.7373
1.67325 4.92322
1.71787 4.97275
1.7625 4.83621
1.80712 4.61067
1.85174 4.63962
1.89636 4.78854
1.94099 4.75546
1.98562 4.72485
2.03025 4.17716
2.07487 4.67228
2.11949 4.96563
2.16411 5.42457
2.20874 12.9768
2.25338 19.7818
2.298 6.40905
2.34263 5.66587
2.38725 5.93099
2.43188 6.00002
2.4765 7.41022
2.52115 7.62185
2.56577 8.11546
2.6104 8.51797
2.65503 8.44508
2.69965 7.94374
2.7443 8.13706
2.78893 8.20167
2.83356 8.50614
2.87818 8.61944
2.92281 9.21996
2.96744 10.0374
3.01209 10.4077
3.05672 11.8499
3.10135 12.3094
3.14599 13.0678
3.19062 14.5617
3.23527 15.8447
3.2799 15.854
3.32454 16.614
3.36917 17.4374
3.4138 18.7024
3.45844 20.0869
3.50309 20.7685
3.54773 21.9632
3.59237 23.587
3.637 79.1019
3.68164 52.1719
3.7263 26.0351
3.77094 25.851
3.81558 26.4546
3.86022 27.4639
3.90486 28.5034
3.9495 29.2873
3.99416 31.2029
4.0388 31.9196
4.08344 33.1198
4.12809 34.9094
4.17273 36.1752
4.21738 42.1467
4.26204 211.621
4.30669 181.884
4.35133 47.4715
4.39598 43.7215
4.44063 52.0496
4.4853 61.2778
4.52995 50.2278
4.5746 51.5495
4.61925 52.7684
4.6639 55.035
4.70855 57.6167
4.75322 60.4007
4.79788 63.7281
4.84253 67.0303
4.88719 70.9972
4.93184 74.1869
4.97652 79.7068
5.02118 85.4326
5.06583 92.6399
5.11049 103.564
5.15515 159.772
5.19981 314.825
5.24449 2644.11
5.28916 12354.5
5.33382 2681.51
5.37848 177.984
5.42315 125.137
5.46783 112.407
5.5125 105.352
5.55716 100.85
5.60183 97.083
5.6465 95.2367
5.69117 93.0847
5.73586 91.3081
5.78053 90.9575
5.8252 90.1576
5.86988 91.2115
5.91455 92.1684
5.95924 98.4226
6.00392 188.297
6.0486 901.337
6.09328 4378.55
6.13795 3117.83
6.18263 225.137
6.22733 89.8632
6.27201 80.6906
6.3167 95.7436
6.36138 77.955
6.40606 68.061
6.45075 66.7011
6.49545 64.7245
6.54014 63.0961
6.58483 61.9779
6.62952 61.9952
6.67421 87.7158
6.71892 124.892
6.76361 66.0931
6.8083 58.2898
6.853 56.882
6.89769 56.387
6.94239 56.1626
6.98711 55.2171
7.03181 55.0672
7.07651 54.8141
7.12121 54.4163
7.16591 54.5778
7.21063 54.8467
7.25533 68.0659
7.30004 152.854
7.34475 83.1714
7.38945 55.5312
7.43416 53.8333
7.47889 53.727
7.5236 54.1418
7.56831 54.7621
7.61303 56.0472
7.65774 56.1079
7.70247 55.4735
7.74719 55.7566
7.79191 56.0352
7.83663 56.3116
7.88135 57.3415
7.92607 58.2052
7.97081 59.1374
8.01553 60.1657
8.06026 61.1077
8.10498 63.2554
8.14971 71.3057
8.19446 70.5075
8.23919 68.357
8.28392 70.941
8.32865 73.112
8.37339 77.0845
8.41812 83.6731
8.46288 107.479
8.50761 152.167
8.55235 358.633
8.59709 1166.8
8.64183 2166.5
8.68658 937.987
8.73134 160.522
8.77609 97.7539
8.82083 91.1789
8.86558 88.8189
8.91033 88.7175
8.9551 90.0679
8.99985 84.5188
9.04461 82.5178
9.08936 82.0876
9.13412 81.4337
9.17888 81.1028
9.22365 81.6334
9.26841 81.2492
9.31318 81.944
9.35794 82.4699
9.4027 82.403
9.44749 83.169
9.49226 83.6506
9.53703 84.7238
9.5818 86.4367
9.62657 90.9944
9.67134 96.02
9.71614 92.2146
9.76091 92.9497
9.80569 95.6065
9.85047 98.5379
9.89525 118.605
9.94005 128.982
9.98484 164.077
10.0296 320.434
10.0744 805.315
10.1192 1773.27
10.164 1557.46
10.2088 403.127
10.2536 124.171
10.2984 110.426
10.3432 111.705
10.388 103.033
10.4328 114.576
10.4776 154.902
10.5224 284.246
10.5672 532.173
10.612 509.234
10.6568 200.816
10.7017 95.939
10.7465 85.6779
10.7913 82.0782
10.8361 80.1027
10.8809 77.7732
10.9257 77.282
10.9706 77.4823
11.0154 73.6713
11.0602 71.7803
11.105 70.8997
11.1499 74.47
11.1947 79.6107
11.2395 72.3109
11.2844 69.0196
11.3292 66.4335
11.374 65.247
11.4189 65.0095
11.4637 64.3266
11.5086 64.4122
11.5534 66.6544
11.5983 64.3835
11.6431 62.7691
11.688 62.1202
11.7328 62.2743
11.7777 61.8587
11.8225 61.499
11.8674 61.4985
11.9122 62.1998
11.9571 61.9276
12.002 62.4736
12.0468 66.2255
12.0917 76.5121
12.1366 100.547
12.1814 156.403
12.2263 206.213
12.2712 169.338
12.3161 94.0247
12.3609 68.7217
12.4058 63.4058
12.4507 63.3601
12.4956 63.6112
12.5405 63.7405
12.5853 64.8249
12.6302 71.2079
12.6751 75.3935
12.72 68.4097
12.7649 67.1425
12.8098 67.7484
12.8547 68.7698
12.8996 69.9622
12.9445 71.2866
12.9894 73.0365
13.0343 74.9474
13.0792 77.6658
13.1242 85.8209
13.1691 107.144
13.214 144.38
13.2589 241.072
13.3038 382.703
13.3487 412.045
13.3937 254.121
13.4386 121.447
13.4835 102.476
13.5285 116.183
13.5734 155.368
13.6183 251.674
13.6633 353.7
13.7082 327.508
13.7531 178.445
13.7981 95.7656
13.843 80.5899
13.888 78.4843
13.9329 76.317
13.9779 74.5761
14.0228 73.4702
14.0678 72.056
14.1127 71.4552
14.1577 71.3634
14.2027 70.4698
14.2476 69.4324
14.2926 69.7386
14.3376 70.3553
14.3825 69.1026
14.4275 68.2392
14.4725 67.872
14.5175 68.0814
14.5624 68.1623
14.6074 69.9608
14.6524 70.4138
14.6974 69.3052
14.7424 70.9739
14.7874 76.7341
14.8324 86.4236
14.8774 108.855
14.9224 155.034
14.9674 213.061
15.0124 216.957
15.0574 146.465
15.1024 89.7776
15.1474 71.8051
15.1924 69.5115
15.2374 69.5084
15.2824 68.9027
15.3274 67.1566
15.3725 65.7406
15.4175 65.6703
15.4625 65.0833
15.5076 65.2422
15.5526 65.2774
15.5976 64.7553
15.6426 65.4952
15.6877 70.3003
15.7327 77.7405
15.7778 92.6959
15.8228 126.489
15.8679 171.736
15.9129 190.766
15.958 150.488
16.003 93.7382
16.0481 67.0916
16.0931 63.4917
16.1382 61.5962
16.1833 59.7532
16.2283 58.2833
16.2734 57.8694
16.3185 57.7219
16.3636 57.86
16.4086 56.6754
16.4537 55.4561
16.4988 54.7345
16.5439 54.6281
16.589 54.4888
16.6341 54.251
16.6792 53.7314
16.7243 54.1651
16.7694 54.0445
16.8145 54.2607
16.8596 54.4942
16.9047 55.7062
16.9498 55.9731
16.9949 54.9733
17.04 54.9921
17.0851 56.3065
17.1302 57.9578
17.1754 60.7249
17.2205 66.1678
17.2656 75.1269
17.3108 82.2663
17.3559 80.9307
17.401 69.925
17.4462 61.2425
17.4913 58.3512
17.5365 58.238
17.5815 58.5105
17.6268 58.7111
17.6718 59.6325
17.7171 59.8133
17.7622 60.4416
17.8074 61.217
17.8525 63.1254
17.8977 67.0052
17.9428 72.2487
17.9881 81.3338
18.0331 100.072
18.0784 122.434
18.1237 138.008
18.1688 126.827
18.214 101.362
18.2591 85.6262
18.3044 90.709
18.3495 100.136
18.3948 103.455
18.4399 93.1238
18.4852 75.8911
18.5303 65.0145
18.5756 61.4347
18.6207 60.5437
18.666 59.6782
18.7112 59.1342
18.7565 58.0398
18.8016 57.8645
18.8469 57.3382
18.892 56.9511
18.9374 56.5614
18.9825 56.4265
19.0278 56.0737
19.073 56.1679
19.1183 56.4868
19.1635 57.3156
19.2088 58.597
19.254 61.4837
19.2993 66.1688
19.3447 72.2979
19.3898 75.8269
19.4352 70.7727
19.4804 62.1594
19.5257 56.0491
19.5709 53.6815
19.6163 53.1929
19.6615 52.9005
19.7068 52.6861
19.752 52.7308
19.7974 52.7913
19.8426 53.4411
19.888 54.3413
19.9332 55.5006
19.9786 58.2058
20.0238 62.1038
20.0692 66.816
20.1144 69.1672
20.1598 67.2973
20.205 62.7714
20.2504 61.921
20.2957 63.61
20.3411 64.953
20.3863 62.8685
20.4318 57.3868
20.477 53.0234
20.5224 50.9397
20.5677 50.2634
20.6131 49.5711
20.6586 48.9204
20.7038 49.0067
20.7493 48.4992
20.7945 48.3909
20.84 48.293
20.8853 48.0914
20.9307 48.0347
20.976 48.2257
21.0215 48.0925
21.0668 48.5137
21.1122 48.9369
21.1575 49.6027
21.203 50.3917
21.2483 50.8128
21.2938 50.7394
21.3391 49.3931
21.3846 48.3364
21.4299 47.723
21.4754 47.8389
21.5207 48.0549
21.5662 48.097
21.6116 48.7395
21.6571 49.2429
21.7024 50.1069
21.7479 51.8699
21.7933 54.7984
21.8388 58.8236
21.8843 62.2299
21.9297 63.7118
21.9752 61.9993
22.0206 58.5619
22.0661 56.127
22.1115 55.3383
22.157 55.2102
22.2024 53.3249
22.248 50.8128
22.2933 49.2568
22.3389 48.5451
22.3843 48.3132
22.4299 48.2544
22.4753 48.3152
22.5208 48.0981
22.5662 47.9123
22.6118 48.1171
22.6572 48.3558
22.7028 48.5873
22.7483 48.9954
22.7939 49.6411
22.8393 51.4861
22.8849 53.5878
22.9303 56.1591
22.9759 57.1121
23.0214 56.3385
23.067 53.696
23.1126 50.4831
23.1581 48.6847
23.2037 48.2248
23.2492 48.1047
23.2948 48.0596
23.3403 48.4115
23.3859 49.0358
23.4314 50.1115
23.477 52.183
23.5225 54.4396
23.5682 56.6195
23.6137 56.9558
23.6593 54.6448
23.7048 50.9334
23.7505 47.6922
23.796 46.1325
23.8417 45.4362
23.8872 45.0207
23.9329 44.7177
23.9784 44.3093
24.0241 44.1568
24.0697 43.8152
24.1154 43.6026
24.1609 43.3772
24.2066 43.3897
24.2522 43.1139
24.2979 42.9092
24.3434 42.8254
24.3892 42.7243
24.4349 42.682
24.4805 42.4486
24.5262 42.5234
24.5718 42.6263
24.6175 42.4286
24.6631 42.1579
24.7089 42.0182
24.7545 41.8866
24.8002 41.7232
24.8458 41.8147
24.8916 41.705
24.9372 41.6969
24.983 41.9922
25.0286 42.3564
25.0744 42.8544
25.12 43.3091
25.1658 43.8146
25.2114 44.2311
25.2572 44.3266
25.3029 44.4439
25.3487 44.5098
25.3943 44.0643
25.4402 42.957
25.4858 41.8841
25.5316 41.0864
25.5773 40.574
25.6231 40.349
25.669 40.0129
25.7147 40.1839
25.7605 39.9643
25.8062 40.0373
25.8521 40.024
25.8977 40.0671
25.9436 40.3035
25.9893 40.5424
26.0352 40.8937
26.0809 41.0327
26.1268 41.2186
26.1725 40.7176
26.2184 40.4105
26.2641 39.7294
26.31 39.6141
26.3557 39.6797
26.4017 39.531
26.4474 39.8648
26.4933 40.2919
26.5391 40.8124
26.585 41.282
26.6308 41.5736
26.6767 41.6376
26.7225 41.4259
26.7684 40.9994
26.8142 40.3907
26.8601 39.9663
26.9059 39.5817
26.9519 39.0568
26.9979 38.6408
27.0437 38.5197
27.0896 38.3589
27.1354 38.2929
27.1814 38.0391
27.2272 38.0993
27.2732 38.1113
27.3191 37.9242
27.3651 37.9887
27.4109 38.0227
27.4569 38.1415
27.5027 38.1854
27.5488 38.0987
27.5946 37.9187
27.6407 37.6811
27.6865 37.5985
27.7326 37.3583
27.7784 37.2737
27.8245 37.3514
27.8703 37.5558
27.9164 37.9272
27.9623 38.0542
28.0084 38.2004
28.0543 38.7332
28.1003 38.7182
28.1462 38.3681
28.1923 38.1453
28.2384 37.5828
28.2843 37.1399
28.3304 36.7241
28.3764 36.3233
28.4225 35.9098
28.4684 35.7728
28.5145 35.5983
28.5605 35.4638
28.6066 35.245
28.6526 35.2073
28.6987 35.146
28.7447 35.0479
28.7908 35.0084
28.8368 35.0596
28.8829 35.06
28.9289 34.973
28.9751 34.6882
29.0211 34.522
29.0673 34.2507
29.1133 34.2103
29.1595 33.9825
29.2055 33.9604
29.2517 33.9538
29.2977 33.8705
29.3439 33.8949
29.3899 33.9757
29.4361 33.6717
29.4824 33.5989
29.5284 33.3376
29.5746 33.016
29.6207 32.7092
29.6669 32.741
29.713 32.6116
29.7593 32.3534
29.8053 32.6068
29.8516 32.2637
29.8977 32.4058
29.9439 32.2322
29.99 32.2055
30.0363 32.0179
30.0824 32.1741
30.1287 32.0042
30.1748 32.1187
30.2211 31.994
30.2673 31.9844
30.3136 31.9943
30.3597 31.8404
30.406 31.8313
30.4522 31.696
30.4985 31.7615
30.5447 31.7455
30.591 31.8734
30.6372 31.9291
30.6835 31.8774
30.7297 31.8815
30.7761 31.8295
30.8224 31.5793
30.8686 31.4491
30.915 31.2981
30.9612 31.1697
31.0076 30.9882
31.0538 30.774
31.1002 30.803
31.1464 30.5814
31.1928 30.6078
31.2391 30.6286
31.2855 30.4307
31.3317 30.5364
31.3781 30.6342
31.4244 30.577
31.4708 30.4534
31.5171 30.4494
31.5636 30.3851
31.6098 30.2305
31.6563 30.0258
31.7026 29.9351
31.7491 29.8244
31.7953 29.8249
31.8418 29.8567
31.8881 29.8324
31.9346 29.7139
31.9809 29.7252
32.0275 29.5176
32.074 29.5485
32.1203 29.3182
32.1668 29.2183
32.2132 29.0196
32.2597 28.9442
32.306 28.9027
32.3526 28.5916
32.399 28.6201
32.4455 28.4352
32.4919 28.3757
32.5385 28.3191
32.5848 28.1321
32.6314 28.2142
32.6778 28.2234
32.7244 28.0139
32.7708 27.9414
32.8174 27.84
32.8638 27.7212
32.9104 27.7498
32.9569 27.604
33.0035 27.5236
33.0499 27.5588
33.0966 27.5446
33.143 27.4921
33.1897 27.4707
33.2361 27.3294
33.2828 27.2673
33.3293 27.0559
33.3759 27.0734
33.4226 27.0368
33.4691 26.8394
33.5158 26.8008
33.5623 26.6014
33.609 26.4557
33.6555 26.3457
33.7022 26.3567
33.7487 26.1612
33.7954 26.1935
33.842 26.0997
33.8887 26.0632
33.9353 25.9436
33.982 25.8114
34.0286 25.7413
34.0753 25.7074
34.1219 25.5821
34.1687 25.5166
34.2152 25.5211
34.262 25.3976
34.3086 25.3356
34.3554 25.2487
34.402 25.1302
34.4488 25.034
34.4954 24.9264
34.5422 24.94
34.5889 24.7528
34.6357 24.6678
34.6825 24.6754
34.7292 24.6231
34.776 24.4567
34.8227 24.3561
34.8695 24.3653
34.9162 24.2861
34.9631 24.2245
35.0098 24.2014
35.0566 24.0852
35.1033 24.0263
35.1502 23.984
35.1969 23.9869
35.2438 23.872
35.2906 23.8637
35.3375 23.769
35.3842 23.7063
35.4311 23.7696
35.4779 23.674
35.5248 23.6142
35.5716 23.5385
35.6185 23.4775
35.6653 23.3435
35.7123 23.3353
35.759 23.2266
35.806 23.1142
35.8528 22.9849
35.8998 22.963
35.9468 22.8245
35.9936 22.8181
36.0406 22.6976
36.0874 22.8076
36.1345 22.6481
36.1813 22.5893
36.2283 22.4854
36.2752 22.4297
36.3222 22.3774
36.3691 22.3674
36.4161 22.1707
36.463 22.1617
36.5101 22.1662
36.557 22.0905
36.6041 21.9489
36.651 21.9346
36.6981 21.8386
36.745 21.7461
36.7921 21.623
36.839 21.6111
36.8861 21.5162
36.9331 21.487
36.9802 21.4279
37.0272 21.3088
37.0743 21.3043
37.1213 21.273
37.1684 21.176
37.2154 21.0764
37.2626 21.0195
37.3098 20.9493
37.3568 20.903
37.404 20.8082
37.451 20.7472
37.4982 20.6937
37.5452 20.5658
37.5924 20.6043
37.6395 20.5023
37.6867 20.5469
37.7337 20.3577
37.781 20.3282
37.8281 20.2178
37.8753 20.0737
37.9224 20.1084
37.9697 20.0504
38.0168 19.987
38.064 19.8947
38.1111 19.837
38.1584 19.8023
38.2056 19.7097
38.2529 19.7082
38.3 19.6262
38.3473 19.5963
38.3945 19.4614
38.4418 19.4578
38.489 19.3933
38.5363 19.288
38.5837 19.2054
38.6309 19.1941
38.6782 19.0852
38.7254 19.0462
38.7728 19.0247
38.82 18.9391
38.8674 18.9135
38.9146 18.8213
38.9621 18.7541
39.0093 18.7736
39.0567 18.6149
39.104 18.537
39.1514 18.5105
39.1987 18.4915
39.2461 18.3925
39.2934 18.3459
39.3409 18.2333
39.3882 18.2153
39.4356 18.1661
39.483 18.1347
39.5304 18.0272
39.5778 18.0296
39.6253 17.9926
39.6726 17.918
39.7201 17.8722
39.7675 17.8469
39.815 17.709
39.8624 17.6519
39.9099 17.6504
39.9575 17.5391
40.0049 17.4926
40.0525 17.4153
40.0999 17.4067
40.1474 17.34
40.1949 17.2861
40.2425 17.217
40.2899 17.1694
40.3375 17.1212
40.385 16.9845
40.4326 17.0333
40.48 16.9278
40.5277 16.9188
40.5752 16.8255
40.6228 16.8268
40.6703 16.7251
40.718 16.6573
40.7655 16.6713
40.8132 16.6056
40.8607 16.5571
40.9084 16.4837
40.9559 16.4296
41.0036 16.3642
41.0512 16.3469
41.0989 16.277
41.1465 16.2216
41.1942 16.1231
41.242 16.0643
41.2896 16.0235
41.3373 16.0461
41.3849 15.9866
41.4327 15.9126
41.4803 15.7926
41.5281 15.8584
41.5758 15.6684
41.6236 15.6547
41.6712 15.624
41.7191 15.5673
41.7667 15.4738
41.8146 15.4828
41.8622 15.4039
41.9101 15.3448
41.9578 15.2935
42.0057 15.2134
42.0534 15.1951
42.1013 15.1421
42.149 15.141
42.1969 15.0096
42.2446 15.0298
42.2925 14.9797
42.3403 14.8573
42.3882 14.8768
42.436 14.8639
42.4839 14.6485
42.5319 14.692
42.5797 14.7035
42.6277 14.5959
42.6755 14.5464
42.7235 14.4862
42.7713 14.4427
42.8193 14.4448
42.8671 14.3657
42.9152 14.359
42.963 14.2736
43.0111 14.2119
43.0589 14.1625
43.107 14.0868
43.1549 14.0617
43.2029 13.9841
43.2508 13.9806
43.2989 13.8976
43.3468 13.8691
43.3949 13.8357
43.4429 13.7327
43.491 13.7706
43.5389 13.6873
43.5871 13.671
43.635 13.5708
43.6832 13.573
43.7312 13.4592
43.7793 13.4275
43.8273 13.3758
43.8755 13.3609
43.9237 13.2914
43.9717 13.3118
44.0199 13.2086
44.068 13.201
44.1162 13.1423
44.1642 13.0461
44.2125 13.0509
44.2606 13.024
44.3088 12.9474
44.3569 12.8879
44.4052 12.8754
44.4533 12.806
44.5016 12.7043
44.5497 12.7294
44.598 12.6636
44.6461 12.6277
44.6945 12.5757
44.7426 12.5298
44.791 12.4978
44.8391 12.4252
44.8875 12.4411
44.9357 12.3855
44.984 12.3203
45.0322 12.2691
45.0806 12.2269
45.1288 12.1939
45.1773 12.1582
45.2257 12.1231
45.2739 12.0572
45.3224 12.0087
45.3706 11.9756
45.4191 11.9034
45.4673 11.8992
45.5158 11.8247
45.5641 11.8064
45.6126 11.7724
45.6609 11.733
45.7094 11.6746
45.7577 11.6497
45.8063 11.572
45.8546 11.5656
45.9031 11.5269
45.9515 11.4609
46.0001 11.4352
46.0484 11.4398
46.097 11.3718
46.1454 11.3414
46.194 11.2999
46.2424 11.2358
46.291 11.1879
46.3395 11.1547
46.3881 11.132
46.4365 11.0917
46.4852 11.0272
46.5337 10.9718
46.5823 10.9531
46.631 10.91
46.6795 10.8708
46.7282 10.8436
46.7767 10.8019
46.8254 10.7258
46.8739 10.745
46.9226 10.6659
46.9712 10.6381
47.0199 10.5716
47.0685 10.5439
47.1173 10.509
47.1658 10.4767
47.2146 10.4576
47.2632 10.4314
47.312 10.3889
47.3606 10.3257
47.4095 10.2707
47.4581 10.2552
47.5069 10.2033
47.5556 10.1714
47.6044 10.1299
47.6531 10.1054
47.702 10.0419
47.7507 10.0401
47.7996 9.98003
47.8483 9.97072
47.8972 9.90021
47.9461 9.85573
47.9948 9.85055
48.0438 9.78358
48.0925 9.79216
48.1415 9.73792
48.1902 9.68878
48.2392 9.68768
48.288 9.63714
48.337 9.57289
48.3858 9.53974
48.4348 9.55526
48.4837 9.547
48.5327 9.4511
48.5815 9.42633
48.6306 9.4002
48.6795 9.37065
48.7285 9.31412
48.7774 9.29942
48.8265 9.25595
48.8754 9.18218
48.9245 9.23069
48.9734 9.15476
49.0226 9.14435
49.0715 9.10242
49.1206 9.04303
49.1696 9.02071
49.2188 9.00657
49.2679 8.95856
49.3169 8.9097
49.3661 8.86406
49.4151 8.87804
49.4643 8.85007
49.5134 8.76637
49.5626 8.73089
49.6117 8.68948
49.6609 8.68215
49.71 8.61031
49.7592 8.59946
49.8083 8.57643
49.8576 8.53429
49.9067 8.48149
49.956 8.46852
50.0052 8.41509
50.0545 8.36949
50.1036 8.36722
50.153 8.35461
50.2022 8.29812
50.2515 8.30936
50.3007 8.26526
50.3501 8.19331
50.3993 8.22091
50.4487 8.18784
50.498 8.1023
50.5474 8.11245
50.5966 8.03152
50.6461 8.04039
50.6955 8.00475
50.7448 7.97896
50.7943 7.92136
50.8436 7.8867
50.8931 7.88395
50.9424 7.85203
50.9919 7.8218
51.0413 7.78838
51.0908 7.76733
51.1402 7.72018
51.1897 7.69254
51.2391 7.65025
51.2887 7.63065
51.3381 7.5601
51.3877 7.58005
51.4371 7.52236
51.4867 7.48795
51.5362 7.47205
51.5858 7.45933
51.6353 7.3919
51.6849 7.40732
51.7344 7.34079
51.7841 7.33958
51.8336 7.29723
51.8833 7.28087
51.9328 7.21598
51.9826 7.15844
52.0323 7.17384
52.0818 7.14082
52.1316 7.12527
52.1812 7.09185
52.231 7.05769
52.2806 7.03112
52.3304 7.01063
52.38 6.96357
52.4298 6.93563
52.4794 6.89459
52.5293 6.86553
52.5789 6.86153
52.6288 6.81305
52.6785 6.79538
52.7284 6.74375
52.7781 6.76185
52.828 6.69309
52.8777 6.68389
52.9276 6.63892
52.9774 6.64802
53.0273 6.5931
53.0771 6.56269
53.1271 6.549
53.1769 6.50751
53.2269 6.47391
53.2767 6.47485
53.3267 6.44478
53.3765 6.39823
53.4266 6.41316
53.4766 6.32684
53.5265 6.29854
53.5765 6.33634
53.6264 6.27119
53.6765 6.24111
53.7264 6.19571
53.7765 6.18947
53.8265 6.11407
53.8766 6.11556
53.9266 6.08883
53.9767 6.08425
54.0267 6.0454
54.0769 6.03407
54.1269 5.96423
54.1771 5.94566
54.2271 5.92001
54.2773 5.90929
54.3274 5.86685
54.3776 5.85661
54.4277 5.83043
54.478 5.79831
54.528 5.73763
54.5783 5.71152
54.6285 5.64665
54.6788 5.65244
54.7289 5.64034
54.7792 5.55426
54.8296 5.46122
54.8798 5.43011
54.9301 5.43289
54.9803 5.35131
55.0307 5.38583
55.0809 5.3109
55.1314 5.30787
55.1816 5.21137
55.232 5.14701
55.2823 5.15489
55.3328 5.07095
55.383 5.0363
55.4335 5.03529
55.4838 4.94461
55.5344 4.86814
55.5847 4.87567
55.6352 4.85273
55.6856 4.82585
55.7361 4.78274