File: XRD/Ni3Fe_FD0092.xy
TT I
1.27165 9.02559
1.31627 7.98162
1.36089 8.18053
1.40551 7.33454
1.45013 7.77571
1.49476 7.89186
1.53938 6.77788
1.584 6.54049
1.62863 6.14023
1.67325 6.16098
1.71787 6.43798
1.7625 6.54197
1.80712 5.49105
1.85174 5.94052
1.89636 5.34338
1.94099 5.89629
1.98562 5.95247
2.03025 5.7564
2.07487 5.24442
2.11949 5.42986
2.16411 5.01962
2.20874 5.48867
2.25338 5.08973
2.298 5.06177
2.34263 4.44775
2.38725 4.68991
2.43188 3.83831
2.4765 3.23444
2.52115 3.53826
2.56577 4.7424
2.6104 4.88254
2.65503 4.32036
2.69965 5.10257
2.7443 5.87141
2.78893 5.95673
2.83356 6.83988
2.87818 7.49834
2.92281 8.57872
2.96744 9.28892
3.01209 10.3507
3.05672 11.1499
3.10135 12.3698
3.14599 13.0009
3.19062 13.8782
3.23527 14.9155
3.2799 15.2725
3.32454 16.6593
3.36917 17.5673
3.4138 18.7705
3.45844 19.3216
3.50309 20.4049
3.54773 20.7394
3.59237 21.535
3.637 22.4098
3.68164 22.9107
3.7263 24.1376
3.77094 24.5871
3.81558 25.1323
3.86022 26.1155
3.90486 27.3276
3.9495 27.7431
3.99416 29.0011
4.0388 29.9157
4.08344 31.7336
4.12809 32.3493
4.17273 33.5295
4.21738 35.082
4.26204 35.9309
4.30669 37.2425
4.35133 39.2074
4.39598 40.6701
4.44063 42.3073
4.4853 44.5519
4.52995 47.1636
4.5746 48.7299
4.61925 51.0089
4.6639 53.565
4.70855 56.0198
4.75322 59.28
4.79788 62.413
4.84253 65.9922
4.88719 70.9772
4.93184 76.758
4.97652 84.6372
5.02118 95.5925
5.06583 108.434
5.11049 129.015
5.15515 180.7
5.19981 711.775
5.24449 3762.85
5.28916 5964.34
5.33382 7594.89
5.37848 833.546
5.42315 207.516
5.46783 145.394
5.5125 124.373
5.55716 114.613
5.60183 107.146
5.6465 103.855
5.69117 101.371
5.73586 99.6575
5.78053 99.062
5.8252 100.534
5.86988 105.286
5.91455 115.496
5.95924 143.297
6.00392 359.156
6.0486 1445.39
6.09328 1939.79
6.13795 3760.15
6.18263 1061.01
6.22733 163.072
6.27201 100.383
6.3167 83.3059
6.36138 74.899
6.40606 69.6942
6.45075 66.9207
6.49545 64.6939
6.54014 62.4106
6.58483 60.7526
6.62952 59.4311
6.67421 57.7267
6.71892 57.0306
6.76361 55.9416
6.8083 54.8206
6.853 54.3283
6.89769 53.5849
6.94239 53.3689
6.98711 52.9419
7.03181 52.1327
7.07651 52.3853
7.12121 51.6607
7.16591 51.8802
7.21063 51.2359
7.25533 51.0124
7.30004 51.1317
7.34475 51.309
7.38945 51.4598
7.43416 51.1991
7.47889 52.1795
7.5236 61.2244
7.56831 87.0225
7.61303 62.1549
7.65774 53.7651
7.70247 53.4075
7.74719 53.731
7.79191 54.0368
7.83663 54.3211
7.88135 55.3425
7.92607 56.1903
7.97081 57.3781
8.01553 58.1804
8.06026 60.1813
8.10498 61.1603
8.14971 63.1309
8.19446 64.7941
8.23919 67.0703
8.28392 70.1826
8.32865 73.056
8.37339 78.3483
8.41812 84.6765
8.46288 100.103
8.50761 195.849
8.55235 663.529
8.59709 708.685
8.64183 1015.16
8.68658 1777.03
8.73134 636.635
8.77609 137.771
8.82083 102.56
8.86558 92.96
8.91033 88.6689
8.9551 85.5529
8.99985 83.8354
9.04461 82.5234
9.08936 81.8622
9.13412 81.4302
9.17888 81.9857
9.22365 97.0091
9.26841 135.418
9.31318 103.297
9.35794 83.3433
9.4027 81.5577
9.44749 82.2708
9.49226 82.3817
9.53703 83.4634
9.5818 85.0674
9.62657 85.8927
9.67134 87.5414
9.71614 89.5537
9.76091 91.8597
9.80569 95.0783
9.85047 98.6878
9.89525 104.686
9.94005 117.866
9.98484 206.277
10.0296 604.534
10.0744 645.967
10.1192 672.967
10.164 1374.87
10.2088 1299.72
10.2536 315.009
10.2984 126.152
10.3432 111.238
10.388 106.411
10.4328 126.063
10.4776 232.283
10.5224 238.776
10.5672 235.609
10.612 405.509
10.6568 454.938
10.7017 179.097
10.7465 98.9333
10.7913 84.5092
10.8361 80.3011
10.8809 77.3187
10.9257 75.1516
10.9706 73.6431
11.0154 71.473
11.0602 70.2825
11.105 69.122
11.1499 67.4238
11.1947 66.3207
11.2395 65.3087
11.2844 65.0087
11.3292 64.2194
11.374 63.7674
11.4189 63.0404
11.4637 62.2829
11.5086 61.654
11.5534 61.1839
11.5983 60.8988
11.6431 61.2139
11.688 60.437
11.7328 60.2485
11.7777 60.4037
11.8225 60.3042
11.8674 60.5637
11.9122 63.1047
11.9571 73.0454
12.002 72.7189
12.0468 70.3238
12.0917 94.05
12.1366 106.427
12.1814 99.1199
12.2263 115.836
12.2712 173.892
12.3161 163.538
12.3609 85.6843
12.4058 64.6334
12.4507 62.9022
12.4956 62.4589
12.5405 62.0896
12.5853 62.6039
12.6302 62.5091
12.6751 63.1507
12.72 63.8158
12.7649 64.987
12.8098 65.648
12.8547 66.6884
12.8996 68.2957
12.9445 70.0077
12.9894 71.7199
13.0343 73.9622
13.0792 78.9
13.1242 88.9363
13.1691 141.308
13.214 195.598
13.2589 177.291
13.3038 179.382
13.3487 263.27
13.3937 393.377
13.4386 277.275
13.4835 138.74
13.5285 166.582
13.5734 184.598
13.6183 159.333
13.6633 173.341
13.7082 267.4
13.7531 342.727
13.7981 202.186
13.843 95.6036
13.888 81.0183
13.9329 77.1483
13.9779 75.0909
14.0228 73.5675
14.0678 72.2208
14.1127 72.9043
14.1577 79.3429
14.2027 77.9182
14.2476 71.5154
14.2926 68.5991
14.3376 67.7765
14.3825 67.5725
14.4275 66.8907
14.4725 66.9569
14.5175 67.2432
14.5624 67.1551
14.6074 67.3914
14.6524 67.8607
14.6974 68.4511
14.7424 70.6272
14.7874 81.3658
14.8324 111.573
14.8774 119.886
14.9224 109.017
14.9674 114.871
15.0124 152.008
15.0574 207.608
15.1024 170.882
15.1474 92.8465
15.1924 72.1985
15.2374 68.6454
15.2824 67.0629
15.3274 65.7622
15.3725 65.1329
15.4175 65.0885
15.4625 64.5043
15.5076 64.1833
15.5526 64.3775
15.5976 64.5046
15.6426 65.8879
15.6877 74.3766
15.7327 98.8855
15.7778 108.29
15.8228 98.3523
15.8679 98.795
15.9129 118.738
15.958 170.106
16.003 177.041
16.0481 108.821
16.0931 71.4718
16.1382 63.1059
16.1833 59.9731
16.2283 58.1445
16.2734 57.0745
16.3185 56.3202
16.3636 55.8299
16.4086 55.0049
16.4537 54.6456
16.4988 54.0982
16.5439 53.8986
16.589 53.7662
16.6341 53.4843
16.6792 52.9961
16.7243 53.2788
16.7694 53.0609
16.8145 52.9806
16.8596 53.2613
16.9047 53.8331
16.9498 54.9038
16.9949 54.7369
17.04 54.6233
17.0851 56.0184
17.1302 60.7663
17.1754 64.0543
17.2205 62.7143
17.2656 61.8237
17.3108 64.9571
17.3559 71.6975
17.401 80.7899
17.4462 75.9437
17.4913 62.9261
17.5365 58.4346
17.5815 57.9441
17.6268 58.0903
17.6718 58.5701
17.7171 58.9008
17.7622 60.7197
17.8074 61.8182
17.8525 63.4597
17.8977 72.3449
17.9428 85.6445
17.9881 87.4337
18.0331 82.3625
18.0784 83.2458
18.1237 94.2646
18.1688 124.902
18.214 151.349
18.2591 126.25
18.3044 88.4664
18.3495 78.2023
18.3948 82.4506
18.4399 96.622
18.4852 101.482
18.5303 83.9077
18.5756 66.9477
18.6207 62.186
18.666 60.3127
18.7112 59.1175
18.7565 58.2384
18.8016 57.7346
18.8469 57.0657
18.892 56.8858
18.9374 56.299
18.9825 55.8762
19.0278 55.7006
19.073 55.8496
19.1183 56.5729
19.1635 59.3249
19.2088 61.5732
19.254 61.0404
19.2993 59.9827
19.3447 61.3333
19.3898 63.8264
19.4352 68.769
19.4804 73.5606
19.5257 68.1416
19.5709 57.917
19.6163 53.7536
19.6615 52.9494
19.7068 52.317
19.752 52.3688
19.7974 52.527
19.8426 53.8684
19.888 56.4521
19.9332 57.6814
19.9786 57.0969
20.0238 56.0304
20.0692 57.8955
20.1144 62.0897
20.1598 68.6744
20.205 71.357
20.2504 66.7851
20.2957 59.3342
20.3411 57.4315
20.3863 60.4539
20.4318 64.2461
20.477 61.8514
20.5224 54.8275
20.5677 50.5238
20.6131 49.5867
20.6586 48.8797
20.7038 48.8093
20.7493 48.6623
20.7945 48.7603
20.84 48.4874
20.8853 48.0402
20.9307 47.7408
20.976 48.1181
21.0215 48.1658
21.0668 48.7434
21.1122 48.4728
21.1575 48.2298
21.203 48.222
21.2483 48.4321
21.2938 49.7389
21.3391 50.4983
21.3846 50.3737
21.4299 49.1063
21.4754 48.1467
21.5207 47.8789
21.5662 48.1737
21.6116 48.6716
21.6571 50.7842
21.7024 52.8555
21.7479 53.3514
21.7933 52.2903
21.8388 52.586
21.8843 54.442
21.9297 57.1975
21.9752 61.5254
22.0206 65.381
22.0661 62.5659
22.1115 56.4145
22.157 53.6322
22.2024 54.5543
22.248 55.5011
22.2933 53.3722
22.3389 50.0771
22.3843 48.6015
22.4299 47.9753
22.4753 48.1607
22.5208 47.8778
22.5662 47.907
22.6118 48.0009
22.6572 48.2587
22.7028 49.6402
22.7483 50.8505
22.7939 51.2456
22.8393 50.6212
22.8849 50.4435
22.9303 50.5893
22.9759 51.4632
23.0214 53.3898
23.067 57.0673
23.1126 57.3129
23.1581 53.7017
23.2037 49.9781
23.2492 48.7254
23.2948 49.0583
23.3403 50.5562
23.3859 51.1582
23.4314 50.8582
23.477 50.1254
23.5225 49.728
23.5682 50.2204
23.6137 51.9385
23.6593 54.5648
23.7048 57.1572
23.7505 55.6011
23.796 50.5254
23.8417 46.9503
23.8872 45.4884
23.9329 44.9102
23.9784 44.6367
24.0241 44.2684
24.0697 44.0102
24.1154 43.6924
24.1609 43.3976
24.2066 43.2244
24.2522 43.0579
24.2979 42.8837
24.3434 42.82
24.3892 42.5846
24.4349 42.4574
24.4805 42.1651
24.5262 42.1547
24.5718 42.0447
24.6175 42.0091
24.6631 42.3098
24.7089 42.1633
24.7545 42.247
24.8002 41.7581
24.8458 41.7545
24.8916 41.7799
24.9372 42.0496
24.983 42.0084
25.0286 42.2593
25.0744 42.4923
25.12 42.7725
25.1658 43.055
25.2114 43.0395
25.2572 43.5991
25.3029 43.8468
25.3487 43.5573
25.3943 43.4343
25.4402 43.7541
25.4858 44.356
25.5316 43.4864
25.5773 41.7038
25.6231 40.7923
25.669 40.2067
25.7147 40.1173
25.7605 40.0274
25.8062 40.3419
25.8521 40.529
25.8977 40.2897
25.9436 40.2028
25.9893 39.8744
26.0352 40.1117
26.0809 39.8897
26.1268 40.2927
26.1725 40.8157
26.2184 41.4678
26.2641 41.1794
26.31 40.7139
26.3557 40.3542
26.4017 40.3007
26.4474 40.1841
26.4933 40.0353
26.5391 40.1524
26.585 40.2107
26.6308 40.3358
26.6767 40.5301
26.7225 41.2525
26.7684 41.9189
26.8142 41.8017
26.8601 40.7856
26.9059 40.2112
26.9519 39.8533
26.9979 39.7068
27.0437 39.1056
27.0896 38.6534
27.1354 38.52
27.1814 38.3464
27.2272 38.3161
27.2732 38.2484
27.3191 37.9297
27.3651 38.0159
27.4109 37.7646
27.4569 37.9347
27.5027 37.857
27.5488 37.8359
27.5946 37.924
27.6407 38.0393
27.6865 38.1807
27.7326 38.0957
27.7784 38.0404
27.8245 37.8435
27.8703 37.6909
27.9164 37.6956
27.9623 37.668
28.0084 37.6087
28.0543 37.9235
28.1003 37.9123
28.1462 38.2191
28.1923 38.6479
28.2384 38.3791
28.2843 37.9897
28.3304 37.3773
28.3764 37.2673
28.4225 36.932
28.4684 36.3919
28.5145 35.7534
28.5605 35.5643
28.6066 35.4087
28.6526 35.33
28.6987 35.1626
28.7447 35.0729
28.7908 34.948
28.8368 34.7978
28.8829 34.8384
28.9289 34.8659
28.9751 34.6549
29.0211 34.7611
29.0673 34.6579
29.1133 34.5123
29.1595 34.3027
29.2055 34.0829
29.2517 33.8307
29.2977 33.6609
29.3439 33.5788
29.3899 33.4717
29.4361 33.5279
29.4824 33.4221
29.5284 33.6142
29.5746 33.4379
29.6207 33.0786
29.6669 32.9086
29.713 32.733
29.7593 32.4895
29.8053 32.4179
29.8516 32.2906
29.8977 32.2966
29.9439 32.1598
29.99 32.1314
30.0363 32.0852
30.0824 32.112
30.1287 31.8154
30.1748 31.8871
30.2211 31.8095
30.2673 31.7174
30.3136 31.886
30.3597 31.894
30.406 32.0159
30.4522 31.8344
30.4985 31.7119
30.5447 31.7167
30.591 31.6306
30.6372 31.5965
30.6835 31.5323
30.7297 31.5169
30.7761 31.7297
30.8224 31.7874
30.8686 31.893
30.915 31.5366
30.9612 31.5016
31.0076 31.1894
31.0538 30.9563
31.1002 30.8882
31.1464 30.6751
31.1928 30.6512
31.2391 30.6336
31.2855 30.547
31.3317 30.3852
31.3781 30.395
31.4244 30.3135
31.4708 30.1965
31.5171 30.2864
31.5636 30.3608
31.6098 30.3306
31.6563 30.3376
31.7026 30.2458
31.7491 29.9829
31.7953 29.8047
31.8418 29.6114
31.8881 29.682
31.9346 29.534
31.9809 29.4912
32.0275 29.5283
32.074 29.5732
32.1203 29.5021
32.1668 29.3937
32.2132 29.2621
32.2597 29.0536
32.306 29.0377
32.3526 28.7585
32.399 28.6463
32.4455 28.4604
32.4919 28.33
32.5385 28.3338
32.5848 28.1415
32.6314 28.1643
32.6778 28.1018
32.7244 27.9843
32.7708 27.7995
32.8174 27.846
32.8638 27.7013
32.9104 27.7731
32.9569 27.6992
33.0035 27.4591
33.0499 27.4548
33.0966 27.4498
33.143 27.3253
33.1897 27.2721
33.2361 27.2139
33.2828 27.1261
33.3293 27.148
33.3759 27.1205
33.4226 26.9542
33.4691 26.9437
33.5158 26.8504
33.5623 26.6378
33.609 26.3953
33.6555 26.4377
33.7022 26.3098
33.7487 26.1922
33.7954 26.0393
33.842 25.9587
33.8887 25.8949
33.9353 25.8915
33.982 25.759
34.0286 25.7665
34.0753 25.6653
34.1219 25.5937
34.1687 25.4615
34.2152 25.3339
34.262 25.3001
34.3086 25.1945
34.3554 25.1258
34.402 25.0761
34.4488 24.9575
34.4954 25.046
34.5422 24.9405
34.5889 24.7719
34.6357 24.6864
34.6825 24.5322
34.7292 24.4367
34.776 24.401
34.8227 24.3799
34.8695 24.2988
34.9162 24.2116
34.9631 24.1154
35.0098 24.187
35.0566 23.9561
35.1033 23.9595
35.1502 23.9596
35.1969 23.8838
35.2438 23.8632
35.2906 23.7898
35.3375 23.7018
35.3842 23.633
35.4311 23.6274
35.4779 23.5182
35.5248 23.5231
35.5716 23.4462
35.6185 23.4086
35.6653 23.3533
35.7123 23.3461
35.759 23.2334
35.806 23.1451
35.8528 22.9614
35.8998 22.8775
35.9468 22.8225
35.9936 22.8395
36.0406 22.7173
36.0874 22.7452
36.1345 22.595
36.1813 22.4834
36.2283 22.4054
36.2752 22.4092
36.3222 22.3268
36.3691 22.3562
36.4161 22.1702
36.463 22.1232
36.5101 22.1397
36.557 22.0222
36.6041 21.8733
36.651 21.8981
36.6981 21.8349
36.745 21.763
36.7921 21.696
36.839 21.6768
36.8861 21.616
36.9331 21.4306
36.9802 21.4203
37.0272 21.3381
37.0743 21.2256
37.1213 21.1767
37.1684 21.1618
37.2154 20.9776
37.2626 20.9935
37.3098 20.9378
37.3568 20.9019
37.404 20.8027
37.451 20.7635
37.4982 20.6652
37.5452 20.5627
37.5924 20.5498
37.6395 20.5806
37.6867 20.4649
37.7337 20.3749
37.781 20.2724
37.8281 20.256
37.8753 20.1189
37.9224 20.0644
37.9697 20.0706
38.0168 19.9438
38.064 19.8667
38.1111 19.8218
38.1584 19.7791
38.2056 19.66
38.2529 19.6921
38.3 19.5648
38.3473 19.5494
38.3945 19.4303
38.4418 19.435
38.489 19.4014
38.5363 19.2894
38.5837 19.1649
38.6309 19.1285
38.6782 19.066
38.7254 18.965
38.7728 18.9304
38.82 18.8357
38.8674 18.8447
38.9146 18.7959
38.9621 18.7215
39.0093 18.6194
39.0567 18.6404
39.104 18.5727
39.1514 18.509
39.1987 18.4501
39.2461 18.3663
39.2934 18.3963
39.3409 18.2438
39.3882 18.1306
39.4356 18.1408
39.483 18.0293
39.5304 18.0942
39.5778 18.0432
39.6253 17.9487
39.6726 17.8873
39.7201 17.7869
39.7675 17.7686
39.815 17.7356
39.8624 17.6541
39.9099 17.6185
39.9575 17.5776
40.0049 17.5289
40.0525 17.3607
40.0999 17.3867
40.1474 17.3412
40.1949 17.2892
40.2425 17.1432
40.2899 17.1462
40.3375 17.1039
40.385 17.0337
40.4326 16.9906
40.48 16.905
40.5277 16.888
40.5752 16.8322
40.6228 16.7166
40.6703 16.6957
40.718 16.6914
40.7655 16.5856
40.8132 16.5701
40.8607 16.5416
40.9084 16.5302
40.9559 16.3999
41.0036 16.3306
41.0512 16.3163
41.0989 16.2738
41.1465 16.1951
41.1942 16.1847
41.242 16.1087
41.2896 16.0069
41.3373 15.9628
41.3849 15.946
41.4327 15.8616
41.4803 15.8401
41.5281 15.764
41.5758 15.7147
41.6236 15.6581
41.6712 15.5995
41.7191 15.575
41.7667 15.5122
41.8146 15.4258
41.8622 15.3828
41.9101 15.3562
41.9578 15.231
42.0057 15.3057
42.0534 15.2405
42.1013 15.1517
42.149 15.0935
42.1969 15.0596
42.2446 14.9805
42.2925 14.954
42.3403 14.8901
42.3882 14.8815
42.436 14.8074
42.4839 14.6747
42.5319 14.7155
42.5797 14.6754
42.6277 14.6028
42.6755 14.5346
42.7235 14.5006
42.7713 14.4788
42.8193 14.3321
42.8671 14.3166
42.9152 14.3003
42.963 14.1988
43.0111 14.1758
43.0589 14.1653
43.107 14.0867
43.1549 14.0142
43.2029 14.0019
43.2508 13.9682
43.2989 13.8986
43.3468 13.8348
43.3949 13.8212
43.4429 13.7481
43.491 13.6978
43.5389 13.6881
43.5871 13.6568
43.635 13.5519
43.6832 13.5036
43.7312 13.4839
43.7793 13.4687
43.8273 13.3727
43.8755 13.2971
43.9237 13.3209
43.9717 13.2466
44.0199 13.2128
44.068 13.1919
44.1162 13.107
44.1642 13.1118
44.2125 13.0447
44.2606 12.9721
44.3088 12.9382
44.3569 12.8859
44.4052 12.8444
44.4533 12.7773
44.5016 12.7438
44.5497 12.7444
44.598 12.6936
44.6461 12.6472
44.6945 12.5724
44.7426 12.547
44.791 12.4915
44.8391 12.4546
44.8875 12.4281
44.9357 12.4103
44.984 12.3221
45.0322 12.2867
45.0806 12.2411
45.1288 12.203
45.1773 12.1235
45.2257 12.1082
45.2739 12.0281
45.3224 12.03
45.3706 11.9619
45.4191 11.9243
45.4673 11.9314
45.5158 11.8435
45.5641 11.7566
45.6126 11.7934
45.6609 11.7494
45.7094 11.6448
45.7577 11.6078
45.8063 11.5114
45.8546 11.5284
45.9031 11.5015
45.9515 11.4392
46.0001 11.4174
46.0484 11.4223
46.097 11.3459
46.1454 11.3207
46.194 11.2695
46.2424 11.2125
46.291 11.1741
46.3395 11.1609
46.3881 11.0951
46.4365 11.0639
46.4852 10.9956
46.5337 10.9922
46.5823 10.9708
46.631 10.9075
46.6795 10.8525
46.7282 10.8647
46.7767 10.7836
46.8254 10.7525
46.8739 10.705
46.9226 10.6647
46.9712 10.6072
47.0199 10.5815
47.0685 10.5646
47.1173 10.496
47.1658 10.4232
47.2146 10.4589
47.2632 10.3637
47.312 10.3849
47.3606 10.2906
47.4095 10.3142
47.4581 10.2449
47.5069 10.1787
47.5556 10.1558
47.6044 10.1232
47.6531 10.042
47.702 10.0118
47.7507 9.9827
47.7996 9.9984
47.8483 9.94229
47.8972 9.92008
47.9461 9.8817
47.9948 9.82395
48.0438 9.78419
48.0925 9.83055
48.1415 9.72773
48.1902 9.6737
48.2392 9.65705
48.288 9.64919
48.337 9.61432
48.3858 9.53072
48.4348 9.53343
48.4837 9.53311
48.5327 9.46779
48.5815 9.42303
48.6306 9.3936
48.6795 9.36402
48.7285 9.32214
48.7774 9.30361
48.8265 9.26218
48.8754 9.21678
48.9245 9.19812
48.9734 9.14058
49.0226 9.18422
49.0715 9.0763
49.1206 9.04934
49.1696 9.03991
49.2188 8.9698
49.2679 8.9607
49.3169 8.89374
49.3661 8.87096
49.4151 8.82771
49.4643 8.83605
49.5134 8.79516
49.5626 8.75049
49.6117 8.67427
49.6609 8.66736
49.71 8.59469
49.7592 8.59031
49.8083 8.555
49.8576 8.59552
49.9067 8.50581
49.956 8.46748
50.0052 8.44068
50.0545 8.45659
50.1036 8.39637
50.153 8.35795
50.2022 8.30983
50.2515 8.27524
50.3007 8.25957
50.3501 8.23765
50.3993 8.19712
50.4487 8.16332
50.498 8.10377
50.5474 8.1261
50.5966 8.04606
50.6461 8.03913
50.6955 8.02861
50.7448 7.98605
50.7943 7.93376
50.8436 7.91846
50.8931 7.90578
50.9424 7.86532
50.9919 7.8034
51.0413 7.8224
51.0908 7.75115
51.1402 7.73682
51.1897 7.70108
51.2391 7.67472
51.2887 7.61026
51.3381 7.60062
51.3877 7.58717
51.4371 7.51651
51.4867 7.51587
51.5362 7.45937
51.5858 7.44454
51.6353 7.44839
51.6849 7.38206
51.7344 7.35782
51.7841 7.36143
51.8336 7.2891
51.8833 7.2455
51.9328 7.2008
51.9826 7.1962
52.0323 7.16255
52.0818 7.15253
52.1316 7.09237
52.1812 7.05973
52.231 7.08631
52.2806 7.025
52.3304 7.02179
52.38 6.94832
52.4298 6.97379
52.4794 6.91911
52.5293 6.8582
52.5789 6.86713
52.6288 6.84821
52.6785 6.77466
52.7284 6.78926
52.7781 6.75425
52.828 6.72275
52.8777 6.68022
52.9276 6.65264
52.9774 6.64324
53.0273 6.59712
53.0771 6.5463
53.1271 6.53452
53.1769 6.53268
53.2269 6.49534
53.2767 6.47015
53.3267 6.45236
53.3765 6.42968
53.4266 6.36663
53.4766 6.37552
53.5265 6.36428
53.5765 6.31685
53.6264 6.2867
53.6765 6.25997
53.7264 6.19405
53.7765 6.23281
53.8265 6.20262
53.8766 6.14827
53.9266 6.12606
53.9767 6.05571
54.0267 6.05882
54.0769 6.04793
54.1269 5.91205
54.1771 5.94972
54.2271 5.87993
54.2773 5.85121
54.3274 5.83134
54.3776 5.78759
54.4277 5.77366
54.478 5.70853
54.528 5.65807
54.5783 5.62614
54.6285 5.57147
54.6788 5.52315
54.7289 5.47817
54.7792 5.42149
54.8296 5.37428
54.8798 5.42252
54.9301 5.29648
54.9803 5.27898
55.0307 5.27275
55.0809 5.2514
55.1314 5.13797
55.1816 5.1236
55.232 5.05279
55.2823 5.01192
55.3328 4.94564
55.383 4.90331
55.4335 4.85491
55.4838 4.79418
55.5344 4.77277
55.5847 4.74607
55.6352 4.74039
55.6856 4.72158
55.7361 4.6268