File: XRD/Ni3Fe_FD0401.xy
TT I
1.27165 8.00762
1.31627 6.65756
1.36089 6.81956
1.40551 7.11187
1.45013 6.57698
1.49476 6.28007
1.53938 6.06219
1.584 5.05962
1.62863 5.49057
1.67325 5.04285
1.71787 5.08921
1.7625 5.30341
1.80712 4.88274
1.85174 4.86621
1.89636 4.83825
1.94099 4.89201
1.98562 5.21073
2.03025 4.63497
2.07487 4.36111
2.11949 4.53365
2.16411 4.94584
2.20874 15.5276
2.25338 26.3747
2.298 6.28333
2.34263 4.96633
2.38725 5.07517
2.43188 6.18238
2.4765 6.25241
2.52115 6.67463
2.56577 6.84486
2.6104 7.34829
2.65503 6.95934
2.69965 7.34798
2.7443 8.21348
2.78893 7.57366
2.83356 7.88989
2.87818 8.13195
2.92281 8.61852
2.96744 9.25699
3.01209 10.1734
3.05672 11.2651
3.10135 12.4913
3.14599 12.8524
3.19062 14.6037
3.23527 14.6809
3.2799 16.0043
3.32454 17.0873
3.36917 17.6738
3.4138 19.161
3.45844 19.6877
3.50309 21.0427
3.54773 21.891
3.59237 24.5774
3.637 106.387
3.68164 66.024
3.7263 26.8488
3.77094 26.5266
3.81558 27.0444
3.86022 27.9578
3.90486 29.3577
3.9495 30.4689
3.99416 31.3981
4.0388 32.8245
4.08344 34.4164
4.12809 36.0939
4.17273 38.0739
4.21738 44.7793
4.26204 284.658
4.30669 251.687
4.35133 51.1431
4.39598 45.5042
4.44063 55.9935
4.4853 69.7535
4.52995 52.3553
4.5746 52.6986
4.61925 54.3297
4.6639 56.4504
4.70855 59.03
4.75322 61.9789
4.79788 64.8843
4.84253 68.6651
4.88719 73.0465
4.93184 76.7519
4.97652 82.6705
5.02118 88.9735
5.06583 97.8507
5.11049 110.376
5.15515 196.245
5.19981 435.681
5.24449 3007.84
5.28916 11718.1
5.33382 3617.22
5.37848 224.651
5.42315 139.179
5.46783 119.391
5.5125 110.547
5.55716 105.346
5.60183 101.212
5.6465 99.5626
5.69117 96.9214
5.73586 94.4674
5.78053 94.7939
5.8252 94.6603
5.86988 95.5777
5.91455 97.7468
5.95924 107.812
6.00392 234.731
6.0486 1041.46
6.09328 3920.83
6.13795 3480.49
6.18263 307.692
6.22733 100.796
6.27201 87.1955
6.3167 109.828
6.36138 84.4394
6.40606 71.5063
6.45075 69.1222
6.49545 66.8382
6.54014 65.3728
6.58483 64.6601
6.62952 64.524
6.67421 100.701
6.71892 162.029
6.76361 71.9301
6.8083 60.6574
6.853 59.1137
6.89769 58.3907
6.94239 57.8892
6.98711 57.3344
7.03181 56.9041
7.07651 56.6518
7.12121 56.5308
7.16591 56.7898
7.21063 57.1224
7.25533 74.256
7.30004 206.239
7.34475 100.058
7.38945 58.2976
7.43416 56.2977
7.47889 55.9039
7.5236 56.1156
7.56831 56.8933
7.61303 58.667
7.65774 59.2424
7.70247 57.4612
7.74719 57.4246
7.79191 57.9115
7.83663 58.0421
7.88135 59.1317
7.92607 60.2448
7.97081 61.4457
8.01553 62.1899
8.06026 64.1913
8.10498 65.4153
8.14971 76.1366
8.19446 74.7655
8.23919 70.808
8.28392 73.7299
8.32865 75.942
8.37339 80.1009
8.41812 87.8745
8.46288 121.74
8.50761 179.189
8.55235 417.837
8.59709 1103.93
8.64183 2092.4
8.68658 1126.21
8.73134 202.812
8.77609 104.587
8.82083 95.9484
8.86558 92.6198
8.91033 92.6266
8.9551 94.9992
8.99985 87.4717
9.04461 85.2702
9.08936 85.0472
9.13412 83.659
9.17888 83.9105
9.22365 84.6186
9.26841 84.1661
9.31318 84.7745
9.35794 84.6328
9.4027 85.0661
9.44749 85.7179
9.49226 86.4366
9.53703 87.3292
9.5818 89.6903
9.62657 94.7247
9.67134 102.151
9.71614 96.0583
9.76091 96.2718
9.80569 98.7302
9.85047 102.404
9.89525 130.371
9.94005 145.453
9.98484 188.597
10.0296 367.235
10.0744 776.4
10.1192 1593.52
10.164 1743.11
10.2088 506.516
10.2536 142.679
10.2984 118.676
10.3432 120.134
10.388 108.184
10.4328 122.658
10.4776 167.225
10.5224 272.386
10.5672 478.533
10.612 538.454
10.6568 230.516
10.7017 102.524
10.7465 89.3093
10.7913 85.3272
10.8361 82.744
10.8809 81.0011
10.9257 80.5845
10.9706 81.4274
11.0154 77.0085
11.0602 74.5093
11.105 73.8996
11.1499 78.9561
11.1947 88.2102
11.2395 77.8339
11.2844 72.8831
11.3292 69.0395
11.374 67.8262
11.4189 66.9929
11.4637 66.5166
11.5086 67.3807
11.5534 70.8064
11.5983 67.3834
11.6431 65.0413
11.688 64.5223
11.7328 64.559
11.7777 64.3303
11.8225 64.0539
11.8674 63.9371
11.9122 64.1641
11.9571 64.3399
12.002 65.054
12.0468 69.8767
12.0917 82.479
12.1366 103.791
12.1814 146.168
12.2263 197.933
12.2712 181.824
12.3161 107.742
12.3609 74.0152
12.4058 66.6503
12.4507 66.0452
12.4956 65.7106
12.5405 66.339
12.5853 67.3534
12.6302 76.457
12.6751 83.2408
12.72 72.565
12.7649 69.4683
12.8098 69.963
12.8547 71.1986
12.8996 72.6897
12.9445 73.9276
12.9894 75.4065
13.0343 77.4083
13.0792 80.6883
13.1242 90.8439
13.1691 117.344
13.214 153.13
13.2589 228.806
13.3038 343.993
13.3487 427.418
13.3937 296.785
13.4386 137.987
13.4835 110.295
13.5285 125.965
13.5734 159.573
13.6183 231.727
13.6633 328.887
13.7082 353.787
13.7531 214.549
13.7981 106.765
13.843 84.355
13.888 81.866
13.9329 78.8926
13.9779 77.7537
14.0228 76.2016
14.0678 74.8863
14.1127 74.2979
14.1577 74.147
14.2027 73.1777
14.2476 72.1366
14.2926 72.1997
14.3376 73.6548
14.3825 72.175
14.4275 70.6624
14.4725 69.9012
14.5175 70.3566
14.5624 70.6081
14.6074 73.0088
14.6524 73.8554
14.6974 72.0816
14.7424 73.8021
14.7874 81.1919
14.8324 92.4449
14.8774 111.704
14.9224 147.242
14.9674 196.279
15.0124 219.72
15.0574 165.503
15.1024 100.867
15.1474 75.0599
15.1924 72.462
15.2374 73.2708
15.2824 72.6806
15.3274 70.1511
15.3725 68.6131
15.4175 68.0835
15.4625 67.6232
15.5076 68.1943
15.5526 68.0136
15.5976 67.4958
15.6426 68.6119
15.6877 74.4683
15.7327 82.9141
15.7778 96.3673
15.8228 122.159
15.8679 161.183
15.9129 193.015
15.958 172.178
16.003 108.365
16.0481 72.3258
16.0931 67.0624
16.1382 64.8764
16.1833 62.1914
16.2283 60.6038
16.2734 59.9282
16.3185 60.3259
16.3636 61.299
16.4086 59.6478
16.4537 57.7797
16.4988 56.9381
16.5439 56.8974
16.589 56.7055
16.6341 56.1619
16.6792 55.9026
16.7243 56.2904
16.7694 56.4567
16.8145 56.2794
16.8596 56.6981
16.9047 58.657
16.9498 58.568
16.9949 57.4927
17.04 57.3385
17.0851 58.5354
17.1302 60.3626
17.1754 63.1553
17.2205 67.6568
17.2656 73.8589
17.3108 82.371
17.3559 84.1286
17.401 74.6431
17.4462 64.4285
17.4913 60.7529
17.5365 60.5191
17.5815 60.733
17.6268 60.8361
17.6718 61.8509
17.7171 62.5704
17.7622 62.6583
17.8074 63.1741
17.8525 65.7735
17.8977 70.2466
17.9428 76.0037
17.9881 83.3188
18.0331 98.1343
18.0784 117.023
18.1237 137.264
18.1688 137.649
18.214 112.156
18.2591 90.2464
18.3044 90.1679
18.3495 98.7268
18.3948 107.164
18.4399 101.136
18.4852 82.5231
18.5303 68.8131
18.5756 63.9386
18.6207 62.8216
18.666 61.9823
18.7112 61.2217
18.7565 60.471
18.8016 60.0719
18.8469 59.489
18.892 59.157
18.9374 58.8189
18.9825 58.4151
19.0278 58.2148
19.073 58.425
19.1183 59.1427
19.1635 59.9754
19.2088 61.2342
19.254 63.373
19.2993 66.8546
19.3447 72.6206
19.3898 77.5344
19.4352 75.1335
19.4804 66.9069
19.5257 59.0805
19.5709 55.9221
19.6163 55.2466
19.6615 55.1437
19.7068 54.5885
19.752 54.6635
19.7974 55.0814
19.8426 55.9957
19.888 56.5403
19.9332 57.7389
19.9786 59.6411
20.0238 62.6439
20.0692 66.9614
20.1144 70.5533
20.1598 70.4452
20.205 65.7189
20.2504 63.2069
20.2957 64.0098
20.3411 66.0956
20.3863 66.0594
20.4318 61.0837
20.477 55.7113
20.5224 53.1391
20.5677 52.4612
20.6131 51.5884
20.6586 51.0041
20.7038 50.8803
20.7493 50.4751
20.7945 50.1939
20.84 50.111
20.8853 49.9054
20.9307 49.7729
20.976 50.0005
21.0215 50.0067
21.0668 50.3443
21.1122 50.6668
21.1575 51.1313
21.203 51.93
21.2483 52.2729
21.2938 52.8062
21.3391 51.6487
21.3846 50.3324
21.4299 49.7268
21.4754 49.6074
21.5207 49.7236
21.5662 49.951
21.6116 50.4399
21.6571 51.2588
21.7024 52.0119
21.7479 53.7773
21.7933 56.0893
21.8388 59.297
21.8843 62.7748
21.9297 65.7541
21.9752 65.6642
22.0206 62.0226
22.0661 58.1268
22.1115 57.2267
22.157 57.1546
22.2024 56.1157
22.248 53.2934
22.2933 51.2732
22.3389 50.4205
22.3843 50.4372
22.4299 50.3038
22.4753 50.3254
22.5208 49.7468
22.5662 49.6896
22.6118 49.7486
22.6572 50.1918
22.7028 50.5698
22.7483 51.0535
22.7939 51.5972
22.8393 52.8068
22.8849 54.693
22.9303 56.5606
22.9759 58.5566
23.0214 58.8649
23.067 56.6687
23.1126 52.9894
23.1581 50.7282
23.2037 50.0464
23.2492 50.1302
23.2948 50.0775
23.3403 50.3884
23.3859 51.0601
23.4314 51.867
23.477 53.3766
23.5225 55.118
23.5682 57.3605
23.6137 59.0122
23.6593 57.6241
23.7048 53.7401
23.7505 50.1221
23.796 48.0838
23.8417 47.257
23.8872 46.4954
23.9329 46.4078
23.9784 46.0126
24.0241 45.8685
24.0697 45.4749
24.1154 45.3133
24.1609 45.1193
24.2066 44.943
24.2522 44.8657
24.2979 44.4948
24.3434 44.3734
24.3892 44.2458
24.4349 44.1311
24.4805 43.9043
24.5262 44.3516
24.5718 44.0604
24.6175 44.0581
24.6631 43.9705
24.7089 43.601
24.7545 43.6675
24.8002 43.2443
24.8458 43.2367
24.8916 43.1651
24.9372 43.2232
24.983 43.5031
25.0286 43.9016
25.0744 44.3012
25.12 44.595
25.1658 45.3011
25.2114 45.6748
25.2572 45.814
25.3029 45.6083
25.3487 45.9059
25.3943 45.855
25.4402 44.933
25.4858 43.7255
25.5316 42.7515
25.5773 41.9735
25.6231 41.9548
25.669 41.5591
25.7147 41.505
25.7605 41.4774
25.8062 41.515
25.8521 41.7419
25.8977 41.5466
25.9436 41.8035
25.9893 41.7838
26.0352 42.2831
26.0809 42.4128
26.1268 42.7841
26.1725 42.511
26.2184 42.087
26.2641 41.4863
26.31 41.1178
26.3557 41.1311
26.4017 41.0966
26.4474 41.4028
26.4933 41.7644
26.5391 42.0888
26.585 42.6389
26.6308 42.8088
26.6767 43.0594
26.7225 43.1152
26.7684 42.4279
26.8142 41.9013
26.8601 41.4272
26.9059 41.1273
26.9519 40.566
26.9979 40.2258
27.0437 39.9915
27.0896 39.6802
27.1354 39.7089
27.1814 39.495
27.2272 39.5436
27.2732 39.3876
27.3191 39.2333
27.3651 39.5118
27.4109 39.3963
27.4569 39.3562
27.5027 39.277
27.5488 39.5185
27.5946 39.3108
27.6407 39.0735
27.6865 39.1155
27.7326 38.7272
27.7784 38.8311
27.8245 38.6665
27.8703 38.9862
27.9164 39.2019
27.9623 39.3557
28.0084 39.5107
28.0543 39.9813
28.1003 39.865
28.1462 39.6399
28.1923 39.3431
28.2384 38.9565
28.2843 38.5849
28.3304 38.1745
28.3764 37.7316
28.4225 37.4571
28.4684 37.2366
28.5145 36.8716
28.5605 36.8291
28.6066 36.5223
28.6526 36.4452
28.6987 36.4936
28.7447 36.3311
28.7908 36.2988
28.8368 36.3703
28.8829 36.2628
28.9289 36.0931
28.9751 35.9337
29.0211 35.7528
29.0673 35.5892
29.1133 35.4988
29.1595 35.3504
29.2055 35.3044
29.2517 35.0737
29.2977 35.0427
29.3439 34.9992
29.3899 35.0422
29.4361 34.9861
29.4824 34.8387
29.5284 34.5667
29.5746 34.3615
29.6207 34.1203
29.6669 33.8656
29.713 33.8504
29.7593 33.6984
29.8053 33.7717
29.8516 33.5834
29.8977 33.5804
29.9439 33.421
29.99 33.4306
30.0363 33.2708
30.0824 33.3168
30.1287 33.1322
30.1748 33.232
30.2211 33.2425
30.2673 33.093
30.3136 33.1438
30.3597 33.0893
30.406 32.9411
30.4522 32.8786
30.4985 32.8762
30.5447 32.8789
30.591 32.8645
30.6372 32.9427
30.6835 32.99
30.7297 32.9513
30.7761 33.0091
30.8224 32.8104
30.8686 32.521
30.915 32.2759
30.9612 32.335
31.0076 32.1703
31.0538 31.9987
31.1002 31.7748
31.1464 31.7006
31.1928 31.7123
31.2391 31.7167
31.2855 31.6072
31.3317 31.6021
31.3781 31.7033
31.4244 31.5343
31.4708 31.5223
31.5171 31.4714
31.5636 31.5815
31.6098 31.3164
31.6563 31.1014
31.7026 31.0198
31.7491 30.7613
31.7953 30.9463
31.8418 30.8654
31.8881 30.8481
31.9346 30.7597
31.9809 30.7989
32.0275 30.635
32.074 30.5179
32.1203 30.3595
32.1668 30.2187
32.2132 30.1984
32.2597 29.9802
32.306 29.8533
32.3526 29.6685
32.399 29.6782
32.4455 29.5593
32.4919 29.4131
32.5385 29.2932
32.5848 29.2596
32.6314 29.219
32.6778 29.0936
32.7244 29.0798
32.7708 28.7827
32.8174 28.863
32.8638 28.6145
32.9104 28.7846
32.9569 28.6616
33.0035 28.565
33.0499 28.5488
33.0966 28.58
33.143 28.426
33.1897 28.3586
33.2361 28.2783
33.2828 28.2889
33.3293 28.0963
33.3759 28.0935
33.4226 27.9752
33.4691 27.7318
33.5158 27.676
33.5623 27.5638
33.609 27.4007
33.6555 27.3909
33.7022 27.2465
33.7487 27.1107
33.7954 27.1343
33.842 27.0815
33.8887 26.9322
33.9353 26.9222
33.982 26.7521
34.0286 26.6804
34.0753 26.6645
34.1219 26.5268
34.1687 26.5688
34.2152 26.2992
34.262 26.2818
34.3086 26.1392
34.3554 26.122
34.402 26.0225
34.4488 25.8606
34.4954 25.924
34.5422 25.7816
34.5889 25.6741
34.6357 25.6488
34.6825 25.5784
34.7292 25.4677
34.776 25.366
34.8227 25.3279
34.8695 25.2017
34.9162 25.184
34.9631 25.0964
35.0098 25.1093
35.0566 24.9476
35.1033 24.9844
35.1502 24.9001
35.1969 24.8146
35.2438 24.6946
35.2906 24.7232
35.3375 24.6525
35.3842 24.6244
35.4311 24.6084
35.4779 24.5712
35.5248 24.4196
35.5716 24.4118
35.6185 24.2535
35.6653 24.2281
35.7123 24.1464
35.759 24.0231
35.806 23.962
35.8528 23.7378
35.8998 23.79
35.9468 23.601
35.9936 23.6138
36.0406 23.5934
36.0874 23.5232
36.1345 23.4468
36.1813 23.4278
36.2283 23.2585
36.2752 23.208
36.3222 23.1823
36.3691 23.0458
36.4161 22.999
36.463 22.9371
36.5101 22.9162
36.557 22.9118
36.6041 22.7256
36.651 22.7368
36.6981 22.7359
36.745 22.5983
36.7921 22.5441
36.839 22.3761
36.8861 22.371
36.9331 22.3018
36.9802 22.1531
37.0272 22.1096
37.0743 22.0467
37.1213 21.9123
37.1684 22.013
37.2154 21.8487
37.2626 21.853
37.3098 21.7521
37.3568 21.6678
37.404 21.5158
37.451 21.54
37.4982 21.4802
37.5452 21.4214
37.5924 21.2709
37.6395 21.3736
37.6867 21.216
37.7337 21.1082
37.781 20.9883
37.8281 20.9425
37.8753 20.923
37.9224 20.8977
37.9697 20.7076
38.0168 20.7173
38.064 20.6393
38.1111 20.6114
38.1584 20.4627
38.2056 20.5111
38.2529 20.4093
38.3 20.305
38.3473 20.254
38.3945 20.1991
38.4418 20.1749
38.489 20.0901
38.5363 19.9944
38.5837 19.9506
38.6309 19.8516
38.6782 19.7573
38.7254 19.6962
38.7728 19.6626
38.82 19.5812
38.8674 19.586
38.9146 19.4761
38.9621 19.3675
39.0093 19.4135
39.0567 19.2969
39.104 19.2425
39.1514 19.219
39.1987 19.1266
39.2461 19.074
39.2934 19.0015
39.3409 18.9389
39.3882 18.8837
39.4356 18.845
39.483 18.7188
39.5304 18.6958
39.5778 18.6735
39.6253 18.5999
39.6726 18.584
39.7201 18.5189
39.7675 18.4058
39.815 18.376
39.8624 18.3135
39.9099 18.2742
39.9575 18.1604
40.0049 18.0837
40.0525 18.0695
40.0999 17.9492
40.1474 18.0368
40.1949 17.9172
40.2425 17.7815
40.2899 17.718
40.3375 17.7179
40.385 17.6938
40.4326 17.6021
40.48 17.5866
40.5277 17.5122
40.5752 17.4416
40.6228 17.3003
40.6703 17.3314
40.718 17.289
40.7655 17.251
40.8132 17.1954
40.8607 17.1826
40.9084 17.135
40.9559 17.0159
41.0036 16.9932
41.0512 16.924
41.0989 16.8799
41.1465 16.7701
41.1942 16.7419
41.242 16.6531
41.2896 16.6291
41.3373 16.5713
41.3849 16.5776
41.4327 16.4567
41.4803 16.338
41.5281 16.3555
41.5758 16.2912
41.6236 16.2239
41.6712 16.1204
41.7191 16.0661
41.7667 16.0668
41.8146 16.0577
41.8622 15.9753
41.9101 15.9064
41.9578 15.8386
42.0057 15.8206
42.0534 15.7106
42.1013 15.7384
42.149 15.6827
42.1969 15.5921
42.2446 15.5688
42.2925 15.4447
42.3403 15.4958
42.3882 15.37
42.436 15.3463
42.4839 15.304
42.5319 15.2158
42.5797 15.1691
42.6277 15.1173
42.6755 15.0388
42.7235 15.01
42.7713 14.9584
42.8193 14.902
42.8671 14.844
42.9152 14.8545
42.963 14.7561
43.0111 14.7107
43.0589 14.6996
43.107 14.64
43.1549 14.5959
43.2029 14.5222
43.2508 14.4982
43.2989 14.4314
43.3468 14.3239
43.3949 14.3706
43.4429 14.2652
43.491 14.245
43.5389 14.1799
43.5871 14.1246
43.635 14.0642
43.6832 14.0185
43.7312 14.0023
43.7793 13.9135
43.8273 13.8435
43.8755 13.8701
43.9237 13.7629
43.9717 13.6981
44.0199 13.6684
44.068 13.6657
44.1162 13.6062
44.1642 13.6036
44.2125 13.4959
44.2606 13.4424
44.3088 13.4122
44.3569 13.3452
44.4052 13.3289
44.4533 13.2693
44.5016 13.2069
44.5497 13.2316
44.598 13.1459
44.6461 13.0979
44.6945 13.0516
44.7426 13.0027
44.791 12.9198
44.8391 12.9279
44.8875 12.8899
44.9357 12.8444
44.984 12.7574
45.0322 12.6994
45.0806 12.6845
45.1288 12.6155
45.1773 12.586
45.2257 12.5198
45.2739 12.4899
45.3224 12.4264
45.3706 12.4117
45.4191 12.3284
45.4673 12.3275
45.5158 12.2828
45.5641 12.1677
45.6126 12.2169
45.6609 12.1453
45.7094 12.0566
45.7577 12.0548
45.8063 11.9638
45.8546 11.9806
45.9031 11.935
45.9515 11.9155
46.0001 11.8587
46.0484 11.819
46.097 11.772
46.1454 11.7143
46.194 11.7165
46.2424 11.6292
46.291 11.579
46.3395 11.5363
46.3881 11.4811
46.4365 11.4974
46.4852 11.3969
46.5337 11.409
46.5823 11.3609
46.631 11.2792
46.6795 11.261
46.7282 11.2333
46.7767 11.1457
46.8254 11.0688
46.8739 11.0707
46.9226 11.0577
46.9712 10.9822
47.0199 10.9852
47.0685 10.9533
47.1173 10.856
47.1658 10.8574
47.2146 10.8287
47.2632 10.7564
47.312 10.7502
47.3606 10.7032
47.4095 10.6264
47.4581 10.601
47.5069 10.5423
47.5556 10.5011
47.6044 10.4801
47.6531 10.4767
47.702 10.3939
47.7507 10.3281
47.7996 10.3292
47.8483 10.3304
47.8972 10.2972
47.9461 10.2202
47.9948 10.1993
48.0438 10.1584
48.0925 10.1026
48.1415 10.0825
48.1902 10.0288
48.2392 10.0616
48.288 9.9664
48.337 9.90608
48.3858 9.91646
48.4348 9.85345
48.4837 9.83999
48.5327 9.83668
48.5815 9.78547
48.6306 9.75241
48.6795 9.68398
48.7285 9.64974
48.7774 9.59427
48.8265 9.57932
48.8754 9.53827
48.9245 9.52795
48.9734 9.47835
49.0226 9.43583
49.0715 9.39083
49.1206 9.37018
49.1696 9.35829
49.2188 9.25254
49.2679 9.24481
49.3169 9.21938
49.3661 9.1969
49.4151 9.14658
49.4643 9.11703
49.5134 9.06827
49.5626 9.03701
49.6117 8.99809
49.6609 9.00481
49.71 8.93058
49.7592 8.92532
49.8083 8.86935
49.8576 8.89178
49.9067 8.80409
49.956 8.80648
50.0052 8.73981
50.0545 8.72006
50.1036 8.68358
50.153 8.64861
50.2022 8.61996
50.2515 8.5703
50.3007 8.49565
50.3501 8.47698
50.3993 8.45873
50.4487 8.42327
50.498 8.43468
50.5474 8.37997
50.5966 8.36161
50.6461 8.29483
50.6955 8.31554
50.7448 8.26914
50.7943 8.2576
50.8436 8.18973
50.8931 8.16497
50.9424 8.13827
50.9919 8.07346
51.0413 8.10175
51.0908 8.04029
51.1402 8.01324
51.1897 7.97739
51.2391 7.93496
51.2887 7.86235
51.3381 7.87033
51.3877 7.85613
51.4371 7.78607
51.4867 7.74563
51.5362 7.74091
51.5858 7.72034
51.6353 7.67024
51.6849 7.61272
51.7344 7.58354
51.7841 7.59362
51.8336 7.53526
51.8833 7.4839
51.9328 7.51055
51.9826 7.40915
52.0323 7.44283
52.0818 7.37004
52.1316 7.33803
52.1812 7.32453
52.231 7.28256
52.2806 7.23925
52.3304 7.2465
52.38 7.21005
52.4298 7.1587
52.4794 7.12002
52.5293 7.13397
52.5789 7.11562
52.6288 7.03207
52.6785 7.02134
52.7284 7.00052
52.7781 6.95577
52.828 6.92999
52.8777 6.87499
52.9276 6.85535
52.9774 6.89502
53.0273 6.85673
53.0771 6.77574
53.1271 6.79395
53.1769 6.72444
53.2269 6.73239
53.2767 6.68616
53.3267 6.66046
53.3765 6.61922
53.4266 6.57651
53.4766 6.55749
53.5265 6.54588
53.5765 6.48759
53.6264 6.47061
53.6765 6.46696
53.7264 6.43738
53.7765 6.38209
53.8265 6.38511
53.8766 6.32936
53.9266 6.2962
53.9767 6.29369
54.0267 6.26045
54.0769 6.26098
54.1269 6.17524
54.1771 6.20875
54.2271 6.13974
54.2773 6.08718
54.3274 6.0733
54.3776 6.02931
54.4277 5.99057
54.478 6.02334
54.528 5.91939
54.5783 5.94229
54.6285 5.9031
54.6788 5.827
54.7289 5.78745
54.7792 5.75799
54.8296 5.68324
54.8798 5.66416
54.9301 5.58981
54.9803 5.56522
55.0307 5.58504
55.0809 5.48016
55.1314 5.51629
55.1816 5.38321
55.232 5.35877
55.2823 5.35228
55.3328 5.29615
55.383 5.24029
55.4335 5.19625
55.4838 5.17491
55.5344 5.04089
55.5847 5.02705
55.6352 5.0809
55.6856 5.00282
55.7361 4.92593