File: XRD/Ni3Fe_FD0024.xy
TT I
1.27165 34.2236
1.31627 34.1971
1.36089 31.8249
1.40551 29.687
1.45013 29.0238
1.49476 28.393
1.53938 27.2143
1.584 26.3044
1.62863 26.3969
1.67325 24.98
1.71787 24.9042
1.7625 23.6163
1.80712 24.0171
1.85174 23.5827
1.89636 22.919
1.94099 23.862
1.98562 23.2498
2.03025 23.1144
2.07487 24.0996
2.11949 24.6406
2.16411 24.9574
2.20874 26.2683
2.25338 26.1112
2.298 26.9972
2.34263 25.8393
2.38725 25.1441
2.43188 24.6005
2.4765 24.6323
2.52115 23.7667
2.56577 25.6348
2.6104 26.6088
2.65503 26.8745
2.69965 28.2705
2.7443 30.111
2.78893 32.1156
2.83356 34.9827
2.87818 38.2098
2.92281 42.6601
2.96744 48.8758
3.01209 56.655
3.05672 65.4395
3.10135 75.4828
3.14599 81.6362
3.19062 82.8276
3.23527 75.8903
3.2799 64.8804
3.32454 54.4874
3.36917 46.3278
3.4138 41.4265
3.45844 37.6763
3.50309 37.6144
3.54773 37.3273
3.59237 38.7489
3.637 41.0527
3.68164 41.6666
3.7263 41.3276
3.77094 39.5318
3.81558 37.2935
3.86022 36.7583
3.90486 37.2351
3.9495 37.8312
3.99416 38.7178
4.0388 41.8633
4.08344 44.9337
4.12809 50.9024
4.17273 58.6691
4.21738 69.9949
4.26204 81.9053
4.30669 89.1335
4.35133 85.6916
4.39598 75.3983
4.44063 66.5449
4.4853 61.0641
4.52995 56.1693
4.5746 50.6238
4.61925 48.2659
4.6639 45.9257
4.70855 46.2434
4.75322 47.5489
4.79788 49.1044
4.84253 52.3869
4.88719 56.5998
4.93184 62.3267
4.97652 71.1129
5.02118 85.764
5.06583 110.265
5.11049 134.505
5.15515 179.145
5.19981 273.755
5.24449 556.51
5.28916 1164.95
5.33382 3170.29
5.37848 3769.5
5.42315 1171.47
5.46783 368.625
5.5125 212.9
5.55716 155.947
5.60183 125.404
5.6465 112.153
5.69117 105.705
5.73586 100.175
5.78053 96.2118
5.8252 96.365
5.86988 101.54
5.91455 111.017
5.95924 128.903
6.00392 171.611
6.0486 270.001
6.09328 458.518
6.13795 816.292
6.18263 1308.61
6.22733 768.853
6.27201 312.588
6.3167 165.858
6.36138 109.388
6.40606 84.2149
6.45075 72.191
6.49545 64.2262
6.54014 58.7756
6.58483 56.1388
6.62952 55.7701
6.67421 56.41
6.71892 57.1676
6.76361 57.1266
6.8083 54.6886
6.853 51.6638
6.89769 49.2113
6.94239 46.7971
6.98711 45.0533
7.03181 44.0692
7.07651 44.7864
7.12121 45.6678
7.16591 47.4958
7.21063 51.5487
7.25533 56.9424
7.30004 67.636
7.34475 74.0145
7.38945 70.9301
7.43416 62.0705
7.47889 55.67
7.5236 56.6776
7.56831 95.6386
7.61303 152.589
7.65774 77.0879
7.70247 45.7736
7.74719 40.4518
7.79191 38.8432
7.83663 37.6379
7.88135 37.5266
7.92607 37.3028
7.97081 37.9693
8.01553 38.3801
8.06026 38.7774
8.10498 40.0083
8.14971 41.3773
8.19446 42.6673
8.23919 44.3376
8.28392 46.2709
8.32865 48.1272
8.37339 51.7849
8.41812 56.7058
8.46288 64.7161
8.50761 77.659
8.55235 103.677
8.59709 158.951
8.64183 216.68
8.68658 384.452
8.73134 752.424
8.77609 652.875
8.82083 279.292
8.86558 135.082
8.91033 94.3183
8.9551 77.4305
8.99985 69.7997
9.04461 64.2331
9.08936 60.9169
9.13412 58.7632
9.17888 59.5991
9.22365 67.2838
9.26841 122.59
9.31318 248.961
9.35794 153.062
9.4027 69.8012
9.44749 56.3716
9.49226 52.8851
9.53703 51.5755
9.5818 51.6633
9.62657 51.7138
9.67134 53.0768
9.71614 54.4337
9.76091 55.712
9.80569 57.4066
9.85047 60.4205
9.89525 64.7794
9.94005 70.3421
9.98484 80.389
10.0296 99.9885
10.0744 139.452
10.1192 181.622
10.164 244.914
10.2088 493.138
10.2536 822.433
10.2984 567.246
10.3432 247.966
10.388 130.864
10.4328 95.1622
10.4776 84.1012
10.5224 85.4433
10.5672 91.2879
10.612 100.859
10.6568 154.271
10.7017 271.837
10.7465 267.839
10.7913 145.288
10.8361 74.5187
10.8809 55.3886
10.9257 48.9168
10.9706 46.1545
11.0154 44.3177
11.0602 43.4348
11.105 42.8332
11.1499 42.2262
11.1947 42.1904
11.2395 41.7945
11.2844 41.6438
11.3292 40.8381
11.374 39.8226
11.4189 39.0035
11.4637 38.2167
11.5086 37.807
11.5534 37.3334
11.5983 37.5452
11.6431 37.673
11.688 37.2401
11.7328 37.0677
11.7777 36.787
11.8225 36.7036
11.8674 37.482
11.9122 39.2595
11.9571 45.7241
12.002 72.356
12.0468 90.4683
12.0917 61.5998
12.1366 46.9069
12.1814 46.9914
12.2263 49.2096
12.2712 55.3545
12.3161 71.3546
12.3609 94.7338
12.4058 91.4781
12.4507 65.4818
12.4956 51.2918
12.5405 44.7768
12.5853 42.0647
12.6302 40.8497
12.6751 40.7914
12.72 41.3743
12.7649 41.5004
12.8098 40.8648
12.8547 40.0258
12.8996 39.7427
12.9445 39.7469
12.9894 40.036
13.0343 40.8153
13.0792 42.6117
13.1242 46.3475
13.1691 56.8554
13.214 62.1079
13.2589 63.4135
13.3038 68.3156
13.3487 75.0074
13.3937 95.6271
13.4386 149.929
13.4835 222.142
13.5285 197.666
13.5734 125.319
13.6183 91.7247
13.6633 81.2653
13.7082 81.5695
13.7531 100.669
13.7981 159.858
13.843 213.995
13.888 160.444
13.9329 89.5028
13.9779 61.7501
14.0228 51.2393
14.0678 46.6067
14.1127 45.2215
14.1577 47.8276
14.2027 65.3694
14.2476 86.2761
14.2926 69.3275
14.3376 47.5291
14.3825 40.8824
14.4275 39.3829
14.4725 38.4897
14.5175 38.1947
14.5624 37.8701
14.6074 37.9178
14.6524 38.0452
14.6974 38.3033
14.7424 38.5916
14.7874 39.0426
14.8324 40.3811
14.8774 43.2925
14.9224 47.0878
14.9674 49.3059
15.0124 51.8916
15.0574 60.459
15.1024 81.8638
15.1474 119.042
15.1924 126.254
15.2374 90.7241
15.2824 62.3187
15.3274 49.0327
15.3725 43.7865
15.4175 41.2498
15.4625 39.6991
15.5076 38.9811
15.5526 38.5106
15.5976 38.5866
15.6426 38.1396
15.6877 38.5043
15.7327 39.3347
15.7778 41.1919
15.8228 44.625
15.8679 47.0694
15.9129 48.5053
15.958 54.1015
16.003 67.4728
16.0481 97.6401
16.0931 126.31
16.1382 116.134
16.1833 84.3249
16.2283 57.9356
16.2734 44.839
16.3185 39.6198
16.3636 37.0813
16.4086 35.401
16.4537 34.6338
16.4988 33.8629
16.5439 33.2972
16.589 32.6674
16.6341 32.2347
16.6792 31.8575
16.7243 31.862
16.7694 31.8174
16.8145 31.5788
16.8596 31.8703
16.9047 32.1437
16.9498 32.9598
16.9949 35.9595
17.04 39.6028
17.0851 38.4268
17.1302 34.695
17.1754 33.4291
17.2205 33.712
17.2656 33.9989
17.3108 34.5593
17.3559 34.8483
17.401 36.5369
17.4462 40.2461
17.4913 47.2415
17.5365 51.8543
17.5815 47.4124
17.6268 40.2613
17.6718 36.4163
17.7171 35.2262
17.7622 35.2403
17.8074 36.4971
17.8525 39.8883
17.8977 42.1216
17.9428 40.0716
17.9881 39.1203
18.0331 40.9316
18.0784 42.0192
18.1237 43.0296
18.1688 45.2942
18.214 51.4561
18.2591 65.0913
18.3044 89.992
18.3495 102.58
18.3948 85.1693
18.4399 63.9963
18.4852 55.9564
18.5303 59.8748
18.5756 70.5261
18.6207 74.8725
18.666 64.1091
18.7112 51.0817
18.7565 42.2124
18.8016 38.3683
18.8469 36.1114
18.892 35.2172
18.9374 34.2655
18.9825 33.9837
19.0278 33.6201
19.073 33.3115
19.1183 33.2817
19.1635 33.1978
19.2088 33.683
19.254 34.2832
19.2993 35.0827
19.3447 36.3131
19.3898 39.6364
19.4352 45.4129
19.4804 47.5376
19.5257 45.2755
19.5709 46.9291
19.6163 49.4772
19.6615 46.1721
19.7068 39.7648
19.752 35.6481
19.7974 33.5325
19.8426 32.6698
19.888 32.0111
19.9332 31.8379
19.9786 32.0818
20.0238 32.3716
20.0692 32.3551
20.1144 32.3457
20.1598 33.2386
20.205 34.6824
20.2504 37.7496
20.2957 42.7543
20.3411 46.7286
20.3863 45.7073
20.4318 41.0052
20.477 38.8725
20.5224 40.913
20.5677 44.4402
20.6131 43.8387
20.6586 38.6333
20.7038 34.1521
20.7493 32.033
20.7945 31.2537
20.84 31.8208
20.8853 33.2101
20.9307 33.5711
20.976 31.6546
21.0215 29.6885
21.0668 29.0787
21.1122 28.8639
21.1575 28.8116
21.203 28.6869
21.2483 28.66
21.2938 28.8039
21.3391 28.6915
21.3846 29.2029
21.4299 30.0344
21.4754 31.6827
21.5207 32.5983
21.5662 32.0131
21.6116 30.7584
21.6571 29.9614
21.7024 29.5573
21.7479 29.5783
21.7933 30.1396
21.8388 30.5537
21.8843 30.8862
21.9297 31.0836
21.9752 31.9996
22.0206 33.898
22.0661 36.1128
22.1115 40.9097
22.157 46.4043
22.2024 48.7109
22.248 45.6254
22.2933 42.1654
22.3389 40.1796
22.3843 39.6007
22.4299 38.0846
22.4753 35.3446
22.5208 32.5722
22.5662 31.1336
22.6118 30.4345
22.6572 30.0621
22.7028 29.8614
22.7483 29.7198
22.7939 29.777
22.8393 30.4471
22.8849 31.4235
22.9303 31.9695
22.9759 31.7756
23.0214 31.1614
23.067 31.5425
23.1126 32.4748
23.1581 34.7977
23.2037 39.0054
23.2492 42.5452
23.2948 41.1747
23.3403 36.8557
23.3859 33.5682
23.4314 32.3028
23.477 32.5188
23.5225 33.3699
23.5682 34.261
23.6137 33.639
23.6593 32.5629
23.7048 32.6429
23.7505 34.2098
23.796 37.1641
23.8417 42.1357
23.8872 44.1418
23.9329 41.0106
23.9784 35.5219
24.0241 31.8355
24.0697 30.0649
24.1154 29.2879
24.1609 28.8866
24.2066 28.5634
24.2522 28.1043
24.2979 27.3592
24.3434 27.0369
24.3892 26.8225
24.4349 26.7503
24.4805 26.572
24.5262 26.4846
24.5718 26.2531
24.6175 26.2945
24.6631 26.4746
24.7089 26.6489
24.7545 27.3496
24.8002 27.7137
24.8458 27.637
24.8916 27.0332
24.9372 26.5429
24.983 26.3725
25.0286 26.1614
25.0744 26.1532
25.12 25.9382
25.1658 26.1461
25.2114 26.2719
25.2572 26.5793
25.3029 26.9854
25.3487 27.791
25.3943 28.713
25.4402 29.6102
25.4858 30.2806
25.5316 30.0619
25.5773 30.2757
25.6231 31.5487
25.669 31.9517
25.7147 30.6522
25.7605 28.6578
25.8062 27.1452
25.8521 26.5105
25.8977 26.4751
25.9436 26.7096
25.9893 26.5448
26.0352 26.2045
26.0809 25.7047
26.1268 25.5201
26.1725 25.5632
26.2184 25.677
26.2641 25.932
26.31 26.6007
26.3557 27.5758
26.4017 28.3538
26.4474 28.4781
26.4933 27.7249
26.5391 26.8266
26.585 26.2706
26.6308 25.9809
26.6767 25.8061
26.7225 25.9155
26.7684 26.1078
26.8142 26.5393
26.8601 27.3742
26.9059 28.7609
26.9519 30.0268
26.9979 30.5238
27.0437 30.0985
27.0896 29.5452
27.1354 28.9432
27.1814 28.057
27.2272 26.7237
27.2732 25.8878
27.3191 25.1883
27.3651 24.9951
27.4109 24.6814
27.4569 24.6367
27.5027 24.5576
27.5488 24.5509
27.5946 24.5662
27.6407 24.6273
27.6865 24.6801
27.7326 24.65
27.7784 24.9845
27.8245 25.2101
27.8703 25.6201
27.9164 25.5736
27.9623 25.186
28.0084 24.8222
28.0543 24.9037
28.1003 25.0861
28.1462 25.6174
28.1923 25.8014
28.2384 25.7814
28.2843 26.0843
28.3304 27.009
28.3764 27.9915
28.4225 28.477
28.4684 27.8704
28.5145 27.0209
28.5605 26.8045
28.6066 26.1905
28.6526 25.5573
28.6987 24.813
28.7447 24.1565
28.7908 23.6355
28.8368 23.2549
28.8829 22.9946
28.9289 22.8659
28.9751 22.6697
29.0211 22.5271
29.0673 22.6433
29.1133 22.748
29.1595 22.8044
29.2055 23.1526
29.2517 23.3361
29.2977 23.2274
29.3439 22.7193
29.3899 22.4952
29.4361 22.1485
29.4824 21.9205
29.5284 22.0884
29.5746 21.9581
29.6207 21.9283
29.6669 22.2202
29.713 22.5947
29.7593 22.6497
29.8053 22.6873
29.8516 22.1519
29.8977 21.7119
29.9439 21.3942
29.99 21.427
30.0363 21.1734
30.0824 21.205
30.1287 21.2015
30.1748 21.2802
30.2211 21.4556
30.2673 21.3631
30.3136 21.2284
30.3597 21.0727
30.406 21.049
30.4522 21.0603
30.4985 21.1023
30.5447 21.4446
30.591 21.4802
30.6372 21.4941
30.6835 21.2727
30.7297 21.1047
30.7761 21.0409
30.8224 21.0688
30.8686 21.1382
30.915 21.2534
30.9612 21.4806
31.0076 22.0124
31.0538 22.4519
31.1002 22.7665
31.1464 22.4991
31.1928 22.292
31.2391 22.005
31.2855 21.581
31.3317 21.2242
31.3781 20.8775
31.4244 20.7382
31.4708 20.5083
31.5171 20.4268
31.5636 20.4747
31.6098 20.5297
31.6563 20.4995
31.7026 20.6949
31.7491 20.7866
31.7953 21.1531
31.8418 21.3068
31.8881 21.3453
31.9346 21.1449
31.9809 20.7525
32.0275 20.436
32.074 20.2404
32.1203 20.2828
32.1668 20.253
32.2132 20.4534
32.2597 20.5241
32.306 20.8254
32.3526 20.8173
32.399 20.7644
32.4455 20.4453
32.4919 20.1243
32.5385 19.9235
32.5848 19.6635
32.6314 19.4836
32.6778 19.3174
32.7244 19.1182
32.7708 19.0157
32.8174 18.873
32.8638 18.7806
32.9104 18.7793
32.9569 18.8003
33.0035 18.7081
33.0499 18.8652
33.0966 18.7855
33.143 18.8478
33.1897 18.6891
33.2361 18.5279
33.2828 18.4226
33.3293 18.4115
33.3759 18.4354
33.4226 18.4547
33.4691 18.6127
33.5158 18.8294
33.5623 18.9318
33.609 18.8852
33.6555 18.9324
33.7022 18.8936
33.7487 18.7406
33.7954 18.4979
33.842 18.1452
33.8887 17.9411
33.9353 17.8278
33.982 17.782
34.0286 17.699
34.0753 17.6892
34.1219 17.5883
34.1687 17.5946
34.2152 17.6265
34.262 17.5974
34.3086 17.6152
34.3554 17.4798
34.402 17.3639
34.4488 17.2493
34.4954 17.1734
34.5422 17.0597
34.5889 17.0534
34.6357 16.998
34.6825 17.0416
34.7292 17.0277
34.776 17.0371
34.8227 16.9351
34.8695 16.8174
34.9162 16.6749
34.9631 16.5329
35.0098 16.5586
35.0566 16.3751
35.1033 16.4013
35.1502 16.3663
35.1969 16.3726
35.2438 16.3294
35.2906 16.3311
35.3375 16.3608
35.3842 16.2647
35.4311 16.1946
35.4779 16.3188
35.5248 16.2068
35.5716 16.1525
35.6185 16.2783
35.6653 16.2425
35.7123 16.3589
35.759 16.4722
35.806 16.4844
35.8528 16.6479
35.8998 16.6947
35.9468 16.5511
35.9936 16.4409
36.0406 16.2917
36.0874 16.1419
36.1345 15.9673
36.1813 15.847
36.2283 15.7362
36.2752 15.6428
36.3222 15.6088
36.3691 15.5944
36.4161 15.561
36.463 15.5814
36.5101 15.5728
36.557 15.6017
36.6041 15.5147
36.651 15.5446
36.6981 15.4537
36.745 15.3321
36.7921 15.2758
36.839 15.2042
36.8861 15.2084
36.9331 15.189
36.9802 15.2824
37.0272 15.2406
37.0743 15.1841
37.1213 15.0805
37.1684 15.0474
37.2154 14.9069
37.2626 14.7602
37.3098 14.7116
37.3568 14.692
37.404 14.6366
37.451 14.5338
37.4982 14.5004
37.5452 14.4169
37.5924 14.3555
37.6395 14.3735
37.6867 14.38
37.7337 14.3096
37.781 14.188
37.8281 14.1581
37.8753 14.1169
37.9224 14.0544
37.9697 14.0508
38.0168 13.9812
38.064 13.9945
38.1111 14.0772
38.1584 14.0212
38.2056 13.8894
38.2529 13.8312
38.3 13.7629
38.3473 13.7026
38.3945 13.5796
38.4418 13.6381
38.489 13.5837
38.5363 13.4722
38.5837 13.472
38.6309 13.4908
38.6782 13.4795
38.7254 13.4156
38.7728 13.4367
38.82 13.3039
38.8674 13.3033
38.9146 13.2492
38.9621 13.1858
39.0093 13.1992
39.0567 13.1514
39.104 13.1524
39.1514 13.1173
39.1987 13.1326
39.2461 13.0703
39.2934 12.9468
39.3409 12.864
39.3882 12.8082
39.4356 12.7362
39.483 12.7515
39.5304 12.7234
39.5778 12.5895
39.6253 12.6135
39.6726 12.5918
39.7201 12.5443
39.7675 12.4954
39.815 12.498
39.8624 12.4419
39.9099 12.3626
39.9575 12.3619
40.0049 12.3512
40.0525 12.2914
40.0999 12.2943
40.1474 12.2991
40.1949 12.2695
40.2425 12.2577
40.2899 12.2191
40.3375 12.182
40.385 12.1194
40.4326 12.1003
40.48 11.9997
40.5277 11.997
40.5752 11.9306
40.6228 11.8842
40.6703 11.9327
40.718 11.8303
40.7655 11.8431
40.8132 11.8166
40.8607 11.7535
40.9084 11.7336
40.9559 11.7364
41.0036 11.6613
41.0512 11.6448
41.0989 11.6294
41.1465 11.6305
41.1942 11.6122
41.242 11.5463
41.2896 11.5277
41.3373 11.43
41.3849 11.3856
41.4327 11.3977
41.4803 11.2113
41.5281 11.2276
41.5758 11.2022
41.6236 11.1635
41.6712 11.0891
41.7191 11.0773
41.7667 11.0722
41.8146 11.0797
41.8622 10.9958
41.9101 11.0128
41.9578 10.942
42.0057 10.9348
42.0534 10.8608
42.1013 10.8947
42.149 10.8374
42.1969 10.8681
42.2446 10.7882
42.2925 10.7783
42.3403 10.7339
42.3882 10.6833
42.436 10.6122
42.4839 10.5485
42.5319 10.5087
42.5797 10.4669
42.6277 10.4169
42.6755 10.4022
42.7235 10.3862
42.7713 10.36
42.8193 10.3244
42.8671 10.2985
42.9152 10.2386
42.963 10.2406
43.0111 10.1559
43.0589 10.131
43.107 10.069
43.1549 10.0603
43.2029 10.0254
43.2508 9.99369
43.2989 9.94225
43.3468 9.90295
43.3949 9.89727
43.4429 9.83824
43.491 9.80374
43.5389 9.81346
43.5871 9.76143
43.635 9.7098
43.6832 9.68681
43.7312 9.65177
43.7793 9.57787
43.8273 9.61682
43.8755 9.5221
43.9237 9.57795
43.9717 9.54246
44.0199 9.43283
44.068 9.46347
44.1162 9.42093
44.1642 9.42573
44.2125 9.41816
44.2606 9.37222
44.3088 9.29683
44.3569 9.24299
44.4052 9.21358
44.4533 9.23153
44.5016 9.19478
44.5497 9.14379
44.598 9.15293
44.6461 9.08158
44.6945 9.08505
44.7426 9.05246
44.791 9.00973
44.8391 8.98674
44.8875 8.94507
44.9357 8.9381
44.984 8.87777
45.0322 8.87563
45.0806 8.85242
45.1288 8.82425
45.1773 8.78727
45.2257 8.7764
45.2739 8.69574
45.3224 8.6917
45.3706 8.69819
45.4191 8.63147
45.4673 8.61956
45.5158 8.59029
45.5641 8.48742
45.6126 8.51391
45.6609 8.49767
45.7094 8.52138
45.7577 8.45334
45.8063 8.38682
45.8546 8.36607
45.9031 8.33451
45.9515 8.31227
46.0001 8.26491
46.0484 8.26075
46.097 8.27294
46.1454 8.24769
46.194 8.14071
46.2424 8.1505
46.291 8.08834
46.3395 8.067
46.3881 8.08338
46.4365 8.0278
46.4852 8.00828
46.5337 7.96174
46.5823 7.94477
46.631 7.91126
46.6795 7.88886
46.7282 7.92434
46.7767 7.84767
46.8254 7.81935
46.8739 7.80206
46.9226 7.74548
46.9712 7.73707
47.0199 7.69816
47.0685 7.68003
47.1173 7.61008
47.1658 7.61218
47.2146 7.61286
47.2632 7.51472
47.312 7.51726
47.3606 7.50657
47.4095 7.4592
47.4581 7.45312
47.5069 7.40606
47.5556 7.41064
47.6044 7.35523
47.6531 7.33898
47.702 7.31076
47.7507 7.27655
47.7996 7.24918
47.8483 7.27729
47.8972 7.2187
47.9461 7.19849
47.9948 7.19754
48.0438 7.1307
48.0925 7.11996
48.1415 7.08621
48.1902 7.01346
48.2392 7.0327
48.288 7.02411
48.337 6.98554
48.3858 6.98123
48.4348 6.94982
48.4837 6.9404
48.5327 6.91921
48.5815 6.86841
48.6306 6.85021
48.6795 6.82765
48.7285 6.80758
48.7774 6.74305
48.8265 6.73321
48.8754 6.71639
48.9245 6.722
48.9734 6.66537
49.0226 6.68436
49.0715 6.61374
49.1206 6.61246
49.1696 6.56433
49.2188 6.54843
49.2679 6.52514
49.3169 6.5028
49.3661 6.46736
49.4151 6.46435
49.4643 6.44016
49.5134 6.40107
49.5626 6.34359
49.6117 6.37454
49.6609 6.34975
49.71 6.31318
49.7592 6.30578
49.8083 6.27097
49.8576 6.28603
49.9067 6.22883
49.956 6.23108
50.0052 6.18105
50.0545 6.19317
50.1036 6.1369
50.153 6.12891
50.2022 6.10908
50.2515 6.07833
50.3007 6.03795
50.3501 6.03421
50.3993 6.04051
50.4487 5.98132
50.498 5.94772
50.5474 5.94899
50.5966 5.9387
50.6461 5.92969
50.6955 5.92415
50.7448 5.89573
50.7943 5.83585
50.8436 5.82858
50.8931 5.79793
50.9424 5.7758
50.9919 5.80029
51.0413 5.74591
51.0908 5.71558
51.1402 5.67997
51.1897 5.68068
51.2391 5.67613
51.2887 5.64653
51.3381 5.60666
51.3877 5.58142
51.4371 5.59362
51.4867 5.52727
51.5362 5.53565
51.5858 5.46971
51.6353 5.48813
51.6849 5.45347
51.7344 5.40089
51.7841 5.40938
51.8336 5.38876
51.8833 5.36814
51.9328 5.35303
51.9826 5.30975
52.0323 5.27845
52.0818 5.27714
52.1316 5.27471
52.1812 5.21983
52.231 5.25216
52.2806 5.19013
52.3304 5.21171
52.38 5.155
52.4298 5.13238
52.4794 5.12602
52.5293 5.08908
52.5789 5.1193
52.6288 5.09094
52.6785 5.0215
52.7284 5.03618
52.7781 5.01909
52.828 4.98848
52.8777 4.97569
52.9276 4.96868
52.9774 4.95242
53.0273 4.93842
53.0771 4.89603
53.1271 4.89491
53.1769 4.87321
53.2269 4.85326
53.2767 4.80595
53.3267 4.78739
53.3765 4.77101
53.4266 4.74144
53.4766 4.74378
53.5265 4.69239
53.5765 4.71365
53.6264 4.66504
53.6765 4.65788
53.7264 4.61319
53.7765 4.59264
53.8265 4.58263
53.8766 4.54986
53.9266 4.54929
53.9767 4.52113
54.0267 4.51533
54.0769 4.45965
54.1269 4.44379
54.1771 4.42514
54.2271 4.40596
54.2773 4.34758
54.3274 4.33282
54.3776 4.29142
54.4277 4.28355
54.478 4.28792
54.528 4.23592
54.5783 4.13321
54.6285 4.15628
54.6788 4.1033
54.7289 4.13589
54.7792 4.05201
54.8296 4.00523
54.8798 3.99173
54.9301 3.97277
54.9803 3.94377
55.0307 3.94812
55.0809 3.8803
55.1314 3.86995
55.1816 3.83738
55.232 3.78736
55.2823 3.76138
55.3328 3.70849
55.383 3.6939
55.4335 3.64379
55.4838 3.62035
55.5344 3.57568
55.5847 3.51885
55.6352 3.52966
55.6856 3.53085
55.7361 3.54798