File: XRD/Ni3Fe_FD0863.xy
TT I
1.27165 7.19661
1.31627 6.98397
1.36089 6.764
1.40551 6.35018
1.45013 6.41957
1.49476 6.21188
1.53938 5.98228
1.584 5.27124
1.62863 5.36868
1.67325 5.47325
1.71787 5.30777
1.7625 5.12554
1.80712 5.19072
1.85174 4.74854
1.89636 4.73969
1.94099 5.12295
1.98562 5.17423
2.03025 4.48876
2.07487 4.51216
2.11949 5.23097
2.16411 4.67554
2.20874 15.1413
2.25338 24.7571
2.298 6.15731
2.34263 6.05253
2.38725 5.89408
2.43188 6.62433
2.4765 7.34675
2.52115 8.01588
2.56577 8.33746
2.6104 8.17302
2.65503 7.98928
2.69965 7.97622
2.7443 8.51981
2.78893 8.33657
2.83356 8.7038
2.87818 8.88233
2.92281 9.26409
2.96744 9.74072
3.01209 10.5263
3.05672 11.5451
3.10135 12.6889
3.14599 12.9232
3.19062 14.4083
3.23527 14.9928
3.2799 16.0609
3.32454 17.3138
3.36917 17.5221
3.4138 19.2717
3.45844 19.711
3.50309 20.9634
3.54773 21.6099
3.59237 23.6792
3.637 96.2571
3.68164 61.2361
3.7263 25.9955
3.77094 26.1897
3.81558 27.0023
3.86022 27.613
3.90486 28.8261
3.9495 29.8812
3.99416 30.5381
4.0388 31.7905
4.08344 33.771
4.12809 34.7243
4.17273 36.5752
4.21738 42.8972
4.26204 258.725
4.30669 229.828
4.35133 48.9524
4.39598 44.4862
4.44063 54.0592
4.4853 66.6626
4.52995 49.5739
4.5746 50.8206
4.61925 53.0651
4.6639 54.2608
4.70855 57.4977
4.75322 60.1732
4.79788 63.1035
4.84253 65.8886
4.88719 69.8296
4.93184 73.8322
4.97652 78.7607
5.02118 85.2065
5.06583 91.9854
5.11049 102.321
5.15515 168.824
5.19981 294.405
5.24449 2439.37
5.28916 12556.0
5.33382 2803.58
5.37848 177.42
5.42315 125.548
5.46783 111.022
5.5125 104.605
5.55716 100.494
5.60183 96.7535
5.6465 95.1298
5.69117 92.7417
5.73586 90.0753
5.78053 89.7519
5.8252 88.8506
5.86988 89.6407
5.91455 90.9244
5.95924 96.8867
6.00392 173.766
6.0486 827.48
6.09328 4383.87
6.13795 3236.79
6.18263 222.187
6.22733 90.7909
6.27201 81.843
6.3167 102.465
6.36138 79.8838
6.40606 68.6174
6.45075 66.7178
6.49545 64.5899
6.54014 63.1625
6.58483 62.1318
6.62952 62.1554
6.67421 94.7715
6.71892 147.188
6.76361 68.8809
6.8083 58.0616
6.853 56.9577
6.89769 56.7092
6.94239 56.0211
6.98711 55.2385
7.03181 55.1005
7.07651 54.9221
7.12121 54.6547
7.16591 54.7
7.21063 55.1128
7.25533 71.1491
7.30004 181.422
7.34475 93.0138
7.38945 56.1874
7.43416 54.173
7.47889 53.759
7.5236 54.0757
7.56831 54.9368
7.61303 56.473
7.65774 57.1644
7.70247 55.4401
7.74719 55.7268
7.79191 55.8447
7.83663 56.536
7.88135 57.1109
7.92607 58.3924
7.97081 59.4292
8.01553 59.858
8.06026 61.5332
8.10498 63.1247
8.14971 72.714
8.19446 71.9359
8.23919 68.4838
8.28392 70.9646
8.32865 72.7188
8.37339 76.8252
8.41812 83.4245
8.46288 112.462
8.50761 145.487
8.55235 336.126
8.59709 1140.36
8.64183 2229.52
8.68658 950.831
8.73134 171.642
8.77609 97.3457
8.82083 91.0877
8.86558 88.5435
8.91033 89.1259
8.9551 91.1157
8.99985 84.4013
9.04461 82.6669
9.08936 81.4595
9.13412 80.5955
9.17888 81.254
9.22365 81.6054
9.26841 81.0121
9.31318 81.4267
9.35794 81.5852
9.4027 81.7716
9.44749 82.7941
9.49226 83.4277
9.53703 84.3117
9.5818 85.9673
9.62657 90.9215
9.67134 97.6644
9.71614 92.3475
9.76091 92.4292
9.80569 94.6528
9.85047 98.0973
9.89525 122.448
9.94005 134.268
9.98484 157.471
10.0296 302.894
10.0744 765.426
10.1192 1769.89
10.164 1587.15
10.2088 401.722
10.2536 124.348
10.2984 111.571
10.3432 114.034
10.388 102.882
10.4328 112.254
10.4776 147.502
10.5224 267.925
10.5672 519.971
10.612 500.774
10.6568 201.626
10.7017 95.7403
10.7465 85.252
10.7913 81.9354
10.8361 80.1092
10.8809 77.9456
10.9257 77.6315
10.9706 78.2399
11.0154 74.1508
11.0602 71.6956
11.105 70.9262
11.1499 75.8479
11.1947 83.4147
11.2395 74.327
11.2844 69.7159
11.3292 66.2215
11.374 65.3529
11.4189 64.6099
11.4637 64.1504
11.5086 64.9329
11.5534 67.7175
11.5983 65.1033
11.6431 62.6443
11.688 62.0867
11.7328 61.8139
11.7777 62.1817
11.8225 61.7318
11.8674 61.5453
11.9122 61.9178
11.9571 61.7737
12.002 62.3727
12.0468 65.5144
12.0917 75.4943
12.1366 98.5723
12.1814 151.498
12.2263 205.914
12.2712 167.961
12.3161 96.711
12.3609 70.1769
12.4058 63.7223
12.4507 63.3387
12.4956 63.4264
12.5405 63.6652
12.5853 64.6427
12.6302 72.7766
12.6751 78.4616
12.72 69.4031
12.7649 67.1154
12.8098 67.5492
12.8547 68.5602
12.8996 69.737
12.9445 71.1842
12.9894 72.8181
13.0343 74.7026
13.0792 78.2842
13.1242 84.5254
13.1691 104.969
13.214 139.14
13.2589 228.845
13.3038 369.855
13.3487 421.401
13.3937 258.884
13.4386 123.038
13.4835 100.774
13.5285 113.473
13.5734 150.669
13.6183 244.604
13.6633 354.167
13.7082 339.031
13.7531 182.74
13.7981 95.6363
13.843 80.5737
13.888 78.5852
13.9329 75.8831
13.9779 74.8526
14.0228 73.1489
14.0678 71.9801
14.1127 71.693
14.1577 71.3016
14.2027 70.571
14.2476 69.524
14.2926 69.8527
14.3376 70.8615
14.3825 69.3496
14.4275 67.8607
14.4725 67.6103
14.5175 67.6652
14.5624 67.9427
14.6074 70.2329
14.6524 70.8735
14.6974 69.2982
14.7424 70.2455
14.7874 75.6264
14.8324 84.5168
14.8774 105.381
14.9224 150.997
14.9674 210.142
15.0124 217.52
15.0574 145.983
15.1024 89.3363
15.1474 71.3917
15.1924 69.5412
15.2374 70.492
15.2824 69.7092
15.3274 67.2422
15.3725 65.821
15.4175 65.4419
15.4625 65.0676
15.5076 65.514
15.5526 65.4512
15.5976 64.6606
15.6426 65.155
15.6877 69.7108
15.7327 76.0907
15.7778 90.6979
15.8228 123.203
15.8679 170.909
15.9129 195.218
15.958 155.401
16.003 93.5991
16.0481 67.1776
16.0931 63.9155
16.1382 61.9953
16.1833 59.8859
16.2283 58.3293
16.2734 57.6332
16.3185 57.9274
16.3636 58.8079
16.4086 57.0588
16.4537 55.6596
16.4988 54.8194
16.5439 54.743
16.589 54.3306
16.6341 54.1245
16.6792 53.8493
16.7243 54.0644
16.7694 54.1957
16.8145 53.9837
16.8596 54.6295
16.9047 56.0373
16.9498 56.3931
16.9949 54.989
17.04 54.7713
17.0851 55.7513
17.1302 57.2882
17.1754 60.4019
17.2205 65.4899
17.2656 73.3575
17.3108 83.5463
17.3559 81.9275
17.401 70.2724
17.4462 60.8363
17.4913 58.2198
17.5365 58.0804
17.5815 58.2572
17.6268 58.6789
17.6718 59.5468
17.7171 60.2706
17.7622 60.1957
17.8074 60.8614
17.8525 62.5673
17.8977 66.259
17.9428 71.2053
17.9881 79.6811
18.0331 97.4901
18.0784 121.579
18.1237 138.395
18.1688 128.052
18.214 100.632
18.2591 84.611
18.3044 89.6944
18.3495 100.485
18.3948 104.933
18.4399 94.5141
18.4852 76.6541
18.5303 65.0845
18.5756 61.4748
18.6207 60.4757
18.666 59.8376
18.7112 58.8772
18.7565 58.2178
18.8016 57.8335
18.8469 57.2416
18.892 56.9723
18.9374 56.5641
18.9825 56.1413
19.0278 56.1203
19.073 56.1797
19.1183 56.4719
19.1635 57.0798
19.2088 58.3505
19.254 60.7458
19.2993 65.7781
19.3447 72.1554
19.3898 76.1663
19.4352 71.0671
19.4804 62.3019
19.5257 56.1018
19.5709 53.4136
19.6163 53.1293
19.6615 52.7718
19.7068 52.551
19.752 52.6203
19.7974 52.7504
19.8426 53.4116
19.888 53.9657
19.9332 55.2469
19.9786 57.8937
20.0238 61.3819
20.0692 66.7122
20.1144 68.8594
20.1598 67.1581
20.205 62.247
20.2504 61.4648
20.2957 63.7286
20.3411 65.3127
20.3863 63.4555
20.4318 57.8233
20.477 53.0118
20.5224 51.108
20.5677 50.1974
20.6131 49.6029
20.6586 49.0136
20.7038 48.8686
20.7493 48.4703
20.7945 48.3154
20.84 48.1637
20.8853 48.0708
20.9307 47.89
20.976 47.9995
21.0215 47.8785
21.0668 48.1944
21.1122 48.7314
21.1575 49.2276
21.203 50.4487
21.2483 50.8312
21.2938 50.7185
21.3391 49.2681
21.3846 48.4203
21.4299 47.702
21.4754 47.7227
21.5207 47.7752
21.5662 48.0928
21.6116 48.2606
21.6571 48.9556
21.7024 49.9092
21.7479 51.6552
21.7933 54.3906
21.8388 58.2155
21.8843 62.2159
21.9297 63.7271
21.9752 62.1931
22.0206 58.4939
22.0661 56.0986
22.1115 55.5753
22.157 55.3031
22.2024 53.4326
22.248 50.7724
22.2933 49.188
22.3389 48.4931
22.3843 48.3455
22.4299 48.448
22.4753 48.2844
22.5208 48.0253
22.5662 47.7239
22.6118 48.0618
22.6572 48.1248
22.7028 48.3995
22.7483 48.8661
22.7939 49.6197
22.8393 51.1047
22.8849 53.3517
22.9303 55.5609
22.9759 57.4507
23.0214 56.6736
23.067 53.6973
23.1126 50.4186
23.1581 48.4627
23.2037 48.2331
23.2492 48.2457
23.2948 47.9602
23.3403 48.2007
23.3859 48.7881
23.4314 49.8144
23.477 51.7887
23.5225 54.3378
23.5682 56.5734
23.6137 57.2026
23.6593 54.8513
23.7048 50.7991
23.7505 47.5256
23.796 45.9651
23.8417 45.4032
23.8872 45.0573
23.9329 44.5417
23.9784 44.3169
24.0241 44.0471
24.0697 43.9256
24.1154 43.5807
24.1609 43.4338
24.2066 43.1408
24.2522 43.1989
24.2979 42.9521
24.3434 42.7362
24.3892 42.529
24.4349 42.6479
24.4805 42.39
24.5262 42.6179
24.5718 42.478
24.6175 42.3808
24.6631 42.3262
24.7089 41.9019
24.7545 41.7903
24.8002 41.6304
24.8458 41.6285
24.8916 41.564
24.9372 41.7383
24.983 41.7761
25.0286 42.2016
25.0744 42.7219
25.12 43.1708
25.1658 43.6744
25.2114 44.0364
25.2572 44.2431
25.3029 44.2833
25.3487 44.4176
25.3943 43.9916
25.4402 42.8573
25.4858 41.9064
25.5316 40.9963
25.5773 40.2972
25.6231 40.3914
25.669 40.0118
25.7147 40.072
25.7605 39.9536
25.8062 39.9838
25.8521 40.0684
25.8977 39.9781
25.9436 40.3306
25.9893 40.4169
26.0352 41.0437
26.0809 41.1186
26.1268 41.1758
26.1725 40.7625
26.2184 40.2615
26.2641 39.8292
26.31 39.4958
26.3557 39.4839
26.4017 39.49
26.4474 39.8156
26.4933 40.1613
26.5391 40.5702
26.585 41.2673
26.6308 41.4603
26.6767 41.5717
26.7225 41.3428
26.7684 40.8954
26.8142 40.3428
26.8601 39.9126
26.9059 39.4323
26.9519 38.9837
26.9979 38.7127
27.0437 38.3294
27.0896 38.2703
27.1354 38.1024
27.1814 38.0927
27.2272 37.9427
27.2732 38.0156
27.3191 37.8007
27.3651 37.9512
27.4109 37.9892
27.4569 37.9332
27.5027 38.0609
27.5488 38.0482
27.5946 37.888
27.6407 37.6806
27.6865 37.4949
27.7326 37.3495
27.7784 37.328
27.8245 37.2258
27.8703 37.3658
27.9164 37.8401
27.9623 37.8711
28.0084 38.1259
28.0543 38.7349
28.1003 38.4918
28.1462 38.3991
28.1923 37.9506
28.2384 37.4487
28.2843 37.1107
28.3304 36.5776
28.3764 36.2222
28.4225 35.9992
28.4684 35.7172
28.5145 35.6653
28.5605 35.3809
28.6066 35.1984
28.6526 35.1872
28.6987 35.1601
28.7447 35.0517
28.7908 34.8989
28.8368 34.9599
28.8829 35.0289
28.9289 34.9412
28.9751 34.7246
29.0211 34.325
29.0673 34.1861
29.1133 34.1929
29.1595 33.9867
29.2055 33.9114
29.2517 33.8982
29.2977 33.8894
29.3439 33.8552
29.3899 33.7953
29.4361 33.6622
29.4824 33.5488
29.5284 33.3821
29.5746 32.9212
29.6207 32.7055
29.6669 32.6299
29.713 32.5502
29.7593 32.5277
29.8053 32.4972
29.8516 32.3642
29.8977 32.2181
29.9439 32.2622
29.99 32.132
30.0363 32.0943
30.0824 32.0812
30.1287 32.0
30.1748 32.0527
30.2211 32.0121
30.2673 31.9116
30.3136 31.8346
30.3597 31.7314
30.406 31.7997
30.4522 31.7894
30.4985 31.659
30.5447 31.7127
30.591 31.6906
30.6372 31.8599
30.6835 31.7387
30.7297 31.7067
30.7761 31.6691
30.8224 31.546
30.8686 31.46
30.915 31.2222
30.9612 31.0645
31.0076 30.891
31.0538 30.7089
31.1002 30.7267
31.1464 30.5628
31.1928 30.5741
31.2391 30.6422
31.2855 30.43
31.3317 30.5033
31.3781 30.5884
31.4244 30.4665
31.4708 30.4004
31.5171 30.4298
31.5636 30.44
31.6098 30.2011
31.6563 30.0461
31.7026 29.8446
31.7491 29.7704
31.7953 29.8645
31.8418 29.8493
31.8881 29.8398
31.9346 29.7599
31.9809 29.6289
32.0275 29.519
32.074 29.4249
32.1203 29.3274
32.1668 29.0879
32.2132 29.0278
32.2597 28.9638
32.306 28.7547
32.3526 28.5922
32.399 28.6843
32.4455 28.3844
32.4919 28.3542
32.5385 28.3036
32.5848 28.0673
32.6314 28.1386
32.6778 28.0391
32.7244 27.8676
32.7708 27.7503
32.8174 27.7403
32.8638 27.6212
32.9104 27.7889
32.9569 27.6075
33.0035 27.4952
33.0499 27.5139
33.0966 27.3828
33.143 27.3989
33.1897 27.3536
33.2361 27.261
33.2828 27.3348
33.3293 27.1012
33.3759 26.9391
33.4226 26.8929
33.4691 26.8053
33.5158 26.6873
33.5623 26.5936
33.609 26.3281
33.6555 26.297
33.7022 26.2657
33.7487 26.1321
33.7954 26.2095
33.842 26.0438
33.8887 25.9813
33.9353 25.9803
33.982 25.8467
34.0286 25.7164
34.0753 25.6832
34.1219 25.5823
34.1687 25.5306
34.2152 25.5073
34.262 25.3544
34.3086 25.2565
34.3554 25.2339
34.402 25.0445
34.4488 25.0127
34.4954 24.9262
34.5422 24.8516
34.5889 24.7353
34.6357 24.6719
34.6825 24.5991
34.7292 24.5668
34.776 24.4339
34.8227 24.4679
34.8695 24.323
34.9162 24.3059
34.9631 24.1576
35.0098 24.2136
35.0566 24.0288
35.1033 23.9512
35.1502 23.9138
35.1969 23.9489
35.2438 23.842
35.2906 23.8494
35.3375 23.723
35.3842 23.6817
35.4311 23.6905
35.4779 23.578
35.5248 23.5939
35.5716 23.4763
35.6185 23.3642
35.6653 23.3366
35.7123 23.2079
35.759 23.1425
35.806 23.0518
35.8528 22.9479
35.8998 23.0111
35.9468 22.8931
35.9936 22.8403
36.0406 22.7186
36.0874 22.6581
36.1345 22.6289
36.1813 22.5486
36.2283 22.4242
36.2752 22.2911
36.3222 22.3294
36.3691 22.3753
36.4161 22.1789
36.463 22.2547
36.5101 22.1865
36.557 22.0533
36.6041 21.9854
36.651 21.8842
36.6981 21.7533
36.745 21.7501
36.7921 21.6614
36.839 21.593
36.8861 21.5332
36.9331 21.4828
36.9802 21.3865
37.0272 21.3445
37.0743 21.1567
37.1213 21.2551
37.1684 21.1126
37.2154 21.1006
37.2626 21.0359
37.3098 20.9712
37.3568 20.8339
37.404 20.8697
37.451 20.7105
37.4982 20.6643
37.5452 20.5454
37.5924 20.5411
37.6395 20.6261
37.6867 20.4389
37.7337 20.3685
37.781 20.3174
37.8281 20.2495
37.8753 20.1248
37.9224 20.049
37.9697 20.0575
38.0168 19.9875
38.064 19.9368
38.1111 19.8723
38.1584 19.7137
38.2056 19.766
38.2529 19.6301
38.3 19.588
38.3473 19.5265
38.3945 19.3849
38.4418 19.3949
38.489 19.43
38.5363 19.3124
38.5837 19.2589
38.6309 19.1943
38.6782 19.04
38.7254 18.9937
38.7728 19.0299
38.82 18.9451
38.8674 18.8265
38.9146 18.7619
38.9621 18.7312
39.0093 18.6616
39.0567 18.6034
39.104 18.5357
39.1514 18.4975
39.1987 18.4625
39.2461 18.4565
39.2934 18.3759
39.3409 18.2783
39.3882 18.1475
39.4356 18.1277
39.483 18.0756
39.5304 17.987
39.5778 18.0031
39.6253 18.0029
39.6726 17.8305
39.7201 17.8707
39.7675 17.8126
39.815 17.7398
39.8624 17.6601
39.9099 17.5728
39.9575 17.5665
40.0049 17.5087
40.0525 17.4457
40.0999 17.4223
40.1474 17.3538
40.1949 17.2485
40.2425 17.2079
40.2899 17.2176
40.3375 17.0887
40.385 17.043
40.4326 17.0023
40.48 16.9014
40.5277 16.8713
40.5752 16.7804
40.6228 16.7249
40.6703 16.7397
40.718 16.5883
40.7655 16.6191
40.8132 16.5559
40.8607 16.5561
40.9084 16.4705
40.9559 16.4146
41.0036 16.4248
41.0512 16.3381
41.0989 16.2877
41.1465 16.2124
41.1942 16.1647
41.242 16.0855
41.2896 16.05
41.3373 15.9588
41.3849 15.9374
41.4327 15.8652
41.4803 15.7733
41.5281 15.7916
41.5758 15.7104
41.6236 15.6651
41.6712 15.5793
41.7191 15.5944
41.7667 15.5001
41.8146 15.4802
41.8622 15.4267
41.9101 15.3791
41.9578 15.2686
42.0057 15.2765
42.0534 15.2289
42.1013 15.176
42.149 15.0389
42.1969 15.0512
42.2446 14.9843
42.2925 14.9725
42.3403 14.9225
42.3882 14.8891
42.436 14.8176
42.4839 14.7786
42.5319 14.6449
42.5797 14.6715
42.6277 14.5721
42.6755 14.6073
42.7235 14.4764
42.7713 14.4833
42.8193 14.3579
42.8671 14.3108
42.9152 14.2958
42.963 14.261
43.0111 14.2294
43.0589 14.1568
43.107 14.0892
43.1549 14.1145
43.2029 13.9349
43.2508 14.0193
43.2989 13.9405
43.3468 13.8279
43.3949 13.8067
43.4429 13.7317
43.491 13.706
43.5389 13.6864
43.5871 13.6624
43.635 13.5958
43.6832 13.5251
43.7312 13.4252
43.7793 13.4021
43.8273 13.4147
43.8755 13.3089
43.9237 13.3037
43.9717 13.2395
44.0199 13.1671
44.068 13.1934
44.1162 13.1282
44.1642 13.1111
44.2125 13.0251
44.2606 12.9692
44.3088 12.9626
44.3569 12.9031
44.4052 12.8372
44.4533 12.7915
44.5016 12.7291
44.5497 12.7469
44.598 12.7226
44.6461 12.6225
44.6945 12.592
44.7426 12.5259
44.791 12.4235
44.8391 12.4777
44.8875 12.4015
44.9357 12.3835
44.984 12.3435
45.0322 12.3036
45.0806 12.2109
45.1288 12.207
45.1773 12.1416
45.2257 12.0948
45.2739 12.0786
45.3224 12.0133
45.3706 11.9883
45.4191 11.912
45.4673 11.9241
45.5158 11.8098
45.5641 11.7925
45.6126 11.7795
45.6609 11.708
45.7094 11.6993
45.7577 11.6137
45.8063 11.5804
45.8546 11.5713
45.9031 11.5084
45.9515 11.4544
46.0001 11.4174
46.0484 11.4181
46.097 11.3766
46.1454 11.2937
46.194 11.2876
46.2424 11.2457
46.291 11.1509
46.3395 11.1426
46.3881 11.116
46.4365 11.0709
46.4852 11.059
46.5337 10.9771
46.5823 10.9468
46.631 10.8669
46.6795 10.8667
46.7282 10.8344
46.7767 10.7935
46.8254 10.7457
46.8739 10.7425
46.9226 10.6655
46.9712 10.6688
47.0199 10.5733
47.0685 10.5495
47.1173 10.5
47.1658 10.4815
47.2146 10.4504
47.2632 10.3498
47.312 10.3622
47.3606 10.3064
47.4095 10.3102
47.4581 10.2321
47.5069 10.1867
47.5556 10.1603
47.6044 10.09
47.6531 10.0867
47.702 10.0528
47.7507 10.0489
47.7996 10.0102
47.8483 9.94066
47.8972 9.8947
47.9461 9.88621
47.9948 9.81983
48.0438 9.80327
48.0925 9.75496
48.1415 9.76979
48.1902 9.67789
48.2392 9.69952
48.288 9.65391
48.337 9.5748
48.3858 9.54511
48.4348 9.54321
48.4837 9.50928
48.5327 9.45843
48.5815 9.42885
48.6306 9.38963
48.6795 9.34796
48.7285 9.3178
48.7774 9.28954
48.8265 9.2596
48.8754 9.21821
48.9245 9.20257
48.9734 9.10722
49.0226 9.15083
49.0715 9.06192
49.1206 9.04443
49.1696 8.99215
49.2188 8.97624
49.2679 8.90315
49.3169 8.90822
49.3661 8.858
49.4151 8.81424
49.4643 8.79396
49.5134 8.76856
49.5626 8.71262
49.6117 8.67015
49.6609 8.64024
49.71 8.61924
49.7592 8.59625
49.8083 8.58388
49.8576 8.53185
49.9067 8.4515
49.956 8.50163
50.0052 8.42734
50.0545 8.37844
50.1036 8.3703
50.153 8.31698
50.2022 8.26727
50.2515 8.27751
50.3007 8.24392
50.3501 8.197
50.3993 8.16684
50.4487 8.10012
50.498 8.13195
50.5474 8.06085
50.5966 8.02386
50.6461 8.02621
50.6955 7.9905
50.7448 7.98062
50.7943 7.92904
50.8436 7.91828
50.8931 7.85432
50.9424 7.83028
50.9919 7.81761
51.0413 7.80817
51.0908 7.77058
51.1402 7.70633
51.1897 7.6953
51.2391 7.67741
51.2887 7.61572
51.3381 7.59045
51.3877 7.56514
51.4371 7.53907
51.4867 7.48098
51.5362 7.47654
51.5858 7.44238
51.6353 7.38947
51.6849 7.36888
51.7344 7.33851
51.7841 7.32846
51.8336 7.28461
51.8833 7.27126
51.9328 7.20387
51.9826 7.21275
52.0323 7.17184
52.0818 7.11648
52.1316 7.10046
52.1812 7.07707
52.231 7.06214
52.2806 7.01866
52.3304 6.97239
52.38 6.94428
52.4298 6.94401
52.4794 6.91774
52.5293 6.88051
52.5789 6.85826
52.6288 6.81098
52.6785 6.76069
52.7284 6.73434
52.7781 6.74001
52.828 6.75177
52.8777 6.6496
52.9276 6.64437
52.9774 6.62063
53.0273 6.59458
53.0771 6.55928
53.1271 6.53751
53.1769 6.48664
53.2269 6.47331
53.2767 6.47764
53.3267 6.42038
53.3765 6.37437
53.4266 6.3754
53.4766 6.34563
53.5265 6.29459
53.5765 6.26619
53.6264 6.27698
53.6765 6.20762
53.7264 6.21799
53.7765 6.1774
53.8265 6.16508
53.8766 6.13297
53.9266 6.10475
53.9767 6.07885
54.0267 6.06601
54.0769 6.02622
54.1269 6.00531
54.1771 5.94317
54.2271 5.91047
54.2773 5.86449
54.3274 5.87229
54.3776 5.84966
54.4277 5.8103
54.478 5.76654
54.528 5.73755
54.5783 5.72388
54.6285 5.6971
54.6788 5.63321
54.7289 5.61935
54.7792 5.56594
54.8296 5.48802
54.8798 5.4062
54.9301 5.42307
54.9803 5.35707
55.0307 5.41033
55.0809 5.34172
55.1314 5.22823
55.1816 5.21563
55.232 5.1348
55.2823 5.10412
55.3328 5.10189
55.383 5.01432
55.4335 4.99028
55.4838 4.96062
55.5344 4.94881
55.5847 4.88936
55.6352 4.87836
55.6856 4.80402
55.7361 4.75541