File: XRD/Ni3Fe_FD0481.xy
TT I
1.27165 7.99695
1.31627 6.75198
1.36089 7.24646
1.40551 7.03256
1.45013 6.57714
1.49476 5.62109
1.53938 5.74643
1.584 5.20358
1.62863 4.73941
1.67325 5.21075
1.71787 5.48491
1.7625 5.0899
1.80712 4.90295
1.85174 4.60444
1.89636 5.01636
1.94099 4.60594
1.98562 4.85284
2.03025 4.69538
2.07487 5.0983
2.11949 4.93014
2.16411 4.81146
2.20874 8.50472
2.25338 11.8616
2.298 5.32549
2.34263 5.23516
2.38725 5.96062
2.43188 5.78527
2.4765 6.02535
2.52115 6.97034
2.56577 7.76864
2.6104 7.81731
2.65503 7.06264
2.69965 7.53556
2.7443 7.80656
2.78893 7.40498
2.83356 8.45356
2.87818 8.6541
2.92281 9.15256
2.96744 9.64512
3.01209 10.3147
3.05672 11.0899
3.10135 11.9162
3.14599 12.3217
3.19062 14.2174
3.23527 15.1455
3.2799 15.6247
3.32454 16.5449
3.36917 18.2355
3.4138 18.9448
3.45844 19.5724
3.50309 20.5831
3.54773 22.0076
3.59237 23.3459
3.637 51.4773
3.68164 37.5259
3.7263 25.9431
3.77094 25.8823
3.81558 26.6179
3.86022 27.1168
3.90486 28.7959
3.9495 29.8006
3.99416 31.0106
4.0388 32.1577
4.08344 33.025
4.12809 34.6647
4.17273 36.4397
4.21738 39.7796
4.26204 123.787
4.30669 108.47
4.35133 45.2373
4.39598 44.3529
4.44063 48.9616
4.4853 55.2713
4.52995 55.0889
4.5746 55.2876
4.61925 54.6996
4.6639 56.3021
4.70855 59.0427
4.75322 62.2548
4.79788 67.4774
4.84253 69.0681
4.88719 74.9215
4.93184 78.0086
4.97652 83.5572
5.02118 89.5821
5.06583 99.1173
5.11049 111.873
5.15515 164.884
5.19981 539.463
5.24449 3508.98
5.28916 11718.4
5.33382 2905.35
5.37848 209.157
5.42315 135.676
5.46783 121.33
5.5125 112.135
5.55716 104.748
5.60183 100.435
5.6465 98.6123
5.69117 96.4745
5.73586 95.1054
5.78053 98.1232
5.8252 97.6272
5.86988 99.2759
5.91455 98.84
5.95924 112.356
6.00392 300.231
6.0486 1190.09
6.09328 4250.76
6.13795 3250.57
6.18263 246.402
6.22733 95.6485
6.27201 83.443
6.3167 86.8273
6.36138 75.828
6.40606 70.7026
6.45075 69.5845
6.49545 66.1658
6.54014 64.4965
6.58483 63.6088
6.62952 62.9428
6.67421 74.3548
6.71892 93.7126
6.76361 63.3244
6.8083 59.4549
6.853 58.8709
6.89769 57.4884
6.94239 56.9278
6.98711 56.1597
7.03181 56.0719
7.07651 55.2727
7.12121 55.3014
7.16591 55.9731
7.21063 55.8165
7.25533 61.3743
7.30004 102.875
7.34475 69.3291
7.38945 55.5393
7.43416 54.4818
7.47889 54.5833
7.5236 54.7239
7.56831 55.538
7.61303 56.3421
7.65774 56.9273
7.70247 56.9817
7.74719 56.9492
7.79191 57.425
7.83663 57.4898
7.88135 58.2908
7.92607 59.3589
7.97081 60.5469
8.01553 61.7097
8.06026 63.2657
8.10498 64.7006
8.14971 70.8202
8.19446 70.8786
8.23919 70.5774
8.28392 73.437
8.32865 75.583
8.37339 80.1193
8.41812 86.4998
8.46288 108.274
8.50761 211.519
8.55235 467.422
8.59709 1240.18
8.64183 2159.38
8.68658 970.128
8.73134 165.939
8.77609 101.329
8.82083 94.6446
8.86558 92.96
8.91033 92.3939
8.9551 90.5634
8.99985 86.4
9.04461 85.2353
9.08936 85.0899
9.13412 84.0452
9.17888 83.2695
9.22365 83.7542
9.26841 83.4121
9.31318 85.7118
9.35794 85.969
9.4027 86.2419
9.44749 86.068
9.49226 86.5424
9.53703 87.1564
9.5818 90.1758
9.62657 94.0076
9.67134 96.066
9.71614 94.5075
9.76091 96.379
9.80569 100.045
9.85047 102.565
9.89525 115.095
9.94005 133.811
9.98484 223.907
10.0296 414.157
10.0744 889.347
10.1192 1706.38
10.164 1608.04
10.2088 404.047
10.2536 129.838
10.2984 112.055
10.3432 110.841
10.388 108.389
10.4328 132.145
10.4776 180.112
10.5224 304.766
10.5672 500.824
10.612 493.074
10.6568 200.453
10.7017 96.7935
10.7465 87.7487
10.7913 84.5389
10.8361 82.4134
10.8809 80.1828
10.9257 78.7618
10.9706 78.6212
11.0154 75.623
11.0602 73.7619
11.105 72.5333
11.1499 73.3536
11.1947 75.5562
11.2395 71.5812
11.2844 69.7932
11.3292 67.8307
11.374 66.9527
11.4189 66.5511
11.4637 65.5716
11.5086 65.3073
11.5534 66.5158
11.5983 65.1411
11.6431 64.3926
11.688 63.8227
11.7328 63.8106
11.7777 63.8634
11.8225 63.6654
11.8674 63.4647
11.9122 63.7822
11.9571 64.1843
12.002 65.6298
12.0468 72.3496
12.0917 84.0002
12.1366 109.549
12.1814 155.854
12.2263 202.212
12.2712 168.312
12.3161 91.0427
12.3609 68.5894
12.4058 65.2029
12.4507 65.1646
12.4956 65.3535
12.5405 65.6919
12.5853 66.2913
12.6302 69.2717
12.6751 72.2202
12.72 69.107
12.7649 68.7003
12.8098 69.6482
12.8547 70.7773
12.8996 72.5811
12.9445 73.8284
12.9894 75.9377
13.0343 77.5712
13.0792 82.4239
13.1242 98.3995
13.1691 122.368
13.214 163.39
13.2589 252.538
13.3038 369.576
13.3487 422.73
13.3937 260.557
13.4386 125.446
13.4835 114.362
13.5285 131.216
13.5734 172.484
13.6183 254.77
13.6633 344.065
13.7082 338.693
13.7531 188.376
13.7981 97.792
13.843 83.0959
13.888 81.0375
13.9329 78.4712
13.9779 77.145
14.0228 75.7071
14.0678 74.1269
14.1127 73.6182
14.1577 73.0025
14.2027 72.3522
14.2476 71.7983
14.2926 71.0951
14.3376 71.4281
14.3825 70.94
14.4275 70.0731
14.4725 69.8214
14.5175 70.1049
14.5624 70.2055
14.6074 71.2168
14.6524 71.5907
14.6974 72.0141
14.7424 76.1806
14.7874 83.9865
14.8324 95.3676
14.8774 118.779
14.9224 157.832
14.9674 203.353
15.0124 215.482
15.0574 148.828
15.1024 91.011
15.1474 73.3995
15.1924 71.4488
15.2374 71.0806
15.2824 69.6858
15.3274 68.301
15.3725 68.1137
15.4175 67.5178
15.4625 67.107
15.5076 67.0354
15.5526 67.0696
15.5976 67.2697
15.6426 70.6606
15.6877 76.6529
15.7327 84.9049
15.7778 101.613
15.8228 131.371
15.8679 169.139
15.9129 191.559
15.958 153.844
16.003 95.2249
16.0481 67.9785
16.0931 64.1495
16.1382 62.4942
16.1833 61.386
16.2283 59.7823
16.2734 59.321
16.3185 58.7613
16.3636 58.8604
16.4086 57.8169
16.4537 56.8245
16.4988 56.4161
16.5439 56.2858
16.589 56.0697
16.6341 55.8606
16.6792 55.3058
16.7243 55.84
16.7694 55.5645
16.8145 55.5024
16.8596 55.5538
16.9047 56.4963
16.9498 56.8443
16.9949 56.3324
17.04 57.192
17.0851 58.6883
17.1302 60.4675
17.1754 63.525
17.2205 68.8285
17.2656 75.2618
17.3108 82.332
17.3559 81.6443
17.401 71.5403
17.4462 62.9534
17.4913 60.1146
17.5365 60.1077
17.5815 60.1443
17.6268 60.9131
17.6718 61.0916
17.7171 61.6737
17.7622 62.3258
17.8074 63.7597
17.8525 67.228
17.8977 71.3621
17.9428 77.3284
17.9881 87.0714
18.0331 103.312
18.0784 122.635
18.1237 140.661
18.1688 133.341
18.214 105.472
18.2591 89.1453
18.3044 92.3045
18.3495 100.931
18.3948 106.615
18.4399 96.5873
18.4852 77.8072
18.5303 66.5132
18.5756 63.0125
18.6207 62.0649
18.666 61.387
18.7112 60.3945
18.7565 59.9307
18.8016 59.5999
18.8469 58.9436
18.892 58.5494
18.9374 58.3965
18.9825 57.8714
19.0278 57.7664
19.073 58.2861
19.1183 58.5287
19.1635 59.2269
19.2088 60.8389
19.254 63.8348
19.2993 67.6283
19.3447 72.6582
19.3898 76.6336
19.4352 72.7835
19.4804 64.0449
19.5257 57.4557
19.5709 54.7987
19.6163 54.8759
19.6615 54.6679
19.7068 54.2319
19.752 54.2531
19.7974 54.7919
19.8426 55.4496
19.888 56.2101
19.9332 57.3866
19.9786 60.5222
20.0238 63.8764
20.0692 67.7665
20.1144 70.6579
20.1598 69.1954
20.205 64.63
20.2504 62.8217
20.2957 64.295
20.3411 66.1434
20.3863 64.7788
20.4318 58.8781
20.477 53.9756
20.5224 51.9595
20.5677 51.4342
20.6131 50.8666
20.6586 50.4606
20.7038 50.3575
20.7493 49.7968
20.7945 49.8596
20.84 49.5794
20.8853 49.5563
20.9307 49.5348
20.976 49.6728
21.0215 49.5457
21.0668 49.7329
21.1122 50.2278
21.1575 50.9288
21.203 51.4514
21.2483 52.1326
21.2938 52.235
21.3391 50.871
21.3846 49.5847
21.4299 49.2509
21.4754 49.2701
21.5207 49.4559
21.5662 49.8712
21.6116 50.3828
21.6571 51.2521
21.7024 52.1483
21.7479 53.9576
21.7933 56.8059
21.8388 59.813
21.8843 63.3295
21.9297 65.4219
21.9752 64.1715
22.0206 60.1391
22.0661 57.0543
22.1115 56.5386
22.157 56.4338
22.2024 54.9334
22.248 52.2689
22.2933 50.5725
22.3389 49.6853
22.3843 49.77
22.4299 49.3137
22.4753 49.5467
22.5208 49.2735
22.5662 49.2881
22.6118 49.6936
22.6572 50.0547
22.7028 50.2845
22.7483 50.7739
22.7939 51.5402
22.8393 53.0525
22.8849 54.9906
22.9303 56.5873
22.9759 58.4619
23.0214 57.8486
23.067 55.047
23.1126 51.6571
23.1581 50.0013
23.2037 49.4023
23.2492 49.6742
23.2948 49.8895
23.3403 50.2505
23.3859 50.7985
23.4314 51.9865
23.477 53.6692
23.5225 55.573
23.5682 57.4197
23.6137 58.4322
23.6593 56.111
23.7048 52.0641
23.7505 48.8941
23.796 47.3178
23.8417 46.6693
23.8872 46.1913
23.9329 45.7903
23.9784 45.5089
24.0241 45.2906
24.0697 45.0401
24.1154 44.6928
24.1609 44.6176
24.2066 44.5024
24.2522 44.3543
24.2979 44.0009
24.3434 43.9516
24.3892 43.5947
24.4349 43.8441
24.4805 43.5332
24.5262 43.7373
24.5718 43.5451
24.6175 43.4812
24.6631 43.3573
24.7089 43.039
24.7545 43.019
24.8002 42.9275
24.8458 42.7619
24.8916 42.7554
24.9372 42.9421
24.983 43.4476
25.0286 43.7408
25.0744 43.9279
25.12 44.4151
25.1658 45.0277
25.2114 45.2912
25.2572 45.3926
25.3029 45.2455
25.3487 45.5279
25.3943 45.2766
25.4402 44.1699
25.4858 42.8665
25.5316 42.0616
25.5773 41.5464
25.6231 41.6337
25.669 41.2342
25.7147 41.1912
25.7605 41.0815
25.8062 41.0889
25.8521 41.2948
25.8977 41.3309
25.9436 41.5102
25.9893 41.6472
26.0352 42.1481
26.0809 42.1289
26.1268 42.382
26.1725 41.9987
26.2184 41.4194
26.2641 41.1138
26.31 40.7559
26.3557 40.7839
26.4017 40.7127
26.4474 41.1406
26.4933 41.4011
26.5391 41.9329
26.585 42.2848
26.6308 42.6668
26.6767 42.7309
26.7225 42.4988
26.7684 41.9013
26.8142 41.4142
26.8601 41.0371
26.9059 40.5048
26.9519 40.135
26.9979 39.7199
27.0437 39.5319
27.0896 39.3222
27.1354 39.3866
27.1814 39.2239
27.2272 39.2213
27.2732 39.1773
27.3191 38.8622
27.3651 39.0638
27.4109 38.9756
27.4569 39.133
27.5027 39.1352
27.5488 39.215
27.5946 38.9899
27.6407 38.9174
27.6865 38.6439
27.7326 38.4701
27.7784 38.4748
27.8245 38.4275
27.8703 38.5431
27.9164 38.8412
27.9623 39.0321
28.0084 39.2691
28.0543 39.7312
28.1003 39.4271
28.1462 39.3497
28.1923 38.9183
28.2384 38.4522
28.2843 38.1007
28.3304 37.6799
28.3764 37.1954
28.4225 36.9704
28.4684 36.8154
28.5145 36.5417
28.5605 36.2686
28.6066 36.2795
28.6526 36.1546
28.6987 36.111
28.7447 36.0449
28.7908 35.9754
28.8368 35.8367
28.8829 35.993
28.9289 35.9203
28.9751 35.6633
29.0211 35.4954
29.0673 35.1247
29.1133 35.0036
29.1595 34.9005
29.2055 34.7816
29.2517 34.8162
29.2977 34.8103
29.3439 34.8157
29.3899 34.6905
29.4361 34.5944
29.4824 34.3398
29.5284 34.2587
29.5746 33.9247
29.6207 33.6193
29.6669 33.6128
29.713 33.5472
29.7593 33.3176
29.8053 33.264
29.8516 33.186
29.8977 33.1967
29.9439 33.1113
29.99 33.0359
30.0363 32.8421
30.0824 32.9347
30.1287 32.8708
30.1748 32.9158
30.2211 32.8123
30.2673 32.765
30.3136 32.8328
30.3597 32.7454
30.406 32.6396
30.4522 32.4892
30.4985 32.5952
30.5447 32.669
30.591 32.6569
30.6372 32.6684
30.6835 32.7283
30.7297 32.6108
30.7761 32.6831
30.8224 32.5191
30.8686 32.3684
30.915 32.0853
30.9612 32.047
31.0076 31.8538
31.0538 31.6266
31.1002 31.6365
31.1464 31.3942
31.1928 31.3724
31.2391 31.4664
31.2855 31.4001
31.3317 31.272
31.3781 31.3568
31.4244 31.305
31.4708 31.3081
31.5171 31.2943
31.5636 31.2027
31.6098 30.9043
31.6563 30.8649
31.7026 30.6062
31.7491 30.6498
31.7953 30.6633
31.8418 30.5086
31.8881 30.628
31.9346 30.5548
31.9809 30.4558
32.0275 30.3553
32.074 30.2126
32.1203 30.0926
32.1668 29.9347
32.2132 29.7385
32.2597 29.7299
32.306 29.533
32.3526 29.3311
32.399 29.3175
32.4455 29.2846
32.4919 29.1155
32.5385 29.0092
32.5848 28.903
32.6314 28.9264
32.6778 28.7585
32.7244 28.7368
32.7708 28.5839
32.8174 28.5485
32.8638 28.4681
32.9104 28.5195
32.9569 28.5028
33.0035 28.2384
33.0499 28.2836
33.0966 28.2707
33.143 28.1602
33.1897 28.187
33.2361 28.0034
33.2828 28.0305
33.3293 27.8201
33.3759 27.7522
33.4226 27.6383
33.4691 27.5123
33.5158 27.3895
33.5623 27.2225
33.609 27.1534
33.6555 27.0177
33.7022 26.9434
33.7487 26.9217
33.7954 26.895
33.842 26.8139
33.8887 26.674
33.9353 26.6599
33.982 26.5398
34.0286 26.4104
34.0753 26.3411
34.1219 26.2968
34.1687 26.1696
34.2152 26.0831
34.262 26.0039
34.3086 25.8499
34.3554 25.9363
34.402 25.7721
34.4488 25.6216
34.4954 25.5477
34.5422 25.6307
34.5889 25.395
34.6357 25.3781
34.6825 25.2102
34.7292 25.261
34.776 25.0704
34.8227 25.051
34.8695 24.948
34.9162 24.9186
34.9631 24.9258
35.0098 24.8902
35.0566 24.7654
35.1033 24.6446
35.1502 24.5864
35.1969 24.5745
35.2438 24.6011
35.2906 24.4405
35.3375 24.4207
35.3842 24.325
35.4311 24.4171
35.4779 24.3342
35.5248 24.1472
35.5716 24.1372
35.6185 24.0867
35.6653 23.961
35.7123 23.8489
35.759 23.8678
35.806 23.7034
35.8528 23.551
35.8998 23.6186
35.9468 23.4271
35.9936 23.4375
36.0406 23.3606
36.0874 23.2672
36.1345 23.1607
36.1813 23.1921
36.2283 23.0048
36.2752 22.98
36.3222 22.9461
36.3691 22.8626
36.4161 22.7622
36.463 22.8305
36.5101 22.7364
36.557 22.6515
36.6041 22.5154
36.651 22.4844
36.6981 22.4156
36.745 22.3467
36.7921 22.2283
36.839 22.1622
36.8861 22.183
36.9331 22.0169
36.9802 21.9931
37.0272 21.8921
37.0743 21.8294
37.1213 21.7911
37.1684 21.6678
37.2154 21.6875
37.2626 21.5194
37.3098 21.4478
37.3568 21.5008
37.404 21.3794
37.451 21.3314
37.4982 21.2148
37.5452 21.1299
37.5924 21.0635
37.6395 21.1249
37.6867 21.0169
37.7337 20.8702
37.781 20.8915
37.8281 20.79
37.8753 20.6487
37.9224 20.6016
37.9697 20.5444
38.0168 20.4763
38.064 20.4745
38.1111 20.3574
38.1584 20.2912
38.2056 20.2278
38.2529 20.1712
38.3 20.1165
38.3473 20.1071
38.3945 19.9339
38.4418 19.8969
38.489 19.8534
38.5363 19.8443
38.5837 19.6892
38.6309 19.6685
38.6782 19.5584
38.7254 19.4987
38.7728 19.5201
38.82 19.4631
38.8674 19.3295
38.9146 19.2758
38.9621 19.2638
39.0093 19.2612
39.0567 19.1466
39.104 19.1109
39.1514 18.847
39.1987 18.9456
39.2461 18.9252
39.2934 18.7718
39.3409 18.7235
39.3882 18.6477
39.4356 18.5942
39.483 18.5406
39.5304 18.5124
39.5778 18.4968
39.6253 18.3928
39.6726 18.3589
39.7201 18.2439
39.7675 18.2495
39.815 18.1821
39.8624 18.1035
39.9099 18.0779
39.9575 18.0082
40.0049 17.9996
40.0525 17.8663
40.0999 17.9125
40.1474 17.7878
40.1949 17.7652
40.2425 17.6447
40.2899 17.601
40.3375 17.5882
40.385 17.5332
40.4326 17.4431
40.48 17.4062
40.5277 17.3194
40.5752 17.2796
40.6228 17.1884
40.6703 17.1469
40.718 17.1546
40.7655 17.0959
40.8132 16.9988
40.8607 16.9501
40.9084 16.8848
40.9559 16.8054
41.0036 16.7546
41.0512 16.7583
41.0989 16.6757
41.1465 16.6211
41.1942 16.5903
41.242 16.5127
41.2896 16.363
41.3373 16.3856
41.3849 16.35
41.4327 16.2992
41.4803 16.2029
41.5281 16.1827
41.5758 16.1198
41.6236 16.0257
41.6712 16.0223
41.7191 15.9257
41.7667 15.8866
41.8146 15.8575
41.8622 15.7365
41.9101 15.7114
41.9578 15.6123
42.0057 15.6076
42.0534 15.5925
42.1013 15.5547
42.149 15.4816
42.1969 15.4276
42.2446 15.3851
42.2925 15.3316
42.3403 15.2894
42.3882 15.2688
42.436 15.249
42.4839 15.0848
42.5319 15.0949
42.5797 15.0371
42.6277 14.9506
42.6755 14.9222
42.7235 14.8241
42.7713 14.8046
42.8193 14.7464
42.8671 14.6916
42.9152 14.7411
42.963 14.6326
43.0111 14.5415
43.0589 14.5102
43.107 14.3945
43.1549 14.3815
43.2029 14.3731
43.2508 14.3797
43.2989 14.2289
43.3468 14.1824
43.3949 14.1225
43.4429 14.1233
43.491 14.0818
43.5389 13.9854
43.5871 13.9844
43.635 13.9082
43.6832 13.8981
43.7312 13.7903
43.7793 13.7993
43.8273 13.7724
43.8755 13.685
43.9237 13.6423
43.9717 13.6064
44.0199 13.518
44.068 13.4943
44.1162 13.4263
44.1642 13.3715
44.2125 13.3548
44.2606 13.3006
44.3088 13.2751
44.3569 13.1926
44.4052 13.2149
44.4533 13.1139
44.5016 13.0334
44.5497 13.0481
44.598 13.0001
44.6461 12.936
44.6945 12.928
44.7426 12.8856
44.791 12.7582
44.8391 12.7565
44.8875 12.7193
44.9357 12.6261
44.984 12.6491
45.0322 12.5446
45.0806 12.537
45.1288 12.4862
45.1773 12.4391
45.2257 12.4279
45.2739 12.3586
45.3224 12.3432
45.3706 12.288
45.4191 12.1703
45.4673 12.18
45.5158 12.141
45.5641 12.0949
45.6126 12.0428
45.6609 12.0057
45.7094 11.9383
45.7577 11.8935
45.8063 11.8254
45.8546 11.8621
45.9031 11.7647
45.9515 11.7308
46.0001 11.7128
46.0484 11.6762
46.097 11.647
46.1454 11.6116
46.194 11.5546
46.2424 11.4886
46.291 11.4351
46.3395 11.3905
46.3881 11.3556
46.4365 11.334
46.4852 11.2769
46.5337 11.2521
46.5823 11.2124
46.631 11.1389
46.6795 11.1638
46.7282 11.1174
46.7767 11.0557
46.8254 11.0097
46.8739 10.9834
46.9226 10.9248
46.9712 10.889
47.0199 10.8426
47.0685 10.795
47.1173 10.7508
47.1658 10.7057
47.2146 10.6452
47.2632 10.6324
47.312 10.5983
47.3606 10.5914
47.4095 10.5112
47.4581 10.4893
47.5069 10.4373
47.5556 10.4021
47.6044 10.3915
47.6531 10.3253
47.702 10.3112
47.7507 10.2603
47.7996 10.2029
47.8483 10.187
47.8972 10.1753
47.9461 10.1164
47.9948 10.0863
48.0438 10.0304
48.0925 9.97382
48.1415 9.97781
48.1902 9.94446
48.2392 9.89919
48.288 9.91539
48.337 9.81752
48.3858 9.74532
48.4348 9.74708
48.4837 9.72372
48.5327 9.70461
48.5815 9.63452
48.6306 9.60751
48.6795 9.58217
48.7285 9.57825
48.7774 9.51787
48.8265 9.49216
48.8754 9.41207
48.9245 9.39224
48.9734 9.38014
49.0226 9.34076
49.0715 9.28657
49.1206 9.25035
49.1696 9.23403
49.2188 9.19509
49.2679 9.14222
49.3169 9.08823
49.3661 9.05458
49.4151 9.02898
49.4643 9.02742
49.5134 8.98562
49.5626 8.93211
49.6117 8.91871
49.6609 8.8953
49.71 8.83838
49.7592 8.78449
49.8083 8.72847
49.8576 8.73845
49.9067 8.67625
49.956 8.68235
50.0052 8.61443
50.0545 8.61276
50.1036 8.56185
50.153 8.57576
50.2022 8.53536
50.2515 8.49363
50.3007 8.4346
50.3501 8.37114
50.3993 8.36311
50.4487 8.32005
50.498 8.31641
50.5474 8.28792
50.5966 8.23693
50.6461 8.20762
50.6955 8.18052
50.7448 8.17542
50.7943 8.16017
50.8436 8.08271
50.8931 8.05714
50.9424 8.02364
50.9919 8.00938
51.0413 7.97317
51.0908 7.96855
51.1402 7.90786
51.1897 7.89527
51.2391 7.86163
51.2887 7.83531
51.3381 7.78296
51.3877 7.75898
51.4371 7.71679
51.4867 7.66308
51.5362 7.65788
51.5858 7.5893
51.6353 7.5598
51.6849 7.51078
51.7344 7.4996
51.7841 7.5022
51.8336 7.4336
51.8833 7.45117
51.9328 7.39064
51.9826 7.34658
52.0323 7.29392
52.0818 7.28213
52.1316 7.24175
52.1812 7.22937
52.231 7.21096
52.2806 7.16359
52.3304 7.13366
52.38 7.12741
52.4298 7.0712
52.4794 7.04206
52.5293 7.05628
52.5789 7.00315
52.6288 6.9758
52.6785 6.93694
52.7284 6.94338
52.7781 6.91315
52.828 6.89609
52.8777 6.81511
52.9276 6.78153
52.9774 6.77338
53.0273 6.74678
53.0771 6.74605
53.1271 6.6711
53.1769 6.69643
53.2269 6.64039
53.2767 6.62492
53.3267 6.58656
53.3765 6.51622
53.4266 6.50182
53.4766 6.4777
53.5265 6.47241
53.5765 6.45342
53.6264 6.42182
53.6765 6.36122
53.7264 6.31695
53.7765 6.35154
53.8265 6.29706
53.8766 6.24733
53.9266 6.25419
53.9767 6.21546
54.0267 6.24183
54.0769 6.15687
54.1269 6.16142
54.1771 6.11341
54.2271 6.05819
54.2773 6.02589
54.3274 6.05001
54.3776 6.01144
54.4277 5.95958
54.478 5.89162
54.528 5.85111
54.5783 5.82984
54.6285 5.8199
54.6788 5.75684
54.7289 5.73929
54.7792 5.65361
54.8296 5.61818
54.8798 5.61066
54.9301 5.52131
54.9803 5.54178
55.0307 5.50694
55.0809 5.42046
55.1314 5.48645
55.1816 5.34642
55.232 5.31382
55.2823 5.30184
55.3328 5.19479
55.383 5.15371
55.4335 5.1587
55.4838 5.06439
55.5344 5.0218
55.5847 4.93136
55.6352 4.91042
55.6856 4.96176
55.7361 4.87862