File: XRD/Ni3Fe_FD0913.xy
TT I
1.27165 7.39907
1.31627 6.50105
1.36089 6.14366
1.40551 5.801
1.45013 5.75689
1.49476 5.95225
1.53938 5.73707
1.584 5.00583
1.62863 5.452
1.67325 4.72113
1.71787 5.1226
1.7625 4.67401
1.80712 5.11726
1.85174 4.75537
1.89636 4.90572
1.94099 5.04426
1.98562 4.40544
2.03025 4.81049
2.07487 4.03404
2.11949 4.97875
2.16411 4.6156
2.20874 9.96915
2.25338 13.0367
2.298 5.8263
2.34263 5.59596
2.38725 6.12608
2.43188 7.15041
2.4765 6.65779
2.52115 7.6343
2.56577 7.91662
2.6104 8.83104
2.65503 8.89583
2.69965 7.97647
2.7443 8.63135
2.78893 8.22076
2.83356 8.97857
2.87818 9.10657
2.92281 10.0509
2.96744 9.80877
3.01209 10.2173
3.05672 11.2661
3.10135 12.4945
3.14599 13.1717
3.19062 14.1797
3.23527 15.4701
3.2799 15.7549
3.32454 16.9109
3.36917 17.8253
3.4138 18.6364
3.45844 19.5404
3.50309 20.1621
3.54773 21.6155
3.59237 23.2047
3.637 58.0885
3.68164 40.4713
3.7263 25.1757
3.77094 25.8944
3.81558 26.3146
3.86022 27.0824
3.90486 28.6055
3.9495 28.9773
3.99416 30.1906
4.0388 31.7634
4.08344 32.9168
4.12809 33.9399
4.17273 35.4702
4.21738 39.5445
4.26204 143.927
4.30669 123.562
4.35133 45.0138
4.39598 43.3076
4.44063 49.6391
4.4853 55.5316
4.52995 54.281
4.5746 55.3423
4.61925 53.065
4.6639 54.828
4.70855 57.0866
4.75322 60.2748
4.79788 66.1991
4.84253 67.1434
4.88719 72.7278
4.93184 75.2787
4.97652 79.9896
5.02118 86.0784
5.06583 93.2582
5.11049 103.847
5.15515 153.637
5.19981 352.83
5.24449 2725.9
5.28916 13692.9
5.33382 2628.79
5.37848 182.818
5.42315 126.938
5.46783 114.954
5.5125 108.725
5.55716 100.67
5.60183 96.6584
5.6465 94.3291
5.69117 93.0156
5.73586 90.8268
5.78053 94.6724
5.8252 94.2351
5.86988 96.6354
5.91455 93.1519
5.95924 101.519
6.00392 216.616
6.0486 920.555
6.09328 4605.45
6.13795 3006.36
6.18263 196.568
6.22733 87.7565
6.27201 78.722
6.3167 86.4742
6.36138 74.59
6.40606 68.7939
6.45075 67.793
6.49545 64.6171
6.54014 62.5879
6.58483 61.7397
6.62952 61.765
6.67421 76.745
6.71892 99.1541
6.76361 62.5617
6.8083 58.2153
6.853 58.0673
6.89769 55.8903
6.94239 55.2678
6.98711 54.9119
7.03181 55.1055
7.07651 54.0688
7.12121 54.118
7.16591 55.0185
7.21063 54.8463
7.25533 61.6736
7.30004 112.451
7.34475 71.4573
7.38945 54.5604
7.43416 53.0992
7.47889 52.8873
7.5236 53.5322
7.56831 54.2515
7.61303 55.3441
7.65774 55.6177
7.70247 55.8336
7.74719 55.7412
7.79191 55.5925
7.83663 55.8212
7.88135 56.9754
7.92607 57.8598
7.97081 58.7703
8.01553 59.9713
8.06026 61.8248
8.10498 63.1362
8.14971 69.9656
8.19446 70.0643
8.23919 68.5704
8.28392 70.6636
8.32865 72.6103
8.37339 77.1802
8.41812 83.0453
8.46288 102.757
8.50761 168.026
8.55235 364.94
8.59709 1194.61
8.64183 2281.84
8.68658 832.363
8.73134 141.158
8.77609 95.495
8.82083 90.7273
8.86558 89.7563
8.91033 90.0674
8.9551 88.5578
8.99985 83.9151
9.04461 82.5946
9.08936 82.1541
9.13412 81.1542
9.17888 80.6242
9.22365 81.0616
9.26841 80.8356
9.31318 82.8996
9.35794 83.8385
9.4027 83.8043
9.44749 83.2118
9.49226 83.7649
9.53703 84.7333
9.5818 87.2664
9.62657 92.0387
9.67134 94.7355
9.71614 91.3836
9.76091 93.2582
9.80569 97.2907
9.85047 98.9905
9.89525 112.677
9.94005 126.032
9.98484 180.392
10.0296 328.967
10.0744 820.864
10.1192 1845.46
10.164 1481.03
10.2088 325.157
10.2536 117.773
10.2984 107.619
10.3432 107.602
10.388 102.818
10.4328 117.899
10.4776 156.809
10.5224 287.431
10.5672 540.673
10.612 488.202
10.6568 178.4
10.7017 91.8878
10.7465 84.6752
10.7913 81.8542
10.8361 79.4827
10.8809 77.2091
10.9257 76.6254
10.9706 76.89
11.0154 73.83
11.0602 71.731
11.105 70.2738
11.1499 71.8861
11.1947 74.7405
11.2395 69.9911
11.2844 67.4628
11.3292 65.8035
11.374 65.1989
11.4189 64.2276
11.4637 63.734
11.5086 63.8143
11.5534 64.7446
11.5983 63.4914
11.6431 62.2671
11.688 61.7786
11.7328 61.6545
11.7777 61.5285
11.8225 61.5098
11.8674 61.4256
11.9122 61.526
11.9571 61.9208
12.002 62.9301
12.0468 67.1388
12.0917 76.859
12.1366 101.354
12.1814 157.266
12.2263 213.735
12.2712 154.578
12.3161 85.8679
12.3609 66.2285
12.4058 63.1214
12.4507 62.9321
12.4956 63.2859
12.5405 63.6987
12.5853 64.1841
12.6302 68.2034
12.6751 70.9735
12.72 67.3363
12.7649 66.5772
12.8098 67.1942
12.8547 68.8646
12.8996 70.0578
12.9445 71.5171
12.9894 73.3891
13.0343 74.7032
13.0792 78.4946
13.1242 89.4409
13.1691 109.227
13.214 144.852
13.2589 243.812
13.3038 391.403
13.3487 425.303
13.3937 231.552
13.4386 113.791
13.4835 103.802
13.5285 117.837
13.5734 156.05
13.6183 257.281
13.6633 378.68
13.7082 329.236
13.7531 167.695
13.7981 91.5663
13.843 79.9096
13.888 78.1152
13.9329 75.9415
13.9779 74.4366
14.0228 72.9162
14.0678 71.6304
14.1127 71.2787
14.1577 70.6988
14.2027 69.9955
14.2476 69.1344
14.2926 69.0349
14.3376 69.5759
14.3825 68.804
14.4275 67.8688
14.4725 67.5393
14.5175 67.5778
14.5624 67.7215
14.6074 68.9517
14.6524 69.3714
14.6974 69.3464
14.7424 71.7329
14.7874 78.1207
14.8324 87.2234
14.8774 109.447
14.9224 158.228
14.9674 217.788
15.0124 215.679
15.0574 138.136
15.1024 83.944
15.1474 70.5174
15.1924 68.8494
15.2374 68.7406
15.2824 67.7964
15.3274 66.275
15.3725 65.3599
15.4175 65.2517
15.4625 64.9855
15.5076 64.7674
15.5526 64.7322
15.5976 64.7752
15.6426 66.3304
15.6877 71.2298
15.7327 78.1923
15.7778 93.1973
15.8228 128.239
15.8679 176.932
15.9129 194.844
15.958 145.889
16.003 87.132
16.0481 64.6547
16.0931 62.3178
16.1382 60.6977
16.1833 59.1609
16.2283 57.7625
16.2734 57.0139
16.3185 56.9415
16.3636 57.0882
16.4086 55.783
16.4537 54.8405
16.4988 54.465
16.5439 54.4284
16.589 54.0851
16.6341 53.8931
16.6792 53.4706
16.7243 53.7617
16.7694 53.7268
16.8145 53.7518
16.8596 54.14
16.9047 54.9575
16.9498 54.9478
16.9949 54.4657
17.04 54.9612
17.0851 56.3949
17.1302 57.741
17.1754 60.4407
17.2205 65.8596
17.2656 74.5591
17.3108 83.0957
17.3559 79.8896
17.401 67.4413
17.4462 60.1097
17.4913 58.1462
17.5365 58.1171
17.5815 58.1981
17.6268 58.6951
17.6718 59.2403
17.7171 59.5455
17.7622 60.2376
17.8074 61.2431
17.8525 63.7098
17.8977 67.0303
17.9428 72.0254
17.9881 81.3627
18.0331 100.696
18.0784 125.54
18.1237 139.635
18.1688 125.304
18.214 96.3153
18.2591 83.677
18.3044 90.4439
18.3495 102.542
18.3948 105.731
18.4399 91.4142
18.4852 73.2731
18.5303 63.961
18.5756 61.0564
18.6207 60.0999
18.666 59.2729
18.7112 58.5393
18.7565 57.8941
18.8016 57.4847
18.8469 57.0347
18.892 56.6487
18.9374 56.1526
18.9825 56.0525
19.0278 55.9412
19.073 55.9643
19.1183 56.538
19.1635 56.8147
19.2088 58.3164
19.254 61.1188
19.2993 66.2461
19.3447 72.2394
19.3898 74.981
19.4352 69.1752
19.4804 60.435
19.5257 54.8944
19.5709 53.1108
19.6163 53.0674
19.6615 52.7942
19.7068 52.5629
19.752 52.1513
19.7974 52.7743
19.8426 53.4079
19.888 53.9215
19.9332 55.1953
19.9786 58.0184
20.0238 62.2872
20.0692 67.4703
20.1144 69.4714
20.1598 66.1437
20.205 61.6231
20.2504 61.4184
20.2957 64.0194
20.3411 65.4224
20.3863 62.2329
20.4318 56.1034
20.477 51.8913
20.5224 50.1752
20.5677 49.5816
20.6131 49.2662
20.6586 48.6544
20.7038 48.7216
20.7493 48.1919
20.7945 48.2336
20.84 48.0353
20.8853 47.8634
20.9307 47.6711
20.976 47.952
21.0215 47.7191
21.0668 48.0565
21.1122 48.5887
21.1575 49.3234
21.203 50.2531
21.2483 50.6776
21.2938 50.5206
21.3391 48.8493
21.3846 47.9699
21.4299 47.4287
21.4754 47.4524
21.5207 47.7991
21.5662 48.0994
21.6116 48.5202
21.6571 49.1733
21.7024 49.9125
21.7479 51.7342
21.7933 54.8747
21.8388 58.9825
21.8843 63.0688
21.9297 64.2533
21.9752 61.4298
22.0206 57.5502
22.0661 55.2247
22.1115 55.4088
22.157 55.1056
22.2024 52.7005
22.248 50.0051
22.2933 48.7891
22.3389 48.1281
22.3843 48.0342
22.4299 47.8073
22.4753 47.9066
22.5208 47.7763
22.5662 47.7305
22.6118 47.9562
22.6572 48.0704
22.7028 48.1737
22.7483 48.9128
22.7939 49.6009
22.8393 51.1311
22.8849 53.5358
22.9303 55.985
22.9759 57.3537
23.0214 56.0451
23.067 52.9575
23.1126 49.7605
23.1581 48.0377
23.2037 47.9484
23.2492 47.9678
23.2948 47.9833
23.3403 48.1425
23.3859 48.9857
23.4314 50.1238
23.477 52.2812
23.5225 54.5121
23.5682 56.9408
23.6137 57.2139
23.6593 54.2321
23.7048 49.9236
23.7505 46.824
23.796 45.5994
23.8417 45.112
23.8872 44.5693
23.9329 44.4223
23.9784 44.1416
24.0241 43.7831
24.0697 43.7807
24.1154 43.3868
24.1609 43.241
24.2066 43.0328
24.2522 42.8682
24.2979 42.6816
24.3434 42.5578
24.3892 42.3799
24.4349 42.3804
24.4805 42.1848
24.5262 42.3669
24.5718 42.1688
24.6175 42.0829
24.6631 41.9228
24.7089 41.656
24.7545 41.5799
24.8002 41.4495
24.8458 41.5226
24.8916 41.4328
24.9372 41.5037
24.983 41.7679
25.0286 42.2856
25.0744 42.6092
25.12 43.0939
25.1658 43.6726
25.2114 44.0185
25.2572 44.0584
25.3029 44.1972
25.3487 44.3517
25.3943 43.7629
25.4402 42.3726
25.4858 41.3522
25.5316 40.6448
25.5773 40.2147
25.6231 40.2398
25.669 39.8273
25.7147 39.679
25.7605 39.7609
25.8062 39.8861
25.8521 39.8917
25.8977 39.9354
25.9436 40.1758
25.9893 40.4262
26.0352 40.988
26.0809 40.9694
26.1268 41.014
26.1725 40.6172
26.2184 39.9338
26.2641 39.4907
26.31 39.4288
26.3557 39.5098
26.4017 39.4677
26.4474 39.6172
26.4933 40.1603
26.5391 40.559
26.585 41.2209
26.6308 41.6063
26.6767 41.5039
26.7225 41.1701
26.7684 40.5435
26.8142 40.1317
26.8601 39.7596
26.9059 39.2243
26.9519 38.7774
26.9979 38.5273
27.0437 38.109
27.0896 38.0826
27.1354 38.113
27.1814 37.8618
27.2272 37.817
27.2732 37.9548
27.3191 37.7785
27.3651 37.7842
27.4109 37.731
27.4569 37.8202
27.5027 37.9559
27.5488 38.0428
27.5946 37.7668
27.6407 37.4566
27.6865 37.3939
27.7326 37.2633
27.7784 37.2732
27.8245 37.1909
27.8703 37.3365
27.9164 37.6996
27.9623 37.9419
28.0084 38.1522
28.0543 38.676
28.1003 38.4404
28.1462 38.0807
28.1923 37.7235
28.2384 37.2479
28.2843 36.9059
28.3304 36.4596
28.3764 35.9523
28.4225 35.7427
28.4684 35.611
28.5145 35.2912
28.5605 35.3467
28.6066 35.0927
28.6526 35.0061
28.6987 34.9446
28.7447 34.8578
28.7908 34.8427
28.8368 34.8399
28.8829 34.9027
28.9289 34.7216
28.9751 34.5276
29.0211 34.3405
29.0673 33.9555
29.1133 33.9133
29.1595 33.7698
29.2055 33.7288
29.2517 33.7314
29.2977 33.747
29.3439 33.7249
29.3899 33.6937
29.4361 33.5077
29.4824 33.4553
29.5284 33.1751
29.5746 32.8173
29.6207 32.6146
29.6669 32.5378
29.713 32.4066
29.7593 32.3023
29.8053 32.2845
29.8516 32.1342
29.8977 32.0813
29.9439 32.1193
29.99 32.0552
30.0363 31.9495
30.0824 32.1131
30.1287 31.8498
30.1748 31.971
30.2211 31.8574
30.2673 31.7555
30.3136 31.7125
30.3597 31.6691
30.406 31.5059
30.4522 31.5624
30.4985 31.5126
30.5447 31.5914
30.591 31.6893
30.6372 31.7088
30.6835 31.7119
30.7297 31.7324
30.7761 31.6476
30.8224 31.4573
30.8686 31.2576
30.915 30.9126
30.9612 30.9677
31.0076 30.6947
31.0538 30.6191
31.1002 30.6465
31.1464 30.4091
31.1928 30.4686
31.2391 30.4031
31.2855 30.3612
31.3317 30.3695
31.3781 30.3546
31.4244 30.3109
31.4708 30.3333
31.5171 30.3491
31.5636 30.2466
31.6098 29.9775
31.6563 29.7882
31.7026 29.7177
31.7491 29.6401
31.7953 29.719
31.8418 29.6231
31.8881 29.641
31.9346 29.5956
31.9809 29.5209
32.0275 29.444
32.074 29.1925
32.1203 29.0472
32.1668 29.0223
32.2132 28.9124
32.2597 28.69
32.306 28.6188
32.3526 28.5481
32.399 28.4324
32.4455 28.2659
32.4919 28.2241
32.5385 28.1641
32.5848 28.1304
32.6314 28.0951
32.6778 27.9692
32.7244 27.7463
32.7708 27.6412
32.8174 27.7311
32.8638 27.5602
32.9104 27.5859
32.9569 27.5361
33.0035 27.4737
33.0499 27.3917
33.0966 27.3562
33.143 27.3014
33.1897 27.3091
33.2361 27.2293
33.2828 27.1323
33.3293 26.9967
33.3759 26.9868
33.4226 26.8051
33.4691 26.6796
33.5158 26.5936
33.5623 26.4736
33.609 26.3415
33.6555 26.3185
33.7022 26.1228
33.7487 26.0981
33.7954 26.0337
33.842 25.9769
33.8887 25.8588
33.9353 25.7652
33.982 25.7478
34.0286 25.6109
34.0753 25.4985
34.1219 25.4001
34.1687 25.4161
34.2152 25.3392
34.262 25.2699
34.3086 25.0807
34.3554 25.1014
34.402 24.9665
34.4488 24.7722
34.4954 24.8171
34.5422 24.7715
34.5889 24.5133
34.6357 24.5362
34.6825 24.4476
34.7292 24.3804
34.776 24.3404
34.8227 24.2519
34.8695 24.1873
34.9162 24.1532
34.9631 24.0734
35.0098 24.1454
35.0566 23.9806
35.1033 23.854
35.1502 23.8067
35.1969 23.7754
35.2438 23.7865
35.2906 23.6523
35.3375 23.6575
35.3842 23.6366
35.4311 23.5694
35.4779 23.5019
35.5248 23.3883
35.5716 23.3265
35.6185 23.2367
35.6653 23.1901
35.7123 23.186
35.759 23.1471
35.806 22.9157
35.8528 22.8811
35.8998 22.782
35.9468 22.7769
35.9936 22.6345
36.0406 22.5431
36.0874 22.6168
36.1345 22.5538
36.1813 22.4142
36.2283 22.3662
36.2752 22.1882
36.3222 22.262
36.3691 22.1861
36.4161 22.0433
36.463 22.1219
36.5101 22.049
36.557 21.974
36.6041 21.7968
36.651 21.8093
36.6981 21.7549
36.745 21.608
36.7921 21.5538
36.839 21.4605
36.8861 21.3945
36.9331 21.4006
36.9802 21.2706
37.0272 21.2467
37.0743 21.1719
37.1213 21.0971
37.1684 21.0996
37.2154 21.0192
37.2626 20.896
37.3098 20.7863
37.3568 20.7887
37.404 20.7226
37.451 20.6678
37.4982 20.6108
37.5452 20.4595
37.5924 20.3976
37.6395 20.4701
37.6867 20.375
37.7337 20.251
37.781 20.0961
37.8281 20.1662
37.8753 20.0261
37.9224 20.0412
37.9697 19.9016
38.0168 19.8519
38.064 19.8102
38.1111 19.6497
38.1584 19.6875
38.2056 19.5694
38.2529 19.5796
38.3 19.5071
38.3473 19.4704
38.3945 19.335
38.4418 19.2786
38.489 19.2084
38.5363 19.1139
38.5837 19.144
38.6309 19.0774
38.6782 19.0093
38.7254 18.9113
38.7728 18.8772
38.82 18.7193
38.8674 18.7835
38.9146 18.6582
38.9621 18.6873
39.0093 18.5961
39.0567 18.4908
39.104 18.4738
39.1514 18.392
39.1987 18.361
39.2461 18.3487
39.2934 18.172
39.3409 18.129
39.3882 18.1208
39.4356 18.0584
39.483 17.9771
39.5304 17.9689
39.5778 17.8862
39.6253 17.8023
39.6726 17.8038
39.7201 17.8027
39.7675 17.659
39.815 17.5737
39.8624 17.5713
39.9099 17.5196
39.9575 17.3871
40.0049 17.4653
40.0525 17.3146
40.0999 17.332
40.1474 17.2189
40.1949 17.2074
40.2425 17.1102
40.2899 17.0942
40.3375 17.0158
40.385 16.9608
40.4326 16.9319
40.48 16.8292
40.5277 16.8194
40.5752 16.72
40.6228 16.6914
40.6703 16.6466
40.718 16.6241
40.7655 16.5614
40.8132 16.5073
40.8607 16.4687
40.9084 16.3536
40.9559 16.3466
41.0036 16.2926
41.0512 16.1641
41.0989 16.2017
41.1465 16.1336
41.1942 15.9903
41.242 15.9794
41.2896 15.9667
41.3373 15.8982
41.3849 15.8498
41.4327 15.8152
41.4803 15.7311
41.5281 15.6878
41.5758 15.6066
41.6236 15.5491
41.6712 15.5756
41.7191 15.4508
41.7667 15.4426
41.8146 15.3796
41.8622 15.3386
41.9101 15.291
41.9578 15.2138
42.0057 15.1418
42.0534 15.165
42.1013 15.0543
42.149 15.0561
42.1969 14.9608
42.2446 14.9053
42.2925 14.8554
42.3403 14.8272
42.3882 14.8252
42.436 14.7283
42.4839 14.6449
42.5319 14.6203
42.5797 14.5632
42.6277 14.5596
42.6755 14.4913
42.7235 14.3901
42.7713 14.3414
42.8193 14.3482
42.8671 14.2819
42.9152 14.2508
42.963 14.2028
43.0111 14.0883
43.0589 14.075
43.107 14.0678
43.1549 13.9601
43.2029 13.8948
43.2508 13.9061
43.2989 13.8065
43.3468 13.7555
43.3949 13.7709
43.4429 13.6989
43.491 13.6837
43.5389 13.5651
43.5871 13.5292
43.635 13.4966
43.6832 13.4734
43.7312 13.4228
43.7793 13.3265
43.8273 13.3263
43.8755 13.2531
43.9237 13.2065
43.9717 13.1969
44.0199 13.1382
44.068 13.0965
44.1162 13.0663
44.1642 13.0219
44.2125 12.9661
44.2606 12.8947
44.3088 12.8774
44.3569 12.8436
44.4052 12.8289
44.4533 12.7593
44.5016 12.7009
44.5497 12.6216
44.598 12.6664
44.6461 12.5069
44.6945 12.5046
44.7426 12.4934
44.791 12.4061
44.8391 12.4322
44.8875 12.3809
44.9357 12.326
44.984 12.219
45.0322 12.1553
45.0806 12.1636
45.1288 12.0933
45.1773 12.058
45.2257 12.0476
45.2739 11.9554
45.3224 11.9501
45.3706 11.9741
45.4191 11.851
45.4673 11.808
45.5158 11.7949
45.5641 11.7368
45.6126 11.6999
45.6609 11.6254
45.7094 11.592
45.7577 11.5453
45.8063 11.5019
45.8546 11.4938
45.9031 11.458
45.9515 11.4319
46.0001 11.413
46.0484 11.3136
46.097 11.3005
46.1454 11.2329
46.194 11.2
46.2424 11.148
46.291 11.1269
46.3395 11.0688
46.3881 11.0119
46.4365 11.0378
46.4852 10.9678
46.5337 10.9197
46.5823 10.9045
46.631 10.816
46.6795 10.8154
46.7282 10.7582
46.7767 10.7544
46.8254 10.6261
46.8739 10.6434
46.9226 10.5935
46.9712 10.5523
47.0199 10.5359
47.0685 10.4902
47.1173 10.4689
47.1658 10.3879
47.2146 10.3607
47.2632 10.3024
47.312 10.2852
47.3606 10.2511
47.4095 10.2506
47.4581 10.2169
47.5069 10.1364
47.5556 10.1343
47.6044 10.0859
47.6531 10.0408
47.702 9.992
47.7507 9.94069
47.7996 9.91609
47.8483 9.90337
47.8972 9.8728
47.9461 9.80427
47.9948 9.75028
48.0438 9.69013
48.0925 9.70559
48.1415 9.68597
48.1902 9.64653
48.2392 9.62097
48.288 9.55347
48.337 9.54107
48.3858 9.50922
48.4348 9.45951
48.4837 9.41255
48.5327 9.4035
48.5815 9.36034
48.6306 9.34414
48.6795 9.31937
48.7285 9.246
48.7774 9.18891
48.8265 9.19172
48.8754 9.16225
48.9245 9.1283
48.9734 9.09093
49.0226 9.04518
49.0715 8.99505
49.1206 8.98319
49.1696 8.93711
49.2188 8.90316
49.2679 8.85367
49.3169 8.85361
49.3661 8.77846
49.4151 8.78839
49.4643 8.76704
49.5134 8.73487
49.5626 8.65648
49.6117 8.65565
49.6609 8.62435
49.71 8.5667
49.7592 8.57752
49.8083 8.49679
49.8576 8.53925
49.9067 8.48193
49.956 8.4274
50.0052 8.36789
50.0545 8.3795
50.1036 8.31512
50.153 8.31962
50.2022 8.24314
50.2515 8.22816
50.3007 8.17976
50.3501 8.17028
50.3993 8.09453
50.4487 8.08482
50.498 8.04582
50.5474 8.06572
50.5966 7.98376
50.6461 7.96462
50.6955 7.95993
50.7448 7.93708
50.7943 7.88383
50.8436 7.85486
50.8931 7.85743
50.9424 7.76708
50.9919 7.7822
51.0413 7.76695
51.0908 7.72459
51.1402 7.67539
51.1897 7.63119
51.2391 7.59931
51.2887 7.57544
51.3381 7.54736
51.3877 7.54721
51.4371 7.4962
51.4867 7.42238
51.5362 7.42734
51.5858 7.42361
51.6353 7.33181
51.6849 7.3164
51.7344 7.29351
51.7841 7.27693
51.8336 7.25514
51.8833 7.21192
51.9328 7.18671
51.9826 7.14247
52.0323 7.13995
52.0818 7.07194
52.1316 7.0662
52.1812 7.05501
52.231 7.02567
52.2806 6.96915
52.3304 6.96748
52.38 6.92296
52.4298 6.85779
52.4794 6.8814
52.5293 6.84021
52.5789 6.79473
52.6288 6.80254
52.6785 6.7352
52.7284 6.72606
52.7781 6.70239
52.828 6.67139
52.8777 6.62963
52.9276 6.5894
52.9774 6.59211
53.0273 6.54985
53.0771 6.53329
53.1271 6.49754
53.1769 6.48287
53.2269 6.45378
53.2767 6.39625
53.3267 6.36299
53.3765 6.3541
53.4266 6.31839
53.4766 6.30123
53.5265 6.26489
53.5765 6.27742
53.6264 6.20718
53.6765 6.21299
53.7264 6.19284
53.7765 6.12313
53.8265 6.12472
53.8766 6.07079
53.9266 6.07792
53.9767 6.06173
54.0267 6.02048
54.0769 5.96222
54.1269 5.95431
54.1771 5.91427
54.2271 5.89914
54.2773 5.88961
54.3274 5.85909
54.3776 5.78188
54.4277 5.78519
54.478 5.73908
54.528 5.70701
54.5783 5.65734
54.6285 5.65026
54.6788 5.62329
54.7289 5.56841
54.7792 5.49594
54.8296 5.45371
54.8798 5.44859
54.9301 5.42035
54.9803 5.35745
55.0307 5.36189
55.0809 5.25426
55.1314 5.29475
55.1816 5.20888
55.232 5.18018
55.2823 5.1361
55.3328 5.06955
55.383 4.99427
55.4335 4.98775
55.4838 4.91381
55.5344 4.94451
55.5847 4.84295
55.6352 4.83312
55.6856 4.72393
55.7361 4.70842