File: XRD/Ni3Fe_FD0934.xy
TT I
1.27165 7.07449
1.31627 5.99342
1.36089 6.13076
1.40551 5.67611
1.45013 6.02797
1.49476 5.10777
1.53938 5.61938
1.584 5.24618
1.62863 6.02804
1.67325 5.41945
1.71787 5.17189
1.7625 4.87255
1.80712 4.66493
1.85174 4.54596
1.89636 4.84733
1.94099 4.8413
1.98562 4.98753
2.03025 4.64356
2.07487 4.53715
2.11949 5.35074
2.16411 4.80431
2.20874 7.79519
2.25338 10.3967
2.298 5.72696
2.34263 5.9361
2.38725 6.31278
2.43188 6.84691
2.4765 7.04417
2.52115 7.59838
2.56577 7.68482
2.6104 8.8878
2.65503 8.33762
2.69965 8.59706
2.7443 8.15181
2.78893 8.82547
2.83356 8.87128
2.87818 9.10758
2.92281 8.85605
2.96744 9.62061
3.01209 10.9046
3.05672 10.7706
3.10135 12.1758
3.14599 13.1464
3.19062 14.3497
3.23527 15.1461
3.2799 15.5254
3.32454 16.641
3.36917 17.4851
3.4138 18.7358
3.45844 19.5761
3.50309 20.488
3.54773 21.0895
3.59237 23.3671
3.637 44.249
3.68164 34.2618
3.7263 24.8678
3.77094 25.6394
3.81558 26.3113
3.86022 26.9573
3.90486 28.6915
3.9495 29.3764
3.99416 30.3853
4.0388 31.6089
4.08344 32.7253
4.12809 34.0368
4.17273 35.4587
4.21738 37.9987
4.26204 104.862
4.30669 91.9643
4.35133 43.538
4.39598 43.1224
4.44063 47.189
4.4853 52.3539
4.52995 58.1994
4.5746 59.194
4.61925 53.23
4.6639 55.3468
4.70855 57.652
4.75322 61.3933
4.79788 68.7597
4.84253 67.7276
4.88719 75.6052
4.93184 76.2477
4.97652 80.2553
5.02118 86.3131
5.06583 93.7751
5.11049 104.591
5.15515 152.819
5.19981 369.821
5.24449 2765.58
5.28916 13551.5
5.33382 2710.88
5.37848 195.826
5.42315 129.808
5.46783 119.677
5.5125 113.489
5.55716 101.01
5.60183 96.7016
5.6465 94.8208
5.69117 93.5583
5.73586 91.9402
5.78053 99.456
5.8252 99.3857
5.86988 102.499
5.91455 93.9229
5.95924 102.314
6.00392 228.107
6.0486 909.147
6.09328 4657.2
6.13795 2987.87
6.18263 193.279
6.22733 87.8382
6.27201 78.6898
6.3167 81.0962
6.36138 72.7065
6.40606 69.2245
6.45075 69.7927
6.49545 64.7795
6.54014 62.5614
6.58483 62.3194
6.62952 62.4451
6.67421 70.0725
6.71892 83.4373
6.76361 60.9169
6.8083 59.2488
6.853 60.4626
6.89769 56.4369
6.94239 55.377
6.98711 54.905
7.03181 55.0999
7.07651 54.1546
7.12121 54.1119
7.16591 55.978
7.21063 54.8728
7.25533 58.7321
7.30004 90.101
7.34475 64.7174
7.38945 54.0585
7.43416 52.8435
7.47889 53.2028
7.5236 53.4342
7.56831 54.2812
7.61303 54.4887
7.65774 55.5786
7.70247 56.4021
7.74719 56.0323
7.79191 55.8261
7.83663 56.0983
7.88135 56.4851
7.92607 57.8429
7.97081 58.6761
8.01553 60.3564
8.06026 62.0048
8.10498 63.2685
8.14971 70.5292
8.19446 70.4156
8.23919 68.5313
8.28392 70.8276
8.32865 72.9508
8.37339 77.1857
8.41812 82.1516
8.46288 99.7793
8.50761 170.979
8.55235 364.225
8.59709 1204.73
8.64183 2222.09
8.68658 837.888
8.73134 139.379
8.77609 96.1884
8.82083 91.0342
8.86558 92.5346
8.91033 92.0602
8.9551 88.821
8.99985 84.2889
9.04461 82.7139
9.08936 83.692
9.13412 82.2241
9.17888 80.8465
9.22365 81.2468
9.26841 80.9956
9.31318 84.2004
9.35794 86.9441
9.4027 85.894
9.44749 84.5043
9.49226 83.5447
9.53703 84.8732
9.5818 88.766
9.62657 94.8651
9.67134 94.7462
9.71614 91.63
9.76091 93.8893
9.80569 98.7595
9.85047 100.579
9.89525 109.715
9.94005 123.775
9.98484 183.712
10.0296 329.383
10.0744 825.004
10.1192 1840.94
10.164 1459.92
10.2088 325.759
10.2536 118.513
10.2984 106.985
10.3432 105.903
10.388 103.333
10.4328 119.551
10.4776 157.895
10.5224 289.894
10.5672 544.967
10.612 482.534
10.6568 177.605
10.7017 92.2082
10.7465 84.9153
10.7913 81.9776
10.8361 79.7085
10.8809 77.6162
10.9257 76.9724
10.9706 77.0717
11.0154 74.7012
11.0602 72.1204
11.105 70.3651
11.1499 70.7014
11.1947 72.1046
11.2395 68.4843
11.2844 67.1767
11.3292 65.7506
11.374 65.0574
11.4189 64.5066
11.4637 63.5535
11.5086 63.6111
11.5534 64.0899
11.5983 63.0364
11.6431 62.4384
11.688 61.8151
11.7328 61.8518
11.7777 61.7467
11.8225 61.8921
11.8674 61.6275
11.9122 61.6646
11.9571 61.9635
12.002 63.6887
12.0468 67.8183
12.0917 77.0367
12.1366 102.047
12.1814 158.784
12.2263 209.857
12.2712 153.451
12.3161 85.4714
12.3609 65.5521
12.4058 62.959
12.4507 63.3584
12.4956 63.6237
12.5405 64.1731
12.5853 64.3441
12.6302 66.5559
12.6751 68.8788
12.72 66.769
12.7649 66.6105
12.8098 67.2308
12.8547 68.9237
12.8996 70.4601
12.9445 71.9476
12.9894 73.7177
13.0343 75.0307
13.0792 79.6762
13.1242 91.3969
13.1691 108.986
13.214 145.676
13.2589 246.098
13.3038 393.09
13.3487 419.197
13.3937 228.472
13.4386 114.247
13.4835 103.979
13.5285 117.571
13.5734 157.881
13.6183 259.609
13.6633 373.266
13.7082 323.933
13.7531 166.213
13.7981 91.7105
13.843 80.091
13.888 78.586
13.9329 76.0712
13.9779 74.6444
14.0228 73.1286
14.0678 72.1253
14.1127 71.5326
14.1577 70.5323
14.2027 70.182
14.2476 69.4413
14.2926 68.6774
14.3376 68.8604
14.3825 68.8828
14.4275 67.7757
14.4725 67.734
14.5175 68.0055
14.5624 67.7736
14.6074 68.6257
14.6524 69.3013
14.6974 69.4751
14.7424 72.7814
14.7874 78.1995
14.8324 87.4962
14.8774 110.451
14.9224 159.701
14.9674 220.534
15.0124 213.377
15.0574 136.64
15.1024 84.0675
15.1474 70.9386
15.1924 69.2574
15.2374 68.1213
15.2824 67.2894
15.3274 65.7792
15.3725 65.5719
15.4175 65.4617
15.4625 64.8583
15.5076 64.55
15.5526 64.6913
15.5976 64.8141
15.6426 67.0276
15.6877 71.4668
15.7327 78.7123
15.7778 94.0026
15.8228 128.206
15.8679 177.452
15.9129 195.126
15.958 145.748
16.003 87.1146
16.0481 64.666
16.0931 61.9
16.1382 60.1866
16.1833 59.0932
16.2283 57.8825
16.2734 57.1506
16.3185 56.7409
16.3636 56.4683
16.4086 55.7343
16.4537 55.0507
16.4988 54.4222
16.5439 54.4697
16.589 54.3848
16.6341 53.8856
16.6792 53.5661
16.7243 53.6435
16.7694 53.7015
16.8145 53.7168
16.8596 54.0887
16.9047 54.6573
16.9498 54.7842
16.9949 54.2697
17.04 55.1911
17.0851 56.1837
17.1302 57.6241
17.1754 60.5326
17.2205 66.3603
17.2656 74.8141
17.3108 83.3855
17.3559 80.1089
17.401 67.5383
17.4462 60.2672
17.4913 58.2553
17.5365 58.2279
17.5815 58.3591
17.6268 58.6706
17.6718 59.22
17.7171 59.6743
17.7622 60.3762
17.8074 61.4429
17.8525 64.1782
17.8977 67.4158
17.9428 72.1966
17.9881 81.8068
18.0331 101.211
18.0784 126.602
18.1237 140.798
18.1688 125.6
18.214 96.7983
18.2591 83.7171
18.3044 90.7188
18.3495 101.695
18.3948 104.991
18.4399 90.8396
18.4852 72.8329
18.5303 63.7696
18.5756 60.9914
18.6207 60.1152
18.666 59.4088
18.7112 58.5913
18.7565 57.8571
18.8016 57.581
18.8469 57.059
18.892 56.9168
18.9374 56.2106
18.9825 55.7707
19.0278 55.8711
19.073 55.863
19.1183 56.2877
19.1635 56.7709
19.2088 58.2797
19.254 61.2064
19.2993 66.2889
19.3447 72.1465
19.3898 74.9908
19.4352 69.0774
19.4804 60.3193
19.5257 55.0505
19.5709 53.1757
19.6163 52.8691
19.6615 52.7136
19.7068 52.5215
19.752 52.4115
19.7974 52.8602
19.8426 53.418
19.888 53.8971
19.9332 55.4003
19.9786 58.0916
20.0238 62.4554
20.0692 67.3961
20.1144 69.4919
20.1598 66.2065
20.205 61.7881
20.2504 61.4674
20.2957 64.1283
20.3411 65.5627
20.3863 62.3063
20.4318 56.2375
20.477 51.6196
20.5224 50.1649
20.5677 49.7162
20.6131 49.1886
20.6586 48.8552
20.7038 48.6303
20.7493 48.2928
20.7945 48.0864
20.84 48.0963
20.8853 47.9282
20.9307 47.6307
20.976 47.9434
21.0215 47.6594
21.0668 48.1841
21.1122 48.4319
21.1575 49.272
21.203 50.2563
21.2483 50.71
21.2938 50.4704
21.3391 48.9334
21.3846 47.9748
21.4299 47.5792
21.4754 47.6755
21.5207 47.9535
21.5662 48.1528
21.6116 48.4891
21.6571 49.0314
21.7024 50.0772
21.7479 51.8549
21.7933 54.9621
21.8388 58.9021
21.8843 63.1588
21.9297 64.1595
21.9752 61.4016
22.0206 57.5134
22.0661 55.3162
22.1115 55.4119
22.157 55.0976
22.2024 52.6876
22.248 50.0266
22.2933 48.6626
22.3389 48.2429
22.3843 48.0305
22.4299 47.919
22.4753 47.8927
22.5208 47.7764
22.5662 47.7131
22.6118 47.9272
22.6572 48.1205
22.7028 48.4311
22.7483 48.9611
22.7939 49.562
22.8393 51.3258
22.8849 53.6705
22.9303 56.0911
22.9759 57.233
23.0214 56.0234
23.067 52.807
23.1126 49.6037
23.1581 48.3143
23.2037 47.9649
23.2492 48.0993
23.2948 48.0469
23.3403 48.2451
23.3859 48.9424
23.4314 50.0456
23.477 52.195
23.5225 54.7538
23.5682 56.9941
23.6137 57.2599
23.6593 54.1266
23.7048 50.0623
23.7505 46.8789
23.796 45.7091
23.8417 45.1929
23.8872 44.8204
23.9329 44.3964
23.9784 44.0096
24.0241 43.738
24.0697 43.5827
24.1154 43.2671
24.1609 43.0137
24.2066 42.9326
24.2522 42.9558
24.2979 42.7531
24.3434 42.5813
24.3892 42.4201
24.4349 42.3332
24.4805 42.1576
24.5262 42.4588
24.5718 42.3646
24.6175 42.198
24.6631 42.0563
24.7089 41.6135
24.7545 41.5908
24.8002 41.514
24.8458 41.5173
24.8916 41.4375
24.9372 41.4806
24.983 41.9691
25.0286 42.1512
25.0744 42.6711
25.12 43.306
25.1658 43.7036
25.2114 43.9465
25.2572 44.0409
25.3029 44.3251
25.3487 44.3174
25.3943 43.7455
25.4402 42.4153
25.4858 41.3149
25.5316 40.4704
25.5773 40.2682
25.6231 40.1879
25.669 39.8698
25.7147 39.8789
25.7605 39.6846
25.8062 39.7891
25.8521 39.8234
25.8977 39.9392
25.9436 40.0907
25.9893 40.5046
26.0352 41.0992
26.0809 41.0808
26.1268 41.1657
26.1725 40.567
26.2184 39.9146
26.2641 39.5641
26.31 39.3751
26.3557 39.4045
26.4017 39.4154
26.4474 39.7345
26.4933 40.1285
26.5391 40.579
26.585 41.174
26.6308 41.6409
26.6767 41.5836
26.7225 41.1695
26.7684 40.6776
26.8142 40.0637
26.8601 39.8393
26.9059 39.2334
26.9519 38.7672
26.9979 38.5753
27.0437 38.2505
27.0896 37.9297
27.1354 38.0929
27.1814 37.908
27.2272 37.8084
27.2732 37.8494
27.3191 37.6518
27.3651 37.8849
27.4109 37.7561
27.4569 37.9824
27.5027 38.0021
27.5488 38.0088
27.5946 37.6496
27.6407 37.5548
27.6865 37.5081
27.7326 37.1773
27.7784 37.3647
27.8245 37.1563
27.8703 37.3504
27.9164 37.6088
27.9623 37.9209
28.0084 38.2485
28.0543 38.7126
28.1003 38.3112
28.1462 38.0835
28.1923 37.8165
28.2384 37.3688
28.2843 36.9351
28.3304 36.4881
28.3764 35.9318
28.4225 35.7498
28.4684 35.6097
28.5145 35.201
28.5605 35.1463
28.6066 35.057
28.6526 35.0654
28.6987 35.0836
28.7447 34.9045
28.7908 34.8615
28.8368 34.9557
28.8829 34.8616
28.9289 34.6948
28.9751 34.5484
29.0211 34.3169
29.0673 34.1266
29.1133 33.9398
29.1595 33.7243
29.2055 33.7838
29.2517 33.7995
29.2977 33.7601
29.3439 33.7257
29.3899 33.6691
29.4361 33.5431
29.4824 33.3085
29.5284 33.1839
29.5746 32.7611
29.6207 32.573
29.6669 32.5076
29.713 32.377
29.7593 32.3348
29.8053 32.3628
29.8516 32.1637
29.8977 32.2966
29.9439 32.1245
29.99 31.9952
30.0363 31.9788
30.0824 31.9434
30.1287 31.8783
30.1748 31.884
30.2211 31.9402
30.2673 31.7721
30.3136 31.8525
30.3597 31.7655
30.406 31.6078
30.4522 31.5598
30.4985 31.5809
30.5447 31.6548
30.591 31.5978
30.6372 31.6739
30.6835 31.6803
30.7297 31.6274
30.7761 31.5289
30.8224 31.3812
30.8686 31.4086
30.915 31.1437
30.9612 30.963
31.0076 30.7583
31.0538 30.5557
31.1002 30.5034
31.1464 30.4172
31.1928 30.4949
31.2391 30.4623
31.2855 30.3791
31.3317 30.3544
31.3781 30.3909
31.4244 30.3842
31.4708 30.335
31.5171 30.2325
31.5636 30.1302
31.6098 30.0372
31.6563 29.8678
31.7026 29.8155
31.7491 29.6104
31.7953 29.6985
31.8418 29.628
31.8881 29.6399
31.9346 29.6464
31.9809 29.5788
32.0275 29.4093
32.074 29.3605
32.1203 29.0228
32.1668 29.0455
32.2132 28.8434
32.2597 28.8511
32.306 28.8241
32.3526 28.4943
32.399 28.4642
32.4455 28.2607
32.4919 28.2431
32.5385 28.0826
32.5848 27.9707
32.6314 27.9927
32.6778 27.8667
32.7244 27.8437
32.7708 27.6201
32.8174 27.6625
32.8638 27.55
32.9104 27.5651
32.9569 27.5273
33.0035 27.3719
33.0499 27.4387
33.0966 27.3541
33.143 27.2801
33.1897 27.2873
33.2361 27.1532
33.2828 27.1371
33.3293 26.9318
33.3759 26.9195
33.4226 26.6828
33.4691 26.6645
33.5158 26.6147
33.5623 26.3874
33.609 26.3208
33.6555 26.2183
33.7022 26.1208
33.7487 26.0961
33.7954 26.0627
33.842 25.9921
33.8887 25.8118
33.9353 25.7931
33.982 25.6684
34.0286 25.559
34.0753 25.5333
34.1219 25.3999
34.1687 25.4149
34.2152 25.4393
34.262 25.1431
34.3086 25.2038
34.3554 25.0868
34.402 24.9438
34.4488 24.871
34.4954 24.7745
34.5422 24.7516
34.5889 24.6818
34.6357 24.4963
34.6825 24.5658
34.7292 24.4629
34.776 24.3038
34.8227 24.3292
34.8695 24.1893
34.9162 24.1926
34.9631 24.0978
35.0098 24.0933
35.0566 23.8439
35.1033 23.8185
35.1502 23.8951
35.1969 23.7625
35.2438 23.7544
35.2906 23.6752
35.3375 23.67
35.3842 23.592
35.4311 23.5733
35.4779 23.5552
35.5248 23.4925
35.5716 23.4103
35.6185 23.3101
35.6653 23.2652
35.7123 23.1884
35.759 23.0435
35.806 22.9962
35.8528 22.842
35.8998 22.8291
35.9468 22.7832
35.9936 22.6623
36.0406 22.5692
36.0874 22.5876
36.1345 22.5548
36.1813 22.4683
36.2283 22.3186
36.2752 22.2451
36.3222 22.2575
36.3691 22.2171
36.4161 22.0494
36.463 22.0632
36.5101 22.039
36.557 21.9511
36.6041 21.8084
36.651 21.856
36.6981 21.6899
36.745 21.6421
36.7921 21.6272
36.839 21.528
36.8861 21.4292
36.9331 21.3464
36.9802 21.3287
37.0272 21.2277
37.0743 21.1034
37.1213 21.0696
37.1684 21.1033
37.2154 20.9475
37.2626 20.8658
37.3098 20.9271
37.3568 20.7211
37.404 20.7233
37.451 20.6063
37.4982 20.5571
37.5452 20.4582
37.5924 20.4623
37.6395 20.4627
37.6867 20.3654
37.7337 20.2706
37.781 20.1623
37.8281 20.1169
37.8753 20.0048
37.9224 20.0065
37.9697 19.9637
38.0168 19.8354
38.064 19.8092
38.1111 19.7895
38.1584 19.7048
38.2056 19.5707
38.2529 19.5919
38.3 19.4446
38.3473 19.4384
38.3945 19.3308
38.4418 19.3499
38.489 19.2659
38.5363 19.201
38.5837 19.0944
38.6309 19.0021
38.6782 18.998
38.7254 18.9094
38.7728 18.8726
38.82 18.7792
38.8674 18.7395
38.9146 18.6645
38.9621 18.6548
39.0093 18.5803
39.0567 18.5342
39.104 18.4928
39.1514 18.4129
39.1987 18.4211
39.2461 18.3228
39.2934 18.2459
39.3409 18.133
39.3882 18.0631
39.4356 18.0735
39.483 17.942
39.5304 17.8816
39.5778 17.8898
39.6253 17.8154
39.6726 17.8285
39.7201 17.767
39.7675 17.6718
39.815 17.5981
39.8624 17.534
39.9099 17.5461
39.9575 17.4695
40.0049 17.3313
40.0525 17.3298
40.0999 17.301
40.1474 17.2529
40.1949 17.2118
40.2425 17.0851
40.2899 16.9752
40.3375 16.9814
40.385 16.9525
40.4326 16.8389
40.48 16.8379
40.5277 16.8768
40.5752 16.7052
40.6228 16.6675
40.6703 16.6429
40.718 16.6083
40.7655 16.5426
40.8132 16.4552
40.8607 16.4796
40.9084 16.3966
40.9559 16.3427
41.0036 16.2105
41.0512 16.2422
41.0989 16.2198
41.1465 16.1544
41.1942 16.096
41.242 15.9869
41.2896 15.9291
41.3373 15.8855
41.3849 15.8706
41.4327 15.7742
41.4803 15.7131
41.5281 15.6547
41.5758 15.6404
41.6236 15.5187
41.6712 15.5047
41.7191 15.4704
41.7667 15.3989
41.8146 15.3668
41.8622 15.2975
41.9101 15.2872
41.9578 15.1566
42.0057 15.2085
42.0534 15.0684
42.1013 15.0544
42.149 15.0241
42.1969 14.9613
42.2446 14.939
42.2925 14.8617
42.3403 14.824
42.3882 14.7725
42.436 14.75
42.4839 14.6602
42.5319 14.6017
42.5797 14.5776
42.6277 14.5196
42.6755 14.4943
42.7235 14.4321
42.7713 14.4033
42.8193 14.3812
42.8671 14.2878
42.9152 14.17
42.963 14.1643
43.0111 14.1255
43.0589 14.041
43.107 14.0094
43.1549 14.002
43.2029 13.8885
43.2508 13.8583
43.2989 13.8284
43.3468 13.7647
43.3949 13.7271
43.4429 13.7091
43.491 13.7166
43.5389 13.5957
43.5871 13.6097
43.635 13.4736
43.6832 13.491
43.7312 13.3358
43.7793 13.3716
43.8273 13.3609
43.8755 13.2338
43.9237 13.2344
43.9717 13.2056
44.0199 13.1307
44.068 13.1234
44.1162 13.0123
44.1642 13.0549
44.2125 12.9126
44.2606 12.9298
44.3088 12.8752
44.3569 12.8354
44.4052 12.7808
44.4533 12.7117
44.5016 12.697
44.5497 12.651
44.598 12.6064
44.6461 12.5736
44.6945 12.5279
44.7426 12.4828
44.791 12.3974
44.8391 12.4298
44.8875 12.3471
44.9357 12.2998
44.984 12.2595
45.0322 12.2125
45.0806 12.1663
45.1288 12.1435
45.1773 12.0486
45.2257 11.9772
45.2739 11.976
45.3224 11.9923
45.3706 11.9183
45.4191 11.8403
45.4673 11.7814
45.5158 11.7744
45.5641 11.73
45.6126 11.6629
45.6609 11.644
45.7094 11.6031
45.7577 11.5584
45.8063 11.483
45.8546 11.5318
45.9031 11.4825
45.9515 11.4184
46.0001 11.3759
46.0484 11.3188
46.097 11.3228
46.1454 11.2846
46.194 11.219
46.2424 11.1536
46.291 11.1389
46.3395 11.0813
46.3881 11.0033
46.4365 11.0242
46.4852 10.976
46.5337 10.9656
46.5823 10.9034
46.631 10.853
46.6795 10.8522
46.7282 10.7542
46.7767 10.7316
46.8254 10.6949
46.8739 10.6522
46.9226 10.555
46.9712 10.549
47.0199 10.5244
47.0685 10.4934
47.1173 10.3877
47.1658 10.4145
47.2146 10.3819
47.2632 10.3335
47.312 10.2892
47.3606 10.2562
47.4095 10.2233
47.4581 10.221
47.5069 10.1662
47.5556 10.1195
47.6044 10.0494
47.6531 10.0032
47.702 9.9819
47.7507 9.95978
47.7996 9.89374
47.8483 9.88392
47.8972 9.88648
47.9461 9.81475
47.9948 9.77433
48.0438 9.73459
48.0925 9.72044
48.1415 9.63871
48.1902 9.65971
48.2392 9.63305
48.288 9.58176
48.337 9.53185
48.3858 9.51262
48.4348 9.46364
48.4837 9.44281
48.5327 9.40665
48.5815 9.36801
48.6306 9.32851
48.6795 9.28562
48.7285 9.3075
48.7774 9.23974
48.8265 9.22974
48.8754 9.17959
48.9245 9.13714
48.9734 9.11652
49.0226 9.08604
49.0715 9.04
49.1206 9.00003
49.1696 8.97248
49.2188 8.90646
49.2679 8.89856
49.3169 8.83749
49.3661 8.80262
49.4151 8.78005
49.4643 8.73208
49.5134 8.7177
49.5626 8.62031
49.6117 8.61593
49.6609 8.60425
49.71 8.54442
49.7592 8.54752
49.8083 8.4913
49.8576 8.47879
49.9067 8.43405
49.956 8.42942
50.0052 8.35776
50.0545 8.3898
50.1036 8.32725
50.153 8.29138
50.2022 8.24969
50.2515 8.20176
50.3007 8.17668
50.3501 8.14059
50.3993 8.15027
50.4487 8.11374
50.498 8.08031
50.5474 8.05093
50.5966 7.98662
50.6461 7.99732
50.6955 7.94195
50.7448 7.89796
50.7943 7.8927
50.8436 7.84565
50.8931 7.82528
50.9424 7.84076
50.9919 7.77271
51.0413 7.73037
51.0908 7.68835
51.1402 7.68602
51.1897 7.60783
51.2391 7.61594
51.2887 7.60109
51.3381 7.55737
51.3877 7.51578
51.4371 7.46477
51.4867 7.45676
51.5362 7.42032
51.5858 7.39761
51.6353 7.37223
51.6849 7.3132
51.7344 7.33431
51.7841 7.27926
51.8336 7.2454
51.8833 7.19187
51.9328 7.16144
51.9826 7.16629
52.0323 7.11693
52.0818 7.11907
52.1316 7.06609
52.1812 7.04324
52.231 7.01766
52.2806 6.96361
52.3304 6.96574
52.38 6.9219
52.4298 6.87421
52.4794 6.88849
52.5293 6.83349
52.5789 6.82162
52.6288 6.78505
52.6785 6.7359
52.7284 6.75167
52.7781 6.68778
52.828 6.68004
52.8777 6.6126
52.9276 6.625
52.9774 6.55359
53.0273 6.55123
53.0771 6.52851
53.1271 6.54478
53.1769 6.48363
53.2269 6.44034
53.2767 6.41946
53.3267 6.42498
53.3765 6.38004
53.4266 6.34303
53.4766 6.276
53.5265 6.27639
53.5765 6.23704
53.6264 6.18558
53.6765 6.19757
53.7264 6.17215
53.7765 6.1236
53.8265 6.13668
53.8766 6.12373
53.9266 6.01496
53.9767 6.01871
54.0267 6.00899
54.0769 5.9841
54.1269 5.98453
54.1771 5.89458
54.2271 5.88119
54.2773 5.85597
54.3274 5.85773
54.3776 5.82028
54.4277 5.76009
54.478 5.7246
54.528 5.71791
54.5783 5.654
54.6285 5.6232
54.6788 5.54965
54.7289 5.52013
54.7792 5.55356
54.8296 5.4483
54.8798 5.39508
54.9301 5.34477
54.9803 5.33157
55.0307 5.36653
55.0809 5.26114
55.1314 5.27626
55.1816 5.20823
55.232 5.12131
55.2823 5.10727
55.3328 5.05173
55.383 5.00778
55.4335 4.95468
55.4838 4.90949
55.5344 4.86703
55.5847 4.83722
55.6352 4.83609
55.6856 4.7945
55.7361 4.73242