File: XRD/Ni3Fe_FD0604.xy
TT I
1.27165 7.59306
1.31627 6.64517
1.36089 6.94692
1.40551 7.11376
1.45013 6.25109
1.49476 6.54619
1.53938 5.67299
1.584 5.39469
1.62863 5.09028
1.67325 5.89736
1.71787 5.40749
1.7625 4.45177
1.80712 4.66968
1.85174 4.54995
1.89636 4.57756
1.94099 4.79707
1.98562 5.35685
2.03025 4.20771
2.07487 4.35234
2.11949 4.9663
2.16411 5.03924
2.20874 10.7717
2.25338 16.6407
2.298 5.95048
2.34263 5.17285
2.38725 5.81896
2.43188 5.4603
2.4765 6.78706
2.52115 6.64378
2.56577 7.67144
2.6104 8.04213
2.65503 7.99658
2.69965 8.48264
2.7443 8.0034
2.78893 7.72469
2.83356 8.21923
2.87818 9.26323
2.92281 8.86861
2.96744 9.40523
3.01209 10.086
3.05672 10.5333
3.10135 12.6822
3.14599 13.1741
3.19062 14.0412
3.23527 14.5788
3.2799 16.0039
3.32454 16.7301
3.36917 18.1407
3.4138 19.2667
3.45844 19.5395
3.50309 20.957
3.54773 22.0004
3.59237 24.0402
3.637 69.6573
3.68164 46.4195
3.7263 25.879
3.77094 26.5277
3.81558 26.5737
3.86022 27.7814
3.90486 29.4032
3.9495 30.0491
3.99416 31.039
4.0388 32.5933
4.08344 33.8286
4.12809 34.707
4.17273 37.1083
4.21738 42.0916
4.26204 177.569
4.30669 150.245
4.35133 46.8638
4.39598 44.456
4.44063 51.9312
4.4853 59.3498
4.52995 51.8978
4.5746 52.7626
4.61925 53.7538
4.6639 56.0936
4.70855 58.4164
4.75322 61.6512
4.79788 65.5512
4.84253 68.1243
4.88719 72.9428
4.93184 76.3727
4.97652 81.6043
5.02118 88.121
5.06583 96.366
5.11049 108.07
5.15515 163.149
5.19981 403.248
5.24449 3107.46
5.28916 12213.4
5.33382 2936.63
5.37848 199.517
5.42315 131.688
5.46783 116.116
5.5125 108.524
5.55716 103.511
5.60183 99.8296
5.6465 97.6659
5.69117 95.2424
5.73586 93.8902
5.78053 93.9454
5.8252 93.2221
5.86988 95.1724
5.91455 96.3439
5.95924 105.351
6.00392 235.784
6.0486 1055.06
6.09328 4246.02
6.13795 3452.88
6.18263 255.854
6.22733 94.2016
6.27201 83.5103
6.3167 93.5121
6.36138 77.8764
6.40606 69.8415
6.45075 68.0071
6.49545 65.9592
6.54014 64.2076
6.58483 63.6582
6.62952 63.0196
6.67421 84.7351
6.71892 113.739
6.76361 65.0023
6.8083 59.0175
6.853 58.4141
6.89769 57.0524
6.94239 56.837
6.98711 56.0314
7.03181 56.016
7.07651 55.6242
7.12121 55.2443
7.16591 55.6487
7.21063 55.7336
7.25533 66.068
7.30004 134.739
7.34475 78.0318
7.38945 56.2203
7.43416 54.4843
7.47889 54.632
7.5236 54.7503
7.56831 55.6239
7.61303 56.7395
7.65774 56.9697
7.70247 56.6038
7.74719 56.5501
7.79191 56.7515
7.83663 57.3407
7.88135 58.1378
7.92607 59.1783
7.97081 60.4393
8.01553 61.4203
8.06026 63.176
8.10498 64.3761
8.14971 71.6945
8.19446 71.6379
8.23919 70.2562
8.28392 72.3975
8.32865 74.8197
8.37339 79.3513
8.41812 85.399
8.46288 107.878
8.50761 177.812
8.55235 417.564
8.59709 1235.63
8.64183 2142.71
8.68658 1001.43
8.73134 173.558
8.77609 101.07
8.82083 93.6995
8.86558 91.3529
8.91033 90.9712
8.9551 90.5799
8.99985 85.8534
9.04461 84.8659
9.08936 84.08
9.13412 83.2364
9.17888 83.0399
9.22365 83.1888
9.26841 82.9789
9.31318 83.9688
9.35794 83.9825
9.4027 84.2817
9.44749 85.021
9.49226 85.735
9.53703 86.5213
9.5818 88.8409
9.62657 92.1525
9.67134 97.0576
9.71614 94.1529
9.76091 95.1702
9.80569 97.9748
9.85047 101.43
9.89525 118.34
9.94005 131.122
9.98484 192.471
10.0296 367.648
10.0744 859.399
10.1192 1666.81
10.164 1555.84
10.2088 418.367
10.2536 129.731
10.2984 112.989
10.3432 112.331
10.388 105.456
10.4328 122.621
10.4776 167.592
10.5224 293.934
10.5672 500.87
10.612 482.525
10.6568 205.741
10.7017 97.556
10.7465 87.0285
10.7913 84.1304
10.8361 81.8069
10.8809 79.6822
10.9257 78.7583
10.9706 78.5623
11.0154 75.3419
11.0602 73.3114
11.105 72.3936
11.1499 74.8749
11.1947 78.5707
11.2395 72.8781
11.2844 69.9005
11.3292 67.6429
11.374 66.9023
11.4189 66.1115
11.4637 65.3686
11.5086 65.4439
11.5534 67.5247
11.5983 65.4462
11.6431 63.9196
11.688 63.5208
11.7328 63.6289
11.7777 63.1793
11.8225 62.7573
11.8674 62.693
11.9122 63.4083
11.9571 63.2213
12.002 64.4534
12.0468 69.2725
12.0917 80.9143
12.1366 106.492
12.1814 155.966
12.2263 198.328
12.2712 164.985
12.3161 96.7114
12.3609 69.6624
12.4058 65.205
12.4507 64.7989
12.4956 64.8548
12.5405 64.9762
12.5853 65.7614
12.6302 71.3131
12.6751 74.5266
12.72 69.2894
12.7649 68.2627
12.8098 68.7445
12.8547 70.2618
12.8996 71.8686
12.9445 72.8529
12.9894 74.71
13.0343 76.5767
13.0792 80.4105
13.1242 91.3848
13.1691 115.256
13.214 155.505
13.2589 250.529
13.3038 366.812
13.3487 414.184
13.3937 268.441
13.4386 128.818
13.4835 109.121
13.5285 124.572
13.5734 165.862
13.6183 251.702
13.6633 338.577
13.7082 330.892
13.7531 192.459
13.7981 100.934
13.843 82.6419
13.888 80.1115
13.9329 77.7663
13.9779 76.5528
14.0228 75.0926
14.0678 73.5514
14.1127 72.9396
14.1577 72.9328
14.2027 72.2055
14.2476 71.0213
14.2926 70.9405
14.3376 71.4382
14.3825 70.5741
14.4275 69.3311
14.4725 69.3799
14.5175 69.5931
14.5624 69.5235
14.6074 71.021
14.6524 71.8332
14.6974 71.0726
14.7424 73.2524
14.7874 80.6078
14.8324 91.2815
14.8774 115.287
14.9224 158.482
14.9674 205.158
15.0124 212.414
15.0574 151.516
15.1024 93.5147
15.1474 73.4018
15.1924 71.029
15.2374 71.1167
15.2824 70.0819
15.3274 68.4162
15.3725 67.2829
15.4175 66.802
15.4625 66.6754
15.5076 66.7978
15.5526 66.6049
15.5976 66.3426
15.6426 68.1876
15.6877 73.7019
15.7327 81.6534
15.7778 98.3298
15.8228 130.292
15.8679 169.275
15.9129 187.208
15.958 153.948
16.003 97.9345
16.0481 68.6326
16.0931 64.4125
16.1382 62.4673
16.1833 60.9441
16.2283 59.4054
16.2734 58.6872
16.3185 58.7465
16.3636 59.0526
16.4086 57.6667
16.4537 56.4931
16.4988 55.9059
16.5439 56.0163
16.589 55.667
16.6341 55.2152
16.6792 54.7681
16.7243 55.3323
16.7694 55.411
16.8145 55.3539
16.8596 55.6885
16.9047 56.6766
16.9498 56.738
16.9949 56.1284
17.04 56.3391
17.0851 57.7796
17.1302 59.0696
17.1754 62.5389
17.2205 67.7951
17.2656 75.0757
17.3108 81.4156
17.3559 81.8093
17.401 72.5229
17.4462 63.2548
17.4913 59.6662
17.5365 59.525
17.5815 59.5729
17.6268 60.2465
17.6718 60.9437
17.7171 61.3878
17.7622 61.9418
17.8074 62.5752
17.8525 65.4616
17.8977 69.4448
17.9428 75.2355
17.9881 85.0221
18.0331 102.549
18.0784 121.906
18.1237 137.287
18.1688 131.619
18.214 106.085
18.2591 89.1967
18.3044 92.2279
18.3495 100.0
18.3948 104.508
18.4399 96.3948
18.4852 79.2017
18.5303 66.8317
18.5756 62.6386
18.6207 61.7558
18.666 60.8123
18.7112 60.1485
18.7565 59.4546
18.8016 59.1427
18.8469 58.5172
18.892 58.2151
18.9374 57.4562
18.9825 57.6027
19.0278 57.4796
19.073 57.6398
19.1183 58.1218
19.1635 58.5992
19.2088 60.2024
19.254 62.8872
19.2993 67.3328
19.3447 72.6142
19.3898 75.4539
19.4352 72.3011
19.4804 64.1529
19.5257 57.7084
19.5709 54.7529
19.6163 54.3217
19.6615 53.9951
19.7068 53.9029
19.752 53.5837
19.7974 54.0676
19.8426 54.9455
19.888 55.491
19.9332 56.9767
19.9786 59.6629
20.0238 63.1191
20.0692 67.2263
20.1144 69.5471
20.1598 68.3104
20.205 64.3589
20.2504 63.128
20.2957 64.026
20.3411 65.2091
20.3863 64.1421
20.4318 59.0539
20.477 54.4266
20.5224 52.1367
20.5677 51.1764
20.6131 50.5822
20.6586 49.9906
20.7038 50.0134
20.7493 49.4392
20.7945 49.3991
20.84 49.1665
20.8853 49.0423
20.9307 48.897
20.976 49.0289
21.0215 49.2213
21.0668 49.3938
21.1122 49.9287
21.1575 50.557
21.203 51.1842
21.2483 51.8241
21.2938 51.7067
21.3391 50.4249
21.3846 49.3504
21.4299 48.7782
21.4754 48.8021
21.5207 48.9991
21.5662 49.339
21.6116 49.6291
21.6571 50.1941
21.7024 51.2853
21.7479 53.5098
21.7933 56.0818
21.8388 59.6292
21.8843 62.7037
21.9297 64.4378
21.9752 63.4156
22.0206 60.1868
22.0661 57.1279
22.1115 56.3156
22.157 56.2374
22.2024 54.5835
22.248 51.9578
22.2933 50.2587
22.3389 49.4225
22.3843 49.3519
22.4299 49.2232
22.4753 49.2407
22.5208 49.0351
22.5662 48.8274
22.6118 49.1753
22.6572 49.3117
22.7028 49.7344
22.7483 50.2464
22.7939 50.8079
22.8393 52.6124
22.8849 54.7113
22.9303 56.2802
22.9759 57.7153
23.0214 57.5501
23.067 55.09
23.1126 51.7511
23.1581 49.7867
23.2037 49.2269
23.2492 49.2134
23.2948 49.3324
23.3403 49.4336
23.3859 50.4312
23.4314 51.477
23.477 53.5321
23.5225 55.2121
23.5682 56.9536
23.6137 57.908
23.6593 56.0065
23.7048 52.2336
23.7505 48.806
23.796 47.0276
23.8417 46.5744
23.8872 45.8372
23.9329 45.6122
23.9784 45.1792
24.0241 45.0836
24.0697 44.7738
24.1154 44.5518
24.1609 44.3474
24.2066 44.2382
24.2522 44.069
24.2979 43.7926
24.3434 43.6618
24.3892 43.3664
24.4349 43.3838
24.4805 43.3125
24.5262 43.4374
24.5718 43.5221
24.6175 43.2348
24.6631 43.046
24.7089 42.8836
24.7545 42.7985
24.8002 42.5771
24.8458 42.6308
24.8916 42.3972
24.9372 42.3873
24.983 42.9787
25.0286 43.1522
25.0744 43.7251
25.12 44.0211
25.1658 44.6683
25.2114 44.9537
25.2572 45.1068
25.3029 45.2056
25.3487 45.2502
25.3943 45.0024
25.4402 43.9362
25.4858 42.9126
25.5316 41.8941
25.5773 41.1862
25.6231 41.2689
25.669 41.0104
25.7147 40.8891
25.7605 40.7575
25.8062 40.8347
25.8521 41.0336
25.8977 41.0388
25.9436 41.0463
25.9893 41.3173
26.0352 41.7493
26.0809 41.7179
26.1268 41.981
26.1725 41.6335
26.2184 41.1154
26.2641 40.8675
26.31 40.4515
26.3557 40.437
26.4017 40.3402
26.4474 40.8862
26.4933 41.1274
26.5391 41.5934
26.585 41.9771
26.6308 42.4744
26.6767 42.4895
26.7225 42.3148
26.7684 41.8872
26.8142 41.1099
26.8601 40.6122
26.9059 40.3951
26.9519 39.7845
26.9979 39.548
27.0437 39.1705
27.0896 39.027
27.1354 39.0968
27.1814 38.9824
27.2272 38.8764
27.2732 38.8593
27.3191 38.6893
27.3651 38.8522
27.4109 38.6849
27.4569 38.7908
27.5027 38.8451
27.5488 38.8145
27.5946 38.605
27.6407 38.4675
27.6865 38.3764
27.7326 38.1981
27.7784 38.1697
27.8245 38.1066
27.8703 38.2858
27.9164 38.5824
27.9623 38.7932
28.0084 39.0432
28.0543 39.364
28.1003 39.2394
28.1462 39.0707
28.1923 38.8291
28.2384 38.1698
28.2843 37.7354
28.3304 37.5167
28.3764 36.9112
28.4225 36.7079
28.4684 36.5184
28.5145 36.1739
28.5605 36.1164
28.6066 36.003
28.6526 35.8664
28.6987 35.9762
28.7447 35.8055
28.7908 35.7058
28.8368 35.6634
28.8829 35.71
28.9289 35.5578
28.9751 35.2825
29.0211 35.1414
29.0673 35.0441
29.1133 34.7936
29.1595 34.7687
29.2055 34.5861
29.2517 34.5791
29.2977 34.4933
29.3439 34.4585
29.3899 34.4912
29.4361 34.3764
29.4824 34.2333
29.5284 33.9727
29.5746 33.7249
29.6207 33.4139
29.6669 33.288
29.713 33.2335
29.7593 32.9722
29.8053 33.1341
29.8516 33.1214
29.8977 33.0226
29.9439 32.8496
29.99 32.7695
30.0363 32.6729
30.0824 32.8004
30.1287 32.5078
30.1748 32.7693
30.2211 32.704
30.2673 32.4213
30.3136 32.5696
30.3597 32.5589
30.406 32.3155
30.4522 32.3565
30.4985 32.2843
30.5447 32.3189
30.591 32.4577
30.6372 32.458
30.6835 32.4276
30.7297 32.4608
30.7761 32.3591
30.8224 32.1715
30.8686 31.9721
30.915 31.8902
30.9612 31.6877
31.0076 31.51
31.0538 31.3983
31.1002 31.2756
31.1464 31.2358
31.1928 31.1587
31.2391 31.1536
31.2855 31.0486
31.3317 30.9661
31.3781 31.2791
31.4244 31.1306
31.4708 30.9954
31.5171 31.0866
31.5636 31.0914
31.6098 30.7388
31.6563 30.6389
31.7026 30.5061
31.7491 30.3504
31.7953 30.3664
31.8418 30.35
31.8881 30.3136
31.9346 30.2052
31.9809 30.3609
32.0275 30.1566
32.074 30.0841
32.1203 29.8408
32.1668 29.7143
32.2132 29.6737
32.2597 29.4637
32.306 29.3313
32.3526 29.1885
32.399 29.0983
32.4455 29.0178
32.4919 28.9222
32.5385 28.8038
32.5848 28.7137
32.6314 28.7282
32.6778 28.6285
32.7244 28.434
32.7708 28.3644
32.8174 28.3911
32.8638 28.2334
32.9104 28.3805
32.9569 28.1713
33.0035 28.0958
33.0499 28.1145
33.0966 27.9915
33.143 28.0154
33.1897 27.831
33.2361 27.8032
33.2828 27.763
33.3293 27.6831
33.3759 27.4839
33.4226 27.4138
33.4691 27.3573
33.5158 27.3122
33.5623 27.0962
33.609 26.9619
33.6555 26.8657
33.7022 26.7651
33.7487 26.7093
33.7954 26.6839
33.842 26.6814
33.8887 26.6059
33.9353 26.4212
33.982 26.2988
34.0286 26.2796
34.0753 26.1758
34.1219 26.1379
34.1687 26.0131
34.2152 25.9715
34.262 25.9191
34.3086 25.8166
34.3554 25.6962
34.402 25.5868
34.4488 25.5823
34.4954 25.3649
34.5422 25.3321
34.5889 25.2595
34.6357 25.1096
34.6825 25.1404
34.7292 25.0368
34.776 25.0128
34.8227 24.88
34.8695 24.8841
34.9162 24.8012
34.9631 24.7086
35.0098 24.7143
35.0566 24.5198
35.1033 24.5116
35.1502 24.4457
35.1969 24.4015
35.2438 24.3554
35.2906 24.2599
35.3375 24.254
35.3842 24.1591
35.4311 24.1596
35.4779 24.116
35.5248 24.1003
35.5716 23.939
35.6185 23.8797
35.6653 23.7652
35.7123 23.7711
35.759 23.5854
35.806 23.5145
35.8528 23.4731
35.8998 23.2914
35.9468 23.2005
35.9936 23.2391
36.0406 23.1915
36.0874 23.1999
36.1345 23.0993
36.1813 22.9535
36.2283 22.8794
36.2752 22.7828
36.3222 22.8341
36.3691 22.7142
36.4161 22.558
36.463 22.588
36.5101 22.613
36.557 22.4882
36.6041 22.3312
36.651 22.3414
36.6981 22.3027
36.745 22.1836
36.7921 22.1937
36.839 22.0372
36.8861 22.0217
36.9331 21.8775
36.9802 21.8489
37.0272 21.6914
37.0743 21.6523
37.1213 21.6574
37.1684 21.5038
37.2154 21.5288
37.2626 21.4411
37.3098 21.3737
37.3568 21.3219
37.404 21.2198
37.451 21.1854
37.4982 21.0692
37.5452 20.9898
37.5924 20.932
37.6395 20.9759
37.6867 20.8616
37.7337 20.8064
37.781 20.6364
37.8281 20.602
37.8753 20.5984
37.9224 20.4596
37.9697 20.4151
38.0168 20.3805
38.064 20.339
38.1111 20.2352
38.1584 20.1648
38.2056 20.0859
38.2529 20.0368
38.3 20.0261
38.3473 19.919
38.3945 19.8548
38.4418 19.8071
38.489 19.6902
38.5363 19.6573
38.5837 19.6129
38.6309 19.4923
38.6782 19.5143
38.7254 19.4299
38.7728 19.3272
38.82 19.2704
38.8674 19.306
38.9146 19.1886
38.9621 19.0754
39.0093 19.0726
39.0567 19.0512
39.104 18.9125
39.1514 18.89
39.1987 18.8776
39.2461 18.737
39.2934 18.6645
39.3409 18.6043
39.3882 18.5191
39.4356 18.5267
39.483 18.4245
39.5304 18.4115
39.5778 18.4037
39.6253 18.2546
39.6726 18.234
39.7201 18.1598
39.7675 18.1362
39.815 18.0736
39.8624 17.9304
39.9099 18.0176
39.9575 17.8439
40.0049 17.8058
40.0525 17.7887
40.0999 17.7094
40.1474 17.6681
40.1949 17.5969
40.2425 17.5251
40.2899 17.4817
40.3375 17.5039
40.385 17.3451
40.4326 17.3231
40.48 17.2183
40.5277 17.256
40.5752 17.186
40.6228 17.0322
40.6703 17.0732
40.718 17.018
40.7655 16.935
40.8132 16.8611
40.8607 16.8781
40.9084 16.7979
40.9559 16.718
41.0036 16.728
41.0512 16.5783
41.0989 16.5663
41.1465 16.5297
41.1942 16.4989
41.242 16.3694
41.2896 16.2737
41.3373 16.2883
41.3849 16.2754
41.4327 16.1936
41.4803 16.1159
41.5281 16.0913
41.5758 16.0309
41.6236 15.9515
41.6712 15.9001
41.7191 15.848
41.7667 15.7727
41.8146 15.7562
41.8622 15.6448
41.9101 15.6451
41.9578 15.5672
42.0057 15.5462
42.0534 15.4575
42.1013 15.4259
42.149 15.4381
42.1969 15.3018
42.2446 15.2997
42.2925 15.236
42.3403 15.1654
42.3882 15.1406
42.436 15.0648
42.4839 15.0034
42.5319 15.0659
42.5797 14.9152
42.6277 14.9083
42.6755 14.8216
42.7235 14.7237
42.7713 14.7351
42.8193 14.685
42.8671 14.6493
42.9152 14.5809
42.963 14.5236
43.0111 14.4462
43.0589 14.4214
43.107 14.3444
43.1549 14.3347
43.2029 14.2392
43.2508 14.2062
43.2989 14.182
43.3468 14.0856
43.3949 14.11
43.4429 14.0447
43.491 13.9925
43.5389 13.9207
43.5871 13.8587
43.635 13.8608
43.6832 13.7839
43.7312 13.7222
43.7793 13.6727
43.8273 13.6621
43.8755 13.5627
43.9237 13.586
43.9717 13.5752
44.0199 13.4338
44.068 13.4212
44.1162 13.344
44.1642 13.3104
44.2125 13.3125
44.2606 13.23
44.3088 13.1763
44.3569 13.1565
44.4052 13.0977
44.4533 13.0332
44.5016 12.9847
44.5497 12.9108
44.598 12.9319
44.6461 12.8895
44.6945 12.8191
44.7426 12.7872
44.791 12.698
44.8391 12.675
44.8875 12.6158
44.9357 12.5979
44.984 12.5649
45.0322 12.4786
45.0806 12.4575
45.1288 12.4009
45.1773 12.3612
45.2257 12.3262
45.2739 12.2996
45.3224 12.2415
45.3706 12.2094
45.4191 12.175
45.4673 12.1518
45.5158 12.0601
45.5641 11.9996
45.6126 12.0381
45.6609 11.9392
45.7094 11.8887
45.7577 11.7979
45.8063 11.8008
45.8546 11.785
45.9031 11.7143
45.9515 11.6652
46.0001 11.6558
46.0484 11.6118
46.097 11.5707
46.1454 11.5355
46.194 11.5263
46.2424 11.4315
46.291 11.3917
46.3395 11.3615
46.3881 11.2667
46.4365 11.2596
46.4852 11.2294
46.5337 11.1877
46.5823 11.1649
46.631 11.1068
46.6795 11.108
46.7282 11.024
46.7767 10.984
46.8254 10.9088
46.8739 10.9063
46.9226 10.8247
46.9712 10.8231
47.0199 10.7124
47.0685 10.7643
47.1173 10.6766
47.1658 10.6409
47.2146 10.6288
47.2632 10.5589
47.312 10.5508
47.3606 10.4979
47.4095 10.4631
47.4581 10.4097
47.5069 10.3683
47.5556 10.3562
47.6044 10.2773
47.6531 10.311
47.702 10.2234
47.7507 10.169
47.7996 10.158
47.8483 10.1314
47.8972 10.1081
47.9461 10.0812
47.9948 9.99328
48.0438 9.95424
48.0925 9.98418
48.1415 9.94052
48.1902 9.91318
48.2392 9.84542
48.288 9.80297
48.337 9.77875
48.3858 9.70293
48.4348 9.7118
48.4837 9.68515
48.5327 9.61598
48.5815 9.60128
48.6306 9.55571
48.6795 9.52938
48.7285 9.46032
48.7774 9.45948
48.8265 9.4427
48.8754 9.39761
48.9245 9.37519
48.9734 9.31172
49.0226 9.30707
49.0715 9.25815
49.1206 9.1938
49.1696 9.16491
49.2188 9.1524
49.2679 9.03742
49.3169 9.04061
49.3661 9.03157
49.4151 8.98651
49.4643 8.90604
49.5134 8.91841
49.5626 8.87143
49.6117 8.84201
49.6609 8.82895
49.71 8.74255
49.7592 8.74655
49.8083 8.69748
49.8576 8.67206
49.9067 8.67765
49.956 8.63326
50.0052 8.59582
50.0545 8.52454
50.1036 8.50708
50.153 8.48915
50.2022 8.48591
50.2515 8.4231
50.3007 8.37996
50.3501 8.35133
50.3993 8.34296
50.4487 8.28987
50.498 8.26214
50.5474 8.24046
50.5966 8.19978
50.6461 8.16921
50.6955 8.14633
50.7448 8.11973
50.7943 8.10143
50.8436 8.01455
50.8931 7.98921
50.9424 7.97098
50.9919 7.94213
51.0413 7.92998
51.0908 7.87444
51.1402 7.84169
51.1897 7.80101
51.2391 7.81028
51.2887 7.75131
51.3381 7.69048
51.3877 7.70593
51.4371 7.65512
51.4867 7.63178
51.5362 7.58774
51.5858 7.58734
51.6353 7.52141
51.6849 7.48737
51.7344 7.46567
51.7841 7.45622
51.8336 7.40318
51.8833 7.37295
51.9328 7.29485
51.9826 7.29431
52.0323 7.2564
52.0818 7.22953
52.1316 7.21818
52.1812 7.2122
52.231 7.17878
52.2806 7.11987
52.3304 7.13077
52.38 7.0619
52.4298 7.06501
52.4794 7.01499
52.5293 6.98038
52.5789 6.94292
52.6288 6.92445
52.6785 6.88216
52.7284 6.87274
52.7781 6.85993
52.828 6.80972
52.8777 6.77778
52.9276 6.76951
52.9774 6.71472
53.0273 6.69193
53.0771 6.67944
53.1271 6.64978
53.1769 6.63702
53.2269 6.6363
53.2767 6.53387
53.3267 6.54612
53.3765 6.51948
53.4266 6.46453
53.4766 6.45756
53.5265 6.41566
53.5765 6.39109
53.6264 6.36725
53.6765 6.41546
53.7264 6.36355
53.7765 6.29442
53.8265 6.26823
53.8766 6.20052
53.9266 6.17234
53.9767 6.17487
54.0267 6.12863
54.0769 6.13612
54.1269 6.08951
54.1771 6.03648
54.2271 6.03937
54.2773 5.94321
54.3274 5.9944
54.3776 5.92854
54.4277 5.91834
54.478 5.88565
54.528 5.81898
54.5783 5.81291
54.6285 5.75658
54.6788 5.72904
54.7289 5.68116
54.7792 5.63476
54.8296 5.60724
54.8798 5.54282
54.9301 5.53247
54.9803 5.47764
55.0307 5.47048
55.0809 5.35513
55.1314 5.38858
55.1816 5.34837
55.232 5.30344
55.2823 5.20068
55.3328 5.13229
55.383 5.15088
55.4335 5.14899
55.4838 5.04454
55.5344 4.99367
55.5847 4.95956
55.6352 4.94888
55.6856 4.8706
55.7361 4.81958