File: XRD/Ni3Fe_FD0077.xy
TT I
1.27165 11.7019
1.31627 9.66451
1.36089 10.1182
1.40551 9.79948
1.45013 9.00192
1.49476 9.30326
1.53938 8.06476
1.584 8.21371
1.62863 7.99221
1.67325 7.6754
1.71787 7.91074
1.7625 7.35012
1.80712 6.80411
1.85174 7.43291
1.89636 6.77657
1.94099 6.90976
1.98562 7.03201
2.03025 6.5502
2.07487 6.74838
2.11949 7.41142
2.16411 6.64819
2.20874 6.61824
2.25338 6.72627
2.298 5.61755
2.34263 5.69701
2.38725 6.29946
2.43188 4.98981
2.4765 5.43077
2.52115 5.27617
2.56577 6.40965
2.6104 5.98438
2.65503 5.2261
2.69965 6.29053
2.7443 6.33819
2.78893 7.01296
2.83356 7.89371
2.87818 8.5481
2.92281 8.9772
2.96744 10.6332
3.01209 11.7214
3.05672 12.0753
3.10135 13.3084
3.14599 14.5287
3.19062 14.7872
3.23527 15.7178
3.2799 16.0329
3.32454 16.5738
3.36917 17.2375
3.4138 18.2617
3.45844 18.7976
3.50309 20.3864
3.54773 20.5672
3.59237 20.8289
3.637 21.782
3.68164 21.9214
3.7263 23.2653
3.77094 23.9982
3.81558 24.4357
3.86022 24.8088
3.90486 26.2216
3.9495 27.2074
3.99416 28.1204
4.0388 28.8857
4.08344 29.9598
4.12809 30.482
4.17273 31.8804
4.21738 33.1359
4.26204 34.8335
4.30669 36.3184
4.35133 38.4376
4.39598 39.04
4.44063 40.3577
4.4853 41.956
4.52995 44.1538
4.5746 46.337
4.61925 48.3873
4.6639 50.9679
4.70855 53.8229
4.75322 56.9585
4.79788 59.7307
4.84253 64.0906
4.88719 69.0666
4.93184 75.6205
4.97652 85.105
5.02118 98.8053
5.06583 114.227
5.11049 138.776
5.15515 202.197
5.19981 708.7
5.24449 2810.48
5.28916 3868.31
5.33382 8082.68
5.37848 1649.96
5.42315 303.893
5.46783 172.658
5.5125 137.453
5.55716 121.356
5.60183 110.836
5.6465 105.683
5.69117 102.856
5.73586 100.364
5.78053 100.831
5.8252 102.206
5.86988 108.447
5.91455 121.985
5.95924 157.664
6.00392 364.444
6.0486 1097.47
6.09328 1204.3
6.13795 3043.34
6.18263 1380.14
6.22733 226.531
6.27201 114.768
6.3167 87.9133
6.36138 76.0107
6.40606 68.7225
6.45075 65.2922
6.49545 61.844
6.54014 59.4642
6.58483 57.9583
6.62952 56.0655
6.67421 54.841
6.71892 53.1881
6.76361 52.709
6.8083 51.4639
6.853 50.7447
6.89769 50.4386
6.94239 50.0915
6.98711 49.55
7.03181 49.3528
7.07651 49.4089
7.12121 48.9587
7.16591 48.5059
7.21063 48.1714
7.25533 48.0701
7.30004 47.8874
7.34475 48.2931
7.38945 48.7487
7.43416 49.082
7.47889 51.811
7.5236 78.0033
7.56831 166.682
7.61303 95.9104
7.65774 54.7102
7.70247 51.1161
7.74719 50.5782
7.79191 50.6621
7.83663 50.5455
7.88135 51.4186
7.92607 52.2345
7.97081 53.4014
8.01553 53.8175
8.06026 55.2818
8.10498 56.7183
8.14971 58.3619
8.19446 59.6366
8.23919 62.6747
8.28392 65.4085
8.32865 68.2928
8.37339 73.841
8.41812 81.2709
8.46288 98.6856
8.50761 187.284
8.55235 529.182
8.59709 472.966
8.64183 581.86
8.68658 1623.77
8.73134 852.573
8.77609 171.241
8.82083 106.962
8.86558 91.7431
8.91033 85.8155
8.9551 82.0149
8.99985 80.1691
9.04461 79.0639
9.08936 78.5091
9.13412 79.1129
9.17888 83.1141
9.22365 125.976
9.26841 267.965
9.31318 176.453
9.35794 88.9405
9.4027 79.44
9.44749 78.0809
9.49226 77.6956
9.53703 78.0284
9.5818 79.6062
9.62657 80.0706
9.67134 81.391
9.71614 83.1638
9.76091 85.1528
9.80569 88.1501
9.85047 92.1864
9.89525 98.9199
9.94005 114.347
9.98484 196.073
10.0296 488.189
10.0744 460.619
10.1192 362.056
10.164 976.05
10.2088 1429.62
10.2536 442.83
10.2984 137.683
10.3432 110.239
10.388 102.504
10.4328 119.124
10.4776 198.412
10.5224 186.054
10.5672 150.163
10.612 286.417
10.6568 474.478
10.7017 248.938
10.7465 122.815
10.7913 84.5456
10.8361 76.3453
10.8809 72.1878
10.9257 69.5099
10.9706 68.0521
11.0154 65.9618
11.0602 64.835
11.105 63.8194
11.1499 62.1865
11.1947 61.421
11.2395 60.3024
11.2844 59.8832
11.3292 59.0814
11.374 58.4884
11.4189 58.1243
11.4637 57.3263
11.5086 56.7353
11.5534 56.4054
11.5983 56.0632
11.6431 56.1566
11.688 55.8285
11.7328 56.4052
11.7777 56.2288
11.8225 56.354
11.8674 57.4108
11.9122 63.889
11.9571 94.7621
12.002 99.9419
12.0468 76.2076
12.0917 84.3104
12.1366 89.1408
12.1814 77.9315
12.2263 82.5672
12.2712 137.295
12.3161 168.052
12.3609 94.7685
12.4058 63.2382
12.4507 58.6736
12.4956 57.6816
12.5405 57.0808
12.5853 57.5299
12.6302 57.1293
12.6751 57.9109
12.72 58.3435
12.7649 59.1343
12.8098 59.8771
12.8547 60.8545
12.8996 62.1701
12.9445 63.7451
12.9894 65.5536
13.0343 67.9627
13.0792 75.4043
13.1242 89.6933
13.1691 127.927
13.214 162.841
13.2589 135.235
13.3038 118.515
13.3487 170.355
13.3937 340.988
13.4386 317.158
13.4835 154.978
13.5285 149.07
13.5734 154.16
13.6183 120.009
13.6633 114.669
13.7082 185.954
13.7531 323.922
13.7981 239.73
13.843 103.565
13.888 77.382
13.9329 72.3178
13.9779 70.2772
14.0228 69.1167
14.0678 68.2668
14.1127 72.4857
14.1577 93.8885
14.2027 97.2537
14.2476 76.8151
14.2926 65.5832
14.3376 63.5314
14.3825 62.8981
14.4275 62.0593
14.4725 61.8552
14.5175 61.8681
14.5624 61.7697
14.6074 61.7338
14.6524 62.1869
14.6974 62.752
14.7424 65.3563
14.7874 74.3501
14.8324 96.6489
14.8774 100.402
14.9224 85.537
14.9674 82.6009
15.0124 106.157
15.0574 179.215
15.1024 184.643
15.1474 103.558
15.1924 71.9459
15.2374 64.7721
15.2824 61.9321
15.3274 60.4908
15.3725 59.7629
15.4175 59.4379
15.4625 58.9997
15.5076 59.0233
15.5526 58.8248
15.5976 59.3161
15.6426 60.8853
15.6877 68.0484
15.7327 86.3505
15.7778 91.3083
15.8228 79.0035
15.8679 73.2099
15.9129 82.9405
15.958 134.101
16.003 177.693
16.0481 128.765
16.0931 81.7654
16.1382 65.7049
16.1833 57.8968
16.2283 54.4289
16.2734 53.1235
16.3185 52.226
16.3636 51.3447
16.4086 50.5194
16.4537 50.2164
16.4988 49.6163
16.5439 49.5771
16.589 49.3087
16.6341 49.0784
16.6792 48.6075
16.7243 49.0726
16.7694 48.7299
16.8145 48.6744
16.8596 49.1519
16.9047 50.7973
16.9498 53.5517
16.9949 53.7641
17.04 51.7704
17.0851 51.4217
17.1302 54.8053
17.1754 57.2419
17.2205 55.2809
17.2656 53.3025
17.3108 54.6087
17.3559 59.2587
17.401 71.8868
17.4462 74.6534
17.4913 61.6593
17.5365 54.2988
17.5815 53.1794
17.6268 53.0471
17.6718 53.3958
17.7171 54.1682
17.7622 57.1182
17.8074 59.2116
17.8525 59.8343
17.8977 65.2976
17.9428 74.9201
17.9881 75.0228
18.0331 68.4878
18.0784 65.9391
18.1237 71.4519
18.1688 95.7835
18.214 135.648
18.2591 128.336
18.3044 85.9692
18.3495 67.4783
18.3948 67.2727
18.4399 80.2048
18.4852 96.1866
18.5303 86.9584
18.5756 67.3372
18.6207 59.8009
18.666 56.7453
18.7112 54.6731
18.7565 53.5456
18.8016 53.1234
18.8469 52.4979
18.892 52.3439
18.9374 51.6692
18.9825 51.4756
19.0278 51.3379
19.073 51.2123
19.1183 51.8531
19.1635 53.8507
19.2088 55.4241
19.254 55.0332
19.2993 54.6634
19.3447 57.1238
19.3898 58.5143
19.4352 60.9025
19.4804 67.6125
19.5257 66.7124
19.5709 56.3429
19.6163 50.4835
19.6615 49.1016
19.7068 48.3446
19.752 48.0909
19.7974 47.9656
19.8426 49.1111
19.888 50.9504
19.9332 51.8181
19.9786 50.7392
20.0238 49.4004
20.0692 50.2435
20.1144 52.8839
20.1598 58.2263
20.205 63.947
20.2504 62.7546
20.2957 54.7458
20.3411 50.3438
20.3863 52.1581
20.4318 58.2588
20.477 59.1155
20.5224 52.8209
20.5677 47.3513
20.6131 45.6319
20.6586 44.9696
20.7038 44.8459
20.7493 45.0194
20.7945 46.0013
20.84 45.8266
20.8853 44.8229
20.9307 43.8725
20.976 43.9397
21.0215 43.9923
21.0668 44.2603
21.1122 44.0451
21.1575 43.5741
21.203 43.4093
21.2483 43.5221
21.2938 44.3668
21.3391 45.3574
21.3846 46.3835
21.4299 45.6114
21.4754 44.3909
21.5207 44.0359
21.5662 44.1108
21.6116 44.2818
21.6571 45.8732
21.7024 47.3495
21.7479 47.5754
21.7933 46.3906
21.8388 45.9082
21.8843 47.1298
21.9297 48.6248
21.9752 52.3145
22.0206 58.3192
22.0661 59.173
22.1115 53.4945
22.157 49.5042
22.2024 49.896
22.248 51.2916
22.2933 50.5486
22.3389 47.0013
22.3843 44.7278
22.4299 44.0365
22.4753 43.8495
22.5208 43.6952
22.5662 43.7035
22.6118 43.7319
22.6572 43.9224
22.7028 45.0263
22.7483 46.2679
22.7939 46.4216
22.8393 45.8018
22.8849 45.1928
22.9303 44.825
22.9759 44.8853
23.0214 46.4987
23.067 50.3715
23.1126 53.424
23.1581 51.3486
23.2037 46.8157
23.2492 44.8879
23.2948 44.8372
23.3403 45.8687
23.3859 46.535
23.4314 46.4289
23.477 45.4593
23.5225 44.702
23.5682 44.1436
23.6137 44.8296
23.6593 47.2734
23.7048 51.8854
23.7505 52.9533
23.796 48.5741
23.8417 43.7982
23.8872 41.9583
23.9329 41.5745
23.9784 40.933
24.0241 40.7809
24.0697 40.5603
24.1154 40.0341
24.1609 40.0112
24.2066 39.7082
24.2522 39.5435
24.2979 39.2799
24.3434 39.1968
24.3892 38.9947
24.4349 38.7733
24.4805 38.4367
24.5262 38.5063
24.5718 38.3088
24.6175 38.568
24.6631 39.012
24.7089 39.0611
24.7545 38.8688
24.8002 38.393
24.8458 38.3186
24.8916 38.1957
24.9372 38.29
24.983 38.2407
25.0286 38.1809
25.0744 38.5269
25.12 38.6332
25.1658 38.7311
25.2114 38.5426
25.2572 39.1302
25.3029 39.8227
25.3487 39.6124
25.3943 39.026
25.4402 39.5085
25.4858 40.681
25.5316 40.3943
25.5773 38.8047
25.6231 37.5844
25.669 36.6902
25.7147 36.7727
25.7605 36.6782
25.8062 36.8721
25.8521 37.1054
25.8977 36.9174
25.9436 36.5451
25.9893 36.2226
26.0352 36.3416
26.0809 36.0015
26.1268 36.3494
26.1725 36.8248
26.2184 37.6109
26.2641 38.0123
26.31 37.4498
26.3557 37.0482
26.4017 36.6661
26.4474 36.6386
26.4933 36.3481
26.5391 36.296
26.585 36.3057
26.6308 36.2468
26.6767 36.3863
26.7225 36.8239
26.7684 37.9307
26.8142 38.2975
26.8601 37.8545
26.9059 36.904
26.9519 36.7738
26.9979 36.7327
27.0437 36.1265
27.0896 35.5508
27.1354 35.2311
27.1814 35.1202
27.2272 34.8579
27.2732 34.9546
27.3191 34.683
27.3651 34.6229
27.4109 34.4707
27.4569 34.5484
27.5027 34.4308
27.5488 34.3913
27.5946 34.4316
27.6407 34.6214
27.6865 35.0555
27.7326 34.9777
27.7784 34.8036
27.8245 34.4438
27.8703 34.1776
27.9164 34.1536
27.9623 34.1975
28.0084 34.244
28.0543 34.2167
28.1003 34.1536
28.1462 34.4525
28.1923 35.0759
28.2384 35.2303
28.2843 34.7853
28.3304 34.1812
28.3764 34.14
28.4225 33.9915
28.4684 33.4371
28.5145 32.8875
28.5605 32.7177
28.6066 32.3635
28.6526 32.2902
28.6987 32.2189
28.7447 31.9863
28.7908 31.8165
28.8368 31.7737
28.8829 31.737
28.9289 31.599
28.9751 31.6031
29.0211 31.595
29.0673 31.6499
29.1133 31.543
29.1595 31.3325
29.2055 30.9637
29.2517 30.874
29.2977 30.5113
29.3439 30.5225
29.3899 30.4978
29.4361 30.3834
29.4824 30.3647
29.5284 30.6153
29.5746 30.6882
29.6207 30.3845
29.6669 30.1203
29.713 29.9007
29.7593 29.6097
29.8053 29.6398
29.8516 29.5467
29.8977 29.5027
29.9439 29.3833
29.99 29.3896
30.0363 29.2333
30.0824 29.2686
30.1287 29.2138
30.1748 29.1385
30.2211 29.0329
30.2673 28.8746
30.3136 29.0372
30.3597 29.1196
30.406 29.137
30.4522 28.9928
30.4985 28.9066
30.5447 28.7679
30.591 28.6962
30.6372 28.6668
30.6835 28.5537
30.7297 28.4799
30.7761 28.5832
30.8224 28.8298
30.8686 28.7915
30.915 28.8201
30.9612 28.7572
31.0076 28.4229
31.0538 28.3301
31.1002 28.2546
31.1464 28.0136
31.1928 28.0722
31.2391 27.9153
31.2855 27.7597
31.3317 27.6398
31.3781 27.6361
31.4244 27.6347
31.4708 27.482
31.5171 27.429
31.5636 27.5789
31.6098 27.5757
31.6563 27.6835
31.7026 27.582
31.7491 27.2864
31.7953 27.2052
31.8418 27.0851
31.8881 26.9409
31.9346 26.8541
31.9809 26.8799
32.0275 26.7952
32.074 26.8332
32.1203 26.8277
32.1668 26.8448
32.2132 26.7163
32.2597 26.4962
32.306 26.5068
32.3526 26.2348
32.399 26.088
32.4455 25.877
32.4919 25.8176
32.5385 25.7132
32.5848 25.7416
32.6314 25.6494
32.6778 25.5571
32.7244 25.4545
32.7708 25.3103
32.8174 25.4364
32.8638 25.236
32.9104 25.2854
32.9569 25.2351
33.0035 24.9948
33.0499 25.0218
33.0966 24.8547
33.143 24.7461
33.1897 24.7558
33.2361 24.698
33.2828 24.6822
33.3293 24.5803
33.3759 24.6545
33.4226 24.6
33.4691 24.4891
33.5158 24.4985
33.5623 24.4374
33.609 24.095
33.6555 24.0199
33.7022 23.8832
33.7487 23.8177
33.7954 23.6975
33.842 23.6516
33.8887 23.5738
33.9353 23.5988
33.982 23.5246
34.0286 23.3567
34.0753 23.3968
34.1219 23.4047
34.1687 23.2611
34.2152 23.0954
34.262 23.047
34.3086 22.8814
34.3554 22.9395
34.402 22.7236
34.4488 22.7213
34.4954 22.7231
34.5422 22.6074
34.5889 22.4752
34.6357 22.4247
34.6825 22.3623
34.7292 22.3447
34.776 22.2702
34.8227 22.1376
34.8695 22.1308
34.9162 22.0937
34.9631 21.9709
35.0098 21.918
35.0566 21.8523
35.1033 21.8162
35.1502 21.7689
35.1969 21.7134
35.2438 21.6743
35.2906 21.604
35.3375 21.5263
35.3842 21.416
35.4311 21.3945
35.4779 21.3697
35.5248 21.2979
35.5716 21.3507
35.6185 21.2412
35.6653 21.1688
35.7123 21.1825
35.759 21.1568
35.806 21.0652
35.8528 20.862
35.8998 20.7655
35.9468 20.7011
35.9936 20.7582
36.0406 20.6684
36.0874 20.6288
36.1345 20.5465
36.1813 20.4239
36.2283 20.3509
36.2752 20.3159
36.3222 20.4253
36.3691 20.3003
36.4161 20.1232
36.463 20.154
36.5101 20.1348
36.557 19.984
36.6041 19.9051
36.651 19.8794
36.6981 19.8481
36.745 19.8214
36.7921 19.747
36.839 19.652
36.8861 19.5969
36.9331 19.5518
36.9802 19.4905
37.0272 19.3567
37.0743 19.2764
37.1213 19.2646
37.1684 19.1547
37.2154 19.1416
37.2626 19.0722
37.3098 19.0379
37.3568 19.0541
37.404 18.9949
37.451 18.8154
37.4982 18.8874
37.5452 18.6383
37.5924 18.6335
37.6395 18.7381
37.6867 18.6052
37.7337 18.4119
37.781 18.4765
37.8281 18.3892
37.8753 18.3218
37.9224 18.2897
37.9697 18.2371
38.0168 18.1108
38.064 18.0926
38.1111 18.0259
38.1584 18.0149
38.2056 17.9306
38.2529 17.8861
38.3 17.8069
38.3473 17.7113
38.3945 17.7084
38.4418 17.6532
38.489 17.5749
38.5363 17.5315
38.5837 17.4843
38.6309 17.4135
38.6782 17.3253
38.7254 17.241
38.7728 17.2261
38.82 17.216
38.8674 17.1824
38.9146 17.1124
38.9621 17.0112
39.0093 17.0067
39.0567 16.9407
39.104 16.9381
39.1514 16.7847
39.1987 16.7917
39.2461 16.7298
39.2934 16.6494
39.3409 16.5933
39.3882 16.5022
39.4356 16.4685
39.483 16.4405
39.5304 16.4141
39.5778 16.4019
39.6253 16.2991
39.6726 16.2656
39.7201 16.172
39.7675 16.1331
39.815 16.0599
39.8624 15.9662
39.9099 15.9687
39.9575 15.8939
40.0049 15.8878
40.0525 15.8668
40.0999 15.8378
40.1474 15.7784
40.1949 15.6736
40.2425 15.6026
40.2899 15.6032
40.3375 15.5425
40.385 15.4708
40.4326 15.442
40.48 15.4466
40.5277 15.406
40.5752 15.3073
40.6228 15.2328
40.6703 15.1736
40.718 15.1269
40.7655 15.0881
40.8132 15.0465
40.8607 15.0501
40.9084 15.0307
40.9559 14.9035
41.0036 14.892
41.0512 14.8576
41.0989 14.7834
41.1465 14.6939
41.1942 14.7007
41.242 14.5945
41.2896 14.5388
41.3373 14.5335
41.3849 14.4994
41.4327 14.4194
41.4803 14.3783
41.5281 14.3968
41.5758 14.312
41.6236 14.1653
41.6712 14.2001
41.7191 14.1479
41.7667 14.1162
41.8146 14.1116
41.8622 13.9681
41.9101 13.951
41.9578 13.8821
42.0057 13.9283
42.0534 13.8399
42.1013 13.7903
42.149 13.733
42.1969 13.6707
42.2446 13.6157
42.2925 13.5891
42.3403 13.5276
42.3882 13.4929
42.436 13.5024
42.4839 13.3947
42.5319 13.4202
42.5797 13.3178
42.6277 13.2963
42.6755 13.2859
42.7235 13.221
42.7713 13.1242
42.8193 13.0803
42.8671 13.0596
42.9152 13.0252
42.963 12.9605
43.0111 12.9433
43.0589 12.8923
43.107 12.7926
43.1549 12.8158
43.2029 12.7237
43.2508 12.6915
43.2989 12.6252
43.3468 12.6136
43.3949 12.5521
43.4429 12.5201
43.491 12.4941
43.5389 12.399
43.5871 12.4363
43.635 12.3832
43.6832 12.3512
43.7312 12.2802
43.7793 12.2408
43.8273 12.2346
43.8755 12.1458
43.9237 12.0856
43.9717 12.0325
44.0199 12.0245
44.068 12.0056
44.1162 11.9478
44.1642 11.9272
44.2125 11.9056
44.2606 11.8317
44.3088 11.7197
44.3569 11.7247
44.4052 11.7293
44.4533 11.6774
44.5016 11.5828
44.5497 11.6089
44.598 11.5595
44.6461 11.5301
44.6945 11.421
44.7426 11.4279
44.791 11.3635
44.8391 11.3623
44.8875 11.2868
44.9357 11.3067
44.984 11.2127
45.0322 11.1735
45.0806 11.0912
45.1288 11.1133
45.1773 11.0592
45.2257 11.0344
45.2739 10.9472
45.3224 10.9396
45.3706 10.9272
45.4191 10.8752
45.4673 10.8456
45.5158 10.7985
45.5641 10.7433
45.6126 10.7349
45.6609 10.6719
45.7094 10.6253
45.7577 10.5928
45.8063 10.5702
45.8546 10.5392
45.9031 10.5198
45.9515 10.429
46.0001 10.4257
46.0484 10.3893
46.097 10.3481
46.1454 10.3066
46.194 10.2782
46.2424 10.2353
46.291 10.2228
46.3395 10.1535
46.3881 10.1288
46.4365 10.1197
46.4852 10.0916
46.5337 9.97754
46.5823 9.98091
46.631 9.94437
46.6795 9.9201
46.7282 9.93367
46.7767 9.81092
46.8254 9.76988
46.8739 9.74349
46.9226 9.70835
46.9712 9.68945
47.0199 9.65144
47.0685 9.61184
47.1173 9.58632
47.1658 9.5228
47.2146 9.51027
47.2632 9.41706
47.312 9.4908
47.3606 9.40512
47.4095 9.38841
47.4581 9.32957
47.5069 9.31925
47.5556 9.25119
47.6044 9.22313
47.6531 9.19939
47.702 9.1419
47.7507 9.13898
47.7996 9.08145
47.8483 9.06478
47.8972 9.02313
47.9461 9.00946
47.9948 8.95171
48.0438 8.93449
48.0925 8.92068
48.1415 8.84413
48.1902 8.85764
48.2392 8.84569
48.288 8.8122
48.337 8.76687
48.3858 8.71899
48.4348 8.71913
48.4837 8.64614
48.5327 8.63869
48.5815 8.59356
48.6306 8.58014
48.6795 8.5423
48.7285 8.51392
48.7774 8.48735
48.8265 8.46908
48.8754 8.39491
48.9245 8.37579
48.9734 8.33911
49.0226 8.36388
49.0715 8.30958
49.1206 8.27254
49.1696 8.22985
49.2188 8.21313
49.2679 8.14575
49.3169 8.12492
49.3661 8.10495
49.4151 8.06238
49.4643 8.03491
49.5134 8.04147
49.5626 7.97996
49.6117 7.95777
49.6609 7.93631
49.71 7.87233
49.7592 7.82831
49.8083 7.82713
49.8576 7.83029
49.9067 7.76404
49.956 7.72353
50.0052 7.71148
50.0545 7.67664
50.1036 7.68098
50.153 7.66539
50.2022 7.604
50.2515 7.59989
50.3007 7.53739
50.3501 7.52912
50.3993 7.45554
50.4487 7.45076
50.498 7.46033
50.5474 7.41769
50.5966 7.35114
50.6461 7.33716
50.6955 7.34527
50.7448 7.32877
50.7943 7.26654
50.8436 7.25673
50.8931 7.22059
50.9424 7.19182
50.9919 7.16566
51.0413 7.10863
51.0908 7.0955
51.1402 7.0788
51.1897 7.03441
51.2391 7.02893
51.2887 6.99267
51.3381 6.93868
51.3877 6.89065
51.4371 6.89069
51.4867 6.85797
51.5362 6.81837
51.5858 6.83121
51.6353 6.76324
51.6849 6.74151
51.7344 6.74898
51.7841 6.70722
51.8336 6.69521
51.8833 6.69322
51.9328 6.61234
51.9826 6.56525
52.0323 6.55649
52.0818 6.53579
52.1316 6.51644
52.1812 6.48829
52.231 6.43536
52.2806 6.41305
52.3304 6.39498
52.38 6.36208
52.4298 6.37269
52.4794 6.31027
52.5293 6.30588
52.5789 6.2789
52.6288 6.21399
52.6785 6.17582
52.7284 6.20889
52.7781 6.15958
52.828 6.12381
52.8777 6.07781
52.9276 6.13536
52.9774 6.05956
53.0273 6.07166
53.0771 6.02257
53.1271 6.01868
53.1769 5.94396
53.2269 5.92055
53.2767 5.86351
53.3267 5.8611
53.3765 5.87173
53.4266 5.84144
53.4766 5.77294
53.5265 5.7888
53.5765 5.79332
53.6264 5.73254
53.6765 5.70408
53.7264 5.70338
53.7765 5.65534
53.8265 5.65025
53.8766 5.57453
53.9266 5.58284
53.9767 5.48271
54.0267 5.48891
54.0769 5.51487
54.1269 5.4588
54.1771 5.40791
54.2271 5.36666
54.2773 5.34215
54.3274 5.29868
54.3776 5.23421
54.4277 5.23594
54.478 5.22174
54.528 5.16649
54.5783 5.15136
54.6285 5.0555
54.6788 4.99388
54.7289 4.98757
54.7792 4.94443
54.8296 4.90037
54.8798 4.82738
54.9301 4.81872
54.9803 4.80978
55.0307 4.76338
55.0809 4.70296
55.1314 4.68085
55.1816 4.64442
55.232 4.52444
55.2823 4.53537
55.3328 4.48038
55.383 4.46487
55.4335 4.38789
55.4838 4.35717
55.5344 4.38243
55.5847 4.24572
55.6352 4.29721
55.6856 4.22003
55.7361 4.19054