File: XRD/Ni3Fe_FD0263.xy
TT I
1.27165 7.73614
1.31627 6.85648
1.36089 6.60036
1.40551 6.61531
1.45013 6.31463
1.49476 6.41271
1.53938 6.09073
1.584 6.03314
1.62863 5.49541
1.67325 5.76042
1.71787 5.25945
1.7625 5.52363
1.80712 4.85444
1.85174 4.91848
1.89636 5.03464
1.94099 5.35628
1.98562 4.72593
2.03025 5.03052
2.07487 5.18829
2.11949 4.64472
2.16411 4.69921
2.20874 10.7565
2.25338 15.3374
2.298 5.11659
2.34263 4.70005
2.38725 4.98242
2.43188 4.93789
2.4765 5.1827
2.52115 5.34371
2.56577 5.53629
2.6104 6.12451
2.65503 6.42172
2.69965 6.01202
2.7443 7.46413
2.78893 7.00214
2.83356 7.77311
2.87818 8.57942
2.92281 8.78026
2.96744 9.27701
3.01209 10.4664
3.05672 11.5025
3.10135 12.1557
3.14599 12.9754
3.19062 14.0663
3.23527 15.4089
3.2799 16.2753
3.32454 17.0934
3.36917 17.7535
3.4138 19.0708
3.45844 19.6801
3.50309 20.892
3.54773 21.9943
3.59237 23.8049
3.637 66.9796
3.68164 46.2409
3.7263 26.3177
3.77094 26.5819
3.81558 27.0772
3.86022 28.3244
3.90486 29.3569
3.9495 30.8368
3.99416 31.5857
4.0388 33.0292
4.08344 34.4861
4.12809 35.8173
4.17273 37.1656
4.21738 42.8719
4.26204 171.702
4.30669 152.767
4.35133 48.1846
4.39598 45.5003
4.44063 52.438
4.4853 60.5767
4.52995 53.4163
4.5746 54.2807
4.61925 55.3778
4.6639 57.9341
4.70855 60.6712
4.75322 63.7442
4.79788 66.9594
4.84253 70.9877
4.88719 75.3092
4.93184 79.1494
4.97652 85.8305
5.02118 93.73
5.06583 103.177
5.11049 118.791
5.15515 182.73
5.19981 554.045
5.24449 3614.52
5.28916 10668.7
5.33382 4379.64
5.37848 272.405
5.42315 150.779
5.46783 128.313
5.5125 116.313
5.55716 110.345
5.60183 105.335
5.6465 103.154
5.69117 100.64
5.73586 98.8565
5.78053 100.318
5.8252 99.8516
5.86988 101.126
5.91455 104.79
5.95924 119.024
6.00392 289.583
6.0486 1266.05
6.09328 3707.91
6.13795 3667.27
6.18263 375.836
6.22733 108.707
6.27201 90.18
6.3167 97.3007
6.36138 82.1069
6.40606 73.2235
6.45075 71.0616
6.49545 68.7666
6.54014 66.7398
6.58483 65.7225
6.62952 65.0914
6.67421 83.7619
6.71892 115.296
6.76361 67.7408
6.8083 61.0264
6.853 60.0658
6.89769 59.1987
6.94239 58.5334
6.98711 58.0592
7.03181 57.7561
7.07651 57.0112
7.12121 57.3266
7.16591 57.0791
7.21063 57.5482
7.25533 66.7487
7.30004 134.624
7.34475 80.7256
7.38945 58.0864
7.43416 56.5349
7.47889 56.4468
7.5236 56.2189
7.56831 57.3968
7.61303 58.37
7.65774 58.7568
7.70247 58.3536
7.74719 58.2952
7.79191 59.0824
7.83663 59.0895
7.88135 60.1474
7.92607 60.968
7.97081 62.2189
8.01553 63.6835
8.06026 64.9648
8.10498 66.4302
8.14971 73.656
8.19446 73.4745
8.23919 72.8007
8.28392 75.5917
8.32865 77.8854
8.37339 82.7587
8.41812 89.4632
8.46288 114.015
8.50761 199.353
8.55235 510.476
8.59709 1110.73
8.64183 1975.68
8.68658 1261.73
8.73134 234.065
8.77609 110.612
8.82083 99.9129
8.86558 95.8606
8.91033 94.4178
8.9551 94.0834
8.99985 89.4386
9.04461 87.6723
9.08936 87.4151
9.13412 86.0634
9.17888 85.6986
9.22365 86.6098
9.26841 85.9814
9.31318 87.087
9.35794 87.2353
9.4027 87.4353
9.44749 87.8925
9.49226 88.8657
9.53703 89.9762
9.5818 92.0612
9.62657 95.4466
9.67134 99.9641
9.71614 97.4841
9.76091 99.1948
9.80569 102.391
9.85047 105.077
9.89525 122.284
9.94005 136.563
9.98484 211.322
10.0296 453.578
10.0744 812.624
10.1192 1463.15
10.164 1683.38
10.2088 597.575
10.2536 153.888
10.2984 119.84
10.3432 118.002
10.388 110.994
10.4328 131.731
10.4776 192.306
10.5224 283.876
10.5672 448.218
10.612 525.925
10.6568 272.341
10.7017 108.26
10.7465 91.6769
10.7913 87.6194
10.8361 85.0024
10.8809 82.9097
10.9257 81.4254
10.9706 81.7439
11.0154 78.1364
11.0602 76.2121
11.105 74.7674
11.1499 76.9442
11.1947 81.3932
11.2395 75.3607
11.2844 72.2977
11.3292 69.8107
11.374 68.8574
11.4189 68.1503
11.4637 67.5671
11.5086 67.6304
11.5534 69.3287
11.5983 67.6563
11.6431 66.1031
11.688 65.6573
11.7328 65.3623
11.7777 65.2479
11.8225 65.2121
11.8674 64.9171
11.9122 65.3304
11.9571 65.9239
12.002 66.6791
12.0468 72.3779
12.0917 89.0432
12.1366 109.098
12.1814 143.832
12.2263 192.459
12.2712 189.226
12.3161 112.897
12.3609 74.0659
12.4058 67.6182
12.4507 67.1777
12.4956 67.2125
12.5405 67.4635
12.5853 67.9786
12.6302 73.0818
12.6751 76.7141
12.72 71.8484
12.7649 70.8576
12.8098 71.5035
12.8547 72.5797
12.8996 74.2125
12.9445 75.6879
12.9894 77.6647
13.0343 79.1319
13.0792 83.1996
13.1242 94.7492
13.1691 129.243
13.214 169.72
13.2589 232.179
13.3038 327.735
13.3487 418.275
13.3937 320.089
13.4386 152.348
13.4835 117.433
13.5285 141.403
13.5734 172.412
13.6183 231.108
13.6633 312.611
13.7082 355.787
13.7531 234.166
13.7981 114.869
13.843 87.0133
13.888 83.5998
13.9329 80.895
13.9779 79.5539
14.0228 77.9382
14.0678 76.6888
14.1127 76.2536
14.1577 75.6951
14.2027 74.9602
14.2476 73.6465
14.2926 73.5701
14.3376 74.1027
14.3825 73.0821
14.4275 71.9773
14.4725 71.7288
14.5175 72.2343
14.5624 72.1133
14.6074 73.3752
14.6524 74.1891
14.6974 73.5737
14.7424 75.9776
14.7874 85.4214
14.8324 100.846
14.8774 117.893
14.9224 147.224
14.9674 189.011
15.0124 219.417
15.0574 176.342
15.1024 106.861
15.1474 77.5501
15.1924 73.827
15.2374 73.41
15.2824 72.9075
15.3274 70.8122
15.3725 69.8406
15.4175 69.3919
15.4625 68.8881
15.5076 69.1188
15.5526 69.2101
15.5976 68.8978
15.6426 70.3748
15.6877 78.0803
15.7327 90.014
15.7778 102.551
15.8228 123.537
15.8679 154.883
15.9129 186.757
15.958 174.847
16.003 115.974
16.0481 75.2476
16.0931 67.3967
16.1382 65.0944
16.1833 63.3938
16.2283 61.9477
16.2734 60.8848
16.3185 61.0393
16.3636 61.1599
16.4086 59.8808
16.4537 58.5042
16.4988 58.0869
16.5439 57.9591
16.589 57.8376
16.6341 57.4438
16.6792 56.948
16.7243 57.4237
16.7694 57.1905
16.8145 56.9648
16.8596 57.4063
16.9047 58.544
16.9498 58.635
16.9949 57.9646
17.04 58.321
17.0851 59.9412
17.1302 62.5232
17.1754 65.4164
17.2205 68.7335
17.2656 74.2403
17.3108 81.8907
17.3559 85.24
17.401 77.9029
17.4462 67.3757
17.4913 62.3564
17.5365 61.6333
17.5815 61.8492
17.6268 62.0473
17.6718 62.8351
17.7171 63.5978
17.7622 63.9397
17.8074 64.904
17.8525 67.6572
17.8977 73.6753
17.9428 80.7047
17.9881 87.4233
18.0331 99.2746
18.0784 115.22
18.1237 135.471
18.1688 141.762
18.214 120.146
18.2591 95.2001
18.3044 91.3484
18.3495 97.5701
18.3948 105.581
18.4399 102.368
18.4852 84.99
18.5303 70.779
18.5756 65.5104
18.6207 64.143
18.666 63.1458
18.7112 62.4975
18.7565 61.7118
18.8016 61.5138
18.8469 60.7159
18.892 60.1926
18.9374 59.8573
18.9825 59.6068
19.0278 59.304
19.073 59.5679
19.1183 60.4008
19.1635 61.493
19.2088 62.872
19.254 64.5471
19.2993 67.5577
19.3447 72.1104
19.3898 76.7024
19.4352 76.5279
19.4804 68.8624
19.5257 61.0716
19.5709 57.1226
19.6163 56.4015
19.6615 56.1786
19.7068 55.7914
19.752 55.83
19.7974 55.9532
19.8426 57.0704
19.888 58.2703
19.9332 59.3092
19.9786 60.9622
20.0238 63.3981
20.0692 67.6728
20.1144 71.3687
20.1598 72.3344
20.205 68.1448
20.2504 64.6942
20.2957 64.6942
20.3411 66.5308
20.3863 66.9506
20.4318 62.5782
20.477 57.3896
20.5224 54.1552
20.5677 53.1804
20.6131 52.6923
20.6586 51.8254
20.7038 51.7807
20.7493 51.2625
20.7945 51.2256
20.84 50.941
20.8853 50.9096
20.9307 50.6992
20.976 50.8762
21.0215 50.895
21.0668 51.2407
21.1122 51.6397
21.1575 51.8996
21.203 52.5014
21.2483 53.2641
21.2938 53.702
21.3391 52.6808
21.3846 51.5389
21.4299 50.6567
21.4754 50.4751
21.5207 50.8026
21.5662 51.0054
21.6116 51.4917
21.6571 52.7738
21.7024 53.8881
21.7479 55.1535
21.7933 57.0187
21.8388 59.7895
21.8843 63.212
21.9297 66.1116
21.9752 66.629
22.0206 63.8014
22.0661 59.4637
22.1115 57.678
22.157 57.9019
22.2024 57.2393
22.248 54.5681
22.2933 52.5196
22.3389 51.3202
22.3843 51.151
22.4299 50.8976
22.4753 50.9286
22.5208 50.7156
22.5662 50.4812
22.6118 50.8657
22.6572 51.1068
22.7028 51.9337
22.7483 52.3344
22.7939 52.9644
22.8393 53.7023
22.8849 55.339
22.9303 57.0777
22.9759 59.0313
23.0214 59.7077
23.067 57.9945
23.1126 54.583
23.1581 51.9301
23.2037 51.072
23.2492 51.0759
23.2948 51.2572
23.3403 51.8054
23.3859 52.3353
23.4314 53.067
23.477 54.2034
23.5225 55.5924
23.5682 57.6275
23.6137 59.1824
23.6593 58.556
23.7048 55.3723
23.7505 51.4409
23.796 49.0822
23.8417 48.1775
23.8872 47.6582
23.9329 47.251
23.9784 46.8904
24.0241 46.5573
24.0697 46.4718
24.1154 46.0447
24.1609 45.8612
24.2066 45.749
24.2522 45.6166
24.2979 45.2406
24.3434 45.2225
24.3892 45.089
24.4349 44.9972
24.4805 44.7017
24.5262 44.8469
24.5718 44.6862
24.6175 44.7737
24.6631 44.6058
24.7089 44.331
24.7545 44.1326
24.8002 44.1116
24.8458 43.9761
24.8916 44.1162
24.9372 44.0601
24.983 44.4556
25.0286 44.7179
25.0744 45.1238
25.12 45.4201
25.1658 46.0664
25.2114 46.2897
25.2572 46.6456
25.3029 46.4383
25.3487 46.6099
25.3943 46.3525
25.4402 45.7558
25.4858 44.7757
25.5316 43.562
25.5773 42.7703
25.6231 42.7986
25.669 42.3877
25.7147 42.2715
25.7605 42.2287
25.8062 42.2394
25.8521 42.5147
25.8977 42.3649
25.9436 42.5208
25.9893 42.5671
26.0352 42.9733
26.0809 43.0542
26.1268 43.5006
26.1725 43.2561
26.2184 42.8057
26.2641 42.1765
26.31 42.0074
26.3557 41.9985
26.4017 42.0235
26.4474 42.203
26.4933 42.4308
26.5391 42.7885
26.585 43.0316
26.6308 43.5296
26.6767 43.7226
26.7225 43.8762
26.7684 43.3672
26.8142 42.6976
26.8601 42.1334
26.9059 41.823
26.9519 41.2979
26.9979 41.0278
27.0437 40.6062
27.0896 40.4559
27.1354 40.4096
27.1814 40.2487
27.2272 40.1296
27.2732 40.2435
27.3191 40.0086
27.3651 40.1585
27.4109 40.0699
27.4569 40.0667
27.5027 40.0946
27.5488 40.2448
27.5946 40.0672
27.6407 39.8248
27.6865 39.7632
27.7326 39.5307
27.7784 39.63
27.8245 39.3905
27.8703 39.5877
27.9164 39.8061
27.9623 39.7704
28.0084 40.2525
28.0543 40.5149
28.1003 40.5301
28.1462 40.4732
28.1923 40.2519
28.2384 39.5547
28.2843 39.2372
28.3304 39.0053
28.3764 38.4599
28.4225 38.0948
28.4684 37.8675
28.5145 37.4135
28.5605 37.3543
28.6066 37.1387
28.6526 37.1667
28.6987 37.0849
28.7447 36.9285
28.7908 36.84
28.8368 36.916
28.8829 36.6717
28.9289 36.7777
28.9751 36.6363
29.0211 36.5085
29.0673 36.2502
29.1133 36.0316
29.1595 35.7859
29.2055 35.8662
29.2517 35.7402
29.2977 35.6558
29.3439 35.5533
29.3899 35.5848
29.4361 35.5463
29.4824 35.397
29.5284 35.2647
29.5746 34.9519
29.6207 34.5712
29.6669 34.5181
29.713 34.3919
29.7593 34.3619
29.8053 34.2996
29.8516 34.2291
29.8977 34.2777
29.9439 34.0434
29.99 33.8847
30.0363 33.8574
30.0824 33.917
30.1287 33.8247
30.1748 33.765
30.2211 33.8363
30.2673 33.6511
30.3136 33.8397
30.3597 33.63
30.406 33.5512
30.4522 33.3433
30.4985 33.3839
30.5447 33.5955
30.591 33.546
30.6372 33.5194
30.6835 33.507
30.7297 33.4591
30.7761 33.4977
30.8224 33.2818
30.8686 33.2755
30.915 32.9442
30.9612 32.9053
31.0076 32.6784
31.0538 32.5266
31.1002 32.4261
31.1464 32.3027
31.1928 32.2603
31.2391 32.272
31.2855 32.1668
31.3317 32.1293
31.3781 32.2812
31.4244 32.1318
31.4708 32.1549
31.5171 32.0571
31.5636 32.1438
31.6098 31.9749
31.6563 31.7723
31.7026 31.5357
31.7491 31.5149
31.7953 31.4919
31.8418 31.4573
31.8881 31.4607
31.9346 31.3498
31.9809 31.257
32.0275 31.2596
32.074 31.1595
32.1203 30.9619
32.1668 30.8324
32.2132 30.709
32.2597 30.4085
32.306 30.3526
32.3526 30.2606
32.399 30.2432
32.4455 29.942
32.4919 29.9165
32.5385 29.862
32.5848 29.6754
32.6314 29.8262
32.6778 29.6774
32.7244 29.5021
32.7708 29.4572
32.8174 29.3936
32.8638 29.26
32.9104 29.291
32.9569 29.1762
33.0035 29.0403
33.0499 29.0716
33.0966 28.8871
33.143 28.8988
33.1897 28.8239
33.2361 28.7485
33.2828 28.7839
33.3293 28.5684
33.3759 28.6049
33.4226 28.4854
33.4691 28.295
33.5158 28.212
33.5623 28.1133
33.609 27.8605
33.6555 27.8945
33.7022 27.7554
33.7487 27.7596
33.7954 27.598
33.842 27.5527
33.8887 27.4939
33.9353 27.3574
33.982 27.3097
34.0286 27.2143
34.0753 27.0871
34.1219 27.0028
34.1687 26.874
34.2152 26.8642
34.262 26.7888
34.3086 26.6861
34.3554 26.6466
34.402 26.4878
34.4488 26.3707
34.4954 26.3938
34.5422 26.2327
34.5889 26.1528
34.6357 26.0936
34.6825 26.0124
34.7292 25.8726
34.776 25.8284
34.8227 25.7259
34.8695 25.6184
34.9162 25.6383
34.9631 25.4961
35.0098 25.5357
35.0566 25.3636
35.1033 25.3062
35.1502 25.3288
35.1969 25.2391
35.2438 25.1452
35.2906 25.137
35.3375 25.0695
35.3842 25.0317
35.4311 24.9423
35.4779 24.9145
35.5248 24.8663
35.5716 24.7238
35.6185 24.7219
35.6653 24.6977
35.7123 24.5685
35.759 24.4766
35.806 24.3617
35.8528 24.2037
35.8998 24.1994
35.9468 24.0541
35.9936 24.0712
36.0406 24.0288
36.0874 23.9752
36.1345 23.9107
36.1813 23.794
36.2283 23.7485
36.2752 23.584
36.3222 23.6797
36.3691 23.5782
36.4161 23.3753
36.463 23.422
36.5101 23.4069
36.557 23.2337
36.6041 23.1006
36.651 23.185
36.6981 23.108
36.745 23.0278
36.7921 22.9728
36.839 22.8781
36.8861 22.7059
36.9331 22.7405
36.9802 22.6255
37.0272 22.4509
37.0743 22.4491
37.1213 22.3781
37.1684 22.3581
37.2154 22.2849
37.2626 22.1221
37.3098 22.093
37.3568 22.0593
37.404 22.0358
37.451 21.8749
37.4982 21.8918
37.5452 21.7793
37.5924 21.6607
37.6395 21.7609
37.6867 21.5847
37.7337 21.5139
37.781 21.412
37.8281 21.3446
37.8753 21.3027
37.9224 21.2035
37.9697 21.2003
38.0168 21.1062
38.064 21.0036
38.1111 20.9569
38.1584 20.8758
38.2056 20.8257
38.2529 20.8124
38.3 20.6435
38.3473 20.696
38.3945 20.5041
38.4418 20.5039
38.489 20.4051
38.5363 20.3193
38.5837 20.2632
38.6309 20.2518
38.6782 20.2044
38.7254 20.1253
38.7728 20.059
38.82 19.9739
38.8674 19.9682
38.9146 19.8745
38.9621 19.8542
39.0093 19.6975
39.0567 19.6583
39.104 19.6454
39.1514 19.4802
39.1987 19.4561
39.2461 19.4499
39.2934 19.3793
39.3409 19.3106
39.3882 19.1788
39.4356 19.2085
39.483 19.1019
39.5304 19.0364
39.5778 19.0506
39.6253 18.9786
39.6726 18.8596
39.7201 18.8413
39.7675 18.7702
39.815 18.659
39.8624 18.6145
39.9099 18.6089
39.9575 18.4887
40.0049 18.477
40.0525 18.3518
40.0999 18.3726
40.1474 18.3064
40.1949 18.1511
40.2425 18.1964
40.2899 18.0829
40.3375 18.1285
40.385 18.0279
40.4326 17.9033
40.48 17.8719
40.5277 17.8787
40.5752 17.7632
40.6228 17.6985
40.6703 17.6726
40.718 17.5725
40.7655 17.5831
40.8132 17.4279
40.8607 17.4502
40.9084 17.3696
40.9559 17.3062
41.0036 17.2964
41.0512 17.253
41.0989 17.2114
41.1465 17.1475
41.1942 17.0441
41.242 16.9733
41.2896 16.9058
41.3373 16.8703
41.3849 16.8741
41.4327 16.7979
41.4803 16.7071
41.5281 16.5506
41.5758 16.5478
41.6236 16.5075
41.6712 16.4458
41.7191 16.424
41.7667 16.3996
41.8146 16.3314
41.8622 16.2771
41.9101 16.2411
41.9578 16.0636
42.0057 16.0982
42.0534 16.0344
42.1013 15.9983
42.149 15.9281
42.1969 15.8301
42.2446 15.7999
42.2925 15.7841
42.3403 15.6833
42.3882 15.6723
42.436 15.682
42.4839 15.5594
42.5319 15.5168
42.5797 15.4503
42.6277 15.4033
42.6755 15.2959
42.7235 15.2845
42.7713 15.2986
42.8193 15.1856
42.8671 15.1145
42.9152 15.1409
42.963 15.018
43.0111 14.9781
43.0589 14.9625
43.107 14.8663
43.1549 14.8719
43.2029 14.7686
43.2508 14.7076
43.2989 14.6926
43.3468 14.6275
43.3949 14.6116
43.4429 14.5048
43.491 14.4797
43.5389 14.4251
43.5871 14.3909
43.635 14.3133
43.6832 14.2988
43.7312 14.2258
43.7793 14.1569
43.8273 14.1655
43.8755 14.077
43.9237 14.0387
43.9717 13.9771
44.0199 13.9147
44.068 13.8802
44.1162 13.8126
44.1642 13.8068
44.2125 13.7415
44.2606 13.6755
44.3088 13.6364
44.3569 13.5988
44.4052 13.5693
44.4533 13.5145
44.5016 13.4645
44.5497 13.4016
44.598 13.3707
44.6461 13.3397
44.6945 13.3163
44.7426 13.2427
44.791 13.1168
44.8391 13.1563
44.8875 13.0514
44.9357 13.0309
44.984 12.9799
45.0322 12.9578
45.0806 12.9292
45.1288 12.8948
45.1773 12.7779
45.2257 12.8151
45.2739 12.7632
45.3224 12.6832
45.3706 12.5996
45.4191 12.5665
45.4673 12.5945
45.5158 12.5027
45.5641 12.4119
45.6126 12.3917
45.6609 12.3837
45.7094 12.3022
45.7577 12.2474
45.8063 12.2174
45.8546 12.1805
45.9031 12.1182
45.9515 12.1007
46.0001 12.0357
46.0484 12.0193
46.097 11.963
46.1454 11.9318
46.194 11.9088
46.2424 11.8279
46.291 11.7568
46.3395 11.7067
46.3881 11.6673
46.4365 11.6852
46.4852 11.5988
46.5337 11.5216
46.5823 11.5929
46.631 11.4717
46.6795 11.4508
46.7282 11.4406
46.7767 11.3659
46.8254 11.2889
46.8739 11.2668
46.9226 11.2457
46.9712 11.219
47.0199 11.1408
47.0685 11.1183
47.1173 11.1009
47.1658 11.0232
47.2146 10.9683
47.2632 10.9533
47.312 10.8862
47.3606 10.8721
47.4095 10.7989
47.4581 10.7658
47.5069 10.7548
47.5556 10.7179
47.6044 10.6508
47.6531 10.601
47.702 10.5869
47.7507 10.5428
47.7996 10.5679
47.8483 10.4708
47.8972 10.449
47.9461 10.3868
47.9948 10.3843
48.0438 10.3414
48.0925 10.3144
48.1415 10.2461
48.1902 10.2281
48.2392 10.1864
48.288 10.1641
48.337 10.1107
48.3858 10.0469
48.4348 10.008
48.4837 9.99827
48.5327 9.97294
48.5815 9.96599
48.6306 9.94321
48.6795 9.83751
48.7285 9.84084
48.7774 9.79384
48.8265 9.77734
48.8754 9.66845
48.9245 9.63521
48.9734 9.61035
49.0226 9.60369
49.0715 9.54081
49.1206 9.53835
49.1696 9.47259
49.2188 9.46392
49.2679 9.40149
49.3169 9.38295
49.3661 9.34563
49.4151 9.31686
49.4643 9.28699
49.5134 9.22644
49.5626 9.16361
49.6117 9.16981
49.6609 9.09553
49.71 9.07472
49.7592 9.07983
49.8083 9.01477
49.8576 9.02795
49.9067 8.91576
49.956 8.95462
50.0052 8.90826
50.0545 8.87842
50.1036 8.83204
50.153 8.77229
50.2022 8.7661
50.2515 8.69703
50.3007 8.66733
50.3501 8.62732
50.3993 8.65736
50.4487 8.59227
50.498 8.53806
50.5474 8.51783
50.5966 8.49935
50.6461 8.44821
50.6955 8.43816
50.7448 8.35372
50.7943 8.35185
50.8436 8.33507
50.8931 8.25671
50.9424 8.23537
50.9919 8.20862
51.0413 8.20523
51.0908 8.17615
51.1402 8.16674
51.1897 8.07579
51.2391 8.0516
51.2887 8.0155
51.3381 7.96461
51.3877 7.96451
51.4371 7.93189
51.4867 7.91376
51.5362 7.8857
51.5858 7.8493
51.6353 7.81712
51.6849 7.75163
51.7344 7.77356
51.7841 7.69221
51.8336 7.67494
51.8833 7.6346
51.9328 7.60497
51.9826 7.53355
52.0323 7.5469
52.0818 7.50675
52.1316 7.43877
52.1812 7.44763
52.231 7.40825
52.2806 7.38588
52.3304 7.34104
52.38 7.30345
52.4298 7.29034
52.4794 7.27981
52.5293 7.24122
52.5789 7.20064
52.6288 7.21516
52.6785 7.13661
52.7284 7.12397
52.7781 7.09667
52.828 7.04539
52.8777 7.02488
52.9276 7.04987
52.9774 6.9513
53.0273 6.9609
53.0771 6.91861
53.1271 6.88593
53.1769 6.85832
53.2269 6.83346
53.2767 6.80711
53.3267 6.78353
53.3765 6.73888
53.4266 6.72258
53.4766 6.67748
53.5265 6.59669
53.5765 6.59344
53.6264 6.57275
53.6765 6.56077
53.7264 6.54823
53.7765 6.51189
53.8265 6.50056
53.8766 6.42252
53.9266 6.43398
53.9767 6.3631
54.0267 6.36364
54.0769 6.37953
54.1269 6.31882
54.1771 6.26341
54.2271 6.21395
54.2773 6.16939
54.3274 6.18451
54.3776 6.08661
54.4277 6.07739
54.478 6.03653
54.528 5.95063
54.5783 5.95472
54.6285 5.93045
54.6788 5.88138
54.7289 5.8691
54.7792 5.79292
54.8296 5.71894
54.8798 5.72135
54.9301 5.6645
54.9803 5.64942
55.0307 5.62271
55.0809 5.58792
55.1314 5.52735
55.1816 5.47809
55.232 5.43059
55.2823 5.36695
55.3328 5.27151
55.383 5.26153
55.4335 5.23993
55.4838 5.17499
55.5344 5.10182
55.5847 5.08592
55.6352 5.07933
55.6856 4.97793
55.7361 5.00633