File: XRD/Ni3Fe_FD0770.xy
TT I
1.27165 7.4113
1.31627 6.1948
1.36089 5.93502
1.40551 6.40874
1.45013 6.53364
1.49476 6.20228
1.53938 5.27931
1.584 4.90112
1.62863 5.08318
1.67325 5.03902
1.71787 5.02767
1.7625 4.85202
1.80712 5.08978
1.85174 5.07361
1.89636 4.57146
1.94099 4.91905
1.98562 4.90163
2.03025 4.9229
2.07487 4.48675
2.11949 5.03488
2.16411 4.88683
2.20874 16.2291
2.25338 29.0504
2.298 6.15152
2.34263 5.88929
2.38725 6.27861
2.43188 5.81845
2.4765 7.45383
2.52115 6.67861
2.56577 8.02756
2.6104 8.62095
2.65503 8.31657
2.69965 8.46938
2.7443 8.77205
2.78893 8.07088
2.83356 8.17525
2.87818 8.47599
2.92281 9.26602
2.96744 9.73879
3.01209 10.6183
3.05672 11.1163
3.10135 12.5143
3.14599 12.7647
3.19062 14.0597
3.23527 15.1115
3.2799 16.1338
3.32454 16.9686
3.36917 17.8969
3.4138 19.2199
3.45844 19.7628
3.50309 21.0185
3.54773 21.9231
3.59237 24.6471
3.637 114.866
3.68164 70.7132
3.7263 27.0732
3.77094 26.4174
3.81558 26.8973
3.86022 27.8468
3.90486 29.287
3.9495 30.2829
3.99416 31.2271
4.0388 32.7805
4.08344 33.5982
4.12809 34.9088
4.17273 37.3358
4.21738 44.3262
4.26204 310.908
4.30669 277.021
4.35133 50.1134
4.39598 44.8576
4.44063 56.4215
4.4853 71.3329
4.52995 50.7133
4.5746 51.1308
4.61925 52.7635
4.6639 55.0497
4.70855 57.5594
4.75322 60.8759
4.79788 63.2357
4.84253 66.2325
4.88719 70.6221
4.93184 74.542
4.97652 79.166
5.02118 85.5951
5.06583 92.405
5.11049 102.658
5.15515 182.401
5.19981 303.649
5.24449 2395.84
5.28916 12893.0
5.33382 3069.66
5.37848 188.108
5.42315 127.432
5.46783 112.715
5.5125 104.93
5.55716 100.853
5.60183 97.5097
5.6465 96.0
5.69117 93.0424
5.73586 91.0217
5.78053 90.2009
5.8252 89.6758
5.86988 89.9257
5.91455 91.9854
5.95924 97.4964
6.00392 178.89
6.0486 826.335
6.09328 4244.27
6.13795 3306.55
6.18263 246.017
6.22733 92.4088
6.27201 82.9938
6.3167 109.919
6.36138 83.2786
6.40606 68.4387
6.45075 66.978
6.49545 65.2113
6.54014 63.9071
6.58483 62.7396
6.62952 62.9907
6.67421 103.118
6.71892 171.828
6.76361 72.3618
6.8083 58.7398
6.853 57.5561
6.89769 56.7922
6.94239 56.6962
6.98711 55.7141
7.03181 55.3927
7.07651 55.3943
7.12121 55.3238
7.16591 55.4237
7.21063 55.9411
7.25533 74.8219
7.30004 221.14
7.34475 103.9
7.38945 57.5821
7.43416 54.7854
7.47889 54.408
7.5236 54.6719
7.56831 55.3074
7.61303 57.2575
7.65774 58.2567
7.70247 56.2478
7.74719 56.1185
7.79191 56.5505
7.83663 56.5639
7.88135 57.7548
7.92607 58.4252
7.97081 59.5483
8.01553 60.3856
8.06026 61.7574
8.10498 63.6612
8.14971 75.1634
8.19446 73.7543
8.23919 68.8853
8.28392 71.1428
8.32865 73.5374
8.37339 77.192
8.41812 84.5453
8.46288 118.775
8.50761 150.521
8.55235 340.44
8.59709 1089.94
8.64183 2189.05
8.68658 1025.32
8.73134 170.211
8.77609 98.921
8.82083 91.9783
8.86558 88.7745
8.91033 89.7886
8.9551 92.6669
8.99985 85.4741
9.04461 82.5294
9.08936 81.9769
9.13412 81.2194
9.17888 81.4218
9.22365 82.3291
9.26841 81.3543
9.31318 81.6753
9.35794 81.8118
9.4027 82.3842
9.44749 83.1794
9.49226 83.587
9.53703 84.8085
9.5818 86.5964
9.62657 92.0765
9.67134 100.784
9.71614 93.3168
9.76091 92.7766
9.80569 95.6434
9.85047 98.4464
9.89525 128.663
9.94005 141.861
9.98484 159.502
10.0296 298.977
10.0744 742.774
10.1192 1707.63
10.164 1640.36
10.2088 405.384
10.2536 126.663
10.2984 114.643
10.3432 116.943
10.388 103.654
10.4328 112.343
10.4776 148.448
10.5224 262.648
10.5672 512.574
10.612 520.993
10.6568 210.886
10.7017 96.6072
10.7465 86.3321
10.7913 82.6683
10.8361 80.8492
10.8809 78.2649
10.9257 78.4835
10.9706 79.3641
11.0154 74.7506
11.0602 72.6137
11.105 71.6182
11.1499 77.415
11.1947 87.7981
11.2395 76.1288
11.2844 71.0983
11.3292 67.1824
11.374 65.9234
11.4189 65.3972
11.4637 64.7274
11.5086 65.4447
11.5534 69.4643
11.5983 66.0126
11.6431 63.3952
11.688 62.8738
11.7328 62.6754
11.7777 62.923
11.8225 62.1727
11.8674 61.8516
11.9122 62.4716
11.9571 62.4123
12.002 62.9209
12.0468 65.9607
12.0917 76.0537
12.1366 97.5683
12.1814 145.406
12.2263 209.254
12.2712 175.297
12.3161 101.842
12.3609 72.1423
12.4058 64.7714
12.4507 63.9038
12.4956 63.964
12.5405 63.9986
12.5853 65.5382
12.6302 75.1464
12.6751 82.723
12.72 70.9487
12.7649 67.7803
12.8098 67.6296
12.8547 69.2999
12.8996 70.4695
12.9445 71.671
12.9894 73.1268
13.0343 74.9653
13.0792 77.865
13.1242 84.7634
13.1691 106.043
13.214 138.944
13.2589 223.63
13.3038 360.197
13.3487 434.37
13.3937 277.426
13.4386 126.496
13.4835 102.099
13.5285 113.907
13.5734 148.088
13.6183 233.716
13.6633 343.558
13.7082 347.521
13.7531 190.199
13.7981 98.3064
13.843 81.1552
13.888 78.7948
13.9329 76.3696
13.9779 75.4902
14.0228 73.7326
14.0678 72.3899
14.1127 71.9689
14.1577 72.535
14.2027 71.3858
14.2476 69.9304
14.2926 70.3275
14.3376 71.5989
14.3825 70.069
14.4275 68.4085
14.4725 68.0641
14.5175 68.2747
14.5624 68.4815
14.6074 71.3723
14.6524 71.7773
14.6974 69.8012
14.7424 70.7734
14.7874 76.2183
14.8324 84.9761
14.8774 104.901
14.9224 146.371
14.9674 203.162
15.0124 220.979
15.0574 151.817
15.1024 92.2742
15.1474 72.1697
15.1924 70.2636
15.2374 71.4011
15.2824 70.489
15.3274 68.2244
15.3725 66.4856
15.4175 65.8416
15.4625 65.5619
15.5076 65.9507
15.5526 65.8097
15.5976 65.2893
15.6426 65.6889
15.6877 70.1237
15.7327 76.5782
15.7778 90.2763
15.8228 120.041
15.8679 164.145
15.9129 193.283
15.958 159.413
16.003 98.5783
16.0481 68.7068
16.0931 64.975
16.1382 63.0065
16.1833 60.5691
16.2283 58.8594
16.2734 58.0625
16.3185 58.769
16.3636 60.009
16.4086 58.2274
16.4537 56.0884
16.4988 55.2193
16.5439 55.2394
16.589 54.8557
16.6341 54.547
16.6792 54.2572
16.7243 54.6702
16.7694 54.8708
16.8145 54.6087
16.8596 55.0598
16.9047 57.1317
16.9498 57.21
16.9949 55.6001
17.04 55.3339
17.0851 56.3612
17.1302 57.7646
17.1754 60.89
17.2205 65.6943
17.2656 73.4886
17.3108 82.6394
17.3559 82.792
17.401 71.0964
17.4462 61.49
17.4913 58.5811
17.5365 58.9073
17.5815 58.8596
17.6268 58.9816
17.6718 60.0451
17.7171 60.4604
17.7622 60.8819
17.8074 61.1171
17.8525 62.8514
17.8977 66.786
17.9428 71.758
17.9881 79.8395
18.0331 95.8826
18.0784 118.63
18.1237 138.711
18.1688 131.881
18.214 103.897
18.2591 85.6256
18.3044 88.7389
18.3495 98.6579
18.3948 106.346
18.4399 96.9127
18.4852 78.5251
18.5303 66.0521
18.5756 61.7814
18.6207 60.945
18.666 60.0902
18.7112 59.546
18.7565 58.5645
18.8016 58.28
18.8469 57.5563
18.892 57.3483
18.9374 56.8126
18.9825 56.8428
19.0278 56.4926
19.073 56.5772
19.1183 56.9479
19.1635 57.8908
19.2088 58.9682
19.254 61.1068
19.2993 65.2453
19.3447 71.8629
19.3898 76.7254
19.4352 72.8202
19.4804 63.4436
19.5257 56.5192
19.5709 53.8034
19.6163 53.7257
19.6615 53.4341
19.7068 52.9184
19.752 52.9901
19.7974 53.0503
19.8426 54.0392
19.888 54.4929
19.9332 55.4997
19.9786 57.8158
20.0238 61.4401
20.0692 66.4642
20.1144 69.2406
20.1598 67.8315
20.205 62.9873
20.2504 61.322
20.2957 63.229
20.3411 65.7414
20.3863 64.3372
20.4318 58.5931
20.477 53.5791
20.5224 51.7375
20.5677 50.8471
20.6131 50.0739
20.6586 49.2559
20.7038 49.3873
20.7493 48.8889
20.7945 48.7122
20.84 48.4366
20.8853 48.4732
20.9307 48.2168
20.976 48.1874
21.0215 48.1441
21.0668 48.6875
21.1122 49.0619
21.1575 49.7762
21.203 50.497
21.2483 51.027
21.2938 50.8818
21.3391 49.8353
21.3846 48.7632
21.4299 48.0926
21.4754 47.9154
21.5207 48.1584
21.5662 48.3696
21.6116 48.7321
21.6571 49.1724
21.7024 50.2295
21.7479 51.8344
21.7933 54.4074
21.8388 58.1744
21.8843 61.9623
21.9297 64.3534
21.9752 63.1748
22.0206 59.4466
22.0661 56.3025
22.1115 55.6365
22.157 55.8269
22.2024 54.1332
22.248 51.2504
22.2933 49.7338
22.3389 48.8767
22.3843 48.7746
22.4299 48.7563
22.4753 48.6847
22.5208 48.421
22.5662 48.0475
22.6118 48.2538
22.6572 48.3952
22.7028 48.8111
22.7483 49.0696
22.7939 49.8571
22.8393 51.0469
22.8849 53.2125
22.9303 55.6694
22.9759 57.5994
23.0214 57.2285
23.067 54.5149
23.1126 51.1304
23.1581 48.9683
23.2037 48.4438
23.2492 48.5462
23.2948 48.3448
23.3403 48.4792
23.3859 49.1634
23.4314 50.1625
23.477 51.7947
23.5225 54.0287
23.5682 56.4059
23.6137 57.7073
23.6593 55.483
23.7048 51.5753
23.7505 48.1983
23.796 46.4041
23.8417 45.8195
23.8872 45.4529
23.9329 45.0464
23.9784 44.6132
24.0241 44.3905
24.0697 44.2312
24.1154 43.7569
24.1609 43.7264
24.2066 43.6096
24.2522 43.4533
24.2979 43.1966
24.3434 43.2265
24.3892 42.9189
24.4349 42.8421
24.4805 42.704
24.5262 42.7445
24.5718 42.6187
24.6175 42.5763
24.6631 42.5902
24.7089 42.2618
24.7545 42.3238
24.8002 42.0193
24.8458 42.005
24.8916 41.7033
24.9372 41.9292
24.983 42.1886
25.0286 42.3139
25.0744 42.8764
25.12 43.4036
25.1658 44.0494
25.2114 44.3524
25.2572 44.4854
25.3029 44.4624
25.3487 44.696
25.3943 44.5228
25.4402 43.5032
25.4858 42.3808
25.5316 41.3231
25.5773 40.7058
25.6231 40.6852
25.669 40.3648
25.7147 40.2857
25.7605 40.2869
25.8062 40.3129
25.8521 40.3999
25.8977 40.4363
25.9436 40.5223
25.9893 40.6987
26.0352 41.0314
26.0809 41.1879
26.1268 41.5303
26.1725 41.1327
26.2184 40.6117
26.2641 40.1377
26.31 39.7969
26.3557 39.8734
26.4017 39.7604
26.4474 40.1234
26.4933 40.4088
26.5391 40.9023
26.585 41.4165
26.6308 41.6887
26.6767 41.9307
26.7225 41.8033
26.7684 41.3069
26.8142 40.5722
26.8601 40.2561
26.9059 39.8479
26.9519 39.2324
26.9979 38.9897
27.0437 38.6256
27.0896 38.5655
27.1354 38.6656
27.1814 38.4619
27.2272 38.2193
27.2732 38.2361
27.3191 38.028
27.3651 38.2597
27.4109 38.2829
27.4569 38.1831
27.5027 38.2591
27.5488 38.3226
27.5946 38.1693
27.6407 37.7788
27.6865 37.7997
27.7326 37.6744
27.7784 37.6363
27.8245 37.5964
27.8703 37.6417
27.9164 37.9401
27.9623 38.0435
28.0084 38.5618
28.0543 38.8269
28.1003 38.675
28.1462 38.6404
28.1923 38.2102
28.2384 37.7435
28.2843 37.4637
28.3304 37.0263
28.3764 36.5454
28.4225 36.2422
28.4684 36.1293
28.5145 35.8109
28.5605 35.7059
28.6066 35.5081
28.6526 35.4637
28.6987 35.4479
28.7447 35.2427
28.7908 35.3543
28.8368 35.2446
28.8829 35.2949
28.9289 35.2343
28.9751 35.065
29.0211 34.7271
29.0673 34.4766
29.1133 34.3886
29.1595 34.2462
29.2055 34.1378
29.2517 34.1517
29.2977 34.0896
29.3439 34.1057
29.3899 34.0804
29.4361 33.9618
29.4824 33.9108
29.5284 33.6115
29.5746 33.2922
29.6207 33.0097
29.6669 32.887
29.713 32.8998
29.7593 32.6624
29.8053 32.7075
29.8516 32.633
29.8977 32.6653
29.9439 32.4706
29.99 32.404
30.0363 32.2417
30.0824 32.392
30.1287 32.222
30.1748 32.3436
30.2211 32.3214
30.2673 32.0586
30.3136 32.2215
30.3597 32.0592
30.406 32.002
30.4522 31.8834
30.4985 31.8319
30.5447 31.9809
30.591 31.8557
30.6372 31.9568
30.6835 31.9057
30.7297 31.9427
30.7761 31.9828
30.8224 31.8459
30.8686 31.7033
30.915 31.5289
30.9612 31.3289
31.0076 31.0846
31.0538 31.0512
31.1002 30.9278
31.1464 30.7852
31.1928 30.7529
31.2391 30.7321
31.2855 30.6814
31.3317 30.6961
31.3781 30.7073
31.4244 30.7097
31.4708 30.6125
31.5171 30.6209
31.5636 30.7058
31.6098 30.3537
31.6563 30.2269
31.7026 30.0549
31.7491 29.9955
31.7953 30.0254
31.8418 29.9644
31.8881 30.0013
31.9346 29.8968
31.9809 29.897
32.0275 29.6656
32.074 29.6848
32.1203 29.4206
32.1668 29.3758
32.2132 29.1664
32.2597 29.1492
32.306 29.0187
32.3526 28.7629
32.399 28.8458
32.4455 28.5625
32.4919 28.5571
32.5385 28.5208
32.5848 28.3431
32.6314 28.2784
32.6778 28.2721
32.7244 28.1689
32.7708 27.9937
32.8174 27.9915
32.8638 27.8742
32.9104 27.9685
32.9569 27.8228
33.0035 27.7069
33.0499 27.6936
33.0966 27.5978
33.143 27.6624
33.1897 27.5563
33.2361 27.4762
33.2828 27.3962
33.3293 27.3157
33.3759 27.2965
33.4226 27.0583
33.4691 26.9375
33.5158 26.8958
33.5623 26.7296
33.609 26.6824
33.6555 26.524
33.7022 26.4457
33.7487 26.4399
33.7954 26.3633
33.842 26.1856
33.8887 26.141
33.9353 26.1614
33.982 26.0055
34.0286 25.9826
34.0753 25.7987
34.1219 25.7576
34.1687 25.6919
34.2152 25.6138
34.262 25.5205
34.3086 25.4583
34.3554 25.4136
34.402 25.3072
34.4488 25.1697
34.4954 25.0421
34.5422 25.0231
34.5889 24.9687
34.6357 24.7742
34.6825 24.8071
34.7292 24.7275
34.776 24.5968
34.8227 24.5589
34.8695 24.5191
34.9162 24.5052
34.9631 24.2979
35.0098 24.4504
35.0566 24.252
35.1033 24.188
35.1502 24.1234
35.1969 24.0688
35.2438 24.102
35.2906 24.0107
35.3375 23.8977
35.3842 23.9074
35.4311 23.9582
35.4779 23.8281
35.5248 23.7435
35.5716 23.5999
35.6185 23.549
35.6653 23.5702
35.7123 23.4313
35.759 23.3473
35.806 23.2235
35.8528 23.0943
35.8998 23.0986
35.9468 22.9967
35.9936 23.0117
36.0406 22.8601
36.0874 22.8652
36.1345 22.8142
36.1813 22.7077
36.2283 22.5511
36.2752 22.5613
36.3222 22.5266
36.3691 22.4934
36.4161 22.3177
36.463 22.3442
36.5101 22.2949
36.557 22.2734
36.6041 22.0688
36.651 22.0379
36.6981 22.0268
36.745 21.953
36.7921 21.8563
36.839 21.799
36.8861 21.6908
36.9331 21.6784
36.9802 21.5145
37.0272 21.4938
37.0743 21.412
37.1213 21.4188
37.1684 21.2705
37.2154 21.3116
37.2626 21.0618
37.3098 21.0424
37.3568 21.0209
37.404 21.0104
37.451 20.9665
37.4982 20.7853
37.5452 20.7677
37.5924 20.6724
37.6395 20.7301
37.6867 20.6128
37.7337 20.5642
37.781 20.4487
37.8281 20.3748
37.8753 20.3455
37.9224 20.2235
37.9697 20.1701
38.0168 20.0919
38.064 20.0522
38.1111 20.0605
38.1584 19.946
38.2056 19.8653
38.2529 19.7434
38.3 19.727
38.3473 19.7005
38.3945 19.5869
38.4418 19.5011
38.489 19.5023
38.5363 19.4254
38.5837 19.3394
38.6309 19.3024
38.6782 19.284
38.7254 19.1237
38.7728 19.1248
38.82 19.0148
38.8674 19.0406
38.9146 18.9384
38.9621 18.9261
39.0093 18.8822
39.0567 18.7465
39.104 18.7203
39.1514 18.6213
39.1987 18.5372
39.2461 18.5681
39.2934 18.406
39.3409 18.3828
39.3882 18.33
39.4356 18.2745
39.483 18.2152
39.5304 18.221
39.5778 18.1342
39.6253 18.0145
39.6726 17.9846
39.7201 17.926
39.7675 17.9233
39.815 17.815
39.8624 17.7915
39.9099 17.7434
39.9575 17.6622
40.0049 17.6209
40.0525 17.5524
40.0999 17.4542
40.1474 17.4811
40.1949 17.3904
40.2425 17.3086
40.2899 17.3016
40.3375 17.2331
40.385 17.1608
40.4326 17.0728
40.48 17.0098
40.5277 17.0652
40.5752 16.9124
40.6228 16.8875
40.6703 16.8172
40.718 16.7741
40.7655 16.7496
40.8132 16.6273
40.8607 16.6485
40.9084 16.5961
40.9559 16.5405
41.0036 16.4982
41.0512 16.4708
41.0989 16.3847
41.1465 16.3499
41.1942 16.2225
41.242 16.1685
41.2896 16.177
41.3373 16.0776
41.3849 16.0431
41.4327 15.9655
41.4803 15.911
41.5281 15.9014
41.5758 15.8459
41.6236 15.7829
41.6712 15.7209
41.7191 15.6622
41.7667 15.611
41.8146 15.5284
41.8622 15.4947
41.9101 15.4278
41.9578 15.3374
42.0057 15.3619
42.0534 15.3242
42.1013 15.2514
42.149 15.1529
42.1969 15.1001
42.2446 15.0603
42.2925 15.0957
42.3403 14.9777
42.3882 15.0145
42.436 14.9707
42.4839 14.8115
42.5319 14.8025
42.5797 14.7689
42.6277 14.6683
42.6755 14.6472
42.7235 14.5788
42.7713 14.6057
42.8193 14.4585
42.8671 14.5057
42.9152 14.4084
42.963 14.3325
43.0111 14.2958
43.0589 14.2727
43.107 14.2327
43.1549 14.2005
43.2029 14.1307
43.2508 14.1073
43.2989 13.9673
43.3468 13.9514
43.3949 13.9041
43.4429 13.9166
43.491 13.8361
43.5389 13.8127
43.5871 13.7269
43.635 13.688
43.6832 13.6478
43.7312 13.5811
43.7793 13.5332
43.8273 13.5293
43.8755 13.5223
43.9237 13.3566
43.9717 13.3828
44.0199 13.2975
44.068 13.2567
44.1162 13.1767
44.1642 13.2101
44.2125 13.1128
44.2606 13.0319
44.3088 13.0269
44.3569 13.0448
44.4052 12.9341
44.4533 12.9577
44.5016 12.8582
44.5497 12.7801
44.598 12.7984
44.6461 12.7611
44.6945 12.6748
44.7426 12.6351
44.791 12.5911
44.8391 12.5452
44.8875 12.4944
44.9357 12.4226
44.984 12.4043
45.0322 12.3524
45.0806 12.2839
45.1288 12.2817
45.1773 12.2196
45.2257 12.2013
45.2739 12.1622
45.3224 12.0633
45.3706 12.0364
45.4191 12.0121
45.4673 11.9436
45.5158 11.9222
45.5641 11.9005
45.6126 11.8797
45.6609 11.8333
45.7094 11.7469
45.7577 11.6982
45.8063 11.6703
45.8546 11.681
45.9031 11.5855
45.9515 11.5373
46.0001 11.5245
46.0484 11.499
46.097 11.4491
46.1454 11.407
46.194 11.3765
46.2424 11.2807
46.291 11.2785
46.3395 11.2305
46.3881 11.1989
46.4365 11.1356
46.4852 11.0962
46.5337 11.0506
46.5823 11.0536
46.631 10.9479
46.6795 10.9564
46.7282 10.9224
46.7767 10.9171
46.8254 10.8202
46.8739 10.784
46.9226 10.7638
46.9712 10.6981
47.0199 10.7325
47.0685 10.6132
47.1173 10.5914
47.1658 10.5151
47.2146 10.5571
47.2632 10.4915
47.312 10.4517
47.3606 10.3677
47.4095 10.3554
47.4581 10.3027
47.5069 10.255
47.5556 10.2462
47.6044 10.1871
47.6531 10.1955
47.702 10.1355
47.7507 10.0992
47.7996 10.04
47.8483 10.0168
47.8972 9.99454
47.9461 9.94806
47.9948 9.89611
48.0438 9.83797
48.0925 9.845
48.1415 9.8035
48.1902 9.76396
48.2392 9.76623
48.288 9.69952
48.337 9.68837
48.3858 9.62202
48.4348 9.57865
48.4837 9.56791
48.5327 9.51332
48.5815 9.50954
48.6306 9.47259
48.6795 9.42274
48.7285 9.37901
48.7774 9.36063
48.8265 9.32356
48.8754 9.27701
48.9245 9.29043
48.9734 9.23408
49.0226 9.21683
49.0715 9.14001
49.1206 9.12315
49.1696 9.05511
49.2188 9.04693
49.2679 8.9974
49.3169 8.97515
49.3661 8.94598
49.4151 8.87653
49.4643 8.87605
49.5134 8.80206
49.5626 8.79309
49.6117 8.75019
49.6609 8.76537
49.71 8.68321
49.7592 8.69351
49.8083 8.64461
49.8576 8.58171
49.9067 8.53514
49.956 8.53272
50.0052 8.50223
50.0545 8.50245
50.1036 8.42884
50.153 8.40184
50.2022 8.38294
50.2515 8.32774
50.3007 8.27019
50.3501 8.27587
50.3993 8.24653
50.4487 8.21075
50.498 8.1669
50.5474 8.11675
50.5966 8.11298
50.6461 8.08136
50.6955 8.01974
50.7448 8.03671
50.7943 8.01914
50.8436 7.96454
50.8931 7.9052
50.9424 7.92023
50.9919 7.85444
51.0413 7.86241
51.0908 7.83122
51.1402 7.7695
51.1897 7.7294
51.2391 7.72517
51.2887 7.67393
51.3381 7.63038
51.3877 7.63783
51.4371 7.56525
51.4867 7.52787
51.5362 7.53151
51.5858 7.50661
51.6353 7.43718
51.6849 7.44223
51.7344 7.39832
51.7841 7.39984
51.8336 7.372
51.8833 7.3226
51.9328 7.27622
51.9826 7.2448
52.0323 7.16765
52.0818 7.13743
52.1316 7.14551
52.1812 7.13094
52.231 7.08236
52.2806 7.04932
52.3304 7.04309
52.38 7.02514
52.4298 6.9907
52.4794 6.96896
52.5293 6.89286
52.5789 6.88928
52.6288 6.86901
52.6785 6.81448
52.7284 6.85468
52.7781 6.78611
52.828 6.7352
52.8777 6.74347
52.9276 6.69279
52.9774 6.61586
53.0273 6.64066
53.0771 6.60393
53.1271 6.58195
53.1769 6.55177
53.2269 6.54492
53.2767 6.49659
53.3267 6.4526
53.3765 6.41737
53.4266 6.44668
53.4766 6.37642
53.5265 6.34685
53.5765 6.34772
53.6264 6.35989
53.6765 6.29782
53.7264 6.2529
53.7765 6.25058
53.8265 6.21417
53.8766 6.19623
53.9266 6.14608
53.9767 6.12954
54.0267 6.10639
54.0769 6.05692
54.1269 6.01513
54.1771 6.02926
54.2271 5.9613
54.2773 5.9396
54.3274 5.92787
54.3776 5.89259
54.4277 5.82911
54.478 5.77264
54.528 5.75072
54.5783 5.73557
54.6285 5.7655
54.6788 5.71544
54.7289 5.60218
54.7792 5.57247
54.8296 5.52582
54.8798 5.47836
54.9301 5.407
54.9803 5.46266
55.0307 5.4166
55.0809 5.30704
55.1314 5.36049
55.1816 5.26268
55.232 5.2157
55.2823 5.14275
55.3328 5.09169
55.383 5.08784
55.4335 5.0384
55.4838 5.00269
55.5344 4.90175
55.5847 4.85707
55.6352 4.86971
55.6856 4.83325
55.7361 4.81769